SpectraSuite Data File
++++++++++++++++++++++++++++++++++++
Date: Mon Jun 06 17:23:57 CEST 2016
User: root
Dark Spectrum Present: No
Reference Spectrum Present: No
Number of Sampled Component Spectra: 1
Spectrometers: USB4C02835
Integration Time (usec): 100000 (USB4C02835)
Spectra Averaged: 1 (USB4C02835)
Boxcar Smoothing: 0 (USB4C02835)
Correct for Electrical Dark: No (USB4C02835)
Strobe/Lamp Enabled: No (USB4C02835)
Correct for Detector Non-linearity: No (USB4C02835)
Correct for Stray Light: No (USB4C02835)
Number of Pixels in Processed Spectrum: 3648
>>>>>Begin Processed Spectral Data<<<<<
177.47	1527.78
177.69	1527.78
177.91	1527.78
178.13	1458.15
178.36	1501.16
178.58	1708.01
178.80	1804.26
179.02	1615.85
179.24	1701.86
179.46	1728.49
179.68	1742.82
179.90	1638.38
180.13	1814.50
180.35	1636.33
180.57	1705.96
180.79	1757.16
181.01	1679.33
181.23	1802.21
181.45	1751.01
181.67	1683.43
181.90	1777.64
182.12	1748.97
182.34	1652.71
182.56	1742.82
182.78	1705.96
183.00	1695.72
183.22	1697.77
183.44	1681.38
183.66	1804.26
183.89	1859.56
184.11	1646.57
184.33	1791.97
184.55	1705.96
184.77	1691.62
184.99	1765.35
185.21	1708.01
185.43	1923.04
185.65	1675.24
185.87	1726.44
186.10	1816.55
186.32	1890.28
186.54	1761.25
186.76	1783.78
186.98	1816.55
187.20	1697.77
187.42	1734.63
187.64	1669.09
187.86	1738.73
188.08	1708.01
188.30	1720.29
188.52	1757.16
188.75	1806.31
188.97	1789.92
189.19	1654.76
189.41	1722.34
189.63	1744.87
189.85	1720.29
190.07	1691.62
190.29	1640.42
190.51	1804.26
190.73	1669.09
190.95	1755.11
191.17	1730.53
191.39	1595.37
191.61	1675.24
191.84	1691.62
192.06	1675.24
192.28	1595.37
192.50	1812.45
192.72	1765.35
192.94	1703.91
193.16	1765.35
193.38	1691.62
193.60	1685.48
193.82	1714.15
194.04	1845.22
194.26	1771.49
194.48	1775.59
194.70	1695.72
194.92	1683.43
195.14	1738.73
195.36	1624.04
195.58	1714.15
195.80	1757.16
196.02	1730.53
196.24	1708.01
196.46	1728.49
196.69	1714.15
196.91	1839.08
197.13	1712.10
197.35	1701.86
197.57	1722.34
197.79	1814.50
198.01	1781.73
198.23	1708.01
198.45	1705.96
198.67	1648.61
198.89	1751.01
199.11	1660.90
199.33	1662.95
199.55	1593.32
199.77	1693.67
199.99	1816.55
200.21	1687.53
200.43	1703.91
200.65	1642.47
200.87	1576.94
201.09	1701.86
201.31	1716.20
201.53	1806.31
201.75	1716.20
201.97	1685.48
202.19	1648.61
202.41	1746.92
202.63	1824.74
202.85	1646.57
203.07	1716.20
203.29	1677.29
203.51	1665.00
203.73	1597.42
203.95	1828.84
204.17	1787.88
204.39	1751.01
204.61	1708.01
204.83	1665.00
205.05	1742.82
205.27	1726.44
205.49	1843.17
205.71	1632.23
205.93	1621.99
206.15	1783.78
206.37	1724.39
206.59	1708.01
206.81	1609.70
207.03	1583.08
207.25	1654.76
207.47	1763.30
207.69	1634.28
207.91	1789.92
208.13	1738.73
208.34	1632.23
208.56	1669.09
208.78	1697.77
209.00	1720.29
209.22	1697.77
209.44	1697.77
209.66	1691.62
209.88	1783.78
210.10	1581.03
210.32	1755.11
210.54	1773.54
210.76	1705.96
210.98	1759.21
211.20	1589.22
211.42	1791.97
211.64	1828.84
211.86	1744.87
212.08	1759.21
212.30	1732.58
212.52	1689.57
212.74	1730.53
212.96	1755.11
213.17	1748.97
213.39	1720.29
213.61	1777.64
213.83	1740.77
214.05	1669.09
214.27	1765.35
214.49	1628.14
214.71	1658.85
214.93	1767.40
215.15	1693.67
215.37	1654.76
215.59	1585.13
215.81	1740.77
216.03	1806.31
216.24	1705.96
216.46	1742.82
216.68	1703.91
216.90	1765.35
217.12	1765.35
217.34	1748.97
217.56	1755.11
217.78	1820.64
218.00	1722.34
218.22	1683.43
218.44	1740.77
218.66	1714.15
218.87	1810.40
219.09	1748.97
219.31	1757.16
219.53	1697.77
219.75	1642.47
219.97	1683.43
220.19	1742.82
220.41	1679.33
220.63	1830.88
220.85	1839.08
221.06	1621.99
221.28	1808.36
221.50	1787.88
221.72	1712.10
221.94	1693.67
222.16	1732.58
222.38	1740.77
222.60	1726.44
222.82	1693.67
223.03	1816.55
223.25	1662.95
223.47	1705.96
223.69	1853.41
223.91	1794.02
224.13	1669.09
224.35	1746.92
224.57	1767.40
224.78	1755.11
225.00	1675.24
225.22	1677.29
225.44	1607.66
225.66	1761.25
225.88	1687.53
226.10	1746.92
226.32	1783.78
226.53	1779.68
226.75	1648.61
226.97	1714.15
227.19	1679.33
227.41	1695.72
227.63	1619.94
227.85	1652.71
228.06	1667.05
228.28	1755.11
228.50	1814.50
228.72	1681.38
228.94	1720.29
229.16	1660.90
229.37	1679.33
229.59	1648.61
229.81	1767.40
230.03	1652.71
230.25	1685.48
230.47	1691.62
230.69	1640.42
230.90	1814.50
231.12	1621.99
231.34	1675.24
231.56	1843.17
231.78	1632.23
232.00	1767.40
232.21	1660.90
232.43	1683.43
232.65	1669.09
232.87	1755.11
233.09	1701.86
233.30	1748.97
233.52	1726.44
233.74	1675.24
233.96	1757.16
234.18	1751.01
234.40	1705.96
234.61	1847.27
234.83	1585.13
235.05	1628.14
235.27	1914.85
235.49	1765.35
235.70	1697.77
235.92	1839.08
236.14	1734.63
236.36	1927.14
236.58	1701.86
236.79	1734.63
237.01	1701.86
237.23	1705.96
237.45	1781.73
237.67	1591.27
237.88	1712.10
238.10	1806.31
238.32	1675.24
238.54	1734.63
238.76	1648.61
238.97	1671.14
239.19	1783.78
239.41	1673.19
239.63	1734.63
239.85	1689.57
240.06	1771.49
240.28	1722.34
240.50	1773.54
240.72	1736.68
240.93	1683.43
241.15	1789.92
241.37	1736.68
241.59	1783.78
241.81	1630.18
242.02	1734.63
242.24	1665.00
242.46	1767.40
242.68	1644.52
242.89	1722.34
243.11	1761.25
243.33	1730.53
243.55	1701.86
243.76	1738.73
243.98	1705.96
244.20	1740.77
244.42	1732.58
244.64	1658.85
244.85	1621.99
245.07	1671.14
245.29	1759.21
245.51	1683.43
245.72	1716.20
245.94	1785.83
246.16	1773.54
246.38	1734.63
246.59	1642.47
246.81	1716.20
247.03	1734.63
247.24	1660.90
247.46	1595.37
247.68	1728.49
247.90	1640.42
248.11	1619.94
248.33	1705.96
248.55	1695.72
248.77	1732.58
248.98	1740.77
249.20	1824.74
249.42	1720.29
249.64	1734.63
249.85	1632.23
250.07	1708.01
250.29	1751.01
250.50	1679.33
250.72	1599.46
250.94	1667.05
251.16	1814.50
251.37	1789.92
251.59	1718.25
251.81	1742.82
252.02	1695.72
252.24	1642.47
252.46	1763.30
252.68	1667.05
252.89	1763.30
253.11	1636.33
253.33	1871.84
253.54	1781.73
253.76	1693.67
253.98	1714.15
254.20	1728.49
254.41	1548.26
254.63	1673.19
254.85	1642.47
255.06	1710.05
255.28	1812.45
255.50	1624.04
255.71	1615.85
255.93	1691.62
256.15	1601.51
256.36	1695.72
256.58	1576.94
256.80	1689.57
257.02	1773.54
257.23	1726.44
257.45	1744.87
257.67	1779.68
257.88	1648.61
258.10	1722.34
258.32	1712.10
258.53	1718.25
258.75	1808.36
258.97	1675.24
259.18	1619.94
259.40	1746.92
259.62	1736.68
259.83	1779.68
260.05	1777.64
260.27	2043.87
260.48	1730.53
260.70	1734.63
260.92	1660.90
261.13	1783.78
261.35	1726.44
261.57	1746.92
261.78	1630.18
262.00	1732.58
262.22	1769.44
262.43	1673.19
262.65	1740.77
262.86	1771.49
263.08	1822.69
263.30	1746.92
263.51	1720.29
263.73	1660.90
263.95	1767.40
264.16	1646.57
264.38	1714.15
264.60	1761.25
264.81	1646.57
265.03	1716.20
265.25	1712.10
265.46	1738.73
265.68	1763.30
265.89	1757.16
266.11	1660.90
266.33	1755.11
266.54	1859.56
266.76	1689.57
266.98	1703.91
267.19	1724.39
267.41	1718.25
267.62	1722.34
267.84	1611.75
268.06	1738.73
268.27	1761.25
268.49	1714.15
268.70	1787.88
268.92	1732.58
269.14	1671.14
269.35	1658.85
269.57	1710.05
269.79	1705.96
270.00	1658.85
270.22	1855.46
270.43	1718.25
270.65	1626.09
270.87	1736.68
271.08	1757.16
271.30	1796.07
271.51	1736.68
271.73	1757.16
271.95	1832.93
272.16	1767.40
272.38	1740.77
272.59	1751.01
272.81	1742.82
273.02	1755.11
273.24	1730.53
273.46	1871.84
273.67	1681.38
273.89	1734.63
274.10	1697.77
274.32	1837.03
274.54	1714.15
274.75	1726.44
274.97	1791.97
275.18	1775.59
275.40	1812.45
275.61	1736.68
275.83	1746.92
276.05	1685.48
276.26	1683.43
276.48	1771.49
276.69	1679.33
276.91	1630.18
277.12	1732.58
277.34	1773.54
277.55	1699.81
277.77	1662.95
277.99	1712.10
278.20	1617.90
278.42	1689.57
278.63	1648.61
278.85	1677.29
279.06	1636.33
279.28	1738.73
279.49	1826.79
279.71	1789.92
279.93	1722.34
280.14	1773.54
280.36	1675.24
280.57	1695.72
280.79	1777.64
281.00	1624.04
281.22	1611.75
281.43	1718.25
281.65	1583.08
281.86	1748.97
282.08	1712.10
282.29	1875.94
282.51	1718.25
282.73	1609.70
282.94	1583.08
283.16	1734.63
283.37	1855.46
283.59	1660.90
283.80	1804.26
284.02	1773.54
284.23	1771.49
284.45	1648.61
284.66	1710.05
284.88	1687.53
285.09	1816.55
285.31	1730.53
285.52	1826.79
285.74	1626.09
285.95	1751.01
286.17	1730.53
286.38	1783.78
286.60	1738.73
286.81	1644.52
287.03	1660.90
287.24	1660.90
287.46	1751.01
287.67	1724.39
287.89	1804.26
288.10	1734.63
288.32	1779.68
288.53	1843.17
288.75	1689.57
288.96	1753.06
289.18	1675.24
289.39	1726.44
289.61	1794.02
289.82	1822.69
290.04	1810.40
290.25	1665.00
290.47	1697.77
290.68	1708.01
290.90	1708.01
291.11	1593.32
291.33	1697.77
291.54	1607.66
291.76	1748.97
291.97	1759.21
292.18	1851.36
292.40	1730.53
292.61	1689.57
292.83	1857.51
293.04	1691.62
293.26	1710.05
293.47	1646.57
293.69	1656.81
293.90	1738.73
294.12	1783.78
294.33	1763.30
294.55	1728.49
294.76	1806.31
294.97	1816.55
295.19	1849.32
295.40	1613.80
295.62	1761.25
295.83	1781.73
296.05	1628.14
296.26	1720.29
296.48	1736.68
296.69	1736.68
296.90	1734.63
297.12	1746.92
297.33	1744.87
297.55	1724.39
297.76	1822.69
297.98	1761.25
298.19	1703.91
298.41	1681.38
298.62	1677.29
298.83	1796.07
299.05	1691.62
299.26	1654.76
299.48	1687.53
299.69	1808.36
299.90	1699.81
300.12	1718.25
300.33	1728.49
300.55	1695.72
300.76	1767.40
300.98	1660.90
301.19	1734.63
301.40	1695.72
301.62	1714.15
301.83	1765.35
302.05	1730.53
302.26	1748.97
302.47	1699.81
302.69	1638.38
302.90	1705.96
303.12	1572.84
303.33	1775.59
303.54	1769.44
303.76	1669.09
303.97	1718.25
304.19	1812.45
304.40	1701.86
304.61	1718.25
304.83	1806.31
305.04	1787.88
305.26	1771.49
305.47	1648.61
305.68	1607.66
305.90	1621.99
306.11	1787.88
306.33	1683.43
306.54	1755.11
306.75	1648.61
306.97	1652.71
307.18	1611.75
307.39	1718.25
307.61	1654.76
307.82	1693.67
308.04	1861.60
308.25	1617.90
308.46	1699.81
308.68	1693.67
308.89	1798.12
309.10	1785.83
309.32	1765.35
309.53	1722.34
309.74	1710.05
309.96	1759.21
310.17	1806.31
310.39	1617.90
310.60	1761.25
310.81	1726.44
311.03	1714.15
311.24	1781.73
311.45	1677.29
311.67	1918.95
311.88	1693.67
312.09	1638.38
312.31	1724.39
312.52	1671.14
312.73	1730.53
312.95	1695.72
313.16	1669.09
313.37	1722.34
313.59	1753.06
313.80	1753.06
314.01	1851.36
314.23	1742.82
314.44	1630.18
314.65	1712.10
314.87	1685.48
315.08	1687.53
315.29	1673.19
315.51	1615.85
315.72	1601.51
315.93	1761.25
316.15	1783.78
316.36	1697.77
316.57	1716.20
316.79	1771.49
317.00	1687.53
317.21	1697.77
317.43	1744.87
317.64	1714.15
317.85	1687.53
318.07	1689.57
318.28	1742.82
318.49	1820.64
318.70	1871.84
318.92	1837.03
319.13	1841.12
319.34	1773.54
319.56	1767.40
319.77	1791.97
319.98	1800.16
320.20	1837.03
320.41	1689.57
320.62	1759.21
320.83	1662.95
321.05	1791.97
321.26	1746.92
321.47	1728.49
321.69	1789.92
321.90	1658.85
322.11	1683.43
322.32	1812.45
322.54	1757.16
322.75	1662.95
322.96	1816.55
323.18	1617.90
323.39	1624.04
323.60	1714.15
323.81	1771.49
324.03	1632.23
324.24	1712.10
324.45	1755.11
324.66	1697.77
324.88	1810.40
325.09	1820.64
325.30	1685.48
325.52	1734.63
325.73	1673.19
325.94	1665.00
326.15	1607.66
326.37	1652.71
326.58	1718.25
326.79	1759.21
327.00	1701.86
327.22	1687.53
327.43	1689.57
327.64	1609.70
327.85	1765.35
328.07	1671.14
328.28	1841.12
328.49	1746.92
328.70	1685.48
328.92	1724.39
329.13	1660.90
329.34	1730.53
329.55	1804.26
329.76	1781.73
329.98	1636.33
330.19	1736.68
330.40	1757.16
330.61	1726.44
330.83	1732.58
331.04	1665.00
331.25	1689.57
331.46	1708.01
331.68	1632.23
331.89	1839.08
332.10	1748.97
332.31	1669.09
332.52	1687.53
332.74	1746.92
332.95	1626.09
333.16	1660.90
333.37	1775.59
333.58	1701.86
333.80	1695.72
334.01	1599.46
334.22	1691.62
334.43	1720.29
334.64	1677.29
334.86	1626.09
335.07	1689.57
335.28	1798.12
335.49	1611.75
335.70	1730.53
335.92	1787.88
336.13	1853.41
336.34	1693.67
336.55	1742.82
336.76	1755.11
336.98	1648.61
337.19	1673.19
337.40	1826.79
337.61	1824.74
337.82	1677.29
338.04	1767.40
338.25	1603.56
338.46	1634.28
338.67	1722.34
338.88	1708.01
339.09	1630.18
339.31	1710.05
339.52	1734.63
339.73	1685.48
339.94	1689.57
340.15	1751.01
340.36	1777.64
340.58	1730.53
340.79	1691.62
341.00	1748.97
341.21	1615.85
341.42	1853.41
341.63	1691.62
341.85	1722.34
342.06	1771.49
342.27	1683.43
342.48	1714.15
342.69	1642.47
342.90	1796.07
343.12	1699.81
343.33	1703.91
343.54	1767.40
343.75	1771.49
343.96	1734.63
344.17	1652.71
344.38	1628.14
344.60	1615.85
344.81	1648.61
345.02	1683.43
345.23	1761.25
345.44	1808.36
345.65	1722.34
345.86	1730.53
346.07	1708.01
346.29	1605.61
346.50	1759.21
346.71	1730.53
346.92	1802.21
347.13	1818.60
347.34	1687.53
347.55	1660.90
347.76	1714.15
347.98	1740.77
348.19	1693.67
348.40	1781.73
348.61	1669.09
348.82	1851.36
349.03	1796.07
349.24	1732.58
349.45	1818.60
349.66	1597.42
349.88	1730.53
350.09	1685.48
350.30	1789.92
350.51	1767.40
350.72	1738.73
350.93	1783.78
351.14	1687.53
351.35	1802.21
351.56	1761.25
351.77	1675.24
351.99	1728.49
352.20	1746.92
352.41	1822.69
352.62	1550.31
352.83	1720.29
353.04	1781.73
353.25	1660.90
353.46	1802.21
353.67	1730.53
353.88	1595.37
354.09	1744.87
354.30	1738.73
354.52	1787.88
354.73	1673.19
354.94	1665.00
355.15	1761.25
355.36	1837.03
355.57	1691.62
355.78	1732.58
355.99	1714.15
356.20	1728.49
356.41	1783.78
356.62	1689.57
356.83	1687.53
357.04	1785.83
357.25	1599.46
357.46	1687.53
357.68	1562.60
357.89	1781.73
358.10	1687.53
358.31	1732.58
358.52	1689.57
358.73	1736.68
358.94	1701.86
359.15	1689.57
359.36	1791.97
359.57	1695.72
359.78	1777.64
359.99	1763.30
360.20	1650.66
360.41	1757.16
360.62	1796.07
360.83	1695.72
361.04	1681.38
361.25	1779.68
361.46	1773.54
361.67	1771.49
361.88	1816.55
362.09	1765.35
362.30	1791.97
362.51	1710.05
362.72	1781.73
362.93	1685.48
363.14	1734.63
363.35	1693.67
363.56	1660.90
363.78	1742.82
363.99	1746.92
364.20	1689.57
364.41	1759.21
364.62	1796.07
364.83	1824.74
365.04	1738.73
365.25	1767.40
365.46	1802.21
365.67	1673.19
365.88	1675.24
366.09	1665.00
366.30	1724.39
366.51	1675.24
366.72	1638.38
366.93	1689.57
367.14	1685.48
367.35	1742.82
367.56	1726.44
367.77	1834.98
367.98	1724.39
368.18	1691.62
368.39	1693.67
368.60	1654.76
368.81	1761.25
369.02	1748.97
369.23	1667.05
369.44	1667.05
369.65	1695.72
369.86	1785.83
370.07	1744.87
370.28	1662.95
370.49	1710.05
370.70	1742.82
370.91	1628.14
371.12	1603.56
371.33	1673.19
371.54	1656.81
371.75	1779.68
371.96	1640.42
372.17	1644.52
372.38	1673.19
372.59	1761.25
372.80	1718.25
373.01	1714.15
373.22	1753.06
373.43	1687.53
373.64	1599.46
373.85	1746.92
374.06	1820.64
374.26	1818.60
374.47	1736.68
374.68	1724.39
374.89	1650.66
375.10	1718.25
375.31	1718.25
375.52	1761.25
375.73	1781.73
375.94	1646.57
376.15	1781.73
376.36	1658.85
376.57	1710.05
376.78	1759.21
376.99	1753.06
377.20	1804.26
377.40	1728.49
377.61	1933.28
377.82	1656.81
378.03	1732.58
378.24	1783.78
378.45	1681.38
378.66	1738.73
378.87	1626.09
379.08	1650.66
379.29	1773.54
379.50	1781.73
379.71	1726.44
379.91	1777.64
380.12	1744.87
380.33	1705.96
380.54	1722.34
380.75	1765.35
380.96	1642.47
381.17	1816.55
381.38	1765.35
381.59	1794.02
381.80	1726.44
382.00	1839.08
382.21	1689.57
382.42	1845.22
382.63	1892.32
382.84	1832.93
383.05	1767.40
383.26	1834.98
383.47	1757.16
383.68	1728.49
383.88	1757.16
384.09	1755.11
384.30	1804.26
384.51	1679.33
384.72	1685.48
384.93	1617.90
385.14	1767.40
385.35	1730.53
385.55	1701.86
385.76	1767.40
385.97	1746.92
386.18	1626.09
386.39	1677.29
386.60	1712.10
386.81	1703.91
387.02	1615.85
387.22	1716.20
387.43	1800.16
387.64	1822.69
387.85	1828.84
388.06	2164.70
388.27	4302.78
388.48	6647.71
388.68	8234.88
388.89	9387.89
389.10	9668.46
389.31	8542.08
389.52	7567.24
389.73	6768.54
389.93	6311.84
390.14	5805.99
390.35	5179.31
390.56	4618.17
390.77	3784.65
390.98	3033.04
391.18	2514.91
391.39	2166.75
391.60	1859.56
391.81	1841.12
392.02	1701.86
392.23	1929.19
392.43	1712.10
392.64	1873.89
392.85	1748.97
393.06	1796.07
393.27	1736.68
393.47	1720.29
393.68	1779.68
393.89	1646.57
394.10	1761.25
394.31	1681.38
394.52	1658.85
394.72	1718.25
394.93	1789.92
395.14	1755.11
395.35	1779.68
395.56	1722.34
395.76	1779.68
395.97	1796.07
396.18	1832.93
396.39	1820.64
396.60	2037.73
396.80	1880.04
397.01	1820.64
397.22	1820.64
397.43	1859.56
397.64	1785.83
397.84	1718.25
398.05	1871.84
398.26	1767.40
398.47	1865.70
398.67	1714.15
398.88	1732.58
399.09	1728.49
399.30	1742.82
399.51	1783.78
399.71	1613.80
399.92	1687.53
400.13	1771.49
400.34	1708.01
400.54	1796.07
400.75	1736.68
400.96	1720.29
401.17	1867.75
401.37	1734.63
401.58	1705.96
401.79	1765.35
402.00	1902.56
402.21	2023.39
402.41	1869.80
402.62	1996.77
402.83	2082.78
403.04	2013.15
403.24	2191.33
403.45	1834.98
403.66	2021.35
403.87	1845.22
404.07	1920.99
404.28	1877.99
404.49	1863.65
404.70	1769.44
404.90	1746.92
405.11	1761.25
405.32	1742.82
405.52	1689.57
405.73	1693.67
405.94	1726.44
406.15	1728.49
406.35	1796.07
406.56	1783.78
406.77	1701.86
406.98	1746.92
407.18	1671.14
407.39	1779.68
407.60	1683.43
407.80	1763.30
408.01	1697.77
408.22	1814.50
408.43	1710.05
408.63	1765.35
408.84	1734.63
409.05	1857.51
409.25	1654.76
409.46	1742.82
409.67	1759.21
409.88	1708.01
410.08	1732.58
410.29	1789.92
410.50	1751.01
410.70	1761.25
410.91	1683.43
411.12	1697.77
411.32	1730.53
411.53	1677.29
411.74	1785.83
411.95	1794.02
412.15	1787.88
412.36	1853.41
412.57	1785.83
412.77	1851.36
412.98	1812.45
413.19	1806.31
413.39	1701.86
413.60	1769.44
413.81	1779.68
414.01	1619.94
414.22	1751.01
414.43	1816.55
414.63	1773.54
414.84	1742.82
415.05	1669.09
415.25	1650.66
415.46	1712.10
415.67	1757.16
415.87	1732.58
416.08	1703.91
416.29	1708.01
416.49	1806.31
416.70	1701.86
416.91	1751.01
417.11	1720.29
417.32	1769.44
417.53	1746.92
417.73	1660.90
417.94	1757.16
418.15	1800.16
418.35	1705.96
418.56	1693.67
418.77	1839.08
418.97	1757.16
419.18	1705.96
419.38	1585.13
419.59	1712.10
419.80	1714.15
420.00	1640.42
420.21	1736.68
420.42	1791.97
420.62	1673.19
420.83	1689.57
421.04	1732.58
421.24	1689.57
421.45	1755.11
421.65	1751.01
421.86	1703.91
422.07	1800.16
422.27	1812.45
422.48	1728.49
422.69	1603.56
422.89	1765.35
423.10	1763.30
423.30	1710.05
423.51	1796.07
423.72	1755.11
423.92	1806.31
424.13	1720.29
424.33	1761.25
424.54	1783.78
424.75	1757.16
424.95	1898.47
425.16	1755.11
425.36	1681.38
425.57	1789.92
425.78	1726.44
425.98	1789.92
426.19	1738.73
426.39	1662.95
426.60	1738.73
426.81	1746.92
427.01	1767.40
427.22	1732.58
427.42	1624.04
427.63	1697.77
427.83	1703.91
428.04	1814.50
428.25	1726.44
428.45	1734.63
428.66	1755.11
428.86	1800.16
429.07	1736.68
429.28	1781.73
429.48	1660.90
429.69	1746.92
429.89	1673.19
430.10	1656.81
430.30	1732.58
430.51	1814.50
430.71	1705.96
430.92	1720.29
431.13	1665.00
431.33	1757.16
431.54	1703.91
431.74	1806.31
431.95	1791.97
432.15	1746.92
432.36	1685.48
432.56	1718.25
432.77	1816.55
432.98	1880.04
433.18	1814.50
433.39	1679.33
433.59	1630.18
433.80	1800.16
434.00	1857.51
434.21	1654.76
434.41	1689.57
434.62	1857.51
434.82	1687.53
435.03	1738.73
435.23	1761.25
435.44	1697.77
435.64	1671.14
435.85	1779.68
436.06	1789.92
436.26	1802.21
436.47	1712.10
436.67	1656.81
436.88	1798.12
437.08	1757.16
437.29	1785.83
437.49	1781.73
437.70	1755.11
437.90	1701.86
438.11	1839.08
438.31	1798.12
438.52	1877.99
438.72	1820.64
438.93	1910.75
439.13	1849.32
439.34	1804.26
439.54	1740.77
439.75	1787.88
439.95	1759.21
440.16	1744.87
440.36	1771.49
440.57	1777.64
440.77	1677.29
440.98	1689.57
441.18	1806.31
441.39	1656.81
441.59	1613.80
441.80	1871.84
442.00	1679.33
442.21	1785.83
442.41	1681.38
442.62	1832.93
442.82	1712.10
443.02	1738.73
443.23	1722.34
443.43	1751.01
443.64	1781.73
443.84	1669.09
444.05	1824.74
444.25	1687.53
444.46	1710.05
444.66	1699.81
444.87	1839.08
445.07	1665.00
445.28	1718.25
445.48	1863.65
445.69	1763.30
445.89	1871.84
446.09	1697.77
446.30	2086.88
446.50	2688.98
446.71	3639.24
446.91	4308.93
447.12	4659.13
447.32	4937.65
447.53	4300.73
447.73	3917.76
447.93	3549.13
448.14	3272.65
448.34	3176.40
448.55	2990.03
448.75	2944.98
448.96	2789.33
449.16	2475.99
449.36	2299.87
449.57	2041.82
449.77	1845.22
449.98	1863.65
450.18	1853.41
450.39	1882.08
450.59	1691.62
450.79	1662.95
451.00	1724.39
451.20	1746.92
451.41	1595.37
451.61	1695.72
451.81	1748.97
452.02	1724.39
452.22	1632.23
452.43	1689.57
452.63	1767.40
452.84	1818.60
453.04	1753.06
453.24	1771.49
453.45	1712.10
453.65	1730.53
453.86	1775.59
454.06	1804.26
454.26	1724.39
454.47	1726.44
454.67	1738.73
454.87	1736.68
455.08	1685.48
455.28	1865.70
455.49	1812.45
455.69	1736.68
455.89	1898.47
456.10	1810.40
456.30	1701.86
456.51	1685.48
456.71	1796.07
456.91	1691.62
457.12	1763.30
457.32	1775.59
457.52	1708.01
457.73	1757.16
457.93	1732.58
458.14	1679.33
458.34	1636.33
458.54	1617.90
458.75	1669.09
458.95	1894.37
459.15	1724.39
459.36	1755.11
459.56	1834.98
459.76	1853.41
459.97	1814.50
460.17	1751.01
460.37	1781.73
460.58	1681.38
460.78	1798.12
460.99	1693.67
461.19	1746.92
461.39	1791.97
461.60	1662.95
461.80	1783.78
462.00	1734.63
462.21	1708.01
462.41	1742.82
462.61	1705.96
462.82	1634.28
463.02	1773.54
463.22	1714.15
463.43	1730.53
463.63	1771.49
463.83	1890.28
464.04	1724.39
464.24	1728.49
464.44	1755.11
464.64	1728.49
464.85	1724.39
465.05	1798.12
465.25	1753.06
465.46	1728.49
465.66	1791.97
465.86	1789.92
466.07	1798.12
466.27	1757.16
466.47	1662.95
466.68	1632.23
466.88	1783.78
467.08	1777.64
467.29	1769.44
467.49	1824.74
467.69	1787.88
467.89	1804.26
468.10	1695.72
468.30	1763.30
468.50	1828.84
468.71	1689.57
468.91	1630.18
469.11	1869.80
469.31	1695.72
469.52	1656.81
469.72	1847.27
469.92	1781.73
470.13	1734.63
470.33	1716.20
470.53	1837.03
470.73	2136.03
470.94	2369.50
471.14	2369.50
471.34	2508.76
471.54	2441.18
471.75	2166.75
471.95	2172.89
472.15	2090.98
472.36	2093.02
472.56	2086.88
472.76	2076.64
472.96	1945.57
473.17	1894.37
473.37	2013.15
473.57	1859.56
473.77	1822.69
473.98	1783.78
474.18	1742.82
474.38	1871.84
474.58	1689.57
474.79	1671.14
474.99	1796.07
475.19	1677.29
475.39	1665.00
475.60	1794.02
475.80	1695.72
476.00	1804.26
476.20	1695.72
476.41	1763.30
476.61	1783.78
476.81	1832.93
477.01	1636.33
477.21	1851.36
477.42	1779.68
477.62	1718.25
477.82	1740.77
478.02	1673.19
478.23	1806.31
478.43	1691.62
478.63	1751.01
478.83	1683.43
479.03	1730.53
479.24	1779.68
479.44	1804.26
479.64	1603.56
479.84	1642.47
480.04	1699.81
480.25	1716.20
480.45	1697.77
480.65	1683.43
480.85	1847.27
481.06	1732.58
481.26	1783.78
481.46	1683.43
481.66	1759.21
481.86	1714.15
482.06	1728.49
482.27	1742.82
482.47	1662.95
482.67	1775.59
482.87	1751.01
483.07	1818.60
483.28	1712.10
483.48	1638.38
483.68	1796.07
483.88	1585.13
484.08	1648.61
484.29	1703.91
484.49	1644.52
484.69	1617.90
484.89	1748.97
485.09	1771.49
485.29	1796.07
485.50	1720.29
485.70	1720.29
485.90	1798.12
486.10	1779.68
486.30	1877.99
486.50	1798.12
486.71	1740.77
486.91	1759.21
487.11	1789.92
487.31	1626.09
487.51	1722.34
487.71	1714.15
487.91	1671.14
488.12	1679.33
488.32	1652.71
488.52	1732.58
488.72	1599.46
488.92	1730.53
489.12	1773.54
489.32	1761.25
489.53	1820.64
489.73	1669.09
489.93	1775.59
490.13	1759.21
490.33	1652.71
490.53	1771.49
490.73	1722.34
490.94	1697.77
491.14	1839.08
491.34	1822.69
491.54	2189.28
491.74	2590.68
491.94	2877.40
492.14	3078.10
492.34	3082.19
492.54	2809.81
492.75	2494.43
492.95	2463.71
493.15	2295.77
493.35	2312.16
493.55	2246.62
493.75	2150.37
493.95	2144.22
494.15	2064.35
494.35	1998.82
494.56	1871.84
494.76	1693.67
494.96	1808.36
495.16	1794.02
495.36	1699.81
495.56	1779.68
495.76	1714.15
495.96	1730.53
496.16	1683.43
496.36	1791.97
496.56	1804.26
496.77	1763.30
496.97	1699.81
497.17	1751.01
497.37	1689.57
497.57	1728.49
497.77	1755.11
497.97	1701.86
498.17	1683.43
498.37	1730.53
498.57	1837.03
498.77	1726.44
498.97	1824.74
499.17	1871.84
499.38	1775.59
499.58	1765.35
499.78	1787.88
499.98	1855.46
500.18	1693.67
500.38	1783.78
500.58	1863.65
500.78	2623.45
500.98	4503.48
501.18	5826.47
501.38	6924.18
501.58	7143.32
501.78	6817.69
501.98	5541.80
502.18	5076.91
502.38	4347.84
502.58	4218.82
502.78	3819.46
502.98	3725.26
503.18	3436.49
503.38	3291.09
503.59	2832.34
503.79	2684.89
503.99	2467.80
504.19	2295.77
504.39	2256.86
504.59	2164.70
504.79	2115.55
504.99	2080.74
505.19	1943.52
505.39	1902.56
505.59	1882.08
505.79	1875.94
505.99	1904.61
506.19	1785.83
506.39	1875.94
506.59	1736.68
506.79	1787.88
506.99	1904.61
507.19	1728.49
507.39	1806.31
507.59	1689.57
507.79	1701.86
507.99	1736.68
508.19	1744.87
508.39	1708.01
508.59	1636.33
508.79	1869.80
508.99	1902.56
509.19	1746.92
509.39	1722.34
509.59	1732.58
509.79	1732.58
509.99	1728.49
510.19	1804.26
510.39	1832.93
510.59	1773.54
510.79	1722.34
510.99	1689.57
511.19	1757.16
511.39	1796.07
511.59	1783.78
511.79	1806.31
511.99	1746.92
512.19	1812.45
512.38	1779.68
512.58	1636.33
512.78	1753.06
512.98	1769.44
513.18	1828.84
513.38	1693.67
513.58	1808.36
513.78	1722.34
513.98	1765.35
514.18	1671.14
514.38	1689.57
514.58	1800.16
514.78	1695.72
514.98	1740.77
515.18	1687.53
515.38	1683.43
515.58	1834.98
515.78	1677.29
515.98	1849.32
516.18	1763.30
516.38	1667.05
516.57	1742.82
516.77	1746.92
516.97	1759.21
517.17	1738.73
517.37	1685.48
517.57	1787.88
517.77	1730.53
517.97	1734.63
518.17	1781.73
518.37	1667.05
518.57	1728.49
518.77	1759.21
518.97	1748.97
519.16	1771.49
519.36	1738.73
519.56	1669.09
519.76	1742.82
519.96	1742.82
520.16	1914.85
520.36	1714.15
520.56	1810.40
520.76	1662.95
520.96	1720.29
521.16	1800.16
521.35	1814.50
521.55	1822.69
521.75	1761.25
521.95	1683.43
522.15	1693.67
522.35	1681.38
522.55	1695.72
522.75	1773.54
522.95	1734.63
523.14	1662.95
523.34	1769.44
523.54	1742.82
523.74	1822.69
523.94	1708.01
524.14	1624.04
524.34	1769.44
524.54	1732.58
524.73	1755.11
524.93	1732.58
525.13	1757.16
525.33	1650.66
525.53	1906.66
525.73	1798.12
525.93	1755.11
526.13	1736.68
526.32	1748.97
526.52	1837.03
526.72	1757.16
526.92	1773.54
527.12	1736.68
527.32	1654.76
527.52	1826.79
527.71	1763.30
527.91	1708.01
528.11	1648.61
528.31	1738.73
528.51	1652.71
528.71	1789.92
528.90	1810.40
529.10	1841.12
529.30	1832.93
529.50	1677.29
529.70	1726.44
529.90	1683.43
530.09	1697.77
530.29	1726.44
530.49	1656.81
530.69	1916.90
530.89	1742.82
531.09	1746.92
531.28	1691.62
531.48	1849.32
531.68	1748.97
531.88	1681.38
532.08	1757.16
532.28	1656.81
532.47	1806.31
532.67	1740.77
532.87	1730.53
533.07	1636.33
533.27	1757.16
533.46	1751.01
533.66	1761.25
533.86	1722.34
534.06	1679.33
534.26	1757.16
534.45	1765.35
534.65	1855.46
534.85	1705.96
535.05	1720.29
535.25	1828.84
535.44	1632.23
535.64	1804.26
535.84	1746.92
536.04	1755.11
536.24	1701.86
536.43	1710.05
536.63	1718.25
536.83	1771.49
537.03	1724.39
537.22	1699.81
537.42	1619.94
537.62	1740.77
537.82	1638.38
538.02	1822.69
538.21	1746.92
538.41	1908.71
538.61	1748.97
538.81	1665.00
539.00	1765.35
539.20	1656.81
539.40	1718.25
539.60	1716.20
539.79	1845.22
539.99	1755.11
540.19	1802.21
540.39	1742.82
540.58	1775.59
540.78	1806.31
540.98	1724.39
541.18	1787.88
541.37	1783.78
541.57	1763.30
541.77	1820.64
541.97	1650.66
542.16	1593.32
542.36	1771.49
542.56	1751.01
542.76	1875.94
542.95	1802.21
543.15	1718.25
543.35	1732.58
543.54	1734.63
543.74	1658.85
543.94	1777.64
544.14	1771.49
544.33	1742.82
544.53	1730.53
544.73	1708.01
544.93	1667.05
545.12	1744.87
545.32	1738.73
545.52	1667.05
545.71	1665.00
545.91	1677.29
546.11	1712.10
546.30	1689.57
546.50	1738.73
546.70	1877.99
546.90	1773.54
547.09	1687.53
547.29	1736.68
547.49	1865.70
547.68	1806.31
547.88	1730.53
548.08	1724.39
548.27	2129.89
548.47	1722.34
548.67	1773.54
548.87	1830.88
549.06	1693.67
549.26	1812.45
549.46	1800.16
549.65	1701.86
549.85	1773.54
550.05	1845.22
550.24	1691.62
550.44	1785.83
550.64	1777.64
550.83	1708.01
551.03	1814.50
551.23	1828.84
551.42	1748.97
551.62	1791.97
551.82	1753.06
552.01	1691.62
552.21	1820.64
552.41	1732.58
552.60	1798.12
552.80	1777.64
553.00	1726.44
553.19	1746.92
553.39	1841.12
553.59	1689.57
553.78	1759.21
553.98	1753.06
554.17	1767.40
554.37	1757.16
554.57	1757.16
554.76	1742.82
554.96	1646.57
555.16	1746.92
555.35	1761.25
555.55	1781.73
555.75	1814.50
555.94	1695.72
556.14	1673.19
556.33	1802.21
556.53	1718.25
556.73	1740.77
556.92	1726.44
557.12	1837.03
557.32	1894.37
557.51	1859.56
557.71	1798.12
557.90	1837.03
558.10	1834.98
558.30	1767.40
558.49	1751.01
558.69	1693.67
558.88	1791.97
559.08	1761.25
559.28	1669.09
559.47	1716.20
559.67	1839.08
559.86	1820.64
560.06	1834.98
560.26	1753.06
560.45	1826.79
560.65	1724.39
560.84	1845.22
561.04	1689.57
561.24	1658.85
561.43	1648.61
561.63	1828.84
561.82	1728.49
562.02	1832.93
562.22	1693.67
562.41	1646.57
562.61	1767.40
562.80	1718.25
563.00	1949.67
563.19	1814.50
563.39	1748.97
563.59	1716.20
563.78	1740.77
563.98	1701.86
564.17	1767.40
564.37	1665.00
564.56	1712.10
564.76	1734.63
564.96	1837.03
565.15	1701.86
565.35	1886.18
565.54	1763.30
565.74	1734.63
565.93	1746.92
566.13	1759.21
566.32	1765.35
566.52	1841.12
566.71	1769.44
566.91	1918.95
567.11	1705.96
567.30	1753.06
567.50	1738.73
567.69	1787.88
567.89	1687.53
568.08	1689.57
568.28	1794.02
568.47	1636.33
568.67	1847.27
568.86	1703.91
569.06	1732.58
569.25	1697.77
569.45	1736.68
569.64	1671.14
569.84	1761.25
570.04	1773.54
570.23	1763.30
570.43	1818.60
570.62	1671.14
570.82	1804.26
571.01	1697.77
571.21	1738.73
571.40	1761.25
571.60	1798.12
571.79	1857.51
571.99	1757.16
572.18	1667.05
572.38	1712.10
572.57	1722.34
572.77	1812.45
572.96	1941.47
573.16	1771.49
573.35	1748.97
573.55	1763.30
573.74	1726.44
573.94	1660.90
574.13	1751.01
574.33	1720.29
574.52	1794.02
574.71	1751.01
574.91	1794.02
575.10	1687.53
575.30	1742.82
575.49	1662.95
575.69	1748.97
575.88	1818.60
576.08	1675.24
576.27	1773.54
576.47	1759.21
576.66	1890.28
576.86	1820.64
577.05	1765.35
577.25	1810.40
577.44	1900.52
577.64	1746.92
577.83	1826.79
578.02	1701.86
578.22	1920.99
578.41	1826.79
578.61	1712.10
578.80	1777.64
579.00	1753.06
579.19	1767.40
579.39	1826.79
579.58	1812.45
579.77	1748.97
579.97	1861.60
580.16	1925.09
580.36	1804.26
580.55	1832.93
580.75	1671.14
580.94	1765.35
581.13	1828.84
581.33	1865.70
581.52	1796.07
581.72	1851.36
581.91	1824.74
582.11	1796.07
582.30	1779.68
582.49	1771.49
582.69	1832.93
582.88	1730.53
583.08	1914.85
583.27	1830.88
583.47	1804.26
583.66	1689.57
583.85	1712.10
584.05	1714.15
584.24	1820.64
584.44	1812.45
584.63	1851.36
584.82	1843.17
585.02	1869.80
585.21	1880.04
585.41	1841.12
585.60	1875.94
585.79	1880.04
585.99	1951.71
586.18	1916.90
586.37	2181.09
586.57	3389.39
586.76	9901.93
586.96	24264.33
587.15	34037.24
587.34	40359.32
587.54	42237.31
587.73	36029.91
587.93	25874.04
588.12	21399.23
588.31	18470.63
588.51	16338.69
588.70	14976.80
588.89	14085.93
589.09	12455.75
589.28	10991.45
589.47	9254.77
589.67	7960.45
589.86	6438.81
590.06	4822.97
590.25	3952.58
590.44	3071.95
590.64	2564.06
590.83	2248.67
591.02	2037.73
591.22	1955.81
591.41	1929.19
591.60	1851.36
591.80	2060.26
591.99	1826.79
592.18	1781.73
592.38	1810.40
592.57	1724.39
592.76	1773.54
592.96	1736.68
593.15	1802.21
593.34	1912.80
593.54	1843.17
593.73	1808.36
593.92	1812.45
594.12	1830.88
594.31	1771.49
594.50	1888.23
594.70	1796.07
594.89	1976.29
595.08	1726.44
595.28	1775.59
595.47	1912.80
595.66	1798.12
595.86	1720.29
596.05	1755.11
596.24	1705.96
596.43	1820.64
596.63	1820.64
596.82	1724.39
597.01	1798.12
597.21	1812.45
597.40	1742.82
597.59	1785.83
597.79	1753.06
597.98	1769.44
598.17	1757.16
598.36	1789.92
598.56	1767.40
598.75	1665.00
598.94	1841.12
599.14	1742.82
599.33	1751.01
599.52	1867.75
599.71	1734.63
599.91	1787.88
600.10	1841.12
600.29	1685.48
600.48	1808.36
600.68	1830.88
600.87	1812.45
601.06	1699.81
601.26	1867.75
601.45	1812.45
601.64	1746.92
601.83	1794.02
602.03	1669.09
602.22	1685.48
602.41	1814.50
602.60	1855.46
602.80	1697.77
602.99	1751.01
603.18	1755.11
603.37	1751.01
603.57	1777.64
603.76	1818.60
603.95	1781.73
604.14	1724.39
604.34	1712.10
604.53	1796.07
604.72	1787.88
604.91	1847.27
605.10	1816.55
605.30	1710.05
605.49	1826.79
605.68	1800.16
605.87	1742.82
606.07	1660.90
606.26	1814.50
606.45	1783.78
606.64	1746.92
606.84	1691.62
607.03	1710.05
607.22	1730.53
607.41	1718.25
607.60	1783.78
607.80	1789.92
607.99	1753.06
608.18	1781.73
608.37	1728.49
608.56	1710.05
608.76	1798.12
608.95	1839.08
609.14	1710.05
609.33	1771.49
609.52	1773.54
609.72	1771.49
609.91	1791.97
610.10	1726.44
610.29	1830.88
610.48	1746.92
610.68	1759.21
610.87	1716.20
611.06	1757.16
611.25	1693.67
611.44	1796.07
611.63	1710.05
611.83	1898.47
612.02	1718.25
612.21	1808.36
612.40	1689.57
612.59	1665.00
612.79	1665.00
612.98	1783.78
613.17	1818.60
613.36	1771.49
613.55	1732.58
613.74	1742.82
613.93	1689.57
614.13	1748.97
614.32	1751.01
614.51	1783.78
614.70	1693.67
614.89	1712.10
615.08	1753.06
615.28	2076.64
615.47	1673.19
615.66	1679.33
615.85	1777.64
616.04	1886.18
616.23	1714.15
616.42	1722.34
616.62	1777.64
616.81	1804.26
617.00	1738.73
617.19	1724.39
617.38	1775.59
617.57	1759.21
617.76	1759.21
617.95	1757.16
618.15	1746.92
618.34	1851.36
618.53	1681.38
618.72	1898.47
618.91	1822.69
619.10	1824.74
619.29	1718.25
619.48	1734.63
619.68	1689.57
619.87	1753.06
620.06	1683.43
620.25	1689.57
620.44	1771.49
620.63	1726.44
620.82	1742.82
621.01	1757.16
621.20	1732.58
621.39	1693.67
621.59	1738.73
621.78	1697.77
621.97	1732.58
622.16	1798.12
622.35	1732.58
622.54	1806.31
622.73	1777.64
622.92	1624.04
623.11	1839.08
623.30	1800.16
623.49	1822.69
623.68	1681.38
623.88	1787.88
624.07	1742.82
624.26	1705.96
624.45	1708.01
624.64	1746.92
624.83	1744.87
625.02	1771.49
625.21	1734.63
625.40	1732.58
625.59	1855.46
625.78	1730.53
625.97	1824.74
626.16	1818.60
626.35	1796.07
626.54	1671.14
626.74	1861.60
626.93	1693.67
627.12	1771.49
627.31	1832.93
627.50	1761.25
627.69	1839.08
627.88	1669.09
628.07	1746.92
628.26	1646.57
628.45	1695.72
628.64	1658.85
628.83	1662.95
629.02	1665.00
629.21	1753.06
629.40	1757.16
629.59	1660.90
629.78	1753.06
629.97	1681.38
630.16	1771.49
630.35	1681.38
630.54	1775.59
630.73	1642.47
630.92	1665.00
631.11	1621.99
631.30	1769.44
631.49	1767.40
631.68	1693.67
631.87	1785.83
632.06	1695.72
632.25	1828.84
632.44	1695.72
632.63	1769.44
632.82	1726.44
633.01	1624.04
633.20	1720.29
633.39	1642.47
633.58	1619.94
633.77	1712.10
633.96	1740.77
634.15	1730.53
634.34	1849.32
634.53	1701.86
634.72	1710.05
634.91	1685.48
635.10	1791.97
635.29	1832.93
635.48	1753.06
635.67	1703.91
635.86	1681.38
636.05	1869.80
636.24	1699.81
636.43	1718.25
636.62	1804.26
636.81	1607.66
637.00	1740.77
637.19	1746.92
637.38	1687.53
637.57	1648.61
637.76	1617.90
637.95	1716.20
638.14	1685.48
638.33	1759.21
638.52	1773.54
638.71	1712.10
638.89	1722.34
639.08	1857.51
639.27	1722.34
639.46	1677.29
639.65	1761.25
639.84	1710.05
640.03	1806.31
640.22	1734.63
640.41	1841.12
640.60	1687.53
640.79	1781.73
640.98	1677.29
641.17	1806.31
641.36	1708.01
641.55	1759.21
641.74	1656.81
641.92	1689.57
642.11	1730.53
642.30	1736.68
642.49	1710.05
642.68	1681.38
642.87	1804.26
643.06	1765.35
643.25	1736.68
643.44	1697.77
643.63	1761.25
643.82	1787.88
644.00	1693.67
644.19	1798.12
644.38	1695.72
644.57	1722.34
644.76	1705.96
644.95	1767.40
645.14	1720.29
645.33	1701.86
645.52	1712.10
645.71	1708.01
645.89	1648.61
646.08	1673.19
646.27	1617.90
646.46	1843.17
646.65	1691.62
646.84	1722.34
647.03	1585.13
647.22	1832.93
647.40	1689.57
647.59	1718.25
647.78	1624.04
647.97	1777.64
648.16	1710.05
648.35	1775.59
648.54	1789.92
648.73	1738.73
648.91	1753.06
649.10	1714.15
649.29	1710.05
649.48	1732.58
649.67	1775.59
649.86	1781.73
650.05	1699.81
650.23	1759.21
650.42	1677.29
650.61	1767.40
650.80	1724.39
650.99	1834.98
651.18	1755.11
651.36	1728.49
651.55	1689.57
651.74	1787.88
651.93	1802.21
652.12	1689.57
652.31	1693.67
652.49	1697.77
652.68	1705.96
652.87	1812.45
653.06	1640.42
653.25	1855.46
653.44	1720.29
653.62	1738.73
653.81	1660.90
654.00	1804.26
654.19	1691.62
654.38	1871.84
654.56	1757.16
654.75	1726.44
654.94	1775.59
655.13	1730.53
655.32	1724.39
655.51	1742.82
655.69	1736.68
655.88	1781.73
656.07	1714.15
656.26	1724.39
656.45	1687.53
656.63	1660.90
656.82	1746.92
657.01	1789.92
657.20	1710.05
657.38	1757.16
657.57	1576.94
657.76	1624.04
657.95	1767.40
658.14	1730.53
658.32	1697.77
658.51	1638.38
658.70	1804.26
658.89	1787.88
659.08	1660.90
659.26	1761.25
659.45	1652.71
659.64	1699.81
659.83	1728.49
660.01	1959.91
660.20	1693.67
660.39	1845.22
660.58	1613.80
660.76	1724.39
660.95	1650.66
661.14	1691.62
661.33	1591.27
661.51	1714.15
661.70	1730.53
661.89	1679.33
662.08	1742.82
662.26	1656.81
662.45	1665.00
662.64	1832.93
662.83	1796.07
663.01	1671.14
663.20	1691.62
663.39	1841.12
663.58	1693.67
663.76	1748.97
663.95	1796.07
664.14	1628.14
664.32	1714.15
664.51	1705.96
664.70	1646.57
664.89	1732.58
665.07	1724.39
665.26	1828.84
665.45	1740.77
665.64	1810.40
665.82	1671.14
666.01	1826.79
666.20	1722.34
666.38	1810.40
666.57	1837.03
666.76	2279.39
666.95	4601.79
667.13	10555.23
667.32	15404.82
667.51	18015.98
667.69	19009.25
667.88	17637.11
668.07	12449.60
668.25	9529.20
668.44	8130.44
668.63	7481.23
668.81	6862.74
669.00	6342.56
669.19	5699.50
669.38	5066.67
669.56	4493.24
669.75	4018.11
669.94	3413.96
670.12	2889.68
670.31	2568.15
670.50	2312.16
670.68	2154.46
670.87	1953.76
671.06	1896.42
671.24	1808.36
671.43	1845.22
671.62	1794.02
671.80	1722.34
671.99	1740.77
672.18	1671.14
672.36	1740.77
672.55	1759.21
672.74	1720.29
672.92	1714.15
673.11	1775.59
673.29	1701.86
673.48	1753.06
673.67	1677.29
673.85	1800.16
674.04	1710.05
674.23	1730.53
674.41	1781.73
674.60	1673.19
674.79	1658.85
674.97	1660.90
675.16	1759.21
675.34	1773.54
675.53	1730.53
675.72	1751.01
675.90	1763.30
676.09	1761.25
676.28	1771.49
676.46	1652.71
676.65	1798.12
676.83	1697.77
677.02	1703.91
677.21	1660.90
677.39	1779.68
677.58	1650.66
677.77	1699.81
677.95	1724.39
678.14	1730.53
678.32	1679.33
678.51	1640.42
678.70	1816.55
678.88	1689.57
679.07	1765.35
679.25	1748.97
679.44	1789.92
679.63	1677.29
679.81	1716.20
680.00	1812.45
680.18	1787.88
680.37	1779.68
680.55	1665.00
680.74	1595.37
680.93	1626.09
681.11	1757.16
681.30	1744.87
681.48	1708.01
681.67	1716.20
681.85	1769.44
682.04	1722.34
682.23	1806.31
682.41	1777.64
682.60	1644.52
682.78	1710.05
682.97	1624.04
683.15	1701.86
683.34	1660.90
683.53	1800.16
683.71	1583.08
683.90	1757.16
684.08	1869.80
684.27	1667.05
684.45	1761.25
684.64	1759.21
684.82	1654.76
685.01	1740.77
685.19	1726.44
685.38	1871.84
685.57	1712.10
685.75	1744.87
685.94	1640.42
686.12	1626.09
686.31	1722.34
686.49	1771.49
686.68	1570.79
686.86	1773.54
687.05	1722.34
687.23	1832.93
687.42	1681.38
687.60	1679.33
687.79	1757.16
687.97	1816.55
688.16	1759.21
688.34	1724.39
688.53	1601.51
688.71	1748.97
688.90	1875.94
689.08	1804.26
689.27	1621.99
689.45	1804.26
689.64	1738.73
689.82	1818.60
690.01	1683.43
690.19	1779.68
690.38	1757.16
690.56	1828.84
690.75	1613.80
690.93	1703.91
691.12	1726.44
691.30	1832.93
691.49	1675.24
691.67	1662.95
691.86	1808.36
692.04	1742.82
692.23	1681.38
692.41	1730.53
692.60	1798.12
692.78	1781.73
692.97	1703.91
693.15	1683.43
693.34	1744.87
693.52	1765.35
693.71	1738.73
693.89	1748.97
694.08	1687.53
694.26	1761.25
694.44	1683.43
694.63	1742.82
694.81	1701.86
695.00	1740.77
695.18	1748.97
695.37	1873.89
695.55	1767.40
695.74	1742.82
695.92	1695.72
696.10	1808.36
696.29	1687.53
696.47	1662.95
696.66	1681.38
696.84	1642.47
697.03	1710.05
697.21	1843.17
697.40	2316.25
697.58	1800.16
697.76	1679.33
697.95	1695.72
698.13	1677.29
698.32	1695.72
698.50	1705.96
698.68	1779.68
698.87	1712.10
699.05	1769.44
699.24	1748.97
699.42	1621.99
699.61	1714.15
699.79	1703.91
699.97	1779.68
700.16	1607.66
700.34	1665.00
700.53	1697.77
700.71	1753.06
700.89	1841.12
701.08	1724.39
701.26	1757.16
701.45	2113.50
701.63	1695.72
701.81	1703.91
702.00	1636.33
702.18	1689.57
702.37	1718.25
702.55	1777.64
702.73	1720.29
702.92	1671.14
703.10	1771.49
703.28	1732.58
703.47	1679.33
703.65	1671.14
703.84	1718.25
704.02	1703.91
704.20	1787.88
704.39	1669.09
704.57	1708.01
704.75	1828.84
704.94	1740.77
705.12	1718.25
705.30	1837.03
705.49	2265.05
705.67	4509.63
705.86	9246.58
706.04	12595.01
706.22	14432.04
706.41	15441.68
706.59	13909.80
706.77	9561.97
706.96	7438.22
707.14	6651.80
707.32	5949.35
707.51	5494.70
707.69	4992.95
707.87	4212.67
708.06	3418.06
708.24	2975.70
708.42	2418.65
708.61	2236.38
708.79	1943.52
708.97	1828.84
709.16	1830.88
709.34	1812.45
709.52	1738.73
709.71	1751.01
709.89	1697.77
710.07	1740.77
710.26	1644.52
710.44	1777.64
710.62	1777.64
710.80	1746.92
710.99	1820.64
711.17	1759.21
711.35	1681.38
711.54	1703.91
711.72	1824.74
711.90	1796.07
712.09	1738.73
712.27	1660.90
712.45	1787.88
712.63	1681.38
712.82	1681.38
713.00	1732.58
713.18	1683.43
713.37	1779.68
713.55	1730.53
713.73	1744.87
713.91	1832.93
714.10	1634.28
714.28	1669.09
714.46	1667.05
714.65	1783.78
714.83	1730.53
715.01	1732.58
715.19	1714.15
715.38	1673.19
715.56	1705.96
715.74	1648.61
715.92	1699.81
716.11	1828.84
716.29	1548.26
716.47	1701.86
716.65	1722.34
716.84	1720.29
717.02	1828.84
717.20	1613.80
717.38	1634.28
717.57	1611.75
717.75	1763.30
717.93	1708.01
718.11	1824.74
718.30	1671.14
718.48	1665.00
718.66	1751.01
718.84	1845.22
719.03	1744.87
719.21	1724.39
719.39	1779.68
719.57	1740.77
719.75	1787.88
719.94	1665.00
720.12	1761.25
720.30	1665.00
720.48	1710.05
720.67	1667.05
720.85	1689.57
721.03	1730.53
721.21	1691.62
721.39	1834.98
721.58	1775.59
721.76	1656.81
721.94	1761.25
722.12	1771.49
722.30	1773.54
722.49	1658.85
722.67	1718.25
722.85	1761.25
723.03	1642.47
723.21	1705.96
723.40	1712.10
723.58	1767.40
723.76	1724.39
723.94	1771.49
724.12	1808.36
724.30	1800.16
724.49	1794.02
724.67	1626.09
724.85	1849.32
725.03	1648.61
725.21	1767.40
725.40	1763.30
725.58	1734.63
725.76	1779.68
725.94	1675.24
726.12	1646.57
726.30	1695.72
726.49	1746.92
726.67	1718.25
726.85	1689.57
727.03	1789.92
727.21	2136.03
727.39	3010.51
727.57	3897.28
727.76	4165.57
727.94	4417.47
728.12	4345.79
728.30	3665.86
728.48	2961.36
728.66	2787.29
728.84	2645.98
729.03	2387.93
729.21	2246.62
729.39	2045.92
729.57	1804.26
729.75	1785.83
729.93	1804.26
730.11	1789.92
730.30	1720.29
730.48	1740.77
730.66	1789.92
730.84	1718.25
731.02	1669.09
731.20	1648.61
731.38	1751.01
731.56	1638.38
731.74	1660.90
731.93	1806.31
732.11	1775.59
732.29	1701.86
732.47	1740.77
732.65	1755.11
732.83	1740.77
733.01	1748.97
733.19	1681.38
733.37	1736.68
733.56	1712.10
733.74	1697.77
733.92	1753.06
734.10	1669.09
734.28	1779.68
734.46	1652.71
734.64	1650.66
734.82	1722.34
735.00	1660.90
735.18	1693.67
735.36	1703.91
735.54	1736.68
735.73	1728.49
735.91	1757.16
736.09	1794.02
736.27	1685.48
736.45	1755.11
736.63	1630.18
736.81	1677.29
736.99	1699.81
737.17	1808.36
737.35	1642.47
737.53	1806.31
737.71	1781.73
737.89	1730.53
738.07	1609.70
738.25	1660.90
738.43	1740.77
738.61	1697.77
738.80	1621.99
738.98	1671.14
739.16	1714.15
739.34	1691.62
739.52	1826.79
739.70	1730.53
739.88	1777.64
740.06	1728.49
740.24	1646.57
740.42	1736.68
740.60	1554.41
740.78	1605.61
740.96	1568.74
741.14	1705.96
741.32	1742.82
741.50	1658.85
741.68	1880.04
741.86	1826.79
742.04	1648.61
742.22	1628.14
742.40	1744.87
742.58	1697.77
742.76	1724.39
742.94	1769.44
743.12	1687.53
743.30	1673.19
743.48	1779.68
743.66	1619.94
743.84	1738.73
744.02	1683.43
744.20	1675.24
744.38	1703.91
744.56	1693.67
744.74	1796.07
744.92	1677.29
745.10	1812.45
745.28	1755.11
745.46	1820.64
745.64	1771.49
745.82	1773.54
746.00	1724.39
746.18	1652.71
746.36	1572.84
746.54	1708.01
746.72	1705.96
746.90	1656.81
747.08	1681.38
747.26	1673.19
747.44	1691.62
747.62	1791.97
747.80	1701.86
747.98	1783.78
748.15	1718.25
748.33	1779.68
748.51	1695.72
748.69	1783.78
748.87	1742.82
749.05	1660.90
749.23	1703.91
749.41	1730.53
749.59	1699.81
749.77	1787.88
749.95	1685.48
750.13	1691.62
750.31	1701.86
750.49	1693.67
750.67	1800.16
750.85	1767.40
751.03	1773.54
751.20	1798.12
751.38	1701.86
751.56	1658.85
751.74	1730.53
751.92	1640.42
752.10	1681.38
752.28	1791.97
752.46	1701.86
752.64	1669.09
752.82	1683.43
753.00	1755.11
753.18	1705.96
753.35	1738.73
753.53	1732.58
753.71	1615.85
753.89	1822.69
754.07	1695.72
754.25	1738.73
754.43	1695.72
754.61	1705.96
754.79	1746.92
754.97	1662.95
755.14	1787.88
755.32	1726.44
755.50	1763.30
755.68	1693.67
755.86	1691.62
756.04	1708.01
756.22	1597.42
756.40	1726.44
756.57	1822.69
756.75	1624.04
756.93	1767.40
757.11	1693.67
757.29	1648.61
757.47	1718.25
757.65	1673.19
757.82	1619.94
758.00	1609.70
758.18	1724.39
758.36	1738.73
758.54	1722.34
758.72	1697.77
758.90	1839.08
759.07	1843.17
759.25	1689.57
759.43	1677.29
759.61	1669.09
759.79	2217.95
759.97	1767.40
760.15	1677.29
760.32	1667.05
760.50	1650.66
760.68	1820.64
760.86	1597.42
761.04	1722.34
761.22	1789.92
761.39	1736.68
761.57	1722.34
761.75	1816.55
761.93	1701.86
762.11	1722.34
762.28	1759.21
762.46	1687.53
762.64	1777.64
762.82	1609.70
763.00	1658.85
763.18	1755.11
763.35	1669.09
763.53	1777.64
763.71	1681.38
763.89	1759.21
764.07	1720.29
764.24	1777.64
764.42	1677.29
764.60	1734.63
764.78	1771.49
764.96	1755.11
765.13	1755.11
765.31	1675.24
765.49	1884.13
765.67	1701.86
765.84	1646.57
766.02	1658.85
766.20	1652.71
766.38	1695.72
766.56	1755.11
766.73	1691.62
766.91	1646.57
767.09	1734.63
767.27	1742.82
767.44	1624.04
767.62	1615.85
767.80	1724.39
767.98	1744.87
768.15	1701.86
768.33	1748.97
768.51	1757.16
768.69	1775.59
768.87	1734.63
769.04	1660.90
769.22	1916.90
769.40	1828.84
769.58	1837.03
769.75	1777.64
769.93	1798.12
770.11	1724.39
770.28	1667.05
770.46	1794.02
770.64	1757.16
770.82	1755.11
770.99	1689.57
771.17	1685.48
771.35	1722.34
771.53	1687.53
771.70	1632.23
771.88	1751.01
772.06	1775.59
772.23	1740.77
772.41	1779.68
772.59	1660.90
772.77	1708.01
772.94	1746.92
773.12	1761.25
773.30	1701.86
773.47	1722.34
773.65	1687.53
773.83	1728.49
774.01	1689.57
774.18	1632.23
774.36	1757.16
774.54	1652.71
774.71	1658.85
774.89	1695.72
775.07	1753.06
775.24	1728.49
775.42	1714.15
775.60	1828.84
775.78	1695.72
775.95	1648.61
776.13	1632.23
776.31	1585.13
776.48	1695.72
776.66	1765.35
776.84	1646.57
777.01	1724.39
777.19	1617.90
777.37	1665.00
777.54	1742.82
777.72	1785.83
777.90	1669.09
778.07	1634.28
778.25	1910.75
778.43	1705.96
778.60	1687.53
778.78	1724.39
778.96	1753.06
779.13	1675.24
779.31	1703.91
779.49	1689.57
779.66	1771.49
779.84	1718.25
780.01	1640.42
780.19	1669.09
780.37	1775.59
780.54	1763.30
780.72	1769.44
780.90	1697.77
781.07	1691.62
781.25	1738.73
781.43	1796.07
781.60	1734.63
781.78	1757.16
781.95	1759.21
782.13	1679.33
782.31	1708.01
782.48	1638.38
782.66	1744.87
782.83	1781.73
783.01	1767.40
783.19	1736.68
783.36	1642.47
783.54	1679.33
783.72	1800.16
783.89	1701.86
784.07	1726.44
784.24	1722.34
784.42	1769.44
784.60	1742.82
784.77	1746.92
784.95	1660.90
785.12	1759.21
785.30	1763.30
785.47	1722.34
785.65	1767.40
785.83	1646.57
786.00	1687.53
786.18	1722.34
786.35	1626.09
786.53	1677.29
786.71	1796.07
786.88	1755.11
787.06	1648.61
787.23	1779.68
787.41	1589.22
787.58	1699.81
787.76	1671.14
787.94	1806.31
788.11	1705.96
788.29	1665.00
788.46	1634.28
788.64	1611.75
788.81	1669.09
788.99	1726.44
789.16	1722.34
789.34	1779.68
789.52	1665.00
789.69	1691.62
789.87	1597.42
790.04	1730.53
790.22	1716.20
790.39	1800.16
790.57	1644.52
790.74	1667.05
790.92	1808.36
791.09	1597.42
791.27	1669.09
791.44	1808.36
791.62	1744.87
791.79	1759.21
791.97	1718.25
792.15	1861.60
792.32	1697.77
792.50	1832.93
792.67	1814.50
792.85	1710.05
793.02	1701.86
793.20	1740.77
793.37	1640.42
793.55	1718.25
793.72	1728.49
793.90	1671.14
794.07	1611.75
794.25	1646.57
794.42	1701.86
794.60	1685.48
794.77	1771.49
794.95	1765.35
795.12	1796.07
795.30	1708.01
795.47	1669.09
795.65	1931.23
795.82	1734.63
796.00	1695.72
796.17	1716.20
796.34	1693.67
796.52	1726.44
796.69	1742.82
796.87	1701.86
797.04	1796.07
797.22	1761.25
797.39	1734.63
797.57	1736.68
797.74	1685.48
797.92	1763.30
798.09	1642.47
798.27	1785.83
798.44	1720.29
798.62	1687.53
798.79	1751.01
798.96	1755.11
799.14	1720.29
799.31	1761.25
799.49	1742.82
799.66	1699.81
799.84	1687.53
800.01	1697.77
800.19	1710.05
800.36	1687.53
800.53	1810.40
800.71	1689.57
800.88	1691.62
801.06	1716.20
801.23	1662.95
801.41	1738.73
801.58	1572.84
801.75	1650.66
801.93	1689.57
802.10	1736.68
802.28	1683.43
802.45	1685.48
802.63	1732.58
802.80	1804.26
802.97	1673.19
803.15	1658.85
803.32	1685.48
803.50	1671.14
803.67	1652.71
803.84	1697.77
804.02	1609.70
804.19	1708.01
804.37	1609.70
804.54	1642.47
804.71	1701.86
804.89	1710.05
805.06	1648.61
805.24	1656.81
805.41	1665.00
805.58	1679.33
805.76	1824.74
805.93	1724.39
806.10	1869.80
806.28	1773.54
806.45	1755.11
806.63	1720.29
806.80	1722.34
806.97	1720.29
807.15	1681.38
807.32	1726.44
807.49	1746.92
807.67	1589.22
807.84	1734.63
808.01	1576.94
808.19	1812.45
808.36	1765.35
808.54	1660.90
808.71	1716.20
808.88	1789.92
809.06	1710.05
809.23	1796.07
809.40	1683.43
809.58	1759.21
809.75	1714.15
809.92	1636.33
810.10	1855.46
810.27	1777.64
810.44	1673.19
810.62	1708.01
810.79	1755.11
810.96	1636.33
811.14	1693.67
811.31	1753.06
811.48	1755.11
811.66	1720.29
811.83	1671.14
812.00	1732.58
812.18	1675.24
812.35	1808.36
812.52	1687.53
812.69	1716.20
812.87	1765.35
813.04	1640.42
813.21	1705.96
813.39	1691.62
813.56	1652.71
813.73	1669.09
813.91	1617.90
814.08	1787.88
814.25	1693.67
814.42	1652.71
814.60	1714.15
814.77	1742.82
814.94	1710.05
815.12	1734.63
815.29	1726.44
815.46	1626.09
815.63	1736.68
815.81	1705.96
815.98	1685.48
816.15	1693.67
816.33	1787.88
816.50	1724.39
816.67	1660.90
816.84	1783.78
817.02	1718.25
817.19	1636.33
817.36	1757.16
817.53	1712.10
817.71	1660.90
817.88	1759.21
818.05	1617.90
818.22	1630.18
818.40	1794.02
818.57	1718.25
818.74	1820.64
818.91	1665.00
819.09	1755.11
819.26	1736.68
819.43	1746.92
819.60	1656.81
819.78	1808.36
819.95	1814.50
820.12	1656.81
820.29	1732.58
820.47	1832.93
820.64	1718.25
820.81	1644.52
820.98	1679.33
821.15	1697.77
821.33	1748.97
821.50	1615.85
821.67	1705.96
821.84	1777.64
822.02	1720.29
822.19	1785.83
822.36	1730.53
822.53	1708.01
822.70	1691.62
822.88	1671.14
823.05	1839.08
823.22	1761.25
823.39	1740.77
823.56	1759.21
823.74	1716.20
823.91	1671.14
824.08	1609.70
824.25	1679.33
824.42	1779.68
824.60	1665.00
824.77	1708.01
824.94	1703.91
825.11	1761.25
825.28	1587.18
825.45	1751.01
825.63	1777.64
825.80	1638.38
825.97	1843.17
826.14	1787.88
826.31	1660.90
826.48	1769.44
826.66	1742.82
826.83	1642.47
827.00	1705.96
827.17	1679.33
827.34	1650.66
827.51	1689.57
827.69	1718.25
827.86	1648.61
828.03	1689.57
828.20	1720.29
828.37	1679.33
828.54	1783.78
828.71	1712.10
828.89	1714.15
829.06	1714.15
829.23	1761.25
829.40	1624.04
829.57	1578.98
829.74	1714.15
829.91	1662.95
830.09	1646.57
830.26	1771.49
830.43	1824.74
830.60	1642.47
830.77	1728.49
830.94	1800.16
831.11	1720.29
831.28	1669.09
831.46	1794.02
831.63	1703.91
831.80	1767.40
831.97	1681.38
832.14	1648.61
832.31	1734.63
832.48	1697.77
832.65	1718.25
832.82	1693.67
832.99	1695.72
833.17	1644.52
833.34	1804.26
833.51	1767.40
833.68	1533.93
833.85	1673.19
834.02	1730.53
834.19	1679.33
834.36	1757.16
834.53	1732.58
834.70	1798.12
834.87	1724.39
835.04	1765.35
835.22	1724.39
835.39	1724.39
835.56	1646.57
835.73	1667.05
835.90	1751.01
836.07	1681.38
836.24	1751.01
836.41	1593.32
836.58	1691.62
836.75	1755.11
836.92	1769.44
837.09	1609.70
837.26	1681.38
837.43	1695.72
837.60	1730.53
837.77	1703.91
837.94	1814.50
838.12	1783.78
838.29	1761.25
838.46	1583.08
838.63	1683.43
838.80	1759.21
838.97	1785.83
839.14	1767.40
839.31	1808.36
839.48	1689.57
839.65	1703.91
839.82	1724.39
839.99	1763.30
840.16	1699.81
840.33	1607.66
840.50	1658.85
840.67	1679.33
840.84	1626.09
841.01	1761.25
841.18	1714.15
841.35	1695.72
841.52	1769.44
841.69	1869.80
841.86	1753.06
842.03	1753.06
842.20	1701.86
842.37	1677.29
842.54	1722.34
842.71	1712.10
842.88	1656.81
843.05	1744.87
843.22	1712.10
843.39	1783.78
843.56	1697.77
843.73	1769.44
843.90	1751.01
844.07	1679.33
844.24	1757.16
844.41	1740.77
844.58	1679.33
844.75	1679.33
844.92	1771.49
845.09	1757.16
845.26	1708.01
845.43	1665.00
845.60	1718.25
845.77	1746.92
845.94	1781.73
846.10	1773.54
846.27	1675.24
846.44	1683.43
846.61	1617.90
846.78	1671.14
846.95	1794.02
847.12	1673.19
847.29	1738.73
847.46	1701.86
847.63	1779.68
847.80	1693.67
847.97	1710.05
848.14	1787.88
848.31	1681.38
848.48	1656.81
848.65	1693.67
848.82	1701.86
848.98	1816.55
849.15	1751.01
849.32	1839.08
849.49	1812.45
849.66	1673.19
849.83	1746.92
850.00	1624.04
850.17	1730.53
850.34	1730.53
850.51	1660.90
850.68	1646.57
850.85	1845.22
851.01	1755.11
851.18	1736.68
851.35	1755.11
851.52	1720.29
851.69	1796.07
851.86	1642.47
852.03	1689.57
852.20	1726.44
852.37	1697.77
852.53	1683.43
852.70	1740.77
852.87	1734.63
853.04	1798.12
853.21	1755.11
853.38	1687.53
853.55	1763.30
853.72	1640.42
853.89	1679.33
854.05	1697.77
854.22	1730.53
854.39	1718.25
854.56	1783.78
854.73	1773.54
854.90	1671.14
855.07	1771.49
855.23	1757.16
855.40	1634.28
855.57	1656.81
855.74	1648.61
855.91	1832.93
856.08	1626.09
856.25	1624.04
856.41	1642.47
856.58	1714.15
856.75	1757.16
856.92	1710.05
857.09	1783.78
857.26	1605.61
857.42	1724.39
857.59	1738.73
857.76	1662.95
857.93	1726.44
858.10	1708.01
858.27	1660.90
858.43	1691.62
858.60	1667.05
858.77	1605.61
858.94	1636.33
859.11	1728.49
859.27	1662.95
859.44	1734.63
859.61	1800.16
859.78	1744.87
859.95	1722.34
860.12	1755.11
860.28	1791.97
860.45	1824.74
860.62	1689.57
860.79	1742.82
860.95	1638.38
861.12	1640.42
861.29	1669.09
861.46	1712.10
861.63	1671.14
861.79	1740.77
861.96	1640.42
862.13	1689.57
862.30	1777.64
862.47	1705.96
862.63	1632.23
862.80	1808.36
862.97	1648.61
863.14	1740.77
863.30	1730.53
863.47	1656.81
863.64	1769.44
863.81	1726.44
863.97	1685.48
864.14	1710.05
864.31	1677.29
864.48	1746.92
864.65	1656.81
864.81	1779.68
864.98	1775.59
865.15	1746.92
865.32	1808.36
865.48	1828.84
865.65	1761.25
865.82	1753.06
865.98	1650.66
866.15	1701.86
866.32	1712.10
866.49	1624.04
866.65	1703.91
866.82	1640.42
866.99	1689.57
867.16	1624.04
867.32	1677.29
867.49	1722.34
867.66	1662.95
867.83	1697.77
867.99	1634.28
868.16	1673.19
868.33	1640.42
868.49	1675.24
868.66	1681.38
868.83	1765.35
868.99	1726.44
869.16	1697.77
869.33	1734.63
869.50	1771.49
869.66	1681.38
869.83	1697.77
870.00	1732.58
870.16	1718.25
870.33	1718.25
870.50	1810.40
870.66	1767.40
870.83	1822.69
871.00	1773.54
871.17	1748.97
871.33	1722.34
871.50	1624.04
871.67	1775.59
871.83	1691.62
872.00	1826.79
872.17	1697.77
872.33	1738.73
872.50	1761.25
872.67	1710.05
872.83	1693.67
873.00	1738.73
873.17	1742.82
873.33	1808.36
873.50	1822.69
873.67	1640.42
873.83	1675.24
874.00	1681.38
874.16	1814.50
874.33	1742.82
874.50	1566.70
874.66	1667.05
874.83	1826.79
875.00	1777.64
875.16	1683.43
875.33	1677.29
875.50	1662.95
875.66	1714.15
875.83	1615.85
875.99	1773.54
876.16	1718.25
876.33	1652.71
876.49	1705.96
876.66	1769.44
876.83	1740.77
876.99	1566.70
877.16	1687.53
877.32	1712.10
877.49	1699.81
877.66	1716.20
877.82	1816.55
877.99	1802.21
878.15	1734.63
878.32	1736.68
878.49	1755.11
878.65	1648.61
878.82	1742.82
878.98	1734.63
879.15	1748.97
879.32	1771.49
879.48	1712.10
879.65	1665.00
879.81	1742.82
879.98	1671.14
880.15	1695.72
880.31	1710.05
880.48	1699.81
880.64	1759.21
880.81	1806.31
880.97	1812.45
881.14	1746.92
881.31	1595.37
881.47	1785.83
881.64	1658.85
881.80	1656.81
881.97	1703.91
882.13	1681.38
882.30	1689.57
882.47	1787.88
882.63	1679.33
882.80	1621.99
882.96	1775.59
883.13	1783.78
883.29	1708.01
883.46	1648.61
883.62	1880.04
883.79	1665.00
883.95	1824.74
884.12	1734.63
884.29	1806.31
884.45	1650.66
884.62	1734.63
884.78	1642.47
884.95	1806.31
885.11	1540.07
885.28	1794.02
885.44	1687.53
885.61	1736.68
885.77	1888.23
885.94	1755.11
886.10	1687.53
886.27	1730.53
886.43	1822.69
886.60	1732.58
886.76	1691.62
886.93	1703.91
887.09	1746.92
887.26	1671.14
887.42	1740.77
887.59	1775.59
887.75	1855.46
887.92	1849.32
888.08	1779.68
888.25	1812.45
888.41	1763.30
888.58	1636.33
888.74	1652.71
888.91	1726.44
>>>>>End Processed Spectral Data<<<<<
