SpectraSuite Data File
++++++++++++++++++++++++++++++++++++
Date: Mon Jun 06 12:25:37 CEST 2016
User: root
Dark Spectrum Present: No
Reference Spectrum Present: No
Number of Sampled Component Spectra: 1
Spectrometers: USB4C02835
Integration Time (usec): 100000 (USB4C02835)
Spectra Averaged: 1 (USB4C02835)
Boxcar Smoothing: 0 (USB4C02835)
Correct for Electrical Dark: No (USB4C02835)
Strobe/Lamp Enabled: No (USB4C02835)
Correct for Detector Non-linearity: No (USB4C02835)
Correct for Stray Light: No (USB4C02835)
Number of Pixels in Processed Spectrum: 3648
>>>>>Begin Processed Spectral Data<<<<<
177.47	1456.11
177.69	1456.11
177.91	1456.11
178.13	1394.67
178.36	1464.30
178.58	1613.80
178.80	1746.92
179.02	1638.38
179.24	1642.47
179.46	1648.61
179.68	1822.69
179.90	1644.52
180.13	1634.28
180.35	1703.91
180.57	1697.77
180.79	1701.86
181.01	1708.01
181.23	1742.82
181.45	1730.53
181.67	1730.53
181.90	1679.33
182.12	1609.70
182.34	1679.33
182.56	1708.01
182.78	1722.34
183.00	1677.29
183.22	1689.57
183.44	1611.75
183.66	1861.60
183.89	1757.16
184.11	1755.11
184.33	1734.63
184.55	1779.68
184.77	1728.49
184.99	1708.01
185.21	1658.85
185.43	1828.84
185.65	1718.25
185.87	1642.47
186.10	1800.16
186.32	1830.88
186.54	1691.62
186.76	1767.40
186.98	1732.58
187.20	1738.73
187.42	1710.05
187.64	1720.29
187.86	1751.01
188.08	1742.82
188.30	1617.90
188.52	1712.10
188.75	1769.44
188.97	1738.73
189.19	1634.28
189.41	1714.15
189.63	1708.01
189.85	1734.63
190.07	1644.52
190.29	1658.85
190.51	1734.63
190.73	1656.81
190.95	1728.49
191.17	1636.33
191.39	1650.66
191.61	1683.43
191.84	1648.61
192.06	1730.53
192.28	1634.28
192.50	1820.64
192.72	1753.06
192.94	1636.33
193.16	1740.77
193.38	1693.67
193.60	1648.61
193.82	1648.61
194.04	1710.05
194.26	1621.99
194.48	1714.15
194.70	1624.04
194.92	1650.66
195.14	1738.73
195.36	1660.90
195.58	1677.29
195.80	1673.19
196.02	1705.96
196.24	1675.24
196.46	1669.09
196.69	1726.44
196.91	1779.68
197.13	1665.00
197.35	1656.81
197.57	1814.50
197.79	1830.88
198.01	1771.49
198.23	1734.63
198.45	1642.47
198.67	1660.90
198.89	1642.47
199.11	1718.25
199.33	1679.33
199.55	1626.09
199.77	1716.20
199.99	1769.44
200.21	1640.42
200.43	1662.95
200.65	1630.18
200.87	1570.79
201.09	1619.94
201.31	1673.19
201.53	1730.53
201.75	1685.48
201.97	1679.33
202.19	1630.18
202.41	1718.25
202.63	1763.30
202.85	1644.52
203.07	1769.44
203.29	1699.81
203.51	1583.08
203.73	1693.67
203.95	1839.08
204.17	1791.97
204.39	1718.25
204.61	1677.29
204.83	1628.14
205.05	1791.97
205.27	1683.43
205.49	1806.31
205.71	1699.81
205.93	1675.24
206.15	1671.14
206.37	1722.34
206.59	1654.76
206.81	1617.90
207.03	1642.47
207.25	1634.28
207.47	1771.49
207.69	1667.05
207.91	1746.92
208.13	1804.26
208.34	1667.05
208.56	1630.18
208.78	1763.30
209.00	1583.08
209.22	1714.15
209.44	1681.38
209.66	1669.09
209.88	1691.62
210.10	1665.00
210.32	1693.67
210.54	1755.11
210.76	1617.90
210.98	1738.73
211.20	1687.53
211.42	1691.62
211.64	1714.15
211.86	1720.29
212.08	1683.43
212.30	1703.91
212.52	1640.42
212.74	1712.10
212.96	1710.05
213.17	1718.25
213.39	1701.86
213.61	1767.40
213.83	1685.48
214.05	1660.90
214.27	1765.35
214.49	1658.85
214.71	1646.57
214.93	1769.44
215.15	1617.90
215.37	1695.72
215.59	1626.09
215.81	1732.58
216.03	1736.68
216.24	1714.15
216.46	1677.29
216.68	1671.14
216.90	1701.86
217.12	1736.68
217.34	1712.10
217.56	1687.53
217.78	1753.06
218.00	1705.96
218.22	1718.25
218.44	1781.73
218.66	1705.96
218.87	1822.69
219.09	1619.94
219.31	1744.87
219.53	1728.49
219.75	1669.09
219.97	1660.90
220.19	1734.63
220.41	1658.85
220.63	1748.97
220.85	1744.87
221.06	1685.48
221.28	1730.53
221.50	1714.15
221.72	1679.33
221.94	1710.05
222.16	1757.16
222.38	1714.15
222.60	1667.05
222.82	1652.71
223.03	1722.34
223.25	1701.86
223.47	1763.30
223.69	1740.77
223.91	1789.92
224.13	1656.81
224.35	1648.61
224.57	1751.01
224.78	1728.49
225.00	1697.77
225.22	1621.99
225.44	1705.96
225.66	1701.86
225.88	1722.34
226.10	1732.58
226.32	1665.00
226.53	1767.40
226.75	1673.19
226.97	1693.67
227.19	1665.00
227.41	1576.94
227.63	1648.61
227.85	1597.42
228.06	1796.07
228.28	1708.01
228.50	1699.81
228.72	1650.66
228.94	1667.05
229.16	1578.98
229.37	1687.53
229.59	1671.14
229.81	1732.58
230.03	1662.95
230.25	1615.85
230.47	1662.95
230.69	1648.61
230.90	1804.26
231.12	1638.38
231.34	1722.34
231.56	1718.25
231.78	1638.38
232.00	1681.38
232.21	1634.28
232.43	1697.77
232.65	1595.37
232.87	1771.49
233.09	1671.14
233.30	1621.99
233.52	1753.06
233.74	1683.43
233.96	1642.47
234.18	1665.00
234.40	1708.01
234.61	1888.23
234.83	1669.09
235.05	1615.85
235.27	1857.51
235.49	1724.39
235.70	1665.00
235.92	1763.30
236.14	1679.33
236.36	1906.66
236.58	1589.22
236.79	1718.25
237.01	1636.33
237.23	1665.00
237.45	1818.60
237.67	1656.81
237.88	1703.91
238.10	1710.05
238.32	1626.09
238.54	1652.71
238.76	1683.43
238.97	1665.00
239.19	1642.47
239.41	1695.72
239.63	1781.73
239.85	1699.81
240.06	1632.23
240.28	1708.01
240.50	1689.57
240.72	1718.25
240.93	1624.04
241.15	1693.67
241.37	1703.91
241.59	1740.77
241.81	1746.92
242.02	1681.38
242.24	1695.72
242.46	1748.97
242.68	1677.29
242.89	1720.29
243.11	1708.01
243.33	1732.58
243.55	1673.19
243.76	1681.38
243.98	1675.24
244.20	1665.00
244.42	1662.95
244.64	1705.96
244.85	1650.66
245.07	1673.19
245.29	1716.20
245.51	1724.39
245.72	1640.42
245.94	1718.25
246.16	1701.86
246.38	1697.77
246.59	1636.33
246.81	1652.71
247.03	1677.29
247.24	1570.79
247.46	1632.23
247.68	1624.04
247.90	1644.52
248.11	1632.23
248.33	1783.78
248.55	1685.48
248.77	1714.15
248.98	1759.21
249.20	1755.11
249.42	1685.48
249.64	1722.34
249.85	1691.62
250.07	1705.96
250.29	1765.35
250.50	1691.62
250.72	1597.42
250.94	1777.64
251.16	1812.45
251.37	1775.59
251.59	1728.49
251.81	1759.21
252.02	1755.11
252.24	1669.09
252.46	1841.12
252.68	1691.62
252.89	1675.24
253.11	1628.14
253.33	1771.49
253.54	1775.59
253.76	1660.90
253.98	1673.19
254.20	1699.81
254.41	1576.94
254.63	1658.85
254.85	1671.14
255.06	1714.15
255.28	1667.05
255.50	1705.96
255.71	1632.23
255.93	1675.24
256.15	1601.51
256.36	1714.15
256.58	1615.85
256.80	1771.49
257.02	1687.53
257.23	1714.15
257.45	1724.39
257.67	1703.91
257.88	1626.09
258.10	1681.38
258.32	1734.63
258.53	1732.58
258.75	1796.07
258.97	1730.53
259.18	1695.72
259.40	1734.63
259.62	1802.21
259.83	1789.92
260.05	1738.73
260.27	1925.09
260.48	1742.82
260.70	1636.33
260.92	1716.20
261.13	1767.40
261.35	1654.76
261.57	1681.38
261.78	1585.13
262.00	1617.90
262.22	1689.57
262.43	1613.80
262.65	1681.38
262.86	1695.72
263.08	1808.36
263.30	1718.25
263.51	1619.94
263.73	1718.25
263.95	1769.44
264.16	1634.28
264.38	1703.91
264.60	1708.01
264.81	1730.53
265.03	1736.68
265.25	1726.44
265.46	1697.77
265.68	1800.16
265.89	1705.96
266.11	1587.18
266.33	1736.68
266.54	1712.10
266.76	1779.68
266.98	1779.68
267.19	1794.02
267.41	1714.15
267.62	1716.20
267.84	1705.96
268.06	1763.30
268.27	1701.86
268.49	1744.87
268.70	1705.96
268.92	1675.24
269.14	1566.70
269.35	1656.81
269.57	1662.95
269.79	1753.06
270.00	1691.62
270.22	1841.12
270.43	1621.99
270.65	1546.22
270.87	1746.92
271.08	1732.58
271.30	1708.01
271.51	1730.53
271.73	1708.01
271.95	1710.05
272.16	1675.24
272.38	1755.11
272.59	1607.66
272.81	1724.39
273.02	1691.62
273.24	1675.24
273.46	1783.78
273.67	1591.27
273.89	1652.71
274.10	1669.09
274.32	1673.19
274.54	1697.77
274.75	1724.39
274.97	1642.47
275.18	1773.54
275.40	1687.53
275.61	1646.57
275.83	1699.81
276.05	1656.81
276.26	1667.05
276.48	1726.44
276.69	1597.42
276.91	1632.23
277.12	1843.17
277.34	1654.76
277.55	1736.68
277.77	1708.01
277.99	1662.95
278.20	1677.29
278.42	1679.33
278.63	1601.51
278.85	1656.81
279.06	1562.60
279.28	1710.05
279.49	1789.92
279.71	1744.87
279.93	1693.67
280.14	1675.24
280.36	1626.09
280.57	1708.01
280.79	1761.25
281.00	1687.53
281.22	1667.05
281.43	1787.88
281.65	1605.61
281.86	1683.43
282.08	1759.21
282.29	1773.54
282.51	1605.61
282.73	1628.14
282.94	1607.66
283.16	1634.28
283.37	1746.92
283.59	1621.99
283.80	1671.14
284.02	1724.39
284.23	1742.82
284.45	1699.81
284.66	1703.91
284.88	1636.33
285.09	1769.44
285.31	1736.68
285.52	1669.09
285.74	1626.09
285.95	1695.72
286.17	1691.62
286.38	1767.40
286.60	1648.61
286.81	1619.94
287.03	1691.62
287.24	1656.81
287.46	1722.34
287.67	1685.48
287.89	1853.41
288.10	1673.19
288.32	1736.68
288.53	1759.21
288.75	1708.01
288.96	1693.67
289.18	1699.81
289.39	1718.25
289.61	1744.87
289.82	1853.41
290.04	1808.36
290.25	1658.85
290.47	1650.66
290.68	1730.53
290.90	1710.05
291.11	1634.28
291.33	1796.07
291.54	1687.53
291.76	1681.38
291.97	1777.64
292.18	1677.29
292.40	1667.05
292.61	1652.71
292.83	1798.12
293.04	1783.78
293.26	1675.24
293.47	1675.24
293.69	1605.61
293.90	1683.43
294.12	1726.44
294.33	1662.95
294.55	1607.66
294.76	1726.44
294.97	1671.14
295.19	1853.41
295.40	1667.05
295.62	1779.68
295.83	1775.59
296.05	1632.23
296.26	1691.62
296.48	1660.90
296.69	1656.81
296.90	1681.38
297.12	1753.06
297.33	1718.25
297.55	1714.15
297.76	1705.96
297.98	1810.40
298.19	1675.24
298.41	1683.43
298.62	1660.90
298.83	1753.06
299.05	1681.38
299.26	1648.61
299.48	1603.56
299.69	1744.87
299.90	1730.53
300.12	1644.52
300.33	1748.97
300.55	1708.01
300.76	1726.44
300.98	1581.03
301.19	1722.34
301.40	1701.86
301.62	1697.77
301.83	1705.96
302.05	1599.46
302.26	1710.05
302.47	1724.39
302.69	1587.18
302.90	1744.87
303.12	1681.38
303.33	1716.20
303.54	1841.12
303.76	1624.04
303.97	1738.73
304.19	1763.30
304.40	1652.71
304.61	1708.01
304.83	1855.46
305.04	1806.31
305.26	1744.87
305.47	1689.57
305.68	1748.97
305.90	1595.37
306.11	1695.72
306.33	1710.05
306.54	1708.01
306.75	1609.70
306.97	1654.76
307.18	1626.09
307.39	1720.29
307.61	1740.77
307.82	1720.29
308.04	1708.01
308.25	1679.33
308.46	1695.72
308.68	1654.76
308.89	1726.44
309.10	1757.16
309.32	1732.58
309.53	1654.76
309.74	1675.24
309.96	1710.05
310.17	1761.25
310.39	1705.96
310.60	1734.63
310.81	1683.43
311.03	1703.91
311.24	1683.43
311.45	1722.34
311.67	1761.25
311.88	1710.05
312.09	1720.29
312.31	1583.08
312.52	1734.63
312.73	1699.81
312.95	1665.00
313.16	1685.48
313.37	1757.16
313.59	1804.26
313.80	1718.25
314.01	1736.68
314.23	1658.85
314.44	1646.57
314.65	1671.14
314.87	1654.76
315.08	1626.09
315.29	1652.71
315.51	1628.14
315.72	1599.46
315.93	1787.88
316.15	1701.86
316.36	1626.09
316.57	1675.24
316.79	1728.49
317.00	1654.76
317.21	1757.16
317.43	1658.85
317.64	1691.62
317.85	1718.25
318.07	1708.01
318.28	1722.34
318.49	1800.16
318.70	1894.37
318.92	1816.55
319.13	1769.44
319.34	1824.74
319.56	1757.16
319.77	1744.87
319.98	1781.73
320.20	1753.06
320.41	1730.53
320.62	1740.77
320.83	1650.66
321.05	1804.26
321.26	1691.62
321.47	1652.71
321.69	1734.63
321.90	1640.42
322.11	1640.42
322.32	1708.01
322.54	1730.53
322.75	1689.57
322.96	1818.60
323.18	1599.46
323.39	1617.90
323.60	1675.24
323.81	1751.01
324.03	1669.09
324.24	1689.57
324.45	1658.85
324.66	1632.23
324.88	1718.25
325.09	1748.97
325.30	1642.47
325.52	1738.73
325.73	1665.00
325.94	1642.47
326.15	1718.25
326.37	1617.90
326.58	1691.62
326.79	1796.07
327.00	1656.81
327.22	1701.86
327.43	1703.91
327.64	1642.47
327.85	1683.43
328.07	1667.05
328.28	1814.50
328.49	1628.14
328.70	1691.62
328.92	1718.25
329.13	1611.75
329.34	1742.82
329.55	1757.16
329.76	1740.77
329.98	1636.33
330.19	1798.12
330.40	1761.25
330.61	1757.16
330.83	1759.21
331.04	1574.89
331.25	1732.58
331.46	1673.19
331.68	1603.56
331.89	1787.88
332.10	1734.63
332.31	1636.33
332.52	1667.05
332.74	1773.54
332.95	1636.33
333.16	1652.71
333.37	1775.59
333.58	1648.61
333.80	1761.25
334.01	1550.31
334.22	1746.92
334.43	1728.49
334.64	1708.01
334.86	1699.81
335.07	1632.23
335.28	1796.07
335.49	1699.81
335.70	1710.05
335.92	1789.92
336.13	1820.64
336.34	1675.24
336.55	1712.10
336.76	1753.06
336.98	1621.99
337.19	1611.75
337.40	1791.97
337.61	1894.37
337.82	1683.43
338.04	1742.82
338.25	1691.62
338.46	1718.25
338.67	1648.61
338.88	1656.81
339.09	1681.38
339.31	1652.71
339.52	1578.98
339.73	1605.61
339.94	1734.63
340.15	1722.34
340.36	1759.21
340.58	1679.33
340.79	1701.86
341.00	1806.31
341.21	1617.90
341.42	1781.73
341.63	1781.73
341.85	1751.01
342.06	1734.63
342.27	1646.57
342.48	1710.05
342.69	1589.22
342.90	1654.76
343.12	1730.53
343.33	1667.05
343.54	1673.19
343.75	1701.86
343.96	1648.61
344.17	1593.32
344.38	1673.19
344.60	1652.71
344.81	1599.46
345.02	1683.43
345.23	1742.82
345.44	1732.58
345.65	1726.44
345.86	1695.72
346.07	1673.19
346.29	1742.82
346.50	1697.77
346.71	1703.91
346.92	1712.10
347.13	1812.45
347.34	1732.58
347.55	1673.19
347.76	1767.40
347.98	1527.78
348.19	1652.71
348.40	1796.07
348.61	1720.29
348.82	1742.82
349.03	1767.40
349.24	1685.48
349.45	1812.45
349.66	1591.27
349.88	1644.52
350.09	1660.90
350.30	1791.97
350.51	1703.91
350.72	1656.81
350.93	1722.34
351.14	1718.25
351.35	1714.15
351.56	1658.85
351.77	1683.43
351.99	1740.77
352.20	1867.75
352.41	1771.49
352.62	1587.18
352.83	1767.40
353.04	1681.38
353.25	1697.77
353.46	1632.23
353.67	1718.25
353.88	1615.85
354.09	1734.63
354.30	1769.44
354.52	1689.57
354.73	1699.81
354.94	1665.00
355.15	1648.61
355.36	1816.55
355.57	1621.99
355.78	1718.25
355.99	1685.48
356.20	1632.23
356.41	1773.54
356.62	1716.20
356.83	1665.00
357.04	1761.25
357.25	1644.52
357.46	1658.85
357.68	1646.57
357.89	1632.23
358.10	1693.67
358.31	1667.05
358.52	1767.40
358.73	1619.94
358.94	1662.95
359.15	1624.04
359.36	1783.78
359.57	1720.29
359.78	1701.86
359.99	1689.57
360.20	1687.53
360.41	1705.96
360.62	1710.05
360.83	1742.82
361.04	1724.39
361.25	1695.72
361.46	1753.06
361.67	1726.44
361.88	1751.01
362.09	1699.81
362.30	1759.21
362.51	1658.85
362.72	1673.19
362.93	1734.63
363.14	1816.55
363.35	1710.05
363.56	1646.57
363.78	1763.30
363.99	1753.06
364.20	1712.10
364.41	1654.76
364.62	1837.03
364.83	1695.72
365.04	1697.77
365.25	1593.32
365.46	1779.68
365.67	1660.90
365.88	1656.81
366.09	1695.72
366.30	1693.67
366.51	1675.24
366.72	1617.90
366.93	1654.76
367.14	1742.82
367.35	1775.59
367.56	1648.61
367.77	1742.82
367.98	1646.57
368.18	1781.73
368.39	1814.50
368.60	1648.61
368.81	1763.30
369.02	1730.53
369.23	1726.44
369.44	1621.99
369.65	1697.77
369.86	1732.58
370.07	1722.34
370.28	1685.48
370.49	1740.77
370.70	1726.44
370.91	1595.37
371.12	1638.38
371.33	1742.82
371.54	1640.42
371.75	1828.84
371.96	1515.50
372.17	1708.01
372.38	1619.94
372.59	1742.82
372.80	1619.94
373.01	1673.19
373.22	1642.47
373.43	1679.33
373.64	1632.23
373.85	1728.49
374.06	1789.92
374.26	1697.77
374.47	1708.01
374.68	1691.62
374.89	1648.61
375.10	1687.53
375.31	1781.73
375.52	1632.23
375.73	1662.95
375.94	1626.09
376.15	1771.49
376.36	1689.57
376.57	1660.90
376.78	1667.05
376.99	1763.30
377.20	1775.59
377.40	1630.18
377.61	1755.11
377.82	1632.23
378.03	1837.03
378.24	1685.48
378.45	1730.53
378.66	1714.15
378.87	1642.47
379.08	1677.29
379.29	1615.85
379.50	1746.92
379.71	1701.86
379.91	1701.86
380.12	1615.85
380.33	1716.20
380.54	1683.43
380.75	1716.20
380.96	1710.05
381.17	1746.92
381.38	1617.90
381.59	1660.90
381.80	1730.53
382.00	1765.35
382.21	1755.11
382.42	1824.74
382.63	1935.33
382.84	1726.44
383.05	1734.63
383.26	1746.92
383.47	1738.73
383.68	1769.44
383.88	1783.78
384.09	1755.11
384.30	1689.57
384.51	1775.59
384.72	1677.29
384.93	1652.71
385.14	1761.25
385.35	1787.88
385.55	1652.71
385.76	1765.35
385.97	1685.48
386.18	1609.70
386.39	1673.19
386.60	1714.15
386.81	1681.38
387.02	1675.24
387.22	1619.94
387.43	1755.11
387.64	1738.73
387.85	1918.95
388.06	2197.47
388.27	4245.44
388.48	6862.74
388.68	8275.84
388.89	9582.45
389.10	9770.86
389.31	8537.98
389.52	7522.19
389.73	6725.53
389.93	6236.06
390.14	5855.14
390.35	5187.50
390.56	4499.39
390.77	3780.55
390.98	3131.34
391.18	2537.43
391.39	2146.27
391.60	1808.36
391.81	1794.02
392.02	1691.62
392.23	1806.31
392.43	1703.91
392.64	1763.30
392.85	1640.42
393.06	1802.21
393.27	1712.10
393.47	1642.47
393.68	1734.63
393.89	1728.49
394.10	1839.08
394.31	1615.85
394.52	1621.99
394.72	1671.14
394.93	1802.21
395.14	1560.55
395.35	1800.16
395.56	1646.57
395.76	1648.61
395.97	1710.05
396.18	1832.93
396.39	1877.99
396.60	1968.10
396.80	1890.28
397.01	1804.26
397.22	1789.92
397.43	1847.27
397.64	1755.11
397.84	1824.74
398.05	1859.56
398.26	1724.39
398.47	1826.79
398.67	1773.54
398.88	1718.25
399.09	1689.57
399.30	1636.33
399.51	1808.36
399.71	1742.82
399.92	1665.00
400.13	1689.57
400.34	1724.39
400.54	1693.67
400.75	1744.87
400.96	1724.39
401.17	1806.31
401.37	1759.21
401.58	1679.33
401.79	1794.02
402.00	1859.56
402.21	2045.92
402.41	1964.00
402.62	1941.47
402.83	2068.45
403.04	1943.52
403.24	2033.63
403.45	1839.08
403.66	1923.04
403.87	1863.65
404.07	1929.19
404.28	1886.18
404.49	1804.26
404.70	1779.68
404.90	1818.60
405.11	1699.81
405.32	1644.52
405.52	1701.86
405.73	1654.76
405.94	1638.38
406.15	1794.02
406.35	1697.77
406.56	1701.86
406.77	1724.39
406.98	1726.44
407.18	1634.28
407.39	1802.21
407.60	1648.61
407.80	1798.12
408.01	1759.21
408.22	1710.05
408.43	1624.04
408.63	1730.53
408.84	1734.63
409.05	1708.01
409.25	1564.65
409.46	1619.94
409.67	1679.33
409.88	1660.90
410.08	1671.14
410.29	1726.44
410.50	1746.92
410.70	1744.87
410.91	1669.09
411.12	1757.16
411.32	1701.86
411.53	1609.70
411.74	1800.16
411.95	1738.73
412.15	1748.97
412.36	1720.29
412.57	1808.36
412.77	1693.67
412.98	1757.16
413.19	1708.01
413.39	1791.97
413.60	1720.29
413.81	1812.45
414.01	1615.85
414.22	1746.92
414.43	1714.15
414.63	1673.19
414.84	1791.97
415.05	1689.57
415.25	1697.77
415.46	1675.24
415.67	1718.25
415.87	1681.38
416.08	1779.68
416.29	1710.05
416.49	1781.73
416.70	1619.94
416.91	1701.86
417.11	1636.33
417.32	1767.40
417.53	1765.35
417.73	1761.25
417.94	1703.91
418.15	1718.25
418.35	1673.19
418.56	1705.96
418.77	1808.36
418.97	1734.63
419.18	1671.14
419.38	1636.33
419.59	1675.24
419.80	1773.54
420.00	1681.38
420.21	1771.49
420.42	1789.92
420.62	1753.06
420.83	1683.43
421.04	1656.81
421.24	1648.61
421.45	1683.43
421.65	1685.48
421.86	1667.05
422.07	1724.39
422.27	1705.96
422.48	1671.14
422.69	1656.81
422.89	1691.62
423.10	1677.29
423.30	1681.38
423.51	1767.40
423.72	1730.53
423.92	1730.53
424.13	1673.19
424.33	1681.38
424.54	1806.31
424.75	1736.68
424.95	1830.88
425.16	1705.96
425.36	1683.43
425.57	1767.40
425.78	1812.45
425.98	1755.11
426.19	1683.43
426.39	1660.90
426.60	1734.63
426.81	1781.73
427.01	1705.96
427.22	1669.09
427.42	1611.75
427.63	1675.24
427.83	1736.68
428.04	1863.65
428.25	1759.21
428.45	1734.63
428.66	1775.59
428.86	1691.62
429.07	1744.87
429.28	1732.58
429.48	1660.90
429.69	1685.48
429.89	1738.73
430.10	1665.00
430.30	1693.67
430.51	1794.02
430.71	1626.09
430.92	1703.91
431.13	1667.05
431.33	1652.71
431.54	1722.34
431.74	1771.49
431.95	1814.50
432.15	1673.19
432.36	1697.77
432.56	1695.72
432.77	1779.68
432.98	1804.26
433.18	1763.30
433.39	1662.95
433.59	1691.62
433.80	1755.11
434.00	1820.64
434.21	1654.76
434.41	1632.23
434.62	1861.60
434.82	1650.66
435.03	1646.57
435.23	1710.05
435.44	1695.72
435.64	1740.77
435.85	1701.86
436.06	1800.16
436.26	1755.11
436.47	1671.14
436.67	1648.61
436.88	1671.14
437.08	1773.54
437.29	1822.69
437.49	1734.63
437.70	1863.65
437.90	1642.47
438.11	1816.55
438.31	1734.63
438.52	1824.74
438.72	1781.73
438.93	1941.47
439.13	1783.78
439.34	1847.27
439.54	1791.97
439.75	1744.87
439.95	1734.63
440.16	1701.86
440.36	1765.35
440.57	1718.25
440.77	1716.20
440.98	1724.39
441.18	1685.48
441.39	1677.29
441.59	1681.38
441.80	1820.64
442.00	1751.01
442.21	1839.08
442.41	1703.91
442.62	1865.70
442.82	1662.95
443.02	1736.68
443.23	1736.68
443.43	1720.29
443.64	1757.16
443.84	1621.99
444.05	1753.06
444.25	1701.86
444.46	1658.85
444.66	1658.85
444.87	1804.26
445.07	1646.57
445.28	1693.67
445.48	1834.98
445.69	1816.55
445.89	1839.08
446.09	1693.67
446.30	2035.68
446.50	2740.18
446.71	3760.07
446.91	4278.21
447.12	4708.28
447.32	4714.42
447.53	4321.21
447.73	3903.43
447.93	3514.31
448.14	3246.03
448.34	3143.63
448.55	2889.68
448.75	2750.42
448.96	2787.29
449.16	2447.32
449.36	2279.39
449.57	2054.11
449.77	1837.03
449.98	1789.92
450.18	1773.54
450.39	1767.40
450.59	1689.57
450.79	1779.68
451.00	1591.27
451.20	1863.65
451.41	1624.04
451.61	1771.49
451.81	1654.76
452.02	1689.57
452.22	1632.23
452.43	1726.44
452.63	1677.29
452.84	1630.18
453.04	1660.90
453.24	1751.01
453.45	1624.04
453.65	1708.01
453.86	1738.73
454.06	1765.35
454.26	1767.40
454.47	1742.82
454.67	1757.16
454.87	1753.06
455.08	1693.67
455.28	1845.22
455.49	1785.83
455.69	1654.76
455.89	1781.73
456.10	1734.63
456.30	1769.44
456.51	1816.55
456.71	1755.11
456.91	1781.73
457.12	1671.14
457.32	1699.81
457.52	1708.01
457.73	1738.73
457.93	1785.83
458.14	1712.10
458.34	1658.85
458.54	1755.11
458.75	1697.77
458.95	1802.21
459.15	1761.25
459.36	1757.16
459.56	1812.45
459.76	1867.75
459.97	1724.39
460.17	1728.49
460.37	1708.01
460.58	1701.86
460.78	1742.82
460.99	1656.81
461.19	1699.81
461.39	1648.61
461.60	1677.29
461.80	1796.07
462.00	1681.38
462.21	1636.33
462.41	1693.67
462.61	1673.19
462.82	1693.67
463.02	1767.40
463.22	1796.07
463.43	1783.78
463.63	1765.35
463.83	1783.78
464.04	1759.21
464.24	1677.29
464.44	1708.01
464.64	1804.26
464.85	1753.06
465.05	1769.44
465.25	1802.21
465.46	1628.14
465.66	1732.58
465.86	1779.68
466.07	1687.53
466.27	1685.48
466.47	1595.37
466.68	1673.19
466.88	1832.93
467.08	1726.44
467.29	1746.92
467.49	1728.49
467.69	1681.38
467.89	1763.30
468.10	1652.71
468.30	1724.39
468.50	1830.88
468.71	1810.40
468.91	1617.90
469.11	1773.54
469.31	1732.58
469.52	1710.05
469.72	1806.31
469.92	1900.52
470.13	1746.92
470.33	1648.61
470.53	1918.95
470.73	2156.51
470.94	2308.06
471.14	2312.16
471.34	2523.10
471.54	2361.31
471.75	2277.34
471.95	2090.98
472.15	2039.78
472.36	2105.31
472.56	2009.06
472.76	2068.45
472.96	1947.62
473.17	1964.00
473.37	1914.85
473.57	1787.88
473.77	1847.27
473.98	1722.34
474.18	1714.15
474.38	1853.41
474.58	1726.44
474.79	1681.38
474.99	1669.09
475.19	1744.87
475.39	1701.86
475.60	1763.30
475.80	1730.53
476.00	1660.90
476.20	1654.76
476.41	1695.72
476.61	1863.65
476.81	1718.25
477.01	1591.27
477.21	1783.78
477.42	1800.16
477.62	1656.81
477.82	1636.33
478.02	1683.43
478.23	1710.05
478.43	1660.90
478.63	1746.92
478.83	1748.97
479.03	1736.68
479.24	1777.64
479.44	1759.21
479.64	1650.66
479.84	1609.70
480.04	1685.48
480.25	1769.44
480.45	1689.57
480.65	1718.25
480.85	1820.64
481.06	1603.56
481.26	1714.15
481.46	1763.30
481.66	1742.82
481.86	1689.57
482.06	1806.31
482.27	1683.43
482.47	1673.19
482.67	1724.39
482.87	1697.77
483.07	1771.49
483.28	1685.48
483.48	1673.19
483.68	1730.53
483.88	1656.81
484.08	1609.70
484.29	1669.09
484.49	1718.25
484.69	1665.00
484.89	1751.01
485.09	1738.73
485.29	1783.78
485.50	1683.43
485.70	1660.90
485.90	1855.46
486.10	1705.96
486.30	1730.53
486.50	1744.87
486.71	1812.45
486.91	1710.05
487.11	1816.55
487.31	1624.04
487.51	1726.44
487.71	1691.62
487.91	1665.00
488.12	1654.76
488.32	1611.75
488.52	1630.18
488.72	1607.66
488.92	1687.53
489.12	1779.68
489.32	1701.86
489.53	1753.06
489.73	1599.46
489.93	1804.26
490.13	1687.53
490.33	1585.13
490.53	1800.16
490.73	1730.53
490.94	1697.77
491.14	1816.55
491.34	1837.03
491.54	2176.99
491.74	2523.10
491.94	2895.83
492.14	3037.14
492.34	3039.19
492.54	2764.76
492.75	2471.90
492.95	2482.14
493.15	2279.39
493.35	2281.44
493.55	2164.70
493.75	2183.13
493.95	2107.36
494.15	2033.63
494.35	1941.47
494.56	1826.79
494.76	1796.07
494.96	1785.83
495.16	1773.54
495.36	1693.67
495.56	1742.82
495.76	1769.44
495.96	1691.62
496.16	1697.77
496.36	1810.40
496.56	1681.38
496.77	1796.07
496.97	1724.39
497.17	1736.68
497.37	1656.81
497.57	1656.81
497.77	1736.68
497.97	1648.61
498.17	1794.02
498.37	1753.06
498.57	1744.87
498.77	1736.68
498.97	1724.39
499.17	1837.03
499.38	1718.25
499.58	1779.68
499.78	1779.68
499.98	1755.11
500.18	1734.63
500.38	1619.94
500.58	1949.67
500.78	2557.91
500.98	4450.24
501.18	5750.70
501.38	6799.26
501.58	7151.51
501.78	6520.73
501.98	5445.55
502.18	4997.04
502.38	4362.17
502.58	4073.41
502.78	3723.21
502.98	3596.23
503.18	3471.31
503.38	3184.59
503.59	2797.53
503.79	2645.98
503.99	2529.24
504.19	2197.47
504.39	2197.47
504.59	2105.31
504.79	2095.07
504.99	2123.74
505.19	1908.71
505.39	1920.99
505.59	1972.19
505.79	1877.99
505.99	1931.23
506.19	1810.40
506.39	1884.13
506.59	1816.55
506.79	1787.88
506.99	1828.84
507.19	1738.73
507.39	1697.77
507.59	1685.48
507.79	1714.15
507.99	1728.49
508.19	1710.05
508.39	1689.57
508.59	1724.39
508.79	1816.55
508.99	1787.88
509.19	1695.72
509.39	1748.97
509.59	1675.24
509.79	1681.38
509.99	1699.81
510.19	1746.92
510.39	1718.25
510.59	1718.25
510.79	1697.77
510.99	1687.53
511.19	1748.97
511.39	1818.60
511.59	1769.44
511.79	1796.07
511.99	1691.62
512.19	1814.50
512.38	1816.55
512.58	1681.38
512.78	1734.63
512.98	1710.05
513.18	1751.01
513.38	1691.62
513.58	1798.12
513.78	1689.57
513.98	1710.05
514.18	1693.67
514.38	1720.29
514.58	1783.78
514.78	1708.01
514.98	1667.05
515.18	1699.81
515.38	1615.85
515.58	1845.22
515.78	1732.58
515.98	1794.02
516.18	1710.05
516.38	1667.05
516.57	1695.72
516.77	1697.77
516.97	1765.35
517.17	1693.67
517.37	1615.85
517.57	1763.30
517.77	1679.33
517.97	1644.52
518.17	1796.07
518.37	1601.51
518.57	1677.29
518.77	1724.39
518.97	1693.67
519.16	1720.29
519.36	1783.78
519.56	1683.43
519.76	1712.10
519.96	1771.49
520.16	1832.93
520.36	1689.57
520.56	1718.25
520.76	1714.15
520.96	1636.33
521.16	1695.72
521.35	1771.49
521.55	1875.94
521.75	1775.59
521.95	1667.05
522.15	1753.06
522.35	1662.95
522.55	1716.20
522.75	1708.01
522.95	1673.19
523.14	1665.00
523.34	1763.30
523.54	1710.05
523.74	1767.40
523.94	1777.64
524.14	1695.72
524.34	1775.59
524.54	1759.21
524.73	1691.62
524.93	1710.05
525.13	1767.40
525.33	1691.62
525.53	1857.51
525.73	1898.47
525.93	1675.24
526.13	1636.33
526.32	1681.38
526.52	1771.49
526.72	1751.01
526.92	1800.16
527.12	1656.81
527.32	1652.71
527.52	1744.87
527.71	1742.82
527.91	1697.77
528.11	1765.35
528.31	1677.29
528.51	1693.67
528.71	1751.01
528.90	1701.86
529.10	1783.78
529.30	1787.88
529.50	1562.60
529.70	1691.62
529.90	1722.34
530.09	1697.77
530.29	1634.28
530.49	1607.66
530.69	1906.66
530.89	1687.53
531.09	1828.84
531.28	1724.39
531.48	1773.54
531.68	1726.44
531.88	1740.77
532.08	1726.44
532.28	1671.14
532.47	1757.16
532.67	1775.59
532.87	1802.21
533.07	1642.47
533.27	1787.88
533.46	1771.49
533.66	1724.39
533.86	1751.01
534.06	1697.77
534.26	1763.30
534.45	1742.82
534.65	1816.55
534.85	1708.01
535.05	1728.49
535.25	1822.69
535.44	1734.63
535.64	1779.68
535.84	1722.34
536.04	1722.34
536.24	1728.49
536.43	1693.67
536.63	1794.02
536.83	1701.86
537.03	1685.48
537.22	1685.48
537.42	1613.80
537.62	1744.87
537.82	1685.48
538.02	1726.44
538.21	1822.69
538.41	1972.19
538.61	1822.69
538.81	1716.20
539.00	1777.64
539.20	1689.57
539.40	1685.48
539.60	1748.97
539.79	1779.68
539.99	1667.05
540.19	1652.71
540.39	1736.68
540.58	1695.72
540.78	1689.57
540.98	1732.58
541.18	1728.49
541.37	1763.30
541.57	1710.05
541.77	1771.49
541.97	1703.91
542.16	1671.14
542.36	1736.68
542.56	1722.34
542.76	1800.16
542.95	1777.64
543.15	1759.21
543.35	1781.73
543.54	1667.05
543.74	1687.53
543.94	1802.21
544.14	1675.24
544.33	1726.44
544.53	1693.67
544.73	1720.29
544.93	1720.29
545.12	1716.20
545.32	1720.29
545.52	1769.44
545.71	1626.09
545.91	1677.29
546.11	1730.53
546.30	1632.23
546.50	1685.48
546.70	1732.58
546.90	1693.67
547.09	1591.27
547.29	1710.05
547.49	1740.77
547.68	1697.77
547.88	1787.88
548.08	1763.30
548.27	2146.27
548.47	1710.05
548.67	1667.05
548.87	1730.53
549.06	1728.49
549.26	1773.54
549.46	1771.49
549.65	1751.01
549.85	1736.68
550.05	1718.25
550.24	1753.06
550.44	1681.38
550.64	1787.88
550.83	1712.10
551.03	1798.12
551.23	1822.69
551.42	1783.78
551.62	1755.11
551.82	1726.44
552.01	1710.05
552.21	1820.64
552.41	1771.49
552.60	1763.30
552.80	1708.01
553.00	1677.29
553.19	1791.97
553.39	1744.87
553.59	1722.34
553.78	1753.06
553.98	1806.31
554.17	1640.42
554.37	1712.10
554.57	1701.86
554.76	1665.00
554.96	1744.87
555.16	1695.72
555.35	1730.53
555.55	1748.97
555.75	1746.92
555.94	1837.03
556.14	1613.80
556.33	1718.25
556.53	1820.64
556.73	1701.86
556.92	1775.59
557.12	1837.03
557.32	1818.60
557.51	1767.40
557.71	1728.49
557.90	1886.18
558.10	1841.12
558.30	1652.71
558.49	1699.81
558.69	1714.15
558.88	1718.25
559.08	1669.09
559.28	1724.39
559.47	1703.91
559.67	1808.36
559.86	1849.32
560.06	1628.14
560.26	1763.30
560.45	1761.25
560.65	1677.29
560.84	1816.55
561.04	1705.96
561.24	1744.87
561.43	1669.09
561.63	1804.26
561.82	1732.58
562.02	1828.84
562.22	1652.71
562.41	1685.48
562.61	1763.30
562.80	1687.53
563.00	1841.12
563.19	1800.16
563.39	1716.20
563.59	1800.16
563.78	1718.25
563.98	1689.57
564.17	1746.92
564.37	1693.67
564.56	1665.00
564.76	1685.48
564.96	1771.49
565.15	1691.62
565.35	1877.99
565.54	1662.95
565.74	1804.26
565.93	1695.72
566.13	1789.92
566.32	1742.82
566.52	1787.88
566.71	1734.63
566.91	1820.64
567.11	1794.02
567.30	1697.77
567.50	1755.11
567.69	1798.12
567.89	1701.86
568.08	1634.28
568.28	1697.77
568.47	1681.38
568.67	1746.92
568.86	1738.73
569.06	1837.03
569.25	1767.40
569.45	1693.67
569.64	1607.66
569.84	1677.29
570.04	1785.83
570.23	1734.63
570.43	1701.86
570.62	1757.16
570.82	1822.69
571.01	1658.85
571.21	1718.25
571.40	1609.70
571.60	1796.07
571.79	1808.36
571.99	1765.35
572.18	1654.76
572.38	1679.33
572.57	1578.98
572.77	1724.39
572.96	1892.32
573.16	1759.21
573.35	1736.68
573.55	1849.32
573.74	1736.68
573.94	1740.77
574.13	1624.04
574.33	1798.12
574.52	1718.25
574.71	1748.97
574.91	1775.59
575.10	1665.00
575.30	1746.92
575.49	1644.52
575.69	1714.15
575.88	1714.15
576.08	1681.38
576.27	1767.40
576.47	1736.68
576.66	1894.37
576.86	1738.73
577.05	1738.73
577.25	1759.21
577.44	1861.60
577.64	1708.01
577.83	1794.02
578.02	1787.88
578.22	1847.27
578.41	1736.68
578.61	1783.78
578.80	1648.61
579.00	1714.15
579.19	1763.30
579.39	1771.49
579.58	1808.36
579.77	1759.21
579.97	1820.64
580.16	1810.40
580.36	1681.38
580.55	1816.55
580.75	1681.38
580.94	1742.82
581.13	1834.98
581.33	1751.01
581.52	1746.92
581.72	1849.32
581.91	1771.49
582.11	1691.62
582.30	1695.72
582.49	1755.11
582.69	1853.41
582.88	1820.64
583.08	1714.15
583.27	1748.97
583.47	1736.68
583.66	1648.61
583.85	1656.81
584.05	1701.86
584.24	1800.16
584.44	1767.40
584.63	1804.26
584.82	1806.31
585.02	1826.79
585.21	1755.11
585.41	1873.89
585.60	1810.40
585.79	1892.32
585.99	1937.38
586.18	1847.27
586.37	2176.99
586.57	3213.26
586.76	9914.22
586.96	24512.14
587.15	34514.42
587.34	41090.44
587.54	42143.10
587.73	37094.86
587.93	26664.55
588.12	21642.93
588.31	18544.36
588.51	16432.90
588.70	15165.21
588.89	13926.19
589.09	12674.88
589.28	10997.59
589.47	9492.34
589.67	7993.22
589.86	6426.53
590.06	4863.93
590.25	3973.06
590.44	3104.72
590.64	2504.67
590.83	2265.05
591.02	2148.32
591.22	1980.39
591.41	1871.84
591.60	1804.26
591.80	1912.80
591.99	1748.97
592.18	1804.26
592.38	1830.88
592.57	1730.53
592.76	1740.77
592.96	1806.31
593.15	1734.63
593.34	1828.84
593.54	1710.05
593.73	1740.77
593.92	1781.73
594.12	1796.07
594.31	1734.63
594.50	1802.21
594.70	1822.69
594.89	1832.93
595.08	1642.47
595.28	1746.92
595.47	1902.56
595.66	1710.05
595.86	1662.95
596.05	1748.97
596.24	1712.10
596.43	1800.16
596.63	1736.68
596.82	1701.86
597.01	1748.97
597.21	1824.74
597.40	1775.59
597.59	1761.25
597.79	1732.58
597.98	1800.16
598.17	1802.21
598.36	1753.06
598.56	1669.09
598.75	1730.53
598.94	1775.59
599.14	1681.38
599.33	1712.10
599.52	1685.48
599.71	1687.53
599.91	1775.59
600.10	1701.86
600.29	1697.77
600.48	1763.30
600.68	1720.29
600.87	1697.77
601.06	1705.96
601.26	1748.97
601.45	1708.01
601.64	1599.46
601.83	1832.93
602.03	1777.64
602.22	1572.84
602.41	1771.49
602.60	1781.73
602.80	1736.68
602.99	1677.29
603.18	1720.29
603.37	1681.38
603.57	1824.74
603.76	1787.88
603.95	1834.98
604.14	1648.61
604.34	1650.66
604.53	1828.84
604.72	1705.96
604.91	1740.77
605.10	1751.01
605.30	1718.25
605.49	1886.18
605.68	1744.87
605.87	1755.11
606.07	1710.05
606.26	1787.88
606.45	1746.92
606.64	1699.81
606.84	1746.92
607.03	1685.48
607.22	1810.40
607.41	1638.38
607.60	1705.96
607.80	1755.11
607.99	1751.01
608.18	1759.21
608.37	1685.48
608.56	1767.40
608.76	1791.97
608.95	1822.69
609.14	1648.61
609.33	1681.38
609.52	1806.31
609.72	1722.34
609.91	1736.68
610.10	1730.53
610.29	1785.83
610.48	1718.25
610.68	1689.57
610.87	1720.29
611.06	1771.49
611.25	1642.47
611.44	1785.83
611.63	1648.61
611.83	1746.92
612.02	1562.60
612.21	1699.81
612.40	1644.52
612.59	1681.38
612.79	1613.80
612.98	1632.23
613.17	1869.80
613.36	1718.25
613.55	1873.89
613.74	1685.48
613.93	1730.53
614.13	1685.48
614.32	1718.25
614.51	1724.39
614.70	1701.86
614.89	1673.19
615.08	1798.12
615.28	2062.30
615.47	1640.42
615.66	1701.86
615.85	1708.01
616.04	1820.64
616.23	1736.68
616.42	1691.62
616.62	1746.92
616.81	1732.58
617.00	1660.90
617.19	1755.11
617.38	1677.29
617.57	1712.10
617.76	1701.86
617.95	1736.68
618.15	1714.15
618.34	1808.36
618.53	1671.14
618.72	1822.69
618.91	1798.12
619.10	1771.49
619.29	1595.37
619.48	1667.05
619.68	1671.14
619.87	1751.01
620.06	1714.15
620.25	1751.01
620.44	1699.81
620.63	1665.00
620.82	1703.91
621.01	1730.53
621.20	1742.82
621.39	1751.01
621.59	1785.83
621.78	1759.21
621.97	1714.15
622.16	1746.92
622.35	1714.15
622.54	1802.21
622.73	1712.10
622.92	1628.14
623.11	1781.73
623.30	1667.05
623.49	1722.34
623.68	1677.29
623.88	1724.39
624.07	1617.90
624.26	1724.39
624.45	1724.39
624.64	1712.10
624.83	1785.83
625.02	1710.05
625.21	1695.72
625.40	1689.57
625.59	1777.64
625.78	1687.53
625.97	1736.68
626.16	1771.49
626.35	1687.53
626.54	1738.73
626.74	1834.98
626.93	1730.53
627.12	1710.05
627.31	1785.83
627.50	1771.49
627.69	1808.36
627.88	1644.52
628.07	1736.68
628.26	1619.94
628.45	1667.05
628.64	1648.61
628.83	1748.97
629.02	1593.32
629.21	1761.25
629.40	1746.92
629.59	1705.96
629.78	1697.77
629.97	1656.81
630.16	1693.67
630.35	1751.01
630.54	1765.35
630.73	1667.05
630.92	1701.86
631.11	1621.99
631.30	1705.96
631.49	1761.25
631.68	1628.14
631.87	1789.92
632.06	1595.37
632.25	1826.79
632.44	1746.92
632.63	1669.09
632.82	1640.42
633.01	1611.75
633.20	1693.67
633.39	1660.90
633.58	1626.09
633.77	1673.19
633.96	1718.25
634.15	1832.93
634.34	1671.14
634.53	1697.77
634.72	1703.91
634.91	1570.79
635.10	1712.10
635.29	1763.30
635.48	1763.30
635.67	1673.19
635.86	1626.09
636.05	1820.64
636.24	1726.44
636.43	1652.71
636.62	1804.26
636.81	1609.70
637.00	1722.34
637.19	1759.21
637.38	1740.77
637.57	1656.81
637.76	1722.34
637.95	1658.85
638.14	1730.53
638.33	1726.44
638.52	1775.59
638.71	1632.23
638.89	1624.04
639.08	1812.45
639.27	1746.92
639.46	1769.44
639.65	1753.06
639.84	1697.77
640.03	1775.59
640.22	1699.81
640.41	1771.49
640.60	1656.81
640.79	1716.20
640.98	1624.04
641.17	1759.21
641.36	1740.77
641.55	1691.62
641.74	1681.38
641.92	1619.94
642.11	1699.81
642.30	1771.49
642.49	1716.20
642.68	1685.48
642.87	1724.39
643.06	1667.05
643.25	1683.43
643.44	1617.90
643.63	1687.53
643.82	1730.53
644.00	1624.04
644.19	1708.01
644.38	1658.85
644.57	1689.57
644.76	1660.90
644.95	1740.77
645.14	1710.05
645.33	1675.24
645.52	1714.15
645.71	1673.19
645.89	1683.43
646.08	1726.44
646.27	1693.67
646.46	1845.22
646.65	1609.70
646.84	1642.47
647.03	1646.57
647.22	1714.15
647.40	1791.97
647.59	1667.05
647.78	1660.90
647.97	1640.42
648.16	1685.48
648.35	1834.98
648.54	1806.31
648.73	1646.57
648.91	1740.77
649.10	1742.82
649.29	1669.09
649.48	1710.05
649.67	1773.54
649.86	1689.57
650.05	1697.77
650.23	1751.01
650.42	1617.90
650.61	1767.40
650.80	1748.97
650.99	1890.28
651.18	1705.96
651.36	1808.36
651.55	1705.96
651.74	1814.50
651.93	1681.38
652.12	1681.38
652.31	1611.75
652.49	1705.96
652.68	1736.68
652.87	1751.01
653.06	1738.73
653.25	1849.32
653.44	1650.66
653.62	1783.78
653.81	1693.67
654.00	1652.71
654.19	1753.06
654.38	1759.21
654.56	1748.97
654.75	1685.48
654.94	1851.36
655.13	1761.25
655.32	1681.38
655.51	1751.01
655.69	1632.23
655.88	1665.00
656.07	1714.15
656.26	1681.38
656.45	1671.14
656.63	1714.15
656.82	1751.01
657.01	1646.57
657.20	1662.95
657.38	1748.97
657.57	1685.48
657.76	1613.80
657.95	1691.62
658.14	1710.05
658.32	1685.48
658.51	1712.10
658.70	1769.44
658.89	1755.11
659.08	1748.97
659.26	1894.37
659.45	1572.84
659.64	1679.33
659.83	1687.53
660.01	1918.95
660.20	1718.25
660.39	1804.26
660.58	1638.38
660.76	1773.54
660.95	1554.41
661.14	1732.58
661.33	1581.03
661.51	1628.14
661.70	1687.53
661.89	1667.05
662.08	1624.04
662.26	1689.57
662.45	1673.19
662.64	1841.12
662.83	1757.16
663.01	1685.48
663.20	1714.15
663.39	1753.06
663.58	1656.81
663.76	1740.77
663.95	1689.57
664.14	1632.23
664.32	1624.04
664.51	1650.66
664.70	1619.94
664.89	1697.77
665.07	1626.09
665.26	1748.97
665.45	1693.67
665.64	1748.97
665.82	1656.81
666.01	1746.92
666.20	1587.18
666.38	1753.06
666.57	1734.63
666.76	2181.09
666.95	4501.44
667.13	10418.02
667.32	15349.53
667.51	18067.18
667.69	18951.90
667.88	17463.03
668.07	12224.33
668.25	9643.88
668.44	7952.26
668.63	7397.26
668.81	6748.06
669.00	6150.05
669.19	5791.66
669.38	4876.21
669.56	4487.10
669.75	4032.45
669.94	3413.96
670.12	2881.49
670.31	2500.57
670.50	2205.66
670.68	2056.16
670.87	1882.08
671.06	1820.64
671.24	1839.08
671.43	1867.75
671.62	1806.31
671.80	1699.81
671.99	1767.40
672.18	1763.30
672.36	1746.92
672.55	1665.00
672.74	1671.14
672.92	1701.86
673.11	1787.88
673.29	1667.05
673.48	1748.97
673.67	1732.58
673.85	1759.21
674.04	1679.33
674.23	1748.97
674.41	1769.44
674.60	1644.52
674.79	1634.28
674.97	1677.29
675.16	1703.91
675.34	1673.19
675.53	1660.90
675.72	1677.29
675.90	1785.83
676.09	1646.57
676.28	1677.29
676.46	1703.91
676.65	1744.87
676.83	1578.98
677.02	1703.91
677.21	1736.68
677.39	1714.15
677.58	1667.05
677.77	1652.71
677.95	1693.67
678.14	1677.29
678.32	1660.90
678.51	1632.23
678.70	1748.97
678.88	1665.00
679.07	1662.95
679.25	1724.39
679.44	1724.39
679.63	1646.57
679.81	1642.47
680.00	1777.64
680.18	1779.68
680.37	1722.34
680.55	1724.39
680.74	1640.42
680.93	1568.74
681.11	1751.01
681.30	1665.00
681.48	1691.62
681.67	1673.19
681.85	1746.92
682.04	1650.66
682.23	1759.21
682.41	1669.09
682.60	1740.77
682.78	1740.77
682.97	1609.70
683.15	1689.57
683.34	1693.67
683.53	1763.30
683.71	1638.38
683.90	1826.79
684.08	1775.59
684.27	1761.25
684.45	1642.47
684.64	1740.77
684.82	1716.20
685.01	1701.86
685.19	1726.44
685.38	1802.21
685.57	1705.96
685.75	1626.09
685.94	1746.92
686.12	1654.76
686.31	1640.42
686.49	1734.63
686.68	1599.46
686.86	1718.25
687.05	1597.42
687.23	1740.77
687.42	1708.01
687.60	1640.42
687.79	1789.92
687.97	1839.08
688.16	1773.54
688.34	1751.01
688.53	1560.55
688.71	1736.68
688.90	1759.21
689.08	1662.95
689.27	1607.66
689.45	1724.39
689.64	1675.24
689.82	1718.25
690.01	1710.05
690.19	1742.82
690.38	1695.72
690.56	1740.77
690.75	1630.18
690.93	1642.47
691.12	1683.43
691.30	1656.81
691.49	1673.19
691.67	1708.01
691.86	1755.11
692.04	1681.38
692.23	1673.19
692.41	1642.47
692.60	1734.63
692.78	1742.82
692.97	1685.48
693.15	1642.47
693.34	1757.16
693.52	1710.05
693.71	1677.29
693.89	1675.24
694.08	1599.46
694.26	1806.31
694.44	1689.57
694.63	1673.19
694.81	1650.66
695.00	1683.43
695.18	1740.77
695.37	1818.60
695.55	1716.20
695.74	1722.34
695.92	1679.33
696.10	1787.88
696.29	1675.24
696.47	1718.25
696.66	1546.22
696.84	1574.89
697.03	1689.57
697.21	1738.73
697.40	2353.12
697.58	1798.12
697.76	1691.62
697.95	1705.96
698.13	1634.28
698.32	1644.52
698.50	1777.64
698.68	1773.54
698.87	1708.01
699.05	1820.64
699.24	1660.90
699.42	1667.05
699.61	1755.11
699.79	1724.39
699.97	1742.82
700.16	1642.47
700.34	1660.90
700.53	1746.92
700.71	1781.73
700.89	1697.77
701.08	1667.05
701.26	1675.24
701.45	2072.54
701.63	1667.05
701.81	1648.61
702.00	1689.57
702.18	1671.14
702.37	1644.52
702.55	1718.25
702.73	1742.82
702.92	1619.94
703.10	1748.97
703.28	1726.44
703.47	1628.14
703.65	1761.25
703.84	1708.01
704.02	1695.72
704.20	1689.57
704.39	1609.70
704.57	1675.24
704.75	1796.07
704.94	1777.64
705.12	1665.00
705.30	1787.88
705.49	2213.85
705.67	4542.39
705.86	9508.72
706.04	12519.23
706.22	14464.80
706.41	15490.84
706.59	14014.25
706.77	9774.95
706.96	7495.57
707.14	6586.27
707.32	5984.16
707.51	5691.31
707.69	4947.89
707.87	4278.21
708.06	3526.60
708.24	2881.49
708.42	2365.40
708.61	2273.25
708.79	1896.42
708.97	1892.32
709.16	1824.74
709.34	1732.58
709.52	1724.39
709.71	1724.39
709.89	1810.40
710.07	1683.43
710.26	1710.05
710.44	1665.00
710.62	1765.35
710.80	1720.29
710.99	1759.21
711.17	1794.02
711.35	1691.62
711.54	1689.57
711.72	1773.54
711.90	1726.44
712.09	1697.77
712.27	1720.29
712.45	1744.87
712.63	1691.62
712.82	1757.16
713.00	1712.10
713.18	1775.59
713.37	1746.92
713.55	1714.15
713.73	1732.58
713.91	1753.06
714.10	1697.77
714.28	1675.24
714.46	1724.39
714.65	1642.47
714.83	1703.91
715.01	1705.96
715.19	1708.01
715.38	1767.40
715.56	1673.19
715.74	1652.71
715.92	1681.38
716.11	1697.77
716.29	1599.46
716.47	1648.61
716.65	1771.49
716.84	1652.71
717.02	1794.02
717.20	1642.47
717.38	1656.81
717.57	1650.66
717.75	1689.57
717.93	1677.29
718.11	1660.90
718.30	1675.24
718.48	1746.92
718.66	1730.53
718.84	1724.39
719.03	1621.99
719.21	1665.00
719.39	1765.35
719.57	1701.86
719.75	1718.25
719.94	1673.19
720.12	1658.85
720.30	1697.77
720.48	1736.68
720.67	1650.66
720.85	1630.18
721.03	1730.53
721.21	1648.61
721.39	1738.73
721.58	1730.53
721.76	1724.39
721.94	1732.58
722.12	1710.05
722.30	1818.60
722.49	1652.71
722.67	1642.47
722.85	1746.92
723.03	1644.52
723.21	1667.05
723.40	1714.15
723.58	1718.25
723.76	1761.25
723.94	1718.25
724.12	1787.88
724.30	1757.16
724.49	1652.71
724.67	1634.28
724.85	1753.06
725.03	1642.47
725.21	1679.33
725.40	1718.25
725.58	1619.94
725.76	1761.25
725.94	1705.96
726.12	1685.48
726.30	1619.94
726.49	1695.72
726.67	1691.62
726.85	1744.87
727.03	1724.39
727.21	2197.47
727.39	2985.94
727.57	3751.88
727.76	4247.49
727.94	4544.44
728.12	4499.39
728.30	3704.78
728.48	2930.64
728.66	2725.85
728.84	2607.06
729.03	2291.68
729.21	2117.60
729.39	1972.19
729.57	1884.13
729.75	1771.49
729.93	1810.40
730.11	1642.47
730.30	1738.73
730.48	1650.66
730.66	1779.68
730.84	1765.35
731.02	1728.49
731.20	1730.53
731.38	1685.48
731.56	1638.38
731.74	1624.04
731.93	1748.97
732.11	1832.93
732.29	1675.24
732.47	1751.01
732.65	1671.14
732.83	1724.39
733.01	1708.01
733.19	1638.38
733.37	1755.11
733.56	1751.01
733.74	1742.82
733.92	1765.35
734.10	1687.53
734.28	1712.10
734.46	1619.94
734.64	1619.94
734.82	1636.33
735.00	1665.00
735.18	1669.09
735.36	1648.61
735.54	1665.00
735.73	1722.34
735.91	1736.68
736.09	1732.58
736.27	1673.19
736.45	1755.11
736.63	1665.00
736.81	1660.90
736.99	1818.60
737.17	1785.83
737.35	1742.82
737.53	1695.72
737.71	1753.06
737.89	1814.50
738.07	1605.61
738.25	1679.33
738.43	1632.23
738.61	1669.09
738.80	1619.94
738.98	1601.51
739.16	1640.42
739.34	1669.09
739.52	1736.68
739.70	1613.80
739.88	1697.77
740.06	1744.87
740.24	1626.09
740.42	1761.25
740.60	1607.66
740.78	1677.29
740.96	1660.90
741.14	1648.61
741.32	1716.20
741.50	1650.66
741.68	1789.92
741.86	1751.01
742.04	1695.72
742.22	1593.32
742.40	1675.24
742.58	1714.15
742.76	1589.22
742.94	1703.91
743.12	1603.56
743.30	1703.91
743.48	1673.19
743.66	1689.57
743.84	1724.39
744.02	1671.14
744.20	1693.67
744.38	1585.13
744.56	1585.13
744.74	1773.54
744.92	1701.86
745.10	1779.68
745.28	1734.63
745.46	1722.34
745.64	1642.47
745.82	1724.39
746.00	1765.35
746.18	1724.39
746.36	1681.38
746.54	1742.82
746.72	1744.87
746.90	1701.86
747.08	1734.63
747.26	1658.85
747.44	1744.87
747.62	1705.96
747.80	1681.38
747.98	1759.21
748.15	1685.48
748.33	1705.96
748.51	1726.44
748.69	1744.87
748.87	1621.99
749.05	1693.67
749.23	1626.09
749.41	1708.01
749.59	1652.71
749.77	1748.97
749.95	1601.51
750.13	1638.38
750.31	1806.31
750.49	1665.00
750.67	1810.40
750.85	1824.74
751.03	1687.53
751.20	1775.59
751.38	1751.01
751.56	1712.10
751.74	1712.10
751.92	1667.05
752.10	1632.23
752.28	1808.36
752.46	1689.57
752.64	1669.09
752.82	1609.70
753.00	1791.97
753.18	1769.44
753.35	1675.24
753.53	1753.06
753.71	1693.67
753.89	1685.48
754.07	1685.48
754.25	1755.11
754.43	1681.38
754.61	1642.47
754.79	1710.05
754.97	1658.85
755.14	1732.58
755.32	1624.04
755.50	1652.71
755.68	1673.19
755.86	1687.53
756.04	1755.11
756.22	1658.85
756.40	1710.05
756.57	1726.44
756.75	1742.82
756.93	1820.64
757.11	1753.06
757.29	1632.23
757.47	1611.75
757.65	1593.32
757.82	1578.98
758.00	1644.52
758.18	1656.81
758.36	1669.09
758.54	1822.69
758.72	1638.38
758.90	1818.60
759.07	1738.73
759.25	1609.70
759.43	1798.12
759.61	1626.09
759.79	2228.19
759.97	1693.67
760.15	1695.72
760.32	1673.19
760.50	1708.01
760.68	1804.26
760.86	1665.00
761.04	1748.97
761.22	1753.06
761.39	1722.34
761.57	1728.49
761.75	1710.05
761.93	1708.01
762.11	1611.75
762.28	1746.92
762.46	1708.01
762.64	1746.92
762.82	1599.46
763.00	1736.68
763.18	1751.01
763.35	1638.38
763.53	1728.49
763.71	1656.81
763.89	1658.85
764.07	1710.05
764.24	1636.33
764.42	1705.96
764.60	1726.44
764.78	1699.81
764.96	1734.63
765.13	1689.57
765.31	1658.85
765.49	1753.06
765.67	1593.32
765.84	1681.38
766.02	1724.39
766.20	1667.05
766.38	1759.21
766.56	1761.25
766.73	1699.81
766.91	1722.34
767.09	1726.44
767.27	1726.44
767.44	1652.71
767.62	1746.92
767.80	1728.49
767.98	1597.42
768.15	1687.53
768.33	1730.53
768.51	1761.25
768.69	1640.42
768.87	1775.59
769.04	1687.53
769.22	1812.45
769.40	1710.05
769.58	1839.08
769.75	1755.11
769.93	1757.16
770.11	1722.34
770.28	1558.50
770.46	1691.62
770.64	1683.43
770.82	1691.62
770.99	1658.85
771.17	1720.29
771.35	1681.38
771.53	1656.81
771.70	1656.81
771.88	1689.57
772.06	1687.53
772.23	1742.82
772.41	1724.39
772.59	1656.81
772.77	1656.81
772.94	1679.33
773.12	1677.29
773.30	1697.77
773.47	1679.33
773.65	1673.19
773.83	1701.86
774.01	1734.63
774.18	1632.23
774.36	1718.25
774.54	1576.94
774.71	1689.57
774.89	1591.27
775.07	1587.18
775.24	1667.05
775.42	1638.38
775.60	1796.07
775.78	1624.04
775.95	1648.61
776.13	1634.28
776.31	1615.85
776.48	1726.44
776.66	1658.85
776.84	1595.37
777.01	1632.23
777.19	1665.00
777.37	1660.90
777.54	1753.06
777.72	1845.22
777.90	1642.47
778.07	1601.51
778.25	1910.75
778.43	1796.07
778.60	1656.81
778.78	1677.29
778.96	1789.92
779.13	1675.24
779.31	1755.11
779.49	1683.43
779.66	1724.39
779.84	1710.05
780.01	1654.76
780.19	1703.91
780.37	1769.44
780.54	1839.08
780.72	1732.58
780.90	1697.77
781.07	1642.47
781.25	1736.68
781.43	1693.67
781.60	1701.86
781.78	1722.34
781.95	1648.61
782.13	1681.38
782.31	1691.62
782.48	1652.71
782.66	1658.85
782.83	1857.51
783.01	1621.99
783.19	1753.06
783.36	1628.14
783.54	1624.04
783.72	1783.78
783.89	1654.76
784.07	1740.77
784.24	1744.87
784.42	1804.26
784.60	1689.57
784.77	1722.34
784.95	1566.70
785.12	1681.38
785.30	1726.44
785.47	1697.77
785.65	1699.81
785.83	1644.52
786.00	1660.90
786.18	1724.39
786.35	1648.61
786.53	1626.09
786.71	1748.97
786.88	1742.82
787.06	1669.09
787.23	1652.71
787.41	1658.85
787.58	1705.96
787.76	1574.89
787.94	1748.97
788.11	1677.29
788.29	1599.46
788.46	1691.62
788.64	1636.33
788.81	1638.38
788.99	1583.08
789.16	1603.56
789.34	1708.01
789.52	1650.66
789.69	1697.77
789.87	1630.18
790.04	1660.90
790.22	1656.81
790.39	1839.08
790.57	1615.85
790.74	1636.33
790.92	1808.36
791.09	1562.60
791.27	1693.67
791.44	1798.12
791.62	1650.66
791.79	1710.05
791.97	1615.85
792.15	1808.36
792.32	1683.43
792.50	1773.54
792.67	1710.05
792.85	1763.30
793.02	1658.85
793.20	1640.42
793.37	1650.66
793.55	1650.66
793.72	1611.75
793.90	1755.11
794.07	1710.05
794.25	1642.47
794.42	1667.05
794.60	1626.09
794.77	1740.77
794.95	1757.16
795.12	1712.10
795.30	1693.67
795.47	1607.66
795.65	1896.42
795.82	1736.68
796.00	1619.94
796.17	1695.72
796.34	1617.90
796.52	1648.61
796.69	1689.57
796.87	1744.87
797.04	1681.38
797.22	1787.88
797.39	1703.91
797.57	1748.97
797.74	1648.61
797.92	1681.38
798.09	1603.56
798.27	1791.97
798.44	1708.01
798.62	1632.23
798.79	1703.91
798.96	1701.86
799.14	1673.19
799.31	1806.31
799.49	1687.53
799.66	1691.62
799.84	1703.91
800.01	1671.14
800.19	1728.49
800.36	1667.05
800.53	1789.92
800.71	1669.09
800.88	1761.25
801.06	1624.04
801.23	1673.19
801.41	1615.85
801.58	1607.66
801.75	1644.52
801.93	1751.01
802.10	1669.09
802.28	1689.57
802.45	1658.85
802.63	1742.82
802.80	1757.16
802.97	1648.61
803.15	1640.42
803.32	1673.19
803.50	1681.38
803.67	1583.08
803.84	1669.09
804.02	1734.63
804.19	1673.19
804.37	1566.70
804.54	1636.33
804.71	1701.86
804.89	1628.14
805.06	1697.77
805.24	1669.09
805.41	1658.85
805.58	1683.43
805.76	1794.02
805.93	1693.67
806.10	1738.73
806.28	1720.29
806.45	1669.09
806.63	1712.10
806.80	1720.29
806.97	1681.38
807.15	1675.24
807.32	1734.63
807.49	1708.01
807.67	1699.81
807.84	1753.06
808.01	1632.23
808.19	1796.07
808.36	1826.79
808.54	1730.53
808.71	1675.24
808.88	1683.43
809.06	1714.15
809.23	1818.60
809.40	1667.05
809.58	1779.68
809.75	1677.29
809.92	1607.66
810.10	1818.60
810.27	1681.38
810.44	1755.11
810.62	1720.29
810.79	1761.25
810.96	1634.28
811.14	1693.67
811.31	1685.48
811.48	1714.15
811.66	1656.81
811.83	1742.82
812.00	1671.14
812.18	1677.29
812.35	1824.74
812.52	1632.23
812.69	1626.09
812.87	1656.81
813.04	1671.14
813.21	1667.05
813.39	1617.90
813.56	1634.28
813.73	1697.77
813.91	1687.53
814.08	1689.57
814.25	1673.19
814.42	1624.04
814.60	1652.71
814.77	1705.96
814.94	1669.09
815.12	1671.14
815.29	1781.73
815.46	1593.32
815.63	1689.57
815.81	1677.29
815.98	1673.19
816.15	1619.94
816.33	1712.10
816.50	1630.18
816.67	1738.73
816.84	1703.91
817.02	1685.48
817.19	1677.29
817.36	1669.09
817.53	1687.53
817.71	1646.57
817.88	1740.77
818.05	1683.43
818.22	1697.77
818.40	1767.40
818.57	1611.75
818.74	1724.39
818.91	1640.42
819.09	1701.86
819.26	1816.55
819.43	1593.32
819.60	1642.47
819.78	1738.73
819.95	1773.54
820.12	1669.09
820.29	1763.30
820.47	1732.58
820.64	1621.99
820.81	1615.85
820.98	1650.66
821.15	1665.00
821.33	1738.73
821.50	1632.23
821.67	1652.71
821.84	1685.48
822.02	1656.81
822.19	1714.15
822.36	1683.43
822.53	1699.81
822.70	1576.94
822.88	1685.48
823.05	1732.58
823.22	1644.52
823.39	1699.81
823.56	1730.53
823.74	1787.88
823.91	1701.86
824.08	1611.75
824.25	1601.51
824.42	1771.49
824.60	1552.36
824.77	1681.38
824.94	1746.92
825.11	1746.92
825.28	1535.98
825.45	1718.25
825.63	1746.92
825.80	1597.42
825.97	1722.34
826.14	1695.72
826.31	1642.47
826.48	1705.96
826.66	1695.72
826.83	1632.23
827.00	1787.88
827.17	1619.94
827.34	1673.19
827.51	1675.24
827.69	1695.72
827.86	1630.18
828.03	1658.85
828.20	1755.11
828.37	1689.57
828.54	1724.39
828.71	1642.47
828.89	1746.92
829.06	1681.38
829.23	1800.16
829.40	1642.47
829.57	1705.96
829.74	1775.59
829.91	1681.38
830.09	1607.66
830.26	1714.15
830.43	1746.92
830.60	1654.76
830.77	1806.31
830.94	1748.97
831.11	1722.34
831.28	1695.72
831.46	1771.49
831.63	1673.19
831.80	1732.58
831.97	1689.57
832.14	1660.90
832.31	1712.10
832.48	1650.66
832.65	1716.20
832.82	1675.24
832.99	1724.39
833.17	1646.57
833.34	1802.21
833.51	1738.73
833.68	1599.46
833.85	1763.30
834.02	1691.62
834.19	1671.14
834.36	1677.29
834.53	1703.91
834.70	1677.29
834.87	1802.21
835.04	1656.81
835.22	1556.46
835.39	1701.86
835.56	1673.19
835.73	1632.23
835.90	1730.53
836.07	1638.38
836.24	1757.16
836.41	1658.85
836.58	1708.01
836.75	1728.49
836.92	1746.92
837.09	1617.90
837.26	1710.05
837.43	1726.44
837.60	1769.44
837.77	1570.79
837.94	1757.16
838.12	1730.53
838.29	1705.96
838.46	1658.85
838.63	1648.61
838.80	1800.16
838.97	1703.91
839.14	1767.40
839.31	1685.48
839.48	1712.10
839.65	1650.66
839.82	1673.19
839.99	1669.09
840.16	1693.67
840.33	1650.66
840.50	1640.42
840.67	1570.79
840.84	1572.84
841.01	1730.53
841.18	1701.86
841.35	1658.85
841.52	1753.06
841.69	1826.79
841.86	1697.77
842.03	1677.29
842.20	1771.49
842.37	1648.61
842.54	1632.23
842.71	1638.38
842.88	1570.79
843.05	1755.11
843.22	1640.42
843.39	1624.04
843.56	1636.33
843.73	1722.34
843.90	1712.10
844.07	1593.32
844.24	1675.24
844.41	1697.77
844.58	1673.19
844.75	1654.76
844.92	1789.92
845.09	1638.38
845.26	1603.56
845.43	1720.29
845.60	1712.10
845.77	1742.82
845.94	1675.24
846.10	1744.87
846.27	1581.03
846.44	1671.14
846.61	1648.61
846.78	1748.97
846.95	1814.50
847.12	1667.05
847.29	1667.05
847.46	1644.52
847.63	1757.16
847.80	1665.00
847.97	1626.09
848.14	1896.42
848.31	1687.53
848.48	1660.90
848.65	1710.05
848.82	1642.47
848.98	1855.46
849.15	1798.12
849.32	1722.34
849.49	1734.63
849.66	1722.34
849.83	1660.90
850.00	1675.24
850.17	1708.01
850.34	1665.00
850.51	1619.94
850.68	1556.46
850.85	1837.03
851.01	1673.19
851.18	1599.46
851.35	1691.62
851.52	1601.51
851.69	1736.68
851.86	1656.81
852.03	1681.38
852.20	1751.01
852.37	1675.24
852.53	1650.66
852.70	1644.52
852.87	1722.34
853.04	1708.01
853.21	1697.77
853.38	1775.59
853.55	1746.92
853.72	1708.01
853.89	1648.61
854.05	1624.04
854.22	1677.29
854.39	1695.72
854.56	1689.57
854.73	1779.68
854.90	1701.86
855.07	1726.44
855.23	1669.09
855.40	1576.94
855.57	1636.33
855.74	1587.18
855.91	1863.65
856.08	1644.52
856.25	1585.13
856.41	1703.91
856.58	1644.52
856.75	1708.01
856.92	1603.56
857.09	1724.39
857.26	1611.75
857.42	1679.33
857.59	1748.97
857.76	1736.68
857.93	1677.29
858.10	1699.81
858.27	1601.51
858.43	1724.39
858.60	1695.72
858.77	1624.04
858.94	1665.00
859.11	1855.46
859.27	1609.70
859.44	1714.15
859.61	1841.12
859.78	1710.05
859.95	1695.72
860.12	1667.05
860.28	1710.05
860.45	1779.68
860.62	1677.29
860.79	1730.53
860.95	1665.00
861.12	1619.94
861.29	1644.52
861.46	1654.76
861.63	1703.91
861.79	1732.58
861.96	1671.14
862.13	1689.57
862.30	1691.62
862.47	1699.81
862.63	1656.81
862.80	1740.77
862.97	1714.15
863.14	1689.57
863.30	1710.05
863.47	1607.66
863.64	1800.16
863.81	1712.10
863.97	1644.52
864.14	1714.15
864.31	1673.19
864.48	1732.58
864.65	1624.04
864.81	1648.61
864.98	1767.40
865.15	1773.54
865.32	1757.16
865.48	1669.09
865.65	1867.75
865.82	1644.52
865.98	1708.01
866.15	1724.39
866.32	1593.32
866.49	1660.90
866.65	1689.57
866.82	1642.47
866.99	1710.05
867.16	1595.37
867.32	1667.05
867.49	1697.77
867.66	1703.91
867.83	1644.52
867.99	1624.04
868.16	1615.85
868.33	1595.37
868.49	1660.90
868.66	1701.86
868.83	1761.25
868.99	1714.15
869.16	1722.34
869.33	1767.40
869.50	1755.11
869.66	1636.33
869.83	1646.57
870.00	1638.38
870.16	1738.73
870.33	1693.67
870.50	1742.82
870.66	1710.05
870.83	1857.51
871.00	1689.57
871.17	1722.34
871.33	1683.43
871.50	1570.79
871.67	1705.96
871.83	1628.14
872.00	1785.83
872.17	1660.90
872.33	1757.16
872.50	1765.35
872.67	1658.85
872.83	1699.81
873.00	1718.25
873.17	1689.57
873.33	1736.68
873.50	1685.48
873.67	1624.04
873.83	1648.61
874.00	1679.33
874.16	1697.77
874.33	1783.78
874.50	1601.51
874.66	1742.82
874.83	1681.38
875.00	1818.60
875.16	1751.01
875.33	1755.11
875.50	1531.88
875.66	1679.33
875.83	1716.20
875.99	1728.49
876.16	1740.77
876.33	1599.46
876.49	1710.05
876.66	1675.24
876.83	1648.61
876.99	1574.89
877.16	1724.39
877.32	1740.77
877.49	1701.86
877.66	1675.24
877.82	1812.45
877.99	1712.10
878.15	1697.77
878.32	1693.67
878.49	1746.92
878.65	1730.53
878.82	1853.41
878.98	1722.34
879.15	1703.91
879.32	1751.01
879.48	1705.96
879.65	1705.96
879.81	1640.42
879.98	1746.92
880.15	1646.57
880.31	1738.73
880.48	1611.75
880.64	1804.26
880.81	1759.21
880.97	1798.12
881.14	1730.53
881.31	1693.67
881.47	1828.84
881.64	1593.32
881.80	1558.50
881.97	1683.43
882.13	1730.53
882.30	1609.70
882.47	1595.37
882.63	1669.09
882.80	1697.77
882.96	1656.81
883.13	1751.01
883.29	1697.77
883.46	1701.86
883.62	1806.31
883.79	1740.77
883.95	1779.68
884.12	1744.87
884.29	1685.48
884.45	1710.05
884.62	1781.73
884.78	1675.24
884.95	1716.20
885.11	1697.77
885.28	1677.29
885.44	1712.10
885.61	1744.87
885.77	1783.78
885.94	1730.53
886.10	1697.77
886.27	1665.00
886.43	1818.60
886.60	1826.79
886.76	1716.20
886.93	1613.80
887.09	1740.77
887.26	1671.14
887.42	1660.90
887.59	1755.11
887.75	1765.35
887.92	1748.97
888.08	1753.06
888.25	1775.59
888.41	1816.55
888.58	1724.39
888.74	1703.91
888.91	1576.94
>>>>>End Processed Spectral Data<<<<<
