SpectraSuite Data File
++++++++++++++++++++++++++++++++++++
Date: Mon Jun 06 16:49:57 CEST 2016
User: root
Dark Spectrum Present: No
Reference Spectrum Present: No
Number of Sampled Component Spectra: 1
Spectrometers: USB4C02835
Integration Time (usec): 100000 (USB4C02835)
Spectra Averaged: 1 (USB4C02835)
Boxcar Smoothing: 0 (USB4C02835)
Correct for Electrical Dark: No (USB4C02835)
Strobe/Lamp Enabled: No (USB4C02835)
Correct for Detector Non-linearity: No (USB4C02835)
Correct for Stray Light: No (USB4C02835)
Number of Pixels in Processed Spectrum: 3648
>>>>>Begin Processed Spectral Data<<<<<
177.47	1525.74
177.69	1525.74
177.91	1525.74
178.13	1495.02
178.36	1452.01
178.58	1683.43
178.80	1734.63
179.02	1578.98
179.24	1601.51
179.46	1591.27
179.68	1720.29
179.90	1726.44
180.13	1765.35
180.35	1716.20
180.57	1652.71
180.79	1648.61
181.01	1736.68
181.23	1863.65
181.45	1779.68
181.67	1734.63
181.90	1755.11
182.12	1691.62
182.34	1619.94
182.56	1726.44
182.78	1796.07
183.00	1718.25
183.22	1728.49
183.44	1531.88
183.66	1886.18
183.89	1826.79
184.11	1636.33
184.33	1699.81
184.55	1812.45
184.77	1716.20
184.99	1710.05
185.21	1724.39
185.43	1861.60
185.65	1607.66
185.87	1718.25
186.10	1787.88
186.32	1832.93
186.54	1779.68
186.76	1716.20
186.98	1759.21
187.20	1691.62
187.42	1705.96
187.64	1699.81
187.86	1738.73
188.08	1818.60
188.30	1701.86
188.52	1763.30
188.75	1726.44
188.97	1796.07
189.19	1648.61
189.41	1683.43
189.63	1839.08
189.85	1683.43
190.07	1736.68
190.29	1689.57
190.51	1712.10
190.73	1638.38
190.95	1800.16
191.17	1689.57
191.39	1611.75
191.61	1638.38
191.84	1695.72
192.06	1746.92
192.28	1640.42
192.50	1929.19
192.72	1695.72
192.94	1798.12
193.16	1671.14
193.38	1673.19
193.60	1681.38
193.82	1746.92
194.04	1726.44
194.26	1802.21
194.48	1728.49
194.70	1654.76
194.92	1665.00
195.14	1701.86
195.36	1697.77
195.58	1755.11
195.80	1689.57
196.02	1689.57
196.24	1730.53
196.46	1738.73
196.69	1689.57
196.91	1871.84
197.13	1648.61
197.35	1708.01
197.57	1779.68
197.79	1763.30
198.01	1662.95
198.23	1734.63
198.45	1742.82
198.67	1693.67
198.89	1617.90
199.11	1730.53
199.33	1605.61
199.55	1609.70
199.77	1742.82
199.99	1714.15
200.21	1636.33
200.43	1736.68
200.65	1691.62
200.87	1578.98
201.09	1779.68
201.31	1640.42
201.53	1716.20
201.75	1740.77
201.97	1781.73
202.19	1724.39
202.41	1806.31
202.63	1810.40
202.85	1742.82
203.07	1714.15
203.29	1732.58
203.51	1642.47
203.73	1671.14
203.95	1937.38
204.17	1708.01
204.39	1753.06
204.61	1757.16
204.83	1626.09
205.05	1748.97
205.27	1763.30
205.49	1767.40
205.71	1650.66
205.93	1673.19
206.15	1679.33
206.37	1665.00
206.59	1701.86
206.81	1630.18
207.03	1656.81
207.25	1716.20
207.47	1705.96
207.69	1699.81
207.91	1853.41
208.13	1722.34
208.34	1736.68
208.56	1669.09
208.78	1640.42
209.00	1708.01
209.22	1705.96
209.44	1718.25
209.66	1683.43
209.88	1767.40
210.10	1669.09
210.32	1753.06
210.54	1775.59
210.76	1783.78
210.98	1716.20
211.20	1605.61
211.42	1716.20
211.64	1734.63
211.86	1751.01
212.08	1746.92
212.30	1615.85
212.52	1656.81
212.74	1787.88
212.96	1720.29
213.17	1746.92
213.39	1712.10
213.61	1732.58
213.83	1705.96
214.05	1675.24
214.27	1730.53
214.49	1654.76
214.71	1689.57
214.93	1791.97
215.15	1671.14
215.37	1730.53
215.59	1628.14
215.81	1712.10
216.03	1748.97
216.24	1697.77
216.46	1656.81
216.68	1742.82
216.90	1710.05
217.12	1763.30
217.34	1718.25
217.56	1744.87
217.78	1738.73
218.00	1740.77
218.22	1771.49
218.44	1779.68
218.66	1736.68
218.87	1830.88
219.09	1597.42
219.31	1751.01
219.53	1759.21
219.75	1673.19
219.97	1714.15
220.19	1759.21
220.41	1720.29
220.63	1751.01
220.85	1769.44
221.06	1652.71
221.28	1808.36
221.50	1789.92
221.72	1755.11
221.94	1652.71
222.16	1714.15
222.38	1812.45
222.60	1726.44
222.82	1755.11
223.03	1783.78
223.25	1611.75
223.47	1791.97
223.69	1824.74
223.91	1708.01
224.13	1681.38
224.35	1767.40
224.57	1820.64
224.78	1738.73
225.00	1675.24
225.22	1699.81
225.44	1705.96
225.66	1710.05
225.88	1685.48
226.10	1753.06
226.32	1740.77
226.53	1857.51
226.75	1732.58
226.97	1726.44
227.19	1716.20
227.41	1642.47
227.63	1701.86
227.85	1660.90
228.06	1701.86
228.28	1761.25
228.50	1746.92
228.72	1613.80
228.94	1691.62
229.16	1572.84
229.37	1685.48
229.59	1710.05
229.81	1705.96
230.03	1675.24
230.25	1605.61
230.47	1621.99
230.69	1673.19
230.90	1753.06
231.12	1675.24
231.34	1703.91
231.56	1785.83
231.78	1671.14
232.00	1716.20
232.21	1681.38
232.43	1656.81
232.65	1615.85
232.87	1769.44
233.09	1679.33
233.30	1662.95
233.52	1767.40
233.74	1724.39
233.96	1742.82
234.18	1693.67
234.40	1748.97
234.61	1851.36
234.83	1613.80
235.05	1685.48
235.27	1832.93
235.49	1800.16
235.70	1693.67
235.92	1794.02
236.14	1726.44
236.36	1902.56
236.58	1642.47
236.79	1722.34
237.01	1683.43
237.23	1683.43
237.45	1820.64
237.67	1665.00
237.88	1738.73
238.10	1755.11
238.32	1675.24
238.54	1699.81
238.76	1746.92
238.97	1710.05
239.19	1705.96
239.41	1814.50
239.63	1691.62
239.85	1665.00
240.06	1669.09
240.28	1656.81
240.50	1785.83
240.72	1720.29
240.93	1675.24
241.15	1828.84
241.37	1732.58
241.59	1722.34
241.81	1650.66
242.02	1673.19
242.24	1738.73
242.46	1722.34
242.68	1685.48
242.89	1757.16
243.11	1755.11
243.33	1736.68
243.55	1705.96
243.76	1755.11
243.98	1671.14
244.20	1601.51
244.42	1679.33
244.64	1724.39
244.85	1611.75
245.07	1699.81
245.29	1669.09
245.51	1746.92
245.72	1744.87
245.94	1781.73
246.16	1693.67
246.38	1763.30
246.59	1683.43
246.81	1689.57
247.03	1701.86
247.24	1611.75
247.46	1685.48
247.68	1736.68
247.90	1705.96
248.11	1722.34
248.33	1730.53
248.55	1726.44
248.77	1685.48
248.98	1767.40
249.20	1791.97
249.42	1677.29
249.64	1744.87
249.85	1689.57
250.07	1730.53
250.29	1742.82
250.50	1673.19
250.72	1673.19
250.94	1681.38
251.16	1886.18
251.37	1683.43
251.59	1716.20
251.81	1800.16
252.02	1736.68
252.24	1785.83
252.46	1796.07
252.68	1662.95
252.89	1642.47
253.11	1662.95
253.33	1886.18
253.54	1751.01
253.76	1517.54
253.98	1718.25
254.20	1714.15
254.41	1640.42
254.63	1654.76
254.85	1603.56
255.06	1669.09
255.28	1781.73
255.50	1693.67
255.71	1665.00
255.93	1595.37
256.15	1689.57
256.36	1751.01
256.58	1656.81
256.80	1742.82
257.02	1583.08
257.23	1722.34
257.45	1767.40
257.67	1677.29
257.88	1708.01
258.10	1753.06
258.32	1718.25
258.53	1751.01
258.75	1849.32
258.97	1708.01
259.18	1757.16
259.40	1699.81
259.62	1845.22
259.83	1828.84
260.05	1751.01
260.27	1994.72
260.48	1759.21
260.70	1687.53
260.92	1724.39
261.13	1742.82
261.35	1681.38
261.57	1771.49
261.78	1646.57
262.00	1775.59
262.22	1728.49
262.43	1669.09
262.65	1701.86
262.86	1708.01
263.08	1810.40
263.30	1779.68
263.51	1609.70
263.73	1732.58
263.95	1800.16
264.16	1626.09
264.38	1603.56
264.60	1705.96
264.81	1703.91
265.03	1767.40
265.25	1650.66
265.46	1681.38
265.68	1845.22
265.89	1757.16
266.11	1658.85
266.33	1781.73
266.54	1783.78
266.76	1732.58
266.98	1652.71
267.19	1798.12
267.41	1740.77
267.62	1697.77
267.84	1615.85
268.06	1755.11
268.27	1751.01
268.49	1708.01
268.70	1748.97
268.92	1759.21
269.14	1662.95
269.35	1636.33
269.57	1705.96
269.79	1617.90
270.00	1638.38
270.22	1804.26
270.43	1736.68
270.65	1591.27
270.87	1669.09
271.08	1724.39
271.30	1755.11
271.51	1708.01
271.73	1662.95
271.95	1863.65
272.16	1710.05
272.38	1650.66
272.59	1701.86
272.81	1716.20
273.02	1656.81
273.24	1759.21
273.46	1714.15
273.67	1697.77
273.89	1691.62
274.10	1716.20
274.32	1828.84
274.54	1724.39
274.75	1722.34
274.97	1621.99
275.18	1755.11
275.40	1781.73
275.61	1761.25
275.83	1765.35
276.05	1632.23
276.26	1675.24
276.48	1753.06
276.69	1617.90
276.91	1697.77
277.12	1806.31
277.34	1806.31
277.55	1796.07
277.77	1703.91
277.99	1667.05
278.20	1644.52
278.42	1679.33
278.63	1605.61
278.85	1681.38
279.06	1611.75
279.28	1751.01
279.49	1812.45
279.71	1755.11
279.93	1722.34
280.14	1632.23
280.36	1675.24
280.57	1679.33
280.79	1771.49
281.00	1677.29
281.22	1693.67
281.43	1699.81
281.65	1554.41
281.86	1638.38
282.08	1705.96
282.29	1828.84
282.51	1624.04
282.73	1656.81
282.94	1632.23
283.16	1736.68
283.37	1800.16
283.59	1751.01
283.80	1687.53
284.02	1728.49
284.23	1732.58
284.45	1685.48
284.66	1615.85
284.88	1689.57
285.09	1806.31
285.31	1808.36
285.52	1787.88
285.74	1621.99
285.95	1675.24
286.17	1781.73
286.38	1781.73
286.60	1699.81
286.81	1673.19
287.03	1685.48
287.24	1693.67
287.46	1800.16
287.67	1722.34
287.89	1832.93
288.10	1712.10
288.32	1744.87
288.53	1808.36
288.75	1759.21
288.96	1724.39
289.18	1675.24
289.39	1685.48
289.61	1779.68
289.82	1830.88
290.04	1822.69
290.25	1714.15
290.47	1732.58
290.68	1755.11
290.90	1677.29
291.11	1681.38
291.33	1652.71
291.54	1703.91
291.76	1726.44
291.97	1703.91
292.18	1755.11
292.40	1621.99
292.61	1634.28
292.83	1877.99
293.04	1779.68
293.26	1722.34
293.47	1767.40
293.69	1607.66
293.90	1642.47
294.12	1748.97
294.33	1689.57
294.55	1689.57
294.76	1730.53
294.97	1767.40
295.19	1820.64
295.40	1697.77
295.62	1693.67
295.83	1718.25
296.05	1654.76
296.26	1794.02
296.48	1714.15
296.69	1619.94
296.90	1720.29
297.12	1796.07
297.33	1802.21
297.55	1712.10
297.76	1669.09
297.98	1755.11
298.19	1716.20
298.41	1628.14
298.62	1679.33
298.83	1742.82
299.05	1710.05
299.26	1734.63
299.48	1642.47
299.69	1755.11
299.90	1689.57
300.12	1646.57
300.33	1748.97
300.55	1730.53
300.76	1716.20
300.98	1656.81
301.19	1779.68
301.40	1636.33
301.62	1689.57
301.83	1841.12
302.05	1695.72
302.26	1767.40
302.47	1814.50
302.69	1685.48
302.90	1650.66
303.12	1628.14
303.33	1791.97
303.54	1839.08
303.76	1593.32
303.97	1693.67
304.19	1828.84
304.40	1720.29
304.61	1740.77
304.83	1798.12
305.04	1746.92
305.26	1671.14
305.47	1665.00
305.68	1697.77
305.90	1656.81
306.11	1783.78
306.33	1732.58
306.54	1691.62
306.75	1689.57
306.97	1581.03
307.18	1691.62
307.39	1681.38
307.61	1779.68
307.82	1638.38
308.04	1654.76
308.25	1689.57
308.46	1632.23
308.68	1705.96
308.89	1677.29
309.10	1796.07
309.32	1665.00
309.53	1697.77
309.74	1703.91
309.96	1677.29
310.17	1724.39
310.39	1736.68
310.60	1796.07
310.81	1724.39
311.03	1712.10
311.24	1681.38
311.45	1708.01
311.67	1789.92
311.88	1656.81
312.09	1683.43
312.31	1667.05
312.52	1646.57
312.73	1648.61
312.95	1650.66
313.16	1755.11
313.37	1722.34
313.59	1742.82
313.80	1783.78
314.01	1779.68
314.23	1675.24
314.44	1640.42
314.65	1617.90
314.87	1697.77
315.08	1656.81
315.29	1677.29
315.51	1632.23
315.72	1667.05
315.93	1843.17
316.15	1732.58
316.36	1621.99
316.57	1722.34
316.79	1779.68
317.00	1654.76
317.21	1814.50
317.43	1660.90
317.64	1771.49
317.85	1652.71
318.07	1628.14
318.28	1720.29
318.49	1847.27
318.70	1918.95
318.92	1767.40
319.13	1720.29
319.34	1904.61
319.56	1804.26
319.77	1789.92
319.98	1830.88
320.20	1751.01
320.41	1794.02
320.62	1744.87
320.83	1716.20
321.05	1822.69
321.26	1751.01
321.47	1746.92
321.69	1822.69
321.90	1642.47
322.11	1689.57
322.32	1714.15
322.54	1837.03
322.75	1703.91
322.96	1726.44
323.18	1669.09
323.39	1581.03
323.60	1687.53
323.81	1724.39
324.03	1703.91
324.24	1730.53
324.45	1626.09
324.66	1751.01
324.88	1757.16
325.09	1738.73
325.30	1769.44
325.52	1740.77
325.73	1779.68
325.94	1658.85
326.15	1673.19
326.37	1705.96
326.58	1722.34
326.79	1746.92
327.00	1769.44
327.22	1755.11
327.43	1615.85
327.64	1562.60
327.85	1808.36
328.07	1744.87
328.28	1857.51
328.49	1679.33
328.70	1734.63
328.92	1753.06
329.13	1734.63
329.34	1746.92
329.55	1839.08
329.76	1730.53
329.98	1691.62
330.19	1800.16
330.40	1730.53
330.61	1574.89
330.83	1726.44
331.04	1591.27
331.25	1699.81
331.46	1738.73
331.68	1691.62
331.89	1787.88
332.10	1753.06
332.31	1568.74
332.52	1722.34
332.74	1763.30
332.95	1607.66
333.16	1779.68
333.37	1779.68
333.58	1693.67
333.80	1748.97
334.01	1667.05
334.22	1689.57
334.43	1648.61
334.64	1671.14
334.86	1636.33
335.07	1621.99
335.28	1757.16
335.49	1660.90
335.70	1703.91
335.92	1691.62
336.13	1796.07
336.34	1759.21
336.55	1738.73
336.76	1710.05
336.98	1558.50
337.19	1665.00
337.40	1728.49
337.61	1814.50
337.82	1681.38
338.04	1808.36
338.25	1558.50
338.46	1646.57
338.67	1607.66
338.88	1665.00
339.09	1683.43
339.31	1687.53
339.52	1636.33
339.73	1646.57
339.94	1742.82
340.15	1660.90
340.36	1691.62
340.58	1697.77
340.79	1697.77
341.00	1693.67
341.21	1710.05
341.42	1802.21
341.63	1714.15
341.85	1820.64
342.06	1740.77
342.27	1669.09
342.48	1730.53
342.69	1767.40
342.90	1761.25
343.12	1701.86
343.33	1714.15
343.54	1771.49
343.75	1785.83
343.96	1773.54
344.17	1667.05
344.38	1683.43
344.60	1712.10
344.81	1726.44
345.02	1716.20
345.23	1751.01
345.44	1769.44
345.65	1699.81
345.86	1677.29
346.07	1724.39
346.29	1648.61
346.50	1681.38
346.71	1691.62
346.92	1742.82
347.13	1908.71
347.34	1634.28
347.55	1710.05
347.76	1732.58
347.98	1648.61
348.19	1732.58
348.40	1746.92
348.61	1662.95
348.82	1802.21
349.03	1808.36
349.24	1662.95
349.45	1839.08
349.66	1624.04
349.88	1681.38
350.09	1673.19
350.30	1808.36
350.51	1757.16
350.72	1777.64
350.93	1779.68
351.14	1669.09
351.35	1787.88
351.56	1728.49
351.77	1654.76
351.99	1611.75
352.20	1818.60
352.41	1716.20
352.62	1626.09
352.83	1699.81
353.04	1726.44
353.25	1634.28
353.46	1777.64
353.67	1775.59
353.88	1576.94
354.09	1636.33
354.30	1746.92
354.52	1716.20
354.73	1722.34
354.94	1703.91
355.15	1697.77
355.36	1759.21
355.57	1683.43
355.78	1771.49
355.99	1667.05
356.20	1726.44
356.41	1804.26
356.62	1658.85
356.83	1695.72
357.04	1722.34
357.25	1677.29
357.46	1726.44
357.68	1656.81
357.89	1677.29
358.10	1724.39
358.31	1730.53
358.52	1742.82
358.73	1665.00
358.94	1658.85
359.15	1681.38
359.36	1742.82
359.57	1628.14
359.78	1691.62
359.99	1755.11
360.20	1652.71
360.41	1724.39
360.62	1720.29
360.83	1785.83
361.04	1679.33
361.25	1669.09
361.46	1804.26
361.67	1734.63
361.88	1714.15
362.09	1742.82
362.30	1806.31
362.51	1667.05
362.72	1652.71
362.93	1740.77
363.14	1689.57
363.35	1773.54
363.56	1626.09
363.78	1783.78
363.99	1785.83
364.20	1634.28
364.41	1781.73
364.62	1822.69
364.83	1708.01
365.04	1730.53
365.25	1695.72
365.46	1857.51
365.67	1691.62
365.88	1656.81
366.09	1695.72
366.30	1669.09
366.51	1665.00
366.72	1615.85
366.93	1671.14
367.14	1800.16
367.35	1740.77
367.56	1716.20
367.77	1748.97
367.98	1779.68
368.18	1710.05
368.39	1765.35
368.60	1632.23
368.81	1800.16
369.02	1746.92
369.23	1650.66
369.44	1667.05
369.65	1644.52
369.86	1691.62
370.07	1746.92
370.28	1660.90
370.49	1755.11
370.70	1701.86
370.91	1660.90
371.12	1578.98
371.33	1734.63
371.54	1621.99
371.75	1796.07
371.96	1554.41
372.17	1757.16
372.38	1658.85
372.59	1773.54
372.80	1648.61
373.01	1695.72
373.22	1787.88
373.43	1671.14
373.64	1748.97
373.85	1781.73
374.06	1769.44
374.26	1695.72
374.47	1808.36
374.68	1751.01
374.89	1722.34
375.10	1685.48
375.31	1765.35
375.52	1761.25
375.73	1675.24
375.94	1757.16
376.15	1822.69
376.36	1673.19
376.57	1728.49
376.78	1734.63
376.99	1658.85
377.20	1787.88
377.40	1763.30
377.61	1755.11
377.82	1648.61
378.03	1712.10
378.24	1697.77
378.45	1671.14
378.66	1703.91
378.87	1681.38
379.08	1615.85
379.29	1742.82
379.50	1822.69
379.71	1751.01
379.91	1718.25
380.12	1751.01
380.33	1615.85
380.54	1695.72
380.75	1703.91
380.96	1736.68
381.17	1800.16
381.38	1701.86
381.59	1779.68
381.80	1753.06
382.00	1851.36
382.21	1816.55
382.42	1849.32
382.63	1937.38
382.84	1703.91
383.05	1732.58
383.26	1763.30
383.47	1742.82
383.68	1689.57
383.88	1851.36
384.09	1701.86
384.30	1828.84
384.51	1701.86
384.72	1671.14
384.93	1693.67
385.14	1732.58
385.35	1888.23
385.55	1687.53
385.76	1783.78
385.97	1632.23
386.18	1656.81
386.39	1675.24
386.60	1660.90
386.81	1669.09
387.02	1652.71
387.22	1652.71
387.43	1814.50
387.64	1779.68
387.85	1902.56
388.06	2195.42
388.27	4229.06
388.48	6631.32
388.68	8249.22
388.89	9777.00
389.10	9774.95
389.31	8501.12
389.52	7554.96
389.73	6700.95
389.93	6244.26
390.14	5787.56
390.35	5117.87
390.56	4601.79
390.77	3917.76
390.98	2987.99
391.18	2566.10
391.39	2076.64
391.60	1798.12
391.81	1877.99
392.02	1714.15
392.23	1855.46
392.43	1759.21
392.64	1869.80
392.85	1650.66
393.06	1865.70
393.27	1714.15
393.47	1703.91
393.68	1714.15
393.89	1685.48
394.10	1757.16
394.31	1691.62
394.52	1673.19
394.72	1662.95
394.93	1828.84
395.14	1630.18
395.35	1703.91
395.56	1640.42
395.76	1738.73
395.97	1769.44
396.18	1830.88
396.39	1832.93
396.60	2017.25
396.80	1865.70
397.01	1820.64
397.22	1767.40
397.43	1845.22
397.64	1787.88
397.84	1816.55
398.05	1871.84
398.26	1669.09
398.47	1816.55
398.67	1810.40
398.88	1777.64
399.09	1730.53
399.30	1730.53
399.51	1791.97
399.71	1640.42
399.92	1650.66
400.13	1759.21
400.34	1753.06
400.54	1660.90
400.75	1886.18
400.96	1759.21
401.17	1828.84
401.37	1769.44
401.58	1730.53
401.79	1681.38
402.00	1888.23
402.21	2062.30
402.41	1947.62
402.62	1912.80
402.83	2035.68
403.04	1984.48
403.24	2017.25
403.45	1880.04
403.66	1896.42
403.87	1918.95
404.07	1908.71
404.28	1955.81
404.49	1941.47
404.70	1824.74
404.90	1826.79
405.11	1763.30
405.32	1742.82
405.52	1710.05
405.73	1650.66
405.94	1673.19
406.15	1710.05
406.35	1759.21
406.56	1740.77
406.77	1759.21
406.98	1755.11
407.18	1644.52
407.39	1763.30
407.60	1726.44
407.80	1777.64
408.01	1714.15
408.22	1720.29
408.43	1720.29
408.63	1701.86
408.84	1722.34
409.05	1751.01
409.25	1675.24
409.46	1691.62
409.67	1710.05
409.88	1705.96
410.08	1642.47
410.29	1763.30
410.50	1728.49
410.70	1732.58
410.91	1681.38
411.12	1765.35
411.32	1742.82
411.53	1689.57
411.74	1806.31
411.95	1802.21
412.15	1730.53
412.36	1837.03
412.57	1708.01
412.77	1742.82
412.98	1683.43
413.19	1695.72
413.39	1781.73
413.60	1771.49
413.81	1847.27
414.01	1732.58
414.22	1751.01
414.43	1775.59
414.63	1791.97
414.84	1736.68
415.05	1753.06
415.25	1665.00
415.46	1779.68
415.67	1619.94
415.87	1720.29
416.08	1708.01
416.29	1761.25
416.49	1773.54
416.70	1644.52
416.91	1656.81
417.11	1810.40
417.32	1771.49
417.53	1791.97
417.73	1751.01
417.94	1744.87
418.15	1755.11
418.35	1767.40
418.56	1769.44
418.77	1847.27
418.97	1683.43
419.18	1677.29
419.38	1583.08
419.59	1757.16
419.80	1832.93
420.00	1669.09
420.21	1658.85
420.42	1830.88
420.62	1701.86
420.83	1705.96
421.04	1699.81
421.24	1679.33
421.45	1712.10
421.65	1689.57
421.86	1697.77
422.07	1751.01
422.27	1744.87
422.48	1806.31
422.69	1648.61
422.89	1687.53
423.10	1681.38
423.30	1654.76
423.51	1699.81
423.72	1769.44
423.92	1660.90
424.13	1630.18
424.33	1705.96
424.54	1755.11
424.75	1718.25
424.95	1832.93
425.16	1810.40
425.36	1679.33
425.57	1783.78
425.78	1796.07
425.98	1685.48
426.19	1654.76
426.39	1642.47
426.60	1734.63
426.81	1779.68
427.01	1779.68
427.22	1685.48
427.42	1683.43
427.63	1738.73
427.83	1800.16
428.04	1783.78
428.25	1755.11
428.45	1769.44
428.66	1720.29
428.86	1730.53
429.07	1730.53
429.28	1712.10
429.48	1714.15
429.69	1644.52
429.89	1718.25
430.10	1693.67
430.30	1718.25
430.51	1781.73
430.71	1673.19
430.92	1738.73
431.13	1714.15
431.33	1759.21
431.54	1759.21
431.74	1808.36
431.95	1802.21
432.15	1701.86
432.36	1726.44
432.56	1710.05
432.77	1841.12
432.98	1802.21
433.18	1767.40
433.39	1634.28
433.59	1667.05
433.80	1824.74
434.00	1781.73
434.21	1665.00
434.41	1634.28
434.62	1884.13
434.82	1675.24
435.03	1697.77
435.23	1708.01
435.44	1642.47
435.64	1734.63
435.85	1720.29
436.06	1763.30
436.26	1783.78
436.47	1671.14
436.67	1689.57
436.88	1644.52
437.08	1714.15
437.29	1857.51
437.49	1746.92
437.70	1763.30
437.90	1744.87
438.11	1880.04
438.31	1806.31
438.52	1900.52
438.72	1867.75
438.93	1933.28
439.13	1755.11
439.34	1808.36
439.54	1689.57
439.75	1769.44
439.95	1789.92
440.16	1757.16
440.36	1726.44
440.57	1734.63
440.77	1730.53
440.98	1736.68
441.18	1695.72
441.39	1742.82
441.59	1646.57
441.80	1816.55
442.00	1738.73
442.21	1855.46
442.41	1673.19
442.62	1767.40
442.82	1630.18
443.02	1726.44
443.23	1703.91
443.43	1701.86
443.64	1859.56
443.84	1652.71
444.05	1757.16
444.25	1695.72
444.46	1687.53
444.66	1798.12
444.87	1855.46
445.07	1697.77
445.28	1732.58
445.48	1783.78
445.69	1853.41
445.89	1853.41
446.09	1787.88
446.30	1974.24
446.50	2652.12
446.71	3633.10
446.91	4343.74
447.12	4761.53
447.32	4956.08
447.53	4396.99
447.73	3786.69
447.93	3559.37
448.14	3418.06
448.34	3225.55
448.55	3002.32
448.75	2875.35
448.96	2656.22
449.16	2400.22
449.36	2379.74
449.57	2097.12
449.77	1877.99
449.98	1816.55
450.18	1783.78
450.39	1765.35
450.59	1798.12
450.79	1783.78
451.00	1681.38
451.20	1718.25
451.41	1789.92
451.61	1746.92
451.81	1775.59
452.02	1794.02
452.22	1757.16
452.43	1744.87
452.63	1748.97
452.84	1824.74
453.04	1660.90
453.24	1763.30
453.45	1785.83
453.65	1689.57
453.86	1748.97
454.06	1822.69
454.26	1712.10
454.47	1665.00
454.67	1789.92
454.87	1875.94
455.08	1755.11
455.28	1857.51
455.49	1734.63
455.69	1656.81
455.89	1837.03
456.10	1796.07
456.30	1705.96
456.51	1753.06
456.71	1765.35
456.91	1742.82
457.12	1763.30
457.32	1734.63
457.52	1650.66
457.73	1740.77
457.93	1812.45
458.14	1730.53
458.34	1683.43
458.54	1634.28
458.75	1652.71
458.95	1814.50
459.15	1775.59
459.36	1781.73
459.56	1781.73
459.76	1826.79
459.97	1705.96
460.17	1787.88
460.37	1755.11
460.58	1800.16
460.78	1818.60
460.99	1681.38
461.19	1740.77
461.39	1791.97
461.60	1675.24
461.80	1798.12
462.00	1732.58
462.21	1763.30
462.41	1605.61
462.61	1638.38
462.82	1675.24
463.02	1734.63
463.22	1703.91
463.43	1800.16
463.63	1722.34
463.83	1769.44
464.04	1708.01
464.24	1720.29
464.44	1691.62
464.64	1791.97
464.85	1767.40
465.05	1804.26
465.25	1712.10
465.46	1710.05
465.66	1734.63
465.86	1744.87
466.07	1753.06
466.27	1701.86
466.47	1673.19
466.68	1648.61
466.88	1755.11
467.08	1767.40
467.29	1808.36
467.49	1767.40
467.69	1714.15
467.89	1798.12
468.10	1738.73
468.30	1699.81
468.50	1779.68
468.71	1742.82
468.91	1630.18
469.11	1861.60
469.31	1744.87
469.52	1665.00
469.72	1824.74
469.92	1783.78
470.13	1726.44
470.33	1748.97
470.53	1814.50
470.73	2164.70
470.94	2230.24
471.14	2310.11
471.34	2533.34
471.54	2453.47
471.75	2258.91
471.95	2232.29
472.15	2084.83
472.36	2064.35
472.56	2113.50
472.76	2027.49
472.96	1949.67
473.17	2011.11
473.37	1875.94
473.57	1785.83
473.77	1771.49
473.98	1748.97
474.18	1695.72
474.38	1898.47
474.58	1734.63
474.79	1728.49
474.99	1736.68
475.19	1791.97
475.39	1662.95
475.60	1759.21
475.80	1757.16
476.00	1746.92
476.20	1720.29
476.41	1771.49
476.61	1822.69
476.81	1837.03
477.01	1665.00
477.21	1890.28
477.42	1740.77
477.62	1648.61
477.82	1798.12
478.02	1730.53
478.23	1763.30
478.43	1689.57
478.63	1701.86
478.83	1720.29
479.03	1802.21
479.24	1665.00
479.44	1816.55
479.64	1722.34
479.84	1595.37
480.04	1669.09
480.25	1816.55
480.45	1656.81
480.65	1689.57
480.85	1834.98
481.06	1714.15
481.26	1849.32
481.46	1820.64
481.66	1732.58
481.86	1662.95
482.06	1781.73
482.27	1648.61
482.47	1734.63
482.67	1726.44
482.87	1699.81
483.07	1877.99
483.28	1679.33
483.48	1703.91
483.68	1669.09
483.88	1753.06
484.08	1667.05
484.29	1701.86
484.49	1693.67
484.69	1648.61
484.89	1882.08
485.09	1781.73
485.29	1746.92
485.50	1730.53
485.70	1701.86
485.90	1751.01
486.10	1796.07
486.30	1828.84
486.50	1837.03
486.71	1781.73
486.91	1751.01
487.11	1796.07
487.31	1605.61
487.51	1769.44
487.71	1683.43
487.91	1613.80
488.12	1679.33
488.32	1558.50
488.52	1660.90
488.72	1583.08
488.92	1753.06
489.12	1794.02
489.32	1802.21
489.53	1763.30
489.73	1712.10
489.93	1763.30
490.13	1730.53
490.33	1650.66
490.53	1646.57
490.73	1783.78
490.94	1585.13
491.14	1820.64
491.34	1845.22
491.54	2113.50
491.74	2410.46
491.94	2938.84
492.14	3096.53
492.34	2942.93
492.54	2750.42
492.75	2471.90
492.95	2383.84
493.15	2385.88
493.35	2246.62
493.55	2230.24
493.75	2148.32
493.95	2127.84
494.15	2027.49
494.35	1869.80
494.56	1925.09
494.76	1755.11
494.96	1822.69
495.16	1748.97
495.36	1740.77
495.56	1722.34
495.76	1746.92
495.96	1728.49
496.16	1714.15
496.36	1873.89
496.56	1708.01
496.77	1732.58
496.97	1683.43
497.17	1808.36
497.37	1646.57
497.57	1724.39
497.77	1730.53
497.97	1687.53
498.17	1771.49
498.37	1619.94
498.57	1791.97
498.77	1732.58
498.97	1783.78
499.17	1890.28
499.38	1712.10
499.58	1671.14
499.78	1751.01
499.98	1839.08
500.18	1759.21
500.38	1681.38
500.58	1982.43
500.78	2602.97
500.98	4573.11
501.18	5879.72
501.38	6848.41
501.58	7133.08
501.78	6768.54
501.98	5586.86
502.18	5072.82
502.38	4538.30
502.58	4173.76
502.78	3827.65
502.98	3631.05
503.18	3485.64
503.38	3235.79
503.59	2787.29
503.79	2662.36
503.99	2486.23
504.19	2320.35
504.39	2242.53
504.59	2215.90
504.79	2129.89
504.99	2111.46
505.19	1886.18
505.39	1888.23
505.59	2007.01
505.79	2000.87
505.99	1834.98
506.19	1804.26
506.39	1855.46
506.59	1755.11
506.79	1701.86
506.99	1759.21
507.19	1806.31
507.39	1789.92
507.59	1705.96
507.79	1708.01
507.99	1705.96
508.19	1667.05
508.39	1699.81
508.59	1779.68
508.79	1837.03
508.99	1888.23
509.19	1732.58
509.39	1814.50
509.59	1689.57
509.79	1734.63
509.99	1712.10
510.19	1785.83
510.39	1710.05
510.59	1773.54
510.79	1677.29
510.99	1781.73
511.19	1789.92
511.39	1816.55
511.59	1796.07
511.79	1822.69
511.99	1763.30
512.19	1775.59
512.38	1755.11
512.58	1683.43
512.78	1665.00
512.98	1796.07
513.18	1808.36
513.38	1669.09
513.58	1765.35
513.78	1804.26
513.98	1730.53
514.18	1710.05
514.38	1761.25
514.58	1736.68
514.78	1679.33
514.98	1732.58
515.18	1759.21
515.38	1648.61
515.58	1849.32
515.78	1810.40
515.98	1757.16
516.18	1781.73
516.38	1703.91
516.57	1740.77
516.77	1701.86
516.97	1697.77
517.17	1730.53
517.37	1665.00
517.57	1796.07
517.77	1665.00
517.97	1742.82
518.17	1738.73
518.37	1667.05
518.57	1703.91
518.77	1667.05
518.97	1718.25
519.16	1808.36
519.36	1828.84
519.56	1685.48
519.76	1701.86
519.96	1738.73
520.16	1791.97
520.36	1662.95
520.56	1798.12
520.76	1712.10
520.96	1730.53
521.16	1748.97
521.35	1759.21
521.55	1810.40
521.75	1791.97
521.95	1730.53
522.15	1746.92
522.35	1656.81
522.55	1626.09
522.75	1753.06
522.95	1638.38
523.14	1632.23
523.34	1736.68
523.54	1718.25
523.74	1873.89
523.94	1812.45
524.14	1624.04
524.34	1828.84
524.54	1830.88
524.73	1695.72
524.93	1746.92
525.13	1843.17
525.33	1605.61
525.53	1824.74
525.73	1794.02
525.93	1787.88
526.13	1740.77
526.32	1771.49
526.52	1787.88
526.72	1777.64
526.92	1763.30
527.12	1710.05
527.32	1640.42
527.52	1808.36
527.71	1753.06
527.91	1724.39
528.11	1798.12
528.31	1722.34
528.51	1767.40
528.71	1804.26
528.90	1800.16
529.10	1794.02
529.30	1777.64
529.50	1656.81
529.70	1742.82
529.90	1777.64
530.09	1777.64
530.29	1648.61
530.49	1695.72
530.69	1865.70
530.89	1738.73
531.09	1798.12
531.28	1779.68
531.48	1804.26
531.68	1746.92
531.88	1720.29
532.08	1718.25
532.28	1681.38
532.47	1736.68
532.67	1832.93
532.87	1712.10
533.07	1652.71
533.27	1890.28
533.46	1755.11
533.66	1791.97
533.86	1773.54
534.06	1748.97
534.26	1746.92
534.45	1710.05
534.65	1861.60
534.85	1742.82
535.05	1681.38
535.25	1824.74
535.44	1665.00
535.64	1775.59
535.84	1667.05
536.04	1722.34
536.24	1683.43
536.43	1730.53
536.63	1722.34
536.83	1617.90
537.03	1730.53
537.22	1689.57
537.42	1718.25
537.62	1740.77
537.82	1708.01
538.02	1855.46
538.21	1812.45
538.41	1892.32
538.61	1742.82
538.81	1693.67
539.00	1886.18
539.20	1673.19
539.40	1714.15
539.60	1703.91
539.79	1779.68
539.99	1714.15
540.19	1767.40
540.39	1736.68
540.58	1781.73
540.78	1800.16
540.98	1812.45
541.18	1808.36
541.37	1779.68
541.57	1841.12
541.77	1769.44
541.97	1732.58
542.16	1626.09
542.36	1701.86
542.56	1816.55
542.76	1914.85
542.95	1896.42
543.15	1765.35
543.35	1814.50
543.54	1697.77
543.74	1726.44
543.94	1804.26
544.14	1730.53
544.33	1834.98
544.53	1810.40
544.73	1755.11
544.93	1724.39
545.12	1748.97
545.32	1791.97
545.52	1751.01
545.71	1732.58
545.91	1740.77
546.11	1763.30
546.30	1685.48
546.50	1808.36
546.70	1746.92
546.90	1720.29
547.09	1693.67
547.29	1771.49
547.49	1748.97
547.68	1687.53
547.88	1703.91
548.08	1742.82
548.27	2199.52
548.47	1632.23
548.67	1763.30
548.87	1701.86
549.06	1703.91
549.26	1800.16
549.46	1759.21
549.65	1705.96
549.85	1757.16
550.05	1716.20
550.24	1710.05
550.44	1746.92
550.64	1681.38
550.83	1679.33
551.03	1769.44
551.23	1753.06
551.42	1777.64
551.62	1755.11
551.82	1720.29
552.01	1740.77
552.21	1826.79
552.41	1712.10
552.60	1806.31
552.80	1769.44
553.00	1781.73
553.19	1705.96
553.39	1787.88
553.59	1634.28
553.78	1740.77
553.98	1763.30
554.17	1650.66
554.37	1722.34
554.57	1816.55
554.76	1662.95
554.96	1716.20
555.16	1834.98
555.35	1755.11
555.55	1734.63
555.75	1734.63
555.94	1818.60
556.14	1689.57
556.33	1837.03
556.53	1726.44
556.73	1769.44
556.92	1769.44
557.12	1771.49
557.32	1830.88
557.51	1791.97
557.71	1705.96
557.90	1781.73
558.10	1912.80
558.30	1726.44
558.49	1746.92
558.69	1652.71
558.88	1826.79
559.08	1732.58
559.28	1748.97
559.47	1771.49
559.67	1769.44
559.86	1941.47
560.06	1722.34
560.26	1722.34
560.45	1794.02
560.65	1742.82
560.84	1859.56
561.04	1687.53
561.24	1781.73
561.43	1636.33
561.63	1863.65
561.82	1800.16
562.02	1728.49
562.22	1732.58
562.41	1624.04
562.61	1701.86
562.80	1726.44
563.00	1853.41
563.19	1796.07
563.39	1701.86
563.59	1800.16
563.78	1724.39
563.98	1652.71
564.17	1765.35
564.37	1720.29
564.56	1714.15
564.76	1685.48
564.96	1798.12
565.15	1751.01
565.35	1908.71
565.54	1730.53
565.74	1830.88
565.93	1722.34
566.13	1738.73
566.32	1759.21
566.52	1763.30
566.71	1683.43
566.91	1834.98
567.11	1699.81
567.30	1710.05
567.50	1775.59
567.69	1730.53
567.89	1757.16
568.08	1779.68
568.28	1808.36
568.47	1701.86
568.67	1769.44
568.86	1759.21
569.06	1861.60
569.25	1726.44
569.45	1656.81
569.64	1689.57
569.84	1683.43
570.04	1841.12
570.23	1730.53
570.43	1748.97
570.62	1804.26
570.82	1841.12
571.01	1636.33
571.21	1732.58
571.40	1699.81
571.60	1824.74
571.79	1789.92
571.99	1738.73
572.18	1683.43
572.38	1751.01
572.57	1738.73
572.77	1730.53
572.96	1972.19
573.16	1640.42
573.35	1722.34
573.55	1863.65
573.74	1796.07
573.94	1746.92
574.13	1687.53
574.33	1837.03
574.52	1816.55
574.71	1818.60
574.91	1763.30
575.10	1730.53
575.30	1689.57
575.49	1734.63
575.69	1683.43
575.88	1851.36
576.08	1683.43
576.27	1767.40
576.47	1703.91
576.66	1828.84
576.86	1861.60
577.05	1763.30
577.25	1826.79
577.44	1832.93
577.64	1755.11
577.83	1863.65
578.02	1767.40
578.22	1787.88
578.41	1816.55
578.61	1791.97
578.80	1701.86
579.00	1716.20
579.19	1759.21
579.39	1816.55
579.58	1851.36
579.77	1785.83
579.97	1808.36
580.16	1816.55
580.36	1839.08
580.55	1834.98
580.75	1779.68
580.94	1673.19
581.13	1894.37
581.33	1902.56
581.52	1791.97
581.72	1916.90
581.91	1800.16
582.11	1652.71
582.30	1810.40
582.49	1728.49
582.69	1855.46
582.88	1839.08
583.08	1660.90
583.27	1832.93
583.47	1738.73
583.66	1724.39
583.85	1695.72
584.05	1699.81
584.24	1728.49
584.44	1726.44
584.63	1779.68
584.82	1882.08
585.02	1791.97
585.21	1789.92
585.41	1802.21
585.60	1798.12
585.79	1931.23
585.99	1918.95
586.18	1886.18
586.37	2201.57
586.57	3375.05
586.76	9932.65
586.96	24536.71
587.15	34231.80
587.34	40471.96
587.54	42601.85
587.73	36867.53
587.93	26400.37
588.12	21499.58
588.31	18216.68
588.51	16361.22
588.70	14972.70
588.89	14169.90
589.09	12664.64
589.28	11036.50
589.47	9516.91
589.67	8017.80
589.86	6383.52
590.06	4995.00
590.25	3956.68
590.44	3180.50
590.64	2590.68
590.83	2164.70
591.02	2076.64
591.22	1941.47
591.41	2007.01
591.60	1820.64
591.80	1931.23
591.99	1800.16
592.18	1748.97
592.38	1794.02
592.57	1689.57
592.76	1738.73
592.96	1783.78
593.15	1757.16
593.34	1779.68
593.54	1777.64
593.73	1804.26
593.92	1837.03
594.12	1767.40
594.31	1748.97
594.50	1941.47
594.70	1777.64
594.89	1865.70
595.08	1685.48
595.28	1806.31
595.47	1933.28
595.66	1816.55
595.86	1658.85
596.05	1726.44
596.24	1773.54
596.43	1781.73
596.63	1751.01
596.82	1785.83
597.01	1757.16
597.21	1859.56
597.40	1785.83
597.59	1742.82
597.79	1751.01
597.98	1804.26
598.17	1796.07
598.36	1798.12
598.56	1765.35
598.75	1701.86
598.94	1748.97
599.14	1728.49
599.33	1636.33
599.52	1785.83
599.71	1740.77
599.91	1783.78
600.10	1814.50
600.29	1681.38
600.48	1851.36
600.68	1738.73
600.87	1808.36
601.06	1701.86
601.26	1751.01
601.45	1804.26
601.64	1685.48
601.83	1871.84
602.03	1681.38
602.22	1613.80
602.41	1712.10
602.60	1863.65
602.80	1814.50
602.99	1753.06
603.18	1730.53
603.37	1761.25
603.57	1769.44
603.76	1769.44
603.95	1785.83
604.14	1634.28
604.34	1718.25
604.53	1716.20
604.72	1818.60
604.91	1777.64
605.10	1720.29
605.30	1705.96
605.49	1865.70
605.68	1771.49
605.87	1738.73
606.07	1630.18
606.26	1626.09
606.45	1826.79
606.64	1744.87
606.84	1642.47
607.03	1656.81
607.22	1771.49
607.41	1767.40
607.60	1669.09
607.80	1791.97
607.99	1736.68
608.18	1726.44
608.37	1761.25
608.56	1751.01
608.76	1761.25
608.95	1886.18
609.14	1734.63
609.33	1746.92
609.52	1857.51
609.72	1712.10
609.91	1695.72
610.10	1703.91
610.29	1771.49
610.48	1705.96
610.68	1718.25
610.87	1673.19
611.06	1812.45
611.25	1714.15
611.44	1802.21
611.63	1691.62
611.83	1804.26
612.02	1775.59
612.21	1775.59
612.40	1660.90
612.59	1681.38
612.79	1677.29
612.98	1779.68
613.17	1742.82
613.36	1656.81
613.55	1783.78
613.74	1615.85
613.93	1705.96
614.13	1742.82
614.32	1728.49
614.51	1865.70
614.70	1699.81
614.89	1681.38
615.08	1794.02
615.28	2090.98
615.47	1705.96
615.66	1738.73
615.85	1691.62
616.04	1847.27
616.23	1705.96
616.42	1751.01
616.62	1712.10
616.81	1802.21
617.00	1685.48
617.19	1853.41
617.38	1669.09
617.57	1806.31
617.76	1742.82
617.95	1785.83
618.15	1746.92
618.34	1849.32
618.53	1695.72
618.72	1861.60
618.91	1777.64
619.10	1820.64
619.29	1687.53
619.48	1742.82
619.68	1699.81
619.87	1765.35
620.06	1681.38
620.25	1763.30
620.44	1728.49
620.63	1685.48
620.82	1781.73
621.01	1656.81
621.20	1701.86
621.39	1726.44
621.59	1730.53
621.78	1693.67
621.97	1746.92
622.16	1742.82
622.35	1763.30
622.54	1742.82
622.73	1849.32
622.92	1710.05
623.11	1789.92
623.30	1808.36
623.49	1716.20
623.68	1650.66
623.88	1789.92
624.07	1736.68
624.26	1687.53
624.45	1759.21
624.64	1736.68
624.83	1757.16
625.02	1718.25
625.21	1748.97
625.40	1736.68
625.59	1783.78
625.78	1720.29
625.97	1736.68
626.16	1744.87
626.35	1695.72
626.54	1732.58
626.74	1824.74
626.93	1751.01
627.12	1642.47
627.31	1808.36
627.50	1671.14
627.69	1742.82
627.88	1628.14
628.07	1681.38
628.26	1652.71
628.45	1701.86
628.64	1613.80
628.83	1753.06
629.02	1703.91
629.21	1794.02
629.40	1732.58
629.59	1658.85
629.78	1730.53
629.97	1652.71
630.16	1689.57
630.35	1656.81
630.54	1695.72
630.73	1652.71
630.92	1730.53
631.11	1667.05
631.30	1718.25
631.49	1781.73
631.68	1773.54
631.87	1773.54
632.06	1726.44
632.25	1843.17
632.44	1689.57
632.63	1759.21
632.82	1718.25
633.01	1640.42
633.20	1710.05
633.39	1646.57
633.58	1654.76
633.77	1712.10
633.96	1691.62
634.15	1773.54
634.34	1742.82
634.53	1773.54
634.72	1691.62
634.91	1628.14
635.10	1732.58
635.29	1751.01
635.48	1755.11
635.67	1656.81
635.86	1669.09
636.05	1736.68
636.24	1675.24
636.43	1773.54
636.62	1730.53
636.81	1570.79
637.00	1712.10
637.19	1773.54
637.38	1746.92
637.57	1730.53
637.76	1701.86
637.95	1787.88
638.14	1689.57
638.33	1699.81
638.52	1771.49
638.71	1665.00
638.89	1693.67
639.08	1808.36
639.27	1701.86
639.46	1679.33
639.65	1769.44
639.84	1728.49
640.03	1738.73
640.22	1716.20
640.41	1837.03
640.60	1628.14
640.79	1738.73
640.98	1679.33
641.17	1726.44
641.36	1703.91
641.55	1714.15
641.74	1669.09
641.92	1685.48
642.11	1607.66
642.30	1726.44
642.49	1708.01
642.68	1681.38
642.87	1798.12
643.06	1767.40
643.25	1636.33
643.44	1632.23
643.63	1720.29
643.82	1746.92
644.00	1621.99
644.19	1671.14
644.38	1636.33
644.57	1787.88
644.76	1644.52
644.95	1648.61
645.14	1763.30
645.33	1673.19
645.52	1742.82
645.71	1652.71
645.89	1689.57
646.08	1699.81
646.27	1697.77
646.46	1851.36
646.65	1658.85
646.84	1742.82
647.03	1683.43
647.22	1757.16
647.40	1837.03
647.59	1613.80
647.78	1630.18
647.97	1714.15
648.16	1632.23
648.35	1789.92
648.54	1777.64
648.73	1755.11
648.91	1703.91
649.10	1728.49
649.29	1681.38
649.48	1710.05
649.67	1712.10
649.86	1687.53
650.05	1730.53
650.23	1765.35
650.42	1665.00
650.61	1726.44
650.80	1736.68
650.99	1834.98
651.18	1751.01
651.36	1816.55
651.55	1769.44
651.74	1794.02
651.93	1726.44
652.12	1677.29
652.31	1677.29
652.49	1697.77
652.68	1665.00
652.87	1832.93
653.06	1783.78
653.25	1732.58
653.44	1718.25
653.62	1851.36
653.81	1744.87
654.00	1751.01
654.19	1806.31
654.38	1877.99
654.56	1716.20
654.75	1746.92
654.94	1757.16
655.13	1710.05
655.32	1650.66
655.51	1744.87
655.69	1716.20
655.88	1787.88
656.07	1652.71
656.26	1730.53
656.45	1722.34
656.63	1699.81
656.82	1734.63
657.01	1746.92
657.20	1716.20
657.38	1783.78
657.57	1636.33
657.76	1613.80
657.95	1759.21
658.14	1744.87
658.32	1656.81
658.51	1701.86
658.70	1816.55
658.89	1771.49
659.08	1718.25
659.26	1773.54
659.45	1667.05
659.64	1787.88
659.83	1619.94
660.01	1898.47
660.20	1726.44
660.39	1796.07
660.58	1578.98
660.76	1714.15
660.95	1679.33
661.14	1783.78
661.33	1632.23
661.51	1705.96
661.70	1712.10
661.89	1785.83
662.08	1734.63
662.26	1703.91
662.45	1734.63
662.64	1853.41
662.83	1746.92
663.01	1693.67
663.20	1720.29
663.39	1816.55
663.58	1591.27
663.76	1738.73
663.95	1693.67
664.14	1648.61
664.32	1720.29
664.51	1691.62
664.70	1681.38
664.89	1791.97
665.07	1599.46
665.26	1742.82
665.45	1708.01
665.64	1763.30
665.82	1722.34
666.01	1787.88
666.20	1716.20
666.38	1730.53
666.57	1822.69
666.76	2119.65
666.95	4474.81
667.13	10520.42
667.32	15245.08
667.51	17817.33
667.69	19234.52
667.88	17786.61
668.07	12343.11
668.25	9570.16
668.44	8060.80
668.63	7485.33
668.81	6750.10
669.00	6322.08
669.19	5695.40
669.38	5142.45
669.56	4683.70
669.75	4122.56
669.94	3522.51
670.12	2924.50
670.31	2525.15
670.50	2260.96
670.68	2123.74
670.87	1916.90
671.06	1824.74
671.24	1748.97
671.43	1845.22
671.62	1720.29
671.80	1730.53
671.99	1746.92
672.18	1757.16
672.36	1812.45
672.55	1767.40
672.74	1791.97
672.92	1714.15
673.11	1759.21
673.29	1748.97
673.48	1730.53
673.67	1632.23
673.85	1791.97
674.04	1705.96
674.23	1767.40
674.41	1853.41
674.60	1583.08
674.79	1665.00
674.97	1705.96
675.16	1751.01
675.34	1716.20
675.53	1683.43
675.72	1738.73
675.90	1783.78
676.09	1648.61
676.28	1744.87
676.46	1650.66
676.65	1834.98
676.83	1667.05
677.02	1716.20
677.21	1708.01
677.39	1691.62
677.58	1685.48
677.77	1720.29
677.95	1609.70
678.14	1705.96
678.32	1714.15
678.51	1652.71
678.70	1839.08
678.88	1673.19
679.07	1665.00
679.25	1730.53
679.44	1724.39
679.63	1673.19
679.81	1763.30
680.00	1781.73
680.18	1728.49
680.37	1824.74
680.55	1746.92
680.74	1628.14
680.93	1687.53
681.11	1726.44
681.30	1714.15
681.48	1722.34
681.67	1705.96
681.85	1712.10
682.04	1738.73
682.23	1746.92
682.41	1759.21
682.60	1728.49
682.78	1656.81
682.97	1720.29
683.15	1736.68
683.34	1755.11
683.53	1753.06
683.71	1658.85
683.90	1724.39
684.08	1781.73
684.27	1716.20
684.45	1708.01
684.64	1738.73
684.82	1703.91
685.01	1730.53
685.19	1671.14
685.38	1794.02
685.57	1714.15
685.75	1718.25
685.94	1681.38
686.12	1712.10
686.31	1566.70
686.49	1804.26
686.68	1648.61
686.86	1781.73
687.05	1697.77
687.23	1822.69
687.42	1701.86
687.60	1611.75
687.79	1748.97
687.97	1818.60
688.16	1728.49
688.34	1726.44
688.53	1589.22
688.71	1728.49
688.90	1804.26
689.08	1677.29
689.27	1636.33
689.45	1773.54
689.64	1791.97
689.82	1722.34
690.01	1740.77
690.19	1667.05
690.38	1740.77
690.56	1775.59
690.75	1695.72
690.93	1656.81
691.12	1785.83
691.30	1685.48
691.49	1693.67
691.67	1734.63
691.86	1837.03
692.04	1675.24
692.23	1679.33
692.41	1632.23
692.60	1871.84
692.78	1785.83
692.97	1667.05
693.15	1734.63
693.34	1783.78
693.52	1767.40
693.71	1742.82
693.89	1603.56
694.08	1679.33
694.26	1683.43
694.44	1822.69
694.63	1720.29
694.81	1746.92
695.00	1673.19
695.18	1861.60
695.37	1798.12
695.55	1695.72
695.74	1736.68
695.92	1705.96
696.10	1800.16
696.29	1648.61
696.47	1675.24
696.66	1677.29
696.84	1691.62
697.03	1753.06
697.21	1720.29
697.40	2349.02
697.58	1777.64
697.76	1716.20
697.95	1658.85
698.13	1601.51
698.32	1742.82
698.50	1660.90
698.68	1755.11
698.87	1714.15
699.05	1773.54
699.24	1671.14
699.42	1689.57
699.61	1757.16
699.79	1642.47
699.97	1800.16
700.16	1656.81
700.34	1665.00
700.53	1712.10
700.71	1894.37
700.89	1816.55
701.08	1794.02
701.26	1744.87
701.45	2060.26
701.63	1648.61
701.81	1699.81
702.00	1626.09
702.18	1714.15
702.37	1701.86
702.55	1691.62
702.73	1630.18
702.92	1708.01
703.10	1845.22
703.28	1660.90
703.47	1644.52
703.65	1763.30
703.84	1798.12
704.02	1675.24
704.20	1804.26
704.39	1734.63
704.57	1740.77
704.75	1804.26
704.94	1880.04
705.12	1769.44
705.30	1798.12
705.49	2265.05
705.67	4437.95
705.86	9127.80
706.04	12646.21
706.22	14640.93
706.41	15353.62
706.59	13944.62
706.77	9764.72
706.96	7298.96
707.14	6530.97
707.32	5894.05
707.51	5711.78
707.69	4775.86
707.87	4339.65
708.06	3471.31
708.24	2920.40
708.42	2381.79
708.61	2234.33
708.79	1902.56
708.97	1894.37
709.16	1847.27
709.34	1767.40
709.52	1693.67
709.71	1652.71
709.89	1771.49
710.07	1755.11
710.26	1632.23
710.44	1720.29
710.62	1761.25
710.80	1699.81
710.99	1777.64
711.17	1771.49
711.35	1656.81
711.54	1667.05
711.72	1812.45
711.90	1753.06
712.09	1730.53
712.27	1646.57
712.45	1695.72
712.63	1740.77
712.82	1677.29
713.00	1685.48
713.18	1746.92
713.37	1789.92
713.55	1763.30
713.73	1744.87
713.91	1732.58
714.10	1658.85
714.28	1701.86
714.46	1689.57
714.65	1751.01
714.83	1738.73
715.01	1689.57
715.19	1679.33
715.38	1621.99
715.56	1753.06
715.74	1685.48
715.92	1583.08
716.11	1804.26
716.29	1574.89
716.47	1656.81
716.65	1751.01
716.84	1644.52
717.02	1736.68
717.20	1619.94
717.38	1667.05
717.57	1771.49
717.75	1611.75
717.93	1685.48
718.11	1779.68
718.30	1640.42
718.48	1748.97
718.66	1755.11
718.84	1787.88
719.03	1736.68
719.21	1654.76
719.39	1765.35
719.57	1759.21
719.75	1794.02
719.94	1665.00
720.12	1669.09
720.30	1689.57
720.48	1802.21
720.67	1665.00
720.85	1644.52
721.03	1740.77
721.21	1570.79
721.39	1783.78
721.58	1701.86
721.76	1693.67
721.94	1751.01
722.12	1738.73
722.30	1877.99
722.49	1708.01
722.67	1726.44
722.85	1705.96
723.03	1685.48
723.21	1667.05
723.40	1710.05
723.58	1714.15
723.76	1781.73
723.94	1718.25
724.12	1736.68
724.30	1771.49
724.49	1703.91
724.67	1601.51
724.85	1800.16
725.03	1556.46
725.21	1718.25
725.40	1748.97
725.58	1630.18
725.76	1787.88
725.94	1720.29
726.12	1708.01
726.30	1697.77
726.49	1773.54
726.67	1691.62
726.85	1677.29
727.03	1740.77
727.21	2189.28
727.39	2895.83
727.57	3755.97
727.76	4120.51
727.94	4542.39
728.12	4315.07
728.30	3706.82
728.48	3000.27
728.66	2770.90
728.84	2590.68
729.03	2297.82
729.21	2187.23
729.39	1964.00
729.57	1875.94
729.75	1818.60
729.93	1849.32
730.11	1734.63
730.30	1742.82
730.48	1722.34
730.66	1804.26
730.84	1775.59
731.02	1755.11
731.20	1705.96
731.38	1726.44
731.56	1673.19
731.74	1644.52
731.93	1718.25
732.11	1757.16
732.29	1722.34
732.47	1712.10
732.65	1798.12
732.83	1779.68
733.01	1714.15
733.19	1732.58
733.37	1759.21
733.56	1787.88
733.74	1714.15
733.92	1794.02
734.10	1626.09
734.28	1640.42
734.46	1535.98
734.64	1722.34
734.82	1730.53
735.00	1695.72
735.18	1730.53
735.36	1689.57
735.54	1685.48
735.73	1726.44
735.91	1705.96
736.09	1732.58
736.27	1714.15
736.45	1671.14
736.63	1667.05
736.81	1699.81
736.99	1783.78
737.17	1794.02
737.35	1695.72
737.53	1800.16
737.71	1683.43
737.89	1787.88
738.07	1603.56
738.25	1634.28
738.43	1665.00
738.61	1615.85
738.80	1626.09
738.98	1638.38
739.16	1677.29
739.34	1597.42
739.52	1800.16
739.70	1701.86
739.88	1798.12
740.06	1730.53
740.24	1607.66
740.42	1789.92
740.60	1617.90
740.78	1718.25
740.96	1722.34
741.14	1640.42
741.32	1726.44
741.50	1578.98
741.68	1804.26
741.86	1769.44
742.04	1607.66
742.22	1621.99
742.40	1751.01
742.58	1701.86
742.76	1714.15
742.94	1738.73
743.12	1578.98
743.30	1705.96
743.48	1740.77
743.66	1630.18
743.84	1730.53
744.02	1636.33
744.20	1673.19
744.38	1701.86
744.56	1728.49
744.74	1769.44
744.92	1714.15
745.10	1769.44
745.28	1722.34
745.46	1806.31
745.64	1708.01
745.82	1775.59
746.00	1744.87
746.18	1757.16
746.36	1626.09
746.54	1665.00
746.72	1738.73
746.90	1654.76
747.08	1798.12
747.26	1720.29
747.44	1744.87
747.62	1734.63
747.80	1683.43
747.98	1775.59
748.15	1683.43
748.33	1740.77
748.51	1685.48
748.69	1685.48
748.87	1615.85
749.05	1642.47
749.23	1681.38
749.41	1710.05
749.59	1712.10
749.77	1763.30
749.95	1648.61
750.13	1658.85
750.31	1714.15
750.49	1697.77
750.67	1712.10
750.85	1783.78
751.03	1710.05
751.20	1810.40
751.38	1734.63
751.56	1695.72
751.74	1691.62
751.92	1800.16
752.10	1677.29
752.28	1705.96
752.46	1669.09
752.64	1679.33
752.82	1652.71
753.00	1794.02
753.18	1701.86
753.35	1687.53
753.53	1716.20
753.71	1701.86
753.89	1671.14
754.07	1748.97
754.25	1765.35
754.43	1775.59
754.61	1609.70
754.79	1767.40
754.97	1673.19
755.14	1740.77
755.32	1701.86
755.50	1730.53
755.68	1765.35
755.86	1677.29
756.04	1652.71
756.22	1624.04
756.40	1740.77
756.57	1851.36
756.75	1667.05
756.93	1726.44
757.11	1759.21
757.29	1656.81
757.47	1636.33
757.65	1615.85
757.82	1558.50
758.00	1628.14
758.18	1611.75
758.36	1642.47
758.54	1775.59
758.72	1611.75
758.90	1716.20
759.07	1761.25
759.25	1740.77
759.43	1738.73
759.61	1642.47
759.79	2201.57
759.97	1681.38
760.15	1636.33
760.32	1695.72
760.50	1732.58
760.68	1789.92
760.86	1677.29
761.04	1869.80
761.22	1746.92
761.39	1718.25
761.57	1748.97
761.75	1689.57
761.93	1814.50
762.11	1697.77
762.28	1691.62
762.46	1646.57
762.64	1740.77
762.82	1619.94
763.00	1775.59
763.18	1791.97
763.35	1652.71
763.53	1703.91
763.71	1724.39
763.89	1724.39
764.07	1763.30
764.24	1699.81
764.42	1802.21
764.60	1681.38
764.78	1800.16
764.96	1744.87
765.13	1710.05
765.31	1761.25
765.49	1740.77
765.67	1681.38
765.84	1716.20
766.02	1697.77
766.20	1753.06
766.38	1769.44
766.56	1777.64
766.73	1779.68
766.91	1570.79
767.09	1705.96
767.27	1748.97
767.44	1673.19
767.62	1710.05
767.80	1654.76
767.98	1710.05
768.15	1697.77
768.33	1763.30
768.51	1783.78
768.69	1689.57
768.87	1804.26
769.04	1677.29
769.22	1875.94
769.40	1845.22
769.58	1826.79
769.75	1740.77
769.93	1802.21
770.11	1710.05
770.28	1632.23
770.46	1791.97
770.64	1716.20
770.82	1693.67
770.99	1703.91
771.17	1708.01
771.35	1658.85
771.53	1673.19
771.70	1681.38
771.88	1728.49
772.06	1789.92
772.23	1740.77
772.41	1761.25
772.59	1650.66
772.77	1710.05
772.94	1607.66
773.12	1705.96
773.30	1697.77
773.47	1724.39
773.65	1681.38
773.83	1787.88
774.01	1675.24
774.18	1619.94
774.36	1767.40
774.54	1646.57
774.71	1744.87
774.89	1640.42
775.07	1662.95
775.24	1642.47
775.42	1683.43
775.60	1740.77
775.78	1650.66
775.95	1656.81
776.13	1605.61
776.31	1591.27
776.48	1699.81
776.66	1834.98
776.84	1648.61
777.01	1671.14
777.19	1669.09
777.37	1712.10
777.54	1746.92
777.72	1857.51
777.90	1718.25
778.07	1662.95
778.25	1877.99
778.43	1755.11
778.60	1652.71
778.78	1705.96
778.96	1732.58
779.13	1642.47
779.31	1714.15
779.49	1777.64
779.66	1650.66
779.84	1654.76
780.01	1634.28
780.19	1673.19
780.37	1789.92
780.54	1726.44
780.72	1669.09
780.90	1771.49
781.07	1667.05
781.25	1681.38
781.43	1830.88
781.60	1734.63
781.78	1837.03
781.95	1751.01
782.13	1624.04
782.31	1708.01
782.48	1566.70
782.66	1683.43
782.83	1851.36
783.01	1734.63
783.19	1763.30
783.36	1714.15
783.54	1619.94
783.72	1681.38
783.89	1701.86
784.07	1683.43
784.24	1701.86
784.42	1818.60
784.60	1701.86
784.77	1718.25
784.95	1673.19
785.12	1714.15
785.30	1783.78
785.47	1687.53
785.65	1689.57
785.83	1677.29
786.00	1722.34
786.18	1742.82
786.35	1626.09
786.53	1662.95
786.71	1777.64
786.88	1708.01
787.06	1703.91
787.23	1652.71
787.41	1669.09
787.58	1685.48
787.76	1673.19
787.94	1689.57
788.11	1703.91
788.29	1644.52
788.46	1685.48
788.64	1578.98
788.81	1660.90
788.99	1740.77
789.16	1675.24
789.34	1677.29
789.52	1681.38
789.69	1628.14
789.87	1691.62
790.04	1654.76
790.22	1794.02
790.39	1812.45
790.57	1609.70
790.74	1617.90
790.92	1779.68
791.09	1609.70
791.27	1665.00
791.44	1796.07
791.62	1714.15
791.79	1746.92
791.97	1716.20
792.15	1818.60
792.32	1699.81
792.50	1796.07
792.67	1832.93
792.85	1841.12
793.02	1714.15
793.20	1673.19
793.37	1660.90
793.55	1726.44
793.72	1613.80
793.90	1703.91
794.07	1609.70
794.25	1656.81
794.42	1644.52
794.60	1722.34
794.77	1765.35
794.95	1738.73
795.12	1771.49
795.30	1699.81
795.47	1599.46
795.65	1910.75
795.82	1671.14
796.00	1714.15
796.17	1751.01
796.34	1685.48
796.52	1687.53
796.69	1718.25
796.87	1781.73
797.04	1746.92
797.22	1748.97
797.39	1677.29
797.57	1812.45
797.74	1734.63
797.92	1687.53
798.09	1759.21
798.27	1734.63
798.44	1796.07
798.62	1626.09
798.79	1710.05
798.96	1646.57
799.14	1730.53
799.31	1877.99
799.49	1673.19
799.66	1695.72
799.84	1794.02
800.01	1581.03
800.19	1746.92
800.36	1630.18
800.53	1730.53
800.71	1763.30
800.88	1746.92
801.06	1632.23
801.23	1638.38
801.41	1634.28
801.58	1675.24
801.75	1701.86
801.93	1665.00
802.10	1802.21
802.28	1724.39
802.45	1724.39
802.63	1654.76
802.80	1867.75
802.97	1732.58
803.15	1748.97
803.32	1689.57
803.50	1677.29
803.67	1597.42
803.84	1718.25
804.02	1675.24
804.19	1652.71
804.37	1615.85
804.54	1691.62
804.71	1708.01
804.89	1712.10
805.06	1724.39
805.24	1679.33
805.41	1652.71
805.58	1665.00
805.76	1875.94
805.93	1791.97
806.10	1847.27
806.28	1681.38
806.45	1687.53
806.63	1722.34
806.80	1720.29
806.97	1753.06
807.15	1665.00
807.32	1744.87
807.49	1732.58
807.67	1644.52
807.84	1708.01
808.01	1658.85
808.19	1861.60
808.36	1845.22
808.54	1636.33
808.71	1648.61
808.88	1699.81
809.06	1685.48
809.23	1843.17
809.40	1693.67
809.58	1773.54
809.75	1775.59
809.92	1665.00
810.10	1820.64
810.27	1736.68
810.44	1785.83
810.62	1738.73
810.79	1738.73
810.96	1683.43
811.14	1714.15
811.31	1708.01
811.48	1648.61
811.66	1607.66
811.83	1746.92
812.00	1697.77
812.18	1767.40
812.35	1843.17
812.52	1675.24
812.69	1714.15
812.87	1667.05
813.04	1718.25
813.21	1734.63
813.39	1652.71
813.56	1583.08
813.73	1746.92
813.91	1654.76
814.08	1699.81
814.25	1689.57
814.42	1626.09
814.60	1689.57
814.77	1736.68
814.94	1724.39
815.12	1771.49
815.29	1851.36
815.46	1648.61
815.63	1714.15
815.81	1736.68
815.98	1695.72
816.15	1695.72
816.33	1726.44
816.50	1705.96
816.67	1736.68
816.84	1685.48
817.02	1693.67
817.19	1665.00
817.36	1740.77
817.53	1738.73
817.71	1646.57
817.88	1718.25
818.05	1681.38
818.22	1681.38
818.40	1775.59
818.57	1710.05
818.74	1728.49
818.91	1726.44
819.09	1785.83
819.26	1730.53
819.43	1683.43
819.60	1642.47
819.78	1691.62
819.95	1812.45
820.12	1681.38
820.29	1845.22
820.47	1789.92
820.64	1699.81
820.81	1640.42
820.98	1677.29
821.15	1644.52
821.33	1757.16
821.50	1640.42
821.67	1738.73
821.84	1804.26
822.02	1814.50
822.19	1826.79
822.36	1632.23
822.53	1667.05
822.70	1642.47
822.88	1609.70
823.05	1751.01
823.22	1718.25
823.39	1716.20
823.56	1691.62
823.74	1841.12
823.91	1660.90
824.08	1611.75
824.25	1630.18
824.42	1746.92
824.60	1644.52
824.77	1744.87
824.94	1716.20
825.11	1740.77
825.28	1691.62
825.45	1767.40
825.63	1619.94
825.80	1628.14
825.97	1730.53
826.14	1658.85
826.31	1607.66
826.48	1779.68
826.66	1687.53
826.83	1628.14
827.00	1718.25
827.17	1746.92
827.34	1652.71
827.51	1624.04
827.69	1662.95
827.86	1552.36
828.03	1701.86
828.20	1687.53
828.37	1697.77
828.54	1730.53
828.71	1673.19
828.89	1755.11
829.06	1722.34
829.23	1775.59
829.40	1718.25
829.57	1718.25
829.74	1734.63
829.91	1644.52
830.09	1689.57
830.26	1763.30
830.43	1744.87
830.60	1693.67
830.77	1787.88
830.94	1746.92
831.11	1779.68
831.28	1736.68
831.46	1800.16
831.63	1685.48
831.80	1775.59
831.97	1634.28
832.14	1658.85
832.31	1720.29
832.48	1718.25
832.65	1773.54
832.82	1734.63
832.99	1738.73
833.17	1671.14
833.34	1785.83
833.51	1804.26
833.68	1634.28
833.85	1841.12
834.02	1683.43
834.19	1619.94
834.36	1710.05
834.53	1753.06
834.70	1761.25
834.87	1769.44
835.04	1718.25
835.22	1681.38
835.39	1662.95
835.56	1656.81
835.73	1671.14
835.90	1701.86
836.07	1648.61
836.24	1738.73
836.41	1628.14
836.58	1632.23
836.75	1767.40
836.92	1755.11
837.09	1605.61
837.26	1716.20
837.43	1765.35
837.60	1718.25
837.77	1677.29
837.94	1691.62
838.12	1789.92
838.29	1695.72
838.46	1650.66
838.63	1640.42
838.80	1853.41
838.97	1734.63
839.14	1730.53
839.31	1665.00
839.48	1765.35
839.65	1708.01
839.82	1703.91
839.99	1679.33
840.16	1751.01
840.33	1687.53
840.50	1701.86
840.67	1675.24
840.84	1601.51
841.01	1730.53
841.18	1677.29
841.35	1748.97
841.52	1763.30
841.69	1812.45
841.86	1732.58
842.03	1736.68
842.20	1691.62
842.37	1693.67
842.54	1691.62
842.71	1656.81
842.88	1624.04
843.05	1738.73
843.22	1658.85
843.39	1732.58
843.56	1669.09
843.73	1730.53
843.90	1726.44
844.07	1755.11
844.24	1773.54
844.41	1718.25
844.58	1753.06
844.75	1714.15
844.92	1720.29
845.09	1683.43
845.26	1708.01
845.43	1753.06
845.60	1722.34
845.77	1687.53
845.94	1730.53
846.10	1734.63
846.27	1662.95
846.44	1660.90
846.61	1701.86
846.78	1734.63
846.95	1789.92
847.12	1734.63
847.29	1708.01
847.46	1673.19
847.63	1726.44
847.80	1730.53
847.97	1738.73
848.14	1789.92
848.31	1773.54
848.48	1673.19
848.65	1667.05
848.82	1673.19
848.98	1837.03
849.15	1703.91
849.32	1740.77
849.49	1759.21
849.66	1720.29
849.83	1738.73
850.00	1609.70
850.17	1816.55
850.34	1656.81
850.51	1619.94
850.68	1693.67
850.85	1816.55
851.01	1728.49
851.18	1701.86
851.35	1728.49
851.52	1742.82
851.69	1787.88
851.86	1652.71
852.03	1681.38
852.20	1759.21
852.37	1703.91
852.53	1558.50
852.70	1687.53
852.87	1708.01
853.04	1683.43
853.21	1691.62
853.38	1771.49
853.55	1736.68
853.72	1726.44
853.89	1644.52
854.05	1605.61
854.22	1714.15
854.39	1757.16
854.56	1695.72
854.73	1826.79
854.90	1652.71
855.07	1673.19
855.23	1679.33
855.40	1697.77
855.57	1671.14
855.74	1546.22
855.91	1812.45
856.08	1679.33
856.25	1658.85
856.41	1667.05
856.58	1695.72
856.75	1660.90
856.92	1558.50
857.09	1701.86
857.26	1642.47
857.42	1681.38
857.59	1746.92
857.76	1699.81
857.93	1722.34
858.10	1685.48
858.27	1671.14
858.43	1757.16
858.60	1662.95
858.77	1689.57
858.94	1636.33
859.11	1703.91
859.27	1660.90
859.44	1677.29
859.61	1744.87
859.78	1806.31
859.95	1640.42
860.12	1691.62
860.28	1884.13
860.45	1775.59
860.62	1652.71
860.79	1755.11
860.95	1662.95
861.12	1673.19
861.29	1736.68
861.46	1697.77
861.63	1685.48
861.79	1738.73
861.96	1671.14
862.13	1697.77
862.30	1777.64
862.47	1708.01
862.63	1599.46
862.80	1753.06
862.97	1742.82
863.14	1751.01
863.30	1701.86
863.47	1654.76
863.64	1703.91
863.81	1685.48
863.97	1642.47
864.14	1712.10
864.31	1728.49
864.48	1761.25
864.65	1693.67
864.81	1681.38
864.98	1699.81
865.15	1687.53
865.32	1708.01
865.48	1701.86
865.65	1712.10
865.82	1687.53
865.98	1705.96
866.15	1794.02
866.32	1718.25
866.49	1669.09
866.65	1748.97
866.82	1595.37
866.99	1738.73
867.16	1675.24
867.32	1673.19
867.49	1681.38
867.66	1646.57
867.83	1718.25
867.99	1683.43
868.16	1757.16
868.33	1656.81
868.49	1718.25
868.66	1687.53
868.83	1775.59
868.99	1714.15
869.16	1718.25
869.33	1708.01
869.50	1705.96
869.66	1734.63
869.83	1724.39
870.00	1689.57
870.16	1779.68
870.33	1624.04
870.50	1740.77
870.66	1681.38
870.83	1832.93
871.00	1695.72
871.17	1783.78
871.33	1722.34
871.50	1726.44
871.67	1708.01
871.83	1589.22
872.00	1794.02
872.17	1689.57
872.33	1834.98
872.50	1710.05
872.67	1722.34
872.83	1736.68
873.00	1691.62
873.17	1669.09
873.33	1757.16
873.50	1742.82
873.67	1650.66
873.83	1665.00
874.00	1619.94
874.16	1746.92
874.33	1785.83
874.50	1611.75
874.66	1718.25
874.83	1722.34
875.00	1767.40
875.16	1798.12
875.33	1746.92
875.50	1562.60
875.66	1734.63
875.83	1658.85
875.99	1703.91
876.16	1697.77
876.33	1710.05
876.49	1617.90
876.66	1699.81
876.83	1703.91
876.99	1626.09
877.16	1744.87
877.32	1687.53
877.49	1681.38
877.66	1751.01
877.82	1789.92
877.99	1667.05
878.15	1748.97
878.32	1714.15
878.49	1736.68
878.65	1732.58
878.82	1781.73
878.98	1607.66
879.15	1705.96
879.32	1710.05
879.48	1728.49
879.65	1738.73
879.81	1624.04
879.98	1624.04
880.15	1787.88
880.31	1744.87
880.48	1636.33
880.64	1654.76
880.81	1697.77
880.97	1765.35
881.14	1724.39
881.31	1660.90
881.47	1892.32
881.64	1683.43
881.80	1554.41
881.97	1718.25
882.13	1775.59
882.30	1595.37
882.47	1685.48
882.63	1638.38
882.80	1560.55
882.96	1562.60
883.13	1732.58
883.29	1593.32
883.46	1701.86
883.62	1808.36
883.79	1693.67
883.95	1720.29
884.12	1736.68
884.29	1757.16
884.45	1718.25
884.62	1744.87
884.78	1687.53
884.95	1794.02
885.11	1677.29
885.28	1699.81
885.44	1767.40
885.61	1738.73
885.77	1759.21
885.94	1671.14
886.10	1673.19
886.27	1705.96
886.43	1775.59
886.60	1748.97
886.76	1669.09
886.93	1583.08
887.09	1748.97
887.26	1624.04
887.42	1695.72
887.59	1753.06
887.75	1800.16
887.92	1759.21
888.08	1730.53
888.25	1884.13
888.41	1810.40
888.58	1716.20
888.74	1701.86
888.91	1648.61
>>>>>End Processed Spectral Data<<<<<
