SpectraSuite Data File
++++++++++++++++++++++++++++++++++++
Date: Mon Jun 06 16:17:37 CEST 2016
User: root
Dark Spectrum Present: No
Reference Spectrum Present: No
Number of Sampled Component Spectra: 1
Spectrometers: USB4C02835
Integration Time (usec): 100000 (USB4C02835)
Spectra Averaged: 1 (USB4C02835)
Boxcar Smoothing: 0 (USB4C02835)
Correct for Electrical Dark: No (USB4C02835)
Strobe/Lamp Enabled: No (USB4C02835)
Correct for Detector Non-linearity: No (USB4C02835)
Correct for Stray Light: No (USB4C02835)
Number of Pixels in Processed Spectrum: 3648
>>>>>Begin Processed Spectral Data<<<<<
177.47	1484.78
177.69	1484.78
177.91	1484.78
178.13	1454.06
178.36	1447.91
178.58	1624.04
178.80	1800.16
179.02	1662.95
179.24	1726.44
179.46	1687.53
179.68	1732.58
179.90	1736.68
180.13	1820.64
180.35	1671.14
180.57	1703.91
180.79	1773.54
181.01	1650.66
181.23	1763.30
181.45	1777.64
181.67	1716.20
181.90	1761.25
182.12	1714.15
182.34	1648.61
182.56	1712.10
182.78	1671.14
183.00	1759.21
183.22	1783.78
183.44	1585.13
183.66	1857.51
183.89	1818.60
184.11	1740.77
184.33	1701.86
184.55	1730.53
184.77	1732.58
184.99	1708.01
185.21	1724.39
185.43	1859.56
185.65	1644.52
185.87	1685.48
186.10	1804.26
186.32	1871.84
186.54	1785.83
186.76	1773.54
186.98	1828.84
187.20	1730.53
187.42	1734.63
187.64	1665.00
187.86	1722.34
188.08	1734.63
188.30	1677.29
188.52	1636.33
188.75	1734.63
188.97	1701.86
189.19	1669.09
189.41	1783.78
189.63	1781.73
189.85	1742.82
190.07	1626.09
190.29	1628.14
190.51	1742.82
190.73	1722.34
190.95	1771.49
191.17	1712.10
191.39	1701.86
191.61	1652.71
191.84	1705.96
192.06	1722.34
192.28	1636.33
192.50	1914.85
192.72	1779.68
192.94	1626.09
193.16	1728.49
193.38	1714.15
193.60	1665.00
193.82	1703.91
194.04	1791.97
194.26	1689.57
194.48	1769.44
194.70	1701.86
194.92	1679.33
195.14	1722.34
195.36	1660.90
195.58	1708.01
195.80	1791.97
196.02	1716.20
196.24	1736.68
196.46	1787.88
196.69	1740.77
196.91	1877.99
197.13	1701.86
197.35	1617.90
197.57	1806.31
197.79	1742.82
198.01	1740.77
198.23	1712.10
198.45	1697.77
198.67	1607.66
198.89	1736.68
199.11	1703.91
199.33	1671.14
199.55	1615.85
199.77	1728.49
199.99	1763.30
200.21	1714.15
200.43	1730.53
200.65	1619.94
200.87	1665.00
201.09	1656.81
201.31	1751.01
201.53	1710.05
201.75	1798.12
201.97	1761.25
202.19	1714.15
202.41	1783.78
202.63	1834.98
202.85	1796.07
203.07	1773.54
203.29	1662.95
203.51	1722.34
203.73	1660.90
203.95	1951.71
204.17	1726.44
204.39	1716.20
204.61	1681.38
204.83	1665.00
205.05	1814.50
205.27	1738.73
205.49	1824.74
205.71	1728.49
205.93	1660.90
206.15	1662.95
206.37	1705.96
206.59	1691.62
206.81	1671.14
207.03	1626.09
207.25	1687.53
207.47	1697.77
207.69	1677.29
207.91	1808.36
208.13	1814.50
208.34	1656.81
208.56	1646.57
208.78	1783.78
209.00	1705.96
209.22	1724.39
209.44	1665.00
209.66	1705.96
209.88	1726.44
210.10	1681.38
210.32	1718.25
210.54	1759.21
210.76	1730.53
210.98	1748.97
211.20	1646.57
211.42	1789.92
211.64	1777.64
211.86	1708.01
212.08	1697.77
212.30	1712.10
212.52	1679.33
212.74	1699.81
212.96	1736.68
213.17	1738.73
213.39	1701.86
213.61	1751.01
213.83	1695.72
214.05	1701.86
214.27	1736.68
214.49	1589.22
214.71	1695.72
214.93	1861.60
215.15	1728.49
215.37	1742.82
215.59	1585.13
215.81	1771.49
216.03	1755.11
216.24	1683.43
216.46	1662.95
216.68	1763.30
216.90	1789.92
217.12	1789.92
217.34	1730.53
217.56	1763.30
217.78	1775.59
218.00	1796.07
218.22	1677.29
218.44	1689.57
218.66	1742.82
218.87	1837.03
219.09	1648.61
219.31	1742.82
219.53	1710.05
219.75	1695.72
219.97	1705.96
220.19	1732.58
220.41	1730.53
220.63	1738.73
220.85	1728.49
221.06	1640.42
221.28	1755.11
221.50	1722.34
221.72	1767.40
221.94	1714.15
222.16	1720.29
222.38	1710.05
222.60	1791.97
222.82	1718.25
223.03	1771.49
223.25	1593.32
223.47	1708.01
223.69	1873.89
223.91	1802.21
224.13	1736.68
224.35	1626.09
224.57	1861.60
224.78	1824.74
225.00	1638.38
225.22	1681.38
225.44	1683.43
225.66	1744.87
225.88	1642.47
226.10	1787.88
226.32	1685.48
226.53	1783.78
226.75	1609.70
226.97	1710.05
227.19	1757.16
227.41	1736.68
227.63	1642.47
227.85	1576.94
228.06	1703.91
228.28	1742.82
228.50	1755.11
228.72	1660.90
228.94	1722.34
229.16	1609.70
229.37	1613.80
229.59	1744.87
229.81	1787.88
230.03	1599.46
230.25	1669.09
230.47	1724.39
230.69	1585.13
230.90	1767.40
231.12	1589.22
231.34	1708.01
231.56	1722.34
231.78	1599.46
232.00	1701.86
232.21	1736.68
232.43	1665.00
232.65	1568.74
232.87	1714.15
233.09	1671.14
233.30	1669.09
233.52	1712.10
233.74	1812.45
233.96	1693.67
234.18	1718.25
234.40	1705.96
234.61	1837.03
234.83	1630.18
235.05	1644.52
235.27	1845.22
235.49	1685.48
235.70	1675.24
235.92	1767.40
236.14	1710.05
236.36	1933.28
236.58	1648.61
236.79	1820.64
237.01	1742.82
237.23	1669.09
237.45	1847.27
237.67	1642.47
237.88	1767.40
238.10	1787.88
238.32	1652.71
238.54	1703.91
238.76	1693.67
238.97	1673.19
239.19	1695.72
239.41	1726.44
239.63	1794.02
239.85	1667.05
240.06	1722.34
240.28	1746.92
240.50	1806.31
240.72	1767.40
240.93	1699.81
241.15	1779.68
241.37	1730.53
241.59	1832.93
241.81	1697.77
242.02	1652.71
242.24	1712.10
242.46	1726.44
242.68	1710.05
242.89	1720.29
243.11	1720.29
243.33	1705.96
243.55	1712.10
243.76	1720.29
243.98	1648.61
244.20	1802.21
244.42	1724.39
244.64	1722.34
244.85	1683.43
245.07	1599.46
245.29	1824.74
245.51	1703.91
245.72	1693.67
245.94	1834.98
246.16	1716.20
246.38	1710.05
246.59	1650.66
246.81	1646.57
247.03	1718.25
247.24	1591.27
247.46	1771.49
247.68	1728.49
247.90	1714.15
248.11	1671.14
248.33	1767.40
248.55	1697.77
248.77	1785.83
248.98	1767.40
249.20	1822.69
249.42	1636.33
249.64	1716.20
249.85	1714.15
250.07	1634.28
250.29	1773.54
250.50	1810.40
250.72	1568.74
250.94	1755.11
251.16	1787.88
251.37	1759.21
251.59	1724.39
251.81	1738.73
252.02	1763.30
252.24	1701.86
252.46	1769.44
252.68	1615.85
252.89	1746.92
253.11	1595.37
253.33	1757.16
253.54	1705.96
253.76	1658.85
253.98	1712.10
254.20	1699.81
254.41	1640.42
254.63	1632.23
254.85	1695.72
255.06	1705.96
255.28	1736.68
255.50	1695.72
255.71	1687.53
255.93	1665.00
256.15	1767.40
256.36	1699.81
256.58	1722.34
256.80	1785.83
257.02	1681.38
257.23	1714.15
257.45	1765.35
257.67	1716.20
257.88	1730.53
258.10	1775.59
258.32	1734.63
258.53	1802.21
258.75	1777.64
258.97	1599.46
259.18	1732.58
259.40	1769.44
259.62	1832.93
259.83	1761.25
260.05	1751.01
260.27	1914.85
260.48	1791.97
260.70	1601.51
260.92	1642.47
261.13	1777.64
261.35	1693.67
261.57	1726.44
261.78	1607.66
262.00	1591.27
262.22	1726.44
262.43	1714.15
262.65	1761.25
262.86	1726.44
263.08	1830.88
263.30	1691.62
263.51	1648.61
263.73	1632.23
263.95	1783.78
264.16	1576.94
264.38	1671.14
264.60	1708.01
264.81	1677.29
265.03	1751.01
265.25	1777.64
265.46	1785.83
265.68	1794.02
265.89	1738.73
266.11	1607.66
266.33	1783.78
266.54	1722.34
266.76	1705.96
266.98	1701.86
267.19	1804.26
267.41	1730.53
267.62	1712.10
267.84	1662.95
268.06	1767.40
268.27	1742.82
268.49	1751.01
268.70	1712.10
268.92	1804.26
269.14	1720.29
269.35	1607.66
269.57	1699.81
269.79	1712.10
270.00	1626.09
270.22	1759.21
270.43	1751.01
270.65	1599.46
270.87	1744.87
271.08	1730.53
271.30	1734.63
271.51	1738.73
271.73	1730.53
271.95	1783.78
272.16	1738.73
272.38	1746.92
272.59	1656.81
272.81	1763.30
273.02	1705.96
273.24	1732.58
273.46	1847.27
273.67	1677.29
273.89	1732.58
274.10	1640.42
274.32	1773.54
274.54	1763.30
274.75	1759.21
274.97	1654.76
275.18	1794.02
275.40	1779.68
275.61	1699.81
275.83	1718.25
276.05	1675.24
276.26	1652.71
276.48	1765.35
276.69	1671.14
276.91	1687.53
277.12	1748.97
277.34	1826.79
277.55	1767.40
277.77	1755.11
277.99	1646.57
278.20	1660.90
278.42	1611.75
278.63	1693.67
278.85	1699.81
279.06	1591.27
279.28	1763.30
279.49	1744.87
279.71	1759.21
279.93	1730.53
280.14	1660.90
280.36	1658.85
280.57	1689.57
280.79	1736.68
281.00	1599.46
281.22	1673.19
281.43	1753.06
281.65	1607.66
281.86	1644.52
282.08	1777.64
282.29	1867.75
282.51	1669.09
282.73	1710.05
282.94	1581.03
283.16	1806.31
283.37	1861.60
283.59	1730.53
283.80	1734.63
284.02	1734.63
284.23	1734.63
284.45	1722.34
284.66	1636.33
284.88	1658.85
285.09	1716.20
285.31	1746.92
285.52	1734.63
285.74	1574.89
285.95	1830.88
286.17	1814.50
286.38	1708.01
286.60	1755.11
286.81	1691.62
287.03	1755.11
287.24	1652.71
287.46	1681.38
287.67	1787.88
287.89	1861.60
288.10	1644.52
288.32	1753.06
288.53	1800.16
288.75	1746.92
288.96	1660.90
289.18	1624.04
289.39	1699.81
289.61	1746.92
289.82	1763.30
290.04	1814.50
290.25	1665.00
290.47	1658.85
290.68	1611.75
290.90	1787.88
291.11	1634.28
291.33	1779.68
291.54	1650.66
291.76	1619.94
291.97	1761.25
292.18	1689.57
292.40	1716.20
292.61	1681.38
292.83	1808.36
293.04	1763.30
293.26	1636.33
293.47	1720.29
293.69	1642.47
293.90	1621.99
294.12	1783.78
294.33	1658.85
294.55	1701.86
294.76	1810.40
294.97	1837.03
295.19	1822.69
295.40	1730.53
295.62	1708.01
295.83	1720.29
296.05	1738.73
296.26	1728.49
296.48	1652.71
296.69	1738.73
296.90	1652.71
297.12	1775.59
297.33	1837.03
297.55	1708.01
297.76	1718.25
297.98	1814.50
298.19	1642.47
298.41	1718.25
298.62	1710.05
298.83	1783.78
299.05	1730.53
299.26	1701.86
299.48	1658.85
299.69	1806.31
299.90	1669.09
300.12	1626.09
300.33	1720.29
300.55	1751.01
300.76	1810.40
300.98	1597.42
301.19	1787.88
301.40	1716.20
301.62	1687.53
301.83	1689.57
302.05	1687.53
302.26	1769.44
302.47	1705.96
302.69	1714.15
302.90	1728.49
303.12	1605.61
303.33	1742.82
303.54	1843.17
303.76	1701.86
303.97	1798.12
304.19	1794.02
304.40	1679.33
304.61	1800.16
304.83	1802.21
305.04	1802.21
305.26	1775.59
305.47	1646.57
305.68	1742.82
305.90	1603.56
306.11	1769.44
306.33	1775.59
306.54	1658.85
306.75	1671.14
306.97	1570.79
307.18	1667.05
307.39	1669.09
307.61	1796.07
307.82	1710.05
308.04	1800.16
308.25	1679.33
308.46	1808.36
308.68	1611.75
308.89	1718.25
309.10	1806.31
309.32	1726.44
309.53	1765.35
309.74	1726.44
309.96	1683.43
310.17	1775.59
310.39	1734.63
310.60	1740.77
310.81	1683.43
311.03	1638.38
311.24	1687.53
311.45	1656.81
311.67	1841.12
311.88	1671.14
312.09	1695.72
312.31	1726.44
312.52	1630.18
312.73	1769.44
312.95	1574.89
313.16	1621.99
313.37	1783.78
313.59	1740.77
313.80	1812.45
314.01	1808.36
314.23	1681.38
314.44	1640.42
314.65	1640.42
314.87	1671.14
315.08	1667.05
315.29	1697.77
315.51	1671.14
315.72	1642.47
315.93	1812.45
316.15	1714.15
316.36	1683.43
316.57	1708.01
316.79	1742.82
317.00	1730.53
317.21	1722.34
317.43	1660.90
317.64	1730.53
317.85	1697.77
318.07	1662.95
318.28	1759.21
318.49	1832.93
318.70	1920.99
318.92	1851.36
319.13	1871.84
319.34	1837.03
319.56	1779.68
319.77	1734.63
319.98	1837.03
320.20	1798.12
320.41	1736.68
320.62	1769.44
320.83	1628.14
321.05	1841.12
321.26	1820.64
321.47	1714.15
321.69	1785.83
321.90	1646.57
322.11	1720.29
322.32	1699.81
322.54	1808.36
322.75	1685.48
322.96	1783.78
323.18	1697.77
323.39	1531.88
323.60	1746.92
323.81	1896.42
324.03	1673.19
324.24	1732.58
324.45	1732.58
324.66	1701.86
324.88	1705.96
325.09	1759.21
325.30	1765.35
325.52	1748.97
325.73	1787.88
325.94	1640.42
326.15	1652.71
326.37	1648.61
326.58	1751.01
326.79	1828.84
327.00	1642.47
327.22	1761.25
327.43	1667.05
327.64	1621.99
327.85	1708.01
328.07	1746.92
328.28	1824.74
328.49	1699.81
328.70	1724.39
328.92	1753.06
329.13	1759.21
329.34	1734.63
329.55	1812.45
329.76	1746.92
329.98	1662.95
330.19	1738.73
330.40	1656.81
330.61	1718.25
330.83	1769.44
331.04	1662.95
331.25	1804.26
331.46	1701.86
331.68	1624.04
331.89	1765.35
332.10	1720.29
332.31	1685.48
332.52	1701.86
332.74	1773.54
332.95	1691.62
333.16	1673.19
333.37	1800.16
333.58	1697.77
333.80	1724.39
334.01	1585.13
334.22	1710.05
334.43	1605.61
334.64	1650.66
334.86	1677.29
335.07	1677.29
335.28	1804.26
335.49	1675.24
335.70	1783.78
335.92	1781.73
336.13	1785.83
336.34	1720.29
336.55	1796.07
336.76	1714.15
336.98	1613.80
337.19	1732.58
337.40	1816.55
337.61	1818.60
337.82	1687.53
338.04	1757.16
338.25	1660.90
338.46	1691.62
338.67	1658.85
338.88	1665.00
339.09	1701.86
339.31	1746.92
339.52	1697.77
339.73	1583.08
339.94	1824.74
340.15	1796.07
340.36	1722.34
340.58	1742.82
340.79	1656.81
341.00	1718.25
341.21	1646.57
341.42	1724.39
341.63	1685.48
341.85	1740.77
342.06	1685.48
342.27	1671.14
342.48	1744.87
342.69	1724.39
342.90	1832.93
343.12	1800.16
343.33	1648.61
343.54	1748.97
343.75	1806.31
343.96	1675.24
344.17	1630.18
344.38	1744.87
344.60	1697.77
344.81	1679.33
345.02	1673.19
345.23	1755.11
345.44	1863.65
345.65	1738.73
345.86	1777.64
346.07	1669.09
346.29	1656.81
346.50	1753.06
346.71	1705.96
346.92	1779.68
347.13	1886.18
347.34	1697.77
347.55	1636.33
347.76	1751.01
347.98	1599.46
348.19	1728.49
348.40	1781.73
348.61	1667.05
348.82	1861.60
349.03	1759.21
349.24	1677.29
349.45	1800.16
349.66	1648.61
349.88	1755.11
350.09	1681.38
350.30	1705.96
350.51	1859.56
350.72	1683.43
350.93	1759.21
351.14	1652.71
351.35	1755.11
351.56	1810.40
351.77	1687.53
351.99	1751.01
352.20	1781.73
352.41	1757.16
352.62	1607.66
352.83	1699.81
353.04	1691.62
353.25	1763.30
353.46	1839.08
353.67	1730.53
353.88	1634.28
354.09	1701.86
354.30	1693.67
354.52	1712.10
354.73	1669.09
354.94	1597.42
355.15	1630.18
355.36	1857.51
355.57	1732.58
355.78	1703.91
355.99	1648.61
356.20	1699.81
356.41	1777.64
356.62	1763.30
356.83	1712.10
357.04	1832.93
357.25	1624.04
357.46	1773.54
357.68	1585.13
357.89	1724.39
358.10	1683.43
358.31	1677.29
358.52	1816.55
358.73	1617.90
358.94	1642.47
359.15	1742.82
359.36	1712.10
359.57	1734.63
359.78	1701.86
359.99	1746.92
360.20	1662.95
360.41	1765.35
360.62	1734.63
360.83	1810.40
361.04	1677.29
361.25	1783.78
361.46	1767.40
361.67	1765.35
361.88	1716.20
362.09	1714.15
362.30	1722.34
362.51	1681.38
362.72	1720.29
362.93	1853.41
363.14	1740.77
363.35	1671.14
363.56	1673.19
363.78	1800.16
363.99	1708.01
364.20	1679.33
364.41	1808.36
364.62	1804.26
364.83	1677.29
365.04	1626.09
365.25	1738.73
365.46	1865.70
365.67	1640.42
365.88	1636.33
366.09	1763.30
366.30	1613.80
366.51	1654.76
366.72	1650.66
366.93	1761.25
367.14	1759.21
367.35	1724.39
367.56	1665.00
367.77	1732.58
367.98	1767.40
368.18	1722.34
368.39	1705.96
368.60	1652.71
368.81	1808.36
369.02	1687.53
369.23	1669.09
369.44	1601.51
369.65	1681.38
369.86	1695.72
370.07	1853.41
370.28	1712.10
370.49	1808.36
370.70	1677.29
370.91	1708.01
371.12	1656.81
371.33	1814.50
371.54	1705.96
371.75	1894.37
371.96	1642.47
372.17	1771.49
372.38	1640.42
372.59	1703.91
372.80	1714.15
373.01	1724.39
373.22	1714.15
373.43	1777.64
373.64	1671.14
373.85	1785.83
374.06	1902.56
374.26	1773.54
374.47	1728.49
374.68	1734.63
374.89	1724.39
375.10	1693.67
375.31	1748.97
375.52	1722.34
375.73	1806.31
375.94	1660.90
376.15	1744.87
376.36	1699.81
376.57	1665.00
376.78	1744.87
376.99	1693.67
377.20	1826.79
377.40	1779.68
377.61	1808.36
377.82	1648.61
378.03	1863.65
378.24	1798.12
378.45	1708.01
378.66	1820.64
378.87	1660.90
379.08	1615.85
379.29	1638.38
379.50	1816.55
379.71	1712.10
379.91	1748.97
380.12	1746.92
380.33	1761.25
380.54	1708.01
380.75	1710.05
380.96	1730.53
381.17	1783.78
381.38	1751.01
381.59	1740.77
381.80	1689.57
382.00	1845.22
382.21	1767.40
382.42	1859.56
382.63	1884.13
382.84	1763.30
383.05	1785.83
383.26	1785.83
383.47	1730.53
383.68	1724.39
383.88	1714.15
384.09	1748.97
384.30	1824.74
384.51	1714.15
384.72	1746.92
384.93	1652.71
385.14	1730.53
385.35	1671.14
385.55	1697.77
385.76	1755.11
385.97	1726.44
386.18	1630.18
386.39	1732.58
386.60	1650.66
386.81	1767.40
387.02	1646.57
387.22	1587.18
387.43	1804.26
387.64	1834.98
387.85	1904.61
388.06	2195.42
388.27	4249.54
388.48	6782.87
388.68	8296.32
388.89	9742.19
389.10	9844.59
389.31	8720.25
389.52	7825.29
389.73	6852.50
389.93	6254.50
390.14	5849.00
390.35	5169.07
390.56	4560.83
390.77	3885.00
390.98	3084.24
391.18	2463.71
391.39	2197.47
391.60	1892.32
391.81	1761.25
392.02	1705.96
392.23	1894.37
392.43	1783.78
392.64	1818.60
392.85	1722.34
393.06	1892.32
393.27	1734.63
393.47	1703.91
393.68	1775.59
393.89	1677.29
394.10	1875.94
394.31	1687.53
394.52	1640.42
394.72	1585.13
394.93	1886.18
395.14	1656.81
395.35	1718.25
395.56	1742.82
395.76	1753.06
395.97	1771.49
396.18	1814.50
396.39	1859.56
396.60	2052.06
396.80	1925.09
397.01	1982.43
397.22	1804.26
397.43	1873.89
397.64	1699.81
397.84	1787.88
398.05	1871.84
398.26	1730.53
398.47	1798.12
398.67	1785.83
398.88	1644.52
399.09	1691.62
399.30	1708.01
399.51	1738.73
399.71	1757.16
399.92	1685.48
400.13	1798.12
400.34	1722.34
400.54	1714.15
400.75	1763.30
400.96	1753.06
401.17	1804.26
401.37	1726.44
401.58	1699.81
401.79	1720.29
402.00	1908.71
402.21	1994.72
402.41	1972.19
402.62	1998.82
402.83	1986.53
403.04	2058.21
403.24	2164.70
403.45	1957.86
403.66	1964.00
403.87	1871.84
404.07	1855.46
404.28	1972.19
404.49	1886.18
404.70	1810.40
404.90	1771.49
405.11	1802.21
405.32	1753.06
405.52	1611.75
405.73	1720.29
405.94	1642.47
406.15	1681.38
406.35	1841.12
406.56	1722.34
406.77	1665.00
406.98	1669.09
407.18	1775.59
407.39	1837.03
407.60	1697.77
407.80	1771.49
408.01	1697.77
408.22	1824.74
408.43	1701.86
408.63	1701.86
408.84	1687.53
409.05	1730.53
409.25	1718.25
409.46	1673.19
409.67	1621.99
409.88	1740.77
410.08	1751.01
410.29	1712.10
410.50	1781.73
410.70	1687.53
410.91	1675.24
411.12	1681.38
411.32	1716.20
411.53	1685.48
411.74	1818.60
411.95	1759.21
412.15	1761.25
412.36	1798.12
412.57	1769.44
412.77	1753.06
412.98	1771.49
413.19	1689.57
413.39	1755.11
413.60	1753.06
413.81	1873.89
414.01	1753.06
414.22	1804.26
414.43	1755.11
414.63	1662.95
414.84	1732.58
415.05	1708.01
415.25	1656.81
415.46	1691.62
415.67	1710.05
415.87	1744.87
416.08	1730.53
416.29	1675.24
416.49	1697.77
416.70	1746.92
416.91	1732.58
417.11	1699.81
417.32	1753.06
417.53	1732.58
417.73	1746.92
417.94	1726.44
418.15	1744.87
418.35	1734.63
418.56	1781.73
418.77	1800.16
418.97	1728.49
419.18	1638.38
419.38	1595.37
419.59	1673.19
419.80	1781.73
420.00	1714.15
420.21	1734.63
420.42	1773.54
420.62	1804.26
420.83	1703.91
421.04	1769.44
421.24	1695.72
421.45	1816.55
421.65	1722.34
421.86	1687.53
422.07	1701.86
422.27	1763.30
422.48	1734.63
422.69	1679.33
422.89	1708.01
423.10	1732.58
423.30	1615.85
423.51	1710.05
423.72	1746.92
423.92	1748.97
424.13	1654.76
424.33	1724.39
424.54	1816.55
424.75	1740.77
424.95	1855.46
425.16	1746.92
425.36	1777.64
425.57	1718.25
425.78	1832.93
425.98	1779.68
426.19	1636.33
426.39	1572.84
426.60	1712.10
426.81	1875.94
427.01	1734.63
427.22	1703.91
427.42	1673.19
427.63	1609.70
427.83	1734.63
428.04	1820.64
428.25	1818.60
428.45	1798.12
428.66	1769.44
428.86	1720.29
429.07	1767.40
429.28	1693.67
429.48	1724.39
429.69	1626.09
429.89	1697.77
430.10	1681.38
430.30	1746.92
430.51	1802.21
430.71	1710.05
430.92	1736.68
431.13	1677.29
431.33	1701.86
431.54	1718.25
431.74	1773.54
431.95	1845.22
432.15	1724.39
432.36	1648.61
432.56	1837.03
432.77	1884.13
432.98	1834.98
433.18	1738.73
433.39	1712.10
433.59	1705.96
433.80	1834.98
434.00	1914.85
434.21	1708.01
434.41	1724.39
434.62	1820.64
434.82	1656.81
435.03	1660.90
435.23	1771.49
435.44	1617.90
435.64	1746.92
435.85	1826.79
436.06	1740.77
436.26	1834.98
436.47	1669.09
436.67	1691.62
436.88	1671.14
437.08	1814.50
437.29	1779.68
437.49	1757.16
437.70	1763.30
437.90	1697.77
438.11	1890.28
438.31	1832.93
438.52	1875.94
438.72	1843.17
438.93	1982.43
439.13	1804.26
439.34	1841.12
439.54	1734.63
439.75	1755.11
439.95	1753.06
440.16	1681.38
440.36	1660.90
440.57	1814.50
440.77	1728.49
440.98	1722.34
441.18	1814.50
441.39	1724.39
441.59	1701.86
441.80	1920.99
442.00	1736.68
442.21	1853.41
442.41	1751.01
442.62	1804.26
442.82	1789.92
443.02	1771.49
443.23	1746.92
443.43	1769.44
443.64	1787.88
443.84	1665.00
444.05	1871.84
444.25	1732.58
444.46	1681.38
444.66	1742.82
444.87	1802.21
445.07	1710.05
445.28	1701.86
445.48	1763.30
445.69	1783.78
445.89	1828.84
446.09	1718.25
446.30	2033.63
446.50	2672.60
446.71	3665.86
446.91	4425.66
447.12	4788.15
447.32	4820.92
447.53	4319.17
447.73	3860.42
447.93	3583.95
448.14	3305.42
448.34	3274.70
448.55	3000.27
448.75	2879.44
448.96	2633.69
449.16	2412.51
449.36	2209.76
449.57	2097.12
449.77	1877.99
449.98	1804.26
450.18	1810.40
450.39	1855.46
450.59	1787.88
450.79	1779.68
451.00	1693.67
451.20	1789.92
451.41	1753.06
451.61	1804.26
451.81	1730.53
452.02	1710.05
452.22	1734.63
452.43	1746.92
452.63	1759.21
452.84	1800.16
453.04	1695.72
453.24	1798.12
453.45	1732.58
453.65	1798.12
453.86	1808.36
454.06	1732.58
454.26	1746.92
454.47	1695.72
454.67	1867.75
454.87	1726.44
455.08	1730.53
455.28	1814.50
455.49	1660.90
455.69	1687.53
455.89	1849.32
456.10	1820.64
456.30	1791.97
456.51	1781.73
456.71	1787.88
456.91	1740.77
457.12	1781.73
457.32	1759.21
457.52	1656.81
457.73	1798.12
457.93	1783.78
458.14	1701.86
458.34	1662.95
458.54	1818.60
458.75	1771.49
458.95	1759.21
459.15	1826.79
459.36	1751.01
459.56	1724.39
459.76	1851.36
459.97	1738.73
460.17	1802.21
460.37	1849.32
460.58	1689.57
460.78	1701.86
460.99	1675.24
461.19	1728.49
461.39	1705.96
461.60	1781.73
461.80	1798.12
462.00	1697.77
462.21	1712.10
462.41	1673.19
462.61	1660.90
462.82	1648.61
463.02	1667.05
463.22	1746.92
463.43	1789.92
463.63	1748.97
463.83	1892.32
464.04	1755.11
464.24	1767.40
464.44	1738.73
464.64	1632.23
464.85	1804.26
465.05	1808.36
465.25	1732.58
465.46	1746.92
465.66	1748.97
465.86	1759.21
466.07	1699.81
466.27	1722.34
466.47	1601.51
466.68	1691.62
466.88	1837.03
467.08	1810.40
467.29	1734.63
467.49	1755.11
467.69	1806.31
467.89	1748.97
468.10	1800.16
468.30	1748.97
468.50	1822.69
468.71	1744.87
468.91	1665.00
469.11	1828.84
469.31	1728.49
469.52	1652.71
469.72	1857.51
469.92	1939.43
470.13	1834.98
470.33	1724.39
470.53	1759.21
470.73	2121.70
470.94	2353.12
471.14	2256.86
471.34	2529.24
471.54	2519.00
471.75	2189.28
471.95	2140.13
472.15	2090.98
472.36	2058.21
472.56	2045.92
472.76	2101.22
472.96	1974.24
473.17	1970.15
473.37	1867.75
473.57	1738.73
473.77	1796.07
473.98	1804.26
474.18	1689.57
474.38	1894.37
474.58	1724.39
474.79	1738.73
474.99	1730.53
475.19	1775.59
475.39	1617.90
475.60	1794.02
475.80	1716.20
476.00	1781.73
476.20	1671.14
476.41	1724.39
476.61	1777.64
476.81	1828.84
477.01	1740.77
477.21	1896.42
477.42	1800.16
477.62	1675.24
477.82	1738.73
478.02	1673.19
478.23	1771.49
478.43	1636.33
478.63	1798.12
478.83	1644.52
479.03	1740.77
479.24	1755.11
479.44	1875.94
479.64	1640.42
479.84	1591.27
480.04	1673.19
480.25	1720.29
480.45	1740.77
480.65	1665.00
480.85	1806.31
481.06	1785.83
481.26	1669.09
481.46	1783.78
481.66	1791.97
481.86	1648.61
482.06	1800.16
482.27	1697.77
482.47	1755.11
482.67	1757.16
482.87	1708.01
483.07	1763.30
483.28	1716.20
483.48	1671.14
483.68	1761.25
483.88	1722.34
484.08	1621.99
484.29	1646.57
484.49	1695.72
484.69	1638.38
484.89	1771.49
485.09	1712.10
485.29	1734.63
485.50	1695.72
485.70	1724.39
485.90	1796.07
486.10	1726.44
486.30	1812.45
486.50	1800.16
486.71	1636.33
486.91	1837.03
487.11	1796.07
487.31	1681.38
487.51	1796.07
487.71	1693.67
487.91	1697.77
488.12	1652.71
488.32	1597.42
488.52	1665.00
488.72	1675.24
488.92	1732.58
489.12	1773.54
489.32	1824.74
489.53	1730.53
489.73	1609.70
489.93	1804.26
490.13	1644.52
490.33	1703.91
490.53	1757.16
490.73	1804.26
490.94	1679.33
491.14	1796.07
491.34	1861.60
491.54	2111.46
491.74	2625.50
491.94	2963.41
492.14	3026.90
492.34	2998.23
492.54	2742.23
492.75	2510.81
492.95	2564.06
493.15	2308.06
493.35	2316.25
493.55	2316.25
493.75	2158.56
493.95	2103.26
494.15	1929.19
494.35	1918.95
494.56	1837.03
494.76	1777.64
494.96	1806.31
495.16	1818.60
495.36	1757.16
495.56	1763.30
495.76	1773.54
495.96	1718.25
496.16	1669.09
496.36	1855.46
496.56	1746.92
496.77	1763.30
496.97	1669.09
497.17	1785.83
497.37	1693.67
497.57	1818.60
497.77	1789.92
497.97	1656.81
498.17	1693.67
498.37	1771.49
498.57	1748.97
498.77	1761.25
498.97	1771.49
499.17	1804.26
499.38	1708.01
499.58	1751.01
499.78	1796.07
499.98	1800.16
500.18	1685.48
500.38	1755.11
500.58	1939.43
500.78	2566.10
500.98	4560.83
501.18	5846.95
501.38	6721.43
501.58	7059.35
501.78	6563.74
501.98	5580.71
502.18	4984.76
502.38	4509.63
502.58	4204.48
502.78	3811.27
502.98	3651.53
503.18	3442.64
503.38	3160.02
503.59	2918.36
503.79	2648.02
503.99	2502.62
504.19	2359.26
504.39	2123.74
504.59	2109.41
504.79	2207.71
504.99	2095.07
505.19	1877.99
505.39	1935.33
505.59	2002.91
505.79	1941.47
505.99	1873.89
506.19	1779.68
506.39	1923.04
506.59	1755.11
506.79	1800.16
506.99	1785.83
507.19	1798.12
507.39	1771.49
507.59	1636.33
507.79	1732.58
507.99	1656.81
508.19	1734.63
508.39	1714.15
508.59	1816.55
508.79	1855.46
508.99	1802.21
509.19	1701.86
509.39	1740.77
509.59	1671.14
509.79	1736.68
509.99	1746.92
510.19	1822.69
510.39	1865.70
510.59	1810.40
510.79	1701.86
510.99	1728.49
511.19	1787.88
511.39	1863.65
511.59	1769.44
511.79	1853.41
511.99	1826.79
512.19	1912.80
512.38	1755.11
512.58	1689.57
512.78	1767.40
512.98	1742.82
513.18	1890.28
513.38	1710.05
513.58	1828.84
513.78	1683.43
513.98	1783.78
514.18	1730.53
514.38	1705.96
514.58	1775.59
514.78	1697.77
514.98	1642.47
515.18	1699.81
515.38	1771.49
515.58	1861.60
515.78	1691.62
515.98	1685.48
516.18	1806.31
516.38	1738.73
516.57	1726.44
516.77	1802.21
516.97	1765.35
517.17	1724.39
517.37	1679.33
517.57	1814.50
517.77	1679.33
517.97	1669.09
518.17	1785.83
518.37	1720.29
518.57	1712.10
518.77	1734.63
518.97	1675.24
519.16	1751.01
519.36	1916.90
519.56	1753.06
519.76	1773.54
519.96	1732.58
520.16	1849.32
520.36	1658.85
520.56	1755.11
520.76	1740.77
520.96	1720.29
521.16	1787.88
521.35	1796.07
521.55	1812.45
521.75	1722.34
521.95	1746.92
522.15	1724.39
522.35	1710.05
522.55	1646.57
522.75	1769.44
522.95	1601.51
523.14	1675.24
523.34	1742.82
523.54	1789.92
523.74	1720.29
523.94	1796.07
524.14	1611.75
524.34	1726.44
524.54	1845.22
524.73	1761.25
524.93	1748.97
525.13	1810.40
525.33	1650.66
525.53	1970.15
525.73	1777.64
525.93	1755.11
526.13	1681.38
526.32	1701.86
526.52	1791.97
526.72	1808.36
526.92	1730.53
527.12	1771.49
527.32	1656.81
527.52	1767.40
527.71	1804.26
527.91	1806.31
528.11	1689.57
528.31	1732.58
528.51	1613.80
528.71	1886.18
528.90	1757.16
529.10	1765.35
529.30	1892.32
529.50	1621.99
529.70	1765.35
529.90	1796.07
530.09	1806.31
530.29	1658.85
530.49	1695.72
530.69	1869.80
530.89	1748.97
531.09	1804.26
531.28	1658.85
531.48	1769.44
531.68	1759.21
531.88	1751.01
532.08	1824.74
532.28	1736.68
532.47	1755.11
532.67	1783.78
532.87	1763.30
533.07	1636.33
533.27	1839.08
533.46	1779.68
533.66	1720.29
533.86	1714.15
534.06	1652.71
534.26	1814.50
534.45	1728.49
534.65	1742.82
534.85	1826.79
535.05	1769.44
535.25	1800.16
535.44	1658.85
535.64	1798.12
535.84	1724.39
536.04	1646.57
536.24	1607.66
536.43	1699.81
536.63	1763.30
536.83	1691.62
537.03	1703.91
537.22	1728.49
537.42	1687.53
537.62	1802.21
537.82	1742.82
538.02	1837.03
538.21	1902.56
538.41	1998.82
538.61	1720.29
538.81	1720.29
539.00	1720.29
539.20	1667.05
539.40	1687.53
539.60	1728.49
539.79	1800.16
539.99	1712.10
540.19	1685.48
540.39	1675.24
540.58	1744.87
540.78	1818.60
540.98	1775.59
541.18	1730.53
541.37	1785.83
541.57	1753.06
541.77	1718.25
541.97	1671.14
542.16	1671.14
542.36	1722.34
542.56	1689.57
542.76	1908.71
542.95	1763.30
543.15	1787.88
543.35	1783.78
543.54	1730.53
543.74	1632.23
543.94	1744.87
544.14	1806.31
544.33	1851.36
544.53	1732.58
544.73	1738.73
544.93	1769.44
545.12	1767.40
545.32	1896.42
545.52	1724.39
545.71	1714.15
545.91	1730.53
546.11	1693.67
546.30	1685.48
546.50	1744.87
546.70	1755.11
546.90	1775.59
547.09	1740.77
547.29	1763.30
547.49	1847.27
547.68	1761.25
547.88	1753.06
548.08	1800.16
548.27	2148.32
548.47	1652.71
548.67	1667.05
548.87	1757.16
549.06	1740.77
549.26	1755.11
549.46	1730.53
549.65	1673.19
549.85	1773.54
550.05	1767.40
550.24	1665.00
550.44	1820.64
550.64	1724.39
550.83	1765.35
551.03	1761.25
551.23	1804.26
551.42	1755.11
551.62	1705.96
551.82	1765.35
552.01	1716.20
552.21	1755.11
552.41	1781.73
552.60	1806.31
552.80	1816.55
553.00	1722.34
553.19	1728.49
553.39	1904.61
553.59	1705.96
553.78	1783.78
553.98	1789.92
554.17	1654.76
554.37	1759.21
554.57	1816.55
554.76	1656.81
554.96	1687.53
555.16	1789.92
555.35	1785.83
555.55	1794.02
555.75	1777.64
555.94	1800.16
556.14	1683.43
556.33	1853.41
556.53	1701.86
556.73	1755.11
556.92	1755.11
557.12	1800.16
557.32	1828.84
557.51	1783.78
557.71	1810.40
557.90	1877.99
558.10	1834.98
558.30	1757.16
558.49	1726.44
558.69	1814.50
558.88	1818.60
559.08	1816.55
559.28	1763.30
559.47	1736.68
559.67	1724.39
559.86	1796.07
560.06	1730.53
560.26	1761.25
560.45	1802.21
560.65	1744.87
560.84	1859.56
561.04	1791.97
561.24	1787.88
561.43	1689.57
561.63	1804.26
561.82	1736.68
562.02	1716.20
562.22	1695.72
562.41	1705.96
562.61	1720.29
562.80	1660.90
563.00	1890.28
563.19	1738.73
563.39	1820.64
563.59	1857.51
563.78	1703.91
563.98	1740.77
564.17	1720.29
564.37	1609.70
564.56	1779.68
564.76	1585.13
564.96	1816.55
565.15	1759.21
565.35	1828.84
565.54	1751.01
565.74	1742.82
565.93	1775.59
566.13	1787.88
566.32	1755.11
566.52	1802.21
566.71	1748.97
566.91	1802.21
567.11	1804.26
567.30	1789.92
567.50	1763.30
567.69	1802.21
567.89	1822.69
568.08	1689.57
568.28	1773.54
568.47	1689.57
568.67	1757.16
568.86	1687.53
569.06	1857.51
569.25	1718.25
569.45	1736.68
569.64	1740.77
569.84	1724.39
570.04	1789.92
570.23	1679.33
570.43	1767.40
570.62	1773.54
570.82	1869.80
571.01	1689.57
571.21	1699.81
571.40	1712.10
571.60	1789.92
571.79	1728.49
571.99	1722.34
572.18	1716.20
572.38	1742.82
572.57	1738.73
572.77	1765.35
572.96	1875.94
573.16	1693.67
573.35	1789.92
573.55	1816.55
573.74	1753.06
573.94	1740.77
574.13	1681.38
574.33	1785.83
574.52	1800.16
574.71	1761.25
574.91	1781.73
575.10	1705.96
575.30	1724.39
575.49	1724.39
575.69	1734.63
575.88	1746.92
576.08	1804.26
576.27	1800.16
576.47	1732.58
576.66	1802.21
576.86	1816.55
577.05	1787.88
577.25	1748.97
577.44	1826.79
577.64	1724.39
577.83	1783.78
578.02	1746.92
578.22	1787.88
578.41	1918.95
578.61	1779.68
578.80	1716.20
579.00	1804.26
579.19	1744.87
579.39	1802.21
579.58	1820.64
579.77	1724.39
579.97	1771.49
580.16	1839.08
580.36	1791.97
580.55	1867.75
580.75	1765.35
580.94	1787.88
581.13	1904.61
581.33	1861.60
581.52	1814.50
581.72	1855.46
581.91	1841.12
582.11	1759.21
582.30	1802.21
582.49	1785.83
582.69	1890.28
582.88	1845.22
583.08	1779.68
583.27	1771.49
583.47	1775.59
583.66	1757.16
583.85	1751.01
584.05	1773.54
584.24	1763.30
584.44	1837.03
584.63	1871.84
584.82	1849.32
585.02	1720.29
585.21	1834.98
585.41	1871.84
585.60	1853.41
585.79	1984.48
585.99	1918.95
586.18	1890.28
586.37	2232.29
586.57	3430.35
586.76	9934.70
586.96	24880.77
587.15	34440.69
587.34	40521.11
587.54	42372.47
587.73	36683.22
587.93	26459.76
588.12	21890.74
588.31	18489.06
588.51	16600.83
588.70	15066.91
588.89	14184.23
589.09	12808.00
589.28	11046.74
589.47	9566.06
589.67	8138.63
589.86	6397.85
590.06	5064.63
590.25	4014.02
590.44	3080.14
590.64	2459.61
590.83	2308.06
591.02	2084.83
591.22	1941.47
591.41	1898.47
591.60	1822.69
591.80	1943.52
591.99	1779.68
592.18	1763.30
592.38	1898.47
592.57	1683.43
592.76	1847.27
592.96	1789.92
593.15	1834.98
593.34	1837.03
593.54	1775.59
593.73	1746.92
593.92	1847.27
594.12	1738.73
594.31	1791.97
594.50	1839.08
594.70	1824.74
594.89	1843.17
595.08	1673.19
595.28	1855.46
595.47	1968.10
595.66	1765.35
595.86	1730.53
596.05	1753.06
596.24	1753.06
596.43	1830.88
596.63	1742.82
596.82	1751.01
597.01	1689.57
597.21	1927.14
597.40	1791.97
597.59	1650.66
597.79	1806.31
597.98	1794.02
598.17	1705.96
598.36	1742.82
598.56	1804.26
598.75	1697.77
598.94	1656.81
599.14	1771.49
599.33	1738.73
599.52	1763.30
599.71	1681.38
599.91	1851.36
600.10	1828.84
600.29	1708.01
600.48	1832.93
600.68	1820.64
600.87	1767.40
601.06	1718.25
601.26	1751.01
601.45	1875.94
601.64	1761.25
601.83	1834.98
602.03	1732.58
602.22	1605.61
602.41	1818.60
602.60	1847.27
602.80	1751.01
602.99	1742.82
603.18	1740.77
603.37	1806.31
603.57	1753.06
603.76	1775.59
603.95	1791.97
604.14	1703.91
604.34	1785.83
604.53	1822.69
604.72	1785.83
604.91	1755.11
605.10	1744.87
605.30	1701.86
605.49	1890.28
605.68	1779.68
605.87	1818.60
606.07	1681.38
606.26	1755.11
606.45	1796.07
606.64	1777.64
606.84	1748.97
607.03	1710.05
607.22	1777.64
607.41	1671.14
607.60	1757.16
607.80	1804.26
607.99	1830.88
608.18	1724.39
608.37	1767.40
608.56	1726.44
608.76	1875.94
608.95	1845.22
609.14	1652.71
609.33	1767.40
609.52	1755.11
609.72	1714.15
609.91	1755.11
610.10	1677.29
610.29	1814.50
610.48	1783.78
610.68	1751.01
610.87	1673.19
611.06	1785.83
611.25	1828.84
611.44	1796.07
611.63	1763.30
611.83	1810.40
612.02	1681.38
612.21	1816.55
612.40	1624.04
612.59	1701.86
612.79	1640.42
612.98	1710.05
613.17	1820.64
613.36	1791.97
613.55	1783.78
613.74	1701.86
613.93	1658.85
614.13	1687.53
614.32	1816.55
614.51	1673.19
614.70	1742.82
614.89	1771.49
615.08	1753.06
615.28	2093.02
615.47	1708.01
615.66	1800.16
615.85	1710.05
616.04	1861.60
616.23	1787.88
616.42	1718.25
616.62	1839.08
616.81	1787.88
617.00	1708.01
617.19	1814.50
617.38	1693.67
617.57	1722.34
617.76	1777.64
617.95	1787.88
618.15	1841.12
618.34	1785.83
618.53	1654.76
618.72	1843.17
618.91	1794.02
619.10	1775.59
619.29	1814.50
619.48	1757.16
619.68	1652.71
619.87	1796.07
620.06	1705.96
620.25	1798.12
620.44	1658.85
620.63	1763.30
620.82	1732.58
621.01	1791.97
621.20	1669.09
621.39	1794.02
621.59	1763.30
621.78	1718.25
621.97	1779.68
622.16	1808.36
622.35	1691.62
622.54	1837.03
622.73	1916.90
622.92	1665.00
623.11	1806.31
623.30	1851.36
623.49	1773.54
623.68	1710.05
623.88	1865.70
624.07	1628.14
624.26	1769.44
624.45	1705.96
624.64	1718.25
624.83	1701.86
625.02	1744.87
625.21	1808.36
625.40	1640.42
625.59	1808.36
625.78	1671.14
625.97	1726.44
626.16	1767.40
626.35	1767.40
626.54	1710.05
626.74	1847.27
626.93	1804.26
627.12	1677.29
627.31	1822.69
627.50	1787.88
627.69	1783.78
627.88	1650.66
628.07	1775.59
628.26	1642.47
628.45	1710.05
628.64	1652.71
628.83	1748.97
629.02	1656.81
629.21	1822.69
629.40	1783.78
629.59	1656.81
629.78	1708.01
629.97	1765.35
630.16	1734.63
630.35	1726.44
630.54	1701.86
630.73	1701.86
630.92	1746.92
631.11	1636.33
631.30	1800.16
631.49	1761.25
631.68	1740.77
631.87	1742.82
632.06	1681.38
632.25	1855.46
632.44	1671.14
632.63	1769.44
632.82	1658.85
633.01	1697.77
633.20	1679.33
633.39	1673.19
633.58	1665.00
633.77	1744.87
633.96	1740.77
634.15	1816.55
634.34	1742.82
634.53	1673.19
634.72	1693.67
634.91	1660.90
635.10	1781.73
635.29	1779.68
635.48	1662.95
635.67	1662.95
635.86	1689.57
636.05	1800.16
636.24	1773.54
636.43	1814.50
636.62	1857.51
636.81	1599.46
637.00	1763.30
637.19	1783.78
637.38	1697.77
637.57	1669.09
637.76	1660.90
637.95	1746.92
638.14	1710.05
638.33	1765.35
638.52	1705.96
638.71	1708.01
638.89	1603.56
639.08	1818.60
639.27	1808.36
639.46	1767.40
639.65	1845.22
639.84	1736.68
640.03	1791.97
640.22	1703.91
640.41	1802.21
640.60	1738.73
640.79	1753.06
640.98	1726.44
641.17	1814.50
641.36	1730.53
641.55	1740.77
641.74	1642.47
641.92	1693.67
642.11	1675.24
642.30	1755.11
642.49	1636.33
642.68	1734.63
642.87	1720.29
643.06	1740.77
643.25	1699.81
643.44	1646.57
643.63	1763.30
643.82	1685.48
644.00	1683.43
644.19	1775.59
644.38	1701.86
644.57	1685.48
644.76	1748.97
644.95	1759.21
645.14	1787.88
645.33	1675.24
645.52	1708.01
645.71	1718.25
645.89	1650.66
646.08	1734.63
646.27	1740.77
646.46	1824.74
646.65	1640.42
646.84	1775.59
647.03	1675.24
647.22	1777.64
647.40	1716.20
647.59	1697.77
647.78	1626.09
647.97	1683.43
648.16	1624.04
648.35	1865.70
648.54	1775.59
648.73	1705.96
648.91	1804.26
649.10	1718.25
649.29	1742.82
649.48	1730.53
649.67	1734.63
649.86	1738.73
650.05	1703.91
650.23	1751.01
650.42	1687.53
650.61	1781.73
650.80	1705.96
650.99	1849.32
651.18	1757.16
651.36	1718.25
651.55	1734.63
651.74	1691.62
651.93	1724.39
652.12	1675.24
652.31	1710.05
652.49	1720.29
652.68	1595.37
652.87	1789.92
653.06	1691.62
653.25	1859.56
653.44	1763.30
653.62	1779.68
653.81	1712.10
654.00	1699.81
654.19	1814.50
654.38	1832.93
654.56	1757.16
654.75	1679.33
654.94	1734.63
655.13	1728.49
655.32	1722.34
655.51	1767.40
655.69	1734.63
655.88	1738.73
656.07	1648.61
656.26	1765.35
656.45	1626.09
656.63	1732.58
656.82	1771.49
657.01	1841.12
657.20	1710.05
657.38	1826.79
657.57	1763.30
657.76	1656.81
657.95	1828.84
658.14	1638.38
658.32	1730.53
658.51	1632.23
658.70	1718.25
658.89	1695.72
659.08	1796.07
659.26	1777.64
659.45	1732.58
659.64	1736.68
659.83	1755.11
660.01	1888.23
660.20	1718.25
660.39	1746.92
660.58	1677.29
660.76	1767.40
660.95	1587.18
661.14	1796.07
661.33	1675.24
661.51	1607.66
661.70	1669.09
661.89	1765.35
662.08	1783.78
662.26	1636.33
662.45	1638.38
662.64	1843.17
662.83	1834.98
663.01	1654.76
663.20	1714.15
663.39	1804.26
663.58	1708.01
663.76	1796.07
663.95	1734.63
664.14	1748.97
664.32	1660.90
664.51	1644.52
664.70	1665.00
664.89	1746.92
665.07	1734.63
665.26	1814.50
665.45	1636.33
665.64	1746.92
665.82	1771.49
666.01	1751.01
666.20	1687.53
666.38	1751.01
666.57	1785.83
666.76	2222.05
666.95	4532.15
667.13	10403.68
667.32	15322.90
667.51	18003.69
667.69	19115.74
667.88	17817.33
668.07	12490.56
668.25	9531.25
668.44	8255.36
668.63	7399.31
668.81	6848.41
669.00	6246.30
669.19	5734.31
669.38	5144.50
669.56	4648.89
669.75	4104.13
669.94	3467.21
670.12	2930.64
670.31	2482.14
670.50	2308.06
670.68	2052.06
670.87	1875.94
671.06	1804.26
671.24	1861.60
671.43	1832.93
671.62	1779.68
671.80	1724.39
671.99	1841.12
672.18	1769.44
672.36	1769.44
672.55	1791.97
672.74	1769.44
672.92	1699.81
673.11	1818.60
673.29	1621.99
673.48	1769.44
673.67	1685.48
673.85	1787.88
674.04	1667.05
674.23	1789.92
674.41	1794.02
674.60	1675.24
674.79	1605.61
674.97	1638.38
675.16	1789.92
675.34	1746.92
675.53	1679.33
675.72	1796.07
675.90	1832.93
676.09	1697.77
676.28	1783.78
676.46	1654.76
676.65	1777.64
676.83	1689.57
677.02	1736.68
677.21	1783.78
677.39	1671.14
677.58	1593.32
677.77	1697.77
677.95	1658.85
678.14	1763.30
678.32	1675.24
678.51	1693.67
678.70	1830.88
678.88	1740.77
679.07	1777.64
679.25	1685.48
679.44	1654.76
679.63	1554.41
679.81	1730.53
680.00	1818.60
680.18	1847.27
680.37	1785.83
680.55	1720.29
680.74	1689.57
680.93	1642.47
681.11	1738.73
681.30	1724.39
681.48	1734.63
681.67	1701.86
681.85	1718.25
682.04	1644.52
682.23	1769.44
682.41	1675.24
682.60	1660.90
682.78	1742.82
682.97	1640.42
683.15	1744.87
683.34	1759.21
683.53	1748.97
683.71	1640.42
683.90	1853.41
684.08	1769.44
684.27	1724.39
684.45	1763.30
684.64	1744.87
684.82	1691.62
685.01	1771.49
685.19	1685.48
685.38	1824.74
685.57	1714.15
685.75	1630.18
685.94	1748.97
686.12	1656.81
686.31	1658.85
686.49	1865.70
686.68	1564.65
686.86	1742.82
687.05	1726.44
687.23	1859.56
687.42	1726.44
687.60	1718.25
687.79	1757.16
687.97	1722.34
688.16	1798.12
688.34	1826.79
688.53	1589.22
688.71	1824.74
688.90	1775.59
689.08	1699.81
689.27	1675.24
689.45	1734.63
689.64	1755.11
689.82	1722.34
690.01	1816.55
690.19	1757.16
690.38	1761.25
690.56	1794.02
690.75	1714.15
690.93	1699.81
691.12	1777.64
691.30	1724.39
691.49	1669.09
691.67	1689.57
691.86	1824.74
692.04	1714.15
692.23	1675.24
692.41	1785.83
692.60	1781.73
692.78	1693.67
692.97	1697.77
693.15	1687.53
693.34	1804.26
693.52	1810.40
693.71	1714.15
693.89	1734.63
694.08	1656.81
694.26	1779.68
694.44	1857.51
694.63	1767.40
694.81	1675.24
695.00	1759.21
695.18	1779.68
695.37	1849.32
695.55	1828.84
695.74	1779.68
695.92	1638.38
696.10	1767.40
696.29	1660.90
696.47	1730.53
696.66	1716.20
696.84	1697.77
697.03	1665.00
697.21	1828.84
697.40	2328.54
697.58	1734.63
697.76	1646.57
697.95	1654.76
698.13	1628.14
698.32	1656.81
698.50	1697.77
698.68	1767.40
698.87	1777.64
699.05	1861.60
699.24	1759.21
699.42	1716.20
699.61	1722.34
699.79	1701.86
699.97	1722.34
700.16	1691.62
700.34	1665.00
700.53	1673.19
700.71	1785.83
700.89	1708.01
701.08	1789.92
701.26	1710.05
701.45	2113.50
701.63	1648.61
701.81	1710.05
702.00	1683.43
702.18	1669.09
702.37	1701.86
702.55	1726.44
702.73	1701.86
702.92	1583.08
703.10	1816.55
703.28	1730.53
703.47	1638.38
703.65	1753.06
703.84	1798.12
704.02	1785.83
704.20	1812.45
704.39	1710.05
704.57	1673.19
704.75	1755.11
704.94	1812.45
705.12	1703.91
705.30	1783.78
705.49	2291.68
705.67	4485.05
705.86	9549.68
706.04	12668.73
706.22	14673.70
706.41	15386.39
706.59	13592.37
706.77	9760.62
706.96	7464.85
707.14	6608.80
707.32	5939.11
707.51	5574.57
707.69	4845.49
707.87	4204.48
708.06	3536.84
708.24	2942.93
708.42	2367.45
708.61	2230.24
708.79	1914.85
708.97	1832.93
709.16	1892.32
709.34	1751.01
709.52	1767.40
709.71	1712.10
709.89	1736.68
710.07	1718.25
710.26	1650.66
710.44	1703.91
710.62	1665.00
710.80	1736.68
710.99	1773.54
711.17	1773.54
711.35	1675.24
711.54	1710.05
711.72	1843.17
711.90	1826.79
712.09	1779.68
712.27	1697.77
712.45	1755.11
712.63	1644.52
712.82	1773.54
713.00	1689.57
713.18	1783.78
713.37	1673.19
713.55	1730.53
713.73	1697.77
713.91	1810.40
714.10	1716.20
714.28	1726.44
714.46	1730.53
714.65	1746.92
714.83	1740.77
715.01	1669.09
715.19	1730.53
715.38	1613.80
715.56	1796.07
715.74	1677.29
715.92	1681.38
716.11	1820.64
716.29	1654.76
716.47	1685.48
716.65	1761.25
716.84	1656.81
717.02	1820.64
717.20	1605.61
717.38	1798.12
717.57	1701.86
717.75	1714.15
717.93	1677.29
718.11	1763.30
718.30	1593.32
718.48	1683.43
718.66	1769.44
718.84	1802.21
719.03	1669.09
719.21	1658.85
719.39	1832.93
719.57	1738.73
719.75	1794.02
719.94	1742.82
720.12	1761.25
720.30	1755.11
720.48	1708.01
720.67	1763.30
720.85	1636.33
721.03	1724.39
721.21	1712.10
721.39	1839.08
721.58	1669.09
721.76	1759.21
721.94	1769.44
722.12	1699.81
722.30	1789.92
722.49	1667.05
722.67	1724.39
722.85	1742.82
723.03	1656.81
723.21	1755.11
723.40	1712.10
723.58	1736.68
723.76	1720.29
723.94	1746.92
724.12	1685.48
724.30	1853.41
724.49	1785.83
724.67	1634.28
724.85	1781.73
725.03	1568.74
725.21	1701.86
725.40	1789.92
725.58	1689.57
725.76	1822.69
725.94	1730.53
726.12	1675.24
726.30	1732.58
726.49	1722.34
726.67	1742.82
726.85	1654.76
727.03	1814.50
727.21	2152.42
727.39	3022.80
727.57	3803.08
727.76	4159.42
727.94	4433.85
728.12	4448.19
728.30	3667.91
728.48	2979.79
728.66	2756.57
728.84	2594.78
729.03	2230.24
729.21	2064.35
729.39	2004.96
729.57	1904.61
729.75	1828.84
729.93	1906.66
730.11	1726.44
730.30	1701.86
730.48	1736.68
730.66	1802.21
730.84	1777.64
731.02	1751.01
731.20	1660.90
731.38	1740.77
731.56	1685.48
731.74	1626.09
731.93	1703.91
732.11	1773.54
732.29	1665.00
732.47	1734.63
732.65	1746.92
732.83	1830.88
733.01	1806.31
733.19	1669.09
733.37	1755.11
733.56	1791.97
733.74	1671.14
733.92	1812.45
734.10	1722.34
734.28	1687.53
734.46	1660.90
734.64	1714.15
734.82	1685.48
735.00	1662.95
735.18	1648.61
735.36	1699.81
735.54	1742.82
735.73	1658.85
735.91	1748.97
736.09	1763.30
736.27	1644.52
736.45	1722.34
736.63	1632.23
736.81	1716.20
736.99	1777.64
737.17	1802.21
737.35	1724.39
737.53	1716.20
737.71	1638.38
737.89	1832.93
738.07	1693.67
738.25	1669.09
738.43	1566.70
738.61	1759.21
738.80	1675.24
738.98	1581.03
739.16	1679.33
739.34	1681.38
739.52	1759.21
739.70	1687.53
739.88	1771.49
740.06	1742.82
740.24	1652.71
740.42	1808.36
740.60	1576.94
740.78	1697.77
740.96	1642.47
741.14	1722.34
741.32	1746.92
741.50	1605.61
741.68	1837.03
741.86	1687.53
742.04	1646.57
742.22	1693.67
742.40	1730.53
742.58	1755.11
742.76	1632.23
742.94	1708.01
743.12	1607.66
743.30	1751.01
743.48	1667.05
743.66	1681.38
743.84	1751.01
744.02	1671.14
744.20	1740.77
744.38	1665.00
744.56	1660.90
744.74	1828.84
744.92	1755.11
745.10	1804.26
745.28	1802.21
745.46	1832.93
745.64	1738.73
745.82	1744.87
746.00	1748.97
746.18	1675.24
746.36	1656.81
746.54	1761.25
746.72	1656.81
746.90	1722.34
747.08	1785.83
747.26	1740.77
747.44	1748.97
747.62	1781.73
747.80	1718.25
747.98	1820.64
748.15	1656.81
748.33	1787.88
748.51	1783.78
748.69	1728.49
748.87	1720.29
749.05	1703.91
749.23	1654.76
749.41	1701.86
749.59	1693.67
749.77	1775.59
749.95	1685.48
750.13	1712.10
750.31	1720.29
750.49	1812.45
750.67	1746.92
750.85	1769.44
751.03	1658.85
751.20	1849.32
751.38	1730.53
751.56	1685.48
751.74	1681.38
751.92	1642.47
752.10	1634.28
752.28	1761.25
752.46	1658.85
752.64	1703.91
752.82	1771.49
753.00	1665.00
753.18	1714.15
753.35	1728.49
753.53	1648.61
753.71	1658.85
753.89	1726.44
754.07	1695.72
754.25	1798.12
754.43	1757.16
754.61	1667.05
754.79	1748.97
754.97	1695.72
755.14	1708.01
755.32	1621.99
755.50	1638.38
755.68	1697.77
755.86	1609.70
756.04	1667.05
756.22	1656.81
756.40	1736.68
756.57	1738.73
756.75	1691.62
756.93	1757.16
757.11	1722.34
757.29	1665.00
757.47	1650.66
757.65	1673.19
757.82	1576.94
758.00	1746.92
758.18	1636.33
758.36	1693.67
758.54	1722.34
758.72	1654.76
758.90	1824.74
759.07	1775.59
759.25	1703.91
759.43	1851.36
759.61	1697.77
759.79	2197.47
759.97	1816.55
760.15	1691.62
760.32	1738.73
760.50	1728.49
760.68	1796.07
760.86	1632.23
761.04	1763.30
761.22	1744.87
761.39	1738.73
761.57	1699.81
761.75	1714.15
761.93	1775.59
762.11	1714.15
762.28	1683.43
762.46	1576.94
762.64	1775.59
762.82	1601.51
763.00	1701.86
763.18	1783.78
763.35	1689.57
763.53	1732.58
763.71	1765.35
763.89	1701.86
764.07	1677.29
764.24	1660.90
764.42	1769.44
764.60	1673.19
764.78	1720.29
764.96	1796.07
765.13	1724.39
765.31	1714.15
765.49	1765.35
765.67	1644.52
765.84	1665.00
766.02	1748.97
766.20	1617.90
766.38	1755.11
766.56	1685.48
766.73	1816.55
766.91	1687.53
767.09	1720.29
767.27	1705.96
767.44	1740.77
767.62	1759.21
767.80	1710.05
767.98	1683.43
768.15	1689.57
768.33	1789.92
768.51	1742.82
768.69	1687.53
768.87	1644.52
769.04	1695.72
769.22	1859.56
769.40	1765.35
769.58	1816.55
769.75	1726.44
769.93	1728.49
770.11	1693.67
770.28	1720.29
770.46	1722.34
770.64	1736.68
770.82	1701.86
770.99	1722.34
771.17	1716.20
771.35	1708.01
771.53	1718.25
771.70	1691.62
771.88	1800.16
772.06	1720.29
772.23	1665.00
772.41	1771.49
772.59	1648.61
772.77	1683.43
772.94	1775.59
773.12	1685.48
773.30	1701.86
773.47	1689.57
773.65	1703.91
773.83	1734.63
774.01	1675.24
774.18	1597.42
774.36	1751.01
774.54	1624.04
774.71	1746.92
774.89	1644.52
775.07	1644.52
775.24	1644.52
775.42	1722.34
775.60	1697.77
775.78	1695.72
775.95	1630.18
776.13	1568.74
776.31	1599.46
776.48	1791.97
776.66	1746.92
776.84	1691.62
777.01	1673.19
777.19	1712.10
777.37	1658.85
777.54	1730.53
777.72	1820.64
777.90	1703.91
778.07	1712.10
778.25	1906.66
778.43	1757.16
778.60	1675.24
778.78	1722.34
778.96	1697.77
779.13	1642.47
779.31	1734.63
779.49	1689.57
779.66	1767.40
779.84	1738.73
780.01	1748.97
780.19	1681.38
780.37	1718.25
780.54	1722.34
780.72	1705.96
780.90	1667.05
781.07	1693.67
781.25	1701.86
781.43	1794.02
781.60	1689.57
781.78	1773.54
781.95	1728.49
782.13	1736.68
782.31	1648.61
782.48	1681.38
782.66	1751.01
782.83	1841.12
783.01	1685.48
783.19	1834.98
783.36	1699.81
783.54	1613.80
783.72	1740.77
783.89	1681.38
784.07	1613.80
784.24	1759.21
784.42	1845.22
784.60	1718.25
784.77	1763.30
784.95	1581.03
785.12	1710.05
785.30	1720.29
785.47	1724.39
785.65	1718.25
785.83	1662.95
786.00	1777.64
786.18	1683.43
786.35	1693.67
786.53	1677.29
786.71	1814.50
786.88	1753.06
787.06	1693.67
787.23	1662.95
787.41	1665.00
787.58	1716.20
787.76	1650.66
787.94	1751.01
788.11	1771.49
788.29	1722.34
788.46	1693.67
788.64	1650.66
788.81	1716.20
788.99	1662.95
789.16	1673.19
789.34	1738.73
789.52	1744.87
789.69	1652.71
789.87	1628.14
790.04	1693.67
790.22	1748.97
790.39	1787.88
790.57	1689.57
790.74	1718.25
790.92	1777.64
791.09	1714.15
791.27	1667.05
791.44	1806.31
791.62	1804.26
791.79	1759.21
791.97	1669.09
792.15	1851.36
792.32	1691.62
792.50	1656.81
792.67	1816.55
792.85	1757.16
793.02	1748.97
793.20	1712.10
793.37	1693.67
793.55	1722.34
793.72	1632.23
793.90	1746.92
794.07	1646.57
794.25	1714.15
794.42	1701.86
794.60	1708.01
794.77	1730.53
794.95	1689.57
795.12	1736.68
795.30	1738.73
795.47	1644.52
795.65	1951.71
795.82	1746.92
796.00	1681.38
796.17	1753.06
796.34	1679.33
796.52	1660.90
796.69	1697.77
796.87	1757.16
797.04	1699.81
797.22	1806.31
797.39	1720.29
797.57	1703.91
797.74	1656.81
797.92	1683.43
798.09	1630.18
798.27	1755.11
798.44	1728.49
798.62	1656.81
798.79	1730.53
798.96	1714.15
799.14	1746.92
799.31	1802.21
799.49	1722.34
799.66	1691.62
799.84	1771.49
800.01	1583.08
800.19	1652.71
800.36	1550.31
800.53	1777.64
800.71	1763.30
800.88	1771.49
801.06	1757.16
801.23	1673.19
801.41	1744.87
801.58	1658.85
801.75	1642.47
801.93	1695.72
802.10	1650.66
802.28	1744.87
802.45	1648.61
802.63	1718.25
802.80	1767.40
802.97	1658.85
803.15	1673.19
803.32	1671.14
803.50	1683.43
803.67	1720.29
803.84	1714.15
804.02	1734.63
804.19	1679.33
804.37	1607.66
804.54	1660.90
804.71	1730.53
804.89	1722.34
805.06	1650.66
805.24	1693.67
805.41	1634.28
805.58	1734.63
805.76	1820.64
805.93	1767.40
806.10	1802.21
806.28	1751.01
806.45	1753.06
806.63	1769.44
806.80	1718.25
806.97	1759.21
807.15	1697.77
807.32	1738.73
807.49	1732.58
807.67	1554.41
807.84	1710.05
808.01	1708.01
808.19	1804.26
808.36	1812.45
808.54	1650.66
808.71	1669.09
808.88	1712.10
809.06	1794.02
809.23	1777.64
809.40	1675.24
809.58	1818.60
809.75	1671.14
809.92	1609.70
810.10	1859.56
810.27	1734.63
810.44	1708.01
810.62	1806.31
810.79	1687.53
810.96	1662.95
811.14	1705.96
811.31	1689.57
811.48	1751.01
811.66	1648.61
811.83	1708.01
812.00	1648.61
812.18	1712.10
812.35	1822.69
812.52	1722.34
812.69	1671.14
812.87	1687.53
813.04	1691.62
813.21	1679.33
813.39	1656.81
813.56	1626.09
813.73	1796.07
813.91	1607.66
814.08	1710.05
814.25	1742.82
814.42	1665.00
814.60	1806.31
814.77	1730.53
814.94	1759.21
815.12	1695.72
815.29	1822.69
815.46	1701.86
815.63	1769.44
815.81	1771.49
815.98	1679.33
816.15	1695.72
816.33	1746.92
816.50	1712.10
816.67	1753.06
816.84	1697.77
817.02	1650.66
817.19	1771.49
817.36	1691.62
817.53	1701.86
817.71	1683.43
817.88	1751.01
818.05	1685.48
818.22	1685.48
818.40	1789.92
818.57	1693.67
818.74	1796.07
818.91	1691.62
819.09	1746.92
819.26	1763.30
819.43	1654.76
819.60	1691.62
819.78	1748.97
819.95	1794.02
820.12	1689.57
820.29	1726.44
820.47	1742.82
820.64	1691.62
820.81	1607.66
820.98	1630.18
821.15	1644.52
821.33	1701.86
821.50	1677.29
821.67	1777.64
821.84	1740.77
822.02	1724.39
822.19	1720.29
822.36	1705.96
822.53	1662.95
822.70	1658.85
822.88	1677.29
823.05	1796.07
823.22	1646.57
823.39	1695.72
823.56	1730.53
823.74	1861.60
823.91	1662.95
824.08	1654.76
824.25	1673.19
824.42	1812.45
824.60	1634.28
824.77	1710.05
824.94	1693.67
825.11	1824.74
825.28	1640.42
825.45	1800.16
825.63	1650.66
825.80	1660.90
825.97	1763.30
826.14	1734.63
826.31	1630.18
826.48	1693.67
826.66	1703.91
826.83	1691.62
827.00	1746.92
827.17	1626.09
827.34	1728.49
827.51	1767.40
827.69	1677.29
827.86	1595.37
828.03	1642.47
828.20	1734.63
828.37	1720.29
828.54	1740.77
828.71	1759.21
828.89	1898.47
829.06	1726.44
829.23	1789.92
829.40	1691.62
829.57	1662.95
829.74	1705.96
829.91	1628.14
830.09	1689.57
830.26	1703.91
830.43	1773.54
830.60	1673.19
830.77	1669.09
830.94	1761.25
831.11	1798.12
831.28	1724.39
831.46	1800.16
831.63	1730.53
831.80	1783.78
831.97	1615.85
832.14	1691.62
832.31	1781.73
832.48	1693.67
832.65	1800.16
832.82	1685.48
832.99	1640.42
833.17	1589.22
833.34	1765.35
833.51	1685.48
833.68	1636.33
833.85	1794.02
834.02	1619.94
834.19	1697.77
834.36	1679.33
834.53	1705.96
834.70	1755.11
834.87	1722.34
835.04	1701.86
835.22	1630.18
835.39	1687.53
835.56	1630.18
835.73	1738.73
835.90	1759.21
836.07	1677.29
836.24	1708.01
836.41	1667.05
836.58	1675.24
836.75	1685.48
836.92	1714.15
837.09	1665.00
837.26	1791.97
837.43	1714.15
837.60	1712.10
837.77	1708.01
837.94	1740.77
838.12	1773.54
838.29	1759.21
838.46	1640.42
838.63	1578.98
838.80	1738.73
838.97	1726.44
839.14	1701.86
839.31	1691.62
839.48	1781.73
839.65	1789.92
839.82	1695.72
839.99	1755.11
840.16	1730.53
840.33	1665.00
840.50	1718.25
840.67	1748.97
840.84	1607.66
841.01	1744.87
841.18	1746.92
841.35	1658.85
841.52	1820.64
841.69	1765.35
841.86	1742.82
842.03	1742.82
842.20	1806.31
842.37	1755.11
842.54	1708.01
842.71	1718.25
842.88	1646.57
843.05	1781.73
843.22	1703.91
843.39	1753.06
843.56	1677.29
843.73	1738.73
843.90	1736.68
844.07	1701.86
844.24	1837.03
844.41	1769.44
844.58	1677.29
844.75	1703.91
844.92	1701.86
845.09	1736.68
845.26	1720.29
845.43	1740.77
845.60	1667.05
845.77	1720.29
845.94	1689.57
846.10	1734.63
846.27	1644.52
846.44	1589.22
846.61	1665.00
846.78	1744.87
846.95	1779.68
847.12	1783.78
847.29	1697.77
847.46	1654.76
847.63	1787.88
847.80	1628.14
847.97	1691.62
848.14	1769.44
848.31	1679.33
848.48	1665.00
848.65	1796.07
848.82	1671.14
848.98	1777.64
849.15	1724.39
849.32	1759.21
849.49	1728.49
849.66	1708.01
849.83	1718.25
850.00	1634.28
850.17	1767.40
850.34	1673.19
850.51	1632.23
850.68	1708.01
850.85	1761.25
851.01	1716.20
851.18	1689.57
851.35	1746.92
851.52	1630.18
851.69	1714.15
851.86	1697.77
852.03	1714.15
852.20	1736.68
852.37	1656.81
852.53	1640.42
852.70	1705.96
852.87	1736.68
853.04	1751.01
853.21	1751.01
853.38	1755.11
853.55	1789.92
853.72	1783.78
853.89	1732.58
854.05	1665.00
854.22	1636.33
854.39	1671.14
854.56	1800.16
854.73	1736.68
854.90	1652.71
855.07	1681.38
855.23	1669.09
855.40	1693.67
855.57	1759.21
855.74	1548.26
855.91	1976.29
856.08	1730.53
856.25	1650.66
856.41	1689.57
856.58	1714.15
856.75	1656.81
856.92	1681.38
857.09	1804.26
857.26	1669.09
857.42	1730.53
857.59	1730.53
857.76	1648.61
857.93	1705.96
858.10	1648.61
858.27	1609.70
858.43	1755.11
858.60	1609.70
858.77	1578.98
858.94	1699.81
859.11	1699.81
859.27	1708.01
859.44	1730.53
859.61	1822.69
859.78	1794.02
859.95	1656.81
860.12	1634.28
860.28	1767.40
860.45	1740.77
860.62	1734.63
860.79	1734.63
860.95	1718.25
861.12	1656.81
861.29	1640.42
861.46	1730.53
861.63	1665.00
861.79	1755.11
861.96	1683.43
862.13	1705.96
862.30	1791.97
862.47	1662.95
862.63	1730.53
862.80	1640.42
862.97	1816.55
863.14	1837.03
863.30	1728.49
863.47	1626.09
863.64	1697.77
863.81	1794.02
863.97	1718.25
864.14	1708.01
864.31	1656.81
864.48	1816.55
864.65	1763.30
864.81	1736.68
864.98	1716.20
865.15	1796.07
865.32	1730.53
865.48	1804.26
865.65	1824.74
865.82	1681.38
865.98	1757.16
866.15	1759.21
866.32	1724.39
866.49	1705.96
866.65	1748.97
866.82	1638.38
866.99	1734.63
867.16	1667.05
867.32	1785.83
867.49	1652.71
867.66	1742.82
867.83	1718.25
867.99	1564.65
868.16	1671.14
868.33	1708.01
868.49	1681.38
868.66	1720.29
868.83	1837.03
868.99	1730.53
869.16	1697.77
869.33	1703.91
869.50	1757.16
869.66	1746.92
869.83	1665.00
870.00	1687.53
870.16	1738.73
870.33	1724.39
870.50	1720.29
870.66	1761.25
870.83	1853.41
871.00	1746.92
871.17	1822.69
871.33	1724.39
871.50	1710.05
871.67	1771.49
871.83	1642.47
872.00	1798.12
872.17	1710.05
872.33	1724.39
872.50	1767.40
872.67	1724.39
872.83	1615.85
873.00	1806.31
873.17	1710.05
873.33	1724.39
873.50	1746.92
873.67	1632.23
873.83	1642.47
874.00	1724.39
874.16	1757.16
874.33	1718.25
874.50	1644.52
874.66	1773.54
874.83	1726.44
875.00	1791.97
875.16	1824.74
875.33	1746.92
875.50	1589.22
875.66	1652.71
875.83	1720.29
875.99	1732.58
876.16	1648.61
876.33	1687.53
876.49	1646.57
876.66	1783.78
876.83	1773.54
876.99	1677.29
877.16	1755.11
877.32	1728.49
877.49	1712.10
877.66	1662.95
877.82	1806.31
877.99	1720.29
878.15	1701.86
878.32	1761.25
878.49	1755.11
878.65	1675.24
878.82	1798.12
878.98	1759.21
879.15	1730.53
879.32	1746.92
879.48	1722.34
879.65	1777.64
879.81	1738.73
879.98	1718.25
880.15	1673.19
880.31	1755.11
880.48	1675.24
880.64	1742.82
880.81	1710.05
880.97	1890.28
881.14	1826.79
881.31	1636.33
881.47	1824.74
881.64	1671.14
881.80	1632.23
881.97	1705.96
882.13	1787.88
882.30	1683.43
882.47	1726.44
882.63	1644.52
882.80	1673.19
882.96	1685.48
883.13	1785.83
883.29	1701.86
883.46	1716.20
883.62	1832.93
883.79	1724.39
883.95	1744.87
884.12	1689.57
884.29	1724.39
884.45	1640.42
884.62	1720.29
884.78	1628.14
884.95	1806.31
885.11	1613.80
885.28	1724.39
885.44	1648.61
885.61	1720.29
885.77	1761.25
885.94	1767.40
886.10	1736.68
886.27	1687.53
886.43	1818.60
886.60	1794.02
886.76	1662.95
886.93	1691.62
887.09	1728.49
887.26	1609.70
887.42	1787.88
887.59	1785.83
887.75	1867.75
887.92	1845.22
888.08	1708.01
888.25	1841.12
888.41	1830.88
888.58	1677.29
888.74	1673.19
888.91	1705.96
>>>>>End Processed Spectral Data<<<<<
