SpectraSuite Data File
++++++++++++++++++++++++++++++++++++
Date: Mon Jun 06 15:20:17 CEST 2016
User: root
Dark Spectrum Present: No
Reference Spectrum Present: No
Number of Sampled Component Spectra: 1
Spectrometers: USB4C02835
Integration Time (usec): 100000 (USB4C02835)
Spectra Averaged: 1 (USB4C02835)
Boxcar Smoothing: 0 (USB4C02835)
Correct for Electrical Dark: No (USB4C02835)
Strobe/Lamp Enabled: No (USB4C02835)
Correct for Detector Non-linearity: No (USB4C02835)
Correct for Stray Light: No (USB4C02835)
Number of Pixels in Processed Spectrum: 3648
>>>>>Begin Processed Spectral Data<<<<<
177.47	1460.20
177.69	1460.20
177.91	1460.20
178.13	1490.92
178.36	1544.17
178.58	1693.67
178.80	1773.54
179.02	1619.94
179.24	1636.33
179.46	1581.03
179.68	1818.60
179.90	1736.68
180.13	1738.73
180.35	1689.57
180.57	1683.43
180.79	1802.21
181.01	1650.66
181.23	1759.21
181.45	1761.25
181.67	1695.72
181.90	1753.06
182.12	1742.82
182.34	1642.47
182.56	1742.82
182.78	1736.68
183.00	1652.71
183.22	1714.15
183.44	1624.04
183.66	1791.97
183.89	1841.12
184.11	1769.44
184.33	1748.97
184.55	1693.67
184.77	1761.25
184.99	1699.81
185.21	1720.29
185.43	1832.93
185.65	1681.38
185.87	1748.97
186.10	1920.99
186.32	1845.22
186.54	1677.29
186.76	1720.29
186.98	1738.73
187.20	1660.90
187.42	1759.21
187.64	1722.34
187.86	1730.53
188.08	1724.39
188.30	1724.39
188.52	1775.59
188.75	1765.35
188.97	1701.86
189.19	1667.05
189.41	1638.38
189.63	1701.86
189.85	1658.85
190.07	1726.44
190.29	1644.52
190.51	1675.24
190.73	1640.42
190.95	1783.78
191.17	1697.77
191.39	1621.99
191.61	1720.29
191.84	1746.92
192.06	1703.91
192.28	1593.32
192.50	1927.14
192.72	1654.76
192.94	1703.91
193.16	1812.45
193.38	1746.92
193.60	1613.80
193.82	1699.81
194.04	1847.27
194.26	1705.96
194.48	1732.58
194.70	1734.63
194.92	1744.87
195.14	1791.97
195.36	1703.91
195.58	1689.57
195.80	1734.63
196.02	1654.76
196.24	1695.72
196.46	1673.19
196.69	1660.90
196.91	1804.26
197.13	1730.53
197.35	1716.20
197.57	1796.07
197.79	1669.09
198.01	1763.30
198.23	1714.15
198.45	1716.20
198.67	1605.61
198.89	1718.25
199.11	1794.02
199.33	1685.48
199.55	1603.56
199.77	1708.01
199.99	1734.63
200.21	1626.09
200.43	1697.77
200.65	1648.61
200.87	1583.08
201.09	1662.95
201.31	1701.86
201.53	1773.54
201.75	1738.73
201.97	1738.73
202.19	1671.14
202.41	1705.96
202.63	1898.47
202.85	1722.34
203.07	1648.61
203.29	1671.14
203.51	1681.38
203.73	1638.38
203.95	1939.43
204.17	1740.77
204.39	1722.34
204.61	1744.87
204.83	1697.77
205.05	1791.97
205.27	1771.49
205.49	1869.80
205.71	1632.23
205.93	1642.47
206.15	1648.61
206.37	1763.30
206.59	1701.86
206.81	1658.85
207.03	1691.62
207.25	1636.33
207.47	1769.44
207.69	1652.71
207.91	1816.55
208.13	1773.54
208.34	1708.01
208.56	1640.42
208.78	1742.82
209.00	1675.24
209.22	1689.57
209.44	1746.92
209.66	1638.38
209.88	1695.72
210.10	1642.47
210.32	1673.19
210.54	1834.98
210.76	1712.10
210.98	1724.39
211.20	1703.91
211.42	1675.24
211.64	1865.70
211.86	1773.54
212.08	1751.01
212.30	1794.02
212.52	1634.28
212.74	1746.92
212.96	1753.06
213.17	1806.31
213.39	1726.44
213.61	1839.08
213.83	1748.97
214.05	1662.95
214.27	1724.39
214.49	1675.24
214.71	1691.62
214.93	1771.49
215.15	1732.58
215.37	1767.40
215.59	1667.05
215.81	1728.49
216.03	1753.06
216.24	1734.63
216.46	1691.62
216.68	1667.05
216.90	1726.44
217.12	1798.12
217.34	1748.97
217.56	1724.39
217.78	1791.97
218.00	1732.58
218.22	1677.29
218.44	1714.15
218.66	1691.62
218.87	1816.55
219.09	1640.42
219.31	1714.15
219.53	1673.19
219.75	1705.96
219.97	1626.09
220.19	1742.82
220.41	1624.04
220.63	1781.73
220.85	1751.01
221.06	1763.30
221.28	1796.07
221.50	1701.86
221.72	1665.00
221.94	1740.77
222.16	1628.14
222.38	1732.58
222.60	1691.62
222.82	1720.29
223.03	1761.25
223.25	1599.46
223.47	1746.92
223.69	1794.02
223.91	1722.34
224.13	1781.73
224.35	1716.20
224.57	1820.64
224.78	1775.59
225.00	1710.05
225.22	1675.24
225.44	1673.19
225.66	1775.59
225.88	1710.05
226.10	1759.21
226.32	1722.34
226.53	1787.88
226.75	1716.20
226.97	1634.28
227.19	1638.38
227.41	1751.01
227.63	1718.25
227.85	1736.68
228.06	1742.82
228.28	1710.05
228.50	1781.73
228.72	1642.47
228.94	1703.91
229.16	1576.94
229.37	1538.02
229.59	1609.70
229.81	1814.50
230.03	1669.09
230.25	1677.29
230.47	1671.14
230.69	1675.24
230.90	1751.01
231.12	1697.77
231.34	1740.77
231.56	1740.77
231.78	1636.33
232.00	1615.85
232.21	1712.10
232.43	1712.10
232.65	1742.82
232.87	1763.30
233.09	1673.19
233.30	1650.66
233.52	1765.35
233.74	1720.29
233.96	1740.77
234.18	1746.92
234.40	1738.73
234.61	1935.33
234.83	1587.18
235.05	1656.81
235.27	1808.36
235.49	1757.16
235.70	1724.39
235.92	1791.97
236.14	1701.86
236.36	1822.69
236.58	1685.48
236.79	1710.05
237.01	1785.83
237.23	1746.92
237.45	1845.22
237.67	1658.85
237.88	1708.01
238.10	1757.16
238.32	1646.57
238.54	1746.92
238.76	1714.15
238.97	1652.71
239.19	1726.44
239.41	1734.63
239.63	1791.97
239.85	1712.10
240.06	1742.82
240.28	1683.43
240.50	1777.64
240.72	1734.63
240.93	1675.24
241.15	1794.02
241.37	1763.30
241.59	1763.30
241.81	1636.33
242.02	1642.47
242.24	1701.86
242.46	1724.39
242.68	1642.47
242.89	1746.92
243.11	1777.64
243.33	1732.58
243.55	1730.53
243.76	1677.29
243.98	1699.81
244.20	1673.19
244.42	1779.68
244.64	1697.77
244.85	1648.61
245.07	1652.71
245.29	1773.54
245.51	1726.44
245.72	1744.87
245.94	1734.63
246.16	1636.33
246.38	1716.20
246.59	1677.29
246.81	1665.00
247.03	1728.49
247.24	1609.70
247.46	1689.57
247.68	1697.77
247.90	1636.33
248.11	1648.61
248.33	1753.06
248.55	1736.68
248.77	1746.92
248.98	1726.44
249.20	1863.65
249.42	1740.77
249.64	1763.30
249.85	1734.63
250.07	1673.19
250.29	1669.09
250.50	1822.69
250.72	1611.75
250.94	1726.44
251.16	1834.98
251.37	1746.92
251.59	1685.48
251.81	1824.74
252.02	1757.16
252.24	1656.81
252.46	1740.77
252.68	1617.90
252.89	1656.81
253.11	1591.27
253.33	1753.06
253.54	1738.73
253.76	1656.81
253.98	1693.67
254.20	1816.55
254.41	1607.66
254.63	1697.77
254.85	1613.80
255.06	1677.29
255.28	1681.38
255.50	1738.73
255.71	1665.00
255.93	1595.37
256.15	1734.63
256.36	1789.92
256.58	1660.90
256.80	1751.01
257.02	1720.29
257.23	1708.01
257.45	1724.39
257.67	1791.97
257.88	1705.96
258.10	1710.05
258.32	1675.24
258.53	1769.44
258.75	1771.49
258.97	1636.33
259.18	1693.67
259.40	1753.06
259.62	1800.16
259.83	1773.54
260.05	1769.44
260.27	1990.63
260.48	1798.12
260.70	1628.14
260.92	1662.95
261.13	1759.21
261.35	1665.00
261.57	1837.03
261.78	1677.29
262.00	1701.86
262.22	1716.20
262.43	1697.77
262.65	1759.21
262.86	1703.91
263.08	1839.08
263.30	1675.24
263.51	1644.52
263.73	1677.29
263.95	1755.11
264.16	1634.28
264.38	1732.58
264.60	1681.38
264.81	1685.48
265.03	1779.68
265.25	1802.21
265.46	1748.97
265.68	1785.83
265.89	1697.77
266.11	1679.33
266.33	1839.08
266.54	1761.25
266.76	1738.73
266.98	1708.01
267.19	1806.31
267.41	1771.49
267.62	1755.11
267.84	1611.75
268.06	1730.53
268.27	1736.68
268.49	1771.49
268.70	1800.16
268.92	1779.68
269.14	1652.71
269.35	1634.28
269.57	1724.39
269.79	1755.11
270.00	1626.09
270.22	1826.79
270.43	1693.67
270.65	1583.08
270.87	1687.53
271.08	1787.88
271.30	1734.63
271.51	1771.49
271.73	1724.39
271.95	1708.01
272.16	1796.07
272.38	1742.82
272.59	1689.57
272.81	1755.11
273.02	1701.86
273.24	1771.49
273.46	1787.88
273.67	1703.91
273.89	1658.85
274.10	1660.90
274.32	1761.25
274.54	1765.35
274.75	1667.05
274.97	1656.81
275.18	1800.16
275.40	1751.01
275.61	1716.20
275.83	1722.34
276.05	1617.90
276.26	1654.76
276.48	1802.21
276.69	1695.72
276.91	1687.53
277.12	1796.07
277.34	1742.82
277.55	1757.16
277.77	1648.61
277.99	1611.75
278.20	1642.47
278.42	1646.57
278.63	1578.98
278.85	1681.38
279.06	1660.90
279.28	1603.56
279.49	1767.40
279.71	1742.82
279.93	1765.35
280.14	1695.72
280.36	1722.34
280.57	1818.60
280.79	1669.09
281.00	1599.46
281.22	1632.23
281.43	1701.86
281.65	1533.93
281.86	1742.82
282.08	1656.81
282.29	1773.54
282.51	1679.33
282.73	1613.80
282.94	1591.27
283.16	1755.11
283.37	1789.92
283.59	1722.34
283.80	1734.63
284.02	1652.71
284.23	1798.12
284.45	1638.38
284.66	1611.75
284.88	1742.82
285.09	1658.85
285.31	1693.67
285.52	1773.54
285.74	1673.19
285.95	1679.33
286.17	1751.01
286.38	1712.10
286.60	1677.29
286.81	1617.90
287.03	1632.23
287.24	1642.47
287.46	1746.92
287.67	1740.77
287.89	1841.12
288.10	1646.57
288.32	1738.73
288.53	1738.73
288.75	1783.78
288.96	1798.12
289.18	1720.29
289.39	1720.29
289.61	1730.53
289.82	1783.78
290.04	1830.88
290.25	1662.95
290.47	1679.33
290.68	1648.61
290.90	1783.78
291.11	1603.56
291.33	1789.92
291.54	1636.33
291.76	1714.15
291.97	1722.34
292.18	1669.09
292.40	1665.00
292.61	1683.43
292.83	1826.79
293.04	1791.97
293.26	1742.82
293.47	1726.44
293.69	1685.48
293.90	1689.57
294.12	1783.78
294.33	1763.30
294.55	1751.01
294.76	1804.26
294.97	1757.16
295.19	1814.50
295.40	1703.91
295.62	1685.48
295.83	1808.36
296.05	1748.97
296.26	1824.74
296.48	1658.85
296.69	1687.53
296.90	1748.97
297.12	1779.68
297.33	1714.15
297.55	1718.25
297.76	1761.25
297.98	1779.68
298.19	1699.81
298.41	1726.44
298.62	1796.07
298.83	1763.30
299.05	1681.38
299.26	1673.19
299.48	1710.05
299.69	1722.34
299.90	1658.85
300.12	1644.52
300.33	1779.68
300.55	1687.53
300.76	1759.21
300.98	1630.18
301.19	1675.24
301.40	1644.52
301.62	1673.19
301.83	1726.44
302.05	1714.15
302.26	1640.42
302.47	1681.38
302.69	1652.71
302.90	1779.68
303.12	1566.70
303.33	1720.29
303.54	1710.05
303.76	1722.34
303.97	1687.53
304.19	1767.40
304.40	1685.48
304.61	1769.44
304.83	1814.50
305.04	1806.31
305.26	1710.05
305.47	1648.61
305.68	1744.87
305.90	1685.48
306.11	1767.40
306.33	1656.81
306.54	1673.19
306.75	1683.43
306.97	1611.75
307.18	1644.52
307.39	1669.09
307.61	1826.79
307.82	1650.66
308.04	1787.88
308.25	1712.10
308.46	1726.44
308.68	1742.82
308.89	1656.81
309.10	1742.82
309.32	1697.77
309.53	1718.25
309.74	1767.40
309.96	1703.91
310.17	1771.49
310.39	1669.09
310.60	1777.64
310.81	1685.48
311.03	1624.04
311.24	1724.39
311.45	1753.06
311.67	1851.36
311.88	1667.05
312.09	1644.52
312.31	1601.51
312.52	1708.01
312.73	1687.53
312.95	1656.81
313.16	1654.76
313.37	1816.55
313.59	1732.58
313.80	1855.46
314.01	1810.40
314.23	1644.52
314.44	1716.20
314.65	1615.85
314.87	1662.95
315.08	1771.49
315.29	1687.53
315.51	1734.63
315.72	1669.09
315.93	1798.12
316.15	1796.07
316.36	1646.57
316.57	1724.39
316.79	1722.34
317.00	1720.29
317.21	1753.06
317.43	1720.29
317.64	1734.63
317.85	1646.57
318.07	1605.61
318.28	1738.73
318.49	1775.59
318.70	1994.72
318.92	1859.56
319.13	1796.07
319.34	1857.51
319.56	1775.59
319.77	1806.31
319.98	1867.75
320.20	1757.16
320.41	1730.53
320.62	1769.44
320.83	1660.90
321.05	1802.21
321.26	1716.20
321.47	1738.73
321.69	1806.31
321.90	1703.91
322.11	1748.97
322.32	1720.29
322.54	1748.97
322.75	1753.06
322.96	1796.07
323.18	1621.99
323.39	1624.04
323.60	1595.37
323.81	1777.64
324.03	1722.34
324.24	1734.63
324.45	1722.34
324.66	1701.86
324.88	1822.69
325.09	1798.12
325.30	1728.49
325.52	1773.54
325.73	1763.30
325.94	1632.23
326.15	1638.38
326.37	1648.61
326.58	1767.40
326.79	1734.63
327.00	1615.85
327.22	1693.67
327.43	1755.11
327.64	1656.81
327.85	1759.21
328.07	1734.63
328.28	1908.71
328.49	1695.72
328.70	1716.20
328.92	1693.67
329.13	1687.53
329.34	1718.25
329.55	1744.87
329.76	1824.74
329.98	1724.39
330.19	1783.78
330.40	1738.73
330.61	1761.25
330.83	1798.12
331.04	1644.52
331.25	1681.38
331.46	1636.33
331.68	1673.19
331.89	1738.73
332.10	1671.14
332.31	1642.47
332.52	1722.34
332.74	1834.98
332.95	1669.09
333.16	1648.61
333.37	1726.44
333.58	1689.57
333.80	1761.25
334.01	1589.22
334.22	1687.53
334.43	1722.34
334.64	1771.49
334.86	1681.38
335.07	1662.95
335.28	1742.82
335.49	1650.66
335.70	1699.81
335.92	1763.30
336.13	1877.99
336.34	1779.68
336.55	1673.19
336.76	1753.06
336.98	1644.52
337.19	1652.71
337.40	1787.88
337.61	1918.95
337.82	1665.00
338.04	1730.53
338.25	1642.47
338.46	1751.01
338.67	1732.58
338.88	1646.57
339.09	1605.61
339.31	1787.88
339.52	1669.09
339.73	1675.24
339.94	1734.63
340.15	1660.90
340.36	1703.91
340.58	1757.16
340.79	1708.01
341.00	1736.68
341.21	1701.86
341.42	1820.64
341.63	1642.47
341.85	1804.26
342.06	1761.25
342.27	1665.00
342.48	1753.06
342.69	1642.47
342.90	1718.25
343.12	1742.82
343.33	1681.38
343.54	1777.64
343.75	1808.36
343.96	1740.77
344.17	1650.66
344.38	1736.68
344.60	1611.75
344.81	1677.29
345.02	1716.20
345.23	1802.21
345.44	1740.77
345.65	1779.68
345.86	1691.62
346.07	1689.57
346.29	1677.29
346.50	1705.96
346.71	1669.09
346.92	1789.92
347.13	1800.16
347.34	1695.72
347.55	1714.15
347.76	1757.16
347.98	1648.61
348.19	1679.33
348.40	1724.39
348.61	1693.67
348.82	1837.03
349.03	1757.16
349.24	1697.77
349.45	1837.03
349.66	1648.61
349.88	1734.63
350.09	1632.23
350.30	1763.30
350.51	1767.40
350.72	1718.25
350.93	1746.92
351.14	1722.34
351.35	1673.19
351.56	1771.49
351.77	1685.48
351.99	1769.44
352.20	1734.63
352.41	1812.45
352.62	1675.24
352.83	1755.11
353.04	1667.05
353.25	1697.77
353.46	1783.78
353.67	1677.29
353.88	1662.95
354.09	1632.23
354.30	1705.96
354.52	1732.58
354.73	1691.62
354.94	1658.85
355.15	1738.73
355.36	1775.59
355.57	1626.09
355.78	1765.35
355.99	1689.57
356.20	1701.86
356.41	1804.26
356.62	1736.68
356.83	1667.05
357.04	1834.98
357.25	1683.43
357.46	1748.97
357.68	1673.19
357.89	1654.76
358.10	1705.96
358.31	1804.26
358.52	1730.53
358.73	1617.90
358.94	1642.47
359.15	1722.34
359.36	1771.49
359.57	1695.72
359.78	1677.29
359.99	1810.40
360.20	1671.14
360.41	1689.57
360.62	1775.59
360.83	1714.15
361.04	1685.48
361.25	1695.72
361.46	1800.16
361.67	1724.39
361.88	1773.54
362.09	1652.71
362.30	1658.85
362.51	1703.91
362.72	1722.34
362.93	1757.16
363.14	1693.67
363.35	1732.58
363.56	1687.53
363.78	1712.10
363.99	1708.01
364.20	1609.70
364.41	1755.11
364.62	1826.79
364.83	1759.21
365.04	1665.00
365.25	1701.86
365.46	1863.65
365.67	1689.57
365.88	1597.42
366.09	1724.39
366.30	1783.78
366.51	1689.57
366.72	1718.25
366.93	1712.10
367.14	1742.82
367.35	1761.25
367.56	1759.21
367.77	1763.30
367.98	1705.96
368.18	1753.06
368.39	1730.53
368.60	1714.15
368.81	1734.63
369.02	1742.82
369.23	1632.23
369.44	1609.70
369.65	1708.01
369.86	1695.72
370.07	1751.01
370.28	1685.48
370.49	1785.83
370.70	1755.11
370.91	1683.43
371.12	1619.94
371.33	1773.54
371.54	1722.34
371.75	1832.93
371.96	1607.66
372.17	1724.39
372.38	1722.34
372.59	1796.07
372.80	1671.14
373.01	1728.49
373.22	1751.01
373.43	1671.14
373.64	1605.61
373.85	1744.87
374.06	1861.60
374.26	1687.53
374.47	1765.35
374.68	1734.63
374.89	1746.92
375.10	1697.77
375.31	1765.35
375.52	1714.15
375.73	1730.53
375.94	1658.85
376.15	1822.69
376.36	1726.44
376.57	1626.09
376.78	1740.77
376.99	1703.91
377.20	1734.63
377.40	1691.62
377.61	1787.88
377.82	1632.23
378.03	1830.88
378.24	1765.35
378.45	1665.00
378.66	1771.49
378.87	1665.00
379.08	1632.23
379.29	1681.38
379.50	1789.92
379.71	1748.97
379.91	1755.11
380.12	1681.38
380.33	1701.86
380.54	1693.67
380.75	1705.96
380.96	1742.82
381.17	1697.77
381.38	1669.09
381.59	1734.63
381.80	1746.92
382.00	1843.17
382.21	1759.21
382.42	1814.50
382.63	1828.84
382.84	1779.68
383.05	1796.07
383.26	1775.59
383.47	1734.63
383.68	1775.59
383.88	1716.20
384.09	1738.73
384.30	1775.59
384.51	1796.07
384.72	1671.14
384.93	1667.05
385.14	1701.86
385.35	1828.84
385.55	1724.39
385.76	1779.68
385.97	1777.64
386.18	1693.67
386.39	1683.43
386.60	1728.49
386.81	1703.91
387.02	1722.34
387.22	1722.34
387.43	1759.21
387.64	1834.98
387.85	1849.32
388.06	2215.90
388.27	4190.14
388.48	6737.82
388.68	7876.49
388.89	9324.40
389.10	9596.78
389.31	8372.10
389.52	7364.50
389.73	6576.03
389.93	6061.99
390.14	5801.90
390.35	5113.78
390.56	4499.39
390.77	3786.69
390.98	2983.89
391.18	2445.27
391.39	2152.42
391.60	1800.16
391.81	1808.36
392.02	1771.49
392.23	1816.55
392.43	1708.01
392.64	1806.31
392.85	1665.00
393.06	1847.27
393.27	1738.73
393.47	1624.04
393.68	1689.57
393.89	1697.77
394.10	1832.93
394.31	1687.53
394.52	1652.71
394.72	1761.25
394.93	1826.79
395.14	1658.85
395.35	1667.05
395.56	1710.05
395.76	1822.69
395.97	1826.79
396.18	1857.51
396.39	1834.98
396.60	2056.16
396.80	1923.04
397.01	1888.23
397.22	1906.66
397.43	1855.46
397.64	1724.39
397.84	1796.07
398.05	1914.85
398.26	1742.82
398.47	1728.49
398.67	1857.51
398.88	1720.29
399.09	1808.36
399.30	1652.71
399.51	1724.39
399.71	1679.33
399.92	1732.58
400.13	1714.15
400.34	1650.66
400.54	1761.25
400.75	1830.88
400.96	1748.97
401.17	1816.55
401.37	1806.31
401.58	1767.40
401.79	1693.67
402.00	1865.70
402.21	1988.58
402.41	1892.32
402.62	2002.91
402.83	2009.06
403.04	1939.43
403.24	2052.06
403.45	1822.69
403.66	1918.95
403.87	1902.56
404.07	1966.05
404.28	1871.84
404.49	1890.28
404.70	1730.53
404.90	1732.58
405.11	1800.16
405.32	1697.77
405.52	1656.81
405.73	1669.09
405.94	1628.14
406.15	1667.05
406.35	1714.15
406.56	1740.77
406.77	1701.86
406.98	1765.35
407.18	1689.57
407.39	1775.59
407.60	1718.25
407.80	1685.48
408.01	1665.00
408.22	1742.82
408.43	1677.29
408.63	1753.06
408.84	1787.88
409.05	1783.78
409.25	1648.61
409.46	1665.00
409.67	1687.53
409.88	1619.94
410.08	1736.68
410.29	1658.85
410.50	1722.34
410.70	1775.59
410.91	1671.14
411.12	1775.59
411.32	1689.57
411.53	1681.38
411.74	1712.10
411.95	1804.26
412.15	1791.97
412.36	1746.92
412.57	1701.86
412.77	1861.60
412.98	1705.96
413.19	1757.16
413.39	1730.53
413.60	1781.73
413.81	1810.40
414.01	1753.06
414.22	1775.59
414.43	1742.82
414.63	1724.39
414.84	1761.25
415.05	1738.73
415.25	1593.32
415.46	1820.64
415.67	1728.49
415.87	1722.34
416.08	1769.44
416.29	1693.67
416.49	1757.16
416.70	1646.57
416.91	1746.92
417.11	1667.05
417.32	1783.78
417.53	1763.30
417.73	1642.47
417.94	1771.49
418.15	1779.68
418.35	1665.00
418.56	1767.40
418.77	1845.22
418.97	1777.64
419.18	1734.63
419.38	1638.38
419.59	1740.77
419.80	1828.84
420.00	1685.48
420.21	1728.49
420.42	1779.68
420.62	1683.43
420.83	1679.33
421.04	1691.62
421.24	1677.29
421.45	1732.58
421.65	1773.54
421.86	1716.20
422.07	1798.12
422.27	1738.73
422.48	1665.00
422.69	1673.19
422.89	1751.01
423.10	1736.68
423.30	1624.04
423.51	1605.61
423.72	1671.14
423.92	1746.92
424.13	1634.28
424.33	1746.92
424.54	1779.68
424.75	1765.35
424.95	1824.74
425.16	1730.53
425.36	1656.81
425.57	1794.02
425.78	1796.07
425.98	1810.40
426.19	1726.44
426.39	1648.61
426.60	1755.11
426.81	1722.34
427.01	1720.29
427.22	1703.91
427.42	1576.94
427.63	1691.62
427.83	1728.49
428.04	1716.20
428.25	1693.67
428.45	1820.64
428.66	1708.01
428.86	1708.01
429.07	1726.44
429.28	1689.57
429.48	1660.90
429.69	1705.96
429.89	1751.01
430.10	1609.70
430.30	1783.78
430.51	1783.78
430.71	1738.73
430.92	1646.57
431.13	1751.01
431.33	1738.73
431.54	1830.88
431.74	1800.16
431.95	1880.04
432.15	1716.20
432.36	1781.73
432.56	1767.40
432.77	1812.45
432.98	1802.21
433.18	1843.17
433.39	1673.19
433.59	1763.30
433.80	1886.18
434.00	1818.60
434.21	1665.00
434.41	1705.96
434.62	1857.51
434.82	1652.71
435.03	1632.23
435.23	1738.73
435.44	1656.81
435.64	1781.73
435.85	1777.64
436.06	1757.16
436.26	1816.55
436.47	1648.61
436.67	1679.33
436.88	1732.58
437.08	1777.64
437.29	1738.73
437.49	1757.16
437.70	1791.97
437.90	1751.01
438.11	1818.60
438.31	1781.73
438.52	1808.36
438.72	1773.54
438.93	1892.32
439.13	1757.16
439.34	1730.53
439.54	1861.60
439.75	1716.20
439.95	1877.99
440.16	1740.77
440.36	1740.77
440.57	1753.06
440.77	1759.21
440.98	1775.59
441.18	1751.01
441.39	1679.33
441.59	1765.35
441.80	1824.74
442.00	1763.30
442.21	1804.26
442.41	1634.28
442.62	1744.87
442.82	1689.57
443.02	1744.87
443.23	1734.63
443.43	1767.40
443.64	1791.97
443.84	1703.91
444.05	1851.36
444.25	1683.43
444.46	1669.09
444.66	1789.92
444.87	1826.79
445.07	1677.29
445.28	1693.67
445.48	1798.12
445.69	1861.60
445.89	1898.47
446.09	1789.92
446.30	2013.15
446.50	2537.43
446.71	3717.06
446.91	4179.90
447.12	4642.75
447.32	4638.65
447.53	4272.06
447.73	3723.21
447.93	3502.03
448.14	3248.08
448.34	3127.25
448.55	2815.96
448.75	2885.59
448.96	2635.74
449.16	2344.92
449.36	2357.21
449.57	2107.36
449.77	1853.41
449.98	1726.44
450.18	1888.23
450.39	1822.69
450.59	1794.02
450.79	1701.86
451.00	1724.39
451.20	1804.26
451.41	1800.16
451.61	1681.38
451.81	1734.63
452.02	1763.30
452.22	1742.82
452.43	1650.66
452.63	1677.29
452.84	1757.16
453.04	1736.68
453.24	1720.29
453.45	1695.72
453.65	1771.49
453.86	1832.93
454.06	1771.49
454.26	1781.73
454.47	1777.64
454.67	1888.23
454.87	1742.82
455.08	1714.15
455.28	1837.03
455.49	1751.01
455.69	1753.06
455.89	1861.60
456.10	1791.97
456.30	1683.43
456.51	1701.86
456.71	1798.12
456.91	1724.39
457.12	1759.21
457.32	1816.55
457.52	1624.04
457.73	1806.31
457.93	1791.97
458.14	1755.11
458.34	1630.18
458.54	1685.48
458.75	1691.62
458.95	1810.40
459.15	1730.53
459.36	1695.72
459.56	1763.30
459.76	1875.94
459.97	1791.97
460.17	1775.59
460.37	1814.50
460.58	1757.16
460.78	1732.58
460.99	1753.06
461.19	1779.68
461.39	1718.25
461.60	1703.91
461.80	1785.83
462.00	1613.80
462.21	1720.29
462.41	1679.33
462.61	1689.57
462.82	1617.90
463.02	1726.44
463.22	1697.77
463.43	1828.84
463.63	1755.11
463.83	1824.74
464.04	1748.97
464.24	1748.97
464.44	1669.09
464.64	1818.60
464.85	1877.99
465.05	1865.70
465.25	1839.08
465.46	1736.68
465.66	1767.40
465.86	1757.16
466.07	1757.16
466.27	1714.15
466.47	1638.38
466.68	1769.44
466.88	1898.47
467.08	1720.29
467.29	1705.96
467.49	1789.92
467.69	1826.79
467.89	1783.78
468.10	1693.67
468.30	1726.44
468.50	1738.73
468.71	1775.59
468.91	1634.28
469.11	1810.40
469.31	1710.05
469.52	1679.33
469.72	1787.88
469.92	1880.04
470.13	1722.34
470.33	1695.72
470.53	1773.54
470.73	2043.87
470.94	2369.50
471.14	2312.16
471.34	2510.81
471.54	2381.79
471.75	2195.42
471.95	2154.46
472.15	2150.37
472.36	2078.69
472.56	2078.69
472.76	2025.44
472.96	2064.35
473.17	1949.67
473.37	1939.43
473.57	1771.49
473.77	1757.16
473.98	1847.27
474.18	1718.25
474.38	1884.13
474.58	1783.78
474.79	1665.00
474.99	1753.06
475.19	1779.68
475.39	1648.61
475.60	1755.11
475.80	1751.01
476.00	1718.25
476.20	1746.92
476.41	1710.05
476.61	1849.32
476.81	1822.69
477.01	1677.29
477.21	1886.18
477.42	1783.78
477.62	1660.90
477.82	1832.93
478.02	1783.78
478.23	1802.21
478.43	1656.81
478.63	1712.10
478.83	1710.05
479.03	1742.82
479.24	1763.30
479.44	1861.60
479.64	1701.86
479.84	1632.23
480.04	1667.05
480.25	1804.26
480.45	1705.96
480.65	1746.92
480.85	1816.55
481.06	1738.73
481.26	1740.77
481.46	1748.97
481.66	1718.25
481.86	1601.51
482.06	1800.16
482.27	1656.81
482.47	1740.77
482.67	1730.53
482.87	1677.29
483.07	1791.97
483.28	1697.77
483.48	1660.90
483.68	1671.14
483.88	1665.00
484.08	1585.13
484.29	1660.90
484.49	1761.25
484.69	1683.43
484.89	1820.64
485.09	1738.73
485.29	1728.49
485.50	1751.01
485.70	1718.25
485.90	1800.16
486.10	1763.30
486.30	1771.49
486.50	1843.17
486.71	1712.10
486.91	1810.40
487.11	1757.16
487.31	1693.67
487.51	1746.92
487.71	1687.53
487.91	1701.86
488.12	1626.09
488.32	1601.51
488.52	1660.90
488.72	1665.00
488.92	1738.73
489.12	1742.82
489.32	1822.69
489.53	1763.30
489.73	1589.22
489.93	1796.07
490.13	1652.71
490.33	1667.05
490.53	1759.21
490.73	1718.25
490.94	1667.05
491.14	1822.69
491.34	1800.16
491.54	2052.06
491.74	2459.61
491.94	2793.43
492.14	3037.14
492.34	2951.12
492.54	2672.60
492.75	2447.32
492.95	2467.80
493.15	2301.92
493.35	2334.68
493.55	2166.75
493.75	2136.03
493.95	2101.22
494.15	1964.00
494.35	1900.52
494.56	1871.84
494.76	1691.62
494.96	1753.06
495.16	1812.45
495.36	1796.07
495.56	1746.92
495.76	1816.55
495.96	1708.01
496.16	1730.53
496.36	1867.75
496.56	1810.40
496.77	1775.59
496.97	1716.20
497.17	1855.46
497.37	1691.62
497.57	1730.53
497.77	1718.25
497.97	1693.67
498.17	1714.15
498.37	1765.35
498.57	1636.33
498.77	1738.73
498.97	1839.08
499.17	1853.41
499.38	1748.97
499.58	1732.58
499.78	1771.49
499.98	1804.26
500.18	1679.33
500.38	1695.72
500.58	1923.04
500.78	2576.34
500.98	4513.72
501.18	5748.65
501.38	6412.19
501.58	6852.50
501.78	6518.68
501.98	5488.56
502.18	4900.79
502.38	4200.38
502.58	4003.78
502.78	3753.93
502.98	3606.47
503.18	3444.68
503.38	3069.91
503.59	2840.53
503.79	2543.58
503.99	2439.13
504.19	2281.44
504.39	2230.24
504.59	2103.26
504.79	2045.92
504.99	2013.15
505.19	1906.66
505.39	1884.13
505.59	1908.71
505.79	1912.80
505.99	1837.03
506.19	1785.83
506.39	1894.37
506.59	1740.77
506.79	1789.92
506.99	1742.82
507.19	1771.49
507.39	1816.55
507.59	1757.16
507.79	1722.34
507.99	1662.95
508.19	1808.36
508.39	1710.05
508.59	1777.64
508.79	1843.17
508.99	1828.84
509.19	1665.00
509.39	1769.44
509.59	1687.53
509.79	1722.34
509.99	1802.21
510.19	1767.40
510.39	1802.21
510.59	1789.92
510.79	1763.30
510.99	1615.85
511.19	1759.21
511.39	1859.56
511.59	1859.56
511.79	1839.08
511.99	1791.97
512.19	1832.93
512.38	1787.88
512.58	1691.62
512.78	1759.21
512.98	1740.77
513.18	1830.88
513.38	1710.05
513.58	1830.88
513.78	1703.91
513.98	1746.92
514.18	1703.91
514.38	1728.49
514.58	1726.44
514.78	1660.90
514.98	1681.38
515.18	1783.78
515.38	1677.29
515.58	1822.69
515.78	1728.49
515.98	1677.29
516.18	1802.21
516.38	1734.63
516.57	1787.88
516.77	1701.86
516.97	1843.17
517.17	1671.14
517.37	1624.04
517.57	1812.45
517.77	1718.25
517.97	1703.91
518.17	1775.59
518.37	1724.39
518.57	1755.11
518.77	1703.91
518.97	1775.59
519.16	1759.21
519.36	1877.99
519.56	1705.96
519.76	1697.77
519.96	1779.68
520.16	1744.87
520.36	1759.21
520.56	1779.68
520.76	1693.67
520.96	1736.68
521.16	1726.44
521.35	1791.97
521.55	1880.04
521.75	1748.97
521.95	1640.42
522.15	1746.92
522.35	1675.24
522.55	1714.15
522.75	1796.07
522.95	1695.72
523.14	1658.85
523.34	1794.02
523.54	1744.87
523.74	1796.07
523.94	1751.01
524.14	1742.82
524.34	1769.44
524.54	1773.54
524.73	1718.25
524.93	1730.53
525.13	1781.73
525.33	1648.61
525.53	1908.71
525.73	1800.16
525.93	1806.31
526.13	1751.01
526.32	1681.38
526.52	1818.60
526.72	1849.32
526.92	1710.05
527.12	1777.64
527.32	1642.47
527.52	1802.21
527.71	1769.44
527.91	1732.58
528.11	1695.72
528.31	1728.49
528.51	1679.33
528.71	1843.17
528.90	1800.16
529.10	1822.69
529.30	1759.21
529.50	1699.81
529.70	1734.63
529.90	1732.58
530.09	1755.11
530.29	1640.42
530.49	1654.76
530.69	1882.08
530.89	1779.68
531.09	1830.88
531.28	1746.92
531.48	1785.83
531.68	1761.25
531.88	1742.82
532.08	1806.31
532.28	1738.73
532.47	1779.68
532.67	1845.22
532.87	1806.31
533.07	1701.86
533.27	1794.02
533.46	1765.35
533.66	1736.68
533.86	1718.25
534.06	1644.52
534.26	1759.21
534.45	1796.07
534.65	1802.21
534.85	1769.44
535.05	1693.67
535.25	1677.29
535.44	1624.04
535.64	1746.92
535.84	1726.44
536.04	1777.64
536.24	1669.09
536.43	1751.01
536.63	1746.92
536.83	1697.77
537.03	1716.20
537.22	1708.01
537.42	1642.47
537.62	1800.16
537.82	1710.05
538.02	1789.92
538.21	1818.60
538.41	1918.95
538.61	1775.59
538.81	1708.01
539.00	1767.40
539.20	1693.67
539.40	1748.97
539.60	1779.68
539.79	1791.97
539.99	1734.63
540.19	1789.92
540.39	1806.31
540.58	1806.31
540.78	1865.70
540.98	1718.25
541.18	1730.53
541.37	1738.73
541.57	1818.60
541.77	1714.15
541.97	1699.81
542.16	1656.81
542.36	1738.73
542.56	1712.10
542.76	1859.56
542.95	1806.31
543.15	1789.92
543.35	1765.35
543.54	1644.52
543.74	1730.53
543.94	1814.50
544.14	1697.77
544.33	1751.01
544.53	1814.50
544.73	1720.29
544.93	1722.34
545.12	1730.53
545.32	1759.21
545.52	1646.57
545.71	1695.72
545.91	1714.15
546.11	1738.73
546.30	1728.49
546.50	1742.82
546.70	1705.96
546.90	1777.64
547.09	1603.56
547.29	1775.59
547.49	1720.29
547.68	1798.12
547.88	1650.66
548.08	1761.25
548.27	2205.66
548.47	1710.05
548.67	1710.05
548.87	1839.08
549.06	1710.05
549.26	1757.16
549.46	1812.45
549.65	1732.58
549.85	1765.35
550.05	1708.01
550.24	1710.05
550.44	1718.25
550.64	1855.46
550.83	1798.12
551.03	1767.40
551.23	1783.78
551.42	1767.40
551.62	1763.30
551.82	1728.49
552.01	1718.25
552.21	1818.60
552.41	1748.97
552.60	1798.12
552.80	1765.35
553.00	1775.59
553.19	1757.16
553.39	1830.88
553.59	1689.57
553.78	1789.92
553.98	1746.92
554.17	1728.49
554.37	1791.97
554.57	1845.22
554.76	1689.57
554.96	1742.82
555.16	1800.16
555.35	1738.73
555.55	1746.92
555.75	1695.72
555.94	1787.88
556.14	1671.14
556.33	1705.96
556.53	1781.73
556.73	1732.58
556.92	1703.91
557.12	1820.64
557.32	1849.32
557.51	1810.40
557.71	1746.92
557.90	1765.35
558.10	1806.31
558.30	1757.16
558.49	1726.44
558.69	1720.29
558.88	1726.44
559.08	1837.03
559.28	1783.78
559.47	1718.25
559.67	1718.25
559.86	1910.75
560.06	1759.21
560.26	1679.33
560.45	1755.11
560.65	1697.77
560.84	1886.18
561.04	1699.81
561.24	1767.40
561.43	1658.85
561.63	1898.47
561.82	1697.77
562.02	1791.97
562.22	1662.95
562.41	1675.24
562.61	1732.58
562.80	1716.20
563.00	1877.99
563.19	1775.59
563.39	1791.97
563.59	1728.49
563.78	1675.24
563.98	1632.23
564.17	1683.43
564.37	1683.43
564.56	1767.40
564.76	1753.06
564.96	1714.15
565.15	1677.29
565.35	1920.99
565.54	1646.57
565.74	1779.68
565.93	1763.30
566.13	1765.35
566.32	1650.66
566.52	1742.82
566.71	1732.58
566.91	1779.68
567.11	1753.06
567.30	1705.96
567.50	1757.16
567.69	1800.16
567.89	1710.05
568.08	1712.10
568.28	1753.06
568.47	1691.62
568.67	1734.63
568.86	1722.34
569.06	1828.84
569.25	1728.49
569.45	1667.05
569.64	1800.16
569.84	1722.34
570.04	1742.82
570.23	1701.86
570.43	1740.77
570.62	1818.60
570.82	1886.18
571.01	1685.48
571.21	1724.39
571.40	1638.38
571.60	1779.68
571.79	1771.49
571.99	1773.54
572.18	1734.63
572.38	1812.45
572.57	1736.68
572.77	1781.73
572.96	1875.94
573.16	1746.92
573.35	1722.34
573.55	1806.31
573.74	1771.49
573.94	1699.81
574.13	1703.91
574.33	1812.45
574.52	1798.12
574.71	1701.86
574.91	1720.29
575.10	1621.99
575.30	1742.82
575.49	1693.67
575.69	1759.21
575.88	1802.21
576.08	1742.82
576.27	1771.49
576.47	1763.30
576.66	1849.32
576.86	1773.54
577.05	1742.82
577.25	1783.78
577.44	1855.46
577.64	1691.62
577.83	1820.64
578.02	1748.97
578.22	1796.07
578.41	1816.55
578.61	1718.25
578.80	1736.68
579.00	1748.97
579.19	1751.01
579.39	1796.07
579.58	1796.07
579.77	1769.44
579.97	1937.38
580.16	1871.84
580.36	1822.69
580.55	1757.16
580.75	1740.77
580.94	1738.73
581.13	1834.98
581.33	1775.59
581.52	1757.16
581.72	1832.93
581.91	1888.23
582.11	1753.06
582.30	1724.39
582.49	1748.97
582.69	1865.70
582.88	1751.01
583.08	1728.49
583.27	1830.88
583.47	1748.97
583.66	1716.20
583.85	1773.54
584.05	1718.25
584.24	1849.32
584.44	1902.56
584.63	1820.64
584.82	1812.45
585.02	1861.60
585.21	1877.99
585.41	1865.70
585.60	1804.26
585.79	1912.80
585.99	1877.99
586.18	1789.92
586.37	2242.53
586.57	3293.13
586.76	9490.29
586.96	23471.77
587.15	33338.88
587.34	38989.23
587.54	40734.10
587.73	35423.72
587.93	25153.15
588.12	20653.76
588.31	17800.94
588.51	15664.91
588.70	14522.15
588.89	13659.95
589.09	12332.87
589.28	10628.96
589.47	8959.86
589.67	7757.71
589.86	6240.16
590.06	4806.58
590.25	3827.65
590.44	2987.99
590.64	2557.91
590.83	2207.71
591.02	2148.32
591.22	1871.84
591.41	2009.06
591.60	1783.78
591.80	1943.52
591.99	1703.91
592.18	1818.60
592.38	1839.08
592.57	1800.16
592.76	1810.40
592.96	1746.92
593.15	1855.46
593.34	1804.26
593.54	1757.16
593.73	1916.90
593.92	1824.74
594.12	1798.12
594.31	1736.68
594.50	1802.21
594.70	1736.68
594.89	1824.74
595.08	1703.91
595.28	1763.30
595.47	1935.33
595.66	1787.88
595.86	1673.19
596.05	1740.77
596.24	1703.91
596.43	1892.32
596.63	1757.16
596.82	1722.34
597.01	1736.68
597.21	1812.45
597.40	1783.78
597.59	1720.29
597.79	1748.97
597.98	1798.12
598.17	1712.10
598.36	1783.78
598.56	1703.91
598.75	1697.77
598.94	1753.06
599.14	1734.63
599.33	1705.96
599.52	1744.87
599.71	1822.69
599.91	1849.32
600.10	1796.07
600.29	1720.29
600.48	1722.34
600.68	1734.63
600.87	1812.45
601.06	1712.10
601.26	1802.21
601.45	1812.45
601.64	1777.64
601.83	1808.36
602.03	1736.68
602.22	1746.92
602.41	1804.26
602.60	1871.84
602.80	1748.97
602.99	1775.59
603.18	1703.91
603.37	1695.72
603.57	1669.09
603.76	1773.54
603.95	1779.68
604.14	1720.29
604.34	1705.96
604.53	1697.77
604.72	1802.21
604.91	1757.16
605.10	1785.83
605.30	1634.28
605.49	1853.41
605.68	1773.54
605.87	1767.40
606.07	1691.62
606.26	1738.73
606.45	1787.88
606.64	1804.26
606.84	1708.01
607.03	1730.53
607.22	1783.78
607.41	1775.59
607.60	1703.91
607.80	1816.55
607.99	1769.44
608.18	1673.19
608.37	1806.31
608.56	1646.57
608.76	1818.60
608.95	1822.69
609.14	1744.87
609.33	1744.87
609.52	1822.69
609.72	1726.44
609.91	1789.92
610.10	1771.49
610.29	1933.28
610.48	1767.40
610.68	1800.16
610.87	1675.24
611.06	1722.34
611.25	1800.16
611.44	1769.44
611.63	1671.14
611.83	1794.02
612.02	1724.39
612.21	1816.55
612.40	1621.99
612.59	1605.61
612.79	1607.66
612.98	1732.58
613.17	1824.74
613.36	1773.54
613.55	1779.68
613.74	1673.19
613.93	1771.49
614.13	1822.69
614.32	1728.49
614.51	1705.96
614.70	1685.48
614.89	1665.00
615.08	1787.88
615.28	2000.87
615.47	1581.03
615.66	1689.57
615.85	1669.09
616.04	1859.56
616.23	1652.71
616.42	1683.43
616.62	1642.47
616.81	1753.06
617.00	1722.34
617.19	1804.26
617.38	1708.01
617.57	1763.30
617.76	1783.78
617.95	1755.11
618.15	1837.03
618.34	1906.66
618.53	1681.38
618.72	1796.07
618.91	1824.74
619.10	1837.03
619.29	1691.62
619.48	1720.29
619.68	1712.10
619.87	1767.40
620.06	1609.70
620.25	1841.12
620.44	1738.73
620.63	1789.92
620.82	1742.82
621.01	1791.97
621.20	1761.25
621.39	1685.48
621.59	1736.68
621.78	1714.15
621.97	1759.21
622.16	1822.69
622.35	1724.39
622.54	1837.03
622.73	1812.45
622.92	1705.96
623.11	1757.16
623.30	1734.63
623.49	1769.44
623.68	1656.81
623.88	1828.84
624.07	1693.67
624.26	1724.39
624.45	1697.77
624.64	1714.15
624.83	1781.73
625.02	1617.90
625.21	1644.52
625.40	1794.02
625.59	1753.06
625.78	1771.49
625.97	1732.58
626.16	1753.06
626.35	1861.60
626.54	1779.68
626.74	1794.02
626.93	1644.52
627.12	1718.25
627.31	1787.88
627.50	1787.88
627.69	1814.50
627.88	1744.87
628.07	1806.31
628.26	1611.75
628.45	1753.06
628.64	1642.47
628.83	1693.67
629.02	1689.57
629.21	1814.50
629.40	1746.92
629.59	1626.09
629.78	1720.29
629.97	1736.68
630.16	1775.59
630.35	1728.49
630.54	1783.78
630.73	1687.53
630.92	1699.81
631.11	1650.66
631.30	1779.68
631.49	1771.49
631.68	1742.82
631.87	1736.68
632.06	1681.38
632.25	1859.56
632.44	1687.53
632.63	1726.44
632.82	1703.91
633.01	1621.99
633.20	1660.90
633.39	1609.70
633.58	1597.42
633.77	1775.59
633.96	1689.57
634.15	1705.96
634.34	1777.64
634.53	1712.10
634.72	1669.09
634.91	1685.48
635.10	1734.63
635.29	1791.97
635.48	1716.20
635.67	1636.33
635.86	1660.90
636.05	1783.78
636.24	1757.16
636.43	1759.21
636.62	1742.82
636.81	1638.38
637.00	1828.84
637.19	1763.30
637.38	1720.29
637.57	1673.19
637.76	1724.39
637.95	1818.60
638.14	1708.01
638.33	1697.77
638.52	1714.15
638.71	1671.14
638.89	1665.00
639.08	1837.03
639.27	1779.68
639.46	1746.92
639.65	1740.77
639.84	1718.25
640.03	1845.22
640.22	1673.19
640.41	1882.08
640.60	1656.81
640.79	1722.34
640.98	1722.34
641.17	1767.40
641.36	1650.66
641.55	1746.92
641.74	1722.34
641.92	1718.25
642.11	1632.23
642.30	1701.86
642.49	1671.14
642.68	1710.05
642.87	1730.53
643.06	1753.06
643.25	1767.40
643.44	1665.00
643.63	1726.44
643.82	1728.49
644.00	1660.90
644.19	1699.81
644.38	1765.35
644.57	1779.68
644.76	1820.64
644.95	1689.57
645.14	1703.91
645.33	1726.44
645.52	1730.53
645.71	1665.00
645.89	1660.90
646.08	1722.34
646.27	1685.48
646.46	1920.99
646.65	1687.53
646.84	1738.73
647.03	1710.05
647.22	1849.32
647.40	1703.91
647.59	1705.96
647.78	1673.19
647.97	1673.19
648.16	1708.01
648.35	1771.49
648.54	1841.12
648.73	1712.10
648.91	1769.44
649.10	1742.82
649.29	1703.91
649.48	1716.20
649.67	1761.25
649.86	1734.63
650.05	1691.62
650.23	1783.78
650.42	1703.91
650.61	1794.02
650.80	1746.92
650.99	1796.07
651.18	1789.92
651.36	1787.88
651.55	1689.57
651.74	1810.40
651.93	1679.33
652.12	1714.15
652.31	1628.14
652.49	1691.62
652.68	1708.01
652.87	1796.07
653.06	1728.49
653.25	1779.68
653.44	1734.63
653.62	1820.64
653.81	1679.33
654.00	1796.07
654.19	1720.29
654.38	1869.80
654.56	1800.16
654.75	1677.29
654.94	1767.40
655.13	1648.61
655.32	1708.01
655.51	1716.20
655.69	1679.33
655.88	1806.31
656.07	1617.90
656.26	1794.02
656.45	1710.05
656.63	1724.39
656.82	1832.93
657.01	1787.88
657.20	1724.39
657.38	1765.35
657.57	1642.47
657.76	1581.03
657.95	1804.26
658.14	1673.19
658.32	1781.73
658.51	1716.20
658.70	1812.45
658.89	1724.39
659.08	1773.54
659.26	1787.88
659.45	1681.38
659.64	1757.16
659.83	1689.57
660.01	1951.71
660.20	1726.44
660.39	1798.12
660.58	1634.28
660.76	1730.53
660.95	1660.90
661.14	1748.97
661.33	1593.32
661.51	1626.09
661.70	1734.63
661.89	1767.40
662.08	1748.97
662.26	1535.98
662.45	1644.52
662.64	1841.12
662.83	1800.16
663.01	1679.33
663.20	1761.25
663.39	1759.21
663.58	1687.53
663.76	1773.54
663.95	1837.03
664.14	1671.14
664.32	1720.29
664.51	1730.53
664.70	1591.27
664.89	1730.53
665.07	1720.29
665.26	1765.35
665.45	1671.14
665.64	1755.11
665.82	1650.66
666.01	1755.11
666.20	1689.57
666.38	1873.89
666.57	1804.26
666.76	2136.03
666.95	4491.20
667.13	10227.56
667.32	14839.58
667.51	17346.30
667.69	18362.09
667.88	17010.43
668.07	11784.01
668.25	9340.79
668.44	7839.62
668.63	7120.79
668.81	6651.80
669.00	6102.95
669.19	5478.32
669.38	5060.53
669.56	4569.02
669.75	3870.66
669.94	3332.05
670.12	2863.06
670.31	2492.38
670.50	2332.64
670.68	2004.96
670.87	1873.89
671.06	1818.60
671.24	1812.45
671.43	1765.35
671.62	1730.53
671.80	1699.81
671.99	1751.01
672.18	1751.01
672.36	1753.06
672.55	1767.40
672.74	1695.72
672.92	1732.58
673.11	1759.21
673.29	1679.33
673.48	1796.07
673.67	1796.07
673.85	1822.69
674.04	1669.09
674.23	1736.68
674.41	1882.08
674.60	1716.20
674.79	1650.66
674.97	1675.24
675.16	1712.10
675.34	1832.93
675.53	1714.15
675.72	1791.97
675.90	1796.07
676.09	1642.47
676.28	1712.10
676.46	1714.15
676.65	1718.25
676.83	1675.24
677.02	1648.61
677.21	1722.34
677.39	1736.68
677.58	1703.91
677.77	1728.49
677.95	1683.43
678.14	1730.53
678.32	1765.35
678.51	1601.51
678.70	1810.40
678.88	1761.25
679.07	1736.68
679.25	1787.88
679.44	1759.21
679.63	1615.85
679.81	1746.92
680.00	1818.60
680.18	1738.73
680.37	1789.92
680.55	1724.39
680.74	1718.25
680.93	1640.42
681.11	1728.49
681.30	1646.57
681.48	1757.16
681.67	1687.53
681.85	1691.62
682.04	1722.34
682.23	1751.01
682.41	1703.91
682.60	1644.52
682.78	1724.39
682.97	1665.00
683.15	1675.24
683.34	1701.86
683.53	1771.49
683.71	1720.29
683.90	1845.22
684.08	1767.40
684.27	1722.34
684.45	1687.53
684.64	1802.21
684.82	1771.49
685.01	1769.44
685.19	1746.92
685.38	1759.21
685.57	1734.63
685.75	1685.48
685.94	1701.86
686.12	1685.48
686.31	1746.92
686.49	1798.12
686.68	1636.33
686.86	1787.88
687.05	1650.66
687.23	1763.30
687.42	1759.21
687.60	1683.43
687.79	1708.01
687.97	1816.55
688.16	1839.08
688.34	1822.69
688.53	1619.94
688.71	1753.06
688.90	1804.26
689.08	1722.34
689.27	1593.32
689.45	1665.00
689.64	1691.62
689.82	1714.15
690.01	1716.20
690.19	1712.10
690.38	1701.86
690.56	1800.16
690.75	1689.57
690.93	1722.34
691.12	1695.72
691.30	1705.96
691.49	1673.19
691.67	1746.92
691.86	1839.08
692.04	1722.34
692.23	1652.71
692.41	1746.92
692.60	1828.84
692.78	1783.78
692.97	1693.67
693.15	1695.72
693.34	1847.27
693.52	1812.45
693.71	1697.77
693.89	1671.14
694.08	1640.42
694.26	1877.99
694.44	1765.35
694.63	1650.66
694.81	1697.77
695.00	1619.94
695.18	1832.93
695.37	1814.50
695.55	1710.05
695.74	1720.29
695.92	1609.70
696.10	1722.34
696.29	1599.46
696.47	1665.00
696.66	1671.14
696.84	1681.38
697.03	1665.00
697.21	1832.93
697.40	2340.83
697.58	1863.65
697.76	1732.58
697.95	1683.43
698.13	1583.08
698.32	1687.53
698.50	1699.81
698.68	1785.83
698.87	1675.24
699.05	1810.40
699.24	1697.77
699.42	1720.29
699.61	1646.57
699.79	1699.81
699.97	1755.11
700.16	1691.62
700.34	1628.14
700.53	1746.92
700.71	1804.26
700.89	1748.97
701.08	1755.11
701.26	1714.15
701.45	2148.32
701.63	1630.18
701.81	1746.92
702.00	1685.48
702.18	1691.62
702.37	1708.01
702.55	1687.53
702.73	1724.39
702.92	1658.85
703.10	1728.49
703.28	1767.40
703.47	1640.42
703.65	1740.77
703.84	1779.68
704.02	1675.24
704.20	1871.84
704.39	1640.42
704.57	1626.09
704.75	1787.88
704.94	1800.16
705.12	1773.54
705.30	1767.40
705.49	2336.73
705.67	4378.56
705.86	9246.58
706.04	12130.12
706.22	14014.25
706.41	15083.29
706.59	13182.77
706.77	9148.28
706.96	7249.81
707.14	6395.81
707.32	5699.50
707.51	5291.95
707.69	4642.75
707.87	4089.79
708.06	3465.16
708.24	2832.34
708.42	2275.29
708.61	2226.14
708.79	1939.43
708.97	1751.01
709.16	1849.32
709.34	1789.92
709.52	1714.15
709.71	1773.54
709.89	1804.26
710.07	1710.05
710.26	1660.90
710.44	1689.57
710.62	1683.43
710.80	1693.67
710.99	1775.59
711.17	1806.31
711.35	1646.57
711.54	1691.62
711.72	1742.82
711.90	1669.09
712.09	1771.49
712.27	1722.34
712.45	1710.05
712.63	1691.62
712.82	1693.67
713.00	1808.36
713.18	1630.18
713.37	1712.10
713.55	1804.26
713.73	1759.21
713.91	1744.87
714.10	1738.73
714.28	1693.67
714.46	1742.82
714.65	1742.82
714.83	1703.91
715.01	1732.58
715.19	1746.92
715.38	1687.53
715.56	1718.25
715.74	1662.95
715.92	1611.75
716.11	1767.40
716.29	1609.70
716.47	1679.33
716.65	1736.68
716.84	1632.23
717.02	1755.11
717.20	1640.42
717.38	1685.48
717.57	1794.02
717.75	1746.92
717.93	1697.77
718.11	1736.68
718.30	1642.47
718.48	1759.21
718.66	1757.16
718.84	1677.29
719.03	1656.81
719.21	1626.09
719.39	1734.63
719.57	1648.61
719.75	1814.50
719.94	1703.91
720.12	1740.77
720.30	1693.67
720.48	1697.77
720.67	1689.57
720.85	1746.92
721.03	1675.24
721.21	1755.11
721.39	1763.30
721.58	1765.35
721.76	1716.20
721.94	1775.59
722.12	1732.58
722.30	1767.40
722.49	1652.71
722.67	1667.05
722.85	1775.59
723.03	1654.76
723.21	1658.85
723.40	1693.67
723.58	1748.97
723.76	1771.49
723.94	1656.81
724.12	1781.73
724.30	1746.92
724.49	1746.92
724.67	1628.14
724.85	1812.45
725.03	1665.00
725.21	1767.40
725.40	1720.29
725.58	1630.18
725.76	1843.17
725.94	1693.67
726.12	1691.62
726.30	1775.59
726.49	1685.48
726.67	1787.88
726.85	1759.21
727.03	1806.31
727.21	2217.95
727.39	2936.79
727.57	3774.41
727.76	4052.93
727.94	4478.91
728.12	4224.96
728.30	3618.76
728.48	2983.89
728.66	2625.50
728.84	2525.15
729.03	2240.48
729.21	2127.84
729.39	1918.95
729.57	1853.41
729.75	1753.06
729.93	1818.60
730.11	1675.24
730.30	1773.54
730.48	1626.09
730.66	1800.16
730.84	1802.21
731.02	1708.01
731.20	1757.16
731.38	1701.86
731.56	1722.34
731.74	1624.04
731.93	1751.01
732.11	1800.16
732.29	1751.01
732.47	1703.91
732.65	1755.11
732.83	1804.26
733.01	1771.49
733.19	1699.81
733.37	1701.86
733.56	1742.82
733.74	1685.48
733.92	1794.02
734.10	1710.05
734.28	1751.01
734.46	1593.32
734.64	1714.15
734.82	1800.16
735.00	1738.73
735.18	1738.73
735.36	1691.62
735.54	1765.35
735.73	1789.92
735.91	1724.39
736.09	1662.95
736.27	1714.15
736.45	1728.49
736.63	1589.22
736.81	1644.52
736.99	1845.22
737.17	1779.68
737.35	1728.49
737.53	1716.20
737.71	1667.05
737.89	1800.16
738.07	1660.90
738.25	1662.95
738.43	1652.71
738.61	1716.20
738.80	1636.33
738.98	1673.19
739.16	1718.25
739.34	1656.81
739.52	1812.45
739.70	1708.01
739.88	1804.26
740.06	1802.21
740.24	1603.56
740.42	1832.93
740.60	1607.66
740.78	1708.01
740.96	1609.70
741.14	1728.49
741.32	1697.77
741.50	1595.37
741.68	1898.47
741.86	1761.25
742.04	1650.66
742.22	1742.82
742.40	1765.35
742.58	1765.35
742.76	1693.67
742.94	1722.34
743.12	1665.00
743.30	1740.77
743.48	1755.11
743.66	1662.95
743.84	1816.55
744.02	1683.43
744.20	1705.96
744.38	1669.09
744.56	1736.68
744.74	1753.06
744.92	1720.29
745.10	1765.35
745.28	1724.39
745.46	1775.59
745.64	1671.14
745.82	1736.68
746.00	1734.63
746.18	1726.44
746.36	1677.29
746.54	1683.43
746.72	1683.43
746.90	1691.62
747.08	1802.21
747.26	1720.29
747.44	1722.34
747.62	1728.49
747.80	1738.73
747.98	1794.02
748.15	1628.14
748.33	1748.97
748.51	1646.57
748.69	1742.82
748.87	1726.44
749.05	1636.33
749.23	1730.53
749.41	1718.25
749.59	1726.44
749.77	1742.82
749.95	1685.48
750.13	1632.23
750.31	1796.07
750.49	1685.48
750.67	1753.06
750.85	1753.06
751.03	1648.61
751.20	1839.08
751.38	1705.96
751.56	1722.34
751.74	1726.44
751.92	1658.85
752.10	1650.66
752.28	1806.31
752.46	1642.47
752.64	1738.73
752.82	1677.29
753.00	1705.96
753.18	1708.01
753.35	1699.81
753.53	1703.91
753.71	1662.95
753.89	1701.86
754.07	1732.58
754.25	1802.21
754.43	1681.38
754.61	1613.80
754.79	1796.07
754.97	1699.81
755.14	1830.88
755.32	1708.01
755.50	1728.49
755.68	1751.01
755.86	1693.67
756.04	1751.01
756.22	1648.61
756.40	1755.11
756.57	1773.54
756.75	1617.90
756.93	1757.16
757.11	1812.45
757.29	1634.28
757.47	1656.81
757.65	1654.76
757.82	1601.51
758.00	1742.82
758.18	1685.48
758.36	1648.61
758.54	1759.21
758.72	1708.01
758.90	1828.84
759.07	1667.05
759.25	1693.67
759.43	1751.01
759.61	1718.25
759.79	2191.33
759.97	1794.02
760.15	1679.33
760.32	1656.81
760.50	1775.59
760.68	1849.32
760.86	1603.56
761.04	1804.26
761.22	1769.44
761.39	1722.34
761.57	1722.34
761.75	1718.25
761.93	1755.11
762.11	1617.90
762.28	1697.77
762.46	1636.33
762.64	1710.05
762.82	1607.66
763.00	1624.04
763.18	1781.73
763.35	1595.37
763.53	1716.20
763.71	1656.81
763.89	1675.24
764.07	1689.57
764.24	1705.96
764.42	1767.40
764.60	1650.66
764.78	1732.58
764.96	1783.78
765.13	1697.77
765.31	1755.11
765.49	1746.92
765.67	1691.62
765.84	1626.09
766.02	1699.81
766.20	1585.13
766.38	1767.40
766.56	1769.44
766.73	1775.59
766.91	1726.44
767.09	1722.34
767.27	1779.68
767.44	1660.90
767.62	1718.25
767.80	1701.86
767.98	1671.14
768.15	1693.67
768.33	1714.15
768.51	1726.44
768.69	1751.01
768.87	1724.39
769.04	1701.86
769.22	1888.23
769.40	1798.12
769.58	1923.04
769.75	1755.11
769.93	1771.49
770.11	1648.61
770.28	1628.14
770.46	1722.34
770.64	1726.44
770.82	1759.21
770.99	1671.14
771.17	1787.88
771.35	1705.96
771.53	1759.21
771.70	1624.04
771.88	1677.29
772.06	1634.28
772.23	1640.42
772.41	1724.39
772.59	1675.24
772.77	1642.47
772.94	1705.96
773.12	1710.05
773.30	1710.05
773.47	1681.38
773.65	1710.05
773.83	1804.26
774.01	1718.25
774.18	1607.66
774.36	1677.29
774.54	1650.66
774.71	1687.53
774.89	1658.85
775.07	1597.42
775.24	1681.38
775.42	1656.81
775.60	1810.40
775.78	1632.23
775.95	1665.00
776.13	1675.24
776.31	1589.22
776.48	1716.20
776.66	1732.58
776.84	1757.16
777.01	1699.81
777.19	1640.42
777.37	1630.18
777.54	1732.58
777.72	1834.98
777.90	1720.29
778.07	1667.05
778.25	1900.52
778.43	1779.68
778.60	1638.38
778.78	1808.36
778.96	1818.60
779.13	1685.48
779.31	1687.53
779.49	1679.33
779.66	1710.05
779.84	1738.73
780.01	1693.67
780.19	1662.95
780.37	1722.34
780.54	1642.47
780.72	1669.09
780.90	1732.58
781.07	1701.86
781.25	1675.24
781.43	1740.77
781.60	1730.53
781.78	1804.26
781.95	1767.40
782.13	1685.48
782.31	1751.01
782.48	1619.94
782.66	1679.33
782.83	1832.93
783.01	1695.72
783.19	1710.05
783.36	1665.00
783.54	1628.14
783.72	1714.15
783.89	1734.63
784.07	1677.29
784.24	1789.92
784.42	1853.41
784.60	1681.38
784.77	1753.06
784.95	1634.28
785.12	1658.85
785.30	1697.77
785.47	1609.70
785.65	1613.80
785.83	1679.33
786.00	1787.88
786.18	1755.11
786.35	1603.56
786.53	1656.81
786.71	1746.92
786.88	1800.16
787.06	1683.43
787.23	1746.92
787.41	1595.37
787.58	1673.19
787.76	1693.67
787.94	1656.81
788.11	1703.91
788.29	1714.15
788.46	1652.71
788.64	1722.34
788.81	1632.23
788.99	1701.86
789.16	1693.67
789.34	1722.34
789.52	1683.43
789.69	1613.80
789.87	1679.33
790.04	1699.81
790.22	1605.61
790.39	1771.49
790.57	1636.33
790.74	1689.57
790.92	1794.02
791.09	1617.90
791.27	1716.20
791.44	1837.03
791.62	1626.09
791.79	1724.39
791.97	1634.28
792.15	1867.75
792.32	1746.92
792.50	1708.01
792.67	1861.60
792.85	1783.78
793.02	1738.73
793.20	1675.24
793.37	1617.90
793.55	1695.72
793.72	1679.33
793.90	1716.20
794.07	1673.19
794.25	1699.81
794.42	1693.67
794.60	1769.44
794.77	1769.44
794.95	1722.34
795.12	1761.25
795.30	1734.63
795.47	1640.42
795.65	1865.70
795.82	1710.05
796.00	1656.81
796.17	1691.62
796.34	1693.67
796.52	1687.53
796.69	1771.49
796.87	1751.01
797.04	1748.97
797.22	1812.45
797.39	1755.11
797.57	1818.60
797.74	1693.67
797.92	1703.91
798.09	1716.20
798.27	1748.97
798.44	1761.25
798.62	1740.77
798.79	1746.92
798.96	1667.05
799.14	1699.81
799.31	1818.60
799.49	1642.47
799.66	1744.87
799.84	1736.68
800.01	1601.51
800.19	1726.44
800.36	1583.08
800.53	1705.96
800.71	1775.59
800.88	1800.16
801.06	1640.42
801.23	1726.44
801.41	1726.44
801.58	1677.29
801.75	1662.95
801.93	1740.77
802.10	1765.35
802.28	1703.91
802.45	1755.11
802.63	1691.62
802.80	1789.92
802.97	1679.33
803.15	1648.61
803.32	1617.90
803.50	1685.48
803.67	1703.91
803.84	1718.25
804.02	1791.97
804.19	1671.14
804.37	1630.18
804.54	1640.42
804.71	1701.86
804.89	1746.92
805.06	1705.96
805.24	1593.32
805.41	1652.71
805.58	1701.86
805.76	1789.92
805.93	1687.53
806.10	1771.49
806.28	1705.96
806.45	1720.29
806.63	1701.86
806.80	1675.24
806.97	1757.16
807.15	1679.33
807.32	1728.49
807.49	1650.66
807.67	1591.27
807.84	1703.91
808.01	1603.56
808.19	1796.07
808.36	1834.98
808.54	1724.39
808.71	1628.14
808.88	1763.30
809.06	1751.01
809.23	1724.39
809.40	1689.57
809.58	1703.91
809.75	1673.19
809.92	1632.23
810.10	1837.03
810.27	1732.58
810.44	1646.57
810.62	1648.61
810.79	1804.26
810.96	1701.86
811.14	1617.90
811.31	1789.92
811.48	1802.21
811.66	1734.63
811.83	1738.73
812.00	1802.21
812.18	1720.29
812.35	1818.60
812.52	1609.70
812.69	1701.86
812.87	1677.29
813.04	1662.95
813.21	1654.76
813.39	1681.38
813.56	1656.81
813.73	1804.26
813.91	1646.57
814.08	1791.97
814.25	1656.81
814.42	1667.05
814.60	1726.44
814.77	1765.35
814.94	1732.58
815.12	1763.30
815.29	1775.59
815.46	1683.43
815.63	1765.35
815.81	1720.29
815.98	1644.52
816.15	1685.48
816.33	1734.63
816.50	1658.85
816.67	1685.48
816.84	1689.57
817.02	1630.18
817.19	1689.57
817.36	1748.97
817.53	1695.72
817.71	1652.71
817.88	1742.82
818.05	1689.57
818.22	1683.43
818.40	1765.35
818.57	1669.09
818.74	1763.30
818.91	1705.96
819.09	1771.49
819.26	1714.15
819.43	1589.22
819.60	1615.85
819.78	1724.39
819.95	1732.58
820.12	1740.77
820.29	1845.22
820.47	1810.40
820.64	1705.96
820.81	1656.81
820.98	1748.97
821.15	1714.15
821.33	1798.12
821.50	1574.89
821.67	1740.77
821.84	1665.00
822.02	1705.96
822.19	1689.57
822.36	1736.68
822.53	1654.76
822.70	1658.85
822.88	1689.57
823.05	1783.78
823.22	1677.29
823.39	1781.73
823.56	1732.58
823.74	1859.56
823.91	1677.29
824.08	1589.22
824.25	1613.80
824.42	1816.55
824.60	1665.00
824.77	1783.78
824.94	1697.77
825.11	1775.59
825.28	1624.04
825.45	1697.77
825.63	1697.77
825.80	1708.01
825.97	1699.81
826.14	1742.82
826.31	1593.32
826.48	1722.34
826.66	1679.33
826.83	1640.42
827.00	1777.64
827.17	1683.43
827.34	1748.97
827.51	1673.19
827.69	1705.96
827.86	1650.66
828.03	1673.19
828.20	1724.39
828.37	1728.49
828.54	1683.43
828.71	1718.25
828.89	1814.50
829.06	1783.78
829.23	1757.16
829.40	1648.61
829.57	1720.29
829.74	1734.63
829.91	1636.33
830.09	1654.76
830.26	1779.68
830.43	1751.01
830.60	1736.68
830.77	1800.16
830.94	1708.01
831.11	1740.77
831.28	1734.63
831.46	1785.83
831.63	1734.63
831.80	1748.97
831.97	1771.49
832.14	1695.72
832.31	1818.60
832.48	1796.07
832.65	1740.77
832.82	1677.29
832.99	1656.81
833.17	1646.57
833.34	1800.16
833.51	1746.92
833.68	1591.27
833.85	1759.21
834.02	1667.05
834.19	1740.77
834.36	1644.52
834.53	1652.71
834.70	1787.88
834.87	1757.16
835.04	1720.29
835.22	1658.85
835.39	1626.09
835.56	1677.29
835.73	1689.57
835.90	1757.16
836.07	1673.19
836.24	1718.25
836.41	1734.63
836.58	1632.23
836.75	1708.01
836.92	1730.53
837.09	1720.29
837.26	1689.57
837.43	1740.77
837.60	1710.05
837.77	1693.67
837.94	1763.30
838.12	1796.07
838.29	1779.68
838.46	1640.42
838.63	1658.85
838.80	1841.12
838.97	1796.07
839.14	1769.44
839.31	1773.54
839.48	1710.05
839.65	1667.05
839.82	1708.01
839.99	1730.53
840.16	1693.67
840.33	1689.57
840.50	1728.49
840.67	1699.81
840.84	1673.19
841.01	1662.95
841.18	1619.94
841.35	1669.09
841.52	1744.87
841.69	1820.64
841.86	1710.05
842.03	1712.10
842.20	1681.38
842.37	1691.62
842.54	1699.81
842.71	1712.10
842.88	1693.67
843.05	1705.96
843.22	1626.09
843.39	1755.11
843.56	1767.40
843.73	1626.09
843.90	1695.72
844.07	1681.38
844.24	1738.73
844.41	1703.91
844.58	1697.77
844.75	1687.53
844.92	1804.26
845.09	1708.01
845.26	1626.09
845.43	1759.21
845.60	1691.62
845.77	1773.54
845.94	1746.92
846.10	1714.15
846.27	1624.04
846.44	1658.85
846.61	1720.29
846.78	1708.01
846.95	1732.58
847.12	1744.87
847.29	1671.14
847.46	1701.86
847.63	1806.31
847.80	1619.94
847.97	1730.53
848.14	1783.78
848.31	1689.57
848.48	1630.18
848.65	1697.77
848.82	1697.77
848.98	1841.12
849.15	1714.15
849.32	1728.49
849.49	1773.54
849.66	1751.01
849.83	1636.33
850.00	1658.85
850.17	1785.83
850.34	1705.96
850.51	1726.44
850.68	1681.38
850.85	1830.88
851.01	1662.95
851.18	1683.43
851.35	1716.20
851.52	1791.97
851.69	1734.63
851.86	1648.61
852.03	1673.19
852.20	1710.05
852.37	1722.34
852.53	1654.76
852.70	1638.38
852.87	1730.53
853.04	1744.87
853.21	1714.15
853.38	1736.68
853.55	1728.49
853.72	1849.32
853.89	1626.09
854.05	1658.85
854.22	1718.25
854.39	1667.05
854.56	1650.66
854.73	1777.64
854.90	1619.94
855.07	1714.15
855.23	1687.53
855.40	1740.77
855.57	1705.96
855.74	1609.70
855.91	1796.07
856.08	1624.04
856.25	1693.67
856.41	1642.47
856.58	1777.64
856.75	1566.70
856.92	1613.80
857.09	1726.44
857.26	1632.23
857.42	1611.75
857.59	1714.15
857.76	1636.33
857.93	1695.72
858.10	1673.19
858.27	1632.23
858.43	1697.77
858.60	1738.73
858.77	1650.66
858.94	1667.05
859.11	1679.33
859.27	1689.57
859.44	1671.14
859.61	1814.50
859.78	1722.34
859.95	1710.05
860.12	1652.71
860.28	1804.26
860.45	1787.88
860.62	1716.20
860.79	1744.87
860.95	1617.90
861.12	1724.39
861.29	1624.04
861.46	1683.43
861.63	1681.38
861.79	1730.53
861.96	1630.18
862.13	1665.00
862.30	1787.88
862.47	1648.61
862.63	1642.47
862.80	1746.92
862.97	1720.29
863.14	1669.09
863.30	1798.12
863.47	1683.43
863.64	1814.50
863.81	1742.82
863.97	1681.38
864.14	1787.88
864.31	1691.62
864.48	1777.64
864.65	1738.73
864.81	1748.97
864.98	1732.58
865.15	1767.40
865.32	1769.44
865.48	1691.62
865.65	1779.68
865.82	1658.85
865.98	1796.07
866.15	1798.12
866.32	1734.63
866.49	1757.16
866.65	1804.26
866.82	1648.61
866.99	1669.09
867.16	1673.19
867.32	1755.11
867.49	1701.86
867.66	1689.57
867.83	1675.24
867.99	1566.70
868.16	1714.15
868.33	1605.61
868.49	1697.77
868.66	1689.57
868.83	1806.31
868.99	1714.15
869.16	1697.77
869.33	1800.16
869.50	1810.40
869.66	1755.11
869.83	1642.47
870.00	1609.70
870.16	1738.73
870.33	1646.57
870.50	1800.16
870.66	1679.33
870.83	1851.36
871.00	1636.33
871.17	1677.29
871.33	1714.15
871.50	1660.90
871.67	1662.95
871.83	1701.86
872.00	1857.51
872.17	1671.14
872.33	1841.12
872.50	1730.53
872.67	1705.96
872.83	1710.05
873.00	1703.91
873.17	1685.48
873.33	1771.49
873.50	1716.20
873.67	1705.96
873.83	1550.31
874.00	1708.01
874.16	1685.48
874.33	1687.53
874.50	1632.23
874.66	1689.57
874.83	1730.53
875.00	1765.35
875.16	1738.73
875.33	1732.58
875.50	1609.70
875.66	1671.14
875.83	1722.34
875.99	1796.07
876.16	1673.19
876.33	1572.84
876.49	1751.01
876.66	1789.92
876.83	1658.85
876.99	1679.33
877.16	1699.81
877.32	1634.28
877.49	1693.67
877.66	1726.44
877.82	1769.44
877.99	1599.46
878.15	1736.68
878.32	1701.86
878.49	1665.00
878.65	1701.86
878.82	1724.39
878.98	1757.16
879.15	1816.55
879.32	1744.87
879.48	1785.83
879.65	1677.29
879.81	1720.29
879.98	1720.29
880.15	1665.00
880.31	1720.29
880.48	1718.25
880.64	1775.59
880.81	1769.44
880.97	1765.35
881.14	1765.35
881.31	1634.28
881.47	1865.70
881.64	1701.86
881.80	1665.00
881.97	1734.63
882.13	1816.55
882.30	1701.86
882.47	1671.14
882.63	1665.00
882.80	1636.33
882.96	1687.53
883.13	1755.11
883.29	1644.52
883.46	1673.19
883.62	1839.08
883.79	1708.01
883.95	1814.50
884.12	1689.57
884.29	1845.22
884.45	1742.82
884.62	1748.97
884.78	1669.09
884.95	1806.31
885.11	1718.25
885.28	1740.77
885.44	1705.96
885.61	1771.49
885.77	1751.01
885.94	1791.97
886.10	1642.47
886.27	1757.16
886.43	1800.16
886.60	1796.07
886.76	1630.18
886.93	1650.66
887.09	1691.62
887.26	1617.90
887.42	1640.42
887.59	1765.35
887.75	1812.45
887.92	1757.16
888.08	1820.64
888.25	1783.78
888.41	1738.73
888.58	1720.29
888.74	1648.61
888.91	1722.34
>>>>>End Processed Spectral Data<<<<<
