SpectraSuite Data File
++++++++++++++++++++++++++++++++++++
Date: Wed Feb 24 19:33:53 CET 2016
User: Kirk
Dark Spectrum Present: No
Reference Spectrum Present: No
Number of Sampled Component Spectra: 1
Spectrometers: USB4C02835
Integration Time (usec): 30000 (USB4C02835)
Spectra Averaged: 1 (USB4C02835)
Boxcar Smoothing: 0 (USB4C02835)
Correct for Electrical Dark: No (USB4C02835)
Strobe/Lamp Enabled: No (USB4C02835)
Correct for Detector Non-linearity: No (USB4C02835)
Correct for Stray Light: No (USB4C02835)
Number of Pixels in Processed Spectrum: 3648
>>>>>Begin Processed Spectral Data<<<<<
176.70	1208.30
176.92	1208.30
177.15	1208.30
177.37	1302.51
177.59	1189.87
177.81	1216.49
178.03	1259.50
178.25	1247.21
178.48	1300.46
178.70	1232.88
178.92	1282.03
179.14	1286.12
179.36	1179.63
179.58	1241.07
179.81	1298.41
180.03	1279.98
180.25	1286.12
180.47	1232.88
180.69	1290.22
180.91	1304.56
181.13	1318.89
181.36	1290.22
181.58	1241.07
181.80	1310.70
182.02	1241.07
182.24	1255.40
182.46	1277.93
182.69	1236.97
182.91	1333.23
183.13	1333.23
183.35	1255.40
183.57	1263.60
183.79	1267.69
184.01	1265.64
184.24	1249.26
184.46	1236.97
184.68	1232.88
184.90	1234.93
185.12	1241.07
185.34	1261.55
185.56	1277.93
185.78	1236.97
186.01	1265.64
186.23	1312.75
186.45	1259.50
186.67	1253.36
186.89	1298.41
187.11	1267.69
187.33	1290.22
187.55	1243.12
187.78	1196.01
188.00	1325.04
188.22	1286.12
188.44	1187.82
188.66	1220.59
188.88	1294.32
189.10	1325.04
189.32	1271.79
189.54	1249.26
189.77	1271.79
189.99	1253.36
190.21	1335.28
190.43	1288.17
190.65	1167.34
190.87	1300.46
191.09	1259.50
191.31	1361.90
191.53	1284.08
191.75	1243.12
191.98	1286.12
192.20	1300.46
192.42	1271.79
192.64	1265.64
192.86	1236.97
193.08	1273.84
193.30	1275.88
193.52	1312.75
193.74	1222.64
193.96	1284.08
194.18	1267.69
194.40	1191.92
194.63	1292.27
194.85	1316.84
195.07	1222.64
195.29	1232.88
195.51	1210.35
195.73	1306.60
195.95	1232.88
196.17	1368.04
196.39	1234.93
196.61	1198.06
196.83	1265.64
197.05	1202.16
197.27	1277.93
197.49	1296.36
197.72	1277.93
197.94	1300.46
198.16	1232.88
198.38	1265.64
198.60	1308.65
198.82	1322.99
199.04	1288.17
199.26	1277.93
199.48	1318.89
199.70	1200.11
199.92	1341.42
200.14	1234.93
200.36	1300.46
200.58	1187.82
200.80	1331.18
201.02	1302.51
201.24	1228.78
201.46	1269.74
201.68	1292.27
201.90	1241.07
202.12	1265.64
202.34	1271.79
202.57	1263.60
202.79	1183.73
203.01	1261.55
203.23	1273.84
203.45	1251.31
203.67	1230.83
203.89	1232.88
204.11	1296.36
204.33	1273.84
204.55	1306.60
204.77	1277.93
204.99	1294.32
205.21	1298.41
205.43	1261.55
205.65	1339.37
205.87	1296.36
206.09	1232.88
206.31	1206.25
206.53	1269.74
206.75	1222.64
206.97	1224.69
207.19	1284.08
207.41	1308.65
207.63	1216.49
207.85	1259.50
208.07	1218.54
208.29	1294.32
208.51	1331.18
208.73	1282.03
208.95	1239.02
209.17	1304.56
209.39	1269.74
209.61	1294.32
209.83	1343.47
210.05	1200.11
210.27	1247.21
210.49	1341.42
210.71	1282.03
210.93	1275.88
211.15	1263.60
211.37	1241.07
211.59	1265.64
211.81	1320.94
212.03	1298.41
212.25	1296.36
212.47	1273.84
212.69	1202.16
212.91	1308.65
213.13	1234.93
213.35	1185.77
213.57	1322.99
213.79	1243.12
214.01	1212.40
214.22	1269.74
214.44	1325.04
214.66	1273.84
214.88	1261.55
215.10	1312.75
215.32	1214.45
215.54	1265.64
215.76	1210.35
215.98	1271.79
216.20	1239.02
216.42	1294.32
216.64	1331.18
216.86	1279.98
217.08	1335.28
217.30	1302.51
217.52	1335.28
217.74	1279.98
217.96	1327.08
218.18	1265.64
218.40	1191.92
218.62	1292.27
218.83	1208.30
219.05	1249.26
219.27	1243.12
219.49	1282.03
219.71	1245.16
219.93	1284.08
220.15	1267.69
220.37	1312.75
220.59	1343.47
220.81	1296.36
221.03	1273.84
221.25	1331.18
221.47	1245.16
221.69	1310.70
221.90	1277.93
222.12	1236.97
222.34	1277.93
222.56	1261.55
222.78	1306.60
223.00	1294.32
223.22	1265.64
223.44	1347.56
223.66	1288.17
223.88	1277.93
224.10	1249.26
224.32	1212.40
224.53	1247.21
224.75	1292.27
224.97	1271.79
225.19	1273.84
225.41	1261.55
225.63	1284.08
225.85	1347.56
226.07	1202.16
226.29	1273.84
226.51	1277.93
226.72	1224.69
226.94	1302.51
227.16	1230.83
227.38	1216.49
227.60	1251.31
227.82	1241.07
228.04	1325.04
228.26	1294.32
228.48	1302.51
228.69	1216.49
228.91	1226.73
229.13	1300.46
229.35	1273.84
229.57	1251.31
229.79	1318.89
230.01	1265.64
230.23	1279.98
230.44	1339.37
230.66	1277.93
230.88	1241.07
231.10	1230.83
231.32	1251.31
231.54	1331.18
231.76	1273.84
231.98	1234.93
232.19	1312.75
232.41	1234.93
232.63	1308.65
232.85	1351.66
233.07	1277.93
233.29	1204.21
233.51	1239.02
233.72	1249.26
233.94	1292.27
234.16	1212.40
234.38	1261.55
234.60	1261.55
234.82	1269.74
235.03	1183.73
235.25	1300.46
235.47	1265.64
235.69	1298.41
235.91	1304.56
236.13	1370.09
236.35	1318.89
236.56	1177.58
236.78	1271.79
237.00	1331.18
237.22	1273.84
237.44	1304.56
237.65	1284.08
237.87	1308.65
238.09	1275.88
238.31	1275.88
238.53	1206.25
238.75	1265.64
238.96	1234.93
239.18	1253.36
239.40	1253.36
239.62	1273.84
239.84	1286.12
240.06	1300.46
240.27	1275.88
240.49	1318.89
240.71	1275.88
240.93	1261.55
241.15	1257.45
241.36	1302.51
241.58	1277.93
241.80	1302.51
242.02	1302.51
242.24	1253.36
242.45	1306.60
242.67	1282.03
242.89	1273.84
243.11	1306.60
243.33	1224.69
243.54	1337.32
243.76	1275.88
243.98	1247.21
244.20	1214.45
244.42	1257.45
244.63	1296.36
244.85	1253.36
245.07	1316.84
245.29	1292.27
245.51	1193.97
245.72	1275.88
245.94	1173.49
246.16	1296.36
246.38	1282.03
246.59	1372.14
246.81	1310.70
247.03	1306.60
247.25	1308.65
247.47	1263.60
247.68	1271.79
247.90	1288.17
248.12	1173.49
248.34	1249.26
248.55	1327.08
248.77	1257.45
248.99	1382.38
249.21	1275.88
249.42	1245.16
249.64	1325.04
249.86	1284.08
250.08	1296.36
250.29	1290.22
250.51	1271.79
250.73	1347.56
250.95	1277.93
251.16	1302.51
251.38	1263.60
251.60	1216.49
251.82	1322.99
252.03	1265.64
252.25	1296.36
252.47	1333.23
252.69	1357.80
252.90	1239.02
253.12	1243.12
253.34	1226.73
253.56	1298.41
253.77	1263.60
253.99	1253.36
254.21	1204.21
254.43	1300.46
254.64	1310.70
254.86	1214.45
255.08	1372.14
255.29	1302.51
255.51	1239.02
255.73	1300.46
255.95	1257.45
256.16	1286.12
256.38	1216.49
256.60	1298.41
256.81	1239.02
257.03	1257.45
257.25	1341.42
257.47	1275.88
257.68	1228.78
257.90	1271.79
258.12	1267.69
258.33	1243.12
258.55	1277.93
258.77	1265.64
258.99	1294.32
259.20	1241.07
259.42	1277.93
259.64	1378.28
259.85	1255.40
260.07	1239.02
260.29	1187.82
260.50	1265.64
260.72	1269.74
260.94	1288.17
261.16	1277.93
261.37	1284.08
261.59	1222.64
261.81	1345.52
262.02	1298.41
262.24	1218.54
262.46	1232.88
262.67	1310.70
262.89	1239.02
263.11	1222.64
263.32	1263.60
263.54	1191.92
263.76	1290.22
263.97	1361.90
264.19	1236.97
264.41	1292.27
264.62	1349.61
264.84	1284.08
265.06	1288.17
265.27	1251.31
265.49	1286.12
265.71	1322.99
265.92	1196.01
266.14	1267.69
266.36	1279.98
266.57	1273.84
266.79	1210.35
267.01	1277.93
267.22	1185.77
267.44	1255.40
267.66	1216.49
267.87	1286.12
268.09	1378.28
268.31	1282.03
268.52	1267.69
268.74	1247.21
268.95	1273.84
269.17	1351.66
269.39	1279.98
269.60	1288.17
269.82	1230.83
270.04	1282.03
270.25	1314.80
270.47	1255.40
270.69	1241.07
270.90	1261.55
271.12	1259.50
271.33	1271.79
271.55	1257.45
271.77	1304.56
271.98	1300.46
272.20	1222.64
272.42	1294.32
272.63	1271.79
272.85	1318.89
273.06	1292.27
273.28	1277.93
273.50	1294.32
273.71	1241.07
273.93	1234.93
274.14	1302.51
274.36	1329.13
274.58	1253.36
274.79	1282.03
275.01	1286.12
275.23	1241.07
275.44	1263.60
275.66	1316.84
275.87	1279.98
276.09	1267.69
276.31	1310.70
276.52	1345.52
276.74	1267.69
276.95	1222.64
277.17	1292.27
277.39	1296.36
277.60	1306.60
277.82	1290.22
278.03	1279.98
278.25	1234.93
278.46	1298.41
278.68	1245.16
278.90	1331.18
279.11	1165.29
279.33	1230.83
279.54	1304.56
279.76	1275.88
279.98	1257.45
280.19	1335.28
280.41	1359.85
280.62	1247.21
280.84	1261.55
281.05	1320.94
281.27	1294.32
281.48	1300.46
281.70	1230.83
281.92	1189.87
282.13	1259.50
282.35	1259.50
282.56	1296.36
282.78	1265.64
282.99	1288.17
283.21	1290.22
283.43	1349.61
283.64	1267.69
283.86	1273.84
284.07	1339.37
284.29	1255.40
284.50	1298.41
284.72	1234.93
284.93	1263.60
285.15	1239.02
285.36	1236.97
285.58	1271.79
285.80	1316.84
286.01	1234.93
286.23	1230.83
286.44	1282.03
286.66	1210.35
286.87	1218.54
287.09	1247.21
287.30	1286.12
287.52	1193.97
287.73	1267.69
287.95	1241.07
288.16	1282.03
288.38	1284.08
288.59	1232.88
288.81	1290.22
289.02	1290.22
289.24	1251.31
289.46	1265.64
289.67	1302.51
289.89	1294.32
290.10	1218.54
290.32	1251.31
290.53	1320.94
290.75	1236.97
290.96	1269.74
291.18	1251.31
291.39	1322.99
291.61	1294.32
291.82	1271.79
292.04	1224.69
292.25	1239.02
292.47	1251.31
292.68	1279.98
292.90	1218.54
293.11	1298.41
293.33	1255.40
293.54	1247.21
293.76	1271.79
293.97	1220.59
294.19	1306.60
294.40	1271.79
294.62	1314.80
294.83	1306.60
295.05	1239.02
295.26	1255.40
295.47	1224.69
295.69	1247.21
295.90	1247.21
296.12	1322.99
296.33	1263.60
296.55	1284.08
296.76	1224.69
296.98	1200.11
297.19	1263.60
297.41	1345.52
297.62	1368.04
297.84	1282.03
298.05	1294.32
298.27	1241.07
298.48	1247.21
298.70	1247.21
298.91	1249.26
299.12	1286.12
299.34	1300.46
299.55	1259.50
299.77	1191.92
299.98	1257.45
300.20	1277.93
300.41	1282.03
300.63	1333.23
300.84	1312.75
301.05	1269.74
301.27	1198.06
301.48	1253.36
301.70	1271.79
301.91	1208.30
302.13	1263.60
302.34	1284.08
302.56	1206.25
302.77	1247.21
302.98	1275.88
303.20	1392.62
303.41	1292.27
303.63	1353.71
303.84	1224.69
304.06	1257.45
304.27	1216.49
304.48	1288.17
304.70	1286.12
304.91	1214.45
305.13	1286.12
305.34	1253.36
305.56	1284.08
305.77	1261.55
305.98	1220.59
306.20	1277.93
306.41	1265.64
306.63	1257.45
306.84	1302.51
307.05	1230.83
307.27	1212.40
307.48	1247.21
307.70	1355.76
307.91	1327.08
308.12	1282.03
308.34	1259.50
308.55	1335.28
308.77	1282.03
308.98	1296.36
309.19	1279.98
309.41	1273.84
309.62	1337.32
309.84	1320.94
310.05	1255.40
310.26	1265.64
310.48	1249.26
310.69	1245.16
310.91	1224.69
311.12	1316.84
311.33	1273.84
311.55	1257.45
311.76	1243.12
311.97	1345.52
312.19	1318.89
312.40	1202.16
312.62	1273.84
312.83	1226.73
313.04	1271.79
313.26	1269.74
313.47	1286.12
313.68	1267.69
313.90	1306.60
314.11	1267.69
314.32	1236.97
314.54	1245.16
314.75	1228.78
314.97	1196.01
315.18	1257.45
315.39	1251.31
315.61	1241.07
315.82	1271.79
316.03	1222.64
316.25	1325.04
316.46	1253.36
316.67	1251.31
316.89	1265.64
317.10	1257.45
317.31	1282.03
317.53	1398.76
317.74	1507.30
317.95	1562.60
318.17	1601.51
318.38	1640.42
318.59	1609.70
318.81	1527.78
319.02	1503.21
319.23	1435.63
319.45	1429.48
319.66	1392.62
319.87	1429.48
320.09	1302.51
320.30	1355.76
320.51	1347.56
320.73	1343.47
320.94	1222.64
321.15	1275.88
321.37	1210.35
321.58	1302.51
321.79	1294.32
322.01	1284.08
322.22	1271.79
322.43	1282.03
322.65	1267.69
322.86	1253.36
323.07	1261.55
323.28	1314.80
323.50	1251.31
323.71	1247.21
323.92	1286.12
324.14	1347.56
324.35	1271.79
324.56	1277.93
324.78	1316.84
324.99	1245.16
325.20	1292.27
325.41	1224.69
325.63	1226.73
325.84	1261.55
326.05	1241.07
326.27	1296.36
326.48	1271.79
326.69	1267.69
326.90	1290.22
327.12	1292.27
327.33	1271.79
327.54	1368.04
327.76	1329.13
327.97	1325.04
328.18	1331.18
328.39	1265.64
328.61	1269.74
328.82	1263.60
329.03	1341.42
329.24	1343.47
329.46	1310.70
329.67	1320.94
329.88	1249.26
330.10	1314.80
330.31	1245.16
330.52	1255.40
330.73	1234.93
330.95	1308.65
331.16	1296.36
331.37	1271.79
331.58	1294.32
331.80	1306.60
332.01	1216.49
332.22	1284.08
332.43	1255.40
332.65	1267.69
332.86	1327.08
333.07	1247.21
333.28	1308.65
333.50	1292.27
333.71	1218.54
333.92	1282.03
334.13	1232.88
334.34	1232.88
334.56	1243.12
334.77	1277.93
334.98	1232.88
335.19	1320.94
335.41	1257.45
335.62	1271.79
335.83	1351.66
336.04	1300.46
336.26	1263.60
336.47	1282.03
336.68	1300.46
336.89	1316.84
337.10	1327.08
337.32	1265.64
337.53	1206.25
337.74	1273.84
337.95	1288.17
338.16	1247.21
338.38	1173.49
338.59	1263.60
338.80	1249.26
339.01	1255.40
339.23	1306.60
339.44	1306.60
339.65	1337.32
339.86	1300.46
340.07	1290.22
340.29	1255.40
340.50	1251.31
340.71	1232.88
340.92	1296.36
341.13	1214.45
341.34	1282.03
341.56	1320.94
341.77	1318.89
341.98	1257.45
342.19	1247.21
342.40	1351.66
342.62	1259.50
342.83	1226.73
343.04	1257.45
343.25	1273.84
343.46	1259.50
343.67	1198.06
343.89	1310.70
344.10	1288.17
344.31	1271.79
344.52	1325.04
344.73	1316.84
344.94	1298.41
345.16	1335.28
345.37	1255.40
345.58	1320.94
345.79	1247.21
346.00	1275.88
346.21	1322.99
346.43	1288.17
346.64	1282.03
346.85	1310.70
347.06	1230.83
347.27	1236.97
347.48	1150.96
347.70	1282.03
347.91	1253.36
348.12	1294.32
348.33	1298.41
348.54	1294.32
348.75	1222.64
348.96	1339.37
349.18	1245.16
349.39	1218.54
349.60	1251.31
349.81	1363.95
350.02	1247.21
350.23	1284.08
350.44	1298.41
350.65	1298.41
350.87	1318.89
351.08	1333.23
351.29	1275.88
351.50	1327.08
351.71	1294.32
351.92	1245.16
352.13	1316.84
352.34	1339.37
352.56	1296.36
352.77	1239.02
352.98	1333.23
353.19	1271.79
353.40	1265.64
353.61	1253.36
353.82	1312.75
354.03	1304.56
354.24	1247.21
354.46	1243.12
354.67	1249.26
354.88	1263.60
355.09	1300.46
355.30	1255.40
355.51	1255.40
355.72	1216.49
355.93	1277.93
356.14	1298.41
356.35	1230.83
356.57	1337.32
356.78	1236.97
356.99	1210.35
357.20	1308.65
357.41	1241.07
357.62	1292.27
357.83	1386.47
358.04	1279.98
358.25	1245.16
358.46	1288.17
358.67	1214.45
358.88	1288.17
359.09	1300.46
359.31	1284.08
359.52	1232.88
359.73	1286.12
359.94	1236.97
360.15	1271.79
360.36	1343.47
360.57	1312.75
360.78	1286.12
360.99	1292.27
361.20	1374.19
361.41	1378.28
361.62	1263.60
361.83	1325.04
362.04	1277.93
362.25	1286.12
362.46	1361.90
362.68	1263.60
362.89	1329.13
363.10	1363.95
363.31	1259.50
363.52	1294.32
363.73	1284.08
363.94	1292.27
364.15	1351.66
364.36	1245.16
364.57	1290.22
364.78	1273.84
364.99	1282.03
365.20	1234.93
365.41	1302.51
365.62	1329.13
365.83	1239.02
366.04	1228.78
366.25	1239.02
366.46	1304.56
366.67	1316.84
366.88	1288.17
367.09	1329.13
367.30	1243.12
367.51	1251.31
367.72	1265.64
367.93	1335.28
368.14	1288.17
368.35	1263.60
368.56	1277.93
368.77	1290.22
368.98	1206.25
369.19	1310.70
369.40	1320.94
369.61	1337.32
369.82	1310.70
370.03	1355.76
370.24	1286.12
370.45	1318.89
370.66	1247.21
370.87	1251.31
371.08	1327.08
371.29	1351.66
371.50	1214.45
371.71	1314.80
371.92	1298.41
372.13	1292.27
372.34	1263.60
372.55	1290.22
372.76	1249.26
372.97	1220.59
373.18	1271.79
373.39	1269.74
373.60	1292.27
373.81	1337.32
374.02	1220.59
374.23	1236.97
374.44	1310.70
374.65	1292.27
374.86	1273.84
375.07	1271.79
375.28	1212.40
375.49	1230.83
375.70	1333.23
375.91	1288.17
376.12	1265.64
376.33	1304.56
376.54	1234.93
376.75	1261.55
376.96	1286.12
377.17	1294.32
377.38	1335.28
377.59	1331.18
377.79	1243.12
378.00	1277.93
378.21	1325.04
378.42	1222.64
378.63	1204.21
378.84	1249.26
379.05	1214.45
379.26	1314.80
379.47	1259.50
379.68	1349.61
379.89	1257.45
380.10	1288.17
380.31	1308.65
380.52	1368.04
380.73	1339.37
380.94	1343.47
381.14	1335.28
381.35	1386.47
381.56	1454.06
381.77	1327.08
381.98	1406.95
382.19	1343.47
382.40	1359.85
382.61	1312.75
382.82	1366.00
383.03	1300.46
383.24	1265.64
383.45	1284.08
383.65	1345.52
383.86	1296.36
384.07	1376.24
384.28	1220.59
384.49	1327.08
384.70	1300.46
384.91	1363.95
385.12	1337.32
385.33	1251.31
385.54	1308.65
385.75	1341.42
385.95	1396.71
386.16	1284.08
386.37	1320.94
386.58	1263.60
386.79	1329.13
387.00	1396.71
387.21	1439.72
387.42	1785.83
387.63	3600.33
387.83	9006.97
388.04	13393.72
388.25	16596.74
388.46	17932.01
388.67	17155.83
388.88	12531.52
389.09	10489.70
389.30	8943.48
389.50	8382.34
389.71	7249.81
389.92	6567.84
390.13	5332.91
390.34	4181.95
390.55	3078.10
390.76	2072.54
390.96	1710.05
391.17	1472.49
391.38	1351.66
391.59	1347.56
391.80	1363.95
392.01	1316.84
392.22	1265.64
392.42	1327.08
392.63	1286.12
392.84	1251.31
393.05	1318.89
393.26	1290.22
393.47	1318.89
393.68	1304.56
393.88	1320.94
394.09	1267.69
394.30	1302.51
394.51	1304.56
394.72	1179.63
394.93	1343.47
395.13	1245.16
395.34	1406.95
395.55	1509.35
395.76	1591.27
395.97	1597.42
396.18	1720.29
396.38	1564.65
396.59	1490.92
396.80	1476.59
397.01	1447.91
397.22	1376.24
397.42	1384.43
397.63	1431.53
397.84	1294.32
398.05	1327.08
398.26	1333.23
398.47	1234.93
398.67	1220.59
398.88	1200.11
399.09	1224.69
399.30	1187.82
399.51	1265.64
399.71	1322.99
399.92	1288.17
400.13	1267.69
400.34	1337.32
400.55	1318.89
400.75	1325.04
400.96	1257.45
401.17	1294.32
401.38	1404.91
401.59	1603.56
401.79	1705.96
402.00	1884.13
402.21	1970.15
402.42	1847.27
402.62	1832.93
402.83	1695.72
403.04	1619.94
403.25	1554.41
403.46	1546.22
403.66	1501.16
403.87	1501.16
404.08	1402.86
404.29	1357.80
404.49	1308.65
404.70	1316.84
404.91	1263.60
405.12	1265.64
405.32	1259.50
405.53	1236.97
405.74	1290.22
405.95	1243.12
406.16	1257.45
406.36	1249.26
406.57	1339.37
406.78	1257.45
406.99	1249.26
407.19	1269.74
407.40	1310.70
407.61	1241.07
407.82	1325.04
408.02	1271.79
408.23	1290.22
408.44	1275.88
408.64	1261.55
408.85	1247.21
409.06	1257.45
409.27	1212.40
409.47	1294.32
409.68	1263.60
409.89	1282.03
410.10	1294.32
410.30	1206.25
410.51	1290.22
410.72	1290.22
410.93	1243.12
411.13	1411.05
411.34	1355.76
411.55	1456.11
411.75	1380.33
411.96	1372.14
412.17	1353.71
412.38	1314.80
412.58	1339.37
412.79	1355.76
413.00	1316.84
413.20	1331.18
413.41	1347.56
413.62	1347.56
413.83	1261.55
414.03	1339.37
414.24	1325.04
414.45	1372.14
414.65	1304.56
414.86	1318.89
415.07	1247.21
415.27	1189.87
415.48	1331.18
415.69	1351.66
415.89	1300.46
416.10	1279.98
416.31	1298.41
416.52	1239.02
416.72	1308.65
416.93	1345.52
417.14	1316.84
417.34	1241.07
417.55	1314.80
417.76	1302.51
417.96	1325.04
418.17	1269.74
418.38	1259.50
418.58	1241.07
418.79	1269.74
419.00	1216.49
419.20	1218.54
419.41	1290.22
419.62	1314.80
419.82	1255.40
420.03	1269.74
420.24	1302.51
420.44	1265.64
420.65	1282.03
420.86	1298.41
421.06	1224.69
421.27	1284.08
421.48	1232.88
421.68	1298.41
421.89	1273.84
422.10	1263.60
422.30	1222.64
422.51	1251.31
422.71	1277.93
422.92	1249.26
423.13	1302.51
423.33	1333.23
423.54	1284.08
423.75	1300.46
423.95	1265.64
424.16	1304.56
424.37	1279.98
424.57	1294.32
424.78	1279.98
424.98	1253.36
425.19	1345.52
425.40	1263.60
425.60	1259.50
425.81	1267.69
426.02	1288.17
426.22	1259.50
426.43	1290.22
426.63	1267.69
426.84	1239.02
427.05	1282.03
427.25	1304.56
427.46	1275.88
427.66	1347.56
427.87	1302.51
428.08	1273.84
428.28	1253.36
428.49	1327.08
428.69	1284.08
428.90	1282.03
429.11	1310.70
429.31	1241.07
429.52	1273.84
429.72	1230.83
429.93	1261.55
430.14	1357.80
430.34	1208.30
430.55	1275.88
430.75	1308.65
430.96	1241.07
431.17	1316.84
431.37	1304.56
431.58	1296.36
431.78	1302.51
431.99	1279.98
432.19	1322.99
432.40	1224.69
432.61	1228.78
432.81	1296.36
433.02	1304.56
433.22	1277.93
433.43	1347.56
433.63	1302.51
433.84	1261.55
434.05	1298.41
434.25	1329.13
434.46	1286.12
434.66	1304.56
434.87	1310.70
435.07	1255.40
435.28	1282.03
435.49	1310.70
435.69	1308.65
435.90	1329.13
436.10	1198.06
436.31	1306.60
436.51	1308.65
436.72	1329.13
436.92	1220.59
437.13	1314.80
437.33	1306.60
437.54	1318.89
437.75	1351.66
437.95	1437.67
438.16	1550.31
438.36	1470.44
438.57	1517.54
438.77	1515.50
438.98	1521.64
439.18	1370.09
439.39	1396.71
439.59	1282.03
439.80	1368.04
440.00	1363.95
440.21	1333.23
440.41	1236.97
440.62	1286.12
440.82	1263.60
441.03	1253.36
441.23	1222.64
441.44	1343.47
441.64	1232.88
441.85	1290.22
442.05	1288.17
442.26	1304.56
442.46	1265.64
442.67	1296.36
442.87	1392.62
443.08	1353.71
443.28	1366.00
443.49	1380.33
443.69	1300.46
443.90	1259.50
444.10	1339.37
444.31	1300.46
444.51	1259.50
444.72	1255.40
444.92	1325.04
445.13	1312.75
445.33	1376.24
445.54	1351.66
445.74	1396.71
445.95	1898.47
446.15	3366.86
446.36	4913.08
446.56	5898.15
446.77	6727.58
446.97	6506.40
447.18	5253.04
447.38	4282.30
447.59	3622.86
447.79	3321.81
448.00	3149.78
448.20	2981.84
448.40	2717.65
448.61	2369.50
448.81	2117.60
449.02	1759.21
449.22	1460.20
449.43	1439.72
449.63	1314.80
449.84	1302.51
450.04	1318.89
450.25	1294.32
450.45	1282.03
450.65	1286.12
450.86	1312.75
451.06	1257.45
451.27	1302.51
451.47	1263.60
451.68	1253.36
451.88	1314.80
452.08	1226.73
452.29	1320.94
452.49	1265.64
452.70	1282.03
452.90	1267.69
453.11	1220.59
453.31	1255.40
453.51	1310.70
453.72	1308.65
453.92	1269.74
454.13	1312.75
454.33	1329.13
454.54	1277.93
454.74	1288.17
454.94	1259.50
455.15	1310.70
455.35	1251.31
455.56	1288.17
455.76	1282.03
455.96	1247.21
456.17	1216.49
456.37	1226.73
456.58	1314.80
456.78	1308.65
456.98	1318.89
457.19	1282.03
457.39	1261.55
457.60	1247.21
457.80	1296.36
458.00	1267.69
458.21	1224.69
458.41	1329.13
458.62	1181.68
458.82	1298.41
459.02	1269.74
459.23	1275.88
459.43	1370.09
459.64	1327.08
459.84	1298.41
460.04	1335.28
460.25	1196.01
460.45	1314.80
460.65	1275.88
460.86	1314.80
461.06	1312.75
461.27	1251.31
461.47	1366.00
461.67	1318.89
461.88	1288.17
462.08	1282.03
462.28	1282.03
462.49	1224.69
462.69	1282.03
462.89	1290.22
463.10	1257.45
463.30	1320.94
463.51	1312.75
463.71	1214.45
463.91	1257.45
464.12	1331.18
464.32	1282.03
464.52	1279.98
464.73	1294.32
464.93	1312.75
465.13	1257.45
465.34	1327.08
465.54	1292.27
465.74	1282.03
465.95	1288.17
466.15	1185.77
466.35	1245.16
466.56	1327.08
466.76	1312.75
466.96	1333.23
467.17	1335.28
467.37	1247.21
467.57	1302.51
467.78	1337.32
467.98	1253.36
468.18	1320.94
468.39	1284.08
468.59	1314.80
468.79	1245.16
468.99	1245.16
469.20	1277.93
469.40	1331.18
469.60	1327.08
469.81	1257.45
470.01	1372.14
470.21	1574.89
470.42	2076.64
470.62	2398.17
470.82	2619.35
471.03	2793.43
471.23	2580.44
471.43	2297.82
471.63	2105.31
471.84	1880.04
472.04	1800.16
472.24	1755.11
472.45	1759.21
472.65	1679.33
472.85	1615.85
473.05	1492.97
473.26	1347.56
473.46	1363.95
473.66	1308.65
473.87	1316.84
474.07	1255.40
474.27	1347.56
474.47	1234.93
474.68	1247.21
474.88	1314.80
475.08	1290.22
475.28	1304.56
475.49	1230.83
475.69	1253.36
475.89	1261.55
476.10	1376.24
476.30	1202.16
476.50	1224.69
476.70	1271.79
476.91	1312.75
477.11	1228.78
477.31	1249.26
477.51	1320.94
477.72	1306.60
477.92	1286.12
478.12	1234.93
478.32	1290.22
478.53	1236.97
478.73	1253.36
478.93	1376.24
479.13	1308.65
479.33	1257.45
479.54	1273.84
479.74	1310.70
479.94	1265.64
480.14	1253.36
480.35	1257.45
480.55	1245.16
480.75	1243.12
480.95	1320.94
481.16	1304.56
481.36	1251.31
481.56	1314.80
481.76	1302.51
481.96	1282.03
482.17	1257.45
482.37	1234.93
482.57	1288.17
482.77	1290.22
482.97	1271.79
483.18	1296.36
483.38	1259.50
483.58	1296.36
483.78	1222.64
483.99	1302.51
484.19	1322.99
484.39	1298.41
484.59	1273.84
484.79	1322.99
485.00	1269.74
485.20	1282.03
485.40	1230.83
485.60	1331.18
485.80	1261.55
486.00	1333.23
486.21	1292.27
486.41	1282.03
486.61	1333.23
486.81	1236.97
487.01	1251.31
487.22	1298.41
487.42	1288.17
487.62	1333.23
487.82	1267.69
488.02	1222.64
488.22	1259.50
488.43	1208.30
488.63	1282.03
488.83	1363.95
489.03	1314.80
489.23	1271.79
489.43	1226.73
489.64	1357.80
489.84	1251.31
490.04	1222.64
490.24	1325.04
490.44	1325.04
490.64	1245.16
490.85	1322.99
491.05	1454.06
491.25	2103.26
491.45	2648.02
491.65	2965.46
491.85	3268.56
492.05	3309.52
492.26	2840.53
492.46	2379.74
492.66	2207.71
492.86	2002.91
493.06	1980.39
493.26	1873.89
493.46	1810.40
493.67	1734.63
493.87	1662.95
494.07	1466.35
494.27	1421.29
494.47	1347.56
494.67	1374.19
494.87	1322.99
495.07	1257.45
495.28	1273.84
495.48	1339.37
495.68	1226.73
495.88	1282.03
496.08	1302.51
496.28	1290.22
496.48	1361.90
496.68	1286.12
496.88	1384.43
497.09	1277.93
497.29	1282.03
497.49	1345.52
497.69	1236.97
497.89	1294.32
498.09	1257.45
498.29	1284.08
498.49	1343.47
498.69	1314.80
498.89	1314.80
499.09	1331.18
499.30	1249.26
499.50	1314.80
499.70	1335.28
499.90	1298.41
500.10	1304.56
500.30	1624.04
500.50	3100.62
500.70	5767.08
500.90	7288.72
501.10	8808.31
501.30	9533.29
501.50	8980.34
501.71	6672.28
501.91	5425.07
502.11	4681.66
502.31	4288.45
502.51	3948.48
502.71	3747.78
502.91	3315.66
503.11	2936.79
503.31	2549.72
503.51	2179.04
503.71	1937.38
503.91	1898.47
504.11	1880.04
504.31	1943.52
504.51	1955.81
504.71	1830.88
504.91	1656.81
505.11	1572.84
505.32	1538.02
505.52	1515.50
505.72	1523.69
505.92	1462.25
506.12	1404.91
506.32	1331.18
506.52	1374.19
506.72	1329.13
506.92	1343.47
507.12	1343.47
507.32	1388.52
507.52	1400.81
507.72	1368.04
507.92	1284.08
508.12	1294.32
508.32	1296.36
508.52	1249.26
508.72	1345.52
508.92	1282.03
509.12	1185.77
509.32	1249.26
509.52	1253.36
509.72	1368.04
509.92	1181.68
510.12	1318.89
510.32	1302.51
510.52	1298.41
510.72	1249.26
510.92	1320.94
511.12	1306.60
511.32	1249.26
511.52	1236.97
511.72	1380.33
511.92	1290.22
512.12	1263.60
512.32	1273.84
512.52	1259.50
512.72	1304.56
512.92	1302.51
513.12	1310.70
513.32	1294.32
513.52	1355.76
513.72	1282.03
513.92	1275.88
514.12	1345.52
514.32	1327.08
514.52	1306.60
514.72	1380.33
514.92	1351.66
515.12	1355.76
515.32	1355.76
515.52	1308.65
515.72	1347.56
515.92	1290.22
516.12	1255.40
516.32	1267.69
516.52	1296.36
516.72	1349.61
516.91	1333.23
517.11	1267.69
517.31	1322.99
517.51	1284.08
517.71	1253.36
517.91	1366.00
518.11	1314.80
518.31	1316.84
518.51	1368.04
518.71	1286.12
518.91	1376.24
519.11	1288.17
519.31	1257.45
519.51	1351.66
519.71	1308.65
519.91	1404.91
520.11	1288.17
520.30	1351.66
520.50	1263.60
520.70	1306.60
520.90	1359.85
521.10	1308.65
521.30	1316.84
521.50	1279.98
521.70	1230.83
521.90	1241.07
522.10	1304.56
522.30	1300.46
522.50	1300.46
522.70	1355.76
522.89	1294.32
523.09	1343.47
523.29	1253.36
523.49	1216.49
523.69	1343.47
523.89	1290.22
524.09	1271.79
524.29	1230.83
524.49	1292.27
524.69	1292.27
524.88	1286.12
525.08	1308.65
525.28	1277.93
525.48	1265.64
525.68	1273.84
525.88	1290.22
526.08	1329.13
526.28	1282.03
526.48	1298.41
526.67	1316.84
526.87	1284.08
527.07	1171.44
527.27	1261.55
527.47	1255.40
527.67	1306.60
527.87	1232.88
528.07	1273.84
528.26	1273.84
528.46	1316.84
528.66	1306.60
528.86	1288.17
529.06	1261.55
529.26	1255.40
529.46	1335.28
529.65	1322.99
529.85	1243.12
530.05	1306.60
530.25	1267.69
530.45	1245.16
530.65	1320.94
530.85	1304.56
531.04	1290.22
531.24	1259.50
531.44	1239.02
531.64	1249.26
531.84	1286.12
532.04	1347.56
532.23	1357.80
532.43	1380.33
532.63	1353.71
532.83	1327.08
533.03	1341.42
533.23	1368.04
533.42	1353.71
533.62	1384.43
533.82	1421.29
534.02	1355.76
534.22	1370.09
534.42	1333.23
534.61	1341.42
534.81	1370.09
535.01	1286.12
535.21	1273.84
535.41	1337.32
535.60	1292.27
535.80	1351.66
536.00	1308.65
536.20	1279.98
536.40	1349.61
536.60	1208.30
536.79	1239.02
536.99	1245.16
537.19	1312.75
537.39	1314.80
537.59	1343.47
537.78	1255.40
537.98	1249.26
538.18	1355.76
538.38	1331.18
538.57	1298.41
538.77	1292.27
538.97	1161.20
539.17	1333.23
539.37	1269.74
539.56	1230.83
539.76	1284.08
539.96	1236.97
540.16	1267.69
540.36	1318.89
540.55	1269.74
540.75	1325.04
540.95	1302.51
541.15	1273.84
541.34	1296.36
541.54	1259.50
541.74	1241.07
541.94	1290.22
542.13	1198.06
542.33	1249.26
542.53	1267.69
542.73	1230.83
542.92	1284.08
543.12	1314.80
543.32	1261.55
543.52	1316.84
543.71	1208.30
543.91	1374.19
544.11	1294.32
544.31	1249.26
544.50	1212.40
544.70	1196.01
544.90	1335.28
545.10	1236.97
545.29	1222.64
545.49	1222.64
545.69	1312.75
545.89	1261.55
546.08	1363.95
546.28	1310.70
546.48	1284.08
546.68	1251.31
546.87	1282.03
547.07	1263.60
547.27	1261.55
547.46	1337.32
547.66	1253.36
547.86	1282.03
548.06	1394.67
548.25	1314.80
548.45	1253.36
548.65	1251.31
548.84	1257.45
549.04	1277.93
549.24	1253.36
549.43	1306.60
549.63	1273.84
549.83	1263.60
550.03	1327.08
550.22	1265.64
550.42	1329.13
550.62	1273.84
550.81	1366.00
551.01	1296.36
551.21	1345.52
551.40	1216.49
551.60	1300.46
551.80	1300.46
552.00	1298.41
552.19	1263.60
552.39	1384.43
552.59	1257.45
552.78	1310.70
552.98	1286.12
553.18	1234.93
553.37	1255.40
553.57	1284.08
553.77	1265.64
553.96	1228.78
554.16	1312.75
554.36	1294.32
554.55	1292.27
554.75	1269.74
554.95	1265.64
555.14	1275.88
555.34	1282.03
555.54	1253.36
555.73	1275.88
555.93	1337.32
556.12	1212.40
556.32	1312.75
556.52	1300.46
556.71	1294.32
556.91	1249.26
557.11	1325.04
557.30	1304.56
557.50	1253.36
557.70	1337.32
557.89	1314.80
558.09	1320.94
558.29	1245.16
558.48	1331.18
558.68	1304.56
558.87	1302.51
559.07	1320.94
559.27	1279.98
559.46	1339.37
559.66	1275.88
559.86	1355.76
560.05	1312.75
560.25	1222.64
560.44	1241.07
560.64	1392.62
560.84	1222.64
561.03	1226.73
561.23	1275.88
561.42	1220.59
561.62	1318.89
561.82	1339.37
562.01	1261.55
562.21	1222.64
562.41	1232.88
562.60	1271.79
562.80	1273.84
562.99	1228.78
563.19	1243.12
563.38	1200.11
563.58	1322.99
563.78	1290.22
563.97	1224.69
564.17	1249.26
564.36	1290.22
564.56	1316.84
564.76	1370.09
564.95	1251.31
565.15	1353.71
565.34	1284.08
565.54	1363.95
565.73	1318.89
565.93	1296.36
566.13	1273.84
566.32	1232.88
566.52	1343.47
566.71	1349.61
566.91	1382.38
567.10	1314.80
567.30	1220.59
567.50	1320.94
567.69	1267.69
567.89	1261.55
568.08	1273.84
568.28	1265.64
568.47	1275.88
568.67	1298.41
568.86	1249.26
569.06	1263.60
569.26	1263.60
569.45	1351.66
569.65	1329.13
569.84	1329.13
570.04	1329.13
570.23	1286.12
570.43	1226.73
570.62	1331.18
570.82	1286.12
571.01	1322.99
571.21	1347.56
571.40	1353.71
571.60	1318.89
571.80	1314.80
571.99	1216.49
572.19	1322.99
572.38	1376.24
572.58	1267.69
572.77	1347.56
572.97	1273.84
573.16	1292.27
573.36	1284.08
573.55	1277.93
573.75	1347.56
573.94	1320.94
574.14	1331.18
574.33	1320.94
574.53	1261.55
574.72	1339.37
574.92	1357.80
575.11	1310.70
575.31	1359.85
575.50	1413.10
575.70	1480.68
575.89	1468.39
576.09	1587.18
576.28	1513.45
576.48	1452.01
576.67	1470.44
576.87	1433.58
577.06	1458.15
577.26	1460.20
577.45	1445.87
577.65	1429.48
577.84	1320.94
578.04	1386.47
578.23	1386.47
578.42	1388.52
578.62	1302.51
578.81	1384.43
579.01	1327.08
579.20	1372.14
579.40	1327.08
579.59	1382.38
579.79	1380.33
579.98	1312.75
580.18	1406.95
580.37	1394.67
580.57	1306.60
580.76	1372.14
580.95	1322.99
581.15	1413.10
581.34	1470.44
581.54	1478.63
581.73	1529.83
581.93	1527.78
582.12	1499.11
582.32	1386.47
582.51	1396.71
582.70	1384.43
582.90	1370.09
583.09	1351.66
583.29	1349.61
583.48	1279.98
583.68	1277.93
583.87	1318.89
584.06	1318.89
584.26	1495.02
584.45	1523.69
584.65	1650.66
584.84	1658.85
585.04	1679.33
585.23	1748.97
585.42	1634.28
585.62	1556.46
585.81	1595.37
586.01	1728.49
586.20	2174.94
586.39	4761.53
586.59	16774.91
586.78	34135.54
586.98	43892.07
587.17	51174.64
587.36	55747.76
587.56	49833.22
587.75	37137.87
587.95	31168.04
588.14	25912.95
588.33	22060.72
588.53	19355.35
588.72	17088.25
588.92	14534.43
589.11	11652.94
589.30	9260.91
589.50	7057.30
589.69	5052.34
589.89	3585.99
590.08	2867.16
590.27	2260.96
590.47	1941.47
590.66	1755.11
590.85	1599.46
591.05	1509.35
591.24	1466.35
591.43	1409.00
591.63	1423.34
591.82	1402.86
592.02	1345.52
592.21	1357.80
592.40	1327.08
592.60	1347.56
592.79	1427.43
592.98	1253.36
593.18	1257.45
593.37	1308.65
593.56	1355.76
593.76	1404.91
593.95	1484.78
594.14	1621.99
594.34	1519.59
594.53	1550.31
594.72	1513.45
594.92	1421.29
595.11	1409.00
595.30	1370.09
595.50	1400.81
595.69	1345.52
595.88	1290.22
596.08	1335.28
596.27	1288.17
596.46	1419.24
596.66	1409.00
596.85	1380.33
597.04	1478.63
597.24	1417.19
597.43	1433.58
597.62	1374.19
597.82	1333.23
598.01	1361.90
598.20	1429.48
598.40	1454.06
598.59	1380.33
598.78	1333.23
598.98	1372.14
599.17	1347.56
599.36	1349.61
599.55	1304.56
599.75	1400.81
599.94	1294.32
600.13	1347.56
600.33	1318.89
600.52	1322.99
600.71	1302.51
600.90	1345.52
601.10	1247.21
601.29	1320.94
601.48	1243.12
601.68	1277.93
601.87	1271.79
602.06	1351.66
602.25	1386.47
602.45	1339.37
602.64	1413.10
602.83	1331.18
603.03	1441.77
603.22	1308.65
603.41	1368.04
603.60	1310.70
603.80	1292.27
603.99	1286.12
604.18	1286.12
604.37	1279.98
604.57	1339.37
604.76	1249.26
604.95	1312.75
605.14	1292.27
605.34	1273.84
605.53	1327.08
605.72	1296.36
605.91	1335.28
606.11	1224.69
606.30	1271.79
606.49	1337.32
606.68	1413.10
606.88	1486.83
607.07	1523.69
607.26	1511.40
607.45	1380.33
607.65	1376.24
607.84	1316.84
608.03	1380.33
608.22	1355.76
608.41	1388.52
608.61	1468.39
608.80	1495.02
608.99	1542.12
609.18	1648.61
609.38	1705.96
609.57	1671.14
609.76	1609.70
609.95	1505.26
610.14	1468.39
610.34	1404.91
610.53	1427.43
610.72	1376.24
610.91	1439.72
611.10	1366.00
611.30	1341.42
611.49	1320.94
611.68	1296.36
611.87	1267.69
612.06	1355.76
612.26	1314.80
612.45	1292.27
612.64	1296.36
612.83	1251.31
613.02	1331.18
613.22	1509.35
613.41	1607.66
613.60	1785.83
613.79	1961.95
613.98	2154.46
614.17	2136.03
614.37	1937.38
614.56	1755.11
614.75	1724.39
614.94	1669.09
615.13	1720.29
615.33	1611.75
615.52	1566.70
615.71	1585.13
615.90	1665.00
616.09	1570.79
616.28	1550.31
616.47	1441.77
616.67	1474.54
616.86	1337.32
617.05	1374.19
617.24	1415.15
617.43	1458.15
617.62	1363.95
617.82	1353.71
618.01	1337.32
618.20	1341.42
618.39	1322.99
618.58	1435.63
618.77	1329.13
618.96	1337.32
619.16	1279.98
619.35	1357.80
619.54	1269.74
619.73	1263.60
619.92	1310.70
620.11	1255.40
620.30	1259.50
620.49	1243.12
620.69	1288.17
620.88	1366.00
621.07	1292.27
621.26	1427.43
621.45	1378.28
621.64	1392.62
621.83	1421.29
622.02	1380.33
622.21	1339.37
622.41	1351.66
622.60	1417.19
622.79	1298.41
622.98	1322.99
623.17	1263.60
623.36	1310.70
623.55	1298.41
623.74	1234.93
623.93	1335.28
624.12	1245.16
624.32	1343.47
624.51	1255.40
624.70	1259.50
624.89	1329.13
625.08	1349.61
625.27	1269.74
625.46	1290.22
625.65	1347.56
625.84	1495.02
626.03	1560.55
626.22	1560.55
626.41	1669.09
626.61	1636.33
626.80	1535.98
626.99	1535.98
627.18	1507.30
627.37	1490.92
627.56	1482.73
627.75	1351.66
627.94	1439.72
628.13	1363.95
628.32	1320.94
628.51	1370.09
628.70	1333.23
628.89	1294.32
629.08	1265.64
629.27	1269.74
629.46	1310.70
629.65	1331.18
629.85	1409.00
630.04	1425.39
630.23	1382.38
630.42	1378.28
630.61	1363.95
630.80	1417.19
630.99	1290.22
631.18	1359.85
631.37	1282.03
631.56	1290.22
631.75	1275.88
631.94	1355.76
632.13	1392.62
632.32	1441.77
632.51	1466.35
632.70	1621.99
632.89	1601.51
633.08	1757.16
633.27	1761.25
633.46	1665.00
633.65	1583.08
633.84	1564.65
634.03	1499.11
634.22	1474.54
634.41	1409.00
634.60	1462.25
634.79	1384.43
634.98	1335.28
635.17	1392.62
635.36	1282.03
635.55	1263.60
635.74	1288.17
635.93	1263.60
636.12	1296.36
636.31	1279.98
636.50	1279.98
636.69	1273.84
636.88	1312.75
637.07	1331.18
637.26	1363.95
637.45	1454.06
637.64	1595.37
637.83	1691.62
638.02	1759.21
638.21	1675.24
638.40	1603.56
638.59	1507.30
638.78	1513.45
638.97	1581.03
639.16	1814.50
639.35	2365.40
639.54	2785.24
639.73	3256.27
639.92	3477.45
640.11	3532.75
640.29	3186.64
640.48	2676.70
640.67	2570.20
640.86	2381.79
641.05	2152.42
641.24	2072.54
641.43	1961.95
641.62	1757.16
641.81	1658.85
642.00	1552.36
642.19	1423.34
642.38	1445.87
642.57	1372.14
642.76	1310.70
642.95	1359.85
643.14	1265.64
643.33	1284.08
643.51	1271.79
643.70	1220.59
643.89	1329.13
644.08	1234.93
644.27	1224.69
644.46	1286.12
644.65	1292.27
644.84	1318.89
645.03	1181.68
645.22	1271.79
645.41	1298.41
645.60	1322.99
645.78	1249.26
645.97	1343.47
646.16	1296.36
646.35	1329.13
646.54	1247.21
646.73	1251.31
646.92	1232.88
647.11	1304.56
647.30	1263.60
647.49	1249.26
647.67	1230.83
647.86	1273.84
648.05	1300.46
648.24	1214.45
648.43	1267.69
648.62	1255.40
648.81	1310.70
649.00	1279.98
649.19	1175.53
649.37	1273.84
649.56	1294.32
649.75	1523.69
649.94	1669.09
650.13	1794.02
650.32	1877.99
650.51	1824.74
650.69	1695.72
650.88	1710.05
651.07	1662.95
651.26	1605.61
651.45	1535.98
651.64	1527.78
651.83	1495.02
652.01	1456.11
652.20	1472.49
652.39	1417.19
652.58	1472.49
652.77	1427.43
652.96	1406.95
653.15	1406.95
653.33	1390.57
653.52	1419.24
653.71	1372.14
653.90	1339.37
654.09	1390.57
654.28	1345.52
654.46	1251.31
654.65	1318.89
654.84	1234.93
655.03	1322.99
655.22	1322.99
655.41	1271.79
655.59	1245.16
655.78	1353.71
655.97	1341.42
656.16	1292.27
656.35	1325.04
656.53	1294.32
656.72	1355.76
656.91	1335.28
657.10	1265.64
657.29	1267.69
657.48	1249.26
657.66	1234.93
657.85	1271.79
658.04	1279.98
658.23	1275.88
658.42	1366.00
658.60	1279.98
658.79	1298.41
658.98	1318.89
659.17	1443.82
659.35	1466.35
659.54	1495.02
659.73	1497.07
659.92	1533.93
660.11	1421.29
660.29	1378.28
660.48	1415.15
660.67	1347.56
660.86	1304.56
661.05	1396.71
661.23	1277.93
661.42	1353.71
661.61	1290.22
661.80	1300.46
661.98	1257.45
662.17	1275.88
662.36	1322.99
662.55	1339.37
662.73	1337.32
662.92	1300.46
663.11	1255.40
663.30	1265.64
663.48	1269.74
663.67	1198.06
663.86	1294.32
664.05	1290.22
664.23	1271.79
664.42	1298.41
664.61	1292.27
664.80	1284.08
664.98	1259.50
665.17	1343.47
665.36	1304.56
665.55	1409.00
665.73	1294.32
665.92	1337.32
666.11	1310.70
666.30	1402.86
666.48	1396.71
666.67	2244.57
666.86	6066.08
667.04	13209.40
667.23	16731.90
667.42	19615.44
667.61	21612.21
667.79	20592.33
667.98	15132.44
668.17	13494.07
668.35	11935.56
668.54	10917.72
668.73	9664.36
668.92	8535.93
669.10	6956.95
669.29	5586.86
669.48	4353.98
669.66	3612.62
669.85	2795.48
670.04	2267.10
670.22	1906.66
670.41	1714.15
670.60	1523.69
670.78	1552.36
670.97	1546.22
671.16	1574.89
671.35	1515.50
671.53	1560.55
671.72	1495.02
671.91	1531.88
672.09	1439.72
672.28	1470.44
672.47	1331.18
672.65	1380.33
672.84	1409.00
673.03	1318.89
673.21	1290.22
673.40	1380.33
673.59	1341.42
673.77	1294.32
673.96	1300.46
674.15	1259.50
674.33	1300.46
674.52	1222.64
674.71	1320.94
674.89	1300.46
675.08	1279.98
675.27	1322.99
675.45	1294.32
675.64	1273.84
675.82	1271.79
676.01	1247.21
676.20	1302.51
676.38	1277.93
676.57	1302.51
676.76	1263.60
676.94	1308.65
677.13	1247.21
677.32	1286.12
677.50	1269.74
677.69	1378.28
677.87	1366.00
678.06	1269.74
678.25	1296.36
678.43	1253.36
678.62	1275.88
678.81	1329.13
678.99	1271.79
679.18	1296.36
679.36	1187.82
679.55	1292.27
679.74	1329.13
679.92	1337.32
680.11	1269.74
680.29	1282.03
680.48	1318.89
680.67	1294.32
680.85	1296.36
681.04	1228.78
681.22	1245.16
681.41	1314.80
681.60	1304.56
681.78	1220.59
681.97	1253.36
682.15	1273.84
682.34	1306.60
682.52	1234.93
682.71	1230.83
682.90	1277.93
683.08	1284.08
683.27	1366.00
683.45	1267.69
683.64	1257.45
683.83	1296.36
684.01	1251.31
684.20	1337.32
684.38	1273.84
684.57	1286.12
684.75	1189.87
684.94	1286.12
685.12	1282.03
685.31	1296.36
685.50	1193.97
685.68	1259.50
685.87	1343.47
686.05	1232.88
686.24	1294.32
686.42	1253.36
686.61	1241.07
686.79	1292.27
686.98	1245.16
687.17	1325.04
687.35	1296.36
687.54	1224.69
687.72	1339.37
687.91	1304.56
688.09	1335.28
688.28	1187.82
688.46	1191.92
688.65	1284.08
688.83	1228.78
689.02	1241.07
689.20	1198.06
689.39	1247.21
689.57	1290.22
689.76	1271.79
689.94	1308.65
690.13	1331.18
690.31	1361.90
690.50	1314.80
690.68	1302.51
690.87	1325.04
691.05	1300.46
691.24	1298.41
691.42	1288.17
691.61	1214.45
691.79	1329.13
691.98	1411.05
692.16	1372.14
692.35	1517.54
692.53	1538.02
692.72	1501.16
692.90	1501.16
693.09	1511.40
693.27	1421.29
693.46	1411.05
693.64	1427.43
693.83	1357.80
694.01	1341.42
694.20	1361.90
694.38	1357.80
694.57	1363.95
694.75	1150.96
694.94	1241.07
695.12	1286.12
695.31	1353.71
695.49	1347.56
695.68	1314.80
695.86	1339.37
696.04	1382.38
696.23	1282.03
696.41	1245.16
696.60	1306.60
696.78	1294.32
696.97	1236.97
697.15	1306.60
697.34	1333.23
697.52	1257.45
697.71	1357.80
697.89	1292.27
698.07	1306.60
698.26	1234.93
698.44	1341.42
698.63	1282.03
698.81	1257.45
699.00	1279.98
699.18	1308.65
699.36	1169.39
699.55	1257.45
699.73	1245.16
699.92	1230.83
700.10	1347.56
700.29	1273.84
700.47	1208.30
700.65	1347.56
700.84	1284.08
701.02	1296.36
701.21	1277.93
701.39	1363.95
701.58	1282.03
701.76	1327.08
701.94	1308.65
702.13	1335.28
702.31	1519.59
702.50	1873.89
702.68	1902.56
702.86	2035.68
703.05	2080.74
703.23	2080.74
703.42	1798.12
703.60	1757.16
703.78	1652.71
703.97	1732.58
704.15	1605.61
704.33	1595.37
704.52	1490.92
704.70	1554.41
704.89	1488.87
705.07	1353.71
705.25	1605.61
705.44	2656.22
705.62	7249.81
705.80	13698.86
705.99	16520.96
706.17	19332.82
706.36	20475.59
706.54	18734.82
706.72	14204.71
706.91	12648.26
707.09	11401.04
707.27	10843.99
707.46	9975.66
707.64	8748.92
707.82	7438.22
708.01	5808.04
708.19	4384.70
708.37	3186.64
708.56	2605.02
708.74	2000.87
708.93	1738.73
709.11	1605.61
709.29	1443.82
709.48	1431.53
709.66	1359.85
709.84	1392.62
710.03	1247.21
710.21	1347.56
710.39	1308.65
710.58	1265.64
710.76	1357.80
710.94	1282.03
711.12	1386.47
711.31	1325.04
711.49	1320.94
711.67	1331.18
711.86	1282.03
712.04	1318.89
712.22	1298.41
712.41	1269.74
712.59	1259.50
712.77	1249.26
712.96	1290.22
713.14	1257.45
713.32	1294.32
713.50	1222.64
713.69	1275.88
713.87	1353.71
714.05	1206.25
714.24	1298.41
714.42	1331.18
714.60	1243.12
714.79	1296.36
714.97	1322.99
715.15	1277.93
715.33	1261.55
715.52	1253.36
715.70	1253.36
715.88	1269.74
716.06	1331.18
716.25	1259.50
716.43	1355.76
716.61	1224.69
716.80	1343.47
716.98	1290.22
717.16	1306.60
717.34	1331.18
717.53	1402.86
717.71	1226.73
717.89	1257.45
718.07	1404.91
718.26	1245.16
718.44	1304.56
718.62	1263.60
718.80	1251.31
718.99	1282.03
719.17	1345.52
719.35	1318.89
719.53	1269.74
719.72	1396.71
719.90	1247.21
720.08	1214.45
720.26	1298.41
720.45	1257.45
720.63	1273.84
720.81	1175.53
720.99	1259.50
721.18	1181.68
721.36	1331.18
721.54	1304.56
721.72	1290.22
721.90	1296.36
722.09	1302.51
722.27	1284.08
722.45	1273.84
722.63	1331.18
722.81	1343.47
723.00	1236.97
723.18	1181.68
723.36	1306.60
723.54	1359.85
723.73	1392.62
723.91	1460.20
724.09	1533.93
724.27	1568.74
724.45	1527.78
724.64	1398.76
724.82	1427.43
725.00	1437.67
725.18	1384.43
725.36	1429.48
725.54	1331.18
725.73	1396.71
725.91	1347.56
726.09	1337.32
726.27	1316.84
726.45	1308.65
726.64	1290.22
726.82	1380.33
727.00	1402.86
727.18	1929.19
727.36	3286.99
727.54	4173.76
727.73	4671.42
727.91	4966.32
728.09	5109.68
728.27	4452.28
728.45	3538.89
728.63	3430.35
728.82	3196.88
729.00	2928.60
729.18	2750.42
729.36	2291.68
729.54	1984.48
729.72	1806.31
729.90	1611.75
730.09	1558.50
730.27	1433.58
730.45	1355.76
730.63	1310.70
730.81	1363.95
730.99	1304.56
731.17	1329.13
731.36	1275.88
731.54	1267.69
731.72	1234.93
731.90	1279.98
732.08	1306.60
732.26	1347.56
732.44	1363.95
732.62	1320.94
732.80	1279.98
732.99	1269.74
733.17	1243.12
733.35	1286.12
733.53	1290.22
733.71	1255.40
733.89	1249.26
734.07	1277.93
734.25	1298.41
734.43	1259.50
734.62	1245.16
734.80	1265.64
734.98	1241.07
735.16	1265.64
735.34	1241.07
735.52	1232.88
735.70	1312.75
735.88	1228.78
736.06	1267.69
736.24	1312.75
736.42	1302.51
736.61	1265.64
736.79	1220.59
736.97	1316.84
737.15	1282.03
737.33	1302.51
737.51	1269.74
737.69	1249.26
737.87	1320.94
738.05	1245.16
738.23	1310.70
738.41	1239.02
738.59	1316.84
738.77	1292.27
738.95	1263.60
739.14	1275.88
739.32	1261.55
739.50	1267.69
739.68	1216.49
739.86	1269.74
740.04	1193.97
740.22	1189.87
740.40	1284.08
740.58	1265.64
740.76	1282.03
740.94	1232.88
741.12	1279.98
741.30	1218.54
741.48	1290.22
741.66	1343.47
741.84	1310.70
742.02	1310.70
742.20	1253.36
742.38	1312.75
742.56	1230.83
742.74	1208.30
742.92	1279.98
743.10	1271.79
743.28	1325.04
743.46	1259.50
743.64	1347.56
743.82	1345.52
744.00	1304.56
744.18	1347.56
744.36	1349.61
744.54	1249.26
744.72	1275.88
744.90	1314.80
745.08	1204.21
745.26	1243.12
745.44	1275.88
745.62	1300.46
745.80	1337.32
745.98	1261.55
746.16	1257.45
746.34	1269.74
746.52	1261.55
746.70	1298.41
746.88	1290.22
747.06	1318.89
747.24	1335.28
747.42	1239.02
747.60	1277.93
747.78	1271.79
747.96	1345.52
748.14	1288.17
748.32	1411.05
748.50	1372.14
748.68	1333.23
748.86	1263.60
749.04	1437.67
749.22	1306.60
749.40	1292.27
749.58	1288.17
749.76	1335.28
749.94	1234.93
750.12	1267.69
750.30	1259.50
750.48	1257.45
750.66	1253.36
750.84	1320.94
751.01	1218.54
751.19	1322.99
751.37	1282.03
751.55	1296.36
751.73	1341.42
751.91	1296.36
752.09	1302.51
752.27	1249.26
752.45	1282.03
752.63	1243.12
752.81	1267.69
752.99	1327.08
753.17	1273.84
753.35	1310.70
753.52	1304.56
753.70	1306.60
753.88	1343.47
754.06	1339.37
754.24	1333.23
754.42	1312.75
754.60	1314.80
754.78	1318.89
754.96	1296.36
755.14	1247.21
755.32	1310.70
755.49	1275.88
755.67	1288.17
755.85	1236.97
756.03	1273.84
756.21	1282.03
756.39	1296.36
756.57	1232.88
756.75	1314.80
756.93	1259.50
757.10	1333.23
757.28	1271.79
757.46	1193.97
757.64	1234.93
757.82	1265.64
758.00	1288.17
758.18	1220.59
758.36	1249.26
758.53	1277.93
758.71	1277.93
758.89	1333.23
759.07	1243.12
759.25	1294.32
759.43	1212.40
759.61	1236.97
759.78	1460.20
759.96	1241.07
760.14	1212.40
760.32	1249.26
760.50	1249.26
760.68	1247.21
760.86	1257.45
761.03	1284.08
761.21	1208.30
761.39	1247.21
761.57	1294.32
761.75	1284.08
761.93	1214.45
762.10	1308.65
762.28	1329.13
762.46	1290.22
762.64	1273.84
762.82	1218.54
763.00	1269.74
763.17	1308.65
763.35	1202.16
763.53	1245.16
763.71	1312.75
763.89	1322.99
764.07	1322.99
764.24	1247.21
764.42	1341.42
764.60	1236.97
764.78	1322.99
764.96	1288.17
765.13	1224.69
765.31	1296.36
765.49	1290.22
765.67	1261.55
765.85	1277.93
766.02	1277.93
766.20	1302.51
766.38	1220.59
766.56	1304.56
766.74	1282.03
766.91	1327.08
767.09	1245.16
767.27	1282.03
767.45	1294.32
767.62	1312.75
767.80	1288.17
767.98	1277.93
768.16	1337.32
768.34	1290.22
768.51	1232.88
768.69	1249.26
768.87	1345.52
769.05	1298.41
769.22	1255.40
769.40	1277.93
769.58	1290.22
769.76	1275.88
769.93	1294.32
770.11	1232.88
770.29	1208.30
770.47	1247.21
770.64	1271.79
770.82	1255.40
771.00	1277.93
771.18	1259.50
771.35	1273.84
771.53	1271.79
771.71	1288.17
771.89	1255.40
772.06	1255.40
772.24	1226.73
772.42	1271.79
772.60	1226.73
772.77	1259.50
772.95	1312.75
773.13	1263.60
773.30	1286.12
773.48	1327.08
773.66	1243.12
773.84	1259.50
774.01	1239.02
774.19	1282.03
774.37	1271.79
774.55	1236.97
774.72	1210.35
774.90	1210.35
775.08	1259.50
775.25	1351.66
775.43	1314.80
775.61	1265.64
775.78	1304.56
775.96	1257.45
776.14	1155.05
776.32	1232.88
776.49	1277.93
776.67	1390.57
776.85	1257.45
777.02	1294.32
777.20	1322.99
777.38	1359.85
777.55	1269.74
777.73	1325.04
777.91	1337.32
778.08	1314.80
778.26	1292.27
778.44	1306.60
778.61	1312.75
778.79	1261.55
778.97	1290.22
779.14	1282.03
779.32	1210.35
779.50	1302.51
779.67	1239.02
779.85	1271.79
780.03	1275.88
780.20	1284.08
780.38	1277.93
780.56	1314.80
780.73	1236.97
780.91	1249.26
781.09	1296.36
781.26	1253.36
781.44	1357.80
781.62	1331.18
781.79	1282.03
781.97	1251.31
782.14	1226.73
782.32	1273.84
782.50	1247.21
782.67	1273.84
782.85	1288.17
783.03	1275.88
783.20	1294.32
783.38	1239.02
783.55	1298.41
783.73	1306.60
783.91	1359.85
784.08	1284.08
784.26	1239.02
784.44	1349.61
784.61	1228.78
784.79	1320.94
784.96	1298.41
785.14	1263.60
785.32	1304.56
785.49	1249.26
785.67	1290.22
785.84	1308.65
786.02	1310.70
786.20	1288.17
786.37	1216.49
786.55	1284.08
786.72	1230.83
786.90	1200.11
787.07	1306.60
787.25	1292.27
787.43	1279.98
787.60	1224.69
787.78	1333.23
787.95	1279.98
788.13	1271.79
788.31	1212.40
788.48	1214.45
788.66	1298.41
788.83	1253.36
789.01	1308.65
789.18	1290.22
789.36	1236.97
789.53	1243.12
789.71	1241.07
789.89	1234.93
790.06	1343.47
790.24	1322.99
790.41	1298.41
790.59	1228.78
790.76	1220.59
790.94	1347.56
791.11	1327.08
791.29	1230.83
791.47	1310.70
791.64	1251.31
791.82	1271.79
791.99	1290.22
792.17	1361.90
792.34	1230.83
792.52	1298.41
792.69	1335.28
792.87	1259.50
793.04	1320.94
793.22	1271.79
793.39	1245.16
793.57	1306.60
793.74	1236.97
793.92	1279.98
794.09	1282.03
794.27	1308.65
794.44	1249.26
794.62	1206.25
794.79	1318.89
794.97	1339.37
795.14	1329.13
795.32	1263.60
795.49	1312.75
795.67	1314.80
795.84	1269.74
796.02	1275.88
796.19	1327.08
796.37	1259.50
796.54	1290.22
796.72	1224.69
796.89	1247.21
797.07	1249.26
797.24	1271.79
797.42	1275.88
797.59	1243.12
797.77	1275.88
797.94	1277.93
798.12	1286.12
798.29	1331.18
798.47	1251.31
798.64	1322.99
798.82	1312.75
798.99	1277.93
799.17	1249.26
799.34	1269.74
799.51	1249.26
799.69	1366.00
799.86	1230.83
800.04	1312.75
800.21	1288.17
800.39	1255.40
800.56	1339.37
800.74	1259.50
800.91	1220.59
801.09	1210.35
801.26	1247.21
801.43	1327.08
801.61	1345.52
801.78	1286.12
801.96	1314.80
802.13	1298.41
802.31	1247.21
802.48	1249.26
802.65	1284.08
802.83	1331.18
803.00	1267.69
803.18	1251.31
803.35	1380.33
803.53	1257.45
803.70	1239.02
803.87	1282.03
804.05	1263.60
804.22	1304.56
804.40	1296.36
804.57	1257.45
804.74	1296.36
804.92	1292.27
805.09	1347.56
805.27	1208.30
805.44	1263.60
805.61	1181.68
805.79	1298.41
805.96	1302.51
806.14	1230.83
806.31	1308.65
806.48	1282.03
806.66	1236.97
806.83	1298.41
807.01	1349.61
807.18	1298.41
807.35	1277.93
807.53	1208.30
807.70	1253.36
807.87	1265.64
808.05	1185.77
808.22	1228.78
808.40	1333.23
808.57	1206.25
808.74	1298.41
808.92	1265.64
809.09	1224.69
809.26	1245.16
809.44	1226.73
809.61	1245.16
809.78	1234.93
809.96	1241.07
810.13	1259.50
810.30	1310.70
810.48	1251.31
810.65	1331.18
810.82	1259.50
811.00	1181.68
811.17	1214.45
811.34	1359.85
811.52	1243.12
811.69	1298.41
811.86	1265.64
812.04	1298.41
812.21	1253.36
812.38	1257.45
812.56	1257.45
812.73	1296.36
812.90	1300.46
813.08	1251.31
813.25	1304.56
813.42	1320.94
813.60	1232.88
813.77	1298.41
813.94	1243.12
814.12	1286.12
814.29	1288.17
814.46	1206.25
814.64	1290.22
814.81	1322.99
814.98	1247.21
815.15	1232.88
815.33	1298.41
815.50	1331.18
815.67	1288.17
815.85	1251.31
816.02	1239.02
816.19	1165.29
816.36	1243.12
816.54	1241.07
816.71	1259.50
816.88	1265.64
817.06	1204.21
817.23	1230.83
817.40	1239.02
817.57	1314.80
817.75	1273.84
817.92	1312.75
818.09	1282.03
818.26	1265.64
818.44	1273.84
818.61	1222.64
818.78	1249.26
818.96	1251.31
819.13	1247.21
819.30	1308.65
819.47	1230.83
819.65	1298.41
819.82	1265.64
819.99	1310.70
820.16	1273.84
820.34	1337.32
820.51	1245.16
820.68	1214.45
820.85	1224.69
821.02	1327.08
821.20	1286.12
821.37	1253.36
821.54	1239.02
821.71	1320.94
821.89	1265.64
822.06	1325.04
822.23	1294.32
822.40	1243.12
822.58	1355.76
822.75	1294.32
822.92	1255.40
823.09	1296.36
823.26	1249.26
823.44	1259.50
823.61	1222.64
823.78	1312.75
823.95	1292.27
824.12	1239.02
824.30	1265.64
824.47	1275.88
824.64	1224.69
824.81	1314.80
824.98	1228.78
825.16	1255.40
825.33	1292.27
825.50	1300.46
825.67	1310.70
825.84	1306.60
826.02	1265.64
826.19	1404.91
826.36	1294.32
826.53	1249.26
826.70	1279.98
826.87	1304.56
827.05	1292.27
827.22	1284.08
827.39	1251.31
827.56	1314.80
827.73	1249.26
827.90	1284.08
828.08	1265.64
828.25	1298.41
828.42	1349.61
828.59	1265.64
828.76	1263.60
828.93	1271.79
829.10	1263.60
829.28	1249.26
829.45	1288.17
829.62	1306.60
829.79	1245.16
829.96	1314.80
830.13	1292.27
830.30	1322.99
830.48	1275.88
830.65	1277.93
830.82	1220.59
830.99	1347.56
831.16	1339.37
831.33	1273.84
831.50	1288.17
831.68	1269.74
831.85	1290.22
832.02	1255.40
832.19	1341.42
832.36	1208.30
832.53	1333.23
832.70	1322.99
832.87	1206.25
833.04	1310.70
833.22	1181.68
833.39	1239.02
833.56	1349.61
833.73	1230.83
833.90	1239.02
834.07	1259.50
834.24	1212.40
834.41	1173.49
834.58	1275.88
834.75	1275.88
834.93	1382.38
835.10	1230.83
835.27	1333.23
835.44	1390.57
835.61	1279.98
835.78	1304.56
835.95	1228.78
836.12	1255.40
836.29	1298.41
836.46	1189.87
836.63	1218.54
836.80	1251.31
836.97	1347.56
837.14	1292.27
837.32	1310.70
837.49	1357.80
837.66	1333.23
837.83	1298.41
838.00	1384.43
838.17	1427.43
838.34	1378.28
838.51	1294.32
838.68	1236.97
838.85	1271.79
839.02	1271.79
839.19	1239.02
839.36	1310.70
839.53	1279.98
839.70	1286.12
839.87	1329.13
840.04	1339.37
840.21	1298.41
840.38	1302.51
840.55	1312.75
840.72	1212.40
840.89	1310.70
841.06	1259.50
841.23	1269.74
841.41	1261.55
841.58	1208.30
841.75	1249.26
841.92	1251.31
842.09	1312.75
842.26	1275.88
842.43	1331.18
842.60	1314.80
842.77	1251.31
842.94	1267.69
843.11	1177.58
843.28	1265.64
843.45	1181.68
843.62	1236.97
843.79	1312.75
843.96	1282.03
844.13	1241.07
844.30	1302.51
844.47	1251.31
844.64	1337.32
844.81	1316.84
844.97	1249.26
845.14	1265.64
845.31	1259.50
845.48	1292.27
845.65	1302.51
845.82	1312.75
845.99	1314.80
846.16	1200.11
846.33	1175.53
846.50	1257.45
846.67	1288.17
846.84	1243.12
847.01	1187.82
847.18	1265.64
847.35	1366.00
847.52	1245.16
847.69	1249.26
847.86	1216.49
848.03	1320.94
848.20	1304.56
848.37	1232.88
848.54	1234.93
848.71	1288.17
848.88	1269.74
849.04	1269.74
849.21	1292.27
849.38	1388.52
849.55	1345.52
849.72	1234.93
849.89	1259.50
850.06	1327.08
850.23	1341.42
850.40	1292.27
850.57	1325.04
850.74	1349.61
850.91	1288.17
851.08	1212.40
851.24	1247.21
851.41	1353.71
851.58	1232.88
851.75	1232.88
851.92	1241.07
852.09	1282.03
852.26	1230.83
852.43	1279.98
852.60	1245.16
852.77	1234.93
852.93	1251.31
853.10	1298.41
853.27	1271.79
853.44	1245.16
853.61	1150.96
853.78	1306.60
853.95	1316.84
854.12	1325.04
854.29	1322.99
854.45	1296.36
854.62	1236.97
854.79	1308.65
854.96	1243.12
855.13	1298.41
855.30	1302.51
855.47	1331.18
855.64	1300.46
855.80	1247.21
855.97	1228.78
856.14	1263.60
856.31	1204.21
856.48	1288.17
856.65	1282.03
856.82	1298.41
856.98	1226.73
857.15	1306.60
857.32	1294.32
857.49	1216.49
857.66	1251.31
857.83	1325.04
857.99	1222.64
858.16	1310.70
858.33	1239.02
858.50	1257.45
858.67	1222.64
858.84	1249.26
859.00	1288.17
859.17	1343.47
859.34	1298.41
859.51	1267.69
859.68	1306.60
859.85	1255.40
860.01	1257.45
860.18	1306.60
860.35	1255.40
860.52	1247.21
860.69	1286.12
860.85	1245.16
861.02	1310.70
861.19	1247.21
861.36	1308.65
861.53	1294.32
861.69	1282.03
861.86	1318.89
862.03	1302.51
862.20	1298.41
862.37	1294.32
862.53	1304.56
862.70	1286.12
862.87	1294.32
863.04	1243.12
863.21	1292.27
863.37	1265.64
863.54	1247.21
863.71	1279.98
863.88	1294.32
864.04	1329.13
864.21	1302.51
864.38	1279.98
864.55	1185.77
864.71	1249.26
864.88	1269.74
865.05	1273.84
865.22	1261.55
865.38	1263.60
865.55	1306.60
865.72	1314.80
865.89	1306.60
866.05	1292.27
866.22	1290.22
866.39	1347.56
866.56	1253.36
866.72	1300.46
866.89	1277.93
867.06	1273.84
867.23	1210.35
867.39	1322.99
867.56	1275.88
867.73	1255.40
867.90	1314.80
868.06	1359.85
868.23	1304.56
868.40	1230.83
868.57	1282.03
868.73	1282.03
868.90	1206.25
869.07	1282.03
869.23	1298.41
869.40	1167.34
869.57	1304.56
869.74	1241.07
869.90	1327.08
870.07	1269.74
870.24	1296.36
870.40	1263.60
870.57	1232.88
870.74	1263.60
870.90	1245.16
871.07	1183.73
871.24	1296.36
871.40	1312.75
871.57	1286.12
871.74	1212.40
871.91	1282.03
872.07	1290.22
872.24	1300.46
872.41	1273.84
872.57	1306.60
872.74	1255.40
872.91	1263.60
873.07	1273.84
873.24	1314.80
873.41	1169.39
873.57	1247.21
873.74	1263.60
873.91	1294.32
874.07	1226.73
874.24	1286.12
874.41	1222.64
874.57	1236.97
874.74	1282.03
874.91	1282.03
875.07	1279.98
875.24	1286.12
875.40	1275.88
875.57	1247.21
875.74	1284.08
875.90	1271.79
876.07	1337.32
876.24	1271.79
876.40	1224.69
876.57	1269.74
876.74	1228.78
876.90	1228.78
877.07	1294.32
877.23	1200.11
877.40	1282.03
877.57	1277.93
877.73	1243.12
877.90	1249.26
878.07	1290.22
878.23	1269.74
878.40	1286.12
878.56	1308.65
878.73	1228.78
878.90	1306.60
879.06	1257.45
879.23	1374.19
879.39	1325.04
879.56	1196.01
879.73	1271.79
879.89	1249.26
880.06	1306.60
880.22	1308.65
880.39	1290.22
880.56	1218.54
880.72	1267.69
880.89	1318.89
881.05	1261.55
881.22	1316.84
881.38	1335.28
881.55	1310.70
881.72	1288.17
881.88	1325.04
882.05	1322.99
882.21	1314.80
882.38	1263.60
882.54	1277.93
882.71	1277.93
882.88	1306.60
883.04	1251.31
883.21	1343.47
883.37	1302.51
883.54	1267.69
883.70	1341.42
883.87	1314.80
884.03	1210.35
884.20	1275.88
884.37	1372.14
884.53	1263.60
884.70	1320.94
884.86	1249.26
885.03	1282.03
885.19	1294.32
885.36	1279.98
885.52	1282.03
885.69	1261.55
885.85	1294.32
886.02	1261.55
886.18	1265.64
886.35	1128.43
886.51	1255.40
886.68	1259.50
886.84	1251.31
887.01	1300.46
887.17	1347.56
887.34	1212.40
887.51	1249.26
887.67	1226.73
887.84	1294.32
888.00	1255.40
888.17	1288.17
888.33	1269.74
888.50	1312.75
888.66	1308.65
888.83	1247.21
888.99	1259.50
>>>>>End Processed Spectral Data<<<<<
