SpectraSuite Data File
++++++++++++++++++++++++++++++++++++
Date: Thu May 05 12:34:59 CEST 2016
User: root
Dark Spectrum Present: No
Reference Spectrum Present: No
Number of Sampled Component Spectra: 1
Spectrometers: USB4C02835
Integration Time (usec): 100000 (USB4C02835)
Spectra Averaged: 1 (USB4C02835)
Boxcar Smoothing: 0 (USB4C02835)
Correct for Electrical Dark: No (USB4C02835)
Strobe/Lamp Enabled: No (USB4C02835)
Correct for Detector Non-linearity: No (USB4C02835)
Correct for Stray Light: No (USB4C02835)
Number of Pixels in Processed Spectrum: 3648
>>>>>Begin Processed Spectral Data<<<<<
177.47	1777.64
177.69	1777.64
177.91	1777.64
178.13	1763.30
178.36	1746.92
178.58	2047.97
178.80	2187.23
179.02	2068.45
179.24	2031.58
179.46	2133.98
179.68	2144.22
179.90	2150.37
180.13	2207.71
180.35	2068.45
180.57	2140.13
180.79	2318.30
181.01	2185.18
181.23	2314.20
181.45	2277.34
181.67	2220.00
181.90	2308.06
182.12	2220.00
182.34	2037.73
182.56	2179.04
182.78	2242.53
183.00	2074.59
183.22	2166.75
183.44	1996.77
183.66	2385.88
183.89	2224.09
184.11	2232.29
184.33	2228.19
184.55	2400.22
184.77	2162.66
184.99	2109.41
185.21	2181.09
185.43	2463.71
185.65	2158.56
185.87	2125.79
186.10	2402.27
186.32	2408.41
186.54	2217.95
186.76	2226.14
186.98	2236.38
187.20	2168.80
187.42	2117.60
187.64	2142.18
187.86	2289.63
188.08	2271.20
188.30	2076.64
188.52	2109.41
188.75	2312.16
188.97	2275.29
189.19	2099.17
189.41	2113.50
189.63	2236.38
189.85	2170.85
190.07	1982.43
190.29	2035.68
190.51	2168.80
190.73	2039.78
190.95	2293.72
191.17	2154.46
191.39	2101.22
191.61	2170.85
191.84	2056.16
192.06	2181.09
192.28	2029.54
192.50	2590.68
192.72	2101.22
192.94	2070.50
193.16	2361.31
193.38	2254.81
193.60	2029.54
193.82	2093.02
194.04	2234.33
194.26	2185.18
194.48	2203.61
194.70	2060.26
194.92	2152.42
195.14	2220.00
195.36	1986.53
195.58	2146.27
195.80	2197.47
196.02	2189.28
196.24	2113.50
196.46	2203.61
196.69	2203.61
196.91	2480.09
197.13	2193.37
197.35	2103.26
197.57	2281.44
197.79	2246.62
198.01	2176.99
198.23	2187.23
198.45	2297.82
198.67	2050.02
198.89	2068.45
199.11	2228.19
199.33	2138.08
199.55	2013.15
199.77	2136.03
199.99	2203.61
200.21	2162.66
200.43	2267.10
200.65	2015.20
200.87	1951.71
201.09	2236.38
201.31	2113.50
201.53	2174.94
201.75	2172.89
201.97	2183.13
202.19	2197.47
202.41	2183.13
202.63	2293.72
202.85	2217.95
203.07	2228.19
203.29	2129.89
203.51	2015.20
203.73	2090.98
203.95	2422.75
204.17	2150.37
204.39	2154.46
204.61	2203.61
204.83	2191.33
205.05	2246.62
205.27	2146.27
205.49	2426.84
205.71	2211.81
205.93	1994.72
206.15	2088.93
206.37	2211.81
206.59	2187.23
206.81	2015.20
207.03	2115.55
207.25	2105.31
207.47	2220.00
207.69	2129.89
207.91	2285.53
208.13	2326.49
208.34	2103.26
208.56	2064.35
208.78	2150.37
209.00	2164.70
209.22	2142.18
209.44	2072.54
209.66	2076.64
209.88	2162.66
210.10	2213.85
210.32	2086.88
210.54	2154.46
210.76	2146.27
210.98	2244.57
211.20	2002.91
211.42	2236.38
211.64	2334.68
211.86	2170.85
212.08	2185.18
212.30	2150.37
212.52	2220.00
212.74	2252.77
212.96	2170.85
213.17	2183.13
213.39	2375.64
213.61	2308.06
213.83	2097.12
214.05	2215.90
214.27	2332.64
214.49	2123.74
214.71	2068.45
214.93	2267.10
215.15	2281.44
215.37	2303.96
215.59	2117.60
215.81	2191.33
216.03	2336.73
216.24	2228.19
216.46	2152.42
216.68	2191.33
216.90	2236.38
217.12	2168.80
217.34	2162.66
217.56	2160.61
217.78	2351.07
218.00	2265.05
218.22	2189.28
218.44	2220.00
218.66	2168.80
218.87	2404.32
219.09	2170.85
219.31	2213.85
219.53	2158.56
219.75	2170.85
219.97	2170.85
220.19	2166.75
220.41	2211.81
220.63	2344.92
220.85	2162.66
221.06	2097.12
221.28	2271.20
221.50	2205.66
221.72	2097.12
221.94	2176.99
222.16	2179.04
222.38	2330.59
222.60	2195.42
222.82	2226.14
223.03	2209.76
223.25	2162.66
223.47	2082.78
223.69	2320.35
223.91	2256.86
224.13	2285.53
224.35	2090.98
224.57	2242.53
224.78	2226.14
225.00	2144.22
225.22	2129.89
225.44	2121.70
225.66	2242.53
225.88	2252.77
226.10	2230.24
226.32	2158.56
226.53	2387.93
226.75	2146.27
226.97	2150.37
227.19	2131.94
227.41	2211.81
227.63	2127.84
227.85	1939.43
228.06	2113.50
228.28	2138.08
228.50	2258.91
228.72	2086.88
228.94	2117.60
229.16	2080.74
229.37	2054.11
229.59	2068.45
229.81	2285.53
230.03	2129.89
230.25	2064.35
230.47	2037.73
230.69	2062.30
230.90	2306.01
231.12	2152.42
231.34	2170.85
231.56	2215.90
231.78	2062.30
232.00	2158.56
232.21	2152.42
232.43	2138.08
232.65	2017.25
232.87	2170.85
233.09	2080.74
233.30	2060.26
233.52	2322.40
233.74	2240.48
233.96	2127.84
234.18	2129.89
234.40	2144.22
234.61	2439.13
234.83	2045.92
235.05	2080.74
235.27	2521.05
235.49	2310.11
235.70	2142.18
235.92	2234.33
236.14	2236.38
236.36	2471.90
236.58	2086.88
236.79	2228.19
237.01	2166.75
237.23	2252.77
237.45	2285.53
237.67	2078.69
237.88	2199.52
238.10	2299.87
238.32	2072.54
238.54	2152.42
238.76	2146.27
238.97	2084.83
239.19	2121.70
239.41	2174.94
239.63	2346.97
239.85	2121.70
240.06	2144.22
240.28	2121.70
240.50	2254.81
240.72	2191.33
240.93	2035.68
241.15	2203.61
241.37	2170.85
241.59	2236.38
241.81	2168.80
242.02	2142.18
242.24	2174.94
242.46	2256.86
242.68	2056.16
242.89	2119.65
243.11	2332.64
243.33	2232.29
243.55	2179.04
243.76	2170.85
243.98	2142.18
244.20	2179.04
244.42	2045.92
244.64	2084.83
244.85	2076.64
245.07	2121.70
245.29	2220.00
245.51	2152.42
245.72	2242.53
245.94	2301.92
246.16	2127.84
246.38	2166.75
246.59	2144.22
246.81	2109.41
247.03	2111.46
247.24	2002.91
247.46	2119.65
247.68	2232.29
247.90	2074.59
248.11	2074.59
248.33	2250.72
248.55	2164.70
248.77	2244.57
248.98	2211.81
249.20	2351.07
249.42	2164.70
249.64	2224.09
249.85	2127.84
250.07	2291.68
250.29	2291.68
250.50	2195.42
250.72	2060.26
250.94	2273.25
251.16	2445.27
251.37	2158.56
251.59	2240.48
251.81	2252.77
252.02	2283.49
252.24	2080.74
252.46	2174.94
252.68	2152.42
252.89	2054.11
253.11	1972.19
253.33	2244.57
253.54	2324.44
253.76	2088.93
253.98	2172.89
254.20	2105.31
254.41	2107.36
254.63	2232.29
254.85	2062.30
255.06	2072.54
255.28	2244.57
255.50	2068.45
255.71	2148.32
255.93	2052.06
256.15	2156.51
256.36	2260.96
256.58	2060.26
256.80	2170.85
257.02	2150.37
257.23	2107.36
257.45	2199.52
257.67	2209.76
257.88	2164.70
258.10	2242.53
258.32	2144.22
258.53	2129.89
258.75	2408.41
258.97	2138.08
259.18	2099.17
259.40	2129.89
259.62	2285.53
259.83	2355.16
260.05	2195.42
260.27	2691.03
260.48	2338.78
260.70	2195.42
260.92	2050.02
261.13	2170.85
261.35	2195.42
261.57	2295.77
261.78	2064.35
262.00	2052.06
262.22	2316.25
262.43	2056.16
262.65	2107.36
262.86	2095.07
263.08	2383.84
263.30	2158.56
263.51	2041.82
263.73	2131.94
263.95	2334.68
264.16	2162.66
264.38	2101.22
264.60	2093.02
264.81	2252.77
265.03	2240.48
265.25	2211.81
265.46	2150.37
265.68	2320.35
265.89	2222.05
266.11	1964.00
266.33	2123.74
266.54	2361.31
266.76	2242.53
266.98	2203.61
267.19	2246.62
267.41	2326.49
267.62	2187.23
267.84	2009.06
268.06	2213.85
268.27	2179.04
268.49	2312.16
268.70	2172.89
268.92	2191.33
269.14	2080.74
269.35	2093.02
269.57	2183.13
269.79	2183.13
270.00	2146.27
270.22	2342.88
270.43	1986.53
270.65	1959.91
270.87	2207.71
271.08	2191.33
271.30	2170.85
271.51	2220.00
271.73	2353.12
271.95	2271.20
272.16	2174.94
272.38	2189.28
272.59	2121.70
272.81	2332.64
273.02	2158.56
273.24	2121.70
273.46	2279.39
273.67	2113.50
273.89	2064.35
274.10	2078.69
274.32	2236.38
274.54	2160.61
274.75	2123.74
274.97	2103.26
275.18	2283.49
275.40	2273.25
275.61	2160.61
275.83	2228.19
276.05	2136.03
276.26	2121.70
276.48	2207.71
276.69	2158.56
276.91	2133.98
277.12	2293.72
277.34	2256.86
277.55	2301.92
277.77	2183.13
277.99	2181.09
278.20	2144.22
278.42	2086.88
278.63	2101.22
278.85	2115.55
279.06	2058.21
279.28	2222.05
279.49	2267.10
279.71	2269.15
279.93	2150.37
280.14	2179.04
280.36	2138.08
280.57	2277.34
280.79	2213.85
281.00	2117.60
281.22	2170.85
281.43	2240.48
281.65	1982.43
281.86	2119.65
282.08	2281.44
282.29	2383.84
282.51	2056.16
282.73	2121.70
282.94	2066.40
283.16	2322.40
283.37	2258.91
283.59	2154.46
283.80	2203.61
284.02	2181.09
284.23	2179.04
284.45	2187.23
284.66	2129.89
284.88	2107.36
285.09	2142.18
285.31	2228.19
285.52	2226.14
285.74	2078.69
285.95	2287.58
286.17	2236.38
286.38	2322.40
286.60	2084.83
286.81	2160.61
287.03	2224.09
287.24	2131.94
287.46	2217.95
287.67	2144.22
287.89	2334.68
288.10	2254.81
288.32	2152.42
288.53	2369.50
288.75	2164.70
288.96	2277.34
289.18	2162.66
289.39	2119.65
289.61	2269.15
289.82	2375.64
290.04	2334.68
290.25	2111.46
290.47	2144.22
290.68	2191.33
290.90	2322.40
291.11	2031.58
291.33	2269.15
291.54	2068.45
291.76	2152.42
291.97	2131.94
292.18	2224.09
292.40	2154.46
292.61	2170.85
292.83	2293.72
293.04	2193.37
293.26	2193.37
293.47	2144.22
293.69	1996.77
293.90	2152.42
294.12	2217.95
294.33	2160.61
294.55	2203.61
294.76	2213.85
294.97	2398.17
295.19	2412.51
295.40	2136.03
295.62	2207.71
295.83	2252.77
296.05	2125.79
296.26	2330.59
296.48	2115.55
296.69	2166.75
296.90	2209.76
297.12	2254.81
297.33	2242.53
297.55	2301.92
297.76	2240.48
297.98	2230.24
298.19	2265.05
298.41	2195.42
298.62	2168.80
298.83	2306.01
299.05	2209.76
299.26	2154.46
299.48	2047.97
299.69	2277.34
299.90	2107.36
300.12	2119.65
300.33	2246.62
300.55	2252.77
300.76	2263.01
300.98	2093.02
301.19	2316.25
301.40	2158.56
301.62	2154.46
301.83	2299.87
302.05	2183.13
302.26	2193.37
302.47	2179.04
302.69	2054.11
302.90	2158.56
303.12	1900.52
303.33	2250.72
303.54	2383.84
303.76	2150.37
303.97	2121.70
304.19	2299.87
304.40	2121.70
304.61	2179.04
304.83	2303.96
305.04	2185.18
305.26	2203.61
305.47	2109.41
305.68	2230.24
305.90	2201.57
306.11	2291.68
306.33	2191.33
306.54	2168.80
306.75	2138.08
306.97	2023.39
307.18	2103.26
307.39	2119.65
307.61	2220.00
307.82	2176.99
308.04	2263.01
308.25	2113.50
308.46	2269.15
308.68	2201.57
308.89	2242.53
309.10	2328.54
309.32	2258.91
309.53	2138.08
309.74	2301.92
309.96	2179.04
310.17	2246.62
310.39	2123.74
310.60	2285.53
310.81	2154.46
311.03	2174.94
311.24	2158.56
311.45	2123.74
311.67	2371.55
311.88	2154.46
312.09	2099.17
312.31	2097.12
312.52	2113.50
312.73	2170.85
312.95	2066.40
313.16	2187.23
313.37	2277.34
313.59	2267.10
313.80	2220.00
314.01	2357.21
314.23	2086.88
314.44	2086.88
314.65	2056.16
314.87	2105.31
315.08	2174.94
315.29	2140.13
315.51	2176.99
315.72	2125.79
315.93	2303.96
316.15	2314.20
316.36	2154.46
316.57	2183.13
316.79	2185.18
317.00	2113.50
317.21	2260.96
317.43	2113.50
317.64	2185.18
317.85	2140.13
318.07	2138.08
318.28	2232.29
318.49	2349.02
318.70	2441.18
318.92	2383.84
319.13	2371.55
319.34	2387.93
319.56	2295.77
319.77	2355.16
319.98	2299.87
320.20	2375.64
320.41	2252.77
320.62	2279.39
320.83	2158.56
321.05	2342.88
321.26	2244.57
321.47	2181.09
321.69	2373.60
321.90	2023.39
322.11	2105.31
322.32	2242.53
322.54	2400.22
322.75	2166.75
322.96	2420.70
323.18	2056.16
323.39	2037.73
323.60	2090.98
323.81	2252.77
324.03	2164.70
324.24	2230.24
324.45	2236.38
324.66	2097.12
324.88	2240.48
325.09	2404.32
325.30	2170.85
325.52	2172.89
325.73	2224.09
325.94	2105.31
326.15	2050.02
326.37	2140.13
326.58	2244.57
326.79	2424.80
327.00	2064.35
327.22	2211.81
327.43	2131.94
327.64	2107.36
327.85	2191.33
328.07	2146.27
328.28	2297.82
328.49	2105.31
328.70	2193.37
328.92	2174.94
329.13	2230.24
329.34	2213.85
329.55	2326.49
329.76	2283.49
329.98	2183.13
330.19	2373.60
330.40	2199.52
330.61	2191.33
330.83	2234.33
331.04	2086.88
331.25	2240.48
331.46	2158.56
331.68	2086.88
331.89	2244.57
332.10	2189.28
332.31	2154.46
332.52	2150.37
332.74	2308.06
332.95	2093.02
333.16	2146.27
333.37	2316.25
333.58	2113.50
333.80	2140.13
334.01	2080.74
334.22	2117.60
334.43	2107.36
334.64	2117.60
334.86	2029.54
335.07	2086.88
335.28	2308.06
335.49	2107.36
335.70	2168.80
335.92	2324.44
336.13	2453.47
336.34	2232.29
336.55	2224.09
336.76	2187.23
336.98	2017.25
337.19	2191.33
337.40	2299.87
337.61	2441.18
337.82	2160.61
338.04	2287.58
338.25	2047.97
338.46	2172.89
338.67	2220.00
338.88	2072.54
339.09	2105.31
339.31	2080.74
339.52	2111.46
339.73	2099.17
339.94	2140.13
340.15	2254.81
340.36	2136.03
340.58	2226.14
340.79	2160.61
341.00	2244.57
341.21	2056.16
341.42	2377.69
341.63	2166.75
341.85	2242.53
342.06	2220.00
342.27	2080.74
342.48	2258.91
342.69	2113.50
342.90	2338.78
343.12	2301.92
343.33	2199.52
343.54	2322.40
343.75	2375.64
343.96	2150.37
344.17	2039.78
344.38	2228.19
344.60	2140.13
344.81	2129.89
345.02	2127.84
345.23	2369.50
345.44	2471.90
345.65	2226.14
345.86	2203.61
346.07	2174.94
346.29	2117.60
346.50	2217.95
346.71	2209.76
346.92	2267.10
347.13	2318.30
347.34	2170.85
347.55	2125.79
347.76	2269.15
347.98	2160.61
348.19	2138.08
348.40	2342.88
348.61	2150.37
348.82	2322.40
349.03	2174.94
349.24	2043.87
349.45	2312.16
349.66	2099.17
349.88	2197.47
350.09	2099.17
350.30	2330.59
350.51	2211.81
350.72	2314.20
350.93	2222.05
351.14	2183.13
351.35	2320.35
351.56	2144.22
351.77	2086.88
351.99	2326.49
352.20	2359.26
352.41	2234.33
352.62	2029.54
352.83	2254.81
353.04	2252.77
353.25	2095.07
353.46	2244.57
353.67	2310.11
353.88	1935.33
354.09	2170.85
354.30	2181.09
354.52	2297.82
354.73	2236.38
354.94	2113.50
355.15	2164.70
355.36	2361.31
355.57	2160.61
355.78	2187.23
355.99	2170.85
356.20	2209.76
356.41	2310.11
356.62	2207.71
356.83	2115.55
357.04	2301.92
357.25	2111.46
357.46	2125.79
357.68	2064.35
357.89	2115.55
358.10	2228.19
358.31	2228.19
358.52	2150.37
358.73	2086.88
358.94	2148.32
359.15	2154.46
359.36	2215.90
359.57	2193.37
359.78	2236.38
359.99	2295.77
360.20	2144.22
360.41	2189.28
360.62	2203.61
360.83	2277.34
361.04	2168.80
361.25	2220.00
361.46	2383.84
361.67	2293.72
361.88	2228.19
362.09	2318.30
362.30	2242.53
362.51	2160.61
362.72	2185.18
362.93	2338.78
363.14	2275.29
363.35	2131.94
363.56	2160.61
363.78	2351.07
363.99	2234.33
364.20	2062.30
364.41	2226.14
364.62	2471.90
364.83	2226.14
365.04	2150.37
365.25	2209.76
365.46	2353.12
365.67	2183.13
365.88	2291.68
366.09	2086.88
366.30	2240.48
366.51	2146.27
366.72	2045.92
366.93	2209.76
367.14	2205.66
367.35	2330.59
367.56	2160.61
367.77	2363.36
367.98	2234.33
368.18	2275.29
368.39	2299.87
368.60	2117.60
368.81	2351.07
369.02	2170.85
369.23	2123.74
369.44	2052.06
369.65	2150.37
369.86	2228.19
370.07	2265.05
370.28	2133.98
370.49	2287.58
370.70	2283.49
370.91	2045.92
371.12	2095.07
371.33	2220.00
371.54	2119.65
371.75	2283.49
371.96	2043.87
372.17	2242.53
372.38	2179.04
372.59	2234.33
372.80	2150.37
373.01	2156.51
373.22	2240.48
373.43	2174.94
373.64	2084.83
373.85	2310.11
374.06	2297.82
374.26	2232.29
374.47	2217.95
374.68	2293.72
374.89	2201.57
375.10	2142.18
375.31	2217.95
375.52	2162.66
375.73	2236.38
375.94	2056.16
376.15	2318.30
376.36	2117.60
376.57	2097.12
376.78	2138.08
376.99	2248.67
377.20	2295.77
377.40	2162.66
377.61	2369.50
377.82	2007.01
378.03	2301.92
378.24	2281.44
378.45	2168.80
378.66	2256.86
378.87	2058.21
379.08	2076.64
379.29	2072.54
379.50	2281.44
379.71	2129.89
379.91	2301.92
380.12	2150.37
380.33	2201.57
380.54	2258.91
380.75	2148.32
380.96	2174.94
381.17	2238.43
381.38	2191.33
381.59	2310.11
381.80	2158.56
382.00	2320.35
382.21	2271.20
382.42	2394.08
382.63	2439.13
382.84	2220.00
383.05	2232.29
383.26	2402.27
383.47	2203.61
383.68	2248.67
383.88	2260.96
384.09	2244.57
384.30	2389.98
384.51	2246.62
384.72	2043.87
384.93	2099.17
385.14	2082.78
385.35	2281.44
385.55	2142.18
385.76	2351.07
385.97	2162.66
386.18	2117.60
386.39	2142.18
386.60	2209.76
386.81	2170.85
387.02	1974.24
387.22	2099.17
387.43	2346.97
387.64	2283.49
387.85	2418.65
388.06	2406.36
388.27	4186.05
388.48	8824.70
388.68	12599.10
388.89	15032.09
389.10	16076.55
389.31	14708.51
389.52	11450.19
389.73	10078.05
389.93	8972.15
390.14	8241.03
390.35	7417.74
390.56	6518.68
390.77	5490.60
390.98	4149.18
391.18	3315.66
391.39	2719.70
391.60	2392.03
391.81	2297.82
392.02	2150.37
392.23	2498.52
392.43	2176.99
392.64	2256.86
392.85	2183.13
393.06	2373.60
393.27	2185.18
393.47	2179.04
393.68	2097.12
393.89	2146.27
394.10	2430.94
394.31	2127.84
394.52	2111.46
394.72	2103.26
394.93	2381.79
395.14	2095.07
395.35	2217.95
395.56	2146.27
395.76	2207.71
395.97	2217.95
396.18	2365.40
396.39	2357.21
396.60	2654.17
396.80	2426.84
397.01	2394.08
397.22	2334.68
397.43	2385.88
397.64	2226.14
397.84	2308.06
398.05	2482.14
398.26	2236.38
398.47	2252.77
398.67	2320.35
398.88	2248.67
399.09	2314.20
399.30	2109.41
399.51	2318.30
399.71	2158.56
399.92	2213.85
400.13	2125.79
400.34	2146.27
400.54	2250.72
400.75	2267.10
400.96	2256.86
401.17	2365.40
401.37	2189.28
401.58	2199.52
401.79	2119.65
402.00	2349.02
402.21	2643.93
402.41	2557.91
402.62	2514.91
402.83	2693.08
403.04	2668.50
403.24	2793.43
403.45	2361.31
403.66	2447.32
403.87	2408.41
404.07	2519.00
404.28	2416.60
404.49	2519.00
404.70	2310.11
404.90	2289.63
405.11	2279.39
405.32	2185.18
405.52	2121.70
405.73	2088.93
405.94	2054.11
406.15	2224.09
406.35	2211.81
406.56	2240.48
406.77	2220.00
406.98	2129.89
407.18	2150.37
407.39	2295.77
407.60	2244.57
407.80	2240.48
408.01	2154.46
408.22	2271.20
408.43	2062.30
408.63	2246.62
408.84	2291.68
409.05	2246.62
409.25	2203.61
409.46	2181.09
409.67	2228.19
409.88	2019.30
410.08	2287.58
410.29	2109.41
410.50	2248.67
410.70	2275.29
410.91	2185.18
411.12	2154.46
411.32	2226.14
411.53	2101.22
411.74	2349.02
411.95	2295.77
412.15	2301.92
412.36	2342.88
412.57	2293.72
412.77	2342.88
412.98	2285.53
413.19	2121.70
413.39	2293.72
413.60	2271.20
413.81	2363.36
414.01	2138.08
414.22	2293.72
414.43	2238.43
414.63	2154.46
414.84	2336.73
415.05	2211.81
415.25	2088.93
415.46	2359.26
415.67	2152.42
415.87	2271.20
416.08	2148.32
416.29	2156.51
416.49	2222.05
416.70	2154.46
416.91	2105.31
417.11	2160.61
417.32	2238.43
417.53	2281.44
417.73	2256.86
417.94	2220.00
418.15	2267.10
418.35	2279.39
418.56	2183.13
418.77	2377.69
418.97	2207.71
419.18	2138.08
419.38	2013.15
419.59	2220.00
419.80	2363.36
420.00	2187.23
420.21	2191.33
420.42	2287.58
420.62	2217.95
420.83	2146.27
421.04	2156.51
421.24	2154.46
421.45	2263.01
421.65	2224.09
421.86	2148.32
422.07	2260.96
422.27	2250.72
422.48	2179.04
422.69	1988.58
422.89	2220.00
423.10	2185.18
423.30	2101.22
423.51	2244.57
423.72	2287.58
423.92	2209.76
424.13	2068.45
424.33	2201.57
424.54	2279.39
424.75	2205.66
424.95	2326.49
425.16	2209.76
425.36	2158.56
425.57	2260.96
425.78	2211.81
425.98	2263.01
426.19	2189.28
426.39	2086.88
426.60	2211.81
426.81	2330.59
427.01	2277.34
427.22	2146.27
427.42	2011.11
427.63	2111.46
427.83	2254.81
428.04	2351.07
428.25	2334.68
428.45	2306.01
428.66	2295.77
428.86	2203.61
429.07	2211.81
429.28	2176.99
429.48	2240.48
429.69	2154.46
429.89	2224.09
430.10	2060.26
430.30	2275.29
430.51	2342.88
430.71	2185.18
430.92	2222.05
431.13	2160.61
431.33	2271.20
431.54	2197.47
431.74	2349.02
431.95	2406.36
432.15	2176.99
432.36	2193.37
432.56	2248.67
432.77	2375.64
432.98	2412.51
433.18	2228.19
433.39	2115.55
433.59	2195.42
433.80	2363.36
434.00	2408.41
434.21	2133.98
434.41	2215.90
434.62	2443.23
434.82	2160.61
435.03	2138.08
435.23	2265.05
435.44	2050.02
435.64	2185.18
435.85	2234.33
436.06	2301.92
436.26	2285.53
436.47	2275.29
436.67	2127.84
436.88	2170.85
437.08	2367.45
437.29	2353.12
437.49	2187.23
437.70	2351.07
437.90	2205.66
438.11	2332.64
438.31	2252.77
438.52	2455.51
438.72	2428.89
438.93	2506.71
439.13	2283.49
439.34	2408.41
439.54	2260.96
439.75	2293.72
439.95	2293.72
440.16	2090.98
440.36	2283.49
440.57	2179.04
440.77	2238.43
440.98	2254.81
441.18	2314.20
441.39	2146.27
441.59	2146.27
441.80	2359.26
442.00	2191.33
442.21	2289.63
442.41	2133.98
442.62	2324.44
442.82	2150.37
443.02	2222.05
443.23	2191.33
443.43	2146.27
443.64	2342.88
443.84	2197.47
444.05	2334.68
444.25	2220.00
444.46	2150.37
444.66	2260.96
444.87	2394.08
445.07	2099.17
445.28	2217.95
445.48	2404.32
445.69	2199.52
445.89	2490.33
446.09	2248.67
446.30	2432.99
446.50	2848.72
446.71	4546.49
446.91	5652.39
447.12	6397.85
447.32	6875.03
447.53	6315.94
447.73	5173.17
447.93	4659.13
448.14	4157.38
448.34	4161.47
448.55	3708.87
448.75	3616.71
448.96	3317.71
449.16	3010.51
449.36	2959.31
449.57	2566.10
449.77	2381.79
449.98	2226.14
450.18	2353.12
450.39	2279.39
450.59	2242.53
450.79	2170.85
451.00	2162.66
451.20	2238.43
451.41	2252.77
451.61	2252.77
451.81	2205.66
452.02	2162.66
452.22	2166.75
452.43	2152.42
452.63	2125.79
452.84	2183.13
453.04	2150.37
453.24	2228.19
453.45	2195.42
453.65	2119.65
453.86	2236.38
454.06	2330.59
454.26	2234.33
454.47	2093.02
454.67	2353.12
454.87	2289.63
455.08	2242.53
455.28	2385.88
455.49	2158.56
455.69	2168.80
455.89	2416.60
456.10	2301.92
456.30	2230.24
456.51	2254.81
456.71	2265.05
456.91	2271.20
457.12	2271.20
457.32	2191.33
457.52	2138.08
457.73	2179.04
457.93	2250.72
458.14	2095.07
458.34	2019.30
458.54	2176.99
458.75	2150.37
458.95	2215.90
459.15	2213.85
459.36	2224.09
459.56	2273.25
459.76	2387.93
459.97	2265.05
460.17	2222.05
460.37	2299.87
460.58	2176.99
460.78	2320.35
460.99	2160.61
461.19	2168.80
461.39	2121.70
461.60	2174.94
461.80	2220.00
462.00	2154.46
462.21	2195.42
462.41	2129.89
462.61	2093.02
462.82	2084.83
463.02	2289.63
463.22	2289.63
463.43	2312.16
463.63	2234.33
463.83	2410.46
464.04	2277.34
464.24	2240.48
464.44	2121.70
464.64	2228.19
464.85	2238.43
465.05	2236.38
465.25	2273.25
465.46	2131.94
465.66	2342.88
465.86	2353.12
466.07	2308.06
466.27	2166.75
466.47	2179.04
466.68	2078.69
466.88	2351.07
467.08	2293.72
467.29	2230.24
467.49	2242.53
467.69	2181.09
467.89	2258.91
468.10	2224.09
468.30	2260.96
468.50	2342.88
468.71	2306.01
468.91	2031.58
469.11	2324.44
469.31	2203.61
469.52	2148.32
469.72	2353.12
469.92	2375.64
470.13	2176.99
470.33	2203.61
470.53	2351.07
470.73	2668.50
470.94	3114.96
471.14	3323.85
471.34	3694.54
471.54	3532.75
471.75	3174.35
471.95	2879.44
472.15	2748.37
472.36	2768.85
472.56	2748.37
472.76	2766.81
472.96	2617.30
473.17	2465.75
473.37	2473.95
473.57	2273.25
473.77	2287.58
473.98	2310.11
474.18	2109.41
474.38	2521.05
474.58	2127.84
474.79	2172.89
474.99	2199.52
475.19	2351.07
475.39	2138.08
475.60	2277.34
475.80	2183.13
476.00	2211.81
476.20	2160.61
476.41	2230.24
476.61	2252.77
476.81	2281.44
477.01	2097.12
477.21	2373.60
477.42	2265.05
477.62	2084.83
477.82	2308.06
478.02	2226.14
478.23	2215.90
478.43	2113.50
478.63	2230.24
478.83	2125.79
479.03	2199.52
479.24	2340.83
479.44	2387.93
479.64	2086.88
479.84	2035.68
480.04	2179.04
480.25	2297.82
480.45	2170.85
480.65	2082.78
480.85	2267.10
481.06	2164.70
481.26	2222.05
481.46	2191.33
481.66	2179.04
481.86	2142.18
482.06	2250.72
482.27	2142.18
482.47	2228.19
482.67	2191.33
482.87	2195.42
483.07	2265.05
483.28	2138.08
483.48	2125.79
483.68	2138.08
483.88	2086.88
484.08	1961.95
484.29	2093.02
484.49	2162.66
484.69	2097.12
484.89	2336.73
485.09	2463.71
485.29	2160.61
485.50	2252.77
485.70	2189.28
485.90	2301.92
486.10	2213.85
486.30	2285.53
486.50	2211.81
486.71	2279.39
486.91	2283.49
487.11	2303.96
487.31	2107.36
487.51	2127.84
487.71	2117.60
487.91	2148.32
488.12	2158.56
488.32	2047.97
488.52	2201.57
488.72	2029.54
488.92	2269.15
489.12	2252.77
489.32	2285.53
489.53	2207.71
489.73	2080.74
489.93	2359.26
490.13	2121.70
490.33	2060.26
490.53	2156.51
490.73	2351.07
490.94	2017.25
491.14	2236.38
491.34	2355.16
491.54	2531.29
491.74	3172.30
491.94	3780.55
492.14	4145.09
492.34	4251.58
492.54	3848.13
492.75	3237.84
492.95	3151.82
493.15	2969.55
493.35	2996.18
493.55	2850.77
493.75	2748.37
493.95	2729.94
494.15	2525.15
494.35	2308.06
494.56	2338.78
494.76	2222.05
494.96	2256.86
495.16	2285.53
495.36	2240.48
495.56	2127.84
495.76	2258.91
495.96	2228.19
496.16	2129.89
496.36	2402.27
496.56	2183.13
496.77	2248.67
496.97	2166.75
497.17	2379.74
497.37	2080.74
497.57	2287.58
497.77	2203.61
497.97	2136.03
498.17	2236.38
498.37	2232.29
498.57	2217.95
498.77	2160.61
498.97	2322.40
499.17	2435.03
499.38	2199.52
499.58	2228.19
499.78	2275.29
499.98	2279.39
500.18	2301.92
500.38	2103.26
500.58	2326.49
500.78	3002.32
500.98	5285.81
501.18	7393.17
501.38	9129.84
501.58	10139.49
501.78	9965.42
501.98	7948.17
502.18	6518.68
502.38	5783.46
502.58	5269.42
502.78	4777.91
502.98	4577.21
503.18	4257.73
503.38	3964.87
503.59	3434.44
503.79	3235.79
503.99	2891.73
504.19	2836.44
504.39	2848.72
504.59	2926.55
504.79	2801.62
504.99	2922.45
505.19	2539.48
505.39	2494.43
505.59	2639.83
505.79	2514.91
505.99	2383.84
506.19	2318.30
506.39	2432.99
506.59	2258.91
506.79	2148.32
506.99	2408.41
507.19	2285.53
507.39	2234.33
507.59	2193.37
507.79	2187.23
507.99	2133.98
508.19	2277.34
508.39	2156.51
508.59	2203.61
508.79	2365.40
508.99	2349.02
509.19	2164.70
509.39	2230.24
509.59	2142.18
509.79	2172.89
509.99	2205.66
510.19	2289.63
510.39	2244.57
510.59	2236.38
510.79	2121.70
510.99	2152.42
511.19	2203.61
511.39	2316.25
511.59	2320.35
511.79	2314.20
511.99	2232.29
512.19	2342.88
512.38	2195.42
512.58	2183.13
512.78	2228.19
512.98	2342.88
513.18	2396.12
513.38	2082.78
513.58	2193.37
513.78	2166.75
513.98	2201.57
514.18	2125.79
514.38	2136.03
514.58	2316.25
514.78	2176.99
514.98	2136.03
515.18	2162.66
515.38	2127.84
515.58	2400.22
515.78	2129.89
515.98	2183.13
516.18	2236.38
516.38	2248.67
516.57	2203.61
516.77	2146.27
516.97	2258.91
517.17	2138.08
517.37	2019.30
517.57	2310.11
517.77	2193.37
517.97	2136.03
518.17	2181.09
518.37	2095.07
518.57	2144.22
518.77	2140.13
518.97	2179.04
519.16	2232.29
519.36	2355.16
519.56	2166.75
519.76	2217.95
519.96	2185.18
520.16	2303.96
520.36	2125.79
520.56	2244.57
520.76	2176.99
520.96	2217.95
521.16	2191.33
521.35	2367.45
521.55	2256.86
521.75	2187.23
521.95	2195.42
522.15	2160.61
522.35	2041.82
522.55	2133.98
522.75	2260.96
522.95	2142.18
523.14	2084.83
523.34	2187.23
523.54	2113.50
523.74	2254.81
523.94	2164.70
524.14	2088.93
524.34	2166.75
524.54	2281.44
524.73	2232.29
524.93	2258.91
525.13	2324.44
525.33	2101.22
525.53	2430.94
525.73	2299.87
525.93	2250.72
526.13	2185.18
526.32	2220.00
526.52	2363.36
526.72	2269.15
526.92	2238.43
527.12	2138.08
527.32	2115.55
527.52	2265.05
527.71	2191.33
527.91	2080.74
528.11	2183.13
528.31	2162.66
528.51	2090.98
528.71	2293.72
528.90	2236.38
529.10	2289.63
529.30	2289.63
529.50	2056.16
529.70	2240.48
529.90	2070.50
530.09	2277.34
530.29	2050.02
530.49	2101.22
530.69	2453.47
530.89	2215.90
531.09	2269.15
531.28	2174.94
531.48	2326.49
531.68	2189.28
531.88	2232.29
532.08	2324.44
532.28	2209.76
532.47	2357.21
532.67	2363.36
532.87	2318.30
533.07	2129.89
533.27	2291.68
533.46	2324.44
533.66	2258.91
533.86	2189.28
534.06	2181.09
534.26	2248.67
534.45	2277.34
534.65	2277.34
534.85	2267.10
535.05	2172.89
535.25	2365.40
535.44	2072.54
535.64	2258.91
535.84	2197.47
536.04	2209.76
536.24	2117.60
536.43	2176.99
536.63	2283.49
536.83	2125.79
537.03	2236.38
537.22	2150.37
537.42	2047.97
537.62	2222.05
537.82	2136.03
538.02	2344.92
538.21	2340.83
538.41	2498.52
538.61	2242.53
538.81	2254.81
539.00	2283.49
539.20	2062.30
539.40	2238.43
539.60	2240.48
539.79	2250.72
539.99	2203.61
540.19	2101.22
540.39	2166.75
540.58	2273.25
540.78	2340.83
540.98	2185.18
541.18	2301.92
541.37	2277.34
541.57	2236.38
541.77	2226.14
541.97	2109.41
542.16	2111.46
542.36	2156.51
542.56	2115.55
542.76	2416.60
542.95	2297.82
543.15	2260.96
543.35	2277.34
543.54	2131.94
543.74	2166.75
543.94	2324.44
544.14	2129.89
544.33	2244.57
544.53	2197.47
544.73	2152.42
544.93	2164.70
545.12	2142.18
545.32	2154.46
545.52	2150.37
545.71	2109.41
545.91	2103.26
546.11	2154.46
546.30	2125.79
546.50	2160.61
546.70	2301.92
546.90	2217.95
547.09	2015.20
547.29	2269.15
547.49	2308.06
547.68	2127.84
547.88	2082.78
548.08	2285.53
548.27	2699.22
548.47	2170.85
548.67	2164.70
548.87	2269.15
549.06	2168.80
549.26	2224.09
549.46	2258.91
549.65	2119.65
549.85	2211.81
550.05	2240.48
550.24	2160.61
550.44	2234.33
550.64	2213.85
550.83	2156.51
551.03	2306.01
551.23	2328.54
551.42	2265.05
551.62	2236.38
551.82	2230.24
552.01	2176.99
552.21	2277.34
552.41	2162.66
552.60	2359.26
552.80	2144.22
553.00	2248.67
553.19	2263.01
553.39	2332.64
553.59	2111.46
553.78	2215.90
553.98	2197.47
554.17	2111.46
554.37	2166.75
554.57	2297.82
554.76	2060.26
554.96	2119.65
555.16	2342.88
555.35	2242.53
555.55	2197.47
555.75	2250.72
555.94	2260.96
556.14	2029.54
556.33	2211.81
556.53	2224.09
556.73	2133.98
556.92	2240.48
557.12	2316.25
557.32	2334.68
557.51	2299.87
557.71	2289.63
557.90	2379.74
558.10	2285.53
558.30	2179.04
558.49	2195.42
558.69	2187.23
558.88	2263.01
559.08	2256.86
559.28	2228.19
559.47	2213.85
559.67	2244.57
559.86	2422.75
560.06	2207.71
560.26	2150.37
560.45	2316.25
560.65	2265.05
560.84	2385.88
561.04	2084.83
561.24	2267.10
561.43	2185.18
561.63	2326.49
561.82	2260.96
562.02	2346.97
562.22	2199.52
562.41	2113.50
562.61	2144.22
562.80	2129.89
563.00	2473.95
563.19	2230.24
563.39	2234.33
563.59	2267.10
563.78	2113.50
563.98	2052.06
564.17	2129.89
564.37	2019.30
564.56	2119.65
564.76	2050.02
564.96	2332.64
565.15	2267.10
565.35	2465.75
565.54	2181.09
565.74	2222.05
565.93	2240.48
566.13	2189.28
566.32	2271.20
566.52	2258.91
566.71	2234.33
566.91	2318.30
567.11	2248.67
567.30	2189.28
567.50	2279.39
567.69	2209.76
567.89	2220.00
568.08	2166.75
568.28	2258.91
568.47	2064.35
568.67	2185.18
568.86	2131.94
569.06	2293.72
569.25	2203.61
569.45	2203.61
569.64	2185.18
569.84	2117.60
570.04	2289.63
570.23	2172.89
570.43	2152.42
570.62	2162.66
570.82	2346.97
571.01	2093.02
571.21	2136.03
571.40	2162.66
571.60	2332.64
571.79	2183.13
571.99	2269.15
572.18	2203.61
572.38	2250.72
572.57	2183.13
572.77	2209.76
572.96	2523.10
573.16	2246.62
573.35	2189.28
573.55	2273.25
573.74	2138.08
573.94	2260.96
574.13	2176.99
574.33	2279.39
574.52	2414.56
574.71	2248.67
574.91	2299.87
575.10	2156.51
575.30	2160.61
575.49	2088.93
575.69	2166.75
575.88	2326.49
576.08	2203.61
576.27	2369.50
576.47	2258.91
576.66	2457.56
576.86	2349.02
577.05	2213.85
577.25	2340.83
577.44	2408.41
577.64	2240.48
577.83	2271.20
578.02	2273.25
578.22	2328.54
578.41	2420.70
578.61	2285.53
578.80	2121.70
579.00	2195.42
579.19	2252.77
579.39	2170.85
579.58	2334.68
579.77	2256.86
579.97	2414.56
580.16	2389.98
580.36	2334.68
580.55	2316.25
580.75	2271.20
580.94	2277.34
581.13	2340.83
581.33	2418.65
581.52	2303.96
581.72	2469.85
581.91	2330.59
582.11	2181.09
582.30	2334.68
582.49	2224.09
582.69	2402.27
582.88	2297.82
583.08	2136.03
583.27	2400.22
583.47	2211.81
583.66	2207.71
583.85	2072.54
584.05	2162.66
584.24	2351.07
584.44	2365.40
584.63	2344.92
584.82	2418.65
585.02	2375.64
585.21	2406.36
585.41	2465.75
585.60	2326.49
585.79	2539.48
585.99	2473.95
586.18	2402.27
586.37	2936.79
586.57	4579.26
586.76	13492.02
586.96	32773.64
587.15	47140.14
587.34	55944.36
587.54	61082.72
587.73	56497.31
587.93	39556.52
588.12	30144.05
588.31	24297.10
588.51	21221.05
588.70	19269.34
588.89	17657.59
589.09	15066.91
589.28	13184.82
589.47	10800.99
589.67	8324.99
589.86	6459.29
590.06	4698.04
590.25	3825.61
590.44	3133.39
590.64	2815.96
590.83	2592.73
591.02	2457.56
591.22	2396.12
591.41	2310.11
591.60	2191.33
591.80	2482.14
591.99	2160.61
592.18	2260.96
592.38	2359.26
592.57	2142.18
592.76	2234.33
592.96	2344.92
593.15	2217.95
593.34	2289.63
593.54	2285.53
593.73	2340.83
593.92	2314.20
594.12	2338.78
594.31	2363.36
594.50	2461.66
594.70	2326.49
594.89	2514.91
595.08	2160.61
595.28	2363.36
595.47	2557.91
595.66	2295.77
595.86	2185.18
596.05	2187.23
596.24	2189.28
596.43	2398.17
596.63	2402.27
596.82	2326.49
597.01	2238.43
597.21	2396.12
597.40	2303.96
597.59	2215.90
597.79	2267.10
597.98	2367.45
598.17	2293.72
598.36	2258.91
598.56	2269.15
598.75	2195.42
598.94	2236.38
599.14	2281.44
599.33	2158.56
599.52	2377.69
599.71	2306.01
599.91	2240.48
600.10	2209.76
600.29	2187.23
600.48	2273.25
600.68	2209.76
600.87	2228.19
601.06	2201.57
601.26	2189.28
601.45	2222.05
601.64	2105.31
601.83	2293.72
602.03	2193.37
602.22	2146.27
602.41	2285.53
602.60	2432.99
602.80	2353.12
602.99	2211.81
603.18	2217.95
603.37	2273.25
603.57	2172.89
603.76	2301.92
603.95	2342.88
604.14	2138.08
604.34	2119.65
604.53	2269.15
604.72	2213.85
604.91	2375.64
605.10	2265.05
605.30	2084.83
605.49	2367.45
605.68	2285.53
605.87	2269.15
606.07	2154.46
606.26	2211.81
606.45	2289.63
606.64	2287.58
606.84	2129.89
607.03	2160.61
607.22	2424.80
607.41	2297.82
607.60	2215.90
607.80	2363.36
607.99	2222.05
608.18	2277.34
608.37	2226.14
608.56	2113.50
608.76	2361.31
608.95	2455.51
609.14	2269.15
609.33	2375.64
609.52	2416.60
609.72	2383.84
609.91	2351.07
610.10	2314.20
610.29	2361.31
610.48	2273.25
610.68	2312.16
610.87	2195.42
611.06	2291.68
611.25	2211.81
611.44	2260.96
611.63	2152.42
611.83	2330.59
612.02	2150.37
612.21	2359.26
612.40	2052.06
612.59	2131.94
612.79	2146.27
612.98	2166.75
613.17	2363.36
613.36	2215.90
613.55	2424.80
613.74	2340.83
613.93	2385.88
614.13	2502.62
614.32	2447.32
614.51	2457.56
614.70	2375.64
614.89	2326.49
615.08	2275.29
615.28	2830.29
615.47	2131.94
615.66	2273.25
615.85	2371.55
616.04	2478.04
616.23	2228.19
616.42	2299.87
616.62	2291.68
616.81	2324.44
617.00	2322.40
617.19	2336.73
617.38	2244.57
617.57	2203.61
617.76	2260.96
617.95	2289.63
618.15	2252.77
618.34	2402.27
618.53	2052.06
618.72	2377.69
618.91	2371.55
619.10	2295.77
619.29	2246.62
619.48	2215.90
619.68	2217.95
619.87	2193.37
620.06	2138.08
620.25	2275.29
620.44	2181.09
620.63	2232.29
620.82	2250.72
621.01	2201.57
621.20	2265.05
621.39	2340.83
621.59	2203.61
621.78	2195.42
621.97	2246.62
622.16	2338.78
622.35	2340.83
622.54	2336.73
622.73	2293.72
622.92	2050.02
623.11	2326.49
623.30	2226.14
623.49	2228.19
623.68	2168.80
623.88	2293.72
624.07	2220.00
624.26	2195.42
624.45	2217.95
624.64	2136.03
624.83	2195.42
625.02	2211.81
625.21	2217.95
625.40	2244.57
625.59	2342.88
625.78	2220.00
625.97	2346.97
626.16	2322.40
626.35	2314.20
626.54	2277.34
626.74	2473.95
626.93	2306.01
627.12	2232.29
627.31	2277.34
627.50	2224.09
627.69	2371.55
627.88	2213.85
628.07	2242.53
628.26	2090.98
628.45	2113.50
628.64	2166.75
628.83	2269.15
629.02	2131.94
629.21	2357.21
629.40	2236.38
629.59	2133.98
629.78	2248.67
629.97	2269.15
630.16	2193.37
630.35	2189.28
630.54	2220.00
630.73	2201.57
630.92	2250.72
631.11	2195.42
631.30	2201.57
631.49	2310.11
631.68	2146.27
631.87	2263.01
632.06	2131.94
632.25	2471.90
632.44	2203.61
632.63	2340.83
632.82	2209.76
633.01	2279.39
633.20	2432.99
633.39	2287.58
633.58	2201.57
633.77	2349.02
633.96	2312.16
634.15	2342.88
634.34	2334.68
634.53	2297.82
634.72	2207.71
634.91	2187.23
635.10	2226.14
635.29	2303.96
635.48	2260.96
635.67	2117.60
635.86	2115.55
636.05	2316.25
636.24	2179.04
636.43	2189.28
636.62	2267.10
636.81	2019.30
637.00	2133.98
637.19	2334.68
637.38	2195.42
637.57	2138.08
637.76	2293.72
637.95	2406.36
638.14	2340.83
638.33	2316.25
638.52	2355.16
638.71	2123.74
638.89	2168.80
639.08	2562.01
639.27	2408.41
639.46	2555.86
639.65	2869.20
639.84	2914.26
640.03	3211.22
640.22	2977.75
640.41	3016.66
640.60	2512.86
640.79	2498.52
640.98	2439.13
641.17	2492.38
641.36	2449.37
641.55	2383.84
641.74	2260.96
641.92	2273.25
642.11	2138.08
642.30	2277.34
642.49	2174.94
642.68	2252.77
642.87	2234.33
643.06	2248.67
643.25	2164.70
643.44	2158.56
643.63	2234.33
643.82	2224.09
644.00	2105.31
644.19	2258.91
644.38	2097.12
644.57	2250.72
644.76	2234.33
644.95	2244.57
645.14	2209.76
645.33	2176.99
645.52	2226.14
645.71	2119.65
645.89	2097.12
646.08	2187.23
646.27	2138.08
646.46	2332.64
646.65	2097.12
646.84	2224.09
647.03	2160.61
647.22	2320.35
647.40	2236.38
647.59	2107.36
647.78	2095.07
647.97	2138.08
648.16	2107.36
648.35	2406.36
648.54	2260.96
648.73	2170.85
648.91	2301.92
649.10	2203.61
649.29	2121.70
649.48	2256.86
649.67	2252.77
649.86	2187.23
650.05	2293.72
650.23	2531.29
650.42	2287.58
650.61	2496.47
650.80	2447.32
650.99	2539.48
651.18	2402.27
651.36	2379.74
651.55	2154.46
651.74	2318.30
651.93	2226.14
652.12	2213.85
652.31	2195.42
652.49	2174.94
652.68	2211.81
652.87	2389.98
653.06	2209.76
653.25	2373.60
653.44	2129.89
653.62	2306.01
653.81	2133.98
654.00	2166.75
654.19	2236.38
654.38	2406.36
654.56	2242.53
654.75	2187.23
654.94	2310.11
655.13	2199.52
655.32	2228.19
655.51	2285.53
655.69	2133.98
655.88	2299.87
656.07	2039.78
656.26	2226.14
656.45	2097.12
656.63	2220.00
656.82	2265.05
657.01	2258.91
657.20	2197.47
657.38	2256.86
657.57	2179.04
657.76	2058.21
657.95	2207.71
658.14	2156.51
658.32	2166.75
658.51	2027.49
658.70	2215.90
658.89	2203.61
659.08	2226.14
659.26	2424.80
659.45	2142.18
659.64	2316.25
659.83	2220.00
660.01	2514.91
660.20	2289.63
660.39	2346.97
660.58	2082.78
660.76	2265.05
660.95	2095.07
661.14	2187.23
661.33	2084.83
661.51	2189.28
661.70	2103.26
661.89	2211.81
662.08	2154.46
662.26	2129.89
662.45	2062.30
662.64	2336.73
662.83	2252.77
663.01	2088.93
663.20	2193.37
663.39	2355.16
663.58	2176.99
663.76	2187.23
663.95	2297.82
664.14	2080.74
664.32	2101.22
664.51	2166.75
664.70	2045.92
664.89	2246.62
665.07	2160.61
665.26	2275.29
665.45	2113.50
665.64	2295.77
665.82	2236.38
666.01	2363.36
666.20	2140.13
666.38	2277.34
666.57	2363.36
666.76	3350.48
666.95	8189.83
667.13	16629.51
667.32	22183.60
667.51	26060.40
667.69	27754.07
667.88	25792.12
668.07	18314.98
668.25	14784.29
668.44	11980.62
668.63	10239.84
668.81	9121.65
669.00	7982.98
669.19	7159.70
669.38	6209.44
669.56	5418.93
669.75	4290.49
669.94	3633.10
670.12	3241.93
670.31	2824.15
670.50	2559.96
670.68	2486.23
670.87	2373.60
671.06	2285.53
671.24	2269.15
671.43	2351.07
671.62	2299.87
671.80	2170.85
671.99	2172.89
672.18	2256.86
672.36	2373.60
672.55	2201.57
672.74	2217.95
672.92	2176.99
673.11	2351.07
673.29	2070.50
673.48	2242.53
673.67	2224.09
673.85	2281.44
674.04	2168.80
674.23	2271.20
674.41	2353.12
674.60	2121.70
674.79	2056.16
674.97	2146.27
675.16	2240.48
675.34	2291.68
675.53	2121.70
675.72	2217.95
675.90	2332.64
676.09	2109.41
676.28	2154.46
676.46	2023.39
676.65	2287.58
676.83	2088.93
677.02	2211.81
677.21	2170.85
677.39	2150.37
677.58	2133.98
677.77	2111.46
677.95	2107.36
678.14	2185.18
678.32	2220.00
678.51	2160.61
678.70	2340.83
678.88	2113.50
679.07	2224.09
679.25	2154.46
679.44	2187.23
679.63	2095.07
679.81	2232.29
680.00	2306.01
680.18	2308.06
680.37	2301.92
680.55	2176.99
680.74	2129.89
680.93	2004.96
681.11	2162.66
681.30	2168.80
681.48	2217.95
681.67	2150.37
681.85	2220.00
682.04	2047.97
682.23	2285.53
682.41	2172.89
682.60	2170.85
682.78	2197.47
682.97	2080.74
683.15	2220.00
683.34	2174.94
683.53	2324.44
683.71	2039.78
683.90	2222.05
684.08	2385.88
684.27	2215.90
684.45	2215.90
684.64	2297.82
684.82	2187.23
685.01	2310.11
685.19	2220.00
685.38	2379.74
685.57	2260.96
685.75	2131.94
685.94	2107.36
686.12	2088.93
686.31	2088.93
686.49	2334.68
686.68	2013.15
686.86	2234.33
687.05	2248.67
687.23	2392.03
687.42	2129.89
687.60	2045.92
687.79	2322.40
687.97	2385.88
688.16	2205.66
688.34	2254.81
688.53	2037.73
688.71	2277.34
688.90	2293.72
689.08	2125.79
689.27	1966.05
689.45	2197.47
689.64	2297.82
689.82	2203.61
690.01	2244.57
690.19	2269.15
690.38	2183.13
690.56	2289.63
690.75	2103.26
690.93	2107.36
691.12	2101.22
691.30	2195.42
691.49	2156.51
691.67	2117.60
691.86	2430.94
692.04	2197.47
692.23	2211.81
692.41	2244.57
692.60	2435.03
692.78	2418.65
692.97	2269.15
693.15	2271.20
693.34	2461.66
693.52	2387.93
693.71	2226.14
693.89	2217.95
694.08	2133.98
694.26	2326.49
694.44	2260.96
694.63	2287.58
694.81	2158.56
695.00	2076.64
695.18	2314.20
695.37	2441.18
695.55	2193.37
695.74	2172.89
695.92	2156.51
696.10	2322.40
696.29	2064.35
696.47	2109.41
696.66	2025.44
696.84	2084.83
697.03	2203.61
697.21	2394.08
697.40	3233.74
697.58	2306.01
697.76	2150.37
697.95	2101.22
698.13	2070.50
698.32	2162.66
698.50	2226.14
698.68	2230.24
698.87	2185.18
699.05	2406.36
699.24	2117.60
699.42	2033.63
699.61	2195.42
699.79	2156.51
699.97	2258.91
700.16	2170.85
700.34	2142.18
700.53	2224.09
700.71	2367.45
700.89	2252.77
701.08	2209.76
701.26	2179.04
701.45	2775.00
701.63	2162.66
701.81	2162.66
702.00	2195.42
702.18	2168.80
702.37	2154.46
702.55	2467.80
702.73	2463.71
702.92	2416.60
703.10	2549.72
703.28	2494.43
703.47	2306.01
703.65	2435.03
703.84	2408.41
704.02	2260.96
704.20	2379.74
704.39	2209.76
704.57	2232.29
704.75	2414.56
704.94	2336.73
705.12	2301.92
705.30	2512.86
705.49	4538.30
705.67	11181.91
705.86	20487.88
706.04	25196.16
706.22	29009.48
706.41	30234.16
706.59	25695.86
706.77	18357.99
706.96	15404.82
707.14	13213.49
707.32	11231.06
707.51	9797.48
707.69	8155.01
707.87	6524.83
708.06	5257.14
708.24	4300.73
708.42	3385.29
708.61	3092.43
708.79	2504.67
708.97	2351.07
709.16	2424.80
709.34	2291.68
709.52	2211.81
709.71	2187.23
709.89	2256.86
710.07	2166.75
710.26	2142.18
710.44	2148.32
710.62	2301.92
710.80	2269.15
710.99	2289.63
711.17	2340.83
711.35	2111.46
711.54	2179.04
711.72	2299.87
711.90	2310.11
712.09	2156.51
712.27	2170.85
712.45	2273.25
712.63	2156.51
712.82	2193.37
713.00	2140.13
713.18	2273.25
713.37	2252.77
713.55	2312.16
713.73	2213.85
713.91	2275.29
714.10	2158.56
714.28	2201.57
714.46	2316.25
714.65	2240.48
714.83	2199.52
715.01	2179.04
715.19	2174.94
715.38	2136.03
715.56	2293.72
715.74	2158.56
715.92	2121.70
716.11	2320.35
716.29	2027.49
716.47	2248.67
716.65	2195.42
716.84	2052.06
717.02	2277.34
717.20	2043.87
717.38	2111.46
717.57	2228.19
717.75	2275.29
717.93	2172.89
718.11	2256.86
718.30	2078.69
718.48	2224.09
718.66	2236.38
718.84	2324.44
719.03	2119.65
719.21	2138.08
719.39	2363.36
719.57	2232.29
719.75	2267.10
719.94	2185.18
720.12	2146.27
720.30	2209.76
720.48	2240.48
720.67	2179.04
720.85	2045.92
721.03	2203.61
721.21	2080.74
721.39	2291.68
721.58	2299.87
721.76	2222.05
721.94	2187.23
722.12	2228.19
722.30	2326.49
722.49	2197.47
722.67	2174.94
722.85	2168.80
723.03	2060.26
723.21	2179.04
723.40	2189.28
723.58	2256.86
723.76	2303.96
723.94	2367.45
724.12	2299.87
724.30	2369.50
724.49	2342.88
724.67	2121.70
724.85	2383.84
725.03	2123.74
725.21	2277.34
725.40	2316.25
725.58	2158.56
725.76	2375.64
725.94	2199.52
726.12	2136.03
726.30	2131.94
726.49	2162.66
726.67	2211.81
726.85	2242.53
727.03	2592.73
727.21	3790.79
727.39	5689.26
727.57	6770.58
727.76	7395.22
727.94	7944.07
728.12	7417.74
728.30	5969.83
728.48	5169.07
728.66	4665.27
728.84	4233.15
729.03	3657.67
729.21	3219.41
729.39	2830.29
729.57	2482.14
729.75	2369.50
729.93	2396.12
730.11	2230.24
730.30	2150.37
730.48	2187.23
730.66	2392.03
730.84	2326.49
731.02	2203.61
731.20	2179.04
731.38	2224.09
731.56	2140.13
731.74	2109.41
731.93	2240.48
732.11	2162.66
732.29	2138.08
732.47	2269.15
732.65	2195.42
732.83	2285.53
733.01	2258.91
733.19	2097.12
733.37	2250.72
733.56	2236.38
733.74	2174.94
733.92	2371.55
734.10	2113.50
734.28	2179.04
734.46	2019.30
734.64	2168.80
734.82	2193.37
735.00	2150.37
735.18	2222.05
735.36	2256.86
735.54	2179.04
735.73	2217.95
735.91	2207.71
736.09	2209.76
736.27	2201.57
736.45	2220.00
736.63	2029.54
736.81	2111.46
736.99	2291.68
737.17	2392.03
737.35	2144.22
737.53	2222.05
737.71	2185.18
737.89	2353.12
738.07	2119.65
738.25	2158.56
738.43	2111.46
738.61	2179.04
738.80	2070.50
738.98	2111.46
739.16	2138.08
739.34	2056.16
739.52	2330.59
739.70	2138.08
739.88	2240.48
740.06	2392.03
740.24	2041.82
740.42	2301.92
740.60	2099.17
740.78	2127.84
740.96	2041.82
741.14	2224.09
741.32	2187.23
741.50	2099.17
741.68	2310.11
741.86	2291.68
742.04	2062.30
742.22	2152.42
742.40	2146.27
742.58	2271.20
742.76	2199.52
742.94	2271.20
743.12	2117.60
743.30	2170.85
743.48	2275.29
743.66	2129.89
743.84	2131.94
744.02	2203.61
744.20	2220.00
744.38	2076.64
744.56	2138.08
744.74	2338.78
744.92	2209.76
745.10	2349.02
745.28	2205.66
745.46	2375.64
745.64	2187.23
745.82	2244.57
746.00	2152.42
746.18	2209.76
746.36	2097.12
746.54	2209.76
746.72	2211.81
746.90	2062.30
747.08	2361.31
747.26	2144.22
747.44	2269.15
747.62	2281.44
747.80	2248.67
747.98	2267.10
748.15	2152.42
748.33	2349.02
748.51	2228.19
748.69	2269.15
748.87	2201.57
749.05	2176.99
749.23	2176.99
749.41	2295.77
749.59	2170.85
749.77	2281.44
749.95	2156.51
750.13	2119.65
750.31	2220.00
750.49	2174.94
750.67	2269.15
750.85	2342.88
751.03	2187.23
751.20	2398.17
751.38	2148.32
751.56	2211.81
751.74	2211.81
751.92	2168.80
752.10	2078.69
752.28	2340.83
752.46	2140.13
752.64	2168.80
752.82	2160.61
753.00	2318.30
753.18	2176.99
753.35	2197.47
753.53	2246.62
753.71	2187.23
753.89	2269.15
754.07	2226.14
754.25	2293.72
754.43	2154.46
754.61	2133.98
754.79	2224.09
754.97	2162.66
755.14	2293.72
755.32	2111.46
755.50	2220.00
755.68	2185.18
755.86	2080.74
756.04	2160.61
756.22	2060.26
756.40	2267.10
756.57	2285.53
756.75	2103.26
756.93	2275.29
757.11	2226.14
757.29	2144.22
757.47	2095.07
757.65	2023.39
757.82	1966.05
758.00	2136.03
758.18	2158.56
758.36	2133.98
758.54	2271.20
758.72	2039.78
758.90	2213.85
759.07	2187.23
759.25	2093.02
759.43	2217.95
759.61	2043.87
759.79	3100.62
759.97	2273.25
760.15	2121.70
760.32	2230.24
760.50	2228.19
760.68	2344.92
760.86	2125.79
761.04	2281.44
761.22	2242.53
761.39	2205.66
761.57	2338.78
761.75	2189.28
761.93	2193.37
762.11	2240.48
762.28	2224.09
762.46	2138.08
762.64	2265.05
762.82	2097.12
763.00	2125.79
763.18	2242.53
763.35	2095.07
763.53	2303.96
763.71	2131.94
763.89	2193.37
764.07	2265.05
764.24	2170.85
764.42	2265.05
764.60	2152.42
764.78	2258.91
764.96	2316.25
765.13	2269.15
765.31	2191.33
765.49	2301.92
765.67	2119.65
765.84	2129.89
766.02	2142.18
766.20	2076.64
766.38	2176.99
766.56	2162.66
766.73	2287.58
766.91	2176.99
767.09	2193.37
767.27	2265.05
767.44	2000.87
767.62	2213.85
767.80	2222.05
767.98	2123.74
768.15	2097.12
768.33	2336.73
768.51	2258.91
768.69	2232.29
768.87	2191.33
769.04	2226.14
769.22	2492.38
769.40	2318.30
769.58	2400.22
769.75	2195.42
769.93	2351.07
770.11	2187.23
770.28	2146.27
770.46	2291.68
770.64	2258.91
770.82	2199.52
770.99	2220.00
771.17	2269.15
771.35	2230.24
771.53	2179.04
771.70	2179.04
771.88	2318.30
772.06	2168.80
772.23	2115.55
772.41	2291.68
772.59	2123.74
772.77	1996.77
772.94	2228.19
773.12	2228.19
773.30	2234.33
773.47	2226.14
773.65	2113.50
773.83	2279.39
774.01	2119.65
774.18	2037.73
774.36	2215.90
774.54	2035.68
774.71	2217.95
774.89	2056.16
775.07	2136.03
775.24	2138.08
775.42	2093.02
775.60	2418.65
775.78	2080.74
775.95	2068.45
776.13	2086.88
776.31	1953.76
776.48	2226.14
776.66	2332.64
776.84	2256.86
777.01	2142.18
777.19	2088.93
777.37	2148.32
777.54	2185.18
777.72	2334.68
777.90	2232.29
778.07	2144.22
778.25	2547.67
778.43	2248.67
778.60	2144.22
778.78	2306.01
778.96	2277.34
779.13	2105.31
779.31	2209.76
779.49	2185.18
779.66	2195.42
779.84	2236.38
780.01	2205.66
780.19	2105.31
780.37	2226.14
780.54	2267.10
780.72	2176.99
780.90	2224.09
781.07	2168.80
781.25	2072.54
781.43	2295.77
781.60	2199.52
781.78	2332.64
781.95	2203.61
782.13	2138.08
782.31	2211.81
782.48	1984.48
782.66	2287.58
782.83	2346.97
783.01	2246.62
783.19	2260.96
783.36	2144.22
783.54	2054.11
783.72	2213.85
783.89	2136.03
784.07	2170.85
784.24	2215.90
784.42	2299.87
784.60	2168.80
784.77	2213.85
784.95	1982.43
785.12	2060.26
785.30	2199.52
785.47	2097.12
785.65	2162.66
785.83	2176.99
786.00	2136.03
786.18	2220.00
786.35	2105.31
786.53	2133.98
786.71	2349.02
786.88	2275.29
787.06	2234.33
787.23	2164.70
787.41	2113.50
787.58	2176.99
787.76	2082.78
787.94	2154.46
788.11	2213.85
788.29	2088.93
788.46	2111.46
788.64	2060.26
788.81	2179.04
788.99	2152.42
789.16	2162.66
789.34	2168.80
789.52	2043.87
789.69	2133.98
789.87	2052.06
790.04	2144.22
790.22	2260.96
790.39	2316.25
790.57	2023.39
790.74	2125.79
790.92	2279.39
791.09	2056.16
791.27	2199.52
791.44	2303.96
791.62	2215.90
791.79	2240.48
791.97	2164.70
792.15	2525.15
792.32	2232.29
792.50	2306.01
792.67	2246.62
792.85	2334.68
793.02	2193.37
793.20	2097.12
793.37	2062.30
793.55	2136.03
793.72	2125.79
793.90	2269.15
794.07	2121.70
794.25	2181.09
794.42	2217.95
794.60	2211.81
794.77	2181.09
794.95	2258.91
795.12	2299.87
795.30	2211.81
795.47	2039.78
795.65	2455.51
795.82	2123.74
796.00	2041.82
796.17	2121.70
796.34	2162.66
796.52	2220.00
796.69	2220.00
796.87	2310.11
797.04	2213.85
797.22	2338.78
797.39	2285.53
797.57	2250.72
797.74	2215.90
797.92	2246.62
798.09	2088.93
798.27	2244.57
798.44	2121.70
798.62	2129.89
798.79	2252.77
798.96	2195.42
799.14	2203.61
799.31	2381.79
799.49	2172.89
799.66	2109.41
799.84	2228.19
800.01	2076.64
800.19	2209.76
800.36	2056.16
800.53	2209.76
800.71	2283.49
800.88	2357.21
801.06	2136.03
801.23	2176.99
801.41	2179.04
801.58	2125.79
801.75	2174.94
801.93	2244.57
802.10	2260.96
802.28	2189.28
802.45	2146.27
802.63	2232.29
802.80	2297.82
802.97	2162.66
803.15	2136.03
803.32	2113.50
803.50	2117.60
803.67	2095.07
803.84	2105.31
804.02	2254.81
804.19	2179.04
804.37	1943.52
804.54	2021.35
804.71	2086.88
804.89	2166.75
805.06	2121.70
805.24	1988.58
805.41	2125.79
805.58	2201.57
805.76	2369.50
805.93	2152.42
806.10	2322.40
806.28	2197.47
806.45	2220.00
806.63	2293.72
806.80	2181.09
806.97	2168.80
807.15	2176.99
807.32	2244.57
807.49	2220.00
807.67	2062.30
807.84	2263.01
808.01	2035.68
808.19	2338.78
808.36	2510.81
808.54	2060.26
808.71	2176.99
808.88	2217.95
809.06	2293.72
809.23	2371.55
809.40	2133.98
809.58	2244.57
809.75	2246.62
809.92	2025.44
810.10	2353.12
810.27	2142.18
810.44	2170.85
810.62	2191.33
810.79	2213.85
810.96	2093.02
811.14	2185.18
811.31	2250.72
811.48	2234.33
811.66	2191.33
811.83	2346.97
812.00	2150.37
812.18	2258.91
812.35	2277.34
812.52	2125.79
812.69	2197.47
812.87	2152.42
813.04	2129.89
813.21	2146.27
813.39	2129.89
813.56	2060.26
813.73	2263.01
813.91	2060.26
814.08	2142.18
814.25	2230.24
814.42	2076.64
814.60	2138.08
814.77	2205.66
814.94	2199.52
815.12	2207.71
815.29	2349.02
815.46	2160.61
815.63	2256.86
815.81	2152.42
815.98	2150.37
816.15	2207.71
816.33	2142.18
816.50	2093.02
816.67	2203.61
816.84	2088.93
817.02	2064.35
817.19	2236.38
817.36	2152.42
817.53	2269.15
817.71	2101.22
817.88	2207.71
818.05	2176.99
818.22	2207.71
818.40	2293.72
818.57	2166.75
818.74	2277.34
818.91	2156.51
819.09	2220.00
819.26	2256.86
819.43	2113.50
819.60	2111.46
819.78	2265.05
819.95	2332.64
820.12	2052.06
820.29	2297.82
820.47	2265.05
820.64	2144.22
820.81	2121.70
820.98	2103.26
821.15	2136.03
821.33	2240.48
821.50	2117.60
821.67	2258.91
821.84	2121.70
822.02	2248.67
822.19	2328.54
822.36	2164.70
822.53	2105.31
822.70	2037.73
822.88	2129.89
823.05	2277.34
823.22	2162.66
823.39	2224.09
823.56	2117.60
823.74	2396.12
823.91	2031.58
824.08	2066.40
824.25	2052.06
824.42	2324.44
824.60	2088.93
824.77	2258.91
824.94	2160.61
825.11	2181.09
825.28	2031.58
825.45	2244.57
825.63	2234.33
825.80	2101.22
825.97	2162.66
826.14	2136.03
826.31	1982.43
826.48	2277.34
826.66	2123.74
826.83	2131.94
827.00	2129.89
827.17	2164.70
827.34	2095.07
827.51	2107.36
827.69	2121.70
827.86	2097.12
828.03	2228.19
828.20	2197.47
828.37	2097.12
828.54	2277.34
828.71	2115.55
828.89	2344.92
829.06	2213.85
829.23	2281.44
829.40	2072.54
829.57	2127.84
829.74	2289.63
829.91	2140.13
830.09	2088.93
830.26	2279.39
830.43	2371.55
830.60	2168.80
830.77	2281.44
830.94	2248.67
831.11	2318.30
831.28	2125.79
831.46	2203.61
831.63	2133.98
831.80	2195.42
831.97	2136.03
832.14	2160.61
832.31	2248.67
832.48	2236.38
832.65	2316.25
832.82	2211.81
832.99	2240.48
833.17	2082.78
833.34	2357.21
833.51	2301.92
833.68	1968.10
833.85	2314.20
834.02	2117.60
834.19	2088.93
834.36	2146.27
834.53	2226.14
834.70	2238.43
834.87	2234.33
835.04	2138.08
835.22	2133.98
835.39	2205.66
835.56	1953.76
835.73	2160.61
835.90	2396.12
836.07	2207.71
836.24	2199.52
836.41	2133.98
836.58	2113.50
836.75	2289.63
836.92	2152.42
837.09	2084.83
837.26	2299.87
837.43	2168.80
837.60	2228.19
837.77	2203.61
837.94	2293.72
838.12	2252.77
838.29	2136.03
838.46	2056.16
838.63	2168.80
838.80	2365.40
838.97	2222.05
839.14	2228.19
839.31	2228.19
839.48	2246.62
839.65	2109.41
839.82	2269.15
839.99	2209.76
840.16	2146.27
840.33	2101.22
840.50	2230.24
840.67	2080.74
840.84	1984.48
841.01	2115.55
841.18	2095.07
841.35	2193.37
841.52	2265.05
841.69	2299.87
841.86	2187.23
842.03	2236.38
842.20	2250.72
842.37	2148.32
842.54	2154.46
842.71	2174.94
842.88	2054.11
843.05	2222.05
843.22	2111.46
843.39	2222.05
843.56	2140.13
843.73	2140.13
843.90	2189.28
844.07	2244.57
844.24	2236.38
844.41	2232.29
844.58	2195.42
844.75	2168.80
844.92	2220.00
845.09	2107.36
845.26	2129.89
845.43	2220.00
845.60	2095.07
845.77	2179.04
845.94	2191.33
846.10	2330.59
846.27	2074.59
846.44	2013.15
846.61	2103.26
846.78	2244.57
846.95	2207.71
847.12	2070.50
847.29	2133.98
847.46	2041.82
847.63	2230.24
847.80	2080.74
847.97	2207.71
848.14	2400.22
848.31	2203.61
848.48	2056.16
848.65	2240.48
848.82	2093.02
848.98	2351.07
849.15	2254.81
849.32	2252.77
849.49	2353.12
849.66	2215.90
849.83	2211.81
850.00	2121.70
850.17	2240.48
850.34	2150.37
850.51	2131.94
850.68	2117.60
850.85	2349.02
851.01	2230.24
851.18	2174.94
851.35	2093.02
851.52	2224.09
851.69	2265.05
851.86	2109.41
852.03	2191.33
852.20	2250.72
852.37	2258.91
852.53	2062.30
852.70	2150.37
852.87	2277.34
853.04	2267.10
853.21	2142.18
853.38	2252.77
853.55	2275.29
853.72	2322.40
853.89	2035.68
854.05	2160.61
854.22	2117.60
854.39	2187.23
854.56	2179.04
854.73	2285.53
854.90	2103.26
855.07	2176.99
855.23	2097.12
855.40	2113.50
855.57	2146.27
855.74	2043.87
855.91	2392.03
856.08	2105.31
856.25	2064.35
856.41	2125.79
856.58	2152.42
856.75	2183.13
856.92	2113.50
857.09	2289.63
857.26	2066.40
857.42	2095.07
857.59	2244.57
857.76	2187.23
857.93	2236.38
858.10	2168.80
858.27	2109.41
858.43	2146.27
858.60	2041.82
858.77	1974.24
858.94	2127.84
859.11	2330.59
859.27	2129.89
859.44	2111.46
859.61	2385.88
859.78	2242.53
859.95	2088.93
860.12	2072.54
860.28	2410.46
860.45	2355.16
860.62	2103.26
860.79	2179.04
860.95	2222.05
861.12	2113.50
861.29	2105.31
861.46	2068.45
861.63	2181.09
861.79	2226.14
861.96	1986.53
862.13	2052.06
862.30	2381.79
862.47	2105.31
862.63	2064.35
862.80	2248.67
862.97	2254.81
863.14	2211.81
863.30	2275.29
863.47	2162.66
863.64	2277.34
863.81	2226.14
863.97	2129.89
864.14	2240.48
864.31	2158.56
864.48	2203.61
864.65	2174.94
864.81	2150.37
864.98	2189.28
865.15	2265.05
865.32	2230.24
865.48	2281.44
865.65	2328.54
865.82	2138.08
865.98	2205.66
866.15	2275.29
866.32	2166.75
866.49	2146.27
866.65	2211.81
866.82	2115.55
866.99	2189.28
867.16	2152.42
867.32	2187.23
867.49	2117.60
867.66	2138.08
867.83	2179.04
867.99	2088.93
868.16	2176.99
868.33	2072.54
868.49	2170.85
868.66	2054.11
868.83	2287.58
868.99	2193.37
869.16	2220.00
869.33	2207.71
869.50	2242.53
869.66	2086.88
869.83	2191.33
870.00	2056.16
870.16	2234.33
870.33	2160.61
870.50	2254.81
870.66	2125.79
870.83	2244.57
871.00	2176.99
871.17	2228.19
871.33	2203.61
871.50	2133.98
871.67	2195.42
871.83	2117.60
872.00	2310.11
872.17	2121.70
872.33	2404.32
872.50	2158.56
872.67	2074.59
872.83	2084.83
873.00	2168.80
873.17	2181.09
873.33	2258.91
873.50	2238.43
873.67	2211.81
873.83	2203.61
874.00	2144.22
874.16	2166.75
874.33	2222.05
874.50	2060.26
874.66	2115.55
874.83	2179.04
875.00	2301.92
875.16	2342.88
875.33	2195.42
875.50	1970.15
875.66	2211.81
875.83	2224.09
875.99	2267.10
876.16	2138.08
876.33	2133.98
876.49	2166.75
876.66	2113.50
876.83	2176.99
876.99	2090.98
877.16	2267.10
877.32	2111.46
877.49	2105.31
877.66	2248.67
877.82	2371.55
877.99	2142.18
878.15	2226.14
878.32	2238.43
878.49	2248.67
878.65	2158.56
878.82	2281.44
878.98	2172.89
879.15	2330.59
879.32	2213.85
879.48	2174.94
879.65	2152.42
879.81	2287.58
879.98	2056.16
880.15	2113.50
880.31	2195.42
880.48	2090.98
880.64	2252.77
880.81	2211.81
880.97	2324.44
881.14	2328.54
881.31	2093.02
881.47	2265.05
881.64	2138.08
881.80	2056.16
881.97	2162.66
882.13	2187.23
882.30	2113.50
882.47	2123.74
882.63	2070.50
882.80	2170.85
882.96	2127.84
883.13	2359.26
883.29	2232.29
883.46	2242.53
883.62	2301.92
883.79	2248.67
883.95	2256.86
884.12	2172.89
884.29	2340.83
884.45	2209.76
884.62	2179.04
884.78	2146.27
884.95	2277.34
885.11	2041.82
885.28	2252.77
885.44	2093.02
885.61	2281.44
885.77	2363.36
885.94	2090.98
886.10	2162.66
886.27	2220.00
886.43	2291.68
886.60	2265.05
886.76	2133.98
886.93	2142.18
887.09	2226.14
887.26	1980.39
887.42	2162.66
887.59	2269.15
887.75	2351.07
887.92	2267.10
888.08	2277.34
888.25	2381.79
888.41	2367.45
888.58	2236.38
888.74	2056.16
888.91	2084.83
>>>>>End Processed Spectral Data<<<<<
