SpectraSuite Data File
++++++++++++++++++++++++++++++++++++
Date: Thu May 05 12:35:05 CEST 2016
User: root
Dark Spectrum Present: No
Reference Spectrum Present: No
Number of Sampled Component Spectra: 1
Spectrometers: USB4C02835
Integration Time (usec): 100000 (USB4C02835)
Spectra Averaged: 1 (USB4C02835)
Boxcar Smoothing: 0 (USB4C02835)
Correct for Electrical Dark: No (USB4C02835)
Strobe/Lamp Enabled: No (USB4C02835)
Correct for Detector Non-linearity: No (USB4C02835)
Correct for Stray Light: No (USB4C02835)
Number of Pixels in Processed Spectrum: 3648
>>>>>Begin Processed Spectral Data<<<<<
177.47	1740.77
177.69	1740.77
177.91	1740.77
178.13	1812.45
178.36	1740.77
178.58	2103.26
178.80	2150.37
179.02	2074.59
179.24	2054.11
179.46	2109.41
179.68	2183.13
179.90	2179.04
180.13	2201.57
180.35	2103.26
180.57	2115.55
180.79	2291.68
181.01	2226.14
181.23	2217.95
181.45	2254.81
181.67	2263.01
181.90	2234.33
182.12	2062.30
182.34	2013.15
182.56	2234.33
182.78	2156.51
183.00	2105.31
183.22	2154.46
183.44	1996.77
183.66	2482.14
183.89	2273.25
184.11	2117.60
184.33	2295.77
184.55	2267.10
184.77	2187.23
184.99	2215.90
185.21	2125.79
185.43	2480.09
185.65	2062.30
185.87	2117.60
186.10	2510.81
186.32	2373.60
186.54	2234.33
186.76	2166.75
186.98	2281.44
187.20	2166.75
187.42	2152.42
187.64	2174.94
187.86	2197.47
188.08	2326.49
188.30	2086.88
188.52	2183.13
188.75	2310.11
188.97	2301.92
189.19	2127.84
189.41	2119.65
189.63	2260.96
189.85	2131.94
190.07	2076.64
190.29	2041.82
190.51	2193.37
190.73	2031.58
190.95	2306.01
191.17	2256.86
191.39	2015.20
191.61	2150.37
191.84	2154.46
192.06	2238.43
192.28	2027.49
192.50	2500.57
192.72	2205.66
192.94	2125.79
193.16	2291.68
193.38	2224.09
193.60	2070.50
193.82	2236.38
194.04	2277.34
194.26	2187.23
194.48	2140.13
194.70	2097.12
194.92	2138.08
195.14	2318.30
195.36	2076.64
195.58	2144.22
195.80	2158.56
196.02	2090.98
196.24	2101.22
196.46	2203.61
196.69	2095.07
196.91	2478.04
197.13	2146.27
197.35	2121.70
197.57	2326.49
197.79	2256.86
198.01	2144.22
198.23	2099.17
198.45	2234.33
198.67	2060.26
198.89	2111.46
199.11	2129.89
199.33	2086.88
199.55	1925.09
199.77	2150.37
199.99	2303.96
200.21	2179.04
200.43	2195.42
200.65	1990.63
200.87	2060.26
201.09	2226.14
201.31	2217.95
201.53	2148.32
201.75	2209.76
201.97	2199.52
202.19	2183.13
202.41	2138.08
202.63	2220.00
202.85	2228.19
203.07	2209.76
203.29	2195.42
203.51	2078.69
203.73	2181.09
203.95	2480.09
204.17	2121.70
204.39	2162.66
204.61	2201.57
204.83	2109.41
205.05	2273.25
205.27	2195.42
205.49	2469.85
205.71	2228.19
205.93	2029.54
206.15	2131.94
206.37	2211.81
206.59	2156.51
206.81	2082.78
207.03	2027.49
207.25	2121.70
207.47	2256.86
207.69	2158.56
207.91	2260.96
208.13	2334.68
208.34	2129.89
208.56	2138.08
208.78	2187.23
209.00	2176.99
209.22	2146.27
209.44	2154.46
209.66	2107.36
209.88	2203.61
210.10	2181.09
210.32	2076.64
210.54	2269.15
210.76	2072.54
210.98	2349.02
211.20	1949.67
211.42	2129.89
211.64	2363.36
211.86	2267.10
212.08	2162.66
212.30	2068.45
212.52	2154.46
212.74	2267.10
212.96	2230.24
213.17	2228.19
213.39	2252.77
213.61	2344.92
213.83	2217.95
214.05	2152.42
214.27	2277.34
214.49	2088.93
214.71	2090.98
214.93	2228.19
215.15	2150.37
215.37	2283.49
215.59	2052.06
215.81	2191.33
216.03	2344.92
216.24	2193.37
216.46	2129.89
216.68	2160.61
216.90	2320.35
217.12	2301.92
217.34	2150.37
217.56	2183.13
217.78	2287.58
218.00	2252.77
218.22	2185.18
218.44	2117.60
218.66	2226.14
218.87	2363.36
219.09	2084.83
219.31	2222.05
219.53	2277.34
219.75	2054.11
219.97	2136.03
220.19	2220.00
220.41	2224.09
220.63	2267.10
220.85	2183.13
221.06	2179.04
221.28	2203.61
221.50	2193.37
221.72	2131.94
221.94	2125.79
222.16	2220.00
222.38	2342.88
222.60	2117.60
222.82	2158.56
223.03	2267.10
223.25	2035.68
223.47	2060.26
223.69	2336.73
223.91	2224.09
224.13	2246.62
224.35	2111.46
224.57	2236.38
224.78	2224.09
225.00	2105.31
225.22	2172.89
225.44	2168.80
225.66	2226.14
225.88	2226.14
226.10	2195.42
226.32	2162.66
226.53	2287.58
226.75	2084.83
226.97	2179.04
227.19	2185.18
227.41	2101.22
227.63	2133.98
227.85	2009.06
228.06	2193.37
228.28	2312.16
228.50	2252.77
228.72	2093.02
228.94	2176.99
229.16	2056.16
229.37	2105.31
229.59	2068.45
229.81	2308.06
230.03	2129.89
230.25	2021.35
230.47	2002.91
230.69	2090.98
230.90	2260.96
231.12	2144.22
231.34	2146.27
231.56	2228.19
231.78	2076.64
232.00	2211.81
232.21	2158.56
232.43	2060.26
232.65	1961.95
232.87	2222.05
233.09	2062.30
233.30	2109.41
233.52	2293.72
233.74	2162.66
233.96	2136.03
234.18	2179.04
234.40	2127.84
234.61	2412.51
234.83	2105.31
235.05	2074.59
235.27	2453.47
235.49	2242.53
235.70	2121.70
235.92	2193.37
236.14	2285.53
236.36	2410.46
236.58	2002.91
236.79	2209.76
237.01	2222.05
237.23	2220.00
237.45	2240.48
237.67	2093.02
237.88	2220.00
238.10	2400.22
238.32	2041.82
238.54	2109.41
238.76	2074.59
238.97	2107.36
239.19	2043.87
239.41	2209.76
239.63	2299.87
239.85	2154.46
240.06	2103.26
240.28	2150.37
240.50	2367.45
240.72	2285.53
240.93	2088.93
241.15	2273.25
241.37	2101.22
241.59	2383.84
241.81	2160.61
242.02	2125.79
242.24	2260.96
242.46	2344.92
242.68	2047.97
242.89	2097.12
243.11	2277.34
243.33	2244.57
243.55	2174.94
243.76	2133.98
243.98	2129.89
244.20	2183.13
244.42	2041.82
244.64	2166.75
244.85	2070.50
245.07	2093.02
245.29	2203.61
245.51	2105.31
245.72	2191.33
245.94	2242.53
246.16	2090.98
246.38	2154.46
246.59	2117.60
246.81	2138.08
247.03	2101.22
247.24	1998.82
247.46	2111.46
247.68	2183.13
247.90	2105.31
248.11	2056.16
248.33	2271.20
248.55	2170.85
248.77	2228.19
248.98	2238.43
249.20	2367.45
249.42	2207.71
249.64	2142.18
249.85	2072.54
250.07	2144.22
250.29	2355.16
250.50	2240.48
250.72	2062.30
250.94	2232.29
251.16	2441.18
251.37	2146.27
251.59	2152.42
251.81	2209.76
252.02	2279.39
252.24	2138.08
252.46	2252.77
252.68	2056.16
252.89	2113.50
253.11	2052.06
253.33	2232.29
253.54	2242.53
253.76	2056.16
253.98	2093.02
254.20	2105.31
254.41	2072.54
254.63	2117.60
254.85	2045.92
255.06	2119.65
255.28	2301.92
255.50	2168.80
255.71	2131.94
255.93	2037.73
256.15	2168.80
256.36	2246.62
256.58	2015.20
256.80	2125.79
257.02	2119.65
257.23	2138.08
257.45	2199.52
257.67	2191.33
257.88	2113.50
258.10	2166.75
258.32	2060.26
258.53	2170.85
258.75	2357.21
258.97	2127.84
259.18	2113.50
259.40	2148.32
259.62	2426.84
259.83	2381.79
260.05	2162.66
260.27	2559.96
260.48	2238.43
260.70	2146.27
260.92	2129.89
261.13	2080.74
261.35	2211.81
261.57	2260.96
261.78	1990.63
262.00	2125.79
262.22	2265.05
262.43	2127.84
262.65	2080.74
262.86	2174.94
263.08	2324.44
263.30	2183.13
263.51	2007.01
263.73	2086.88
263.95	2289.63
264.16	2107.36
264.38	2201.57
264.60	2142.18
264.81	2289.63
265.03	2236.38
265.25	2281.44
265.46	2162.66
265.68	2285.53
265.89	2285.53
266.11	1998.82
266.33	2127.84
266.54	2310.11
266.76	2269.15
266.98	2170.85
267.19	2244.57
267.41	2283.49
267.62	2207.71
267.84	2050.02
268.06	2152.42
268.27	2224.09
268.49	2324.44
268.70	2199.52
268.92	2191.33
269.14	2138.08
269.35	2054.11
269.57	2148.32
269.79	2213.85
270.00	2121.70
270.22	2265.05
270.43	2111.46
270.65	1990.63
270.87	2201.57
271.08	2318.30
271.30	2244.57
271.51	2183.13
271.73	2263.01
271.95	2316.25
272.16	2146.27
272.38	2154.46
272.59	2113.50
272.81	2285.53
273.02	2232.29
273.24	2236.38
273.46	2236.38
273.67	2088.93
273.89	2025.44
274.10	2109.41
274.32	2248.67
274.54	2236.38
274.75	2084.83
274.97	2095.07
275.18	2187.23
275.40	2217.95
275.61	2170.85
275.83	2168.80
276.05	2023.39
276.26	2125.79
276.48	2232.29
276.69	2119.65
276.91	2125.79
277.12	2283.49
277.34	2224.09
277.55	2316.25
277.77	2136.03
277.99	2179.04
278.20	2113.50
278.42	2039.78
278.63	2105.31
278.85	2158.56
279.06	2138.08
279.28	2273.25
279.49	2326.49
279.71	2308.06
279.93	2140.13
280.14	2252.77
280.36	2154.46
280.57	2303.96
280.79	2320.35
281.00	2162.66
281.22	2156.51
281.43	2306.01
281.65	2047.97
281.86	2074.59
282.08	2170.85
282.29	2357.21
282.51	2068.45
282.73	2066.40
282.94	2101.22
283.16	2322.40
283.37	2256.86
283.59	2187.23
283.80	2166.75
284.02	2164.70
284.23	2183.13
284.45	2160.61
284.66	2183.13
284.88	2133.98
285.09	2125.79
285.31	2260.96
285.52	2136.03
285.74	2029.54
285.95	2256.86
286.17	2179.04
286.38	2256.86
286.60	2088.93
286.81	2076.64
287.03	2093.02
287.24	2158.56
287.46	2181.09
287.67	2150.37
287.89	2340.83
288.10	2179.04
288.32	2156.51
288.53	2269.15
288.75	2201.57
288.96	2285.53
289.18	2129.89
289.39	2144.22
289.61	2232.29
289.82	2461.66
290.04	2369.50
290.25	2047.97
290.47	2146.27
290.68	2131.94
290.90	2359.26
291.11	1996.77
291.33	2215.90
291.54	2111.46
291.76	2039.78
291.97	2154.46
292.18	2174.94
292.40	2236.38
292.61	2119.65
292.83	2375.64
293.04	2240.48
293.26	2195.42
293.47	2172.89
293.69	2052.06
293.90	2164.70
294.12	2263.01
294.33	2158.56
294.55	2136.03
294.76	2285.53
294.97	2211.81
295.19	2396.12
295.40	2119.65
295.62	2183.13
295.83	2334.68
296.05	2136.03
296.26	2279.39
296.48	2172.89
296.69	2220.00
296.90	2093.02
297.12	2191.33
297.33	2260.96
297.55	2244.57
297.76	2195.42
297.98	2314.20
298.19	2152.42
298.41	2168.80
298.62	2103.26
298.83	2334.68
299.05	2199.52
299.26	2127.84
299.48	2019.30
299.69	2285.53
299.90	2197.47
300.12	2172.89
300.33	2236.38
300.55	2207.71
300.76	2164.70
300.98	2107.36
301.19	2246.62
301.40	2064.35
301.62	2162.66
301.83	2297.82
302.05	2222.05
302.26	2220.00
302.47	2232.29
302.69	2097.12
302.90	2244.57
303.12	2078.69
303.33	2232.29
303.54	2355.16
303.76	2168.80
303.97	2293.72
304.19	2351.07
304.40	2168.80
304.61	2267.10
304.83	2353.12
305.04	2195.42
305.26	2281.44
305.47	2187.23
305.68	2185.18
305.90	2033.63
306.11	2287.58
306.33	2189.28
306.54	2117.60
306.75	2131.94
306.97	2045.92
307.18	2125.79
307.39	2152.42
307.61	2277.34
307.82	2131.94
308.04	2252.77
308.25	2115.55
308.46	2185.18
308.68	2201.57
308.89	2174.94
309.10	2209.76
309.32	2183.13
309.53	2117.60
309.74	2293.72
309.96	2127.84
310.17	2250.72
310.39	2093.02
310.60	2224.09
310.81	2179.04
311.03	2088.93
311.24	2232.29
311.45	2166.75
311.67	2406.36
311.88	2267.10
312.09	2133.98
312.31	2203.61
312.52	2185.18
312.73	2111.46
312.95	2031.58
313.16	2099.17
313.37	2197.47
313.59	2238.43
313.80	2269.15
314.01	2234.33
314.23	2146.27
314.44	2078.69
314.65	2070.50
314.87	2140.13
315.08	2176.99
315.29	2101.22
315.51	2097.12
315.72	2101.22
315.93	2281.44
316.15	2332.64
316.36	2187.23
316.57	2205.66
316.79	2236.38
317.00	2162.66
317.21	2209.76
317.43	2080.74
317.64	2209.76
317.85	2146.27
318.07	2095.07
318.28	2275.29
318.49	2326.49
318.70	2408.41
318.92	2465.75
319.13	2383.84
319.34	2414.56
319.56	2285.53
319.77	2371.55
319.98	2310.11
320.20	2318.30
320.41	2240.48
320.62	2338.78
320.83	2111.46
321.05	2361.31
321.26	2234.33
321.47	2160.61
321.69	2332.64
321.90	2115.55
322.11	2121.70
322.32	2250.72
322.54	2293.72
322.75	2105.31
322.96	2451.42
323.18	2047.97
323.39	2052.06
323.60	2103.26
323.81	2287.58
324.03	2144.22
324.24	2199.52
324.45	2187.23
324.66	2195.42
324.88	2275.29
325.09	2351.07
325.30	2197.47
325.52	2199.52
325.73	2256.86
325.94	2160.61
326.15	2043.87
326.37	2105.31
326.58	2287.58
326.79	2318.30
327.00	2097.12
327.22	2228.19
327.43	2023.39
327.64	2050.02
327.85	2279.39
328.07	2240.48
328.28	2441.18
328.49	2158.56
328.70	2136.03
328.92	2176.99
329.13	2176.99
329.34	2222.05
329.55	2295.77
329.76	2349.02
329.98	2164.70
330.19	2236.38
330.40	2244.57
330.61	2162.66
330.83	2289.63
331.04	2080.74
331.25	2256.86
331.46	2166.75
331.68	2105.31
331.89	2275.29
332.10	2125.79
332.31	2064.35
332.52	2193.37
332.74	2351.07
332.95	2015.20
333.16	2119.65
333.37	2265.05
333.58	2072.54
333.80	2211.81
334.01	2113.50
334.22	2138.08
334.43	2119.65
334.64	2150.37
334.86	2107.36
335.07	2179.04
335.28	2389.98
335.49	2095.07
335.70	2265.05
335.92	2301.92
336.13	2426.84
336.34	2285.53
336.55	2236.38
336.76	2299.87
336.98	2043.87
337.19	2095.07
337.40	2271.20
337.61	2437.08
337.82	2125.79
338.04	2240.48
338.25	2095.07
338.46	2201.57
338.67	2170.85
338.88	2142.18
339.09	2086.88
339.31	2113.50
339.52	2140.13
339.73	2097.12
339.94	2199.52
340.15	2338.78
340.36	2183.13
340.58	2254.81
340.79	2101.22
341.00	2226.14
341.21	2086.88
341.42	2342.88
341.63	2152.42
341.85	2242.53
342.06	2226.14
342.27	2154.46
342.48	2351.07
342.69	2047.97
342.90	2232.29
343.12	2367.45
343.33	2123.74
343.54	2303.96
343.75	2291.68
343.96	2101.22
344.17	2133.98
344.38	2183.13
344.60	2115.55
344.81	2129.89
345.02	2144.22
345.23	2181.09
345.44	2463.71
345.65	2232.29
345.86	2250.72
346.07	2138.08
346.29	2168.80
346.50	2183.13
346.71	2215.90
346.92	2293.72
347.13	2435.03
347.34	2170.85
347.55	2181.09
347.76	2269.15
347.98	2027.49
348.19	2146.27
348.40	2277.34
348.61	2160.61
348.82	2330.59
349.03	2179.04
349.24	2146.27
349.45	2320.35
349.66	2043.87
349.88	2162.66
350.09	2031.58
350.30	2375.64
350.51	2254.81
350.72	2199.52
350.93	2185.18
351.14	2273.25
351.35	2269.15
351.56	2107.36
351.77	2226.14
351.99	2275.29
352.20	2334.68
352.41	2283.49
352.62	2047.97
352.83	2131.94
353.04	2140.13
353.25	2101.22
353.46	2273.25
353.67	2232.29
353.88	2041.82
354.09	2172.89
354.30	2232.29
354.52	2320.35
354.73	2105.31
354.94	2113.50
355.15	2144.22
355.36	2428.89
355.57	2060.26
355.78	2183.13
355.99	2129.89
356.20	2189.28
356.41	2322.40
356.62	2172.89
356.83	2138.08
357.04	2269.15
357.25	2031.58
357.46	2144.22
357.68	2115.55
357.89	2176.99
358.10	2201.57
358.31	2205.66
358.52	2144.22
358.73	2146.27
358.94	2093.02
359.15	2162.66
359.36	2256.86
359.57	2181.09
359.78	2220.00
359.99	2183.13
360.20	2168.80
360.41	2181.09
360.62	2263.01
360.83	2179.04
361.04	2138.08
361.25	2236.38
361.46	2373.60
361.67	2193.37
361.88	2185.18
362.09	2297.82
362.30	2275.29
362.51	2136.03
362.72	2209.76
362.93	2314.20
363.14	2273.25
363.35	2240.48
363.56	2154.46
363.78	2267.10
363.99	2193.37
364.20	2162.66
364.41	2232.29
364.62	2342.88
364.83	2271.20
365.04	2129.89
365.25	2189.28
365.46	2412.51
365.67	2131.94
365.88	2185.18
366.09	2107.36
366.30	2174.94
366.51	2168.80
366.72	2101.22
366.93	2103.26
367.14	2258.91
367.35	2283.49
367.56	2168.80
367.77	2320.35
367.98	2121.70
368.18	2353.12
368.39	2209.76
368.60	2078.69
368.81	2310.11
369.02	2179.04
369.23	2158.56
369.44	2062.30
369.65	2148.32
369.86	2236.38
370.07	2277.34
370.28	2086.88
370.49	2195.42
370.70	2232.29
370.91	2115.55
371.12	2062.30
371.33	2330.59
371.54	2144.22
371.75	2371.55
371.96	2009.06
372.17	2176.99
372.38	2156.51
372.59	2222.05
372.80	2127.84
373.01	2232.29
373.22	2236.38
373.43	2156.51
373.64	2062.30
373.85	2349.02
374.06	2373.60
374.26	2289.63
374.47	2220.00
374.68	2314.20
374.89	2303.96
375.10	2133.98
375.31	2301.92
375.52	2189.28
375.73	2242.53
375.94	2099.17
376.15	2322.40
376.36	2181.09
376.57	2150.37
376.78	2123.74
376.99	2226.14
377.20	2310.11
377.40	2226.14
377.61	2332.64
377.82	2064.35
378.03	2306.01
378.24	2256.86
378.45	2160.61
378.66	2152.42
378.87	1986.53
379.08	2019.30
379.29	2084.83
379.50	2330.59
379.71	2252.77
379.91	2220.00
380.12	2136.03
380.33	2103.26
380.54	2187.23
380.75	2156.51
380.96	2199.52
381.17	2310.11
381.38	2260.96
381.59	2201.57
381.80	2213.85
382.00	2336.73
382.21	2357.21
382.42	2338.78
382.63	2469.85
382.84	2228.19
383.05	2273.25
383.26	2340.83
383.47	2174.94
383.68	2222.05
383.88	2285.53
384.09	2154.46
384.30	2351.07
384.51	2226.14
384.72	2146.27
384.93	2062.30
385.14	2215.90
385.35	2222.05
385.55	2037.73
385.76	2293.72
385.97	2097.12
386.18	2115.55
386.39	2142.18
386.60	2203.61
386.81	2222.05
387.02	2068.45
387.22	2093.02
387.43	2244.57
387.64	2279.39
387.85	2377.69
388.06	2527.19
388.27	4044.74
388.48	8533.89
388.68	12255.04
388.89	14620.45
389.10	15779.60
389.31	14550.82
389.52	11345.75
389.73	9922.41
389.93	8984.44
390.14	8218.50
390.35	7301.01
390.56	6528.92
390.77	5328.81
390.98	4130.75
391.18	3340.24
391.39	2758.61
391.60	2326.49
391.81	2389.98
392.02	2191.33
392.23	2445.27
392.43	2224.09
392.64	2375.64
392.85	2187.23
393.06	2424.80
393.27	2226.14
393.47	2222.05
393.68	2179.04
393.89	2172.89
394.10	2275.29
394.31	2090.98
394.52	2146.27
394.72	2133.98
394.93	2363.36
395.14	2050.02
395.35	2273.25
395.56	2207.71
395.76	2193.37
395.97	2228.19
396.18	2392.03
396.39	2310.11
396.60	2662.36
396.80	2506.71
397.01	2346.97
397.22	2277.34
397.43	2353.12
397.64	2207.71
397.84	2246.62
398.05	2389.98
398.26	2340.83
398.47	2301.92
398.67	2269.15
398.88	2209.76
399.09	2246.62
399.30	2168.80
399.51	2211.81
399.71	2138.08
399.92	2234.33
400.13	2265.05
400.34	2203.61
400.54	2224.09
400.75	2416.60
400.96	2279.39
401.17	2392.03
401.37	2279.39
401.58	2183.13
401.79	2267.10
402.00	2322.40
402.21	2602.97
402.41	2539.48
402.62	2488.28
402.83	2664.41
403.04	2668.50
403.24	2858.96
403.45	2252.77
403.66	2498.52
403.87	2355.16
404.07	2523.10
404.28	2437.08
404.49	2404.32
404.70	2306.01
404.90	2256.86
405.11	2150.37
405.32	2215.90
405.52	2113.50
405.73	2191.33
405.94	2056.16
406.15	2115.55
406.35	2291.68
406.56	2320.35
406.77	2168.80
406.98	2170.85
407.18	2127.84
407.39	2359.26
407.60	2144.22
407.80	2240.48
408.01	2140.13
408.22	2213.85
408.43	2185.18
408.63	2209.76
408.84	2238.43
409.05	2344.92
409.25	2097.12
409.46	2101.22
409.67	2140.13
409.88	2144.22
410.08	2340.83
410.29	2142.18
410.50	2191.33
410.70	2269.15
410.91	2068.45
411.12	2236.38
411.32	2256.86
411.53	2117.60
411.74	2314.20
411.95	2291.68
412.15	2228.19
412.36	2211.81
412.57	2387.93
412.77	2320.35
412.98	2228.19
413.19	2248.67
413.39	2179.04
413.60	2185.18
413.81	2334.68
414.01	2133.98
414.22	2285.53
414.43	2299.87
414.63	2213.85
414.84	2308.06
415.05	2207.71
415.25	2029.54
415.46	2277.34
415.67	2138.08
415.87	2185.18
416.08	2213.85
416.29	2174.94
416.49	2277.34
416.70	2146.27
416.91	2168.80
417.11	2160.61
417.32	2324.44
417.53	2281.44
417.73	2238.43
417.94	2215.90
418.15	2242.53
418.35	2154.46
418.56	2201.57
418.77	2441.18
418.97	2224.09
419.18	2154.46
419.38	1982.43
419.59	2183.13
419.80	2385.88
420.00	2076.64
420.21	2230.24
420.42	2281.44
420.62	2267.10
420.83	2144.22
421.04	2185.18
421.24	2123.74
421.45	2254.81
421.65	2236.38
421.86	2162.66
422.07	2246.62
422.27	2260.96
422.48	2144.22
422.69	2090.98
422.89	2127.84
423.10	2183.13
423.30	2076.64
423.51	2172.89
423.72	2248.67
423.92	2232.29
424.13	2054.11
424.33	2142.18
424.54	2334.68
424.75	2209.76
424.95	2295.77
425.16	2242.53
425.36	2203.61
425.57	2383.84
425.78	2226.14
425.98	2265.05
426.19	2150.37
426.39	2125.79
426.60	2207.71
426.81	2371.55
427.01	2230.24
427.22	2133.98
427.42	2078.69
427.63	2176.99
427.83	2242.53
428.04	2379.74
428.25	2293.72
428.45	2287.58
428.66	2260.96
428.86	2252.77
429.07	2226.14
429.28	2254.81
429.48	2129.89
429.69	2127.84
429.89	2228.19
430.10	2035.68
430.30	2267.10
430.51	2301.92
430.71	2093.02
430.92	2164.70
431.13	2123.74
431.33	2258.91
431.54	2127.84
431.74	2324.44
431.95	2392.03
432.15	2095.07
432.36	2187.23
432.56	2338.78
432.77	2353.12
432.98	2394.08
433.18	2222.05
433.39	2160.61
433.59	2166.75
433.80	2426.84
434.00	2324.44
434.21	2246.62
434.41	2088.93
434.62	2475.99
434.82	2060.26
435.03	2080.74
435.23	2263.01
435.44	2056.16
435.64	2236.38
435.85	2131.94
436.06	2240.48
436.26	2265.05
436.47	2068.45
436.67	2125.79
436.88	2236.38
437.08	2265.05
437.29	2314.20
437.49	2140.13
437.70	2285.53
437.90	2269.15
438.11	2338.78
438.31	2312.16
438.52	2314.20
438.72	2383.84
438.93	2529.24
439.13	2283.49
439.34	2371.55
439.54	2297.82
439.75	2295.77
439.95	2312.16
440.16	2244.57
440.36	2234.33
440.57	2256.86
440.77	2238.43
440.98	2207.71
441.18	2269.15
441.39	2101.22
441.59	2191.33
441.80	2473.95
442.00	2199.52
442.21	2316.25
442.41	2078.69
442.62	2306.01
442.82	2150.37
443.02	2193.37
443.23	2168.80
443.43	2220.00
443.64	2336.73
443.84	2099.17
444.05	2301.92
444.25	2285.53
444.46	2162.66
444.66	2236.38
444.87	2424.80
445.07	2021.35
445.28	2265.05
445.48	2320.35
445.69	2256.86
445.89	2531.29
446.09	2185.18
446.30	2432.99
446.50	2809.81
446.71	4392.89
446.91	5638.06
447.12	6340.51
447.32	6713.24
447.53	6250.40
447.73	5072.82
447.93	4661.18
448.14	4208.58
448.34	4114.37
448.55	3555.27
448.75	3526.60
448.96	3356.62
449.16	3065.81
449.36	2789.33
449.57	2523.10
449.77	2293.72
449.98	2197.47
450.18	2285.53
450.39	2334.68
450.59	2320.35
450.79	2162.66
451.00	2209.76
451.20	2197.47
451.41	2203.61
451.61	2230.24
451.81	2287.58
452.02	2113.50
452.22	2150.37
452.43	2168.80
452.63	2195.42
452.84	2162.66
453.04	2191.33
453.24	2160.61
453.45	2207.71
453.65	2162.66
453.86	2170.85
454.06	2318.30
454.26	2166.75
454.47	2119.65
454.67	2316.25
454.87	2265.05
455.08	2164.70
455.28	2367.45
455.49	2283.49
455.69	2158.56
455.89	2443.23
456.10	2340.83
456.30	2129.89
456.51	2242.53
456.71	2244.57
456.91	2248.67
457.12	2232.29
457.32	2277.34
457.52	2099.17
457.73	2289.63
457.93	2285.53
458.14	2170.85
458.34	2072.54
458.54	2275.29
458.75	2189.28
458.95	2385.88
459.15	2252.77
459.36	2185.18
459.56	2281.44
459.76	2408.41
459.97	2187.23
460.17	2240.48
460.37	2301.92
460.58	2203.61
460.78	2291.68
460.99	2174.94
461.19	2183.13
461.39	2193.37
461.60	2181.09
461.80	2349.02
462.00	2097.12
462.21	2287.58
462.41	2101.22
462.61	2154.46
462.82	1964.00
463.02	2244.57
463.22	2203.61
463.43	2244.57
463.63	2187.23
463.83	2303.96
464.04	2248.67
464.24	2195.42
464.44	2093.02
464.64	2236.38
464.85	2297.82
465.05	2306.01
465.25	2238.43
465.46	2174.94
465.66	2314.20
465.86	2320.35
466.07	2154.46
466.27	2119.65
466.47	2095.07
466.68	2090.98
466.88	2346.97
467.08	2256.86
467.29	2375.64
467.49	2193.37
467.69	2129.89
467.89	2220.00
468.10	2170.85
468.30	2256.86
468.50	2263.01
468.71	2316.25
468.91	2107.36
469.11	2326.49
469.31	2217.95
469.52	2138.08
469.72	2353.12
469.92	2400.22
470.13	2166.75
470.33	2256.86
470.53	2228.19
470.73	2621.40
470.94	3080.14
471.14	3317.71
471.34	3651.53
471.54	3551.18
471.75	3213.26
471.95	2996.18
472.15	2729.94
472.36	2758.61
472.56	2648.02
472.76	2752.47
472.96	2717.65
473.17	2545.63
473.37	2457.56
473.57	2299.87
473.77	2342.88
473.98	2250.72
474.18	2101.22
474.38	2508.76
474.58	2156.51
474.79	2154.46
474.99	2299.87
475.19	2357.21
475.39	2133.98
475.60	2283.49
475.80	2269.15
476.00	2176.99
476.20	2166.75
476.41	2211.81
476.61	2293.72
476.81	2375.64
477.01	2080.74
477.21	2355.16
477.42	2306.01
477.62	2111.46
477.82	2316.25
478.02	2158.56
478.23	2260.96
478.43	2129.89
478.63	2240.48
478.83	2179.04
479.03	2133.98
479.24	2308.06
479.44	2398.17
479.64	2090.98
479.84	1947.62
480.04	2111.46
480.25	2312.16
480.45	2125.79
480.65	2150.37
480.85	2318.30
481.06	2224.09
481.26	2187.23
481.46	2269.15
481.66	2228.19
481.86	2142.18
482.06	2279.39
482.27	2248.67
482.47	2205.66
482.67	2183.13
482.87	2193.37
483.07	2291.68
483.28	2146.27
483.48	2101.22
483.68	2162.66
483.88	2123.74
484.08	1980.39
484.29	2099.17
484.49	2148.32
484.69	2129.89
484.89	2355.16
485.09	2242.53
485.29	2260.96
485.50	2211.81
485.70	2234.33
485.90	2289.63
486.10	2277.34
486.30	2265.05
486.50	2332.64
486.71	2203.61
486.91	2303.96
487.11	2308.06
487.31	2119.65
487.51	2234.33
487.71	2162.66
487.91	2129.89
488.12	2047.97
488.32	1972.19
488.52	2133.98
488.72	2033.63
488.92	2166.75
489.12	2314.20
489.32	2269.15
489.53	2301.92
489.73	2054.11
489.93	2373.60
490.13	2213.85
490.33	2043.87
490.53	2203.61
490.73	2328.54
490.94	2095.07
491.14	2258.91
491.34	2363.36
491.54	2605.02
491.74	3051.47
491.94	3760.07
492.14	4003.78
492.34	4104.13
492.54	3817.41
492.75	3198.93
492.95	3170.26
493.15	2885.59
493.35	2924.50
493.55	2832.34
493.75	2764.76
493.95	2670.55
494.15	2516.95
494.35	2408.41
494.56	2363.36
494.76	2217.95
494.96	2232.29
495.16	2213.85
495.36	2228.19
495.56	2195.42
495.76	2228.19
495.96	2244.57
496.16	2146.27
496.36	2392.03
496.56	2095.07
496.77	2244.57
496.97	2164.70
497.17	2400.22
497.37	2058.21
497.57	2224.09
497.77	2220.00
497.97	2086.88
498.17	2220.00
498.37	2232.29
498.57	2234.33
498.77	2181.09
498.97	2240.48
499.17	2400.22
499.38	2211.81
499.58	2203.61
499.78	2314.20
499.98	2285.53
500.18	2271.20
500.38	2115.55
500.58	2394.08
500.78	2977.75
500.98	5115.83
501.18	7370.64
501.38	9002.87
501.58	9953.13
501.78	9768.81
501.98	7817.10
502.18	6490.01
502.38	5562.28
502.58	5191.60
502.78	4667.32
502.98	4519.87
503.18	4282.30
503.38	3903.43
503.59	3395.53
503.79	3258.32
503.99	2987.99
504.19	2881.49
504.39	2795.48
504.59	2953.17
504.79	2805.72
504.99	2856.92
505.19	2594.78
505.39	2475.99
505.59	2615.26
505.79	2443.23
505.99	2424.80
506.19	2359.26
506.39	2439.13
506.59	2138.08
506.79	2197.47
506.99	2289.63
507.19	2246.62
507.39	2172.89
507.59	2144.22
507.79	2195.42
507.99	2191.33
508.19	2215.90
508.39	2162.66
508.59	2170.85
508.79	2332.64
508.99	2406.36
509.19	2203.61
509.39	2275.29
509.59	2111.46
509.79	2150.37
509.99	2252.77
510.19	2275.29
510.39	2336.73
510.59	2185.18
510.79	2158.56
510.99	2097.12
511.19	2152.42
511.39	2322.40
511.59	2310.11
511.79	2324.44
511.99	2260.96
512.19	2396.12
512.38	2205.66
512.58	2129.89
512.78	2213.85
512.98	2359.26
513.18	2363.36
513.38	2072.54
513.58	2279.39
513.78	2217.95
513.98	2236.38
514.18	2185.18
514.38	2170.85
514.58	2211.81
514.78	2140.13
514.98	2138.08
515.18	2187.23
515.38	2099.17
515.58	2383.84
515.78	2148.32
515.98	2158.56
516.18	2265.05
516.38	2232.29
516.57	2080.74
516.77	2156.51
516.97	2289.63
517.17	2129.89
517.37	2056.16
517.57	2236.38
517.77	2215.90
517.97	2088.93
518.17	2285.53
518.37	2088.93
518.57	2187.23
518.77	2119.65
518.97	2236.38
519.16	2226.14
519.36	2326.49
519.56	2193.37
519.76	2215.90
519.96	2207.71
520.16	2373.60
520.36	2226.14
520.56	2373.60
520.76	2090.98
520.96	2193.37
521.16	2334.68
521.35	2326.49
521.55	2342.88
521.75	2191.33
521.95	2136.03
522.15	2228.19
522.35	2121.70
522.55	2201.57
522.75	2342.88
522.95	2142.18
523.14	2050.02
523.34	2125.79
523.54	2211.81
523.74	2273.25
523.94	2185.18
524.14	2031.58
524.34	2271.20
524.54	2326.49
524.73	2228.19
524.93	2258.91
525.13	2207.71
525.33	2088.93
525.53	2459.61
525.73	2183.13
525.93	2228.19
526.13	2181.09
526.32	2123.74
526.52	2269.15
526.72	2293.72
526.92	2189.28
527.12	2228.19
527.32	2093.02
527.52	2224.09
527.71	2285.53
527.91	2205.66
528.11	2166.75
528.31	2285.53
528.51	2170.85
528.71	2232.29
528.90	2230.24
529.10	2316.25
529.30	2326.49
529.50	1998.82
529.70	2248.67
529.90	2197.47
530.09	2123.74
530.29	2125.79
530.49	2136.03
530.69	2449.37
530.89	2275.29
531.09	2254.81
531.28	2197.47
531.48	2328.54
531.68	2205.66
531.88	2236.38
532.08	2260.96
532.28	2185.18
532.47	2291.68
532.67	2263.01
532.87	2322.40
533.07	2164.70
533.27	2361.31
533.46	2297.82
533.66	2326.49
533.86	2222.05
534.06	2252.77
534.26	2232.29
534.45	2158.56
534.65	2320.35
534.85	2320.35
535.05	2072.54
535.25	2287.58
535.44	2129.89
535.64	2291.68
535.84	2228.19
536.04	2156.51
536.24	2236.38
536.43	2174.94
536.63	2252.77
536.83	2179.04
537.03	2176.99
537.22	2027.49
537.42	2060.26
537.62	2228.19
537.82	2125.79
538.02	2367.45
538.21	2293.72
538.41	2510.81
538.61	2281.44
538.81	2179.04
539.00	2373.60
539.20	2086.88
539.40	2121.70
539.60	2269.15
539.79	2334.68
539.99	2238.43
540.19	2088.93
540.39	2166.75
540.58	2232.29
540.78	2312.16
540.98	2217.95
541.18	2303.96
541.37	2205.66
541.57	2240.48
541.77	2224.09
541.97	2103.26
542.16	2050.02
542.36	2123.74
542.56	2146.27
542.76	2301.92
542.95	2285.53
543.15	2220.00
543.35	2291.68
543.54	2131.94
543.74	2154.46
543.94	2371.55
544.14	2170.85
544.33	2287.58
544.53	2256.86
544.73	2205.66
544.93	2154.46
545.12	2179.04
545.32	2244.57
545.52	2263.01
545.71	2105.31
545.91	2162.66
546.11	2174.94
546.30	2131.94
546.50	2121.70
546.70	2234.33
546.90	2232.29
547.09	2088.93
547.29	2232.29
547.49	2318.30
547.68	2193.37
547.88	2154.46
548.08	2220.00
548.27	2691.03
548.47	2129.89
548.67	2113.50
548.87	2217.95
549.06	2195.42
549.26	2275.29
549.46	2291.68
549.65	2129.89
549.85	2226.14
550.05	2246.62
550.24	2125.79
550.44	2275.29
550.64	2222.05
550.83	2195.42
551.03	2312.16
551.23	2324.44
551.42	2260.96
551.62	2166.75
551.82	2203.61
552.01	2226.14
552.21	2367.45
552.41	2226.14
552.60	2322.40
552.80	2197.47
553.00	2144.22
553.19	2207.71
553.39	2310.11
553.59	2107.36
553.78	2273.25
553.98	2308.06
554.17	2160.61
554.37	2297.82
554.57	2277.34
554.76	2062.30
554.96	2105.31
555.16	2191.33
555.35	2269.15
555.55	2281.44
555.75	2244.57
555.94	2318.30
556.14	2121.70
556.33	2269.15
556.53	2193.37
556.73	2197.47
556.92	2301.92
557.12	2293.72
557.32	2291.68
557.51	2351.07
557.71	2228.19
557.90	2355.16
558.10	2285.53
558.30	2172.89
558.49	2191.33
558.69	2232.29
558.88	2269.15
559.08	2275.29
559.28	2220.00
559.47	2129.89
559.67	2279.39
559.86	2435.03
560.06	2168.80
560.26	2123.74
560.45	2250.72
560.65	2248.67
560.84	2359.26
561.04	2113.50
561.24	2260.96
561.43	2072.54
561.63	2416.60
561.82	2174.94
562.02	2265.05
562.22	2129.89
562.41	2174.94
562.61	2117.60
562.80	2080.74
563.00	2432.99
563.19	2220.00
563.39	2275.29
563.59	2275.29
563.78	2127.84
563.98	2047.97
564.17	2115.55
564.37	2082.78
564.56	2209.76
564.76	2117.60
564.96	2287.58
565.15	2295.77
565.35	2439.13
565.54	2179.04
565.74	2248.67
565.93	2226.14
566.13	2242.53
566.32	2277.34
566.52	2291.68
566.71	2277.34
566.91	2297.82
567.11	2217.95
567.30	2140.13
567.50	2263.01
567.69	2199.52
567.89	2138.08
568.08	2154.46
568.28	2215.90
568.47	2107.36
568.67	2238.43
568.86	2146.27
569.06	2310.11
569.25	2205.66
569.45	2158.56
569.64	2181.09
569.84	2191.33
570.04	2293.72
570.23	2170.85
570.43	2193.37
570.62	2236.38
570.82	2332.64
571.01	2111.46
571.21	2140.13
571.40	2144.22
571.60	2240.48
571.79	2303.96
571.99	2191.33
572.18	2136.03
572.38	2201.57
572.57	2185.18
572.77	2260.96
572.96	2473.95
573.16	2263.01
573.35	2179.04
573.55	2383.84
573.74	2289.63
573.94	2228.19
574.13	2217.95
574.33	2299.87
574.52	2328.54
574.71	2246.62
574.91	2293.72
575.10	2097.12
575.30	2191.33
575.49	2207.71
575.69	2195.42
575.88	2240.48
576.08	2260.96
576.27	2322.40
576.47	2312.16
576.66	2478.04
576.86	2471.90
577.05	2209.76
577.25	2367.45
577.44	2426.84
577.64	2203.61
577.83	2312.16
578.02	2179.04
578.22	2336.73
578.41	2394.08
578.61	2195.42
578.80	2121.70
579.00	2154.46
579.19	2287.58
579.39	2267.10
579.58	2240.48
579.77	2195.42
579.97	2318.30
580.16	2306.01
580.36	2312.16
580.55	2349.02
580.75	2312.16
580.94	2222.05
581.13	2445.27
581.33	2306.01
581.52	2303.96
581.72	2492.38
581.91	2432.99
582.11	2183.13
582.30	2314.20
582.49	2324.44
582.69	2459.61
582.88	2293.72
583.08	2320.35
583.27	2277.34
583.47	2269.15
583.66	2150.37
583.85	2217.95
584.05	2267.10
584.24	2287.58
584.44	2283.49
584.63	2398.17
584.82	2367.45
585.02	2457.56
585.21	2373.60
585.41	2414.56
585.60	2295.77
585.79	2539.48
585.99	2428.89
586.18	2373.60
586.37	2904.02
586.57	4485.05
586.76	13203.25
586.96	32284.18
587.15	45436.23
587.34	55282.87
587.54	60099.69
587.73	55035.06
587.93	39124.40
588.12	29537.85
588.31	23608.98
588.51	20633.29
588.70	18915.04
588.89	17200.89
589.09	15034.14
589.28	12828.48
589.47	10485.60
589.67	8103.81
589.86	6381.47
590.06	4816.82
590.25	3764.17
590.44	3160.02
590.64	2709.46
590.83	2590.68
591.02	2547.67
591.22	2332.64
591.41	2328.54
591.60	2242.53
591.80	2533.34
591.99	2174.94
592.18	2197.47
592.38	2334.68
592.57	2220.00
592.76	2199.52
592.96	2209.76
593.15	2224.09
593.34	2414.56
593.54	2154.46
593.73	2308.06
593.92	2252.77
594.12	2199.52
594.31	2334.68
594.50	2414.56
594.70	2334.68
594.89	2553.82
595.08	2168.80
595.28	2285.53
595.47	2553.82
595.66	2310.11
595.86	2195.42
596.05	2199.52
596.24	2187.23
596.43	2392.03
596.63	2326.49
596.82	2281.44
597.01	2359.26
597.21	2439.13
597.40	2334.68
597.59	2172.89
597.79	2258.91
597.98	2281.44
598.17	2312.16
598.36	2277.34
598.56	2375.64
598.75	2166.75
598.94	2242.53
599.14	2289.63
599.33	2160.61
599.52	2279.39
599.71	2244.57
599.91	2340.83
600.10	2228.19
600.29	2179.04
600.48	2281.44
600.68	2269.15
600.87	2273.25
601.06	2228.19
601.26	2199.52
601.45	2252.77
601.64	2199.52
601.83	2365.40
602.03	2136.03
602.22	2095.07
602.41	2281.44
602.60	2396.12
602.80	2301.92
602.99	2260.96
603.18	2176.99
603.37	2199.52
603.57	2226.14
603.76	2256.86
603.95	2408.41
604.14	2205.66
604.34	2154.46
604.53	2203.61
604.72	2226.14
604.91	2342.88
605.10	2260.96
605.30	2154.46
605.49	2406.36
605.68	2269.15
605.87	2263.01
606.07	2105.31
606.26	2314.20
606.45	2250.72
606.64	2271.20
606.84	2238.43
607.03	2285.53
607.22	2400.22
607.41	2205.66
607.60	2160.61
607.80	2342.88
607.99	2330.59
608.18	2246.62
608.37	2279.39
608.56	2193.37
608.76	2338.78
608.95	2498.52
609.14	2332.64
609.33	2490.33
609.52	2432.99
609.72	2299.87
609.91	2281.44
610.10	2318.30
610.29	2314.20
610.48	2295.77
610.68	2185.18
610.87	2168.80
611.06	2252.77
611.25	2275.29
611.44	2428.89
611.63	2213.85
611.83	2332.64
612.02	2086.88
612.21	2215.90
612.40	2047.97
612.59	2078.69
612.79	2105.31
612.98	2142.18
613.17	2359.26
613.36	2209.76
613.55	2365.40
613.74	2318.30
613.93	2402.27
614.13	2424.80
614.32	2600.92
614.51	2490.33
614.70	2367.45
614.89	2248.67
615.08	2340.83
615.28	2738.13
615.47	2226.14
615.66	2422.75
615.85	2342.88
616.04	2467.80
616.23	2269.15
616.42	2240.48
616.62	2299.87
616.81	2260.96
617.00	2193.37
617.19	2275.29
617.38	2189.28
617.57	2220.00
617.76	2289.63
617.95	2277.34
618.15	2230.24
618.34	2351.07
618.53	2109.41
618.72	2326.49
618.91	2398.17
619.10	2353.12
619.29	2316.25
619.48	2217.95
619.68	2160.61
619.87	2179.04
620.06	2105.31
620.25	2224.09
620.44	2097.12
620.63	2170.85
620.82	2213.85
621.01	2267.10
621.20	2248.67
621.39	2250.72
621.59	2226.14
621.78	2267.10
621.97	2250.72
622.16	2355.16
622.35	2285.53
622.54	2297.82
622.73	2340.83
622.92	2078.69
623.11	2293.72
623.30	2185.18
623.49	2217.95
623.68	2103.26
623.88	2365.40
624.07	2121.70
624.26	2138.08
624.45	2226.14
624.64	2160.61
624.83	2254.81
625.02	2207.71
625.21	2283.49
625.40	2267.10
625.59	2334.68
625.78	2203.61
625.97	2326.49
626.16	2383.84
626.35	2318.30
626.54	2387.93
626.74	2437.08
626.93	2263.01
627.12	2295.77
627.31	2326.49
627.50	2209.76
627.69	2291.68
627.88	2074.59
628.07	2103.26
628.26	2086.88
628.45	2113.50
628.64	2086.88
628.83	2265.05
629.02	2088.93
629.21	2267.10
629.40	2234.33
629.59	2191.33
629.78	2166.75
629.97	2289.63
630.16	2181.09
630.35	2170.85
630.54	2238.43
630.73	2179.04
630.92	2209.76
631.11	2179.04
631.30	2207.71
631.49	2224.09
631.68	2162.66
631.87	2236.38
632.06	2088.93
632.25	2441.18
632.44	2312.16
632.63	2279.39
632.82	2244.57
633.01	2250.72
633.20	2400.22
633.39	2320.35
633.58	2209.76
633.77	2326.49
633.96	2273.25
634.15	2310.11
634.34	2275.29
634.53	2258.91
634.72	2072.54
634.91	2136.03
635.10	2168.80
635.29	2252.77
635.48	2201.57
635.67	2127.84
635.86	2070.50
636.05	2310.11
636.24	2136.03
636.43	2207.71
636.62	2275.29
636.81	1931.23
637.00	2232.29
637.19	2215.90
637.38	2269.15
637.57	2164.70
637.76	2258.91
637.95	2424.80
638.14	2287.58
638.33	2357.21
638.52	2195.42
638.71	2187.23
638.89	2205.66
639.08	2416.60
639.27	2318.30
639.46	2496.47
639.65	2908.12
639.84	2992.08
640.03	3098.58
640.22	2969.55
640.41	2959.31
640.60	2516.95
640.79	2559.96
640.98	2426.84
641.17	2420.70
641.36	2473.95
641.55	2400.22
641.74	2207.71
641.92	2267.10
642.11	2215.90
642.30	2160.61
642.49	2211.81
642.68	2230.24
642.87	2217.95
643.06	2265.05
643.25	2138.08
643.44	2127.84
643.63	2222.05
643.82	2324.44
644.00	2113.50
644.19	2215.90
644.38	2199.52
644.57	2244.57
644.76	2179.04
644.95	2242.53
645.14	2201.57
645.33	2215.90
645.52	2217.95
645.71	2062.30
645.89	2187.23
646.08	2205.66
646.27	2166.75
646.46	2377.69
646.65	2035.68
646.84	2265.05
647.03	2164.70
647.22	2254.81
647.40	2197.47
647.59	2236.38
647.78	2152.42
647.97	2166.75
648.16	2070.50
648.35	2351.07
648.54	2277.34
648.73	2232.29
648.91	2236.38
649.10	2129.89
649.29	2154.46
649.48	2191.33
649.67	2265.05
649.86	2246.62
650.05	2252.77
650.23	2463.71
650.42	2297.82
650.61	2527.19
650.80	2381.79
650.99	2463.71
651.18	2428.89
651.36	2322.40
651.55	2168.80
651.74	2308.06
651.93	2191.33
652.12	2244.57
652.31	2179.04
652.49	2269.15
652.68	2183.13
652.87	2392.03
653.06	2275.29
653.25	2365.40
653.44	2228.19
653.62	2373.60
653.81	2193.37
654.00	2226.14
654.19	2324.44
654.38	2486.23
654.56	2189.28
654.75	2199.52
654.94	2285.53
655.13	2232.29
655.32	2199.52
655.51	2269.15
655.69	2217.95
655.88	2248.67
656.07	2090.98
656.26	2234.33
656.45	2166.75
656.63	2220.00
656.82	2275.29
657.01	2310.11
657.20	2174.94
657.38	2357.21
657.57	2113.50
657.76	2064.35
657.95	2316.25
658.14	2125.79
658.32	2242.53
658.51	2119.65
658.70	2248.67
658.89	2222.05
659.08	2224.09
659.26	2326.49
659.45	2101.22
659.64	2273.25
659.83	2211.81
660.01	2650.07
660.20	2318.30
660.39	2416.60
660.58	2086.88
660.76	2281.44
660.95	2138.08
661.14	2232.29
661.33	2142.18
661.51	2170.85
661.70	2142.18
661.89	2228.19
662.08	2203.61
662.26	2037.73
662.45	2062.30
662.64	2459.61
662.83	2359.26
663.01	2193.37
663.20	2154.46
663.39	2346.97
663.58	2133.98
663.76	2185.18
663.95	2215.90
664.14	2191.33
664.32	2148.32
664.51	2125.79
664.70	2043.87
664.89	2310.11
665.07	2047.97
665.26	2256.86
665.45	2131.94
665.64	2226.14
665.82	2138.08
666.01	2265.05
666.20	2146.27
666.38	2267.10
666.57	2357.21
666.76	3180.50
666.95	8103.81
667.13	16391.94
667.32	22027.95
667.51	25308.80
667.69	27344.48
667.88	25388.67
668.07	17929.97
668.25	14483.24
668.44	11923.27
668.63	10456.93
668.81	8951.67
669.00	7804.81
669.19	7042.96
669.38	6090.66
669.56	5308.34
669.75	4460.48
669.94	3792.84
670.12	3067.86
670.31	2826.20
670.50	2625.50
670.68	2467.80
670.87	2283.49
671.06	2299.87
671.24	2363.36
671.43	2445.27
671.62	2228.19
671.80	2220.00
671.99	2310.11
672.18	2242.53
672.36	2297.82
672.55	2211.81
672.74	2285.53
672.92	2211.81
673.11	2330.59
673.29	2187.23
673.48	2297.82
673.67	2127.84
673.85	2275.29
674.04	2127.84
674.23	2224.09
674.41	2400.22
674.60	2133.98
674.79	2031.58
674.97	2162.66
675.16	2240.48
675.34	2316.25
675.53	2136.03
675.72	2258.91
675.90	2422.75
676.09	2162.66
676.28	2222.05
676.46	2066.40
676.65	2240.48
676.83	2093.02
677.02	2199.52
677.21	2234.33
677.39	2195.42
677.58	2062.30
677.77	2129.89
677.95	2205.66
678.14	2138.08
678.32	2142.18
678.51	2195.42
678.70	2494.43
678.88	2097.12
679.07	2201.57
679.25	2277.34
679.44	2195.42
679.63	2072.54
679.81	2201.57
680.00	2330.59
680.18	2275.29
680.37	2295.77
680.55	2248.67
680.74	2060.26
680.93	1980.39
681.11	2277.34
681.30	2279.39
681.48	2252.77
681.67	2185.18
681.85	2179.04
682.04	2035.68
682.23	2297.82
682.41	2277.34
682.60	2189.28
682.78	2125.79
682.97	2056.16
683.15	2179.04
683.34	2164.70
683.53	2301.92
683.71	2076.64
683.90	2265.05
684.08	2416.60
684.27	2195.42
684.45	2244.57
684.64	2258.91
684.82	2187.23
685.01	2267.10
685.19	2222.05
685.38	2326.49
685.57	2252.77
685.75	2035.68
685.94	2097.12
686.12	2099.17
686.31	2113.50
686.49	2379.74
686.68	2045.92
686.86	2199.52
687.05	2217.95
687.23	2234.33
687.42	2174.94
687.60	2076.64
687.79	2285.53
687.97	2334.68
688.16	2277.34
688.34	2299.87
688.53	2068.45
688.71	2283.49
688.90	2379.74
689.08	2164.70
689.27	2117.60
689.45	2297.82
689.64	2334.68
689.82	2293.72
690.01	2279.39
690.19	2189.28
690.38	2217.95
690.56	2320.35
690.75	2009.06
690.93	2174.94
691.12	2113.50
691.30	2201.57
691.49	2162.66
691.67	2191.33
691.86	2416.60
692.04	2201.57
692.23	2203.61
692.41	2260.96
692.60	2533.34
692.78	2412.51
692.97	2283.49
693.15	2303.96
693.34	2363.36
693.52	2256.86
693.71	2179.04
693.89	2185.18
694.08	2070.50
694.26	2267.10
694.44	2293.72
694.63	2242.53
694.81	2119.65
695.00	2117.60
695.18	2310.11
695.37	2402.27
695.55	2215.90
695.74	2191.33
695.92	2097.12
696.10	2285.53
696.29	2088.93
696.47	2109.41
696.66	2097.12
696.84	2047.97
697.03	2144.22
697.21	2373.60
697.40	3139.54
697.58	2285.53
697.76	2170.85
697.95	2203.61
698.13	2136.03
698.32	2189.28
698.50	2211.81
698.68	2144.22
698.87	2213.85
699.05	2367.45
699.24	2230.24
699.42	2056.16
699.61	2224.09
699.79	2209.76
699.97	2201.57
700.16	2162.66
700.34	2129.89
700.53	2174.94
700.71	2332.64
700.89	2318.30
701.08	2205.66
701.26	2275.29
701.45	2697.17
701.63	2117.60
701.81	2117.60
702.00	2207.71
702.18	2226.14
702.37	2252.77
702.55	2430.94
702.73	2392.03
702.92	2445.27
703.10	2584.54
703.28	2580.44
703.47	2244.57
703.65	2379.74
703.84	2422.75
704.02	2281.44
704.20	2432.99
704.39	2228.19
704.57	2174.94
704.75	2349.02
704.94	2332.64
705.12	2240.48
705.30	2611.16
705.49	4462.52
705.67	11097.94
705.86	20440.78
706.04	24915.59
706.22	28460.62
706.41	29546.05
706.59	25202.30
706.77	18075.37
706.96	14681.89
707.14	12730.17
707.32	11218.77
707.51	9781.10
707.69	8189.83
707.87	6590.36
708.06	5308.34
708.24	4147.14
708.42	3356.62
708.61	3080.14
708.79	2549.72
708.97	2490.33
709.16	2465.75
709.34	2318.30
709.52	2220.00
709.71	2254.81
709.89	2287.58
710.07	2172.89
710.26	2070.50
710.44	2197.47
710.62	2265.05
710.80	2283.49
710.99	2195.42
711.17	2289.63
711.35	2193.37
711.54	2205.66
711.72	2308.06
711.90	2308.06
712.09	2220.00
712.27	2142.18
712.45	2269.15
712.63	2105.31
712.82	2293.72
713.00	2166.75
713.18	2205.66
713.37	2267.10
713.55	2269.15
713.73	2215.90
713.91	2330.59
714.10	2260.96
714.28	2260.96
714.46	2301.92
714.65	2230.24
714.83	2211.81
715.01	2248.67
715.19	2146.27
715.38	2111.46
715.56	2187.23
715.74	2060.26
715.92	2136.03
716.11	2387.93
716.29	1964.00
716.47	2236.38
716.65	2170.85
716.84	2060.26
717.02	2242.53
717.20	2039.78
717.38	2187.23
717.57	2201.57
717.75	2111.46
717.93	2248.67
718.11	2271.20
718.30	2129.89
718.48	2273.25
718.66	2217.95
718.84	2287.58
719.03	2105.31
719.21	2090.98
719.39	2306.01
719.57	2226.14
719.75	2195.42
719.94	2099.17
720.12	2174.94
720.30	2179.04
720.48	2201.57
720.67	2215.90
720.85	2142.18
721.03	2078.69
721.21	2111.46
721.39	2363.36
721.58	2361.31
721.76	2244.57
721.94	2209.76
722.12	2201.57
722.30	2316.25
722.49	2123.74
722.67	2179.04
722.85	2230.24
723.03	2162.66
723.21	2138.08
723.40	2226.14
723.58	2312.16
723.76	2281.44
723.94	2359.26
724.12	2256.86
724.30	2406.36
724.49	2332.64
724.67	2191.33
724.85	2318.30
725.03	2103.26
725.21	2236.38
725.40	2240.48
725.58	2152.42
725.76	2426.84
725.94	2299.87
726.12	2146.27
726.30	2174.94
726.49	2170.85
726.67	2211.81
726.85	2236.38
727.03	2564.06
727.21	3762.12
727.39	5445.55
727.57	6616.99
727.76	7436.17
727.94	7853.96
728.12	7452.56
728.30	5889.96
728.48	5027.76
728.66	4493.24
728.84	4118.47
729.03	3512.27
729.21	3100.62
729.39	2725.85
729.57	2469.85
729.75	2435.03
729.93	2365.40
730.11	2265.05
730.30	2187.23
730.48	2228.19
730.66	2351.07
730.84	2269.15
731.02	2234.33
731.20	2160.61
731.38	2166.75
731.56	2121.70
731.74	2119.65
731.93	2256.86
732.11	2240.48
732.29	2207.71
732.47	2285.53
732.65	2162.66
732.83	2338.78
733.01	2217.95
733.19	2101.22
733.37	2244.57
733.56	2269.15
733.74	2176.99
733.92	2400.22
734.10	2109.41
734.28	2226.14
734.46	2021.35
734.64	2179.04
734.82	2205.66
735.00	2215.90
735.18	2170.85
735.36	2197.47
735.54	2146.27
735.73	2213.85
735.91	2197.47
736.09	2285.53
736.27	2179.04
736.45	2263.01
736.63	2093.02
736.81	2107.36
736.99	2357.21
737.17	2396.12
737.35	2154.46
737.53	2199.52
737.71	2166.75
737.89	2324.44
738.07	2144.22
738.25	2111.46
738.43	2068.45
738.61	2236.38
738.80	2115.55
738.98	2068.45
739.16	2105.31
739.34	2162.66
739.52	2357.21
739.70	2080.74
739.88	2279.39
740.06	2238.43
740.24	2027.49
740.42	2283.49
740.60	2052.06
740.78	2029.54
740.96	2082.78
741.14	2144.22
741.32	2215.90
741.50	2119.65
741.68	2404.32
741.86	2332.64
742.04	2131.94
742.22	2170.85
742.40	2166.75
742.58	2205.66
742.76	2086.88
742.94	2363.36
743.12	2060.26
743.30	2154.46
743.48	2277.34
743.66	2160.61
743.84	2256.86
744.02	2193.37
744.20	2174.94
744.38	2078.69
744.56	2072.54
744.74	2349.02
744.92	2273.25
745.10	2303.96
745.28	2252.77
745.46	2232.29
745.64	2166.75
745.82	2267.10
746.00	2174.94
746.18	2250.72
746.36	2136.03
746.54	2129.89
746.72	2191.33
746.90	2113.50
747.08	2316.25
747.26	2154.46
747.44	2265.05
747.62	2269.15
747.80	2252.77
747.98	2248.67
748.15	2140.13
748.33	2398.17
748.51	2172.89
748.69	2197.47
748.87	2166.75
749.05	2240.48
749.23	2185.18
749.41	2209.76
749.59	2217.95
749.77	2301.92
749.95	2181.09
750.13	2109.41
750.31	2199.52
750.49	2176.99
750.67	2324.44
750.85	2324.44
751.03	2232.29
751.20	2422.75
751.38	2154.46
751.56	2103.26
751.74	2201.57
751.92	2181.09
752.10	2162.66
752.28	2244.57
752.46	2156.51
752.64	2220.00
752.82	2230.24
753.00	2402.27
753.18	2179.04
753.35	2189.28
753.53	2142.18
753.71	2142.18
753.89	2244.57
754.07	2285.53
754.25	2228.19
754.43	2248.67
754.61	2148.32
754.79	2148.32
754.97	2195.42
755.14	2353.12
755.32	2082.78
755.50	2209.76
755.68	2170.85
755.86	2023.39
756.04	2160.61
756.22	2017.25
756.40	2252.77
756.57	2416.60
756.75	2158.56
756.93	2373.60
757.11	2279.39
757.29	2058.21
757.47	2109.41
757.65	2117.60
757.82	2027.49
758.00	2109.41
758.18	2074.59
758.36	2127.84
758.54	2312.16
758.72	2007.01
758.90	2217.95
759.07	2289.63
759.25	2131.94
759.43	2246.62
759.61	2047.97
759.79	3049.43
759.97	2224.09
760.15	2154.46
760.32	2185.18
760.50	2254.81
760.68	2269.15
760.86	2082.78
761.04	2267.10
761.22	2181.09
761.39	2199.52
761.57	2185.18
761.75	2185.18
761.93	2172.89
762.11	2140.13
762.28	2170.85
762.46	2133.98
762.64	2244.57
762.82	2056.16
763.00	2176.99
763.18	2285.53
763.35	2095.07
763.53	2215.90
763.71	2172.89
763.89	2236.38
764.07	2187.23
764.24	2185.18
764.42	2215.90
764.60	2160.61
764.78	2203.61
764.96	2244.57
765.13	2275.29
765.31	2248.67
765.49	2234.33
765.67	2097.12
765.84	2113.50
766.02	2107.36
766.20	2060.26
766.38	2211.81
766.56	2252.77
766.73	2213.85
766.91	2162.66
767.09	2103.26
767.27	2252.77
767.44	2101.22
767.62	2201.57
767.80	2228.19
767.98	2144.22
768.15	2144.22
768.33	2285.53
768.51	2277.34
768.69	2217.95
768.87	2277.34
769.04	2252.77
769.22	2437.08
769.40	2383.84
769.58	2365.40
769.75	2277.34
769.93	2310.11
770.11	2203.61
770.28	2056.16
770.46	2316.25
770.64	2197.47
770.82	2146.27
770.99	2203.61
771.17	2187.23
771.35	2179.04
771.53	2220.00
771.70	2193.37
771.88	2254.81
772.06	2260.96
772.23	2152.42
772.41	2217.95
772.59	2244.57
772.77	2072.54
772.94	2191.33
773.12	2156.51
773.30	2160.61
773.47	2158.56
773.65	2045.92
773.83	2332.64
774.01	2152.42
774.18	2088.93
774.36	2232.29
774.54	2090.98
774.71	2195.42
774.89	2127.84
775.07	2129.89
775.24	2154.46
775.42	2191.33
775.60	2306.01
775.78	2160.61
775.95	2056.16
776.13	2064.35
776.31	1982.43
776.48	2250.72
776.66	2301.92
776.84	2121.70
777.01	2179.04
777.19	2133.98
777.37	2144.22
777.54	2277.34
777.72	2422.75
777.90	2228.19
778.07	2070.50
778.25	2555.86
778.43	2234.33
778.60	2064.35
778.78	2256.86
778.96	2260.96
779.13	2113.50
779.31	2207.71
779.49	2181.09
779.66	2263.01
779.84	2152.42
780.01	2160.61
780.19	2033.63
780.37	2297.82
780.54	2230.24
780.72	2146.27
780.90	2183.13
781.07	2195.42
781.25	2172.89
781.43	2258.91
781.60	2197.47
781.78	2338.78
781.95	2209.76
782.13	2080.74
782.31	2197.47
782.48	2086.88
782.66	2183.13
782.83	2367.45
783.01	2252.77
783.19	2256.86
783.36	2168.80
783.54	2080.74
783.72	2250.72
783.89	2105.31
784.07	2176.99
784.24	2174.94
784.42	2375.64
784.60	2226.14
784.77	2199.52
784.95	1978.34
785.12	2113.50
785.30	2201.57
785.47	2156.51
785.65	2097.12
785.83	2183.13
786.00	2064.35
786.18	2187.23
786.35	2082.78
786.53	2095.07
786.71	2291.68
786.88	2283.49
787.06	2242.53
787.23	2148.32
787.41	2115.55
787.58	2162.66
787.76	2062.30
787.94	2203.61
788.11	2166.75
788.29	2027.49
788.46	2115.55
788.64	2105.31
788.81	2220.00
788.99	2088.93
789.16	2086.88
789.34	2103.26
789.52	2097.12
789.69	2115.55
789.87	2080.74
790.04	2185.18
790.22	2166.75
790.39	2428.89
790.57	2064.35
790.74	2099.17
790.92	2273.25
791.09	2009.06
791.27	2193.37
791.44	2226.14
791.62	2228.19
791.79	2303.96
791.97	2152.42
792.15	2428.89
792.32	2269.15
792.50	2318.30
792.67	2326.49
792.85	2293.72
793.02	2187.23
793.20	2084.83
793.37	2078.69
793.55	2121.70
793.72	2066.40
793.90	2244.57
794.07	2090.98
794.25	2056.16
794.42	2203.61
794.60	2138.08
794.77	2207.71
794.95	2267.10
795.12	2306.01
795.30	2191.33
795.47	2050.02
795.65	2451.42
795.82	2181.09
796.00	2076.64
796.17	2121.70
796.34	2074.59
796.52	2185.18
796.69	2334.68
796.87	2277.34
797.04	2199.52
797.22	2277.34
797.39	2179.04
797.57	2228.19
797.74	2189.28
797.92	2254.81
798.09	2211.81
798.27	2299.87
798.44	2127.84
798.62	2136.03
798.79	2236.38
798.96	2158.56
799.14	2203.61
799.31	2387.93
799.49	2193.37
799.66	2103.26
799.84	2156.51
800.01	2062.30
800.19	2232.29
800.36	2064.35
800.53	2222.05
800.71	2260.96
800.88	2351.07
801.06	2199.52
801.23	2109.41
801.41	2146.27
801.58	2172.89
801.75	2133.98
801.93	2191.33
802.10	2181.09
802.28	2162.66
802.45	2099.17
802.63	2156.51
802.80	2310.11
802.97	2162.66
803.15	2256.86
803.32	2228.19
803.50	2127.84
803.67	2101.22
803.84	2078.69
804.02	2162.66
804.19	2170.85
804.37	2072.54
804.54	2142.18
804.71	2136.03
804.89	2123.74
805.06	2093.02
805.24	2015.20
805.41	2047.97
805.58	2138.08
805.76	2402.27
805.93	2162.66
806.10	2273.25
806.28	2306.01
806.45	2127.84
806.63	2154.46
806.80	2191.33
806.97	2232.29
807.15	2281.44
807.32	2127.84
807.49	2162.66
807.67	2039.78
807.84	2228.19
808.01	1916.90
808.19	2359.26
808.36	2498.52
808.54	2125.79
808.71	2127.84
808.88	2220.00
809.06	2252.77
809.23	2375.64
809.40	2121.70
809.58	2252.77
809.75	2222.05
809.92	2117.60
810.10	2322.40
810.27	2146.27
810.44	2162.66
810.62	2283.49
810.79	2185.18
810.96	2095.07
811.14	2103.26
811.31	2289.63
811.48	2291.68
811.66	2170.85
811.83	2256.86
812.00	2260.96
812.18	2209.76
812.35	2361.31
812.52	2103.26
812.69	2148.32
812.87	2099.17
813.04	2088.93
813.21	2273.25
813.39	2162.66
813.56	2035.68
813.73	2220.00
813.91	2072.54
814.08	2148.32
814.25	2265.05
814.42	2047.97
814.60	2140.13
814.77	2254.81
814.94	2201.57
815.12	2168.80
815.29	2351.07
815.46	2115.55
815.63	2201.57
815.81	2148.32
815.98	2142.18
816.15	2160.61
816.33	2244.57
816.50	2193.37
816.67	2174.94
816.84	2123.74
817.02	2121.70
817.19	2156.51
817.36	2179.04
817.53	2160.61
817.71	2062.30
817.88	2310.11
818.05	2250.72
818.22	2154.46
818.40	2324.44
818.57	2115.55
818.74	2209.76
818.91	2256.86
819.09	2256.86
819.26	2238.43
819.43	2127.84
819.60	2209.76
819.78	2271.20
819.95	2306.01
820.12	2050.02
820.29	2275.29
820.47	2226.14
820.64	2166.75
820.81	2097.12
820.98	2125.79
821.15	2127.84
821.33	2236.38
821.50	2058.21
821.67	2258.91
821.84	2138.08
822.02	2193.37
822.19	2349.02
822.36	2056.16
822.53	2187.23
822.70	2050.02
822.88	2279.39
823.05	2330.59
823.22	2123.74
823.39	2201.57
823.56	2228.19
823.74	2398.17
823.91	2119.65
824.08	2125.79
824.25	2136.03
824.42	2330.59
824.60	2123.74
824.77	2174.94
824.94	2146.27
825.11	2203.61
825.28	2070.50
825.45	2189.28
825.63	2252.77
825.80	2125.79
825.97	2252.77
826.14	2215.90
826.31	2000.87
826.48	2176.99
826.66	2123.74
826.83	2097.12
827.00	2179.04
827.17	2064.35
827.34	2166.75
827.51	2125.79
827.69	2205.66
827.86	2103.26
828.03	2154.46
828.20	2209.76
828.37	2144.22
828.54	2224.09
828.71	2111.46
828.89	2289.63
829.06	2209.76
829.23	2316.25
829.40	2095.07
829.57	2207.71
829.74	2283.49
829.91	2146.27
830.09	2152.42
830.26	2232.29
830.43	2293.72
830.60	2240.48
830.77	2179.04
830.94	2349.02
831.11	2267.10
831.28	2170.85
831.46	2355.16
831.63	2220.00
831.80	2342.88
831.97	2111.46
832.14	2148.32
832.31	2234.33
832.48	2209.76
832.65	2277.34
832.82	2160.61
832.99	2222.05
833.17	2052.06
833.34	2277.34
833.51	2226.14
833.68	1994.72
833.85	2371.55
834.02	2076.64
834.19	2058.21
834.36	2064.35
834.53	2187.23
834.70	2267.10
834.87	2260.96
835.04	2209.76
835.22	2179.04
835.39	2158.56
835.56	2105.31
835.73	2154.46
835.90	2314.20
836.07	2113.50
836.24	2195.42
836.41	2088.93
836.58	2095.07
836.75	2248.67
836.92	2203.61
837.09	2066.40
837.26	2285.53
837.43	2240.48
837.60	2205.66
837.77	2131.94
837.94	2203.61
838.12	2328.54
838.29	2299.87
838.46	2074.59
838.63	2162.66
838.80	2324.44
838.97	2246.62
839.14	2133.98
839.31	2252.77
839.48	2269.15
839.65	2146.27
839.82	2228.19
839.99	2314.20
840.16	2191.33
840.33	2086.88
840.50	2164.70
840.67	2125.79
840.84	2000.87
841.01	2185.18
841.18	2056.16
841.35	2119.65
841.52	2236.38
841.69	2349.02
841.86	2185.18
842.03	2187.23
842.20	2273.25
842.37	2127.84
842.54	2158.56
842.71	2172.89
842.88	2088.93
843.05	2152.42
843.22	2217.95
843.39	2226.14
843.56	2176.99
843.73	2105.31
843.90	2156.51
844.07	2162.66
844.24	2224.09
844.41	2244.57
844.58	2195.42
844.75	2207.71
844.92	2252.77
845.09	2152.42
845.26	2113.50
845.43	2283.49
845.60	2189.28
845.77	2217.95
845.94	2170.85
846.10	2195.42
846.27	2086.88
846.44	2070.50
846.61	2154.46
846.78	2203.61
846.95	2265.05
847.12	2195.42
847.29	2107.36
847.46	2158.56
847.63	2258.91
847.80	2129.89
847.97	2125.79
848.14	2361.31
848.31	2166.75
848.48	2023.39
848.65	2189.28
848.82	2056.16
848.98	2475.99
849.15	2215.90
849.32	2285.53
849.49	2269.15
849.66	2127.84
849.83	2160.61
850.00	2011.11
850.17	2162.66
850.34	2240.48
850.51	2064.35
850.68	2045.92
850.85	2422.75
851.01	2164.70
851.18	2170.85
851.35	2101.22
851.52	2269.15
851.69	2260.96
851.86	2150.37
852.03	2131.94
852.20	2158.56
852.37	2205.66
852.53	2029.54
852.70	2133.98
852.87	2129.89
853.04	2187.23
853.21	2121.70
853.38	2269.15
853.55	2365.40
853.72	2316.25
853.89	2058.21
854.05	2148.32
854.22	2119.65
854.39	2166.75
854.56	2140.13
854.73	2211.81
854.90	2142.18
855.07	2209.76
855.23	2156.51
855.40	2093.02
855.57	2162.66
855.74	2031.58
855.91	2308.06
856.08	2115.55
856.25	2078.69
856.41	2154.46
856.58	2193.37
856.75	2170.85
856.92	1986.53
857.09	2277.34
857.26	2031.58
857.42	2125.79
857.59	2232.29
857.76	2154.46
857.93	2133.98
858.10	2258.91
858.27	2125.79
858.43	2291.68
858.60	2066.40
858.77	2037.73
858.94	2142.18
859.11	2281.44
859.27	2131.94
859.44	2056.16
859.61	2398.17
859.78	2209.76
859.95	2172.89
860.12	2144.22
860.28	2408.41
860.45	2392.03
860.62	2133.98
860.79	2224.09
860.95	2136.03
861.12	2166.75
861.29	2088.93
861.46	2123.74
861.63	2131.94
861.79	2183.13
861.96	2101.22
862.13	2095.07
862.30	2377.69
862.47	2117.60
862.63	2056.16
862.80	2265.05
862.97	2310.11
863.14	2258.91
863.30	2154.46
863.47	2176.99
863.64	2234.33
863.81	2150.37
863.97	2113.50
864.14	2213.85
864.31	2162.66
864.48	2170.85
864.65	2181.09
864.81	2301.92
864.98	2244.57
865.15	2301.92
865.32	2285.53
865.48	2197.47
865.65	2369.50
865.82	2062.30
865.98	2105.31
866.15	2217.95
866.32	2203.61
866.49	2193.37
866.65	2260.96
866.82	2185.18
866.99	2138.08
867.16	2185.18
867.32	2152.42
867.49	2168.80
867.66	2146.27
867.83	2158.56
867.99	2111.46
868.16	2164.70
868.33	2086.88
868.49	2103.26
868.66	2109.41
868.83	2154.46
868.99	2209.76
869.16	2224.09
869.33	2258.91
869.50	2199.52
869.66	2181.09
869.83	2170.85
870.00	2111.46
870.16	2299.87
870.33	2138.08
870.50	2267.10
870.66	2138.08
870.83	2277.34
871.00	2129.89
871.17	2209.76
871.33	2220.00
871.50	2179.04
871.67	2236.38
871.83	2154.46
872.00	2277.34
872.17	2080.74
872.33	2283.49
872.50	2303.96
872.67	2230.24
872.83	2140.13
873.00	2217.95
873.17	2201.57
873.33	2228.19
873.50	2228.19
873.67	2080.74
873.83	2070.50
874.00	2148.32
874.16	2267.10
874.33	2217.95
874.50	2093.02
874.66	2179.04
874.83	2156.51
875.00	2269.15
875.16	2340.83
875.33	2260.96
875.50	2013.15
875.66	2076.64
875.83	2154.46
875.99	2220.00
876.16	2127.84
876.33	2060.26
876.49	2222.05
876.66	2187.23
876.83	2179.04
876.99	2045.92
877.16	2234.33
877.32	2146.27
877.49	2181.09
877.66	2232.29
877.82	2224.09
877.99	2138.08
878.15	2215.90
878.32	2209.76
878.49	2244.57
878.65	2162.66
878.82	2267.10
878.98	2121.70
879.15	2297.82
879.32	2220.00
879.48	2158.56
879.65	2207.71
879.81	2119.65
879.98	2082.78
880.15	2052.06
880.31	2179.04
880.48	2033.63
880.64	2359.26
880.81	2224.09
880.97	2322.40
881.14	2332.64
881.31	2058.21
881.47	2334.68
881.64	2187.23
881.80	2041.82
881.97	2220.00
882.13	2195.42
882.30	2138.08
882.47	2127.84
882.63	2041.82
882.80	2117.60
882.96	2160.61
883.13	2209.76
883.29	2148.32
883.46	2162.66
883.62	2379.74
883.79	2207.71
883.95	2213.85
884.12	2146.27
884.29	2254.81
884.45	2119.65
884.62	2152.42
884.78	2088.93
884.95	2351.07
885.11	2119.65
885.28	2203.61
885.44	2076.64
885.61	2267.10
885.77	2240.48
885.94	2191.33
886.10	2209.76
886.27	2269.15
886.43	2324.44
886.60	2285.53
886.76	2084.83
886.93	2107.36
887.09	2252.77
887.26	2127.84
887.42	2246.62
887.59	2326.49
887.75	2430.94
887.92	2326.49
888.08	2168.80
888.25	2297.82
888.41	2269.15
888.58	2123.74
888.74	2084.83
888.91	2146.27
>>>>>End Processed Spectral Data<<<<<
