SpectraSuite Data File
++++++++++++++++++++++++++++++++++++
Date: Thu May 05 12:35:00 CEST 2016
User: root
Dark Spectrum Present: No
Reference Spectrum Present: No
Number of Sampled Component Spectra: 1
Spectrometers: USB4C02835
Integration Time (usec): 100000 (USB4C02835)
Spectra Averaged: 1 (USB4C02835)
Boxcar Smoothing: 0 (USB4C02835)
Correct for Electrical Dark: No (USB4C02835)
Strobe/Lamp Enabled: No (USB4C02835)
Correct for Detector Non-linearity: No (USB4C02835)
Correct for Stray Light: No (USB4C02835)
Number of Pixels in Processed Spectrum: 3648
>>>>>Begin Processed Spectral Data<<<<<
177.47	1765.35
177.69	1765.35
177.91	1765.35
178.13	1697.77
178.36	1728.49
178.58	2070.50
178.80	2238.43
179.02	2058.21
179.24	2125.79
179.46	2047.97
179.68	2172.89
179.90	2093.02
180.13	2260.96
180.35	2052.06
180.57	2156.51
180.79	2236.38
181.01	2258.91
181.23	2170.85
181.45	2256.86
181.67	2232.29
181.90	2244.57
182.12	2090.98
182.34	2099.17
182.56	2244.57
182.78	2269.15
183.00	2127.84
183.22	2125.79
183.44	2074.59
183.66	2408.41
183.89	2234.33
184.11	2068.45
184.33	2308.06
184.55	2342.88
184.77	2156.51
184.99	2097.12
185.21	2154.46
185.43	2383.84
185.65	2156.51
185.87	2154.46
186.10	2383.84
186.32	2406.36
186.54	2176.99
186.76	2189.28
186.98	2383.84
187.20	2222.05
187.42	2103.26
187.64	2127.84
187.86	2222.05
188.08	2373.60
188.30	2103.26
188.52	2160.61
188.75	2244.57
188.97	2402.27
189.19	2138.08
189.41	2082.78
189.63	2213.85
189.85	2146.27
190.07	2064.35
190.29	2039.78
190.51	2285.53
190.73	2072.54
190.95	2217.95
191.17	2142.18
191.39	2047.97
191.61	2189.28
191.84	2035.68
192.06	2183.13
192.28	2115.55
192.50	2465.75
192.72	2203.61
192.94	2215.90
193.16	2232.29
193.38	2150.37
193.60	2086.88
193.82	2158.56
194.04	2324.44
194.26	2207.71
194.48	2172.89
194.70	2097.12
194.92	2181.09
195.14	2263.01
195.36	2131.94
195.58	2170.85
195.80	2146.27
196.02	2131.94
196.24	2064.35
196.46	2133.98
196.69	2101.22
196.91	2445.27
197.13	2127.84
197.35	2084.83
197.57	2418.65
197.79	2265.05
198.01	2146.27
198.23	2162.66
198.45	2267.10
198.67	2111.46
198.89	1988.58
199.11	2170.85
199.33	2082.78
199.55	1961.95
199.77	2154.46
199.99	2226.14
200.21	2156.51
200.43	2121.70
200.65	2072.54
200.87	1970.15
201.09	2179.04
201.31	2113.50
201.53	2234.33
201.75	2164.70
201.97	2183.13
202.19	2189.28
202.41	2211.81
202.63	2324.44
202.85	2267.10
203.07	2273.25
203.29	2164.70
203.51	2027.49
203.73	2097.12
203.95	2545.63
204.17	2179.04
204.39	2238.43
204.61	2166.75
204.83	2119.65
205.05	2193.37
205.27	2220.00
205.49	2449.37
205.71	2287.58
205.93	2039.78
206.15	2023.39
206.37	2156.51
206.59	2250.72
206.81	2031.58
207.03	2009.06
207.25	2070.50
207.47	2193.37
207.69	2121.70
207.91	2291.68
208.13	2396.12
208.34	2105.31
208.56	2043.87
208.78	2101.22
209.00	2162.66
209.22	2093.02
209.44	2140.13
209.66	2086.88
209.88	2166.75
210.10	2084.83
210.32	2160.61
210.54	2207.71
210.76	2187.23
210.98	2310.11
211.20	1953.76
211.42	2203.61
211.64	2367.45
211.86	2205.66
212.08	2154.46
212.30	2166.75
212.52	2111.46
212.74	2220.00
212.96	2183.13
213.17	2113.50
213.39	2226.14
213.61	2361.31
213.83	2172.89
214.05	2181.09
214.27	2316.25
214.49	2072.54
214.71	2080.74
214.93	2277.34
215.15	2158.56
215.37	2263.01
215.59	2064.35
215.81	2090.98
216.03	2373.60
216.24	2174.94
216.46	2168.80
216.68	2179.04
216.90	2308.06
217.12	2365.40
217.34	2133.98
217.56	2232.29
217.78	2269.15
218.00	2291.68
218.22	2154.46
218.44	2181.09
218.66	2209.76
218.87	2420.70
219.09	2119.65
219.31	2131.94
219.53	2265.05
219.75	2082.78
219.97	2115.55
220.19	2113.50
220.41	2197.47
220.63	2385.88
220.85	2146.27
221.06	2107.36
221.28	2306.01
221.50	2193.37
221.72	2174.94
221.94	2111.46
222.16	2168.80
222.38	2277.34
222.60	2170.85
222.82	2117.60
223.03	2193.37
223.25	2070.50
223.47	2138.08
223.69	2224.09
223.91	2250.72
224.13	2215.90
224.35	2062.30
224.57	2260.96
224.78	2203.61
225.00	2111.46
225.22	2170.85
225.44	2185.18
225.66	2283.49
225.88	2150.37
226.10	2133.98
226.32	2115.55
226.53	2336.73
226.75	2138.08
226.97	2136.03
227.19	2076.64
227.41	2152.42
227.63	2078.69
227.85	1998.82
228.06	2158.56
228.28	2207.71
228.50	2211.81
228.72	2074.59
228.94	2115.55
229.16	2078.69
229.37	2070.50
229.59	2007.01
229.81	2220.00
230.03	2119.65
230.25	2035.68
230.47	2064.35
230.69	2039.78
230.90	2303.96
231.12	2193.37
231.34	2228.19
231.56	2146.27
231.78	2103.26
232.00	2203.61
232.21	2121.70
232.43	2142.18
232.65	1998.82
232.87	2172.89
233.09	2101.22
233.30	2138.08
233.52	2260.96
233.74	2306.01
233.96	2174.94
234.18	2197.47
234.40	2146.27
234.61	2377.69
234.83	2072.54
235.05	2140.13
235.27	2514.91
235.49	2396.12
235.70	2138.08
235.92	2226.14
236.14	2279.39
236.36	2402.27
236.58	2070.50
236.79	2230.24
237.01	2197.47
237.23	2162.66
237.45	2357.21
237.67	2125.79
237.88	2252.77
238.10	2387.93
238.32	2015.20
238.54	2154.46
238.76	2179.04
238.97	2103.26
239.19	2070.50
239.41	2191.33
239.63	2314.20
239.85	2146.27
240.06	2138.08
240.28	2090.98
240.50	2252.77
240.72	2111.46
240.93	2111.46
241.15	2238.43
241.37	2131.94
241.59	2377.69
241.81	2127.84
242.02	2168.80
242.24	2215.90
242.46	2252.77
242.68	2068.45
242.89	2187.23
243.11	2314.20
243.33	2201.57
243.55	2150.37
243.76	2119.65
243.98	2150.37
244.20	2185.18
244.42	2150.37
244.64	2113.50
244.85	2056.16
245.07	2176.99
245.29	2179.04
245.51	2160.61
245.72	2244.57
245.94	2316.25
246.16	2164.70
246.38	2183.13
246.59	2146.27
246.81	2101.22
247.03	2080.74
247.24	1970.15
247.46	2133.98
247.68	2220.00
247.90	2056.16
248.11	2164.70
248.33	2228.19
248.55	2168.80
248.77	2203.61
248.98	2187.23
249.20	2281.44
249.42	2207.71
249.64	2220.00
249.85	2099.17
250.07	2240.48
250.29	2201.57
250.50	2156.51
250.72	2166.75
250.94	2310.11
251.16	2392.03
251.37	2123.74
251.59	2215.90
251.81	2246.62
252.02	2289.63
252.24	2084.83
252.46	2193.37
252.68	2095.07
252.89	2197.47
253.11	2023.39
253.33	2228.19
253.54	2365.40
253.76	2058.21
253.98	2043.87
254.20	2086.88
254.41	2086.88
254.63	2197.47
254.85	2111.46
255.06	2224.09
255.28	2195.42
255.50	2119.65
255.71	2027.49
255.93	2121.70
256.15	2179.04
256.36	2240.48
256.58	2154.46
256.80	2119.65
257.02	2197.47
257.23	2160.61
257.45	2101.22
257.67	2148.32
257.88	2152.42
258.10	2312.16
258.32	2154.46
258.53	2250.72
258.75	2389.98
258.97	2160.61
259.18	2111.46
259.40	2099.17
259.62	2338.78
259.83	2285.53
260.05	2162.66
260.27	2557.91
260.48	2357.21
260.70	2039.78
260.92	2103.26
261.13	2131.94
261.35	2232.29
261.57	2224.09
261.78	2062.30
262.00	2056.16
262.22	2211.81
262.43	2101.22
262.65	2138.08
262.86	2183.13
263.08	2392.03
263.30	2187.23
263.51	1998.82
263.73	1996.77
263.95	2287.58
264.16	2105.31
264.38	2088.93
264.60	2162.66
264.81	2269.15
265.03	2228.19
265.25	2303.96
265.46	2105.31
265.68	2326.49
265.89	2179.04
266.11	2064.35
266.33	2154.46
266.54	2324.44
266.76	2236.38
266.98	2228.19
267.19	2252.77
267.41	2273.25
267.62	2238.43
267.84	1945.57
268.06	2189.28
268.27	2275.29
268.49	2383.84
268.70	2248.67
268.92	2097.12
269.14	2172.89
269.35	2031.58
269.57	2166.75
269.79	2195.42
270.00	2113.50
270.22	2365.40
270.43	2072.54
270.65	1943.52
270.87	2236.38
271.08	2269.15
271.30	2269.15
271.51	2105.31
271.73	2273.25
271.95	2265.05
272.16	2072.54
272.38	2183.13
272.59	2088.93
272.81	2242.53
273.02	2189.28
273.24	2144.22
273.46	2275.29
273.67	2117.60
273.89	2076.64
274.10	2097.12
274.32	2353.12
274.54	2242.53
274.75	2183.13
274.97	2035.68
275.18	2283.49
275.40	2267.10
275.61	2154.46
275.83	2181.09
276.05	2080.74
276.26	2195.42
276.48	2193.37
276.69	2158.56
276.91	2150.37
277.12	2318.30
277.34	2312.16
277.55	2236.38
277.77	2240.48
277.99	2140.13
278.20	2105.31
278.42	2007.01
278.63	2119.65
278.85	2152.42
279.06	2160.61
279.28	2211.81
279.49	2185.18
279.71	2209.76
279.93	2168.80
280.14	2217.95
280.36	2029.54
280.57	2271.20
280.79	2244.57
281.00	2088.93
281.22	2146.27
281.43	2283.49
281.65	1947.62
281.86	2109.41
282.08	2222.05
282.29	2392.03
282.51	2086.88
282.73	2060.26
282.94	2072.54
283.16	2330.59
283.37	2273.25
283.59	2170.85
283.80	2234.33
284.02	2201.57
284.23	2238.43
284.45	2170.85
284.66	2129.89
284.88	2119.65
285.09	2195.42
285.31	2230.24
285.52	2211.81
285.74	2109.41
285.95	2232.29
286.17	2144.22
286.38	2303.96
286.60	2201.57
286.81	2138.08
287.03	2140.13
287.24	2170.85
287.46	2248.67
287.67	2144.22
287.89	2340.83
288.10	2183.13
288.32	2146.27
288.53	2306.01
288.75	2170.85
288.96	2236.38
289.18	2211.81
289.39	2152.42
289.61	2181.09
289.82	2394.08
290.04	2299.87
290.25	2097.12
290.47	2109.41
290.68	2166.75
290.90	2242.53
291.11	2050.02
291.33	2244.57
291.54	2127.84
291.76	2027.49
291.97	2162.66
292.18	2193.37
292.40	2136.03
292.61	2166.75
292.83	2394.08
293.04	2265.05
293.26	2234.33
293.47	2213.85
293.69	2140.13
293.90	2232.29
294.12	2277.34
294.33	2185.18
294.55	2144.22
294.76	2287.58
294.97	2322.40
295.19	2400.22
295.40	2166.75
295.62	2248.67
295.83	2291.68
296.05	2160.61
296.26	2199.52
296.48	2113.50
296.69	2154.46
296.90	2179.04
297.12	2224.09
297.33	2297.82
297.55	2232.29
297.76	2293.72
297.98	2281.44
298.19	2183.13
298.41	2201.57
298.62	2117.60
298.83	2220.00
299.05	2254.81
299.26	2211.81
299.48	2123.74
299.69	2195.42
299.90	2197.47
300.12	2056.16
300.33	2269.15
300.55	2263.01
300.76	2205.66
300.98	2131.94
301.19	2277.34
301.40	2127.84
301.62	2136.03
301.83	2187.23
302.05	2215.90
302.26	2121.70
302.47	2166.75
302.69	2027.49
302.90	2220.00
303.12	2017.25
303.33	2213.85
303.54	2377.69
303.76	2181.09
303.97	2133.98
304.19	2349.02
304.40	2099.17
304.61	2236.38
304.83	2324.44
305.04	2273.25
305.26	2279.39
305.47	2213.85
305.68	2146.27
305.90	2076.64
306.11	2263.01
306.33	2195.42
306.54	2154.46
306.75	2086.88
306.97	2103.26
307.18	2064.35
307.39	2193.37
307.61	2273.25
307.82	2234.33
308.04	2236.38
308.25	2152.42
308.46	2197.47
308.68	2172.89
308.89	2240.48
309.10	2240.48
309.32	2172.89
309.53	2236.38
309.74	2220.00
309.96	2129.89
310.17	2256.86
310.39	2086.88
310.60	2248.67
310.81	2183.13
311.03	2146.27
311.24	2209.76
311.45	2080.74
311.67	2342.88
311.88	2191.33
312.09	2191.33
312.31	2191.33
312.52	2164.70
312.73	2156.51
312.95	2062.30
313.16	2101.22
313.37	2271.20
313.59	2224.09
313.80	2316.25
314.01	2260.96
314.23	2174.94
314.44	2140.13
314.65	2111.46
314.87	2097.12
315.08	2138.08
315.29	2154.46
315.51	2060.26
315.72	2033.63
315.93	2289.63
316.15	2236.38
316.36	2097.12
316.57	2232.29
316.79	2238.43
317.00	2142.18
317.21	2240.48
317.43	2058.21
317.64	2133.98
317.85	2158.56
318.07	2162.66
318.28	2222.05
318.49	2371.55
318.70	2420.70
318.92	2414.56
319.13	2447.32
319.34	2451.42
319.56	2285.53
319.77	2400.22
319.98	2346.97
320.20	2342.88
320.41	2269.15
320.62	2291.68
320.83	2211.81
321.05	2414.56
321.26	2244.57
321.47	2213.85
321.69	2201.57
321.90	2052.06
322.11	2125.79
322.32	2250.72
322.54	2387.93
322.75	2090.98
322.96	2471.90
323.18	2088.93
323.39	2050.02
323.60	2152.42
323.81	2203.61
324.03	2154.46
324.24	2263.01
324.45	2252.77
324.66	2187.23
324.88	2328.54
325.09	2365.40
325.30	2170.85
325.52	2211.81
325.73	2234.33
325.94	2179.04
326.15	2119.65
326.37	2166.75
326.58	2373.60
326.79	2306.01
327.00	2111.46
327.22	2203.61
327.43	2119.65
327.64	2095.07
327.85	2271.20
328.07	2162.66
328.28	2357.21
328.49	2117.60
328.70	2162.66
328.92	2179.04
329.13	2119.65
329.34	2215.90
329.55	2269.15
329.76	2213.85
329.98	2187.23
330.19	2326.49
330.40	2211.81
330.61	2246.62
330.83	2299.87
331.04	2166.75
331.25	2185.18
331.46	2217.95
331.68	2064.35
331.89	2283.49
332.10	2160.61
332.31	2117.60
332.52	2203.61
332.74	2234.33
332.95	1925.09
333.16	2246.62
333.37	2166.75
333.58	2076.64
333.80	2209.76
334.01	2015.20
334.22	2205.66
334.43	2088.93
334.64	2103.26
334.86	2097.12
335.07	2121.70
335.28	2363.36
335.49	2060.26
335.70	2250.72
335.92	2228.19
336.13	2369.50
336.34	2205.66
336.55	2209.76
336.76	2228.19
336.98	1990.63
337.19	2215.90
337.40	2263.01
337.61	2439.13
337.82	2129.89
338.04	2238.43
338.25	2056.16
338.46	2144.22
338.67	2133.98
338.88	2080.74
339.09	2070.50
339.31	2084.83
339.52	2105.31
339.73	2070.50
339.94	2185.18
340.15	2209.76
340.36	2179.04
340.58	2220.00
340.79	2031.58
341.00	2248.67
341.21	2086.88
341.42	2283.49
341.63	2142.18
341.85	2213.85
342.06	2172.89
342.27	2154.46
342.48	2285.53
342.69	2080.74
342.90	2209.76
343.12	2353.12
343.33	2131.94
343.54	2238.43
343.75	2367.45
343.96	2086.88
344.17	2146.27
344.38	2119.65
344.60	2025.44
344.81	2031.58
345.02	2215.90
345.23	2224.09
345.44	2367.45
345.65	2248.67
345.86	2183.13
346.07	2201.57
346.29	2084.83
346.50	2187.23
346.71	2277.34
346.92	2314.20
347.13	2465.75
347.34	2172.89
347.55	2168.80
347.76	2234.33
347.98	1994.72
348.19	2138.08
348.40	2285.53
348.61	2148.32
348.82	2359.26
349.03	2172.89
349.24	2117.60
349.45	2457.56
349.66	1974.24
349.88	2119.65
350.09	2060.26
350.30	2353.12
350.51	2238.43
350.72	2207.71
350.93	2252.77
351.14	2090.98
351.35	2174.94
351.56	2113.50
351.77	2226.14
351.99	2205.66
352.20	2310.11
352.41	2195.42
352.62	2047.97
352.83	2142.18
353.04	2217.95
353.25	2152.42
353.46	2234.33
353.67	2328.54
353.88	1986.53
354.09	2209.76
354.30	2150.37
354.52	2236.38
354.73	2150.37
354.94	2140.13
355.15	2189.28
355.36	2363.36
355.57	2150.37
355.78	2287.58
355.99	2131.94
356.20	2211.81
356.41	2301.92
356.62	2211.81
356.83	2226.14
357.04	2365.40
357.25	2131.94
357.46	2166.75
357.68	2056.16
357.89	2080.74
358.10	2224.09
358.31	2179.04
358.52	2187.23
358.73	2121.70
358.94	2078.69
359.15	2136.03
359.36	2287.58
359.57	2183.13
359.78	2127.84
359.99	2250.72
360.20	2146.27
360.41	2174.94
360.62	2308.06
360.83	2136.03
361.04	2226.14
361.25	2195.42
361.46	2396.12
361.67	2260.96
361.88	2242.53
362.09	2326.49
362.30	2260.96
362.51	2142.18
362.72	2195.42
362.93	2193.37
363.14	2285.53
363.35	2146.27
363.56	2097.12
363.78	2299.87
363.99	2277.34
364.20	2097.12
364.41	2170.85
364.62	2445.27
364.83	2269.15
365.04	2226.14
365.25	2187.23
365.46	2357.21
365.67	2095.07
365.88	2189.28
366.09	2158.56
366.30	2191.33
366.51	2260.96
366.72	2146.27
366.93	2191.33
367.14	2160.61
367.35	2310.11
367.56	2195.42
367.77	2203.61
367.98	2154.46
368.18	2207.71
368.39	2279.39
368.60	2072.54
368.81	2256.86
369.02	2201.57
369.23	2150.37
369.44	2029.54
369.65	2146.27
369.86	2271.20
370.07	2318.30
370.28	2111.46
370.49	2269.15
370.70	2281.44
370.91	2111.46
371.12	2023.39
371.33	2320.35
371.54	2154.46
371.75	2289.63
371.96	1978.34
372.17	2246.62
372.38	2162.66
372.59	2260.96
372.80	2138.08
373.01	2187.23
373.22	2203.61
373.43	2226.14
373.64	2176.99
373.85	2367.45
374.06	2359.26
374.26	2242.53
374.47	2269.15
374.68	2330.59
374.89	2303.96
375.10	2201.57
375.31	2316.25
375.52	2119.65
375.73	2095.07
375.94	2080.74
376.15	2275.29
376.36	2136.03
376.57	2154.46
376.78	2056.16
376.99	2267.10
377.20	2363.36
377.40	2162.66
377.61	2392.03
377.82	2191.33
378.03	2316.25
378.24	2201.57
378.45	2131.94
378.66	2191.33
378.87	2015.20
379.08	2013.15
379.29	2129.89
379.50	2330.59
379.71	2224.09
379.91	2285.53
380.12	2146.27
380.33	2176.99
380.54	2273.25
380.75	2287.58
380.96	2172.89
381.17	2217.95
381.38	2195.42
381.59	2258.91
381.80	2162.66
382.00	2306.01
382.21	2260.96
382.42	2455.51
382.63	2414.56
382.84	2301.92
383.05	2379.74
383.26	2340.83
383.47	2220.00
383.68	2232.29
383.88	2332.64
384.09	2226.14
384.30	2377.69
384.51	2211.81
384.72	2162.66
384.93	2093.02
385.14	2201.57
385.35	2314.20
385.55	2101.22
385.76	2308.06
385.97	2082.78
386.18	2127.84
386.39	2107.36
386.60	2170.85
386.81	2101.22
387.02	2088.93
387.22	2078.69
387.43	2281.44
387.64	2308.06
387.85	2332.64
388.06	2398.17
388.27	4122.56
388.48	8740.73
388.68	12431.17
388.89	14677.79
389.10	16174.86
389.31	14659.36
389.52	11708.24
389.73	10174.31
389.93	9152.37
390.14	8394.62
390.35	7495.57
390.56	6723.48
390.77	5488.56
390.98	4083.65
391.18	3284.94
391.39	2645.98
391.60	2310.11
391.81	2314.20
392.02	2158.56
392.23	2387.93
392.43	2244.57
392.64	2363.36
392.85	2191.33
393.06	2310.11
393.27	2244.57
393.47	2109.41
393.68	2195.42
393.89	2187.23
394.10	2316.25
394.31	2162.66
394.52	2111.46
394.72	2152.42
394.93	2314.20
395.14	2086.88
395.35	2269.15
395.56	2183.13
395.76	2197.47
395.97	2201.57
396.18	2369.50
396.39	2428.89
396.60	2691.03
396.80	2443.23
397.01	2357.21
397.22	2346.97
397.43	2428.89
397.64	2136.03
397.84	2258.91
398.05	2359.26
398.26	2213.85
398.47	2301.92
398.67	2283.49
398.88	2232.29
399.09	2310.11
399.30	2136.03
399.51	2342.88
399.71	2068.45
399.92	2269.15
400.13	2213.85
400.34	2117.60
400.54	2248.67
400.75	2349.02
400.96	2242.53
401.17	2430.94
401.37	2316.25
401.58	2174.94
401.79	2187.23
402.00	2416.60
402.21	2580.44
402.41	2488.28
402.62	2539.48
402.83	2709.46
403.04	2731.99
403.24	2762.71
403.45	2375.64
403.66	2506.71
403.87	2473.95
404.07	2459.61
404.28	2506.71
404.49	2367.45
404.70	2338.78
404.90	2322.40
405.11	2201.57
405.32	2299.87
405.52	2172.89
405.73	2168.80
405.94	2109.41
406.15	2166.75
406.35	2271.20
406.56	2285.53
406.77	2260.96
406.98	2232.29
407.18	2168.80
407.39	2410.46
407.60	2195.42
407.80	2232.29
408.01	2152.42
408.22	2232.29
408.43	2070.50
408.63	2146.27
408.84	2293.72
409.05	2332.64
409.25	2121.70
409.46	2129.89
409.67	2105.31
409.88	2111.46
410.08	2201.57
410.29	2115.55
410.50	2244.57
410.70	2271.20
410.91	2144.22
411.12	2254.81
411.32	2156.51
411.53	2154.46
411.74	2306.01
411.95	2277.34
412.15	2297.82
412.36	2342.88
412.57	2320.35
412.77	2389.98
412.98	2228.19
413.19	2246.62
413.39	2250.72
413.60	2260.96
413.81	2338.78
414.01	2136.03
414.22	2234.33
414.43	2244.57
414.63	2211.81
414.84	2400.22
415.05	2146.27
415.25	2136.03
415.46	2316.25
415.67	2162.66
415.87	2248.67
416.08	2138.08
416.29	2064.35
416.49	2351.07
416.70	2113.50
416.91	2101.22
417.11	2224.09
417.32	2236.38
417.53	2258.91
417.73	2213.85
417.94	2287.58
418.15	2250.72
418.35	2232.29
418.56	2232.29
418.77	2357.21
418.97	2269.15
419.18	2148.32
419.38	2062.30
419.59	2207.71
419.80	2359.26
420.00	2152.42
420.21	2277.34
420.42	2338.78
420.62	2318.30
420.83	2039.78
421.04	2168.80
421.24	2154.46
421.45	2265.05
421.65	2232.29
421.86	2191.33
422.07	2244.57
422.27	2199.52
422.48	2215.90
422.69	2123.74
422.89	2187.23
423.10	2154.46
423.30	2115.55
423.51	2269.15
423.72	2207.71
423.92	2346.97
424.13	2097.12
424.33	2185.18
424.54	2330.59
424.75	2191.33
424.95	2293.72
425.16	2242.53
425.36	2189.28
425.57	2244.57
425.78	2260.96
425.98	2252.77
426.19	2158.56
426.39	2136.03
426.60	2215.90
426.81	2279.39
427.01	2254.81
427.22	2131.94
427.42	2002.91
427.63	2146.27
427.83	2318.30
428.04	2396.12
428.25	2306.01
428.45	2326.49
428.66	2314.20
428.86	2209.76
429.07	2195.42
429.28	2242.53
429.48	2170.85
429.69	2222.05
429.89	2209.76
430.10	2002.91
430.30	2217.95
430.51	2275.29
430.71	2113.50
430.92	2176.99
431.13	2133.98
431.33	2285.53
431.54	2129.89
431.74	2260.96
431.95	2349.02
432.15	2127.84
432.36	2172.89
432.56	2283.49
432.77	2373.60
432.98	2365.40
433.18	2211.81
433.39	2203.61
433.59	2187.23
433.80	2430.94
434.00	2490.33
434.21	2119.65
434.41	2140.13
434.62	2379.74
434.82	2166.75
435.03	2136.03
435.23	2301.92
435.44	2002.91
435.64	2170.85
435.85	2228.19
436.06	2258.91
436.26	2308.06
436.47	2179.04
436.67	2174.94
436.88	2273.25
437.08	2363.36
437.29	2269.15
437.49	2232.29
437.70	2338.78
437.90	2209.76
438.11	2379.74
438.31	2324.44
438.52	2455.51
438.72	2424.80
438.93	2506.71
439.13	2320.35
439.34	2439.13
439.54	2256.86
439.75	2324.44
439.95	2340.83
440.16	2174.94
440.36	2215.90
440.57	2211.81
440.77	2256.86
440.98	2260.96
441.18	2260.96
441.39	2201.57
441.59	2052.06
441.80	2416.60
442.00	2238.43
442.21	2373.60
442.41	2103.26
442.62	2381.79
442.82	2029.54
443.02	2203.61
443.23	2236.38
443.43	2187.23
443.64	2428.89
443.84	2041.82
444.05	2357.21
444.25	2226.14
444.46	2215.90
444.66	2203.61
444.87	2385.88
445.07	2058.21
445.28	2222.05
445.48	2406.36
445.69	2211.81
445.89	2455.51
446.09	2277.34
446.30	2439.13
446.50	2807.77
446.71	4448.19
446.91	5672.87
447.12	6541.21
447.32	6774.68
447.53	6272.93
447.73	5113.78
447.93	4554.68
448.14	4218.82
448.34	4030.40
448.55	3545.03
448.75	3588.04
448.96	3358.67
449.16	3059.67
449.36	2873.30
449.57	2430.94
449.77	2361.31
449.98	2191.33
450.18	2318.30
450.39	2228.19
450.59	2236.38
450.79	2303.96
451.00	2121.70
451.20	2275.29
451.41	2215.90
451.61	2285.53
451.81	2207.71
452.02	2176.99
452.22	2154.46
452.43	2176.99
452.63	2146.27
452.84	2226.14
453.04	2146.27
453.24	2183.13
453.45	2166.75
453.65	2201.57
453.86	2191.33
454.06	2263.01
454.26	2226.14
454.47	2170.85
454.67	2289.63
454.87	2195.42
455.08	2197.47
455.28	2422.75
455.49	2265.05
455.69	2164.70
455.89	2342.88
456.10	2355.16
456.30	2166.75
456.51	2250.72
456.71	2359.26
456.91	2316.25
457.12	2205.66
457.32	2297.82
457.52	2084.83
457.73	2240.48
457.93	2318.30
458.14	2131.94
458.34	2086.88
458.54	2201.57
458.75	2170.85
458.95	2314.20
459.15	2281.44
459.36	2215.90
459.56	2207.71
459.76	2480.09
459.97	2205.66
460.17	2260.96
460.37	2246.62
460.58	2260.96
460.78	2183.13
460.99	2168.80
461.19	2162.66
461.39	2176.99
461.60	2115.55
461.80	2162.66
462.00	2119.65
462.21	2162.66
462.41	2129.89
462.61	2142.18
462.82	2070.50
463.02	2224.09
463.22	2150.37
463.43	2226.14
463.63	2144.22
463.83	2359.26
464.04	2176.99
464.24	2207.71
464.44	2109.41
464.64	2248.67
464.85	2250.72
465.05	2303.96
465.25	2197.47
465.46	2168.80
465.66	2193.37
465.86	2303.96
466.07	2174.94
466.27	2193.37
466.47	2052.06
466.68	2111.46
466.88	2205.66
467.08	2234.33
467.29	2273.25
467.49	2193.37
467.69	2232.29
467.89	2318.30
468.10	2193.37
468.30	2230.24
468.50	2326.49
468.71	2342.88
468.91	2031.58
469.11	2398.17
469.31	2193.37
469.52	2150.37
469.72	2408.41
469.92	2387.93
470.13	2168.80
470.33	2220.00
470.53	2295.77
470.73	2725.85
470.94	3143.63
471.14	3239.89
471.34	3694.54
471.54	3542.99
471.75	3145.68
471.95	2863.06
472.15	2820.05
472.36	2754.52
472.56	2785.24
472.76	2658.26
472.96	2650.07
473.17	2496.47
473.37	2389.98
473.57	2281.44
473.77	2322.40
473.98	2250.72
474.18	2082.78
474.38	2449.37
474.58	2187.23
474.79	2201.57
474.99	2179.04
475.19	2336.73
475.39	2127.84
475.60	2207.71
475.80	2160.61
476.00	2258.91
476.20	2152.42
476.41	2217.95
476.61	2308.06
476.81	2363.36
477.01	2205.66
477.21	2377.69
477.42	2269.15
477.62	2138.08
477.82	2295.77
478.02	2201.57
478.23	2162.66
478.43	2113.50
478.63	2162.66
478.83	2209.76
479.03	2185.18
479.24	2322.40
479.44	2435.03
479.64	2142.18
479.84	1972.19
480.04	2164.70
480.25	2285.53
480.45	2154.46
480.65	2246.62
480.85	2318.30
481.06	2191.33
481.26	2287.58
481.46	2246.62
481.66	2258.91
481.86	2205.66
482.06	2375.64
482.27	2183.13
482.47	2203.61
482.67	2273.25
482.87	2105.31
483.07	2281.44
483.28	2099.17
483.48	2150.37
483.68	2166.75
483.88	2150.37
484.08	2086.88
484.29	2056.16
484.49	2170.85
484.69	2121.70
484.89	2269.15
485.09	2277.34
485.29	2275.29
485.50	2265.05
485.70	2152.42
485.90	2355.16
486.10	2215.90
486.30	2260.96
486.50	2263.01
486.71	2260.96
486.91	2301.92
487.11	2285.53
487.31	2095.07
487.51	2191.33
487.71	2117.60
487.91	2199.52
488.12	2142.18
488.32	1943.52
488.52	2097.12
488.72	1986.53
488.92	2273.25
489.12	2273.25
489.32	2297.82
489.53	2168.80
489.73	2113.50
489.93	2416.60
490.13	2113.50
490.33	2099.17
490.53	2140.13
490.73	2242.53
490.94	2029.54
491.14	2232.29
491.34	2314.20
491.54	2543.58
491.74	3174.35
491.94	3739.59
492.14	4136.90
492.34	4034.50
492.54	3915.72
492.75	3149.78
492.95	3223.50
493.15	2893.78
493.35	2818.00
493.55	2838.48
493.75	2709.46
493.95	2721.75
494.15	2564.06
494.35	2346.97
494.56	2310.11
494.76	2258.91
494.96	2240.48
495.16	2232.29
495.36	2140.13
495.56	2236.38
495.76	2250.72
495.96	2041.82
496.16	2084.83
496.36	2400.22
496.56	2205.66
496.77	2242.53
496.97	2185.18
497.17	2328.54
497.37	2035.68
497.57	2211.81
497.77	2213.85
497.97	2068.45
498.17	2287.58
498.37	2144.22
498.57	2187.23
498.77	2232.29
498.97	2275.29
499.17	2349.02
499.38	2213.85
499.58	2310.11
499.78	2269.15
499.98	2295.77
500.18	2205.66
500.38	2201.57
500.58	2338.78
500.78	2850.77
500.98	5326.77
501.18	7518.09
501.38	8980.34
501.58	10211.17
501.78	9863.02
501.98	7876.49
502.18	6612.89
502.38	5650.35
502.58	5144.50
502.78	4685.75
502.98	4421.56
503.18	4257.73
503.38	3932.10
503.59	3356.62
503.79	3252.17
503.99	2990.03
504.19	2828.24
504.39	2832.34
504.59	2850.77
504.79	2916.31
504.99	2955.22
505.19	2559.96
505.39	2490.33
505.59	2607.06
505.79	2537.43
505.99	2416.60
506.19	2322.40
506.39	2478.04
506.59	2293.72
506.79	2220.00
506.99	2467.80
507.19	2203.61
507.39	2228.19
507.59	2127.84
507.79	2142.18
507.99	2072.54
508.19	2260.96
508.39	2158.56
508.59	2242.53
508.79	2344.92
508.99	2404.32
509.19	2168.80
509.39	2238.43
509.59	2146.27
509.79	2070.50
509.99	2201.57
510.19	2344.92
510.39	2283.49
510.59	2230.24
510.79	2117.60
510.99	2066.40
511.19	2234.33
511.39	2418.65
511.59	2346.97
511.79	2375.64
511.99	2252.77
512.19	2287.58
512.38	2271.20
512.58	2201.57
512.78	2176.99
512.98	2320.35
513.18	2334.68
513.38	2121.70
513.58	2308.06
513.78	2250.72
513.98	2156.51
514.18	2220.00
514.38	2228.19
514.58	2166.75
514.78	2195.42
514.98	2113.50
515.18	2197.47
515.38	2144.22
515.58	2441.18
515.78	2213.85
515.98	2138.08
516.18	2285.53
516.38	2310.11
516.57	2150.37
516.77	2228.19
516.97	2312.16
517.17	2140.13
517.37	2060.26
517.57	2330.59
517.77	2271.20
517.97	2117.60
518.17	2258.91
518.37	2093.02
518.57	2199.52
518.77	2174.94
518.97	2269.15
519.16	2193.37
519.36	2254.81
519.56	2144.22
519.76	2199.52
519.96	2203.61
520.16	2392.03
520.36	2070.50
520.56	2340.83
520.76	2080.74
520.96	2168.80
521.16	2318.30
521.35	2293.72
521.55	2340.83
521.75	2269.15
521.95	2183.13
522.15	2166.75
522.35	2119.65
522.55	2109.41
522.75	2258.91
522.95	2189.28
523.14	2060.26
523.34	2160.61
523.54	2181.09
523.74	2269.15
523.94	2193.37
524.14	2082.78
524.34	2342.88
524.54	2295.77
524.73	2160.61
524.93	2232.29
525.13	2258.91
525.33	2109.41
525.53	2422.75
525.73	2287.58
525.93	2150.37
526.13	2176.99
526.32	2222.05
526.52	2263.01
526.72	2340.83
526.92	2211.81
527.12	2140.13
527.32	2052.06
527.52	2265.05
527.71	2234.33
527.91	2209.76
528.11	2236.38
528.31	2203.61
528.51	2146.27
528.71	2226.14
528.90	2193.37
529.10	2316.25
529.30	2314.20
529.50	1976.29
529.70	2248.67
529.90	2127.84
530.09	2185.18
530.29	2093.02
530.49	2093.02
530.69	2432.99
530.89	2168.80
531.09	2213.85
531.28	2277.34
531.48	2320.35
531.68	2213.85
531.88	2250.72
532.08	2297.82
532.28	2191.33
532.47	2279.39
532.67	2273.25
532.87	2361.31
533.07	2209.76
533.27	2375.64
533.46	2277.34
533.66	2359.26
533.86	2252.77
534.06	2244.57
534.26	2265.05
534.45	2172.89
534.65	2404.32
534.85	2203.61
535.05	2238.43
535.25	2326.49
535.44	2105.31
535.64	2326.49
535.84	2209.76
536.04	2160.61
536.24	2181.09
536.43	2162.66
536.63	2197.47
536.83	2203.61
537.03	2129.89
537.22	2045.92
537.42	2078.69
537.62	2199.52
537.82	2129.89
538.02	2269.15
538.21	2244.57
538.41	2605.02
538.61	2248.67
538.81	2234.33
539.00	2271.20
539.20	2072.54
539.40	2252.77
539.60	2193.37
539.79	2275.29
539.99	2201.57
540.19	2129.89
540.39	2260.96
540.58	2232.29
540.78	2283.49
540.98	2252.77
541.18	2267.10
541.37	2281.44
541.57	2224.09
541.77	2224.09
541.97	2138.08
542.16	2117.60
542.36	2220.00
542.56	2181.09
542.76	2406.36
542.95	2318.30
543.15	2211.81
543.35	2299.87
543.54	2162.66
543.74	2185.18
543.94	2263.01
544.14	2207.71
544.33	2332.64
544.53	2217.95
544.73	2166.75
544.93	2164.70
545.12	2158.56
545.32	2213.85
545.52	2166.75
545.71	2138.08
545.91	2160.61
546.11	2170.85
546.30	2148.32
546.50	2254.81
546.70	2312.16
546.90	2181.09
547.09	2086.88
547.29	2174.94
547.49	2291.68
547.68	2242.53
547.88	2070.50
548.08	2283.49
548.27	2680.79
548.47	2066.40
548.67	2170.85
548.87	2172.89
549.06	2123.74
549.26	2191.33
549.46	2289.63
549.65	2187.23
549.85	2240.48
550.05	2203.61
550.24	2138.08
550.44	2207.71
550.64	2228.19
550.83	2224.09
551.03	2424.80
551.23	2361.31
551.42	2250.72
551.62	2179.04
551.82	2121.70
552.01	2232.29
552.21	2279.39
552.41	2256.86
552.60	2301.92
552.80	2285.53
553.00	2082.78
553.19	2246.62
553.39	2414.56
553.59	2076.64
553.78	2244.57
553.98	2234.33
554.17	2140.13
554.37	2224.09
554.57	2254.81
554.76	2131.94
554.96	2176.99
555.16	2146.27
555.35	2150.37
555.55	2193.37
555.75	2324.44
555.94	2291.68
556.14	2088.93
556.33	2246.62
556.53	2260.96
556.73	2240.48
556.92	2222.05
557.12	2265.05
557.32	2338.78
557.51	2346.97
557.71	2220.00
557.90	2371.55
558.10	2332.64
558.30	2174.94
558.49	2152.42
558.69	2248.67
558.88	2220.00
559.08	2187.23
559.28	2148.32
559.47	2232.29
559.67	2293.72
559.86	2455.51
560.06	2215.90
560.26	2168.80
560.45	2269.15
560.65	2199.52
560.84	2340.83
561.04	2195.42
561.24	2279.39
561.43	2121.70
561.63	2340.83
561.82	2181.09
562.02	2279.39
562.22	2113.50
562.41	1957.86
562.61	2181.09
562.80	2082.78
563.00	2432.99
563.19	2207.71
563.39	2195.42
563.59	2254.81
563.78	2113.50
563.98	2037.73
564.17	2152.42
564.37	2043.87
564.56	2250.72
564.76	2070.50
564.96	2252.77
565.15	2338.78
565.35	2443.23
565.54	2195.42
565.74	2254.81
565.93	2226.14
566.13	2217.95
566.32	2226.14
566.52	2297.82
566.71	2201.57
566.91	2295.77
567.11	2248.67
567.30	2111.46
567.50	2353.12
567.69	2293.72
567.89	2205.66
568.08	2140.13
568.28	2207.71
568.47	2074.59
568.67	2260.96
568.86	2138.08
569.06	2318.30
569.25	2215.90
569.45	2107.36
569.64	2199.52
569.84	2101.22
570.04	2252.77
570.23	2197.47
570.43	2195.42
570.62	2127.84
570.82	2277.34
571.01	2176.99
571.21	2121.70
571.40	2220.00
571.60	2334.68
571.79	2246.62
571.99	2220.00
572.18	2117.60
572.38	2213.85
572.57	2185.18
572.77	2285.53
572.96	2402.27
573.16	2277.34
573.35	2074.59
573.55	2322.40
573.74	2199.52
573.94	2160.61
574.13	2129.89
574.33	2185.18
574.52	2301.92
574.71	2338.78
574.91	2332.64
575.10	2080.74
575.30	2226.14
575.49	2093.02
575.69	2170.85
575.88	2265.05
576.08	2314.20
576.27	2408.41
576.47	2316.25
576.66	2443.23
576.86	2449.37
577.05	2258.91
577.25	2328.54
577.44	2441.18
577.64	2179.04
577.83	2357.21
578.02	2240.48
578.22	2316.25
578.41	2430.94
578.61	2140.13
578.80	2168.80
579.00	2209.76
579.19	2166.75
579.39	2273.25
579.58	2371.55
579.77	2209.76
579.97	2392.03
580.16	2285.53
580.36	2299.87
580.55	2340.83
580.75	2308.06
580.94	2285.53
581.13	2357.21
581.33	2392.03
581.52	2203.61
581.72	2383.84
581.91	2471.90
582.11	2269.15
582.30	2324.44
582.49	2277.34
582.69	2408.41
582.88	2289.63
583.08	2281.44
583.27	2373.60
583.47	2344.92
583.66	2185.18
583.85	2203.61
584.05	2228.19
584.24	2277.34
584.44	2275.29
584.63	2349.02
584.82	2482.14
585.02	2473.95
585.21	2418.65
585.41	2422.75
585.60	2408.41
585.79	2527.19
585.99	2525.15
586.18	2404.32
586.37	2916.31
586.57	4487.10
586.76	13469.49
586.96	32699.92
587.15	47115.57
587.34	56386.72
587.54	61496.41
587.73	56708.25
587.93	39962.01
588.12	30348.85
588.31	24241.81
588.51	21079.74
588.70	19336.92
588.89	17329.91
589.09	15314.71
589.28	13170.49
589.47	10442.59
589.67	8429.44
589.86	6293.41
590.06	4700.09
590.25	3817.41
590.44	3157.97
590.64	2809.81
590.83	2506.71
591.02	2551.77
591.22	2402.27
591.41	2361.31
591.60	2244.57
591.80	2469.85
591.99	2095.07
592.18	2220.00
592.38	2326.49
592.57	2252.77
592.76	2312.16
592.96	2361.31
593.15	2228.19
593.34	2342.88
593.54	2148.32
593.73	2277.34
593.92	2291.68
594.12	2320.35
594.31	2310.11
594.50	2365.40
594.70	2289.63
594.89	2519.00
595.08	2127.84
595.28	2273.25
595.47	2539.48
595.66	2328.54
595.86	2189.28
596.05	2203.61
596.24	2211.81
596.43	2426.84
596.63	2342.88
596.82	2291.68
597.01	2293.72
597.21	2459.61
597.40	2289.63
597.59	2269.15
597.79	2299.87
597.98	2365.40
598.17	2318.30
598.36	2279.39
598.56	2295.77
598.75	2195.42
598.94	2199.52
599.14	2299.87
599.33	2211.81
599.52	2295.77
599.71	2246.62
599.91	2256.86
600.10	2226.14
600.29	2256.86
600.48	2289.63
600.68	2256.86
600.87	2224.09
601.06	2041.82
601.26	2220.00
601.45	2299.87
601.64	2191.33
601.83	2332.64
602.03	2133.98
602.22	2074.59
602.41	2295.77
602.60	2473.95
602.80	2338.78
602.99	2260.96
603.18	2162.66
603.37	2260.96
603.57	2226.14
603.76	2230.24
603.95	2285.53
604.14	2103.26
604.34	2148.32
604.53	2209.76
604.72	2201.57
604.91	2332.64
605.10	2301.92
605.30	2111.46
605.49	2455.51
605.68	2306.01
605.87	2195.42
606.07	2191.33
606.26	2273.25
606.45	2199.52
606.64	2228.19
606.84	2199.52
607.03	2314.20
607.22	2363.36
607.41	2207.71
607.60	2230.24
607.80	2349.02
607.99	2191.33
608.18	2242.53
608.37	2273.25
608.56	2111.46
608.76	2373.60
608.95	2424.80
609.14	2267.10
609.33	2447.32
609.52	2459.61
609.72	2316.25
609.91	2424.80
610.10	2269.15
610.29	2396.12
610.48	2308.06
610.68	2240.48
610.87	2179.04
611.06	2273.25
611.25	2174.94
611.44	2275.29
611.63	2248.67
611.83	2365.40
612.02	2166.75
612.21	2324.44
612.40	2121.70
612.59	2054.11
612.79	2054.11
612.98	2234.33
613.17	2359.26
613.36	2271.20
613.55	2406.36
613.74	2416.60
613.93	2422.75
614.13	2406.36
614.32	2473.95
614.51	2475.99
614.70	2326.49
614.89	2301.92
615.08	2295.77
615.28	2686.94
615.47	2127.84
615.66	2297.82
615.85	2338.78
616.04	2447.32
616.23	2289.63
616.42	2250.72
616.62	2306.01
616.81	2289.63
617.00	2263.01
617.19	2265.05
617.38	2234.33
617.57	2299.87
617.76	2318.30
617.95	2256.86
618.15	2306.01
618.34	2389.98
618.53	2125.79
618.72	2301.92
618.91	2363.36
619.10	2228.19
619.29	2234.33
619.48	2256.86
619.68	2113.50
619.87	2207.71
620.06	2111.46
620.25	2281.44
620.44	2152.42
620.63	2295.77
620.82	2205.66
621.01	2275.29
621.20	2242.53
621.39	2340.83
621.59	2230.24
621.78	2170.85
621.97	2260.96
622.16	2252.77
622.35	2269.15
622.54	2289.63
622.73	2205.66
622.92	2043.87
623.11	2371.55
623.30	2224.09
623.49	2293.72
623.68	2109.41
623.88	2349.02
624.07	2211.81
624.26	2193.37
624.45	2205.66
624.64	2203.61
624.83	2340.83
625.02	2224.09
625.21	2252.77
625.40	2228.19
625.59	2334.68
625.78	2207.71
625.97	2281.44
626.16	2326.49
626.35	2359.26
626.54	2306.01
626.74	2392.03
626.93	2215.90
627.12	2293.72
627.31	2318.30
627.50	2359.26
627.69	2285.53
627.88	2160.61
628.07	2197.47
628.26	2052.06
628.45	2144.22
628.64	2183.13
628.83	2164.70
629.02	2095.07
629.21	2211.81
629.40	2258.91
629.59	2256.86
629.78	2160.61
629.97	2230.24
630.16	2275.29
630.35	2185.18
630.54	2254.81
630.73	2174.94
630.92	2201.57
631.11	2187.23
631.30	2228.19
631.49	2381.79
631.68	2150.37
631.87	2234.33
632.06	2113.50
632.25	2488.28
632.44	2203.61
632.63	2232.29
632.82	2275.29
633.01	2228.19
633.20	2273.25
633.39	2195.42
633.58	2115.55
633.77	2234.33
633.96	2236.38
634.15	2293.72
634.34	2291.68
634.53	2301.92
634.72	2176.99
634.91	2109.41
635.10	2248.67
635.29	2416.60
635.48	2260.96
635.67	2111.46
635.86	2119.65
636.05	2324.44
636.24	2232.29
636.43	2199.52
636.62	2226.14
636.81	1964.00
637.00	2209.76
637.19	2195.42
637.38	2205.66
637.57	2146.27
637.76	2238.43
637.95	2338.78
638.14	2293.72
638.33	2432.99
638.52	2303.96
638.71	2191.33
638.89	2146.27
639.08	2500.57
639.27	2381.79
639.46	2541.53
639.65	2932.69
639.84	2961.36
640.03	3157.97
640.22	2992.08
640.41	3002.32
640.60	2545.63
640.79	2527.19
640.98	2459.61
641.17	2484.19
641.36	2404.32
641.55	2465.75
641.74	2195.42
641.92	2254.81
642.11	2242.53
642.30	2189.28
642.49	2158.56
642.68	2133.98
642.87	2277.34
643.06	2314.20
643.25	2140.13
643.44	2183.13
643.63	2154.46
643.82	2289.63
644.00	2097.12
644.19	2254.81
644.38	2086.88
644.57	2244.57
644.76	2295.77
644.95	2189.28
645.14	2252.77
645.33	2234.33
645.52	2242.53
645.71	2133.98
645.89	2109.41
646.08	2142.18
646.27	2254.81
646.46	2351.07
646.65	2086.88
646.84	2254.81
647.03	2111.46
647.22	2252.77
647.40	2207.71
647.59	2125.79
647.78	2097.12
647.97	2166.75
648.16	2090.98
648.35	2299.87
648.54	2349.02
648.73	2125.79
648.91	2353.12
649.10	2213.85
649.29	2170.85
649.48	2138.08
649.67	2301.92
649.86	2277.34
650.05	2314.20
650.23	2461.66
650.42	2359.26
650.61	2555.86
650.80	2471.90
650.99	2510.81
651.18	2342.88
651.36	2349.02
651.55	2224.09
651.74	2246.62
651.93	2168.80
652.12	2191.33
652.31	2367.45
652.49	2201.57
652.68	2193.37
652.87	2412.51
653.06	2301.92
653.25	2398.17
653.44	2183.13
653.62	2342.88
653.81	2222.05
654.00	2250.72
654.19	2342.88
654.38	2514.91
654.56	2224.09
654.75	2166.75
654.94	2316.25
655.13	2230.24
655.32	2338.78
655.51	2275.29
655.69	2162.66
655.88	2195.42
656.07	2127.84
656.26	2252.77
656.45	2129.89
656.63	2273.25
656.82	2189.28
657.01	2326.49
657.20	2133.98
657.38	2293.72
657.57	2179.04
657.76	2050.02
657.95	2328.54
658.14	2146.27
658.32	2277.34
658.51	2119.65
658.70	2275.29
658.89	2265.05
659.08	2238.43
659.26	2416.60
659.45	2170.85
659.64	2320.35
659.83	2217.95
660.01	2557.91
660.20	2318.30
660.39	2340.83
660.58	2039.78
660.76	2236.38
660.95	2107.36
661.14	2158.56
661.33	2133.98
661.51	2140.13
661.70	2236.38
661.89	2244.57
662.08	2234.33
662.26	2072.54
662.45	2111.46
662.64	2504.67
662.83	2277.34
663.01	2144.22
663.20	2166.75
663.39	2312.16
663.58	2166.75
663.76	2191.33
663.95	2265.05
664.14	2099.17
664.32	2191.33
664.51	2086.88
664.70	2023.39
664.89	2226.14
665.07	2109.41
665.26	2312.16
665.45	2086.88
665.64	2263.01
665.82	2226.14
666.01	2238.43
666.20	2183.13
666.38	2359.26
666.57	2326.49
666.76	3346.38
666.95	8232.83
667.13	16705.28
667.32	22607.53
667.51	26027.63
667.69	28233.30
667.88	26209.90
668.07	18509.54
668.25	14722.85
668.44	12119.88
668.63	10393.44
668.81	9152.37
669.00	8050.57
669.19	7145.36
669.38	6328.22
669.56	5232.56
669.75	4353.98
669.94	3710.92
670.12	3190.74
670.31	2783.19
670.50	2609.11
670.68	2492.38
670.87	2340.83
671.06	2332.64
671.24	2273.25
671.43	2424.80
671.62	2326.49
671.80	2265.05
671.99	2303.96
672.18	2205.66
672.36	2310.11
672.55	2250.72
672.74	2209.76
672.92	2148.32
673.11	2211.81
673.29	2207.71
673.48	2252.77
673.67	2187.23
673.85	2295.77
674.04	2179.04
674.23	2281.44
674.41	2373.60
674.60	2133.98
674.79	2084.83
674.97	2070.50
675.16	2244.57
675.34	2207.71
675.53	2150.37
675.72	2222.05
675.90	2406.36
676.09	2138.08
676.28	2187.23
676.46	2043.87
676.65	2291.68
676.83	2115.55
677.02	2220.00
677.21	2230.24
677.39	2187.23
677.58	2088.93
677.77	2113.50
677.95	2199.52
678.14	2199.52
678.32	2199.52
678.51	2129.89
678.70	2418.65
678.88	2136.03
679.07	2201.57
679.25	2203.61
679.44	2127.84
679.63	2019.30
679.81	2228.19
680.00	2252.77
680.18	2277.34
680.37	2340.83
680.55	2256.86
680.74	2066.40
680.93	1998.82
681.11	2228.19
681.30	2230.24
681.48	2248.67
681.67	2154.46
681.85	2185.18
682.04	2146.27
682.23	2269.15
682.41	2267.10
682.60	2107.36
682.78	2170.85
682.97	2103.26
683.15	2209.76
683.34	2203.61
683.53	2383.84
683.71	2066.40
683.90	2351.07
684.08	2342.88
684.27	2113.50
684.45	2152.42
684.64	2324.44
684.82	2133.98
685.01	2217.95
685.19	2146.27
685.38	2379.74
685.57	2246.62
685.75	2123.74
685.94	2138.08
686.12	2070.50
686.31	2152.42
686.49	2316.25
686.68	2078.69
686.86	2133.98
687.05	2174.94
687.23	2385.88
687.42	2158.56
687.60	2076.64
687.79	2293.72
687.97	2367.45
688.16	2279.39
688.34	2310.11
688.53	2056.16
688.71	2238.43
688.90	2318.30
689.08	2197.47
689.27	2054.11
689.45	2226.14
689.64	2203.61
689.82	2248.67
690.01	2277.34
690.19	2220.00
690.38	2142.18
690.56	2316.25
690.75	2158.56
690.93	2176.99
691.12	2131.94
691.30	2172.89
691.49	2236.38
691.67	2131.94
691.86	2392.03
692.04	2095.07
692.23	2205.66
692.41	2301.92
692.60	2480.09
692.78	2385.88
692.97	2293.72
693.15	2346.97
693.34	2396.12
693.52	2375.64
693.71	2228.19
693.89	2209.76
694.08	2101.22
694.26	2291.68
694.44	2248.67
694.63	2357.21
694.81	2160.61
695.00	2158.56
695.18	2338.78
695.37	2478.04
695.55	2213.85
695.74	2174.94
695.92	2111.46
696.10	2394.08
696.29	2113.50
696.47	2183.13
696.66	2129.89
696.84	2170.85
697.03	2215.90
697.21	2389.98
697.40	3121.10
697.58	2400.22
697.76	2162.66
697.95	2133.98
698.13	2133.98
698.32	2207.71
698.50	2133.98
698.68	2279.39
698.87	2197.47
699.05	2375.64
699.24	2283.49
699.42	2084.83
699.61	2193.37
699.79	2203.61
699.97	2187.23
700.16	2041.82
700.34	2105.31
700.53	2201.57
700.71	2293.72
700.89	2244.57
701.08	2242.53
701.26	2183.13
701.45	2731.99
701.63	2115.55
701.81	2220.00
702.00	2093.02
702.18	2226.14
702.37	2267.10
702.55	2412.51
702.73	2398.17
702.92	2369.50
703.10	2510.81
703.28	2525.15
703.47	2238.43
703.65	2475.99
703.84	2387.93
704.02	2193.37
704.20	2465.75
704.39	2236.38
704.57	2236.38
704.75	2346.97
704.94	2355.16
705.12	2334.68
705.30	2484.19
705.49	4538.30
705.67	11355.99
705.86	20780.74
706.04	25167.49
706.22	29029.96
706.41	30264.88
706.59	26328.69
706.77	18317.03
706.96	15140.63
707.14	12967.74
707.32	11310.93
707.51	10043.24
707.69	8228.74
707.87	6653.85
708.06	5396.40
708.24	4245.44
708.42	3389.39
708.61	3186.64
708.79	2498.52
708.97	2379.74
709.16	2392.03
709.34	2308.06
709.52	2242.53
709.71	2217.95
709.89	2404.32
710.07	2152.42
710.26	2181.09
710.44	2168.80
710.62	2306.01
710.80	2179.04
710.99	2361.31
711.17	2283.49
711.35	2131.94
711.54	2174.94
711.72	2357.21
711.90	2293.72
712.09	2291.68
712.27	2107.36
712.45	2187.23
712.63	2181.09
712.82	2211.81
713.00	2197.47
713.18	2277.34
713.37	2260.96
713.55	2269.15
713.73	2310.11
713.91	2138.08
714.10	2123.74
714.28	2195.42
714.46	2176.99
714.65	2191.33
714.83	2226.14
715.01	2228.19
715.19	2201.57
715.38	2127.84
715.56	2234.33
715.74	2160.61
715.92	2164.70
716.11	2389.98
716.29	1988.58
716.47	2162.66
716.65	2201.57
716.84	2039.78
717.02	2236.38
717.20	2045.92
717.38	2146.27
717.57	2289.63
717.75	2146.27
717.93	2160.61
718.11	2246.62
718.30	2107.36
718.48	2303.96
718.66	2310.11
718.84	2373.60
719.03	2174.94
719.21	2109.41
719.39	2383.84
719.57	2293.72
719.75	2301.92
719.94	2154.46
720.12	2224.09
720.30	2201.57
720.48	2299.87
720.67	2181.09
720.85	2197.47
721.03	2168.80
721.21	2113.50
721.39	2297.82
721.58	2207.71
721.76	2205.66
721.94	2281.44
722.12	2230.24
722.30	2357.21
722.49	2154.46
722.67	2170.85
722.85	2211.81
723.03	2095.07
723.21	2228.19
723.40	2138.08
723.58	2213.85
723.76	2267.10
723.94	2400.22
724.12	2295.77
724.30	2416.60
724.49	2363.36
724.67	2136.03
724.85	2349.02
725.03	2160.61
725.21	2306.01
725.40	2236.38
725.58	2220.00
725.76	2353.12
725.94	2244.57
726.12	2166.75
726.30	2174.94
726.49	2133.98
726.67	2156.51
726.85	2332.64
727.03	2555.86
727.21	3784.65
727.39	5603.24
727.57	6668.19
727.76	7591.82
727.94	7819.14
728.12	7358.35
728.30	6098.85
728.48	5115.83
728.66	4644.79
728.84	4157.38
729.03	3467.21
729.21	3192.78
729.39	2826.20
729.57	2447.32
729.75	2443.23
729.93	2326.49
730.11	2246.62
730.30	2238.43
730.48	2174.94
730.66	2310.11
730.84	2306.01
731.02	2160.61
731.20	2107.36
731.38	2199.52
731.56	2078.69
731.74	2146.27
731.93	2168.80
732.11	2144.22
732.29	2158.56
732.47	2224.09
732.65	2238.43
732.83	2281.44
733.01	2230.24
733.19	2160.61
733.37	2301.92
733.56	2242.53
733.74	2154.46
733.92	2355.16
734.10	2136.03
734.28	2293.72
734.46	2035.68
734.64	2179.04
734.82	2158.56
735.00	2103.26
735.18	2136.03
735.36	2209.76
735.54	2220.00
735.73	2133.98
735.91	2207.71
736.09	2242.53
736.27	2203.61
736.45	2279.39
736.63	2015.20
736.81	2185.18
736.99	2248.67
737.17	2330.59
737.35	2095.07
737.53	2267.10
737.71	2191.33
737.89	2314.20
738.07	2230.24
738.25	2154.46
738.43	2090.98
738.61	2140.13
738.80	2066.40
738.98	2082.78
739.16	2136.03
739.34	2121.70
739.52	2293.72
739.70	2220.00
739.88	2215.90
740.06	2334.68
740.24	1923.04
740.42	2308.06
740.60	2133.98
740.78	2265.05
740.96	2056.16
741.14	2162.66
741.32	2213.85
741.50	2082.78
741.68	2437.08
741.86	2250.72
742.04	2072.54
742.22	2127.84
742.40	2234.33
742.58	2314.20
742.76	2101.22
742.94	2236.38
743.12	2129.89
743.30	2138.08
743.48	2303.96
743.66	2125.79
743.84	2260.96
744.02	2183.13
744.20	2232.29
744.38	2170.85
744.56	2099.17
744.74	2326.49
744.92	2230.24
745.10	2279.39
745.28	2209.76
745.46	2379.74
745.64	2170.85
745.82	2322.40
746.00	2146.27
746.18	2234.33
746.36	2017.25
746.54	2246.62
746.72	2217.95
746.90	2095.07
747.08	2346.97
747.26	2176.99
747.44	2287.58
747.62	2211.81
747.80	2148.32
747.98	2285.53
748.15	2260.96
748.33	2379.74
748.51	2191.33
748.69	2234.33
748.87	2162.66
749.05	2168.80
749.23	2179.04
749.41	2220.00
749.59	2191.33
749.77	2236.38
749.95	2123.74
750.13	2213.85
750.31	2203.61
750.49	2148.32
750.67	2265.05
750.85	2267.10
751.03	2224.09
751.20	2502.62
751.38	2164.70
751.56	2170.85
751.74	2144.22
751.92	2187.23
752.10	2125.79
752.28	2193.37
752.46	2090.98
752.64	2207.71
752.82	2207.71
753.00	2213.85
753.18	2119.65
753.35	2230.24
753.53	2226.14
753.71	2097.12
753.89	2203.61
754.07	2236.38
754.25	2195.42
754.43	2252.77
754.61	2113.50
754.79	2240.48
754.97	2232.29
755.14	2258.91
755.32	2146.27
755.50	2191.33
755.68	2232.29
755.86	2140.13
756.04	2172.89
756.22	1968.10
756.40	2162.66
756.57	2400.22
756.75	2179.04
756.93	2295.77
757.11	2320.35
757.29	2043.87
757.47	2111.46
757.65	2029.54
757.82	2068.45
758.00	2039.78
758.18	2152.42
758.36	2150.37
758.54	2322.40
758.72	2054.11
758.90	2316.25
759.07	2199.52
759.25	2099.17
759.43	2172.89
759.61	2103.26
759.79	3051.47
759.97	2203.61
760.15	2062.30
760.32	2166.75
760.50	2242.53
760.68	2314.20
760.86	2133.98
761.04	2256.86
761.22	2285.53
761.39	2207.71
761.57	2217.95
761.75	2213.85
761.93	2240.48
762.11	2142.18
762.28	2215.90
762.46	2138.08
762.64	2375.64
762.82	2064.35
763.00	2179.04
763.18	2336.73
763.35	2121.70
763.53	2277.34
763.71	2269.15
763.89	2213.85
764.07	2172.89
764.24	2291.68
764.42	2265.05
764.60	2152.42
764.78	2277.34
764.96	2285.53
765.13	2240.48
765.31	2260.96
765.49	2195.42
765.67	2121.70
765.84	2183.13
766.02	2160.61
766.20	2066.40
766.38	2314.20
766.56	2258.91
766.73	2183.13
766.91	2103.26
767.09	2238.43
767.27	2314.20
767.44	2111.46
767.62	2228.19
767.80	2220.00
767.98	2191.33
768.15	2172.89
768.33	2201.57
768.51	2285.53
768.69	2213.85
768.87	2271.20
769.04	2199.52
769.22	2498.52
769.40	2252.77
769.58	2471.90
769.75	2308.06
769.93	2285.53
770.11	2150.37
770.28	2109.41
770.46	2279.39
770.64	2220.00
770.82	2187.23
770.99	2107.36
771.17	2301.92
771.35	2131.94
771.53	2199.52
771.70	2166.75
771.88	2252.77
772.06	2181.09
772.23	2150.37
772.41	2226.14
772.59	2123.74
772.77	2054.11
772.94	2246.62
773.12	2215.90
773.30	2146.27
773.47	2228.19
773.65	2197.47
773.83	2379.74
774.01	2226.14
774.18	2060.26
774.36	2146.27
774.54	2107.36
774.71	2185.18
774.89	1998.82
775.07	2176.99
775.24	2080.74
775.42	2156.51
775.60	2349.02
775.78	2162.66
775.95	2088.93
776.13	2056.16
776.31	2035.68
776.48	2213.85
776.66	2256.86
776.84	2187.23
777.01	2103.26
777.19	2129.89
777.37	2156.51
777.54	2273.25
777.72	2379.74
777.90	2265.05
778.07	2082.78
778.25	2441.18
778.43	2228.19
778.60	2142.18
778.78	2203.61
778.96	2291.68
779.13	2103.26
779.31	2191.33
779.49	2162.66
779.66	2211.81
779.84	2213.85
780.01	2181.09
780.19	2131.94
780.37	2308.06
780.54	2287.58
780.72	2093.02
780.90	2228.19
781.07	2220.00
781.25	2179.04
781.43	2273.25
781.60	2158.56
781.78	2375.64
781.95	2160.61
782.13	2074.59
782.31	2154.46
782.48	2088.93
782.66	2220.00
782.83	2381.79
783.01	2168.80
783.19	2303.96
783.36	2168.80
783.54	2060.26
783.72	2355.16
783.89	2074.59
784.07	2234.33
784.24	2176.99
784.42	2260.96
784.60	2254.81
784.77	2205.66
784.95	1970.15
785.12	2176.99
785.30	2150.37
785.47	2133.98
785.65	2088.93
785.83	2162.66
786.00	2113.50
786.18	2129.89
786.35	2107.36
786.53	2121.70
786.71	2220.00
786.88	2242.53
787.06	2289.63
787.23	2152.42
787.41	2088.93
787.58	2183.13
787.76	2146.27
787.94	2205.66
788.11	2160.61
788.29	2080.74
788.46	2168.80
788.64	2133.98
788.81	2179.04
788.99	2136.03
789.16	2056.16
789.34	2160.61
789.52	2170.85
789.69	2146.27
789.87	1992.67
790.04	2154.46
790.22	2164.70
790.39	2375.64
790.57	2090.98
790.74	2070.50
790.92	2273.25
791.09	1955.81
791.27	2127.84
791.44	2281.44
791.62	2105.31
791.79	2246.62
791.97	2191.33
792.15	2447.32
792.32	2310.11
792.50	2301.92
792.67	2283.49
792.85	2285.53
793.02	2201.57
793.20	2109.41
793.37	2021.35
793.55	2187.23
793.72	2115.55
793.90	2170.85
794.07	2056.16
794.25	2144.22
794.42	2226.14
794.60	2152.42
794.77	2162.66
794.95	2287.58
795.12	2263.01
795.30	2246.62
795.47	2007.01
795.65	2459.61
795.82	2283.49
796.00	2170.85
796.17	2158.56
796.34	2080.74
796.52	2158.56
796.69	2273.25
796.87	2256.86
797.04	2240.48
797.22	2277.34
797.39	2322.40
797.57	2275.29
797.74	2191.33
797.92	2203.61
798.09	2095.07
798.27	2326.49
798.44	2258.91
798.62	2066.40
798.79	2152.42
798.96	2236.38
799.14	2162.66
799.31	2340.83
799.49	2148.32
799.66	2086.88
799.84	2254.81
800.01	2107.36
800.19	2222.05
800.36	1953.76
800.53	2209.76
800.71	2185.18
800.88	2379.74
801.06	2164.70
801.23	2084.83
801.41	2158.56
801.58	2226.14
801.75	2035.68
801.93	2228.19
802.10	2267.10
802.28	2228.19
802.45	2146.27
802.63	2285.53
802.80	2283.49
802.97	2189.28
803.15	2197.47
803.32	2234.33
803.50	2109.41
803.67	2172.89
803.84	2129.89
804.02	2193.37
804.19	2164.70
804.37	1982.43
804.54	2103.26
804.71	2170.85
804.89	2170.85
805.06	2095.07
805.24	2179.04
805.41	2138.08
805.58	2199.52
805.76	2373.60
805.93	2258.91
806.10	2344.92
806.28	2228.19
806.45	2189.28
806.63	2250.72
806.80	2174.94
806.97	2164.70
807.15	2234.33
807.32	2185.18
807.49	2140.13
807.67	2121.70
807.84	2181.09
808.01	2070.50
808.19	2349.02
808.36	2385.88
808.54	2101.22
808.71	2142.18
808.88	2211.81
809.06	2269.15
809.23	2410.46
809.40	2090.98
809.58	2211.81
809.75	2172.89
809.92	2064.35
810.10	2430.94
810.27	2170.85
810.44	2199.52
810.62	2256.86
810.79	2217.95
810.96	2111.46
811.14	2187.23
811.31	2213.85
811.48	2283.49
811.66	2191.33
811.83	2289.63
812.00	2244.57
812.18	2236.38
812.35	2408.41
812.52	2131.94
812.69	2123.74
812.87	2242.53
813.04	2127.84
813.21	2232.29
813.39	2093.02
813.56	2080.74
813.73	2353.12
813.91	2023.39
814.08	2228.19
814.25	2162.66
814.42	2023.39
814.60	2133.98
814.77	2195.42
814.94	2150.37
815.12	2236.38
815.29	2416.60
815.46	2136.03
815.63	2201.57
815.81	2160.61
815.98	2240.48
816.15	2246.62
816.33	2125.79
816.50	2136.03
816.67	2236.38
816.84	2201.57
817.02	2129.89
817.19	2164.70
817.36	2211.81
817.53	2283.49
817.71	2103.26
817.88	2256.86
818.05	2207.71
818.22	2127.84
818.40	2357.21
818.57	2213.85
818.74	2246.62
818.91	2133.98
819.09	2293.72
819.26	2228.19
819.43	2095.07
819.60	2064.35
819.78	2174.94
819.95	2363.36
820.12	2129.89
820.29	2271.20
820.47	2271.20
820.64	2117.60
820.81	2076.64
820.98	2070.50
821.15	2193.37
821.33	2293.72
821.50	2084.83
821.67	2211.81
821.84	2113.50
822.02	2199.52
822.19	2277.34
822.36	2156.51
822.53	2164.70
822.70	2078.69
822.88	2138.08
823.05	2301.92
823.22	2199.52
823.39	2203.61
823.56	2220.00
823.74	2371.55
823.91	2179.04
824.08	2045.92
824.25	2088.93
824.42	2297.82
824.60	2035.68
824.77	2185.18
824.94	2160.61
825.11	2232.29
825.28	1970.15
825.45	2222.05
825.63	2111.46
825.80	2187.23
825.97	2203.61
826.14	2189.28
826.31	2103.26
826.48	2174.94
826.66	2086.88
826.83	2119.65
827.00	2127.84
827.17	2142.18
827.34	2136.03
827.51	2215.90
827.69	2170.85
827.86	2164.70
828.03	2193.37
828.20	2211.81
828.37	2140.13
828.54	2201.57
828.71	2142.18
828.89	2324.44
829.06	2279.39
829.23	2428.89
829.40	2121.70
829.57	2117.60
829.74	2312.16
829.91	2156.51
830.09	2093.02
830.26	2201.57
830.43	2351.07
830.60	2191.33
830.77	2205.66
830.94	2297.82
831.11	2222.05
831.28	2111.46
831.46	2277.34
831.63	2162.66
831.80	2265.05
831.97	2179.04
832.14	2179.04
832.31	2187.23
832.48	2205.66
832.65	2265.05
832.82	2224.09
832.99	2201.57
833.17	2080.74
833.34	2359.26
833.51	2211.81
833.68	1964.00
833.85	2207.71
834.02	2179.04
834.19	2035.68
834.36	2078.69
834.53	2217.95
834.70	2277.34
834.87	2197.47
835.04	2093.02
835.22	2099.17
835.39	2084.83
835.56	2047.97
835.73	2133.98
835.90	2351.07
836.07	2074.59
836.24	2254.81
836.41	2037.73
836.58	2113.50
836.75	2162.66
836.92	2170.85
837.09	2121.70
837.26	2277.34
837.43	2213.85
837.60	2289.63
837.77	2101.22
837.94	2285.53
838.12	2295.77
838.29	2140.13
838.46	2019.30
838.63	2111.46
838.80	2332.64
838.97	2236.38
839.14	2117.60
839.31	2162.66
839.48	2308.06
839.65	2162.66
839.82	2158.56
839.99	2181.09
840.16	2181.09
840.33	2160.61
840.50	2162.66
840.67	2066.40
840.84	2007.01
841.01	2205.66
841.18	2060.26
841.35	2111.46
841.52	2252.77
841.69	2377.69
841.86	2156.51
842.03	2129.89
842.20	2326.49
842.37	2142.18
842.54	2154.46
842.71	2193.37
842.88	2123.74
843.05	2156.51
843.22	2074.59
843.39	2252.77
843.56	2109.41
843.73	2170.85
843.90	2111.46
844.07	2228.19
844.24	2193.37
844.41	2176.99
844.58	2117.60
844.75	2187.23
844.92	2209.76
845.09	2103.26
845.26	2088.93
845.43	2269.15
845.60	2142.18
845.77	2156.51
845.94	2211.81
846.10	2250.72
846.27	2058.21
846.44	2011.11
846.61	2088.93
846.78	2301.92
846.95	2355.16
847.12	2168.80
847.29	2174.94
847.46	2123.74
847.63	2226.14
847.80	2097.12
847.97	2168.80
848.14	2351.07
848.31	2168.80
848.48	2084.83
848.65	2193.37
848.82	2189.28
848.98	2334.68
849.15	2213.85
849.32	2256.86
849.49	2226.14
849.66	2138.08
849.83	2154.46
850.00	2082.78
850.17	2183.13
850.34	2125.79
850.51	2154.46
850.68	2152.42
850.85	2328.54
851.01	2222.05
851.18	2144.22
851.35	2183.13
851.52	2244.57
851.69	2379.74
851.86	2054.11
852.03	2129.89
852.20	2224.09
852.37	2162.66
852.53	2007.01
852.70	2125.79
852.87	2201.57
853.04	2230.24
853.21	2123.74
853.38	2215.90
853.55	2314.20
853.72	2324.44
853.89	2105.31
854.05	2072.54
854.22	2123.74
854.39	2222.05
854.56	2203.61
854.73	2215.90
854.90	2146.27
855.07	2234.33
855.23	2158.56
855.40	2119.65
855.57	2129.89
855.74	1961.95
855.91	2322.40
856.08	2045.92
856.25	2074.59
856.41	2115.55
856.58	2244.57
856.75	2129.89
856.92	2113.50
857.09	2349.02
857.26	2021.35
857.42	2103.26
857.59	2252.77
857.76	2154.46
857.93	2121.70
858.10	2222.05
858.27	2066.40
858.43	2166.75
858.60	2154.46
858.77	2025.44
858.94	2146.27
859.11	2320.35
859.27	2193.37
859.44	2121.70
859.61	2400.22
859.78	2234.33
859.95	2109.41
860.12	2111.46
860.28	2375.64
860.45	2289.63
860.62	2170.85
860.79	2179.04
860.95	2209.76
861.12	2154.46
861.29	2150.37
861.46	2090.98
861.63	2166.75
861.79	2138.08
861.96	2113.50
862.13	2154.46
862.30	2293.72
862.47	2179.04
862.63	2076.64
862.80	2197.47
862.97	2289.63
863.14	2250.72
863.30	2252.77
863.47	2146.27
863.64	2346.97
863.81	2166.75
863.97	2072.54
864.14	2197.47
864.31	2226.14
864.48	2271.20
864.65	2168.80
864.81	2207.71
864.98	2293.72
865.15	2263.01
865.32	2195.42
865.48	2254.81
865.65	2306.01
865.82	2183.13
865.98	2117.60
866.15	2207.71
866.32	2187.23
866.49	2133.98
866.65	2191.33
866.82	2078.69
866.99	2185.18
867.16	2191.33
867.32	2162.66
867.49	2093.02
867.66	2220.00
867.83	2113.50
867.99	2041.82
868.16	2256.86
868.33	2056.16
868.49	2242.53
868.66	2121.70
868.83	2193.37
868.99	2234.33
869.16	2191.33
869.33	2303.96
869.50	2205.66
869.66	2203.61
869.83	2133.98
870.00	2074.59
870.16	2236.38
870.33	2185.18
870.50	2285.53
870.66	2207.71
870.83	2256.86
871.00	2217.95
871.17	2179.04
871.33	2201.57
871.50	2131.94
871.67	2183.13
871.83	2133.98
872.00	2269.15
872.17	2168.80
872.33	2250.72
872.50	2349.02
872.67	2181.09
872.83	2166.75
873.00	2168.80
873.17	2203.61
873.33	2217.95
873.50	2142.18
873.67	2101.22
873.83	2078.69
874.00	2193.37
874.16	2250.72
874.33	2162.66
874.50	2007.01
874.66	2193.37
874.83	2179.04
875.00	2314.20
875.16	2334.68
875.33	2240.48
875.50	1994.72
875.66	2201.57
875.83	2228.19
875.99	2195.42
876.16	2136.03
876.33	2146.27
876.49	2129.89
876.66	2181.09
876.83	2195.42
876.99	2062.30
877.16	2199.52
877.32	2136.03
877.49	2070.50
877.66	2244.57
877.82	2238.43
877.99	2285.53
878.15	2187.23
878.32	2199.52
878.49	2252.77
878.65	2146.27
878.82	2340.83
878.98	2152.42
879.15	2222.05
879.32	2256.86
879.48	2181.09
879.65	2226.14
879.81	2205.66
879.98	2099.17
880.15	2164.70
880.31	2168.80
880.48	2109.41
880.64	2297.82
880.81	2228.19
880.97	2422.75
881.14	2267.10
881.31	2109.41
881.47	2426.84
881.64	2140.13
881.80	2023.39
881.97	2189.28
882.13	2224.09
882.30	2093.02
882.47	2136.03
882.63	2138.08
882.80	2088.93
882.96	2152.42
883.13	2310.11
883.29	2133.98
883.46	2224.09
883.62	2408.41
883.79	2146.27
883.95	2256.86
884.12	2070.50
884.29	2301.92
884.45	2187.23
884.62	2226.14
884.78	2080.74
884.95	2299.87
885.11	2088.93
885.28	2203.61
885.44	2185.18
885.61	2287.58
885.77	2342.88
885.94	2224.09
886.10	2121.70
886.27	2228.19
886.43	2373.60
886.60	2205.66
886.76	2133.98
886.93	2037.73
887.09	2199.52
887.26	2093.02
887.42	2158.56
887.59	2283.49
887.75	2404.32
887.92	2193.37
888.08	2179.04
888.25	2367.45
888.41	2271.20
888.58	2109.41
888.74	2060.26
888.91	2142.18
>>>>>End Processed Spectral Data<<<<<
