SpectraSuite Data File
++++++++++++++++++++++++++++++++++++
Date: Thu May 05 12:35:01 CEST 2016
User: root
Dark Spectrum Present: No
Reference Spectrum Present: No
Number of Sampled Component Spectra: 1
Spectrometers: USB4C02835
Integration Time (usec): 100000 (USB4C02835)
Spectra Averaged: 1 (USB4C02835)
Boxcar Smoothing: 0 (USB4C02835)
Correct for Electrical Dark: No (USB4C02835)
Strobe/Lamp Enabled: No (USB4C02835)
Correct for Detector Non-linearity: No (USB4C02835)
Correct for Stray Light: No (USB4C02835)
Number of Pixels in Processed Spectrum: 3648
>>>>>Begin Processed Spectral Data<<<<<
177.47	1742.82
177.69	1742.82
177.91	1742.82
178.13	1769.44
178.36	1748.97
178.58	2045.92
178.80	2215.90
179.02	2047.97
179.24	2119.65
179.46	2136.03
179.68	2176.99
179.90	2211.81
180.13	2213.85
180.35	2047.97
180.57	2103.26
180.79	2277.34
181.01	2121.70
181.23	2238.43
181.45	2207.71
181.67	2207.71
181.90	2301.92
182.12	2086.88
182.34	2029.54
182.56	2238.43
182.78	2150.37
183.00	2156.51
183.22	2123.74
183.44	2099.17
183.66	2469.85
183.89	2228.19
184.11	2144.22
184.33	2232.29
184.55	2306.01
184.77	2095.07
184.99	2123.74
185.21	2095.07
185.43	2332.64
185.65	2103.26
185.87	2121.70
186.10	2371.55
186.32	2381.79
186.54	2179.04
186.76	2224.09
186.98	2291.68
187.20	2209.76
187.42	2078.69
187.64	2119.65
187.86	2162.66
188.08	2295.77
188.30	2086.88
188.52	2144.22
188.75	2277.34
188.97	2281.44
189.19	2076.64
189.41	2125.79
189.63	2166.75
189.85	2123.74
190.07	2027.49
190.29	1972.19
190.51	2220.00
190.73	1998.82
190.95	2191.33
191.17	2117.60
191.39	2060.26
191.61	2269.15
191.84	2154.46
192.06	2181.09
192.28	2029.54
192.50	2543.58
192.72	2154.46
192.94	2174.94
193.16	2299.87
193.38	2248.67
193.60	2086.88
193.82	2129.89
194.04	2291.68
194.26	2179.04
194.48	2138.08
194.70	2084.83
194.92	2109.41
195.14	2289.63
195.36	2129.89
195.58	2095.07
195.80	2125.79
196.02	2168.80
196.24	2138.08
196.46	2127.84
196.69	2078.69
196.91	2449.37
197.13	2144.22
197.35	2088.93
197.57	2336.73
197.79	2174.94
198.01	2172.89
198.23	2170.85
198.45	2199.52
198.67	2029.54
198.89	2066.40
199.11	2244.57
199.33	2228.19
199.55	1937.38
199.77	2111.46
199.99	2203.61
200.21	2209.76
200.43	2250.72
200.65	2064.35
200.87	2078.69
201.09	2150.37
201.31	2144.22
201.53	2174.94
201.75	2162.66
201.97	2254.81
202.19	2187.23
202.41	2176.99
202.63	2295.77
202.85	2203.61
203.07	2144.22
203.29	2117.60
203.51	2123.74
203.73	2099.17
203.95	2463.71
204.17	2146.27
204.39	2207.71
204.61	2156.51
204.83	2168.80
205.05	2203.61
205.27	2203.61
205.49	2400.22
205.71	2195.42
205.93	2037.73
206.15	2121.70
206.37	2187.23
206.59	2232.29
206.81	2062.30
207.03	2105.31
207.25	2127.84
207.47	2234.33
207.69	2056.16
207.91	2275.29
208.13	2318.30
208.34	2103.26
208.56	2068.45
208.78	2174.94
209.00	2203.61
209.22	2129.89
209.44	2056.16
209.66	2072.54
209.88	2170.85
210.10	2154.46
210.32	2072.54
210.54	2226.14
210.76	2254.81
210.98	2334.68
211.20	2004.96
211.42	2246.62
211.64	2279.39
211.86	2189.28
212.08	2183.13
212.30	2150.37
212.52	2174.94
212.74	2267.10
212.96	2113.50
213.17	2236.38
213.39	2234.33
213.61	2314.20
213.83	2160.61
214.05	2174.94
214.27	2250.72
214.49	2041.82
214.71	2080.74
214.93	2240.48
215.15	2293.72
215.37	2320.35
215.59	2043.87
215.81	2217.95
216.03	2277.34
216.24	2230.24
216.46	2191.33
216.68	2174.94
216.90	2277.34
217.12	2217.95
217.34	2090.98
217.56	2181.09
217.78	2338.78
218.00	2211.81
218.22	2242.53
218.44	2170.85
218.66	2285.53
218.87	2365.40
219.09	2228.19
219.31	2197.47
219.53	2293.72
219.75	2154.46
219.97	2136.03
220.19	2197.47
220.41	2185.18
220.63	2303.96
220.85	2140.13
221.06	2101.22
221.28	2301.92
221.50	2285.53
221.72	2179.04
221.94	2080.74
222.16	2260.96
222.38	2351.07
222.60	2166.75
222.82	2097.12
223.03	2287.58
223.25	2058.21
223.47	2209.76
223.69	2322.40
223.91	2283.49
224.13	2187.23
224.35	2015.20
224.57	2228.19
224.78	2301.92
225.00	2193.37
225.22	2111.46
225.44	2080.74
225.66	2236.38
225.88	2187.23
226.10	2240.48
226.32	2172.89
226.53	2351.07
226.75	2158.56
226.97	2160.61
227.19	2140.13
227.41	2125.79
227.63	2150.37
227.85	1970.15
228.06	2211.81
228.28	2195.42
228.50	2310.11
228.72	2004.96
228.94	2105.31
229.16	2017.25
229.37	2111.46
229.59	2088.93
229.81	2203.61
230.03	2187.23
230.25	2115.55
230.47	2021.35
230.69	2090.98
230.90	2277.34
231.12	2097.12
231.34	2146.27
231.56	2168.80
231.78	2088.93
232.00	2222.05
232.21	2166.75
232.43	2105.31
232.65	2060.26
232.87	2226.14
233.09	2103.26
233.30	2097.12
233.52	2301.92
233.74	2187.23
233.96	2111.46
234.18	2187.23
234.40	2181.09
234.61	2330.59
234.83	1996.77
235.05	1957.86
235.27	2404.32
235.49	2293.72
235.70	2009.06
235.92	2258.91
236.14	2168.80
236.36	2422.75
236.58	2086.88
236.79	2185.18
237.01	2183.13
237.23	2160.61
237.45	2310.11
237.67	2027.49
237.88	2220.00
238.10	2369.50
238.32	2078.69
238.54	2086.88
238.76	2168.80
238.97	2158.56
239.19	2070.50
239.41	2222.05
239.63	2349.02
239.85	2127.84
240.06	2109.41
240.28	2172.89
240.50	2242.53
240.72	2158.56
240.93	2103.26
241.15	2181.09
241.37	2193.37
241.59	2332.64
241.81	2162.66
242.02	2064.35
242.24	2277.34
242.46	2287.58
242.68	2039.78
242.89	2105.31
243.11	2254.81
243.33	2246.62
243.55	2160.61
243.76	2154.46
243.98	2119.65
244.20	2176.99
244.42	2203.61
244.64	2115.55
244.85	2050.02
245.07	2105.31
245.29	2199.52
245.51	2209.76
245.72	2265.05
245.94	2295.77
246.16	2129.89
246.38	2156.51
246.59	2160.61
246.81	2187.23
247.03	2068.45
247.24	2047.97
247.46	2095.07
247.68	2201.57
247.90	2080.74
248.11	2146.27
248.33	2240.48
248.55	2138.08
248.77	2082.78
248.98	2236.38
249.20	2320.35
249.42	2220.00
249.64	2183.13
249.85	2064.35
250.07	2195.42
250.29	2154.46
250.50	2203.61
250.72	2037.73
250.94	2246.62
251.16	2398.17
251.37	2054.11
251.59	2187.23
251.81	2222.05
252.02	2355.16
252.24	2224.09
252.46	2187.23
252.68	2138.08
252.89	2131.94
253.11	2033.63
253.33	2181.09
253.54	2369.50
253.76	2039.78
253.98	2097.12
254.20	2127.84
254.41	2078.69
254.63	2127.84
254.85	1990.63
255.06	2117.60
255.28	2191.33
255.50	2138.08
255.71	2158.56
255.93	2129.89
256.15	2121.70
256.36	2244.57
256.58	2023.39
256.80	2158.56
257.02	2152.42
257.23	2181.09
257.45	2230.24
257.67	2248.67
257.88	2152.42
258.10	2125.79
258.32	2133.98
258.53	2162.66
258.75	2349.02
258.97	2187.23
259.18	2154.46
259.40	2105.31
259.62	2324.44
259.83	2318.30
260.05	2170.85
260.27	2566.10
260.48	2308.06
260.70	2068.45
260.92	2031.58
261.13	2129.89
261.35	2220.00
261.57	2291.68
261.78	2031.58
262.00	2097.12
262.22	2224.09
262.43	2166.75
262.65	2113.50
262.86	2105.31
263.08	2359.26
263.30	2226.14
263.51	2039.78
263.73	2047.97
263.95	2349.02
264.16	2160.61
264.38	2088.93
264.60	2179.04
264.81	2168.80
265.03	2289.63
265.25	2322.40
265.46	2097.12
265.68	2332.64
265.89	2256.86
266.11	2078.69
266.33	2183.13
266.54	2275.29
266.76	2260.96
266.98	2215.90
267.19	2207.71
267.41	2297.82
267.62	2211.81
267.84	2023.39
268.06	2199.52
268.27	2181.09
268.49	2295.77
268.70	2174.94
268.92	2181.09
269.14	2148.32
269.35	2140.13
269.57	2129.89
269.79	2142.18
270.00	2168.80
270.22	2400.22
270.43	2052.06
270.65	1951.71
270.87	2213.85
271.08	2254.81
271.30	2246.62
271.51	2129.89
271.73	2203.61
271.95	2303.96
272.16	2084.83
272.38	2236.38
272.59	2138.08
272.81	2201.57
273.02	2084.83
273.24	2109.41
273.46	2336.73
273.67	2109.41
273.89	2080.74
274.10	2125.79
274.32	2224.09
274.54	2162.66
274.75	2170.85
274.97	2140.13
275.18	2240.48
275.40	2271.20
275.61	2117.60
275.83	2209.76
276.05	2158.56
276.26	2172.89
276.48	2127.84
276.69	2152.42
276.91	2107.36
277.12	2275.29
277.34	2263.01
277.55	2263.01
277.77	2211.81
277.99	2193.37
278.20	2142.18
278.42	2109.41
278.63	2107.36
278.85	2185.18
279.06	2074.59
279.28	2238.43
279.49	2211.81
279.71	2269.15
279.93	2189.28
280.14	2111.46
280.36	2117.60
280.57	2363.36
280.79	2220.00
281.00	2080.74
281.22	2088.93
281.43	2250.72
281.65	1970.15
281.86	2121.70
282.08	2244.57
282.29	2357.21
282.51	2088.93
282.73	2121.70
282.94	2103.26
283.16	2310.11
283.37	2287.58
283.59	2258.91
283.80	2179.04
284.02	2217.95
284.23	2211.81
284.45	2152.42
284.66	2140.13
284.88	2125.79
285.09	2279.39
285.31	2289.63
285.52	2158.56
285.74	2068.45
285.95	2318.30
286.17	2230.24
286.38	2263.01
286.60	2113.50
286.81	2119.65
287.03	2199.52
287.24	2105.31
287.46	2224.09
287.67	2187.23
287.89	2273.25
288.10	2191.33
288.32	2242.53
288.53	2277.34
288.75	2207.71
288.96	2269.15
289.18	2133.98
289.39	2133.98
289.61	2310.11
289.82	2435.03
290.04	2322.40
290.25	2052.06
290.47	2160.61
290.68	2176.99
290.90	2269.15
291.11	2093.02
291.33	2291.68
291.54	2095.07
291.76	2203.61
291.97	2181.09
292.18	2166.75
292.40	2183.13
292.61	2117.60
292.83	2379.74
293.04	2220.00
293.26	2207.71
293.47	2144.22
293.69	2060.26
293.90	2136.03
294.12	2355.16
294.33	2179.04
294.55	2252.77
294.76	2326.49
294.97	2310.11
295.19	2363.36
295.40	2181.09
295.62	2187.23
295.83	2240.48
296.05	2095.07
296.26	2269.15
296.48	2148.32
296.69	2226.14
296.90	2179.04
297.12	2226.14
297.33	2252.77
297.55	2234.33
297.76	2236.38
297.98	2318.30
298.19	2170.85
298.41	2181.09
298.62	2123.74
298.83	2277.34
299.05	2201.57
299.26	2119.65
299.48	2117.60
299.69	2281.44
299.90	2158.56
300.12	2158.56
300.33	2209.76
300.55	2207.71
300.76	2275.29
300.98	2076.64
301.19	2322.40
301.40	2154.46
301.62	2138.08
301.83	2283.49
302.05	2226.14
302.26	2146.27
302.47	2174.94
302.69	2099.17
302.90	2195.42
303.12	2029.54
303.33	2248.67
303.54	2408.41
303.76	2103.26
303.97	2220.00
304.19	2299.87
304.40	2119.65
304.61	2273.25
304.83	2299.87
305.04	2267.10
305.26	2260.96
305.47	2215.90
305.68	2205.66
305.90	2031.58
306.11	2359.26
306.33	2187.23
306.54	2056.16
306.75	2052.06
306.97	2076.64
307.18	2113.50
307.39	2088.93
307.61	2275.29
307.82	2166.75
308.04	2209.76
308.25	2140.13
308.46	2187.23
308.68	2179.04
308.89	2207.71
309.10	2301.92
309.32	2240.48
309.53	2211.81
309.74	2199.52
309.96	2213.85
310.17	2269.15
310.39	2185.18
310.60	2226.14
310.81	2138.08
311.03	2080.74
311.24	2293.72
311.45	2152.42
311.67	2408.41
311.88	2234.33
312.09	2156.51
312.31	2103.26
312.52	2209.76
312.73	2129.89
312.95	2062.30
313.16	2074.59
313.37	2244.57
313.59	2285.53
313.80	2269.15
314.01	2316.25
314.23	2144.22
314.44	2109.41
314.65	2052.06
314.87	2203.61
315.08	2138.08
315.29	2021.35
315.51	2029.54
315.72	2043.87
315.93	2281.44
316.15	2209.76
316.36	2168.80
316.57	2156.51
316.79	2193.37
317.00	2187.23
317.21	2234.33
317.43	2133.98
317.64	2179.04
317.85	2052.06
318.07	2117.60
318.28	2113.50
318.49	2301.92
318.70	2385.88
318.92	2338.78
319.13	2432.99
319.34	2432.99
319.56	2293.72
319.77	2392.03
319.98	2322.40
320.20	2265.05
320.41	2426.84
320.62	2211.81
320.83	2222.05
321.05	2287.58
321.26	2154.46
321.47	2201.57
321.69	2326.49
321.90	2101.22
322.11	2064.35
322.32	2193.37
322.54	2279.39
322.75	2195.42
322.96	2461.66
323.18	2056.16
323.39	1966.05
323.60	2160.61
323.81	2242.53
324.03	2152.42
324.24	2203.61
324.45	2240.48
324.66	2174.94
324.88	2267.10
325.09	2293.72
325.30	2193.37
325.52	2148.32
325.73	2269.15
325.94	2152.42
326.15	2072.54
326.37	2125.79
326.58	2273.25
326.79	2349.02
327.00	2138.08
327.22	2254.81
327.43	2140.13
327.64	2084.83
327.85	2256.86
328.07	2230.24
328.28	2308.06
328.49	2172.89
328.70	2109.41
328.92	2113.50
329.13	2101.22
329.34	2211.81
329.55	2381.79
329.76	2291.68
329.98	2222.05
330.19	2322.40
330.40	2256.86
330.61	2232.29
330.83	2363.36
331.04	2138.08
331.25	2166.75
331.46	2211.81
331.68	2066.40
331.89	2299.87
332.10	2170.85
332.31	2066.40
332.52	2174.94
332.74	2328.54
332.95	2064.35
333.16	2140.13
333.37	2265.05
333.58	2152.42
333.80	2142.18
334.01	2021.35
334.22	2088.93
334.43	2168.80
334.64	2105.31
334.86	2050.02
335.07	2064.35
335.28	2242.53
335.49	2076.64
335.70	2252.77
335.92	2351.07
336.13	2328.54
336.34	2244.57
336.55	2193.37
336.76	2140.13
336.98	2068.45
337.19	2181.09
337.40	2293.72
337.61	2502.62
337.82	2111.46
338.04	2273.25
338.25	1982.43
338.46	2136.03
338.67	2168.80
338.88	2117.60
339.09	2084.83
339.31	2131.94
339.52	2090.98
339.73	2152.42
339.94	2131.94
340.15	2228.19
340.36	2140.13
340.58	2164.70
340.79	2062.30
341.00	2273.25
341.21	2123.74
341.42	2260.96
341.63	2129.89
341.85	2226.14
342.06	2228.19
342.27	2105.31
342.48	2228.19
342.69	2068.45
342.90	2242.53
343.12	2306.01
343.33	2097.12
343.54	2269.15
343.75	2383.84
343.96	2127.84
344.17	2101.22
344.38	2211.81
344.60	2115.55
344.81	2176.99
345.02	2111.46
345.23	2256.86
345.44	2432.99
345.65	2277.34
345.86	2254.81
346.07	2228.19
346.29	2197.47
346.50	2252.77
346.71	2187.23
346.92	2389.98
347.13	2351.07
347.34	2195.42
347.55	2113.50
347.76	2215.90
347.98	2019.30
348.19	2191.33
348.40	2349.02
348.61	2179.04
348.82	2357.21
349.03	2226.14
349.24	2097.12
349.45	2392.03
349.66	1966.05
349.88	2158.56
350.09	2170.85
350.30	2385.88
350.51	2324.44
350.72	2158.56
350.93	2295.77
351.14	2185.18
351.35	2226.14
351.56	2127.84
351.77	2150.37
351.99	2252.77
352.20	2301.92
352.41	2308.06
352.62	1986.53
352.83	2207.71
353.04	2228.19
353.25	2131.94
353.46	2281.44
353.67	2340.83
353.88	2058.21
354.09	2209.76
354.30	2105.31
354.52	2318.30
354.73	2183.13
354.94	2158.56
355.15	2217.95
355.36	2375.64
355.57	2140.13
355.78	2185.18
355.99	2166.75
356.20	2193.37
356.41	2222.05
356.62	2179.04
356.83	2230.24
357.04	2301.92
357.25	1988.58
357.46	2168.80
357.68	2072.54
357.89	2086.88
358.10	2201.57
358.31	2136.03
358.52	2111.46
358.73	2129.89
358.94	2121.70
359.15	2146.27
359.36	2228.19
359.57	2160.61
359.78	2127.84
359.99	2211.81
360.20	2060.26
360.41	2205.66
360.62	2308.06
360.83	2111.46
361.04	2187.23
361.25	2232.29
361.46	2344.92
361.67	2269.15
361.88	2217.95
362.09	2340.83
362.30	2222.05
362.51	2088.93
362.72	2181.09
362.93	2316.25
363.14	2297.82
363.35	2187.23
363.56	2119.65
363.78	2273.25
363.99	2248.67
364.20	2133.98
364.41	2248.67
364.62	2326.49
364.83	2179.04
365.04	2154.46
365.25	2146.27
365.46	2426.84
365.67	2121.70
365.88	2287.58
366.09	2203.61
366.30	2123.74
366.51	2146.27
366.72	2039.78
366.93	2127.84
367.14	2189.28
367.35	2392.03
367.56	2146.27
367.77	2303.96
367.98	2207.71
368.18	2267.10
368.39	2256.86
368.60	2086.88
368.81	2283.49
369.02	2174.94
369.23	2211.81
369.44	2047.97
369.65	2170.85
369.86	2226.14
370.07	2213.85
370.28	2097.12
370.49	2213.85
370.70	2320.35
370.91	2035.68
371.12	2052.06
371.33	2303.96
371.54	2146.27
371.75	2293.72
371.96	2013.15
372.17	2152.42
372.38	2154.46
372.59	2230.24
372.80	2183.13
373.01	2162.66
373.22	2179.04
373.43	2176.99
373.64	2105.31
373.85	2224.09
374.06	2437.08
374.26	2285.53
374.47	2211.81
374.68	2351.07
374.89	2191.33
375.10	2121.70
375.31	2285.53
375.52	2250.72
375.73	2205.66
375.94	2121.70
376.15	2334.68
376.36	2090.98
376.57	2179.04
376.78	2191.33
376.99	2209.76
377.20	2330.59
377.40	2170.85
377.61	2332.64
377.82	2117.60
378.03	2293.72
378.24	2250.72
378.45	2170.85
378.66	2142.18
378.87	2031.58
379.08	2004.96
379.29	2095.07
379.50	2199.52
379.71	2074.59
379.91	2297.82
380.12	2105.31
380.33	2242.53
380.54	2160.61
380.75	2193.37
380.96	2197.47
381.17	2267.10
381.38	2260.96
381.59	2199.52
381.80	2269.15
382.00	2389.98
382.21	2228.19
382.42	2377.69
382.63	2451.42
382.84	2271.20
383.05	2275.29
383.26	2318.30
383.47	2217.95
383.68	2201.57
383.88	2316.25
384.09	2168.80
384.30	2338.78
384.51	2234.33
384.72	2162.66
384.93	2043.87
385.14	2252.77
385.35	2306.01
385.55	2070.50
385.76	2293.72
385.97	2148.32
386.18	2068.45
386.39	2064.35
386.60	2199.52
386.81	2211.81
387.02	2054.11
387.22	2041.82
387.43	2287.58
387.64	2236.38
387.85	2389.98
388.06	2527.19
388.27	4138.94
388.48	8630.14
388.68	12296.00
388.89	14696.22
389.10	15902.48
389.31	14677.79
389.52	11466.58
389.73	10039.14
389.93	8968.06
390.14	8314.75
390.35	7436.17
390.56	6573.98
390.77	5382.06
390.98	4009.92
391.18	3297.23
391.39	2832.34
391.60	2299.87
391.81	2398.17
392.02	2062.30
392.23	2396.12
392.43	2205.66
392.64	2297.82
392.85	2246.62
393.06	2240.48
393.27	2191.33
393.47	2166.75
393.68	2228.19
393.89	2179.04
394.10	2381.79
394.31	2123.74
394.52	2113.50
394.72	2160.61
394.93	2279.39
395.14	2095.07
395.35	2203.61
395.56	2220.00
395.76	2211.81
395.97	2224.09
396.18	2334.68
396.39	2357.21
396.60	2625.50
396.80	2457.56
397.01	2383.84
397.22	2394.08
397.43	2426.84
397.64	2199.52
397.84	2349.02
398.05	2400.22
398.26	2228.19
398.47	2324.44
398.67	2365.40
398.88	2220.00
399.09	2289.63
399.30	2164.70
399.51	2271.20
399.71	2115.55
399.92	2285.53
400.13	2248.67
400.34	2133.98
400.54	2131.94
400.75	2326.49
400.96	2207.71
401.17	2367.45
401.37	2232.29
401.58	2168.80
401.79	2172.89
402.00	2314.20
402.21	2662.36
402.41	2645.98
402.62	2613.21
402.83	2578.39
403.04	2643.93
403.24	2789.33
403.45	2308.06
403.66	2490.33
403.87	2400.22
404.07	2387.93
404.28	2510.81
404.49	2490.33
404.70	2244.57
404.90	2256.86
405.11	2277.34
405.32	2258.91
405.52	2113.50
405.73	2131.94
405.94	2129.89
406.15	2166.75
406.35	2203.61
406.56	2236.38
406.77	2179.04
406.98	2154.46
407.18	2152.42
407.39	2346.97
407.60	2181.09
407.80	2217.95
408.01	2152.42
408.22	2269.15
408.43	2086.88
408.63	2269.15
408.84	2297.82
409.05	2281.44
409.25	2119.65
409.46	2148.32
409.67	2152.42
409.88	2150.37
410.08	2279.39
410.29	2150.37
410.50	2234.33
410.70	2297.82
410.91	2189.28
411.12	2258.91
411.32	2160.61
411.53	2150.37
411.74	2285.53
411.95	2334.68
412.15	2256.86
412.36	2291.68
412.57	2265.05
412.77	2367.45
412.98	2154.46
413.19	2195.42
413.39	2232.29
413.60	2148.32
413.81	2234.33
414.01	2125.79
414.22	2271.20
414.43	2275.29
414.63	2236.38
414.84	2373.60
415.05	2191.33
415.25	2119.65
415.46	2254.81
415.67	2201.57
415.87	2164.70
416.08	2242.53
416.29	2138.08
416.49	2252.77
416.70	2146.27
416.91	2170.85
417.11	2166.75
417.32	2246.62
417.53	2273.25
417.73	2191.33
417.94	2193.37
418.15	2283.49
418.35	2220.00
418.56	2269.15
418.77	2420.70
418.97	2152.42
419.18	2181.09
419.38	2041.82
419.59	2224.09
419.80	2424.80
420.00	2138.08
420.21	2191.33
420.42	2346.97
420.62	2279.39
420.83	2117.60
421.04	2111.46
421.24	2240.48
421.45	2242.53
421.65	2203.61
421.86	2187.23
422.07	2275.29
422.27	2281.44
422.48	2164.70
422.69	1998.82
422.89	2179.04
423.10	2183.13
423.30	2097.12
423.51	2205.66
423.72	2213.85
423.92	2260.96
424.13	2093.02
424.33	2289.63
424.54	2314.20
424.75	2220.00
424.95	2377.69
425.16	2222.05
425.36	2103.26
425.57	2269.15
425.78	2285.53
425.98	2244.57
426.19	2136.03
426.39	2113.50
426.60	2217.95
426.81	2318.30
427.01	2222.05
427.22	2068.45
427.42	2023.39
427.63	2127.84
427.83	2299.87
428.04	2326.49
428.25	2252.77
428.45	2228.19
428.66	2334.68
428.86	2176.99
429.07	2119.65
429.28	2172.89
429.48	2166.75
429.69	2121.70
429.89	2232.29
430.10	2054.11
430.30	2217.95
430.51	2242.53
430.71	2189.28
430.92	2205.66
431.13	2138.08
431.33	2297.82
431.54	2242.53
431.74	2234.33
431.95	2428.89
432.15	2060.26
432.36	2138.08
432.56	2250.72
432.77	2396.12
432.98	2330.59
433.18	2195.42
433.39	2217.95
433.59	2152.42
433.80	2449.37
434.00	2441.18
434.21	2193.37
434.41	2125.79
434.62	2367.45
434.82	2125.79
435.03	2154.46
435.23	2265.05
435.44	2097.12
435.64	2189.28
435.85	2211.81
436.06	2271.20
436.26	2285.53
436.47	2187.23
436.67	2088.93
436.88	2160.61
437.08	2332.64
437.29	2338.78
437.49	2129.89
437.70	2369.50
437.90	2160.61
438.11	2310.11
438.31	2246.62
438.52	2430.94
438.72	2451.42
438.93	2547.67
439.13	2265.05
439.34	2342.88
439.54	2222.05
439.75	2256.86
439.95	2293.72
440.16	2146.27
440.36	2232.29
440.57	2236.38
440.77	2250.72
440.98	2224.09
441.18	2260.96
441.39	2138.08
441.59	2142.18
441.80	2293.72
442.00	2191.33
442.21	2248.67
442.41	2064.35
442.62	2312.16
442.82	2101.22
443.02	2170.85
443.23	2215.90
443.43	2260.96
443.64	2396.12
443.84	2097.12
444.05	2293.72
444.25	2211.81
444.46	2242.53
444.66	2162.66
444.87	2271.20
445.07	2068.45
445.28	2183.13
445.48	2308.06
445.69	2277.34
445.89	2435.03
446.09	2117.60
446.30	2469.85
446.50	2707.41
446.71	4368.32
446.91	5578.67
447.12	6236.06
447.32	6731.67
447.53	6328.22
447.73	5205.94
447.93	4698.04
448.14	4071.36
448.34	4030.40
448.55	3481.55
448.75	3657.67
448.96	3344.33
449.16	3102.67
449.36	2797.53
449.57	2459.61
449.77	2334.68
449.98	2240.48
450.18	2250.72
450.39	2326.49
450.59	2349.02
450.79	2269.15
451.00	2187.23
451.20	2240.48
451.41	2199.52
451.61	2230.24
451.81	2150.37
452.02	2140.13
452.22	2191.33
452.43	2148.32
452.63	2064.35
452.84	2140.13
453.04	2170.85
453.24	2187.23
453.45	2154.46
453.65	2215.90
453.86	2226.14
454.06	2273.25
454.26	2207.71
454.47	2125.79
454.67	2402.27
454.87	2226.14
455.08	2205.66
455.28	2365.40
455.49	2291.68
455.69	2129.89
455.89	2424.80
456.10	2256.86
456.30	2201.57
456.51	2209.76
456.71	2176.99
456.91	2215.90
457.12	2271.20
457.32	2166.75
457.52	2111.46
457.73	2301.92
457.93	2265.05
458.14	2166.75
458.34	2088.93
458.54	2220.00
458.75	2224.09
458.95	2291.68
459.15	2215.90
459.36	2228.19
459.56	2217.95
459.76	2410.46
459.97	2133.98
460.17	2211.81
460.37	2258.91
460.58	2131.94
460.78	2322.40
460.99	2174.94
461.19	2201.57
461.39	2195.42
461.60	2174.94
461.80	2303.96
462.00	2119.65
462.21	2224.09
462.41	2133.98
462.61	2162.66
462.82	2035.68
463.02	2291.68
463.22	2199.52
463.43	2297.82
463.63	2220.00
463.83	2402.27
464.04	2277.34
464.24	2230.24
464.44	2111.46
464.64	2254.81
464.85	2269.15
465.05	2330.59
465.25	2119.65
465.46	2111.46
465.66	2258.91
465.86	2275.29
466.07	2271.20
466.27	2185.18
466.47	2090.98
466.68	2052.06
466.88	2332.64
467.08	2285.53
467.29	2254.81
467.49	2203.61
467.69	2205.66
467.89	2228.19
468.10	2203.61
468.30	2236.38
468.50	2342.88
468.71	2332.64
468.91	2113.50
469.11	2275.29
469.31	2238.43
469.52	2078.69
469.72	2285.53
469.92	2435.03
470.13	2199.52
470.33	2263.01
470.53	2271.20
470.73	2617.30
470.94	3102.67
471.14	3239.89
471.34	3725.26
471.54	3477.45
471.75	3071.95
471.95	2918.36
472.15	2848.72
472.36	2760.66
472.56	2695.13
472.76	2717.65
472.96	2656.22
473.17	2553.82
473.37	2490.33
473.57	2291.68
473.77	2324.44
473.98	2232.29
474.18	2072.54
474.38	2482.14
474.58	2125.79
474.79	2158.56
474.99	2324.44
475.19	2252.77
475.39	2105.31
475.60	2275.29
475.80	2240.48
476.00	2209.76
476.20	2203.61
476.41	2183.13
476.61	2318.30
476.81	2332.64
477.01	2226.14
477.21	2316.25
477.42	2293.72
477.62	2127.84
477.82	2230.24
478.02	2189.28
478.23	2260.96
478.43	2138.08
478.63	2142.18
478.83	2260.96
479.03	2207.71
479.24	2353.12
479.44	2394.08
479.64	2105.31
479.84	1998.82
480.04	2090.98
480.25	2357.21
480.45	2125.79
480.65	2217.95
480.85	2293.72
481.06	2148.32
481.26	2226.14
481.46	2195.42
481.66	2281.44
481.86	2097.12
482.06	2371.55
482.27	2150.37
482.47	2181.09
482.67	2273.25
482.87	2107.36
483.07	2318.30
483.28	2136.03
483.48	2201.57
483.68	2133.98
483.88	2097.12
484.08	2037.73
484.29	2093.02
484.49	2187.23
484.69	2009.06
484.89	2351.07
485.09	2254.81
485.29	2250.72
485.50	2199.52
485.70	2226.14
485.90	2301.92
486.10	2162.66
486.30	2310.11
486.50	2301.92
486.71	2195.42
486.91	2258.91
487.11	2230.24
487.31	2152.42
487.51	2275.29
487.71	2217.95
487.91	2131.94
488.12	2041.82
488.32	2023.39
488.52	2140.13
488.72	2093.02
488.92	2220.00
489.12	2226.14
489.32	2351.07
489.53	2256.86
489.73	2039.78
489.93	2383.84
490.13	2138.08
490.33	2062.30
490.53	2285.53
490.73	2306.01
490.94	2064.35
491.14	2201.57
491.34	2265.05
491.54	2537.43
491.74	3219.41
491.94	3809.22
492.14	4077.51
492.34	4270.01
492.54	3727.30
492.75	3207.12
492.95	3196.88
493.15	2969.55
493.35	2908.12
493.55	2785.24
493.75	2699.22
493.95	2723.80
494.15	2482.14
494.35	2359.26
494.56	2338.78
494.76	2138.08
494.96	2394.08
495.16	2168.80
495.36	2211.81
495.56	2179.04
495.76	2142.18
495.96	2195.42
496.16	2187.23
496.36	2371.55
496.56	2230.24
496.77	2232.29
496.97	2168.80
497.17	2303.96
497.37	2066.40
497.57	2265.05
497.77	2193.37
497.97	2160.61
498.17	2146.27
498.37	2185.18
498.57	2228.19
498.77	2240.48
498.97	2281.44
499.17	2369.50
499.38	2166.75
499.58	2205.66
499.78	2281.44
499.98	2308.06
500.18	2142.18
500.38	2140.13
500.58	2398.17
500.78	2908.12
500.98	5132.21
501.18	7446.41
501.38	9004.92
501.58	10078.05
501.78	10037.09
501.98	7761.80
502.18	6635.42
502.38	5666.73
502.58	5072.82
502.78	4708.28
502.98	4519.87
503.18	4325.31
503.38	3893.19
503.59	3504.07
503.79	3227.60
503.99	3110.86
504.19	2760.66
504.39	2811.86
504.59	2863.06
504.79	2871.25
504.99	2832.34
505.19	2537.43
505.39	2408.41
505.59	2680.79
505.79	2555.86
505.99	2457.56
506.19	2406.36
506.39	2441.18
506.59	2203.61
506.79	2308.06
506.99	2367.45
507.19	2269.15
507.39	2244.57
507.59	2086.88
507.79	2199.52
507.99	2107.36
508.19	2236.38
508.39	2168.80
508.59	2224.09
508.79	2392.03
508.99	2367.45
509.19	2127.84
509.39	2283.49
509.59	2133.98
509.79	2146.27
509.99	2297.82
510.19	2269.15
510.39	2285.53
510.59	2211.81
510.79	2222.05
510.99	2136.03
511.19	2215.90
511.39	2328.54
511.59	2277.34
511.79	2291.68
511.99	2185.18
512.19	2355.16
512.38	2238.43
512.58	2195.42
512.78	2152.42
512.98	2269.15
513.18	2389.98
513.38	2021.35
513.58	2260.96
513.78	2187.23
513.98	2232.29
514.18	2168.80
514.38	2156.51
514.58	2295.77
514.78	2140.13
514.98	2129.89
515.18	2191.33
515.38	2072.54
515.58	2324.44
515.78	2129.89
515.98	2258.91
516.18	2252.77
516.38	2226.14
516.57	2146.27
516.77	2236.38
516.97	2285.53
517.17	2154.46
517.37	2062.30
517.57	2361.31
517.77	2250.72
517.97	2166.75
518.17	2224.09
518.37	2060.26
518.57	2052.06
518.77	2158.56
518.97	2195.42
519.16	2265.05
519.36	2398.17
519.56	2193.37
519.76	2123.74
519.96	2238.43
520.16	2449.37
520.36	2093.02
520.56	2355.16
520.76	2146.27
520.96	2193.37
521.16	2269.15
521.35	2318.30
521.55	2367.45
521.75	2197.47
521.95	2150.37
522.15	2078.69
522.35	2115.55
522.55	2097.12
522.75	2295.77
522.95	2111.46
523.14	2086.88
523.34	2168.80
523.54	2101.22
523.74	2301.92
523.94	2209.76
524.14	2074.59
524.34	2258.91
524.54	2349.02
524.73	2209.76
524.93	2275.29
525.13	2138.08
525.33	2142.18
525.53	2383.84
525.73	2236.38
525.93	2260.96
526.13	2127.84
526.32	2170.85
526.52	2289.63
526.72	2330.59
526.92	2187.23
527.12	2203.61
527.32	2088.93
527.52	2248.67
527.71	2205.66
527.91	2176.99
528.11	2150.37
528.31	2162.66
528.51	2088.93
528.71	2326.49
528.90	2248.67
529.10	2265.05
529.30	2326.49
529.50	2066.40
529.70	2234.33
529.90	2187.23
530.09	2226.14
530.29	2117.60
530.49	2133.98
530.69	2480.09
530.89	2236.38
531.09	2220.00
531.28	2246.62
531.48	2369.50
531.68	2293.72
531.88	2242.53
532.08	2273.25
532.28	2154.46
532.47	2293.72
532.67	2260.96
532.87	2220.00
533.07	2111.46
533.27	2265.05
533.46	2250.72
533.66	2215.90
533.86	2246.62
534.06	2217.95
534.26	2297.82
534.45	2189.28
534.65	2314.20
534.85	2240.48
535.05	2105.31
535.25	2316.25
535.44	2107.36
535.64	2232.29
535.84	2168.80
536.04	2213.85
536.24	2166.75
536.43	2107.36
536.63	2269.15
536.83	2146.27
537.03	2283.49
537.22	2017.25
537.42	2086.88
537.62	2236.38
537.82	2166.75
538.02	2308.06
538.21	2293.72
538.41	2463.71
538.61	2244.57
538.81	2201.57
539.00	2342.88
539.20	2072.54
539.40	2183.13
539.60	2228.19
539.79	2244.57
539.99	2234.33
540.19	2074.59
540.39	2148.32
540.58	2191.33
540.78	2340.83
540.98	2258.91
541.18	2299.87
541.37	2316.25
541.57	2228.19
541.77	2220.00
541.97	2076.64
542.16	2062.30
542.36	2260.96
542.56	2148.32
542.76	2420.70
542.95	2191.33
543.15	2211.81
543.35	2265.05
543.54	2107.36
543.74	2142.18
543.94	2306.01
544.14	2170.85
544.33	2275.29
544.53	2230.24
544.73	2164.70
544.93	2125.79
545.12	2191.33
545.32	2176.99
545.52	2211.81
545.71	2105.31
545.91	2162.66
546.11	2154.46
546.30	2146.27
546.50	2189.28
546.70	2244.57
546.90	2166.75
547.09	2047.97
547.29	2256.86
547.49	2236.38
547.68	2152.42
547.88	2185.18
548.08	2275.29
548.27	2715.61
548.47	2054.11
548.67	2195.42
548.87	2269.15
549.06	2129.89
549.26	2170.85
549.46	2217.95
549.65	2146.27
549.85	2203.61
550.05	2271.20
550.24	2117.60
550.44	2263.01
550.64	2236.38
550.83	2195.42
551.03	2308.06
551.23	2336.73
551.42	2316.25
551.62	2174.94
551.82	2162.66
552.01	2224.09
552.21	2187.23
552.41	2146.27
552.60	2273.25
552.80	2211.81
553.00	2160.61
553.19	2156.51
553.39	2361.31
553.59	2099.17
553.78	2273.25
553.98	2297.82
554.17	2150.37
554.37	2230.24
554.57	2248.67
554.76	2127.84
554.96	2164.70
555.16	2228.19
555.35	2222.05
555.55	2211.81
555.75	2258.91
555.94	2310.11
556.14	2060.26
556.33	2209.76
556.53	2162.66
556.73	2154.46
556.92	2228.19
557.12	2316.25
557.32	2404.32
557.51	2326.49
557.71	2365.40
557.90	2363.36
558.10	2260.96
558.30	2158.56
558.49	2181.09
558.69	2181.09
558.88	2291.68
559.08	2203.61
559.28	2129.89
559.47	2238.43
559.67	2260.96
559.86	2400.22
560.06	2162.66
560.26	2191.33
560.45	2244.57
560.65	2267.10
560.84	2318.30
561.04	2179.04
561.24	2260.96
561.43	2084.83
561.63	2381.79
561.82	2205.66
562.02	2287.58
562.22	2150.37
562.41	2080.74
562.61	2160.61
562.80	2162.66
563.00	2443.23
563.19	2326.49
563.39	2201.57
563.59	2324.44
563.78	2146.27
563.98	1941.47
564.17	2185.18
564.37	2078.69
564.56	2287.58
564.76	2105.31
564.96	2357.21
565.15	2293.72
565.35	2519.00
565.54	2176.99
565.74	2293.72
565.93	2332.64
566.13	2185.18
566.32	2207.71
566.52	2342.88
566.71	2265.05
566.91	2301.92
567.11	2301.92
567.30	2146.27
567.50	2226.14
567.69	2228.19
567.89	2170.85
568.08	2115.55
568.28	2310.11
568.47	2080.74
568.67	2248.67
568.86	2179.04
569.06	2338.78
569.25	2146.27
569.45	2093.02
569.64	2150.37
569.84	2213.85
570.04	2254.81
570.23	2154.46
570.43	2215.90
570.62	2244.57
570.82	2342.88
571.01	2052.06
571.21	2183.13
571.40	2121.70
571.60	2342.88
571.79	2207.71
571.99	2203.61
572.18	2095.07
572.38	2252.77
572.57	2207.71
572.77	2275.29
572.96	2418.65
573.16	2301.92
573.35	2097.12
573.55	2371.55
573.74	2232.29
573.94	2238.43
574.13	2183.13
574.33	2312.16
574.52	2387.93
574.71	2211.81
574.91	2244.57
575.10	2133.98
575.30	2252.77
575.49	2154.46
575.69	2168.80
575.88	2238.43
576.08	2258.91
576.27	2367.45
576.47	2254.81
576.66	2432.99
576.86	2441.18
577.05	2269.15
577.25	2289.63
577.44	2445.27
577.64	2195.42
577.83	2197.47
578.02	2318.30
578.22	2330.59
578.41	2400.22
578.61	2160.61
578.80	2052.06
579.00	2330.59
579.19	2230.24
579.39	2246.62
579.58	2361.31
579.77	2258.91
579.97	2342.88
580.16	2359.26
580.36	2346.97
580.55	2289.63
580.75	2273.25
580.94	2217.95
581.13	2346.97
581.33	2398.17
581.52	2140.13
581.72	2439.13
581.91	2392.03
582.11	2201.57
582.30	2351.07
582.49	2269.15
582.69	2330.59
582.88	2230.24
583.08	2209.76
583.27	2349.02
583.47	2277.34
583.66	2220.00
583.85	2181.09
584.05	2209.76
584.24	2375.64
584.44	2236.38
584.63	2326.49
584.82	2504.67
585.02	2428.89
585.21	2408.41
585.41	2408.41
585.60	2308.06
585.79	2527.19
585.99	2426.84
586.18	2324.44
586.37	2879.44
586.57	4423.61
586.76	13326.13
586.96	32278.04
587.15	46382.40
587.34	56046.76
587.54	61207.64
587.73	56118.44
587.93	39456.17
588.12	30207.54
588.31	24047.25
588.51	20975.30
588.70	19236.57
588.89	17618.68
589.09	15327.00
589.28	12906.30
589.47	10555.23
589.67	8214.40
589.86	6487.96
590.06	4759.48
590.25	3915.72
590.44	3133.39
590.64	2785.24
590.83	2596.82
591.02	2422.75
591.22	2369.50
591.41	2361.31
591.60	2342.88
591.80	2453.47
591.99	2172.89
592.18	2330.59
592.38	2314.20
592.57	2230.24
592.76	2322.40
592.96	2250.72
593.15	2203.61
593.34	2310.11
593.54	2201.57
593.73	2310.11
593.92	2373.60
594.12	2310.11
594.31	2291.68
594.50	2373.60
594.70	2242.53
594.89	2549.72
595.08	2160.61
595.28	2314.20
595.47	2629.59
595.66	2301.92
595.86	2144.22
596.05	2244.57
596.24	2220.00
596.43	2344.92
596.63	2371.55
596.82	2301.92
597.01	2297.82
597.21	2437.08
597.40	2308.06
597.59	2283.49
597.79	2256.86
597.98	2369.50
598.17	2285.53
598.36	2275.29
598.56	2324.44
598.75	2224.09
598.94	2250.72
599.14	2226.14
599.33	2146.27
599.52	2306.01
599.71	2193.37
599.91	2316.25
600.10	2301.92
600.29	2187.23
600.48	2306.01
600.68	2281.44
600.87	2351.07
601.06	2123.74
601.26	2275.29
601.45	2265.05
601.64	2242.53
601.83	2379.74
602.03	2088.93
602.22	2125.79
602.41	2428.89
602.60	2379.74
602.80	2269.15
602.99	2256.86
603.18	2154.46
603.37	2224.09
603.57	2285.53
603.76	2277.34
603.95	2316.25
604.14	2260.96
604.34	2125.79
604.53	2174.94
604.72	2211.81
604.91	2346.97
605.10	2297.82
605.30	2052.06
605.49	2379.74
605.68	2283.49
605.87	2160.61
606.07	2072.54
606.26	2236.38
606.45	2289.63
606.64	2263.01
606.84	2142.18
607.03	2238.43
607.22	2414.56
607.41	2289.63
607.60	2179.04
607.80	2312.16
607.99	2215.90
608.18	2248.67
608.37	2179.04
608.56	2193.37
608.76	2310.11
608.95	2387.93
609.14	2318.30
609.33	2346.97
609.52	2449.37
609.72	2342.88
609.91	2437.08
610.10	2265.05
610.29	2383.84
610.48	2332.64
610.68	2326.49
610.87	2203.61
611.06	2340.83
611.25	2176.99
611.44	2367.45
611.63	2260.96
611.83	2252.77
612.02	2138.08
612.21	2230.24
612.40	2072.54
612.59	2111.46
612.79	2054.11
612.98	2217.95
613.17	2297.82
613.36	2246.62
613.55	2437.08
613.74	2314.20
613.93	2394.08
614.13	2484.19
614.32	2500.57
614.51	2484.19
614.70	2363.36
614.89	2260.96
615.08	2375.64
615.28	2709.46
615.47	2228.19
615.66	2269.15
615.85	2248.67
616.04	2342.88
616.23	2273.25
616.42	2279.39
616.62	2267.10
616.81	2207.71
617.00	2166.75
617.19	2252.77
617.38	2248.67
617.57	2170.85
617.76	2281.44
617.95	2324.44
618.15	2332.64
618.34	2322.40
618.53	2138.08
618.72	2365.40
618.91	2365.40
619.10	2340.83
619.29	2189.28
619.48	2160.61
619.68	2103.26
619.87	2125.79
620.06	2144.22
620.25	2277.34
620.44	2193.37
620.63	2115.55
620.82	2154.46
621.01	2277.34
621.20	2220.00
621.39	2256.86
621.59	2228.19
621.78	2273.25
621.97	2193.37
622.16	2197.47
622.35	2308.06
622.54	2318.30
622.73	2277.34
622.92	2033.63
623.11	2338.78
623.30	2203.61
623.49	2258.91
623.68	2168.80
623.88	2334.68
624.07	2224.09
624.26	2209.76
624.45	2187.23
624.64	2201.57
624.83	2131.94
625.02	2195.42
625.21	2183.13
625.40	2179.04
625.59	2283.49
625.78	2197.47
625.97	2297.82
626.16	2334.68
626.35	2392.03
626.54	2250.72
626.74	2432.99
626.93	2195.42
627.12	2232.29
627.31	2314.20
627.50	2287.58
627.69	2306.01
627.88	2172.89
628.07	2123.74
628.26	2099.17
628.45	2140.13
628.64	2170.85
628.83	2205.66
629.02	2076.64
629.21	2263.01
629.40	2267.10
629.59	2166.75
629.78	2164.70
629.97	2195.42
630.16	2228.19
630.35	2160.61
630.54	2234.33
630.73	2150.37
630.92	2232.29
631.11	2187.23
631.30	2314.20
631.49	2203.61
631.68	2265.05
631.87	2254.81
632.06	2111.46
632.25	2459.61
632.44	2189.28
632.63	2363.36
632.82	2250.72
633.01	2269.15
633.20	2283.49
633.39	2328.54
633.58	2150.37
633.77	2267.10
633.96	2359.26
634.15	2285.53
634.34	2244.57
634.53	2220.00
634.72	2275.29
634.91	2093.02
635.10	2242.53
635.29	2248.67
635.48	2166.75
635.67	2123.74
635.86	2031.58
636.05	2353.12
636.24	2174.94
636.43	2226.14
636.62	2217.95
636.81	1998.82
637.00	2164.70
637.19	2258.91
637.38	2201.57
637.57	2179.04
637.76	2306.01
637.95	2332.64
638.14	2248.67
638.33	2260.96
638.52	2349.02
638.71	2129.89
638.89	2154.46
639.08	2555.86
639.27	2385.88
639.46	2490.33
639.65	2854.87
639.84	3055.57
640.03	3205.07
640.22	2924.50
640.41	3026.90
640.60	2547.67
640.79	2615.26
640.98	2465.75
641.17	2469.85
641.36	2451.42
641.55	2445.27
641.74	2256.86
641.92	2248.67
642.11	2228.19
642.30	2226.14
642.49	2121.70
642.68	2220.00
642.87	2242.53
643.06	2287.58
643.25	2101.22
643.44	2115.55
643.63	2252.77
643.82	2244.57
644.00	2029.54
644.19	2258.91
644.38	2144.22
644.57	2203.61
644.76	2224.09
644.95	2162.66
645.14	2205.66
645.33	2158.56
645.52	2207.71
645.71	2109.41
645.89	2121.70
646.08	2187.23
646.27	2152.42
646.46	2377.69
646.65	2047.97
646.84	2154.46
647.03	2162.66
647.22	2254.81
647.40	2142.18
647.59	2113.50
647.78	2150.37
647.97	2185.18
648.16	2133.98
648.35	2396.12
648.54	2340.83
648.73	2093.02
648.91	2369.50
649.10	2215.90
649.29	2158.56
649.48	2203.61
649.67	2301.92
649.86	2189.28
650.05	2246.62
650.23	2547.67
650.42	2293.72
650.61	2490.33
650.80	2437.08
650.99	2547.67
651.18	2387.93
651.36	2285.53
651.55	2228.19
651.74	2330.59
651.93	2144.22
652.12	2322.40
652.31	2197.47
652.49	2291.68
652.68	2250.72
652.87	2373.60
653.06	2297.82
653.25	2422.75
653.44	2297.82
653.62	2359.26
653.81	2127.84
654.00	2193.37
654.19	2289.63
654.38	2502.62
654.56	2287.58
654.75	2234.33
654.94	2299.87
655.13	2187.23
655.32	2217.95
655.51	2273.25
655.69	2093.02
655.88	2242.53
656.07	2101.22
656.26	2222.05
656.45	2097.12
656.63	2269.15
656.82	2295.77
657.01	2217.95
657.20	2148.32
657.38	2367.45
657.57	2113.50
657.76	2037.73
657.95	2256.86
658.14	2170.85
658.32	2240.48
658.51	2072.54
658.70	2113.50
658.89	2220.00
659.08	2236.38
659.26	2400.22
659.45	2148.32
659.64	2387.93
659.83	2189.28
660.01	2596.82
660.20	2234.33
660.39	2400.22
660.58	2050.02
660.76	2271.20
660.95	2019.30
661.14	2121.70
661.33	2097.12
661.51	2174.94
661.70	2123.74
661.89	2293.72
662.08	2246.62
662.26	2000.87
662.45	2037.73
662.64	2359.26
662.83	2324.44
663.01	2088.93
663.20	2088.93
663.39	2308.06
663.58	2189.28
663.76	2146.27
663.95	2232.29
664.14	2158.56
664.32	2174.94
664.51	2097.12
664.70	2154.46
664.89	2220.00
665.07	2119.65
665.26	2320.35
665.45	2103.26
665.64	2252.77
665.82	2226.14
666.01	2246.62
666.20	2146.27
666.38	2326.49
666.57	2389.98
666.76	3325.90
666.95	8120.20
667.13	16649.99
667.32	22259.37
667.51	25982.58
667.69	27913.81
667.88	25882.23
668.07	18204.39
668.25	14694.18
668.44	12164.93
668.63	10387.30
668.81	9084.79
669.00	8036.23
669.19	7096.21
669.38	6102.95
669.56	5320.62
669.75	4511.68
669.94	3758.02
670.12	3170.26
670.31	2768.85
670.50	2648.02
670.68	2441.18
670.87	2275.29
671.06	2269.15
671.24	2273.25
671.43	2482.14
671.62	2346.97
671.80	2230.24
671.99	2330.59
672.18	2260.96
672.36	2410.46
672.55	2209.76
672.74	2187.23
672.92	2146.27
673.11	2230.24
673.29	2095.07
673.48	2285.53
673.67	2199.52
673.85	2332.64
674.04	2201.57
674.23	2228.19
674.41	2371.55
674.60	2148.32
674.79	1986.53
674.97	2093.02
675.16	2281.44
675.34	2244.57
675.53	2136.03
675.72	2232.29
675.90	2334.68
676.09	2191.33
676.28	2203.61
676.46	1986.53
676.65	2295.77
676.83	2166.75
677.02	2179.04
677.21	2222.05
677.39	2277.34
677.58	2021.35
677.77	2127.84
677.95	2136.03
678.14	2158.56
678.32	2123.74
678.51	2189.28
678.70	2451.42
678.88	2160.61
679.07	2267.10
679.25	2187.23
679.44	2193.37
679.63	2070.50
679.81	2256.86
680.00	2277.34
680.18	2269.15
680.37	2340.83
680.55	2252.77
680.74	2101.22
680.93	2058.21
681.11	2291.68
681.30	2203.61
681.48	2248.67
681.67	2129.89
681.85	2172.89
682.04	2103.26
682.23	2275.29
682.41	2220.00
682.60	2084.83
682.78	2144.22
682.97	2062.30
683.15	2181.09
683.34	2144.22
683.53	2293.72
683.71	2103.26
683.90	2326.49
684.08	2439.13
684.27	2127.84
684.45	2164.70
684.64	2349.02
684.82	2162.66
685.01	2209.76
685.19	2148.32
685.38	2365.40
685.57	2226.14
685.75	2199.52
685.94	2146.27
686.12	2138.08
686.31	2220.00
686.49	2402.27
686.68	2009.06
686.86	2191.33
687.05	2183.13
687.23	2396.12
687.42	2168.80
687.60	2050.02
687.79	2308.06
687.97	2291.68
688.16	2228.19
688.34	2297.82
688.53	2056.16
688.71	2318.30
688.90	2312.16
689.08	2162.66
689.27	2029.54
689.45	2240.48
689.64	2267.10
689.82	2203.61
690.01	2191.33
690.19	2217.95
690.38	2183.13
690.56	2324.44
690.75	2113.50
690.93	2160.61
691.12	2088.93
691.30	2160.61
691.49	2220.00
691.67	2172.89
691.86	2432.99
692.04	2162.66
692.23	2195.42
692.41	2269.15
692.60	2598.87
692.78	2375.64
692.97	2283.49
693.15	2342.88
693.34	2406.36
693.52	2342.88
693.71	2179.04
693.89	2172.89
694.08	2015.20
694.26	2252.77
694.44	2228.19
694.63	2346.97
694.81	2150.37
695.00	2150.37
695.18	2371.55
695.37	2494.43
695.55	2187.23
695.74	2160.61
695.92	2158.56
696.10	2332.64
696.29	2064.35
696.47	2162.66
696.66	2052.06
696.84	2199.52
697.03	2172.89
697.21	2398.17
697.40	3274.70
697.58	2258.91
697.76	2109.41
697.95	2199.52
698.13	2041.82
698.32	2154.46
698.50	2203.61
698.68	2281.44
698.87	2226.14
699.05	2351.07
699.24	2187.23
699.42	2113.50
699.61	2211.81
699.79	2199.52
699.97	2234.33
700.16	2088.93
700.34	2101.22
700.53	2289.63
700.71	2426.84
700.89	2306.01
701.08	2183.13
701.26	2181.09
701.45	2721.75
701.63	2129.89
701.81	2129.89
702.00	2150.37
702.18	2220.00
702.37	2236.38
702.55	2463.71
702.73	2351.07
702.92	2420.70
703.10	2664.41
703.28	2521.05
703.47	2246.62
703.65	2387.93
703.84	2447.32
704.02	2238.43
704.20	2447.32
704.39	2260.96
704.57	2187.23
704.75	2396.12
704.94	2250.72
705.12	2281.44
705.30	2516.95
705.49	4556.73
705.67	11083.61
705.86	20692.68
706.04	25192.06
706.22	28706.38
706.41	30117.43
706.59	25601.66
706.77	18245.35
706.96	15275.80
707.14	13129.53
707.32	11159.38
707.51	9938.79
707.69	8288.13
707.87	6578.08
708.06	5224.37
708.24	4222.91
708.42	3217.36
708.61	3080.14
708.79	2430.94
708.97	2498.52
709.16	2441.18
709.34	2369.50
709.52	2209.76
709.71	2232.29
709.89	2365.40
710.07	2170.85
710.26	2052.06
710.44	2181.09
710.62	2285.53
710.80	2203.61
710.99	2240.48
711.17	2265.05
711.35	2205.66
711.54	2152.42
711.72	2293.72
711.90	2359.26
712.09	2195.42
712.27	2172.89
712.45	2226.14
712.63	2181.09
712.82	2240.48
713.00	2240.48
713.18	2277.34
713.37	2324.44
713.55	2342.88
713.73	2353.12
713.91	2220.00
714.10	2097.12
714.28	2226.14
714.46	2193.37
714.65	2269.15
714.83	2301.92
715.01	2166.75
715.19	2144.22
715.38	2158.56
715.56	2248.67
715.74	2146.27
715.92	2140.13
716.11	2301.92
716.29	1933.28
716.47	2193.37
716.65	2234.33
716.84	2109.41
717.02	2336.73
717.20	2078.69
717.38	2199.52
717.57	2273.25
717.75	2170.85
717.93	2176.99
718.11	2220.00
718.30	2125.79
718.48	2238.43
718.66	2242.53
718.84	2287.58
719.03	2154.46
719.21	2015.20
719.39	2392.03
719.57	2254.81
719.75	2260.96
719.94	2131.94
720.12	2168.80
720.30	2174.94
720.48	2195.42
720.67	2164.70
720.85	2084.83
721.03	2158.56
721.21	2179.04
721.39	2295.77
721.58	2269.15
721.76	2154.46
721.94	2252.77
722.12	2215.90
722.30	2371.55
722.49	2127.84
722.67	2242.53
722.85	2220.00
723.03	2103.26
723.21	2168.80
723.40	2260.96
723.58	2353.12
723.76	2207.71
723.94	2432.99
724.12	2283.49
724.30	2453.47
724.49	2400.22
724.67	2148.32
724.85	2344.92
725.03	2121.70
725.21	2260.96
725.40	2306.01
725.58	2162.66
725.76	2306.01
725.94	2236.38
726.12	2084.83
726.30	2195.42
726.49	2191.33
726.67	2205.66
726.85	2242.53
727.03	2537.43
727.21	3665.86
727.39	5463.98
727.57	6670.23
727.76	7370.64
727.94	7638.92
728.12	7374.74
728.30	5994.40
728.48	4974.52
728.66	4599.74
728.84	4136.90
729.03	3530.70
729.21	3147.73
729.39	2731.99
729.57	2488.28
729.75	2351.07
729.93	2389.98
730.11	2244.57
730.30	2217.95
730.48	2211.81
730.66	2269.15
730.84	2222.05
731.02	2193.37
731.20	2072.54
731.38	2254.81
731.56	2045.92
731.74	2039.78
731.93	2252.77
732.11	2211.81
732.29	2109.41
732.47	2205.66
732.65	2306.01
732.83	2371.55
733.01	2277.34
733.19	2136.03
733.37	2260.96
733.56	2293.72
733.74	2211.81
733.92	2367.45
734.10	2162.66
734.28	2234.33
734.46	1994.72
734.64	2074.59
734.82	2183.13
735.00	2121.70
735.18	2166.75
735.36	2193.37
735.54	2187.23
735.73	2246.62
735.91	2183.13
736.09	2338.78
736.27	2203.61
736.45	2224.09
736.63	2043.87
736.81	2113.50
736.99	2273.25
737.17	2365.40
737.35	2162.66
737.53	2224.09
737.71	2189.28
737.89	2328.54
738.07	2107.36
738.25	2054.11
738.43	2121.70
738.61	2107.36
738.80	2093.02
738.98	2156.51
739.16	2179.04
739.34	2150.37
739.52	2316.25
739.70	2168.80
739.88	2236.38
740.06	2291.68
740.24	1988.58
740.42	2281.44
740.60	2054.11
740.78	2074.59
740.96	2043.87
741.14	2088.93
741.32	2226.14
741.50	2023.39
741.68	2443.23
741.86	2308.06
742.04	2084.83
742.22	2179.04
742.40	2172.89
742.58	2252.77
742.76	2168.80
742.94	2361.31
743.12	2025.44
743.30	2258.91
743.48	2295.77
743.66	2136.03
743.84	2211.81
744.02	2113.50
744.20	2191.33
744.38	2109.41
744.56	2191.33
744.74	2324.44
744.92	2215.90
745.10	2375.64
745.28	2269.15
745.46	2389.98
745.64	2215.90
745.82	2281.44
746.00	2191.33
746.18	2252.77
746.36	2111.46
746.54	2150.37
746.72	2160.61
746.90	2068.45
747.08	2230.24
747.26	2166.75
747.44	2244.57
747.62	2203.61
747.80	2299.87
747.98	2338.78
748.15	2152.42
748.33	2340.83
748.51	2248.67
748.69	2308.06
748.87	2203.61
749.05	2244.57
749.23	2183.13
749.41	2258.91
749.59	2164.70
749.77	2260.96
749.95	2240.48
750.13	2174.94
750.31	2140.13
750.49	2146.27
750.67	2277.34
750.85	2389.98
751.03	2191.33
751.20	2410.46
751.38	2265.05
751.56	2097.12
751.74	2267.10
751.92	2185.18
752.10	2111.46
752.28	2228.19
752.46	2146.27
752.64	2156.51
752.82	2170.85
753.00	2324.44
753.18	2109.41
753.35	2181.09
753.53	2211.81
753.71	2207.71
753.89	2256.86
754.07	2242.53
754.25	2260.96
754.43	2209.76
754.61	2080.74
754.79	2328.54
754.97	2187.23
755.14	2385.88
755.32	2095.07
755.50	2254.81
755.68	2148.32
755.86	2074.59
756.04	2215.90
756.22	1998.82
756.40	2316.25
756.57	2359.26
756.75	2250.72
756.93	2248.67
757.11	2232.29
757.29	2101.22
757.47	2131.94
757.65	2004.96
757.82	2035.68
758.00	2074.59
758.18	2172.89
758.36	2103.26
758.54	2398.17
758.72	2029.54
758.90	2301.92
759.07	2203.61
759.25	2023.39
759.43	2236.38
759.61	2045.92
759.79	3051.47
759.97	2334.68
760.15	2076.64
760.32	2176.99
760.50	2228.19
760.68	2353.12
760.86	2119.65
761.04	2222.05
761.22	2318.30
761.39	2183.13
761.57	2162.66
761.75	2133.98
761.93	2213.85
762.11	2176.99
762.28	2125.79
762.46	2187.23
762.64	2287.58
762.82	2068.45
763.00	2109.41
763.18	2289.63
763.35	2093.02
763.53	2263.01
763.71	2154.46
763.89	2191.33
764.07	2203.61
764.24	2224.09
764.42	2222.05
764.60	2146.27
764.78	2228.19
764.96	2334.68
765.13	2203.61
765.31	2166.75
765.49	2246.62
765.67	2142.18
765.84	2162.66
766.02	2125.79
766.20	2097.12
766.38	2213.85
766.56	2211.81
766.73	2291.68
766.91	2142.18
767.09	2179.04
767.27	2195.42
767.44	2113.50
767.62	2306.01
767.80	2248.67
767.98	2176.99
768.15	2193.37
768.33	2248.67
768.51	2330.59
768.69	2267.10
768.87	2306.01
769.04	2189.28
769.22	2412.51
769.40	2310.11
769.58	2355.16
769.75	2301.92
769.93	2416.60
770.11	2201.57
770.28	2084.83
770.46	2373.60
770.64	2248.67
770.82	2158.56
770.99	2117.60
771.17	2287.58
771.35	2222.05
771.53	2152.42
771.70	2166.75
771.88	2209.76
772.06	2217.95
772.23	2142.18
772.41	2230.24
772.59	2187.23
772.77	2015.20
772.94	2064.35
773.12	2176.99
773.30	2201.57
773.47	2252.77
773.65	2086.88
773.83	2285.53
774.01	2117.60
774.18	2047.97
774.36	2166.75
774.54	2099.17
774.71	2263.01
774.89	2095.07
775.07	2113.50
775.24	2105.31
775.42	2160.61
775.60	2320.35
775.78	2187.23
775.95	2039.78
776.13	2064.35
776.31	2031.58
776.48	2240.48
776.66	2273.25
776.84	2047.97
777.01	2183.13
777.19	2062.30
777.37	2103.26
777.54	2256.86
777.72	2385.88
777.90	2256.86
778.07	2119.65
778.25	2473.95
778.43	2275.29
778.60	2136.03
778.78	2291.68
778.96	2332.64
779.13	2115.55
779.31	2291.68
779.49	2207.71
779.66	2232.29
779.84	2166.75
780.01	2205.66
780.19	2125.79
780.37	2281.44
780.54	2260.96
780.72	2066.40
780.90	2166.75
781.07	2195.42
781.25	2123.74
781.43	2291.68
781.60	2179.04
781.78	2297.82
781.95	2144.22
782.13	2097.12
782.31	2158.56
782.48	2017.25
782.66	2240.48
782.83	2322.40
783.01	2125.79
783.19	2273.25
783.36	2187.23
783.54	2142.18
783.72	2254.81
783.89	2156.51
784.07	2166.75
784.24	2201.57
784.42	2355.16
784.60	2172.89
784.77	2285.53
784.95	2039.78
785.12	2158.56
785.30	2209.76
785.47	2093.02
785.65	2082.78
785.83	2115.55
786.00	2152.42
786.18	2213.85
786.35	2103.26
786.53	2109.41
786.71	2232.29
786.88	2263.01
787.06	2164.70
787.23	2123.74
787.41	2039.78
787.58	2195.42
787.76	2090.98
787.94	2129.89
788.11	2160.61
788.29	2105.31
788.46	2095.07
788.64	2086.88
788.81	2185.18
788.99	2158.56
789.16	2097.12
789.34	2199.52
789.52	2185.18
789.69	2144.22
789.87	2090.98
790.04	2158.56
790.22	2240.48
790.39	2418.65
790.57	2119.65
790.74	2080.74
790.92	2271.20
791.09	2045.92
791.27	2236.38
791.44	2250.72
791.62	2136.03
791.79	2289.63
791.97	2166.75
792.15	2418.65
792.32	2234.33
792.50	2277.34
792.67	2373.60
792.85	2346.97
793.02	2105.31
793.20	2082.78
793.37	2064.35
793.55	2117.60
793.72	2017.25
793.90	2269.15
794.07	2119.65
794.25	2097.12
794.42	2203.61
794.60	2150.37
794.77	2281.44
794.95	2201.57
795.12	2258.91
795.30	2117.60
795.47	2084.83
795.65	2484.19
795.82	2183.13
796.00	2168.80
796.17	2138.08
796.34	2121.70
796.52	2238.43
796.69	2277.34
796.87	2267.10
797.04	2283.49
797.22	2254.81
797.39	2263.01
797.57	2289.63
797.74	2195.42
797.92	2211.81
798.09	2148.32
798.27	2330.59
798.44	2193.37
798.62	2150.37
798.79	2199.52
798.96	2236.38
799.14	2187.23
799.31	2406.36
799.49	2136.03
799.66	2131.94
799.84	2150.37
800.01	2138.08
800.19	2252.77
800.36	1990.63
800.53	2183.13
800.71	2260.96
800.88	2404.32
801.06	2185.18
801.23	2160.61
801.41	2197.47
801.58	2154.46
801.75	2078.69
801.93	2148.32
802.10	2277.34
802.28	2166.75
802.45	2131.94
802.63	2193.37
802.80	2375.64
802.97	2179.04
803.15	2152.42
803.32	2146.27
803.50	2136.03
803.67	2160.61
803.84	2131.94
804.02	2127.84
804.19	2107.36
804.37	1970.15
804.54	2082.78
804.71	2119.65
804.89	2246.62
805.06	2078.69
805.24	2058.21
805.41	2099.17
805.58	2129.89
805.76	2367.45
805.93	2168.80
806.10	2265.05
806.28	2244.57
806.45	2193.37
806.63	2201.57
806.80	2246.62
806.97	2179.04
807.15	2144.22
807.32	2211.81
807.49	2213.85
807.67	1992.67
807.84	2252.77
808.01	2097.12
808.19	2314.20
808.36	2371.55
808.54	2187.23
808.71	2123.74
808.88	2185.18
809.06	2332.64
809.23	2353.12
809.40	2117.60
809.58	2248.67
809.75	2152.42
809.92	2146.27
810.10	2441.18
810.27	2176.99
810.44	2211.81
810.62	2263.01
810.79	2140.13
810.96	2111.46
811.14	2187.23
811.31	2170.85
811.48	2213.85
811.66	2217.95
811.83	2314.20
812.00	2220.00
812.18	2164.70
812.35	2373.60
812.52	2170.85
812.69	2150.37
812.87	2142.18
813.04	2099.17
813.21	2224.09
813.39	2113.50
813.56	2105.31
813.73	2183.13
813.91	2047.97
814.08	2256.86
814.25	2199.52
814.42	2002.91
814.60	2154.46
814.77	2205.66
814.94	2211.81
815.12	2152.42
815.29	2326.49
815.46	2133.98
815.63	2154.46
815.81	2166.75
815.98	2090.98
816.15	2187.23
816.33	2170.85
816.50	2211.81
816.67	2248.67
816.84	2111.46
817.02	2101.22
817.19	2068.45
817.36	2154.46
817.53	2230.24
817.71	2121.70
817.88	2271.20
818.05	2215.90
818.22	2082.78
818.40	2363.36
818.57	2111.46
818.74	2150.37
818.91	2170.85
819.09	2220.00
819.26	2260.96
819.43	2054.11
819.60	2117.60
819.78	2195.42
819.95	2283.49
820.12	2086.88
820.29	2351.07
820.47	2240.48
820.64	2060.26
820.81	2101.22
820.98	2095.07
821.15	2150.37
821.33	2260.96
821.50	2004.96
821.67	2279.39
821.84	2119.65
822.02	2254.81
822.19	2306.01
822.36	2082.78
822.53	2224.09
822.70	2076.64
822.88	2168.80
823.05	2365.40
823.22	2138.08
823.39	2310.11
823.56	2162.66
823.74	2396.12
823.91	2084.83
824.08	2064.35
824.25	2115.55
824.42	2377.69
824.60	2125.79
824.77	2226.14
824.94	2109.41
825.11	2250.72
825.28	2082.78
825.45	2224.09
825.63	2201.57
825.80	2039.78
825.97	2195.42
826.14	2176.99
826.31	2109.41
826.48	2205.66
826.66	2168.80
826.83	2142.18
827.00	2179.04
827.17	2107.36
827.34	2154.46
827.51	2158.56
827.69	2078.69
827.86	2095.07
828.03	2220.00
828.20	2119.65
828.37	2123.74
828.54	2260.96
828.71	2150.37
828.89	2326.49
829.06	2199.52
829.23	2346.97
829.40	2170.85
829.57	2117.60
829.74	2240.48
829.91	2187.23
830.09	2176.99
830.26	2273.25
830.43	2316.25
830.60	2220.00
830.77	2273.25
830.94	2297.82
831.11	2258.91
831.28	2187.23
831.46	2359.26
831.63	2115.55
831.80	2254.81
831.97	2072.54
832.14	2129.89
832.31	2215.90
832.48	2283.49
832.65	2301.92
832.82	2142.18
832.99	2260.96
833.17	2156.51
833.34	2379.74
833.51	2150.37
833.68	2068.45
833.85	2256.86
834.02	2088.93
834.19	2133.98
834.36	2101.22
834.53	2256.86
834.70	2324.44
834.87	2291.68
835.04	2205.66
835.22	2105.31
835.39	2125.79
835.56	2056.16
835.73	2136.03
835.90	2258.91
836.07	2152.42
836.24	2269.15
836.41	2068.45
836.58	2168.80
836.75	2283.49
836.92	2185.18
837.09	2076.64
837.26	2267.10
837.43	2240.48
837.60	2240.48
837.77	2150.37
837.94	2338.78
838.12	2248.67
838.29	2090.98
838.46	2088.93
838.63	2105.31
838.80	2371.55
838.97	2281.44
839.14	2133.98
839.31	2168.80
839.48	2226.14
839.65	2168.80
839.82	2232.29
839.99	2252.77
840.16	2197.47
840.33	2086.88
840.50	2224.09
840.67	2080.74
840.84	2000.87
841.01	2152.42
841.18	2138.08
841.35	2213.85
841.52	2258.91
841.69	2420.70
841.86	2156.51
842.03	2176.99
842.20	2191.33
842.37	2217.95
842.54	2164.70
842.71	2232.29
842.88	2052.06
843.05	2121.70
843.22	2181.09
843.39	2310.11
843.56	2074.59
843.73	2195.42
843.90	2156.51
844.07	2181.09
844.24	2246.62
844.41	2201.57
844.58	2172.89
844.75	2201.57
844.92	2197.47
845.09	2176.99
845.26	2138.08
845.43	2279.39
845.60	2140.13
845.77	2240.48
845.94	2203.61
846.10	2252.77
846.27	2052.06
846.44	2103.26
846.61	2068.45
846.78	2252.77
846.95	2314.20
847.12	2121.70
847.29	2158.56
847.46	2125.79
847.63	2226.14
847.80	2121.70
847.97	2115.55
848.14	2369.50
848.31	2131.94
848.48	2054.11
848.65	2275.29
848.82	2142.18
848.98	2420.70
849.15	2197.47
849.32	2217.95
849.49	2252.77
849.66	2203.61
849.83	2230.24
850.00	2103.26
850.17	2301.92
850.34	2168.80
850.51	2064.35
850.68	2142.18
850.85	2398.17
851.01	2191.33
851.18	2201.57
851.35	2088.93
851.52	2226.14
851.69	2273.25
851.86	1974.24
852.03	2074.59
852.20	2336.73
852.37	2150.37
852.53	2002.91
852.70	2062.30
852.87	2220.00
853.04	2189.28
853.21	2148.32
853.38	2269.15
853.55	2367.45
853.72	2334.68
853.89	2183.13
854.05	2039.78
854.22	2156.51
854.39	2217.95
854.56	2193.37
854.73	2285.53
854.90	2101.22
855.07	2207.71
855.23	2150.37
855.40	2097.12
855.57	2185.18
855.74	2019.30
855.91	2361.31
856.08	2009.06
856.25	2109.41
856.41	2138.08
856.58	2105.31
856.75	2199.52
856.92	2060.26
857.09	2256.86
857.26	2019.30
857.42	2150.37
857.59	2228.19
857.76	2189.28
857.93	2107.36
858.10	2170.85
858.27	2068.45
858.43	2267.10
858.60	2133.98
858.77	1982.43
858.94	2203.61
859.11	2279.39
859.27	2095.07
859.44	2127.84
859.61	2404.32
859.78	2293.72
859.95	2125.79
860.12	2068.45
860.28	2375.64
860.45	2340.83
860.62	2068.45
860.79	2154.46
860.95	2228.19
861.12	2129.89
861.29	2082.78
861.46	2086.88
861.63	2168.80
861.79	2207.71
861.96	2103.26
862.13	2084.83
862.30	2373.60
862.47	2078.69
862.63	2121.70
862.80	2236.38
862.97	2312.16
863.14	2242.53
863.30	2187.23
863.47	2088.93
863.64	2306.01
863.81	2230.24
863.97	2131.94
864.14	2080.74
864.31	2152.42
864.48	2107.36
864.65	2162.66
864.81	2209.76
864.98	2205.66
865.15	2220.00
865.32	2265.05
865.48	2205.66
865.65	2361.31
865.82	2148.32
865.98	2168.80
866.15	2258.91
866.32	2170.85
866.49	2220.00
866.65	2246.62
866.82	2121.70
866.99	2136.03
867.16	2115.55
867.32	2103.26
867.49	2129.89
867.66	2140.13
867.83	2172.89
867.99	2095.07
868.16	2213.85
868.33	2056.16
868.49	2197.47
868.66	2127.84
868.83	2203.61
868.99	2228.19
869.16	2230.24
869.33	2228.19
869.50	2244.57
869.66	2183.13
869.83	2179.04
870.00	2082.78
870.16	2244.57
870.33	2195.42
870.50	2285.53
870.66	2217.95
870.83	2256.86
871.00	2248.67
871.17	2199.52
871.33	2275.29
871.50	2113.50
871.67	2113.50
871.83	2142.18
872.00	2201.57
872.17	2160.61
872.33	2392.03
872.50	2301.92
872.67	2121.70
872.83	2103.26
873.00	2197.47
873.17	2242.53
873.33	2211.81
873.50	2228.19
873.67	2068.45
873.83	2242.53
874.00	2146.27
874.16	2252.77
874.33	2217.95
874.50	2031.58
874.66	2230.24
874.83	2174.94
875.00	2256.86
875.16	2316.25
875.33	2211.81
875.50	1957.86
875.66	2158.56
875.83	2199.52
875.99	2224.09
876.16	2146.27
876.33	2062.30
876.49	2144.22
876.66	2238.43
876.83	2131.94
876.99	2138.08
877.16	2103.26
877.32	2101.22
877.49	2119.65
877.66	2164.70
877.82	2369.50
877.99	2174.94
878.15	2199.52
878.32	2168.80
878.49	2232.29
878.65	2125.79
878.82	2320.35
878.98	2179.04
879.15	2306.01
879.32	2226.14
879.48	2228.19
879.65	2195.42
879.81	2146.27
879.98	2121.70
880.15	2127.84
880.31	2244.57
880.48	2086.88
880.64	2211.81
880.81	2209.76
880.97	2215.90
881.14	2326.49
881.31	2158.56
881.47	2281.44
881.64	2121.70
881.80	2086.88
881.97	2207.71
882.13	2220.00
882.30	2113.50
882.47	2142.18
882.63	2144.22
882.80	2113.50
882.96	2121.70
883.13	2334.68
883.29	2148.32
883.46	2209.76
883.62	2359.26
883.79	2207.71
883.95	2211.81
884.12	2154.46
884.29	2250.72
884.45	2193.37
884.62	2183.13
884.78	2103.26
884.95	2342.88
885.11	2115.55
885.28	2211.81
885.44	2142.18
885.61	2246.62
885.77	2412.51
885.94	2273.25
886.10	2174.94
886.27	2244.57
886.43	2334.68
886.60	2312.16
886.76	2138.08
886.93	2097.12
887.09	2209.76
887.26	2031.58
887.42	2164.70
887.59	2258.91
887.75	2334.68
887.92	2234.33
888.08	2320.35
888.25	2342.88
888.41	2265.05
888.58	2228.19
888.74	2136.03
888.91	2199.52
>>>>>End Processed Spectral Data<<<<<
