SpectraSuite Data File
++++++++++++++++++++++++++++++++++++
Date: Thu May 05 12:35:04 CEST 2016
User: root
Dark Spectrum Present: No
Reference Spectrum Present: No
Number of Sampled Component Spectra: 1
Spectrometers: USB4C02835
Integration Time (usec): 100000 (USB4C02835)
Spectra Averaged: 1 (USB4C02835)
Boxcar Smoothing: 0 (USB4C02835)
Correct for Electrical Dark: No (USB4C02835)
Strobe/Lamp Enabled: No (USB4C02835)
Correct for Detector Non-linearity: No (USB4C02835)
Correct for Stray Light: No (USB4C02835)
Number of Pixels in Processed Spectrum: 3648
>>>>>Begin Processed Spectral Data<<<<<
177.47	1777.64
177.69	1777.64
177.91	1777.64
178.13	1722.34
178.36	1794.02
178.58	2088.93
178.80	2283.49
179.02	2064.35
179.24	2193.37
179.46	2207.71
179.68	2199.52
179.90	2162.66
180.13	2265.05
180.35	2043.87
180.57	2047.97
180.79	2164.70
181.01	2166.75
181.23	2183.13
181.45	2193.37
181.67	2244.57
181.90	2279.39
182.12	2111.46
182.34	1953.76
182.56	2234.33
182.78	2224.09
183.00	2109.41
183.22	2195.42
183.44	2004.96
183.66	2404.32
183.89	2240.48
184.11	2121.70
184.33	2242.53
184.55	2232.29
184.77	2181.09
184.99	2136.03
185.21	2168.80
185.43	2351.07
185.65	2064.35
185.87	2043.87
186.10	2432.99
186.32	2377.69
186.54	2232.29
186.76	2228.19
186.98	2291.68
187.20	2189.28
187.42	2117.60
187.64	2170.85
187.86	2156.51
188.08	2363.36
188.30	2113.50
188.52	2113.50
188.75	2363.36
188.97	2289.63
189.19	2117.60
189.41	2181.09
189.63	2285.53
189.85	2078.69
190.07	2007.01
190.29	2023.39
190.51	2224.09
190.73	2019.30
190.95	2275.29
191.17	2074.59
191.39	2062.30
191.61	2154.46
191.84	2129.89
192.06	2181.09
192.28	2039.78
192.50	2420.70
192.72	2191.33
192.94	2105.31
193.16	2324.44
193.38	2283.49
193.60	2047.97
193.82	2172.89
194.04	2265.05
194.26	2187.23
194.48	2113.50
194.70	2021.35
194.92	2215.90
195.14	2258.91
195.36	2082.78
195.58	2148.32
195.80	2103.26
196.02	2109.41
196.24	2129.89
196.46	2199.52
196.69	2203.61
196.91	2494.43
197.13	2162.66
197.35	2123.74
197.57	2336.73
197.79	2217.95
198.01	2185.18
198.23	2107.36
198.45	2236.38
198.67	2080.74
198.89	2023.39
199.11	2224.09
199.33	2144.22
199.55	2002.91
199.77	2168.80
199.99	2260.96
200.21	2150.37
200.43	2273.25
200.65	2093.02
200.87	1998.82
201.09	2162.66
201.31	2133.98
201.53	2185.18
201.75	2144.22
201.97	2207.71
202.19	2158.56
202.41	2258.91
202.63	2330.59
202.85	2203.61
203.07	2115.55
203.29	2144.22
203.51	2084.83
203.73	2115.55
203.95	2408.41
204.17	2176.99
204.39	2076.64
204.61	2220.00
204.83	2170.85
205.05	2179.04
205.27	2160.61
205.49	2490.33
205.71	2252.77
205.93	2029.54
206.15	2117.60
206.37	2209.76
206.59	2176.99
206.81	2009.06
207.03	2047.97
207.25	2129.89
207.47	2308.06
207.69	2136.03
207.91	2310.11
208.13	2367.45
208.34	2220.00
208.56	2056.16
208.78	2170.85
209.00	2285.53
209.22	2199.52
209.44	2119.65
209.66	2113.50
209.88	2254.81
210.10	2195.42
210.32	2140.13
210.54	2217.95
210.76	2166.75
210.98	2265.05
211.20	2007.01
211.42	2201.57
211.64	2303.96
211.86	2252.77
212.08	2176.99
212.30	2250.72
212.52	2236.38
212.74	2283.49
212.96	2129.89
213.17	2162.66
213.39	2265.05
213.61	2361.31
213.83	2205.66
214.05	2111.46
214.27	2297.82
214.49	2066.40
214.71	2111.46
214.93	2277.34
215.15	2207.71
215.37	2293.72
215.59	1996.77
215.81	2205.66
216.03	2252.77
216.24	2203.61
216.46	2140.13
216.68	2215.90
216.90	2283.49
217.12	2299.87
217.34	2136.03
217.56	2199.52
217.78	2344.92
218.00	2191.33
218.22	2121.70
218.44	2144.22
218.66	2238.43
218.87	2340.83
219.09	2097.12
219.31	2148.32
219.53	2287.58
219.75	2133.98
219.97	2107.36
220.19	2142.18
220.41	2185.18
220.63	2377.69
220.85	2127.84
221.06	2097.12
221.28	2318.30
221.50	2260.96
221.72	2117.60
221.94	2146.27
222.16	2293.72
222.38	2291.68
222.60	2154.46
222.82	2160.61
223.03	2183.13
223.25	2111.46
223.47	2162.66
223.69	2326.49
223.91	2238.43
224.13	2260.96
224.35	2029.54
224.57	2232.29
224.78	2240.48
225.00	2056.16
225.22	2164.70
225.44	2056.16
225.66	2176.99
225.88	2185.18
226.10	2238.43
226.32	2179.04
226.53	2367.45
226.75	2174.94
226.97	2193.37
227.19	2133.98
227.41	2154.46
227.63	2154.46
227.85	2011.11
228.06	2197.47
228.28	2209.76
228.50	2203.61
228.72	2080.74
228.94	2080.74
229.16	2072.54
229.37	2109.41
229.59	2084.83
229.81	2289.63
230.03	2095.07
230.25	1943.52
230.47	2045.92
230.69	2107.36
230.90	2297.82
231.12	2060.26
231.34	2138.08
231.56	2279.39
231.78	2095.07
232.00	2244.57
232.21	2170.85
232.43	2150.37
232.65	2080.74
232.87	2260.96
233.09	2070.50
233.30	2068.45
233.52	2269.15
233.74	2228.19
233.96	2142.18
234.18	2170.85
234.40	2230.24
234.61	2359.26
234.83	2002.91
235.05	2025.44
235.27	2439.13
235.49	2334.68
235.70	2068.45
235.92	2176.99
236.14	2258.91
236.36	2346.97
236.58	1941.47
236.79	2236.38
237.01	2185.18
237.23	2160.61
237.45	2308.06
237.67	2047.97
237.88	2242.53
238.10	2318.30
238.32	2062.30
238.54	2115.55
238.76	2168.80
238.97	2097.12
239.19	2072.54
239.41	2203.61
239.63	2314.20
239.85	2138.08
240.06	2176.99
240.28	2074.59
240.50	2205.66
240.72	2215.90
240.93	2193.37
241.15	2318.30
241.37	2158.56
241.59	2318.30
241.81	2217.95
242.02	2133.98
242.24	2158.56
242.46	2263.01
242.68	2045.92
242.89	2099.17
243.11	2228.19
243.33	2113.50
243.55	2093.02
243.76	2172.89
243.98	2105.31
244.20	2158.56
244.42	2224.09
244.64	2127.84
244.85	2119.65
245.07	2086.88
245.29	2158.56
245.51	2160.61
245.72	2168.80
245.94	2320.35
246.16	2101.22
246.38	2154.46
246.59	2199.52
246.81	2183.13
247.03	2136.03
247.24	2072.54
247.46	2146.27
247.68	2160.61
247.90	2109.41
248.11	2070.50
248.33	2265.05
248.55	2164.70
248.77	2142.18
248.98	2217.95
249.20	2295.77
249.42	2179.04
249.64	2193.37
249.85	2144.22
250.07	2187.23
250.29	2256.86
250.50	2240.48
250.72	2056.16
250.94	2256.86
251.16	2289.63
251.37	2136.03
251.59	2224.09
251.81	2287.58
252.02	2316.25
252.24	2103.26
252.46	2260.96
252.68	2031.58
252.89	2129.89
253.11	2088.93
253.33	2224.09
253.54	2334.68
253.76	2086.88
253.98	2131.94
254.20	2160.61
254.41	2131.94
254.63	2166.75
254.85	1982.43
255.06	2154.46
255.28	2209.76
255.50	2168.80
255.71	2082.78
255.93	2045.92
256.15	2140.13
256.36	2183.13
256.58	2045.92
256.80	2103.26
257.02	2191.33
257.23	2138.08
257.45	2207.71
257.67	2213.85
257.88	2086.88
258.10	2215.90
258.32	2111.46
258.53	2113.50
258.75	2371.55
258.97	2138.08
259.18	2170.85
259.40	2162.66
259.62	2338.78
259.83	2336.73
260.05	2205.66
260.27	2555.86
260.48	2246.62
260.70	2035.68
260.92	2056.16
261.13	2166.75
261.35	2203.61
261.57	2306.01
261.78	2027.49
262.00	2086.88
262.22	2271.20
262.43	2162.66
262.65	2144.22
262.86	2191.33
263.08	2441.18
263.30	2236.38
263.51	2004.96
263.73	2062.30
263.95	2338.78
264.16	2105.31
264.38	2144.22
264.60	2179.04
264.81	2228.19
265.03	2269.15
265.25	2236.38
265.46	2129.89
265.68	2306.01
265.89	2318.30
266.11	2027.49
266.33	2176.99
266.54	2277.34
266.76	2242.53
266.98	2170.85
267.19	2260.96
267.41	2318.30
267.62	2211.81
267.84	1986.53
268.06	2185.18
268.27	2199.52
268.49	2303.96
268.70	2215.90
268.92	2170.85
269.14	2144.22
269.35	1994.72
269.57	2138.08
269.79	2220.00
270.00	2101.22
270.22	2285.53
270.43	2113.50
270.65	1929.19
270.87	2179.04
271.08	2271.20
271.30	2269.15
271.51	2095.07
271.73	2316.25
271.95	2248.67
272.16	2113.50
272.38	2176.99
272.59	2201.57
272.81	2287.58
273.02	2170.85
273.24	2125.79
273.46	2318.30
273.67	2093.02
273.89	2023.39
274.10	2084.83
274.32	2332.64
274.54	2207.71
274.75	2252.77
274.97	2189.28
275.18	2236.38
275.40	2209.76
275.61	2160.61
275.83	2240.48
276.05	2031.58
276.26	2224.09
276.48	2144.22
276.69	2088.93
276.91	2179.04
277.12	2285.53
277.34	2263.01
277.55	2283.49
277.77	2242.53
277.99	2187.23
278.20	2076.64
278.42	2066.40
278.63	2203.61
278.85	2191.33
279.06	2176.99
279.28	2230.24
279.49	2226.14
279.71	2246.62
279.93	2185.18
280.14	2168.80
280.36	2097.12
280.57	2222.05
280.79	2254.81
281.00	2125.79
281.22	2195.42
281.43	2254.81
281.65	2027.49
281.86	2105.31
282.08	2244.57
282.29	2430.94
282.51	2045.92
282.73	2138.08
282.94	2011.11
283.16	2289.63
283.37	2320.35
283.59	2080.74
283.80	2193.37
284.02	2213.85
284.23	2195.42
284.45	2166.75
284.66	2109.41
284.88	2156.51
285.09	2232.29
285.31	2250.72
285.52	2265.05
285.74	2082.78
285.95	2299.87
286.17	2187.23
286.38	2320.35
286.60	2138.08
286.81	2078.69
287.03	2107.36
287.24	2176.99
287.46	2226.14
287.67	2215.90
287.89	2396.12
288.10	2203.61
288.32	2156.51
288.53	2285.53
288.75	2150.37
288.96	2260.96
289.18	2097.12
289.39	2166.75
289.61	2209.76
289.82	2377.69
290.04	2310.11
290.25	2045.92
290.47	2162.66
290.68	2187.23
290.90	2312.16
291.11	1990.63
291.33	2226.14
291.54	2113.50
291.76	2168.80
291.97	2203.61
292.18	2191.33
292.40	2226.14
292.61	2138.08
292.83	2363.36
293.04	2201.57
293.26	2189.28
293.47	2095.07
293.69	2084.83
293.90	2195.42
294.12	2242.53
294.33	2168.80
294.55	2125.79
294.76	2215.90
294.97	2389.98
295.19	2363.36
295.40	2097.12
295.62	2230.24
295.83	2236.38
296.05	2119.65
296.26	2265.05
296.48	2144.22
296.69	2146.27
296.90	2203.61
297.12	2197.47
297.33	2240.48
297.55	2220.00
297.76	2220.00
297.98	2263.01
298.19	2162.66
298.41	2240.48
298.62	2168.80
298.83	2367.45
299.05	2217.95
299.26	2158.56
299.48	2088.93
299.69	2209.76
299.90	2176.99
300.12	2090.98
300.33	2248.67
300.55	2138.08
300.76	2277.34
300.98	2078.69
301.19	2220.00
301.40	2172.89
301.62	2131.94
301.83	2275.29
302.05	2068.45
302.26	2242.53
302.47	2150.37
302.69	2101.22
302.90	2133.98
303.12	1970.15
303.33	2258.91
303.54	2400.22
303.76	2078.69
303.97	2183.13
304.19	2277.34
304.40	2056.16
304.61	2248.67
304.83	2336.73
305.04	2324.44
305.26	2205.66
305.47	2144.22
305.68	2213.85
305.90	2127.84
306.11	2277.34
306.33	2150.37
306.54	2060.26
306.75	2074.59
306.97	2080.74
307.18	2140.13
307.39	2127.84
307.61	2220.00
307.82	2152.42
308.04	2310.11
308.25	2111.46
308.46	2140.13
308.68	2252.77
308.89	2217.95
309.10	2256.86
309.32	2201.57
309.53	2170.85
309.74	2222.05
309.96	2164.70
310.17	2244.57
310.39	2156.51
310.60	2213.85
310.81	2271.20
311.03	2066.40
311.24	2301.92
311.45	2185.18
311.67	2293.72
311.88	2172.89
312.09	2150.37
312.31	2183.13
312.52	2117.60
312.73	2101.22
312.95	2095.07
313.16	2093.02
313.37	2297.82
313.59	2293.72
313.80	2267.10
314.01	2389.98
314.23	2101.22
314.44	2138.08
314.65	2078.69
314.87	2195.42
315.08	2127.84
315.29	2127.84
315.51	2189.28
315.72	2105.31
315.93	2265.05
316.15	2242.53
316.36	2078.69
316.57	2244.57
316.79	2213.85
317.00	2078.69
317.21	2236.38
317.43	2117.60
317.64	2160.61
317.85	2140.13
318.07	2138.08
318.28	2215.90
318.49	2326.49
318.70	2488.28
318.92	2363.36
319.13	2398.17
319.34	2430.94
319.56	2187.23
319.77	2367.45
319.98	2400.22
320.20	2260.96
320.41	2228.19
320.62	2263.01
320.83	2133.98
321.05	2416.60
321.26	2217.95
321.47	2199.52
321.69	2226.14
321.90	2058.21
322.11	2125.79
322.32	2183.13
322.54	2310.11
322.75	2136.03
322.96	2428.89
323.18	2076.64
323.39	2033.63
323.60	2095.07
323.81	2234.33
324.03	2189.28
324.24	2168.80
324.45	2191.33
324.66	2191.33
324.88	2340.83
325.09	2326.49
325.30	2131.94
325.52	2179.04
325.73	2179.04
325.94	2183.13
326.15	2111.46
326.37	2056.16
326.58	2332.64
326.79	2312.16
327.00	2117.60
327.22	2129.89
327.43	2129.89
327.64	2050.02
327.85	2277.34
328.07	2244.57
328.28	2422.75
328.49	2133.98
328.70	2056.16
328.92	2197.47
329.13	2226.14
329.34	2224.09
329.55	2363.36
329.76	2269.15
329.98	2201.57
330.19	2295.77
330.40	2263.01
330.61	2283.49
330.83	2201.57
331.04	2140.13
331.25	2224.09
331.46	2058.21
331.68	2125.79
331.89	2365.40
332.10	2158.56
332.31	2101.22
332.52	2215.90
332.74	2291.68
332.95	2064.35
333.16	2160.61
333.37	2287.58
333.58	2176.99
333.80	2238.43
334.01	2064.35
334.22	2088.93
334.43	2179.04
334.64	2117.60
334.86	2080.74
335.07	2185.18
335.28	2377.69
335.49	2080.74
335.70	2129.89
335.92	2281.44
336.13	2404.32
336.34	2236.38
336.55	2244.57
336.76	2232.29
336.98	2093.02
337.19	2158.56
337.40	2297.82
337.61	2449.37
337.82	2097.12
338.04	2199.52
338.25	2054.11
338.46	2187.23
338.67	2156.51
338.88	2080.74
339.09	2078.69
339.31	2211.81
339.52	2041.82
339.73	2090.98
339.94	2217.95
340.15	2242.53
340.36	2123.74
340.58	2095.07
340.79	2125.79
341.00	2314.20
341.21	2086.88
341.42	2408.41
341.63	2199.52
341.85	2289.63
342.06	2267.10
342.27	2101.22
342.48	2267.10
342.69	2140.13
342.90	2316.25
343.12	2217.95
343.33	2152.42
343.54	2361.31
343.75	2312.16
343.96	2176.99
344.17	2115.55
344.38	2193.37
344.60	2138.08
344.81	2129.89
345.02	2154.46
345.23	2297.82
345.44	2457.56
345.65	2199.52
345.86	2226.14
346.07	2201.57
346.29	2093.02
346.50	2195.42
346.71	2131.94
346.92	2342.88
347.13	2424.80
347.34	2097.12
347.55	2133.98
347.76	2222.05
347.98	2088.93
348.19	2197.47
348.40	2250.72
348.61	2201.57
348.82	2367.45
349.03	2267.10
349.24	2146.27
349.45	2373.60
349.66	2023.39
349.88	2170.85
350.09	2054.11
350.30	2318.30
350.51	2316.25
350.72	2160.61
350.93	2215.90
351.14	2160.61
351.35	2207.71
351.56	2170.85
351.77	2195.42
351.99	2256.86
352.20	2279.39
352.41	2326.49
352.62	2041.82
352.83	2164.70
353.04	2105.31
353.25	2213.85
353.46	2260.96
353.67	2308.06
353.88	2080.74
354.09	2244.57
354.30	2217.95
354.52	2308.06
354.73	2174.94
354.94	2179.04
355.15	2203.61
355.36	2328.54
355.57	2107.36
355.78	2193.37
355.99	2131.94
356.20	2162.66
356.41	2344.92
356.62	2207.71
356.83	2215.90
357.04	2291.68
357.25	2156.51
357.46	2191.33
357.68	2088.93
357.89	2119.65
358.10	2250.72
358.31	2183.13
358.52	2160.61
358.73	2103.26
358.94	2076.64
359.15	2121.70
359.36	2273.25
359.57	2162.66
359.78	2174.94
359.99	2232.29
360.20	2088.93
360.41	2179.04
360.62	2260.96
360.83	2129.89
361.04	2207.71
361.25	2244.57
361.46	2336.73
361.67	2205.66
361.88	2121.70
362.09	2308.06
362.30	2205.66
362.51	2111.46
362.72	2199.52
362.93	2244.57
363.14	2232.29
363.35	2176.99
363.56	2160.61
363.78	2295.77
363.99	2310.11
364.20	2193.37
364.41	2199.52
364.62	2338.78
364.83	2269.15
365.04	2146.27
365.25	2228.19
365.46	2441.18
365.67	2097.12
365.88	2215.90
366.09	2144.22
366.30	2129.89
366.51	2156.51
366.72	2144.22
366.93	2121.70
367.14	2197.47
367.35	2244.57
367.56	2162.66
367.77	2285.53
367.98	2222.05
368.18	2277.34
368.39	2211.81
368.60	2084.83
368.81	2224.09
369.02	2222.05
369.23	2224.09
369.44	2060.26
369.65	2095.07
369.86	2246.62
370.07	2217.95
370.28	2150.37
370.49	2295.77
370.70	2263.01
370.91	2140.13
371.12	2064.35
371.33	2340.83
371.54	2103.26
371.75	2308.06
371.96	2015.20
372.17	2160.61
372.38	2144.22
372.59	2207.71
372.80	2156.51
373.01	2195.42
373.22	2254.81
373.43	2123.74
373.64	2150.37
373.85	2308.06
374.06	2340.83
374.26	2310.11
374.47	2269.15
374.68	2361.31
374.89	2256.86
375.10	2142.18
375.31	2271.20
375.52	2213.85
375.73	2226.14
375.94	2168.80
376.15	2336.73
376.36	2187.23
376.57	2138.08
376.78	2226.14
376.99	2236.38
377.20	2318.30
377.40	2222.05
377.61	2330.59
377.82	1994.72
378.03	2351.07
378.24	2199.52
378.45	2150.37
378.66	2201.57
378.87	2064.35
379.08	1998.82
379.29	2144.22
379.50	2217.95
379.71	2232.29
379.91	2240.48
380.12	2170.85
380.33	2246.62
380.54	2236.38
380.75	2181.09
380.96	2148.32
381.17	2228.19
381.38	2160.61
381.59	2183.13
381.80	2193.37
382.00	2369.50
382.21	2185.18
382.42	2377.69
382.63	2420.70
382.84	2224.09
383.05	2242.53
383.26	2416.60
383.47	2187.23
383.68	2269.15
383.88	2324.44
384.09	2236.38
384.30	2357.21
384.51	2179.04
384.72	2148.32
384.93	2168.80
385.14	2174.94
385.35	2314.20
385.55	2129.89
385.76	2322.40
385.97	2138.08
386.18	2060.26
386.39	2127.84
386.60	2140.13
386.81	2170.85
387.02	2074.59
387.22	2080.74
387.43	2322.40
387.64	2258.91
387.85	2334.68
388.06	2543.58
388.27	4104.13
388.48	8521.60
388.68	12287.81
388.89	14810.91
389.10	15988.49
389.31	14901.02
389.52	11583.31
389.73	9928.55
389.93	8951.67
390.14	8400.77
390.35	7630.73
390.56	6627.23
390.77	5619.63
390.98	4190.14
391.18	3215.31
391.39	2727.89
391.60	2381.79
391.81	2324.44
392.02	2187.23
392.23	2504.67
392.43	2277.34
392.64	2371.55
392.85	2181.09
393.06	2367.45
393.27	2232.29
393.47	2060.26
393.68	2250.72
393.89	2234.33
394.10	2361.31
394.31	2172.89
394.52	2070.50
394.72	2101.22
394.93	2301.92
395.14	2115.55
395.35	2271.20
395.56	2103.26
395.76	2234.33
395.97	2285.53
396.18	2332.64
396.39	2379.74
396.60	2617.30
396.80	2502.62
397.01	2330.59
397.22	2392.03
397.43	2400.22
397.64	2187.23
397.84	2275.29
398.05	2455.51
398.26	2146.27
398.47	2306.01
398.67	2367.45
398.88	2142.18
399.09	2303.96
399.30	2117.60
399.51	2226.14
399.71	2144.22
399.92	2236.38
400.13	2199.52
400.34	2170.85
400.54	2236.38
400.75	2404.32
400.96	2191.33
401.17	2365.40
401.37	2248.67
401.58	2203.61
401.79	2146.27
402.00	2297.82
402.21	2568.15
402.41	2580.44
402.62	2602.97
402.83	2717.65
403.04	2623.45
403.24	2826.20
403.45	2359.26
403.66	2441.18
403.87	2392.03
404.07	2457.56
404.28	2400.22
404.49	2387.93
404.70	2273.25
404.90	2285.53
405.11	2162.66
405.32	2281.44
405.52	2127.84
405.73	2103.26
405.94	2068.45
406.15	2179.04
406.35	2269.15
406.56	2220.00
406.77	2205.66
406.98	2230.24
407.18	2172.89
407.39	2344.92
407.60	2242.53
407.80	2244.57
408.01	2113.50
408.22	2299.87
408.43	2136.03
408.63	2183.13
408.84	2285.53
409.05	2316.25
409.25	2113.50
409.46	2066.40
409.67	2195.42
409.88	2033.63
410.08	2127.84
410.29	2156.51
410.50	2217.95
410.70	2236.38
410.91	2068.45
411.12	2193.37
411.32	2269.15
411.53	2138.08
411.74	2291.68
411.95	2328.54
412.15	2265.05
412.36	2351.07
412.57	2306.01
412.77	2295.77
412.98	2240.48
413.19	2176.99
413.39	2242.53
413.60	2224.09
413.81	2361.31
414.01	2086.88
414.22	2291.68
414.43	2250.72
414.63	2203.61
414.84	2306.01
415.05	2252.77
415.25	2025.44
415.46	2254.81
415.67	2187.23
415.87	2220.00
416.08	2201.57
416.29	2176.99
416.49	2256.86
416.70	2181.09
416.91	2195.42
417.11	2269.15
417.32	2371.55
417.53	2267.10
417.73	2220.00
417.94	2246.62
418.15	2170.85
418.35	2215.90
418.56	2166.75
418.77	2365.40
418.97	2138.08
419.18	2183.13
419.38	2029.54
419.59	2166.75
419.80	2342.88
420.00	2174.94
420.21	2197.47
420.42	2306.01
420.62	2197.47
420.83	2093.02
421.04	2160.61
421.24	2148.32
421.45	2232.29
421.65	2166.75
421.86	2142.18
422.07	2285.53
422.27	2269.15
422.48	2226.14
422.69	2080.74
422.89	2226.14
423.10	2195.42
423.30	2035.68
423.51	2226.14
423.72	2187.23
423.92	2254.81
424.13	2107.36
424.33	2254.81
424.54	2299.87
424.75	2195.42
424.95	2375.64
425.16	2232.29
425.36	2248.67
425.57	2256.86
425.78	2258.91
425.98	2252.77
426.19	2086.88
426.39	2103.26
426.60	2281.44
426.81	2379.74
427.01	2176.99
427.22	2064.35
427.42	2033.63
427.63	2138.08
427.83	2291.68
428.04	2328.54
428.25	2303.96
428.45	2299.87
428.66	2316.25
428.86	2220.00
429.07	2154.46
429.28	2162.66
429.48	2146.27
429.69	2142.18
429.89	2234.33
430.10	2107.36
430.30	2306.01
430.51	2318.30
430.71	2054.11
430.92	2176.99
431.13	2150.37
431.33	2269.15
431.54	2283.49
431.74	2299.87
431.95	2494.43
432.15	2035.68
432.36	2211.81
432.56	2256.86
432.77	2371.55
432.98	2459.61
433.18	2238.43
433.39	2166.75
433.59	2133.98
433.80	2306.01
434.00	2424.80
434.21	2148.32
434.41	2146.27
434.62	2367.45
434.82	2117.60
435.03	2031.58
435.23	2236.38
435.44	2080.74
435.64	2164.70
435.85	2166.75
436.06	2242.53
436.26	2240.48
436.47	2154.46
436.67	2138.08
436.88	2162.66
437.08	2322.40
437.29	2322.40
437.49	2275.29
437.70	2303.96
437.90	2213.85
438.11	2349.02
438.31	2254.81
438.52	2432.99
438.72	2432.99
438.93	2408.41
439.13	2279.39
439.34	2387.93
439.54	2250.72
439.75	2260.96
439.95	2310.11
440.16	2236.38
440.36	2273.25
440.57	2160.61
440.77	2271.20
440.98	2203.61
441.18	2215.90
441.39	2156.51
441.59	2129.89
441.80	2406.36
442.00	2250.72
442.21	2344.92
442.41	2144.22
442.62	2291.68
442.82	2236.38
443.02	2170.85
443.23	2213.85
443.43	2195.42
443.64	2418.65
443.84	2164.70
444.05	2328.54
444.25	2228.19
444.46	2242.53
444.66	2193.37
444.87	2301.92
445.07	2041.82
445.28	2197.47
445.48	2306.01
445.69	2291.68
445.89	2383.84
446.09	2185.18
446.30	2531.29
446.50	2850.77
446.71	4431.80
446.91	5601.19
447.12	6387.61
447.32	6809.50
447.53	6223.78
447.73	5210.03
447.93	4579.26
448.14	4255.68
448.34	4104.13
448.55	3563.47
448.75	3514.31
448.96	3340.24
449.16	3055.57
449.36	2897.88
449.57	2500.57
449.77	2326.49
449.98	2193.37
450.18	2254.81
450.39	2351.07
450.59	2197.47
450.79	2045.92
451.00	2195.42
451.20	2316.25
451.41	2211.81
451.61	2252.77
451.81	2224.09
452.02	2148.32
452.22	2232.29
452.43	2179.04
452.63	2150.37
452.84	2195.42
453.04	2158.56
453.24	2174.94
453.45	2148.32
453.65	2181.09
453.86	2217.95
454.06	2232.29
454.26	2226.14
454.47	2113.50
454.67	2342.88
454.87	2156.51
455.08	2146.27
455.28	2293.72
455.49	2238.43
455.69	2121.70
455.89	2402.27
456.10	2355.16
456.30	2232.29
456.51	2183.13
456.71	2217.95
456.91	2277.34
457.12	2275.29
457.32	2260.96
457.52	2162.66
457.73	2301.92
457.93	2273.25
458.14	2152.42
458.34	2097.12
458.54	2203.61
458.75	2150.37
458.95	2232.29
459.15	2250.72
459.36	2312.16
459.56	2238.43
459.76	2453.47
459.97	2195.42
460.17	2154.46
460.37	2324.44
460.58	2193.37
460.78	2303.96
460.99	2115.55
461.19	2148.32
461.39	2166.75
461.60	2260.96
461.80	2281.44
462.00	2099.17
462.21	2162.66
462.41	2133.98
462.61	2105.31
462.82	2015.20
463.02	2369.50
463.22	2191.33
463.43	2318.30
463.63	2220.00
463.83	2301.92
464.04	2123.74
464.24	2195.42
464.44	2136.03
464.64	2211.81
464.85	2293.72
465.05	2293.72
465.25	2217.95
465.46	2191.33
465.66	2248.67
465.86	2324.44
466.07	2209.76
466.27	2185.18
466.47	2047.97
466.68	2074.59
466.88	2293.72
467.08	2291.68
467.29	2191.33
467.49	2271.20
467.69	2213.85
467.89	2222.05
468.10	2076.64
468.30	2295.77
468.50	2351.07
468.71	2215.90
468.91	2093.02
469.11	2402.27
469.31	2162.66
469.52	2195.42
469.72	2355.16
469.92	2383.84
470.13	2174.94
470.33	2197.47
470.53	2281.44
470.73	2592.73
470.94	3053.52
471.14	3229.65
471.34	3696.58
471.54	3463.12
471.75	3063.76
471.95	2801.62
472.15	2834.39
472.36	2707.41
472.56	2772.95
472.76	2793.43
472.96	2641.88
473.17	2482.14
473.37	2478.04
473.57	2328.54
473.77	2326.49
473.98	2211.81
474.18	2162.66
474.38	2500.57
474.58	2195.42
474.79	2142.18
474.99	2279.39
475.19	2365.40
475.39	2127.84
475.60	2291.68
475.80	2224.09
476.00	2252.77
476.20	2133.98
476.41	2236.38
476.61	2283.49
476.81	2344.92
477.01	2199.52
477.21	2291.68
477.42	2271.20
477.62	2138.08
477.82	2346.97
478.02	2222.05
478.23	2201.57
478.43	2158.56
478.63	2115.55
478.83	2209.76
479.03	2154.46
479.24	2365.40
479.44	2455.51
479.64	2113.50
479.84	2004.96
480.04	2154.46
480.25	2334.68
480.45	2109.41
480.65	2191.33
480.85	2340.83
481.06	2152.42
481.26	2275.29
481.46	2240.48
481.66	2318.30
481.86	2117.60
482.06	2297.82
482.27	2244.57
482.47	2121.70
482.67	2275.29
482.87	2226.14
483.07	2281.44
483.28	2160.61
483.48	2050.02
483.68	2183.13
483.88	2107.36
484.08	2039.78
484.29	2105.31
484.49	2207.71
484.69	2101.22
484.89	2328.54
485.09	2252.77
485.29	2318.30
485.50	2248.67
485.70	2258.91
485.90	2340.83
486.10	2326.49
486.30	2220.00
486.50	2308.06
486.71	2217.95
486.91	2306.01
487.11	2314.20
487.31	2035.68
487.51	2166.75
487.71	2093.02
487.91	2099.17
488.12	2164.70
488.32	1998.82
488.52	2133.98
488.72	2007.01
488.92	2176.99
489.12	2267.10
489.32	2289.63
489.53	2285.53
489.73	2019.30
489.93	2392.03
490.13	2197.47
490.33	2015.20
490.53	2267.10
490.73	2379.74
490.94	2095.07
491.14	2314.20
491.34	2346.97
491.54	2580.44
491.74	3227.60
491.94	3717.06
492.14	4034.50
492.34	4157.38
492.54	3696.58
492.75	3213.26
492.95	3186.64
493.15	2916.31
493.35	2842.58
493.55	2828.24
493.75	2686.94
493.95	2715.61
494.15	2521.05
494.35	2306.01
494.56	2248.67
494.76	2228.19
494.96	2297.82
495.16	2193.37
495.36	2207.71
495.56	2220.00
495.76	2172.89
495.96	2220.00
496.16	2088.93
496.36	2441.18
496.56	2187.23
496.77	2279.39
496.97	2162.66
497.17	2324.44
497.37	2111.46
497.57	2289.63
497.77	2273.25
497.97	2025.44
498.17	2203.61
498.37	2148.32
498.57	2244.57
498.77	2144.22
498.97	2252.77
499.17	2424.80
499.38	2209.76
499.58	2316.25
499.78	2353.12
499.98	2353.12
500.18	2211.81
500.38	2154.46
500.58	2418.65
500.78	2897.88
500.98	5312.43
501.18	7425.93
501.38	8953.72
501.58	10211.17
501.78	9768.81
501.98	7735.18
502.18	6723.48
502.38	5705.64
502.58	5222.32
502.78	4706.23
502.98	4446.14
503.18	4353.98
503.38	3899.33
503.59	3467.21
503.79	3268.56
503.99	3014.61
504.19	2815.96
504.39	2883.54
504.59	2979.79
504.79	2842.58
504.99	2772.95
505.19	2498.52
505.39	2529.24
505.59	2547.67
505.79	2547.67
505.99	2435.03
506.19	2303.96
506.39	2465.75
506.59	2293.72
506.79	2289.63
506.99	2379.74
507.19	2267.10
507.39	2224.09
507.59	2142.18
507.79	2244.57
507.99	2119.65
508.19	2248.67
508.39	2215.90
508.59	2217.95
508.79	2361.31
508.99	2392.03
509.19	2160.61
509.39	2285.53
509.59	2170.85
509.79	2156.51
509.99	2215.90
510.19	2250.72
510.39	2226.14
510.59	2281.44
510.79	2248.67
510.99	2095.07
511.19	2220.00
511.39	2383.84
511.59	2299.87
511.79	2363.36
511.99	2185.18
512.19	2328.54
512.38	2238.43
512.58	2109.41
512.78	2197.47
512.98	2252.77
513.18	2396.12
513.38	2076.64
513.58	2269.15
513.78	2148.32
513.98	2193.37
514.18	2156.51
514.38	2142.18
514.58	2258.91
514.78	2136.03
514.98	2142.18
515.18	2162.66
515.38	2064.35
515.58	2435.03
515.78	2129.89
515.98	2195.42
516.18	2277.34
516.38	2256.86
516.57	2142.18
516.77	2117.60
516.97	2291.68
517.17	2207.71
517.37	2002.91
517.57	2222.05
517.77	2220.00
517.97	2105.31
518.17	2205.66
518.37	2066.40
518.57	2162.66
518.77	2205.66
518.97	2148.32
519.16	2207.71
519.36	2314.20
519.56	2172.89
519.76	2158.56
519.96	2234.33
520.16	2412.51
520.36	2107.36
520.56	2342.88
520.76	2123.74
520.96	2203.61
521.16	2330.59
521.35	2326.49
521.55	2377.69
521.75	2260.96
521.95	2146.27
522.15	2205.66
522.35	2056.16
522.55	2127.84
522.75	2199.52
522.95	2228.19
523.14	2125.79
523.34	2201.57
523.54	2142.18
523.74	2324.44
523.94	2248.67
524.14	2121.70
524.34	2256.86
524.54	2310.11
524.73	2215.90
524.93	2267.10
525.13	2230.24
525.33	2103.26
525.53	2432.99
525.73	2334.68
525.93	2158.56
526.13	2146.27
526.32	2152.42
526.52	2328.54
526.72	2256.86
526.92	2146.27
527.12	2254.81
527.32	2142.18
527.52	2283.49
527.71	2301.92
527.91	2201.57
528.11	2109.41
528.31	2191.33
528.51	2105.31
528.71	2301.92
528.90	2226.14
529.10	2334.68
529.30	2357.21
529.50	1966.05
529.70	2179.04
529.90	2187.23
530.09	2166.75
530.29	2117.60
530.49	2131.94
530.69	2420.70
530.89	2179.04
531.09	2287.58
531.28	2154.46
531.48	2301.92
531.68	2226.14
531.88	2170.85
532.08	2250.72
532.28	2146.27
532.47	2234.33
532.67	2277.34
532.87	2258.91
533.07	2187.23
533.27	2338.78
533.46	2256.86
533.66	2244.57
533.86	2246.62
534.06	2240.48
534.26	2306.01
534.45	2217.95
534.65	2324.44
534.85	2220.00
535.05	2215.90
535.25	2332.64
535.44	2127.84
535.64	2242.53
535.84	2224.09
536.04	2193.37
536.24	2228.19
536.43	2211.81
536.63	2291.68
536.83	2189.28
537.03	2222.05
537.22	2068.45
537.42	1992.67
537.62	2211.81
537.82	2138.08
538.02	2232.29
538.21	2297.82
538.41	2504.67
538.61	2279.39
538.81	2256.86
539.00	2312.16
539.20	2101.22
539.40	2260.96
539.60	2285.53
539.79	2299.87
539.99	2203.61
540.19	2160.61
540.39	2220.00
540.58	2297.82
540.78	2367.45
540.98	2234.33
541.18	2389.98
541.37	2254.81
541.57	2148.32
541.77	2234.33
541.97	2125.79
542.16	2144.22
542.36	2125.79
542.56	2113.50
542.76	2371.55
542.95	2234.33
543.15	2258.91
543.35	2314.20
543.54	2170.85
543.74	2152.42
543.94	2383.84
544.14	2209.76
544.33	2277.34
544.53	2105.31
544.73	2301.92
544.93	2152.42
545.12	2142.18
545.32	2195.42
545.52	2136.03
545.71	2080.74
545.91	2179.04
546.11	2166.75
546.30	2074.59
546.50	2279.39
546.70	2289.63
546.90	2125.79
547.09	2074.59
547.29	2240.48
547.49	2291.68
547.68	2222.05
547.88	2197.47
548.08	2213.85
548.27	2785.24
548.47	2148.32
548.67	2181.09
548.87	2271.20
549.06	2136.03
549.26	2179.04
549.46	2353.12
549.65	2154.46
549.85	2185.18
550.05	2265.05
550.24	2103.26
550.44	2318.30
550.64	2238.43
550.83	2248.67
551.03	2318.30
551.23	2330.59
551.42	2201.57
551.62	2185.18
551.82	2195.42
552.01	2181.09
552.21	2326.49
552.41	2250.72
552.60	2308.06
552.80	2217.95
553.00	2181.09
553.19	2119.65
553.39	2367.45
553.59	2058.21
553.78	2193.37
553.98	2248.67
554.17	2125.79
554.37	2226.14
554.57	2258.91
554.76	2095.07
554.96	2119.65
555.16	2248.67
555.35	2217.95
555.55	2174.94
555.75	2220.00
555.94	2326.49
556.14	2011.11
556.33	2242.53
556.53	2174.94
556.73	2236.38
556.92	2269.15
557.12	2222.05
557.32	2377.69
557.51	2334.68
557.71	2236.38
557.90	2389.98
558.10	2392.03
558.30	2109.41
558.49	2172.89
558.69	2205.66
558.88	2226.14
559.08	2273.25
559.28	2203.61
559.47	2097.12
559.67	2295.77
559.86	2408.41
560.06	2172.89
560.26	2179.04
560.45	2271.20
560.65	2205.66
560.84	2408.41
561.04	2142.18
561.24	2326.49
561.43	2226.14
561.63	2367.45
561.82	2179.04
562.02	2224.09
562.22	2148.32
562.41	2133.98
562.61	2170.85
562.80	2140.13
563.00	2447.32
563.19	2246.62
563.39	2240.48
563.59	2326.49
563.78	2170.85
563.98	2062.30
564.17	2174.94
564.37	2070.50
564.56	2209.76
564.76	2064.35
564.96	2330.59
565.15	2291.68
565.35	2512.86
565.54	2152.42
565.74	2263.01
565.93	2320.35
566.13	2213.85
566.32	2207.71
566.52	2283.49
566.71	2236.38
566.91	2363.36
567.11	2267.10
567.30	2158.56
567.50	2265.05
567.69	2203.61
567.89	2162.66
568.08	2129.89
568.28	2289.63
568.47	2144.22
568.67	2224.09
568.86	2217.95
569.06	2324.44
569.25	2265.05
569.45	2115.55
569.64	2086.88
569.84	2140.13
570.04	2263.01
570.23	2142.18
570.43	2162.66
570.62	2299.87
570.82	2351.07
571.01	2084.83
571.21	2107.36
571.40	2131.94
571.60	2260.96
571.79	2250.72
571.99	2187.23
572.18	2103.26
572.38	2215.90
572.57	2222.05
572.77	2283.49
572.96	2478.04
573.16	2273.25
573.35	2256.86
573.55	2377.69
573.74	2191.33
573.94	2267.10
574.13	2199.52
574.33	2260.96
574.52	2244.57
574.71	2273.25
574.91	2256.86
575.10	2047.97
575.30	2191.33
575.49	2205.66
575.69	2183.13
575.88	2322.40
576.08	2308.06
576.27	2457.56
576.47	2260.96
576.66	2344.92
576.86	2461.66
577.05	2295.77
577.25	2289.63
577.44	2475.99
577.64	2158.56
577.83	2398.17
578.02	2220.00
578.22	2420.70
578.41	2367.45
578.61	2185.18
578.80	2136.03
579.00	2228.19
579.19	2275.29
579.39	2301.92
579.58	2334.68
579.77	2260.96
579.97	2359.26
580.16	2367.45
580.36	2373.60
580.55	2303.96
580.75	2271.20
580.94	2244.57
581.13	2408.41
581.33	2355.16
581.52	2234.33
581.72	2523.10
581.91	2353.12
582.11	2230.24
582.30	2342.88
582.49	2252.77
582.69	2375.64
582.88	2287.58
583.08	2254.81
583.27	2418.65
583.47	2252.77
583.66	2105.31
583.85	2160.61
584.05	2222.05
584.24	2301.92
584.44	2306.01
584.63	2359.26
584.82	2410.46
585.02	2367.45
585.21	2432.99
585.41	2392.03
585.60	2381.79
585.79	2568.15
585.99	2494.43
586.18	2394.08
586.37	2938.84
586.57	4472.76
586.76	13575.98
586.96	32599.57
587.15	46773.56
587.34	56108.20
587.54	61373.53
587.73	56380.58
587.93	40105.37
588.12	30090.80
588.31	24247.95
588.51	21241.53
588.70	19189.47
588.89	17385.21
589.09	15197.98
589.28	13246.26
589.47	10577.76
589.67	8466.30
589.86	6303.65
590.06	4761.53
590.25	3956.68
590.44	3147.73
590.64	2805.72
590.83	2568.15
591.02	2510.81
591.22	2412.51
591.41	2326.49
591.60	2318.30
591.80	2437.08
591.99	2127.84
592.18	2191.33
592.38	2332.64
592.57	2150.37
592.76	2244.57
592.96	2217.95
593.15	2236.38
593.34	2361.31
593.54	2252.77
593.73	2314.20
593.92	2265.05
594.12	2260.96
594.31	2297.82
594.50	2447.32
594.70	2369.50
594.89	2539.48
595.08	2136.03
595.28	2369.50
595.47	2455.51
595.66	2326.49
595.86	2207.71
596.05	2228.19
596.24	2236.38
596.43	2469.85
596.63	2340.83
596.82	2273.25
597.01	2334.68
597.21	2422.75
597.40	2346.97
597.59	2291.68
597.79	2156.51
597.98	2322.40
598.17	2252.77
598.36	2295.77
598.56	2265.05
598.75	2193.37
598.94	2308.06
599.14	2240.48
599.33	2166.75
599.52	2281.44
599.71	2344.92
599.91	2318.30
600.10	2332.64
600.29	2201.57
600.48	2291.68
600.68	2197.47
600.87	2209.76
601.06	2187.23
601.26	2244.57
601.45	2179.04
601.64	2127.84
601.83	2406.36
602.03	2222.05
602.22	2072.54
602.41	2379.74
602.60	2422.75
602.80	2258.91
602.99	2299.87
603.18	2152.42
603.37	2220.00
603.57	2291.68
603.76	2330.59
603.95	2324.44
604.14	2207.71
604.34	2228.19
604.53	2211.81
604.72	2187.23
604.91	2318.30
605.10	2226.14
605.30	2062.30
605.49	2445.27
605.68	2234.33
605.87	2244.57
606.07	2138.08
606.26	2080.74
606.45	2205.66
606.64	2236.38
606.84	2174.94
607.03	2285.53
607.22	2349.02
607.41	2310.11
607.60	2293.72
607.80	2400.22
607.99	2224.09
608.18	2236.38
608.37	2281.44
608.56	2207.71
608.76	2301.92
608.95	2451.42
609.14	2312.16
609.33	2414.56
609.52	2381.79
609.72	2346.97
609.91	2379.74
610.10	2297.82
610.29	2410.46
610.48	2322.40
610.68	2283.49
610.87	2265.05
611.06	2303.96
611.25	2269.15
611.44	2338.78
611.63	2203.61
611.83	2340.83
612.02	2129.89
612.21	2342.88
612.40	2080.74
612.59	2074.59
612.79	2119.65
612.98	2181.09
613.17	2322.40
613.36	2260.96
613.55	2478.04
613.74	2248.67
613.93	2400.22
614.13	2506.71
614.32	2437.08
614.51	2398.17
614.70	2330.59
614.89	2269.15
615.08	2408.41
615.28	2791.38
615.47	2207.71
615.66	2293.72
615.85	2271.20
616.04	2451.42
616.23	2297.82
616.42	2238.43
616.62	2285.53
616.81	2297.82
617.00	2240.48
617.19	2353.12
617.38	2207.71
617.57	2217.95
617.76	2320.35
617.95	2359.26
618.15	2285.53
618.34	2344.92
618.53	2138.08
618.72	2316.25
618.91	2420.70
619.10	2283.49
619.29	2215.90
619.48	2248.67
619.68	2176.99
619.87	2185.18
620.06	2142.18
620.25	2295.77
620.44	2115.55
620.63	2228.19
620.82	2240.48
621.01	2285.53
621.20	2209.76
621.39	2308.06
621.59	2199.52
621.78	2217.95
621.97	2199.52
622.16	2269.15
622.35	2195.42
622.54	2297.82
622.73	2365.40
622.92	2070.50
623.11	2248.67
623.30	2185.18
623.49	2254.81
623.68	2170.85
623.88	2349.02
624.07	2191.33
624.26	2095.07
624.45	2238.43
624.64	2170.85
624.83	2250.72
625.02	2228.19
625.21	2226.14
625.40	2150.37
625.59	2353.12
625.78	2185.18
625.97	2301.92
626.16	2287.58
626.35	2363.36
626.54	2326.49
626.74	2389.98
626.93	2283.49
627.12	2185.18
627.31	2334.68
627.50	2291.68
627.69	2342.88
627.88	2224.09
628.07	2168.80
628.26	2088.93
628.45	2185.18
628.64	2121.70
628.83	2170.85
629.02	2086.88
629.21	2355.16
629.40	2258.91
629.59	2164.70
629.78	2207.71
629.97	2252.77
630.16	2234.33
630.35	2252.77
630.54	2336.73
630.73	2174.94
630.92	2236.38
631.11	2066.40
631.30	2244.57
631.49	2310.11
631.68	2187.23
631.87	2330.59
632.06	2062.30
632.25	2461.66
632.44	2277.34
632.63	2252.77
632.82	2279.39
633.01	2201.57
633.20	2349.02
633.39	2303.96
633.58	2107.36
633.77	2301.92
633.96	2254.81
634.15	2271.20
634.34	2314.20
634.53	2299.87
634.72	2211.81
634.91	2152.42
635.10	2172.89
635.29	2244.57
635.48	2332.64
635.67	2179.04
635.86	2080.74
636.05	2385.88
636.24	2191.33
636.43	2197.47
636.62	2275.29
636.81	1990.63
637.00	2201.57
637.19	2299.87
637.38	2285.53
637.57	2189.28
637.76	2228.19
637.95	2289.63
638.14	2297.82
638.33	2322.40
638.52	2301.92
638.71	2158.56
638.89	2121.70
639.08	2531.29
639.27	2357.21
639.46	2447.32
639.65	2850.77
639.84	2987.99
640.03	3135.44
640.22	3041.23
640.41	2992.08
640.60	2586.58
640.79	2596.82
640.98	2412.51
641.17	2441.18
641.36	2564.06
641.55	2408.41
641.74	2254.81
641.92	2224.09
642.11	2289.63
642.30	2224.09
642.49	2154.46
642.68	2228.19
642.87	2238.43
643.06	2252.77
643.25	2146.27
643.44	2127.84
643.63	2242.53
643.82	2203.61
644.00	2168.80
644.19	2226.14
644.38	2060.26
644.57	2236.38
644.76	2244.57
644.95	2156.51
645.14	2230.24
645.33	2209.76
645.52	2242.53
645.71	2107.36
645.89	2070.50
646.08	2133.98
646.27	2174.94
646.46	2346.97
646.65	2099.17
646.84	2220.00
647.03	2037.73
647.22	2301.92
647.40	2242.53
647.59	2099.17
647.78	2056.16
647.97	2142.18
648.16	2152.42
648.35	2310.11
648.54	2267.10
648.73	2158.56
648.91	2242.53
649.10	2170.85
649.29	2191.33
649.48	2146.27
649.67	2267.10
649.86	2320.35
650.05	2355.16
650.23	2473.95
650.42	2396.12
650.61	2480.09
650.80	2486.23
650.99	2547.67
651.18	2381.79
651.36	2336.73
651.55	2205.66
651.74	2293.72
651.93	2195.42
652.12	2234.33
652.31	2201.57
652.49	2162.66
652.68	2193.37
652.87	2418.65
653.06	2293.72
653.25	2457.56
653.44	2211.81
653.62	2424.80
653.81	2230.24
654.00	2273.25
654.19	2287.58
654.38	2543.58
654.56	2277.34
654.75	2123.74
654.94	2320.35
655.13	2271.20
655.32	2133.98
655.51	2320.35
655.69	2189.28
655.88	2322.40
656.07	2076.64
656.26	2207.71
656.45	2150.37
656.63	2211.81
656.82	2267.10
657.01	2338.78
657.20	2146.27
657.38	2357.21
657.57	2121.70
657.76	2109.41
657.95	2230.24
658.14	2207.71
658.32	2179.04
658.51	2119.65
658.70	2258.91
658.89	2209.76
659.08	2187.23
659.26	2389.98
659.45	2174.94
659.64	2414.56
659.83	2220.00
660.01	2572.25
660.20	2260.96
660.39	2430.94
660.58	2064.35
660.76	2291.68
660.95	2002.91
661.14	2303.96
661.33	2131.94
661.51	2162.66
661.70	2224.09
661.89	2308.06
662.08	2160.61
662.26	2060.26
662.45	2154.46
662.64	2373.60
662.83	2310.11
663.01	2119.65
663.20	2228.19
663.39	2349.02
663.58	2142.18
663.76	2191.33
663.95	2248.67
664.14	2109.41
664.32	2166.75
664.51	2138.08
664.70	2009.06
664.89	2297.82
665.07	2088.93
665.26	2271.20
665.45	2117.60
665.64	2240.48
665.82	2133.98
666.01	2265.05
666.20	2131.94
666.38	2326.49
666.57	2404.32
666.76	3358.67
666.95	8091.52
667.13	16813.82
667.32	22132.40
667.51	26093.17
667.69	27909.72
667.88	25790.07
668.07	18243.31
668.25	14638.88
668.44	11951.95
668.63	10272.61
668.81	9224.05
669.00	7856.01
669.19	7174.03
669.38	6170.53
669.56	5339.05
669.75	4491.20
669.94	3813.32
670.12	3192.78
670.31	2805.72
670.50	2529.24
670.68	2490.33
670.87	2312.16
671.06	2306.01
671.24	2246.62
671.43	2457.56
671.62	2265.05
671.80	2211.81
671.99	2281.44
672.18	2207.71
672.36	2277.34
672.55	2281.44
672.74	2211.81
672.92	2195.42
673.11	2363.36
673.29	2062.30
673.48	2285.53
673.67	2156.51
673.85	2369.50
674.04	2101.22
674.23	2250.72
674.41	2426.84
674.60	2168.80
674.79	2088.93
674.97	2193.37
675.16	2265.05
675.34	2234.33
675.53	2136.03
675.72	2283.49
675.90	2428.89
676.09	2117.60
676.28	2250.72
676.46	2062.30
676.65	2283.49
676.83	2080.74
677.02	2201.57
677.21	2220.00
677.39	2244.57
677.58	2127.84
677.77	2195.42
677.95	2099.17
678.14	2209.76
678.32	2144.22
678.51	2117.60
678.70	2437.08
678.88	2144.22
679.07	2248.67
679.25	2244.57
679.44	2166.75
679.63	2060.26
679.81	2213.85
680.00	2330.59
680.18	2205.66
680.37	2346.97
680.55	2179.04
680.74	2068.45
680.93	1998.82
681.11	2230.24
681.30	2252.77
681.48	2258.91
681.67	2127.84
681.85	2236.38
682.04	2136.03
682.23	2277.34
682.41	2289.63
682.60	2164.70
682.78	2176.99
682.97	2105.31
683.15	2138.08
683.34	2150.37
683.53	2322.40
683.71	2029.54
683.90	2285.53
684.08	2326.49
684.27	2097.12
684.45	2267.10
684.64	2230.24
684.82	2156.51
685.01	2222.05
685.19	2199.52
685.38	2301.92
685.57	2242.53
685.75	2123.74
685.94	2228.19
686.12	2113.50
686.31	2131.94
686.49	2340.83
686.68	2103.26
686.86	2205.66
687.05	2154.46
687.23	2314.20
687.42	2113.50
687.60	2129.89
687.79	2342.88
687.97	2363.36
688.16	2308.06
688.34	2269.15
688.53	2047.97
688.71	2242.53
688.90	2357.21
689.08	2236.38
689.27	2088.93
689.45	2222.05
689.64	2330.59
689.82	2222.05
690.01	2207.71
690.19	2205.66
690.38	2136.03
690.56	2226.14
690.75	2166.75
690.93	2183.13
691.12	2113.50
691.30	2181.09
691.49	2168.80
691.67	2224.09
691.86	2385.88
692.04	2133.98
692.23	2195.42
692.41	2244.57
692.60	2449.37
692.78	2371.55
692.97	2308.06
693.15	2232.29
693.34	2439.13
693.52	2254.81
693.71	2150.37
693.89	2236.38
694.08	2086.88
694.26	2267.10
694.44	2324.44
694.63	2308.06
694.81	2195.42
695.00	2172.89
695.18	2256.86
695.37	2392.03
695.55	2217.95
695.74	2232.29
695.92	2099.17
696.10	2326.49
696.29	2127.84
696.47	2150.37
696.66	2162.66
696.84	2162.66
697.03	2250.72
697.21	2377.69
697.40	3162.06
697.58	2297.82
697.76	2162.66
697.95	2154.46
698.13	2136.03
698.32	2185.18
698.50	2144.22
698.68	2299.87
698.87	2326.49
699.05	2410.46
699.24	2279.39
699.42	2056.16
699.61	2187.23
699.79	2254.81
699.97	2154.46
700.16	2070.50
700.34	2101.22
700.53	2260.96
700.71	2314.20
700.89	2230.24
701.08	2158.56
701.26	2203.61
701.45	2701.27
701.63	2103.26
701.81	2144.22
702.00	2176.99
702.18	2228.19
702.37	2193.37
702.55	2467.80
702.73	2480.09
702.92	2310.11
703.10	2598.87
703.28	2502.62
703.47	2211.81
703.65	2463.71
703.84	2379.74
704.02	2359.26
704.20	2377.69
704.39	2232.29
704.57	2252.77
704.75	2324.44
704.94	2250.72
705.12	2359.26
705.30	2447.32
705.49	4485.05
705.67	11411.28
705.86	20655.81
706.04	25038.47
706.22	28833.35
706.41	29789.75
706.59	25675.38
706.77	18325.22
706.96	15013.66
707.14	13033.27
707.32	11214.68
707.51	9826.15
707.69	8292.23
707.87	6645.66
708.06	5242.80
708.24	4118.47
708.42	3397.58
708.61	3108.82
708.79	2617.30
708.97	2461.66
709.16	2471.90
709.34	2303.96
709.52	2144.22
709.71	2199.52
709.89	2293.72
710.07	2166.75
710.26	2224.09
710.44	2242.53
710.62	2228.19
710.80	2228.19
710.99	2291.68
711.17	2271.20
711.35	2205.66
711.54	2203.61
711.72	2316.25
711.90	2244.57
712.09	2228.19
712.27	2162.66
712.45	2252.77
712.63	2183.13
712.82	2201.57
713.00	2207.71
713.18	2236.38
713.37	2260.96
713.55	2238.43
713.73	2236.38
713.91	2275.29
714.10	2156.51
714.28	2232.29
714.46	2279.39
714.65	2240.48
714.83	2201.57
715.01	2199.52
715.19	2310.11
715.38	2174.94
715.56	2322.40
715.74	2168.80
715.92	2150.37
716.11	2273.25
716.29	2050.02
716.47	2193.37
716.65	2220.00
716.84	2043.87
717.02	2260.96
717.20	2064.35
717.38	2193.37
717.57	2199.52
717.75	2252.77
717.93	2183.13
718.11	2226.14
718.30	2105.31
718.48	2240.48
718.66	2226.14
718.84	2293.72
719.03	2207.71
719.21	2121.70
719.39	2316.25
719.57	2293.72
719.75	2250.72
719.94	2162.66
720.12	2129.89
720.30	2230.24
720.48	2271.20
720.67	2146.27
720.85	2119.65
721.03	2162.66
721.21	2203.61
721.39	2209.76
721.58	2232.29
721.76	2166.75
721.94	2195.42
722.12	2267.10
722.30	2369.50
722.49	2129.89
722.67	2197.47
722.85	2252.77
723.03	2113.50
723.21	2172.89
723.40	2209.76
723.58	2277.34
723.76	2334.68
723.94	2369.50
724.12	2258.91
724.30	2392.03
724.49	2398.17
724.67	2191.33
724.85	2408.41
725.03	2117.60
725.21	2308.06
725.40	2310.11
725.58	2117.60
725.76	2273.25
725.94	2234.33
726.12	2125.79
726.30	2228.19
726.49	2183.13
726.67	2142.18
726.85	2256.86
727.03	2572.25
727.21	3663.82
727.39	5398.45
727.57	6711.19
727.76	7487.37
727.94	7864.20
728.12	7245.71
728.30	5873.57
728.48	5031.86
728.66	4507.58
728.84	4120.51
729.03	3512.27
729.21	3119.06
729.39	2766.81
729.57	2480.09
729.75	2457.56
729.93	2273.25
730.11	2158.56
730.30	2160.61
730.48	2166.75
730.66	2355.16
730.84	2242.53
731.02	2203.61
731.20	2199.52
731.38	2224.09
731.56	2095.07
731.74	2113.50
731.93	2193.37
732.11	2162.66
732.29	2127.84
732.47	2211.81
732.65	2203.61
732.83	2375.64
733.01	2287.58
733.19	2105.31
733.37	2234.33
733.56	2201.57
733.74	2076.64
733.92	2349.02
734.10	2097.12
734.28	2248.67
734.46	2064.35
734.64	2193.37
734.82	2181.09
735.00	2050.02
735.18	2140.13
735.36	2193.37
735.54	2248.67
735.73	2172.89
735.91	2189.28
736.09	2326.49
736.27	2209.76
736.45	2203.61
736.63	2056.16
736.81	2162.66
736.99	2340.83
737.17	2357.21
737.35	2154.46
737.53	2193.37
737.71	2129.89
737.89	2236.38
738.07	2148.32
738.25	2146.27
738.43	2062.30
738.61	2203.61
738.80	2105.31
738.98	2099.17
739.16	2154.46
739.34	2146.27
739.52	2334.68
739.70	2152.42
739.88	2191.33
740.06	2301.92
740.24	1961.95
740.42	2314.20
740.60	2084.83
740.78	2138.08
740.96	1972.19
741.14	2133.98
741.32	2236.38
741.50	2031.58
741.68	2408.41
741.86	2281.44
742.04	2088.93
742.22	2090.98
742.40	2211.81
742.58	2228.19
742.76	2125.79
742.94	2230.24
743.12	2043.87
743.30	2273.25
743.48	2234.33
743.66	2199.52
743.84	2226.14
744.02	2187.23
744.20	2195.42
744.38	2064.35
744.56	2168.80
744.74	2377.69
744.92	2275.29
745.10	2211.81
745.28	2308.06
745.46	2365.40
745.64	2220.00
745.82	2250.72
746.00	2088.93
746.18	2207.71
746.36	2045.92
746.54	2267.10
746.72	2142.18
746.90	2168.80
747.08	2283.49
747.26	2113.50
747.44	2273.25
747.62	2281.44
747.80	2179.04
747.98	2277.34
748.15	2148.32
748.33	2406.36
748.51	2273.25
748.69	2332.64
748.87	2142.18
749.05	2105.31
749.23	2187.23
749.41	2189.28
749.59	2232.29
749.77	2334.68
749.95	2125.79
750.13	2107.36
750.31	2297.82
750.49	2166.75
750.67	2209.76
750.85	2371.55
751.03	2199.52
751.20	2381.79
751.38	2248.67
751.56	2138.08
751.74	2197.47
751.92	2176.99
752.10	2129.89
752.28	2320.35
752.46	2176.99
752.64	2142.18
752.82	2183.13
753.00	2306.01
753.18	2119.65
753.35	2228.19
753.53	2150.37
753.71	2162.66
753.89	2258.91
754.07	2242.53
754.25	2201.57
754.43	2179.04
754.61	2054.11
754.79	2236.38
754.97	2138.08
755.14	2301.92
755.32	2101.22
755.50	2127.84
755.68	2205.66
755.86	2068.45
756.04	2140.13
756.22	1890.28
756.40	2224.09
756.57	2398.17
756.75	2160.61
756.93	2328.54
757.11	2295.77
757.29	2000.87
757.47	2072.54
757.65	2039.78
757.82	2080.74
758.00	2133.98
758.18	2220.00
758.36	2115.55
758.54	2367.45
758.72	2052.06
758.90	2289.63
759.07	2234.33
759.25	2056.16
759.43	2211.81
759.61	2062.30
759.79	3082.19
759.97	2240.48
760.15	2197.47
760.32	2185.18
760.50	2224.09
760.68	2351.07
760.86	2054.11
761.04	2267.10
761.22	2316.25
761.39	2217.95
761.57	2256.86
761.75	2160.61
761.93	2191.33
762.11	2170.85
762.28	2236.38
762.46	2148.32
762.64	2303.96
762.82	2029.54
763.00	2101.22
763.18	2275.29
763.35	2031.58
763.53	2250.72
763.71	2234.33
763.89	2176.99
764.07	2176.99
764.24	2207.71
764.42	2267.10
764.60	2148.32
764.78	2240.48
764.96	2269.15
765.13	2269.15
765.31	2160.61
765.49	2244.57
765.67	2095.07
765.84	2146.27
766.02	2131.94
766.20	2109.41
766.38	2172.89
766.56	2146.27
766.73	2295.77
766.91	2238.43
767.09	2252.77
767.27	2203.61
767.44	2082.78
767.62	2236.38
767.80	2238.43
767.98	2154.46
768.15	2086.88
768.33	2168.80
768.51	2242.53
768.69	2236.38
768.87	2187.23
769.04	2179.04
769.22	2447.32
769.40	2314.20
769.58	2400.22
769.75	2138.08
769.93	2291.68
770.11	2131.94
770.28	2078.69
770.46	2281.44
770.64	2183.13
770.82	2226.14
770.99	2090.98
771.17	2314.20
771.35	2195.42
771.53	2176.99
771.70	2119.65
771.88	2283.49
772.06	2142.18
772.23	2201.57
772.41	2228.19
772.59	2162.66
772.77	2058.21
772.94	2121.70
773.12	2187.23
773.30	2201.57
773.47	2187.23
773.65	2144.22
773.83	2373.60
774.01	2207.71
774.18	1970.15
774.36	2185.18
774.54	2105.31
774.71	2211.81
774.89	2015.20
775.07	2127.84
775.24	2156.51
775.42	2138.08
775.60	2351.07
775.78	2144.22
775.95	2045.92
776.13	1998.82
776.31	2023.39
776.48	2217.95
776.66	2289.63
776.84	2179.04
777.01	2025.44
777.19	2179.04
777.37	2086.88
777.54	2308.06
777.72	2346.97
777.90	2260.96
778.07	2078.69
778.25	2473.95
778.43	2252.77
778.60	2195.42
778.78	2217.95
778.96	2344.92
779.13	2074.59
779.31	2316.25
779.49	2121.70
779.66	2201.57
779.84	2170.85
780.01	2195.42
780.19	2088.93
780.37	2342.88
780.54	2256.86
780.72	2072.54
780.90	2152.42
781.07	2193.37
781.25	2119.65
781.43	2306.01
781.60	2154.46
781.78	2287.58
781.95	2084.83
782.13	2054.11
782.31	2220.00
782.48	2027.49
782.66	2174.94
782.83	2332.64
783.01	2226.14
783.19	2326.49
783.36	2179.04
783.54	2174.94
783.72	2342.88
783.89	2111.46
784.07	2168.80
784.24	2205.66
784.42	2301.92
784.60	2281.44
784.77	2265.05
784.95	1964.00
785.12	2131.94
785.30	2144.22
785.47	2133.98
785.65	2060.26
785.83	2142.18
786.00	2164.70
786.18	2213.85
786.35	2097.12
786.53	2150.37
786.71	2316.25
786.88	2228.19
787.06	2146.27
787.23	2150.37
787.41	2082.78
787.58	2197.47
787.76	2088.93
787.94	2191.33
788.11	2269.15
788.29	2127.84
788.46	2097.12
788.64	2058.21
788.81	2170.85
788.99	2152.42
789.16	2086.88
789.34	2181.09
789.52	2090.98
789.69	2133.98
789.87	2031.58
790.04	2181.09
790.22	2103.26
790.39	2383.84
790.57	2109.41
790.74	2074.59
790.92	2248.67
791.09	1957.86
791.27	2195.42
791.44	2346.97
791.62	2164.70
791.79	2226.14
791.97	2174.94
792.15	2430.94
792.32	2234.33
792.50	2336.73
792.67	2326.49
792.85	2269.15
793.02	2185.18
793.20	2197.47
793.37	2064.35
793.55	2136.03
793.72	2045.92
793.90	2174.94
794.07	2095.07
794.25	2164.70
794.42	2174.94
794.60	2164.70
794.77	2185.18
794.95	2179.04
795.12	2297.82
795.30	2230.24
795.47	2029.54
795.65	2486.23
795.82	2131.94
796.00	2068.45
796.17	2140.13
796.34	2101.22
796.52	2213.85
796.69	2301.92
796.87	2236.38
797.04	2209.76
797.22	2246.62
797.39	2258.91
797.57	2260.96
797.74	2154.46
797.92	2285.53
798.09	2150.37
798.27	2275.29
798.44	2228.19
798.62	2166.75
798.79	2209.76
798.96	2183.13
799.14	2166.75
799.31	2447.32
799.49	2156.51
799.66	2181.09
799.84	2174.94
800.01	2056.16
800.19	2166.75
800.36	2058.21
800.53	2226.14
800.71	2179.04
800.88	2318.30
801.06	2127.84
801.23	2097.12
801.41	2136.03
801.58	2093.02
801.75	2084.83
801.93	2256.86
802.10	2211.81
802.28	2179.04
802.45	2097.12
802.63	2283.49
802.80	2330.59
802.97	2285.53
803.15	2187.23
803.32	2154.46
803.50	2113.50
803.67	2047.97
803.84	2084.83
804.02	2215.90
804.19	2260.96
804.37	1941.47
804.54	2037.73
804.71	2129.89
804.89	2168.80
805.06	2119.65
805.24	2068.45
805.41	2074.59
805.58	2185.18
805.76	2510.81
805.93	2191.33
806.10	2299.87
806.28	2312.16
806.45	2185.18
806.63	2193.37
806.80	2248.67
806.97	2185.18
807.15	2279.39
807.32	2127.84
807.49	2156.51
807.67	1992.67
807.84	2277.34
808.01	2109.41
808.19	2351.07
808.36	2349.02
808.54	2191.33
808.71	2158.56
808.88	2232.29
809.06	2340.83
809.23	2414.56
809.40	2162.66
809.58	2244.57
809.75	2088.93
809.92	2060.26
810.10	2371.55
810.27	2168.80
810.44	2187.23
810.62	2281.44
810.79	2201.57
810.96	2117.60
811.14	2172.89
811.31	2179.04
811.48	2226.14
811.66	2176.99
811.83	2293.72
812.00	2295.77
812.18	2201.57
812.35	2408.41
812.52	2148.32
812.69	2058.21
812.87	2162.66
813.04	2146.27
813.21	2076.64
813.39	2131.94
813.56	2097.12
813.73	2285.53
813.91	2033.63
814.08	2152.42
814.25	2260.96
814.42	2004.96
814.60	2185.18
814.77	2236.38
814.94	2209.76
815.12	2174.94
815.29	2346.97
815.46	2154.46
815.63	2215.90
815.81	2154.46
815.98	2205.66
816.15	2166.75
816.33	2207.71
816.50	2129.89
816.67	2133.98
816.84	2187.23
817.02	2078.69
817.19	2131.94
817.36	2205.66
817.53	2234.33
817.71	2133.98
817.88	2318.30
818.05	2168.80
818.22	2107.36
818.40	2273.25
818.57	2197.47
818.74	2254.81
818.91	2168.80
819.09	2326.49
819.26	2306.01
819.43	2121.70
819.60	2142.18
819.78	2334.68
819.95	2265.05
820.12	2062.30
820.29	2432.99
820.47	2260.96
820.64	2056.16
820.81	2056.16
820.98	2125.79
821.15	2179.04
821.33	2217.95
821.50	2066.40
821.67	2203.61
821.84	2236.38
822.02	2285.53
822.19	2322.40
822.36	2125.79
822.53	2115.55
822.70	2185.18
822.88	2170.85
823.05	2297.82
823.22	2150.37
823.39	2203.61
823.56	2162.66
823.74	2351.07
823.91	2201.57
824.08	2084.83
824.25	2127.84
824.42	2369.50
824.60	2158.56
824.77	2209.76
824.94	2207.71
825.11	2281.44
825.28	2060.26
825.45	2203.61
825.63	2250.72
825.80	2176.99
825.97	2203.61
826.14	2191.33
826.31	2056.16
826.48	2201.57
826.66	2111.46
826.83	2095.07
827.00	2191.33
827.17	2039.78
827.34	2162.66
827.51	2133.98
827.69	2129.89
827.86	2097.12
828.03	2172.89
828.20	2179.04
828.37	2129.89
828.54	2269.15
828.71	2066.40
828.89	2289.63
829.06	2176.99
829.23	2424.80
829.40	2068.45
829.57	2148.32
829.74	2291.68
829.91	2084.83
830.09	2154.46
830.26	2250.72
830.43	2295.77
830.60	2220.00
830.77	2207.71
830.94	2281.44
831.11	2285.53
831.28	2201.57
831.46	2320.35
831.63	2146.27
831.80	2240.48
831.97	2107.36
832.14	2187.23
832.31	2330.59
832.48	2201.57
832.65	2291.68
832.82	2154.46
832.99	2166.75
833.17	1982.43
833.34	2383.84
833.51	2203.61
833.68	1986.53
833.85	2353.12
834.02	2074.59
834.19	2058.21
834.36	2121.70
834.53	2203.61
834.70	2226.14
834.87	2129.89
835.04	2117.60
835.22	2150.37
835.39	2181.09
835.56	2015.20
835.73	2097.12
835.90	2301.92
836.07	2082.78
836.24	2293.72
836.41	2127.84
836.58	2064.35
836.75	2277.34
836.92	2211.81
837.09	2054.11
837.26	2250.72
837.43	2279.39
837.60	2140.13
837.77	2158.56
837.94	2246.62
838.12	2228.19
838.29	2140.13
838.46	2127.84
838.63	2047.97
838.80	2398.17
838.97	2248.67
839.14	2181.09
839.31	2179.04
839.48	2215.90
839.65	2152.42
839.82	2217.95
839.99	2160.61
840.16	2152.42
840.33	2095.07
840.50	2158.56
840.67	2140.13
840.84	1990.63
841.01	2131.94
841.18	2125.79
841.35	2195.42
841.52	2275.29
841.69	2387.93
841.86	2209.76
842.03	2217.95
842.20	2205.66
842.37	2144.22
842.54	2052.06
842.71	2133.98
842.88	2062.30
843.05	2197.47
843.22	2174.94
843.39	2207.71
843.56	2105.31
843.73	2076.64
843.90	2142.18
844.07	2121.70
844.24	2291.68
844.41	2170.85
844.58	2154.46
844.75	2193.37
844.92	2226.14
845.09	2213.85
845.26	2086.88
845.43	2260.96
845.60	2152.42
845.77	2250.72
845.94	2181.09
846.10	2310.11
846.27	2125.79
846.44	2088.93
846.61	2019.30
846.78	2181.09
846.95	2265.05
847.12	2142.18
847.29	2084.83
847.46	2113.50
847.63	2287.58
847.80	2080.74
847.97	2144.22
848.14	2412.51
848.31	2115.55
848.48	2121.70
848.65	2220.00
848.82	2193.37
848.98	2471.90
849.15	2260.96
849.32	2287.58
849.49	2265.05
849.66	2217.95
849.83	2150.37
850.00	2086.88
850.17	2236.38
850.34	2250.72
850.51	2050.02
850.68	2113.50
850.85	2369.50
851.01	2273.25
851.18	2205.66
851.35	2136.03
851.52	2160.61
851.69	2269.15
851.86	2095.07
852.03	2170.85
852.20	2283.49
852.37	2144.22
852.53	2039.78
852.70	2203.61
852.87	2254.81
853.04	2201.57
853.21	2148.32
853.38	2297.82
853.55	2351.07
853.72	2381.79
853.89	2080.74
854.05	2056.16
854.22	2224.09
854.39	2228.19
854.56	2154.46
854.73	2326.49
854.90	2131.94
855.07	2152.42
855.23	2154.46
855.40	2220.00
855.57	2125.79
855.74	2013.15
855.91	2369.50
856.08	2072.54
856.25	2072.54
856.41	2148.32
856.58	2170.85
856.75	2113.50
856.92	2074.59
857.09	2277.34
857.26	2088.93
857.42	2127.84
857.59	2215.90
857.76	2109.41
857.93	2107.36
858.10	2228.19
858.27	2062.30
858.43	2174.94
858.60	2148.32
858.77	2043.87
858.94	2105.31
859.11	2275.29
859.27	2150.37
859.44	2117.60
859.61	2424.80
859.78	2234.33
859.95	2111.46
860.12	2115.55
860.28	2306.01
860.45	2396.12
860.62	2052.06
860.79	2168.80
860.95	2193.37
861.12	2050.02
861.29	2140.13
861.46	2093.02
861.63	2152.42
861.79	2207.71
861.96	2023.39
862.13	2095.07
862.30	2281.44
862.47	2121.70
862.63	2084.83
862.80	2224.09
862.97	2277.34
863.14	2254.81
863.30	2220.00
863.47	2187.23
863.64	2312.16
863.81	2234.33
863.97	2138.08
864.14	2230.24
864.31	2152.42
864.48	2168.80
864.65	2140.13
864.81	2209.76
864.98	2193.37
865.15	2344.92
865.32	2191.33
865.48	2244.57
865.65	2297.82
865.82	2105.31
865.98	2252.77
866.15	2181.09
866.32	2181.09
866.49	2125.79
866.65	2201.57
866.82	2084.83
866.99	2170.85
867.16	2119.65
867.32	2072.54
867.49	2125.79
867.66	2162.66
867.83	2099.17
867.99	2045.92
868.16	2154.46
868.33	2070.50
868.49	2129.89
868.66	2199.52
868.83	2275.29
868.99	2236.38
869.16	2197.47
869.33	2277.34
869.50	2193.37
869.66	2279.39
869.83	2150.37
870.00	2015.20
870.16	2187.23
870.33	2117.60
870.50	2260.96
870.66	2181.09
870.83	2308.06
871.00	2170.85
871.17	2273.25
871.33	2267.10
871.50	2156.51
871.67	2242.53
871.83	2179.04
872.00	2334.68
872.17	2101.22
872.33	2338.78
872.50	2267.10
872.67	2138.08
872.83	2197.47
873.00	2215.90
873.17	2217.95
873.33	2179.04
873.50	2189.28
873.67	2123.74
873.83	2097.12
874.00	2213.85
874.16	2273.25
874.33	2205.66
874.50	2123.74
874.66	2140.13
874.83	2250.72
875.00	2228.19
875.16	2273.25
875.33	2310.11
875.50	1968.10
875.66	2144.22
875.83	2209.76
875.99	2224.09
876.16	2166.75
876.33	2119.65
876.49	2170.85
876.66	2201.57
876.83	2127.84
876.99	2088.93
877.16	2174.94
877.32	2179.04
877.49	2162.66
877.66	2195.42
877.82	2346.97
877.99	2201.57
878.15	2301.92
878.32	2232.29
878.49	2220.00
878.65	2146.27
878.82	2258.91
878.98	2097.12
879.15	2283.49
879.32	2236.38
879.48	2248.67
879.65	2197.47
879.81	2115.55
879.98	2099.17
880.15	2183.13
880.31	2236.38
880.48	2090.98
880.64	2246.62
880.81	2066.40
880.97	2269.15
881.14	2244.57
881.31	2113.50
881.47	2379.74
881.64	2133.98
881.80	2047.97
881.97	2207.71
882.13	2144.22
882.30	1990.63
882.47	2144.22
882.63	2095.07
882.80	2113.50
882.96	2101.22
883.13	2254.81
883.29	2176.99
883.46	2144.22
883.62	2293.72
883.79	2260.96
883.95	2254.81
884.12	2201.57
884.29	2306.01
884.45	2158.56
884.62	2228.19
884.78	2138.08
884.95	2308.06
885.11	2103.26
885.28	2109.41
885.44	2162.66
885.61	2220.00
885.77	2279.39
885.94	2211.81
886.10	2211.81
886.27	2144.22
886.43	2293.72
886.60	2211.81
886.76	2183.13
886.93	2080.74
887.09	2148.32
887.26	2070.50
887.42	2197.47
887.59	2260.96
887.75	2426.84
887.92	2275.29
888.08	2258.91
888.25	2430.94
888.41	2260.96
888.58	2187.23
888.74	2154.46
888.91	2160.61
>>>>>End Processed Spectral Data<<<<<
