SpectraSuite Data File
++++++++++++++++++++++++++++++++++++
Date: Thu May 05 12:34:57 CEST 2016
User: root
Dark Spectrum Present: No
Reference Spectrum Present: No
Number of Sampled Component Spectra: 1
Spectrometers: USB4C02835
Integration Time (usec): 100000 (USB4C02835)
Spectra Averaged: 1 (USB4C02835)
Boxcar Smoothing: 0 (USB4C02835)
Correct for Electrical Dark: No (USB4C02835)
Strobe/Lamp Enabled: No (USB4C02835)
Correct for Detector Non-linearity: No (USB4C02835)
Correct for Stray Light: No (USB4C02835)
Number of Pixels in Processed Spectrum: 3648
>>>>>Begin Processed Spectral Data<<<<<
177.47	1755.11
177.69	1755.11
177.91	1755.11
178.13	1841.12
178.36	1677.29
178.58	2113.50
178.80	2242.53
179.02	2097.12
179.24	2111.46
179.46	2109.41
179.68	2232.29
179.90	2160.61
180.13	2211.81
180.35	1994.72
180.57	2133.98
180.79	2297.82
181.01	2244.57
181.23	2183.13
181.45	2224.09
181.67	2203.61
181.90	2279.39
182.12	2113.50
182.34	2039.78
182.56	2226.14
182.78	2308.06
183.00	2154.46
183.22	2209.76
183.44	2062.30
183.66	2435.03
183.89	2265.05
184.11	2136.03
184.33	2265.05
184.55	2310.11
184.77	2164.70
184.99	2066.40
185.21	2170.85
185.43	2379.74
185.65	2121.70
185.87	2105.31
186.10	2365.40
186.32	2447.32
186.54	2136.03
186.76	2168.80
186.98	2303.96
187.20	2205.66
187.42	2047.97
187.64	2146.27
187.86	2318.30
188.08	2234.33
188.30	2129.89
188.52	2127.84
188.75	2332.64
188.97	2310.11
189.19	2039.78
189.41	2050.02
189.63	2244.57
189.85	2107.36
190.07	2025.44
190.29	1986.53
190.51	2258.91
190.73	2093.02
190.95	2166.75
191.17	2138.08
191.39	2101.22
191.61	2144.22
191.84	2074.59
192.06	2166.75
192.28	2103.26
192.50	2506.71
192.72	2162.66
192.94	2189.28
193.16	2226.14
193.38	2162.66
193.60	2062.30
193.82	2174.94
194.04	2283.49
194.26	2187.23
194.48	2136.03
194.70	2078.69
194.92	2166.75
195.14	2267.10
195.36	2056.16
195.58	2123.74
195.80	2138.08
196.02	2019.30
196.24	2101.22
196.46	2152.42
196.69	2101.22
196.91	2439.13
197.13	2113.50
197.35	2154.46
197.57	2318.30
197.79	2244.57
198.01	2170.85
198.23	2199.52
198.45	2224.09
198.67	2162.66
198.89	2056.16
199.11	2113.50
199.33	2078.69
199.55	2017.25
199.77	2062.30
199.99	2289.63
200.21	2240.48
200.43	2174.94
200.65	2023.39
200.87	1953.76
201.09	2185.18
201.31	2170.85
201.53	2260.96
201.75	2197.47
201.97	2185.18
202.19	2170.85
202.41	2242.53
202.63	2252.77
202.85	2193.37
203.07	2244.57
203.29	2172.89
203.51	2027.49
203.73	2037.73
203.95	2486.23
204.17	2136.03
204.39	2166.75
204.61	2228.19
204.83	2146.27
205.05	2236.38
205.27	2217.95
205.49	2330.59
205.71	2176.99
205.93	2064.35
206.15	2043.87
206.37	2193.37
206.59	2146.27
206.81	2033.63
207.03	2045.92
207.25	2115.55
207.47	2281.44
207.69	2117.60
207.91	2297.82
208.13	2277.34
208.34	2144.22
208.56	2039.78
208.78	2099.17
209.00	2166.75
209.22	2119.65
209.44	2154.46
209.66	2084.83
209.88	2158.56
210.10	2148.32
210.32	2103.26
210.54	2215.90
210.76	2185.18
210.98	2338.78
211.20	2017.25
211.42	2166.75
211.64	2316.25
211.86	2160.61
212.08	2138.08
212.30	2256.86
212.52	2148.32
212.74	2189.28
212.96	2119.65
213.17	2174.94
213.39	2258.91
213.61	2250.72
213.83	2199.52
214.05	2205.66
214.27	2336.73
214.49	2176.99
214.71	2107.36
214.93	2230.24
215.15	2185.18
215.37	2336.73
215.59	2109.41
215.81	2222.05
216.03	2260.96
216.24	2181.09
216.46	2154.46
216.68	2265.05
216.90	2220.00
217.12	2338.78
217.34	2170.85
217.56	2220.00
217.78	2340.83
218.00	2301.92
218.22	2187.23
218.44	2176.99
218.66	2142.18
218.87	2346.97
219.09	2105.31
219.31	2168.80
219.53	2250.72
219.75	2203.61
219.97	2123.74
220.19	2170.85
220.41	2131.94
220.63	2271.20
220.85	2136.03
221.06	2076.64
221.28	2344.92
221.50	2301.92
221.72	2181.09
221.94	2146.27
222.16	2232.29
222.38	2297.82
222.60	2148.32
222.82	2140.13
223.03	2197.47
223.25	2056.16
223.47	2187.23
223.69	2285.53
223.91	2220.00
224.13	2234.33
224.35	2072.54
224.57	2224.09
224.78	2248.67
225.00	2111.46
225.22	2148.32
225.44	2107.36
225.66	2234.33
225.88	2142.18
226.10	2211.81
226.32	2152.42
226.53	2303.96
226.75	2193.37
226.97	2129.89
227.19	2080.74
227.41	2045.92
227.63	2115.55
227.85	2050.02
228.06	2138.08
228.28	2138.08
228.50	2379.74
228.72	2062.30
228.94	2140.13
229.16	2097.12
229.37	2080.74
229.59	2086.88
229.81	2275.29
230.03	2109.41
230.25	2084.83
230.47	2105.31
230.69	2082.78
230.90	2308.06
231.12	2144.22
231.34	2127.84
231.56	2226.14
231.78	2086.88
232.00	2265.05
232.21	2119.65
232.43	2109.41
232.65	2013.15
232.87	2273.25
233.09	2121.70
233.30	2162.66
233.52	2301.92
233.74	2183.13
233.96	2215.90
234.18	2152.42
234.40	2111.46
234.61	2430.94
234.83	1974.24
235.05	2000.87
235.27	2373.60
235.49	2334.68
235.70	2113.50
235.92	2228.19
236.14	2207.71
236.36	2375.64
236.58	1972.19
236.79	2203.61
237.01	2183.13
237.23	2201.57
237.45	2357.21
237.67	2103.26
237.88	2174.94
238.10	2316.25
238.32	2056.16
238.54	2052.06
238.76	2217.95
238.97	2023.39
239.19	2064.35
239.41	2244.57
239.63	2277.34
239.85	2125.79
240.06	2111.46
240.28	2101.22
240.50	2248.67
240.72	2230.24
240.93	2103.26
241.15	2226.14
241.37	2240.48
241.59	2332.64
241.81	2154.46
242.02	2154.46
242.24	2240.48
242.46	2269.15
242.68	2070.50
242.89	2123.74
243.11	2228.19
243.33	2203.61
243.55	2113.50
243.76	2152.42
243.98	2113.50
244.20	2136.03
244.42	2093.02
244.64	2164.70
244.85	2117.60
245.07	2037.73
245.29	2189.28
245.51	2154.46
245.72	2310.11
245.94	2256.86
246.16	2133.98
246.38	2174.94
246.59	2187.23
246.81	2101.22
247.03	2138.08
247.24	2013.15
247.46	2170.85
247.68	2148.32
247.90	2129.89
248.11	2095.07
248.33	2287.58
248.55	2191.33
248.77	2103.26
248.98	2140.13
249.20	2332.64
249.42	2213.85
249.64	2199.52
249.85	2119.65
250.07	2170.85
250.29	2273.25
250.50	2148.32
250.72	2113.50
250.94	2250.72
251.16	2318.30
251.37	2146.27
251.59	2211.81
251.81	2138.08
252.02	2338.78
252.24	2119.65
252.46	2308.06
252.68	2160.61
252.89	2115.55
253.11	2029.54
253.33	2213.85
253.54	2273.25
253.76	2058.21
253.98	2152.42
254.20	2041.82
254.41	2011.11
254.63	2179.04
254.85	2004.96
255.06	2244.57
255.28	2240.48
255.50	2115.55
255.71	2113.50
255.93	2076.64
256.15	2136.03
256.36	2244.57
256.58	2119.65
256.80	2144.22
257.02	2123.74
257.23	2117.60
257.45	2138.08
257.67	2154.46
257.88	2125.79
258.10	2220.00
258.32	2203.61
258.53	2146.27
258.75	2283.49
258.97	2129.89
259.18	2133.98
259.40	2131.94
259.62	2301.92
259.83	2301.92
260.05	2115.55
260.27	2572.25
260.48	2277.34
260.70	2144.22
260.92	2146.27
261.13	2127.84
261.35	2170.85
261.57	2258.91
261.78	2013.15
262.00	2125.79
262.22	2166.75
262.43	2136.03
262.65	2088.93
262.86	2158.56
263.08	2469.85
263.30	2248.67
263.51	2056.16
263.73	2115.55
263.95	2287.58
264.16	2056.16
264.38	2056.16
264.60	2154.46
264.81	2215.90
265.03	2324.44
265.25	2217.95
265.46	2109.41
265.68	2338.78
265.89	2260.96
266.11	2062.30
266.33	2170.85
266.54	2312.16
266.76	2238.43
266.98	2168.80
267.19	2301.92
267.41	2252.77
267.62	2199.52
267.84	2064.35
268.06	2215.90
268.27	2240.48
268.49	2273.25
268.70	2224.09
268.92	2140.13
269.14	2107.36
269.35	2068.45
269.57	2103.26
269.79	2150.37
270.00	2113.50
270.22	2365.40
270.43	2103.26
270.65	1964.00
270.87	2244.57
271.08	2285.53
271.30	2220.00
271.51	2156.51
271.73	2226.14
271.95	2240.48
272.16	2131.94
272.38	2199.52
272.59	2138.08
272.81	2230.24
273.02	2111.46
273.24	2121.70
273.46	2338.78
273.67	2123.74
273.89	2078.69
274.10	2076.64
274.32	2338.78
274.54	2187.23
274.75	2226.14
274.97	2105.31
275.18	2283.49
275.40	2320.35
275.61	2201.57
275.83	2226.14
276.05	2064.35
276.26	2189.28
276.48	2154.46
276.69	2097.12
276.91	2097.12
277.12	2359.26
277.34	2226.14
277.55	2252.77
277.77	2211.81
277.99	2166.75
278.20	2082.78
278.42	2027.49
278.63	2152.42
278.85	2097.12
279.06	2007.01
279.28	2220.00
279.49	2236.38
279.71	2318.30
279.93	2252.77
280.14	2131.94
280.36	2220.00
280.57	2254.81
280.79	2244.57
281.00	2060.26
281.22	2105.31
281.43	2244.57
281.65	1947.62
281.86	2158.56
282.08	2160.61
282.29	2340.83
282.51	2111.46
282.73	2035.68
282.94	2027.49
283.16	2260.96
283.37	2293.72
283.59	2115.55
283.80	2195.42
284.02	2174.94
284.23	2199.52
284.45	2119.65
284.66	2078.69
284.88	2154.46
285.09	2230.24
285.31	2228.19
285.52	2244.57
285.74	2066.40
285.95	2211.81
286.17	2185.18
286.38	2306.01
286.60	2140.13
286.81	2052.06
287.03	2211.81
287.24	2152.42
287.46	2293.72
287.67	2195.42
287.89	2308.06
288.10	2193.37
288.32	2211.81
288.53	2308.06
288.75	2179.04
288.96	2279.39
289.18	2166.75
289.39	2162.66
289.61	2224.09
289.82	2443.23
290.04	2283.49
290.25	2082.78
290.47	2197.47
290.68	2201.57
290.90	2322.40
291.11	2047.97
291.33	2242.53
291.54	2170.85
291.76	2158.56
291.97	2166.75
292.18	2093.02
292.40	2068.45
292.61	2078.69
292.83	2359.26
293.04	2152.42
293.26	2238.43
293.47	2193.37
293.69	2121.70
293.90	2172.89
294.12	2283.49
294.33	2187.23
294.55	2162.66
294.76	2312.16
294.97	2283.49
295.19	2383.84
295.40	2179.04
295.62	2211.81
295.83	2215.90
296.05	2121.70
296.26	2316.25
296.48	2076.64
296.69	2211.81
296.90	2170.85
297.12	2260.96
297.33	2357.21
297.55	2224.09
297.76	2168.80
297.98	2242.53
298.19	2179.04
298.41	2187.23
298.62	2095.07
298.83	2297.82
299.05	2242.53
299.26	2144.22
299.48	2093.02
299.69	2162.66
299.90	2179.04
300.12	2136.03
300.33	2222.05
300.55	2250.72
300.76	2148.32
300.98	2084.83
301.19	2299.87
301.40	2133.98
301.62	2117.60
301.83	2308.06
302.05	2199.52
302.26	2152.42
302.47	2125.79
302.69	2064.35
302.90	2211.81
303.12	1953.76
303.33	2250.72
303.54	2430.94
303.76	2090.98
303.97	2174.94
304.19	2365.40
304.40	2144.22
304.61	2199.52
304.83	2297.82
305.04	2263.01
305.26	2279.39
305.47	2211.81
305.68	2136.03
305.90	2078.69
306.11	2273.25
306.33	2144.22
306.54	2113.50
306.75	2181.09
306.97	2045.92
307.18	2148.32
307.39	2193.37
307.61	2220.00
307.82	2107.36
308.04	2328.54
308.25	2138.08
308.46	2234.33
308.68	2152.42
308.89	2242.53
309.10	2291.68
309.32	2228.19
309.53	2197.47
309.74	2297.82
309.96	2187.23
310.17	2291.68
310.39	2121.70
310.60	2162.66
310.81	2152.42
311.03	2105.31
311.24	2267.10
311.45	2228.19
311.67	2316.25
311.88	2172.89
312.09	2113.50
312.31	2131.94
312.52	2136.03
312.73	2213.85
312.95	2054.11
313.16	2127.84
313.37	2291.68
313.59	2246.62
313.80	2320.35
314.01	2322.40
314.23	2133.98
314.44	2080.74
314.65	2113.50
314.87	2111.46
315.08	2129.89
315.29	2117.60
315.51	2107.36
315.72	2086.88
315.93	2408.41
316.15	2179.04
316.36	2183.13
316.57	2158.56
316.79	2168.80
317.00	2086.88
317.21	2226.14
317.43	2148.32
317.64	2222.05
317.85	2179.04
318.07	2093.02
318.28	2142.18
318.49	2355.16
318.70	2535.39
318.92	2424.80
319.13	2457.56
319.34	2506.71
319.56	2238.43
319.77	2361.31
319.98	2371.55
320.20	2242.53
320.41	2318.30
320.62	2269.15
320.83	2121.70
321.05	2385.88
321.26	2158.56
321.47	2146.27
321.69	2293.72
321.90	2101.22
322.11	2084.83
322.32	2205.66
322.54	2361.31
322.75	2115.55
322.96	2439.13
323.18	2054.11
323.39	2011.11
323.60	2084.83
323.81	2199.52
324.03	2127.84
324.24	2093.02
324.45	2191.33
324.66	2152.42
324.88	2224.09
325.09	2310.11
325.30	2174.94
325.52	2189.28
325.73	2236.38
325.94	2072.54
326.15	2047.97
326.37	2056.16
326.58	2258.91
326.79	2254.81
327.00	2084.83
327.22	2193.37
327.43	2164.70
327.64	2176.99
327.85	2250.72
328.07	2172.89
328.28	2293.72
328.49	2150.37
328.70	2174.94
328.92	2215.90
329.13	2185.18
329.34	2201.57
329.55	2310.11
329.76	2289.63
329.98	2162.66
330.19	2361.31
330.40	2201.57
330.61	2244.57
330.83	2242.53
331.04	2113.50
331.25	2138.08
331.46	2150.37
331.68	2117.60
331.89	2271.20
332.10	2172.89
332.31	2007.01
332.52	2166.75
332.74	2318.30
332.95	2125.79
333.16	2187.23
333.37	2285.53
333.58	2119.65
333.80	2179.04
334.01	2004.96
334.22	2176.99
334.43	2099.17
334.64	2086.88
334.86	2121.70
335.07	2113.50
335.28	2396.12
335.49	2031.58
335.70	2215.90
335.92	2285.53
336.13	2422.75
336.34	2185.18
336.55	2117.60
336.76	2191.33
336.98	1978.34
337.19	2144.22
337.40	2301.92
337.61	2461.66
337.82	2150.37
338.04	2234.33
338.25	2070.50
338.46	2113.50
338.67	2099.17
338.88	2127.84
339.09	2080.74
339.31	2047.97
339.52	2088.93
339.73	2080.74
339.94	2209.76
340.15	2291.68
340.36	2189.28
340.58	2162.66
340.79	2140.13
341.00	2342.88
341.21	2054.11
341.42	2383.84
341.63	2088.93
341.85	2244.57
342.06	2263.01
342.27	2070.50
342.48	2226.14
342.69	1957.86
342.90	2260.96
343.12	2326.49
343.33	2176.99
343.54	2242.53
343.75	2277.34
343.96	2197.47
344.17	2119.65
344.38	2230.24
344.60	2117.60
344.81	2105.31
345.02	2209.76
345.23	2371.55
345.44	2488.28
345.65	2310.11
345.86	2244.57
346.07	2232.29
346.29	2121.70
346.50	2263.01
346.71	2172.89
346.92	2359.26
347.13	2496.47
347.34	2113.50
347.55	2146.27
347.76	2211.81
347.98	2082.78
348.19	2152.42
348.40	2346.97
348.61	2099.17
348.82	2367.45
349.03	2193.37
349.24	2138.08
349.45	2445.27
349.66	2009.06
349.88	2127.84
350.09	2136.03
350.30	2289.63
350.51	2314.20
350.72	2174.94
350.93	2244.57
351.14	2154.46
351.35	2209.76
351.56	2123.74
351.77	2185.18
351.99	2236.38
352.20	2383.84
352.41	2318.30
352.62	2058.21
352.83	2138.08
353.04	2224.09
353.25	2199.52
353.46	2179.04
353.67	2301.92
353.88	1986.53
354.09	2260.96
354.30	2232.29
354.52	2267.10
354.73	2187.23
354.94	2123.74
355.15	2160.61
355.36	2396.12
355.57	2144.22
355.78	2211.81
355.99	2199.52
356.20	2209.76
356.41	2287.58
356.62	2240.48
356.83	2148.32
357.04	2332.64
357.25	2027.49
357.46	2129.89
357.68	2062.30
357.89	2097.12
358.10	2197.47
358.31	2154.46
358.52	2146.27
358.73	2123.74
358.94	2113.50
359.15	2095.07
359.36	2193.37
359.57	2154.46
359.78	2166.75
359.99	2277.34
360.20	2138.08
360.41	2172.89
360.62	2260.96
360.83	2203.61
361.04	2228.19
361.25	2162.66
361.46	2326.49
361.67	2252.77
361.88	2185.18
362.09	2242.53
362.30	2281.44
362.51	2109.41
362.72	2209.76
362.93	2260.96
363.14	2312.16
363.35	2150.37
363.56	2140.13
363.78	2283.49
363.99	2293.72
364.20	2164.70
364.41	2199.52
364.62	2439.13
364.83	2244.57
365.04	2146.27
365.25	2207.71
365.46	2394.08
365.67	2138.08
365.88	2201.57
366.09	2150.37
366.30	2105.31
366.51	2267.10
366.72	2127.84
366.93	2119.65
367.14	2170.85
367.35	2441.18
367.56	2242.53
367.77	2191.33
367.98	2138.08
368.18	2269.15
368.39	2254.81
368.60	2072.54
368.81	2236.38
369.02	2260.96
369.23	2179.04
369.44	2072.54
369.65	2084.83
369.86	2168.80
370.07	2236.38
370.28	2097.12
370.49	2230.24
370.70	2195.42
370.91	2133.98
371.12	2076.64
371.33	2310.11
371.54	2123.74
371.75	2418.65
371.96	1925.09
372.17	2201.57
372.38	2158.56
372.59	2195.42
372.80	2115.55
373.01	2129.89
373.22	2267.10
373.43	2203.61
373.64	2060.26
373.85	2349.02
374.06	2330.59
374.26	2217.95
374.47	2166.75
374.68	2334.68
374.89	2191.33
375.10	2146.27
375.31	2217.95
375.52	2142.18
375.73	2213.85
375.94	2119.65
376.15	2367.45
376.36	2174.94
376.57	2150.37
376.78	2136.03
376.99	2158.56
377.20	2351.07
377.40	2140.13
377.61	2291.68
377.82	2121.70
378.03	2320.35
378.24	2287.58
378.45	2125.79
378.66	2183.13
378.87	2039.78
379.08	2086.88
379.29	2078.69
379.50	2342.88
379.71	2199.52
379.91	2277.34
380.12	2113.50
380.33	2138.08
380.54	2230.24
380.75	2168.80
380.96	2140.13
381.17	2273.25
381.38	2150.37
381.59	2349.02
381.80	2287.58
382.00	2367.45
382.21	2250.72
382.42	2531.29
382.63	2426.84
382.84	2217.95
383.05	2236.38
383.26	2326.49
383.47	2203.61
383.68	2269.15
383.88	2226.14
384.09	2191.33
384.30	2283.49
384.51	2318.30
384.72	2105.31
384.93	2144.22
385.14	2232.29
385.35	2326.49
385.55	2064.35
385.76	2404.32
385.97	2209.76
386.18	2105.31
386.39	2107.36
386.60	2193.37
386.81	2174.94
387.02	2068.45
387.22	2072.54
387.43	2275.29
387.64	2285.53
387.85	2404.32
388.06	2441.18
388.27	4188.10
388.48	8490.88
388.68	12273.48
388.89	14843.68
389.10	15740.69
389.31	14757.66
389.52	11407.19
389.73	10084.20
389.93	8998.77
390.14	8185.73
390.35	7526.29
390.56	6543.26
390.77	5390.25
390.98	4118.47
391.18	3303.37
391.39	2711.51
391.60	2394.08
391.81	2359.26
392.02	2271.20
392.23	2375.64
392.43	2316.25
392.64	2363.36
392.85	2203.61
393.06	2383.84
393.27	2240.48
393.47	2162.66
393.68	2183.13
393.89	2242.53
394.10	2320.35
394.31	2209.76
394.52	2109.41
394.72	2191.33
394.93	2242.53
395.14	2179.04
395.35	2283.49
395.56	2140.13
395.76	2193.37
395.97	2207.71
396.18	2351.07
396.39	2310.11
396.60	2611.16
396.80	2414.56
397.01	2424.80
397.22	2414.56
397.43	2279.39
397.64	2152.42
397.84	2297.82
398.05	2449.37
398.26	2285.53
398.47	2293.72
398.67	2322.40
398.88	2228.19
399.09	2275.29
399.30	2156.51
399.51	2213.85
399.71	2179.04
399.92	2154.46
400.13	2158.56
400.34	2158.56
400.54	2156.51
400.75	2293.72
400.96	2293.72
401.17	2346.97
401.37	2226.14
401.58	2191.33
401.79	2187.23
402.00	2404.32
402.21	2605.02
402.41	2541.53
402.62	2551.77
402.83	2643.93
403.04	2609.11
403.24	2725.85
403.45	2359.26
403.66	2463.71
403.87	2379.74
404.07	2512.86
404.28	2523.10
404.49	2375.64
404.70	2314.20
404.90	2314.20
405.11	2240.48
405.32	2289.63
405.52	2103.26
405.73	2193.37
405.94	2007.01
406.15	2191.33
406.35	2404.32
406.56	2176.99
406.77	2301.92
406.98	2222.05
407.18	2121.70
407.39	2430.94
407.60	2179.04
407.80	2179.04
408.01	2232.29
408.22	2260.96
408.43	2160.61
408.63	2260.96
408.84	2334.68
409.05	2318.30
409.25	2201.57
409.46	2172.89
409.67	2162.66
409.88	2154.46
410.08	2174.94
410.29	2176.99
410.50	2291.68
410.70	2232.29
410.91	2138.08
411.12	2199.52
411.32	2211.81
411.53	2109.41
411.74	2265.05
411.95	2256.86
412.15	2217.95
412.36	2310.11
412.57	2267.10
412.77	2408.41
412.98	2230.24
413.19	2232.29
413.39	2201.57
413.60	2256.86
413.81	2351.07
414.01	2093.02
414.22	2248.67
414.43	2246.62
414.63	2152.42
414.84	2342.88
415.05	2232.29
415.25	1996.77
415.46	2230.24
415.67	2183.13
415.87	2220.00
416.08	2176.99
416.29	2201.57
416.49	2189.28
416.70	2131.94
416.91	2199.52
417.11	2129.89
417.32	2273.25
417.53	2324.44
417.73	2248.67
417.94	2205.66
418.15	2256.86
418.35	2170.85
418.56	2242.53
418.77	2435.03
418.97	2275.29
419.18	2220.00
419.38	2056.16
419.59	2142.18
419.80	2336.73
420.00	2203.61
420.21	2215.90
420.42	2318.30
420.62	2154.46
420.83	2136.03
421.04	2172.89
421.24	2283.49
421.45	2322.40
421.65	2228.19
421.86	2189.28
422.07	2355.16
422.27	2263.01
422.48	2158.56
422.69	2095.07
422.89	2170.85
423.10	2172.89
423.30	2066.40
423.51	2220.00
423.72	2252.77
423.92	2236.38
424.13	2047.97
424.33	2207.71
424.54	2271.20
424.75	2205.66
424.95	2432.99
425.16	2203.61
425.36	2142.18
425.57	2297.82
425.78	2224.09
425.98	2310.11
426.19	2236.38
426.39	2129.89
426.60	2232.29
426.81	2287.58
427.01	2203.61
427.22	2152.42
427.42	2076.64
427.63	2133.98
427.83	2320.35
428.04	2396.12
428.25	2265.05
428.45	2277.34
428.66	2258.91
428.86	2230.24
429.07	2185.18
429.28	2189.28
429.48	2267.10
429.69	2058.21
429.89	2205.66
430.10	2099.17
430.30	2207.71
430.51	2244.57
430.71	2136.03
430.92	2260.96
431.13	2088.93
431.33	2291.68
431.54	2197.47
431.74	2310.11
431.95	2392.03
432.15	2113.50
432.36	2269.15
432.56	2246.62
432.77	2383.84
432.98	2330.59
433.18	2197.47
433.39	2101.22
433.59	2174.94
433.80	2381.79
434.00	2359.26
434.21	2168.80
434.41	2201.57
434.62	2426.84
434.82	2056.16
435.03	2136.03
435.23	2222.05
435.44	2043.87
435.64	2213.85
435.85	2240.48
436.06	2277.34
436.26	2179.04
436.47	2240.48
436.67	2115.55
436.88	2174.94
437.08	2365.40
437.29	2371.55
437.49	2191.33
437.70	2318.30
437.90	2174.94
438.11	2338.78
438.31	2232.29
438.52	2334.68
438.72	2369.50
438.93	2514.91
439.13	2320.35
439.34	2338.78
439.54	2152.42
439.75	2326.49
439.95	2363.36
440.16	2207.71
440.36	2220.00
440.57	2217.95
440.77	2185.18
440.98	2207.71
441.18	2283.49
441.39	2211.81
441.59	2125.79
441.80	2355.16
442.00	2183.13
442.21	2281.44
442.41	2144.22
442.62	2363.36
442.82	2136.03
443.02	2236.38
443.23	2215.90
443.43	2166.75
443.64	2355.16
443.84	2258.91
444.05	2381.79
444.25	2314.20
444.46	2140.13
444.66	2129.89
444.87	2342.88
445.07	2025.44
445.28	2176.99
445.48	2334.68
445.69	2267.10
445.89	2426.84
446.09	2250.72
446.30	2553.82
446.50	2766.81
446.71	4358.08
446.91	5656.49
447.12	6365.09
447.32	6862.74
447.53	6258.59
447.73	5115.83
447.93	4636.60
448.14	4292.54
448.34	4081.60
448.55	3676.10
448.75	3557.32
448.96	3473.36
449.16	3006.42
449.36	2807.77
449.57	2514.91
449.77	2340.83
449.98	2226.14
450.18	2250.72
450.39	2318.30
450.59	2281.44
450.79	2279.39
451.00	2234.33
451.20	2322.40
451.41	2252.77
451.61	2287.58
451.81	2146.27
452.02	2244.57
452.22	2187.23
452.43	2189.28
452.63	2160.61
452.84	2209.76
453.04	2146.27
453.24	2256.86
453.45	2162.66
453.65	2148.32
453.86	2203.61
454.06	2226.14
454.26	2303.96
454.47	2129.89
454.67	2279.39
454.87	2281.44
455.08	2183.13
455.28	2314.20
455.49	2252.77
455.69	2113.50
455.89	2396.12
456.10	2283.49
456.30	2123.74
456.51	2260.96
456.71	2330.59
456.91	2183.13
457.12	2136.03
457.32	2228.19
457.52	2099.17
457.73	2256.86
457.93	2279.39
458.14	2172.89
458.34	2027.49
458.54	2187.23
458.75	2146.27
458.95	2269.15
459.15	2146.27
459.36	2322.40
459.56	2146.27
459.76	2367.45
459.97	2228.19
460.17	2179.04
460.37	2324.44
460.58	2275.29
460.78	2299.87
460.99	2113.50
461.19	2265.05
461.39	2170.85
461.60	2189.28
461.80	2256.86
462.00	2117.60
462.21	2277.34
462.41	2154.46
462.61	2103.26
462.82	2054.11
463.02	2269.15
463.22	2254.81
463.43	2189.28
463.63	2240.48
463.83	2285.53
464.04	2244.57
464.24	2174.94
464.44	2095.07
464.64	2211.81
464.85	2228.19
465.05	2281.44
465.25	2215.90
465.46	2201.57
465.66	2297.82
465.86	2275.29
466.07	2191.33
466.27	2168.80
466.47	2111.46
466.68	2050.02
466.88	2346.97
467.08	2254.81
467.29	2287.58
467.49	2234.33
467.69	2191.33
467.89	2240.48
468.10	2252.77
468.30	2281.44
468.50	2285.53
468.71	2402.27
468.91	2113.50
469.11	2367.45
469.31	2238.43
469.52	2164.70
469.72	2377.69
469.92	2367.45
470.13	2211.81
470.33	2252.77
470.53	2299.87
470.73	2652.12
470.94	3059.67
471.14	3278.80
471.34	3684.30
471.54	3430.35
471.75	3080.14
471.95	2895.83
472.15	2768.85
472.36	2815.96
472.56	2701.27
472.76	2725.85
472.96	2609.11
473.17	2578.39
473.37	2484.19
473.57	2250.72
473.77	2314.20
473.98	2279.39
474.18	2201.57
474.38	2514.91
474.58	2226.14
474.79	2103.26
474.99	2248.67
475.19	2265.05
475.39	2154.46
475.60	2193.37
475.80	2144.22
476.00	2277.34
476.20	2142.18
476.41	2207.71
476.61	2275.29
476.81	2424.80
477.01	2131.94
477.21	2367.45
477.42	2340.83
477.62	2176.99
477.82	2299.87
478.02	2181.09
478.23	2265.05
478.43	2031.58
478.63	2170.85
478.83	2183.13
479.03	2146.27
479.24	2320.35
479.44	2355.16
479.64	2111.46
479.84	2031.58
480.04	2113.50
480.25	2263.01
480.45	2162.66
480.65	2195.42
480.85	2338.78
481.06	2142.18
481.26	2236.38
481.46	2181.09
481.66	2195.42
481.86	2090.98
482.06	2265.05
482.27	2222.05
482.47	2156.51
482.67	2252.77
482.87	2080.74
483.07	2330.59
483.28	2189.28
483.48	2127.84
483.68	2256.86
483.88	2113.50
484.08	2031.58
484.29	2093.02
484.49	2166.75
484.69	2109.41
484.89	2361.31
485.09	2285.53
485.29	2260.96
485.50	2240.48
485.70	2258.91
485.90	2426.84
486.10	2269.15
486.30	2179.04
486.50	2308.06
486.71	2260.96
486.91	2285.53
487.11	2283.49
487.31	2074.59
487.51	2291.68
487.71	2101.22
487.91	2080.74
488.12	2138.08
488.32	1964.00
488.52	2166.75
488.72	1966.05
488.92	2242.53
489.12	2271.20
489.32	2326.49
489.53	2232.29
489.73	2113.50
489.93	2308.06
490.13	2187.23
490.33	2121.70
490.53	2205.66
490.73	2326.49
490.94	2045.92
491.14	2334.68
491.34	2281.44
491.54	2510.81
491.74	3131.34
491.94	3784.65
492.14	4153.28
492.34	4075.46
492.54	3846.09
492.75	3264.46
492.95	3205.07
493.15	2924.50
493.35	2906.07
493.55	2858.96
493.75	2596.82
493.95	2703.32
494.15	2539.48
494.35	2346.97
494.56	2244.57
494.76	2263.01
494.96	2244.57
495.16	2209.76
495.36	2256.86
495.56	2222.05
495.76	2121.70
495.96	2066.40
496.16	2115.55
496.36	2353.12
496.56	2242.53
496.77	2260.96
496.97	2174.94
497.17	2312.16
497.37	2076.64
497.57	2281.44
497.77	2248.67
497.97	2162.66
498.17	2185.18
498.37	2164.70
498.57	2258.91
498.77	2187.23
498.97	2326.49
499.17	2400.22
499.38	2252.77
499.58	2299.87
499.78	2273.25
499.98	2357.21
500.18	2166.75
500.38	2127.84
500.58	2379.74
500.78	2953.17
500.98	5193.65
501.18	7321.49
501.38	9049.97
501.58	9985.90
501.78	9840.49
501.98	7788.43
502.18	6485.92
502.38	5521.32
502.58	5210.03
502.78	4767.67
502.98	4521.92
503.18	4286.40
503.38	4026.31
503.59	3471.31
503.79	3213.26
503.99	3045.33
504.19	2834.39
504.39	2914.26
504.59	2994.13
504.79	2912.21
504.99	2824.15
505.19	2611.16
505.39	2435.03
505.59	2666.46
505.79	2523.10
505.99	2420.70
506.19	2316.25
506.39	2453.47
506.59	2150.37
506.79	2256.86
506.99	2367.45
507.19	2226.14
507.39	2269.15
507.59	2090.98
507.79	2260.96
507.99	2154.46
508.19	2211.81
508.39	2195.42
508.59	2211.81
508.79	2351.07
508.99	2455.51
509.19	2172.89
509.39	2363.36
509.59	2150.37
509.79	2230.24
509.99	2150.37
510.19	2338.78
510.39	2336.73
510.59	2138.08
510.79	2232.29
510.99	2047.97
511.19	2160.61
511.39	2334.68
511.59	2324.44
511.79	2367.45
511.99	2256.86
512.19	2383.84
512.38	2195.42
512.58	2174.94
512.78	2154.46
512.98	2297.82
513.18	2459.61
513.38	2133.98
513.58	2240.48
513.78	2201.57
513.98	2166.75
514.18	2222.05
514.38	2158.56
514.58	2285.53
514.78	2156.51
514.98	2146.27
515.18	2148.32
515.38	2072.54
515.58	2408.41
515.78	2113.50
515.98	2224.09
516.18	2301.92
516.38	2162.66
516.57	2232.29
516.77	2156.51
516.97	2244.57
517.17	2142.18
517.37	2009.06
517.57	2279.39
517.77	2285.53
517.97	2162.66
518.17	2228.19
518.37	2095.07
518.57	2144.22
518.77	2144.22
518.97	2183.13
519.16	2160.61
519.36	2367.45
519.56	2193.37
519.76	2203.61
519.96	2193.37
520.16	2342.88
520.36	2162.66
520.56	2340.83
520.76	2066.40
520.96	2224.09
521.16	2322.40
521.35	2318.30
521.55	2334.68
521.75	2207.71
521.95	2121.70
522.15	2121.70
522.35	2021.35
522.55	2174.94
522.75	2308.06
522.95	2146.27
523.14	2054.11
523.34	2203.61
523.54	2224.09
523.74	2201.57
523.94	2209.76
524.14	2109.41
524.34	2271.20
524.54	2303.96
524.73	2160.61
524.93	2252.77
525.13	2211.81
525.33	2033.63
525.53	2459.61
525.73	2326.49
525.93	2211.81
526.13	2207.71
526.32	2154.46
526.52	2267.10
526.72	2293.72
526.92	2228.19
527.12	2156.51
527.32	2021.35
527.52	2293.72
527.71	2244.57
527.91	2195.42
528.11	2119.65
528.31	2181.09
528.51	2152.42
528.71	2242.53
528.90	2252.77
529.10	2299.87
529.30	2203.61
529.50	2047.97
529.70	2150.37
529.90	2172.89
530.09	2168.80
530.29	2121.70
530.49	2166.75
530.69	2478.04
530.89	2260.96
531.09	2295.77
531.28	2113.50
531.48	2285.53
531.68	2181.09
531.88	2205.66
532.08	2334.68
532.28	2152.42
532.47	2301.92
532.67	2295.77
532.87	2312.16
533.07	2183.13
533.27	2291.68
533.46	2301.92
533.66	2209.76
533.86	2260.96
534.06	2260.96
534.26	2283.49
534.45	2211.81
534.65	2334.68
534.85	2250.72
535.05	2142.18
535.25	2349.02
535.44	2068.45
535.64	2263.01
535.84	2144.22
536.04	2205.66
536.24	2162.66
536.43	2162.66
536.63	2265.05
536.83	2209.76
537.03	2187.23
537.22	2031.58
537.42	2123.74
537.62	2176.99
537.82	2183.13
538.02	2330.59
538.21	2322.40
538.41	2549.72
538.61	2303.96
538.81	2230.24
539.00	2301.92
539.20	2047.97
539.40	2183.13
539.60	2174.94
539.79	2199.52
539.99	2158.56
540.19	2138.08
540.39	2228.19
540.58	2205.66
540.78	2385.88
540.98	2193.37
541.18	2308.06
541.37	2301.92
541.57	2256.86
541.77	2211.81
541.97	2117.60
542.16	2068.45
542.36	2125.79
542.56	2152.42
542.76	2416.60
542.95	2277.34
543.15	2281.44
543.35	2254.81
543.54	2220.00
543.74	2127.84
543.94	2293.72
544.14	2119.65
544.33	2234.33
544.53	2172.89
544.73	2172.89
544.93	2197.47
545.12	2105.31
545.32	2160.61
545.52	2191.33
545.71	2080.74
545.91	2127.84
546.11	2121.70
546.30	2185.18
546.50	2195.42
546.70	2236.38
546.90	2197.47
547.09	2099.17
547.29	2203.61
547.49	2293.72
547.68	2166.75
547.88	2115.55
548.08	2283.49
548.27	2701.27
548.47	2129.89
548.67	2191.33
548.87	2164.70
549.06	2172.89
549.26	2291.68
549.46	2258.91
549.65	2289.63
549.85	2201.57
550.05	2195.42
550.24	2043.87
550.44	2220.00
550.64	2179.04
550.83	2160.61
551.03	2349.02
551.23	2287.58
551.42	2146.27
551.62	2131.94
551.82	2203.61
552.01	2189.28
552.21	2326.49
552.41	2295.77
552.60	2359.26
552.80	2297.82
553.00	2154.46
553.19	2238.43
553.39	2355.16
553.59	2060.26
553.78	2281.44
553.98	2170.85
554.17	2162.66
554.37	2240.48
554.57	2301.92
554.76	2050.02
554.96	2127.84
555.16	2236.38
555.35	2224.09
555.55	2269.15
555.75	2195.42
555.94	2269.15
556.14	2093.02
556.33	2144.22
556.53	2230.24
556.73	2195.42
556.92	2301.92
557.12	2336.73
557.32	2416.60
557.51	2367.45
557.71	2230.24
557.90	2324.44
558.10	2328.54
558.30	2203.61
558.49	2285.53
558.69	2162.66
558.88	2289.63
559.08	2222.05
559.28	2258.91
559.47	2201.57
559.67	2301.92
559.86	2336.73
560.06	2197.47
560.26	2179.04
560.45	2232.29
560.65	2195.42
560.84	2293.72
561.04	2152.42
561.24	2246.62
561.43	2136.03
561.63	2432.99
561.82	2207.71
562.02	2209.76
562.22	2140.13
562.41	2109.41
562.61	2191.33
562.80	2082.78
563.00	2404.32
563.19	2193.37
563.39	2236.38
563.59	2258.91
563.78	2095.07
563.98	2076.64
564.17	2054.11
564.37	2107.36
564.56	2199.52
564.76	2078.69
564.96	2293.72
565.15	2162.66
565.35	2400.22
565.54	2164.70
565.74	2220.00
565.93	2310.11
566.13	2228.19
566.32	2242.53
566.52	2260.96
566.71	2293.72
566.91	2316.25
567.11	2301.92
567.30	2166.75
567.50	2228.19
567.69	2211.81
567.89	2148.32
568.08	2152.42
568.28	2181.09
568.47	2127.84
568.67	2267.10
568.86	2181.09
569.06	2310.11
569.25	2146.27
569.45	2054.11
569.64	2166.75
569.84	2174.94
570.04	2228.19
570.23	2185.18
570.43	2074.59
570.62	2256.86
570.82	2330.59
571.01	2207.71
571.21	2097.12
571.40	2144.22
571.60	2336.73
571.79	2228.19
571.99	2148.32
572.18	2117.60
572.38	2281.44
572.57	2156.51
572.77	2187.23
572.96	2502.62
573.16	2263.01
573.35	2199.52
573.55	2342.88
573.74	2267.10
573.94	2187.23
574.13	2127.84
574.33	2242.53
574.52	2387.93
574.71	2244.57
574.91	2248.67
575.10	2131.94
575.30	2211.81
575.49	2179.04
575.69	2170.85
575.88	2326.49
576.08	2193.37
576.27	2379.74
576.47	2293.72
576.66	2432.99
576.86	2383.84
577.05	2316.25
577.25	2265.05
577.44	2406.36
577.64	2113.50
577.83	2344.92
578.02	2252.77
578.22	2351.07
578.41	2365.40
578.61	2248.67
578.80	2080.74
579.00	2197.47
579.19	2187.23
579.39	2355.16
579.58	2289.63
579.77	2217.95
579.97	2385.88
580.16	2263.01
580.36	2336.73
580.55	2269.15
580.75	2326.49
580.94	2279.39
581.13	2334.68
581.33	2430.94
581.52	2303.96
581.72	2475.99
581.91	2322.40
582.11	2242.53
582.30	2351.07
582.49	2285.53
582.69	2355.16
582.88	2258.91
583.08	2248.67
583.27	2340.83
583.47	2187.23
583.66	2136.03
583.85	2191.33
584.05	2150.37
584.24	2310.11
584.44	2248.67
584.63	2379.74
584.82	2375.64
585.02	2424.80
585.21	2392.03
585.41	2490.33
585.60	2367.45
585.79	2457.56
585.99	2400.22
586.18	2361.31
586.37	2910.16
586.57	4513.72
586.76	13283.13
586.96	32310.80
587.15	46310.72
587.34	55678.13
587.54	60757.09
587.73	55725.23
587.93	39493.03
588.12	29941.30
588.31	23795.35
588.51	20680.39
588.70	19123.93
588.89	17336.06
589.09	15224.60
589.28	13145.91
589.47	10475.36
589.67	8376.19
589.86	6363.04
590.06	4577.21
590.25	3923.91
590.44	3190.74
590.64	2803.67
590.83	2615.26
591.02	2523.10
591.22	2367.45
591.41	2355.16
591.60	2228.19
591.80	2504.67
591.99	2166.75
592.18	2281.44
592.38	2359.26
592.57	2187.23
592.76	2299.87
592.96	2226.14
593.15	2260.96
593.34	2279.39
593.54	2248.67
593.73	2299.87
593.92	2340.83
594.12	2369.50
594.31	2318.30
594.50	2447.32
594.70	2342.88
594.89	2535.39
595.08	2183.13
595.28	2312.16
595.47	2516.95
595.66	2342.88
595.86	2142.18
596.05	2244.57
596.24	2222.05
596.43	2396.12
596.63	2260.96
596.82	2310.11
597.01	2387.93
597.21	2424.80
597.40	2244.57
597.59	2187.23
597.79	2271.20
597.98	2346.97
598.17	2158.56
598.36	2193.37
598.56	2365.40
598.75	2185.18
598.94	2330.59
599.14	2213.85
599.33	2220.00
599.52	2314.20
599.71	2240.48
599.91	2312.16
600.10	2332.64
600.29	2199.52
600.48	2349.02
600.68	2242.53
600.87	2230.24
601.06	2144.22
601.26	2240.48
601.45	2322.40
601.64	2211.81
601.83	2326.49
602.03	2183.13
602.22	2125.79
602.41	2326.49
602.60	2392.03
602.80	2324.44
602.99	2306.01
603.18	2230.24
603.37	2242.53
603.57	2281.44
603.76	2185.18
603.95	2277.34
604.14	2185.18
604.34	2144.22
604.53	2267.10
604.72	2121.70
604.91	2281.44
605.10	2205.66
605.30	2086.88
605.49	2432.99
605.68	2330.59
605.87	2181.09
606.07	2082.78
606.26	2303.96
606.45	2256.86
606.64	2273.25
606.84	2045.92
607.03	2250.72
607.22	2349.02
607.41	2269.15
607.60	2197.47
607.80	2349.02
607.99	2293.72
608.18	2211.81
608.37	2203.61
608.56	2220.00
608.76	2420.70
608.95	2428.89
609.14	2256.86
609.33	2424.80
609.52	2516.95
609.72	2371.55
609.91	2404.32
610.10	2281.44
610.29	2441.18
610.48	2295.77
610.68	2215.90
610.87	2256.86
611.06	2344.92
611.25	2113.50
611.44	2283.49
611.63	2129.89
611.83	2400.22
612.02	2187.23
612.21	2281.44
612.40	2027.49
612.59	2125.79
612.79	2160.61
612.98	2119.65
613.17	2400.22
613.36	2170.85
613.55	2392.03
613.74	2277.34
613.93	2349.02
614.13	2467.80
614.32	2512.86
614.51	2455.51
614.70	2314.20
614.89	2252.77
615.08	2312.16
615.28	2709.46
615.47	2213.85
615.66	2365.40
615.85	2301.92
616.04	2449.37
616.23	2320.35
616.42	2355.16
616.62	2265.05
616.81	2256.86
617.00	2232.29
617.19	2324.44
617.38	2283.49
617.57	2195.42
617.76	2328.54
617.95	2312.16
618.15	2263.01
618.34	2408.41
618.53	2125.79
618.72	2265.05
618.91	2336.73
619.10	2338.78
619.29	2244.57
619.48	2224.09
619.68	2170.85
619.87	2131.94
620.06	2076.64
620.25	2271.20
620.44	2195.42
620.63	2207.71
620.82	2228.19
621.01	2281.44
621.20	2176.99
621.39	2236.38
621.59	2310.11
621.78	2308.06
621.97	2230.24
622.16	2236.38
622.35	2228.19
622.54	2326.49
622.73	2324.44
622.92	2133.98
623.11	2295.77
623.30	2148.32
623.49	2318.30
623.68	2170.85
623.88	2357.21
624.07	2240.48
624.26	2217.95
624.45	2271.20
624.64	2187.23
624.83	2285.53
625.02	2246.62
625.21	2183.13
625.40	2310.11
625.59	2326.49
625.78	2240.48
625.97	2277.34
626.16	2383.84
626.35	2375.64
626.54	2330.59
626.74	2435.03
626.93	2254.81
627.12	2263.01
627.31	2336.73
627.50	2281.44
627.69	2334.68
627.88	2185.18
628.07	2152.42
628.26	2105.31
628.45	2187.23
628.64	2179.04
628.83	2174.94
629.02	2170.85
629.21	2258.91
629.40	2308.06
629.59	2138.08
629.78	2148.32
629.97	2258.91
630.16	2189.28
630.35	2162.66
630.54	2146.27
630.73	2185.18
630.92	2293.72
631.11	2078.69
631.30	2187.23
631.49	2373.60
631.68	2220.00
631.87	2254.81
632.06	2144.22
632.25	2422.75
632.44	2271.20
632.63	2287.58
632.82	2232.29
633.01	2258.91
633.20	2361.31
633.39	2330.59
633.58	2127.84
633.77	2353.12
633.96	2244.57
634.15	2326.49
634.34	2295.77
634.53	2285.53
634.72	2199.52
634.91	2123.74
635.10	2316.25
635.29	2283.49
635.48	2203.61
635.67	2185.18
635.86	2072.54
636.05	2369.50
636.24	2146.27
636.43	2199.52
636.62	2185.18
636.81	1959.91
637.00	2230.24
637.19	2244.57
637.38	2215.90
637.57	2215.90
637.76	2269.15
637.95	2371.55
638.14	2277.34
638.33	2365.40
638.52	2299.87
638.71	2133.98
638.89	2172.89
639.08	2430.94
639.27	2398.17
639.46	2416.60
639.65	2887.64
639.84	3012.56
640.03	3096.53
640.22	2930.64
640.41	3006.42
640.60	2594.78
640.79	2537.43
640.98	2463.71
641.17	2516.95
641.36	2416.60
641.55	2459.61
641.74	2209.76
641.92	2201.57
642.11	2283.49
642.30	2297.82
642.49	2179.04
642.68	2144.22
642.87	2250.72
643.06	2240.48
643.25	2121.70
643.44	2176.99
643.63	2103.26
643.82	2277.34
644.00	2133.98
644.19	2164.70
644.38	2105.31
644.57	2328.54
644.76	2256.86
644.95	2136.03
645.14	2215.90
645.33	2160.61
645.52	2201.57
645.71	2052.06
645.89	2076.64
646.08	2211.81
646.27	2217.95
646.46	2332.64
646.65	2111.46
646.84	2170.85
647.03	2027.49
647.22	2265.05
647.40	2176.99
647.59	2174.94
647.78	2025.44
647.97	2101.22
648.16	2131.94
648.35	2310.11
648.54	2275.29
648.73	2150.37
648.91	2248.67
649.10	2150.37
649.29	2084.83
649.48	2136.03
649.67	2248.67
649.86	2232.29
650.05	2287.58
650.23	2420.70
650.42	2314.20
650.61	2543.58
650.80	2445.27
650.99	2562.01
651.18	2406.36
651.36	2340.83
651.55	2234.33
651.74	2301.92
651.93	2269.15
652.12	2209.76
652.31	2191.33
652.49	2197.47
652.68	2226.14
652.87	2410.46
653.06	2256.86
653.25	2449.37
653.44	2220.00
653.62	2363.36
653.81	2187.23
654.00	2230.24
654.19	2244.57
654.38	2482.14
654.56	2254.81
654.75	2115.55
654.94	2314.20
655.13	2205.66
655.32	2187.23
655.51	2314.20
655.69	2121.70
655.88	2285.53
656.07	2074.59
656.26	2283.49
656.45	2164.70
656.63	2269.15
656.82	2209.76
657.01	2265.05
657.20	2105.31
657.38	2326.49
657.57	2170.85
657.76	2056.16
657.95	2291.68
658.14	2129.89
658.32	2174.94
658.51	2156.51
658.70	2254.81
658.89	2185.18
659.08	2193.37
659.26	2355.16
659.45	2162.66
659.64	2310.11
659.83	2193.37
660.01	2588.63
660.20	2316.25
660.39	2338.78
660.58	2068.45
660.76	2277.34
660.95	2113.50
661.14	2254.81
661.33	2035.68
661.51	2181.09
661.70	2140.13
661.89	2322.40
662.08	2156.51
662.26	2045.92
662.45	2095.07
662.64	2486.23
662.83	2281.44
663.01	2140.13
663.20	2258.91
663.39	2326.49
663.58	2228.19
663.76	2172.89
663.95	2289.63
664.14	2127.84
664.32	2058.21
664.51	2109.41
664.70	2078.69
664.89	2226.14
665.07	2166.75
665.26	2303.96
665.45	2220.00
665.64	2267.10
665.82	2172.89
666.01	2289.63
666.20	2093.02
666.38	2332.64
666.57	2353.12
666.76	3307.47
666.95	8056.71
667.13	16385.80
667.32	22091.44
667.51	25790.07
667.69	27840.09
667.88	25898.61
668.07	18271.98
668.25	14690.08
668.44	12042.06
668.63	10223.46
668.81	9183.09
669.00	8048.52
669.19	7042.96
669.38	6066.08
669.56	5257.14
669.75	4427.71
669.94	3778.50
670.12	3194.83
670.31	2815.96
670.50	2619.35
670.68	2502.62
670.87	2428.89
671.06	2365.40
671.24	2316.25
671.43	2510.81
671.62	2336.73
671.80	2320.35
671.99	2318.30
672.18	2220.00
672.36	2285.53
672.55	2209.76
672.74	2168.80
672.92	2232.29
673.11	2285.53
673.29	2056.16
673.48	2291.68
673.67	2213.85
673.85	2340.83
674.04	2166.75
674.23	2260.96
674.41	2359.26
674.60	2152.42
674.79	2093.02
674.97	2099.17
675.16	2244.57
675.34	2252.77
675.53	2109.41
675.72	2230.24
675.90	2308.06
676.09	2217.95
676.28	2242.53
676.46	2009.06
676.65	2303.96
676.83	2080.74
677.02	2326.49
677.21	2166.75
677.39	2234.33
677.58	2156.51
677.77	2170.85
677.95	2150.37
678.14	2174.94
678.32	2228.19
678.51	2156.51
678.70	2406.36
678.88	2228.19
679.07	2234.33
679.25	2232.29
679.44	2082.78
679.63	2097.12
679.81	2308.06
680.00	2260.96
680.18	2187.23
680.37	2322.40
680.55	2256.86
680.74	2170.85
680.93	2017.25
681.11	2293.72
681.30	2250.72
681.48	2183.13
681.67	2072.54
681.85	2168.80
682.04	2088.93
682.23	2369.50
682.41	2117.60
682.60	2160.61
682.78	2138.08
682.97	2154.46
683.15	2136.03
683.34	2228.19
683.53	2363.36
683.71	2013.15
683.90	2203.61
684.08	2326.49
684.27	2174.94
684.45	2250.72
684.64	2308.06
684.82	2232.29
685.01	2269.15
685.19	2095.07
685.38	2383.84
685.57	2185.18
685.75	2103.26
685.94	2113.50
686.12	2123.74
686.31	2146.27
686.49	2281.44
686.68	2045.92
686.86	2254.81
687.05	2213.85
687.23	2244.57
687.42	2121.70
687.60	2007.01
687.79	2342.88
687.97	2324.44
688.16	2351.07
688.34	2357.21
688.53	2039.78
688.71	2203.61
688.90	2314.20
689.08	2154.46
689.27	2043.87
689.45	2275.29
689.64	2226.14
689.82	2234.33
690.01	2217.95
690.19	2215.90
690.38	2160.61
690.56	2322.40
690.75	2076.64
690.93	2129.89
691.12	2152.42
691.30	2136.03
691.49	2150.37
691.67	2150.37
691.86	2387.93
692.04	2127.84
692.23	2254.81
692.41	2228.19
692.60	2564.06
692.78	2371.55
692.97	2297.82
693.15	2316.25
693.34	2385.88
693.52	2340.83
693.71	2250.72
693.89	2207.71
694.08	1984.48
694.26	2299.87
694.44	2349.02
694.63	2240.48
694.81	2095.07
695.00	2127.84
695.18	2342.88
695.37	2420.70
695.55	2248.67
695.74	2172.89
695.92	2088.93
696.10	2344.92
696.29	2015.20
696.47	2162.66
696.66	2074.59
696.84	2142.18
697.03	2156.51
697.21	2459.61
697.40	3192.78
697.58	2310.11
697.76	2230.24
697.95	2084.83
698.13	2043.87
698.32	2084.83
698.50	2207.71
698.68	2246.62
698.87	2285.53
699.05	2365.40
699.24	2217.95
699.42	2107.36
699.61	2267.10
699.79	2203.61
699.97	2299.87
700.16	2105.31
700.34	2039.78
700.53	2244.57
700.71	2295.77
700.89	2222.05
701.08	2133.98
701.26	2142.18
701.45	2707.41
701.63	2152.42
701.81	2244.57
702.00	2144.22
702.18	2185.18
702.37	2217.95
702.55	2447.32
702.73	2471.90
702.92	2365.40
703.10	2650.07
703.28	2521.05
703.47	2224.09
703.65	2445.27
703.84	2408.41
704.02	2283.49
704.20	2355.16
704.39	2234.33
704.57	2299.87
704.75	2349.02
704.94	2342.88
705.12	2236.38
705.30	2422.75
705.49	4618.17
705.67	11226.96
705.86	20553.41
706.04	24981.12
706.22	28538.44
706.41	29994.55
706.59	25611.90
706.77	18061.04
706.96	14946.08
707.14	13365.04
707.32	11245.40
707.51	10016.62
707.69	8363.90
707.87	6692.76
708.06	5265.33
708.24	4233.15
708.42	3307.47
708.61	3080.14
708.79	2449.37
708.97	2428.89
709.16	2351.07
709.34	2361.31
709.52	2248.67
709.71	2209.76
709.89	2306.01
710.07	2119.65
710.26	2234.33
710.44	2232.29
710.62	2318.30
710.80	2236.38
710.99	2318.30
711.17	2248.67
711.35	2166.75
711.54	2158.56
711.72	2224.09
711.90	2242.53
712.09	2185.18
712.27	2176.99
712.45	2252.77
712.63	2107.36
712.82	2246.62
713.00	2273.25
713.18	2260.96
713.37	2240.48
713.55	2224.09
713.73	2236.38
713.91	2285.53
714.10	2070.50
714.28	2187.23
714.46	2217.95
714.65	2265.05
714.83	2258.91
715.01	2140.13
715.19	2240.48
715.38	2088.93
715.56	2256.86
715.74	2133.98
715.92	2138.08
716.11	2330.59
716.29	2019.30
716.47	2203.61
716.65	2170.85
716.84	2131.94
717.02	2322.40
717.20	2109.41
717.38	2226.14
717.57	2160.61
717.75	2205.66
717.93	2133.98
718.11	2242.53
718.30	2187.23
718.48	2176.99
718.66	2346.97
718.84	2291.68
719.03	2146.27
719.21	2185.18
719.39	2381.79
719.57	2324.44
719.75	2246.62
719.94	2162.66
720.12	2174.94
720.30	2228.19
720.48	2299.87
720.67	2195.42
720.85	2119.65
721.03	2144.22
721.21	2076.64
721.39	2297.82
721.58	2285.53
721.76	2236.38
721.94	2211.81
722.12	2220.00
722.30	2340.83
722.49	2222.05
722.67	2121.70
722.85	2179.04
723.03	2142.18
723.21	2144.22
723.40	2246.62
723.58	2299.87
723.76	2252.77
723.94	2336.73
724.12	2260.96
724.30	2443.23
724.49	2400.22
724.67	2113.50
724.85	2424.80
725.03	2050.02
725.21	2312.16
725.40	2314.20
725.58	2203.61
725.76	2252.77
725.94	2250.72
726.12	2148.32
726.30	2226.14
726.49	2154.46
726.67	2174.94
726.85	2256.86
727.03	2500.57
727.21	3841.99
727.39	5572.52
727.57	6707.10
727.76	7233.43
727.94	7911.30
728.12	7505.81
728.30	6033.32
728.48	5199.79
728.66	4622.27
728.84	4212.67
729.03	3477.45
729.21	3209.17
729.39	2662.36
729.57	2506.71
729.75	2318.30
729.93	2324.44
730.11	2236.38
730.30	2121.70
730.48	2211.81
730.66	2316.25
730.84	2316.25
731.02	2162.66
731.20	2152.42
731.38	2156.51
731.56	2115.55
731.74	2060.26
731.93	2211.81
732.11	2242.53
732.29	2228.19
732.47	2129.89
732.65	2275.29
732.83	2334.68
733.01	2248.67
733.19	2154.46
733.37	2244.57
733.56	2281.44
733.74	2113.50
733.92	2289.63
734.10	2203.61
734.28	2283.49
734.46	2072.54
734.64	2285.53
734.82	2125.79
735.00	2158.56
735.18	2121.70
735.36	2236.38
735.54	2213.85
735.73	2244.57
735.91	2248.67
736.09	2265.05
736.27	2084.83
736.45	2205.66
736.63	2015.20
736.81	2168.80
736.99	2293.72
737.17	2306.01
737.35	2129.89
737.53	2203.61
737.71	2174.94
737.89	2357.21
738.07	2095.07
738.25	2088.93
738.43	2047.97
738.61	2224.09
738.80	2062.30
738.98	2146.27
739.16	2170.85
739.34	2150.37
739.52	2406.36
739.70	2207.71
739.88	2275.29
740.06	2318.30
740.24	2019.30
740.42	2314.20
740.60	2068.45
740.78	2127.84
740.96	2013.15
741.14	2195.42
741.32	2152.42
741.50	2105.31
741.68	2371.55
741.86	2287.58
742.04	2086.88
742.22	2058.21
742.40	2230.24
742.58	2209.76
742.76	2162.66
742.94	2236.38
743.12	2097.12
743.30	2250.72
743.48	2267.10
743.66	2158.56
743.84	2260.96
744.02	2170.85
744.20	2121.70
744.38	2127.84
744.56	2107.36
744.74	2383.84
744.92	2281.44
745.10	2351.07
745.28	2224.09
745.46	2351.07
745.64	2187.23
745.82	2220.00
746.00	2119.65
746.18	2211.81
746.36	2103.26
746.54	2133.98
746.72	2158.56
746.90	2136.03
747.08	2314.20
747.26	2158.56
747.44	2275.29
747.62	2285.53
747.80	2250.72
747.98	2291.68
748.15	2213.85
748.33	2410.46
748.51	2258.91
748.69	2275.29
748.87	2133.98
749.05	2183.13
749.23	2154.46
749.41	2316.25
749.59	2156.51
749.77	2320.35
749.95	2129.89
750.13	2109.41
750.31	2291.68
750.49	2179.04
750.67	2234.33
750.85	2385.88
751.03	2207.71
751.20	2373.60
751.38	2236.38
751.56	2142.18
751.74	2258.91
751.92	2156.51
752.10	2037.73
752.28	2250.72
752.46	2146.27
752.64	2187.23
752.82	2119.65
753.00	2316.25
753.18	2158.56
753.35	2113.50
753.53	2232.29
753.71	2109.41
753.89	2195.42
754.07	2273.25
754.25	2320.35
754.43	2162.66
754.61	2105.31
754.79	2252.77
754.97	2146.27
755.14	2310.11
755.32	2140.13
755.50	2146.27
755.68	2199.52
755.86	2127.84
756.04	2170.85
756.22	1953.76
756.40	2258.91
756.57	2435.03
756.75	2162.66
756.93	2301.92
757.11	2361.31
757.29	2101.22
757.47	2105.31
757.65	2095.07
757.82	2023.39
758.00	2138.08
758.18	2097.12
758.36	2136.03
758.54	2346.97
758.72	2107.36
758.90	2285.53
759.07	2271.20
759.25	2097.12
759.43	2220.00
759.61	2170.85
759.79	3086.29
759.97	2256.86
760.15	2158.56
760.32	2154.46
760.50	2242.53
760.68	2287.58
760.86	2095.07
761.04	2310.11
761.22	2207.71
761.39	2179.04
761.57	2232.29
761.75	2125.79
761.93	2179.04
762.11	2187.23
762.28	2129.89
762.46	2043.87
762.64	2291.68
762.82	2093.02
763.00	2195.42
763.18	2285.53
763.35	2025.44
763.53	2238.43
763.71	2183.13
763.89	2162.66
764.07	2179.04
764.24	2289.63
764.42	2256.86
764.60	2133.98
764.78	2195.42
764.96	2293.72
765.13	2234.33
765.31	2179.04
765.49	2201.57
765.67	2088.93
765.84	2129.89
766.02	2105.31
766.20	2070.50
766.38	2271.20
766.56	2220.00
766.73	2267.10
766.91	2136.03
767.09	2226.14
767.27	2291.68
767.44	2123.74
767.62	2209.76
767.80	2297.82
767.98	2146.27
768.15	2070.50
768.33	2303.96
768.51	2267.10
768.69	2250.72
768.87	2209.76
769.04	2117.60
769.22	2428.89
769.40	2287.58
769.58	2373.60
769.75	2119.65
769.93	2281.44
770.11	2211.81
770.28	2045.92
770.46	2277.34
770.64	2195.42
770.82	2136.03
770.99	2152.42
771.17	2242.53
771.35	2191.33
771.53	2129.89
771.70	2152.42
771.88	2254.81
772.06	2162.66
772.23	2209.76
772.41	2234.33
772.59	2224.09
772.77	2050.02
772.94	2170.85
773.12	2228.19
773.30	2052.06
773.47	2228.19
773.65	2166.75
773.83	2254.81
774.01	2191.33
774.18	2023.39
774.36	2127.84
774.54	2052.06
774.71	2195.42
774.89	2097.12
775.07	2156.51
775.24	2185.18
775.42	2148.32
775.60	2373.60
775.78	2109.41
775.95	2080.74
776.13	2052.06
776.31	2033.63
776.48	2197.47
776.66	2332.64
776.84	2179.04
777.01	2072.54
777.19	2158.56
777.37	2090.98
777.54	2166.75
777.72	2359.26
777.90	2187.23
778.07	2113.50
778.25	2475.99
778.43	2351.07
778.60	2125.79
778.78	2203.61
778.96	2373.60
779.13	2088.93
779.31	2211.81
779.49	2244.57
779.66	2244.57
779.84	2123.74
780.01	2097.12
780.19	2154.46
780.37	2328.54
780.54	2301.92
780.72	2086.88
780.90	2099.17
781.07	2170.85
781.25	2224.09
781.43	2355.16
781.60	2107.36
781.78	2279.39
781.95	2203.61
782.13	2160.61
782.31	2199.52
782.48	1970.15
782.66	2172.89
782.83	2316.25
783.01	2185.18
783.19	2320.35
783.36	2179.04
783.54	2072.54
783.72	2252.77
783.89	2168.80
784.07	2267.10
784.24	2240.48
784.42	2355.16
784.60	2168.80
784.77	2269.15
784.95	1929.19
785.12	2170.85
785.30	2179.04
785.47	2103.26
785.65	2076.64
785.83	2197.47
786.00	2146.27
786.18	2195.42
786.35	2103.26
786.53	2123.74
786.71	2293.72
786.88	2230.24
787.06	2236.38
787.23	2183.13
787.41	2103.26
787.58	2148.32
787.76	2168.80
787.94	2146.27
788.11	2256.86
788.29	2052.06
788.46	2123.74
788.64	2078.69
788.81	2072.54
788.99	2144.22
789.16	2123.74
789.34	2168.80
789.52	2140.13
789.69	2105.31
789.87	1994.72
790.04	2117.60
790.22	2228.19
790.39	2441.18
790.57	2113.50
790.74	2080.74
790.92	2326.49
791.09	2035.68
791.27	2179.04
791.44	2320.35
791.62	2224.09
791.79	2275.29
791.97	2187.23
792.15	2422.75
792.32	2236.38
792.50	2224.09
792.67	2293.72
792.85	2328.54
793.02	2179.04
793.20	2105.31
793.37	2072.54
793.55	2201.57
793.72	2088.93
793.90	2328.54
794.07	2072.54
794.25	2056.16
794.42	2217.95
794.60	2156.51
794.77	2232.29
794.95	2193.37
795.12	2301.92
795.30	2138.08
795.47	2029.54
795.65	2414.56
795.82	2168.80
796.00	2136.03
796.17	2154.46
796.34	2117.60
796.52	2181.09
796.69	2308.06
796.87	2295.77
797.04	2207.71
797.22	2252.77
797.39	2238.43
797.57	2244.57
797.74	2215.90
797.92	2213.85
798.09	2101.22
798.27	2244.57
798.44	2230.24
798.62	2103.26
798.79	2185.18
798.96	2293.72
799.14	2187.23
799.31	2396.12
799.49	2203.61
799.66	2084.83
799.84	2129.89
800.01	2097.12
800.19	2220.00
800.36	2002.91
800.53	2095.07
800.71	2240.48
800.88	2342.88
801.06	2103.26
801.23	2224.09
801.41	2162.66
801.58	2189.28
801.75	2162.66
801.93	2244.57
802.10	2306.01
802.28	2138.08
802.45	2105.31
802.63	2263.01
802.80	2332.64
802.97	2144.22
803.15	2234.33
803.32	2109.41
803.50	2099.17
803.67	2203.61
803.84	2095.07
804.02	2220.00
804.19	2146.27
804.37	1961.95
804.54	2146.27
804.71	2250.72
804.89	2203.61
805.06	2129.89
805.24	2109.41
805.41	2050.02
805.58	2133.98
805.76	2365.40
805.93	2170.85
806.10	2281.44
806.28	2283.49
806.45	2183.13
806.63	2183.13
806.80	2240.48
806.97	2142.18
807.15	2283.49
807.32	2185.18
807.49	2183.13
807.67	2035.68
807.84	2308.06
808.01	2009.06
808.19	2443.23
808.36	2400.22
808.54	2234.33
808.71	2109.41
808.88	2166.75
809.06	2326.49
809.23	2281.44
809.40	2123.74
809.58	2209.76
809.75	2187.23
809.92	2101.22
810.10	2357.21
810.27	2199.52
810.44	2267.10
810.62	2299.87
810.79	2174.94
810.96	2136.03
811.14	2076.64
811.31	2258.91
811.48	2256.86
811.66	2179.04
811.83	2244.57
812.00	2281.44
812.18	2220.00
812.35	2416.60
812.52	2168.80
812.69	2146.27
812.87	2117.60
813.04	2183.13
813.21	2211.81
813.39	2140.13
813.56	2121.70
813.73	2349.02
813.91	2021.35
814.08	2113.50
814.25	2269.15
814.42	2072.54
814.60	2215.90
814.77	2236.38
814.94	2224.09
815.12	2240.48
815.29	2310.11
815.46	2103.26
815.63	2189.28
815.81	2207.71
815.98	2195.42
816.15	2111.46
816.33	2203.61
816.50	2195.42
816.67	2131.94
816.84	2166.75
817.02	2047.97
817.19	2162.66
817.36	2174.94
817.53	2279.39
817.71	2138.08
817.88	2277.34
818.05	2181.09
818.22	2179.04
818.40	2373.60
818.57	2207.71
818.74	2203.61
818.91	2111.46
819.09	2277.34
819.26	2181.09
819.43	2072.54
819.60	2146.27
819.78	2275.29
819.95	2332.64
820.12	2072.54
820.29	2342.88
820.47	2328.54
820.64	2052.06
820.81	2029.54
820.98	2125.79
821.15	2152.42
821.33	2197.47
821.50	2043.87
821.67	2246.62
821.84	2187.23
822.02	2256.86
822.19	2349.02
822.36	2154.46
822.53	2136.03
822.70	2045.92
822.88	2076.64
823.05	2306.01
823.22	2236.38
823.39	2195.42
823.56	2148.32
823.74	2422.75
823.91	2088.93
824.08	1994.72
824.25	2117.60
824.42	2363.36
824.60	2084.83
824.77	2179.04
824.94	2205.66
825.11	2277.34
825.28	2093.02
825.45	2228.19
825.63	2179.04
825.80	2101.22
825.97	2228.19
826.14	2097.12
826.31	2045.92
826.48	2273.25
826.66	2232.29
826.83	2138.08
827.00	2193.37
827.17	2154.46
827.34	2244.57
827.51	2105.31
827.69	2179.04
827.86	2062.30
828.03	2150.37
828.20	2109.41
828.37	2154.46
828.54	2220.00
828.71	2101.22
828.89	2320.35
829.06	2183.13
829.23	2365.40
829.40	2181.09
829.57	2166.75
829.74	2197.47
829.91	2179.04
830.09	2088.93
830.26	2213.85
830.43	2299.87
830.60	2191.33
830.77	2254.81
830.94	2342.88
831.11	2256.86
831.28	2211.81
831.46	2238.43
831.63	2187.23
831.80	2349.02
831.97	2142.18
832.14	2244.57
832.31	2244.57
832.48	2234.33
832.65	2301.92
832.82	2189.28
832.99	2240.48
833.17	2215.90
833.34	2314.20
833.51	2199.52
833.68	2076.64
833.85	2197.47
834.02	2109.41
834.19	2027.49
834.36	2097.12
834.53	2234.33
834.70	2209.76
834.87	2230.24
835.04	2154.46
835.22	2123.74
835.39	2226.14
835.56	2164.70
835.73	2088.93
835.90	2312.16
836.07	2095.07
836.24	2156.51
836.41	2123.74
836.58	2140.13
836.75	2312.16
836.92	2193.37
837.09	2072.54
837.26	2271.20
837.43	2187.23
837.60	2183.13
837.77	2131.94
837.94	2265.05
838.12	2248.67
838.29	2211.81
838.46	2109.41
838.63	2101.22
838.80	2367.45
838.97	2193.37
839.14	2144.22
839.31	2248.67
839.48	2205.66
839.65	2183.13
839.82	2230.24
839.99	2193.37
840.16	2150.37
840.33	2076.64
840.50	2183.13
840.67	2140.13
840.84	2064.35
841.01	2072.54
841.18	2064.35
841.35	2217.95
841.52	2222.05
841.69	2392.03
841.86	2183.13
842.03	2189.28
842.20	2164.70
842.37	2152.42
842.54	2176.99
842.71	2129.89
842.88	2111.46
843.05	2267.10
843.22	2095.07
843.39	2168.80
843.56	2142.18
843.73	2121.70
843.90	2129.89
844.07	2174.94
844.24	2277.34
844.41	2170.85
844.58	2220.00
844.75	2154.46
844.92	2265.05
845.09	2179.04
845.26	2047.97
845.43	2217.95
845.60	2154.46
845.77	2250.72
845.94	2185.18
846.10	2226.14
846.27	2131.94
846.44	2070.50
846.61	2136.03
846.78	2207.71
846.95	2334.68
847.12	2119.65
847.29	2215.90
847.46	2133.98
847.63	2189.28
847.80	2101.22
847.97	2111.46
848.14	2383.84
848.31	2117.60
848.48	2011.11
848.65	2207.71
848.82	2131.94
848.98	2443.23
849.15	2236.38
849.32	2260.96
849.49	2293.72
849.66	2203.61
849.83	2140.13
850.00	2047.97
850.17	2236.38
850.34	2179.04
850.51	2086.88
850.68	2086.88
850.85	2377.69
851.01	2289.63
851.18	2168.80
851.35	2064.35
851.52	2297.82
851.69	2226.14
851.86	2064.35
852.03	2138.08
852.20	2250.72
852.37	2154.46
852.53	2039.78
852.70	2080.74
852.87	2176.99
853.04	2244.57
853.21	2193.37
853.38	2213.85
853.55	2273.25
853.72	2299.87
853.89	2039.78
854.05	2117.60
854.22	2191.33
854.39	2154.46
854.56	2228.19
854.73	2289.63
854.90	2207.71
855.07	2179.04
855.23	2162.66
855.40	2156.51
855.57	2123.74
855.74	2039.78
855.91	2445.27
856.08	2054.11
856.25	2007.01
856.41	2158.56
856.58	2121.70
856.75	2160.61
856.92	2076.64
857.09	2269.15
857.26	2088.93
857.42	2084.83
857.59	2324.44
857.76	2158.56
857.93	2138.08
858.10	2195.42
858.27	2082.78
858.43	2144.22
858.60	2197.47
858.77	2021.35
858.94	2146.27
859.11	2211.81
859.27	2133.98
859.44	2150.37
859.61	2351.07
859.78	2252.77
859.95	2148.32
860.12	2125.79
860.28	2422.75
860.45	2373.60
860.62	2074.59
860.79	2129.89
860.95	2136.03
861.12	2125.79
861.29	2074.59
861.46	2103.26
861.63	2201.57
861.79	2211.81
861.96	2041.82
862.13	2066.40
862.30	2326.49
862.47	2113.50
862.63	2086.88
862.80	2299.87
862.97	2234.33
863.14	2265.05
863.30	2172.89
863.47	2068.45
863.64	2351.07
863.81	2242.53
863.97	2115.55
864.14	2150.37
864.31	2183.13
864.48	2207.71
864.65	2152.42
864.81	2273.25
864.98	2199.52
865.15	2267.10
865.32	2205.66
865.48	2256.86
865.65	2346.97
865.82	2160.61
865.98	2197.47
866.15	2277.34
866.32	2148.32
866.49	2121.70
866.65	2203.61
866.82	2068.45
866.99	2179.04
867.16	2078.69
867.32	2150.37
867.49	2144.22
867.66	2199.52
867.83	2148.32
867.99	2052.06
868.16	2158.56
868.33	2025.44
868.49	2117.60
868.66	2168.80
868.83	2207.71
868.99	2291.68
869.16	2168.80
869.33	2277.34
869.50	2236.38
869.66	2150.37
869.83	2123.74
870.00	2031.58
870.16	2220.00
870.33	2185.18
870.50	2252.77
870.66	2172.89
870.83	2306.01
871.00	2189.28
871.17	2283.49
871.33	2142.18
871.50	2123.74
871.67	2144.22
871.83	2199.52
872.00	2289.63
872.17	2148.32
872.33	2326.49
872.50	2306.01
872.67	2131.94
872.83	2150.37
873.00	2220.00
873.17	2213.85
873.33	2170.85
873.50	2224.09
873.67	2076.64
873.83	2162.66
874.00	2121.70
874.16	2246.62
874.33	2240.48
874.50	2031.58
874.66	2160.61
874.83	2146.27
875.00	2308.06
875.16	2267.10
875.33	2283.49
875.50	1904.61
875.66	2164.70
875.83	2250.72
875.99	2267.10
876.16	2197.47
876.33	2072.54
876.49	2187.23
876.66	2217.95
876.83	2144.22
876.99	2084.83
877.16	2113.50
877.32	2113.50
877.49	2125.79
877.66	2224.09
877.82	2359.26
877.99	2136.03
878.15	2220.00
878.32	2195.42
878.49	2172.89
878.65	2148.32
878.82	2310.11
878.98	2121.70
879.15	2320.35
879.32	2209.76
879.48	2248.67
879.65	2265.05
879.81	2129.89
879.98	2019.30
880.15	2166.75
880.31	2217.95
880.48	2093.02
880.64	2207.71
880.81	2193.37
880.97	2334.68
881.14	2277.34
881.31	2109.41
881.47	2277.34
881.64	2039.78
881.80	2058.21
881.97	2260.96
882.13	2160.61
882.30	2070.50
882.47	2119.65
882.63	2138.08
882.80	2142.18
882.96	2129.89
883.13	2336.73
883.29	2138.08
883.46	2181.09
883.62	2375.64
883.79	2230.24
883.95	2342.88
884.12	2193.37
884.29	2250.72
884.45	2201.57
884.62	2185.18
884.78	2072.54
884.95	2344.92
885.11	2099.17
885.28	2234.33
885.44	2131.94
885.61	2260.96
885.77	2371.55
885.94	2154.46
886.10	2228.19
886.27	2281.44
886.43	2306.01
886.60	2246.62
886.76	2129.89
886.93	2064.35
887.09	2209.76
887.26	2062.30
887.42	2193.37
887.59	2357.21
887.75	2500.57
887.92	2244.57
888.08	2201.57
888.25	2414.56
888.41	2244.57
888.58	2185.18
888.74	2156.51
888.91	2123.74
>>>>>End Processed Spectral Data<<<<<
