SpectraSuite Data File
++++++++++++++++++++++++++++++++++++
Date: Thu May 05 12:35:02 CEST 2016
User: root
Dark Spectrum Present: No
Reference Spectrum Present: No
Number of Sampled Component Spectra: 1
Spectrometers: USB4C02835
Integration Time (usec): 100000 (USB4C02835)
Spectra Averaged: 1 (USB4C02835)
Boxcar Smoothing: 0 (USB4C02835)
Correct for Electrical Dark: No (USB4C02835)
Strobe/Lamp Enabled: No (USB4C02835)
Correct for Detector Non-linearity: No (USB4C02835)
Correct for Stray Light: No (USB4C02835)
Number of Pixels in Processed Spectrum: 3648
>>>>>Begin Processed Spectral Data<<<<<
177.47	1732.58
177.69	1732.58
177.91	1732.58
178.13	1740.77
178.36	1816.55
178.58	2080.74
178.80	2224.09
179.02	2123.74
179.24	2176.99
179.46	2146.27
179.68	2217.95
179.90	2111.46
180.13	2263.01
180.35	1990.63
180.57	2160.61
180.79	2263.01
181.01	2220.00
181.23	2140.13
181.45	2254.81
181.67	2299.87
181.90	2291.68
182.12	2125.79
182.34	2058.21
182.56	2224.09
182.78	2179.04
183.00	2164.70
183.22	2174.94
183.44	2031.58
183.66	2455.51
183.89	2248.67
184.11	2179.04
184.33	2260.96
184.55	2295.77
184.77	2150.37
184.99	2172.89
185.21	2101.22
185.43	2426.84
185.65	2105.31
185.87	2152.42
186.10	2463.71
186.32	2346.97
186.54	2240.48
186.76	2217.95
186.98	2254.81
187.20	2191.33
187.42	2131.94
187.64	2105.31
187.86	2263.01
188.08	2201.57
188.30	2129.89
188.52	2170.85
188.75	2303.96
188.97	2293.72
189.19	2138.08
189.41	2111.46
189.63	2211.81
189.85	2150.37
190.07	2070.50
190.29	2039.78
190.51	2176.99
190.73	2062.30
190.95	2203.61
191.17	2127.84
191.39	2152.42
191.61	2187.23
191.84	2039.78
192.06	2138.08
192.28	2031.58
192.50	2467.80
192.72	2244.57
192.94	2154.46
193.16	2248.67
193.38	2228.19
193.60	2007.01
193.82	2127.84
194.04	2285.53
194.26	2183.13
194.48	2142.18
194.70	2068.45
194.92	2197.47
195.14	2258.91
195.36	2162.66
195.58	2133.98
195.80	2101.22
196.02	2129.89
196.24	2076.64
196.46	2199.52
196.69	2140.13
196.91	2383.84
197.13	2076.64
197.35	2068.45
197.57	2355.16
197.79	2279.39
198.01	2209.76
198.23	2146.27
198.45	2211.81
198.67	2111.46
198.89	2043.87
199.11	2146.27
199.33	2185.18
199.55	2021.35
199.77	2080.74
199.99	2275.29
200.21	2123.74
200.43	2187.23
200.65	2088.93
200.87	1980.39
201.09	2156.51
201.31	2129.89
201.53	2183.13
201.75	2146.27
201.97	2185.18
202.19	2211.81
202.41	2189.28
202.63	2312.16
202.85	2226.14
203.07	2195.42
203.29	2068.45
203.51	2015.20
203.73	2111.46
203.95	2402.27
204.17	2207.71
204.39	2234.33
204.61	2170.85
204.83	2217.95
205.05	2277.34
205.27	2248.67
205.49	2310.11
205.71	2201.57
205.93	2029.54
206.15	2074.59
206.37	2220.00
206.59	2144.22
206.81	2068.45
207.03	2054.11
207.25	2039.78
207.47	2301.92
207.69	2109.41
207.91	2258.91
208.13	2359.26
208.34	2162.66
208.56	2058.21
208.78	2160.61
209.00	2129.89
209.22	2179.04
209.44	2176.99
209.66	2140.13
209.88	2154.46
210.10	2256.86
210.32	2170.85
210.54	2248.67
210.76	2158.56
210.98	2250.72
211.20	1986.53
211.42	2183.13
211.64	2344.92
211.86	2273.25
212.08	2156.51
212.30	2168.80
212.52	2193.37
212.74	2220.00
212.96	2154.46
213.17	2324.44
213.39	2285.53
213.61	2422.75
213.83	2172.89
214.05	2144.22
214.27	2346.97
214.49	2047.97
214.71	2103.26
214.93	2181.09
215.15	2207.71
215.37	2189.28
215.59	2023.39
215.81	2197.47
216.03	2281.44
216.24	2193.37
216.46	2152.42
216.68	2162.66
216.90	2279.39
217.12	2256.86
217.34	2095.07
217.56	2191.33
217.78	2279.39
218.00	2330.59
218.22	2131.94
218.44	2146.27
218.66	2187.23
218.87	2371.55
219.09	2031.58
219.31	2191.33
219.53	2203.61
219.75	2109.41
219.97	2121.70
220.19	2150.37
220.41	2187.23
220.63	2330.59
220.85	2187.23
221.06	2146.27
221.28	2283.49
221.50	2240.48
221.72	2095.07
221.94	2070.50
222.16	2211.81
222.38	2267.10
222.60	2156.51
222.82	2164.70
223.03	2269.15
223.25	2131.94
223.47	2168.80
223.69	2373.60
223.91	2287.58
224.13	2170.85
224.35	2109.41
224.57	2256.86
224.78	2187.23
225.00	2117.60
225.22	2119.65
225.44	2039.78
225.66	2193.37
225.88	2162.66
226.10	2217.95
226.32	2160.61
226.53	2439.13
226.75	2181.09
226.97	2191.33
227.19	2133.98
227.41	2121.70
227.63	2195.42
227.85	2031.58
228.06	2187.23
228.28	2197.47
228.50	2254.81
228.72	2047.97
228.94	2097.12
229.16	1949.67
229.37	2099.17
229.59	2105.31
229.81	2330.59
230.03	2138.08
230.25	2082.78
230.47	1978.34
230.69	1986.53
230.90	2318.30
231.12	2142.18
231.34	2127.84
231.56	2281.44
231.78	2088.93
232.00	2172.89
232.21	2193.37
232.43	2189.28
232.65	2035.68
232.87	2277.34
233.09	2070.50
233.30	2129.89
233.52	2316.25
233.74	2162.66
233.96	2086.88
234.18	2179.04
234.40	2195.42
234.61	2420.70
234.83	2047.97
235.05	2054.11
235.27	2453.47
235.49	2379.74
235.70	2045.92
235.92	2236.38
236.14	2250.72
236.36	2447.32
236.58	2056.16
236.79	2244.57
237.01	2121.70
237.23	2183.13
237.45	2250.72
237.67	2166.75
237.88	2207.71
238.10	2441.18
238.32	2105.31
238.54	2060.26
238.76	2160.61
238.97	2072.54
239.19	2146.27
239.41	2215.90
239.63	2248.67
239.85	2142.18
240.06	2136.03
240.28	2129.89
240.50	2263.01
240.72	2203.61
240.93	2224.09
241.15	2211.81
241.37	2226.14
241.59	2330.59
241.81	2086.88
242.02	2162.66
242.24	2238.43
242.46	2220.00
242.68	2078.69
242.89	2105.31
243.11	2310.11
243.33	2158.56
243.55	2179.04
243.76	2158.56
243.98	2185.18
244.20	2203.61
244.42	2179.04
244.64	2156.51
244.85	2004.96
245.07	2064.35
245.29	2158.56
245.51	2150.37
245.72	2172.89
245.94	2263.01
246.16	2158.56
246.38	2107.36
246.59	2158.56
246.81	2047.97
247.03	2052.06
247.24	2043.87
247.46	2121.70
247.68	2129.89
247.90	2035.68
248.11	2062.30
248.33	2224.09
248.55	2230.24
248.77	2170.85
248.98	2217.95
249.20	2389.98
249.42	2220.00
249.64	2172.89
249.85	2111.46
250.07	2113.50
250.29	2265.05
250.50	2168.80
250.72	2023.39
250.94	2199.52
251.16	2480.09
251.37	2228.19
251.59	2174.94
251.81	2185.18
252.02	2287.58
252.24	2129.89
252.46	2275.29
252.68	2133.98
252.89	2084.83
253.11	2041.82
253.33	2263.01
253.54	2326.49
253.76	2045.92
253.98	2136.03
254.20	2138.08
254.41	2037.73
254.63	2125.79
254.85	2062.30
255.06	2170.85
255.28	2316.25
255.50	2142.18
255.71	2121.70
255.93	2066.40
256.15	2187.23
256.36	2299.87
256.58	2117.60
256.80	2097.12
257.02	2209.76
257.23	2146.27
257.45	2226.14
257.67	2230.24
257.88	2152.42
258.10	2195.42
258.32	2105.31
258.53	2230.24
258.75	2367.45
258.97	2072.54
259.18	2111.46
259.40	2095.07
259.62	2346.97
259.83	2326.49
260.05	2164.70
260.27	2590.68
260.48	2252.77
260.70	2041.82
260.92	2066.40
261.13	2129.89
261.35	2195.42
261.57	2287.58
261.78	1949.67
262.00	2084.83
262.22	2146.27
262.43	2131.94
262.65	2088.93
262.86	2152.42
263.08	2396.12
263.30	2191.33
263.51	2074.59
263.73	2127.84
263.95	2326.49
264.16	2097.12
264.38	2064.35
264.60	2117.60
264.81	2158.56
265.03	2265.05
265.25	2275.29
265.46	2191.33
265.68	2322.40
265.89	2289.63
266.11	2041.82
266.33	2176.99
266.54	2308.06
266.76	2236.38
266.98	2138.08
267.19	2275.29
267.41	2301.92
267.62	2185.18
267.84	2076.64
268.06	2158.56
268.27	2195.42
268.49	2279.39
268.70	2176.99
268.92	2101.22
269.14	2056.16
269.35	2056.16
269.57	2166.75
269.79	2140.13
270.00	2174.94
270.22	2334.68
270.43	2088.93
270.65	1947.62
270.87	2213.85
271.08	2293.72
271.30	2111.46
271.51	2146.27
271.73	2265.05
271.95	2326.49
272.16	2150.37
272.38	2199.52
272.59	2226.14
272.81	2287.58
273.02	2138.08
273.24	2185.18
273.46	2277.34
273.67	2078.69
273.89	2037.73
274.10	2117.60
274.32	2371.55
274.54	2154.46
274.75	2105.31
274.97	2195.42
275.18	2217.95
275.40	2215.90
275.61	2109.41
275.83	2244.57
276.05	2146.27
276.26	2154.46
276.48	2224.09
276.69	2099.17
276.91	2129.89
277.12	2375.64
277.34	2326.49
277.55	2246.62
277.77	2146.27
277.99	2226.14
278.20	2111.46
278.42	2097.12
278.63	2133.98
278.85	2056.16
279.06	2084.83
279.28	2195.42
279.49	2236.38
279.71	2285.53
279.93	2234.33
280.14	2152.42
280.36	2095.07
280.57	2228.19
280.79	2215.90
281.00	2039.78
281.22	2115.55
281.43	2322.40
281.65	2000.87
281.86	2041.82
282.08	2287.58
282.29	2408.41
282.51	2101.22
282.73	2064.35
282.94	2105.31
283.16	2346.97
283.37	2326.49
283.59	2179.04
283.80	2252.77
284.02	2140.13
284.23	2166.75
284.45	2152.42
284.66	2117.60
284.88	2197.47
285.09	2168.80
285.31	2236.38
285.52	2164.70
285.74	2080.74
285.95	2203.61
286.17	2252.77
286.38	2256.86
286.60	2127.84
286.81	2101.22
287.03	2158.56
287.24	2242.53
287.46	2234.33
287.67	2195.42
287.89	2367.45
288.10	2129.89
288.32	2181.09
288.53	2320.35
288.75	2179.04
288.96	2312.16
289.18	2084.83
289.39	2119.65
289.61	2220.00
289.82	2359.26
290.04	2381.79
290.25	2136.03
290.47	2217.95
290.68	2217.95
290.90	2267.10
291.11	2047.97
291.33	2193.37
291.54	2138.08
291.76	2121.70
291.97	2273.25
292.18	2222.05
292.40	2152.42
292.61	2123.74
292.83	2394.08
293.04	2166.75
293.26	2258.91
293.47	2187.23
293.69	2142.18
293.90	2133.98
294.12	2301.92
294.33	2209.76
294.55	2215.90
294.76	2260.96
294.97	2285.53
295.19	2346.97
295.40	2242.53
295.62	2236.38
295.83	2295.77
296.05	2066.40
296.26	2271.20
296.48	2166.75
296.69	2168.80
296.90	2211.81
297.12	2232.29
297.33	2336.73
297.55	2205.66
297.76	2332.64
297.98	2244.57
298.19	2170.85
298.41	2199.52
298.62	2121.70
298.83	2299.87
299.05	2172.89
299.26	2183.13
299.48	2150.37
299.69	2230.24
299.90	2148.32
300.12	2125.79
300.33	2226.14
300.55	2127.84
300.76	2222.05
300.98	2119.65
301.19	2246.62
301.40	2152.42
301.62	2131.94
301.83	2314.20
302.05	2224.09
302.26	2176.99
302.47	2222.05
302.69	2050.02
302.90	2138.08
303.12	1996.77
303.33	2220.00
303.54	2359.26
303.76	2168.80
303.97	2199.52
304.19	2355.16
304.40	2101.22
304.61	2209.76
304.83	2269.15
305.04	2238.43
305.26	2277.34
305.47	2209.76
305.68	2125.79
305.90	2037.73
306.11	2293.72
306.33	2150.37
306.54	2168.80
306.75	2140.13
306.97	2029.54
307.18	2097.12
307.39	2160.61
307.61	2242.53
307.82	2152.42
308.04	2146.27
308.25	2078.69
308.46	2228.19
308.68	2152.42
308.89	2228.19
309.10	2367.45
309.32	2217.95
309.53	2144.22
309.74	2236.38
309.96	2191.33
310.17	2277.34
310.39	2144.22
310.60	2299.87
310.81	2217.95
311.03	2031.58
311.24	2283.49
311.45	2185.18
311.67	2375.64
311.88	2263.01
312.09	2166.75
312.31	2138.08
312.52	2289.63
312.73	2144.22
312.95	2070.50
313.16	2136.03
313.37	2308.06
313.59	2283.49
313.80	2293.72
314.01	2332.64
314.23	2154.46
314.44	2111.46
314.65	2107.36
314.87	2115.55
315.08	2070.50
315.29	2162.66
315.51	2084.83
315.72	2050.02
315.93	2306.01
316.15	2164.70
316.36	2105.31
316.57	2195.42
316.79	2236.38
317.00	2168.80
317.21	2189.28
317.43	2172.89
317.64	2129.89
317.85	2150.37
318.07	2138.08
318.28	2154.46
318.49	2326.49
318.70	2435.03
318.92	2367.45
319.13	2412.51
319.34	2437.08
319.56	2263.01
319.77	2367.45
319.98	2275.29
320.20	2318.30
320.41	2279.39
320.62	2197.47
320.83	2146.27
321.05	2365.40
321.26	2156.51
321.47	2209.76
321.69	2318.30
321.90	2047.97
322.11	2105.31
322.32	2326.49
322.54	2351.07
322.75	2121.70
322.96	2396.12
323.18	2066.40
323.39	2072.54
323.60	2162.66
323.81	2273.25
324.03	2138.08
324.24	2189.28
324.45	2275.29
324.66	2197.47
324.88	2207.71
325.09	2277.34
325.30	2185.18
325.52	2213.85
325.73	2123.74
325.94	2060.26
326.15	2037.73
326.37	2138.08
326.58	2351.07
326.79	2349.02
327.00	2050.02
327.22	2179.04
327.43	2129.89
327.64	2099.17
327.85	2248.67
328.07	2250.72
328.28	2496.47
328.49	2101.22
328.70	2193.37
328.92	2115.55
329.13	2158.56
329.34	2232.29
329.55	2396.12
329.76	2265.05
329.98	2193.37
330.19	2289.63
330.40	2224.09
330.61	2291.68
330.83	2277.34
331.04	2072.54
331.25	2252.77
331.46	2136.03
331.68	2050.02
331.89	2224.09
332.10	2215.90
332.31	2037.73
332.52	2203.61
332.74	2373.60
332.95	2072.54
333.16	2111.46
333.37	2236.38
333.58	2138.08
333.80	2207.71
334.01	2047.97
334.22	2201.57
334.43	2170.85
334.64	2105.31
334.86	2039.78
335.07	2103.26
335.28	2351.07
335.49	2060.26
335.70	2256.86
335.92	2269.15
336.13	2473.95
336.34	2265.05
336.55	2154.46
336.76	2279.39
336.98	2037.73
337.19	2185.18
337.40	2342.88
337.61	2439.13
337.82	2203.61
338.04	2332.64
338.25	2052.06
338.46	2281.44
338.67	2127.84
338.88	2105.31
339.09	2056.16
339.31	2209.76
339.52	2074.59
339.73	2146.27
339.94	2267.10
340.15	2316.25
340.36	2166.75
340.58	2142.18
340.79	2062.30
341.00	2209.76
341.21	2125.79
341.42	2363.36
341.63	2172.89
341.85	2240.48
342.06	2301.92
342.27	2064.35
342.48	2299.87
342.69	2131.94
342.90	2256.86
343.12	2258.91
343.33	2170.85
343.54	2295.77
343.75	2299.87
343.96	2164.70
344.17	2086.88
344.38	2228.19
344.60	2179.04
344.81	2136.03
345.02	2154.46
345.23	2301.92
345.44	2455.51
345.65	2226.14
345.86	2213.85
346.07	2199.52
346.29	2146.27
346.50	2250.72
346.71	2172.89
346.92	2332.64
347.13	2412.51
347.34	2150.37
347.55	2183.13
347.76	2179.04
347.98	2064.35
348.19	2209.76
348.40	2265.05
348.61	2119.65
348.82	2301.92
349.03	2191.33
349.24	2123.74
349.45	2381.79
349.66	2097.12
349.88	2136.03
350.09	2152.42
350.30	2293.72
350.51	2318.30
350.72	2291.68
350.93	2228.19
351.14	2154.46
351.35	2285.53
351.56	2166.75
351.77	2176.99
351.99	2269.15
352.20	2312.16
352.41	2336.73
352.62	2078.69
352.83	2195.42
353.04	2201.57
353.25	2162.66
353.46	2246.62
353.67	2224.09
353.88	2039.78
354.09	2269.15
354.30	2224.09
354.52	2287.58
354.73	2187.23
354.94	2103.26
355.15	2166.75
355.36	2396.12
355.57	2209.76
355.78	2158.56
355.99	2111.46
356.20	2172.89
356.41	2285.53
356.62	2236.38
356.83	2211.81
357.04	2336.73
357.25	2052.06
357.46	2172.89
357.68	2060.26
357.89	2047.97
358.10	2226.14
358.31	2205.66
358.52	2211.81
358.73	2105.31
358.94	2154.46
359.15	2148.32
359.36	2199.52
359.57	2144.22
359.78	2185.18
359.99	2199.52
360.20	2068.45
360.41	2160.61
360.62	2203.61
360.83	2174.94
361.04	2183.13
361.25	2207.71
361.46	2389.98
361.67	2291.68
361.88	2172.89
362.09	2252.77
362.30	2174.94
362.51	2066.40
362.72	2166.75
362.93	2314.20
363.14	2277.34
363.35	2232.29
363.56	2076.64
363.78	2303.96
363.99	2318.30
364.20	2070.50
364.41	2203.61
364.62	2451.42
364.83	2220.00
365.04	2131.94
365.25	2170.85
365.46	2334.68
365.67	2113.50
365.88	2183.13
366.09	2146.27
366.30	2179.04
366.51	2244.57
366.72	2117.60
366.93	2166.75
367.14	2201.57
367.35	2379.74
367.56	2088.93
367.77	2365.40
367.98	2220.00
368.18	2334.68
368.39	2226.14
368.60	2109.41
368.81	2318.30
369.02	2158.56
369.23	2109.41
369.44	2041.82
369.65	2181.09
369.86	2306.01
370.07	2308.06
370.28	2068.45
370.49	2263.01
370.70	2170.85
370.91	2105.31
371.12	2084.83
371.33	2332.64
371.54	2148.32
371.75	2367.45
371.96	1988.58
372.17	2242.53
372.38	2209.76
372.59	2312.16
372.80	2150.37
373.01	2146.27
373.22	2234.33
373.43	2138.08
373.64	2080.74
373.85	2420.70
374.06	2314.20
374.26	2256.86
374.47	2236.38
374.68	2367.45
374.89	2160.61
375.10	2207.71
375.31	2207.71
375.52	2242.53
375.73	2207.71
375.94	2138.08
376.15	2291.68
376.36	2072.54
376.57	2119.65
376.78	2113.50
376.99	2234.33
377.20	2289.63
377.40	2158.56
377.61	2293.72
377.82	2015.20
378.03	2355.16
378.24	2211.81
378.45	2209.76
378.66	2232.29
378.87	2011.11
379.08	2084.83
379.29	2150.37
379.50	2344.92
379.71	2213.85
379.91	2293.72
380.12	2150.37
380.33	2220.00
380.54	2138.08
380.75	2162.66
380.96	2203.61
381.17	2291.68
381.38	2176.99
381.59	2301.92
381.80	2166.75
382.00	2375.64
382.21	2314.20
382.42	2357.21
382.63	2494.43
382.84	2320.35
383.05	2240.48
383.26	2336.73
383.47	2193.37
383.68	2224.09
383.88	2318.30
384.09	2191.33
384.30	2406.36
384.51	2205.66
384.72	2119.65
384.93	2150.37
385.14	2160.61
385.35	2418.65
385.55	2105.31
385.76	2363.36
385.97	2154.46
386.18	2107.36
386.39	2138.08
386.60	2181.09
386.81	2166.75
387.02	2039.78
387.22	2109.41
387.43	2226.14
387.64	2240.48
387.85	2295.77
388.06	2510.81
388.27	4040.64
388.48	8673.15
388.68	12169.03
388.89	14724.90
389.10	15726.35
389.31	14454.56
389.52	11530.06
389.73	9774.95
389.93	8925.05
390.14	8306.56
390.35	7368.59
390.56	6444.96
390.77	5449.64
390.98	4042.69
391.18	3291.09
391.39	2619.35
391.60	2312.16
391.81	2338.78
392.02	2172.89
392.23	2568.15
392.43	2201.57
392.64	2244.57
392.85	2172.89
393.06	2406.36
393.27	2281.44
393.47	2211.81
393.68	2146.27
393.89	2183.13
394.10	2383.84
394.31	2176.99
394.52	2220.00
394.72	2095.07
394.93	2285.53
395.14	2060.26
395.35	2246.62
395.56	2195.42
395.76	2260.96
395.97	2260.96
396.18	2369.50
396.39	2326.49
396.60	2711.51
396.80	2494.43
397.01	2375.64
397.22	2383.84
397.43	2410.46
397.64	2224.09
397.84	2328.54
398.05	2498.52
398.26	2291.68
398.47	2336.73
398.67	2285.53
398.88	2164.70
399.09	2232.29
399.30	2111.46
399.51	2283.49
399.71	2174.94
399.92	2199.52
400.13	2273.25
400.34	2158.56
400.54	2220.00
400.75	2308.06
400.96	2260.96
401.17	2365.40
401.37	2281.44
401.58	2238.43
401.79	2193.37
402.00	2299.87
402.21	2566.10
402.41	2475.99
402.62	2598.87
402.83	2631.64
403.04	2541.53
403.24	2840.53
403.45	2273.25
403.66	2422.75
403.87	2435.03
404.07	2471.90
404.28	2471.90
404.49	2439.13
404.70	2310.11
404.90	2351.07
405.11	2224.09
405.32	2172.89
405.52	2170.85
405.73	2105.31
405.94	2217.95
406.15	2228.19
406.35	2183.13
406.56	2191.33
406.77	2260.96
406.98	2209.76
407.18	2097.12
407.39	2293.72
407.60	2183.13
407.80	2277.34
408.01	2111.46
408.22	2207.71
408.43	2131.94
408.63	2199.52
408.84	2285.53
409.05	2260.96
409.25	2230.24
409.46	2211.81
409.67	2133.98
409.88	2193.37
410.08	2260.96
410.29	2172.89
410.50	2193.37
410.70	2148.32
410.91	2121.70
411.12	2207.71
411.32	2234.33
411.53	2187.23
411.74	2258.91
411.95	2303.96
412.15	2310.11
412.36	2303.96
412.57	2285.53
412.77	2402.27
412.98	2193.37
413.19	2168.80
413.39	2244.57
413.60	2152.42
413.81	2367.45
414.01	2162.66
414.22	2228.19
414.43	2349.02
414.63	2179.04
414.84	2357.21
415.05	2228.19
415.25	2052.06
415.46	2254.81
415.67	2082.78
415.87	2293.72
416.08	2162.66
416.29	2138.08
416.49	2215.90
416.70	2195.42
416.91	2162.66
417.11	2160.61
417.32	2281.44
417.53	2379.74
417.73	2207.71
417.94	2230.24
418.15	2297.82
418.35	2162.66
418.56	2115.55
418.77	2402.27
418.97	2285.53
419.18	2109.41
419.38	1966.05
419.59	2181.09
419.80	2377.69
420.00	2045.92
420.21	2121.70
420.42	2310.11
420.62	2215.90
420.83	2088.93
421.04	2250.72
421.24	2093.02
421.45	2281.44
421.65	2258.91
421.86	2084.83
422.07	2338.78
422.27	2242.53
422.48	2156.51
422.69	2088.93
422.89	2226.14
423.10	2215.90
423.30	2101.22
423.51	2226.14
423.72	2209.76
423.92	2269.15
424.13	2029.54
424.33	2232.29
424.54	2316.25
424.75	2215.90
424.95	2342.88
425.16	2185.18
425.36	2211.81
425.57	2332.64
425.78	2346.97
425.98	2258.91
426.19	2168.80
426.39	2154.46
426.60	2195.42
426.81	2303.96
427.01	2240.48
427.22	2131.94
427.42	2105.31
427.63	2187.23
427.83	2275.29
428.04	2336.73
428.25	2285.53
428.45	2326.49
428.66	2346.97
428.86	2152.42
429.07	2166.75
429.28	2158.56
429.48	2232.29
429.69	2160.61
429.89	2142.18
430.10	2070.50
430.30	2217.95
430.51	2308.06
430.71	2162.66
430.92	2123.74
431.13	2187.23
431.33	2265.05
431.54	2197.47
431.74	2355.16
431.95	2381.79
432.15	2095.07
432.36	2185.18
432.56	2316.25
432.77	2443.23
432.98	2398.17
433.18	2258.91
433.39	2193.37
433.59	2242.53
433.80	2371.55
434.00	2437.08
434.21	2158.56
434.41	2150.37
434.62	2465.75
434.82	2166.75
435.03	2127.84
435.23	2244.57
435.44	2043.87
435.64	2195.42
435.85	2269.15
436.06	2326.49
436.26	2244.57
436.47	2207.71
436.67	2136.03
436.88	2129.89
437.08	2308.06
437.29	2310.11
437.49	2152.42
437.70	2318.30
437.90	2142.18
438.11	2342.88
438.31	2232.29
438.52	2432.99
438.72	2416.60
438.93	2469.85
439.13	2396.12
439.34	2316.25
439.54	2117.60
439.75	2301.92
439.95	2308.06
440.16	2146.27
440.36	2242.53
440.57	2254.81
440.77	2228.19
440.98	2133.98
441.18	2197.47
441.39	2154.46
441.59	2090.98
441.80	2439.13
442.00	2213.85
442.21	2314.20
442.41	2064.35
442.62	2295.77
442.82	2131.94
443.02	2162.66
443.23	2250.72
443.43	2185.18
443.64	2349.02
443.84	2189.28
444.05	2310.11
444.25	2258.91
444.46	2224.09
444.66	2181.09
444.87	2406.36
445.07	2115.55
445.28	2170.85
445.48	2306.01
445.69	2353.12
445.89	2463.71
446.09	2207.71
446.30	2498.52
446.50	2869.20
446.71	4349.89
446.91	5468.08
447.12	6387.61
447.32	6678.43
447.53	6262.69
447.73	5130.16
447.93	4564.92
448.14	4184.00
448.34	4077.51
448.55	3622.86
448.75	3555.27
448.96	3366.86
449.16	2981.84
449.36	2858.96
449.57	2486.23
449.77	2369.50
449.98	2185.18
450.18	2297.82
450.39	2275.29
450.59	2308.06
450.79	2269.15
451.00	2129.89
451.20	2293.72
451.41	2224.09
451.61	2314.20
451.81	2217.95
452.02	2158.56
452.22	2258.91
452.43	2199.52
452.63	2107.36
452.84	2179.04
453.04	2113.50
453.24	2260.96
453.45	2187.23
453.65	2142.18
453.86	2183.13
454.06	2283.49
454.26	2164.70
454.47	2078.69
454.67	2314.20
454.87	2277.34
455.08	2166.75
455.28	2344.92
455.49	2220.00
455.69	2146.27
455.89	2394.08
456.10	2301.92
456.30	2179.04
456.51	2211.81
456.71	2238.43
456.91	2215.90
457.12	2172.89
457.32	2170.85
457.52	2193.37
457.73	2224.09
457.93	2207.71
458.14	2179.04
458.34	2035.68
458.54	2201.57
458.75	2170.85
458.95	2334.68
459.15	2308.06
459.36	2258.91
459.56	2220.00
459.76	2453.47
459.97	2220.00
460.17	2138.08
460.37	2293.72
460.58	2201.57
460.78	2236.38
460.99	2168.80
461.19	2111.46
461.39	2203.61
461.60	2220.00
461.80	2297.82
462.00	2076.64
462.21	2191.33
462.41	2088.93
462.61	2121.70
462.82	2056.16
463.02	2291.68
463.22	2303.96
463.43	2285.53
463.63	2195.42
463.83	2381.79
464.04	2295.77
464.24	2207.71
464.44	2125.79
464.64	2269.15
464.85	2310.11
465.05	2191.33
465.25	2236.38
465.46	2263.01
465.66	2260.96
465.86	2275.29
466.07	2138.08
466.27	2146.27
466.47	2103.26
466.68	2021.35
466.88	2310.11
467.08	2244.57
467.29	2320.35
467.49	2164.70
467.69	2248.67
467.89	2303.96
468.10	2224.09
468.30	2176.99
468.50	2299.87
468.71	2340.83
468.91	2043.87
469.11	2359.26
469.31	2254.81
469.52	2097.12
469.72	2412.51
469.92	2465.75
470.13	2195.42
470.33	2187.23
470.53	2392.03
470.73	2676.70
470.94	3100.62
471.14	3194.83
471.34	3512.27
471.54	3547.08
471.75	3170.26
471.95	2949.08
472.15	2717.65
472.36	2777.05
472.56	2717.65
472.76	2768.85
472.96	2572.25
473.17	2498.52
473.37	2490.33
473.57	2234.33
473.77	2349.02
473.98	2293.72
474.18	2105.31
474.38	2439.13
474.58	2179.04
474.79	2144.22
474.99	2263.01
475.19	2205.66
475.39	2115.55
475.60	2220.00
475.80	2193.37
476.00	2271.20
476.20	2166.75
476.41	2263.01
476.61	2277.34
476.81	2330.59
477.01	2133.98
477.21	2355.16
477.42	2242.53
477.62	2179.04
477.82	2277.34
478.02	2195.42
478.23	2195.42
478.43	2064.35
478.63	2117.60
478.83	2234.33
479.03	2265.05
479.24	2367.45
479.44	2367.45
479.64	2162.66
479.84	2056.16
480.04	2066.40
480.25	2289.63
480.45	2146.27
480.65	2136.03
480.85	2289.63
481.06	2183.13
481.26	2230.24
481.46	2203.61
481.66	2224.09
481.86	2125.79
482.06	2342.88
482.27	2160.61
482.47	2109.41
482.67	2246.62
482.87	2160.61
483.07	2312.16
483.28	2166.75
483.48	2052.06
483.68	2197.47
483.88	2080.74
484.08	1976.29
484.29	2043.87
484.49	2203.61
484.69	2101.22
484.89	2359.26
485.09	2248.67
485.29	2265.05
485.50	2330.59
485.70	2189.28
485.90	2303.96
486.10	2211.81
486.30	2238.43
486.50	2258.91
486.71	2295.77
486.91	2267.10
487.11	2291.68
487.31	2058.21
487.51	2381.79
487.71	2170.85
487.91	2093.02
488.12	2125.79
488.32	2013.15
488.52	2166.75
488.72	2062.30
488.92	2240.48
489.12	2326.49
489.32	2314.20
489.53	2242.53
489.73	2031.58
489.93	2387.93
490.13	2101.22
490.33	2088.93
490.53	2220.00
490.73	2351.07
490.94	2076.64
491.14	2256.86
491.34	2359.26
491.54	2523.10
491.74	3147.73
491.94	3661.77
492.14	4036.55
492.34	4077.51
492.54	3710.92
492.75	3203.02
492.95	3184.59
493.15	2861.01
493.35	2949.08
493.55	2863.06
493.75	2660.31
493.95	2713.56
494.15	2580.44
494.35	2416.60
494.56	2328.54
494.76	2179.04
494.96	2271.20
495.16	2230.24
495.36	2250.72
495.56	2234.33
495.76	2156.51
495.96	2232.29
496.16	2179.04
496.36	2406.36
496.56	2211.81
496.77	2213.85
496.97	2265.05
497.17	2295.77
497.37	2136.03
497.57	2242.53
497.77	2217.95
497.97	2080.74
498.17	2226.14
498.37	2258.91
498.57	2275.29
498.77	2197.47
498.97	2306.01
499.17	2344.92
499.38	2232.29
499.58	2283.49
499.78	2215.90
499.98	2301.92
500.18	2197.47
500.38	2164.70
500.58	2351.07
500.78	2871.25
500.98	5158.83
501.18	7210.90
501.38	9115.51
501.58	9908.07
501.78	9877.35
501.98	7851.91
502.18	6541.21
502.38	5537.71
502.58	5117.87
502.78	4593.59
502.98	4495.29
503.18	4300.73
503.38	3876.80
503.59	3362.76
503.79	3233.74
503.99	2963.41
504.19	2805.72
504.39	2793.43
504.59	2815.96
504.79	2885.59
504.99	2834.39
505.19	2605.02
505.39	2523.10
505.59	2605.02
505.79	2506.71
505.99	2482.14
506.19	2301.92
506.39	2500.57
506.59	2269.15
506.79	2258.91
506.99	2351.07
507.19	2220.00
507.39	2301.92
507.59	2133.98
507.79	2146.27
507.99	2211.81
508.19	2320.35
508.39	2150.37
508.59	2211.81
508.79	2377.69
508.99	2369.50
509.19	2187.23
509.39	2232.29
509.59	2107.36
509.79	2203.61
509.99	2306.01
510.19	2285.53
510.39	2326.49
510.59	2205.66
510.79	2195.42
510.99	2136.03
511.19	2187.23
511.39	2357.21
511.59	2322.40
511.79	2275.29
511.99	2160.61
512.19	2435.03
512.38	2234.33
512.58	2142.18
512.78	2154.46
512.98	2318.30
513.18	2408.41
513.38	2070.50
513.58	2215.90
513.78	2166.75
513.98	2166.75
514.18	2170.85
514.38	2193.37
514.58	2250.72
514.78	2125.79
514.98	2150.37
515.18	2183.13
515.38	2052.06
515.58	2375.64
515.78	2228.19
515.98	2220.00
516.18	2260.96
516.38	2242.53
516.57	2150.37
516.77	2179.04
516.97	2260.96
517.17	2195.42
517.37	1982.43
517.57	2297.82
517.77	2238.43
517.97	2176.99
518.17	2189.28
518.37	2164.70
518.57	2152.42
518.77	2138.08
518.97	2220.00
519.16	2174.94
519.36	2324.44
519.56	2244.57
519.76	2154.46
519.96	2222.05
520.16	2346.97
520.36	2127.84
520.56	2346.97
520.76	2185.18
520.96	2129.89
521.16	2375.64
521.35	2328.54
521.55	2295.77
521.75	2252.77
521.95	2240.48
522.15	2217.95
522.35	2121.70
522.55	2129.89
522.75	2318.30
522.95	2152.42
523.14	2101.22
523.34	2199.52
523.54	2228.19
523.74	2342.88
523.94	2267.10
524.14	2076.64
524.34	2295.77
524.54	2250.72
524.73	2185.18
524.93	2289.63
525.13	2285.53
525.33	2084.83
525.53	2453.47
525.73	2277.34
525.93	2179.04
526.13	2140.13
526.32	2111.46
526.52	2293.72
526.72	2314.20
526.92	2228.19
527.12	2176.99
527.32	2103.26
527.52	2291.68
527.71	2207.71
527.91	2228.19
528.11	2185.18
528.31	2179.04
528.51	2113.50
528.71	2265.05
528.90	2246.62
529.10	2342.88
529.30	2293.72
529.50	1941.47
529.70	2207.71
529.90	2230.24
530.09	2263.01
530.29	2123.74
530.49	2146.27
530.69	2471.90
530.89	2248.67
531.09	2267.10
531.28	2187.23
531.48	2303.96
531.68	2220.00
531.88	2295.77
532.08	2250.72
532.28	2103.26
532.47	2164.70
532.67	2267.10
532.87	2310.11
533.07	2148.32
533.27	2314.20
533.46	2256.86
533.66	2283.49
533.86	2258.91
534.06	2207.71
534.26	2248.67
534.45	2181.09
534.65	2320.35
534.85	2242.53
535.05	2213.85
535.25	2326.49
535.44	2002.91
535.64	2256.86
535.84	2191.33
536.04	2160.61
536.24	2152.42
536.43	2099.17
536.63	2260.96
536.83	2170.85
537.03	2144.22
537.22	2056.16
537.42	2066.40
537.62	2250.72
537.82	2181.09
538.02	2258.91
538.21	2367.45
538.41	2529.24
538.61	2256.86
538.81	2185.18
539.00	2363.36
539.20	2072.54
539.40	2187.23
539.60	2220.00
539.79	2232.29
539.99	2144.22
540.19	2160.61
540.39	2211.81
540.58	2236.38
540.78	2361.31
540.98	2285.53
541.18	2355.16
541.37	2256.86
541.57	2209.76
541.77	2283.49
541.97	2111.46
542.16	2095.07
542.36	2129.89
542.56	2179.04
542.76	2365.40
542.95	2338.78
543.15	2277.34
543.35	2328.54
543.54	2174.94
543.74	2121.70
543.94	2322.40
544.14	2185.18
544.33	2324.44
544.53	2217.95
544.73	2129.89
544.93	2123.74
545.12	2213.85
545.32	2150.37
545.52	2121.70
545.71	2076.64
545.91	2193.37
546.11	2199.52
546.30	2150.37
546.50	2228.19
546.70	2260.96
546.90	2217.95
547.09	2101.22
547.29	2224.09
547.49	2215.90
547.68	2170.85
547.88	2185.18
548.08	2269.15
548.27	2703.32
548.47	2160.61
548.67	2138.08
548.87	2248.67
549.06	2164.70
549.26	2279.39
549.46	2207.71
549.65	2129.89
549.85	2379.74
550.05	2217.95
550.24	2105.31
550.44	2308.06
550.64	2215.90
550.83	2277.34
551.03	2301.92
551.23	2238.43
551.42	2250.72
551.62	2217.95
551.82	2191.33
552.01	2144.22
552.21	2336.73
552.41	2230.24
552.60	2353.12
552.80	2228.19
553.00	2127.84
553.19	2277.34
553.39	2320.35
553.59	2070.50
553.78	2277.34
553.98	2215.90
554.17	2144.22
554.37	2230.24
554.57	2322.40
554.76	2043.87
554.96	2152.42
555.16	2228.19
555.35	2273.25
555.55	2254.81
555.75	2279.39
555.94	2322.40
556.14	2074.59
556.33	2265.05
556.53	2166.75
556.73	2220.00
556.92	2324.44
557.12	2359.26
557.32	2430.94
557.51	2379.74
557.71	2232.29
557.90	2416.60
558.10	2275.29
558.30	2252.77
558.49	2187.23
558.69	2158.56
558.88	2277.34
559.08	2193.37
559.28	2226.14
559.47	2271.20
559.67	2277.34
559.86	2447.32
560.06	2168.80
560.26	2205.66
560.45	2224.09
560.65	2230.24
560.84	2281.44
561.04	2136.03
561.24	2310.11
561.43	2070.50
561.63	2349.02
561.82	2310.11
562.02	2252.77
562.22	2181.09
562.41	2062.30
562.61	2189.28
562.80	2105.31
563.00	2461.66
563.19	2207.71
563.39	2248.67
563.59	2301.92
563.78	2082.78
563.98	2037.73
564.17	2224.09
564.37	2023.39
564.56	2236.38
564.76	2113.50
564.96	2322.40
565.15	2258.91
565.35	2494.43
565.54	2236.38
565.74	2260.96
565.93	2287.58
566.13	2244.57
566.32	2226.14
566.52	2326.49
566.71	2226.14
566.91	2248.67
567.11	2281.44
567.30	2074.59
567.50	2260.96
567.69	2258.91
567.89	2170.85
568.08	2152.42
568.28	2279.39
568.47	2179.04
568.67	2154.46
568.86	2215.90
569.06	2277.34
569.25	2172.89
569.45	2170.85
569.64	2203.61
569.84	2152.42
570.04	2242.53
570.23	2242.53
570.43	2217.95
570.62	2281.44
570.82	2355.16
571.01	2115.55
571.21	2129.89
571.40	2140.13
571.60	2226.14
571.79	2199.52
571.99	2228.19
572.18	2131.94
572.38	2283.49
572.57	2144.22
572.77	2277.34
572.96	2461.66
573.16	2254.81
573.35	2185.18
573.55	2457.56
573.74	2172.89
573.94	2279.39
574.13	2144.22
574.33	2344.92
574.52	2326.49
574.71	2162.66
574.91	2242.53
575.10	2060.26
575.30	2209.76
575.49	2097.12
575.69	2078.69
575.88	2324.44
576.08	2215.90
576.27	2328.54
576.47	2283.49
576.66	2367.45
576.86	2359.26
577.05	2322.40
577.25	2265.05
577.44	2451.42
577.64	2252.77
577.83	2240.48
578.02	2209.76
578.22	2291.68
578.41	2412.51
578.61	2176.99
578.80	2131.94
579.00	2217.95
579.19	2283.49
579.39	2340.83
579.58	2226.14
579.77	2154.46
579.97	2447.32
580.16	2351.07
580.36	2367.45
580.55	2316.25
580.75	2277.34
580.94	2154.46
581.13	2453.47
581.33	2424.80
581.52	2213.85
581.72	2471.90
581.91	2381.79
582.11	2207.71
582.30	2375.64
582.49	2252.77
582.69	2377.69
582.88	2316.25
583.08	2232.29
583.27	2334.68
583.47	2269.15
583.66	2215.90
583.85	2195.42
584.05	2244.57
584.24	2328.54
584.44	2295.77
584.63	2435.03
584.82	2500.57
585.02	2441.18
585.21	2400.22
585.41	2398.17
585.60	2389.98
585.79	2416.60
585.99	2549.72
586.18	2422.75
586.37	2912.21
586.57	4427.71
586.76	13143.86
586.96	32429.59
587.15	45894.98
587.34	55131.32
587.54	60503.14
587.73	55436.47
587.93	38978.99
588.12	29736.51
588.31	23482.01
588.51	20596.42
588.70	19066.59
588.89	17252.09
589.09	15097.63
589.28	12828.48
589.47	10477.41
589.67	8310.66
589.86	6541.21
590.06	4655.03
590.25	3833.80
590.44	3170.26
590.64	2797.53
590.83	2707.41
591.02	2461.66
591.22	2328.54
591.41	2324.44
591.60	2242.53
591.80	2504.67
591.99	2105.31
592.18	2217.95
592.38	2369.50
592.57	2176.99
592.76	2283.49
592.96	2289.63
593.15	2201.57
593.34	2412.51
593.54	2228.19
593.73	2285.53
593.92	2222.05
594.12	2328.54
594.31	2332.64
594.50	2416.60
594.70	2301.92
594.89	2527.19
595.08	2138.08
595.28	2312.16
595.47	2494.43
595.66	2236.38
595.86	2136.03
596.05	2193.37
596.24	2158.56
596.43	2463.71
596.63	2365.40
596.82	2326.49
597.01	2340.83
597.21	2445.27
597.40	2285.53
597.59	2310.11
597.79	2236.38
597.98	2273.25
598.17	2226.14
598.36	2236.38
598.56	2252.77
598.75	2215.90
598.94	2195.42
599.14	2250.72
599.33	2068.45
599.52	2322.40
599.71	2244.57
599.91	2301.92
600.10	2211.81
600.29	2201.57
600.48	2291.68
600.68	2246.62
600.87	2291.68
601.06	2146.27
601.26	2193.37
601.45	2248.67
601.64	2201.57
601.83	2357.21
602.03	2160.61
602.22	2121.70
602.41	2287.58
602.60	2363.36
602.80	2349.02
602.99	2260.96
603.18	2207.71
603.37	2195.42
603.57	2207.71
603.76	2226.14
603.95	2398.17
604.14	2230.24
604.34	2146.27
604.53	2195.42
604.72	2199.52
604.91	2340.83
605.10	2209.76
605.30	2109.41
605.49	2449.37
605.68	2191.33
605.87	2199.52
606.07	2160.61
606.26	2267.10
606.45	2353.12
606.64	2273.25
606.84	2121.70
607.03	2226.14
607.22	2322.40
607.41	2211.81
607.60	2207.71
607.80	2299.87
607.99	2201.57
608.18	2209.76
608.37	2191.33
608.56	2232.29
608.76	2293.72
608.95	2432.99
609.14	2263.01
609.33	2375.64
609.52	2457.56
609.72	2369.50
609.91	2459.61
610.10	2363.36
610.29	2402.27
610.48	2306.01
610.68	2324.44
610.87	2236.38
611.06	2271.20
611.25	2185.18
611.44	2336.73
611.63	2207.71
611.83	2318.30
612.02	2129.89
612.21	2224.09
612.40	1998.82
612.59	2144.22
612.79	2187.23
612.98	2142.18
613.17	2361.31
613.36	2250.72
613.55	2439.13
613.74	2344.92
613.93	2383.84
614.13	2512.86
614.32	2545.63
614.51	2453.47
614.70	2324.44
614.89	2324.44
615.08	2355.16
615.28	2799.57
615.47	2162.66
615.66	2318.30
615.85	2283.49
616.04	2357.21
616.23	2334.68
616.42	2320.35
616.62	2291.68
616.81	2238.43
617.00	2250.72
617.19	2308.06
617.38	2138.08
617.57	2260.96
617.76	2220.00
617.95	2283.49
618.15	2277.34
618.34	2375.64
618.53	2146.27
618.72	2324.44
618.91	2379.74
619.10	2334.68
619.29	2236.38
619.48	2263.01
619.68	2084.83
619.87	2176.99
620.06	2105.31
620.25	2293.72
620.44	2168.80
620.63	2213.85
620.82	2236.38
621.01	2293.72
621.20	2234.33
621.39	2211.81
621.59	2279.39
621.78	2295.77
621.97	2250.72
622.16	2324.44
622.35	2318.30
622.54	2201.57
622.73	2273.25
622.92	2117.60
623.11	2330.59
623.30	2170.85
623.49	2295.77
623.68	2154.46
623.88	2299.87
624.07	2246.62
624.26	2238.43
624.45	2236.38
624.64	2174.94
624.83	2150.37
625.02	2189.28
625.21	2256.86
625.40	2285.53
625.59	2377.69
625.78	2252.77
625.97	2392.03
626.16	2377.69
626.35	2367.45
626.54	2265.05
626.74	2453.47
626.93	2277.34
627.12	2301.92
627.31	2387.93
627.50	2263.01
627.69	2342.88
627.88	2168.80
628.07	2220.00
628.26	2109.41
628.45	2129.89
628.64	2228.19
628.83	2164.70
629.02	2148.32
629.21	2258.91
629.40	2209.76
629.59	2146.27
629.78	2168.80
629.97	2222.05
630.16	2281.44
630.35	2181.09
630.54	2172.89
630.73	2203.61
630.92	2195.42
631.11	2189.28
631.30	2179.04
631.49	2330.59
631.68	2150.37
631.87	2267.10
632.06	2115.55
632.25	2428.89
632.44	2209.76
632.63	2217.95
632.82	2308.06
633.01	2254.81
633.20	2324.44
633.39	2332.64
633.58	2234.33
633.77	2293.72
633.96	2336.73
634.15	2361.31
634.34	2252.77
634.53	2283.49
634.72	2197.47
634.91	2170.85
635.10	2250.72
635.29	2324.44
635.48	2217.95
635.67	2168.80
635.86	2095.07
636.05	2301.92
636.24	2240.48
636.43	2211.81
636.62	2287.58
636.81	2037.73
637.00	2195.42
637.19	2215.90
637.38	2211.81
637.57	2201.57
637.76	2271.20
637.95	2320.35
638.14	2267.10
638.33	2314.20
638.52	2334.68
638.71	2168.80
638.89	2166.75
639.08	2473.95
639.27	2293.72
639.46	2545.63
639.65	2883.54
639.84	3035.09
640.03	3084.24
640.22	3039.19
640.41	2969.55
640.60	2555.86
640.79	2615.26
640.98	2400.22
641.17	2439.13
641.36	2478.04
641.55	2435.03
641.74	2256.86
641.92	2256.86
642.11	2170.85
642.30	2248.67
642.49	2138.08
642.68	2189.28
642.87	2238.43
643.06	2244.57
643.25	2166.75
643.44	2121.70
643.63	2236.38
643.82	2308.06
644.00	2088.93
644.19	2166.75
644.38	2158.56
644.57	2230.24
644.76	2248.67
644.95	2144.22
645.14	2201.57
645.33	2250.72
645.52	2209.76
645.71	2080.74
645.89	2031.58
646.08	2224.09
646.27	2199.52
646.46	2379.74
646.65	2060.26
646.84	2199.52
647.03	2103.26
647.22	2346.97
647.40	2258.91
647.59	2213.85
647.78	2062.30
647.97	2140.13
648.16	2179.04
648.35	2375.64
648.54	2293.72
648.73	2121.70
648.91	2318.30
649.10	2301.92
649.29	2185.18
649.48	2203.61
649.67	2252.77
649.86	2244.57
650.05	2291.68
650.23	2504.67
650.42	2351.07
650.61	2539.48
650.80	2377.69
650.99	2514.91
651.18	2383.84
651.36	2373.60
651.55	2189.28
651.74	2322.40
651.93	2183.13
652.12	2279.39
652.31	2250.72
652.49	2162.66
652.68	2152.42
652.87	2406.36
653.06	2236.38
653.25	2447.32
653.44	2289.63
653.62	2346.97
653.81	2174.94
654.00	2207.71
654.19	2299.87
654.38	2506.71
654.56	2228.19
654.75	2185.18
654.94	2301.92
655.13	2209.76
655.32	2209.76
655.51	2230.24
655.69	2179.04
655.88	2224.09
656.07	2064.35
656.26	2197.47
656.45	2111.46
656.63	2252.77
656.82	2252.77
657.01	2248.67
657.20	2127.84
657.38	2297.82
657.57	2156.51
657.76	2095.07
657.95	2230.24
658.14	2127.84
658.32	2201.57
658.51	2185.18
658.70	2310.11
658.89	2260.96
659.08	2162.66
659.26	2424.80
659.45	2220.00
659.64	2340.83
659.83	2220.00
660.01	2617.30
660.20	2269.15
660.39	2367.45
660.58	2179.04
660.76	2334.68
660.95	2070.50
661.14	2224.09
661.33	2164.70
661.51	2195.42
661.70	2191.33
661.89	2279.39
662.08	2129.89
662.26	2004.96
662.45	2162.66
662.64	2377.69
662.83	2293.72
663.01	2084.83
663.20	2183.13
663.39	2361.31
663.58	2158.56
663.76	2281.44
663.95	2273.25
664.14	2162.66
664.32	2136.03
664.51	2068.45
664.70	2072.54
664.89	2236.38
665.07	2107.36
665.26	2291.68
665.45	2078.69
665.64	2263.01
665.82	2144.22
666.01	2224.09
666.20	2080.74
666.38	2303.96
666.57	2389.98
666.76	3235.79
666.95	8025.99
667.13	16238.34
667.32	21984.94
667.51	25486.97
667.69	27356.77
667.88	25482.88
668.07	18231.02
668.25	14413.60
668.44	11906.89
668.63	10155.88
668.81	9199.48
669.00	7915.40
669.19	7075.73
669.38	6072.23
669.56	5281.71
669.75	4310.97
669.94	3704.78
670.12	3207.12
670.31	2791.38
670.50	2617.30
670.68	2480.09
670.87	2404.32
671.06	2248.67
671.24	2320.35
671.43	2488.28
671.62	2238.43
671.80	2215.90
671.99	2328.54
672.18	2234.33
672.36	2265.05
672.55	2234.33
672.74	2172.89
672.92	2176.99
673.11	2326.49
673.29	2185.18
673.48	2152.42
673.67	2248.67
673.85	2267.10
674.04	2156.51
674.23	2220.00
674.41	2387.93
674.60	2099.17
674.79	2060.26
674.97	2088.93
675.16	2244.57
675.34	2193.37
675.53	2197.47
675.72	2279.39
675.90	2420.70
676.09	2209.76
676.28	2187.23
676.46	2078.69
676.65	2256.86
676.83	2105.31
677.02	2170.85
677.21	2295.77
677.39	2273.25
677.58	2113.50
677.77	2093.02
677.95	2215.90
678.14	2117.60
678.32	2224.09
678.51	2140.13
678.70	2449.37
678.88	2183.13
679.07	2181.09
679.25	2156.51
679.44	2236.38
679.63	2056.16
679.81	2215.90
680.00	2326.49
680.18	2217.95
680.37	2394.08
680.55	2174.94
680.74	2047.97
680.93	2058.21
681.11	2230.24
681.30	2187.23
681.48	2209.76
681.67	2203.61
681.85	2252.77
682.04	2033.63
682.23	2203.61
682.41	2215.90
682.60	2242.53
682.78	2191.33
682.97	2201.57
683.15	2215.90
683.34	2203.61
683.53	2314.20
683.71	2074.59
683.90	2326.49
684.08	2398.17
684.27	2131.94
684.45	2199.52
684.64	2203.61
684.82	2256.86
685.01	2191.33
685.19	2242.53
685.38	2299.87
685.57	2283.49
685.75	2220.00
685.94	2127.84
686.12	2191.33
686.31	2154.46
686.49	2414.56
686.68	2080.74
686.86	2205.66
687.05	2211.81
687.23	2351.07
687.42	2179.04
687.60	2146.27
687.79	2287.58
687.97	2365.40
688.16	2314.20
688.34	2316.25
688.53	1994.72
688.71	2322.40
688.90	2238.43
689.08	2158.56
689.27	2050.02
689.45	2269.15
689.64	2176.99
689.82	2222.05
690.01	2299.87
690.19	2234.33
690.38	2101.22
690.56	2269.15
690.75	2146.27
690.93	2230.24
691.12	2054.11
691.30	2181.09
691.49	2187.23
691.67	2187.23
691.86	2406.36
692.04	2152.42
692.23	2199.52
692.41	2279.39
692.60	2455.51
692.78	2324.44
692.97	2248.67
693.15	2338.78
693.34	2449.37
693.52	2242.53
693.71	2152.42
693.89	2242.53
694.08	2011.11
694.26	2324.44
694.44	2275.29
694.63	2236.38
694.81	2105.31
695.00	2174.94
695.18	2265.05
695.37	2379.74
695.55	2154.46
695.74	2187.23
695.92	2154.46
696.10	2349.02
696.29	2195.42
696.47	2220.00
696.66	2033.63
696.84	2117.60
697.03	2217.95
697.21	2389.98
697.40	3194.83
697.58	2392.03
697.76	2158.56
697.95	2101.22
698.13	2160.61
698.32	2201.57
698.50	2166.75
698.68	2220.00
698.87	2273.25
699.05	2379.74
699.24	2215.90
699.42	2111.46
699.61	2199.52
699.79	2201.57
699.97	2256.86
700.16	2107.36
700.34	2035.68
700.53	2277.34
700.71	2357.21
700.89	2338.78
701.08	2154.46
701.26	2240.48
701.45	2701.27
701.63	2072.54
701.81	2166.75
702.00	2154.46
702.18	2211.81
702.37	2224.09
702.55	2430.94
702.73	2400.22
702.92	2400.22
703.10	2590.68
703.28	2453.47
703.47	2330.59
703.65	2418.65
703.84	2328.54
704.02	2301.92
704.20	2508.76
704.39	2105.31
704.57	2273.25
704.75	2260.96
704.94	2308.06
705.12	2285.53
705.30	2514.91
705.49	4523.96
705.67	11210.58
705.86	20244.17
706.04	24571.53
706.22	28466.77
706.41	29677.12
706.59	25196.16
706.77	18102.00
706.96	14808.86
707.14	12959.55
707.32	11077.46
707.51	9869.16
707.69	8042.37
707.87	6746.01
708.06	5281.71
708.24	4034.50
708.42	3315.66
708.61	3010.51
708.79	2445.27
708.97	2519.00
709.16	2338.78
709.34	2387.93
709.52	2220.00
709.71	2181.09
709.89	2367.45
710.07	2140.13
710.26	2105.31
710.44	2150.37
710.62	2344.92
710.80	2316.25
710.99	2293.72
711.17	2207.71
711.35	2152.42
711.54	2174.94
711.72	2295.77
711.90	2291.68
712.09	2250.72
712.27	2150.37
712.45	2291.68
712.63	2191.33
712.82	2164.70
713.00	2211.81
713.18	2252.77
713.37	2269.15
713.55	2246.62
713.73	2203.61
713.91	2267.10
714.10	2138.08
714.28	2162.66
714.46	2154.46
714.65	2246.62
714.83	2142.18
715.01	2234.33
715.19	2201.57
715.38	2088.93
715.56	2224.09
715.74	2154.46
715.92	2125.79
716.11	2295.77
716.29	2062.30
716.47	2176.99
716.65	2125.79
716.84	2037.73
717.02	2299.87
717.20	2072.54
717.38	2166.75
717.57	2277.34
717.75	2211.81
717.93	2146.27
718.11	2312.16
718.30	2080.74
718.48	2187.23
718.66	2342.88
718.84	2338.78
719.03	2103.26
719.21	2099.17
719.39	2328.54
719.57	2244.57
719.75	2318.30
719.94	2068.45
720.12	2086.88
720.30	2252.77
720.48	2267.10
720.67	2160.61
720.85	2113.50
721.03	2156.51
721.21	2113.50
721.39	2285.53
721.58	2199.52
721.76	2244.57
721.94	2211.81
722.12	2236.38
722.30	2338.78
722.49	2220.00
722.67	2226.14
722.85	2172.89
723.03	2107.36
723.21	2172.89
723.40	2258.91
723.58	2318.30
723.76	2275.29
723.94	2379.74
724.12	2338.78
724.30	2367.45
724.49	2398.17
724.67	2127.84
724.85	2334.68
725.03	2121.70
725.21	2322.40
725.40	2285.53
725.58	2166.75
725.76	2269.15
725.94	2236.38
726.12	2156.51
726.30	2187.23
726.49	2205.66
726.67	2152.42
726.85	2250.72
727.03	2551.77
727.21	3665.86
727.39	5586.86
727.57	6729.63
727.76	7366.54
727.94	7860.10
728.12	7225.23
728.30	5947.30
728.48	5013.43
728.66	4589.50
728.84	4030.40
729.03	3559.37
729.21	3184.59
729.39	2797.53
729.57	2488.28
729.75	2439.13
729.93	2346.97
730.11	2228.19
730.30	2248.67
730.48	2215.90
730.66	2314.20
730.84	2277.34
731.02	2172.89
731.20	2105.31
731.38	2164.70
731.56	2127.84
731.74	2072.54
731.93	2166.75
732.11	2248.67
732.29	2146.27
732.47	2256.86
732.65	2228.19
732.83	2373.60
733.01	2236.38
733.19	2158.56
733.37	2222.05
733.56	2199.52
733.74	2129.89
733.92	2330.59
734.10	2244.57
734.28	2326.49
734.46	2002.91
734.64	2176.99
734.82	2117.60
735.00	2176.99
735.18	2072.54
735.36	2146.27
735.54	2160.61
735.73	2172.89
735.91	2234.33
736.09	2258.91
736.27	2203.61
736.45	2191.33
736.63	1994.72
736.81	2129.89
736.99	2320.35
737.17	2349.02
737.35	2097.12
737.53	2256.86
737.71	2127.84
737.89	2324.44
738.07	2146.27
738.25	2158.56
738.43	2064.35
738.61	2256.86
738.80	2080.74
738.98	2076.64
739.16	2121.70
739.34	2068.45
739.52	2389.98
739.70	2129.89
739.88	2285.53
740.06	2277.34
740.24	1988.58
740.42	2332.64
740.60	2060.26
740.78	2121.70
740.96	2058.21
741.14	2222.05
741.32	2121.70
741.50	2131.94
741.68	2297.82
741.86	2318.30
742.04	2064.35
742.22	2191.33
742.40	2127.84
742.58	2242.53
742.76	2170.85
742.94	2277.34
743.12	2062.30
743.30	2162.66
743.48	2191.33
743.66	2150.37
743.84	2211.81
744.02	2201.57
744.20	2277.34
744.38	2129.89
744.56	2160.61
744.74	2316.25
744.92	2240.48
745.10	2312.16
745.28	2236.38
745.46	2400.22
745.64	2201.57
745.82	2342.88
746.00	2156.51
746.18	2265.05
746.36	2101.22
746.54	2269.15
746.72	2232.29
746.90	2101.22
747.08	2267.10
747.26	2121.70
747.44	2236.38
747.62	2277.34
747.80	2220.00
747.98	2297.82
748.15	2154.46
748.33	2416.60
748.51	2263.01
748.69	2258.91
748.87	2199.52
749.05	2097.12
749.23	2199.52
749.41	2260.96
749.59	2258.91
749.77	2367.45
749.95	2125.79
750.13	2113.50
750.31	2244.57
750.49	2152.42
750.67	2326.49
750.85	2260.96
751.03	2183.13
751.20	2410.46
751.38	2260.96
751.56	2170.85
751.74	2125.79
751.92	2195.42
752.10	2168.80
752.28	2312.16
752.46	2160.61
752.64	2168.80
752.82	2263.01
753.00	2217.95
753.18	2179.04
753.35	2228.19
753.53	2191.33
753.71	2168.80
753.89	2246.62
754.07	2138.08
754.25	2258.91
754.43	2187.23
754.61	2097.12
754.79	2336.73
754.97	2152.42
755.14	2234.33
755.32	2113.50
755.50	2166.75
755.68	2166.75
755.86	2107.36
756.04	2129.89
756.22	2015.20
756.40	2189.28
756.57	2375.64
756.75	2164.70
756.93	2310.11
757.11	2330.59
757.29	2078.69
757.47	2097.12
757.65	2086.88
757.82	1941.47
758.00	2168.80
758.18	2172.89
758.36	2117.60
758.54	2357.21
758.72	2068.45
758.90	2338.78
759.07	2277.34
759.25	2113.50
759.43	2211.81
759.61	2097.12
759.79	3035.09
759.97	2336.73
760.15	2123.74
760.32	2205.66
760.50	2150.37
760.68	2310.11
760.86	2039.78
761.04	2318.30
761.22	2285.53
761.39	2146.27
761.57	2277.34
761.75	2193.37
761.93	2265.05
762.11	2142.18
762.28	2275.29
762.46	2168.80
762.64	2269.15
762.82	2127.84
763.00	2164.70
763.18	2320.35
763.35	2068.45
763.53	2228.19
763.71	2142.18
763.89	2105.31
764.07	2244.57
764.24	2129.89
764.42	2297.82
764.60	2127.84
764.78	2211.81
764.96	2244.57
765.13	2254.81
765.31	2144.22
765.49	2191.33
765.67	2066.40
765.84	2090.98
766.02	2121.70
766.20	2002.91
766.38	2209.76
766.56	2271.20
766.73	2273.25
766.91	2179.04
767.09	2201.57
767.27	2185.18
767.44	2215.90
767.62	2217.95
767.80	2152.42
767.98	2164.70
768.15	2172.89
768.33	2179.04
768.51	2258.91
768.69	2228.19
768.87	2203.61
769.04	2222.05
769.22	2443.23
769.40	2316.25
769.58	2373.60
769.75	2203.61
769.93	2320.35
770.11	2203.61
770.28	2113.50
770.46	2230.24
770.64	2170.85
770.82	2146.27
770.99	2154.46
771.17	2228.19
771.35	2146.27
771.53	2258.91
771.70	2166.75
771.88	2273.25
772.06	2154.46
772.23	2154.46
772.41	2224.09
772.59	2162.66
772.77	2111.46
772.94	2080.74
773.12	2248.67
773.30	2140.13
773.47	2166.75
773.65	2101.22
773.83	2328.54
774.01	2129.89
774.18	1982.43
774.36	2207.71
774.54	2170.85
774.71	2228.19
774.89	2029.54
775.07	2148.32
775.24	2152.42
775.42	2095.07
775.60	2334.68
775.78	2111.46
775.95	2109.41
776.13	2162.66
776.31	2023.39
776.48	2228.19
776.66	2211.81
776.84	2136.03
777.01	2119.65
777.19	2152.42
777.37	2154.46
777.54	2301.92
777.72	2349.02
777.90	2193.37
778.07	2201.57
778.25	2457.56
778.43	2330.59
778.60	2125.79
778.78	2197.47
778.96	2340.83
779.13	2119.65
779.31	2260.96
779.49	2172.89
779.66	2220.00
779.84	2211.81
780.01	2205.66
780.19	2117.60
780.37	2340.83
780.54	2306.01
780.72	2144.22
780.90	2187.23
781.07	2195.42
781.25	2136.03
781.43	2226.14
781.60	2142.18
781.78	2375.64
781.95	2109.41
782.13	2156.51
782.31	2156.51
782.48	2064.35
782.66	2211.81
782.83	2367.45
783.01	2246.62
783.19	2283.49
783.36	2158.56
783.54	2142.18
783.72	2265.05
783.89	2195.42
784.07	2166.75
784.24	2258.91
784.42	2312.16
784.60	2199.52
784.77	2254.81
784.95	2011.11
785.12	2062.30
785.30	2191.33
785.47	2064.35
785.65	2058.21
785.83	2138.08
786.00	2146.27
786.18	2242.53
786.35	2097.12
786.53	2047.97
786.71	2277.34
786.88	2191.33
787.06	2230.24
787.23	2228.19
787.41	2088.93
787.58	2211.81
787.76	2127.84
787.94	2160.61
788.11	2211.81
788.29	2140.13
788.46	2160.61
788.64	2052.06
788.81	2129.89
788.99	2062.30
789.16	2166.75
789.34	2150.37
789.52	2146.27
789.69	2162.66
789.87	2058.21
790.04	2136.03
790.22	2220.00
790.39	2265.05
790.57	2150.37
790.74	2123.74
790.92	2195.42
791.09	2090.98
791.27	2172.89
791.44	2269.15
791.62	2217.95
791.79	2238.43
791.97	2111.46
792.15	2383.84
792.32	2252.77
792.50	2349.02
792.67	2322.40
792.85	2306.01
793.02	2176.99
793.20	2183.13
793.37	2000.87
793.55	2176.99
793.72	2052.06
793.90	2275.29
794.07	2105.31
794.25	2140.13
794.42	2250.72
794.60	2138.08
794.77	2195.42
794.95	2258.91
795.12	2287.58
795.30	2275.29
795.47	2019.30
795.65	2523.10
795.82	2215.90
796.00	2039.78
796.17	2193.37
796.34	2174.94
796.52	2193.37
796.69	2220.00
796.87	2256.86
797.04	2187.23
797.22	2279.39
797.39	2183.13
797.57	2193.37
797.74	2154.46
797.92	2203.61
798.09	2127.84
798.27	2308.06
798.44	2203.61
798.62	2136.03
798.79	2211.81
798.96	2193.37
799.14	2133.98
799.31	2404.32
799.49	2248.67
799.66	2121.70
799.84	2176.99
800.01	2064.35
800.19	2224.09
800.36	2060.26
800.53	2234.33
800.71	2246.62
800.88	2424.80
801.06	2113.50
801.23	2140.13
801.41	2146.27
801.58	2074.59
801.75	2105.31
801.93	2260.96
802.10	2244.57
802.28	2199.52
802.45	2166.75
802.63	2316.25
802.80	2398.17
802.97	2129.89
803.15	2195.42
803.32	2127.84
803.50	2156.51
803.67	2064.35
803.84	2131.94
804.02	2129.89
804.19	2082.78
804.37	2000.87
804.54	2062.30
804.71	2105.31
804.89	2084.83
805.06	2242.53
805.24	2068.45
805.41	2080.74
805.58	2127.84
805.76	2387.93
805.93	2150.37
806.10	2299.87
806.28	2244.57
806.45	2281.44
806.63	2215.90
806.80	2185.18
806.97	2195.42
807.15	2215.90
807.32	2232.29
807.49	2187.23
807.67	2066.40
807.84	2242.53
808.01	2013.15
808.19	2353.12
808.36	2414.56
808.54	2162.66
808.71	2084.83
808.88	2232.29
809.06	2310.11
809.23	2299.87
809.40	2142.18
809.58	2254.81
809.75	2195.42
809.92	2140.13
810.10	2330.59
810.27	2158.56
810.44	2242.53
810.62	2283.49
810.79	2166.75
810.96	2123.74
811.14	2119.65
811.31	2226.14
811.48	2250.72
811.66	2203.61
811.83	2297.82
812.00	2238.43
812.18	2224.09
812.35	2297.82
812.52	2172.89
812.69	2138.08
812.87	2076.64
813.04	2101.22
813.21	2174.94
813.39	2068.45
813.56	2105.31
813.73	2203.61
813.91	2088.93
814.08	2146.27
814.25	2185.18
814.42	2088.93
814.60	2156.51
814.77	2254.81
814.94	2187.23
815.12	2166.75
815.29	2351.07
815.46	2144.22
815.63	2150.37
815.81	2113.50
815.98	2195.42
816.15	2138.08
816.33	2133.98
816.50	2197.47
816.67	2203.61
816.84	2172.89
817.02	2068.45
817.19	2121.70
817.36	2201.57
817.53	2273.25
817.71	2152.42
817.88	2267.10
818.05	2189.28
818.22	2150.37
818.40	2351.07
818.57	2119.65
818.74	2170.85
818.91	2197.47
819.09	2209.76
819.26	2201.57
819.43	2146.27
819.60	2195.42
819.78	2217.95
819.95	2318.30
820.12	2109.41
820.29	2291.68
820.47	2263.01
820.64	2170.85
820.81	2097.12
820.98	2109.41
821.15	2207.71
821.33	2318.30
821.50	2043.87
821.67	2228.19
821.84	2121.70
822.02	2201.57
822.19	2289.63
822.36	2107.36
822.53	2189.28
822.70	2025.44
822.88	2170.85
823.05	2326.49
823.22	2164.70
823.39	2181.09
823.56	2234.33
823.74	2291.68
823.91	2050.02
824.08	2160.61
824.25	2154.46
824.42	2334.68
824.60	2095.07
824.77	2230.24
824.94	2123.74
825.11	2187.23
825.28	2011.11
825.45	2224.09
825.63	2220.00
825.80	2133.98
825.97	2283.49
826.14	2199.52
826.31	2009.06
826.48	2193.37
826.66	2148.32
826.83	2099.17
827.00	2203.61
827.17	2103.26
827.34	2154.46
827.51	2144.22
827.69	2146.27
827.86	1949.67
828.03	2113.50
828.20	2109.41
828.37	2129.89
828.54	2277.34
828.71	2105.31
828.89	2285.53
829.06	2263.01
829.23	2359.26
829.40	2103.26
829.57	2125.79
829.74	2215.90
829.91	2127.84
830.09	2191.33
830.26	2256.86
830.43	2289.63
830.60	2146.27
830.77	2232.29
830.94	2263.01
831.11	2340.83
831.28	2154.46
831.46	2306.01
831.63	2152.42
831.80	2265.05
831.97	2125.79
832.14	2093.02
832.31	2176.99
832.48	2217.95
832.65	2322.40
832.82	2226.14
832.99	2232.29
833.17	2015.20
833.34	2400.22
833.51	2242.53
833.68	2050.02
833.85	2258.91
834.02	2140.13
834.19	2146.27
834.36	2111.46
834.53	2256.86
834.70	2310.11
834.87	2154.46
835.04	2144.22
835.22	2150.37
835.39	2111.46
835.56	2068.45
835.73	2068.45
835.90	2246.62
836.07	2107.36
836.24	2230.24
836.41	1980.39
836.58	2156.51
836.75	2318.30
836.92	2170.85
837.09	2068.45
837.26	2260.96
837.43	2203.61
837.60	2195.42
837.77	2084.83
837.94	2303.96
838.12	2244.57
838.29	2121.70
838.46	2019.30
838.63	2142.18
838.80	2236.38
838.97	2267.10
839.14	2107.36
839.31	2222.05
839.48	2291.68
839.65	2160.61
839.82	2230.24
839.99	2220.00
840.16	2164.70
840.33	2068.45
840.50	2168.80
840.67	2095.07
840.84	1925.09
841.01	2113.50
841.18	2146.27
841.35	2195.42
841.52	2195.42
841.69	2363.36
841.86	2164.70
842.03	2174.94
842.20	2273.25
842.37	2144.22
842.54	2168.80
842.71	2217.95
842.88	2064.35
843.05	2164.70
843.22	2113.50
843.39	2263.01
843.56	2164.70
843.73	2154.46
843.90	2127.84
844.07	2187.23
844.24	2267.10
844.41	2244.57
844.58	2170.85
844.75	2189.28
844.92	2244.57
845.09	2115.55
845.26	2045.92
845.43	2203.61
845.60	2078.69
845.77	2269.15
845.94	2183.13
846.10	2211.81
846.27	2007.01
846.44	2129.89
846.61	2109.41
846.78	2277.34
846.95	2324.44
847.12	2160.61
847.29	2115.55
847.46	2080.74
847.63	2242.53
847.80	2052.06
847.97	2074.59
848.14	2355.16
848.31	2189.28
848.48	2068.45
848.65	2211.81
848.82	2115.55
848.98	2461.66
849.15	2316.25
849.32	2287.58
849.49	2252.77
849.66	2283.49
849.83	2136.03
850.00	2070.50
850.17	2215.90
850.34	2197.47
850.51	2117.60
850.68	2062.30
850.85	2381.79
851.01	2236.38
851.18	2174.94
851.35	2183.13
851.52	2176.99
851.69	2322.40
851.86	2078.69
852.03	2166.75
852.20	2283.49
852.37	2129.89
852.53	2093.02
852.70	2064.35
852.87	2215.90
853.04	2275.29
853.21	2179.04
853.38	2232.29
853.55	2355.16
853.72	2389.98
853.89	2101.22
854.05	2148.32
854.22	2220.00
854.39	2133.98
854.56	2154.46
854.73	2344.92
854.90	2078.69
855.07	2226.14
855.23	2080.74
855.40	2060.26
855.57	2136.03
855.74	1953.76
855.91	2357.21
856.08	2080.74
856.25	2011.11
856.41	2119.65
856.58	2105.31
856.75	2191.33
856.92	2072.54
857.09	2275.29
857.26	2064.35
857.42	2152.42
857.59	2230.24
857.76	2133.98
857.93	2138.08
858.10	2242.53
858.27	2127.84
858.43	2258.91
858.60	2068.45
858.77	2043.87
858.94	2131.94
859.11	2295.77
859.27	2162.66
859.44	2172.89
859.61	2359.26
859.78	2129.89
859.95	2068.45
860.12	2195.42
860.28	2314.20
860.45	2334.68
860.62	2078.69
860.79	2205.66
860.95	2148.32
861.12	2052.06
861.29	2154.46
861.46	2027.49
861.63	2181.09
861.79	2220.00
861.96	2084.83
862.13	2140.13
862.30	2308.06
862.47	2123.74
862.63	2103.26
862.80	2195.42
862.97	2246.62
863.14	2154.46
863.30	2230.24
863.47	2152.42
863.64	2326.49
863.81	2168.80
863.97	2109.41
864.14	2193.37
864.31	2181.09
864.48	2172.89
864.65	2179.04
864.81	2220.00
864.98	2252.77
865.15	2295.77
865.32	2205.66
865.48	2230.24
865.65	2279.39
865.82	2095.07
865.98	2127.84
866.15	2277.34
866.32	2121.70
866.49	2195.42
866.65	2205.66
866.82	2138.08
866.99	2193.37
867.16	2076.64
867.32	2217.95
867.49	2109.41
867.66	2199.52
867.83	2146.27
867.99	2033.63
868.16	2101.22
868.33	2025.44
868.49	2154.46
868.66	2138.08
868.83	2189.28
868.99	2183.13
869.16	2109.41
869.33	2256.86
869.50	2133.98
869.66	2203.61
869.83	2174.94
870.00	2047.97
870.16	2244.57
870.33	2154.46
870.50	2267.10
870.66	2187.23
870.83	2293.72
871.00	2158.56
871.17	2271.20
871.33	2174.94
871.50	2131.94
871.67	2113.50
871.83	2152.42
872.00	2240.48
872.17	2144.22
872.33	2371.55
872.50	2271.20
872.67	2111.46
872.83	2162.66
873.00	2273.25
873.17	2146.27
873.33	2269.15
873.50	2160.61
873.67	2152.42
873.83	2070.50
874.00	2146.27
874.16	2232.29
874.33	2183.13
874.50	2105.31
874.66	2179.04
874.83	2152.42
875.00	2263.01
875.16	2254.81
875.33	2297.82
875.50	1988.58
875.66	2133.98
875.83	2244.57
875.99	2207.71
876.16	2197.47
876.33	2111.46
876.49	2181.09
876.66	2203.61
876.83	2187.23
876.99	2062.30
877.16	2162.66
877.32	2129.89
877.49	2088.93
877.66	2224.09
877.82	2373.60
877.99	2244.57
878.15	2168.80
878.32	2176.99
878.49	2256.86
878.65	2193.37
878.82	2260.96
878.98	2195.42
879.15	2265.05
879.32	2258.91
879.48	2281.44
879.65	2142.18
879.81	2150.37
879.98	2076.64
880.15	2119.65
880.31	2248.67
880.48	2119.65
880.64	2232.29
880.81	2256.86
880.97	2349.02
881.14	2297.82
881.31	2015.20
881.47	2324.44
881.64	2129.89
881.80	2023.39
881.97	2150.37
882.13	2267.10
882.30	2138.08
882.47	2068.45
882.63	2045.92
882.80	2162.66
882.96	2064.35
883.13	2346.97
883.29	2162.66
883.46	2115.55
883.62	2357.21
883.79	2205.66
883.95	2203.61
884.12	2179.04
884.29	2279.39
884.45	2152.42
884.62	2199.52
884.78	2072.54
884.95	2334.68
885.11	2068.45
885.28	2265.05
885.44	2158.56
885.61	2193.37
885.77	2295.77
885.94	2103.26
886.10	2181.09
886.27	2172.89
886.43	2346.97
886.60	2326.49
886.76	2189.28
886.93	2183.13
887.09	2263.01
887.26	1990.63
887.42	2193.37
887.59	2263.01
887.75	2406.36
887.92	2265.05
888.08	2250.72
888.25	2400.22
888.41	2283.49
888.58	2179.04
888.74	2060.26
888.91	2191.33
>>>>>End Processed Spectral Data<<<<<
