SpectraSuite Data File
++++++++++++++++++++++++++++++++++++
Date: Thu May 05 12:34:58 CEST 2016
User: root
Dark Spectrum Present: No
Reference Spectrum Present: No
Number of Sampled Component Spectra: 1
Spectrometers: USB4C02835
Integration Time (usec): 100000 (USB4C02835)
Spectra Averaged: 1 (USB4C02835)
Boxcar Smoothing: 0 (USB4C02835)
Correct for Electrical Dark: No (USB4C02835)
Strobe/Lamp Enabled: No (USB4C02835)
Correct for Detector Non-linearity: No (USB4C02835)
Correct for Stray Light: No (USB4C02835)
Number of Pixels in Processed Spectrum: 3648
>>>>>Begin Processed Spectral Data<<<<<
177.47	1746.92
177.69	1746.92
177.91	1746.92
178.13	1712.10
178.36	1781.73
178.58	2062.30
178.80	2215.90
179.02	2080.74
179.24	2090.98
179.46	2072.54
179.68	2238.43
179.90	2148.32
180.13	2170.85
180.35	2093.02
180.57	2064.35
180.79	2330.59
181.01	2179.04
181.23	2170.85
181.45	2211.81
181.67	2242.53
181.90	2187.23
182.12	2076.64
182.34	2007.01
182.56	2220.00
182.78	2297.82
183.00	2160.61
183.22	2103.26
183.44	2031.58
183.66	2387.93
183.89	2234.33
184.11	2103.26
184.33	2191.33
184.55	2285.53
184.77	2121.70
184.99	2193.37
185.21	2183.13
185.43	2375.64
185.65	2160.61
185.87	2115.55
186.10	2420.70
186.32	2428.89
186.54	2217.95
186.76	2213.85
186.98	2281.44
187.20	2244.57
187.42	2117.60
187.64	2107.36
187.86	2199.52
188.08	2310.11
188.30	2037.73
188.52	2074.59
188.75	2383.84
188.97	2291.68
189.19	2052.06
189.41	2119.65
189.63	2269.15
189.85	2166.75
190.07	2068.45
190.29	2013.15
190.51	2191.33
190.73	2105.31
190.95	2279.39
191.17	2113.50
191.39	2050.02
191.61	2158.56
191.84	2176.99
192.06	2299.87
192.28	2068.45
192.50	2555.86
192.72	2158.56
192.94	2152.42
193.16	2291.68
193.38	2232.29
193.60	2037.73
193.82	2150.37
194.04	2287.58
194.26	2213.85
194.48	2146.27
194.70	2129.89
194.92	2138.08
195.14	2260.96
195.36	2142.18
195.58	2193.37
195.80	2166.75
196.02	2144.22
196.24	2097.12
196.46	2187.23
196.69	2072.54
196.91	2414.56
197.13	2133.98
197.35	2168.80
197.57	2291.68
197.79	2258.91
198.01	2195.42
198.23	2156.51
198.45	2199.52
198.67	2205.66
198.89	2021.35
199.11	2197.47
199.33	2064.35
199.55	2043.87
199.77	2109.41
199.99	2193.37
200.21	2072.54
200.43	2248.67
200.65	2029.54
200.87	1992.67
201.09	2181.09
201.31	2154.46
201.53	2172.89
201.75	2209.76
201.97	2209.76
202.19	2234.33
202.41	2095.07
202.63	2306.01
202.85	2187.23
203.07	2220.00
203.29	2129.89
203.51	2082.78
203.73	2133.98
203.95	2490.33
204.17	2154.46
204.39	2162.66
204.61	2105.31
204.83	2160.61
205.05	2209.76
205.27	2240.48
205.49	2482.14
205.71	2203.61
205.93	2019.30
206.15	2107.36
206.37	2260.96
206.59	2230.24
206.81	2072.54
207.03	2074.59
207.25	2074.59
207.47	2299.87
207.69	2082.78
207.91	2301.92
208.13	2357.21
208.34	2166.75
208.56	2072.54
208.78	2222.05
209.00	2129.89
209.22	2158.56
209.44	2136.03
209.66	2103.26
209.88	2185.18
210.10	2183.13
210.32	2170.85
210.54	2181.09
210.76	2213.85
210.98	2293.72
211.20	2004.96
211.42	2166.75
211.64	2248.67
211.86	2187.23
212.08	2136.03
212.30	2095.07
212.52	2121.70
212.74	2258.91
212.96	2215.90
213.17	2248.67
213.39	2287.58
213.61	2340.83
213.83	2121.70
214.05	2133.98
214.27	2240.48
214.49	2150.37
214.71	2123.74
214.93	2187.23
215.15	2197.47
215.37	2232.29
215.59	2076.64
215.81	2170.85
216.03	2306.01
216.24	2174.94
216.46	2084.83
216.68	2136.03
216.90	2285.53
217.12	2312.16
217.34	2021.35
217.56	2297.82
217.78	2344.92
218.00	2269.15
218.22	2168.80
218.44	2205.66
218.66	2197.47
218.87	2383.84
219.09	2150.37
219.31	2152.42
219.53	2232.29
219.75	2148.32
219.97	2197.47
220.19	2211.81
220.41	2152.42
220.63	2299.87
220.85	2127.84
221.06	2138.08
221.28	2308.06
221.50	2242.53
221.72	2105.31
221.94	2121.70
222.16	2205.66
222.38	2344.92
222.60	2072.54
222.82	2107.36
223.03	2287.58
223.25	2115.55
223.47	2093.02
223.69	2293.72
223.91	2277.34
224.13	2217.95
224.35	2162.66
224.57	2203.61
224.78	2240.48
225.00	2117.60
225.22	2144.22
225.44	2140.13
225.66	2340.83
225.88	2113.50
226.10	2187.23
226.32	2187.23
226.53	2336.73
226.75	2230.24
226.97	2222.05
227.19	2097.12
227.41	2138.08
227.63	2156.51
227.85	2023.39
228.06	2154.46
228.28	2176.99
228.50	2271.20
228.72	2064.35
228.94	2119.65
229.16	2023.39
229.37	2084.83
229.59	2070.50
229.81	2187.23
230.03	2105.31
230.25	2101.22
230.47	2011.11
230.69	2031.58
230.90	2269.15
231.12	2082.78
231.34	2191.33
231.56	2252.77
231.78	2095.07
232.00	2168.80
232.21	2222.05
232.43	2125.79
232.65	1937.38
232.87	2226.14
233.09	2045.92
233.30	2064.35
233.52	2357.21
233.74	2189.28
233.96	2117.60
234.18	2236.38
234.40	2191.33
234.61	2418.65
234.83	2007.01
235.05	2113.50
235.27	2430.94
235.49	2252.77
235.70	2113.50
235.92	2254.81
236.14	2150.37
236.36	2412.51
236.58	2047.97
236.79	2201.57
237.01	2168.80
237.23	2093.02
237.45	2306.01
237.67	2170.85
237.88	2213.85
238.10	2389.98
238.32	2078.69
238.54	2144.22
238.76	2154.46
238.97	2121.70
239.19	2072.54
239.41	2295.77
239.63	2344.92
239.85	2158.56
240.06	2125.79
240.28	2045.92
240.50	2269.15
240.72	2230.24
240.93	2099.17
241.15	2236.38
241.37	2238.43
241.59	2289.63
241.81	2203.61
242.02	2156.51
242.24	2244.57
242.46	2234.33
242.68	2058.21
242.89	2111.46
243.11	2226.14
243.33	2224.09
243.55	2228.19
243.76	2088.93
243.98	2179.04
244.20	2172.89
244.42	2162.66
244.64	2082.78
244.85	2045.92
245.07	2111.46
245.29	2185.18
245.51	2131.94
245.72	2217.95
245.94	2326.49
246.16	2181.09
246.38	2150.37
246.59	2201.57
246.81	2127.84
247.03	2029.54
247.24	2015.20
247.46	2201.57
247.68	2273.25
247.90	2082.78
248.11	2154.46
248.33	2301.92
248.55	2133.98
248.77	2236.38
248.98	2209.76
249.20	2367.45
249.42	2252.77
249.64	2179.04
249.85	2152.42
250.07	2154.46
250.29	2308.06
250.50	2133.98
250.72	1970.15
250.94	2258.91
251.16	2428.89
251.37	2129.89
251.59	2207.71
251.81	2207.71
252.02	2279.39
252.24	2072.54
252.46	2209.76
252.68	2105.31
252.89	2179.04
253.11	2054.11
253.33	2303.96
253.54	2326.49
253.76	2088.93
253.98	2170.85
254.20	2103.26
254.41	2125.79
254.63	2127.84
254.85	2035.68
255.06	2140.13
255.28	2197.47
255.50	2187.23
255.71	2080.74
255.93	1949.67
256.15	2183.13
256.36	2260.96
256.58	2086.88
256.80	2054.11
257.02	2076.64
257.23	2207.71
257.45	2156.51
257.67	2234.33
257.88	2095.07
258.10	2250.72
258.32	2105.31
258.53	2113.50
258.75	2357.21
258.97	2146.27
259.18	2035.68
259.40	2203.61
259.62	2369.50
259.83	2291.68
260.05	2119.65
260.27	2557.91
260.48	2285.53
260.70	2090.98
260.92	2127.84
261.13	2131.94
261.35	2252.77
261.57	2246.62
261.78	2066.40
262.00	2136.03
262.22	2187.23
262.43	2121.70
262.65	2148.32
262.86	2174.94
263.08	2422.75
263.30	2095.07
263.51	2004.96
263.73	2060.26
263.95	2510.81
264.16	2228.19
264.38	2101.22
264.60	2113.50
264.81	2287.58
265.03	2301.92
265.25	2240.48
265.46	2162.66
265.68	2338.78
265.89	2195.42
266.11	2029.54
266.33	2142.18
266.54	2324.44
266.76	2183.13
266.98	2189.28
267.19	2195.42
267.41	2334.68
267.62	2183.13
267.84	1972.19
268.06	2232.29
268.27	2224.09
268.49	2279.39
268.70	2195.42
268.92	2101.22
269.14	2097.12
269.35	2099.17
269.57	2146.27
269.79	2144.22
270.00	2078.69
270.22	2426.84
270.43	2002.91
270.65	2023.39
270.87	2164.70
271.08	2238.43
271.30	2189.28
271.51	2195.42
271.73	2220.00
271.95	2336.73
272.16	2152.42
272.38	2166.75
272.59	2166.75
272.81	2230.24
273.02	2146.27
273.24	2170.85
273.46	2349.02
273.67	2062.30
273.89	2072.54
274.10	2179.04
274.32	2203.61
274.54	2220.00
274.75	2238.43
274.97	2164.70
275.18	2306.01
275.40	2281.44
275.61	2179.04
275.83	2129.89
276.05	2072.54
276.26	2195.42
276.48	2203.61
276.69	2199.52
276.91	2148.32
277.12	2297.82
277.34	2160.61
277.55	2193.37
277.77	2230.24
277.99	2199.52
278.20	2146.27
278.42	2127.84
278.63	2123.74
278.85	2127.84
279.06	2095.07
279.28	2220.00
279.49	2277.34
279.71	2230.24
279.93	2197.47
280.14	2127.84
280.36	2152.42
280.57	2228.19
280.79	2308.06
281.00	2133.98
281.22	2146.27
281.43	2285.53
281.65	1937.38
281.86	2095.07
282.08	2269.15
282.29	2283.49
282.51	2088.93
282.73	2047.97
282.94	2043.87
283.16	2242.53
283.37	2349.02
283.59	2242.53
283.80	2230.24
284.02	2179.04
284.23	2211.81
284.45	2193.37
284.66	2195.42
284.88	2113.50
285.09	2170.85
285.31	2265.05
285.52	2244.57
285.74	2035.68
285.95	2220.00
286.17	2201.57
286.38	2283.49
286.60	2095.07
286.81	2125.79
287.03	2199.52
287.24	2183.13
287.46	2246.62
287.67	2154.46
287.89	2346.97
288.10	2267.10
288.32	2160.61
288.53	2301.92
288.75	2203.61
288.96	2215.90
289.18	2052.06
289.39	2146.27
289.61	2228.19
289.82	2367.45
290.04	2365.40
290.25	2078.69
290.47	2123.74
290.68	2215.90
290.90	2306.01
291.11	2056.16
291.33	2236.38
291.54	2158.56
291.76	2164.70
291.97	2199.52
292.18	2228.19
292.40	2162.66
292.61	2146.27
292.83	2435.03
293.04	2244.57
293.26	2215.90
293.47	2166.75
293.69	2086.88
293.90	2166.75
294.12	2324.44
294.33	2166.75
294.55	2162.66
294.76	2224.09
294.97	2260.96
295.19	2398.17
295.40	2156.51
295.62	2199.52
295.83	2322.40
296.05	2088.93
296.26	2308.06
296.48	2111.46
296.69	2207.71
296.90	2152.42
297.12	2226.14
297.33	2295.77
297.55	2158.56
297.76	2195.42
297.98	2277.34
298.19	2183.13
298.41	2179.04
298.62	2152.42
298.83	2365.40
299.05	2189.28
299.26	2162.66
299.48	2056.16
299.69	2289.63
299.90	2138.08
300.12	2168.80
300.33	2252.77
300.55	2248.67
300.76	2215.90
300.98	2052.06
301.19	2236.38
301.40	2146.27
301.62	2117.60
301.83	2138.08
302.05	2158.56
302.26	2179.04
302.47	2195.42
302.69	2142.18
302.90	2193.37
303.12	1978.34
303.33	2267.10
303.54	2439.13
303.76	2148.32
303.97	2201.57
304.19	2338.78
304.40	2082.78
304.61	2224.09
304.83	2359.26
305.04	2285.53
305.26	2258.91
305.47	2164.70
305.68	2195.42
305.90	2076.64
306.11	2289.63
306.33	2185.18
306.54	2140.13
306.75	2162.66
306.97	2047.97
307.18	2125.79
307.39	2211.81
307.61	2277.34
307.82	2113.50
308.04	2265.05
308.25	2066.40
308.46	2256.86
308.68	2203.61
308.89	2209.76
309.10	2244.57
309.32	2119.65
309.53	2127.84
309.74	2295.77
309.96	2195.42
310.17	2256.86
310.39	2129.89
310.60	2234.33
310.81	2170.85
311.03	2041.82
311.24	2273.25
311.45	2187.23
311.67	2377.69
311.88	2170.85
312.09	2150.37
312.31	2158.56
312.52	2176.99
312.73	2068.45
312.95	2123.74
313.16	2109.41
313.37	2293.72
313.59	2215.90
313.80	2248.67
314.01	2330.59
314.23	2131.94
314.44	2166.75
314.65	2113.50
314.87	2160.61
315.08	2174.94
315.29	2101.22
315.51	2136.03
315.72	2138.08
315.93	2306.01
316.15	2199.52
316.36	2236.38
316.57	2209.76
316.79	2283.49
317.00	2176.99
317.21	2217.95
317.43	2097.12
317.64	2201.57
317.85	2029.54
318.07	2185.18
318.28	2170.85
318.49	2291.68
318.70	2506.71
318.92	2346.97
319.13	2430.94
319.34	2424.80
319.56	2361.31
319.77	2351.07
319.98	2338.78
320.20	2424.80
320.41	2279.39
320.62	2320.35
320.83	2099.17
321.05	2439.13
321.26	2217.95
321.47	2193.37
321.69	2254.81
321.90	2113.50
322.11	2176.99
322.32	2285.53
322.54	2291.68
322.75	2158.56
322.96	2426.84
323.18	2054.11
323.39	2037.73
323.60	2047.97
323.81	2293.72
324.03	2136.03
324.24	2172.89
324.45	2201.57
324.66	2113.50
324.88	2279.39
325.09	2359.26
325.30	2150.37
325.52	2170.85
325.73	2121.70
325.94	2172.89
326.15	2031.58
326.37	2150.37
326.58	2318.30
326.79	2293.72
327.00	2084.83
327.22	2162.66
327.43	2172.89
327.64	2129.89
327.85	2160.61
328.07	2105.31
328.28	2373.60
328.49	2119.65
328.70	2191.33
328.92	2136.03
329.13	2217.95
329.34	2201.57
329.55	2367.45
329.76	2297.82
329.98	2211.81
330.19	2332.64
330.40	2209.76
330.61	2187.23
330.83	2293.72
331.04	2078.69
331.25	2189.28
331.46	2144.22
331.68	2136.03
331.89	2322.40
332.10	2176.99
332.31	2062.30
332.52	2189.28
332.74	2289.63
332.95	2027.49
333.16	2111.46
333.37	2316.25
333.58	2140.13
333.80	2220.00
334.01	2004.96
334.22	2207.71
334.43	2148.32
334.64	2123.74
334.86	2133.98
335.07	2066.40
335.28	2318.30
335.49	2035.68
335.70	2187.23
335.92	2291.68
336.13	2346.97
336.34	2220.00
336.55	2209.76
336.76	2238.43
336.98	2023.39
337.19	2129.89
337.40	2318.30
337.61	2449.37
337.82	2152.42
338.04	2195.42
338.25	2009.06
338.46	2226.14
338.67	2179.04
338.88	2105.31
339.09	2129.89
339.31	2133.98
339.52	2064.35
339.73	2101.22
339.94	2195.42
340.15	2172.89
340.36	2072.54
340.58	2154.46
340.79	2207.71
341.00	2265.05
341.21	2066.40
341.42	2301.92
341.63	2123.74
341.85	2185.18
342.06	2164.70
342.27	2150.37
342.48	2187.23
342.69	2082.78
342.90	2213.85
343.12	2248.67
343.33	2250.72
343.54	2306.01
343.75	2336.73
343.96	2125.79
344.17	2064.35
344.38	2183.13
344.60	2138.08
344.81	2078.69
345.02	2136.03
345.23	2316.25
345.44	2451.42
345.65	2224.09
345.86	2236.38
346.07	2193.37
346.29	2244.57
346.50	2203.61
346.71	2224.09
346.92	2285.53
347.13	2326.49
347.34	2179.04
347.55	2174.94
347.76	2240.48
347.98	2144.22
348.19	2113.50
348.40	2324.44
348.61	2111.46
348.82	2371.55
349.03	2267.10
349.24	2142.18
349.45	2316.25
349.66	2045.92
349.88	2183.13
350.09	2099.17
350.30	2355.16
350.51	2283.49
350.72	2248.67
350.93	2226.14
351.14	2154.46
351.35	2279.39
351.56	2226.14
351.77	2215.90
351.99	2195.42
352.20	2346.97
352.41	2230.24
352.62	2004.96
352.83	2138.08
353.04	2199.52
353.25	2152.42
353.46	2248.67
353.67	2336.73
353.88	1935.33
354.09	2142.18
354.30	2115.55
354.52	2252.77
354.73	2193.37
354.94	2183.13
355.15	2207.71
355.36	2299.87
355.57	2097.12
355.78	2181.09
355.99	2166.75
356.20	2164.70
356.41	2287.58
356.62	2203.61
356.83	2176.99
357.04	2383.84
357.25	2027.49
357.46	2150.37
357.68	2031.58
357.89	2027.49
358.10	2074.59
358.31	2156.51
358.52	2248.67
358.73	2103.26
358.94	2050.02
359.15	2164.70
359.36	2183.13
359.57	2246.62
359.78	2166.75
359.99	2344.92
360.20	2101.22
360.41	2138.08
360.62	2234.33
360.83	2176.99
361.04	2183.13
361.25	2306.01
361.46	2445.27
361.67	2301.92
361.88	2232.29
362.09	2293.72
362.30	2246.62
362.51	2136.03
362.72	2113.50
362.93	2240.48
363.14	2242.53
363.35	2195.42
363.56	2088.93
363.78	2283.49
363.99	2252.77
364.20	2072.54
364.41	2230.24
364.62	2402.27
364.83	2168.80
365.04	2162.66
365.25	2193.37
365.46	2422.75
365.67	2183.13
365.88	2217.95
366.09	2162.66
366.30	2121.70
366.51	2265.05
366.72	2043.87
366.93	2201.57
367.14	2220.00
367.35	2246.62
367.56	2154.46
367.77	2279.39
367.98	2220.00
368.18	2254.81
368.39	2203.61
368.60	2107.36
368.81	2215.90
369.02	2287.58
369.23	2211.81
369.44	2072.54
369.65	2138.08
369.86	2287.58
370.07	2228.19
370.28	2080.74
370.49	2291.68
370.70	2187.23
370.91	2074.59
371.12	2062.30
371.33	2295.77
371.54	2146.27
371.75	2361.31
371.96	1980.39
372.17	2283.49
372.38	2195.42
372.59	2127.84
372.80	2117.60
373.01	2113.50
373.22	2125.79
373.43	2197.47
373.64	2052.06
373.85	2269.15
374.06	2299.87
374.26	2209.76
374.47	2211.81
374.68	2320.35
374.89	2144.22
375.10	2080.74
375.31	2215.90
375.52	2133.98
375.73	2183.13
375.94	2080.74
376.15	2306.01
376.36	2082.78
376.57	2168.80
376.78	2209.76
376.99	2164.70
377.20	2363.36
377.40	2146.27
377.61	2295.77
377.82	2121.70
378.03	2385.88
378.24	2267.10
378.45	2080.74
378.66	2168.80
378.87	2050.02
379.08	2086.88
379.29	2088.93
379.50	2340.83
379.71	2187.23
379.91	2209.76
380.12	2136.03
380.33	2191.33
380.54	2228.19
380.75	2099.17
380.96	2154.46
381.17	2332.64
381.38	2199.52
381.59	2224.09
381.80	2117.60
382.00	2318.30
382.21	2201.57
382.42	2371.55
382.63	2469.85
382.84	2213.85
383.05	2222.05
383.26	2297.82
383.47	2181.09
383.68	2162.66
383.88	2238.43
384.09	2203.61
384.30	2394.08
384.51	2215.90
384.72	2158.56
384.93	2086.88
385.14	2310.11
385.35	2285.53
385.55	2080.74
385.76	2334.68
385.97	2211.81
386.18	2082.78
386.39	2103.26
386.60	2093.02
386.81	2129.89
387.02	2125.79
387.22	2117.60
387.43	2256.86
387.64	2228.19
387.85	2365.40
388.06	2457.56
388.27	4016.07
388.48	8445.82
388.68	12242.76
388.89	14669.60
389.10	15853.33
389.31	14561.06
389.52	11554.64
389.73	9953.13
389.93	8908.66
390.14	8255.36
390.35	7331.73
390.56	6813.59
390.77	5515.18
390.98	4200.38
391.18	3315.66
391.39	2797.53
391.60	2377.69
391.81	2375.64
392.02	2113.50
392.23	2506.71
392.43	2164.70
392.64	2277.34
392.85	2220.00
393.06	2326.49
393.27	2183.13
393.47	2154.46
393.68	2138.08
393.89	2146.27
394.10	2285.53
394.31	2119.65
394.52	2158.56
394.72	2228.19
394.93	2318.30
395.14	2105.31
395.35	2240.48
395.56	2097.12
395.76	2293.72
395.97	2215.90
396.18	2326.49
396.39	2416.60
396.60	2674.65
396.80	2473.95
397.01	2318.30
397.22	2400.22
397.43	2385.88
397.64	2207.71
397.84	2306.01
398.05	2406.36
398.26	2269.15
398.47	2312.16
398.67	2332.64
398.88	2197.47
399.09	2293.72
399.30	2203.61
399.51	2314.20
399.71	2113.50
399.92	2199.52
400.13	2203.61
400.34	2207.71
400.54	2172.89
400.75	2351.07
400.96	2238.43
401.17	2398.17
401.37	2297.82
401.58	2269.15
401.79	2162.66
402.00	2365.40
402.21	2662.36
402.41	2465.75
402.62	2588.63
402.83	2615.26
403.04	2736.09
403.24	2791.38
403.45	2338.78
403.66	2482.14
403.87	2424.80
404.07	2553.82
404.28	2441.18
404.49	2523.10
404.70	2258.91
404.90	2371.55
405.11	2244.57
405.32	2256.86
405.52	2105.31
405.73	2183.13
405.94	2086.88
406.15	2181.09
406.35	2353.12
406.56	2242.53
406.77	2246.62
406.98	2193.37
407.18	2060.26
407.39	2209.76
407.60	2226.14
407.80	2279.39
408.01	2189.28
408.22	2248.67
408.43	2125.79
408.63	2228.19
408.84	2340.83
409.05	2285.53
409.25	2107.36
409.46	2107.36
409.67	2144.22
409.88	2084.83
410.08	2185.18
410.29	2082.78
410.50	2275.29
410.70	2172.89
410.91	2144.22
411.12	2146.27
411.32	2207.71
411.53	2148.32
411.74	2277.34
411.95	2326.49
412.15	2240.48
412.36	2338.78
412.57	2310.11
412.77	2318.30
412.98	2185.18
413.19	2129.89
413.39	2211.81
413.60	2197.47
413.81	2324.44
414.01	2166.75
414.22	2244.57
414.43	2322.40
414.63	2232.29
414.84	2303.96
415.05	2150.37
415.25	2093.02
415.46	2191.33
415.67	2136.03
415.87	2285.53
416.08	2234.33
416.29	2195.42
416.49	2265.05
416.70	2148.32
416.91	2238.43
417.11	2146.27
417.32	2310.11
417.53	2269.15
417.73	2269.15
417.94	2250.72
418.15	2228.19
418.35	2260.96
418.56	2191.33
418.77	2394.08
418.97	2131.94
419.18	2193.37
419.38	1986.53
419.59	2234.33
419.80	2285.53
420.00	2160.61
420.21	2240.48
420.42	2359.26
420.62	2252.77
420.83	2093.02
421.04	2176.99
421.24	2148.32
421.45	2322.40
421.65	2265.05
421.86	2088.93
422.07	2301.92
422.27	2303.96
422.48	2215.90
422.69	2105.31
422.89	2146.27
423.10	2181.09
423.30	2086.88
423.51	2273.25
423.72	2246.62
423.92	2222.05
424.13	2043.87
424.33	2183.13
424.54	2181.09
424.75	2230.24
424.95	2375.64
425.16	2129.89
425.36	2146.27
425.57	2236.38
425.78	2215.90
425.98	2277.34
426.19	2193.37
426.39	2127.84
426.60	2144.22
426.81	2312.16
427.01	2281.44
427.22	2090.98
427.42	2086.88
427.63	2080.74
427.83	2359.26
428.04	2322.40
428.25	2303.96
428.45	2332.64
428.66	2377.69
428.86	2277.34
429.07	2193.37
429.28	2142.18
429.48	2238.43
429.69	2123.74
429.89	2285.53
430.10	2029.54
430.30	2308.06
430.51	2254.81
430.71	2213.85
430.92	2136.03
431.13	2176.99
431.33	2252.77
431.54	2154.46
431.74	2303.96
431.95	2424.80
432.15	2052.06
432.36	2166.75
432.56	2226.14
432.77	2473.95
432.98	2314.20
433.18	2195.42
433.39	2215.90
433.59	2238.43
433.80	2389.98
434.00	2359.26
434.21	2144.22
434.41	2156.51
434.62	2367.45
434.82	2201.57
435.03	2133.98
435.23	2271.20
435.44	2084.83
435.64	2170.85
435.85	2160.61
436.06	2232.29
436.26	2295.77
436.47	2189.28
436.67	2080.74
436.88	2238.43
437.08	2318.30
437.29	2250.72
437.49	2222.05
437.70	2332.64
437.90	2199.52
438.11	2349.02
438.31	2277.34
438.52	2318.30
438.72	2400.22
438.93	2488.28
439.13	2299.87
439.34	2422.75
439.54	2201.57
439.75	2283.49
439.95	2312.16
440.16	2162.66
440.36	2195.42
440.57	2228.19
440.77	2213.85
440.98	2119.65
441.18	2246.62
441.39	2207.71
441.59	2179.04
441.80	2387.93
442.00	2252.77
442.21	2314.20
442.41	2150.37
442.62	2236.38
442.82	2158.56
443.02	2187.23
443.23	2275.29
443.43	2170.85
443.64	2359.26
443.84	2140.13
444.05	2297.82
444.25	2211.81
444.46	2158.56
444.66	2181.09
444.87	2312.16
445.07	2078.69
445.28	2176.99
445.48	2363.36
445.69	2351.07
445.89	2471.90
446.09	2197.47
446.30	2496.47
446.50	2736.09
446.71	4308.93
446.91	5556.14
447.12	6303.65
447.32	6846.36
447.53	6277.02
447.73	5320.62
447.93	4497.34
448.14	4179.90
448.34	4083.65
448.55	3559.37
448.75	3545.03
448.96	3422.16
449.16	3053.52
449.36	2809.81
449.57	2545.63
449.77	2349.02
449.98	2277.34
450.18	2349.02
450.39	2279.39
450.59	2297.82
450.79	2232.29
451.00	2228.19
451.20	2332.64
451.41	2152.42
451.61	2205.66
451.81	2183.13
452.02	2103.26
452.22	2199.52
452.43	2162.66
452.63	2088.93
452.84	2191.33
453.04	2181.09
453.24	2254.81
453.45	2127.84
453.65	2252.77
453.86	2152.42
454.06	2191.33
454.26	2146.27
454.47	2138.08
454.67	2334.68
454.87	2220.00
455.08	2150.37
455.28	2359.26
455.49	2240.48
455.69	2179.04
455.89	2422.75
456.10	2295.77
456.30	2121.70
456.51	2240.48
456.71	2252.77
456.91	2234.33
457.12	2185.18
457.32	2230.24
457.52	2062.30
457.73	2306.01
457.93	2207.71
458.14	2195.42
458.34	2125.79
458.54	2125.79
458.75	2172.89
458.95	2324.44
459.15	2205.66
459.36	2277.34
459.56	2285.53
459.76	2381.79
459.97	2172.89
460.17	2193.37
460.37	2263.01
460.58	2244.57
460.78	2277.34
460.99	2199.52
461.19	2168.80
461.39	2129.89
461.60	2136.03
461.80	2220.00
462.00	2146.27
462.21	2277.34
462.41	2084.83
462.61	2070.50
462.82	2052.06
463.02	2205.66
463.22	2183.13
463.43	2242.53
463.63	2230.24
463.83	2310.11
464.04	2234.33
464.24	2174.94
464.44	2105.31
464.64	2154.46
464.85	2346.97
465.05	2252.77
465.25	2189.28
465.46	2220.00
465.66	2291.68
465.86	2234.33
466.07	2215.90
466.27	2211.81
466.47	2066.40
466.68	2060.26
466.88	2328.54
467.08	2344.92
467.29	2330.59
467.49	2195.42
467.69	2211.81
467.89	2211.81
468.10	2248.67
468.30	2273.25
468.50	2363.36
468.71	2346.97
468.91	2166.75
469.11	2346.97
469.31	2201.57
469.52	2158.56
469.72	2361.31
469.92	2418.65
470.13	2152.42
470.33	2230.24
470.53	2324.44
470.73	2713.56
470.94	3045.33
471.14	3270.61
471.34	3669.96
471.54	3444.68
471.75	3186.64
471.95	2781.14
472.15	2832.34
472.36	2781.14
472.56	2641.88
472.76	2703.32
472.96	2645.98
473.17	2492.38
473.37	2394.08
473.57	2301.92
473.77	2328.54
473.98	2209.76
474.18	2088.93
474.38	2492.38
474.58	2203.61
474.79	2041.82
474.99	2234.33
475.19	2281.44
475.39	2107.36
475.60	2238.43
475.80	2179.04
476.00	2211.81
476.20	2181.09
476.41	2201.57
476.61	2232.29
476.81	2373.60
477.01	2191.33
477.21	2273.25
477.42	2318.30
477.62	2105.31
477.82	2260.96
478.02	2170.85
478.23	2293.72
478.43	2060.26
478.63	2213.85
478.83	2226.14
479.03	2211.81
479.24	2326.49
479.44	2373.60
479.64	2142.18
479.84	2002.91
480.04	2179.04
480.25	2252.77
480.45	2103.26
480.65	2111.46
480.85	2379.74
481.06	2220.00
481.26	2215.90
481.46	2244.57
481.66	2246.62
481.86	2099.17
482.06	2322.40
482.27	2105.31
482.47	2156.51
482.67	2263.01
482.87	2146.27
483.07	2287.58
483.28	2195.42
483.48	2062.30
483.68	2226.14
483.88	2148.32
484.08	2007.01
484.29	2084.83
484.49	2199.52
484.69	2164.70
484.89	2334.68
485.09	2330.59
485.29	2217.95
485.50	2240.48
485.70	2146.27
485.90	2357.21
486.10	2189.28
486.30	2150.37
486.50	2320.35
486.71	2252.77
486.91	2236.38
487.11	2297.82
487.31	2105.31
487.51	2289.63
487.71	2129.89
487.91	2111.46
488.12	2097.12
488.32	1980.39
488.52	2160.61
488.72	1945.57
488.92	2179.04
489.12	2371.55
489.32	2291.68
489.53	2238.43
489.73	2031.58
489.93	2375.64
490.13	2121.70
490.33	2054.11
490.53	2244.57
490.73	2332.64
490.94	2088.93
491.14	2185.18
491.34	2346.97
491.54	2562.01
491.74	3188.69
491.94	3821.51
492.14	4032.45
492.34	4165.57
492.54	3702.73
492.75	3198.93
492.95	3127.25
493.15	2916.31
493.35	2940.88
493.55	2869.20
493.75	2711.51
493.95	2709.46
494.15	2480.09
494.35	2496.47
494.56	2340.83
494.76	2215.90
494.96	2312.16
495.16	2240.48
495.36	2160.61
495.56	2207.71
495.76	2205.66
495.96	2226.14
496.16	2170.85
496.36	2379.74
496.56	2207.71
496.77	2289.63
496.97	2234.33
497.17	2265.05
497.37	2023.39
497.57	2232.29
497.77	2150.37
497.97	2176.99
498.17	2197.47
498.37	2164.70
498.57	2254.81
498.77	2174.94
498.97	2275.29
499.17	2430.94
499.38	2187.23
499.58	2277.34
499.78	2252.77
499.98	2285.53
500.18	2150.37
500.38	2193.37
500.58	2412.51
500.78	2836.44
500.98	5027.76
501.18	7282.58
501.38	8955.77
501.58	9971.56
501.78	9764.72
501.98	7720.84
502.18	6571.93
502.38	5488.56
502.58	5154.74
502.78	4728.76
502.98	4405.18
503.18	4405.18
503.38	3899.33
503.59	3436.49
503.79	3250.13
503.99	3016.66
504.19	2879.44
504.39	2824.15
504.59	2875.35
504.79	2893.78
504.99	2887.64
505.19	2592.73
505.39	2504.67
505.59	2654.17
505.79	2555.86
505.99	2412.51
506.19	2400.22
506.39	2465.75
506.59	2176.99
506.79	2256.86
506.99	2226.14
507.19	2222.05
507.39	2285.53
507.59	2127.84
507.79	2158.56
507.99	2185.18
508.19	2205.66
508.39	2232.29
508.59	2183.13
508.79	2342.88
508.99	2414.56
509.19	2176.99
509.39	2273.25
509.59	2109.41
509.79	2244.57
509.99	2201.57
510.19	2324.44
510.39	2303.96
510.59	2156.51
510.79	2166.75
510.99	2113.50
511.19	2238.43
511.39	2363.36
511.59	2334.68
511.79	2381.79
511.99	2207.71
512.19	2299.87
512.38	2293.72
512.58	2160.61
512.78	2226.14
512.98	2318.30
513.18	2379.74
513.38	2013.15
513.58	2318.30
513.78	2187.23
513.98	2152.42
514.18	2252.77
514.38	2203.61
514.58	2299.87
514.78	2224.09
514.98	2093.02
515.18	2224.09
515.38	2088.93
515.58	2363.36
515.78	2193.37
515.98	2187.23
516.18	2342.88
516.38	2201.57
516.57	2140.13
516.77	2117.60
516.97	2332.64
517.17	2148.32
517.37	2056.16
517.57	2275.29
517.77	2189.28
517.97	2164.70
518.17	2285.53
518.37	2133.98
518.57	2127.84
518.77	2113.50
518.97	2193.37
519.16	2242.53
519.36	2328.54
519.56	2144.22
519.76	2129.89
519.96	2213.85
520.16	2377.69
520.36	2125.79
520.56	2334.68
520.76	2185.18
520.96	2197.47
521.16	2256.86
521.35	2324.44
521.55	2426.84
521.75	2244.57
521.95	2119.65
522.15	2121.70
522.35	2054.11
522.55	2125.79
522.75	2336.73
522.95	2121.70
523.14	2220.00
523.34	2152.42
523.54	2263.01
523.74	2252.77
523.94	2265.05
524.14	2121.70
524.34	2283.49
524.54	2324.44
524.73	2234.33
524.93	2324.44
525.13	2158.56
525.33	2088.93
525.53	2422.75
525.73	2275.29
525.93	2281.44
526.13	2150.37
526.32	2176.99
526.52	2269.15
526.72	2332.64
526.92	2179.04
527.12	2127.84
527.32	2105.31
527.52	2217.95
527.71	2168.80
527.91	2170.85
528.11	2129.89
528.31	2199.52
528.51	2199.52
528.71	2277.34
528.90	2217.95
529.10	2328.54
529.30	2252.77
529.50	2007.01
529.70	2254.81
529.90	2201.57
530.09	2211.81
530.29	2080.74
530.49	2162.66
530.69	2443.23
530.89	2138.08
531.09	2324.44
531.28	2117.60
531.48	2285.53
531.68	2160.61
531.88	2306.01
532.08	2279.39
532.28	2183.13
532.47	2228.19
532.67	2422.75
532.87	2293.72
533.07	2111.46
533.27	2322.40
533.46	2201.57
533.66	2273.25
533.86	2232.29
534.06	2256.86
534.26	2197.47
534.45	2234.33
534.65	2336.73
534.85	2220.00
535.05	2109.41
535.25	2289.63
535.44	2050.02
535.64	2230.24
535.84	2199.52
536.04	2217.95
536.24	2170.85
536.43	2187.23
536.63	2275.29
536.83	2203.61
537.03	2158.56
537.22	2078.69
537.42	1992.67
537.62	2269.15
537.82	2107.36
538.02	2381.79
538.21	2275.29
538.41	2467.80
538.61	2191.33
538.81	2164.70
539.00	2318.30
539.20	2185.18
539.40	2123.74
539.60	2263.01
539.79	2224.09
539.99	2224.09
540.19	2179.04
540.39	2119.65
540.58	2109.41
540.78	2254.81
540.98	2207.71
541.18	2291.68
541.37	2217.95
541.57	2174.94
541.77	2217.95
541.97	2121.70
542.16	2080.74
542.36	2179.04
542.56	2183.13
542.76	2340.83
542.95	2244.57
543.15	2299.87
543.35	2316.25
543.54	2138.08
543.74	2078.69
543.94	2291.68
544.14	2142.18
544.33	2318.30
544.53	2181.09
544.73	2217.95
544.93	2095.07
545.12	2207.71
545.32	2136.03
545.52	2142.18
545.71	2127.84
545.91	2119.65
546.11	2129.89
546.30	2154.46
546.50	2236.38
546.70	2256.86
546.90	2197.47
547.09	2168.80
547.29	2224.09
547.49	2303.96
547.68	2142.18
547.88	2168.80
548.08	2281.44
548.27	2693.08
548.47	2138.08
548.67	2146.27
548.87	2222.05
549.06	2162.66
549.26	2201.57
549.46	2263.01
549.65	2234.33
549.85	2195.42
550.05	2250.72
550.24	2060.26
550.44	2220.00
550.64	2236.38
550.83	2199.52
551.03	2334.68
551.23	2320.35
551.42	2260.96
551.62	2142.18
551.82	2246.62
552.01	2254.81
552.21	2244.57
552.41	2265.05
552.60	2338.78
552.80	2265.05
553.00	2152.42
553.19	2224.09
553.39	2502.62
553.59	2154.46
553.78	2187.23
553.98	2244.57
554.17	2097.12
554.37	2269.15
554.57	2281.44
554.76	2033.63
554.96	2142.18
555.16	2260.96
555.35	2232.29
555.55	2244.57
555.75	2279.39
555.94	2289.63
556.14	2000.87
556.33	2244.57
556.53	2174.94
556.73	2201.57
556.92	2226.14
557.12	2301.92
557.32	2400.22
557.51	2340.83
557.71	2250.72
557.90	2367.45
558.10	2338.78
558.30	2228.19
558.49	2199.52
558.69	2121.70
558.88	2273.25
559.08	2238.43
559.28	2267.10
559.47	2244.57
559.67	2301.92
559.86	2379.74
560.06	2252.77
560.26	2179.04
560.45	2236.38
560.65	2244.57
560.84	2363.36
561.04	2113.50
561.24	2277.34
561.43	2193.37
561.63	2400.22
561.82	2248.67
562.02	2234.33
562.22	2195.42
562.41	2131.94
562.61	2160.61
562.80	2103.26
563.00	2467.80
563.19	2232.29
563.39	2170.85
563.59	2258.91
563.78	2109.41
563.98	2103.26
564.17	2084.83
564.37	2154.46
564.56	2224.09
564.76	2101.22
564.96	2351.07
565.15	2252.77
565.35	2412.51
565.54	2215.90
565.74	2297.82
565.93	2201.57
566.13	2144.22
566.32	2226.14
566.52	2281.44
566.71	2228.19
566.91	2273.25
567.11	2228.19
567.30	2201.57
567.50	2217.95
567.69	2244.57
567.89	2142.18
568.08	2105.31
568.28	2195.42
568.47	2058.21
568.67	2273.25
568.86	2154.46
569.06	2279.39
569.25	2269.15
569.45	2095.07
569.64	2138.08
569.84	2160.61
570.04	2086.88
570.23	2174.94
570.43	2144.22
570.62	2277.34
570.82	2375.64
571.01	2090.98
571.21	2072.54
571.40	2162.66
571.60	2301.92
571.79	2209.76
571.99	2299.87
572.18	2174.94
572.38	2213.85
572.57	2191.33
572.77	2236.38
572.96	2437.08
573.16	2267.10
573.35	2193.37
573.55	2230.24
573.74	2244.57
573.94	2150.37
574.13	2160.61
574.33	2201.57
574.52	2355.16
574.71	2226.14
574.91	2248.67
575.10	2062.30
575.30	2183.13
575.49	2119.65
575.69	2156.51
575.88	2215.90
576.08	2258.91
576.27	2359.26
576.47	2310.11
576.66	2459.61
576.86	2414.56
577.05	2310.11
577.25	2273.25
577.44	2424.80
577.64	2252.77
577.83	2330.59
578.02	2236.38
578.22	2299.87
578.41	2408.41
578.61	2154.46
578.80	2095.07
579.00	2234.33
579.19	2154.46
579.39	2258.91
579.58	2273.25
579.77	2179.04
579.97	2357.21
580.16	2387.93
580.36	2326.49
580.55	2385.88
580.75	2256.86
580.94	2273.25
581.13	2303.96
581.33	2367.45
581.52	2250.72
581.72	2424.80
581.91	2400.22
582.11	2185.18
582.30	2303.96
582.49	2330.59
582.69	2457.56
582.88	2314.20
583.08	2129.89
583.27	2330.59
583.47	2289.63
583.66	2201.57
583.85	2162.66
584.05	2201.57
584.24	2260.96
584.44	2256.86
584.63	2346.97
584.82	2445.27
585.02	2389.98
585.21	2416.60
585.41	2428.89
585.60	2342.88
585.79	2496.47
585.99	2441.18
586.18	2357.21
586.37	2813.91
586.57	4583.35
586.76	13330.23
586.96	32296.47
587.15	46378.30
587.34	55368.88
587.54	60638.31
587.73	55639.22
587.93	39349.67
588.12	29394.50
588.31	23705.24
588.51	20594.37
588.70	19078.88
588.89	17317.62
589.09	15263.51
589.28	13242.17
589.47	10497.89
589.67	8468.35
589.86	6520.73
590.06	4818.87
590.25	3923.91
590.44	3252.17
590.64	2863.06
590.83	2547.67
591.02	2613.21
591.22	2396.12
591.41	2332.64
591.60	2293.72
591.80	2478.04
591.99	2162.66
592.18	2160.61
592.38	2306.01
592.57	2250.72
592.76	2271.20
592.96	2318.30
593.15	2228.19
593.34	2322.40
593.54	2267.10
593.73	2301.92
593.92	2252.77
594.12	2336.73
594.31	2312.16
594.50	2430.94
594.70	2365.40
594.89	2494.43
595.08	2185.18
595.28	2383.84
595.47	2596.82
595.66	2318.30
595.86	2146.27
596.05	2209.76
596.24	2258.91
596.43	2394.08
596.63	2342.88
596.82	2252.77
597.01	2277.34
597.21	2424.80
597.40	2252.77
597.59	2283.49
597.79	2215.90
597.98	2349.02
598.17	2234.33
598.36	2189.28
598.56	2316.25
598.75	2277.34
598.94	2228.19
599.14	2226.14
599.33	2226.14
599.52	2357.21
599.71	2285.53
599.91	2230.24
600.10	2279.39
600.29	2230.24
600.48	2275.29
600.68	2316.25
600.87	2273.25
601.06	2162.66
601.26	2205.66
601.45	2271.20
601.64	2154.46
601.83	2361.31
602.03	2211.81
602.22	2232.29
602.41	2367.45
602.60	2457.56
602.80	2316.25
602.99	2310.11
603.18	2203.61
603.37	2215.90
603.57	2258.91
603.76	2201.57
603.95	2332.64
604.14	2164.70
604.34	2160.61
604.53	2256.86
604.72	2162.66
604.91	2332.64
605.10	2269.15
605.30	2095.07
605.49	2465.75
605.68	2281.44
605.87	2236.38
606.07	2127.84
606.26	2260.96
606.45	2248.67
606.64	2285.53
606.84	2154.46
607.03	2297.82
607.22	2258.91
607.41	2234.33
607.60	2238.43
607.80	2336.73
607.99	2211.81
608.18	2275.29
608.37	2222.05
608.56	2168.80
608.76	2367.45
608.95	2412.51
609.14	2303.96
609.33	2342.88
609.52	2504.67
609.72	2310.11
609.91	2338.78
610.10	2299.87
610.29	2326.49
610.48	2295.77
610.68	2213.85
610.87	2254.81
611.06	2293.72
611.25	2234.33
611.44	2375.64
611.63	2234.33
611.83	2287.58
612.02	2039.78
612.21	2316.25
612.40	2060.26
612.59	2093.02
612.79	2174.94
612.98	2183.13
613.17	2324.44
613.36	2211.81
613.55	2500.57
613.74	2322.40
613.93	2379.74
614.13	2498.52
614.32	2521.05
614.51	2408.41
614.70	2318.30
614.89	2226.14
615.08	2383.84
615.28	2746.33
615.47	2176.99
615.66	2346.97
615.85	2320.35
616.04	2342.88
616.23	2308.06
616.42	2236.38
616.62	2359.26
616.81	2301.92
617.00	2252.77
617.19	2209.76
617.38	2193.37
617.57	2248.67
617.76	2267.10
617.95	2265.05
618.15	2242.53
618.34	2385.88
618.53	2088.93
618.72	2316.25
618.91	2377.69
619.10	2326.49
619.29	2283.49
619.48	2236.38
619.68	2166.75
619.87	2197.47
620.06	2127.84
620.25	2260.96
620.44	2105.31
620.63	2099.17
620.82	2217.95
621.01	2314.20
621.20	2277.34
621.39	2254.81
621.59	2330.59
621.78	2199.52
621.97	2277.34
622.16	2281.44
622.35	2203.61
622.54	2287.58
622.73	2242.53
622.92	1976.29
623.11	2273.25
623.30	2203.61
623.49	2250.72
623.68	2185.18
623.88	2342.88
624.07	2242.53
624.26	2195.42
624.45	2209.76
624.64	2199.52
624.83	2250.72
625.02	2258.91
625.21	2303.96
625.40	2228.19
625.59	2346.97
625.78	2197.47
625.97	2346.97
626.16	2453.47
626.35	2379.74
626.54	2271.20
626.74	2375.64
626.93	2207.71
627.12	2297.82
627.31	2330.59
627.50	2220.00
627.69	2320.35
627.88	2170.85
628.07	2152.42
628.26	2068.45
628.45	2166.75
628.64	2070.50
628.83	2244.57
629.02	2078.69
629.21	2271.20
629.40	2344.92
629.59	2193.37
629.78	2195.42
629.97	2267.10
630.16	2248.67
630.35	2176.99
630.54	2174.94
630.73	2129.89
630.92	2205.66
631.11	2129.89
631.30	2252.77
631.49	2379.74
631.68	2127.84
631.87	2256.86
632.06	2140.13
632.25	2408.41
632.44	2258.91
632.63	2220.00
632.82	2220.00
633.01	2301.92
633.20	2361.31
633.39	2252.77
633.58	2224.09
633.77	2260.96
633.96	2365.40
634.15	2367.45
634.34	2312.16
634.53	2301.92
634.72	2205.66
634.91	2140.13
635.10	2293.72
635.29	2287.58
635.48	2224.09
635.67	2179.04
635.86	2121.70
636.05	2332.64
636.24	2203.61
636.43	2174.94
636.62	2232.29
636.81	1984.48
637.00	2176.99
637.19	2240.48
637.38	2207.71
637.57	2181.09
637.76	2316.25
637.95	2359.26
638.14	2306.01
638.33	2281.44
638.52	2246.62
638.71	2242.53
638.89	2211.81
639.08	2490.33
639.27	2326.49
639.46	2502.62
639.65	2922.45
639.84	2987.99
640.03	3135.44
640.22	3045.33
640.41	3063.76
640.60	2617.30
640.79	2545.63
640.98	2389.98
641.17	2506.71
641.36	2459.61
641.55	2449.37
641.74	2279.39
641.92	2199.52
642.11	2170.85
642.30	2201.57
642.49	2170.85
642.68	2150.37
642.87	2260.96
643.06	2226.14
643.25	2142.18
643.44	2148.32
643.63	2217.95
643.82	2236.38
644.00	2103.26
644.19	2185.18
644.38	2093.02
644.57	2293.72
644.76	2220.00
644.95	2207.71
645.14	2265.05
645.33	2127.84
645.52	2271.20
645.71	2078.69
645.89	2072.54
646.08	2170.85
646.27	2205.66
646.46	2310.11
646.65	2068.45
646.84	2222.05
647.03	2043.87
647.22	2275.29
647.40	2117.60
647.59	2176.99
647.78	2074.59
647.97	2045.92
648.16	2115.55
648.35	2336.73
648.54	2320.35
648.73	2191.33
648.91	2254.81
649.10	2150.37
649.29	2107.36
649.48	2136.03
649.67	2209.76
649.86	2355.16
650.05	2359.26
650.23	2531.29
650.42	2301.92
650.61	2510.81
650.80	2480.09
650.99	2486.23
651.18	2377.69
651.36	2361.31
651.55	2228.19
651.74	2334.68
651.93	2260.96
652.12	2242.53
652.31	2236.38
652.49	2306.01
652.68	2246.62
652.87	2320.35
653.06	2252.77
653.25	2367.45
653.44	2263.01
653.62	2332.64
653.81	2260.96
654.00	2189.28
654.19	2254.81
654.38	2426.84
654.56	2293.72
654.75	2170.85
654.94	2289.63
655.13	2271.20
655.32	2162.66
655.51	2222.05
655.69	2142.18
655.88	2308.06
656.07	2138.08
656.26	2195.42
656.45	2117.60
656.63	2181.09
656.82	2201.57
657.01	2351.07
657.20	2097.12
657.38	2281.44
657.57	2150.37
657.76	2103.26
657.95	2324.44
658.14	2154.46
658.32	2191.33
658.51	2076.64
658.70	2211.81
658.89	2170.85
659.08	2277.34
659.26	2400.22
659.45	2179.04
659.64	2289.63
659.83	2226.14
660.01	2562.01
660.20	2183.13
660.39	2287.58
660.58	2047.97
660.76	2283.49
660.95	2068.45
661.14	2187.23
661.33	2121.70
661.51	2097.12
661.70	2199.52
661.89	2220.00
662.08	2244.57
662.26	2095.07
662.45	2125.79
662.64	2377.69
662.83	2287.58
663.01	2111.46
663.20	2193.37
663.39	2383.84
663.58	2154.46
663.76	2193.37
663.95	2320.35
664.14	2172.89
664.32	2185.18
664.51	2111.46
664.70	2123.74
664.89	2209.76
665.07	2031.58
665.26	2275.29
665.45	2103.26
665.64	2281.44
665.82	2238.43
666.01	2342.88
666.20	2142.18
666.38	2373.60
666.57	2355.16
666.76	3274.70
666.95	7972.74
667.13	16510.72
667.32	22046.38
667.51	25675.38
667.69	27903.57
667.88	25722.49
668.07	18136.81
668.25	14565.15
668.44	11925.32
668.63	10059.62
668.81	9115.51
669.00	7913.35
669.19	7137.17
669.38	6324.13
669.56	5195.70
669.75	4423.61
669.94	3717.06
670.12	3121.10
670.31	2799.57
670.50	2543.58
670.68	2512.86
670.87	2441.18
671.06	2271.20
671.24	2365.40
671.43	2424.80
671.62	2250.72
671.80	2207.71
671.99	2277.34
672.18	2263.01
672.36	2269.15
672.55	2199.52
672.74	2263.01
672.92	2187.23
673.11	2285.53
673.29	2095.07
673.48	2365.40
673.67	2142.18
673.85	2363.36
674.04	2109.41
674.23	2191.33
674.41	2318.30
674.60	2146.27
674.79	2043.87
674.97	2064.35
675.16	2260.96
675.34	2232.29
675.53	2115.55
675.72	2289.63
675.90	2355.16
676.09	2144.22
676.28	2252.77
676.46	2023.39
676.65	2226.14
676.83	1988.58
677.02	2166.75
677.21	2244.57
677.39	2193.37
677.58	2164.70
677.77	2197.47
677.95	2152.42
678.14	2187.23
678.32	2170.85
678.51	2183.13
678.70	2373.60
678.88	2119.65
679.07	2193.37
679.25	2193.37
679.44	2133.98
679.63	2113.50
679.81	2203.61
680.00	2269.15
680.18	2279.39
680.37	2334.68
680.55	2154.46
680.74	2043.87
680.93	2045.92
681.11	2209.76
681.30	2150.37
681.48	2260.96
681.67	2172.89
681.85	2269.15
682.04	2086.88
682.23	2256.86
682.41	2236.38
682.60	2176.99
682.78	2174.94
682.97	2107.36
683.15	2179.04
683.34	2158.56
683.53	2310.11
683.71	2031.58
683.90	2310.11
684.08	2365.40
684.27	2136.03
684.45	2232.29
684.64	2326.49
684.82	2179.04
685.01	2281.44
685.19	2185.18
685.38	2338.78
685.57	2195.42
685.75	2111.46
685.94	2203.61
686.12	2033.63
686.31	2072.54
686.49	2389.98
686.68	2039.78
686.86	2228.19
687.05	2179.04
687.23	2328.54
687.42	2146.27
687.60	2095.07
687.79	2293.72
687.97	2324.44
688.16	2316.25
688.34	2263.01
688.53	2117.60
688.71	2232.29
688.90	2250.72
689.08	2222.05
689.27	2088.93
689.45	2322.40
689.64	2252.77
689.82	2205.66
690.01	2267.10
690.19	2299.87
690.38	2199.52
690.56	2349.02
690.75	2111.46
690.93	2195.42
691.12	2105.31
691.30	2133.98
691.49	2236.38
691.67	2183.13
691.86	2449.37
692.04	2179.04
692.23	2226.14
692.41	2228.19
692.60	2473.95
692.78	2400.22
692.97	2211.81
693.15	2285.53
693.34	2453.47
693.52	2355.16
693.71	2154.46
693.89	2181.09
694.08	2023.39
694.26	2281.44
694.44	2285.53
694.63	2217.95
694.81	2097.12
695.00	2168.80
695.18	2293.72
695.37	2408.41
695.55	2228.19
695.74	2187.23
695.92	2121.70
696.10	2330.59
696.29	2004.96
696.47	2144.22
696.66	2144.22
696.84	2082.78
697.03	2205.66
697.21	2334.68
697.40	3190.74
697.58	2252.77
697.76	2193.37
697.95	2150.37
698.13	2127.84
698.32	2187.23
698.50	2170.85
698.68	2205.66
698.87	2222.05
699.05	2338.78
699.24	2226.14
699.42	2158.56
699.61	2269.15
699.79	2195.42
699.97	2136.03
700.16	2054.11
700.34	2054.11
700.53	2269.15
700.71	2285.53
700.89	2228.19
701.08	2103.26
701.26	2215.90
701.45	2725.85
701.63	2105.31
701.81	2164.70
702.00	2074.59
702.18	2240.48
702.37	2131.94
702.55	2469.85
702.73	2498.52
702.92	2285.53
703.10	2656.22
703.28	2519.00
703.47	2213.85
703.65	2455.51
703.84	2351.07
704.02	2242.53
704.20	2375.64
704.39	2207.71
704.57	2275.29
704.75	2346.97
704.94	2334.68
705.12	2252.77
705.30	2605.02
705.49	4593.59
705.67	11153.24
705.86	20459.21
706.04	24841.86
706.22	28681.80
706.41	29793.85
706.59	25558.65
706.77	18052.84
706.96	14933.79
707.14	13109.05
707.32	11302.74
707.51	9899.88
707.69	8097.67
707.87	6479.77
708.06	5248.94
708.24	4333.50
708.42	3409.87
708.61	3049.43
708.79	2570.20
708.97	2475.99
709.16	2340.83
709.34	2310.11
709.52	2195.42
709.71	2277.34
709.89	2271.20
710.07	2166.75
710.26	2193.37
710.44	2195.42
710.62	2267.10
710.80	2220.00
710.99	2232.29
711.17	2269.15
711.35	2215.90
711.54	2174.94
711.72	2363.36
711.90	2252.77
712.09	2176.99
712.27	2176.99
712.45	2246.62
712.63	2152.42
712.82	2174.94
713.00	2215.90
713.18	2203.61
713.37	2303.96
713.55	2306.01
713.73	2265.05
713.91	2310.11
714.10	2146.27
714.28	2183.13
714.46	2250.72
714.65	2203.61
714.83	2230.24
715.01	2224.09
715.19	2232.29
715.38	2144.22
715.56	2271.20
715.74	2076.64
715.92	2111.46
716.11	2392.03
716.29	2019.30
716.47	2146.27
716.65	2195.42
716.84	2080.74
717.02	2211.81
717.20	2064.35
717.38	2080.74
717.57	2242.53
717.75	2230.24
717.93	2185.18
718.11	2303.96
718.30	2031.58
718.48	2246.62
718.66	2279.39
718.84	2330.59
719.03	2168.80
719.21	2050.02
719.39	2430.94
719.57	2244.57
719.75	2301.92
719.94	2160.61
720.12	2160.61
720.30	2232.29
720.48	2279.39
720.67	2101.22
720.85	2086.88
721.03	2162.66
721.21	2133.98
721.39	2318.30
721.58	2310.11
721.76	2156.51
721.94	2162.66
722.12	2164.70
722.30	2344.92
722.49	2201.57
722.67	2183.13
722.85	2203.61
723.03	2054.11
723.21	2154.46
723.40	2207.71
723.58	2324.44
723.76	2330.59
723.94	2383.84
724.12	2314.20
724.30	2445.27
724.49	2320.35
724.67	2064.35
724.85	2318.30
725.03	2093.02
725.21	2275.29
725.40	2293.72
725.58	2168.80
725.76	2301.92
725.94	2256.86
726.12	2125.79
726.30	2349.02
726.49	2113.50
726.67	2170.85
726.85	2283.49
727.03	2486.23
727.21	3661.77
727.39	5466.03
727.57	6709.15
727.76	7438.22
727.94	7698.31
728.12	7393.17
728.30	5975.97
728.48	5021.62
728.66	4583.35
728.84	4128.70
729.03	3551.18
729.21	3168.21
729.39	2832.34
729.57	2471.90
729.75	2314.20
729.93	2422.75
730.11	2232.29
730.30	2228.19
730.48	2207.71
730.66	2375.64
730.84	2207.71
731.02	2181.09
731.20	2252.77
731.38	2201.57
731.56	2033.63
731.74	2127.84
731.93	2228.19
732.11	2226.14
732.29	2084.83
732.47	2258.91
732.65	2211.81
732.83	2349.02
733.01	2197.47
733.19	2080.74
733.37	2275.29
733.56	2144.22
733.74	2097.12
733.92	2383.84
734.10	2174.94
734.28	2222.05
734.46	2074.59
734.64	2220.00
734.82	2183.13
735.00	2084.83
735.18	2152.42
735.36	2213.85
735.54	2203.61
735.73	2224.09
735.91	2256.86
736.09	2209.76
736.27	2197.47
736.45	2199.52
736.63	2039.78
736.81	2119.65
736.99	2308.06
737.17	2461.66
737.35	2197.47
737.53	2142.18
737.71	2189.28
737.89	2414.56
738.07	2160.61
738.25	2095.07
738.43	2058.21
738.61	2148.32
738.80	2103.26
738.98	2105.31
739.16	2105.31
739.34	2107.36
739.52	2340.83
739.70	2236.38
739.88	2242.53
740.06	2295.77
740.24	2035.68
740.42	2285.53
740.60	2052.06
740.78	2119.65
740.96	2041.82
741.14	2187.23
741.32	2185.18
741.50	2052.06
741.68	2400.22
741.86	2265.05
742.04	2187.23
742.22	2047.97
742.40	2228.19
742.58	2195.42
742.76	2072.54
742.94	2291.68
743.12	2068.45
743.30	2176.99
743.48	2252.77
743.66	2103.26
743.84	2299.87
744.02	2160.61
744.20	2170.85
744.38	2103.26
744.56	2064.35
744.74	2414.56
744.92	2232.29
745.10	2332.64
745.28	2215.90
745.46	2324.44
745.64	2176.99
745.82	2281.44
746.00	2230.24
746.18	2230.24
746.36	2123.74
746.54	2174.94
746.72	2080.74
746.90	2037.73
747.08	2277.34
747.26	2090.98
747.44	2269.15
747.62	2230.24
747.80	2199.52
747.98	2346.97
748.15	2146.27
748.33	2373.60
748.51	2248.67
748.69	2142.18
748.87	2131.94
749.05	2238.43
749.23	2179.04
749.41	2308.06
749.59	2162.66
749.77	2383.84
749.95	2133.98
750.13	2148.32
750.31	2246.62
750.49	2222.05
750.67	2240.48
750.85	2332.64
751.03	2170.85
751.20	2334.68
751.38	2168.80
751.56	2195.42
751.74	2164.70
751.92	2215.90
752.10	2080.74
752.28	2351.07
752.46	2107.36
752.64	2125.79
752.82	2127.84
753.00	2277.34
753.18	2166.75
753.35	2203.61
753.53	2217.95
753.71	2125.79
753.89	2306.01
754.07	2193.37
754.25	2297.82
754.43	2168.80
754.61	2109.41
754.79	2187.23
754.97	2168.80
755.14	2254.81
755.32	2090.98
755.50	2199.52
755.68	2187.23
755.86	2195.42
756.04	2101.22
756.22	2002.91
756.40	2244.57
756.57	2365.40
756.75	2148.32
756.93	2265.05
757.11	2314.20
757.29	2054.11
757.47	2185.18
757.65	2064.35
757.82	1986.53
758.00	2035.68
758.18	2047.97
758.36	2097.12
758.54	2373.60
758.72	2015.20
758.90	2263.01
759.07	2174.94
759.25	2111.46
759.43	2164.70
759.61	2056.16
759.79	2979.79
759.97	2297.82
760.15	2158.56
760.32	2181.09
760.50	2211.81
760.68	2363.36
760.86	2007.01
761.04	2385.88
761.22	2344.92
761.39	2187.23
761.57	2308.06
761.75	2138.08
761.93	2201.57
762.11	2117.60
762.28	2154.46
762.46	2117.60
762.64	2299.87
762.82	2080.74
763.00	2125.79
763.18	2338.78
763.35	2111.46
763.53	2260.96
763.71	2248.67
763.89	2248.67
764.07	2211.81
764.24	2183.13
764.42	2273.25
764.60	2125.79
764.78	2246.62
764.96	2201.57
765.13	2203.61
765.31	2203.61
765.49	2283.49
765.67	2121.70
765.84	2154.46
766.02	2123.74
766.20	2062.30
766.38	2209.76
766.56	2224.09
766.73	2342.88
766.91	2176.99
767.09	2174.94
767.27	2242.53
767.44	2119.65
767.62	2240.48
767.80	2136.03
767.98	2162.66
768.15	2146.27
768.33	2191.33
768.51	2275.29
768.69	2213.85
768.87	2191.33
769.04	2154.46
769.22	2396.12
769.40	2404.32
769.58	2408.41
769.75	2193.37
769.93	2367.45
770.11	2179.04
770.28	2064.35
770.46	2301.92
770.64	2258.91
770.82	2179.04
770.99	2232.29
771.17	2314.20
771.35	2154.46
771.53	2236.38
771.70	2193.37
771.88	2197.47
772.06	2162.66
772.23	2103.26
772.41	2295.77
772.59	2172.89
772.77	2119.65
772.94	2185.18
773.12	2244.57
773.30	2101.22
773.47	2189.28
773.65	2115.55
773.83	2308.06
774.01	2158.56
774.18	2058.21
774.36	2195.42
774.54	2080.74
774.71	2195.42
774.89	2066.40
775.07	2154.46
775.24	2111.46
775.42	2179.04
775.60	2383.84
775.78	2062.30
775.95	2080.74
776.13	2095.07
776.31	2011.11
776.48	2244.57
776.66	2260.96
776.84	2146.27
777.01	2185.18
777.19	2095.07
777.37	2138.08
777.54	2234.33
777.72	2394.08
777.90	2246.62
778.07	2154.46
778.25	2465.75
778.43	2308.06
778.60	2160.61
778.78	2230.24
778.96	2355.16
779.13	2093.02
779.31	2220.00
779.49	2176.99
779.66	2154.46
779.84	2215.90
780.01	2144.22
780.19	2136.03
780.37	2285.53
780.54	2220.00
780.72	2138.08
780.90	2254.81
781.07	2174.94
781.25	2181.09
781.43	2277.34
781.60	2127.84
781.78	2351.07
781.95	2162.66
782.13	2103.26
782.31	2301.92
782.48	2035.68
782.66	2131.94
782.83	2408.41
783.01	2187.23
783.19	2254.81
783.36	2127.84
783.54	2119.65
783.72	2275.29
783.89	2179.04
784.07	2195.42
784.24	2267.10
784.42	2310.11
784.60	2222.05
784.77	2228.19
784.95	1955.81
785.12	2093.02
785.30	2193.37
785.47	2047.97
785.65	2054.11
785.83	2183.13
786.00	2101.22
786.18	2185.18
786.35	2095.07
786.53	2162.66
786.71	2308.06
786.88	2156.51
787.06	2252.77
787.23	2125.79
787.41	2080.74
787.58	2207.71
787.76	2097.12
787.94	2187.23
788.11	2166.75
788.29	2158.56
788.46	2121.70
788.64	2062.30
788.81	2168.80
788.99	2088.93
789.16	2066.40
789.34	2193.37
789.52	2095.07
789.69	2121.70
789.87	2037.73
790.04	2127.84
790.22	2174.94
790.39	2385.88
790.57	2076.64
790.74	2054.11
790.92	2299.87
791.09	2146.27
791.27	2209.76
791.44	2312.16
791.62	2109.41
791.79	2220.00
791.97	2211.81
792.15	2338.78
792.32	2232.29
792.50	2299.87
792.67	2396.12
792.85	2301.92
793.02	2201.57
793.20	2138.08
793.37	2064.35
793.55	2215.90
793.72	2076.64
793.90	2170.85
794.07	2133.98
794.25	2119.65
794.42	2244.57
794.60	2170.85
794.77	2230.24
794.95	2338.78
795.12	2242.53
795.30	2197.47
795.47	1970.15
795.65	2394.08
795.82	2250.72
796.00	2078.69
796.17	2105.31
796.34	2138.08
796.52	2215.90
796.69	2316.25
796.87	2160.61
797.04	2271.20
797.22	2248.67
797.39	2226.14
797.57	2260.96
797.74	2224.09
797.92	2281.44
798.09	2142.18
798.27	2308.06
798.44	2179.04
798.62	2176.99
798.79	2220.00
798.96	2256.86
799.14	2217.95
799.31	2381.79
799.49	2148.32
799.66	2111.46
799.84	2199.52
800.01	2101.22
800.19	2199.52
800.36	2023.39
800.53	2213.85
800.71	2242.53
800.88	2389.98
801.06	2146.27
801.23	2152.42
801.41	2164.70
801.58	2222.05
801.75	2105.31
801.93	2197.47
802.10	2269.15
802.28	2170.85
802.45	2105.31
802.63	2252.77
802.80	2346.97
802.97	2154.46
803.15	2222.05
803.32	2168.80
803.50	2078.69
803.67	2056.16
803.84	2070.50
804.02	2166.75
804.19	2197.47
804.37	1976.29
804.54	2080.74
804.71	2115.55
804.89	2121.70
805.06	2103.26
805.24	2068.45
805.41	2138.08
805.58	2064.35
805.76	2441.18
805.93	2234.33
806.10	2260.96
806.28	2193.37
806.45	2113.50
806.63	2205.66
806.80	2226.14
806.97	2176.99
807.15	2213.85
807.32	2140.13
807.49	2240.48
807.67	2054.11
807.84	2242.53
808.01	2035.68
808.19	2334.68
808.36	2414.56
808.54	2215.90
808.71	2113.50
808.88	2181.09
809.06	2285.53
809.23	2392.03
809.40	2013.15
809.58	2220.00
809.75	2217.95
809.92	2105.31
810.10	2398.17
810.27	2162.66
810.44	2234.33
810.62	2336.73
810.79	2217.95
810.96	2129.89
811.14	2131.94
811.31	2203.61
811.48	2246.62
811.66	2166.75
811.83	2222.05
812.00	2306.01
812.18	2244.57
812.35	2361.31
812.52	2160.61
812.69	2187.23
812.87	2148.32
813.04	2095.07
813.21	2088.93
813.39	2187.23
813.56	2072.54
813.73	2308.06
813.91	2025.44
814.08	2228.19
814.25	2207.71
814.42	2111.46
814.60	2187.23
814.77	2205.66
814.94	2183.13
815.12	2162.66
815.29	2359.26
815.46	2123.74
815.63	2211.81
815.81	2256.86
815.98	2097.12
816.15	2215.90
816.33	2086.88
816.50	2129.89
816.67	2113.50
816.84	2142.18
817.02	2095.07
817.19	2050.02
817.36	2226.14
817.53	2308.06
817.71	2117.60
817.88	2252.77
818.05	2154.46
818.22	2144.22
818.40	2318.30
818.57	2209.76
818.74	2220.00
818.91	2152.42
819.09	2279.39
819.26	2271.20
819.43	2066.40
819.60	2050.02
819.78	2236.38
819.95	2340.83
820.12	2164.70
820.29	2357.21
820.47	2383.84
820.64	2154.46
820.81	2039.78
820.98	2084.83
821.15	2148.32
821.33	2260.96
821.50	1998.82
821.67	2263.01
821.84	2080.74
822.02	2291.68
822.19	2295.77
822.36	2133.98
822.53	2158.56
822.70	2125.79
822.88	2113.50
823.05	2346.97
823.22	2199.52
823.39	2220.00
823.56	2211.81
823.74	2424.80
823.91	2088.93
824.08	2011.11
824.25	2090.98
824.42	2271.20
824.60	2095.07
824.77	2226.14
824.94	2090.98
825.11	2215.90
825.28	1957.86
825.45	2258.91
825.63	2170.85
825.80	2133.98
825.97	2199.52
826.14	2232.29
826.31	2029.54
826.48	2252.77
826.66	2168.80
826.83	2056.16
827.00	2072.54
827.17	2123.74
827.34	2160.61
827.51	2121.70
827.69	2142.18
827.86	2068.45
828.03	2242.53
828.20	2166.75
828.37	2179.04
828.54	2191.33
828.71	2007.01
828.89	2263.01
829.06	2209.76
829.23	2320.35
829.40	2138.08
829.57	2078.69
829.74	2285.53
829.91	2107.36
830.09	2158.56
830.26	2279.39
830.43	2340.83
830.60	2150.37
830.77	2263.01
830.94	2252.77
831.11	2260.96
831.28	2187.23
831.46	2306.01
831.63	2168.80
831.80	2267.10
831.97	2133.98
832.14	2166.75
832.31	2230.24
832.48	2220.00
832.65	2277.34
832.82	2295.77
832.99	2232.29
833.17	2029.54
833.34	2242.53
833.51	2263.01
833.68	2023.39
833.85	2338.78
834.02	2097.12
834.19	2097.12
834.36	2080.74
834.53	2228.19
834.70	2363.36
834.87	2258.91
835.04	2217.95
835.22	2142.18
835.39	2176.99
835.56	2011.11
835.73	2205.66
835.90	2236.38
836.07	2113.50
836.24	2211.81
836.41	2101.22
836.58	2170.85
836.75	2371.55
836.92	2162.66
837.09	2142.18
837.26	2365.40
837.43	2211.81
837.60	2211.81
837.77	2179.04
837.94	2240.48
838.12	2400.22
838.29	2152.42
838.46	2060.26
838.63	2109.41
838.80	2330.59
838.97	2191.33
839.14	2158.56
839.31	2226.14
839.48	2281.44
839.65	2160.61
839.82	2176.99
839.99	2172.89
840.16	2154.46
840.33	2095.07
840.50	2152.42
840.67	2131.94
840.84	2025.44
841.01	2119.65
841.18	2113.50
841.35	2220.00
841.52	2273.25
841.69	2349.02
841.86	2101.22
842.03	2195.42
842.20	2357.21
842.37	2138.08
842.54	2191.33
842.71	2256.86
842.88	2027.49
843.05	2222.05
843.22	2113.50
843.39	2234.33
843.56	2113.50
843.73	2187.23
843.90	2205.66
844.07	2193.37
844.24	2295.77
844.41	2217.95
844.58	2189.28
844.75	2273.25
844.92	2265.05
845.09	2160.61
845.26	2138.08
845.43	2283.49
845.60	2117.60
845.77	2265.05
845.94	2127.84
846.10	2244.57
846.27	2074.59
846.44	2154.46
846.61	2047.97
846.78	2222.05
846.95	2232.29
847.12	2103.26
847.29	2142.18
847.46	2121.70
847.63	2209.76
847.80	2062.30
847.97	2080.74
848.14	2324.44
848.31	2150.37
848.48	2076.64
848.65	2185.18
848.82	2121.70
848.98	2437.08
849.15	2244.57
849.32	2293.72
849.49	2340.83
849.66	2160.61
849.83	2113.50
850.00	2097.12
850.17	2361.31
850.34	2211.81
850.51	2144.22
850.68	2195.42
850.85	2502.62
851.01	2187.23
851.18	2146.27
851.35	2258.91
851.52	2170.85
851.69	2295.77
851.86	2078.69
852.03	2164.70
852.20	2297.82
852.37	2160.61
852.53	2035.68
852.70	2168.80
852.87	2103.26
853.04	2258.91
853.21	2154.46
853.38	2250.72
853.55	2226.14
853.72	2275.29
853.89	2052.06
854.05	2117.60
854.22	2160.61
854.39	2172.89
854.56	2258.91
854.73	2244.57
854.90	2117.60
855.07	2220.00
855.23	2093.02
855.40	2105.31
855.57	2119.65
855.74	1976.29
855.91	2324.44
856.08	2060.26
856.25	2086.88
856.41	2109.41
856.58	2070.50
856.75	2146.27
856.92	2047.97
857.09	2271.20
857.26	2029.54
857.42	2189.28
857.59	2240.48
857.76	2123.74
857.93	2144.22
858.10	2185.18
858.27	2082.78
858.43	2170.85
858.60	2054.11
858.77	2072.54
858.94	2078.69
859.11	2342.88
859.27	2037.73
859.44	2179.04
859.61	2367.45
859.78	2191.33
859.95	2072.54
860.12	2072.54
860.28	2406.36
860.45	2363.36
860.62	2154.46
860.79	2142.18
860.95	2170.85
861.12	2052.06
861.29	2146.27
861.46	2043.87
861.63	2125.79
861.79	2201.57
861.96	2023.39
862.13	2119.65
862.30	2293.72
862.47	2125.79
862.63	2056.16
862.80	2256.86
862.97	2285.53
863.14	2220.00
863.30	2154.46
863.47	2123.74
863.64	2312.16
863.81	2236.38
863.97	2090.98
864.14	2166.75
864.31	2203.61
864.48	2172.89
864.65	2133.98
864.81	2189.28
864.98	2271.20
865.15	2289.63
865.32	2211.81
865.48	2213.85
865.65	2312.16
865.82	2142.18
865.98	2215.90
866.15	2297.82
866.32	2097.12
866.49	2168.80
866.65	2340.83
866.82	2164.70
866.99	2174.94
867.16	2170.85
867.32	2176.99
867.49	2017.25
867.66	2146.27
867.83	2146.27
867.99	2062.30
868.16	2113.50
868.33	2066.40
868.49	2176.99
868.66	2131.94
868.83	2220.00
868.99	2275.29
869.16	2199.52
869.33	2201.57
869.50	2152.42
869.66	2224.09
869.83	2093.02
870.00	2138.08
870.16	2179.04
870.33	2174.94
870.50	2340.83
870.66	2174.94
870.83	2306.01
871.00	2166.75
871.17	2291.68
871.33	2211.81
871.50	2176.99
871.67	2181.09
871.83	2121.70
872.00	2277.34
872.17	2090.98
872.33	2428.89
872.50	2330.59
872.67	2035.68
872.83	2136.03
873.00	2215.90
873.17	2197.47
873.33	2146.27
873.50	2183.13
873.67	2095.07
873.83	2060.26
874.00	2111.46
874.16	2267.10
874.33	2174.94
874.50	1994.72
874.66	2129.89
874.83	2174.94
875.00	2260.96
875.16	2281.44
875.33	2199.52
875.50	2009.06
875.66	2127.84
875.83	2174.94
875.99	2250.72
876.16	2125.79
876.33	2117.60
876.49	2152.42
876.66	2244.57
876.83	2191.33
876.99	2062.30
877.16	2138.08
877.32	2111.46
877.49	2187.23
877.66	2224.09
877.82	2361.31
877.99	2172.89
878.15	2289.63
878.32	2170.85
878.49	2252.77
878.65	2093.02
878.82	2267.10
878.98	2109.41
879.15	2209.76
879.32	2199.52
879.48	2242.53
879.65	2195.42
879.81	2109.41
879.98	2133.98
880.15	2148.32
880.31	2207.71
880.48	2109.41
880.64	2226.14
880.81	2242.53
880.97	2379.74
881.14	2297.82
881.31	2084.83
881.47	2222.05
881.64	2242.53
881.80	2007.01
881.97	2211.81
882.13	2211.81
882.30	2043.87
882.47	2170.85
882.63	2123.74
882.80	2146.27
882.96	2148.32
883.13	2336.73
883.29	2195.42
883.46	2170.85
883.62	2406.36
883.79	2207.71
883.95	2277.34
884.12	2162.66
884.29	2260.96
884.45	2189.28
884.62	2263.01
884.78	2105.31
884.95	2291.68
885.11	2109.41
885.28	2220.00
885.44	2105.31
885.61	2269.15
885.77	2285.53
885.94	2217.95
886.10	2224.09
886.27	2193.37
886.43	2342.88
886.60	2217.95
886.76	2189.28
886.93	2076.64
887.09	2129.89
887.26	2080.74
887.42	2168.80
887.59	2246.62
887.75	2416.60
887.92	2316.25
888.08	2195.42
888.25	2312.16
888.41	2203.61
888.58	2195.42
888.74	2086.88
888.91	2088.93
>>>>>End Processed Spectral Data<<<<<
