SpectraSuite Data File
++++++++++++++++++++++++++++++++++++
Date: Thu May 05 12:34:56 CEST 2016
User: root
Dark Spectrum Present: No
Reference Spectrum Present: No
Number of Sampled Component Spectra: 1
Spectrometers: USB4C02835
Integration Time (usec): 100000 (USB4C02835)
Spectra Averaged: 1 (USB4C02835)
Boxcar Smoothing: 0 (USB4C02835)
Correct for Electrical Dark: No (USB4C02835)
Strobe/Lamp Enabled: No (USB4C02835)
Correct for Detector Non-linearity: No (USB4C02835)
Correct for Stray Light: No (USB4C02835)
Number of Pixels in Processed Spectrum: 3648
>>>>>Begin Processed Spectral Data<<<<<
177.47	1771.49
177.69	1771.49
177.91	1771.49
178.13	1775.59
178.36	1734.63
178.58	2056.16
178.80	2195.42
179.02	2062.30
179.24	2088.93
179.46	2105.31
179.68	2199.52
179.90	2248.67
180.13	2277.34
180.35	2062.30
180.57	2127.84
180.79	2334.68
181.01	2176.99
181.23	2244.57
181.45	2185.18
181.67	2197.47
181.90	2265.05
182.12	2133.98
182.34	2033.63
182.56	2340.83
182.78	2314.20
183.00	2078.69
183.22	2113.50
183.44	1980.39
183.66	2461.66
183.89	2187.23
184.11	2144.22
184.33	2248.67
184.55	2392.03
184.77	2203.61
184.99	2191.33
185.21	2133.98
185.43	2459.61
185.65	2074.59
185.87	2117.60
186.10	2379.74
186.32	2398.17
186.54	2258.91
186.76	2236.38
186.98	2306.01
187.20	2205.66
187.42	2158.56
187.64	2113.50
187.86	2250.72
188.08	2254.81
188.30	2072.54
188.52	2125.79
188.75	2260.96
188.97	2322.40
189.19	2062.30
189.41	2097.12
189.63	2166.75
189.85	2150.37
190.07	2041.82
190.29	2023.39
190.51	2205.66
190.73	2080.74
190.95	2185.18
191.17	2156.51
191.39	2056.16
191.61	2195.42
191.84	2113.50
192.06	2166.75
192.28	2021.35
192.50	2445.27
192.72	2191.33
192.94	2162.66
193.16	2326.49
193.38	2283.49
193.60	2109.41
193.82	2142.18
194.04	2291.68
194.26	2224.09
194.48	2084.83
194.70	2174.94
194.92	2164.70
195.14	2236.38
195.36	2203.61
195.58	2138.08
195.80	2115.55
196.02	2086.88
196.24	2076.64
196.46	2158.56
196.69	2162.66
196.91	2381.79
197.13	2093.02
197.35	2105.31
197.57	2351.07
197.79	2244.57
198.01	2213.85
198.23	2164.70
198.45	2209.76
198.67	2076.64
198.89	2021.35
199.11	2185.18
199.33	2097.12
199.55	1968.10
199.77	2029.54
199.99	2211.81
200.21	2138.08
200.43	2197.47
200.65	1996.77
200.87	1961.95
201.09	2142.18
201.31	2158.56
201.53	2197.47
201.75	2236.38
201.97	2187.23
202.19	2195.42
202.41	2142.18
202.63	2318.30
202.85	2267.10
203.07	2207.71
203.29	2076.64
203.51	2052.06
203.73	2103.26
203.95	2449.37
204.17	2152.42
204.39	2197.47
204.61	2193.37
204.83	2187.23
205.05	2187.23
205.27	2185.18
205.49	2365.40
205.71	2228.19
205.93	2039.78
206.15	2105.31
206.37	2195.42
206.59	2228.19
206.81	2029.54
207.03	2072.54
207.25	2072.54
207.47	2211.81
207.69	2140.13
207.91	2295.77
208.13	2293.72
208.34	2131.94
208.56	2056.16
208.78	2215.90
209.00	2142.18
209.22	2242.53
209.44	2064.35
209.66	2064.35
209.88	2281.44
210.10	2174.94
210.32	2144.22
210.54	2209.76
210.76	2252.77
210.98	2279.39
211.20	1990.63
211.42	2168.80
211.64	2322.40
211.86	2240.48
212.08	2217.95
212.30	2148.32
212.52	2072.54
212.74	2166.75
212.96	2133.98
213.17	2228.19
213.39	2258.91
213.61	2389.98
213.83	2160.61
214.05	2099.17
214.27	2283.49
214.49	2078.69
214.71	2129.89
214.93	2236.38
215.15	2166.75
215.37	2265.05
215.59	2109.41
215.81	2129.89
216.03	2289.63
216.24	2199.52
216.46	2140.13
216.68	2215.90
216.90	2238.43
217.12	2269.15
217.34	2115.55
217.56	2176.99
217.78	2314.20
218.00	2215.90
218.22	2150.37
218.44	2199.52
218.66	2189.28
218.87	2449.37
219.09	2138.08
219.31	2121.70
219.53	2209.76
219.75	2129.89
219.97	2146.27
220.19	2179.04
220.41	2189.28
220.63	2246.62
220.85	2140.13
221.06	2101.22
221.28	2228.19
221.50	2252.77
221.72	2113.50
221.94	2025.44
222.16	2203.61
222.38	2269.15
222.60	2129.89
222.82	2187.23
223.03	2185.18
223.25	2125.79
223.47	2154.46
223.69	2324.44
223.91	2273.25
224.13	2189.28
224.35	2107.36
224.57	2181.09
224.78	2211.81
225.00	2045.92
225.22	2136.03
225.44	2115.55
225.66	2322.40
225.88	2129.89
226.10	2256.86
226.32	2291.68
226.53	2273.25
226.75	2140.13
226.97	2142.18
227.19	2133.98
227.41	2146.27
227.63	2179.04
227.85	2039.78
228.06	2181.09
228.28	2197.47
228.50	2234.33
228.72	2023.39
228.94	2111.46
229.16	2070.50
229.37	2093.02
229.59	2062.30
229.81	2295.77
230.03	2199.52
230.25	2045.92
230.47	2093.02
230.69	2080.74
230.90	2244.57
231.12	2099.17
231.34	2191.33
231.56	2220.00
231.78	2078.69
232.00	2140.13
232.21	2162.66
232.43	2097.12
232.65	1996.77
232.87	2203.61
233.09	2107.36
233.30	2168.80
233.52	2340.83
233.74	2191.33
233.96	2093.02
234.18	2144.22
234.40	2123.74
234.61	2424.80
234.83	2004.96
235.05	2023.39
235.27	2392.03
235.49	2258.91
235.70	2103.26
235.92	2226.14
236.14	2291.68
236.36	2375.64
236.58	2146.27
236.79	2260.96
237.01	2211.81
237.23	2129.89
237.45	2303.96
237.67	2070.50
237.88	2209.76
238.10	2359.26
238.32	2023.39
238.54	2170.85
238.76	2203.61
238.97	2084.83
239.19	2146.27
239.41	2279.39
239.63	2250.72
239.85	2199.52
240.06	2136.03
240.28	2154.46
240.50	2201.57
240.72	2199.52
240.93	2123.74
241.15	2197.47
241.37	2183.13
241.59	2299.87
241.81	2203.61
242.02	2193.37
242.24	2248.67
242.46	2289.63
242.68	1990.63
242.89	2144.22
243.11	2209.76
243.33	2203.61
243.55	2189.28
243.76	2176.99
243.98	2103.26
244.20	2162.66
244.42	2076.64
244.64	2076.64
244.85	2043.87
245.07	2103.26
245.29	2252.77
245.51	2101.22
245.72	2160.61
245.94	2283.49
246.16	2115.55
246.38	2269.15
246.59	2160.61
246.81	2197.47
247.03	2123.74
247.24	1994.72
247.46	2138.08
247.68	2125.79
247.90	2080.74
248.11	2097.12
248.33	2326.49
248.55	2154.46
248.77	2267.10
248.98	2244.57
249.20	2322.40
249.42	2275.29
249.64	2179.04
249.85	2099.17
250.07	2095.07
250.29	2226.14
250.50	2191.33
250.72	2056.16
250.94	2191.33
251.16	2387.93
251.37	2209.76
251.59	2191.33
251.81	2220.00
252.02	2277.34
252.24	2097.12
252.46	2258.91
252.68	2107.36
252.89	2158.56
253.11	1945.57
253.33	2277.34
253.54	2310.11
253.76	2101.22
253.98	2058.21
254.20	2054.11
254.41	2027.49
254.63	2170.85
254.85	2019.30
255.06	2099.17
255.28	2260.96
255.50	2138.08
255.71	2056.16
255.93	2017.25
256.15	2107.36
256.36	2295.77
256.58	2093.02
256.80	2228.19
257.02	2191.33
257.23	2121.70
257.45	2070.50
257.67	2183.13
257.88	2150.37
258.10	2228.19
258.32	2080.74
258.53	2191.33
258.75	2342.88
258.97	2187.23
259.18	2146.27
259.40	2113.50
259.62	2379.74
259.83	2396.12
260.05	2189.28
260.27	2506.71
260.48	2332.64
260.70	2095.07
260.92	2136.03
261.13	2160.61
261.35	2226.14
261.57	2250.72
261.78	2007.01
262.00	2070.50
262.22	2297.82
262.43	2111.46
262.65	2064.35
262.86	2183.13
263.08	2424.80
263.30	2187.23
263.51	2025.44
263.73	2039.78
263.95	2383.84
264.16	2115.55
264.38	1974.24
264.60	2162.66
264.81	2256.86
265.03	2201.57
265.25	2314.20
265.46	2117.60
265.68	2289.63
265.89	2121.70
266.11	1961.95
266.33	2187.23
266.54	2273.25
266.76	2248.67
266.98	2191.33
267.19	2320.35
267.41	2246.62
267.62	2213.85
267.84	1992.67
268.06	2197.47
268.27	2205.66
268.49	2340.83
268.70	2273.25
268.92	2127.84
269.14	2062.30
269.35	2095.07
269.57	2136.03
269.79	2203.61
270.00	2162.66
270.22	2338.78
270.43	2064.35
270.65	1966.05
270.87	2277.34
271.08	2301.92
271.30	2150.37
271.51	2113.50
271.73	2244.57
271.95	2289.63
272.16	2084.83
272.38	2160.61
272.59	2195.42
272.81	2269.15
273.02	2070.50
273.24	2138.08
273.46	2320.35
273.67	2125.79
273.89	2070.50
274.10	2064.35
274.32	2312.16
274.54	2193.37
274.75	2213.85
274.97	2101.22
275.18	2248.67
275.40	2217.95
275.61	2162.66
275.83	2238.43
276.05	2125.79
276.26	2166.75
276.48	2136.03
276.69	2127.84
276.91	2174.94
277.12	2277.34
277.34	2248.67
277.55	2281.44
277.77	2185.18
277.99	2199.52
278.20	2099.17
278.42	2076.64
278.63	2111.46
278.85	2156.51
279.06	2121.70
279.28	2201.57
279.49	2342.88
279.71	2256.86
279.93	2191.33
280.14	2185.18
280.36	2101.22
280.57	2230.24
280.79	2209.76
281.00	2150.37
281.22	2088.93
281.43	2277.34
281.65	1990.63
281.86	2074.59
282.08	2324.44
282.29	2344.92
282.51	2105.31
282.73	2070.50
282.94	2050.02
283.16	2277.34
283.37	2297.82
283.59	2258.91
283.80	2291.68
284.02	2138.08
284.23	2193.37
284.45	2119.65
284.66	2193.37
284.88	2170.85
285.09	2183.13
285.31	2256.86
285.52	2179.04
285.74	2015.20
285.95	2277.34
286.17	2209.76
286.38	2353.12
286.60	2160.61
286.81	2136.03
287.03	2195.42
287.24	2230.24
287.46	2326.49
287.67	2232.29
287.89	2281.44
288.10	2150.37
288.32	2260.96
288.53	2414.56
288.75	2248.67
288.96	2277.34
289.18	2127.84
289.39	2185.18
289.61	2314.20
289.82	2291.68
290.04	2359.26
290.25	2101.22
290.47	2269.15
290.68	2168.80
290.90	2326.49
291.11	2037.73
291.33	2281.44
291.54	2064.35
291.76	2103.26
291.97	2220.00
292.18	2226.14
292.40	2121.70
292.61	2133.98
292.83	2383.84
293.04	2142.18
293.26	2248.67
293.47	2179.04
293.69	2097.12
293.90	2117.60
294.12	2234.33
294.33	2248.67
294.55	2252.77
294.76	2256.86
294.97	2314.20
295.19	2418.65
295.40	2086.88
295.62	2207.71
295.83	2258.91
296.05	2152.42
296.26	2295.77
296.48	2160.61
296.69	2172.89
296.90	2238.43
297.12	2179.04
297.33	2250.72
297.55	2283.49
297.76	2344.92
297.98	2312.16
298.19	2254.81
298.41	2215.90
298.62	2103.26
298.83	2258.91
299.05	2183.13
299.26	2195.42
299.48	2138.08
299.69	2146.27
299.90	2220.00
300.12	2113.50
300.33	2185.18
300.55	2156.51
300.76	2199.52
300.98	2086.88
301.19	2205.66
301.40	2138.08
301.62	2136.03
301.83	2183.13
302.05	2197.47
302.26	2187.23
302.47	2232.29
302.69	2133.98
302.90	2203.61
303.12	1972.19
303.33	2306.01
303.54	2316.25
303.76	2166.75
303.97	2187.23
304.19	2342.88
304.40	2064.35
304.61	2213.85
304.83	2332.64
305.04	2256.86
305.26	2224.09
305.47	2209.76
305.68	2142.18
305.90	2101.22
306.11	2336.73
306.33	2248.67
306.54	2156.51
306.75	2107.36
306.97	2033.63
307.18	2086.88
307.39	2115.55
307.61	2222.05
307.82	2146.27
308.04	2295.77
308.25	2095.07
308.46	2230.24
308.68	2215.90
308.89	2195.42
309.10	2365.40
309.32	2267.10
309.53	2168.80
309.74	2125.79
309.96	2160.61
310.17	2277.34
310.39	2121.70
310.60	2295.77
310.81	2185.18
311.03	2015.20
311.24	2236.38
311.45	2162.66
311.67	2295.77
311.88	2201.57
312.09	2138.08
312.31	2195.42
312.52	2181.09
312.73	2117.60
312.95	2136.03
313.16	2162.66
313.37	2256.86
313.59	2242.53
313.80	2220.00
314.01	2367.45
314.23	2170.85
314.44	2119.65
314.65	2097.12
314.87	2070.50
315.08	2097.12
315.29	2166.75
315.51	2072.54
315.72	2088.93
315.93	2269.15
316.15	2191.33
316.36	2133.98
316.57	2222.05
316.79	2187.23
317.00	2138.08
317.21	2267.10
317.43	2176.99
317.64	2193.37
317.85	2080.74
318.07	2101.22
318.28	2156.51
318.49	2291.68
318.70	2533.34
318.92	2449.37
319.13	2400.22
319.34	2426.84
319.56	2250.72
319.77	2318.30
319.98	2373.60
320.20	2312.16
320.41	2215.90
320.62	2287.58
320.83	2156.51
321.05	2383.84
321.26	2246.62
321.47	2293.72
321.69	2195.42
321.90	1990.63
322.11	2154.46
322.32	2170.85
322.54	2334.68
322.75	2146.27
322.96	2508.76
323.18	2037.73
323.39	1988.58
323.60	2101.22
323.81	2250.72
324.03	2127.84
324.24	2187.23
324.45	2146.27
324.66	2150.37
324.88	2316.25
325.09	2377.69
325.30	2129.89
325.52	2138.08
325.73	2213.85
325.94	2113.50
326.15	2072.54
326.37	2093.02
326.58	2234.33
326.79	2287.58
327.00	2119.65
327.22	2140.13
327.43	2220.00
327.64	2076.64
327.85	2248.67
328.07	2265.05
328.28	2410.46
328.49	2166.75
328.70	2084.83
328.92	2248.67
329.13	2170.85
329.34	2242.53
329.55	2287.58
329.76	2228.19
329.98	2228.19
330.19	2293.72
330.40	2207.71
330.61	2215.90
330.83	2293.72
331.04	2088.93
331.25	2166.75
331.46	2152.42
331.68	2119.65
331.89	2293.72
332.10	2207.71
332.31	2070.50
332.52	2160.61
332.74	2297.82
332.95	2025.44
333.16	2113.50
333.37	2207.71
333.58	2078.69
333.80	2207.71
334.01	2019.30
334.22	2144.22
334.43	2111.46
334.64	2160.61
334.86	2113.50
335.07	2117.60
335.28	2361.31
335.49	2090.98
335.70	2181.09
335.92	2334.68
336.13	2398.17
336.34	2273.25
336.55	2195.42
336.76	2267.10
336.98	2031.58
337.19	2211.81
337.40	2289.63
337.61	2377.69
337.82	2062.30
338.04	2342.88
338.25	2105.31
338.46	2103.26
338.67	2154.46
338.88	2035.68
339.09	2121.70
339.31	2213.85
339.52	2074.59
339.73	2140.13
339.94	2244.57
340.15	2287.58
340.36	2052.06
340.58	2162.66
340.79	2084.83
341.00	2314.20
341.21	2105.31
341.42	2369.50
341.63	2168.80
341.85	2191.33
342.06	2088.93
342.27	2068.45
342.48	2258.91
342.69	2015.20
342.90	2248.67
343.12	2252.77
343.33	2164.70
343.54	2277.34
343.75	2297.82
343.96	2162.66
344.17	2076.64
344.38	2052.06
344.60	2133.98
344.81	2066.40
345.02	2138.08
345.23	2283.49
345.44	2412.51
345.65	2260.96
345.86	2201.57
346.07	2195.42
346.29	2146.27
346.50	2293.72
346.71	2193.37
346.92	2346.97
347.13	2449.37
347.34	2248.67
347.55	2183.13
347.76	2195.42
347.98	2103.26
348.19	2117.60
348.40	2353.12
348.61	2195.42
348.82	2353.12
349.03	2263.01
349.24	2099.17
349.45	2338.78
349.66	2031.58
349.88	2131.94
350.09	2133.98
350.30	2387.93
350.51	2303.96
350.72	2138.08
350.93	2232.29
351.14	2211.81
351.35	2156.51
351.56	2203.61
351.77	2226.14
351.99	2191.33
352.20	2275.29
352.41	2351.07
352.62	2107.36
352.83	2234.33
353.04	2097.12
353.25	2052.06
353.46	2250.72
353.67	2289.63
353.88	2025.44
354.09	2176.99
354.30	2164.70
354.52	2242.53
354.73	2207.71
354.94	2144.22
355.15	2275.29
355.36	2308.06
355.57	2150.37
355.78	2191.33
355.99	2101.22
356.20	2166.75
356.41	2328.54
356.62	2220.00
356.83	2162.66
357.04	2287.58
357.25	2019.30
357.46	2144.22
357.68	2123.74
357.89	2107.36
358.10	2152.42
358.31	2168.80
358.52	2150.37
358.73	2047.97
358.94	2027.49
359.15	2133.98
359.36	2166.75
359.57	2248.67
359.78	2144.22
359.99	2176.99
360.20	2156.51
360.41	2191.33
360.62	2238.43
360.83	2271.20
361.04	2150.37
361.25	2236.38
361.46	2318.30
361.67	2252.77
361.88	2140.13
362.09	2316.25
362.30	2172.89
362.51	2133.98
362.72	2250.72
362.93	2265.05
363.14	2201.57
363.35	2119.65
363.56	2152.42
363.78	2263.01
363.99	2330.59
364.20	2101.22
364.41	2217.95
364.62	2445.27
364.83	2152.42
365.04	2127.84
365.25	2107.36
365.46	2392.03
365.67	2242.53
365.88	2099.17
366.09	2174.94
366.30	2107.36
366.51	2166.75
366.72	2080.74
366.93	2156.51
367.14	2162.66
367.35	2357.21
367.56	2168.80
367.77	2269.15
367.98	2226.14
368.18	2234.33
368.39	2283.49
368.60	2023.39
368.81	2279.39
369.02	2168.80
369.23	2142.18
369.44	2064.35
369.65	2129.89
369.86	2258.91
370.07	2279.39
370.28	2080.74
370.49	2273.25
370.70	2291.68
370.91	2127.84
371.12	2082.78
371.33	2303.96
371.54	2193.37
371.75	2293.72
371.96	2007.01
372.17	2310.11
372.38	2160.61
372.59	2168.80
372.80	2121.70
373.01	2240.48
373.22	2310.11
373.43	2166.75
373.64	2093.02
373.85	2367.45
374.06	2332.64
374.26	2246.62
374.47	2197.47
374.68	2299.87
374.89	2236.38
375.10	2111.46
375.31	2285.53
375.52	2170.85
375.73	2170.85
375.94	2070.50
376.15	2351.07
376.36	2086.88
376.57	2043.87
376.78	2193.37
376.99	2232.29
377.20	2232.29
377.40	2168.80
377.61	2385.88
377.82	2150.37
378.03	2342.88
378.24	2220.00
378.45	2230.24
378.66	2183.13
378.87	2056.16
379.08	2064.35
379.29	2179.04
379.50	2310.11
379.71	2197.47
379.91	2220.00
380.12	2123.74
380.33	2150.37
380.54	2220.00
380.75	2150.37
380.96	2150.37
381.17	2281.44
381.38	2209.76
381.59	2289.63
381.80	2154.46
382.00	2385.88
382.21	2265.05
382.42	2318.30
382.63	2449.37
382.84	2267.10
383.05	2351.07
383.26	2355.16
383.47	2199.52
383.68	2256.86
383.88	2265.05
384.09	2207.71
384.30	2359.26
384.51	2195.42
384.72	2148.32
384.93	2031.58
385.14	2205.66
385.35	2260.96
385.55	2095.07
385.76	2310.11
385.97	2248.67
386.18	2088.93
386.39	2080.74
386.60	2176.99
386.81	2117.60
387.02	2170.85
387.22	2090.98
387.43	2328.54
387.64	2269.15
387.85	2326.49
388.06	2469.85
388.27	3979.20
388.48	8669.05
388.68	12173.13
388.89	14688.03
389.10	15818.51
389.31	14761.76
389.52	11566.93
389.73	10059.62
389.93	8943.48
390.14	8222.59
390.35	7382.93
390.56	6504.35
390.77	5480.36
390.98	4091.84
391.18	3309.52
391.39	2848.72
391.60	2297.82
391.81	2328.54
392.02	2164.70
392.23	2379.74
392.43	2256.86
392.64	2281.44
392.85	2187.23
393.06	2340.83
393.27	2156.51
393.47	2082.78
393.68	2187.23
393.89	2203.61
394.10	2367.45
394.31	2170.85
394.52	2185.18
394.72	2170.85
394.93	2332.64
395.14	2187.23
395.35	2308.06
395.56	2097.12
395.76	2152.42
395.97	2322.40
396.18	2285.53
396.39	2279.39
396.60	2584.54
396.80	2416.60
397.01	2297.82
397.22	2373.60
397.43	2387.93
397.64	2152.42
397.84	2328.54
398.05	2416.60
398.26	2256.86
398.47	2310.11
398.67	2263.01
398.88	2230.24
399.09	2228.19
399.30	2162.66
399.51	2310.11
399.71	2150.37
399.92	2117.60
400.13	2189.28
400.34	2287.58
400.54	2275.29
400.75	2375.64
400.96	2250.72
401.17	2365.40
401.37	2209.76
401.58	2084.83
401.79	2148.32
402.00	2387.93
402.21	2674.65
402.41	2449.37
402.62	2564.06
402.83	2719.70
403.04	2627.54
403.24	2729.94
403.45	2457.56
403.66	2562.01
403.87	2359.26
404.07	2551.77
404.28	2473.95
404.49	2496.47
404.70	2291.68
404.90	2306.01
405.11	2283.49
405.32	2299.87
405.52	2162.66
405.73	2088.93
405.94	2136.03
406.15	2176.99
406.35	2248.67
406.56	2281.44
406.77	2211.81
406.98	2183.13
407.18	2168.80
407.39	2334.68
407.60	2088.93
407.80	2265.05
408.01	2115.55
408.22	2250.72
408.43	2220.00
408.63	2189.28
408.84	2324.44
409.05	2275.29
409.25	2023.39
409.46	2127.84
409.67	2140.13
409.88	2220.00
410.08	2170.85
410.29	2179.04
410.50	2174.94
410.70	2250.72
410.91	2103.26
411.12	2310.11
411.32	2144.22
411.53	2093.02
411.74	2248.67
411.95	2279.39
412.15	2250.72
412.36	2346.97
412.57	2295.77
412.77	2351.07
412.98	2312.16
413.19	2209.76
413.39	2291.68
413.60	2252.77
413.81	2426.84
414.01	2113.50
414.22	2248.67
414.43	2181.09
414.63	2179.04
414.84	2185.18
415.05	2240.48
415.25	2095.07
415.46	2277.34
415.67	2183.13
415.87	2267.10
416.08	2131.94
416.29	2050.02
416.49	2271.20
416.70	2146.27
416.91	2113.50
417.11	2199.52
417.32	2344.92
417.53	2246.62
417.73	2281.44
417.94	2101.22
418.15	2240.48
418.35	2174.94
418.56	2195.42
418.77	2439.13
418.97	2197.47
419.18	2187.23
419.38	1984.48
419.59	2152.42
419.80	2258.91
420.00	2164.70
420.21	2240.48
420.42	2277.34
420.62	2232.29
420.83	2154.46
421.04	2193.37
421.24	2140.13
421.45	2267.10
421.65	2246.62
421.86	2176.99
422.07	2252.77
422.27	2203.61
422.48	2187.23
422.69	2066.40
422.89	2154.46
423.10	2185.18
423.30	2144.22
423.51	2179.04
423.72	2203.61
423.92	2346.97
424.13	2080.74
424.33	2277.34
424.54	2344.92
424.75	2263.01
424.95	2326.49
425.16	2236.38
425.36	2232.29
425.57	2322.40
425.78	2220.00
425.98	2281.44
426.19	2185.18
426.39	2170.85
426.60	2230.24
426.81	2332.64
427.01	2224.09
427.22	2133.98
427.42	2070.50
427.63	2084.83
427.83	2320.35
428.04	2389.98
428.25	2187.23
428.45	2283.49
428.66	2312.16
428.86	2209.76
429.07	2199.52
429.28	2160.61
429.48	2156.51
429.69	2133.98
429.89	2215.90
430.10	2078.69
430.30	2277.34
430.51	2322.40
430.71	2039.78
430.92	2138.08
431.13	2166.75
431.33	2164.70
431.54	2222.05
431.74	2394.08
431.95	2424.80
432.15	2164.70
432.36	2197.47
432.56	2191.33
432.77	2381.79
432.98	2349.02
433.18	2301.92
433.39	2228.19
433.59	2228.19
433.80	2359.26
434.00	2484.19
434.21	2158.56
434.41	2138.08
434.62	2441.18
434.82	2066.40
435.03	2162.66
435.23	2197.47
435.44	2037.73
435.64	2220.00
435.85	2285.53
436.06	2342.88
436.26	2242.53
436.47	2103.26
436.67	2054.11
436.88	2150.37
437.08	2275.29
437.29	2301.92
437.49	2191.33
437.70	2324.44
437.90	2236.38
438.11	2422.75
438.31	2295.77
438.52	2375.64
438.72	2439.13
438.93	2545.63
439.13	2406.36
439.34	2418.65
439.54	2232.29
439.75	2273.25
439.95	2287.58
440.16	2199.52
440.36	2240.48
440.57	2279.39
440.77	2209.76
440.98	2228.19
441.18	2271.20
441.39	2115.55
441.59	2144.22
441.80	2435.03
442.00	2170.85
442.21	2314.20
442.41	2021.35
442.62	2303.96
442.82	2103.26
443.02	2279.39
443.23	2248.67
443.43	2195.42
443.64	2285.53
443.84	2131.94
444.05	2365.40
444.25	2213.85
444.46	2154.46
444.66	2226.14
444.87	2295.77
445.07	2138.08
445.28	2211.81
445.48	2371.55
445.69	2314.20
445.89	2486.23
446.09	2310.11
446.30	2514.91
446.50	2818.00
446.71	4505.53
446.91	5533.61
447.12	6477.73
447.32	6715.29
447.53	6360.99
447.73	5164.98
447.93	4560.83
448.14	4245.44
448.34	3950.53
448.55	3626.95
448.75	3538.89
448.96	3340.24
449.16	3088.34
449.36	2854.87
449.57	2484.19
449.77	2342.88
449.98	2138.08
450.18	2283.49
450.39	2377.69
450.59	2330.59
450.79	2224.09
451.00	2150.37
451.20	2258.91
451.41	2105.31
451.61	2240.48
451.81	2121.70
452.02	2142.18
452.22	2146.27
452.43	2144.22
452.63	2125.79
452.84	2254.81
453.04	2156.51
453.24	2326.49
453.45	2150.37
453.65	2195.42
453.86	2203.61
454.06	2203.61
454.26	2248.67
454.47	2146.27
454.67	2379.74
454.87	2220.00
455.08	2148.32
455.28	2375.64
455.49	2172.89
455.69	2070.50
455.89	2430.94
456.10	2326.49
456.30	2174.94
456.51	2197.47
456.71	2181.09
456.91	2215.90
457.12	2238.43
457.32	2209.76
457.52	2056.16
457.73	2252.77
457.93	2236.38
458.14	2170.85
458.34	2072.54
458.54	2125.79
458.75	2121.70
458.95	2310.11
459.15	2252.77
459.36	2228.19
459.56	2289.63
459.76	2379.74
459.97	2224.09
460.17	2168.80
460.37	2297.82
460.58	2148.32
460.78	2297.82
460.99	2166.75
461.19	2164.70
461.39	2160.61
461.60	2234.33
461.80	2238.43
462.00	2179.04
462.21	2209.76
462.41	2047.97
462.61	2068.45
462.82	2072.54
463.02	2232.29
463.22	2195.42
463.43	2291.68
463.63	2158.56
463.83	2318.30
464.04	2209.76
464.24	2242.53
464.44	2138.08
464.64	2129.89
464.85	2310.11
465.05	2277.34
465.25	2195.42
465.46	2131.94
465.66	2369.50
465.86	2179.04
466.07	2209.76
466.27	2215.90
466.47	2109.41
466.68	2035.68
466.88	2369.50
467.08	2273.25
467.29	2244.57
467.49	2256.86
467.69	2170.85
467.89	2324.44
468.10	2211.81
468.30	2203.61
468.50	2301.92
468.71	2322.40
468.91	2129.89
469.11	2389.98
469.31	2166.75
469.52	2158.56
469.72	2365.40
469.92	2461.66
470.13	2228.19
470.33	2289.63
470.53	2338.78
470.73	2731.99
470.94	3096.53
471.14	3252.17
471.34	3610.57
471.54	3506.12
471.75	3092.43
471.95	2840.53
472.15	2809.81
472.36	2830.29
472.56	2695.13
472.76	2629.59
472.96	2641.88
473.17	2562.01
473.37	2422.75
473.57	2260.96
473.77	2351.07
473.98	2273.25
474.18	2144.22
474.38	2537.43
474.58	2113.50
474.79	2160.61
474.99	2220.00
475.19	2297.82
475.39	2136.03
475.60	2236.38
475.80	2191.33
476.00	2174.94
476.20	2125.79
476.41	2265.05
476.61	2299.87
476.81	2301.92
477.01	2101.22
477.21	2367.45
477.42	2314.20
477.62	2070.50
477.82	2332.64
478.02	2070.50
478.23	2228.19
478.43	2195.42
478.63	2121.70
478.83	2172.89
479.03	2097.12
479.24	2379.74
479.44	2484.19
479.64	2176.99
479.84	2056.16
480.04	2121.70
480.25	2338.78
480.45	2019.30
480.65	2199.52
480.85	2291.68
481.06	2133.98
481.26	2260.96
481.46	2191.33
481.66	2224.09
481.86	2078.69
482.06	2318.30
482.27	2140.13
482.47	2129.89
482.67	2314.20
482.87	2166.75
483.07	2203.61
483.28	2160.61
483.48	2097.12
483.68	2293.72
483.88	2088.93
484.08	2021.35
484.29	2154.46
484.49	2162.66
484.69	2125.79
484.89	2353.12
485.09	2324.44
485.29	2254.81
485.50	2260.96
485.70	2187.23
485.90	2283.49
486.10	2224.09
486.30	2195.42
486.50	2293.72
486.71	2209.76
486.91	2301.92
487.11	2236.38
487.31	2056.16
487.51	2250.72
487.71	2215.90
487.91	2078.69
488.12	2101.22
488.32	2013.15
488.52	2199.52
488.72	2074.59
488.92	2252.77
489.12	2306.01
489.32	2310.11
489.53	2248.67
489.73	2084.83
489.93	2320.35
490.13	2136.03
490.33	2138.08
490.53	2232.29
490.73	2414.56
490.94	2064.35
491.14	2258.91
491.34	2310.11
491.54	2566.10
491.74	3135.44
491.94	3770.31
492.14	4016.07
492.34	4011.97
492.54	3901.38
492.75	3282.89
492.95	3110.86
493.15	2985.94
493.35	2916.31
493.55	2766.81
493.75	2660.31
493.95	2715.61
494.15	2600.92
494.35	2402.27
494.56	2310.11
494.76	2242.53
494.96	2308.06
495.16	2275.29
495.36	2222.05
495.56	2277.34
495.76	2183.13
495.96	2209.76
496.16	2146.27
496.36	2404.32
496.56	2158.56
496.77	2252.77
496.97	2187.23
497.17	2359.26
497.37	2111.46
497.57	2203.61
497.77	2242.53
497.97	2080.74
498.17	2207.71
498.37	2133.98
498.57	2332.64
498.77	2127.84
498.97	2248.67
499.17	2398.17
499.38	2142.18
499.58	2306.01
499.78	2334.68
499.98	2398.17
500.18	2179.04
500.38	2176.99
500.58	2375.64
500.78	2850.77
500.98	5132.21
501.18	7335.82
501.38	8931.19
501.58	9940.84
501.78	9750.38
501.98	7765.90
502.18	6449.05
502.38	5609.39
502.58	5226.42
502.78	4636.60
502.98	4513.72
503.18	4290.49
503.38	3948.48
503.59	3440.59
503.79	3233.74
503.99	3024.85
504.19	2879.44
504.39	2955.22
504.59	2883.54
504.79	2895.83
504.99	2834.39
505.19	2617.30
505.39	2531.29
505.59	2533.34
505.79	2490.33
505.99	2428.89
506.19	2375.64
506.39	2412.51
506.59	2228.19
506.79	2287.58
506.99	2326.49
507.19	2265.05
507.39	2269.15
507.59	2084.83
507.79	2152.42
507.99	2142.18
508.19	2232.29
508.39	2146.27
508.59	2146.27
508.79	2295.77
508.99	2463.71
509.19	2187.23
509.39	2283.49
509.59	2162.66
509.79	2109.41
509.99	2201.57
510.19	2285.53
510.39	2351.07
510.59	2240.48
510.79	2148.32
510.99	2107.36
511.19	2222.05
511.39	2379.74
511.59	2281.44
511.79	2324.44
511.99	2220.00
512.19	2312.16
512.38	2211.81
512.58	2195.42
512.78	2181.09
512.98	2297.82
513.18	2394.08
513.38	2111.46
513.58	2234.33
513.78	2113.50
513.98	2170.85
514.18	2158.56
514.38	2170.85
514.58	2205.66
514.78	2181.09
514.98	2195.42
515.18	2166.75
515.38	2047.97
515.58	2334.68
515.78	2109.41
515.98	2254.81
516.18	2283.49
516.38	2162.66
516.57	2129.89
516.77	2138.08
516.97	2213.85
517.17	2113.50
517.37	2013.15
517.57	2291.68
517.77	2209.76
517.97	2197.47
518.17	2232.29
518.37	2138.08
518.57	2148.32
518.77	2195.42
518.97	2203.61
519.16	2240.48
519.36	2402.27
519.56	2203.61
519.76	2189.28
519.96	2170.85
520.16	2283.49
520.36	2170.85
520.56	2342.88
520.76	2170.85
520.96	2250.72
521.16	2267.10
521.35	2252.77
521.55	2306.01
521.75	2252.77
521.95	2166.75
522.15	2111.46
522.35	2080.74
522.55	2277.34
522.75	2252.77
522.95	2201.57
523.14	2187.23
523.34	2242.53
523.54	2185.18
523.74	2299.87
523.94	2252.77
524.14	2109.41
524.34	2242.53
524.54	2367.45
524.73	2160.61
524.93	2250.72
525.13	2213.85
525.33	2019.30
525.53	2418.65
525.73	2265.05
525.93	2217.95
526.13	2211.81
526.32	2142.18
526.52	2326.49
526.72	2285.53
526.92	2199.52
527.12	2244.57
527.32	2095.07
527.52	2228.19
527.71	2338.78
527.91	2164.70
528.11	2201.57
528.31	2207.71
528.51	2140.13
528.71	2250.72
528.90	2256.86
529.10	2293.72
529.30	2283.49
529.50	2070.50
529.70	2267.10
529.90	2211.81
530.09	2228.19
530.29	2054.11
530.49	2121.70
530.69	2428.89
530.89	2228.19
531.09	2207.71
531.28	2181.09
531.48	2275.29
531.68	2250.72
531.88	2236.38
532.08	2252.77
532.28	2174.94
532.47	2322.40
532.67	2357.21
532.87	2291.68
533.07	2179.04
533.27	2256.86
533.46	2277.34
533.66	2273.25
533.86	2217.95
534.06	2195.42
534.26	2297.82
534.45	2222.05
534.65	2357.21
534.85	2246.62
535.05	2172.89
535.25	2275.29
535.44	2060.26
535.64	2277.34
535.84	2250.72
536.04	2152.42
536.24	2189.28
536.43	2181.09
536.63	2215.90
536.83	2213.85
537.03	2179.04
537.22	2033.63
537.42	2088.93
537.62	2187.23
537.82	2170.85
538.02	2277.34
538.21	2346.97
538.41	2500.57
538.61	2293.72
538.81	2170.85
539.00	2342.88
539.20	2101.22
539.40	2095.07
539.60	2297.82
539.79	2222.05
539.99	2166.75
540.19	2164.70
540.39	2146.27
540.58	2201.57
540.78	2265.05
540.98	2346.97
541.18	2289.63
541.37	2277.34
541.57	2228.19
541.77	2193.37
541.97	2148.32
542.16	2070.50
542.36	2172.89
542.56	2156.51
542.76	2387.93
542.95	2279.39
543.15	2228.19
543.35	2334.68
543.54	2129.89
543.74	2179.04
543.94	2344.92
544.14	2166.75
544.33	2240.48
544.53	2201.57
544.73	2162.66
544.93	2090.98
545.12	2189.28
545.32	2269.15
545.52	2158.56
545.71	2074.59
545.91	2138.08
546.11	2211.81
546.30	2084.83
546.50	2185.18
546.70	2260.96
546.90	2211.81
547.09	2142.18
547.29	2240.48
547.49	2346.97
547.68	2203.61
547.88	2138.08
548.08	2285.53
548.27	2713.56
548.47	2158.56
548.67	2107.36
548.87	2193.37
549.06	2131.94
549.26	2215.90
549.46	2222.05
549.65	2166.75
549.85	2236.38
550.05	2203.61
550.24	2097.12
550.44	2185.18
550.64	2244.57
550.83	2183.13
551.03	2332.64
551.23	2324.44
551.42	2316.25
551.62	2103.26
551.82	2183.13
552.01	2164.70
552.21	2301.92
552.41	2183.13
552.60	2293.72
552.80	2209.76
553.00	2166.75
553.19	2187.23
553.39	2389.98
553.59	2121.70
553.78	2314.20
553.98	2164.70
554.17	2138.08
554.37	2303.96
554.57	2289.63
554.76	2181.09
554.96	2217.95
555.16	2289.63
555.35	2256.86
555.55	2316.25
555.75	2211.81
555.94	2291.68
556.14	2058.21
556.33	2236.38
556.53	2181.09
556.73	2238.43
556.92	2244.57
557.12	2308.06
557.32	2406.36
557.51	2392.03
557.71	2316.25
557.90	2363.36
558.10	2277.34
558.30	2211.81
558.49	2154.46
558.69	2146.27
558.88	2256.86
559.08	2320.35
559.28	2097.12
559.47	2228.19
559.67	2281.44
559.86	2392.03
560.06	2252.77
560.26	2166.75
560.45	2213.85
560.65	2201.57
560.84	2410.46
561.04	2140.13
561.24	2273.25
561.43	2064.35
561.63	2371.55
561.82	2328.54
562.02	2295.77
562.22	2119.65
562.41	2138.08
562.61	2125.79
562.80	2113.50
563.00	2420.70
563.19	2238.43
563.39	2228.19
563.59	2349.02
563.78	2136.03
563.98	2045.92
564.17	2095.07
564.37	1976.29
564.56	2199.52
564.76	2080.74
564.96	2344.92
565.15	2254.81
565.35	2426.84
565.54	2150.37
565.74	2293.72
565.93	2205.66
566.13	2279.39
566.32	2181.09
566.52	2277.34
566.71	2265.05
566.91	2310.11
567.11	2207.71
567.30	2097.12
567.50	2213.85
567.69	2330.59
567.89	2207.71
568.08	2080.74
568.28	2277.34
568.47	2027.49
568.67	2183.13
568.86	2168.80
569.06	2414.56
569.25	2166.75
569.45	2150.37
569.64	2160.61
569.84	2156.51
570.04	2189.28
570.23	2148.32
570.43	2203.61
570.62	2187.23
570.82	2406.36
571.01	2160.61
571.21	2183.13
571.40	2062.30
571.60	2211.81
571.79	2244.57
571.99	2213.85
572.18	2064.35
572.38	2150.37
572.57	2181.09
572.77	2236.38
572.96	2469.85
573.16	2191.33
573.35	2166.75
573.55	2353.12
573.74	2238.43
573.94	2047.97
574.13	2207.71
574.33	2357.21
574.52	2359.26
574.71	2150.37
574.91	2285.53
575.10	2115.55
575.30	2164.70
575.49	2123.74
575.69	2172.89
575.88	2283.49
576.08	2273.25
576.27	2400.22
576.47	2248.67
576.66	2461.66
576.86	2369.50
577.05	2256.86
577.25	2285.53
577.44	2404.32
577.64	2166.75
577.83	2238.43
578.02	2220.00
578.22	2236.38
578.41	2359.26
578.61	2322.40
578.80	2168.80
579.00	2291.68
579.19	2250.72
579.39	2310.11
579.58	2342.88
579.77	2230.24
579.97	2275.29
580.16	2273.25
580.36	2338.78
580.55	2318.30
580.75	2230.24
580.94	2289.63
581.13	2365.40
581.33	2414.56
581.52	2232.29
581.72	2467.80
581.91	2389.98
582.11	2271.20
582.30	2285.53
582.49	2322.40
582.69	2420.70
582.88	2299.87
583.08	2252.77
583.27	2369.50
583.47	2213.85
583.66	2203.61
583.85	2244.57
584.05	2244.57
584.24	2359.26
584.44	2232.29
584.63	2324.44
584.82	2422.75
585.02	2355.16
585.21	2455.51
585.41	2412.51
585.60	2379.74
585.79	2539.48
585.99	2447.32
586.18	2385.88
586.37	2809.81
586.57	4440.00
586.76	13311.80
586.96	32460.30
587.15	46067.01
587.34	55813.29
587.54	60714.08
587.73	55958.70
587.93	39118.25
588.12	29654.59
588.31	23803.54
588.51	20694.72
588.70	19353.30
588.89	17043.20
589.09	15267.61
589.28	13113.14
589.47	10379.11
589.67	8189.83
589.86	6487.96
590.06	4763.58
590.25	3731.40
590.44	3143.63
590.64	2799.57
590.83	2600.92
591.02	2482.14
591.22	2355.16
591.41	2308.06
591.60	2293.72
591.80	2502.62
591.99	2156.51
592.18	2265.05
592.38	2326.49
592.57	2199.52
592.76	2260.96
592.96	2215.90
593.15	2228.19
593.34	2318.30
593.54	2166.75
593.73	2342.88
593.92	2334.68
594.12	2285.53
594.31	2324.44
594.50	2373.60
594.70	2355.16
594.89	2566.10
595.08	2105.31
595.28	2363.36
595.47	2545.63
595.66	2314.20
595.86	2176.99
596.05	2211.81
596.24	2293.72
596.43	2394.08
596.63	2301.92
596.82	2324.44
597.01	2338.78
597.21	2404.32
597.40	2265.05
597.59	2236.38
597.79	2189.28
597.98	2287.58
598.17	2203.61
598.36	2224.09
598.56	2320.35
598.75	2191.33
598.94	2224.09
599.14	2277.34
599.33	2193.37
599.52	2232.29
599.71	2260.96
599.91	2320.35
600.10	2224.09
600.29	2195.42
600.48	2344.92
600.68	2197.47
600.87	2248.67
601.06	2166.75
601.26	2250.72
601.45	2209.76
601.64	2203.61
601.83	2340.83
602.03	2166.75
602.22	2111.46
602.41	2252.77
602.60	2469.85
602.80	2277.34
602.99	2297.82
603.18	2199.52
603.37	2193.37
603.57	2222.05
603.76	2342.88
603.95	2269.15
604.14	2129.89
604.34	2176.99
604.53	2308.06
604.72	2293.72
604.91	2295.77
605.10	2220.00
605.30	2072.54
605.49	2449.37
605.68	2367.45
605.87	2211.81
606.07	2131.94
606.26	2246.62
606.45	2220.00
606.64	2230.24
606.84	2242.53
607.03	2236.38
607.22	2344.92
607.41	2211.81
607.60	2174.94
607.80	2326.49
607.99	2213.85
608.18	2301.92
608.37	2226.14
608.56	2093.02
608.76	2318.30
608.95	2432.99
609.14	2322.40
609.33	2371.55
609.52	2422.75
609.72	2398.17
609.91	2338.78
610.10	2234.33
610.29	2340.83
610.48	2314.20
610.68	2277.34
610.87	2125.79
611.06	2318.30
611.25	2209.76
611.44	2406.36
611.63	2269.15
611.83	2377.69
612.02	2176.99
612.21	2283.49
612.40	2050.02
612.59	2095.07
612.79	2078.69
612.98	2242.53
613.17	2308.06
613.36	2197.47
613.55	2435.03
613.74	2406.36
613.93	2441.18
614.13	2408.41
614.32	2432.99
614.51	2406.36
614.70	2398.17
614.89	2299.87
615.08	2297.82
615.28	2707.41
615.47	2152.42
615.66	2369.50
615.85	2342.88
616.04	2486.23
616.23	2295.77
616.42	2310.11
616.62	2283.49
616.81	2287.58
617.00	2242.53
617.19	2236.38
617.38	2193.37
617.57	2308.06
617.76	2363.36
617.95	2303.96
618.15	2289.63
618.34	2437.08
618.53	2152.42
618.72	2287.58
618.91	2334.68
619.10	2301.92
619.29	2267.10
619.48	2244.57
619.68	2164.70
619.87	2181.09
620.06	1998.82
620.25	2310.11
620.44	2160.61
620.63	2209.76
620.82	2297.82
621.01	2213.85
621.20	2279.39
621.39	2203.61
621.59	2260.96
621.78	2197.47
621.97	2191.33
622.16	2260.96
622.35	2220.00
622.54	2260.96
622.73	2285.53
622.92	2052.06
623.11	2344.92
623.30	2191.33
623.49	2275.29
623.68	2088.93
623.88	2375.64
624.07	2234.33
624.26	2203.61
624.45	2201.57
624.64	2162.66
624.83	2144.22
625.02	2281.44
625.21	2248.67
625.40	2172.89
625.59	2351.07
625.78	2220.00
625.97	2355.16
626.16	2326.49
626.35	2334.68
626.54	2283.49
626.74	2465.75
626.93	2220.00
627.12	2187.23
627.31	2381.79
627.50	2295.77
627.69	2306.01
627.88	2127.84
628.07	2119.65
628.26	2113.50
628.45	2127.84
628.64	2185.18
628.83	2201.57
629.02	2115.55
629.21	2244.57
629.40	2226.14
629.59	2113.50
629.78	2242.53
629.97	2207.71
630.16	2246.62
630.35	2207.71
630.54	2281.44
630.73	2199.52
630.92	2174.94
631.11	2156.51
631.30	2252.77
631.49	2318.30
631.68	2195.42
631.87	2185.18
632.06	2058.21
632.25	2510.81
632.44	2252.77
632.63	2203.61
632.82	2242.53
633.01	2265.05
633.20	2416.60
633.39	2238.43
633.58	2195.42
633.77	2365.40
633.96	2265.05
634.15	2306.01
634.34	2349.02
634.53	2328.54
634.72	2156.51
634.91	2070.50
635.10	2316.25
635.29	2336.73
635.48	2254.81
635.67	2148.32
635.86	2113.50
636.05	2283.49
636.24	2160.61
636.43	2179.04
636.62	2187.23
636.81	2086.88
637.00	2156.51
637.19	2289.63
637.38	2164.70
637.57	2187.23
637.76	2301.92
637.95	2349.02
638.14	2316.25
638.33	2293.72
638.52	2256.86
638.71	2125.79
638.89	2056.16
639.08	2500.57
639.27	2389.98
639.46	2514.91
639.65	2932.69
639.84	2916.31
640.03	3160.02
640.22	2977.75
640.41	2987.99
640.60	2566.10
640.79	2486.23
640.98	2463.71
641.17	2447.32
641.36	2435.03
641.55	2410.46
641.74	2238.43
641.92	2154.46
642.11	2203.61
642.30	2248.67
642.49	2179.04
642.68	2142.18
642.87	2240.48
643.06	2217.95
643.25	2179.04
643.44	2113.50
643.63	2240.48
643.82	2256.86
644.00	2105.31
644.19	2179.04
644.38	2090.98
644.57	2193.37
644.76	2181.09
644.95	2156.51
645.14	2250.72
645.33	2193.37
645.52	2279.39
645.71	2076.64
645.89	2142.18
646.08	2179.04
646.27	2156.51
646.46	2359.26
646.65	2121.70
646.84	2211.81
647.03	2133.98
647.22	2242.53
647.40	2232.29
647.59	2078.69
647.78	2082.78
647.97	2162.66
648.16	2121.70
648.35	2377.69
648.54	2254.81
648.73	2152.42
648.91	2353.12
649.10	2318.30
649.29	2152.42
649.48	2205.66
649.67	2217.95
649.86	2283.49
650.05	2248.67
650.23	2363.36
650.42	2299.87
650.61	2521.05
650.80	2387.93
650.99	2492.38
651.18	2500.57
651.36	2398.17
651.55	2217.95
651.74	2392.03
651.93	2279.39
652.12	2228.19
652.31	2201.57
652.49	2193.37
652.68	2162.66
652.87	2379.74
653.06	2275.29
653.25	2379.74
653.44	2215.90
653.62	2357.21
653.81	2203.61
654.00	2230.24
654.19	2293.72
654.38	2482.14
654.56	2226.14
654.75	2131.94
654.94	2336.73
655.13	2207.71
655.32	2164.70
655.51	2260.96
655.69	2172.89
655.88	2256.86
656.07	2170.85
656.26	2273.25
656.45	2056.16
656.63	2234.33
656.82	2224.09
657.01	2220.00
657.20	2164.70
657.38	2455.51
657.57	2152.42
657.76	2011.11
657.95	2260.96
658.14	2138.08
658.32	2254.81
658.51	2109.41
658.70	2236.38
658.89	2197.47
659.08	2164.70
659.26	2396.12
659.45	2129.89
659.64	2324.44
659.83	2226.14
660.01	2510.81
660.20	2242.53
660.39	2469.85
660.58	2017.25
660.76	2303.96
660.95	2021.35
661.14	2238.43
661.33	2033.63
661.51	2152.42
661.70	2162.66
661.89	2236.38
662.08	2144.22
662.26	2129.89
662.45	2129.89
662.64	2396.12
662.83	2291.68
663.01	2047.97
663.20	2176.99
663.39	2363.36
663.58	2199.52
663.76	2179.04
663.95	2228.19
664.14	2260.96
664.32	2129.89
664.51	2109.41
664.70	2054.11
664.89	2203.61
665.07	2117.60
665.26	2230.24
665.45	2076.64
665.64	2230.24
665.82	2256.86
666.01	2205.66
666.20	2170.85
666.38	2361.31
666.57	2349.02
666.76	3332.05
666.95	8101.76
667.13	16627.46
667.32	22099.63
667.51	25917.04
667.69	27453.02
667.88	25927.28
668.07	18169.58
668.25	14663.46
668.44	11710.29
668.63	10516.32
668.81	9002.87
669.00	8030.09
669.19	7147.41
669.38	6018.98
669.56	5289.90
669.75	4497.34
669.94	3762.12
670.12	3180.50
670.31	2818.00
670.50	2619.35
670.68	2451.42
670.87	2420.70
671.06	2283.49
671.24	2375.64
671.43	2430.94
671.62	2334.68
671.80	2185.18
671.99	2289.63
672.18	2248.67
672.36	2299.87
672.55	2293.72
672.74	2275.29
672.92	2232.29
673.11	2273.25
673.29	2074.59
673.48	2174.94
673.67	2185.18
673.85	2256.86
674.04	2170.85
674.23	2250.72
674.41	2355.16
674.60	2160.61
674.79	2052.06
674.97	2070.50
675.16	2236.38
675.34	2371.55
675.53	2138.08
675.72	2234.33
675.90	2400.22
676.09	2238.43
676.28	2193.37
676.46	2072.54
676.65	2295.77
676.83	2103.26
677.02	2185.18
677.21	2252.77
677.39	2222.05
677.58	2138.08
677.77	2240.48
677.95	2170.85
678.14	2246.62
678.32	2179.04
678.51	2138.08
678.70	2449.37
678.88	2217.95
679.07	2148.32
679.25	2138.08
679.44	2217.95
679.63	2095.07
679.81	2277.34
680.00	2248.67
680.18	2228.19
680.37	2324.44
680.55	2138.08
680.74	2023.39
680.93	1990.63
681.11	2252.77
681.30	2131.94
681.48	2144.22
681.67	2211.81
681.85	2179.04
682.04	2068.45
682.23	2308.06
682.41	2195.42
682.60	2195.42
682.78	2191.33
682.97	2107.36
683.15	2154.46
683.34	2260.96
683.53	2312.16
683.71	2047.97
683.90	2322.40
684.08	2361.31
684.27	2220.00
684.45	2187.23
684.64	2271.20
684.82	2211.81
685.01	2224.09
685.19	2168.80
685.38	2320.35
685.57	2226.14
685.75	2109.41
685.94	2140.13
686.12	2123.74
686.31	2174.94
686.49	2342.88
686.68	2099.17
686.86	2224.09
687.05	2140.13
687.23	2312.16
687.42	2111.46
687.60	2115.55
687.79	2326.49
687.97	2406.36
688.16	2314.20
688.34	2320.35
688.53	2129.89
688.71	2152.42
688.90	2389.98
689.08	2154.46
689.27	2041.82
689.45	2224.09
689.64	2314.20
689.82	2260.96
690.01	2260.96
690.19	2281.44
690.38	2195.42
690.56	2277.34
690.75	2224.09
690.93	2170.85
691.12	2240.48
691.30	2209.76
691.49	2154.46
691.67	2222.05
691.86	2326.49
692.04	2097.12
692.23	2207.71
692.41	2271.20
692.60	2475.99
692.78	2432.99
692.97	2351.07
693.15	2351.07
693.34	2349.02
693.52	2322.40
693.71	2189.28
693.89	2187.23
694.08	2054.11
694.26	2220.00
694.44	2283.49
694.63	2250.72
694.81	2097.12
695.00	2136.03
695.18	2287.58
695.37	2428.89
695.55	2258.91
695.74	2142.18
695.92	2142.18
696.10	2236.38
696.29	2113.50
696.47	2093.02
696.66	2078.69
696.84	2047.97
697.03	2195.42
697.21	2330.59
697.40	3241.93
697.58	2256.86
697.76	2090.98
697.95	2144.22
698.13	2107.36
698.32	2095.07
698.50	2248.67
698.68	2220.00
698.87	2222.05
699.05	2377.69
699.24	2205.66
699.42	2035.68
699.61	2269.15
699.79	2187.23
699.97	2168.80
700.16	2078.69
700.34	2070.50
700.53	2213.85
700.71	2330.59
700.89	2291.68
701.08	2146.27
701.26	2224.09
701.45	2727.89
701.63	2123.74
701.81	2220.00
702.00	2097.12
702.18	2224.09
702.37	2349.02
702.55	2523.10
702.73	2459.61
702.92	2353.12
703.10	2486.23
703.28	2551.77
703.47	2299.87
703.65	2514.91
703.84	2342.88
704.02	2265.05
704.20	2453.47
704.39	2244.57
704.57	2263.01
704.75	2381.79
704.94	2279.39
705.12	2322.40
705.30	2500.57
705.49	4605.88
705.67	11286.36
705.86	20707.01
706.04	25378.43
706.22	28683.85
706.41	29943.35
706.59	25720.44
706.77	18325.22
706.96	14778.14
707.14	12969.79
707.32	11261.78
707.51	9832.30
707.69	8249.22
707.87	6535.07
708.06	5220.27
708.24	4200.38
708.42	3293.13
708.61	3112.91
708.79	2420.70
708.97	2424.80
709.16	2521.05
709.34	2346.97
709.52	2209.76
709.71	2207.71
709.89	2228.19
710.07	2179.04
710.26	2168.80
710.44	2240.48
710.62	2275.29
710.80	2170.85
710.99	2318.30
711.17	2322.40
711.35	2220.00
711.54	2170.85
711.72	2269.15
711.90	2244.57
712.09	2133.98
712.27	2168.80
712.45	2230.24
712.63	2148.32
712.82	2244.57
713.00	2199.52
713.18	2265.05
713.37	2256.86
713.55	2301.92
713.73	2271.20
713.91	2238.43
714.10	2160.61
714.28	2156.51
714.46	2256.86
714.65	2269.15
714.83	2158.56
715.01	2185.18
715.19	2150.37
715.38	2138.08
715.56	2207.71
715.74	2142.18
715.92	2133.98
716.11	2332.64
716.29	2037.73
716.47	2205.66
716.65	2211.81
716.84	2086.88
717.02	2303.96
717.20	2062.30
717.38	2119.65
717.57	2217.95
717.75	2256.86
717.93	2201.57
718.11	2185.18
718.30	2174.94
718.48	2238.43
718.66	2342.88
718.84	2258.91
719.03	2170.85
719.21	2191.33
719.39	2389.98
719.57	2252.77
719.75	2242.53
719.94	2176.99
720.12	2127.84
720.30	2176.99
720.48	2273.25
720.67	2170.85
720.85	2078.69
721.03	2195.42
721.21	2133.98
721.39	2285.53
721.58	2285.53
721.76	2146.27
721.94	2148.32
722.12	2242.53
722.30	2226.14
722.49	2181.09
722.67	2170.85
722.85	2228.19
723.03	2119.65
723.21	2127.84
723.40	2256.86
723.58	2402.27
723.76	2181.09
723.94	2394.08
724.12	2273.25
724.30	2430.94
724.49	2412.51
724.67	2168.80
724.85	2277.34
725.03	2148.32
725.21	2283.49
725.40	2318.30
725.58	2113.50
725.76	2346.97
725.94	2256.86
726.12	2148.32
726.30	2152.42
726.49	2125.79
726.67	2105.31
726.85	2285.53
727.03	2531.29
727.21	3772.36
727.39	5560.24
727.57	6647.71
727.76	7337.87
727.94	7839.62
728.12	7495.57
728.30	5965.73
728.48	5054.39
728.66	4550.59
728.84	4132.80
729.03	3618.76
729.21	3110.86
729.39	2744.28
729.57	2559.96
729.75	2383.84
729.93	2326.49
730.11	2240.48
730.30	2234.33
730.48	2269.15
730.66	2394.08
730.84	2258.91
731.02	2256.86
731.20	2226.14
731.38	2209.76
731.56	1990.63
731.74	2058.21
731.93	2277.34
732.11	2172.89
732.29	2201.57
732.47	2301.92
732.65	2199.52
732.83	2174.94
733.01	2265.05
733.19	2105.31
733.37	2234.33
733.56	2254.81
733.74	2172.89
733.92	2297.82
734.10	2152.42
734.28	2287.58
734.46	2062.30
734.64	2144.22
734.82	2238.43
735.00	2224.09
735.18	2113.50
735.36	2113.50
735.54	2150.37
735.73	2170.85
735.91	2293.72
736.09	2306.01
736.27	2148.32
736.45	2252.77
736.63	2025.44
736.81	2133.98
736.99	2252.77
737.17	2308.06
737.35	2162.66
737.53	2152.42
737.71	2125.79
737.89	2357.21
738.07	2060.26
738.25	2072.54
738.43	2076.64
738.61	2121.70
738.80	2066.40
738.98	2127.84
739.16	2103.26
739.34	2090.98
739.52	2318.30
739.70	2127.84
739.88	2289.63
740.06	2269.15
740.24	2009.06
740.42	2283.49
740.60	1998.82
740.78	2107.36
740.96	2107.36
741.14	2150.37
741.32	2240.48
741.50	2037.73
741.68	2359.26
741.86	2394.08
742.04	2070.50
742.22	2119.65
742.40	2164.70
742.58	2289.63
742.76	2070.50
742.94	2166.75
743.12	2125.79
743.30	2269.15
743.48	2314.20
743.66	2142.18
743.84	2332.64
744.02	2136.03
744.20	2220.00
744.38	2179.04
744.56	2146.27
744.74	2392.03
744.92	2160.61
745.10	2389.98
745.28	2220.00
745.46	2328.54
745.64	2228.19
745.82	2306.01
746.00	2170.85
746.18	2152.42
746.36	2158.56
746.54	2189.28
746.72	2152.42
746.90	2115.55
747.08	2381.79
747.26	2142.18
747.44	2289.63
747.62	2207.71
747.80	2220.00
747.98	2269.15
748.15	2203.61
748.33	2340.83
748.51	2199.52
748.69	2293.72
748.87	2162.66
749.05	2164.70
749.23	2209.76
749.41	2191.33
749.59	2213.85
749.77	2291.68
749.95	2144.22
750.13	2170.85
750.31	2195.42
750.49	2138.08
750.67	2318.30
750.85	2244.57
751.03	2207.71
751.20	2373.60
751.38	2283.49
751.56	2164.70
751.74	2222.05
751.92	2095.07
752.10	2113.50
752.28	2224.09
752.46	2088.93
752.64	2172.89
752.82	2181.09
753.00	2265.05
753.18	2166.75
753.35	2156.51
753.53	2228.19
753.71	2154.46
753.89	2197.47
754.07	2228.19
754.25	2285.53
754.43	2224.09
754.61	2031.58
754.79	2220.00
754.97	2138.08
755.14	2308.06
755.32	2117.60
755.50	2269.15
755.68	2174.94
755.86	2070.50
756.04	2125.79
756.22	2021.35
756.40	2367.45
756.57	2400.22
756.75	2064.35
756.93	2342.88
757.11	2303.96
757.29	2078.69
757.47	2056.16
757.65	2009.06
757.82	1998.82
758.00	2086.88
758.18	2082.78
758.36	2060.26
758.54	2295.77
758.72	2037.73
758.90	2269.15
759.07	2324.44
759.25	2099.17
759.43	2211.81
759.61	2117.60
759.79	3026.90
759.97	2306.01
760.15	2097.12
760.32	2113.50
760.50	2193.37
760.68	2295.77
760.86	1966.05
761.04	2289.63
761.22	2242.53
761.39	2273.25
761.57	2195.42
761.75	2162.66
761.93	2279.39
762.11	2158.56
762.28	2170.85
762.46	2154.46
762.64	2217.95
762.82	2123.74
763.00	2164.70
763.18	2265.05
763.35	2150.37
763.53	2230.24
763.71	2209.76
763.89	2162.66
764.07	2156.51
764.24	2191.33
764.42	2328.54
764.60	2226.14
764.78	2306.01
764.96	2334.68
765.13	2299.87
765.31	2215.90
765.49	2217.95
765.67	2140.13
765.84	2152.42
766.02	2138.08
766.20	2080.74
766.38	2189.28
766.56	2187.23
766.73	2160.61
766.91	2142.18
767.09	2197.47
767.27	2156.51
767.44	2070.50
767.62	2303.96
767.80	2240.48
767.98	2084.83
768.15	2121.70
768.33	2252.77
768.51	2267.10
768.69	2234.33
768.87	2252.77
769.04	2211.81
769.22	2467.80
769.40	2322.40
769.58	2363.36
769.75	2205.66
769.93	2203.61
770.11	2211.81
770.28	2093.02
770.46	2301.92
770.64	2240.48
770.82	2179.04
770.99	2131.94
771.17	2240.48
771.35	2117.60
771.53	2152.42
771.70	2176.99
771.88	2224.09
772.06	2142.18
772.23	2217.95
772.41	2209.76
772.59	2203.61
772.77	2105.31
772.94	2215.90
773.12	2166.75
773.30	2174.94
773.47	2187.23
773.65	2097.12
773.83	2308.06
774.01	2172.89
774.18	2093.02
774.36	2170.85
774.54	2103.26
774.71	2279.39
774.89	2035.68
775.07	2103.26
775.24	2119.65
775.42	2101.22
775.60	2387.93
775.78	2129.89
775.95	2160.61
776.13	2047.97
776.31	1998.82
776.48	2195.42
776.66	2226.14
776.84	2133.98
777.01	2058.21
777.19	2105.31
777.37	2160.61
777.54	2193.37
777.72	2359.26
777.90	2256.86
778.07	2125.79
778.25	2453.47
778.43	2222.05
778.60	2158.56
778.78	2185.18
778.96	2365.40
779.13	2023.39
779.31	2308.06
779.49	2170.85
779.66	2193.37
779.84	2199.52
780.01	2170.85
780.19	2041.82
780.37	2387.93
780.54	2203.61
780.72	2136.03
780.90	2271.20
781.07	2193.37
781.25	2142.18
781.43	2287.58
781.60	2133.98
781.78	2306.01
781.95	2181.09
782.13	2158.56
782.31	2207.71
782.48	2000.87
782.66	2172.89
782.83	2408.41
783.01	2275.29
783.19	2277.34
783.36	2140.13
783.54	2013.15
783.72	2295.77
783.89	2097.12
784.07	2244.57
784.24	2258.91
784.42	2293.72
784.60	2226.14
784.77	2162.66
784.95	2052.06
785.12	2133.98
785.30	2220.00
785.47	2111.46
785.65	2045.92
785.83	2170.85
786.00	2193.37
786.18	2160.61
786.35	2013.15
786.53	2129.89
786.71	2269.15
786.88	2289.63
787.06	2201.57
787.23	2168.80
787.41	2076.64
787.58	2256.86
787.76	2127.84
787.94	2213.85
788.11	2187.23
788.29	2115.55
788.46	2119.65
788.64	2062.30
788.81	2195.42
788.99	2146.27
789.16	2154.46
789.34	2129.89
789.52	2148.32
789.69	2133.98
789.87	2039.78
790.04	2093.02
790.22	2123.74
790.39	2373.60
790.57	2054.11
790.74	2121.70
790.92	2246.62
791.09	2043.87
791.27	2164.70
791.44	2258.91
791.62	2146.27
791.79	2238.43
791.97	2158.56
792.15	2443.23
792.32	2240.48
792.50	2254.81
792.67	2375.64
792.85	2383.84
793.02	2234.33
793.20	2170.85
793.37	2047.97
793.55	2131.94
793.72	2076.64
793.90	2203.61
794.07	2113.50
794.25	2103.26
794.42	2201.57
794.60	2095.07
794.77	2160.61
794.95	2277.34
795.12	2236.38
795.30	2162.66
795.47	2019.30
795.65	2478.04
795.82	2197.47
796.00	2084.83
796.17	2230.24
796.34	2052.06
796.52	2199.52
796.69	2263.01
796.87	2277.34
797.04	2230.24
797.22	2234.33
797.39	2181.09
797.57	2301.92
797.74	2197.47
797.92	2220.00
798.09	2211.81
798.27	2346.97
798.44	2168.80
798.62	2023.39
798.79	2168.80
798.96	2234.33
799.14	2195.42
799.31	2465.75
799.49	2195.42
799.66	2105.31
799.84	2154.46
800.01	2078.69
800.19	2260.96
800.36	2144.22
800.53	2181.09
800.71	2236.38
800.88	2371.55
801.06	2131.94
801.23	2146.27
801.41	2162.66
801.58	2117.60
801.75	2148.32
801.93	2240.48
802.10	2260.96
802.28	2172.89
802.45	2138.08
802.63	2283.49
802.80	2306.01
802.97	2101.22
803.15	2179.04
803.32	2158.56
803.50	2066.40
803.67	2119.65
803.84	2023.39
804.02	2269.15
804.19	2119.65
804.37	2080.74
804.54	2021.35
804.71	2158.56
804.89	2191.33
805.06	2060.26
805.24	2119.65
805.41	2113.50
805.58	2168.80
805.76	2336.73
805.93	2168.80
806.10	2344.92
806.28	2236.38
806.45	2289.63
806.63	2138.08
806.80	2248.67
806.97	2195.42
807.15	2179.04
807.32	2240.48
807.49	2168.80
807.67	2133.98
807.84	2236.38
808.01	2058.21
808.19	2426.84
808.36	2375.64
808.54	2162.66
808.71	2168.80
808.88	2168.80
809.06	2342.88
809.23	2289.63
809.40	2193.37
809.58	2215.90
809.75	2193.37
809.92	2109.41
810.10	2367.45
810.27	2183.13
810.44	2226.14
810.62	2271.20
810.79	2258.91
810.96	2072.54
811.14	2078.69
811.31	2297.82
811.48	2269.15
811.66	2129.89
811.83	2310.11
812.00	2281.44
812.18	2242.53
812.35	2334.68
812.52	2234.33
812.69	2162.66
812.87	2168.80
813.04	2189.28
813.21	2228.19
813.39	2133.98
813.56	2070.50
813.73	2263.01
813.91	2080.74
814.08	2088.93
814.25	2224.09
814.42	2021.35
814.60	2142.18
814.77	2181.09
814.94	2179.04
815.12	2205.66
815.29	2385.88
815.46	2131.94
815.63	2244.57
815.81	2154.46
815.98	2138.08
816.15	2113.50
816.33	2199.52
816.50	2193.37
816.67	2232.29
816.84	2220.00
817.02	2068.45
817.19	2125.79
817.36	2215.90
817.53	2228.19
817.71	2144.22
817.88	2215.90
818.05	2174.94
818.22	2074.59
818.40	2400.22
818.57	2105.31
818.74	2250.72
818.91	2195.42
819.09	2320.35
819.26	2211.81
819.43	2183.13
819.60	2179.04
819.78	2220.00
819.95	2275.29
820.12	2080.74
820.29	2252.77
820.47	2215.90
820.64	2105.31
820.81	2086.88
820.98	2176.99
821.15	2176.99
821.33	2271.20
821.50	2062.30
821.67	2306.01
821.84	2144.22
822.02	2244.57
822.19	2176.99
822.36	2117.60
822.53	2156.51
822.70	2068.45
822.88	2168.80
823.05	2279.39
823.22	2148.32
823.39	2234.33
823.56	2201.57
823.74	2330.59
823.91	2095.07
824.08	2025.44
824.25	2105.31
824.42	2432.99
824.60	2097.12
824.77	2168.80
824.94	2142.18
825.11	2226.14
825.28	2125.79
825.45	2181.09
825.63	2207.71
825.80	2031.58
825.97	2183.13
826.14	2158.56
826.31	2043.87
826.48	2254.81
826.66	2146.27
826.83	2131.94
827.00	2136.03
827.17	2074.59
827.34	2125.79
827.51	2129.89
827.69	2168.80
827.86	2023.39
828.03	2166.75
828.20	2072.54
828.37	2086.88
828.54	2299.87
828.71	2119.65
828.89	2273.25
829.06	2220.00
829.23	2355.16
829.40	2086.88
829.57	2119.65
829.74	2273.25
829.91	2142.18
830.09	2095.07
830.26	2256.86
830.43	2318.30
830.60	2172.89
830.77	2203.61
830.94	2310.11
831.11	2220.00
831.28	2162.66
831.46	2281.44
831.63	2111.46
831.80	2248.67
831.97	2076.64
832.14	2121.70
832.31	2199.52
832.48	2260.96
832.65	2312.16
832.82	2160.61
832.99	2273.25
833.17	2090.98
833.34	2318.30
833.51	2199.52
833.68	2056.16
833.85	2285.53
834.02	2117.60
834.19	2103.26
834.36	2158.56
834.53	2213.85
834.70	2369.50
834.87	2187.23
835.04	2088.93
835.22	2076.64
835.39	2158.56
835.56	2084.83
835.73	2183.13
835.90	2252.77
836.07	2076.64
836.24	2277.34
836.41	2052.06
836.58	2072.54
836.75	2326.49
836.92	2244.57
837.09	2138.08
837.26	2306.01
837.43	2185.18
837.60	2209.76
837.77	2162.66
837.94	2303.96
838.12	2346.97
838.29	2117.60
838.46	2056.16
838.63	2095.07
838.80	2269.15
838.97	2240.48
839.14	2144.22
839.31	2269.15
839.48	2252.77
839.65	2144.22
839.82	2285.53
839.99	2267.10
840.16	2146.27
840.33	2097.12
840.50	2236.38
840.67	2105.31
840.84	1990.63
841.01	2185.18
841.18	2084.83
841.35	2160.61
841.52	2269.15
841.69	2334.68
841.86	2228.19
842.03	2230.24
842.20	2295.77
842.37	2080.74
842.54	2146.27
842.71	2136.03
842.88	2056.16
843.05	2199.52
843.22	2123.74
843.39	2254.81
843.56	2090.98
843.73	2156.51
843.90	2121.70
844.07	2179.04
844.24	2209.76
844.41	2185.18
844.58	2195.42
844.75	2248.67
844.92	2191.33
845.09	2244.57
845.26	2105.31
845.43	2220.00
845.60	2154.46
845.77	2209.76
845.94	2176.99
846.10	2301.92
846.27	2088.93
846.44	2050.02
846.61	2078.69
846.78	2213.85
846.95	2293.72
847.12	2138.08
847.29	2193.37
847.46	2095.07
847.63	2252.77
847.80	2062.30
847.97	2154.46
848.14	2398.17
848.31	2199.52
848.48	2086.88
848.65	2158.56
848.82	2174.94
848.98	2437.08
849.15	2168.80
849.32	2295.77
849.49	2234.33
849.66	2174.94
849.83	2160.61
850.00	2111.46
850.17	2269.15
850.34	2144.22
850.51	2074.59
850.68	2119.65
850.85	2389.98
851.01	2127.84
851.18	2140.13
851.35	2152.42
851.52	2195.42
851.69	2256.86
851.86	1988.58
852.03	2119.65
852.20	2301.92
852.37	2150.37
852.53	2011.11
852.70	2107.36
852.87	2179.04
853.04	2189.28
853.21	2217.95
853.38	2179.04
853.55	2314.20
853.72	2273.25
853.89	2095.07
854.05	2168.80
854.22	2162.66
854.39	2232.29
854.56	2076.64
854.73	2250.72
854.90	2113.50
855.07	2185.18
855.23	2131.94
855.40	2101.22
855.57	2189.28
855.74	2023.39
855.91	2363.36
856.08	2080.74
856.25	2103.26
856.41	2138.08
856.58	2084.83
856.75	2187.23
856.92	2064.35
857.09	2230.24
857.26	2088.93
857.42	2166.75
857.59	2285.53
857.76	2195.42
857.93	2193.37
858.10	2093.02
858.27	2129.89
858.43	2244.57
858.60	2136.03
858.77	2052.06
858.94	2117.60
859.11	2277.34
859.27	2103.26
859.44	2146.27
859.61	2392.03
859.78	2258.91
859.95	2138.08
860.12	2127.84
860.28	2406.36
860.45	2392.03
860.62	2150.37
860.79	2181.09
860.95	2150.37
861.12	2142.18
861.29	2070.50
861.46	2043.87
861.63	2211.81
861.79	2123.74
861.96	2093.02
862.13	2109.41
862.30	2359.26
862.47	2099.17
862.63	2099.17
862.80	2226.14
862.97	2283.49
863.14	2269.15
863.30	2129.89
863.47	2072.54
863.64	2357.21
863.81	2289.63
863.97	2121.70
864.14	2172.89
864.31	2195.42
864.48	2211.81
864.65	2179.04
864.81	2275.29
864.98	2320.35
865.15	2191.33
865.32	2211.81
865.48	2220.00
865.65	2324.44
865.82	2185.18
865.98	2244.57
866.15	2252.77
866.32	2232.29
866.49	2168.80
866.65	2228.19
866.82	2072.54
866.99	2203.61
867.16	2193.37
867.32	2047.97
867.49	2050.02
867.66	2209.76
867.83	2133.98
867.99	2027.49
868.16	2162.66
868.33	2080.74
868.49	2144.22
868.66	2101.22
868.83	2205.66
868.99	2201.57
869.16	2172.89
869.33	2195.42
869.50	2236.38
869.66	2207.71
869.83	2164.70
870.00	2064.35
870.16	2207.71
870.33	2195.42
870.50	2228.19
870.66	2248.67
870.83	2291.68
871.00	2207.71
871.17	2236.38
871.33	2154.46
871.50	2158.56
871.67	2195.42
871.83	2062.30
872.00	2236.38
872.17	2144.22
872.33	2326.49
872.50	2224.09
872.67	2133.98
872.83	2125.79
873.00	2193.37
873.17	2199.52
873.33	2183.13
873.50	2195.42
873.67	2140.13
873.83	2093.02
874.00	2088.93
874.16	2193.37
874.33	2174.94
874.50	2080.74
874.66	2211.81
874.83	2168.80
875.00	2330.59
875.16	2338.78
875.33	2273.25
875.50	2025.44
875.66	2150.37
875.83	2260.96
875.99	2226.14
876.16	2160.61
876.33	2154.46
876.49	2166.75
876.66	2144.22
876.83	2115.55
876.99	2088.93
877.16	2152.42
877.32	2179.04
877.49	2129.89
877.66	2283.49
877.82	2289.63
877.99	2142.18
878.15	2263.01
878.32	2220.00
878.49	2142.18
878.65	2162.66
878.82	2285.53
878.98	2047.97
879.15	2242.53
879.32	2185.18
879.48	2183.13
879.65	2109.41
879.81	2172.89
879.98	2109.41
880.15	2142.18
880.31	2217.95
880.48	2099.17
880.64	2256.86
880.81	2160.61
880.97	2375.64
881.14	2301.92
881.31	2113.50
881.47	2306.01
881.64	2136.03
881.80	2027.49
881.97	2207.71
882.13	2138.08
882.30	2097.12
882.47	2166.75
882.63	2138.08
882.80	2080.74
882.96	2148.32
883.13	2228.19
883.29	2174.94
883.46	2170.85
883.62	2322.40
883.79	2152.42
883.95	2193.37
884.12	2232.29
884.29	2215.90
884.45	2156.51
884.62	2244.57
884.78	2136.03
884.95	2293.72
885.11	2109.41
885.28	2299.87
885.44	2133.98
885.61	2279.39
885.77	2308.06
885.94	2113.50
886.10	2203.61
886.27	2220.00
886.43	2398.17
886.60	2297.82
886.76	2115.55
886.93	2138.08
887.09	2217.95
887.26	2013.15
887.42	2174.94
887.59	2293.72
887.75	2340.83
887.92	2195.42
888.08	2281.44
888.25	2410.46
888.41	2256.86
888.58	2121.70
888.74	2054.11
888.91	2199.52
>>>>>End Processed Spectral Data<<<<<
