SpectraSuite Data File
++++++++++++++++++++++++++++++++++++
Date: Thu May 05 12:35:03 CEST 2016
User: root
Dark Spectrum Present: No
Reference Spectrum Present: No
Number of Sampled Component Spectra: 1
Spectrometers: USB4C02835
Integration Time (usec): 100000 (USB4C02835)
Spectra Averaged: 1 (USB4C02835)
Boxcar Smoothing: 0 (USB4C02835)
Correct for Electrical Dark: No (USB4C02835)
Strobe/Lamp Enabled: No (USB4C02835)
Correct for Detector Non-linearity: No (USB4C02835)
Correct for Stray Light: No (USB4C02835)
Number of Pixels in Processed Spectrum: 3648
>>>>>Begin Processed Spectral Data<<<<<
177.47	1736.68
177.69	1736.68
177.91	1736.68
178.13	1767.40
178.36	1773.54
178.58	2056.16
178.80	2211.81
179.02	2019.30
179.24	2105.31
179.46	2142.18
179.68	2179.04
179.90	2211.81
180.13	2224.09
180.35	2066.40
180.57	2054.11
180.79	2226.14
181.01	2209.76
181.23	2236.38
181.45	2256.86
181.67	2230.24
181.90	2254.81
182.12	2179.04
182.34	2045.92
182.56	2269.15
182.78	2205.66
183.00	2168.80
183.22	2127.84
183.44	2047.97
183.66	2381.79
183.89	2197.47
184.11	2158.56
184.33	2258.91
184.55	2340.83
184.77	2119.65
184.99	2179.04
185.21	2193.37
185.43	2398.17
185.65	2105.31
185.87	2123.74
186.10	2375.64
186.32	2430.94
186.54	2140.13
186.76	2195.42
186.98	2283.49
187.20	2142.18
187.42	2144.22
187.64	2125.79
187.86	2242.53
188.08	2314.20
188.30	2099.17
188.52	2133.98
188.75	2256.86
188.97	2334.68
189.19	2084.83
189.41	2060.26
189.63	2183.13
189.85	2228.19
190.07	2060.26
190.29	1984.48
190.51	2170.85
190.73	2113.50
190.95	2191.33
191.17	2144.22
191.39	2064.35
191.61	2176.99
191.84	2064.35
192.06	2152.42
192.28	2050.02
192.50	2465.75
192.72	2265.05
192.94	2119.65
193.16	2306.01
193.38	2217.95
193.60	2148.32
193.82	2146.27
194.04	2338.78
194.26	2197.47
194.48	2172.89
194.70	2127.84
194.92	2101.22
195.14	2263.01
195.36	2068.45
195.58	2217.95
195.80	2166.75
196.02	2154.46
196.24	2105.31
196.46	2162.66
196.69	2220.00
196.91	2521.05
197.13	2060.26
197.35	2084.83
197.57	2418.65
197.79	2277.34
198.01	2080.74
198.23	2133.98
198.45	2220.00
198.67	2082.78
198.89	2064.35
199.11	2230.24
199.33	2244.57
199.55	2015.20
199.77	2146.27
199.99	2271.20
200.21	2129.89
200.43	2258.91
200.65	2072.54
200.87	1994.72
201.09	2203.61
201.31	2187.23
201.53	2146.27
201.75	2187.23
201.97	2191.33
202.19	2174.94
202.41	2189.28
202.63	2308.06
202.85	2254.81
203.07	2248.67
203.29	2058.21
203.51	2050.02
203.73	2146.27
203.95	2496.47
204.17	2105.31
204.39	2185.18
204.61	2181.09
204.83	2187.23
205.05	2230.24
205.27	2101.22
205.49	2406.36
205.71	2129.89
205.93	2021.35
206.15	2064.35
206.37	2230.24
206.59	2170.85
206.81	2064.35
207.03	2088.93
207.25	2058.21
207.47	2242.53
207.69	2187.23
207.91	2217.95
208.13	2387.93
208.34	2148.32
208.56	2017.25
208.78	2095.07
209.00	2117.60
209.22	2078.69
209.44	2203.61
209.66	2099.17
209.88	2256.86
210.10	2129.89
210.32	2062.30
210.54	2166.75
210.76	2160.61
210.98	2293.72
211.20	2060.26
211.42	2217.95
211.64	2389.98
211.86	2230.24
212.08	2207.71
212.30	2176.99
212.52	2146.27
212.74	2252.77
212.96	2144.22
213.17	2220.00
213.39	2295.77
213.61	2299.87
213.83	2121.70
214.05	2144.22
214.27	2285.53
214.49	2105.31
214.71	2072.54
214.93	2160.61
215.15	2211.81
215.37	2252.77
215.59	1970.15
215.81	2166.75
216.03	2385.88
216.24	2209.76
216.46	2162.66
216.68	2150.37
216.90	2306.01
217.12	2291.68
217.34	2111.46
217.56	2176.99
217.78	2322.40
218.00	2236.38
218.22	2176.99
218.44	2148.32
218.66	2260.96
218.87	2322.40
219.09	2072.54
219.31	2152.42
219.53	2215.90
219.75	2140.13
219.97	2099.17
220.19	2146.27
220.41	2121.70
220.63	2326.49
220.85	2187.23
221.06	2152.42
221.28	2320.35
221.50	2222.05
221.72	2187.23
221.94	2138.08
222.16	2234.33
222.38	2338.78
222.60	2146.27
222.82	2129.89
223.03	2301.92
223.25	1990.63
223.47	2199.52
223.69	2236.38
223.91	2293.72
224.13	2203.61
224.35	2072.54
224.57	2224.09
224.78	2244.57
225.00	2047.97
225.22	2187.23
225.44	2117.60
225.66	2334.68
225.88	2205.66
226.10	2220.00
226.32	2129.89
226.53	2383.84
226.75	2127.84
226.97	2150.37
227.19	2117.60
227.41	2060.26
227.63	2070.50
227.85	1964.00
228.06	2121.70
228.28	2248.67
228.50	2312.16
228.72	2062.30
228.94	2209.76
229.16	2068.45
229.37	2121.70
229.59	2148.32
229.81	2234.33
230.03	2070.50
230.25	2076.64
230.47	2031.58
230.69	2064.35
230.90	2265.05
231.12	2066.40
231.34	2195.42
231.56	2199.52
231.78	2078.69
232.00	2166.75
232.21	2115.55
232.43	2066.40
232.65	1955.81
232.87	2258.91
233.09	2045.92
233.30	2035.68
233.52	2303.96
233.74	2170.85
233.96	2185.18
234.18	2287.58
234.40	2162.66
234.61	2422.75
234.83	2095.07
235.05	2031.58
235.27	2424.80
235.49	2338.78
235.70	2142.18
235.92	2256.86
236.14	2283.49
236.36	2463.71
236.58	2015.20
236.79	2072.54
237.01	2095.07
237.23	2152.42
237.45	2234.33
237.67	2154.46
237.88	2187.23
238.10	2418.65
238.32	2074.59
238.54	2158.56
238.76	2201.57
238.97	2107.36
239.19	2127.84
239.41	2265.05
239.63	2293.72
239.85	2101.22
240.06	2156.51
240.28	2152.42
240.50	2238.43
240.72	2205.66
240.93	2101.22
241.15	2199.52
241.37	2185.18
241.59	2383.84
241.81	2121.70
242.02	2099.17
242.24	2244.57
242.46	2275.29
242.68	2088.93
242.89	2136.03
243.11	2318.30
243.33	2162.66
243.55	2185.18
243.76	2150.37
243.98	2162.66
244.20	2205.66
244.42	2152.42
244.64	2113.50
244.85	2097.12
245.07	2066.40
245.29	2215.90
245.51	2133.98
245.72	2220.00
245.94	2301.92
246.16	2125.79
246.38	2181.09
246.59	2111.46
246.81	2160.61
247.03	2023.39
247.24	2019.30
247.46	2095.07
247.68	2224.09
247.90	2090.98
248.11	2162.66
248.33	2320.35
248.55	2236.38
248.77	2176.99
248.98	2193.37
249.20	2367.45
249.42	2199.52
249.64	2217.95
249.85	2119.65
250.07	2047.97
250.29	2269.15
250.50	2205.66
250.72	2002.91
250.94	2185.18
251.16	2349.02
251.37	2179.04
251.59	2269.15
251.81	2299.87
252.02	2377.69
252.24	2086.88
252.46	2174.94
252.68	2156.51
252.89	2099.17
253.11	2031.58
253.33	2224.09
253.54	2260.96
253.76	2080.74
253.98	2103.26
254.20	2138.08
254.41	2054.11
254.63	2148.32
254.85	2052.06
255.06	2103.26
255.28	2242.53
255.50	2174.94
255.71	2105.31
255.93	1978.34
256.15	2179.04
256.36	2220.00
256.58	2031.58
256.80	2220.00
257.02	2146.27
257.23	2162.66
257.45	2133.98
257.67	2203.61
257.88	2183.13
258.10	2256.86
258.32	2131.94
258.53	2193.37
258.75	2340.83
258.97	2133.98
259.18	2074.59
259.40	2199.52
259.62	2385.88
259.83	2373.60
260.05	2203.61
260.27	2564.06
260.48	2291.68
260.70	2144.22
260.92	2072.54
261.13	2129.89
261.35	2187.23
261.57	2260.96
261.78	2066.40
262.00	2080.74
262.22	2228.19
262.43	2031.58
262.65	2138.08
262.86	2156.51
263.08	2383.84
263.30	2205.66
263.51	1996.77
263.73	2119.65
263.95	2340.83
264.16	2162.66
264.38	2023.39
264.60	2125.79
264.81	2199.52
265.03	2297.82
265.25	2236.38
265.46	2084.83
265.68	2244.57
265.89	2260.96
266.11	2029.54
266.33	2113.50
266.54	2250.72
266.76	2185.18
266.98	2224.09
267.19	2236.38
267.41	2336.73
267.62	2215.90
267.84	2136.03
268.06	2334.68
268.27	2232.29
268.49	2334.68
268.70	2095.07
268.92	2099.17
269.14	2138.08
269.35	2062.30
269.57	2133.98
269.79	2179.04
270.00	2033.63
270.22	2324.44
270.43	2097.12
270.65	2023.39
270.87	2246.62
271.08	2250.72
271.30	2228.19
271.51	2125.79
271.73	2351.07
271.95	2371.55
272.16	2113.50
272.38	2109.41
272.59	2129.89
272.81	2265.05
273.02	2199.52
273.24	2234.33
273.46	2260.96
273.67	2131.94
273.89	1974.24
274.10	2070.50
274.32	2310.11
274.54	2205.66
274.75	2166.75
274.97	2187.23
275.18	2373.60
275.40	2283.49
275.61	2150.37
275.83	2121.70
276.05	2088.93
276.26	2195.42
276.48	2199.52
276.69	2148.32
276.91	2170.85
277.12	2285.53
277.34	2244.57
277.55	2269.15
277.77	2246.62
277.99	2170.85
278.20	2062.30
278.42	2031.58
278.63	2131.94
278.85	2088.93
279.06	2076.64
279.28	2217.95
279.49	2306.01
279.71	2318.30
279.93	2244.57
280.14	2176.99
280.36	2158.56
280.57	2285.53
280.79	2220.00
281.00	2109.41
281.22	2226.14
281.43	2361.31
281.65	2031.58
281.86	2052.06
282.08	2199.52
282.29	2387.93
282.51	2023.39
282.73	2093.02
282.94	2144.22
283.16	2316.25
283.37	2306.01
283.59	2183.13
283.80	2179.04
284.02	2138.08
284.23	2234.33
284.45	2129.89
284.66	2052.06
284.88	2070.50
285.09	2209.76
285.31	2263.01
285.52	2297.82
285.74	2050.02
285.95	2244.57
286.17	2195.42
286.38	2293.72
286.60	2113.50
286.81	2105.31
287.03	2179.04
287.24	2164.70
287.46	2150.37
287.67	2207.71
287.89	2353.12
288.10	2195.42
288.32	2191.33
288.53	2340.83
288.75	2156.51
288.96	2275.29
289.18	2172.89
289.39	2185.18
289.61	2240.48
289.82	2326.49
290.04	2359.26
290.25	2039.78
290.47	2168.80
290.68	2201.57
290.90	2263.01
291.11	2052.06
291.33	2191.33
291.54	2101.22
291.76	2078.69
291.97	2215.90
292.18	2199.52
292.40	2236.38
292.61	2111.46
292.83	2381.79
293.04	2176.99
293.26	2254.81
293.47	2101.22
293.69	2111.46
293.90	2228.19
294.12	2357.21
294.33	2176.99
294.55	2131.94
294.76	2322.40
294.97	2293.72
295.19	2418.65
295.40	2176.99
295.62	2152.42
295.83	2252.77
296.05	2099.17
296.26	2351.07
296.48	2129.89
296.69	2166.75
296.90	2195.42
297.12	2181.09
297.33	2279.39
297.55	2217.95
297.76	2295.77
297.98	2342.88
298.19	2185.18
298.41	2179.04
298.62	2156.51
298.83	2293.72
299.05	2158.56
299.26	2174.94
299.48	2113.50
299.69	2185.18
299.90	2193.37
300.12	2133.98
300.33	2265.05
300.55	2191.33
300.76	2244.57
300.98	2195.42
301.19	2252.77
301.40	2131.94
301.62	2228.19
301.83	2172.89
302.05	2230.24
302.26	2201.57
302.47	2154.46
302.69	2097.12
302.90	2146.27
303.12	1988.58
303.33	2322.40
303.54	2353.12
303.76	2183.13
303.97	2189.28
304.19	2344.92
304.40	2052.06
304.61	2252.77
304.83	2256.86
305.04	2279.39
305.26	2205.66
305.47	2220.00
305.68	2150.37
305.90	2068.45
306.11	2271.20
306.33	2109.41
306.54	2068.45
306.75	2136.03
306.97	2086.88
307.18	2109.41
307.39	2099.17
307.61	2220.00
307.82	2226.14
308.04	2232.29
308.25	2072.54
308.46	2172.89
308.68	2228.19
308.89	2217.95
309.10	2297.82
309.32	2187.23
309.53	2191.33
309.74	2254.81
309.96	2201.57
310.17	2306.01
310.39	2039.78
310.60	2287.58
310.81	2113.50
311.03	2086.88
311.24	2283.49
311.45	2146.27
311.67	2355.16
311.88	2213.85
312.09	2152.42
312.31	2105.31
312.52	2144.22
312.73	2119.65
312.95	2088.93
313.16	2117.60
313.37	2240.48
313.59	2275.29
313.80	2220.00
314.01	2414.56
314.23	2050.02
314.44	2103.26
314.65	2058.21
314.87	2078.69
315.08	2127.84
315.29	2146.27
315.51	2109.41
315.72	2045.92
315.93	2263.01
316.15	2224.09
316.36	2179.04
316.57	2236.38
316.79	2138.08
317.00	2250.72
317.21	2220.00
317.43	2115.55
317.64	2195.42
317.85	2119.65
318.07	2086.88
318.28	2154.46
318.49	2389.98
318.70	2519.00
318.92	2408.41
319.13	2432.99
319.34	2420.70
319.56	2308.06
319.77	2387.93
319.98	2308.06
320.20	2326.49
320.41	2310.11
320.62	2293.72
320.83	2093.02
321.05	2306.01
321.26	2185.18
321.47	2152.42
321.69	2342.88
321.90	2095.07
322.11	2113.50
322.32	2211.81
322.54	2285.53
322.75	2187.23
322.96	2412.51
323.18	2050.02
323.39	2074.59
323.60	2152.42
323.81	2234.33
324.03	2185.18
324.24	2246.62
324.45	2142.18
324.66	2244.57
324.88	2318.30
325.09	2314.20
325.30	2197.47
325.52	2162.66
325.73	2195.42
325.94	2133.98
326.15	2086.88
326.37	2097.12
326.58	2248.67
326.79	2332.64
327.00	2109.41
327.22	2187.23
327.43	2176.99
327.64	2160.61
327.85	2217.95
328.07	2179.04
328.28	2387.93
328.49	2220.00
328.70	2146.27
328.92	2123.74
329.13	2174.94
329.34	2209.76
329.55	2346.97
329.76	2308.06
329.98	2136.03
330.19	2326.49
330.40	2269.15
330.61	2222.05
330.83	2328.54
331.04	2113.50
331.25	2207.71
331.46	2174.94
331.68	2113.50
331.89	2248.67
332.10	2125.79
332.31	2121.70
332.52	2236.38
332.74	2252.77
332.95	2060.26
333.16	2191.33
333.37	2301.92
333.58	2095.07
333.80	2131.94
334.01	2109.41
334.22	2150.37
334.43	2160.61
334.64	2170.85
334.86	2072.54
335.07	2095.07
335.28	2308.06
335.49	2111.46
335.70	2226.14
335.92	2389.98
336.13	2488.28
336.34	2193.37
336.55	2164.70
336.76	2236.38
336.98	2064.35
337.19	2172.89
337.40	2277.34
337.61	2439.13
337.82	2265.05
338.04	2263.01
338.25	2084.83
338.46	2246.62
338.67	2176.99
338.88	2107.36
339.09	2142.18
339.31	2197.47
339.52	2123.74
339.73	2066.40
339.94	2240.48
340.15	2299.87
340.36	2148.32
340.58	2234.33
340.79	2086.88
341.00	2248.67
341.21	2140.13
341.42	2332.64
341.63	2224.09
341.85	2236.38
342.06	2234.33
342.27	2154.46
342.48	2183.13
342.69	2039.78
342.90	2269.15
343.12	2326.49
343.33	2058.21
343.54	2258.91
343.75	2275.29
343.96	2222.05
344.17	2133.98
344.38	2170.85
344.60	1998.82
344.81	2138.08
345.02	2207.71
345.23	2201.57
345.44	2432.99
345.65	2160.61
345.86	2158.56
346.07	2154.46
346.29	2136.03
346.50	2162.66
346.71	2248.67
346.92	2351.07
347.13	2414.56
347.34	2101.22
347.55	2140.13
347.76	2201.57
347.98	2107.36
348.19	2117.60
348.40	2195.42
348.61	2183.13
348.82	2375.64
349.03	2242.53
349.24	2056.16
349.45	2437.08
349.66	1986.53
349.88	2211.81
350.09	2136.03
350.30	2359.26
350.51	2260.96
350.72	2252.77
350.93	2217.95
351.14	2195.42
351.35	2170.85
351.56	2211.81
351.77	2191.33
351.99	2228.19
352.20	2303.96
352.41	2248.67
352.62	2090.98
352.83	2170.85
353.04	2197.47
353.25	2080.74
353.46	2230.24
353.67	2357.21
353.88	2023.39
354.09	2146.27
354.30	2215.90
354.52	2287.58
354.73	2201.57
354.94	2197.47
355.15	2162.66
355.36	2351.07
355.57	2146.27
355.78	2195.42
355.99	2170.85
356.20	2193.37
356.41	2285.53
356.62	2250.72
356.83	2127.84
357.04	2367.45
357.25	2043.87
357.46	2179.04
357.68	2052.06
357.89	2113.50
358.10	2195.42
358.31	2111.46
358.52	2138.08
358.73	2129.89
358.94	2144.22
359.15	2195.42
359.36	2275.29
359.57	2146.27
359.78	2164.70
359.99	2234.33
360.20	2039.78
360.41	2234.33
360.62	2228.19
360.83	2121.70
361.04	2201.57
361.25	2191.33
361.46	2383.84
361.67	2316.25
361.88	2226.14
362.09	2285.53
362.30	2263.01
362.51	2170.85
362.72	2248.67
362.93	2260.96
363.14	2256.86
363.35	2162.66
363.56	2111.46
363.78	2332.64
363.99	2281.44
364.20	2113.50
364.41	2295.77
364.62	2342.88
364.83	2260.96
365.04	2136.03
365.25	2183.13
365.46	2336.73
365.67	2152.42
365.88	2236.38
366.09	2109.41
366.30	2152.42
366.51	2258.91
366.72	2047.97
366.93	2150.37
367.14	2195.42
367.35	2379.74
367.56	2230.24
367.77	2244.57
367.98	2133.98
368.18	2195.42
368.39	2242.53
368.60	2140.13
368.81	2201.57
369.02	2174.94
369.23	2152.42
369.44	2039.78
369.65	2176.99
369.86	2238.43
370.07	2232.29
370.28	2068.45
370.49	2279.39
370.70	2234.33
370.91	2146.27
371.12	2054.11
371.33	2340.83
371.54	2205.66
371.75	2228.19
371.96	2029.54
372.17	2240.48
372.38	2213.85
372.59	2271.20
372.80	2140.13
373.01	2152.42
373.22	2263.01
373.43	2226.14
373.64	2068.45
373.85	2330.59
374.06	2330.59
374.26	2310.11
374.47	2203.61
374.68	2271.20
374.89	2244.57
375.10	2129.89
375.31	2269.15
375.52	2236.38
375.73	2174.94
375.94	2050.02
376.15	2295.77
376.36	2105.31
376.57	2168.80
376.78	2232.29
376.99	2154.46
377.20	2310.11
377.40	2121.70
377.61	2318.30
377.82	2097.12
378.03	2349.02
378.24	2314.20
378.45	2179.04
378.66	2217.95
378.87	2078.69
379.08	2062.30
379.29	2133.98
379.50	2197.47
379.71	2140.13
379.91	2215.90
380.12	2220.00
380.33	2133.98
380.54	2176.99
380.75	2170.85
380.96	2168.80
381.17	2287.58
381.38	2236.38
381.59	2267.10
381.80	2183.13
382.00	2381.79
382.21	2277.34
382.42	2389.98
382.63	2437.08
382.84	2191.33
383.05	2314.20
383.26	2402.27
383.47	2211.81
383.68	2279.39
383.88	2281.44
384.09	2222.05
384.30	2252.77
384.51	2193.37
384.72	2207.71
384.93	2103.26
385.14	2166.75
385.35	2330.59
385.55	2015.20
385.76	2254.81
385.97	2168.80
386.18	2029.54
386.39	2142.18
386.60	2187.23
386.81	2172.89
387.02	2088.93
387.22	2105.31
387.43	2351.07
387.64	2263.01
387.85	2342.88
388.06	2455.51
388.27	4186.05
388.48	8599.42
388.68	12406.59
388.89	14819.10
389.10	15834.89
389.31	14714.66
389.52	11427.67
389.73	10098.53
389.93	8912.76
390.14	8163.20
390.35	7446.41
390.56	6674.33
390.77	5322.67
390.98	4218.82
391.18	3358.67
391.39	2725.85
391.60	2404.32
391.81	2363.36
392.02	2240.48
392.23	2363.36
392.43	2295.77
392.64	2408.41
392.85	2113.50
393.06	2318.30
393.27	2234.33
393.47	2164.70
393.68	2230.24
393.89	2152.42
394.10	2441.18
394.31	2193.37
394.52	2142.18
394.72	2111.46
394.93	2416.60
395.14	2154.46
395.35	2226.14
395.56	2095.07
395.76	2207.71
395.97	2162.66
396.18	2258.91
396.39	2381.79
396.60	2746.33
396.80	2496.47
397.01	2320.35
397.22	2387.93
397.43	2322.40
397.64	2224.09
397.84	2336.73
398.05	2428.89
398.26	2252.77
398.47	2344.92
398.67	2301.92
398.88	2174.94
399.09	2346.97
399.30	2095.07
399.51	2217.95
399.71	2095.07
399.92	2244.57
400.13	2154.46
400.34	2125.79
400.54	2250.72
400.75	2299.87
400.96	2248.67
401.17	2381.79
401.37	2234.33
401.58	2265.05
401.79	2189.28
402.00	2314.20
402.21	2545.63
402.41	2613.21
402.62	2537.43
402.83	2643.93
403.04	2641.88
403.24	2750.42
403.45	2361.31
403.66	2412.51
403.87	2455.51
404.07	2449.37
404.28	2467.80
404.49	2439.13
404.70	2263.01
404.90	2277.34
405.11	2176.99
405.32	2248.67
405.52	2226.14
405.73	2150.37
405.94	2070.50
406.15	2125.79
406.35	2228.19
406.56	2281.44
406.77	2244.57
406.98	2187.23
407.18	2111.46
407.39	2340.83
407.60	2156.51
407.80	2176.99
408.01	2207.71
408.22	2189.28
408.43	2138.08
408.63	2230.24
408.84	2318.30
409.05	2330.59
409.25	2152.42
409.46	2113.50
409.67	2152.42
409.88	2158.56
410.08	2217.95
410.29	2146.27
410.50	2238.43
410.70	2203.61
410.91	2113.50
411.12	2166.75
411.32	2121.70
411.53	2162.66
411.74	2291.68
411.95	2301.92
412.15	2318.30
412.36	2377.69
412.57	2293.72
412.77	2342.88
412.98	2209.76
413.19	2199.52
413.39	2260.96
413.60	2320.35
413.81	2320.35
414.01	2144.22
414.22	2238.43
414.43	2265.05
414.63	2316.25
414.84	2297.82
415.05	2179.04
415.25	2064.35
415.46	2254.81
415.67	2105.31
415.87	2199.52
416.08	2170.85
416.29	2113.50
416.49	2260.96
416.70	2189.28
416.91	2088.93
417.11	2168.80
417.32	2267.10
417.53	2244.57
417.73	2246.62
417.94	2199.52
418.15	2228.19
418.35	2193.37
418.56	2234.33
418.77	2402.27
418.97	2160.61
419.18	2150.37
419.38	2064.35
419.59	2185.18
419.80	2287.58
420.00	2164.70
420.21	2189.28
420.42	2265.05
420.62	2240.48
420.83	2043.87
421.04	2215.90
421.24	2224.09
421.45	2252.77
421.65	2185.18
421.86	2131.94
422.07	2349.02
422.27	2230.24
422.48	2220.00
422.69	2082.78
422.89	2119.65
423.10	2230.24
423.30	2093.02
423.51	2160.61
423.72	2201.57
423.92	2250.72
424.13	2109.41
424.33	2258.91
424.54	2277.34
424.75	2252.77
424.95	2342.88
425.16	2275.29
425.36	2127.84
425.57	2285.53
425.78	2310.11
425.98	2211.81
426.19	2183.13
426.39	2064.35
426.60	2187.23
426.81	2267.10
427.01	2209.76
427.22	2082.78
427.42	2033.63
427.63	2062.30
427.83	2299.87
428.04	2346.97
428.25	2279.39
428.45	2299.87
428.66	2400.22
428.86	2131.94
429.07	2176.99
429.28	2203.61
429.48	2209.76
429.69	2109.41
429.89	2242.53
430.10	2056.16
430.30	2256.86
430.51	2332.64
430.71	2195.42
430.92	2162.66
431.13	2179.04
431.33	2275.29
431.54	2234.33
431.74	2318.30
431.95	2432.99
432.15	2131.94
432.36	2170.85
432.56	2215.90
432.77	2332.64
432.98	2289.63
433.18	2236.38
433.39	2170.85
433.59	2201.57
433.80	2322.40
434.00	2383.84
434.21	2207.71
434.41	2078.69
434.62	2392.03
434.82	2125.79
435.03	2062.30
435.23	2146.27
435.44	2111.46
435.64	2230.24
435.85	2220.00
436.06	2209.76
436.26	2277.34
436.47	2193.37
436.67	2207.71
436.88	2187.23
437.08	2279.39
437.29	2346.97
437.49	2170.85
437.70	2359.26
437.90	2209.76
438.11	2398.17
438.31	2336.73
438.52	2371.55
438.72	2338.78
438.93	2512.86
439.13	2334.68
439.34	2367.45
439.54	2211.81
439.75	2326.49
439.95	2236.38
440.16	2111.46
440.36	2275.29
440.57	2293.72
440.77	2248.67
440.98	2195.42
441.18	2224.09
441.39	2162.66
441.59	2074.59
441.80	2369.50
442.00	2191.33
442.21	2359.26
442.41	2115.55
442.62	2263.01
442.82	2103.26
443.02	2179.04
443.23	2205.66
443.43	2215.90
443.64	2396.12
443.84	2146.27
444.05	2402.27
444.25	2244.57
444.46	2277.34
444.66	2236.38
444.87	2375.64
445.07	2058.21
445.28	2199.52
445.48	2232.29
445.69	2275.29
445.89	2471.90
446.09	2326.49
446.30	2473.95
446.50	2801.62
446.71	4396.99
446.91	5679.02
447.12	6434.72
447.32	6680.47
447.53	6324.13
447.73	5142.45
447.93	4577.21
448.14	4200.38
448.34	3995.59
448.55	3502.03
448.75	3583.95
448.96	3426.25
449.16	2957.27
449.36	2768.85
449.57	2527.19
449.77	2351.07
449.98	2240.48
450.18	2273.25
450.39	2301.92
450.59	2265.05
450.79	2158.56
451.00	2131.94
451.20	2248.67
451.41	2152.42
451.61	2256.86
451.81	2228.19
452.02	2170.85
452.22	2164.70
452.43	2123.74
452.63	2207.71
452.84	2252.77
453.04	2170.85
453.24	2252.77
453.45	2185.18
453.65	2220.00
453.86	2209.76
454.06	2267.10
454.26	2199.52
454.47	1996.77
454.67	2320.35
454.87	2314.20
455.08	2232.29
455.28	2373.60
455.49	2234.33
455.69	2170.85
455.89	2445.27
456.10	2357.21
456.30	2156.51
456.51	2275.29
456.71	2203.61
456.91	2201.57
457.12	2234.33
457.32	2162.66
457.52	2164.70
457.73	2222.05
457.93	2228.19
458.14	2109.41
458.34	2101.22
458.54	2260.96
458.75	2258.91
458.95	2310.11
459.15	2246.62
459.36	2246.62
459.56	2244.57
459.76	2324.44
459.97	2238.43
460.17	2185.18
460.37	2297.82
460.58	2236.38
460.78	2320.35
460.99	2209.76
461.19	2138.08
461.39	2129.89
461.60	2222.05
461.80	2267.10
462.00	2115.55
462.21	2226.14
462.41	2103.26
462.61	2113.50
462.82	2105.31
463.02	2203.61
463.22	2279.39
463.43	2330.59
463.63	2203.61
463.83	2281.44
464.04	2277.34
464.24	2179.04
464.44	2129.89
464.64	2193.37
464.85	2285.53
465.05	2273.25
465.25	2226.14
465.46	2199.52
465.66	2238.43
465.86	2263.01
466.07	2275.29
466.27	2185.18
466.47	2080.74
466.68	2039.78
466.88	2334.68
467.08	2308.06
467.29	2328.54
467.49	2234.33
467.69	2187.23
467.89	2226.14
468.10	2195.42
468.30	2269.15
468.50	2322.40
468.71	2291.68
468.91	2125.79
469.11	2351.07
469.31	2277.34
469.52	2101.22
469.72	2377.69
469.92	2336.73
470.13	2146.27
470.33	2203.61
470.53	2244.57
470.73	2553.82
470.94	3000.27
471.14	3334.09
471.34	3655.62
471.54	3504.07
471.75	3059.67
471.95	2955.22
472.15	2770.90
472.36	2793.43
472.56	2723.80
472.76	2742.23
472.96	2695.13
473.17	2445.27
473.37	2422.75
473.57	2369.50
473.77	2254.81
473.98	2189.28
474.18	2084.83
474.38	2516.95
474.58	2035.68
474.79	2183.13
474.99	2299.87
475.19	2252.77
475.39	2189.28
475.60	2269.15
475.80	2086.88
476.00	2168.80
476.20	2084.83
476.41	2195.42
476.61	2220.00
476.81	2336.73
477.01	2154.46
477.21	2375.64
477.42	2318.30
477.62	2101.22
477.82	2250.72
478.02	2138.08
478.23	2181.09
478.43	2121.70
478.63	2152.42
478.83	2201.57
479.03	2252.77
479.24	2422.75
479.44	2412.51
479.64	2179.04
479.84	2056.16
480.04	2093.02
480.25	2297.82
480.45	2244.57
480.65	2164.70
480.85	2430.94
481.06	2125.79
481.26	2203.61
481.46	2220.00
481.66	2220.00
481.86	2150.37
482.06	2318.30
482.27	2228.19
482.47	2162.66
482.67	2197.47
482.87	2258.91
483.07	2334.68
483.28	2150.37
483.48	2062.30
483.68	2201.57
483.88	2056.16
484.08	2045.92
484.29	2111.46
484.49	2254.81
484.69	2095.07
484.89	2308.06
485.09	2418.65
485.29	2242.53
485.50	2240.48
485.70	2217.95
485.90	2340.83
486.10	2281.44
486.30	2217.95
486.50	2359.26
486.71	2207.71
486.91	2256.86
487.11	2338.78
487.31	2074.59
487.51	2242.53
487.71	2123.74
487.91	2072.54
488.12	2183.13
488.32	2052.06
488.52	2123.74
488.72	2064.35
488.92	2236.38
489.12	2349.02
489.32	2285.53
489.53	2248.67
489.73	2103.26
489.93	2310.11
490.13	2148.32
490.33	2084.83
490.53	2199.52
490.73	2297.82
490.94	1990.63
491.14	2277.34
491.34	2351.07
491.54	2457.56
491.74	3198.93
491.94	3790.79
492.14	4077.51
492.34	4202.43
492.54	3741.64
492.75	3305.42
492.95	3088.34
493.15	2998.23
493.35	2930.64
493.55	2875.35
493.75	2709.46
493.95	2725.85
494.15	2506.71
494.35	2373.60
494.56	2318.30
494.76	2181.09
494.96	2238.43
495.16	2273.25
495.36	2260.96
495.56	2310.11
495.76	2154.46
495.96	2209.76
496.16	2133.98
496.36	2432.99
496.56	2193.37
496.77	2260.96
496.97	2275.29
497.17	2316.25
497.37	2111.46
497.57	2224.09
497.77	2260.96
497.97	2136.03
498.17	2113.50
498.37	2189.28
498.57	2306.01
498.77	2144.22
498.97	2224.09
499.17	2340.83
499.38	2244.57
499.58	2252.77
499.78	2332.64
499.98	2267.10
500.18	2213.85
500.38	2181.09
500.58	2394.08
500.78	2865.11
500.98	5226.42
501.18	7356.30
501.38	8992.63
501.58	9951.08
501.78	9860.97
501.98	7921.54
502.18	6496.16
502.38	5431.21
502.58	5205.94
502.78	4747.19
502.98	4480.96
503.18	4313.02
503.38	3848.13
503.59	3422.16
503.79	3200.98
503.99	2938.84
504.19	2813.91
504.39	2848.72
504.59	2832.34
504.79	2844.63
504.99	2854.87
505.19	2519.00
505.39	2412.51
505.59	2693.08
505.79	2553.82
505.99	2443.23
506.19	2375.64
506.39	2478.04
506.59	2279.39
506.79	2217.95
506.99	2312.16
507.19	2179.04
507.39	2281.44
507.59	2150.37
507.79	2138.08
507.99	2250.72
508.19	2176.99
508.39	2183.13
508.59	2238.43
508.79	2402.27
508.99	2394.08
509.19	2205.66
509.39	2232.29
509.59	2170.85
509.79	2148.32
509.99	2224.09
510.19	2318.30
510.39	2322.40
510.59	2148.32
510.79	2121.70
510.99	2119.65
511.19	2205.66
511.39	2396.12
511.59	2346.97
511.79	2344.92
511.99	2271.20
512.19	2324.44
512.38	2172.89
512.58	2162.66
512.78	2179.04
512.98	2316.25
513.18	2344.92
513.38	2138.08
513.58	2234.33
513.78	2086.88
513.98	2232.29
514.18	2158.56
514.38	2125.79
514.58	2336.73
514.78	2222.05
514.98	2138.08
515.18	2232.29
515.38	2101.22
515.58	2400.22
515.78	2217.95
515.98	2248.67
516.18	2269.15
516.38	2176.99
516.57	2115.55
516.77	2176.99
516.97	2242.53
517.17	2097.12
517.37	2045.92
517.57	2203.61
517.77	2136.03
517.97	2224.09
518.17	2344.92
518.37	2138.08
518.57	2148.32
518.77	2207.71
518.97	2183.13
519.16	2301.92
519.36	2340.83
519.56	2232.29
519.76	2236.38
519.96	2236.38
520.16	2318.30
520.36	2115.55
520.56	2260.96
520.76	2107.36
520.96	2152.42
521.16	2351.07
521.35	2295.77
521.55	2340.83
521.75	2250.72
521.95	2181.09
522.15	2127.84
522.35	2062.30
522.55	2191.33
522.75	2238.43
522.95	2193.37
523.14	2127.84
523.34	2197.47
523.54	2127.84
523.74	2213.85
523.94	2172.89
524.14	2105.31
524.34	2232.29
524.54	2375.64
524.73	2111.46
524.93	2244.57
525.13	2205.66
525.33	2129.89
525.53	2369.50
525.73	2332.64
525.93	2189.28
526.13	2191.33
526.32	2146.27
526.52	2250.72
526.72	2193.37
526.92	2185.18
527.12	2201.57
527.32	2103.26
527.52	2281.44
527.71	2189.28
527.91	2287.58
528.11	2119.65
528.31	2222.05
528.51	2170.85
528.71	2162.66
528.90	2228.19
529.10	2281.44
529.30	2330.59
529.50	2015.20
529.70	2201.57
529.90	2156.51
530.09	2267.10
530.29	2078.69
530.49	2105.31
530.69	2416.60
530.89	2179.04
531.09	2318.30
531.28	2207.71
531.48	2310.11
531.68	2246.62
531.88	2238.43
532.08	2314.20
532.28	2187.23
532.47	2258.91
532.67	2273.25
532.87	2271.20
533.07	2146.27
533.27	2217.95
533.46	2248.67
533.66	2267.10
533.86	2224.09
534.06	2273.25
534.26	2277.34
534.45	2191.33
534.65	2410.46
534.85	2220.00
535.05	2078.69
535.25	2303.96
535.44	2093.02
535.64	2320.35
535.84	2199.52
536.04	2244.57
536.24	2209.76
536.43	2121.70
536.63	2185.18
536.83	2244.57
537.03	2179.04
537.22	2043.87
537.42	2068.45
537.62	2232.29
537.82	2160.61
538.02	2285.53
538.21	2267.10
538.41	2416.60
538.61	2263.01
538.81	2183.13
539.00	2306.01
539.20	2043.87
539.40	2142.18
539.60	2158.56
539.79	2340.83
539.99	2160.61
540.19	2111.46
540.39	2158.56
540.58	2215.90
540.78	2295.77
540.98	2224.09
541.18	2342.88
541.37	2254.81
541.57	2285.53
541.77	2301.92
541.97	2189.28
542.16	2127.84
542.36	2242.53
542.56	2144.22
542.76	2326.49
542.95	2279.39
543.15	2285.53
543.35	2230.24
543.54	2103.26
543.74	2164.70
543.94	2260.96
544.14	2199.52
544.33	2283.49
544.53	2152.42
544.73	2232.29
544.93	2197.47
545.12	2154.46
545.32	2281.44
545.52	2197.47
545.71	2119.65
545.91	2183.13
546.11	2148.32
546.30	2146.27
546.50	2199.52
546.70	2232.29
546.90	2334.68
547.09	1976.29
547.29	2252.77
547.49	2299.87
547.68	2234.33
547.88	2170.85
548.08	2314.20
548.27	2744.28
548.47	2121.70
548.67	2197.47
548.87	2224.09
549.06	2154.46
549.26	2199.52
549.46	2318.30
549.65	2172.89
549.85	2220.00
550.05	2191.33
550.24	2088.93
550.44	2252.77
550.64	2230.24
550.83	2170.85
551.03	2287.58
551.23	2365.40
551.42	2273.25
551.62	2244.57
551.82	2238.43
552.01	2179.04
552.21	2359.26
552.41	2265.05
552.60	2469.85
552.80	2217.95
553.00	2138.08
553.19	2158.56
553.39	2422.75
553.59	2105.31
553.78	2246.62
553.98	2236.38
554.17	2101.22
554.37	2244.57
554.57	2263.01
554.76	2117.60
554.96	2142.18
555.16	2234.33
555.35	2303.96
555.55	2277.34
555.75	2269.15
555.94	2271.20
556.14	2117.60
556.33	2295.77
556.53	2295.77
556.73	2164.70
556.92	2275.29
557.12	2185.18
557.32	2432.99
557.51	2310.11
557.71	2299.87
557.90	2394.08
558.10	2332.64
558.30	2187.23
558.49	2172.89
558.69	2160.61
558.88	2209.76
559.08	2263.01
559.28	2183.13
559.47	2201.57
559.67	2271.20
559.86	2383.84
560.06	2160.61
560.26	2203.61
560.45	2269.15
560.65	2156.51
560.84	2283.49
561.04	2054.11
561.24	2258.91
561.43	2076.64
561.63	2373.60
561.82	2289.63
562.02	2220.00
562.22	2150.37
562.41	2187.23
562.61	2254.81
562.80	2127.84
563.00	2449.37
563.19	2269.15
563.39	2246.62
563.59	2279.39
563.78	2111.46
563.98	2043.87
564.17	2111.46
564.37	2023.39
564.56	2209.76
564.76	2113.50
564.96	2340.83
565.15	2242.53
565.35	2486.23
565.54	2123.74
565.74	2279.39
565.93	2260.96
566.13	2209.76
566.32	2236.38
566.52	2236.38
566.71	2252.77
566.91	2310.11
567.11	2252.77
567.30	2174.94
567.50	2244.57
567.69	2228.19
567.89	2107.36
568.08	2025.44
568.28	2234.33
568.47	2082.78
568.67	2226.14
568.86	2183.13
569.06	2396.12
569.25	2187.23
569.45	2107.36
569.64	2166.75
569.84	2154.46
570.04	2291.68
570.23	2131.94
570.43	2181.09
570.62	2224.09
570.82	2359.26
571.01	1998.82
571.21	2265.05
571.40	2131.94
571.60	2314.20
571.79	2240.48
571.99	2213.85
572.18	2039.78
572.38	2281.44
572.57	2156.51
572.77	2172.89
572.96	2510.81
573.16	2240.48
573.35	2181.09
573.55	2308.06
573.74	2244.57
573.94	2176.99
574.13	2154.46
574.33	2285.53
574.52	2324.44
574.71	2285.53
574.91	2277.34
575.10	2054.11
575.30	2201.57
575.49	2142.18
575.69	2185.18
575.88	2258.91
576.08	2185.18
576.27	2422.75
576.47	2283.49
576.66	2379.74
576.86	2306.01
577.05	2308.06
577.25	2375.64
577.44	2383.84
577.64	2240.48
577.83	2342.88
578.02	2199.52
578.22	2381.79
578.41	2400.22
578.61	2187.23
578.80	2060.26
579.00	2191.33
579.19	2252.77
579.39	2240.48
579.58	2316.25
579.77	2211.81
579.97	2367.45
580.16	2381.79
580.36	2342.88
580.55	2328.54
580.75	2301.92
580.94	2189.28
581.13	2418.65
581.33	2408.41
581.52	2287.58
581.72	2480.09
581.91	2412.51
582.11	2314.20
582.30	2363.36
582.49	2316.25
582.69	2402.27
582.88	2222.05
583.08	2242.53
583.27	2336.73
583.47	2205.66
583.66	2220.00
583.85	2195.42
584.05	2193.37
584.24	2379.74
584.44	2232.29
584.63	2377.69
584.82	2428.89
585.02	2416.60
585.21	2439.13
585.41	2392.03
585.60	2349.02
585.79	2461.66
585.99	2490.33
586.18	2445.27
586.37	2942.93
586.57	4421.56
586.76	13418.29
586.96	32357.91
587.15	46343.48
587.34	55874.73
587.54	61252.70
587.73	56714.40
587.93	39482.79
588.12	29996.60
588.31	24024.72
588.51	20876.99
588.70	19152.60
588.89	17536.76
589.09	15238.94
589.28	13219.64
589.47	10538.85
589.67	8261.51
589.86	6571.93
590.06	4743.10
590.25	3903.43
590.44	3260.37
590.64	2811.86
590.83	2564.06
591.02	2471.90
591.22	2365.40
591.41	2363.36
591.60	2215.90
591.80	2414.56
591.99	2140.13
592.18	2244.57
592.38	2371.55
592.57	2195.42
592.76	2277.34
592.96	2357.21
593.15	2260.96
593.34	2394.08
593.54	2203.61
593.73	2250.72
593.92	2318.30
594.12	2363.36
594.31	2359.26
594.50	2426.84
594.70	2412.51
594.89	2469.85
595.08	2160.61
595.28	2400.22
595.47	2588.63
595.66	2373.60
595.86	2093.02
596.05	2144.22
596.24	2156.51
596.43	2441.18
596.63	2334.68
596.82	2207.71
597.01	2318.30
597.21	2420.70
597.40	2271.20
597.59	2248.67
597.79	2209.76
597.98	2336.73
598.17	2277.34
598.36	2195.42
598.56	2291.68
598.75	2211.81
598.94	2297.82
599.14	2322.40
599.33	2203.61
599.52	2293.72
599.71	2250.72
599.91	2334.68
600.10	2246.62
600.29	2238.43
600.48	2183.13
600.68	2269.15
600.87	2203.61
601.06	2176.99
601.26	2168.80
601.45	2232.29
601.64	2176.99
601.83	2285.53
602.03	2111.46
602.22	2129.89
602.41	2281.44
602.60	2467.80
602.80	2265.05
602.99	2291.68
603.18	2133.98
603.37	2242.53
603.57	2269.15
603.76	2275.29
603.95	2379.74
604.14	2195.42
604.34	2136.03
604.53	2248.67
604.72	2254.81
604.91	2260.96
605.10	2195.42
605.30	2095.07
605.49	2445.27
605.68	2252.77
605.87	2285.53
606.07	2056.16
606.26	2260.96
606.45	2244.57
606.64	2265.05
606.84	2146.27
607.03	2269.15
607.22	2310.11
607.41	2207.71
607.60	2260.96
607.80	2326.49
607.99	2273.25
608.18	2244.57
608.37	2291.68
608.56	2185.18
608.76	2377.69
608.95	2461.66
609.14	2322.40
609.33	2334.68
609.52	2424.80
609.72	2359.26
609.91	2367.45
610.10	2310.11
610.29	2400.22
610.48	2330.59
610.68	2238.43
610.87	2250.72
611.06	2289.63
611.25	2191.33
611.44	2353.12
611.63	2211.81
611.83	2256.86
612.02	2082.78
612.21	2326.49
612.40	2062.30
612.59	2154.46
612.79	2064.35
612.98	2260.96
613.17	2428.89
613.36	2199.52
613.55	2437.08
613.74	2314.20
613.93	2379.74
614.13	2379.74
614.32	2471.90
614.51	2396.12
614.70	2400.22
614.89	2263.01
615.08	2332.64
615.28	2752.47
615.47	2211.81
615.66	2310.11
615.85	2289.63
616.04	2441.18
616.23	2314.20
616.42	2361.31
616.62	2203.61
616.81	2215.90
617.00	2263.01
617.19	2314.20
617.38	2146.27
617.57	2260.96
617.76	2256.86
617.95	2277.34
618.15	2285.53
618.34	2392.03
618.53	2088.93
618.72	2389.98
618.91	2293.72
619.10	2361.31
619.29	2226.14
619.48	2254.81
619.68	2127.84
619.87	2166.75
620.06	2150.37
620.25	2228.19
620.44	2115.55
620.63	2191.33
620.82	2209.76
621.01	2228.19
621.20	2258.91
621.39	2209.76
621.59	2310.11
621.78	2220.00
621.97	2252.77
622.16	2332.64
622.35	2240.48
622.54	2258.91
622.73	2269.15
622.92	2062.30
623.11	2324.44
623.30	2176.99
623.49	2164.70
623.68	2105.31
623.88	2371.55
624.07	2176.99
624.26	2127.84
624.45	2308.06
624.64	2222.05
624.83	2263.01
625.02	2199.52
625.21	2170.85
625.40	2263.01
625.59	2338.78
625.78	2250.72
625.97	2330.59
626.16	2394.08
626.35	2316.25
626.54	2365.40
626.74	2488.28
626.93	2267.10
627.12	2236.38
627.31	2308.06
627.50	2217.95
627.69	2387.93
627.88	2123.74
628.07	2220.00
628.26	2084.83
628.45	2127.84
628.64	2236.38
628.83	2185.18
629.02	2230.24
629.21	2338.78
629.40	2316.25
629.59	2189.28
629.78	2260.96
629.97	2174.94
630.16	2215.90
630.35	2191.33
630.54	2252.77
630.73	2174.94
630.92	2191.33
631.11	2113.50
631.30	2213.85
631.49	2258.91
631.68	2154.46
631.87	2203.61
632.06	2121.70
632.25	2381.79
632.44	2258.91
632.63	2289.63
632.82	2281.44
633.01	2355.16
633.20	2336.73
633.39	2250.72
633.58	2162.66
633.77	2252.77
633.96	2336.73
634.15	2248.67
634.34	2281.44
634.53	2277.34
634.72	2164.70
634.91	2152.42
635.10	2252.77
635.29	2316.25
635.48	2185.18
635.67	2072.54
635.86	2115.55
636.05	2306.01
636.24	2248.67
636.43	2260.96
636.62	2277.34
636.81	2007.01
637.00	2213.85
637.19	2252.77
637.38	2195.42
637.57	2187.23
637.76	2293.72
637.95	2275.29
638.14	2283.49
638.33	2211.81
638.52	2316.25
638.71	2127.84
638.89	2152.42
639.08	2510.81
639.27	2441.18
639.46	2480.09
639.65	2906.07
639.84	2940.88
640.03	3051.47
640.22	3020.75
640.41	2936.79
640.60	2650.07
640.79	2531.29
640.98	2375.64
641.17	2559.96
641.36	2467.80
641.55	2437.08
641.74	2242.53
641.92	2213.85
642.11	2185.18
642.30	2240.48
642.49	2136.03
642.68	2168.80
642.87	2293.72
643.06	2301.92
643.25	2162.66
643.44	2138.08
643.63	2162.66
643.82	2318.30
644.00	2047.97
644.19	2260.96
644.38	2201.57
644.57	2328.54
644.76	2191.33
644.95	2217.95
645.14	2197.47
645.33	2160.61
645.52	2256.86
645.71	2101.22
645.89	2113.50
646.08	2168.80
646.27	2144.22
646.46	2416.60
646.65	2047.97
646.84	2277.34
647.03	2205.66
647.22	2314.20
647.40	2234.33
647.59	2154.46
647.78	2031.58
647.97	2101.22
648.16	2105.31
648.35	2435.03
648.54	2377.69
648.73	2086.88
648.91	2242.53
649.10	2230.24
649.29	2095.07
649.48	2213.85
649.67	2211.81
649.86	2301.92
650.05	2334.68
650.23	2437.08
650.42	2326.49
650.61	2527.19
650.80	2496.47
650.99	2455.51
651.18	2392.03
651.36	2371.55
651.55	2228.19
651.74	2359.26
651.93	2174.94
652.12	2236.38
652.31	2240.48
652.49	2211.81
652.68	2168.80
652.87	2400.22
653.06	2246.62
653.25	2457.56
653.44	2285.53
653.62	2340.83
653.81	2281.44
654.00	2244.57
654.19	2277.34
654.38	2457.56
654.56	2324.44
654.75	2172.89
654.94	2340.83
655.13	2185.18
655.32	2234.33
655.51	2211.81
655.69	2197.47
655.88	2258.91
656.07	2017.25
656.26	2220.00
656.45	2138.08
656.63	2211.81
656.82	2252.77
657.01	2220.00
657.20	2121.70
657.38	2349.02
657.57	2136.03
657.76	2117.60
657.95	2338.78
658.14	2265.05
658.32	2146.27
658.51	2080.74
658.70	2242.53
658.89	2285.53
659.08	2254.81
659.26	2465.75
659.45	2201.57
659.64	2383.84
659.83	2215.90
660.01	2527.19
660.20	2303.96
660.39	2285.53
660.58	2123.74
660.76	2277.34
660.95	2054.11
661.14	2250.72
661.33	2097.12
661.51	2179.04
661.70	2125.79
661.89	2230.24
662.08	2252.77
662.26	2027.49
662.45	2189.28
662.64	2359.26
662.83	2279.39
663.01	2101.22
663.20	2224.09
663.39	2332.64
663.58	2111.46
663.76	2146.27
663.95	2281.44
664.14	2043.87
664.32	2144.22
664.51	2072.54
664.70	2029.54
664.89	2172.89
665.07	2088.93
665.26	2334.68
665.45	2150.37
665.64	2260.96
665.82	2211.81
666.01	2267.10
666.20	2121.70
666.38	2353.12
666.57	2394.08
666.76	3307.47
666.95	8134.53
667.13	16713.47
667.32	22288.04
667.51	25929.33
667.69	28028.50
667.88	25998.96
668.07	18233.07
668.25	14550.82
668.44	11945.80
668.63	10280.80
668.81	9209.72
669.00	7980.93
669.19	7022.48
669.38	6125.47
669.56	5349.29
669.75	4415.42
669.94	3690.44
670.12	3094.48
670.31	2777.05
670.50	2580.44
670.68	2486.23
670.87	2396.12
671.06	2293.72
671.24	2295.77
671.43	2426.84
671.62	2336.73
671.80	2185.18
671.99	2277.34
672.18	2283.49
672.36	2306.01
672.55	2189.28
672.74	2211.81
672.92	2131.94
673.11	2248.67
673.29	2095.07
673.48	2301.92
673.67	2146.27
673.85	2310.11
674.04	2115.55
674.23	2162.66
674.41	2406.36
674.60	2123.74
674.79	2029.54
674.97	2090.98
675.16	2195.42
675.34	2297.82
675.53	2152.42
675.72	2242.53
675.90	2400.22
676.09	2224.09
676.28	2234.33
676.46	2072.54
676.65	2299.87
676.83	2056.16
677.02	2267.10
677.21	2207.71
677.39	2228.19
677.58	2138.08
677.77	2213.85
677.95	2113.50
678.14	2183.13
678.32	2189.28
678.51	2162.66
678.70	2365.40
678.88	2217.95
679.07	2228.19
679.25	2273.25
679.44	2140.13
679.63	2133.98
679.81	2246.62
680.00	2297.82
680.18	2213.85
680.37	2326.49
680.55	2242.53
680.74	2127.84
680.93	2043.87
681.11	2258.91
681.30	2234.33
681.48	2258.91
681.67	2107.36
681.85	2277.34
682.04	2035.68
682.23	2275.29
682.41	2260.96
682.60	2187.23
682.78	2250.72
682.97	2125.79
683.15	2230.24
683.34	2199.52
683.53	2291.68
683.71	2068.45
683.90	2324.44
684.08	2295.77
684.27	2211.81
684.45	2215.90
684.64	2263.01
684.82	2287.58
685.01	2226.14
685.19	2158.56
685.38	2293.72
685.57	2258.91
685.75	2131.94
685.94	2162.66
686.12	2146.27
686.31	2158.56
686.49	2291.68
686.68	2064.35
686.86	2154.46
687.05	2154.46
687.23	2445.27
687.42	2080.74
687.60	2031.58
687.79	2246.62
687.97	2349.02
688.16	2297.82
688.34	2361.31
688.53	2002.91
688.71	2293.72
688.90	2334.68
689.08	2168.80
689.27	2064.35
689.45	2285.53
689.64	2258.91
689.82	2244.57
690.01	2193.37
690.19	2189.28
690.38	2185.18
690.56	2295.77
690.75	2138.08
690.93	2215.90
691.12	2121.70
691.30	2179.04
691.49	2172.89
691.67	2154.46
691.86	2334.68
692.04	2258.91
692.23	2172.89
692.41	2299.87
692.60	2543.58
692.78	2355.16
692.97	2301.92
693.15	2324.44
693.34	2420.70
693.52	2330.59
693.71	2164.70
693.89	2150.37
694.08	2009.06
694.26	2226.14
694.44	2220.00
694.63	2267.10
694.81	2199.52
695.00	2090.98
695.18	2301.92
695.37	2437.08
695.55	2293.72
695.74	2123.74
695.92	2160.61
696.10	2310.11
696.29	2058.21
696.47	2205.66
696.66	2064.35
696.84	2170.85
697.03	2205.66
697.21	2379.74
697.40	3162.06
697.58	2287.58
697.76	2170.85
697.95	2158.56
698.13	2197.47
698.32	2176.99
698.50	2193.37
698.68	2222.05
698.87	2201.57
699.05	2342.88
699.24	2240.48
699.42	2158.56
699.61	2308.06
699.79	2201.57
699.97	2203.61
700.16	2113.50
700.34	2095.07
700.53	2220.00
700.71	2338.78
700.89	2287.58
701.08	2199.52
701.26	2228.19
701.45	2717.65
701.63	2170.85
701.81	2236.38
702.00	2144.22
702.18	2234.33
702.37	2191.33
702.55	2432.99
702.73	2375.64
702.92	2275.29
703.10	2654.17
703.28	2555.86
703.47	2367.45
703.65	2529.24
703.84	2375.64
704.02	2222.05
704.20	2441.18
704.39	2269.15
704.57	2207.71
704.75	2377.69
704.94	2267.10
705.12	2310.11
705.30	2516.95
705.49	4448.19
705.67	11317.08
705.86	20469.45
706.04	24743.56
706.22	28763.72
706.41	29976.12
706.59	25577.08
706.77	18036.46
706.96	14882.59
707.14	13109.05
707.32	11083.61
707.51	9699.18
707.69	8363.90
707.87	6602.65
708.06	5185.46
708.24	4212.67
708.42	3350.48
708.61	3030.99
708.79	2498.52
708.97	2418.65
709.16	2383.84
709.34	2263.01
709.52	2183.13
709.71	2211.81
709.89	2318.30
710.07	2158.56
710.26	2154.46
710.44	2263.01
710.62	2357.21
710.80	2211.81
710.99	2277.34
711.17	2263.01
711.35	2109.41
711.54	2144.22
711.72	2289.63
711.90	2191.33
712.09	2281.44
712.27	2119.65
712.45	2222.05
712.63	2131.94
712.82	2254.81
713.00	2148.32
713.18	2291.68
713.37	2271.20
713.55	2226.14
713.73	2197.47
713.91	2187.23
714.10	2133.98
714.28	2179.04
714.46	2242.53
714.65	2263.01
714.83	2170.85
715.01	2205.66
715.19	2170.85
715.38	2097.12
715.56	2269.15
715.74	2127.84
715.92	2093.02
716.11	2392.03
716.29	2072.54
716.47	2224.09
716.65	2111.46
716.84	2142.18
717.02	2293.72
717.20	2086.88
717.38	2136.03
717.57	2258.91
717.75	2166.75
717.93	2209.76
718.11	2211.81
718.30	2066.40
718.48	2195.42
718.66	2301.92
718.84	2226.14
719.03	2203.61
719.21	2068.45
719.39	2363.36
719.57	2226.14
719.75	2240.48
719.94	2119.65
720.12	2199.52
720.30	2148.32
720.48	2314.20
720.67	2138.08
720.85	2152.42
721.03	2121.70
721.21	2138.08
721.39	2252.77
721.58	2138.08
721.76	2220.00
721.94	2248.67
722.12	2189.28
722.30	2332.64
722.49	2113.50
722.67	2168.80
722.85	2181.09
723.03	2133.98
723.21	2076.64
723.40	2215.90
723.58	2209.76
723.76	2238.43
723.94	2312.16
724.12	2303.96
724.30	2383.84
724.49	2377.69
724.67	2191.33
724.85	2312.16
725.03	2176.99
725.21	2334.68
725.40	2340.83
725.58	2084.83
725.76	2324.44
725.94	2234.33
726.12	2146.27
726.30	2203.61
726.49	2172.89
726.67	2160.61
726.85	2301.92
727.03	2512.86
727.21	3690.44
727.39	5539.76
727.57	6653.85
727.76	7479.18
727.94	7708.55
728.12	7313.30
728.30	5953.45
728.48	4890.55
728.66	4544.44
728.84	4143.04
729.03	3645.38
729.21	3135.44
729.39	2840.53
729.57	2539.48
729.75	2486.23
729.93	2312.16
730.11	2183.13
730.30	2136.03
730.48	2199.52
730.66	2316.25
730.84	2224.09
731.02	2193.37
731.20	2236.38
731.38	2209.76
731.56	2095.07
731.74	2133.98
731.93	2193.37
732.11	2187.23
732.29	2172.89
732.47	2248.67
732.65	2242.53
732.83	2326.49
733.01	2279.39
733.19	2099.17
733.37	2172.89
733.56	2252.77
733.74	2170.85
733.92	2342.88
734.10	2207.71
734.28	2236.38
734.46	1998.82
734.64	2183.13
734.82	2170.85
735.00	2162.66
735.18	2158.56
735.36	2215.90
735.54	2181.09
735.73	2217.95
735.91	2236.38
736.09	2322.40
736.27	2250.72
736.45	2203.61
736.63	2009.06
736.81	2174.94
736.99	2453.47
737.17	2365.40
737.35	2269.15
737.53	2228.19
737.71	2146.27
737.89	2342.88
738.07	2172.89
738.25	2142.18
738.43	2047.97
738.61	2166.75
738.80	2093.02
738.98	2097.12
739.16	2183.13
739.34	2140.13
739.52	2385.88
739.70	2127.84
739.88	2316.25
740.06	2213.85
740.24	2078.69
740.42	2283.49
740.60	2025.44
740.78	2170.85
740.96	2039.78
741.14	2146.27
741.32	2185.18
741.50	2072.54
741.68	2408.41
741.86	2355.16
742.04	2076.64
742.22	2101.22
742.40	2183.13
742.58	2363.36
742.76	2162.66
742.94	2250.72
743.12	2093.02
743.30	2164.70
743.48	2232.29
743.66	2191.33
743.84	2293.72
744.02	2205.66
744.20	2203.61
744.38	2101.22
744.56	2179.04
744.74	2400.22
744.92	2256.86
745.10	2342.88
745.28	2195.42
745.46	2318.30
745.64	2176.99
745.82	2258.91
746.00	2162.66
746.18	2252.77
746.36	2166.75
746.54	2211.81
746.72	2195.42
746.90	2113.50
747.08	2322.40
747.26	2127.84
747.44	2242.53
747.62	2281.44
747.80	2217.95
747.98	2220.00
748.15	2142.18
748.33	2334.68
748.51	2269.15
748.69	2265.05
748.87	2111.46
749.05	2193.37
749.23	2160.61
749.41	2215.90
749.59	2191.33
749.77	2277.34
749.95	2140.13
750.13	2140.13
750.31	2258.91
750.49	2174.94
750.67	2314.20
750.85	2269.15
751.03	2160.61
751.20	2369.50
751.38	2121.70
751.56	2162.66
751.74	2170.85
751.92	2150.37
752.10	2074.59
752.28	2326.49
752.46	2174.94
752.64	2211.81
752.82	2226.14
753.00	2320.35
753.18	2162.66
753.35	2166.75
753.53	2217.95
753.71	2183.13
753.89	2260.96
754.07	2232.29
754.25	2252.77
754.43	2252.77
754.61	2097.12
754.79	2226.14
754.97	2207.71
755.14	2324.44
755.32	2035.68
755.50	2187.23
755.68	2195.42
755.86	2146.27
756.04	2080.74
756.22	2037.73
756.40	2275.29
756.57	2326.49
756.75	2129.89
756.93	2289.63
757.11	2285.53
757.29	2125.79
757.47	2078.69
757.65	2056.16
757.82	2029.54
758.00	2107.36
758.18	2119.65
758.36	2185.18
758.54	2342.88
758.72	2117.60
758.90	2283.49
759.07	2242.53
759.25	2107.36
759.43	2252.77
759.61	2093.02
759.79	3059.67
759.97	2301.92
760.15	2113.50
760.32	2181.09
760.50	2226.14
760.68	2381.79
760.86	2023.39
761.04	2260.96
761.22	2252.77
761.39	2224.09
761.57	2252.77
761.75	2269.15
761.93	2189.28
762.11	2111.46
762.28	2285.53
762.46	2088.93
762.64	2285.53
762.82	2121.70
763.00	2240.48
763.18	2340.83
763.35	2043.87
763.53	2291.68
763.71	2220.00
763.89	2152.42
764.07	2248.67
764.24	2146.27
764.42	2303.96
764.60	2172.89
764.78	2357.21
764.96	2285.53
765.13	2232.29
765.31	2166.75
765.49	2279.39
765.67	2154.46
765.84	2160.61
766.02	2176.99
766.20	2029.54
766.38	2199.52
766.56	2244.57
766.73	2283.49
766.91	2197.47
767.09	2217.95
767.27	2226.14
767.44	2082.78
767.62	2258.91
767.80	2111.46
767.98	2138.08
768.15	2191.33
768.33	2170.85
768.51	2209.76
768.69	2199.52
768.87	2183.13
769.04	2230.24
769.22	2428.89
769.40	2250.72
769.58	2342.88
769.75	2232.29
769.93	2332.64
770.11	2168.80
770.28	2162.66
770.46	2330.59
770.64	2283.49
770.82	2156.51
770.99	2162.66
771.17	2260.96
771.35	2133.98
771.53	2152.42
771.70	2125.79
771.88	2240.48
772.06	2232.29
772.23	2133.98
772.41	2220.00
772.59	2154.46
772.77	2113.50
772.94	2154.46
773.12	2199.52
773.30	2222.05
773.47	2181.09
773.65	2086.88
773.83	2324.44
774.01	2117.60
774.18	2078.69
774.36	2179.04
774.54	2090.98
774.71	2330.59
774.89	2035.68
775.07	2086.88
775.24	2193.37
775.42	2136.03
775.60	2424.80
775.78	2115.55
775.95	2086.88
776.13	2037.73
776.31	1953.76
776.48	2127.84
776.66	2340.83
776.84	2187.23
777.01	2066.40
777.19	2099.17
777.37	2117.60
777.54	2260.96
777.72	2375.64
777.90	2234.33
778.07	2111.46
778.25	2529.24
778.43	2240.48
778.60	2103.26
778.78	2162.66
778.96	2299.87
779.13	2088.93
779.31	2197.47
779.49	2170.85
779.66	2207.71
779.84	2168.80
780.01	2123.74
780.19	2080.74
780.37	2314.20
780.54	2228.19
780.72	2070.50
780.90	2121.70
781.07	2123.74
781.25	2133.98
781.43	2230.24
781.60	2160.61
781.78	2281.44
781.95	2275.29
782.13	2076.64
782.31	2232.29
782.48	2013.15
782.66	2101.22
782.83	2289.63
783.01	2275.29
783.19	2265.05
783.36	2136.03
783.54	2209.76
783.72	2283.49
783.89	2101.22
784.07	2222.05
784.24	2168.80
784.42	2293.72
784.60	2207.71
784.77	2236.38
784.95	2068.45
785.12	2183.13
785.30	2277.34
785.47	2117.60
785.65	2183.13
785.83	2211.81
786.00	2142.18
786.18	2189.28
786.35	2113.50
786.53	2088.93
786.71	2271.20
786.88	2242.53
787.06	2189.28
787.23	2199.52
787.41	2146.27
787.58	2213.85
787.76	2136.03
787.94	2217.95
788.11	2156.51
788.29	2068.45
788.46	2078.69
788.64	2148.32
788.81	2144.22
788.99	2088.93
789.16	2140.13
789.34	2224.09
789.52	2176.99
789.69	2088.93
789.87	2097.12
790.04	2144.22
790.22	2166.75
790.39	2408.41
790.57	2119.65
790.74	2125.79
790.92	2195.42
791.09	2133.98
791.27	2127.84
791.44	2252.77
791.62	2201.57
791.79	2314.20
791.97	2193.37
792.15	2498.52
792.32	2256.86
792.50	2273.25
792.67	2336.73
792.85	2392.03
793.02	2260.96
793.20	2162.66
793.37	2064.35
793.55	2179.04
793.72	2170.85
793.90	2265.05
794.07	2088.93
794.25	2070.50
794.42	2217.95
794.60	2148.32
794.77	2209.76
794.95	2281.44
795.12	2246.62
795.30	2138.08
795.47	1972.19
795.65	2527.19
795.82	2156.51
796.00	2084.83
796.17	2203.61
796.34	2215.90
796.52	2209.76
796.69	2246.62
796.87	2244.57
797.04	2232.29
797.22	2291.68
797.39	2181.09
797.57	2310.11
797.74	2183.13
797.92	2234.33
798.09	2185.18
798.27	2334.68
798.44	2144.22
798.62	2070.50
798.79	2238.43
798.96	2281.44
799.14	2220.00
799.31	2559.96
799.49	2203.61
799.66	2103.26
799.84	2162.66
800.01	2043.87
800.19	2230.24
800.36	2078.69
800.53	2193.37
800.71	2277.34
800.88	2271.20
801.06	2142.18
801.23	2154.46
801.41	2203.61
801.58	2138.08
801.75	2162.66
801.93	2250.72
802.10	2285.53
802.28	2150.37
802.45	2129.89
802.63	2220.00
802.80	2277.34
802.97	2133.98
803.15	2199.52
803.32	2129.89
803.50	2164.70
803.67	2144.22
803.84	2103.26
804.02	2205.66
804.19	2129.89
804.37	1994.72
804.54	2037.73
804.71	2183.13
804.89	2158.56
805.06	2088.93
805.24	2054.11
805.41	2090.98
805.58	2072.54
805.76	2486.23
805.93	2187.23
806.10	2322.40
806.28	2242.53
806.45	2197.47
806.63	2226.14
806.80	2277.34
806.97	2191.33
807.15	2256.86
807.32	2136.03
807.49	2181.09
807.67	2023.39
807.84	2232.29
808.01	2078.69
808.19	2316.25
808.36	2432.99
808.54	2113.50
808.71	2084.83
808.88	2224.09
809.06	2271.20
809.23	2267.10
809.40	2166.75
809.58	2244.57
809.75	2228.19
809.92	2097.12
810.10	2353.12
810.27	2136.03
810.44	2226.14
810.62	2273.25
810.79	2183.13
810.96	2146.27
811.14	2181.09
811.31	2199.52
811.48	2232.29
811.66	2183.13
811.83	2228.19
812.00	2256.86
812.18	2224.09
812.35	2383.84
812.52	2226.14
812.69	2136.03
812.87	2213.85
813.04	2150.37
813.21	2170.85
813.39	2170.85
813.56	2103.26
813.73	2291.68
813.91	2093.02
814.08	2195.42
814.25	2248.67
814.42	2088.93
814.60	2123.74
814.77	2242.53
814.94	2121.70
815.12	2136.03
815.29	2404.32
815.46	2133.98
815.63	2285.53
815.81	2195.42
815.98	2146.27
816.15	2187.23
816.33	2160.61
816.50	2158.56
816.67	2121.70
816.84	2109.41
817.02	2047.97
817.19	2144.22
817.36	2207.71
817.53	2228.19
817.71	2125.79
817.88	2209.76
818.05	2160.61
818.22	2174.94
818.40	2277.34
818.57	2068.45
818.74	2213.85
818.91	2129.89
819.09	2263.01
819.26	2263.01
819.43	2070.50
819.60	2101.22
819.78	2199.52
819.95	2289.63
820.12	2113.50
820.29	2377.69
820.47	2355.16
820.64	2150.37
820.81	2045.92
820.98	2093.02
821.15	2170.85
821.33	2273.25
821.50	2072.54
821.67	2154.46
821.84	2138.08
822.02	2201.57
822.19	2285.53
822.36	2179.04
822.53	2064.35
822.70	2080.74
822.88	2152.42
823.05	2418.65
823.22	2215.90
823.39	2252.77
823.56	2154.46
823.74	2332.64
823.91	2082.78
824.08	2064.35
824.25	2154.46
824.42	2344.92
824.60	2127.84
824.77	2228.19
824.94	2133.98
825.11	2256.86
825.28	2133.98
825.45	2230.24
825.63	2195.42
825.80	2029.54
825.97	2275.29
826.14	2215.90
826.31	2058.21
826.48	2295.77
826.66	2064.35
826.83	2105.31
827.00	2105.31
827.17	2101.22
827.34	2160.61
827.51	2160.61
827.69	2211.81
827.86	2086.88
828.03	2129.89
828.20	2230.24
828.37	2138.08
828.54	2107.36
828.71	2164.70
828.89	2289.63
829.06	2160.61
829.23	2340.83
829.40	2064.35
829.57	2162.66
829.74	2267.10
829.91	2144.22
830.09	2160.61
830.26	2267.10
830.43	2404.32
830.60	2181.09
830.77	2297.82
830.94	2301.92
831.11	2226.14
831.28	2193.37
831.46	2238.43
831.63	2179.04
831.80	2228.19
831.97	2093.02
832.14	2154.46
832.31	2236.38
832.48	2179.04
832.65	2273.25
832.82	2215.90
832.99	2176.99
833.17	2138.08
833.34	2297.82
833.51	2226.14
833.68	2068.45
833.85	2234.33
834.02	2093.02
834.19	2060.26
834.36	2099.17
834.53	2275.29
834.70	2269.15
834.87	2306.01
835.04	2154.46
835.22	2133.98
835.39	2140.13
835.56	2133.98
835.73	2138.08
835.90	2381.79
836.07	2158.56
836.24	2277.34
836.41	2066.40
836.58	2109.41
836.75	2260.96
836.92	2105.31
837.09	2119.65
837.26	2222.05
837.43	2197.47
837.60	2244.57
837.77	2111.46
837.94	2381.79
838.12	2303.96
838.29	2123.74
838.46	2068.45
838.63	2154.46
838.80	2342.88
838.97	2277.34
839.14	2193.37
839.31	2203.61
839.48	2314.20
839.65	2127.84
839.82	2156.51
839.99	2191.33
840.16	2183.13
840.33	2088.93
840.50	2113.50
840.67	2113.50
840.84	1949.67
841.01	2232.29
841.18	2080.74
841.35	2138.08
841.52	2312.16
841.69	2340.83
841.86	2160.61
842.03	2215.90
842.20	2265.05
842.37	2203.61
842.54	2138.08
842.71	2185.18
842.88	1994.72
843.05	2220.00
843.22	2136.03
843.39	2246.62
843.56	2148.32
843.73	2150.37
843.90	2138.08
844.07	2193.37
844.24	2215.90
844.41	2232.29
844.58	2158.56
844.75	2144.22
844.92	2238.43
845.09	2136.03
845.26	2123.74
845.43	2195.42
845.60	2093.02
845.77	2293.72
845.94	2170.85
846.10	2265.05
846.27	2072.54
846.44	2072.54
846.61	2156.51
846.78	2185.18
846.95	2226.14
847.12	2095.07
847.29	2109.41
847.46	2166.75
847.63	2326.49
847.80	2097.12
847.97	2082.78
848.14	2355.16
848.31	2265.05
848.48	2039.78
848.65	2220.00
848.82	2142.18
848.98	2334.68
849.15	2193.37
849.32	2195.42
849.49	2267.10
849.66	2254.81
849.83	2115.55
850.00	2088.93
850.17	2334.68
850.34	2187.23
850.51	2103.26
850.68	2105.31
850.85	2379.74
851.01	2213.85
851.18	2179.04
851.35	2078.69
851.52	2179.04
851.69	2316.25
851.86	2047.97
852.03	2056.16
852.20	2187.23
852.37	2181.09
852.53	2009.06
852.70	2123.74
852.87	2228.19
853.04	2267.10
853.21	2183.13
853.38	2207.71
853.55	2289.63
853.72	2316.25
853.89	2097.12
854.05	2131.94
854.22	2226.14
854.39	2152.42
854.56	2236.38
854.73	2287.58
854.90	2136.03
855.07	2158.56
855.23	2179.04
855.40	2072.54
855.57	2097.12
855.74	2019.30
855.91	2338.78
856.08	1951.71
856.25	2039.78
856.41	2129.89
856.58	2076.64
856.75	2164.70
856.92	2052.06
857.09	2320.35
857.26	2068.45
857.42	2097.12
857.59	2256.86
857.76	2211.81
857.93	2164.70
858.10	2084.83
858.27	2125.79
858.43	2273.25
858.60	2052.06
858.77	2062.30
858.94	2133.98
859.11	2240.48
859.27	2121.70
859.44	2109.41
859.61	2367.45
859.78	2252.77
859.95	2152.42
860.12	2160.61
860.28	2334.68
860.45	2392.03
860.62	2086.88
860.79	2133.98
860.95	2129.89
861.12	2045.92
861.29	2070.50
861.46	2070.50
861.63	2181.09
861.79	2230.24
861.96	2097.12
862.13	2072.54
862.30	2340.83
862.47	2068.45
862.63	2095.07
862.80	2254.81
862.97	2238.43
863.14	2201.57
863.30	2228.19
863.47	2097.12
863.64	2265.05
863.81	2232.29
863.97	2131.94
864.14	2162.66
864.31	2254.81
864.48	2230.24
864.65	2119.65
864.81	2269.15
864.98	2209.76
865.15	2277.34
865.32	2179.04
865.48	2183.13
865.65	2314.20
865.82	2113.50
865.98	2162.66
866.15	2303.96
866.32	2109.41
866.49	2138.08
866.65	2228.19
866.82	2101.22
866.99	2191.33
867.16	2162.66
867.32	2136.03
867.49	2070.50
867.66	2154.46
867.83	2170.85
867.99	2027.49
868.16	2119.65
868.33	2084.83
868.49	2246.62
868.66	2103.26
868.83	2205.66
868.99	2211.81
869.16	2215.90
869.33	2224.09
869.50	2279.39
869.66	2170.85
869.83	2172.89
870.00	2045.92
870.16	2275.29
870.33	2142.18
870.50	2211.81
870.66	2185.18
870.83	2263.01
871.00	2174.94
871.17	2185.18
871.33	2228.19
871.50	2138.08
871.67	2213.85
871.83	2224.09
872.00	2316.25
872.17	2099.17
872.33	2359.26
872.50	2265.05
872.67	2125.79
872.83	2064.35
873.00	2187.23
873.17	2181.09
873.33	2217.95
873.50	2252.77
873.67	2207.71
873.83	2152.42
874.00	2136.03
874.16	2226.14
874.33	2240.48
874.50	2133.98
874.66	2176.99
874.83	2144.22
875.00	2308.06
875.16	2318.30
875.33	2189.28
875.50	1949.67
875.66	2129.89
875.83	2224.09
875.99	2211.81
876.16	2176.99
876.33	2160.61
876.49	2193.37
876.66	2252.77
876.83	2228.19
876.99	2060.26
877.16	2195.42
877.32	2136.03
877.49	2127.84
877.66	2273.25
877.82	2297.82
877.99	2146.27
878.15	2291.68
878.32	2228.19
878.49	2228.19
878.65	2187.23
878.82	2279.39
878.98	2125.79
879.15	2301.92
879.32	2236.38
879.48	2195.42
879.65	2144.22
879.81	2166.75
879.98	2105.31
880.15	2125.79
880.31	2224.09
880.48	2172.89
880.64	2131.94
880.81	2154.46
880.97	2355.16
881.14	2328.54
881.31	2138.08
881.47	2324.44
881.64	2191.33
881.80	2119.65
881.97	2230.24
882.13	2222.05
882.30	2072.54
882.47	2136.03
882.63	2111.46
882.80	2127.84
882.96	2185.18
883.13	2369.50
883.29	2146.27
883.46	2217.95
883.62	2430.94
883.79	2205.66
883.95	2308.06
884.12	2144.22
884.29	2244.57
884.45	2228.19
884.62	2226.14
884.78	2066.40
884.95	2353.12
885.11	2136.03
885.28	2119.65
885.44	2090.98
885.61	2293.72
885.77	2201.57
885.94	2197.47
886.10	2201.57
886.27	2170.85
886.43	2344.92
886.60	2256.86
886.76	2088.93
886.93	2152.42
887.09	2179.04
887.26	2029.54
887.42	2232.29
887.59	2310.11
887.75	2416.60
887.92	2318.30
888.08	2125.79
888.25	2379.74
888.41	2230.24
888.58	2156.51
888.74	2082.78
888.91	2138.08
>>>>>End Processed Spectral Data<<<<<
