SpectraSuite Data File
++++++++++++++++++++++++++++++++++++
Date: Thu May 05 12:35:14 CEST 2016
User: root
Dark Spectrum Present: No
Reference Spectrum Present: No
Number of Sampled Component Spectra: 1
Spectrometers: USB4C02835
Integration Time (usec): 100000 (USB4C02835)
Spectra Averaged: 1 (USB4C02835)
Boxcar Smoothing: 0 (USB4C02835)
Correct for Electrical Dark: No (USB4C02835)
Strobe/Lamp Enabled: No (USB4C02835)
Correct for Detector Non-linearity: No (USB4C02835)
Correct for Stray Light: No (USB4C02835)
Number of Pixels in Processed Spectrum: 3648
>>>>>Begin Processed Spectral Data<<<<<
177.47	1849.32
177.69	1849.32
177.91	1849.32
178.13	1791.97
178.36	1753.06
178.58	2121.70
178.80	2265.05
179.02	2078.69
179.24	2113.50
179.46	2093.02
179.68	2127.84
179.90	2197.47
180.13	2148.32
180.35	2070.50
180.57	2056.16
180.79	2297.82
181.01	2099.17
181.23	2197.47
181.45	2211.81
181.67	2226.14
181.90	2226.14
182.12	2136.03
182.34	2007.01
182.56	2277.34
182.78	2199.52
183.00	2076.64
183.22	2154.46
183.44	2093.02
183.66	2426.84
183.89	2230.24
184.11	2150.37
184.33	2195.42
184.55	2260.96
184.77	2131.94
184.99	2088.93
185.21	2154.46
185.43	2494.43
185.65	2029.54
185.87	2084.83
186.10	2406.36
186.32	2314.20
186.54	2191.33
186.76	2183.13
186.98	2195.42
187.20	2222.05
187.42	2097.12
187.64	2146.27
187.86	2211.81
188.08	2318.30
188.30	2140.13
188.52	2117.60
188.75	2289.63
188.97	2398.17
189.19	2160.61
189.41	2144.22
189.63	2295.77
189.85	2162.66
190.07	2062.30
190.29	2007.01
190.51	2232.29
190.73	2117.60
190.95	2224.09
191.17	2031.58
191.39	2117.60
191.61	2207.71
191.84	2068.45
192.06	2164.70
192.28	2062.30
192.50	2478.04
192.72	2203.61
192.94	2166.75
193.16	2326.49
193.38	2252.77
193.60	2129.89
193.82	2183.13
194.04	2344.92
194.26	2242.53
194.48	2076.64
194.70	2107.36
194.92	2201.57
195.14	2234.33
195.36	2152.42
195.58	2201.57
195.80	2133.98
196.02	2144.22
196.24	2074.59
196.46	2088.93
196.69	2117.60
196.91	2451.42
197.13	2121.70
197.35	2109.41
197.57	2351.07
197.79	2240.48
198.01	2154.46
198.23	2162.66
198.45	2228.19
198.67	2052.06
198.89	2027.49
199.11	2123.74
199.33	2162.66
199.55	1984.48
199.77	2148.32
199.99	2228.19
200.21	2154.46
200.43	2144.22
200.65	2047.97
200.87	2027.49
201.09	2168.80
201.31	2185.18
201.53	2183.13
201.75	2209.76
201.97	2170.85
202.19	2248.67
202.41	2183.13
202.63	2220.00
202.85	2193.37
203.07	2148.32
203.29	2039.78
203.51	2031.58
203.73	2183.13
203.95	2482.14
204.17	2154.46
204.39	2140.13
204.61	2152.42
204.83	2117.60
205.05	2172.89
205.27	2195.42
205.49	2451.42
205.71	2181.09
205.93	2019.30
206.15	2107.36
206.37	2203.61
206.59	2176.99
206.81	2035.68
207.03	2093.02
207.25	2095.07
207.47	2269.15
207.69	2144.22
207.91	2226.14
208.13	2342.88
208.34	2154.46
208.56	2099.17
208.78	2170.85
209.00	2146.27
209.22	2105.31
209.44	2068.45
209.66	2033.63
209.88	2166.75
210.10	2162.66
210.32	2117.60
210.54	2271.20
210.76	2228.19
210.98	2291.68
211.20	1970.15
211.42	2222.05
211.64	2326.49
211.86	2176.99
212.08	2170.85
212.30	2140.13
212.52	2209.76
212.74	2222.05
212.96	2197.47
213.17	2176.99
213.39	2224.09
213.61	2263.01
213.83	2164.70
214.05	2150.37
214.27	2256.86
214.49	1998.82
214.71	2082.78
214.93	2279.39
215.15	2170.85
215.37	2252.77
215.59	2074.59
215.81	2183.13
216.03	2242.53
216.24	2148.32
216.46	2176.99
216.68	2105.31
216.90	2254.81
217.12	2265.05
217.34	2097.12
217.56	2197.47
217.78	2271.20
218.00	2185.18
218.22	2146.27
218.44	2162.66
218.66	2205.66
218.87	2365.40
219.09	2076.64
219.31	2172.89
219.53	2160.61
219.75	2138.08
219.97	2138.08
220.19	2162.66
220.41	2203.61
220.63	2457.56
220.85	2127.84
221.06	2131.94
221.28	2392.03
221.50	2263.01
221.72	2254.81
221.94	2088.93
222.16	2215.90
222.38	2277.34
222.60	2156.51
222.82	2117.60
223.03	2336.73
223.25	2054.11
223.47	2121.70
223.69	2295.77
223.91	2242.53
224.13	2232.29
224.35	2023.39
224.57	2217.95
224.78	2252.77
225.00	2068.45
225.22	2156.51
225.44	2152.42
225.66	2179.04
225.88	2144.22
226.10	2203.61
226.32	2168.80
226.53	2240.48
226.75	2117.60
226.97	2203.61
227.19	2099.17
227.41	2144.22
227.63	2199.52
227.85	1935.33
228.06	2136.03
228.28	2187.23
228.50	2201.57
228.72	2123.74
228.94	2045.92
229.16	2131.94
229.37	2105.31
229.59	2074.59
229.81	2199.52
230.03	2140.13
230.25	2090.98
230.47	2047.97
230.69	1992.67
230.90	2310.11
231.12	2119.65
231.34	2187.23
231.56	2176.99
231.78	2156.51
232.00	2201.57
232.21	2150.37
232.43	2170.85
232.65	2007.01
232.87	2297.82
233.09	2047.97
233.30	2095.07
233.52	2254.81
233.74	2185.18
233.96	2121.70
234.18	2193.37
234.40	2127.84
234.61	2422.75
234.83	2023.39
235.05	2025.44
235.27	2408.41
235.49	2285.53
235.70	2064.35
235.92	2265.05
236.14	2260.96
236.36	2478.04
236.58	2007.01
236.79	2119.65
237.01	2115.55
237.23	2172.89
237.45	2295.77
237.67	2056.16
237.88	2123.74
238.10	2381.79
238.32	2113.50
238.54	2086.88
238.76	2172.89
238.97	2084.83
239.19	2140.13
239.41	2211.81
239.63	2246.62
239.85	2099.17
240.06	2111.46
240.28	2072.54
240.50	2250.72
240.72	2195.42
240.93	2084.83
241.15	2203.61
241.37	2154.46
241.59	2359.26
241.81	2226.14
242.02	2187.23
242.24	2181.09
242.46	2238.43
242.68	2068.45
242.89	2142.18
243.11	2316.25
243.33	2236.38
243.55	2179.04
243.76	2166.75
243.98	2160.61
244.20	2093.02
244.42	2064.35
244.64	2125.79
244.85	2111.46
245.07	2066.40
245.29	2176.99
245.51	2176.99
245.72	2152.42
245.94	2342.88
246.16	2142.18
246.38	2160.61
246.59	2099.17
246.81	2082.78
247.03	2117.60
247.24	2058.21
247.46	2127.84
247.68	2236.38
247.90	2027.49
248.11	2082.78
248.33	2228.19
248.55	2224.09
248.77	2144.22
248.98	2201.57
249.20	2422.75
249.42	2127.84
249.64	2050.02
249.85	2144.22
250.07	2183.13
250.29	2287.58
250.50	2176.99
250.72	1982.43
250.94	2211.81
251.16	2428.89
251.37	2060.26
251.59	2193.37
251.81	2252.77
252.02	2273.25
252.24	2088.93
252.46	2236.38
252.68	2138.08
252.89	2156.51
253.11	1968.10
253.33	2254.81
253.54	2244.57
253.76	2023.39
253.98	2080.74
254.20	2152.42
254.41	2080.74
254.63	2199.52
254.85	2025.44
255.06	2187.23
255.28	2156.51
255.50	2093.02
255.71	2117.60
255.93	2039.78
256.15	2138.08
256.36	2220.00
256.58	2076.64
256.80	2162.66
257.02	2103.26
257.23	2093.02
257.45	2129.89
257.67	2213.85
257.88	2123.74
258.10	2226.14
258.32	2101.22
258.53	2217.95
258.75	2373.60
258.97	2131.94
259.18	2054.11
259.40	2156.51
259.62	2316.25
259.83	2281.44
260.05	2244.57
260.27	2541.53
260.48	2334.68
260.70	2019.30
260.92	2066.40
261.13	2174.94
261.35	2187.23
261.57	2230.24
261.78	2090.98
262.00	2068.45
262.22	2195.42
262.43	2181.09
262.65	2146.27
262.86	2146.27
263.08	2351.07
263.30	2217.95
263.51	2027.49
263.73	2072.54
263.95	2248.67
264.16	2138.08
264.38	2035.68
264.60	2076.64
264.81	2185.18
265.03	2234.33
265.25	2244.57
265.46	2119.65
265.68	2351.07
265.89	2293.72
266.11	2039.78
266.33	2146.27
266.54	2316.25
266.76	2199.52
266.98	2197.47
267.19	2263.01
267.41	2201.57
267.62	2187.23
267.84	2080.74
268.06	2111.46
268.27	2220.00
268.49	2265.05
268.70	2250.72
268.92	2107.36
269.14	2101.22
269.35	2121.70
269.57	2136.03
269.79	2123.74
270.00	2111.46
270.22	2336.73
270.43	2039.78
270.65	2039.78
270.87	2185.18
271.08	2217.95
271.30	2168.80
271.51	2144.22
271.73	2250.72
271.95	2332.64
272.16	2105.31
272.38	2236.38
272.59	2179.04
272.81	2144.22
273.02	2119.65
273.24	2127.84
273.46	2324.44
273.67	2084.83
273.89	2086.88
274.10	2121.70
274.32	2306.01
274.54	2168.80
274.75	2195.42
274.97	2142.18
275.18	2273.25
275.40	2228.19
275.61	2160.61
275.83	2172.89
276.05	2148.32
276.26	2207.71
276.48	2168.80
276.69	2125.79
276.91	2179.04
277.12	2248.67
277.34	2265.05
277.55	2258.91
277.77	2213.85
277.99	2138.08
278.20	2127.84
278.42	2068.45
278.63	2105.31
278.85	2103.26
279.06	2050.02
279.28	2146.27
279.49	2283.49
279.71	2242.53
279.93	2273.25
280.14	2162.66
280.36	2086.88
280.57	2275.29
280.79	2293.72
281.00	2064.35
281.22	2086.88
281.43	2353.12
281.65	1992.67
281.86	2125.79
282.08	2217.95
282.29	2383.84
282.51	2011.11
282.73	2058.21
282.94	2117.60
283.16	2232.29
283.37	2269.15
283.59	2140.13
283.80	2226.14
284.02	2160.61
284.23	2203.61
284.45	2109.41
284.66	2017.25
284.88	2160.61
285.09	2185.18
285.31	2203.61
285.52	2236.38
285.74	2031.58
285.95	2236.38
286.17	2197.47
286.38	2293.72
286.60	2211.81
286.81	2164.70
287.03	2121.70
287.24	2152.42
287.46	2287.58
287.67	2176.99
287.89	2342.88
288.10	2160.61
288.32	2246.62
288.53	2357.21
288.75	2234.33
288.96	2265.05
289.18	2158.56
289.39	2191.33
289.61	2242.53
289.82	2439.13
290.04	2404.32
290.25	2072.54
290.47	2224.09
290.68	2117.60
290.90	2283.49
291.11	2074.59
291.33	2246.62
291.54	2072.54
291.76	2095.07
291.97	2240.48
292.18	2215.90
292.40	2088.93
292.61	2066.40
292.83	2371.55
293.04	2207.71
293.26	2244.57
293.47	2181.09
293.69	2076.64
293.90	2060.26
294.12	2289.63
294.33	2277.34
294.55	2252.77
294.76	2232.29
294.97	2289.63
295.19	2461.66
295.40	2166.75
295.62	2215.90
295.83	2289.63
296.05	2174.94
296.26	2275.29
296.48	2119.65
296.69	2226.14
296.90	2152.42
297.12	2334.68
297.33	2269.15
297.55	2103.26
297.76	2263.01
297.98	2236.38
298.19	2156.51
298.41	2170.85
298.62	2207.71
298.83	2314.20
299.05	2250.72
299.26	2238.43
299.48	2146.27
299.69	2136.03
299.90	2199.52
300.12	2058.21
300.33	2181.09
300.55	2146.27
300.76	2252.77
300.98	2115.55
301.19	2213.85
301.40	2207.71
301.62	2162.66
301.83	2230.24
302.05	2152.42
302.26	2146.27
302.47	2166.75
302.69	2140.13
302.90	2199.52
303.12	2078.69
303.33	2248.67
303.54	2414.56
303.76	2172.89
303.97	2281.44
304.19	2326.49
304.40	2125.79
304.61	2271.20
304.83	2369.50
305.04	2220.00
305.26	2334.68
305.47	2123.74
305.68	2138.08
305.90	2031.58
306.11	2293.72
306.33	2127.84
306.54	2084.83
306.75	2121.70
306.97	2056.16
307.18	2062.30
307.39	2109.41
307.61	2232.29
307.82	2136.03
308.04	2260.96
308.25	2064.35
308.46	2199.52
308.68	2174.94
308.89	2197.47
309.10	2228.19
309.32	2201.57
309.53	2226.14
309.74	2203.61
309.96	2138.08
310.17	2238.43
310.39	2152.42
310.60	2234.33
310.81	2179.04
311.03	2090.98
311.24	2267.10
311.45	2101.22
311.67	2418.65
311.88	2265.05
312.09	2115.55
312.31	2070.50
312.52	2199.52
312.73	2193.37
312.95	2062.30
313.16	2101.22
313.37	2283.49
313.59	2166.75
313.80	2291.68
314.01	2353.12
314.23	2166.75
314.44	2080.74
314.65	2035.68
314.87	2099.17
315.08	2162.66
315.29	2174.94
315.51	2054.11
315.72	2109.41
315.93	2277.34
316.15	2220.00
316.36	2125.79
316.57	2193.37
316.79	2228.19
317.00	2183.13
317.21	2265.05
317.43	2113.50
317.64	2277.34
317.85	2113.50
318.07	2133.98
318.28	2191.33
318.49	2367.45
318.70	2449.37
318.92	2353.12
319.13	2418.65
319.34	2418.65
319.56	2256.86
319.77	2283.49
319.98	2353.12
320.20	2340.83
320.41	2193.37
320.62	2271.20
320.83	2084.83
321.05	2326.49
321.26	2287.58
321.47	2220.00
321.69	2324.44
321.90	2119.65
322.11	2117.60
322.32	2224.09
322.54	2389.98
322.75	2174.94
322.96	2467.80
323.18	2039.78
323.39	2027.49
323.60	2183.13
323.81	2201.57
324.03	2154.46
324.24	2271.20
324.45	2185.18
324.66	2191.33
324.88	2240.48
325.09	2338.78
325.30	2209.76
325.52	2140.13
325.73	2236.38
325.94	2174.94
326.15	2150.37
326.37	2054.11
326.58	2205.66
326.79	2314.20
327.00	2174.94
327.22	2154.46
327.43	2123.74
327.64	2070.50
327.85	2168.80
328.07	2209.76
328.28	2375.64
328.49	2195.42
328.70	2193.37
328.92	2127.84
329.13	2197.47
329.34	2242.53
329.55	2324.44
329.76	2265.05
329.98	2211.81
330.19	2324.44
330.40	2293.72
330.61	2269.15
330.83	2279.39
331.04	2203.61
331.25	2232.29
331.46	2127.84
331.68	2121.70
331.89	2267.10
332.10	2265.05
332.31	2088.93
332.52	2189.28
332.74	2310.11
332.95	2045.92
333.16	2166.75
333.37	2217.95
333.58	2037.73
333.80	2185.18
334.01	1943.52
334.22	2195.42
334.43	2084.83
334.64	2095.07
334.86	2086.88
335.07	2127.84
335.28	2340.83
335.49	1972.19
335.70	2287.58
335.92	2256.86
336.13	2310.11
336.34	2240.48
336.55	2224.09
336.76	2187.23
336.98	2058.21
337.19	2201.57
337.40	2330.59
337.61	2420.70
337.82	2127.84
338.04	2248.67
338.25	2076.64
338.46	2164.70
338.67	2078.69
338.88	2064.35
339.09	2027.49
339.31	2187.23
339.52	2090.98
339.73	2095.07
339.94	2125.79
340.15	2195.42
340.36	2125.79
340.58	2193.37
340.79	2084.83
341.00	2232.29
341.21	2097.12
341.42	2349.02
341.63	2232.29
341.85	2283.49
342.06	2166.75
342.27	2133.98
342.48	2222.05
342.69	2031.58
342.90	2285.53
343.12	2277.34
343.33	2088.93
343.54	2320.35
343.75	2318.30
343.96	2103.26
344.17	2093.02
344.38	2226.14
344.60	2142.18
344.81	2138.08
345.02	2170.85
345.23	2349.02
345.44	2484.19
345.65	2267.10
345.86	2232.29
346.07	2228.19
346.29	2105.31
346.50	2228.19
346.71	2316.25
346.92	2353.12
347.13	2424.80
347.34	2152.42
347.55	2080.74
347.76	2293.72
347.98	2123.74
348.19	2154.46
348.40	2334.68
348.61	2260.96
348.82	2373.60
349.03	2301.92
349.24	2078.69
349.45	2310.11
349.66	1982.43
349.88	2121.70
350.09	2138.08
350.30	2396.12
350.51	2344.92
350.72	2263.01
350.93	2275.29
351.14	2086.88
351.35	2179.04
351.56	2181.09
351.77	2166.75
351.99	2267.10
352.20	2385.88
352.41	2306.01
352.62	2074.59
352.83	2162.66
353.04	2183.13
353.25	2084.83
353.46	2162.66
353.67	2291.68
353.88	2045.92
354.09	2183.13
354.30	2160.61
354.52	2244.57
354.73	2193.37
354.94	2144.22
355.15	2189.28
355.36	2342.88
355.57	2183.13
355.78	2179.04
355.99	2113.50
356.20	2045.92
356.41	2258.91
356.62	2226.14
356.83	2209.76
357.04	2375.64
357.25	2064.35
357.46	2215.90
357.68	2021.35
357.89	2127.84
358.10	2179.04
358.31	2136.03
358.52	2191.33
358.73	2072.54
358.94	2144.22
359.15	2146.27
359.36	2244.57
359.57	2183.13
359.78	2156.51
359.99	2162.66
360.20	2054.11
360.41	2156.51
360.62	2215.90
360.83	2211.81
361.04	2211.81
361.25	2213.85
361.46	2244.57
361.67	2336.73
361.88	2205.66
362.09	2267.10
362.30	2162.66
362.51	2158.56
362.72	2152.42
362.93	2295.77
363.14	2246.62
363.35	2258.91
363.56	2113.50
363.78	2242.53
363.99	2297.82
364.20	2185.18
364.41	2179.04
364.62	2357.21
364.83	2312.16
365.04	2162.66
365.25	2193.37
365.46	2404.32
365.67	2123.74
365.88	2220.00
366.09	2125.79
366.30	2150.37
366.51	2191.33
366.72	2056.16
366.93	2156.51
367.14	2220.00
367.35	2326.49
367.56	2164.70
367.77	2279.39
367.98	2201.57
368.18	2273.25
368.39	2220.00
368.60	2119.65
368.81	2299.87
369.02	2226.14
369.23	2154.46
369.44	2029.54
369.65	2181.09
369.86	2230.24
370.07	2297.82
370.28	2043.87
370.49	2306.01
370.70	2246.62
370.91	2162.66
371.12	2039.78
371.33	2293.72
371.54	2105.31
371.75	2334.68
371.96	2007.01
372.17	2174.94
372.38	2217.95
372.59	2260.96
372.80	2144.22
373.01	2193.37
373.22	2244.57
373.43	2185.18
373.64	2150.37
373.85	2291.68
374.06	2408.41
374.26	2277.34
374.47	2189.28
374.68	2326.49
374.89	2242.53
375.10	2232.29
375.31	2267.10
375.52	2199.52
375.73	2197.47
375.94	2078.69
376.15	2269.15
376.36	2113.50
376.57	2183.13
376.78	2146.27
376.99	2090.98
377.20	2369.50
377.40	2183.13
377.61	2351.07
377.82	1986.53
378.03	2402.27
378.24	2289.63
378.45	2207.71
378.66	2234.33
378.87	2107.36
379.08	2023.39
379.29	2166.75
379.50	2295.77
379.71	2115.55
379.91	2217.95
380.12	2217.95
380.33	2267.10
380.54	2144.22
380.75	2234.33
380.96	2129.89
381.17	2271.20
381.38	2154.46
381.59	2248.67
381.80	2115.55
382.00	2420.70
382.21	2271.20
382.42	2369.50
382.63	2471.90
382.84	2226.14
383.05	2351.07
383.26	2371.55
383.47	2220.00
383.68	2193.37
383.88	2244.57
384.09	2176.99
384.30	2441.18
384.51	2314.20
384.72	2090.98
384.93	2047.97
385.14	2191.33
385.35	2248.67
385.55	2136.03
385.76	2351.07
385.97	2217.95
386.18	2103.26
386.39	2185.18
386.60	2256.86
386.81	2109.41
387.02	2160.61
387.22	2088.93
387.43	2248.67
387.64	2228.19
387.85	2316.25
388.06	2480.09
388.27	4018.11
388.48	8609.66
388.68	12531.52
388.89	14821.15
389.10	15623.95
389.31	14614.30
389.52	11390.80
389.73	9899.88
389.93	8955.77
390.14	8232.83
390.35	7346.06
390.56	6573.98
390.77	5552.04
390.98	4048.83
391.18	3282.89
391.39	2777.05
391.60	2355.16
391.81	2373.60
392.02	2115.55
392.23	2465.75
392.43	2232.29
392.64	2301.92
392.85	2256.86
393.06	2310.11
393.27	2172.89
393.47	2138.08
393.68	2244.57
393.89	2160.61
394.10	2301.92
394.31	2088.93
394.52	2105.31
394.72	2113.50
394.93	2361.31
395.14	2088.93
395.35	2263.01
395.56	2160.61
395.76	2183.13
395.97	2240.48
396.18	2324.44
396.39	2312.16
396.60	2615.26
396.80	2494.43
397.01	2412.51
397.22	2420.70
397.43	2385.88
397.64	2213.85
397.84	2256.86
398.05	2420.70
398.26	2203.61
398.47	2346.97
398.67	2301.92
398.88	2144.22
399.09	2297.82
399.30	2246.62
399.51	2195.42
399.71	2105.31
399.92	2160.61
400.13	2287.58
400.34	2170.85
400.54	2217.95
400.75	2377.69
400.96	2265.05
401.17	2355.16
401.37	2318.30
401.58	2181.09
401.79	2185.18
402.00	2285.53
402.21	2613.21
402.41	2502.62
402.62	2512.86
402.83	2613.21
403.04	2707.41
403.24	2795.48
403.45	2287.58
403.66	2441.18
403.87	2475.99
404.07	2385.88
404.28	2443.23
404.49	2498.52
404.70	2258.91
404.90	2250.72
405.11	2252.77
405.32	2260.96
405.52	2129.89
405.73	2144.22
405.94	2064.35
406.15	2199.52
406.35	2250.72
406.56	2336.73
406.77	2244.57
406.98	2256.86
407.18	2156.51
407.39	2334.68
407.60	2217.95
407.80	2199.52
408.01	2086.88
408.22	2258.91
408.43	2080.74
408.63	2236.38
408.84	2209.76
409.05	2232.29
409.25	2119.65
409.46	2076.64
409.67	2160.61
409.88	2211.81
410.08	2201.57
410.29	2217.95
410.50	2228.19
410.70	2191.33
410.91	2064.35
411.12	2242.53
411.32	2189.28
411.53	2144.22
411.74	2326.49
411.95	2299.87
412.15	2301.92
412.36	2318.30
412.57	2254.81
412.77	2344.92
412.98	2109.41
413.19	2267.10
413.39	2240.48
413.60	2179.04
413.81	2303.96
414.01	2203.61
414.22	2267.10
414.43	2316.25
414.63	2176.99
414.84	2297.82
415.05	2142.18
415.25	2050.02
415.46	2185.18
415.67	2183.13
415.87	2267.10
416.08	2148.32
416.29	2119.65
416.49	2306.01
416.70	2121.70
416.91	2144.22
417.11	2250.72
417.32	2332.64
417.53	2226.14
417.73	2291.68
417.94	2162.66
418.15	2250.72
418.35	2310.11
418.56	2113.50
418.77	2457.56
418.97	2279.39
419.18	2125.79
419.38	1964.00
419.59	2123.74
419.80	2402.27
420.00	2140.13
420.21	2213.85
420.42	2349.02
420.62	2250.72
420.83	2088.93
421.04	2211.81
421.24	2185.18
421.45	2211.81
421.65	2240.48
421.86	2138.08
422.07	2314.20
422.27	2220.00
422.48	2187.23
422.69	2072.54
422.89	2248.67
423.10	2109.41
423.30	2093.02
423.51	2191.33
423.72	2299.87
423.92	2318.30
424.13	2070.50
424.33	2285.53
424.54	2242.53
424.75	2220.00
424.95	2330.59
425.16	2295.77
425.36	2154.46
425.57	2303.96
425.78	2332.64
425.98	2215.90
426.19	2121.70
426.39	2072.54
426.60	2244.57
426.81	2346.97
427.01	2277.34
427.22	2117.60
427.42	2111.46
427.63	2123.74
427.83	2293.72
428.04	2379.74
428.25	2252.77
428.45	2281.44
428.66	2320.35
428.86	2154.46
429.07	2148.32
429.28	2131.94
429.48	2152.42
429.69	2078.69
429.89	2217.95
430.10	2121.70
430.30	2301.92
430.51	2332.64
430.71	2109.41
430.92	2133.98
431.13	2195.42
431.33	2226.14
431.54	2154.46
431.74	2291.68
431.95	2428.89
432.15	2113.50
432.36	2127.84
432.56	2301.92
432.77	2375.64
432.98	2334.68
433.18	2236.38
433.39	2142.18
433.59	2213.85
433.80	2402.27
434.00	2406.36
434.21	2088.93
434.41	2119.65
434.62	2443.23
434.82	2084.83
435.03	2084.83
435.23	2246.62
435.44	1998.82
435.64	2185.18
435.85	2205.66
436.06	2263.01
436.26	2271.20
436.47	2162.66
436.67	2158.56
436.88	2220.00
437.08	2287.58
437.29	2365.40
437.49	2222.05
437.70	2306.01
437.90	2109.41
438.11	2408.41
438.31	2293.72
438.52	2392.03
438.72	2439.13
438.93	2506.71
439.13	2283.49
439.34	2367.45
439.54	2267.10
439.75	2299.87
439.95	2295.77
440.16	2129.89
440.36	2203.61
440.57	2220.00
440.77	2269.15
440.98	2275.29
441.18	2326.49
441.39	2076.64
441.59	2099.17
441.80	2349.02
442.00	2232.29
442.21	2281.44
442.41	2093.02
442.62	2359.26
442.82	2138.08
443.02	2289.63
443.23	2273.25
443.43	2162.66
443.64	2424.80
443.84	2119.65
444.05	2334.68
444.25	2285.53
444.46	2211.81
444.66	2244.57
444.87	2379.74
445.07	2037.73
445.28	2140.13
445.48	2324.44
445.69	2301.92
445.89	2475.99
446.09	2203.61
446.30	2498.52
446.50	2791.38
446.71	4396.99
446.91	5435.31
447.12	6430.62
447.32	6840.22
447.53	6156.19
447.73	5091.25
447.93	4566.97
448.14	4341.69
448.34	4030.40
448.55	3637.19
448.75	3549.13
448.96	3465.16
449.16	3014.61
449.36	2861.01
449.57	2553.82
449.77	2312.16
449.98	2256.86
450.18	2340.83
450.39	2220.00
450.59	2297.82
450.79	2228.19
451.00	2176.99
451.20	2314.20
451.41	2185.18
451.61	2258.91
451.81	2129.89
452.02	2154.46
452.22	2154.46
452.43	2152.42
452.63	2146.27
452.84	2176.99
453.04	2148.32
453.24	2150.37
453.45	2170.85
453.65	2185.18
453.86	2187.23
454.06	2201.57
454.26	2156.51
454.47	2131.94
454.67	2381.79
454.87	2293.72
455.08	2113.50
455.28	2340.83
455.49	2242.53
455.69	2136.03
455.89	2502.62
456.10	2332.64
456.30	2193.37
456.51	2258.91
456.71	2187.23
456.91	2312.16
457.12	2318.30
457.32	2193.37
457.52	2158.56
457.73	2263.01
457.93	2240.48
458.14	2181.09
458.34	2039.78
458.54	2154.46
458.75	2131.94
458.95	2332.64
459.15	2215.90
459.36	2246.62
459.56	2187.23
459.76	2439.13
459.97	2234.33
460.17	2176.99
460.37	2275.29
460.58	2199.52
460.78	2275.29
460.99	2179.04
461.19	2148.32
461.39	2187.23
461.60	2215.90
461.80	2265.05
462.00	2068.45
462.21	2260.96
462.41	2152.42
462.61	2109.41
462.82	2033.63
463.02	2267.10
463.22	2217.95
463.43	2357.21
463.63	2250.72
463.83	2250.72
464.04	2166.75
464.24	2189.28
464.44	2123.74
464.64	2260.96
464.85	2271.20
465.05	2303.96
465.25	2183.13
465.46	2136.03
465.66	2316.25
465.86	2291.68
466.07	2174.94
466.27	2189.28
466.47	2113.50
466.68	2060.26
466.88	2318.30
467.08	2371.55
467.29	2275.29
467.49	2246.62
467.69	2211.81
467.89	2293.72
468.10	2211.81
468.30	2263.01
468.50	2289.63
468.71	2203.61
468.91	2090.98
469.11	2334.68
469.31	2279.39
469.52	2193.37
469.72	2404.32
469.92	2412.51
470.13	2203.61
470.33	2174.94
470.53	2344.92
470.73	2709.46
470.94	3039.19
471.14	3203.02
471.34	3624.90
471.54	3641.29
471.75	3129.30
471.95	2971.60
472.15	2766.81
472.36	2863.06
472.56	2648.02
472.76	2795.48
472.96	2686.94
473.17	2553.82
473.37	2510.81
473.57	2271.20
473.77	2301.92
473.98	2256.86
474.18	2164.70
474.38	2496.47
474.58	2187.23
474.79	2191.33
474.99	2183.13
475.19	2258.91
475.39	2097.12
475.60	2224.09
475.80	2187.23
476.00	2158.56
476.20	2191.33
476.41	2228.19
476.61	2320.35
476.81	2312.16
477.01	2125.79
477.21	2373.60
477.42	2297.82
477.62	2136.03
477.82	2291.68
478.02	2187.23
478.23	2281.44
478.43	2154.46
478.63	2181.09
478.83	2228.19
479.03	2179.04
479.24	2308.06
479.44	2385.88
479.64	2142.18
479.84	2011.11
480.04	2166.75
480.25	2330.59
480.45	2093.02
480.65	2172.89
480.85	2322.40
481.06	2193.37
481.26	2224.09
481.46	2330.59
481.66	2193.37
481.86	2166.75
482.06	2301.92
482.27	2176.99
482.47	2203.61
482.67	2250.72
482.87	2246.62
483.07	2279.39
483.28	2220.00
483.48	2138.08
483.68	2146.27
483.88	2093.02
484.08	2039.78
484.29	2117.60
484.49	2086.88
484.69	2097.12
484.89	2351.07
485.09	2273.25
485.29	2301.92
485.50	2283.49
485.70	2185.18
485.90	2342.88
486.10	2240.48
486.30	2207.71
486.50	2295.77
486.71	2246.62
486.91	2258.91
487.11	2271.20
487.31	2136.03
487.51	2258.91
487.71	2041.82
487.91	2222.05
488.12	2103.26
488.32	2039.78
488.52	2166.75
488.72	2029.54
488.92	2238.43
489.12	2353.12
489.32	2312.16
489.53	2230.24
489.73	2062.30
489.93	2326.49
490.13	2152.42
490.33	2047.97
490.53	2330.59
490.73	2377.69
490.94	2088.93
491.14	2240.48
491.34	2330.59
491.54	2521.05
491.74	3223.50
491.94	3688.39
492.14	4046.79
492.34	4188.10
492.54	3663.82
492.75	3213.26
492.95	3297.23
493.15	2899.92
493.35	2932.69
493.55	2777.05
493.75	2662.36
493.95	2815.96
494.15	2559.96
494.35	2324.44
494.56	2351.07
494.76	2164.70
494.96	2260.96
495.16	2279.39
495.36	2205.66
495.56	2160.61
495.76	2269.15
495.96	2187.23
496.16	2111.46
496.36	2314.20
496.56	2156.51
496.77	2230.24
496.97	2240.48
497.17	2338.78
497.37	2123.74
497.57	2211.81
497.77	2250.72
497.97	2078.69
498.17	2215.90
498.37	2226.14
498.57	2271.20
498.77	2131.94
498.97	2289.63
499.17	2408.41
499.38	2215.90
499.58	2260.96
499.78	2326.49
499.98	2322.40
500.18	2238.43
500.38	2156.51
500.58	2457.56
500.78	2879.44
500.98	5300.14
501.18	7270.29
501.38	9072.50
501.58	10020.71
501.78	9756.52
501.98	7839.62
502.18	6461.34
502.38	5656.49
502.58	5181.36
502.78	4714.42
502.98	4501.44
503.18	4345.79
503.38	3835.85
503.59	3467.21
503.79	3330.00
503.99	3022.80
504.19	2783.19
504.39	2910.16
504.59	2879.44
504.79	2844.63
504.99	2840.53
505.19	2588.63
505.39	2531.29
505.59	2650.07
505.79	2594.78
505.99	2389.98
506.19	2346.97
506.39	2457.56
506.59	2236.38
506.79	2220.00
506.99	2357.21
507.19	2174.94
507.39	2297.82
507.59	2117.60
507.79	2125.79
507.99	2195.42
508.19	2252.77
508.39	2209.76
508.59	2162.66
508.79	2297.82
508.99	2389.98
509.19	2086.88
509.39	2308.06
509.59	2154.46
509.79	2076.64
509.99	2297.82
510.19	2396.12
510.39	2267.10
510.59	2240.48
510.79	2224.09
510.99	2093.02
511.19	2129.89
511.39	2369.50
511.59	2291.68
511.79	2338.78
511.99	2228.19
512.19	2310.11
512.38	2232.29
512.58	2146.27
512.78	2179.04
512.98	2310.11
513.18	2432.99
513.38	2043.87
513.58	2334.68
513.78	2170.85
513.98	2199.52
514.18	2211.81
514.38	2179.04
514.58	2236.38
514.78	2205.66
514.98	2095.07
515.18	2187.23
515.38	2189.28
515.58	2310.11
515.78	2150.37
515.98	2181.09
516.18	2250.72
516.38	2152.42
516.57	2201.57
516.77	2162.66
516.97	2240.48
517.17	2142.18
517.37	2125.79
517.57	2308.06
517.77	2195.42
517.97	2097.12
518.17	2285.53
518.37	2072.54
518.57	2224.09
518.77	2234.33
518.97	2101.22
519.16	2209.76
519.36	2334.68
519.56	2193.37
519.76	2205.66
519.96	2228.19
520.16	2439.13
520.36	2125.79
520.56	2392.03
520.76	2095.07
520.96	2197.47
521.16	2283.49
521.35	2293.72
521.55	2422.75
521.75	2244.57
521.95	2215.90
522.15	2281.44
522.35	2062.30
522.55	2160.61
522.75	2265.05
522.95	2142.18
523.14	2084.83
523.34	2195.42
523.54	2174.94
523.74	2279.39
523.94	2273.25
524.14	2113.50
524.34	2217.95
524.54	2375.64
524.73	2162.66
524.93	2316.25
525.13	2234.33
525.33	2023.39
525.53	2394.08
525.73	2275.29
525.93	2201.57
526.13	2267.10
526.32	2179.04
526.52	2418.65
526.72	2293.72
526.92	2197.47
527.12	2164.70
527.32	2101.22
527.52	2189.28
527.71	2258.91
527.91	2254.81
528.11	2131.94
528.31	2195.42
528.51	2125.79
528.71	2263.01
528.90	2283.49
529.10	2293.72
529.30	2310.11
529.50	2031.58
529.70	2195.42
529.90	2187.23
530.09	2203.61
530.29	2080.74
530.49	2105.31
530.69	2482.14
530.89	2244.57
531.09	2238.43
531.28	2080.74
531.48	2263.01
531.68	2234.33
531.88	2217.95
532.08	2232.29
532.28	2217.95
532.47	2285.53
532.67	2328.54
532.87	2299.87
533.07	2125.79
533.27	2338.78
533.46	2254.81
533.66	2172.89
533.86	2228.19
534.06	2273.25
534.26	2242.53
534.45	2254.81
534.65	2324.44
534.85	2258.91
535.05	2158.56
535.25	2283.49
535.44	2064.35
535.64	2258.91
535.84	2187.23
536.04	2197.47
536.24	2191.33
536.43	2193.37
536.63	2240.48
536.83	2220.00
537.03	2179.04
537.22	2078.69
537.42	2115.55
537.62	2207.71
537.82	2222.05
538.02	2346.97
538.21	2320.35
538.41	2529.24
538.61	2193.37
538.81	2209.76
539.00	2279.39
539.20	2050.02
539.40	2244.57
539.60	2269.15
539.79	2265.05
539.99	2181.09
540.19	2242.53
540.39	2154.46
540.58	2248.67
540.78	2297.82
540.98	2234.33
541.18	2334.68
541.37	2258.91
541.57	2207.71
541.77	2195.42
541.97	2176.99
542.16	2043.87
542.36	2197.47
542.56	2205.66
542.76	2387.93
542.95	2279.39
543.15	2242.53
543.35	2314.20
543.54	2160.61
543.74	2140.13
543.94	2418.65
544.14	2099.17
544.33	2265.05
544.53	2199.52
544.73	2191.33
544.93	2146.27
545.12	2220.00
545.32	2228.19
545.52	2195.42
545.71	2162.66
545.91	2160.61
546.11	2166.75
546.30	2197.47
546.50	2275.29
546.70	2172.89
546.90	2226.14
547.09	2109.41
547.29	2215.90
547.49	2226.14
547.68	2154.46
547.88	2119.65
548.08	2308.06
548.27	2758.61
548.47	2101.22
548.67	2144.22
548.87	2281.44
549.06	2162.66
549.26	2174.94
549.46	2260.96
549.65	2209.76
549.85	2136.03
550.05	2209.76
550.24	2064.35
550.44	2232.29
550.64	2148.32
550.83	2152.42
551.03	2269.15
551.23	2293.72
551.42	2293.72
551.62	2176.99
551.82	2162.66
552.01	2146.27
552.21	2340.83
552.41	2201.57
552.60	2398.17
552.80	2246.62
553.00	2193.37
553.19	2179.04
553.39	2375.64
553.59	2144.22
553.78	2220.00
553.98	2273.25
554.17	2185.18
554.37	2242.53
554.57	2248.67
554.76	2133.98
554.96	2176.99
555.16	2269.15
555.35	2205.66
555.55	2238.43
555.75	2275.29
555.94	2322.40
556.14	2158.56
556.33	2197.47
556.53	2205.66
556.73	2197.47
556.92	2220.00
557.12	2318.30
557.32	2490.33
557.51	2342.88
557.71	2195.42
557.90	2351.07
558.10	2326.49
558.30	2207.71
558.49	2207.71
558.69	2250.72
558.88	2316.25
559.08	2248.67
559.28	2201.57
559.47	2199.52
559.67	2189.28
559.86	2449.37
560.06	2254.81
560.26	2105.31
560.45	2263.01
560.65	2197.47
560.84	2334.68
561.04	2136.03
561.24	2256.86
561.43	2179.04
561.63	2359.26
561.82	2254.81
562.02	2211.81
562.22	2113.50
562.41	2166.75
562.61	2152.42
562.80	2086.88
563.00	2435.03
563.19	2260.96
563.39	2283.49
563.59	2308.06
563.78	2078.69
563.98	1980.39
564.17	2127.84
564.37	2064.35
564.56	2172.89
564.76	2062.30
564.96	2373.60
565.15	2211.81
565.35	2512.86
565.54	2160.61
565.74	2201.57
565.93	2232.29
566.13	2213.85
566.32	2273.25
566.52	2269.15
566.71	2191.33
566.91	2224.09
567.11	2279.39
567.30	2115.55
567.50	2326.49
567.69	2254.81
567.89	2154.46
568.08	2072.54
568.28	2248.67
568.47	2068.45
568.67	2228.19
568.86	2140.13
569.06	2295.77
569.25	2172.89
569.45	2150.37
569.64	2176.99
569.84	2220.00
570.04	2230.24
570.23	2097.12
570.43	2187.23
570.62	2310.11
570.82	2353.12
571.01	2111.46
571.21	2170.85
571.40	2103.26
571.60	2316.25
571.79	2260.96
571.99	2201.57
572.18	2162.66
572.38	2289.63
572.57	2156.51
572.77	2236.38
572.96	2488.28
573.16	2265.05
573.35	2162.66
573.55	2359.26
573.74	2269.15
573.94	2197.47
574.13	2150.37
574.33	2254.81
574.52	2285.53
574.71	2197.47
574.91	2265.05
575.10	2142.18
575.30	2310.11
575.49	2148.32
575.69	2187.23
575.88	2318.30
576.08	2301.92
576.27	2297.82
576.47	2306.01
576.66	2342.88
576.86	2461.66
577.05	2293.72
577.25	2242.53
577.44	2400.22
577.64	2197.47
577.83	2334.68
578.02	2187.23
578.22	2316.25
578.41	2447.32
578.61	2207.71
578.80	2154.46
579.00	2189.28
579.19	2285.53
579.39	2222.05
579.58	2316.25
579.77	2285.53
579.97	2432.99
580.16	2349.02
580.36	2308.06
580.55	2377.69
580.75	2367.45
580.94	2228.19
581.13	2451.42
581.33	2439.13
581.52	2203.61
581.72	2480.09
581.91	2371.55
582.11	2101.22
582.30	2324.44
582.49	2269.15
582.69	2375.64
582.88	2250.72
583.08	2277.34
583.27	2342.88
583.47	2209.76
583.66	2201.57
583.85	2125.79
584.05	2154.46
584.24	2326.49
584.44	2273.25
584.63	2367.45
584.82	2400.22
585.02	2361.31
585.21	2449.37
585.41	2330.59
585.60	2396.12
585.79	2527.19
585.99	2502.62
586.18	2314.20
586.37	2883.54
586.57	4442.04
586.76	13324.08
586.96	32390.67
587.15	46234.94
587.34	55909.55
587.54	60839.01
587.73	55846.06
587.93	39642.53
588.12	29541.95
588.31	23901.84
588.51	20670.15
588.70	19070.68
588.89	17354.49
589.09	15109.91
589.28	12693.31
589.47	10577.76
589.67	8228.74
589.86	6442.91
590.06	4730.81
590.25	3862.47
590.44	3209.17
590.64	2832.34
590.83	2611.16
591.02	2512.86
591.22	2457.56
591.41	2310.11
591.60	2254.81
591.80	2500.57
591.99	2203.61
592.18	2211.81
592.38	2349.02
592.57	2224.09
592.76	2293.72
592.96	2215.90
593.15	2242.53
593.34	2340.83
593.54	2228.19
593.73	2297.82
593.92	2367.45
594.12	2355.16
594.31	2267.10
594.50	2271.20
594.70	2293.72
594.89	2428.89
595.08	2179.04
595.28	2365.40
595.47	2564.06
595.66	2408.41
595.86	2146.27
596.05	2195.42
596.24	2179.04
596.43	2441.18
596.63	2293.72
596.82	2299.87
597.01	2301.92
597.21	2363.36
597.40	2322.40
597.59	2379.74
597.79	2236.38
597.98	2285.53
598.17	2285.53
598.36	2281.44
598.56	2297.82
598.75	2154.46
598.94	2357.21
599.14	2220.00
599.33	2217.95
599.52	2332.64
599.71	2275.29
599.91	2265.05
600.10	2250.72
600.29	2187.23
600.48	2369.50
600.68	2269.15
600.87	2301.92
601.06	2203.61
601.26	2125.79
601.45	2318.30
601.64	2080.74
601.83	2328.54
602.03	2228.19
602.22	2117.60
602.41	2318.30
602.60	2412.51
602.80	2301.92
602.99	2346.97
603.18	2179.04
603.37	2258.91
603.57	2258.91
603.76	2260.96
603.95	2369.50
604.14	2183.13
604.34	2113.50
604.53	2189.28
604.72	2209.76
604.91	2326.49
605.10	2295.77
605.30	2133.98
605.49	2488.28
605.68	2279.39
605.87	2238.43
606.07	2158.56
606.26	2187.23
606.45	2314.20
606.64	2285.53
606.84	2242.53
607.03	2308.06
607.22	2293.72
607.41	2172.89
607.60	2244.57
607.80	2301.92
607.99	2205.66
608.18	2195.42
608.37	2195.42
608.56	2258.91
608.76	2389.98
608.95	2447.32
609.14	2375.64
609.33	2437.08
609.52	2420.70
609.72	2349.02
609.91	2408.41
610.10	2285.53
610.29	2418.65
610.48	2299.87
610.68	2291.68
610.87	2179.04
611.06	2285.53
611.25	2238.43
611.44	2357.21
611.63	2228.19
611.83	2316.25
612.02	2078.69
612.21	2322.40
612.40	2056.16
612.59	2123.74
612.79	2142.18
612.98	2330.59
613.17	2338.78
613.36	2222.05
613.55	2379.74
613.74	2258.91
613.93	2392.03
614.13	2496.47
614.32	2502.62
614.51	2408.41
614.70	2389.98
614.89	2340.83
615.08	2293.72
615.28	2744.28
615.47	2156.51
615.66	2291.68
615.85	2201.57
616.04	2490.33
616.23	2295.77
616.42	2332.64
616.62	2250.72
616.81	2334.68
617.00	2236.38
617.19	2301.92
617.38	2222.05
617.57	2246.62
617.76	2334.68
617.95	2310.11
618.15	2285.53
618.34	2336.73
618.53	2097.12
618.72	2402.27
618.91	2379.74
619.10	2336.73
619.29	2238.43
619.48	2295.77
619.68	2129.89
619.87	2205.66
620.06	2119.65
620.25	2263.01
620.44	2113.50
620.63	2138.08
620.82	2242.53
621.01	2193.37
621.20	2238.43
621.39	2236.38
621.59	2328.54
621.78	2144.22
621.97	2220.00
622.16	2220.00
622.35	2299.87
622.54	2271.20
622.73	2220.00
622.92	2045.92
623.11	2283.49
623.30	2236.38
623.49	2236.38
623.68	2127.84
623.88	2359.26
624.07	2162.66
624.26	2170.85
624.45	2220.00
624.64	2140.13
624.83	2252.77
625.02	2236.38
625.21	2146.27
625.40	2301.92
625.59	2342.88
625.78	2275.29
625.97	2416.60
626.16	2330.59
626.35	2375.64
626.54	2226.14
626.74	2473.95
626.93	2277.34
627.12	2142.18
627.31	2310.11
627.50	2197.47
627.69	2375.64
627.88	2162.66
628.07	2076.64
628.26	2047.97
628.45	2281.44
628.64	2166.75
628.83	2158.56
629.02	2197.47
629.21	2273.25
629.40	2271.20
629.59	2181.09
629.78	2193.37
629.97	2220.00
630.16	2232.29
630.35	2215.90
630.54	2203.61
630.73	2215.90
630.92	2138.08
631.11	2129.89
631.30	2199.52
631.49	2355.16
631.68	2148.32
631.87	2220.00
632.06	2113.50
632.25	2469.85
632.44	2312.16
632.63	2224.09
632.82	2267.10
633.01	2248.67
633.20	2301.92
633.39	2277.34
633.58	2144.22
633.77	2297.82
633.96	2267.10
634.15	2273.25
634.34	2336.73
634.53	2164.70
634.72	2138.08
634.91	2062.30
635.10	2234.33
635.29	2322.40
635.48	2193.37
635.67	2129.89
635.86	2107.36
636.05	2389.98
636.24	2199.52
636.43	2174.94
636.62	2308.06
636.81	1976.29
637.00	2203.61
637.19	2238.43
637.38	2203.61
637.57	2217.95
637.76	2394.08
637.95	2424.80
638.14	2281.44
638.33	2344.92
638.52	2306.01
638.71	2162.66
638.89	2199.52
639.08	2437.08
639.27	2400.22
639.46	2545.63
639.65	2895.83
639.84	2940.88
640.03	3145.68
640.22	3033.04
640.41	2936.79
640.60	2611.16
640.79	2498.52
640.98	2459.61
641.17	2445.27
641.36	2449.37
641.55	2381.79
641.74	2203.61
641.92	2207.71
642.11	2117.60
642.30	2240.48
642.49	2179.04
642.68	2133.98
642.87	2207.71
643.06	2240.48
643.25	2220.00
643.44	2113.50
643.63	2166.75
643.82	2220.00
644.00	2082.78
644.19	2213.85
644.38	2103.26
644.57	2301.92
644.76	2281.44
644.95	2174.94
645.14	2217.95
645.33	2224.09
645.52	2179.04
645.71	2121.70
645.89	2193.37
646.08	2179.04
646.27	2201.57
646.46	2314.20
646.65	2162.66
646.84	2217.95
647.03	2076.64
647.22	2269.15
647.40	2256.86
647.59	2203.61
647.78	2062.30
647.97	2201.57
648.16	2158.56
648.35	2299.87
648.54	2301.92
648.73	2195.42
648.91	2275.29
649.10	2181.09
649.29	2095.07
649.48	2107.36
649.67	2195.42
649.86	2316.25
650.05	2248.67
650.23	2441.18
650.42	2277.34
650.61	2525.15
650.80	2514.91
650.99	2516.95
651.18	2351.07
651.36	2385.88
651.55	2138.08
651.74	2258.91
651.93	2310.11
652.12	2228.19
652.31	2353.12
652.49	2197.47
652.68	2283.49
652.87	2289.63
653.06	2252.77
653.25	2418.65
653.44	2277.34
653.62	2349.02
653.81	2164.70
654.00	2250.72
654.19	2346.97
654.38	2500.57
654.56	2326.49
654.75	2154.46
654.94	2285.53
655.13	2289.63
655.32	2226.14
655.51	2222.05
655.69	2185.18
655.88	2228.19
656.07	2107.36
656.26	2248.67
656.45	2103.26
656.63	2215.90
656.82	2217.95
657.01	2281.44
657.20	2109.41
657.38	2254.81
657.57	2166.75
657.76	2097.12
657.95	2277.34
658.14	2144.22
658.32	2217.95
658.51	2078.69
658.70	2271.20
658.89	2236.38
659.08	2252.77
659.26	2420.70
659.45	2283.49
659.64	2334.68
659.83	2234.33
660.01	2555.86
660.20	2310.11
660.39	2408.41
660.58	2097.12
660.76	2273.25
660.95	2072.54
661.14	2199.52
661.33	2113.50
661.51	2148.32
661.70	2179.04
661.89	2166.75
662.08	2109.41
662.26	2070.50
662.45	2082.78
662.64	2377.69
662.83	2248.67
663.01	2133.98
663.20	2125.79
663.39	2359.26
663.58	2160.61
663.76	2197.47
663.95	2183.13
664.14	2154.46
664.32	2129.89
664.51	2125.79
664.70	2015.20
664.89	2301.92
665.07	2064.35
665.26	2316.25
665.45	2107.36
665.64	2279.39
665.82	2183.13
666.01	2238.43
666.20	2093.02
666.38	2365.40
666.57	2392.03
666.76	3235.79
666.95	8093.57
667.13	16666.37
667.32	22126.25
667.51	26052.21
667.69	27772.50
667.88	25572.99
668.07	18153.20
668.25	14505.76
668.44	11890.51
668.63	10342.24
668.81	9043.83
669.00	8042.37
669.19	7085.97
669.38	6051.75
669.56	5316.53
669.75	4497.34
669.94	3741.64
670.12	3160.02
670.31	2803.67
670.50	2576.34
670.68	2500.57
670.87	2410.46
671.06	2248.67
671.24	2435.03
671.43	2430.94
671.62	2285.53
671.80	2252.77
671.99	2420.70
672.18	2299.87
672.36	2271.20
672.55	2248.67
672.74	2193.37
672.92	2209.76
673.11	2340.83
673.29	2054.11
673.48	2297.82
673.67	2146.27
673.85	2375.64
674.04	2129.89
674.23	2195.42
674.41	2349.02
674.60	2158.56
674.79	2017.25
674.97	2121.70
675.16	2303.96
675.34	2349.02
675.53	2129.89
675.72	2228.19
675.90	2371.55
676.09	2230.24
676.28	2170.85
676.46	1998.82
676.65	2250.72
676.83	2107.36
677.02	2217.95
677.21	2234.33
677.39	2228.19
677.58	2150.37
677.77	2111.46
677.95	2072.54
678.14	2224.09
678.32	2170.85
678.51	2148.32
678.70	2291.68
678.88	2154.46
679.07	2303.96
679.25	2183.13
679.44	2158.56
679.63	2062.30
679.81	2265.05
680.00	2314.20
680.18	2283.49
680.37	2334.68
680.55	2158.56
680.74	2142.18
680.93	2009.06
681.11	2269.15
681.30	2185.18
681.48	2244.57
681.67	2187.23
681.85	2138.08
682.04	2099.17
682.23	2228.19
682.41	2244.57
682.60	2111.46
682.78	2217.95
682.97	2088.93
683.15	2265.05
683.34	2238.43
683.53	2408.41
683.71	2068.45
683.90	2379.74
684.08	2326.49
684.27	2142.18
684.45	2168.80
684.64	2336.73
684.82	2142.18
685.01	2238.43
685.19	2242.53
685.38	2299.87
685.57	2138.08
685.75	2078.69
685.94	2093.02
686.12	2133.98
686.31	2103.26
686.49	2404.32
686.68	1990.63
686.86	2209.76
687.05	2176.99
687.23	2273.25
687.42	2140.13
687.60	2050.02
687.79	2301.92
687.97	2314.20
688.16	2318.30
688.34	2310.11
688.53	2058.21
688.71	2211.81
688.90	2377.69
689.08	2121.70
689.27	1966.05
689.45	2242.53
689.64	2252.77
689.82	2191.33
690.01	2258.91
690.19	2314.20
690.38	2105.31
690.56	2326.49
690.75	2121.70
690.93	2097.12
691.12	2140.13
691.30	2207.71
691.49	2187.23
691.67	2217.95
691.86	2422.75
692.04	2088.93
692.23	2176.99
692.41	2260.96
692.60	2400.22
692.78	2424.80
692.97	2299.87
693.15	2265.05
693.34	2453.47
693.52	2367.45
693.71	2127.84
693.89	2172.89
694.08	2070.50
694.26	2228.19
694.44	2318.30
694.63	2203.61
694.81	2123.74
695.00	2187.23
695.18	2357.21
695.37	2367.45
695.55	2226.14
695.74	2215.90
695.92	2148.32
696.10	2301.92
696.29	2107.36
696.47	2133.98
696.66	2131.94
696.84	2062.30
697.03	2181.09
697.21	2420.70
697.40	3268.56
697.58	2269.15
697.76	2129.89
697.95	2185.18
698.13	2121.70
698.32	2189.28
698.50	2189.28
698.68	2138.08
698.87	2207.71
699.05	2334.68
699.24	2144.22
699.42	2158.56
699.61	2267.10
699.79	2183.13
699.97	2238.43
700.16	2142.18
700.34	2056.16
700.53	2207.71
700.71	2355.16
700.89	2207.71
701.08	2195.42
701.26	2179.04
701.45	2719.70
701.63	2105.31
701.81	2187.23
702.00	2203.61
702.18	2228.19
702.37	2217.95
702.55	2430.94
702.73	2449.37
702.92	2334.68
703.10	2592.73
703.28	2500.57
703.47	2289.63
703.65	2459.61
703.84	2373.60
704.02	2277.34
704.20	2428.89
704.39	2197.47
704.57	2258.91
704.75	2375.64
704.94	2338.78
705.12	2267.10
705.30	2592.73
705.49	4593.59
705.67	11306.84
705.86	20317.90
706.04	24782.47
706.22	28372.56
706.41	29523.52
706.59	25458.30
706.77	17858.29
706.96	14929.69
707.14	12889.92
707.32	10970.97
707.51	9908.07
707.69	8122.24
707.87	6567.84
708.06	5273.52
708.24	4204.48
708.42	3407.82
708.61	2985.94
708.79	2416.60
708.97	2404.32
709.16	2447.32
709.34	2383.84
709.52	2283.49
709.71	2244.57
709.89	2236.38
710.07	2117.60
710.26	2101.22
710.44	2183.13
710.62	2357.21
710.80	2207.71
710.99	2324.44
711.17	2267.10
711.35	2185.18
711.54	2140.13
711.72	2291.68
711.90	2260.96
712.09	2201.57
712.27	2224.09
712.45	2179.04
712.63	2179.04
712.82	2150.37
713.00	2213.85
713.18	2312.16
713.37	2301.92
713.55	2252.77
713.73	2222.05
713.91	2271.20
714.10	2197.47
714.28	2203.61
714.46	2215.90
714.65	2283.49
714.83	2236.38
715.01	2291.68
715.19	2195.42
715.38	2123.74
715.56	2252.77
715.74	2146.27
715.92	2056.16
716.11	2287.58
716.29	2027.49
716.47	2291.68
716.65	2150.37
716.84	2023.39
717.02	2285.53
717.20	2099.17
717.38	2113.50
717.57	2271.20
717.75	2215.90
717.93	2193.37
718.11	2291.68
718.30	2074.59
718.48	2148.32
718.66	2293.72
718.84	2308.06
719.03	2246.62
719.21	2156.51
719.39	2287.58
719.57	2297.82
719.75	2267.10
719.94	2179.04
720.12	2187.23
720.30	2260.96
720.48	2291.68
720.67	2224.09
720.85	2121.70
721.03	2162.66
721.21	2146.27
721.39	2301.92
721.58	2324.44
721.76	2170.85
721.94	2258.91
722.12	2260.96
722.30	2389.98
722.49	2150.37
722.67	2213.85
722.85	2281.44
723.03	2113.50
723.21	2054.11
723.40	2193.37
723.58	2301.92
723.76	2275.29
723.94	2299.87
724.12	2316.25
724.30	2389.98
724.49	2367.45
724.67	2150.37
724.85	2346.97
725.03	2131.94
725.21	2273.25
725.40	2334.68
725.58	2275.29
725.76	2314.20
725.94	2269.15
726.12	2119.65
726.30	2172.89
726.49	2236.38
726.67	2168.80
726.85	2269.15
727.03	2531.29
727.21	3702.73
727.39	5447.60
727.57	6569.88
727.76	7397.26
727.94	7755.66
728.12	7470.99
728.30	5926.82
728.48	5031.86
728.66	4646.84
728.84	4020.16
729.03	3514.31
729.21	3129.30
729.39	2805.72
729.57	2471.90
729.75	2375.64
729.93	2392.03
730.11	2164.70
730.30	2127.84
730.48	2230.24
730.66	2344.92
730.84	2258.91
731.02	2250.72
731.20	2150.37
731.38	2242.53
731.56	2162.66
731.74	2019.30
731.93	2203.61
732.11	2185.18
732.29	2189.28
732.47	2291.68
732.65	2240.48
732.83	2363.36
733.01	2217.95
733.19	2131.94
733.37	2222.05
733.56	2281.44
733.74	2144.22
733.92	2371.55
734.10	2123.74
734.28	2252.77
734.46	2084.83
734.64	2209.76
734.82	2191.33
735.00	2119.65
735.18	2193.37
735.36	2185.18
735.54	2154.46
735.73	2275.29
735.91	2203.61
736.09	2232.29
736.27	2144.22
736.45	2236.38
736.63	2043.87
736.81	2080.74
736.99	2230.24
737.17	2328.54
737.35	2215.90
737.53	2240.48
737.71	2107.36
737.89	2310.11
738.07	2093.02
738.25	2146.27
738.43	2093.02
738.61	2125.79
738.80	2097.12
738.98	2097.12
739.16	2150.37
739.34	2183.13
739.52	2306.01
739.70	2160.61
739.88	2209.76
740.06	2267.10
740.24	2066.40
740.42	2334.68
740.60	2035.68
740.78	2181.09
740.96	2066.40
741.14	2172.89
741.32	2131.94
741.50	2058.21
741.68	2301.92
741.86	2410.46
742.04	2093.02
742.22	2101.22
742.40	2232.29
742.58	2254.81
742.76	2158.56
742.94	2244.57
743.12	2025.44
743.30	2224.09
743.48	2291.68
743.66	2113.50
743.84	2185.18
744.02	2193.37
744.20	2265.05
744.38	2056.16
744.56	2097.12
744.74	2394.08
744.92	2211.81
745.10	2293.72
745.28	2277.34
745.46	2392.03
745.64	2195.42
745.82	2203.61
746.00	2164.70
746.18	2181.09
746.36	2144.22
746.54	2156.51
746.72	2152.42
746.90	2039.78
747.08	2355.16
747.26	2095.07
747.44	2176.99
747.62	2279.39
747.80	2275.29
747.98	2246.62
748.15	2203.61
748.33	2430.94
748.51	2279.39
748.69	2279.39
748.87	2086.88
749.05	2109.41
749.23	2242.53
749.41	2226.14
749.59	2133.98
749.77	2256.86
749.95	2101.22
750.13	2168.80
750.31	2244.57
750.49	2154.46
750.67	2224.09
750.85	2330.59
751.03	2222.05
751.20	2404.32
751.38	2213.85
751.56	2158.56
751.74	2273.25
751.92	2105.31
752.10	2068.45
752.28	2281.44
752.46	2064.35
752.64	2224.09
752.82	2220.00
753.00	2363.36
753.18	2138.08
753.35	2205.66
753.53	2260.96
753.71	2176.99
753.89	2193.37
754.07	2283.49
754.25	2209.76
754.43	2258.91
754.61	2121.70
754.79	2238.43
754.97	2205.66
755.14	2293.72
755.32	2142.18
755.50	2203.61
755.68	2220.00
755.86	2136.03
756.04	2113.50
756.22	2019.30
756.40	2250.72
756.57	2389.98
756.75	2174.94
756.93	2269.15
757.11	2215.90
757.29	2107.36
757.47	2099.17
757.65	2047.97
757.82	2066.40
758.00	2105.31
758.18	2172.89
758.36	2131.94
758.54	2365.40
758.72	2052.06
758.90	2252.77
759.07	2332.64
759.25	2090.98
759.43	2256.86
759.61	2068.45
759.79	2967.51
759.97	2228.19
760.15	2209.76
760.32	2131.94
760.50	2277.34
760.68	2377.69
760.86	2066.40
761.04	2273.25
761.22	2271.20
761.39	2228.19
761.57	2209.76
761.75	2152.42
761.93	2250.72
762.11	2185.18
762.28	2187.23
762.46	2072.54
762.64	2281.44
762.82	2062.30
763.00	2179.04
763.18	2322.40
763.35	2072.54
763.53	2195.42
763.71	2156.51
763.89	2162.66
764.07	2242.53
764.24	2129.89
764.42	2256.86
764.60	2242.53
764.78	2125.79
764.96	2291.68
765.13	2279.39
765.31	2174.94
765.49	2236.38
765.67	2072.54
765.84	2154.46
766.02	2166.75
766.20	2052.06
766.38	2228.19
766.56	2232.29
766.73	2131.94
766.91	2154.46
767.09	2093.02
767.27	2256.86
767.44	2162.66
767.62	2236.38
767.80	2174.94
767.98	2156.51
768.15	2172.89
768.33	2275.29
768.51	2254.81
768.69	2285.53
768.87	2252.77
769.04	2209.76
769.22	2344.92
769.40	2334.68
769.58	2406.36
769.75	2203.61
769.93	2303.96
770.11	2144.22
770.28	2103.26
770.46	2308.06
770.64	2244.57
770.82	2176.99
770.99	2140.13
771.17	2289.63
771.35	2162.66
771.53	2191.33
771.70	2121.70
771.88	2258.91
772.06	2150.37
772.23	2082.78
772.41	2269.15
772.59	2164.70
772.77	2097.12
772.94	2152.42
773.12	2244.57
773.30	2117.60
773.47	2203.61
773.65	2176.99
773.83	2314.20
774.01	2166.75
774.18	2019.30
774.36	2160.61
774.54	2131.94
774.71	2162.66
774.89	2078.69
775.07	2080.74
775.24	2095.07
775.42	2195.42
775.60	2269.15
775.78	2211.81
775.95	2052.06
776.13	2015.20
776.31	1953.76
776.48	2248.67
776.66	2330.59
776.84	2160.61
777.01	2095.07
777.19	2115.55
777.37	2168.80
777.54	2248.67
777.72	2418.65
777.90	2211.81
778.07	2093.02
778.25	2445.27
778.43	2279.39
778.60	2131.94
778.78	2205.66
778.96	2306.01
779.13	2105.31
779.31	2285.53
779.49	2170.85
779.66	2213.85
779.84	2209.76
780.01	2152.42
780.19	2136.03
780.37	2301.92
780.54	2248.67
780.72	2082.78
780.90	2146.27
781.07	2185.18
781.25	2138.08
781.43	2293.72
781.60	2211.81
781.78	2365.40
781.95	2164.70
782.13	2121.70
782.31	2142.18
782.48	2002.91
782.66	2211.81
782.83	2377.69
783.01	2271.20
783.19	2267.10
783.36	2133.98
783.54	2095.07
783.72	2260.96
783.89	2183.13
784.07	2158.56
784.24	2252.77
784.42	2330.59
784.60	2265.05
784.77	2222.05
784.95	2047.97
785.12	2047.97
785.30	2252.77
785.47	2160.61
785.65	2050.02
785.83	2189.28
786.00	2123.74
786.18	2220.00
786.35	2039.78
786.53	2113.50
786.71	2344.92
786.88	2258.91
787.06	2256.86
787.23	2148.32
787.41	2197.47
787.58	2258.91
787.76	2136.03
787.94	2185.18
788.11	2158.56
788.29	2115.55
788.46	2109.41
788.64	2097.12
788.81	2195.42
788.99	2095.07
789.16	1988.58
789.34	2179.04
789.52	2166.75
789.69	2199.52
789.87	2029.54
790.04	2115.55
790.22	2209.76
790.39	2383.84
790.57	2136.03
790.74	2113.50
790.92	2242.53
791.09	2031.58
791.27	2240.48
791.44	2359.26
791.62	2125.79
791.79	2265.05
791.97	2166.75
792.15	2379.74
792.32	2224.09
792.50	2263.01
792.67	2267.10
792.85	2322.40
793.02	2183.13
793.20	2131.94
793.37	2084.83
793.55	2267.10
793.72	2129.89
793.90	2271.20
794.07	2125.79
794.25	2158.56
794.42	2209.76
794.60	2166.75
794.77	2271.20
794.95	2291.68
795.12	2314.20
795.30	2152.42
795.47	2015.20
795.65	2492.38
795.82	2187.23
796.00	2123.74
796.17	2207.71
796.34	2162.66
796.52	2187.23
796.69	2342.88
796.87	2291.68
797.04	2242.53
797.22	2256.86
797.39	2201.57
797.57	2271.20
797.74	2203.61
797.92	2187.23
798.09	2097.12
798.27	2277.34
798.44	2215.90
798.62	2121.70
798.79	2217.95
798.96	2226.14
799.14	2125.79
799.31	2426.84
799.49	2154.46
799.66	2150.37
799.84	2205.66
800.01	2080.74
800.19	2228.19
800.36	2029.54
800.53	2201.57
800.71	2357.21
800.88	2289.63
801.06	2156.51
801.23	2162.66
801.41	2123.74
801.58	2162.66
801.75	2019.30
801.93	2199.52
802.10	2179.04
802.28	2179.04
802.45	2138.08
802.63	2183.13
802.80	2287.58
802.97	2129.89
803.15	2238.43
803.32	2123.74
803.50	2121.70
803.67	1982.43
803.84	2084.83
804.02	2111.46
804.19	2195.42
804.37	1994.72
804.54	2107.36
804.71	2179.04
804.89	2209.76
805.06	2144.22
805.24	2064.35
805.41	2031.58
805.58	2119.65
805.76	2465.75
805.93	2185.18
806.10	2263.01
806.28	2242.53
806.45	2203.61
806.63	2224.09
806.80	2287.58
806.97	2234.33
807.15	2170.85
807.32	2195.42
807.49	2123.74
807.67	2035.68
807.84	2248.67
808.01	1996.77
808.19	2346.97
808.36	2355.16
808.54	2119.65
808.71	2129.89
808.88	2150.37
809.06	2299.87
809.23	2426.84
809.40	2121.70
809.58	2271.20
809.75	2127.84
809.92	2050.02
810.10	2392.03
810.27	2205.66
810.44	2267.10
810.62	2279.39
810.79	2152.42
810.96	2115.55
811.14	2131.94
811.31	2254.81
811.48	2176.99
811.66	2201.57
811.83	2238.43
812.00	2271.20
812.18	2293.72
812.35	2424.80
812.52	2103.26
812.69	2129.89
812.87	2240.48
813.04	2113.50
813.21	2119.65
813.39	2078.69
813.56	2082.78
813.73	2275.29
813.91	2039.78
814.08	2250.72
814.25	2172.89
814.42	2070.50
814.60	2119.65
814.77	2252.77
814.94	2156.51
815.12	2191.33
815.29	2330.59
815.46	2086.88
815.63	2224.09
815.81	2207.71
815.98	2185.18
816.15	2164.70
816.33	2158.56
816.50	2131.94
816.67	2168.80
816.84	2146.27
817.02	2078.69
817.19	2142.18
817.36	2187.23
817.53	2162.66
817.71	2095.07
817.88	2293.72
818.05	2131.94
818.22	2138.08
818.40	2371.55
818.57	2099.17
818.74	2203.61
818.91	2170.85
819.09	2226.14
819.26	2279.39
819.43	2072.54
819.60	2152.42
819.78	2275.29
819.95	2336.73
820.12	2160.61
820.29	2260.96
820.47	2316.25
820.64	2121.70
820.81	2039.78
820.98	2117.60
821.15	2193.37
821.33	2234.33
821.50	2101.22
821.67	2179.04
821.84	2224.09
822.02	2220.00
822.19	2299.87
822.36	2113.50
822.53	2197.47
822.70	2117.60
822.88	2166.75
823.05	2293.72
823.22	2199.52
823.39	2170.85
823.56	2203.61
823.74	2295.77
823.91	2109.41
824.08	1994.72
824.25	2095.07
824.42	2336.73
824.60	2142.18
824.77	2220.00
824.94	2150.37
825.11	2211.81
825.28	2129.89
825.45	2041.82
825.63	2203.61
825.80	2068.45
825.97	2213.85
826.14	2140.13
826.31	2088.93
826.48	2256.86
826.66	2054.11
826.83	2176.99
827.00	2162.66
827.17	2117.60
827.34	2209.76
827.51	2103.26
827.69	2133.98
827.86	2029.54
828.03	2148.32
828.20	2150.37
828.37	2154.46
828.54	2191.33
828.71	2142.18
828.89	2308.06
829.06	2179.04
829.23	2334.68
829.40	2095.07
829.57	2236.38
829.74	2228.19
829.91	2076.64
830.09	2037.73
830.26	2217.95
830.43	2291.68
830.60	2195.42
830.77	2252.77
830.94	2228.19
831.11	2228.19
831.28	2121.70
831.46	2258.91
831.63	2195.42
831.80	2295.77
831.97	2195.42
832.14	2179.04
832.31	2193.37
832.48	2125.79
832.65	2318.30
832.82	2187.23
832.99	2234.33
833.17	2084.83
833.34	2357.21
833.51	2260.96
833.68	2043.87
833.85	2346.97
834.02	2074.59
834.19	2068.45
834.36	2064.35
834.53	2203.61
834.70	2310.11
834.87	2269.15
835.04	2090.98
835.22	2097.12
835.39	2109.41
835.56	2127.84
835.73	2240.48
835.90	2271.20
836.07	2101.22
836.24	2256.86
836.41	2029.54
836.58	2080.74
836.75	2285.53
836.92	2201.57
837.09	2103.26
837.26	2297.82
837.43	2205.66
837.60	2123.74
837.77	2101.22
837.94	2287.58
838.12	2326.49
838.29	2168.80
838.46	2131.94
838.63	2086.88
838.80	2332.64
838.97	2136.03
839.14	2111.46
839.31	2150.37
839.48	2291.68
839.65	2125.79
839.82	2220.00
839.99	2144.22
840.16	2183.13
840.33	2031.58
840.50	2189.28
840.67	2146.27
840.84	2056.16
841.01	2154.46
841.18	2170.85
841.35	2176.99
841.52	2217.95
841.69	2299.87
841.86	2213.85
842.03	2189.28
842.20	2273.25
842.37	2121.70
842.54	2127.84
842.71	2138.08
842.88	2088.93
843.05	2179.04
843.22	2144.22
843.39	2293.72
843.56	2123.74
843.73	2170.85
843.90	2133.98
844.07	2129.89
844.24	2224.09
844.41	2244.57
844.58	2142.18
844.75	2199.52
844.92	2164.70
845.09	2179.04
845.26	2037.73
845.43	2201.57
845.60	2203.61
845.77	2277.34
845.94	2236.38
846.10	2293.72
846.27	2121.70
846.44	2007.01
846.61	2070.50
846.78	2246.62
846.95	2291.68
847.12	2111.46
847.29	2099.17
847.46	2119.65
847.63	2260.96
847.80	2168.80
847.97	2119.65
848.14	2303.96
848.31	2228.19
848.48	2123.74
848.65	2201.57
848.82	2195.42
848.98	2426.84
849.15	2230.24
849.32	2279.39
849.49	2306.01
849.66	2179.04
849.83	2144.22
850.00	2086.88
850.17	2240.48
850.34	2129.89
850.51	2127.84
850.68	2121.70
850.85	2422.75
851.01	2236.38
851.18	2127.84
851.35	2152.42
851.52	2277.34
851.69	2318.30
851.86	1992.67
852.03	2086.88
852.20	2287.58
852.37	2189.28
852.53	2019.30
852.70	2043.87
852.87	2164.70
853.04	2236.38
853.21	2138.08
853.38	2299.87
853.55	2285.53
853.72	2340.83
853.89	2136.03
854.05	2033.63
854.22	2160.61
854.39	2119.65
854.56	2187.23
854.73	2297.82
854.90	2117.60
855.07	2217.95
855.23	2142.18
855.40	2156.51
855.57	2176.99
855.74	2054.11
855.91	2361.31
856.08	2039.78
856.25	2136.03
856.41	2152.42
856.58	2117.60
856.75	2144.22
856.92	2062.30
857.09	2283.49
857.26	2035.68
857.42	2127.84
857.59	2250.72
857.76	2181.09
857.93	2226.14
858.10	2142.18
858.27	2088.93
858.43	2121.70
858.60	2172.89
858.77	2043.87
858.94	2129.89
859.11	2195.42
859.27	2129.89
859.44	2197.47
859.61	2385.88
859.78	2265.05
859.95	2185.18
860.12	2172.89
860.28	2422.75
860.45	2404.32
860.62	2056.16
860.79	2187.23
860.95	2199.52
861.12	2203.61
861.29	2140.13
861.46	2084.83
861.63	2176.99
861.79	2201.57
861.96	2099.17
862.13	2129.89
862.30	2283.49
862.47	2072.54
862.63	2068.45
862.80	2152.42
862.97	2285.53
863.14	2220.00
863.30	2236.38
863.47	2156.51
863.64	2316.25
863.81	2183.13
863.97	2093.02
864.14	2144.22
864.31	2064.35
864.48	2160.61
864.65	2185.18
864.81	2277.34
864.98	2152.42
865.15	2250.72
865.32	2240.48
865.48	2238.43
865.65	2400.22
865.82	2150.37
865.98	2164.70
866.15	2226.14
866.32	2162.66
866.49	2199.52
866.65	2254.81
866.82	2088.93
866.99	2140.13
867.16	2154.46
867.32	2195.42
867.49	2121.70
867.66	2168.80
867.83	2146.27
867.99	1998.82
868.16	2101.22
868.33	2015.20
868.49	2285.53
868.66	2140.13
868.83	2213.85
868.99	2285.53
869.16	2222.05
869.33	2199.52
869.50	2197.47
869.66	2201.57
869.83	2172.89
870.00	2068.45
870.16	2224.09
870.33	2113.50
870.50	2232.29
870.66	2121.70
870.83	2215.90
871.00	2138.08
871.17	2176.99
871.33	2236.38
871.50	2127.84
871.67	2154.46
871.83	2146.27
872.00	2318.30
872.17	2133.98
872.33	2392.03
872.50	2363.36
872.67	2105.31
872.83	2211.81
873.00	2162.66
873.17	2220.00
873.33	2263.01
873.50	2185.18
873.67	2170.85
873.83	2138.08
874.00	2111.46
874.16	2256.86
874.33	2148.32
874.50	2084.83
874.66	2211.81
874.83	2152.42
875.00	2250.72
875.16	2260.96
875.33	2224.09
875.50	1974.24
875.66	2185.18
875.83	2195.42
875.99	2203.61
876.16	2176.99
876.33	2113.50
876.49	2185.18
876.66	2179.04
876.83	2066.40
876.99	2000.87
877.16	2215.90
877.32	2101.22
877.49	2148.32
877.66	2260.96
877.82	2297.82
877.99	2187.23
878.15	2195.42
878.32	2160.61
878.49	2213.85
878.65	2258.91
878.82	2314.20
878.98	2183.13
879.15	2201.57
879.32	2181.09
879.48	2119.65
879.65	2242.53
879.81	2136.03
879.98	2240.48
880.15	2107.36
880.31	2273.25
880.48	2105.31
880.64	2209.76
880.81	2209.76
880.97	2301.92
881.14	2299.87
881.31	2068.45
881.47	2406.36
881.64	2168.80
881.80	2009.06
881.97	2215.90
882.13	2220.00
882.30	2164.70
882.47	2226.14
882.63	2125.79
882.80	2136.03
882.96	2127.84
883.13	2273.25
883.29	2203.61
883.46	2209.76
883.62	2449.37
883.79	2209.76
883.95	2209.76
884.12	2113.50
884.29	2254.81
884.45	2133.98
884.62	2316.25
884.78	2037.73
884.95	2365.40
885.11	2199.52
885.28	2252.77
885.44	2113.50
885.61	2203.61
885.77	2326.49
885.94	2197.47
886.10	2160.61
886.27	2195.42
886.43	2324.44
886.60	2254.81
886.76	2150.37
886.93	2144.22
887.09	2181.09
887.26	2086.88
887.42	2205.66
887.59	2326.49
887.75	2455.51
887.92	2295.77
888.08	2291.68
888.25	2367.45
888.41	2236.38
888.58	2168.80
888.74	2086.88
888.91	2140.13
>>>>>End Processed Spectral Data<<<<<
