SpectraSuite Data File
++++++++++++++++++++++++++++++++++++
Date: Thu May 05 12:35:13 CEST 2016
User: root
Dark Spectrum Present: No
Reference Spectrum Present: No
Number of Sampled Component Spectra: 1
Spectrometers: USB4C02835
Integration Time (usec): 100000 (USB4C02835)
Spectra Averaged: 1 (USB4C02835)
Boxcar Smoothing: 0 (USB4C02835)
Correct for Electrical Dark: No (USB4C02835)
Strobe/Lamp Enabled: No (USB4C02835)
Correct for Detector Non-linearity: No (USB4C02835)
Correct for Stray Light: No (USB4C02835)
Number of Pixels in Processed Spectrum: 3648
>>>>>Begin Processed Spectral Data<<<<<
177.47	1722.34
177.69	1722.34
177.91	1722.34
178.13	1785.83
178.36	1734.63
178.58	2090.98
178.80	2260.96
179.02	2105.31
179.24	2066.40
179.46	2054.11
179.68	2168.80
179.90	2201.57
180.13	2217.95
180.35	2086.88
180.57	2140.13
180.79	2269.15
181.01	2154.46
181.23	2207.71
181.45	2217.95
181.67	2238.43
181.90	2314.20
182.12	2103.26
182.34	1982.43
182.56	2279.39
182.78	2228.19
183.00	2111.46
183.22	2146.27
183.44	2043.87
183.66	2402.27
183.89	2258.91
184.11	2107.36
184.33	2211.81
184.55	2324.44
184.77	2211.81
184.99	2121.70
185.21	2179.04
185.43	2469.85
185.65	2099.17
185.87	2086.88
186.10	2363.36
186.32	2519.00
186.54	2168.80
186.76	2197.47
186.98	2265.05
187.20	2195.42
187.42	2201.57
187.64	2162.66
187.86	2324.44
188.08	2320.35
188.30	2060.26
188.52	2158.56
188.75	2320.35
188.97	2355.16
189.19	2078.69
189.41	2097.12
189.63	2293.72
189.85	2232.29
190.07	2070.50
190.29	1961.95
190.51	2258.91
190.73	2129.89
190.95	2199.52
191.17	2115.55
191.39	2136.03
191.61	2203.61
191.84	2113.50
192.06	2162.66
192.28	2090.98
192.50	2441.18
192.72	2220.00
192.94	2154.46
193.16	2248.67
193.38	2217.95
193.60	2086.88
193.82	2189.28
194.04	2232.29
194.26	2267.10
194.48	2144.22
194.70	2133.98
194.92	2138.08
195.14	2281.44
195.36	2138.08
195.58	2199.52
195.80	2181.09
196.02	2082.78
196.24	2064.35
196.46	2232.29
196.69	2113.50
196.91	2469.85
197.13	2138.08
197.35	2113.50
197.57	2349.02
197.79	2285.53
198.01	2105.31
198.23	2205.66
198.45	2203.61
198.67	2123.74
198.89	2076.64
199.11	2121.70
199.33	2127.84
199.55	2029.54
199.77	2119.65
199.99	2183.13
200.21	2138.08
200.43	2236.38
200.65	2099.17
200.87	2064.35
201.09	2220.00
201.31	2162.66
201.53	2121.70
201.75	2148.32
201.97	2220.00
202.19	2138.08
202.41	2142.18
202.63	2301.92
202.85	2226.14
203.07	2224.09
203.29	2133.98
203.51	1982.43
203.73	2144.22
203.95	2432.99
204.17	2160.61
204.39	2248.67
204.61	2277.34
204.83	2121.70
205.05	2179.04
205.27	2162.66
205.49	2439.13
205.71	2226.14
205.93	2031.58
206.15	2101.22
206.37	2232.29
206.59	2209.76
206.81	2037.73
207.03	2062.30
207.25	2056.16
207.47	2248.67
207.69	2127.84
207.91	2297.82
208.13	2365.40
208.34	2093.02
208.56	2086.88
208.78	2146.27
209.00	2176.99
209.22	2168.80
209.44	2088.93
209.66	2084.83
209.88	2281.44
210.10	2203.61
210.32	2144.22
210.54	2189.28
210.76	2131.94
210.98	2248.67
211.20	1990.63
211.42	2211.81
211.64	2342.88
211.86	2168.80
212.08	2183.13
212.30	2146.27
212.52	2174.94
212.74	2191.33
212.96	2244.57
213.17	2174.94
213.39	2254.81
213.61	2355.16
213.83	2203.61
214.05	2138.08
214.27	2342.88
214.49	2064.35
214.71	2074.59
214.93	2244.57
215.15	2152.42
215.37	2320.35
215.59	2062.30
215.81	2211.81
216.03	2314.20
216.24	2187.23
216.46	2090.98
216.68	2172.89
216.90	2240.48
217.12	2293.72
217.34	2064.35
217.56	2142.18
217.78	2252.77
218.00	2277.34
218.22	2160.61
218.44	2138.08
218.66	2195.42
218.87	2367.45
219.09	2099.17
219.31	2156.51
219.53	2224.09
219.75	2183.13
219.97	2185.18
220.19	2217.95
220.41	2187.23
220.63	2367.45
220.85	2217.95
221.06	2047.97
221.28	2334.68
221.50	2297.82
221.72	2146.27
221.94	2093.02
222.16	2166.75
222.38	2326.49
222.60	2195.42
222.82	2129.89
223.03	2224.09
223.25	2103.26
223.47	2127.84
223.69	2353.12
223.91	2220.00
224.13	2185.18
224.35	2138.08
224.57	2191.33
224.78	2234.33
225.00	2097.12
225.22	2176.99
225.44	2152.42
225.66	2236.38
225.88	2193.37
226.10	2242.53
226.32	2111.46
226.53	2408.41
226.75	2179.04
226.97	2183.13
227.19	2111.46
227.41	2064.35
227.63	2193.37
227.85	2013.15
228.06	2088.93
228.28	2127.84
228.50	2260.96
228.72	2088.93
228.94	2176.99
229.16	2111.46
229.37	2111.46
229.59	2138.08
229.81	2183.13
230.03	2099.17
230.25	2115.55
230.47	1949.67
230.69	1982.43
230.90	2285.53
231.12	2082.78
231.34	2158.56
231.56	2228.19
231.78	2185.18
232.00	2136.03
232.21	2142.18
232.43	2090.98
232.65	2047.97
232.87	2226.14
233.09	2047.97
233.30	2123.74
233.52	2277.34
233.74	2195.42
233.96	2050.02
234.18	2170.85
234.40	2144.22
234.61	2420.70
234.83	2047.97
235.05	1994.72
235.27	2377.69
235.49	2324.44
235.70	2084.83
235.92	2203.61
236.14	2234.33
236.36	2473.95
236.58	2097.12
236.79	2158.56
237.01	2189.28
237.23	2170.85
237.45	2318.30
237.67	2078.69
237.88	2228.19
238.10	2361.31
238.32	2047.97
238.54	2158.56
238.76	2172.89
238.97	2185.18
239.19	2013.15
239.41	2156.51
239.63	2260.96
239.85	2131.94
240.06	2097.12
240.28	2101.22
240.50	2297.82
240.72	2183.13
240.93	2140.13
241.15	2240.48
241.37	2203.61
241.59	2308.06
241.81	2056.16
242.02	2142.18
242.24	2199.52
242.46	2275.29
242.68	2021.35
242.89	2164.70
243.11	2267.10
243.33	2189.28
243.55	2187.23
243.76	2162.66
243.98	2111.46
244.20	2228.19
244.42	2088.93
244.64	2113.50
244.85	1986.53
245.07	2119.65
245.29	2209.76
245.51	2129.89
245.72	2252.77
245.94	2314.20
246.16	2123.74
246.38	2154.46
246.59	2113.50
246.81	2215.90
247.03	2107.36
247.24	2039.78
247.46	2117.60
247.68	2258.91
247.90	2115.55
248.11	2088.93
248.33	2269.15
248.55	2144.22
248.77	2179.04
248.98	2211.81
249.20	2228.19
249.42	2228.19
249.64	2164.70
249.85	2105.31
250.07	2193.37
250.29	2199.52
250.50	2203.61
250.72	2031.58
250.94	2170.85
251.16	2363.36
251.37	2220.00
251.59	2258.91
251.81	2217.95
252.02	2383.84
252.24	2111.46
252.46	2236.38
252.68	2156.51
252.89	2138.08
253.11	2054.11
253.33	2301.92
253.54	2373.60
253.76	2115.55
253.98	2160.61
254.20	2113.50
254.41	2131.94
254.63	2136.03
254.85	2062.30
255.06	2117.60
255.28	2193.37
255.50	2162.66
255.71	2123.74
255.93	1998.82
256.15	2127.84
256.36	2222.05
256.58	2086.88
256.80	2222.05
257.02	2152.42
257.23	2172.89
257.45	2152.42
257.67	2281.44
257.88	2107.36
258.10	2293.72
258.32	2201.57
258.53	2142.18
258.75	2287.58
258.97	2121.70
259.18	2064.35
259.40	2133.98
259.62	2328.54
259.83	2285.53
260.05	2166.75
260.27	2545.63
260.48	2353.12
260.70	2115.55
260.92	2170.85
261.13	2117.60
261.35	2213.85
261.57	2283.49
261.78	2007.01
262.00	2072.54
262.22	2250.72
262.43	2027.49
262.65	2097.12
262.86	2123.74
263.08	2475.99
263.30	2209.76
263.51	1966.05
263.73	2131.94
263.95	2361.31
264.16	2103.26
264.38	2080.74
264.60	2158.56
264.81	2144.22
265.03	2211.81
265.25	2277.34
265.46	2107.36
265.68	2279.39
265.89	2279.39
266.11	2021.35
266.33	2215.90
266.54	2326.49
266.76	2189.28
266.98	2133.98
267.19	2293.72
267.41	2256.86
267.62	2146.27
267.84	2080.74
268.06	2236.38
268.27	2220.00
268.49	2271.20
268.70	2158.56
268.92	2185.18
269.14	2090.98
269.35	2076.64
269.57	2168.80
269.79	2203.61
270.00	2129.89
270.22	2330.59
270.43	2047.97
270.65	2015.20
270.87	2299.87
271.08	2197.47
271.30	2174.94
271.51	2162.66
271.73	2258.91
271.95	2342.88
272.16	2105.31
272.38	2146.27
272.59	2211.81
272.81	2236.38
273.02	2097.12
273.24	2142.18
273.46	2271.20
273.67	2052.06
273.89	2086.88
274.10	2060.26
274.32	2222.05
274.54	2277.34
274.75	2174.94
274.97	2123.74
275.18	2244.57
275.40	2183.13
275.61	2181.09
275.83	2199.52
276.05	2066.40
276.26	2203.61
276.48	2111.46
276.69	2131.94
276.91	2127.84
277.12	2316.25
277.34	2207.71
277.55	2248.67
277.77	2310.11
277.99	2123.74
278.20	2086.88
278.42	2047.97
278.63	2158.56
278.85	2109.41
279.06	2027.49
279.28	2250.72
279.49	2326.49
279.71	2283.49
279.93	2162.66
280.14	2256.86
280.36	2150.37
280.57	2301.92
280.79	2211.81
281.00	2158.56
281.22	2236.38
281.43	2293.72
281.65	2072.54
281.86	2146.27
282.08	2203.61
282.29	2322.40
282.51	2031.58
282.73	2174.94
282.94	1986.53
283.16	2248.67
283.37	2318.30
283.59	2183.13
283.80	2228.19
284.02	2160.61
284.23	2238.43
284.45	2123.74
284.66	2133.98
284.88	2113.50
285.09	2127.84
285.31	2228.19
285.52	2254.81
285.74	2090.98
285.95	2265.05
286.17	2115.55
286.38	2256.86
286.60	2170.85
286.81	2152.42
287.03	2129.89
287.24	2142.18
287.46	2271.20
287.67	2260.96
287.89	2381.79
288.10	2172.89
288.32	2215.90
288.53	2303.96
288.75	2187.23
288.96	2195.42
289.18	2138.08
289.39	2170.85
289.61	2285.53
289.82	2398.17
290.04	2324.44
290.25	2105.31
290.47	2168.80
290.68	2179.04
290.90	2248.67
291.11	2023.39
291.33	2209.76
291.54	2117.60
291.76	2150.37
291.97	2260.96
292.18	2164.70
292.40	2170.85
292.61	2133.98
292.83	2359.26
293.04	2240.48
293.26	2252.77
293.47	2191.33
293.69	2138.08
293.90	2179.04
294.12	2334.68
294.33	2238.43
294.55	2160.61
294.76	2273.25
294.97	2310.11
295.19	2416.60
295.40	2113.50
295.62	2203.61
295.83	2277.34
296.05	2115.55
296.26	2349.02
296.48	2121.70
296.69	2150.37
296.90	2166.75
297.12	2152.42
297.33	2326.49
297.55	2250.72
297.76	2205.66
297.98	2254.81
298.19	2213.85
298.41	2240.48
298.62	2066.40
298.83	2197.47
299.05	2088.93
299.26	2158.56
299.48	2138.08
299.69	2273.25
299.90	2193.37
300.12	2125.79
300.33	2267.10
300.55	2197.47
300.76	2228.19
300.98	2037.73
301.19	2324.44
301.40	2187.23
301.62	2146.27
301.83	2238.43
302.05	2220.00
302.26	2121.70
302.47	2187.23
302.69	2103.26
302.90	2193.37
303.12	2043.87
303.33	2336.73
303.54	2320.35
303.76	2191.33
303.97	2220.00
304.19	2279.39
304.40	2121.70
304.61	2238.43
304.83	2324.44
305.04	2277.34
305.26	2201.57
305.47	2185.18
305.68	2222.05
305.90	2039.78
306.11	2326.49
306.33	2220.00
306.54	2123.74
306.75	2144.22
306.97	2072.54
307.18	2150.37
307.39	2207.71
307.61	2250.72
307.82	2064.35
308.04	2248.67
308.25	2097.12
308.46	2252.77
308.68	2211.81
308.89	2234.33
309.10	2273.25
309.32	2248.67
309.53	2207.71
309.74	2230.24
309.96	2099.17
310.17	2318.30
310.39	2115.55
310.60	2215.90
310.81	2256.86
311.03	2043.87
311.24	2310.11
311.45	2195.42
311.67	2363.36
311.88	2078.69
312.09	2160.61
312.31	2117.60
312.52	2250.72
312.73	2162.66
312.95	2086.88
313.16	2123.74
313.37	2320.35
313.59	2224.09
313.80	2312.16
314.01	2244.57
314.23	2093.02
314.44	2170.85
314.65	2080.74
314.87	2136.03
315.08	2133.98
315.29	2068.45
315.51	2168.80
315.72	2041.82
315.93	2293.72
316.15	2267.10
316.36	2140.13
316.57	2131.94
316.79	2244.57
317.00	2172.89
317.21	2183.13
317.43	2187.23
317.64	2154.46
317.85	2164.70
318.07	2021.35
318.28	2228.19
318.49	2416.60
318.70	2490.33
318.92	2422.75
319.13	2346.97
319.34	2334.68
319.56	2318.30
319.77	2359.26
319.98	2408.41
320.20	2326.49
320.41	2334.68
320.62	2211.81
320.83	2084.83
321.05	2375.64
321.26	2195.42
321.47	2240.48
321.69	2217.95
321.90	2121.70
322.11	2045.92
322.32	2211.81
322.54	2310.11
322.75	2146.27
322.96	2490.33
323.18	2070.50
323.39	2000.87
323.60	2090.98
323.81	2236.38
324.03	2152.42
324.24	2183.13
324.45	2269.15
324.66	2103.26
324.88	2334.68
325.09	2283.49
325.30	2129.89
325.52	2183.13
325.73	2250.72
325.94	2090.98
326.15	2019.30
326.37	2111.46
326.58	2220.00
326.79	2244.57
327.00	2138.08
327.22	2185.18
327.43	2103.26
327.64	2002.91
327.85	2248.67
328.07	2205.66
328.28	2346.97
328.49	2174.94
328.70	2138.08
328.92	2140.13
329.13	2256.86
329.34	2183.13
329.55	2367.45
329.76	2238.43
329.98	2181.09
330.19	2318.30
330.40	2273.25
330.61	2209.76
330.83	2252.77
331.04	2179.04
331.25	2226.14
331.46	2185.18
331.68	2084.83
331.89	2301.92
332.10	2160.61
332.31	2111.46
332.52	2193.37
332.74	2248.67
332.95	2052.06
333.16	2179.04
333.37	2258.91
333.58	2103.26
333.80	2224.09
334.01	2015.20
334.22	2148.32
334.43	2172.89
334.64	2138.08
334.86	2115.55
335.07	2142.18
335.28	2291.68
335.49	2119.65
335.70	2269.15
335.92	2324.44
336.13	2342.88
336.34	2342.88
336.55	2138.08
336.76	2195.42
336.98	2017.25
337.19	2097.12
337.40	2295.77
337.61	2420.70
337.82	2181.09
338.04	2217.95
338.25	2090.98
338.46	2166.75
338.67	2150.37
338.88	2070.50
339.09	2023.39
339.31	2179.04
339.52	2121.70
339.73	2133.98
339.94	2168.80
340.15	2279.39
340.36	2129.89
340.58	2203.61
340.79	2113.50
341.00	2252.77
341.21	2113.50
341.42	2277.34
341.63	2222.05
341.85	2217.95
342.06	2232.29
342.27	2168.80
342.48	2203.61
342.69	2078.69
342.90	2277.34
343.12	2244.57
343.33	2154.46
343.54	2342.88
343.75	2365.40
343.96	2170.85
344.17	2052.06
344.38	2236.38
344.60	2129.89
344.81	2105.31
345.02	2136.03
345.23	2250.72
345.44	2398.17
345.65	2283.49
345.86	2248.67
346.07	2176.99
346.29	2193.37
346.50	2181.09
346.71	2269.15
346.92	2351.07
347.13	2441.18
347.34	2197.47
347.55	2146.27
347.76	2203.61
347.98	2047.97
348.19	2179.04
348.40	2265.05
348.61	2185.18
348.82	2404.32
349.03	2256.86
349.24	2043.87
349.45	2371.55
349.66	2039.78
349.88	2142.18
350.09	2111.46
350.30	2193.37
350.51	2248.67
350.72	2291.68
350.93	2191.33
351.14	2101.22
351.35	2211.81
351.56	2275.29
351.77	2154.46
351.99	2179.04
352.20	2381.79
352.41	2265.05
352.62	2009.06
352.83	2269.15
353.04	2154.46
353.25	2138.08
353.46	2238.43
353.67	2281.44
353.88	2056.16
354.09	2224.09
354.30	2191.33
354.52	2170.85
354.73	2195.42
354.94	2107.36
355.15	2121.70
355.36	2349.02
355.57	2197.47
355.78	2193.37
355.99	2043.87
356.20	2138.08
356.41	2314.20
356.62	2191.33
356.83	2258.91
357.04	2293.72
357.25	2117.60
357.46	2119.65
357.68	2068.45
357.89	2103.26
358.10	2205.66
358.31	2103.26
358.52	2213.85
358.73	2060.26
358.94	2078.69
359.15	2209.76
359.36	2258.91
359.57	2121.70
359.78	2158.56
359.99	2213.85
360.20	2152.42
360.41	2172.89
360.62	2234.33
360.83	2232.29
361.04	2199.52
361.25	2271.20
361.46	2318.30
361.67	2211.81
361.88	2230.24
362.09	2256.86
362.30	2215.90
362.51	2195.42
362.72	2183.13
362.93	2244.57
363.14	2203.61
363.35	2211.81
363.56	2129.89
363.78	2293.72
363.99	2330.59
364.20	2176.99
364.41	2220.00
364.62	2441.18
364.83	2265.05
365.04	2185.18
365.25	2176.99
365.46	2392.03
365.67	2154.46
365.88	2185.18
366.09	2150.37
366.30	2109.41
366.51	2176.99
366.72	2015.20
366.93	2211.81
367.14	2291.68
367.35	2359.26
367.56	2185.18
367.77	2312.16
367.98	2168.80
368.18	2211.81
368.39	2228.19
368.60	2068.45
368.81	2310.11
369.02	2166.75
369.23	2166.75
369.44	2047.97
369.65	2195.42
369.86	2248.67
370.07	2318.30
370.28	2129.89
370.49	2269.15
370.70	2273.25
370.91	2117.60
371.12	2117.60
371.33	2267.10
371.54	2117.60
371.75	2318.30
371.96	1982.43
372.17	2260.96
372.38	2228.19
372.59	2263.01
372.80	2090.98
373.01	2189.28
373.22	2205.66
373.43	2205.66
373.64	2111.46
373.85	2316.25
374.06	2322.40
374.26	2199.52
374.47	2220.00
374.68	2310.11
374.89	2244.57
375.10	2193.37
375.31	2240.48
375.52	2213.85
375.73	2244.57
375.94	2144.22
376.15	2349.02
376.36	2179.04
376.57	2187.23
376.78	2131.94
376.99	2244.57
377.20	2342.88
377.40	2168.80
377.61	2357.21
377.82	2121.70
378.03	2330.59
378.24	2289.63
378.45	2248.67
378.66	2158.56
378.87	2064.35
379.08	2041.82
379.29	2084.83
379.50	2232.29
379.71	2201.57
379.91	2215.90
380.12	2187.23
380.33	2133.98
380.54	2211.81
380.75	2248.67
380.96	2168.80
381.17	2209.76
381.38	2103.26
381.59	2242.53
381.80	2226.14
382.00	2377.69
382.21	2371.55
382.42	2383.84
382.63	2387.93
382.84	2289.63
383.05	2320.35
383.26	2324.44
383.47	2230.24
383.68	2295.77
383.88	2244.57
384.09	2197.47
384.30	2369.50
384.51	2127.84
384.72	2109.41
384.93	2017.25
385.14	2250.72
385.35	2277.34
385.55	2080.74
385.76	2293.72
385.97	2254.81
386.18	2019.30
386.39	2176.99
386.60	2146.27
386.81	2154.46
387.02	2119.65
387.22	2154.46
387.43	2263.01
387.64	2228.19
387.85	2420.70
388.06	2373.60
388.27	4169.66
388.48	8658.81
388.68	12427.07
388.89	14575.39
389.10	15720.21
389.31	14618.40
389.52	11530.06
389.73	9836.39
389.93	8771.45
390.14	8206.21
390.35	7315.34
390.56	6444.96
390.77	5328.81
390.98	4116.42
391.18	3317.71
391.39	2719.70
391.60	2379.74
391.81	2349.02
392.02	2187.23
392.23	2430.94
392.43	2248.67
392.64	2289.63
392.85	2158.56
393.06	2338.78
393.27	2281.44
393.47	2056.16
393.68	2228.19
393.89	2152.42
394.10	2355.16
394.31	2070.50
394.52	2228.19
394.72	2095.07
394.93	2435.03
395.14	2047.97
395.35	2115.55
395.56	2097.12
395.76	2119.65
395.97	2224.09
396.18	2379.74
396.39	2379.74
396.60	2701.27
396.80	2490.33
397.01	2351.07
397.22	2437.08
397.43	2269.15
397.64	2133.98
397.84	2289.63
398.05	2408.41
398.26	2195.42
398.47	2265.05
398.67	2279.39
398.88	2232.29
399.09	2203.61
399.30	2187.23
399.51	2193.37
399.71	2156.51
399.92	2164.70
400.13	2299.87
400.34	2154.46
400.54	2209.76
400.75	2385.88
400.96	2250.72
401.17	2396.12
401.37	2258.91
401.58	2133.98
401.79	2162.66
402.00	2306.01
402.21	2643.93
402.41	2586.58
402.62	2519.00
402.83	2662.36
403.04	2625.50
403.24	2766.81
403.45	2301.92
403.66	2432.99
403.87	2385.88
404.07	2383.84
404.28	2439.13
404.49	2455.51
404.70	2322.40
404.90	2299.87
405.11	2244.57
405.32	2213.85
405.52	2168.80
405.73	2136.03
405.94	2082.78
406.15	2185.18
406.35	2260.96
406.56	2277.34
406.77	2187.23
406.98	2250.72
407.18	2211.81
407.39	2381.79
407.60	2148.32
407.80	2258.91
408.01	2129.89
408.22	2232.29
408.43	2138.08
408.63	2187.23
408.84	2234.33
409.05	2295.77
409.25	2119.65
409.46	2070.50
409.67	2146.27
409.88	2136.03
410.08	2293.72
410.29	2205.66
410.50	2269.15
410.70	2301.92
410.91	2054.11
411.12	2226.14
411.32	2246.62
411.53	2144.22
411.74	2256.86
411.95	2275.29
412.15	2215.90
412.36	2381.79
412.57	2228.19
412.77	2375.64
412.98	2181.09
413.19	2179.04
413.39	2287.58
413.60	2267.10
413.81	2367.45
414.01	2080.74
414.22	2217.95
414.43	2324.44
414.63	2176.99
414.84	2246.62
415.05	2244.57
415.25	2047.97
415.46	2258.91
415.67	2127.84
415.87	2226.14
416.08	2166.75
416.29	2170.85
416.49	2267.10
416.70	2138.08
416.91	2156.51
417.11	2258.91
417.32	2349.02
417.53	2201.57
417.73	2205.66
417.94	2193.37
418.15	2121.70
418.35	2172.89
418.56	2187.23
418.77	2432.99
418.97	2144.22
419.18	2230.24
419.38	1990.63
419.59	2226.14
419.80	2318.30
420.00	2111.46
420.21	2176.99
420.42	2306.01
420.62	2269.15
420.83	2133.98
421.04	2172.89
421.24	2187.23
421.45	2312.16
421.65	2189.28
421.86	2166.75
422.07	2236.38
422.27	2275.29
422.48	2211.81
422.69	2090.98
422.89	2232.29
423.10	2195.42
423.30	2068.45
423.51	2209.76
423.72	2355.16
423.92	2269.15
424.13	2084.83
424.33	2156.51
424.54	2324.44
424.75	2170.85
424.95	2363.36
425.16	2226.14
425.36	2189.28
425.57	2250.72
425.78	2240.48
425.98	2256.86
426.19	2146.27
426.39	2140.13
426.60	2250.72
426.81	2338.78
427.01	2199.52
427.22	2088.93
427.42	2107.36
427.63	2217.95
427.83	2285.53
428.04	2392.03
428.25	2275.29
428.45	2267.10
428.66	2357.21
428.86	2144.22
429.07	2121.70
429.28	2265.05
429.48	2269.15
429.69	2068.45
429.89	2234.33
430.10	2111.46
430.30	2263.01
430.51	2351.07
430.71	2086.88
430.92	2189.28
431.13	2179.04
431.33	2236.38
431.54	2162.66
431.74	2340.83
431.95	2365.40
432.15	2125.79
432.36	2136.03
432.56	2254.81
432.77	2359.26
432.98	2377.69
433.18	2248.67
433.39	2127.84
433.59	2203.61
433.80	2332.64
434.00	2412.51
434.21	2209.76
434.41	2166.75
434.62	2394.08
434.82	2086.88
435.03	2158.56
435.23	2179.04
435.44	2043.87
435.64	2166.75
435.85	2172.89
436.06	2306.01
436.26	2265.05
436.47	2185.18
436.67	2117.60
436.88	2164.70
437.08	2248.67
437.29	2299.87
437.49	2271.20
437.70	2287.58
437.90	2191.33
438.11	2371.55
438.31	2271.20
438.52	2400.22
438.72	2424.80
438.93	2424.80
439.13	2258.91
439.34	2355.16
439.54	2279.39
439.75	2357.21
439.95	2277.34
440.16	2269.15
440.36	2281.44
440.57	2174.94
440.77	2185.18
440.98	2260.96
441.18	2318.30
441.39	2226.14
441.59	2187.23
441.80	2385.88
442.00	2250.72
442.21	2383.84
442.41	2179.04
442.62	2310.11
442.82	2090.98
443.02	2160.61
443.23	2209.76
443.43	2154.46
443.64	2394.08
443.84	2142.18
444.05	2322.40
444.25	2162.66
444.46	2215.90
444.66	2250.72
444.87	2389.98
445.07	2064.35
445.28	2148.32
445.48	2217.95
445.69	2334.68
445.89	2435.03
446.09	2183.13
446.30	2457.56
446.50	2826.20
446.71	4427.71
446.91	5545.90
447.12	6518.68
447.32	6854.55
447.53	6326.18
447.73	5101.49
447.93	4601.79
448.14	4118.47
448.34	4009.92
448.55	3637.19
448.75	3540.94
448.96	3385.29
449.16	3043.28
449.36	2904.02
449.57	2527.19
449.77	2287.58
449.98	2207.71
450.18	2267.10
450.39	2318.30
450.59	2238.43
450.79	2281.44
451.00	2179.04
451.20	2244.57
451.41	2166.75
451.61	2324.44
451.81	2172.89
452.02	2185.18
452.22	2187.23
452.43	2129.89
452.63	2131.94
452.84	2267.10
453.04	2158.56
453.24	2236.38
453.45	2119.65
453.65	2195.42
453.86	2240.48
454.06	2236.38
454.26	2213.85
454.47	2043.87
454.67	2281.44
454.87	2203.61
455.08	2203.61
455.28	2291.68
455.49	2226.14
455.69	2150.37
455.89	2420.70
456.10	2299.87
456.30	2195.42
456.51	2338.78
456.71	2140.13
456.91	2248.67
457.12	2164.70
457.32	2248.67
457.52	2076.64
457.73	2250.72
457.93	2308.06
458.14	2093.02
458.34	2039.78
458.54	2187.23
458.75	2127.84
458.95	2322.40
459.15	2211.81
459.36	2207.71
459.56	2258.91
459.76	2422.75
459.97	2230.24
460.17	2203.61
460.37	2293.72
460.58	2191.33
460.78	2318.30
460.99	2179.04
461.19	2127.84
461.39	2142.18
461.60	2189.28
461.80	2232.29
462.00	2121.70
462.21	2195.42
462.41	2123.74
462.61	2093.02
462.82	2088.93
463.02	2254.81
463.22	2265.05
463.43	2244.57
463.63	2203.61
463.83	2351.07
464.04	2195.42
464.24	2293.72
464.44	2152.42
464.64	2314.20
464.85	2283.49
465.05	2181.09
465.25	2158.56
465.46	2213.85
465.66	2303.96
465.86	2260.96
466.07	2269.15
466.27	2179.04
466.47	2224.09
466.68	2117.60
466.88	2381.79
467.08	2275.29
467.29	2324.44
467.49	2220.00
467.69	2211.81
467.89	2211.81
468.10	2250.72
468.30	2242.53
468.50	2226.14
468.71	2269.15
468.91	2095.07
469.11	2383.84
469.31	2242.53
469.52	2105.31
469.72	2396.12
469.92	2414.56
470.13	2176.99
470.33	2228.19
470.53	2326.49
470.73	2668.50
470.94	3121.10
471.14	3248.08
471.34	3618.76
471.54	3422.16
471.75	3162.06
471.95	2928.60
472.15	2693.08
472.36	2818.00
472.56	2826.20
472.76	2875.35
472.96	2621.40
473.17	2568.15
473.37	2455.51
473.57	2242.53
473.77	2283.49
473.98	2236.38
474.18	2162.66
474.38	2469.85
474.58	2117.60
474.79	2119.65
474.99	2215.90
475.19	2240.48
475.39	2101.22
475.60	2269.15
475.80	2281.44
476.00	2242.53
476.20	2179.04
476.41	2271.20
476.61	2322.40
476.81	2355.16
477.01	2082.78
477.21	2334.68
477.42	2211.81
477.62	2168.80
477.82	2285.53
478.02	2146.27
478.23	2230.24
478.43	2101.22
478.63	2179.04
478.83	2179.04
479.03	2142.18
479.24	2318.30
479.44	2412.51
479.64	2176.99
479.84	2000.87
480.04	2172.89
480.25	2285.53
480.45	2156.51
480.65	2189.28
480.85	2367.45
481.06	2138.08
481.26	2283.49
481.46	2238.43
481.66	2236.38
481.86	2174.94
482.06	2242.53
482.27	2133.98
482.47	2199.52
482.67	2176.99
482.87	2101.22
483.07	2332.64
483.28	2187.23
483.48	2162.66
483.68	2244.57
483.88	2113.50
484.08	2037.73
484.29	2129.89
484.49	2293.72
484.69	2105.31
484.89	2408.41
485.09	2211.81
485.29	2152.42
485.50	2265.05
485.70	2176.99
485.90	2273.25
486.10	2232.29
486.30	2174.94
486.50	2236.38
486.71	2242.53
486.91	2328.54
487.11	2289.63
487.31	2117.60
487.51	2242.53
487.71	2254.81
487.91	2080.74
488.12	2121.70
488.32	2023.39
488.52	2160.61
488.72	1982.43
488.92	2230.24
489.12	2324.44
489.32	2301.92
489.53	2281.44
489.73	2170.85
489.93	2285.53
490.13	2123.74
490.33	2045.92
490.53	2224.09
490.73	2281.44
490.94	2080.74
491.14	2267.10
491.34	2285.53
491.54	2559.96
491.74	3203.02
491.94	3850.18
492.14	4100.03
492.34	4083.65
492.54	3776.45
492.75	3231.69
492.95	3096.53
493.15	2936.79
493.35	2918.36
493.55	2803.67
493.75	2684.89
493.95	2703.32
494.15	2535.39
494.35	2340.83
494.56	2342.88
494.76	2228.19
494.96	2326.49
495.16	2248.67
495.36	2203.61
495.56	2199.52
495.76	2185.18
495.96	2242.53
496.16	2133.98
496.36	2412.51
496.56	2193.37
496.77	2240.48
496.97	2158.56
497.17	2326.49
497.37	2086.88
497.57	2234.33
497.77	2166.75
497.97	2084.83
498.17	2170.85
498.37	2217.95
498.57	2310.11
498.77	2203.61
498.97	2250.72
499.17	2426.84
499.38	2228.19
499.58	2324.44
499.78	2269.15
499.98	2353.12
500.18	2090.98
500.38	2189.28
500.58	2435.03
500.78	2932.69
500.98	5146.55
501.18	7258.00
501.38	8974.20
501.58	9842.54
501.78	9713.52
501.98	7757.71
502.18	6543.26
502.38	5506.99
502.58	5136.31
502.78	4583.35
502.98	4501.44
503.18	4280.25
503.38	3977.16
503.59	3504.07
503.79	3223.50
503.99	2926.55
504.19	2791.38
504.39	2875.35
504.59	2889.68
504.79	2904.02
504.99	2820.05
505.19	2592.73
505.39	2471.90
505.59	2645.98
505.79	2564.06
505.99	2416.60
506.19	2326.49
506.39	2469.85
506.59	2277.34
506.79	2244.57
506.99	2375.64
507.19	2222.05
507.39	2291.68
507.59	2131.94
507.79	2136.03
507.99	2043.87
508.19	2361.31
508.39	2176.99
508.59	2168.80
508.79	2291.68
508.99	2381.79
509.19	2109.41
509.39	2195.42
509.59	2127.84
509.79	2150.37
509.99	2230.24
510.19	2310.11
510.39	2287.58
510.59	2232.29
510.79	2195.42
510.99	2095.07
511.19	2148.32
511.39	2408.41
511.59	2260.96
511.79	2383.84
511.99	2176.99
512.19	2342.88
512.38	2226.14
512.58	2086.88
512.78	2236.38
512.98	2312.16
513.18	2387.93
513.38	2021.35
513.58	2158.56
513.78	2160.61
513.98	2242.53
514.18	2176.99
514.38	2197.47
514.58	2320.35
514.78	2195.42
514.98	2185.18
515.18	2115.55
515.38	2111.46
515.58	2404.32
515.78	2154.46
515.98	2205.66
516.18	2301.92
516.38	2230.24
516.57	2156.51
516.77	2230.24
516.97	2258.91
517.17	2201.57
517.37	2056.16
517.57	2267.10
517.77	2267.10
517.97	2179.04
518.17	2220.00
518.37	2097.12
518.57	2189.28
518.77	2148.32
518.97	2201.57
519.16	2310.11
519.36	2346.97
519.56	2211.81
519.76	2207.71
519.96	2162.66
520.16	2260.96
520.36	2088.93
520.56	2338.78
520.76	2146.27
520.96	2146.27
521.16	2406.36
521.35	2279.39
521.55	2365.40
521.75	2187.23
521.95	2119.65
522.15	2193.37
522.35	2035.68
522.55	2146.27
522.75	2303.96
522.95	2172.89
523.14	2121.70
523.34	2207.71
523.54	2138.08
523.74	2224.09
523.94	2283.49
524.14	2129.89
524.34	2306.01
524.54	2385.88
524.73	2242.53
524.93	2252.77
525.13	2265.05
525.33	2133.98
525.53	2367.45
525.73	2226.14
525.93	2205.66
526.13	2215.90
526.32	2160.61
526.52	2256.86
526.72	2285.53
526.92	2209.76
527.12	2189.28
527.32	2088.93
527.52	2205.66
527.71	2168.80
527.91	2129.89
528.11	2205.66
528.31	2236.38
528.51	2154.46
528.71	2283.49
528.90	2232.29
529.10	2252.77
529.30	2293.72
529.50	1992.67
529.70	2217.95
529.90	2211.81
530.09	2217.95
530.29	2121.70
530.49	2217.95
530.69	2547.67
530.89	2179.04
531.09	2244.57
531.28	2220.00
531.48	2383.84
531.68	2230.24
531.88	2131.94
532.08	2277.34
532.28	2207.71
532.47	2258.91
532.67	2332.64
532.87	2301.92
533.07	2152.42
533.27	2301.92
533.46	2240.48
533.66	2232.29
533.86	2224.09
534.06	2234.33
534.26	2224.09
534.45	2246.62
534.65	2316.25
534.85	2191.33
535.05	2195.42
535.25	2269.15
535.44	2168.80
535.64	2234.33
535.84	2211.81
536.04	2158.56
536.24	2127.84
536.43	2072.54
536.63	2205.66
536.83	2201.57
537.03	2199.52
537.22	2056.16
537.42	2047.97
537.62	2236.38
537.82	2086.88
538.02	2359.26
538.21	2332.64
538.41	2510.81
538.61	2281.44
538.81	2113.50
539.00	2291.68
539.20	2090.98
539.40	2201.57
539.60	2179.04
539.79	2299.87
539.99	2236.38
540.19	2117.60
540.39	2156.51
540.58	2197.47
540.78	2236.38
540.98	2170.85
541.18	2351.07
541.37	2277.34
541.57	2250.72
541.77	2271.20
541.97	2129.89
542.16	2047.97
542.36	2207.71
542.56	2152.42
542.76	2359.26
542.95	2275.29
543.15	2242.53
543.35	2260.96
543.54	2195.42
543.74	2211.81
543.94	2308.06
544.14	2174.94
544.33	2310.11
544.53	2131.94
544.73	2201.57
544.93	2123.74
545.12	2176.99
545.32	2201.57
545.52	2123.74
545.71	2113.50
545.91	2111.46
546.11	2138.08
546.30	2142.18
546.50	2222.05
546.70	2267.10
546.90	2191.33
547.09	2097.12
547.29	2195.42
547.49	2310.11
547.68	2260.96
547.88	2156.51
548.08	2265.05
548.27	2711.51
548.47	2097.12
548.67	2176.99
548.87	2201.57
549.06	2209.76
549.26	2252.77
549.46	2228.19
549.65	2170.85
549.85	2183.13
550.05	2222.05
550.24	2072.54
550.44	2199.52
550.64	2281.44
550.83	2195.42
551.03	2383.84
551.23	2310.11
551.42	2215.90
551.62	2150.37
551.82	2191.33
552.01	2154.46
552.21	2332.64
552.41	2127.84
552.60	2406.36
552.80	2242.53
553.00	2113.50
553.19	2179.04
553.39	2383.84
553.59	2142.18
553.78	2283.49
553.98	2201.57
554.17	2113.50
554.37	2293.72
554.57	2289.63
554.76	2095.07
554.96	2111.46
555.16	2246.62
555.35	2207.71
555.55	2226.14
555.75	2291.68
555.94	2232.29
556.14	2064.35
556.33	2256.86
556.53	2203.61
556.73	2301.92
556.92	2283.49
557.12	2301.92
557.32	2437.08
557.51	2342.88
557.71	2217.95
557.90	2342.88
558.10	2308.06
558.30	2064.35
558.49	2138.08
558.69	2162.66
558.88	2277.34
559.08	2238.43
559.28	2197.47
559.47	2215.90
559.67	2248.67
559.86	2371.55
560.06	2179.04
560.26	2140.13
560.45	2275.29
560.65	2203.61
560.84	2285.53
561.04	2146.27
561.24	2250.72
561.43	2158.56
561.63	2371.55
561.82	2308.06
562.02	2250.72
562.22	2086.88
562.41	2103.26
562.61	2228.19
562.80	2121.70
563.00	2488.28
563.19	2277.34
563.39	2248.67
563.59	2248.67
563.78	2158.56
563.98	2021.35
564.17	2131.94
564.37	2064.35
564.56	2252.77
564.76	2090.98
564.96	2297.82
565.15	2250.72
565.35	2531.29
565.54	2166.75
565.74	2226.14
565.93	2236.38
566.13	2205.66
566.32	2269.15
566.52	2252.77
566.71	2293.72
566.91	2371.55
567.11	2283.49
567.30	2191.33
567.50	2242.53
567.69	2158.56
567.89	2170.85
568.08	2109.41
568.28	2220.00
568.47	2152.42
568.67	2209.76
568.86	2129.89
569.06	2226.14
569.25	2209.76
569.45	2113.50
569.64	2181.09
569.84	2267.10
570.04	2197.47
570.23	2129.89
570.43	2176.99
570.62	2269.15
570.82	2359.26
571.01	2164.70
571.21	2097.12
571.40	2113.50
571.60	2310.11
571.79	2207.71
571.99	2179.04
572.18	2215.90
572.38	2301.92
572.57	2152.42
572.77	2217.95
572.96	2512.86
573.16	2265.05
573.35	2230.24
573.55	2383.84
573.74	2252.77
573.94	2162.66
574.13	2176.99
574.33	2301.92
574.52	2346.97
574.71	2226.14
574.91	2281.44
575.10	2097.12
575.30	2187.23
575.49	2199.52
575.69	2172.89
575.88	2269.15
576.08	2244.57
576.27	2363.36
576.47	2283.49
576.66	2416.60
576.86	2373.60
577.05	2269.15
577.25	2277.34
577.44	2490.33
577.64	2179.04
577.83	2371.55
578.02	2195.42
578.22	2373.60
578.41	2441.18
578.61	2187.23
578.80	2127.84
579.00	2287.58
579.19	2162.66
579.39	2293.72
579.58	2312.16
579.77	2220.00
579.97	2422.75
580.16	2373.60
580.36	2389.98
580.55	2260.96
580.75	2289.63
580.94	2209.76
581.13	2502.62
581.33	2371.55
581.52	2324.44
581.72	2445.27
581.91	2416.60
582.11	2318.30
582.30	2328.54
582.49	2211.81
582.69	2383.84
582.88	2351.07
583.08	2273.25
583.27	2340.83
583.47	2301.92
583.66	2105.31
583.85	2166.75
584.05	2201.57
584.24	2394.08
584.44	2293.72
584.63	2392.03
584.82	2422.75
585.02	2502.62
585.21	2406.36
585.41	2406.36
585.60	2346.97
585.79	2609.11
585.99	2408.41
586.18	2344.92
586.37	2897.88
586.57	4470.72
586.76	13266.74
586.96	32339.47
587.15	45985.09
587.34	55563.44
587.54	60787.81
587.73	55643.31
587.93	39202.22
588.12	29818.42
588.31	23899.80
588.51	20655.81
588.70	19044.06
588.89	17506.04
589.09	15058.71
589.28	12910.40
589.47	10532.70
589.67	8261.51
589.86	6447.01
590.06	4771.77
590.25	3733.45
590.44	3180.50
590.64	2736.09
590.83	2625.50
591.02	2521.05
591.22	2301.92
591.41	2367.45
591.60	2234.33
591.80	2490.33
591.99	2138.08
592.18	2252.77
592.38	2301.92
592.57	2197.47
592.76	2220.00
592.96	2246.62
593.15	2217.95
593.34	2275.29
593.54	2234.33
593.73	2336.73
593.92	2263.01
594.12	2322.40
594.31	2277.34
594.50	2418.65
594.70	2207.71
594.89	2490.33
595.08	2181.09
595.28	2340.83
595.47	2545.63
595.66	2308.06
595.86	2174.94
596.05	2234.33
596.24	2181.09
596.43	2463.71
596.63	2383.84
596.82	2340.83
597.01	2236.38
597.21	2408.41
597.40	2330.59
597.59	2209.76
597.79	2162.66
597.98	2267.10
598.17	2234.33
598.36	2238.43
598.56	2273.25
598.75	2174.94
598.94	2240.48
599.14	2250.72
599.33	2136.03
599.52	2232.29
599.71	2285.53
599.91	2246.62
600.10	2217.95
600.29	2250.72
600.48	2310.11
600.68	2308.06
600.87	2273.25
601.06	2170.85
601.26	2211.81
601.45	2275.29
601.64	2154.46
601.83	2322.40
602.03	2152.42
602.22	2054.11
602.41	2236.38
602.60	2461.66
602.80	2371.55
602.99	2277.34
603.18	2160.61
603.37	2277.34
603.57	2193.37
603.76	2320.35
603.95	2295.77
604.14	2193.37
604.34	2131.94
604.53	2183.13
604.72	2279.39
604.91	2228.19
605.10	2232.29
605.30	2084.83
605.49	2416.60
605.68	2273.25
605.87	2220.00
606.07	2189.28
606.26	2230.24
606.45	2228.19
606.64	2217.95
606.84	2185.18
607.03	2260.96
607.22	2322.40
607.41	2269.15
607.60	2209.76
607.80	2406.36
607.99	2222.05
608.18	2234.33
608.37	2095.07
608.56	2150.37
608.76	2326.49
608.95	2373.60
609.14	2275.29
609.33	2402.27
609.52	2467.80
609.72	2383.84
609.91	2377.69
610.10	2330.59
610.29	2357.21
610.48	2207.71
610.68	2263.01
610.87	2160.61
611.06	2217.95
611.25	2254.81
611.44	2303.96
611.63	2131.94
611.83	2308.06
612.02	2115.55
612.21	2389.98
612.40	2015.20
612.59	2127.84
612.79	2070.50
612.98	2207.71
613.17	2461.66
613.36	2312.16
613.55	2428.89
613.74	2293.72
613.93	2435.03
614.13	2441.18
614.32	2553.82
614.51	2426.84
614.70	2326.49
614.89	2211.81
615.08	2334.68
615.28	2752.47
615.47	2228.19
615.66	2238.43
615.85	2260.96
616.04	2373.60
616.23	2299.87
616.42	2281.44
616.62	2244.57
616.81	2244.57
617.00	2308.06
617.19	2256.86
617.38	2150.37
617.57	2236.38
617.76	2396.12
617.95	2310.11
618.15	2349.02
618.34	2385.88
618.53	2142.18
618.72	2375.64
618.91	2312.16
619.10	2289.63
619.29	2283.49
619.48	2189.28
619.68	2174.94
619.87	2197.47
620.06	2111.46
620.25	2291.68
620.44	2197.47
620.63	2146.27
620.82	2271.20
621.01	2250.72
621.20	2191.33
621.39	2258.91
621.59	2320.35
621.78	2172.89
621.97	2179.04
622.16	2326.49
622.35	2324.44
622.54	2287.58
622.73	2277.34
622.92	2086.88
623.11	2310.11
623.30	2191.33
623.49	2215.90
623.68	2209.76
623.88	2367.45
624.07	2131.94
624.26	2119.65
624.45	2301.92
624.64	2176.99
624.83	2224.09
625.02	2144.22
625.21	2111.46
625.40	2146.27
625.59	2295.77
625.78	2215.90
625.97	2363.36
626.16	2441.18
626.35	2363.36
626.54	2353.12
626.74	2377.69
626.93	2277.34
627.12	2209.76
627.31	2338.78
627.50	2267.10
627.69	2336.73
627.88	2084.83
628.07	2164.70
628.26	2047.97
628.45	2193.37
628.64	2150.37
628.83	2133.98
629.02	2158.56
629.21	2254.81
629.40	2269.15
629.59	2185.18
629.78	2148.32
629.97	2279.39
630.16	2252.77
630.35	2209.76
630.54	2242.53
630.73	2187.23
630.92	2244.57
631.11	2123.74
631.30	2211.81
631.49	2334.68
631.68	2269.15
631.87	2263.01
632.06	2152.42
632.25	2473.95
632.44	2248.67
632.63	2310.11
632.82	2273.25
633.01	2310.11
633.20	2248.67
633.39	2238.43
633.58	2140.13
633.77	2277.34
633.96	2365.40
634.15	2242.53
634.34	2275.29
634.53	2203.61
634.72	2246.62
634.91	2035.68
635.10	2254.81
635.29	2293.72
635.48	2232.29
635.67	2185.18
635.86	2107.36
636.05	2418.65
636.24	2189.28
636.43	2148.32
636.62	2193.37
636.81	2035.68
637.00	2154.46
637.19	2287.58
637.38	2189.28
637.57	2236.38
637.76	2234.33
637.95	2267.10
638.14	2297.82
638.33	2320.35
638.52	2308.06
638.71	2176.99
638.89	2191.33
639.08	2484.19
639.27	2394.08
639.46	2490.33
639.65	2867.16
639.84	2875.35
640.03	3209.17
640.22	2881.49
640.41	3024.85
640.60	2588.63
640.79	2559.96
640.98	2480.09
641.17	2443.23
641.36	2488.28
641.55	2387.93
641.74	2146.27
641.92	2203.61
642.11	2205.66
642.30	2258.91
642.49	2138.08
642.68	2185.18
642.87	2342.88
643.06	2220.00
643.25	2080.74
643.44	2133.98
643.63	2185.18
643.82	2340.83
644.00	2131.94
644.19	2207.71
644.38	2060.26
644.57	2281.44
644.76	2146.27
644.95	2181.09
645.14	2260.96
645.33	2256.86
645.52	2220.00
645.71	2121.70
645.89	2070.50
646.08	2150.37
646.27	2236.38
646.46	2301.92
646.65	2047.97
646.84	2164.70
647.03	2123.74
647.22	2375.64
647.40	2181.09
647.59	2148.32
647.78	2060.26
647.97	2131.94
648.16	2047.97
648.35	2299.87
648.54	2211.81
648.73	2187.23
648.91	2326.49
649.10	2170.85
649.29	2148.32
649.48	2138.08
649.67	2260.96
649.86	2279.39
650.05	2297.82
650.23	2392.03
650.42	2306.01
650.61	2523.10
650.80	2478.04
650.99	2506.71
651.18	2359.26
651.36	2346.97
651.55	2260.96
651.74	2365.40
651.93	2244.57
652.12	2260.96
652.31	2275.29
652.49	2228.19
652.68	2179.04
652.87	2375.64
653.06	2273.25
653.25	2412.51
653.44	2273.25
653.62	2359.26
653.81	2220.00
654.00	2140.13
654.19	2291.68
654.38	2400.22
654.56	2168.80
654.75	2123.74
654.94	2244.57
655.13	2176.99
655.32	2193.37
655.51	2226.14
655.69	2144.22
655.88	2277.34
656.07	2101.22
656.26	2226.14
656.45	2127.84
656.63	2215.90
656.82	2197.47
657.01	2389.98
657.20	2199.52
657.38	2310.11
657.57	2183.13
657.76	2131.94
657.95	2254.81
658.14	2136.03
658.32	2211.81
658.51	2064.35
658.70	2213.85
658.89	2240.48
659.08	2205.66
659.26	2361.31
659.45	2138.08
659.64	2334.68
659.83	2269.15
660.01	2553.82
660.20	2220.00
660.39	2394.08
660.58	1974.24
660.76	2265.05
660.95	2054.11
661.14	2226.14
661.33	2093.02
661.51	2256.86
661.70	2144.22
661.89	2260.96
662.08	2267.10
662.26	2023.39
662.45	2166.75
662.64	2334.68
662.83	2314.20
663.01	2127.84
663.20	2234.33
663.39	2383.84
663.58	2152.42
663.76	2125.79
663.95	2260.96
664.14	2007.01
664.32	2195.42
664.51	2088.93
664.70	1992.67
664.89	2166.75
665.07	2113.50
665.26	2346.97
665.45	2082.78
665.64	2285.53
665.82	2207.71
666.01	2324.44
666.20	2121.70
666.38	2369.50
666.57	2301.92
666.76	3282.89
666.95	7927.69
667.13	16348.93
667.32	21931.70
667.51	25607.80
667.69	27440.73
667.88	25480.83
668.07	17854.19
668.25	14513.95
668.44	11851.60
668.63	10256.23
668.81	9142.13
669.00	7776.14
669.19	7131.03
669.38	6082.47
669.56	5236.66
669.75	4364.22
669.94	3647.43
670.12	3121.10
670.31	2840.53
670.50	2578.39
670.68	2490.33
670.87	2385.88
671.06	2170.85
671.24	2346.97
671.43	2428.89
671.62	2281.44
671.80	2236.38
671.99	2250.72
672.18	2252.77
672.36	2359.26
672.55	2181.09
672.74	2162.66
672.92	2166.75
673.11	2263.01
673.29	2111.46
673.48	2293.72
673.67	2234.33
673.85	2283.49
674.04	2209.76
674.23	2183.13
674.41	2375.64
674.60	2129.89
674.79	2037.73
674.97	2093.02
675.16	2228.19
675.34	2375.64
675.53	2056.16
675.72	2215.90
675.90	2330.59
676.09	2164.70
676.28	2226.14
676.46	2097.12
676.65	2342.88
676.83	2105.31
677.02	2215.90
677.21	2176.99
677.39	2234.33
677.58	2131.94
677.77	2111.46
677.95	2146.27
678.14	2213.85
678.32	2228.19
678.51	2109.41
678.70	2414.56
678.88	2103.26
679.07	2166.75
679.25	2217.95
679.44	2242.53
679.63	2172.89
679.81	2193.37
680.00	2301.92
680.18	2246.62
680.37	2269.15
680.55	2267.10
680.74	2086.88
680.93	2013.15
681.11	2228.19
681.30	2228.19
681.48	2097.12
681.67	2131.94
681.85	2138.08
682.04	2191.33
682.23	2234.33
682.41	2242.53
682.60	2179.04
682.78	2228.19
682.97	2133.98
683.15	2265.05
683.34	2183.13
683.53	2332.64
683.71	2033.63
683.90	2373.60
684.08	2377.69
684.27	2213.85
684.45	2236.38
684.64	2346.97
684.82	2121.70
685.01	2252.77
685.19	2211.81
685.38	2330.59
685.57	2244.57
685.75	2133.98
685.94	2166.75
686.12	2154.46
686.31	2072.54
686.49	2353.12
686.68	2035.68
686.86	2236.38
687.05	2197.47
687.23	2248.67
687.42	2105.31
687.60	2090.98
687.79	2285.53
687.97	2324.44
688.16	2244.57
688.34	2203.61
688.53	2068.45
688.71	2293.72
688.90	2322.40
689.08	2176.99
689.27	2017.25
689.45	2256.86
689.64	2213.85
689.82	2220.00
690.01	2291.68
690.19	2203.61
690.38	2254.81
690.56	2240.48
690.75	2131.94
690.93	2238.43
691.12	2144.22
691.30	2142.18
691.49	2203.61
691.67	2232.29
691.86	2353.12
692.04	2220.00
692.23	2209.76
692.41	2252.77
692.60	2475.99
692.78	2308.06
692.97	2365.40
693.15	2353.12
693.34	2428.89
693.52	2328.54
693.71	2168.80
693.89	2160.61
694.08	2088.93
694.26	2242.53
694.44	2359.26
694.63	2211.81
694.81	2074.59
695.00	2191.33
695.18	2254.81
695.37	2441.18
695.55	2142.18
695.74	2158.56
695.92	2183.13
696.10	2283.49
696.29	2064.35
696.47	2133.98
696.66	2062.30
696.84	2082.78
697.03	2166.75
697.21	2463.71
697.40	3141.58
697.58	2308.06
697.76	2127.84
697.95	2093.02
698.13	2090.98
698.32	2111.46
698.50	2195.42
698.68	2211.81
698.87	2185.18
699.05	2293.72
699.24	2287.58
699.42	2095.07
699.61	2207.71
699.79	2131.94
699.97	2160.61
700.16	2123.74
700.34	2105.31
700.53	2101.22
700.71	2342.88
700.89	2269.15
701.08	2162.66
701.26	2195.42
701.45	2725.85
701.63	2133.98
701.81	2101.22
702.00	2127.84
702.18	2256.86
702.37	2195.42
702.55	2506.71
702.73	2381.79
702.92	2383.84
703.10	2566.10
703.28	2519.00
703.47	2346.97
703.65	2463.71
703.84	2439.13
704.02	2258.91
704.20	2383.84
704.39	2236.38
704.57	2228.19
704.75	2330.59
704.94	2363.36
705.12	2265.05
705.30	2521.05
705.49	4415.42
705.67	11020.12
705.86	20541.13
706.04	24714.89
706.22	28382.80
706.41	29570.62
706.59	25142.91
706.77	18108.14
706.96	14675.74
707.14	13000.51
707.32	11255.64
707.51	9838.44
707.69	8116.10
707.87	6459.29
708.06	5207.98
708.24	4227.01
708.42	3350.48
708.61	3157.97
708.79	2461.66
708.97	2385.88
709.16	2383.84
709.34	2287.58
709.52	2281.44
709.71	2289.63
709.89	2326.49
710.07	2187.23
710.26	2080.74
710.44	2179.04
710.62	2318.30
710.80	2224.09
710.99	2211.81
711.17	2297.82
711.35	2160.61
711.54	2125.79
711.72	2267.10
711.90	2273.25
712.09	2136.03
712.27	2146.27
712.45	2299.87
712.63	2140.13
712.82	2228.19
713.00	2213.85
713.18	2267.10
713.37	2279.39
713.55	2271.20
713.73	2181.09
713.91	2254.81
714.10	2142.18
714.28	2166.75
714.46	2275.29
714.65	2236.38
714.83	2275.29
715.01	2187.23
715.19	2220.00
715.38	2074.59
715.56	2222.05
715.74	2101.22
715.92	2082.78
716.11	2314.20
716.29	2050.02
716.47	2256.86
716.65	2187.23
716.84	2004.96
717.02	2310.11
717.20	1990.63
717.38	2109.41
717.57	2283.49
717.75	2187.23
717.93	2158.56
718.11	2279.39
718.30	2119.65
718.48	2240.48
718.66	2310.11
718.84	2252.77
719.03	2236.38
719.21	2009.06
719.39	2308.06
719.57	2316.25
719.75	2236.38
719.94	2074.59
720.12	2240.48
720.30	2183.13
720.48	2318.30
720.67	2148.32
720.85	2080.74
721.03	2107.36
721.21	2179.04
721.39	2240.48
721.58	2220.00
721.76	2215.90
721.94	2244.57
722.12	2193.37
722.30	2349.02
722.49	2187.23
722.67	2240.48
722.85	2318.30
723.03	2004.96
723.21	2099.17
723.40	2183.13
723.58	2267.10
723.76	2273.25
723.94	2338.78
724.12	2357.21
724.30	2398.17
724.49	2383.84
724.67	2158.56
724.85	2338.78
725.03	2150.37
725.21	2314.20
725.40	2277.34
725.58	2199.52
725.76	2238.43
725.94	2254.81
726.12	2082.78
726.30	2217.95
726.49	2123.74
726.67	2207.71
726.85	2297.82
727.03	2480.09
727.21	3739.59
727.39	5468.08
727.57	6633.37
727.76	7415.69
727.94	7622.54
728.12	7264.15
728.30	5795.75
728.48	4980.66
728.66	4595.64
728.84	4050.88
729.03	3534.79
729.21	3117.01
729.39	2805.72
729.57	2469.85
729.75	2416.60
729.93	2285.53
730.11	2150.37
730.30	2236.38
730.48	2238.43
730.66	2355.16
730.84	2228.19
731.02	2222.05
731.20	2119.65
731.38	2220.00
731.56	2027.49
731.74	2119.65
731.93	2193.37
732.11	2191.33
732.29	2279.39
732.47	2213.85
732.65	2232.29
732.83	2351.07
733.01	2217.95
733.19	2105.31
733.37	2318.30
733.56	2152.42
733.74	2064.35
733.92	2334.68
734.10	2166.75
734.28	2228.19
734.46	2025.44
734.64	2144.22
734.82	2187.23
735.00	2131.94
735.18	2154.46
735.36	2160.61
735.54	2271.20
735.73	2176.99
735.91	2213.85
736.09	2240.48
736.27	2199.52
736.45	2265.05
736.63	2002.91
736.81	2125.79
736.99	2228.19
737.17	2342.88
737.35	2140.13
737.53	2242.53
737.71	2207.71
737.89	2353.12
738.07	2129.89
738.25	2150.37
738.43	2099.17
738.61	2050.02
738.80	2002.91
738.98	2121.70
739.16	2138.08
739.34	2119.65
739.52	2408.41
739.70	2164.70
739.88	2258.91
740.06	2285.53
740.24	2023.39
740.42	2263.01
740.60	2060.26
740.78	2097.12
740.96	2047.97
741.14	2144.22
741.32	2195.42
741.50	2129.89
741.68	2406.36
741.86	2260.96
742.04	2052.06
742.22	2095.07
742.40	2172.89
742.58	2209.76
742.76	2093.02
742.94	2306.01
743.12	2035.68
743.30	2201.57
743.48	2246.62
743.66	2154.46
743.84	2224.09
744.02	2160.61
744.20	2109.41
744.38	2138.08
744.56	2113.50
744.74	2308.06
744.92	2199.52
745.10	2281.44
745.28	2228.19
745.46	2324.44
745.64	2140.13
745.82	2269.15
746.00	2162.66
746.18	2258.91
746.36	2119.65
746.54	2176.99
746.72	2199.52
746.90	2113.50
747.08	2338.78
747.26	2174.94
747.44	2295.77
747.62	2248.67
747.80	2179.04
747.98	2236.38
748.15	2150.37
748.33	2316.25
748.51	2234.33
748.69	2248.67
748.87	2103.26
749.05	2172.89
749.23	2256.86
749.41	2240.48
749.59	2156.51
749.77	2357.21
749.95	2113.50
750.13	2066.40
750.31	2174.94
750.49	2211.81
750.67	2228.19
750.85	2306.01
751.03	2201.57
751.20	2351.07
751.38	2170.85
751.56	2174.94
751.74	2160.61
751.92	2150.37
752.10	2125.79
752.28	2271.20
752.46	2125.79
752.64	2220.00
752.82	2170.85
753.00	2291.68
753.18	2136.03
753.35	2236.38
753.53	2265.05
753.71	2217.95
753.89	2191.33
754.07	2199.52
754.25	2322.40
754.43	2154.46
754.61	2111.46
754.79	2176.99
754.97	2185.18
755.14	2308.06
755.32	2050.02
755.50	2119.65
755.68	2209.76
755.86	2133.98
756.04	2131.94
756.22	2004.96
756.40	2306.01
756.57	2359.26
756.75	2162.66
756.93	2314.20
757.11	2236.38
757.29	2084.83
757.47	2172.89
757.65	2045.92
757.82	1978.34
758.00	2068.45
758.18	2105.31
758.36	2076.64
758.54	2293.72
758.72	1986.53
758.90	2254.81
759.07	2222.05
759.25	2129.89
759.43	2179.04
759.61	2093.02
759.79	2981.84
759.97	2211.81
760.15	2131.94
760.32	2158.56
760.50	2220.00
760.68	2432.99
760.86	2099.17
761.04	2303.96
761.22	2187.23
761.39	2197.47
761.57	2213.85
761.75	2224.09
761.93	2244.57
762.11	2125.79
762.28	2185.18
762.46	2119.65
762.64	2314.20
762.82	2054.11
763.00	2158.56
763.18	2365.40
763.35	2099.17
763.53	2248.67
763.71	2170.85
763.89	2201.57
764.07	2187.23
764.24	2271.20
764.42	2273.25
764.60	2160.61
764.78	2174.94
764.96	2295.77
765.13	2320.35
765.31	2189.28
765.49	2281.44
765.67	2129.89
765.84	2115.55
766.02	2090.98
766.20	1998.82
766.38	2215.90
766.56	2224.09
766.73	2299.87
766.91	2250.72
767.09	2226.14
767.27	2265.05
767.44	2041.82
767.62	2242.53
767.80	2254.81
767.98	2181.09
768.15	2189.28
768.33	2273.25
768.51	2201.57
768.69	2203.61
768.87	2258.91
769.04	2158.56
769.22	2469.85
769.40	2326.49
769.58	2412.51
769.75	2181.09
769.93	2252.77
770.11	2146.27
770.28	2160.61
770.46	2301.92
770.64	2211.81
770.82	2109.41
770.99	2117.60
771.17	2310.11
771.35	2203.61
771.53	2193.37
771.70	2156.51
771.88	2215.90
772.06	2199.52
772.23	2105.31
772.41	2256.86
772.59	2140.13
772.77	2146.27
772.94	2174.94
773.12	2160.61
773.30	2162.66
773.47	2191.33
773.65	2101.22
773.83	2281.44
774.01	2166.75
774.18	2056.16
774.36	2220.00
774.54	2138.08
774.71	2213.85
774.89	2099.17
775.07	2154.46
775.24	2176.99
775.42	2148.32
775.60	2371.55
775.78	2088.93
775.95	2050.02
776.13	1982.43
776.31	2060.26
776.48	2179.04
776.66	2273.25
776.84	2133.98
777.01	2103.26
777.19	2123.74
777.37	2080.74
777.54	2244.57
777.72	2463.71
777.90	2232.29
778.07	2119.65
778.25	2549.72
778.43	2205.66
778.60	2156.51
778.78	2226.14
778.96	2324.44
779.13	2043.87
779.31	2281.44
779.49	2121.70
779.66	2215.90
779.84	2164.70
780.01	2207.71
780.19	2029.54
780.37	2301.92
780.54	2338.78
780.72	2088.93
780.90	2172.89
781.07	2215.90
781.25	2174.94
781.43	2301.92
781.60	2166.75
781.78	2291.68
781.95	2232.29
782.13	2136.03
782.31	2193.37
782.48	1988.58
782.66	2222.05
782.83	2355.16
783.01	2265.05
783.19	2279.39
783.36	2183.13
783.54	2129.89
783.72	2285.53
783.89	2179.04
784.07	2344.92
784.24	2260.96
784.42	2324.44
784.60	2242.53
784.77	2232.29
784.95	2023.39
785.12	2144.22
785.30	2244.57
785.47	2127.84
785.65	2080.74
785.83	2179.04
786.00	2121.70
786.18	2148.32
786.35	2156.51
786.53	2103.26
786.71	2287.58
786.88	2248.67
787.06	2265.05
787.23	2160.61
787.41	2115.55
787.58	2224.09
787.76	2103.26
787.94	2179.04
788.11	2193.37
788.29	2121.70
788.46	2166.75
788.64	2062.30
788.81	2072.54
788.99	2111.46
789.16	2088.93
789.34	2195.42
789.52	2123.74
789.69	2170.85
789.87	2011.11
790.04	2152.42
790.22	2162.66
790.39	2414.56
790.57	2121.70
790.74	2101.22
790.92	2260.96
791.09	2097.12
791.27	2252.77
791.44	2242.53
791.62	2187.23
791.79	2230.24
791.97	2277.34
792.15	2455.51
792.32	2222.05
792.50	2299.87
792.67	2367.45
792.85	2289.63
793.02	2152.42
793.20	2150.37
793.37	2070.50
793.55	2107.36
793.72	2072.54
793.90	2299.87
794.07	2222.05
794.25	2140.13
794.42	2297.82
794.60	2127.84
794.77	2224.09
794.95	2224.09
795.12	2224.09
795.30	2217.95
795.47	1998.82
795.65	2445.27
795.82	2234.33
796.00	2105.31
796.17	2256.86
796.34	2129.89
796.52	2170.85
796.69	2277.34
796.87	2252.77
797.04	2250.72
797.22	2316.25
797.39	2162.66
797.57	2260.96
797.74	2277.34
797.92	2258.91
798.09	2146.27
798.27	2205.66
798.44	2183.13
798.62	2136.03
798.79	2263.01
798.96	2203.61
799.14	2240.48
799.31	2346.97
799.49	2162.66
799.66	2154.46
799.84	2244.57
800.01	2013.15
800.19	2236.38
800.36	2043.87
800.53	2199.52
800.71	2191.33
800.88	2316.25
801.06	2160.61
801.23	2144.22
801.41	2207.71
801.58	2123.74
801.75	2222.05
801.93	2238.43
802.10	2230.24
802.28	2150.37
802.45	2142.18
802.63	2189.28
802.80	2334.68
802.97	2197.47
803.15	2170.85
803.32	2142.18
803.50	2097.12
803.67	2109.41
803.84	2093.02
804.02	2265.05
804.19	2146.27
804.37	1968.10
804.54	2119.65
804.71	2197.47
804.89	2224.09
805.06	2037.73
805.24	2039.78
805.41	2111.46
805.58	2101.22
805.76	2353.12
805.93	2191.33
806.10	2318.30
806.28	2252.77
806.45	2166.75
806.63	2215.90
806.80	2230.24
806.97	2240.48
807.15	2244.57
807.32	2150.37
807.49	2207.71
807.67	2099.17
807.84	2164.70
808.01	2039.78
808.19	2324.44
808.36	2471.90
808.54	2201.57
808.71	2148.32
808.88	2258.91
809.06	2263.01
809.23	2334.68
809.40	2144.22
809.58	2318.30
809.75	2281.44
809.92	2125.79
810.10	2389.98
810.27	2136.03
810.44	2228.19
810.62	2250.72
810.79	2168.80
810.96	2123.74
811.14	2052.06
811.31	2244.57
811.48	2265.05
811.66	2166.75
811.83	2246.62
812.00	2187.23
812.18	2148.32
812.35	2324.44
812.52	2195.42
812.69	2129.89
812.87	2156.51
813.04	2088.93
813.21	2174.94
813.39	2095.07
813.56	2062.30
813.73	2361.31
813.91	1994.72
814.08	2197.47
814.25	2150.37
814.42	2095.07
814.60	2131.94
814.77	2234.33
814.94	2209.76
815.12	2240.48
815.29	2306.01
815.46	2162.66
815.63	2166.75
815.81	2131.94
815.98	2084.83
816.15	2228.19
816.33	2207.71
816.50	2160.61
816.67	2138.08
816.84	2152.42
817.02	2080.74
817.19	2158.56
817.36	2254.81
817.53	2258.91
817.71	2097.12
817.88	2303.96
818.05	2164.70
818.22	2207.71
818.40	2355.16
818.57	2136.03
818.74	2244.57
818.91	2211.81
819.09	2236.38
819.26	2310.11
819.43	2144.22
819.60	2082.78
819.78	2256.86
819.95	2316.25
820.12	2113.50
820.29	2322.40
820.47	2283.49
820.64	2125.79
820.81	1994.72
820.98	2090.98
821.15	2166.75
821.33	2252.77
821.50	2019.30
821.67	2211.81
821.84	2142.18
822.02	2211.81
822.19	2291.68
822.36	2176.99
822.53	2138.08
822.70	2074.59
822.88	2211.81
823.05	2324.44
823.22	2156.51
823.39	2263.01
823.56	2185.18
823.74	2346.97
823.91	2093.02
824.08	2080.74
824.25	2023.39
824.42	2326.49
824.60	2047.97
824.77	2113.50
824.94	2176.99
825.11	2299.87
825.28	2101.22
825.45	2220.00
825.63	2166.75
825.80	2054.11
825.97	2174.94
826.14	2187.23
826.31	2033.63
826.48	2152.42
826.66	2136.03
826.83	2183.13
827.00	2174.94
827.17	2103.26
827.34	2154.46
827.51	2045.92
827.69	2224.09
827.86	2052.06
828.03	2162.66
828.20	2217.95
828.37	2136.03
828.54	2183.13
828.71	2144.22
828.89	2312.16
829.06	2215.90
829.23	2334.68
829.40	2142.18
829.57	2070.50
829.74	2236.38
829.91	2103.26
830.09	2136.03
830.26	2203.61
830.43	2367.45
830.60	2133.98
830.77	2260.96
830.94	2326.49
831.11	2299.87
831.28	2174.94
831.46	2195.42
831.63	2226.14
831.80	2220.00
831.97	2131.94
832.14	2187.23
832.31	2203.61
832.48	2211.81
832.65	2256.86
832.82	2197.47
832.99	2213.85
833.17	2031.58
833.34	2244.57
833.51	2203.61
833.68	1988.58
833.85	2346.97
834.02	2138.08
834.19	2183.13
834.36	2119.65
834.53	2215.90
834.70	2160.61
834.87	2297.82
835.04	2119.65
835.22	2123.74
835.39	2105.31
835.56	2076.64
835.73	2095.07
835.90	2263.01
836.07	2181.09
836.24	2297.82
836.41	2086.88
836.58	2129.89
836.75	2248.67
836.92	2179.04
837.09	2160.61
837.26	2193.37
837.43	2226.14
837.60	2199.52
837.77	2197.47
837.94	2232.29
838.12	2322.40
838.29	2211.81
838.46	2007.01
838.63	2107.36
838.80	2291.68
838.97	2164.70
839.14	2152.42
839.31	2183.13
839.48	2324.44
839.65	2119.65
839.82	2197.47
839.99	2187.23
840.16	2224.09
840.33	2082.78
840.50	2172.89
840.67	2154.46
840.84	1998.82
841.01	2170.85
841.18	2086.88
841.35	2146.27
841.52	2252.77
841.69	2334.68
841.86	2201.57
842.03	2183.13
842.20	2285.53
842.37	2158.56
842.54	2047.97
842.71	2129.89
842.88	2009.06
843.05	2179.04
843.22	2107.36
843.39	2287.58
843.56	2004.96
843.73	2070.50
843.90	2172.89
844.07	2234.33
844.24	2240.48
844.41	2152.42
844.58	2220.00
844.75	2187.23
844.92	2248.67
845.09	2138.08
845.26	2047.97
845.43	2199.52
845.60	2199.52
845.77	2287.58
845.94	2152.42
846.10	2250.72
846.27	2088.93
846.44	2103.26
846.61	2140.13
846.78	2179.04
846.95	2277.34
847.12	2123.74
847.29	2148.32
847.46	2035.68
847.63	2299.87
847.80	2105.31
847.97	2127.84
848.14	2371.55
848.31	2146.27
848.48	2152.42
848.65	2258.91
848.82	2088.93
848.98	2428.89
849.15	2201.57
849.32	2303.96
849.49	2217.95
849.66	2115.55
849.83	2107.36
850.00	2086.88
850.17	2334.68
850.34	2058.21
850.51	2156.51
850.68	2070.50
850.85	2359.26
851.01	2263.01
851.18	2203.61
851.35	2121.70
851.52	2203.61
851.69	2365.40
851.86	2056.16
852.03	2076.64
852.20	2244.57
852.37	2156.51
852.53	2015.20
852.70	2129.89
852.87	2263.01
853.04	2271.20
853.21	2156.51
853.38	2203.61
853.55	2236.38
853.72	2334.68
853.89	2082.78
854.05	2125.79
854.22	2189.28
854.39	2158.56
854.56	2078.69
854.73	2295.77
854.90	2160.61
855.07	2158.56
855.23	2064.35
855.40	2097.12
855.57	2152.42
855.74	2025.44
855.91	2242.53
856.08	2043.87
856.25	2105.31
856.41	2111.46
856.58	2174.94
856.75	2195.42
856.92	1996.77
857.09	2203.61
857.26	2082.78
857.42	2189.28
857.59	2220.00
857.76	2131.94
857.93	2263.01
858.10	2146.27
858.27	2093.02
858.43	2179.04
858.60	2166.75
858.77	2023.39
858.94	2138.08
859.11	2271.20
859.27	2170.85
859.44	2033.63
859.61	2400.22
859.78	2179.04
859.95	2160.61
860.12	2060.26
860.28	2394.08
860.45	2385.88
860.62	2070.50
860.79	2252.77
860.95	2078.69
861.12	2127.84
861.29	2156.51
861.46	2162.66
861.63	2140.13
861.79	2203.61
861.96	2035.68
862.13	2125.79
862.30	2365.40
862.47	2121.70
862.63	2050.02
862.80	2240.48
862.97	2211.81
863.14	2203.61
863.30	2207.71
863.47	2078.69
863.64	2326.49
863.81	2195.42
863.97	2154.46
864.14	2166.75
864.31	2146.27
864.48	2199.52
864.65	2203.61
864.81	2246.62
864.98	2267.10
865.15	2256.86
865.32	2224.09
865.48	2256.86
865.65	2428.89
865.82	2115.55
865.98	2144.22
866.15	2252.77
866.32	2199.52
866.49	2111.46
866.65	2189.28
866.82	2088.93
866.99	2174.94
867.16	2158.56
867.32	2072.54
867.49	2099.17
867.66	2117.60
867.83	2097.12
867.99	2052.06
868.16	2197.47
868.33	1988.58
868.49	2185.18
868.66	2090.98
868.83	2207.71
868.99	2258.91
869.16	2125.79
869.33	2172.89
869.50	2250.72
869.66	2185.18
869.83	2187.23
870.00	2072.54
870.16	2232.29
870.33	2150.37
870.50	2322.40
870.66	2201.57
870.83	2279.39
871.00	2195.42
871.17	2267.10
871.33	2203.61
871.50	2064.35
871.67	2193.37
871.83	2095.07
872.00	2285.53
872.17	2037.73
872.33	2316.25
872.50	2238.43
872.67	2172.89
872.83	2121.70
873.00	2240.48
873.17	2211.81
873.33	2183.13
873.50	2254.81
873.67	2127.84
873.83	2160.61
874.00	2152.42
874.16	2277.34
874.33	2193.37
874.50	2125.79
874.66	2193.37
874.83	2107.36
875.00	2269.15
875.16	2297.82
875.33	2213.85
875.50	1980.39
875.66	2187.23
875.83	2179.04
875.99	2234.33
876.16	2193.37
876.33	2099.17
876.49	2170.85
876.66	2144.22
876.83	2138.08
876.99	2086.88
877.16	2195.42
877.32	2166.75
877.49	2203.61
877.66	2228.19
877.82	2273.25
877.99	2209.76
878.15	2281.44
878.32	2185.18
878.49	2273.25
878.65	2152.42
878.82	2289.63
878.98	2101.22
879.15	2306.01
879.32	2228.19
879.48	2154.46
879.65	2228.19
879.81	2211.81
879.98	2191.33
880.15	2187.23
880.31	2250.72
880.48	2074.59
880.64	2224.09
880.81	2158.56
880.97	2330.59
881.14	2308.06
881.31	2113.50
881.47	2273.25
881.64	2121.70
881.80	2062.30
881.97	2211.81
882.13	2109.41
882.30	2027.49
882.47	2176.99
882.63	2082.78
882.80	2088.93
882.96	2201.57
883.13	2316.25
883.29	2164.70
883.46	2170.85
883.62	2334.68
883.79	2189.28
883.95	2242.53
884.12	2113.50
884.29	2265.05
884.45	2162.66
884.62	2127.84
884.78	2111.46
884.95	2330.59
885.11	2152.42
885.28	2168.80
885.44	2088.93
885.61	2232.29
885.77	2349.02
885.94	2201.57
886.10	2150.37
886.27	2179.04
886.43	2355.16
886.60	2326.49
886.76	2088.93
886.93	2123.74
887.09	2269.15
887.26	1959.91
887.42	2181.09
887.59	2326.49
887.75	2435.03
887.92	2338.78
888.08	2211.81
888.25	2306.01
888.41	2260.96
888.58	2138.08
888.74	2074.59
888.91	2121.70
>>>>>End Processed Spectral Data<<<<<
