SpectraSuite Data File
++++++++++++++++++++++++++++++++++++
Date: Thu May 05 12:35:15 CEST 2016
User: root
Dark Spectrum Present: No
Reference Spectrum Present: No
Number of Sampled Component Spectra: 1
Spectrometers: USB4C02835
Integration Time (usec): 100000 (USB4C02835)
Spectra Averaged: 1 (USB4C02835)
Boxcar Smoothing: 0 (USB4C02835)
Correct for Electrical Dark: No (USB4C02835)
Strobe/Lamp Enabled: No (USB4C02835)
Correct for Detector Non-linearity: No (USB4C02835)
Correct for Stray Light: No (USB4C02835)
Number of Pixels in Processed Spectrum: 3648
>>>>>Begin Processed Spectral Data<<<<<
177.47	1802.21
177.69	1802.21
177.91	1802.21
178.13	1708.01
178.36	1687.53
178.58	2109.41
178.80	2199.52
179.02	2103.26
179.24	2179.04
179.46	2060.26
179.68	2183.13
179.90	2142.18
180.13	2174.94
180.35	2002.91
180.57	2142.18
180.79	2209.76
181.01	2181.09
181.23	2133.98
181.45	2256.86
181.67	2181.09
181.90	2254.81
182.12	2156.51
182.34	1933.28
182.56	2254.81
182.78	2191.33
183.00	2074.59
183.22	2105.31
183.44	1961.95
183.66	2465.75
183.89	2283.49
184.11	2158.56
184.33	2326.49
184.55	2361.31
184.77	2144.22
184.99	2172.89
185.21	2166.75
185.43	2437.08
185.65	2123.74
185.87	2105.31
186.10	2320.35
186.32	2332.64
186.54	2197.47
186.76	2142.18
186.98	2322.40
187.20	2158.56
187.42	2142.18
187.64	2156.51
187.86	2226.14
188.08	2324.44
188.30	2097.12
188.52	2154.46
188.75	2324.44
188.97	2275.29
189.19	2103.26
189.41	2115.55
189.63	2291.68
189.85	2129.89
190.07	2101.22
190.29	2045.92
190.51	2232.29
190.73	2062.30
190.95	2291.68
191.17	2111.46
191.39	2047.97
191.61	2201.57
191.84	2113.50
192.06	2195.42
192.28	2113.50
192.50	2490.33
192.72	2258.91
192.94	2090.98
193.16	2342.88
193.38	2281.44
193.60	2015.20
193.82	2181.09
194.04	2260.96
194.26	2224.09
194.48	2121.70
194.70	2068.45
194.92	2111.46
195.14	2254.81
195.36	2080.74
195.58	2142.18
195.80	2185.18
196.02	2121.70
196.24	2088.93
196.46	2133.98
196.69	2119.65
196.91	2373.60
197.13	2007.01
197.35	2170.85
197.57	2385.88
197.79	2299.87
198.01	2220.00
198.23	2164.70
198.45	2283.49
198.67	2064.35
198.89	2066.40
199.11	2127.84
199.33	2168.80
199.55	1980.39
199.77	2107.36
199.99	2244.57
200.21	2179.04
200.43	2220.00
200.65	2109.41
200.87	1982.43
201.09	2217.95
201.31	2164.70
201.53	2138.08
201.75	2215.90
201.97	2181.09
202.19	2230.24
202.41	2228.19
202.63	2240.48
202.85	2242.53
203.07	2209.76
203.29	2146.27
203.51	2064.35
203.73	2129.89
203.95	2471.90
204.17	2156.51
204.39	2203.61
204.61	2230.24
204.83	2093.02
205.05	2193.37
205.27	2185.18
205.49	2406.36
205.71	2265.05
205.93	2076.64
206.15	2072.54
206.37	2189.28
206.59	2164.70
206.81	2041.82
207.03	2123.74
207.25	2179.04
207.47	2207.71
207.69	2215.90
207.91	2342.88
208.13	2308.06
208.34	2086.88
208.56	2095.07
208.78	2138.08
209.00	2133.98
209.22	2127.84
209.44	2146.27
209.66	2095.07
209.88	2154.46
210.10	2105.31
210.32	2095.07
210.54	2207.71
210.76	2187.23
210.98	2250.72
211.20	2035.68
211.42	2176.99
211.64	2289.63
211.86	2203.61
212.08	2172.89
212.30	2119.65
212.52	2127.84
212.74	2291.68
212.96	2158.56
213.17	2154.46
213.39	2205.66
213.61	2316.25
213.83	2123.74
214.05	2234.33
214.27	2377.69
214.49	2117.60
214.71	2070.50
214.93	2238.43
215.15	2228.19
215.37	2285.53
215.59	2004.96
215.81	2299.87
216.03	2342.88
216.24	2154.46
216.46	2084.83
216.68	2144.22
216.90	2316.25
217.12	2363.36
217.34	2039.78
217.56	2117.60
217.78	2342.88
218.00	2215.90
218.22	2242.53
218.44	2119.65
218.66	2236.38
218.87	2346.97
219.09	2068.45
219.31	2217.95
219.53	2240.48
219.75	2150.37
219.97	2074.59
220.19	2101.22
220.41	2195.42
220.63	2357.21
220.85	2154.46
221.06	2199.52
221.28	2344.92
221.50	2303.96
221.72	2103.26
221.94	2066.40
222.16	2166.75
222.38	2238.43
222.60	2164.70
222.82	2111.46
223.03	2234.33
223.25	2076.64
223.47	2213.85
223.69	2308.06
223.91	2267.10
224.13	2228.19
224.35	2070.50
224.57	2217.95
224.78	2299.87
225.00	2088.93
225.22	2172.89
225.44	2174.94
225.66	2238.43
225.88	2105.31
226.10	2152.42
226.32	2131.94
226.53	2291.68
226.75	2172.89
226.97	2172.89
227.19	2103.26
227.41	2127.84
227.63	2138.08
227.85	2031.58
228.06	2181.09
228.28	2181.09
228.50	2250.72
228.72	2070.50
228.94	2129.89
229.16	2064.35
229.37	2129.89
229.59	2129.89
229.81	2279.39
230.03	2140.13
230.25	2047.97
230.47	2025.44
230.69	2119.65
230.90	2301.92
231.12	2148.32
231.34	2230.24
231.56	2215.90
231.78	2015.20
232.00	2199.52
232.21	2129.89
232.43	2138.08
232.65	1966.05
232.87	2258.91
233.09	2105.31
233.30	2142.18
233.52	2232.29
233.74	2217.95
233.96	2138.08
234.18	2111.46
234.40	2183.13
234.61	2439.13
234.83	1947.62
235.05	2111.46
235.27	2416.60
235.49	2369.50
235.70	2154.46
235.92	2209.76
236.14	2193.37
236.36	2500.57
236.58	2013.15
236.79	2162.66
237.01	2193.37
237.23	2211.81
237.45	2310.11
237.67	2144.22
237.88	2279.39
238.10	2363.36
238.32	2125.79
238.54	2093.02
238.76	2170.85
238.97	2154.46
239.19	1984.48
239.41	2215.90
239.63	2301.92
239.85	2197.47
240.06	2201.57
240.28	2101.22
240.50	2297.82
240.72	2176.99
240.93	2086.88
241.15	2168.80
241.37	2230.24
241.59	2377.69
241.81	2111.46
242.02	2078.69
242.24	2248.67
242.46	2289.63
242.68	2105.31
242.89	2176.99
243.11	2256.86
243.33	2183.13
243.55	2166.75
243.76	2136.03
243.98	2095.07
244.20	2174.94
244.42	2185.18
244.64	2146.27
244.85	2064.35
245.07	2207.71
245.29	2152.42
245.51	2105.31
245.72	2289.63
245.94	2265.05
246.16	2138.08
246.38	2220.00
246.59	2127.84
246.81	2121.70
247.03	2070.50
247.24	2058.21
247.46	2076.64
247.68	2199.52
247.90	2064.35
248.11	2097.12
248.33	2258.91
248.55	2179.04
248.77	2166.75
248.98	2217.95
249.20	2326.49
249.42	2189.28
249.64	2136.03
249.85	2099.17
250.07	2154.46
250.29	2258.91
250.50	2228.19
250.72	2031.58
250.94	2224.09
251.16	2375.64
251.37	2213.85
251.59	2265.05
251.81	2220.00
252.02	2312.16
252.24	2136.03
252.46	2115.55
252.68	2166.75
252.89	2150.37
253.11	2023.39
253.33	2224.09
253.54	2373.60
253.76	2115.55
253.98	2095.07
254.20	2152.42
254.41	2082.78
254.63	2187.23
254.85	2068.45
255.06	2181.09
255.28	2267.10
255.50	2242.53
255.71	2121.70
255.93	2021.35
256.15	2144.22
256.36	2209.76
256.58	2052.06
256.80	2207.71
257.02	2217.95
257.23	2127.84
257.45	2095.07
257.67	2236.38
257.88	2181.09
258.10	2217.95
258.32	2101.22
258.53	2119.65
258.75	2283.49
258.97	2164.70
259.18	2117.60
259.40	2117.60
259.62	2400.22
259.83	2334.68
260.05	2078.69
260.27	2537.43
260.48	2236.38
260.70	2138.08
260.92	2111.46
261.13	2168.80
261.35	2224.09
261.57	2332.64
261.78	2000.87
262.00	2060.26
262.22	2246.62
262.43	2072.54
262.65	2160.61
262.86	2172.89
263.08	2402.27
263.30	2258.91
263.51	2056.16
263.73	2125.79
263.95	2306.01
264.16	2078.69
264.38	2054.11
264.60	2179.04
264.81	2240.48
265.03	2289.63
265.25	2322.40
265.46	2086.88
265.68	2314.20
265.89	2269.15
266.11	2080.74
266.33	2162.66
266.54	2263.01
266.76	2334.68
266.98	2232.29
267.19	2183.13
267.41	2291.68
267.62	2191.33
267.84	1990.63
268.06	2131.94
268.27	2152.42
268.49	2306.01
268.70	2201.57
268.92	2172.89
269.14	2101.22
269.35	2054.11
269.57	2068.45
269.79	2111.46
270.00	2119.65
270.22	2361.31
270.43	2072.54
270.65	1998.82
270.87	2248.67
271.08	2252.77
271.30	2215.90
271.51	2090.98
271.73	2283.49
271.95	2299.87
272.16	2109.41
272.38	2201.57
272.59	2144.22
272.81	2260.96
273.02	2117.60
273.24	2181.09
273.46	2297.82
273.67	2121.70
273.89	2084.83
274.10	2127.84
274.32	2342.88
274.54	2209.76
274.75	2162.66
274.97	2099.17
275.18	2236.38
275.40	2269.15
275.61	2129.89
275.83	2205.66
276.05	2086.88
276.26	2220.00
276.48	2172.89
276.69	2107.36
276.91	2095.07
277.12	2310.11
277.34	2209.76
277.55	2312.16
277.77	2197.47
277.99	2121.70
278.20	2146.27
278.42	2111.46
278.63	2136.03
278.85	2133.98
279.06	2068.45
279.28	2215.90
279.49	2228.19
279.71	2258.91
279.93	2127.84
280.14	2172.89
280.36	2215.90
280.57	2275.29
280.79	2226.14
281.00	2109.41
281.22	2168.80
281.43	2303.96
281.65	2023.39
281.86	2097.12
282.08	2174.94
282.29	2408.41
282.51	2023.39
282.73	2133.98
282.94	2097.12
283.16	2293.72
283.37	2293.72
283.59	2113.50
283.80	2250.72
284.02	2185.18
284.23	2281.44
284.45	2160.61
284.66	2105.31
284.88	2113.50
285.09	2197.47
285.31	2207.71
285.52	2238.43
285.74	2127.84
285.95	2226.14
286.17	2199.52
286.38	2285.53
286.60	2146.27
286.81	2195.42
287.03	2082.78
287.24	2117.60
287.46	2230.24
287.67	2179.04
287.89	2334.68
288.10	2121.70
288.32	2242.53
288.53	2308.06
288.75	2215.90
288.96	2230.24
289.18	2129.89
289.39	2199.52
289.61	2254.81
289.82	2408.41
290.04	2361.31
290.25	2168.80
290.47	2195.42
290.68	2195.42
290.90	2258.91
291.11	2052.06
291.33	2295.77
291.54	2105.31
291.76	2136.03
291.97	2181.09
292.18	2174.94
292.40	2138.08
292.61	2133.98
292.83	2306.01
293.04	2248.67
293.26	2273.25
293.47	2123.74
293.69	2039.78
293.90	2133.98
294.12	2230.24
294.33	2215.90
294.55	2164.70
294.76	2197.47
294.97	2308.06
295.19	2355.16
295.40	2084.83
295.62	2263.01
295.83	2295.77
296.05	2176.99
296.26	2256.86
296.48	2162.66
296.69	2224.09
296.90	2107.36
297.12	2193.37
297.33	2242.53
297.55	2172.89
297.76	2283.49
297.98	2273.25
298.19	2150.37
298.41	2205.66
298.62	2047.97
298.83	2318.30
299.05	2199.52
299.26	2201.57
299.48	2043.87
299.69	2263.01
299.90	2133.98
300.12	2136.03
300.33	2195.42
300.55	2220.00
300.76	2244.57
300.98	2084.83
301.19	2303.96
301.40	2144.22
301.62	2199.52
301.83	2269.15
302.05	2234.33
302.26	2181.09
302.47	2168.80
302.69	2086.88
302.90	2195.42
303.12	1996.77
303.33	2260.96
303.54	2363.36
303.76	2160.61
303.97	2209.76
304.19	2306.01
304.40	2144.22
304.61	2252.77
304.83	2299.87
305.04	2234.33
305.26	2236.38
305.47	2222.05
305.68	2207.71
305.90	2088.93
306.11	2228.19
306.33	2217.95
306.54	2107.36
306.75	2170.85
306.97	2054.11
307.18	2099.17
307.39	2103.26
307.61	2236.38
307.82	2146.27
308.04	2195.42
308.25	2056.16
308.46	2209.76
308.68	2201.57
308.89	2199.52
309.10	2238.43
309.32	2127.84
309.53	2224.09
309.74	2236.38
309.96	2111.46
310.17	2308.06
310.39	2144.22
310.60	2183.13
310.81	2189.28
311.03	2058.21
311.24	2248.67
311.45	2176.99
311.67	2338.78
311.88	2170.85
312.09	2125.79
312.31	2123.74
312.52	2129.89
312.73	2115.55
312.95	2154.46
313.16	2090.98
313.37	2232.29
313.59	2226.14
313.80	2269.15
314.01	2336.73
314.23	2179.04
314.44	2144.22
314.65	2127.84
314.87	2072.54
315.08	2152.42
315.29	2193.37
315.51	2025.44
315.72	2039.78
315.93	2394.08
316.15	2244.57
316.36	2168.80
316.57	2260.96
316.79	2289.63
317.00	2160.61
317.21	2291.68
317.43	2107.36
317.64	2220.00
317.85	2117.60
318.07	2146.27
318.28	2121.70
318.49	2324.44
318.70	2545.63
318.92	2338.78
319.13	2398.17
319.34	2377.69
319.56	2334.68
319.77	2375.64
319.98	2334.68
320.20	2363.36
320.41	2293.72
320.62	2273.25
320.83	2074.59
321.05	2326.49
321.26	2170.85
321.47	2203.61
321.69	2256.86
321.90	1964.00
322.11	2111.46
322.32	2193.37
322.54	2351.07
322.75	2142.18
322.96	2559.96
323.18	2115.55
323.39	2033.63
323.60	2086.88
323.81	2256.86
324.03	2144.22
324.24	2258.91
324.45	2125.79
324.66	2164.70
324.88	2338.78
325.09	2271.20
325.30	2160.61
325.52	2174.94
325.73	2260.96
325.94	2064.35
326.15	2009.06
326.37	2095.07
326.58	2293.72
326.79	2336.73
327.00	2088.93
327.22	2162.66
327.43	2193.37
327.64	2066.40
327.85	2256.86
328.07	2244.57
328.28	2375.64
328.49	2211.81
328.70	2119.65
328.92	2158.56
329.13	2201.57
329.34	2256.86
329.55	2318.30
329.76	2244.57
329.98	2154.46
330.19	2318.30
330.40	2232.29
330.61	2273.25
330.83	2234.33
331.04	2084.83
331.25	2250.72
331.46	2213.85
331.68	2056.16
331.89	2269.15
332.10	2271.20
332.31	2041.82
332.52	2258.91
332.74	2324.44
332.95	2064.35
333.16	2168.80
333.37	2217.95
333.58	2191.33
333.80	2170.85
334.01	1984.48
334.22	2172.89
334.43	2172.89
334.64	2080.74
334.86	2082.78
335.07	2138.08
335.28	2342.88
335.49	1974.24
335.70	2234.33
335.92	2344.92
336.13	2385.88
336.34	2269.15
336.55	2172.89
336.76	2203.61
336.98	2064.35
337.19	2238.43
337.40	2326.49
337.61	2389.98
337.82	2213.85
338.04	2230.24
338.25	1976.29
338.46	2172.89
338.67	2179.04
338.88	2101.22
339.09	2095.07
339.31	2164.70
339.52	2121.70
339.73	2043.87
339.94	2195.42
340.15	2234.33
340.36	2191.33
340.58	2232.29
340.79	2117.60
341.00	2228.19
341.21	2084.83
341.42	2236.38
341.63	2234.33
341.85	2220.00
342.06	2203.61
342.27	2086.88
342.48	2310.11
342.69	2084.83
342.90	2269.15
343.12	2238.43
343.33	2119.65
343.54	2211.81
343.75	2353.12
343.96	2209.76
344.17	2133.98
344.38	2203.61
344.60	2121.70
344.81	2047.97
345.02	2179.04
345.23	2185.18
345.44	2426.84
345.65	2220.00
345.86	2207.71
346.07	2160.61
346.29	2148.32
346.50	2222.05
346.71	2254.81
346.92	2273.25
347.13	2482.14
347.34	2174.94
347.55	2142.18
347.76	2217.95
347.98	2050.02
348.19	2172.89
348.40	2308.06
348.61	2201.57
348.82	2273.25
349.03	2281.44
349.24	2107.36
349.45	2400.22
349.66	2062.30
349.88	2166.75
350.09	2162.66
350.30	2375.64
350.51	2342.88
350.72	2203.61
350.93	2228.19
351.14	2160.61
351.35	2215.90
351.56	2115.55
351.77	2215.90
351.99	2297.82
352.20	2355.16
352.41	2217.95
352.62	2086.88
352.83	2144.22
353.04	2246.62
353.25	2103.26
353.46	2283.49
353.67	2285.53
353.88	2039.78
354.09	2172.89
354.30	2154.46
354.52	2250.72
354.73	2236.38
354.94	2170.85
355.15	2199.52
355.36	2328.54
355.57	2195.42
355.78	2181.09
355.99	2129.89
356.20	2154.46
356.41	2248.67
356.62	2285.53
356.83	2154.46
357.04	2355.16
357.25	2066.40
357.46	2152.42
357.68	2080.74
357.89	2105.31
358.10	2215.90
358.31	2166.75
358.52	2170.85
358.73	2074.59
358.94	2115.55
359.15	2150.37
359.36	2260.96
359.57	2197.47
359.78	2215.90
359.99	2211.81
360.20	2056.16
360.41	2160.61
360.62	2244.57
360.83	2234.33
361.04	2193.37
361.25	2205.66
361.46	2303.96
361.67	2236.38
361.88	2240.48
362.09	2363.36
362.30	2279.39
362.51	2105.31
362.72	2193.37
362.93	2258.91
363.14	2193.37
363.35	2203.61
363.56	2095.07
363.78	2285.53
363.99	2271.20
364.20	2095.07
364.41	2205.66
364.62	2367.45
364.83	2252.77
365.04	2138.08
365.25	2228.19
365.46	2369.50
365.67	2088.93
365.88	2277.34
366.09	2168.80
366.30	2185.18
366.51	2170.85
366.72	2088.93
366.93	2105.31
367.14	2193.37
367.35	2314.20
367.56	2131.94
367.77	2269.15
367.98	2172.89
368.18	2285.53
368.39	2187.23
368.60	2084.83
368.81	2220.00
369.02	2217.95
369.23	2146.27
369.44	2060.26
369.65	2230.24
369.86	2222.05
370.07	2228.19
370.28	2117.60
370.49	2240.48
370.70	2203.61
370.91	2109.41
371.12	2138.08
371.33	2340.83
371.54	2138.08
371.75	2297.82
371.96	2031.58
372.17	2129.89
372.38	2314.20
372.59	2170.85
372.80	2211.81
373.01	2176.99
373.22	2176.99
373.43	2224.09
373.64	2052.06
373.85	2252.77
374.06	2297.82
374.26	2306.01
374.47	2287.58
374.68	2224.09
374.89	2185.18
375.10	2127.84
375.31	2256.86
375.52	2154.46
375.73	2226.14
375.94	2062.30
376.15	2252.77
376.36	2148.32
376.57	2086.88
376.78	2205.66
376.99	2174.94
377.20	2322.40
377.40	2166.75
377.61	2342.88
377.82	2056.16
378.03	2301.92
378.24	2172.89
378.45	2121.70
378.66	2226.14
378.87	2045.92
379.08	2080.74
379.29	2160.61
379.50	2181.09
379.71	2154.46
379.91	2254.81
380.12	2230.24
380.33	2183.13
380.54	2203.61
380.75	2183.13
380.96	2170.85
381.17	2275.29
381.38	2191.33
381.59	2297.82
381.80	2191.33
382.00	2359.26
382.21	2289.63
382.42	2404.32
382.63	2453.47
382.84	2191.33
383.05	2244.57
383.26	2357.21
383.47	2152.42
383.68	2236.38
383.88	2355.16
384.09	2201.57
384.30	2316.25
384.51	2244.57
384.72	2187.23
384.93	2080.74
385.14	2211.81
385.35	2346.97
385.55	2045.92
385.76	2402.27
385.97	2160.61
386.18	2076.64
386.39	2146.27
386.60	2179.04
386.81	2234.33
387.02	2131.94
387.22	2095.07
387.43	2293.72
387.64	2232.29
387.85	2371.55
388.06	2475.99
388.27	3950.53
388.48	8609.66
388.68	12330.82
388.89	14577.44
389.10	15738.64
389.31	14552.87
389.52	11360.08
389.73	9664.36
389.93	8826.75
390.14	8150.92
390.35	7241.62
390.56	6602.65
390.77	5365.68
390.98	4186.05
391.18	3233.74
391.39	2815.96
391.60	2361.31
391.81	2381.79
392.02	2162.66
392.23	2392.03
392.43	2283.49
392.64	2357.21
392.85	2238.43
393.06	2398.17
393.27	2224.09
393.47	2129.89
393.68	2156.51
393.89	2103.26
394.10	2312.16
394.31	2127.84
394.52	2107.36
394.72	2113.50
394.93	2277.34
395.14	2154.46
395.35	2220.00
395.56	2113.50
395.76	2129.89
395.97	2285.53
396.18	2408.41
396.39	2373.60
396.60	2688.98
396.80	2404.32
397.01	2396.12
397.22	2322.40
397.43	2371.55
397.64	2158.56
397.84	2281.44
398.05	2461.66
398.26	2181.09
398.47	2306.01
398.67	2303.96
398.88	2144.22
399.09	2293.72
399.30	2164.70
399.51	2205.66
399.71	2119.65
399.92	2258.91
400.13	2181.09
400.34	2176.99
400.54	2156.51
400.75	2334.68
400.96	2240.48
401.17	2439.13
401.37	2289.63
401.58	2199.52
401.79	2201.57
402.00	2365.40
402.21	2602.97
402.41	2545.63
402.62	2580.44
402.83	2592.73
403.04	2688.98
403.24	2686.94
403.45	2308.06
403.66	2404.32
403.87	2430.94
404.07	2480.09
404.28	2480.09
404.49	2451.42
404.70	2353.12
404.90	2308.06
405.11	2265.05
405.32	2213.85
405.52	2119.65
405.73	2166.75
405.94	2088.93
406.15	2164.70
406.35	2234.33
406.56	2318.30
406.77	2277.34
406.98	2209.76
407.18	2146.27
407.39	2424.80
407.60	2209.76
407.80	2287.58
408.01	2127.84
408.22	2306.01
408.43	2172.89
408.63	2172.89
408.84	2240.48
409.05	2312.16
409.25	2187.23
409.46	2166.75
409.67	2082.78
409.88	2111.46
410.08	2181.09
410.29	2103.26
410.50	2242.53
410.70	2310.11
410.91	2080.74
411.12	2211.81
411.32	2191.33
411.53	2136.03
411.74	2234.33
411.95	2279.39
412.15	2283.49
412.36	2271.20
412.57	2334.68
412.77	2353.12
412.98	2201.57
413.19	2271.20
413.39	2314.20
413.60	2250.72
413.81	2428.89
414.01	2246.62
414.22	2213.85
414.43	2285.53
414.63	2195.42
414.84	2258.91
415.05	2236.38
415.25	2082.78
415.46	2248.67
415.67	2095.07
415.87	2168.80
416.08	2222.05
416.29	2176.99
416.49	2299.87
416.70	2207.71
416.91	2150.37
417.11	2125.79
417.32	2297.82
417.53	2283.49
417.73	2320.35
417.94	2142.18
418.15	2195.42
418.35	2256.86
418.56	2176.99
418.77	2461.66
418.97	2236.38
419.18	2222.05
419.38	2002.91
419.59	2168.80
419.80	2320.35
420.00	2072.54
420.21	2148.32
420.42	2346.97
420.62	2242.53
420.83	2152.42
421.04	2187.23
421.24	2185.18
421.45	2342.88
421.65	2232.29
421.86	2127.84
422.07	2242.53
422.27	2127.84
422.48	2205.66
422.69	2185.18
422.89	2174.94
423.10	2170.85
423.30	2086.88
423.51	2232.29
423.72	2199.52
423.92	2310.11
424.13	2041.82
424.33	2187.23
424.54	2281.44
424.75	2209.76
424.95	2387.93
425.16	2197.47
425.36	2160.61
425.57	2260.96
425.78	2289.63
425.98	2234.33
426.19	2170.85
426.39	2117.60
426.60	2293.72
426.81	2326.49
427.01	2252.77
427.22	2172.89
427.42	2072.54
427.63	2148.32
427.83	2236.38
428.04	2361.31
428.25	2301.92
428.45	2211.81
428.66	2334.68
428.86	2191.33
429.07	2220.00
429.28	2191.33
429.48	2174.94
429.69	2121.70
429.89	2220.00
430.10	2078.69
430.30	2224.09
430.51	2379.74
430.71	2093.02
430.92	2211.81
431.13	2195.42
431.33	2248.67
431.54	2160.61
431.74	2361.31
431.95	2432.99
432.15	2265.05
432.36	2220.00
432.56	2244.57
432.77	2392.03
432.98	2351.07
433.18	2209.76
433.39	2203.61
433.59	2138.08
433.80	2381.79
434.00	2383.84
434.21	2156.51
434.41	2148.32
434.62	2412.51
434.82	2129.89
435.03	2203.61
435.23	2254.81
435.44	1986.53
435.64	2121.70
435.85	2201.57
436.06	2332.64
436.26	2330.59
436.47	2183.13
436.67	2181.09
436.88	2213.85
437.08	2306.01
437.29	2326.49
437.49	2238.43
437.70	2291.68
437.90	2228.19
438.11	2365.40
438.31	2291.68
438.52	2441.18
438.72	2381.79
438.93	2480.09
439.13	2316.25
439.34	2410.46
439.54	2217.95
439.75	2336.73
439.95	2244.57
440.16	2179.04
440.36	2228.19
440.57	2252.77
440.77	2193.37
440.98	2226.14
441.18	2256.86
441.39	2105.31
441.59	2097.12
441.80	2381.79
442.00	2162.66
442.21	2359.26
442.41	2086.88
442.62	2310.11
442.82	2154.46
443.02	2115.55
443.23	2244.57
443.43	2172.89
443.64	2308.06
443.84	2168.80
444.05	2336.73
444.25	2189.28
444.46	2154.46
444.66	2170.85
444.87	2355.16
445.07	2033.63
445.28	2224.09
445.48	2340.83
445.69	2293.72
445.89	2422.75
446.09	2209.76
446.30	2535.39
446.50	2813.91
446.71	4454.33
446.91	5541.80
447.12	6580.12
447.32	6946.71
447.53	6295.46
447.73	5179.31
447.93	4464.57
448.14	4147.14
448.34	4114.37
448.55	3659.72
448.75	3604.42
448.96	3342.28
449.16	3035.09
449.36	2883.54
449.57	2519.00
449.77	2359.26
449.98	2170.85
450.18	2359.26
450.39	2234.33
450.59	2263.01
450.79	2191.33
451.00	2226.14
451.20	2271.20
451.41	2170.85
451.61	2228.19
451.81	2248.67
452.02	2193.37
452.22	2142.18
452.43	2133.98
452.63	2176.99
452.84	2203.61
453.04	2187.23
453.24	2209.76
453.45	2133.98
453.65	2146.27
453.86	2150.37
454.06	2234.33
454.26	2201.57
454.47	2097.12
454.67	2308.06
454.87	2256.86
455.08	2301.92
455.28	2351.07
455.49	2340.83
455.69	2101.22
455.89	2420.70
456.10	2336.73
456.30	2203.61
456.51	2232.29
456.71	2203.61
456.91	2334.68
457.12	2242.53
457.32	2252.77
457.52	2070.50
457.73	2273.25
457.93	2211.81
458.14	2250.72
458.34	2033.63
458.54	2162.66
458.75	2113.50
458.95	2211.81
459.15	2252.77
459.36	2211.81
459.56	2201.57
459.76	2420.70
459.97	2179.04
460.17	2181.09
460.37	2263.01
460.58	2191.33
460.78	2277.34
460.99	2228.19
461.19	2097.12
461.39	2189.28
461.60	2174.94
461.80	2197.47
462.00	2136.03
462.21	2207.71
462.41	2162.66
462.61	2097.12
462.82	2084.83
463.02	2248.67
463.22	2158.56
463.43	2244.57
463.63	2176.99
463.83	2316.25
464.04	2230.24
464.24	2215.90
464.44	2217.95
464.64	2154.46
464.85	2291.68
465.05	2211.81
465.25	2217.95
465.46	2211.81
465.66	2228.19
465.86	2203.61
466.07	2172.89
466.27	2187.23
466.47	2068.45
466.68	2076.64
466.88	2310.11
467.08	2310.11
467.29	2342.88
467.49	2215.90
467.69	2160.61
467.89	2189.28
468.10	2209.76
468.30	2211.81
468.50	2351.07
468.71	2293.72
468.91	2064.35
469.11	2422.75
469.31	2213.85
469.52	2187.23
469.72	2349.02
469.92	2340.83
470.13	2187.23
470.33	2160.61
470.53	2281.44
470.73	2652.12
470.94	3078.10
471.14	3137.49
471.34	3557.32
471.54	3571.66
471.75	3133.39
471.95	2836.44
472.15	2635.74
472.36	2734.04
472.56	2811.86
472.76	2652.12
472.96	2609.11
473.17	2519.00
473.37	2559.96
473.57	2267.10
473.77	2320.35
473.98	2236.38
474.18	2117.60
474.38	2533.34
474.58	2156.51
474.79	2127.84
474.99	2277.34
475.19	2293.72
475.39	2189.28
475.60	2265.05
475.80	2260.96
476.00	2201.57
476.20	2201.57
476.41	2185.18
476.61	2267.10
476.81	2375.64
477.01	2166.75
477.21	2363.36
477.42	2277.34
477.62	2076.64
477.82	2310.11
478.02	2113.50
478.23	2244.57
478.43	2136.03
478.63	2236.38
478.83	2154.46
479.03	2166.75
479.24	2236.38
479.44	2400.22
479.64	2183.13
479.84	2095.07
480.04	2111.46
480.25	2340.83
480.45	2121.70
480.65	2209.76
480.85	2385.88
481.06	2195.42
481.26	2234.33
481.46	2271.20
481.66	2213.85
481.86	2125.79
482.06	2303.96
482.27	2193.37
482.47	2168.80
482.67	2256.86
482.87	2170.85
483.07	2215.90
483.28	2195.42
483.48	2097.12
483.68	2138.08
483.88	2123.74
484.08	2019.30
484.29	2119.65
484.49	2189.28
484.69	2078.69
484.89	2338.78
485.09	2308.06
485.29	2220.00
485.50	2125.79
485.70	2191.33
485.90	2271.20
486.10	2226.14
486.30	2211.81
486.50	2318.30
486.71	2187.23
486.91	2340.83
487.11	2260.96
487.31	2129.89
487.51	2301.92
487.71	2156.51
487.91	2111.46
488.12	2093.02
488.32	2068.45
488.52	2195.42
488.72	1998.82
488.92	2193.37
489.12	2269.15
489.32	2342.88
489.53	2205.66
489.73	2064.35
489.93	2357.21
490.13	2074.59
490.33	2078.69
490.53	2222.05
490.73	2303.96
490.94	1964.00
491.14	2301.92
491.34	2310.11
491.54	2510.81
491.74	3125.20
491.94	3841.99
492.14	3932.10
492.34	4091.84
492.54	3792.84
492.75	3211.22
492.95	3133.39
493.15	2971.60
493.35	2940.88
493.55	2942.93
493.75	2742.23
493.95	2731.99
494.15	2562.01
494.35	2367.45
494.56	2265.05
494.76	2234.33
494.96	2289.63
495.16	2283.49
495.36	2242.53
495.56	2220.00
495.76	2220.00
495.96	2275.29
496.16	2224.09
496.36	2396.12
496.56	2179.04
496.77	2222.05
496.97	2203.61
497.17	2254.81
497.37	2101.22
497.57	2252.77
497.77	2215.90
497.97	2185.18
498.17	2129.89
498.37	2131.94
498.57	2338.78
498.77	2183.13
498.97	2283.49
499.17	2412.51
499.38	2185.18
499.58	2275.29
499.78	2234.33
499.98	2295.77
500.18	2250.72
500.38	2119.65
500.58	2424.80
500.78	2871.25
500.98	5101.49
501.18	7315.34
501.38	9150.32
501.58	9908.07
501.78	9875.31
501.98	7606.16
502.18	6553.50
502.38	5615.53
502.58	5218.22
502.78	4636.60
502.98	4339.65
503.18	4233.15
503.38	3930.05
503.59	3411.92
503.79	3203.02
503.99	3051.47
504.19	2785.24
504.39	2969.55
504.59	2826.20
504.79	2885.59
504.99	2840.53
505.19	2607.06
505.39	2623.45
505.59	2588.63
505.79	2486.23
505.99	2414.56
506.19	2303.96
506.39	2381.79
506.59	2291.68
506.79	2232.29
506.99	2406.36
507.19	2224.09
507.39	2236.38
507.59	2127.84
507.79	2176.99
507.99	2088.93
508.19	2283.49
508.39	2168.80
508.59	2267.10
508.79	2297.82
508.99	2439.13
509.19	2195.42
509.39	2281.44
509.59	2160.61
509.79	2166.75
509.99	2228.19
510.19	2346.97
510.39	2328.54
510.59	2275.29
510.79	2197.47
510.99	2136.03
511.19	2187.23
511.39	2363.36
511.59	2263.01
511.79	2328.54
511.99	2224.09
512.19	2355.16
512.38	2168.80
512.58	2271.20
512.78	2176.99
512.98	2330.59
513.18	2404.32
513.38	2043.87
513.58	2338.78
513.78	2107.36
513.98	2236.38
514.18	2172.89
514.38	2127.84
514.58	2254.81
514.78	2224.09
514.98	2142.18
515.18	2189.28
515.38	2176.99
515.58	2437.08
515.78	2125.79
515.98	2203.61
516.18	2338.78
516.38	2258.91
516.57	2170.85
516.77	2148.32
516.97	2297.82
517.17	2148.32
517.37	2025.44
517.57	2244.57
517.77	2211.81
517.97	2119.65
518.17	2293.72
518.37	2090.98
518.57	2168.80
518.77	2234.33
518.97	2207.71
519.16	2236.38
519.36	2357.21
519.56	2152.42
519.76	2185.18
519.96	2226.14
520.16	2320.35
520.36	2123.74
520.56	2322.40
520.76	2152.42
520.96	2199.52
521.16	2303.96
521.35	2260.96
521.55	2363.36
521.75	2265.05
521.95	2072.54
522.15	2217.95
522.35	2156.51
522.55	2105.31
522.75	2316.25
522.95	2144.22
523.14	2144.22
523.34	2234.33
523.54	2142.18
523.74	2209.76
523.94	2195.42
524.14	2107.36
524.34	2230.24
524.54	2334.68
524.73	2152.42
524.93	2252.77
525.13	2252.77
525.33	2154.46
525.53	2277.34
525.73	2258.91
525.93	2226.14
526.13	2146.27
526.32	2166.75
526.52	2322.40
526.72	2244.57
526.92	2256.86
527.12	2179.04
527.32	2109.41
527.52	2211.81
527.71	2201.57
527.91	2201.57
528.11	2172.89
528.31	2185.18
528.51	2127.84
528.71	2295.77
528.90	2222.05
529.10	2340.83
529.30	2332.64
529.50	2013.15
529.70	2254.81
529.90	2211.81
530.09	2222.05
530.29	2146.27
530.49	2123.74
530.69	2478.04
530.89	2244.57
531.09	2293.72
531.28	2174.94
531.48	2226.14
531.68	2217.95
531.88	2224.09
532.08	2285.53
532.28	2226.14
532.47	2275.29
532.67	2285.53
532.87	2269.15
533.07	2090.98
533.27	2316.25
533.46	2220.00
533.66	2234.33
533.86	2232.29
534.06	2191.33
534.26	2217.95
534.45	2236.38
534.65	2346.97
534.85	2318.30
535.05	2203.61
535.25	2275.29
535.44	2093.02
535.64	2318.30
535.84	2187.23
536.04	2105.31
536.24	2207.71
536.43	2170.85
536.63	2240.48
536.83	2117.60
537.03	2191.33
537.22	2052.06
537.42	2062.30
537.62	2228.19
537.82	2150.37
538.02	2363.36
538.21	2301.92
538.41	2486.23
538.61	2297.82
538.81	2185.18
539.00	2295.77
539.20	2070.50
539.40	2111.46
539.60	2215.90
539.79	2281.44
539.99	2295.77
540.19	2095.07
540.39	2205.66
540.58	2224.09
540.78	2318.30
540.98	2213.85
541.18	2228.19
541.37	2314.20
541.57	2256.86
541.77	2217.95
541.97	2195.42
542.16	2076.64
542.36	2242.53
542.56	2136.03
542.76	2285.53
542.95	2267.10
543.15	2228.19
543.35	2357.21
543.54	2117.60
543.74	2158.56
543.94	2254.81
544.14	2174.94
544.33	2263.01
544.53	2170.85
544.73	2211.81
544.93	2211.81
545.12	2187.23
545.32	2232.29
545.52	2168.80
545.71	2097.12
545.91	2152.42
546.11	2228.19
546.30	2099.17
546.50	2232.29
546.70	2244.57
546.90	2181.09
547.09	2133.98
547.29	2201.57
547.49	2211.81
547.68	2244.57
547.88	2162.66
548.08	2201.57
548.27	2703.32
548.47	2195.42
548.67	2232.29
548.87	2265.05
549.06	2152.42
549.26	2244.57
549.46	2246.62
549.65	2121.70
549.85	2203.61
550.05	2217.95
550.24	2154.46
550.44	2129.89
550.64	2166.75
550.83	2187.23
551.03	2344.92
551.23	2314.20
551.42	2234.33
551.62	2215.90
551.82	2215.90
552.01	2185.18
552.21	2332.64
552.41	2246.62
552.60	2375.64
552.80	2265.05
553.00	2086.88
553.19	2246.62
553.39	2394.08
553.59	2154.46
553.78	2275.29
553.98	2105.31
554.17	2080.74
554.37	2228.19
554.57	2301.92
554.76	2121.70
554.96	2166.75
555.16	2185.18
555.35	2277.34
555.55	2183.13
555.75	2263.01
555.94	2299.87
556.14	2037.73
556.33	2236.38
556.53	2252.77
556.73	2162.66
556.92	2203.61
557.12	2240.48
557.32	2322.40
557.51	2342.88
557.71	2199.52
557.90	2324.44
558.10	2310.11
558.30	2191.33
558.49	2236.38
558.69	2220.00
558.88	2260.96
559.08	2195.42
559.28	2203.61
559.47	2183.13
559.67	2308.06
559.86	2338.78
560.06	2213.85
560.26	2179.04
560.45	2267.10
560.65	2228.19
560.84	2230.24
561.04	2187.23
561.24	2326.49
561.43	2121.70
561.63	2342.88
561.82	2211.81
562.02	2220.00
562.22	2119.65
562.41	2111.46
562.61	2131.94
562.80	2097.12
563.00	2510.81
563.19	2285.53
563.39	2271.20
563.59	2250.72
563.78	2084.83
563.98	2047.97
564.17	2117.60
564.37	1982.43
564.56	2209.76
564.76	2080.74
564.96	2346.97
565.15	2228.19
565.35	2408.41
565.54	2224.09
565.74	2250.72
565.93	2260.96
566.13	2228.19
566.32	2248.67
566.52	2250.72
566.71	2168.80
566.91	2394.08
567.11	2230.24
567.30	2099.17
567.50	2252.77
567.69	2236.38
567.89	2191.33
568.08	2170.85
568.28	2197.47
568.47	2158.56
568.67	2220.00
568.86	2129.89
569.06	2318.30
569.25	2226.14
569.45	2131.94
569.64	2174.94
569.84	2168.80
570.04	2195.42
570.23	2193.37
570.43	2164.70
570.62	2213.85
570.82	2310.11
571.01	2101.22
571.21	2080.74
571.40	2158.56
571.60	2308.06
571.79	2236.38
571.99	2207.71
572.18	2121.70
572.38	2211.81
572.57	2076.64
572.77	2271.20
572.96	2465.75
573.16	2199.52
573.35	2209.76
573.55	2381.79
573.74	2277.34
573.94	2144.22
574.13	2191.33
574.33	2355.16
574.52	2359.26
574.71	2176.99
574.91	2263.01
575.10	2142.18
575.30	2205.66
575.49	2138.08
575.69	2154.46
575.88	2248.67
576.08	2260.96
576.27	2445.27
576.47	2254.81
576.66	2396.12
576.86	2424.80
577.05	2232.29
577.25	2260.96
577.44	2371.55
577.64	2197.47
577.83	2324.44
578.02	2174.94
578.22	2387.93
578.41	2418.65
578.61	2220.00
578.80	2187.23
579.00	2265.05
579.19	2287.58
579.39	2258.91
579.58	2209.76
579.77	2211.81
579.97	2385.88
580.16	2357.21
580.36	2306.01
580.55	2375.64
580.75	2277.34
580.94	2250.72
581.13	2410.46
581.33	2449.37
581.52	2226.14
581.72	2459.61
581.91	2361.31
582.11	2179.04
582.30	2295.77
582.49	2334.68
582.69	2412.51
582.88	2285.53
583.08	2275.29
583.27	2340.83
583.47	2207.71
583.66	2224.09
583.85	2127.84
584.05	2164.70
584.24	2326.49
584.44	2289.63
584.63	2363.36
584.82	2443.23
585.02	2326.49
585.21	2412.51
585.41	2338.78
585.60	2342.88
585.79	2455.51
585.99	2480.09
586.18	2406.36
586.37	2867.16
586.57	4532.15
586.76	13387.57
586.96	32282.13
587.15	46191.94
587.34	55588.02
587.54	60726.37
587.73	55809.20
587.93	39435.69
588.12	29404.74
588.31	24020.63
588.51	20623.05
588.70	19087.07
588.89	17331.96
589.09	15095.58
589.28	13145.91
589.47	10604.38
589.67	8337.28
589.86	6334.37
590.06	4671.42
590.25	3921.86
590.44	3262.41
590.64	2760.66
590.83	2549.72
591.02	2539.48
591.22	2332.64
591.41	2322.40
591.60	2338.78
591.80	2439.13
591.99	2191.33
592.18	2160.61
592.38	2318.30
592.57	2256.86
592.76	2293.72
592.96	2342.88
593.15	2232.29
593.34	2314.20
593.54	2265.05
593.73	2279.39
593.92	2328.54
594.12	2260.96
594.31	2346.97
594.50	2453.47
594.70	2295.77
594.89	2537.43
595.08	2170.85
595.28	2199.52
595.47	2549.72
595.66	2279.39
595.86	2160.61
596.05	2238.43
596.24	2203.61
596.43	2410.46
596.63	2283.49
596.82	2277.34
597.01	2340.83
597.21	2430.94
597.40	2383.84
597.59	2281.44
597.79	2271.20
597.98	2359.26
598.17	2258.91
598.36	2238.43
598.56	2281.44
598.75	2136.03
598.94	2291.68
599.14	2185.18
599.33	2191.33
599.52	2252.77
599.71	2291.68
599.91	2316.25
600.10	2293.72
600.29	2199.52
600.48	2332.64
600.68	2283.49
600.87	2207.71
601.06	2179.04
601.26	2203.61
601.45	2265.05
601.64	2170.85
601.83	2353.12
602.03	2181.09
602.22	2129.89
602.41	2244.57
602.60	2435.03
602.80	2357.21
602.99	2342.88
603.18	2191.33
603.37	2215.90
603.57	2187.23
603.76	2310.11
603.95	2279.39
604.14	2195.42
604.34	2117.60
604.53	2207.71
604.72	2197.47
604.91	2230.24
605.10	2220.00
605.30	2084.83
605.49	2426.84
605.68	2256.86
605.87	2283.49
606.07	2035.68
606.26	2226.14
606.45	2308.06
606.64	2170.85
606.84	2226.14
607.03	2187.23
607.22	2375.64
607.41	2224.09
607.60	2199.52
607.80	2336.73
607.99	2236.38
608.18	2234.33
608.37	2271.20
608.56	2138.08
608.76	2406.36
608.95	2414.56
609.14	2381.79
609.33	2451.42
609.52	2414.56
609.72	2353.12
609.91	2375.64
610.10	2285.53
610.29	2410.46
610.48	2297.82
610.68	2242.53
610.87	2258.91
611.06	2226.14
611.25	2179.04
611.44	2322.40
611.63	2187.23
611.83	2291.68
612.02	2052.06
612.21	2379.74
612.40	2080.74
612.59	2113.50
612.79	2107.36
612.98	2187.23
613.17	2453.47
613.36	2185.18
613.55	2400.22
613.74	2318.30
613.93	2453.47
614.13	2381.79
614.32	2463.71
614.51	2512.86
614.70	2363.36
614.89	2228.19
615.08	2338.78
615.28	2729.94
615.47	2152.42
615.66	2318.30
615.85	2254.81
616.04	2484.19
616.23	2289.63
616.42	2234.33
616.62	2275.29
616.81	2293.72
617.00	2195.42
617.19	2295.77
617.38	2172.89
617.57	2172.89
617.76	2277.34
617.95	2299.87
618.15	2220.00
618.34	2404.32
618.53	2088.93
618.72	2359.26
618.91	2207.71
619.10	2349.02
619.29	2260.96
619.48	2187.23
619.68	2146.27
619.87	2215.90
620.06	2207.71
620.25	2308.06
620.44	2199.52
620.63	2252.77
620.82	2211.81
621.01	2179.04
621.20	2183.13
621.39	2242.53
621.59	2291.68
621.78	2236.38
621.97	2211.81
622.16	2238.43
622.35	2256.86
622.54	2316.25
622.73	2277.34
622.92	2113.50
623.11	2324.44
623.30	2203.61
623.49	2234.33
623.68	2131.94
623.88	2314.20
624.07	2269.15
624.26	2164.70
624.45	2189.28
624.64	2152.42
624.83	2181.09
625.02	2246.62
625.21	2185.18
625.40	2260.96
625.59	2326.49
625.78	2252.77
625.97	2338.78
626.16	2336.73
626.35	2283.49
626.54	2310.11
626.74	2498.52
626.93	2224.09
627.12	2285.53
627.31	2281.44
627.50	2127.84
627.69	2430.94
627.88	2150.37
628.07	2187.23
628.26	2129.89
628.45	2154.46
628.64	2131.94
628.83	2215.90
629.02	2179.04
629.21	2291.68
629.40	2248.67
629.59	2133.98
629.78	2162.66
629.97	2260.96
630.16	2263.01
630.35	2172.89
630.54	2201.57
630.73	2174.94
630.92	2275.29
631.11	2211.81
631.30	2244.57
631.49	2318.30
631.68	2170.85
631.87	2168.80
632.06	2162.66
632.25	2389.98
632.44	2279.39
632.63	2242.53
632.82	2299.87
633.01	2234.33
633.20	2312.16
633.39	2301.92
633.58	2226.14
633.77	2312.16
633.96	2320.35
634.15	2353.12
634.34	2342.88
634.53	2193.37
634.72	2185.18
634.91	1984.48
635.10	2297.82
635.29	2316.25
635.48	2211.81
635.67	2074.59
635.86	2037.73
636.05	2289.63
636.24	2148.32
636.43	2199.52
636.62	2211.81
636.81	2007.01
637.00	2217.95
637.19	2211.81
637.38	2203.61
637.57	2258.91
637.76	2277.34
637.95	2412.51
638.14	2289.63
638.33	2349.02
638.52	2355.16
638.71	2211.81
638.89	2242.53
639.08	2500.57
639.27	2435.03
639.46	2473.95
639.65	2881.49
639.84	2906.07
640.03	3149.78
640.22	3071.95
640.41	2914.26
640.60	2582.49
640.79	2553.82
640.98	2523.10
641.17	2441.18
641.36	2449.37
641.55	2340.83
641.74	2158.56
641.92	2217.95
642.11	2156.51
642.30	2271.20
642.49	2203.61
642.68	2191.33
642.87	2242.53
643.06	2234.33
643.25	2242.53
643.44	2117.60
643.63	2150.37
643.82	2285.53
644.00	2047.97
644.19	2265.05
644.38	2176.99
644.57	2365.40
644.76	2174.94
644.95	2174.94
645.14	2244.57
645.33	2158.56
645.52	2158.56
645.71	2086.88
645.89	2095.07
646.08	2170.85
646.27	2176.99
646.46	2443.23
646.65	2039.78
646.84	2138.08
647.03	2142.18
647.22	2310.11
647.40	2138.08
647.59	2099.17
647.78	2099.17
647.97	2129.89
648.16	2187.23
648.35	2269.15
648.54	2336.73
648.73	2148.32
648.91	2283.49
649.10	2222.05
649.29	2146.27
649.48	2193.37
649.67	2242.53
649.86	2224.09
650.05	2318.30
650.23	2471.90
650.42	2377.69
650.61	2496.47
650.80	2369.50
650.99	2539.48
651.18	2392.03
651.36	2357.21
651.55	2154.46
651.74	2338.78
651.93	2228.19
652.12	2224.09
652.31	2248.67
652.49	2183.13
652.68	2183.13
652.87	2340.83
653.06	2176.99
653.25	2377.69
653.44	2277.34
653.62	2404.32
653.81	2217.95
654.00	2244.57
654.19	2316.25
654.38	2418.65
654.56	2320.35
654.75	2179.04
654.94	2291.68
655.13	2160.61
655.32	2168.80
655.51	2195.42
655.69	2185.18
655.88	2295.77
656.07	2078.69
656.26	2224.09
656.45	2043.87
656.63	2191.33
656.82	2252.77
657.01	2289.63
657.20	2101.22
657.38	2271.20
657.57	2119.65
657.76	2088.93
657.95	2191.33
658.14	2168.80
658.32	2166.75
658.51	2058.21
658.70	2166.75
658.89	2242.53
659.08	2228.19
659.26	2367.45
659.45	2228.19
659.64	2260.96
659.83	2185.18
660.01	2574.30
660.20	2275.29
660.39	2414.56
660.58	2000.87
660.76	2355.16
660.95	2000.87
661.14	2183.13
661.33	2047.97
661.51	2205.66
661.70	2166.75
661.89	2250.72
662.08	2156.51
662.26	2064.35
662.45	2076.64
662.64	2324.44
662.83	2215.90
663.01	1990.63
663.20	2088.93
663.39	2316.25
663.58	2154.46
663.76	2179.04
663.95	2240.48
664.14	2101.22
664.32	2138.08
664.51	2103.26
664.70	2072.54
664.89	2226.14
665.07	2045.92
665.26	2283.49
665.45	2183.13
665.64	2244.57
665.82	2185.18
666.01	2273.25
666.20	2058.21
666.38	2346.97
666.57	2357.21
666.76	3327.95
666.95	8157.06
667.13	16772.86
667.32	21769.91
667.51	25679.48
667.69	27569.76
667.88	25654.90
668.07	18231.02
668.25	14589.73
668.44	11818.83
668.63	10270.56
668.81	9000.82
669.00	7929.74
669.19	7092.12
669.38	6135.71
669.56	5304.24
669.75	4356.03
669.94	3657.67
670.12	3096.53
670.31	2785.24
670.50	2668.50
670.68	2506.71
670.87	2342.88
671.06	2340.83
671.24	2283.49
671.43	2371.55
671.62	2289.63
671.80	2234.33
671.99	2326.49
672.18	2244.57
672.36	2308.06
672.55	2269.15
672.74	2240.48
672.92	2213.85
673.11	2236.38
673.29	2129.89
673.48	2273.25
673.67	2191.33
673.85	2256.86
674.04	2119.65
674.23	2195.42
674.41	2389.98
674.60	2160.61
674.79	2043.87
674.97	2129.89
675.16	2209.76
675.34	2310.11
675.53	2144.22
675.72	2203.61
675.90	2344.92
676.09	2203.61
676.28	2250.72
676.46	2129.89
676.65	2260.96
676.83	2097.12
677.02	2250.72
677.21	2203.61
677.39	2211.81
677.58	2164.70
677.77	2154.46
677.95	2105.31
678.14	2215.90
678.32	2250.72
678.51	2176.99
678.70	2273.25
678.88	2101.22
679.07	2242.53
679.25	2174.94
679.44	2111.46
679.63	2152.42
679.81	2228.19
680.00	2295.77
680.18	2213.85
680.37	2289.63
680.55	2211.81
680.74	2000.87
680.93	2047.97
681.11	2222.05
681.30	2209.76
681.48	2224.09
681.67	2170.85
681.85	2176.99
682.04	2144.22
682.23	2201.57
682.41	2166.75
682.60	2144.22
682.78	2217.95
682.97	2207.71
683.15	2207.71
683.34	2258.91
683.53	2332.64
683.71	2033.63
683.90	2322.40
684.08	2355.16
684.27	2174.94
684.45	2183.13
684.64	2299.87
684.82	2211.81
685.01	2287.58
685.19	2179.04
685.38	2326.49
685.57	2234.33
685.75	2117.60
685.94	2156.51
686.12	2095.07
686.31	2136.03
686.49	2273.25
686.68	2023.39
686.86	2236.38
687.05	2170.85
687.23	2281.44
687.42	2154.46
687.60	1986.53
687.79	2277.34
687.97	2301.92
688.16	2328.54
688.34	2244.57
688.53	2039.78
688.71	2258.91
688.90	2334.68
689.08	2162.66
689.27	2072.54
689.45	2224.09
689.64	2252.77
689.82	2226.14
690.01	2275.29
690.19	2244.57
690.38	2199.52
690.56	2283.49
690.75	2127.84
690.93	2093.02
691.12	2115.55
691.30	2209.76
691.49	2217.95
691.67	2205.66
691.86	2467.80
692.04	2195.42
692.23	2205.66
692.41	2271.20
692.60	2484.19
692.78	2344.92
692.97	2244.57
693.15	2375.64
693.34	2432.99
693.52	2316.25
693.71	2207.71
693.89	2203.61
694.08	2031.58
694.26	2232.29
694.44	2342.88
694.63	2191.33
694.81	2183.13
695.00	2086.88
695.18	2310.11
695.37	2521.05
695.55	2271.20
695.74	2176.99
695.92	2129.89
696.10	2291.68
696.29	2052.06
696.47	2230.24
696.66	2064.35
696.84	2113.50
697.03	2232.29
697.21	2422.75
697.40	3223.50
697.58	2281.44
697.76	2078.69
697.95	2174.94
698.13	2097.12
698.32	2183.13
698.50	2242.53
698.68	2215.90
698.87	2228.19
699.05	2293.72
699.24	2146.27
699.42	2162.66
699.61	2263.01
699.79	2203.61
699.97	2289.63
700.16	2097.12
700.34	2113.50
700.53	2185.18
700.71	2340.83
700.89	2252.77
701.08	2197.47
701.26	2211.81
701.45	2797.53
701.63	2117.60
701.81	2078.69
702.00	2146.27
702.18	2244.57
702.37	2213.85
702.55	2516.95
702.73	2512.86
702.92	2385.88
703.10	2488.28
703.28	2502.62
703.47	2289.63
703.65	2484.19
703.84	2334.68
704.02	2220.00
704.20	2449.37
704.39	2277.34
704.57	2220.00
704.75	2301.92
704.94	2367.45
705.12	2346.97
705.30	2555.86
705.49	4538.30
705.67	11003.74
705.86	20010.70
706.04	24565.39
706.22	28161.62
706.41	29668.92
706.59	24931.97
706.77	17657.59
706.96	14769.95
707.14	12777.28
707.32	11171.67
707.51	9705.32
707.69	8253.31
707.87	6725.53
708.06	5150.64
708.24	4255.68
708.42	3370.96
708.61	3076.05
708.79	2416.60
708.97	2398.17
709.16	2342.88
709.34	2283.49
709.52	2201.57
709.71	2211.81
709.89	2322.40
710.07	2174.94
710.26	2133.98
710.44	2287.58
710.62	2252.77
710.80	2209.76
710.99	2275.29
711.17	2273.25
711.35	2209.76
711.54	2183.13
711.72	2346.97
711.90	2236.38
712.09	2234.33
712.27	2123.74
712.45	2246.62
712.63	2138.08
712.82	2150.37
713.00	2209.76
713.18	2279.39
713.37	2303.96
713.55	2289.63
713.73	2273.25
713.91	2232.29
714.10	2090.98
714.28	2113.50
714.46	2228.19
714.65	2222.05
714.83	2207.71
715.01	2228.19
715.19	2211.81
715.38	2121.70
715.56	2215.90
715.74	2187.23
715.92	2109.41
716.11	2336.73
716.29	1990.63
716.47	2203.61
716.65	2240.48
716.84	2054.11
717.02	2310.11
717.20	2093.02
717.38	2140.13
717.57	2273.25
717.75	2289.63
717.93	2160.61
718.11	2228.19
718.30	2039.78
718.48	2226.14
718.66	2295.77
718.84	2332.64
719.03	2193.37
719.21	2105.31
719.39	2369.50
719.57	2240.48
719.75	2308.06
719.94	2189.28
720.12	2090.98
720.30	2144.22
720.48	2273.25
720.67	2088.93
720.85	2074.59
721.03	2160.61
721.21	2158.56
721.39	2365.40
721.58	2197.47
721.76	2215.90
721.94	2242.53
722.12	2203.61
722.30	2351.07
722.49	2136.03
722.67	2265.05
722.85	2195.42
723.03	2054.11
723.21	2146.27
723.40	2176.99
723.58	2303.96
723.76	2375.64
723.94	2420.70
724.12	2326.49
724.30	2365.40
724.49	2373.60
724.67	2181.09
724.85	2289.63
725.03	2066.40
725.21	2244.57
725.40	2281.44
725.58	2170.85
725.76	2279.39
725.94	2299.87
726.12	2176.99
726.30	2160.61
726.49	2199.52
726.67	2029.54
726.85	2260.96
727.03	2486.23
727.21	3717.06
727.39	5390.25
727.57	6584.22
727.76	7176.08
727.94	7778.19
728.12	7307.15
728.30	5904.29
728.48	4962.23
728.66	4536.25
728.84	4087.75
729.03	3416.01
729.21	3143.63
729.39	2838.48
729.57	2435.03
729.75	2539.48
729.93	2424.80
730.11	2193.37
730.30	2211.81
730.48	2256.86
730.66	2308.06
730.84	2191.33
731.02	2195.42
731.20	2228.19
731.38	2191.33
731.56	2070.50
731.74	2064.35
731.93	2152.42
732.11	2209.76
732.29	2140.13
732.47	2256.86
732.65	2209.76
732.83	2334.68
733.01	2244.57
733.19	2136.03
733.37	2277.34
733.56	2213.85
733.74	2105.31
733.92	2389.98
734.10	2129.89
734.28	2205.66
734.46	2031.58
734.64	2146.27
734.82	2162.66
735.00	2174.94
735.18	2144.22
735.36	2166.75
735.54	2179.04
735.73	2129.89
735.91	2220.00
736.09	2246.62
736.27	2183.13
736.45	2244.57
736.63	2039.78
736.81	2203.61
736.99	2267.10
737.17	2263.01
737.35	2090.98
737.53	2195.42
737.71	2220.00
737.89	2308.06
738.07	2123.74
738.25	2154.46
738.43	2084.83
738.61	2176.99
738.80	2064.35
738.98	2127.84
739.16	2113.50
739.34	2121.70
739.52	2332.64
739.70	2179.04
739.88	2263.01
740.06	2353.12
740.24	1970.15
740.42	2265.05
740.60	1961.95
740.78	2074.59
740.96	1980.39
741.14	2197.47
741.32	2191.33
741.50	2072.54
741.68	2439.13
741.86	2324.44
742.04	2064.35
742.22	2203.61
742.40	2211.81
742.58	2291.68
742.76	2119.65
742.94	2263.01
743.12	2017.25
743.30	2226.14
743.48	2289.63
743.66	2109.41
743.84	2236.38
744.02	2146.27
744.20	2205.66
744.38	2080.74
744.56	2152.42
744.74	2375.64
744.92	2187.23
745.10	2275.29
745.28	2265.05
745.46	2435.03
745.64	2160.61
745.82	2265.05
746.00	2205.66
746.18	2258.91
746.36	2138.08
746.54	2209.76
746.72	2144.22
746.90	2095.07
747.08	2289.63
747.26	2179.04
747.44	2215.90
747.62	2258.91
747.80	2250.72
747.98	2279.39
748.15	2195.42
748.33	2400.22
748.51	2181.09
748.69	2322.40
748.87	2056.16
749.05	2213.85
749.23	2158.56
749.41	2232.29
749.59	2176.99
749.77	2281.44
749.95	2160.61
750.13	2166.75
750.31	2279.39
750.49	2133.98
750.67	2283.49
750.85	2357.21
751.03	2191.33
751.20	2416.60
751.38	2176.99
751.56	2099.17
751.74	2232.29
751.92	2277.34
752.10	2097.12
752.28	2330.59
752.46	2176.99
752.64	2150.37
752.82	2181.09
753.00	2285.53
753.18	2209.76
753.35	2248.67
753.53	2209.76
753.71	2170.85
753.89	2306.01
754.07	2256.86
754.25	2332.64
754.43	2211.81
754.61	2113.50
754.79	2258.91
754.97	2129.89
755.14	2320.35
755.32	2133.98
755.50	2133.98
755.68	2193.37
755.86	2187.23
756.04	2156.51
756.22	2039.78
756.40	2258.91
756.57	2330.59
756.75	2105.31
756.93	2269.15
757.11	2238.43
757.29	2109.41
757.47	2142.18
757.65	2078.69
757.82	2017.25
758.00	2090.98
758.18	2062.30
758.36	2142.18
758.54	2346.97
758.72	2109.41
758.90	2277.34
759.07	2162.66
759.25	2078.69
759.43	2127.84
759.61	2054.11
759.79	2992.08
759.97	2220.00
760.15	2129.89
760.32	2117.60
760.50	2211.81
760.68	2357.21
760.86	2047.97
761.04	2246.62
761.22	2301.92
761.39	2121.70
761.57	2240.48
761.75	2191.33
761.93	2162.66
762.11	2183.13
762.28	2228.19
762.46	2150.37
762.64	2242.53
762.82	2025.44
763.00	2207.71
763.18	2351.07
763.35	2099.17
763.53	2236.38
763.71	2220.00
763.89	2310.11
764.07	2152.42
764.24	2217.95
764.42	2246.62
764.60	2195.42
764.78	2291.68
764.96	2357.21
765.13	2285.53
765.31	2215.90
765.49	2234.33
765.67	2154.46
765.84	2090.98
766.02	2133.98
766.20	2043.87
766.38	2220.00
766.56	2197.47
766.73	2170.85
766.91	2193.37
767.09	2158.56
767.27	2209.76
767.44	2131.94
767.62	2269.15
767.80	2228.19
767.98	2142.18
768.15	2244.57
768.33	2252.77
768.51	2299.87
768.69	2260.96
768.87	2183.13
769.04	2183.13
769.22	2439.13
769.40	2279.39
769.58	2381.79
769.75	2238.43
769.93	2222.05
770.11	2160.61
770.28	2090.98
770.46	2355.16
770.64	2242.53
770.82	2109.41
770.99	2172.89
771.17	2301.92
771.35	2232.29
771.53	2220.00
771.70	2117.60
771.88	2273.25
772.06	2260.96
772.23	2146.27
772.41	2181.09
772.59	2170.85
772.77	2041.82
772.94	2150.37
773.12	2211.81
773.30	2232.29
773.47	2232.29
773.65	2195.42
773.83	2367.45
774.01	2031.58
774.18	2084.83
774.36	2158.56
774.54	2125.79
774.71	2183.13
774.89	2054.11
775.07	2152.42
775.24	2154.46
775.42	2195.42
775.60	2355.16
775.78	2152.42
775.95	2047.97
776.13	2039.78
776.31	2000.87
776.48	2277.34
776.66	2291.68
776.84	2207.71
777.01	2050.02
777.19	2113.50
777.37	2193.37
777.54	2283.49
777.72	2318.30
777.90	2222.05
778.07	2168.80
778.25	2504.67
778.43	2271.20
778.60	2121.70
778.78	2250.72
778.96	2342.88
779.13	2068.45
779.31	2230.24
779.49	2121.70
779.66	2211.81
779.84	2271.20
780.01	2131.94
780.19	2107.36
780.37	2338.78
780.54	2226.14
780.72	2140.13
780.90	2191.33
781.07	2176.99
781.25	2127.84
781.43	2330.59
781.60	2056.16
781.78	2357.21
781.95	2228.19
782.13	2142.18
782.31	2101.22
782.48	2058.21
782.66	2166.75
782.83	2326.49
783.01	2213.85
783.19	2275.29
783.36	2168.80
783.54	2033.63
783.72	2340.83
783.89	2172.89
784.07	2205.66
784.24	2217.95
784.42	2322.40
784.60	2189.28
784.77	2207.71
784.95	2058.21
785.12	2129.89
785.30	2242.53
785.47	2105.31
785.65	2080.74
785.83	2172.89
786.00	2168.80
786.18	2224.09
786.35	2133.98
786.53	2093.02
786.71	2314.20
786.88	2252.77
787.06	2201.57
787.23	2179.04
787.41	2111.46
787.58	2131.94
787.76	2070.50
787.94	2119.65
788.11	2256.86
788.29	2099.17
788.46	2097.12
788.64	2062.30
788.81	2086.88
788.99	2133.98
789.16	2031.58
789.34	2209.76
789.52	2121.70
789.69	2164.70
789.87	2041.82
790.04	2123.74
790.22	2269.15
790.39	2336.73
790.57	2068.45
790.74	2127.84
790.92	2185.18
791.09	2097.12
791.27	2158.56
791.44	2359.26
791.62	2197.47
791.79	2267.10
791.97	2209.76
792.15	2414.56
792.32	2207.71
792.50	2222.05
792.67	2361.31
792.85	2326.49
793.02	2170.85
793.20	2179.04
793.37	2088.93
793.55	2191.33
793.72	2045.92
793.90	2224.09
794.07	2123.74
794.25	2105.31
794.42	2164.70
794.60	2158.56
794.77	2318.30
794.95	2146.27
795.12	2242.53
795.30	2170.85
795.47	2021.35
795.65	2447.32
795.82	2203.61
796.00	2101.22
796.17	2144.22
796.34	2078.69
796.52	2240.48
796.69	2269.15
796.87	2277.34
797.04	2252.77
797.22	2271.20
797.39	2183.13
797.57	2256.86
797.74	2197.47
797.92	2168.80
798.09	2150.37
798.27	2252.77
798.44	2129.89
798.62	2062.30
798.79	2226.14
798.96	2170.85
799.14	2121.70
799.31	2453.47
799.49	2179.04
799.66	2201.57
799.84	2230.24
800.01	2056.16
800.19	2281.44
800.36	2004.96
800.53	2220.00
800.71	2199.52
800.88	2363.36
801.06	2109.41
801.23	2133.98
801.41	2121.70
801.58	2187.23
801.75	2146.27
801.93	2332.64
802.10	2310.11
802.28	2193.37
802.45	2121.70
802.63	2187.23
802.80	2316.25
802.97	2201.57
803.15	2166.75
803.32	2154.46
803.50	2185.18
803.67	2168.80
803.84	2127.84
804.02	2197.47
804.19	2144.22
804.37	1972.19
804.54	2054.11
804.71	2230.24
804.89	2203.61
805.06	2144.22
805.24	2068.45
805.41	2121.70
805.58	2043.87
805.76	2408.41
805.93	2152.42
806.10	2369.50
806.28	2189.28
806.45	2150.37
806.63	2183.13
806.80	2222.05
806.97	2162.66
807.15	2211.81
807.32	2236.38
807.49	2224.09
807.67	2056.16
807.84	2256.86
808.01	2021.35
808.19	2336.73
808.36	2387.93
808.54	2193.37
808.71	2090.98
808.88	2129.89
809.06	2252.77
809.23	2330.59
809.40	2072.54
809.58	2209.76
809.75	2207.71
809.92	2080.74
810.10	2400.22
810.27	2224.09
810.44	2193.37
810.62	2285.53
810.79	2228.19
810.96	2179.04
811.14	2162.66
811.31	2217.95
811.48	2269.15
811.66	2162.66
811.83	2324.44
812.00	2220.00
812.18	2195.42
812.35	2324.44
812.52	2172.89
812.69	2170.85
812.87	2162.66
813.04	2041.82
813.21	2211.81
813.39	2150.37
813.56	2105.31
813.73	2191.33
813.91	2064.35
814.08	2191.33
814.25	2209.76
814.42	2052.06
814.60	2174.94
814.77	2191.33
814.94	2203.61
815.12	2179.04
815.29	2367.45
815.46	2109.41
815.63	2285.53
815.81	2201.57
815.98	2131.94
816.15	2148.32
816.33	2181.09
816.50	2189.28
816.67	2226.14
816.84	2158.56
817.02	2021.35
817.19	2152.42
817.36	2174.94
817.53	2226.14
817.71	2078.69
817.88	2242.53
818.05	2140.13
818.22	2193.37
818.40	2330.59
818.57	2187.23
818.74	2166.75
818.91	2133.98
819.09	2226.14
819.26	2256.86
819.43	2060.26
819.60	2152.42
819.78	2164.70
819.95	2273.25
820.12	2045.92
820.29	2367.45
820.47	2207.71
820.64	2142.18
820.81	2004.96
820.98	2121.70
821.15	2187.23
821.33	2224.09
821.50	2095.07
821.67	2236.38
821.84	2164.70
822.02	2191.33
822.19	2297.82
822.36	2199.52
822.53	2109.41
822.70	2125.79
822.88	2103.26
823.05	2299.87
823.22	2199.52
823.39	2160.61
823.56	2121.70
823.74	2373.60
823.91	2076.64
824.08	2074.59
824.25	2123.74
824.42	2324.44
824.60	2056.16
824.77	2232.29
824.94	2185.18
825.11	2273.25
825.28	2047.97
825.45	2183.13
825.63	2211.81
825.80	2084.83
825.97	2183.13
826.14	2160.61
826.31	2062.30
826.48	2291.68
826.66	2121.70
826.83	2129.89
827.00	2146.27
827.17	2138.08
827.34	2250.72
827.51	2179.04
827.69	2203.61
827.86	2019.30
828.03	2103.26
828.20	2254.81
828.37	2070.50
828.54	2226.14
828.71	2144.22
828.89	2365.40
829.06	2162.66
829.23	2236.38
829.40	2146.27
829.57	2146.27
829.74	2273.25
829.91	2127.84
830.09	2146.27
830.26	2140.13
830.43	2277.34
830.60	2150.37
830.77	2258.91
830.94	2293.72
831.11	2248.67
831.28	2142.18
831.46	2291.68
831.63	2158.56
831.80	2201.57
831.97	2027.49
832.14	2138.08
832.31	2254.81
832.48	2203.61
832.65	2293.72
832.82	2201.57
832.99	2246.62
833.17	2113.50
833.34	2338.78
833.51	2193.37
833.68	1988.58
833.85	2281.44
834.02	2027.49
834.19	2109.41
834.36	2047.97
834.53	2248.67
834.70	2287.58
834.87	2269.15
835.04	2097.12
835.22	2156.51
835.39	2152.42
835.56	2068.45
835.73	2002.91
835.90	2398.17
836.07	2060.26
836.24	2203.61
836.41	2138.08
836.58	2086.88
836.75	2314.20
836.92	2183.13
837.09	2152.42
837.26	2316.25
837.43	2230.24
837.60	2242.53
837.77	2095.07
837.94	2306.01
838.12	2318.30
838.29	2144.22
838.46	2084.83
838.63	2107.36
838.80	2322.40
838.97	2222.05
839.14	2158.56
839.31	2150.37
839.48	2260.96
839.65	2127.84
839.82	2176.99
839.99	2258.91
840.16	2174.94
840.33	2097.12
840.50	2211.81
840.67	2080.74
840.84	1990.63
841.01	2224.09
841.18	2217.95
841.35	2187.23
841.52	2312.16
841.69	2275.29
841.86	2166.75
842.03	2183.13
842.20	2322.40
842.37	2121.70
842.54	2217.95
842.71	2244.57
842.88	2117.60
843.05	2123.74
843.22	2109.41
843.39	2265.05
843.56	2133.98
843.73	2146.27
843.90	2215.90
844.07	2127.84
844.24	2246.62
844.41	2203.61
844.58	2148.32
844.75	2195.42
844.92	2179.04
845.09	2152.42
845.26	2107.36
845.43	2289.63
845.60	2170.85
845.77	2146.27
845.94	2199.52
846.10	2285.53
846.27	2031.58
846.44	2152.42
846.61	2080.74
846.78	2189.28
846.95	2303.96
847.12	2101.22
847.29	2181.09
847.46	2050.02
847.63	2303.96
847.80	2070.50
847.97	2142.18
848.14	2439.13
848.31	2154.46
848.48	2099.17
848.65	2189.28
848.82	2138.08
848.98	2334.68
849.15	2238.43
849.32	2244.57
849.49	2322.40
849.66	2228.19
849.83	2117.60
850.00	2152.42
850.17	2242.53
850.34	2117.60
850.51	2121.70
850.68	2193.37
850.85	2373.60
851.01	2260.96
851.18	2244.57
851.35	2160.61
851.52	2236.38
851.69	2287.58
851.86	2113.50
852.03	2133.98
852.20	2183.13
852.37	2187.23
852.53	2035.68
852.70	2105.31
852.87	2254.81
853.04	2260.96
853.21	2131.94
853.38	2166.75
853.55	2265.05
853.72	2277.34
853.89	2025.44
854.05	2105.31
854.22	2125.79
854.39	2127.84
854.56	2224.09
854.73	2252.77
854.90	2082.78
855.07	2187.23
855.23	2095.07
855.40	2117.60
855.57	2166.75
855.74	2037.73
855.91	2346.97
856.08	2086.88
856.25	2064.35
856.41	2117.60
856.58	2064.35
856.75	2197.47
856.92	2123.74
857.09	2322.40
857.26	2029.54
857.42	2140.13
857.59	2289.63
857.76	2152.42
857.93	2088.93
858.10	2191.33
858.27	2064.35
858.43	2271.20
858.60	2056.16
858.77	2035.68
858.94	2129.89
859.11	2316.25
859.27	2146.27
859.44	2129.89
859.61	2326.49
859.78	2301.92
859.95	2150.37
860.12	2062.30
860.28	2377.69
860.45	2387.93
860.62	2031.58
860.79	2133.98
860.95	2111.46
861.12	2123.74
861.29	2062.30
861.46	2037.73
861.63	2119.65
861.79	2220.00
861.96	2066.40
862.13	2064.35
862.30	2273.25
862.47	2148.32
862.63	2037.73
862.80	2217.95
862.97	2336.73
863.14	2252.77
863.30	2138.08
863.47	2082.78
863.64	2410.46
863.81	2209.76
863.97	2176.99
864.14	2090.98
864.31	2158.56
864.48	2252.77
864.65	2125.79
864.81	2195.42
864.98	2236.38
865.15	2207.71
865.32	2303.96
865.48	2273.25
865.65	2357.21
865.82	2166.75
865.98	2189.28
866.15	2236.38
866.32	2201.57
866.49	2129.89
866.65	2291.68
866.82	2131.94
866.99	2195.42
867.16	2193.37
867.32	2138.08
867.49	2127.84
867.66	2162.66
867.83	2107.36
867.99	2047.97
868.16	2142.18
868.33	2062.30
868.49	2191.33
868.66	2142.18
868.83	2226.14
868.99	2220.00
869.16	2176.99
869.33	2277.34
869.50	2195.42
869.66	2181.09
869.83	2187.23
870.00	2121.70
870.16	2256.86
870.33	2201.57
870.50	2285.53
870.66	2187.23
870.83	2252.77
871.00	2170.85
871.17	2195.42
871.33	2205.66
871.50	2109.41
871.67	2226.14
871.83	2191.33
872.00	2277.34
872.17	2150.37
872.33	2418.65
872.50	2299.87
872.67	2154.46
872.83	2142.18
873.00	2271.20
873.17	2199.52
873.33	2211.81
873.50	2228.19
873.67	2047.97
873.83	2060.26
874.00	2131.94
874.16	2195.42
874.33	2183.13
874.50	2027.49
874.66	2191.33
874.83	2195.42
875.00	2203.61
875.16	2381.79
875.33	2228.19
875.50	1972.19
875.66	2129.89
875.83	2168.80
875.99	2213.85
876.16	2084.83
876.33	2144.22
876.49	2154.46
876.66	2168.80
876.83	2168.80
876.99	2047.97
877.16	2250.72
877.32	2113.50
877.49	2138.08
877.66	2129.89
877.82	2367.45
877.99	2193.37
878.15	2230.24
878.32	2160.61
878.49	2244.57
878.65	2105.31
878.82	2281.44
878.98	2095.07
879.15	2318.30
879.32	2283.49
879.48	2275.29
879.65	2125.79
879.81	2111.46
879.98	2162.66
880.15	2111.46
880.31	2275.29
880.48	2107.36
880.64	2209.76
880.81	2195.42
880.97	2389.98
881.14	2256.86
881.31	2086.88
881.47	2449.37
881.64	2236.38
881.80	2007.01
881.97	2205.66
882.13	2226.14
882.30	2142.18
882.47	2144.22
882.63	2043.87
882.80	2074.59
882.96	2138.08
883.13	2363.36
883.29	2213.85
883.46	2136.03
883.62	2383.84
883.79	2205.66
883.95	2252.77
884.12	2154.46
884.29	2299.87
884.45	2228.19
884.62	2127.84
884.78	2142.18
884.95	2258.91
885.11	2203.61
885.28	2271.20
885.44	2136.03
885.61	2220.00
885.77	2369.50
885.94	2203.61
886.10	2158.56
886.27	2226.14
886.43	2365.40
886.60	2260.96
886.76	2113.50
886.93	2093.02
887.09	2301.92
887.26	2050.02
887.42	2099.17
887.59	2287.58
887.75	2369.50
887.92	2303.96
888.08	2176.99
888.25	2306.01
888.41	2344.92
888.58	2176.99
888.74	2076.64
888.91	2121.70
>>>>>End Processed Spectral Data<<<<<
