SpectraSuite Data File
++++++++++++++++++++++++++++++++++++
Date: Thu May 05 12:35:09 CEST 2016
User: root
Dark Spectrum Present: No
Reference Spectrum Present: No
Number of Sampled Component Spectra: 1
Spectrometers: USB4C02835
Integration Time (usec): 100000 (USB4C02835)
Spectra Averaged: 1 (USB4C02835)
Boxcar Smoothing: 0 (USB4C02835)
Correct for Electrical Dark: No (USB4C02835)
Strobe/Lamp Enabled: No (USB4C02835)
Correct for Detector Non-linearity: No (USB4C02835)
Correct for Stray Light: No (USB4C02835)
Number of Pixels in Processed Spectrum: 3648
>>>>>Begin Processed Spectral Data<<<<<
177.47	1736.68
177.69	1736.68
177.91	1736.68
178.13	1808.36
178.36	1687.53
178.58	2150.37
178.80	2129.89
179.02	2111.46
179.24	2156.51
179.46	2111.46
179.68	2158.56
179.90	2150.37
180.13	2195.42
180.35	2064.35
180.57	2082.78
180.79	2293.72
181.01	2211.81
181.23	2228.19
181.45	2289.63
181.67	2217.95
181.90	2191.33
182.12	2215.90
182.34	1961.95
182.56	2228.19
182.78	2232.29
183.00	2142.18
183.22	2136.03
183.44	2047.97
183.66	2447.32
183.89	2244.57
184.11	2140.13
184.33	2191.33
184.55	2310.11
184.77	2176.99
184.99	2101.22
185.21	2109.41
185.43	2410.46
185.65	2115.55
185.87	2150.37
186.10	2351.07
186.32	2365.40
186.54	2125.79
186.76	2185.18
186.98	2281.44
187.20	2156.51
187.42	2148.32
187.64	2267.10
187.86	2201.57
188.08	2283.49
188.30	2111.46
188.52	2205.66
188.75	2265.05
188.97	2326.49
189.19	2123.74
189.41	2115.55
189.63	2250.72
189.85	2150.37
190.07	2029.54
190.29	2017.25
190.51	2275.29
190.73	2093.02
190.95	2301.92
191.17	2109.41
191.39	2072.54
191.61	2152.42
191.84	2129.89
192.06	2179.04
192.28	2039.78
192.50	2494.43
192.72	2215.90
192.94	2162.66
193.16	2322.40
193.38	2248.67
193.60	2115.55
193.82	2160.61
194.04	2293.72
194.26	2207.71
194.48	2082.78
194.70	2129.89
194.92	2074.59
195.14	2316.25
195.36	2113.50
195.58	2144.22
195.80	2138.08
196.02	2103.26
196.24	2097.12
196.46	2166.75
196.69	2133.98
196.91	2455.51
197.13	2119.65
197.35	2101.22
197.57	2375.64
197.79	2195.42
198.01	2121.70
198.23	2205.66
198.45	2213.85
198.67	2088.93
198.89	2050.02
199.11	2154.46
199.33	2127.84
199.55	1990.63
199.77	2121.70
199.99	2263.01
200.21	2168.80
200.43	2252.77
200.65	2023.39
200.87	1949.67
201.09	2248.67
201.31	2205.66
201.53	2201.57
201.75	2213.85
201.97	2199.52
202.19	2168.80
202.41	2195.42
202.63	2301.92
202.85	2285.53
203.07	2158.56
203.29	2078.69
203.51	2090.98
203.73	2189.28
203.95	2435.03
204.17	2187.23
204.39	2133.98
204.61	2213.85
204.83	2111.46
205.05	2191.33
205.27	2189.28
205.49	2463.71
205.71	2162.66
205.93	2041.82
206.15	2097.12
206.37	2244.57
206.59	2166.75
206.81	2084.83
207.03	2097.12
207.25	2123.74
207.47	2220.00
207.69	2095.07
207.91	2217.95
208.13	2267.10
208.34	2107.36
208.56	2043.87
208.78	2150.37
209.00	2174.94
209.22	2170.85
209.44	2078.69
209.66	2066.40
209.88	2236.38
210.10	2181.09
210.32	2097.12
210.54	2187.23
210.76	2226.14
210.98	2203.61
211.20	2007.01
211.42	2246.62
211.64	2373.60
211.86	2285.53
212.08	2129.89
212.30	2142.18
212.52	2187.23
212.74	2217.95
212.96	2234.33
213.17	2123.74
213.39	2211.81
213.61	2353.12
213.83	2211.81
214.05	2197.47
214.27	2256.86
214.49	2054.11
214.71	2101.22
214.93	2265.05
215.15	2187.23
215.37	2236.38
215.59	2054.11
215.81	2185.18
216.03	2349.02
216.24	2287.58
216.46	2189.28
216.68	2203.61
216.90	2215.90
217.12	2275.29
217.34	2119.65
217.56	2252.77
217.78	2265.05
218.00	2277.34
218.22	2144.22
218.44	2240.48
218.66	2293.72
218.87	2342.88
219.09	2195.42
219.31	2144.22
219.53	2181.09
219.75	2179.04
219.97	2119.65
220.19	2226.14
220.41	2193.37
220.63	2310.11
220.85	2152.42
221.06	2101.22
221.28	2308.06
221.50	2291.68
221.72	2101.22
221.94	2119.65
222.16	2232.29
222.38	2215.90
222.60	2129.89
222.82	2123.74
223.03	2265.05
223.25	2154.46
223.47	2154.46
223.69	2273.25
223.91	2217.95
224.13	2199.52
224.35	2088.93
224.57	2226.14
224.78	2267.10
225.00	2080.74
225.22	2197.47
225.44	2080.74
225.66	2320.35
225.88	2154.46
226.10	2181.09
226.32	2115.55
226.53	2357.21
226.75	2162.66
226.97	2105.31
227.19	2138.08
227.41	2109.41
227.63	2123.74
227.85	2045.92
228.06	2166.75
228.28	2209.76
228.50	2242.53
228.72	2033.63
228.94	2090.98
229.16	2072.54
229.37	2088.93
229.59	2113.50
229.81	2224.09
230.03	2146.27
230.25	2029.54
230.47	2035.68
230.69	2023.39
230.90	2297.82
231.12	2109.41
231.34	2201.57
231.56	2232.29
231.78	2023.39
232.00	2240.48
232.21	2068.45
232.43	2156.51
232.65	2007.01
232.87	2244.57
233.09	1996.77
233.30	2117.60
233.52	2283.49
233.74	2154.46
233.96	2062.30
234.18	2164.70
234.40	2170.85
234.61	2400.22
234.83	2068.45
235.05	2027.49
235.27	2410.46
235.49	2353.12
235.70	2078.69
235.92	2183.13
236.14	2318.30
236.36	2447.32
236.58	2037.73
236.79	2248.67
237.01	2197.47
237.23	2205.66
237.45	2314.20
237.67	2070.50
237.88	2203.61
238.10	2392.03
238.32	2119.65
238.54	2191.33
238.76	2174.94
238.97	2127.84
239.19	2035.68
239.41	2101.22
239.63	2256.86
239.85	2131.94
240.06	2179.04
240.28	2170.85
240.50	2326.49
240.72	2181.09
240.93	2121.70
241.15	2256.86
241.37	2150.37
241.59	2308.06
241.81	2148.32
242.02	2133.98
242.24	2099.17
242.46	2220.00
242.68	1976.29
242.89	2144.22
243.11	2176.99
243.33	2224.09
243.55	2179.04
243.76	2193.37
243.98	2162.66
244.20	2138.08
244.42	2183.13
244.64	2187.23
244.85	2002.91
245.07	2086.88
245.29	2146.27
245.51	2058.21
245.72	2265.05
245.94	2293.72
246.16	2097.12
246.38	2164.70
246.59	2148.32
246.81	2146.27
247.03	2146.27
247.24	2031.58
247.46	2168.80
247.68	2191.33
247.90	2023.39
248.11	2090.98
248.33	2248.67
248.55	2185.18
248.77	2174.94
248.98	2166.75
249.20	2314.20
249.42	2199.52
249.64	2127.84
249.85	2185.18
250.07	2150.37
250.29	2240.48
250.50	2166.75
250.72	1996.77
250.94	2191.33
251.16	2340.83
251.37	2168.80
251.59	2240.48
251.81	2269.15
252.02	2324.44
252.24	2123.74
252.46	2189.28
252.68	2088.93
252.89	2152.42
253.11	1970.15
253.33	2308.06
253.54	2316.25
253.76	2068.45
253.98	2101.22
254.20	2093.02
254.41	2000.87
254.63	2203.61
254.85	2093.02
255.06	2119.65
255.28	2211.81
255.50	2170.85
255.71	2107.36
255.93	2123.74
256.15	2174.94
256.36	2277.34
256.58	2086.88
256.80	2129.89
257.02	2140.13
257.23	2232.29
257.45	2138.08
257.67	2220.00
257.88	2158.56
258.10	2181.09
258.32	2117.60
258.53	2109.41
258.75	2326.49
258.97	2123.74
259.18	2074.59
259.40	2082.78
259.62	2385.88
259.83	2367.45
260.05	2162.66
260.27	2559.96
260.48	2346.97
260.70	2097.12
260.92	2062.30
261.13	2193.37
261.35	2203.61
261.57	2246.62
261.78	2043.87
262.00	2136.03
262.22	2228.19
262.43	2121.70
262.65	2154.46
262.86	2162.66
263.08	2365.40
263.30	2154.46
263.51	2011.11
263.73	2123.74
263.95	2424.80
264.16	2127.84
264.38	2140.13
264.60	2152.42
264.81	2189.28
265.03	2248.67
265.25	2213.85
265.46	2168.80
265.68	2301.92
265.89	2242.53
266.11	2080.74
266.33	2158.56
266.54	2291.68
266.76	2293.72
266.98	2213.85
267.19	2293.72
267.41	2277.34
267.62	2236.38
267.84	2007.01
268.06	2187.23
268.27	2174.94
268.49	2332.64
268.70	2207.71
268.92	2125.79
269.14	2088.93
269.35	2080.74
269.57	2131.94
269.79	2230.24
270.00	2086.88
270.22	2379.74
270.43	1994.72
270.65	1951.71
270.87	2166.75
271.08	2238.43
271.30	2195.42
271.51	2148.32
271.73	2199.52
271.95	2342.88
272.16	2117.60
272.38	2176.99
272.59	2148.32
272.81	2234.33
273.02	2179.04
273.24	2158.56
273.46	2265.05
273.67	2107.36
273.89	2097.12
274.10	2070.50
274.32	2295.77
274.54	2273.25
274.75	2226.14
274.97	2150.37
275.18	2226.14
275.40	2314.20
275.61	2140.13
275.83	2199.52
276.05	2054.11
276.26	2162.66
276.48	2226.14
276.69	2176.99
276.91	2113.50
277.12	2340.83
277.34	2246.62
277.55	2328.54
277.77	2236.38
277.99	2185.18
278.20	2066.40
278.42	1970.15
278.63	2121.70
278.85	2162.66
279.06	2076.64
279.28	2248.67
279.49	2285.53
279.71	2379.74
279.93	2170.85
280.14	2133.98
280.36	2168.80
280.57	2318.30
280.79	2306.01
281.00	2129.89
281.22	2205.66
281.43	2293.72
281.65	2080.74
281.86	2058.21
282.08	2238.43
282.29	2332.64
282.51	2070.50
282.73	2176.99
282.94	2035.68
283.16	2277.34
283.37	2359.26
283.59	2191.33
283.80	2195.42
284.02	2301.92
284.23	2230.24
284.45	2140.13
284.66	2078.69
284.88	2119.65
285.09	2203.61
285.31	2236.38
285.52	2234.33
285.74	2084.83
285.95	2224.09
286.17	2176.99
286.38	2312.16
286.60	2187.23
286.81	2168.80
287.03	2099.17
287.24	2174.94
287.46	2250.72
287.67	2230.24
287.89	2310.11
288.10	2154.46
288.32	2232.29
288.53	2322.40
288.75	2195.42
288.96	2316.25
289.18	2195.42
289.39	2170.85
289.61	2248.67
289.82	2377.69
290.04	2408.41
290.25	2050.02
290.47	2123.74
290.68	2129.89
290.90	2334.68
291.11	2033.63
291.33	2174.94
291.54	2162.66
291.76	2234.33
291.97	2174.94
292.18	2185.18
292.40	2111.46
292.61	2125.79
292.83	2428.89
293.04	2199.52
293.26	2199.52
293.47	2201.57
293.69	2078.69
293.90	2215.90
294.12	2363.36
294.33	2183.13
294.55	2154.46
294.76	2277.34
294.97	2338.78
295.19	2365.40
295.40	2047.97
295.62	2199.52
295.83	2326.49
296.05	2090.98
296.26	2254.81
296.48	2113.50
296.69	2209.76
296.90	2215.90
297.12	2297.82
297.33	2265.05
297.55	2234.33
297.76	2209.76
297.98	2213.85
298.19	2203.61
298.41	2162.66
298.62	2093.02
298.83	2267.10
299.05	2138.08
299.26	2166.75
299.48	2045.92
299.69	2228.19
299.90	2195.42
300.12	2119.65
300.33	2256.86
300.55	2215.90
300.76	2265.05
300.98	2097.12
301.19	2224.09
301.40	2203.61
301.62	2066.40
301.83	2260.96
302.05	2220.00
302.26	2142.18
302.47	2181.09
302.69	2101.22
302.90	2197.47
303.12	2000.87
303.33	2236.38
303.54	2408.41
303.76	2093.02
303.97	2244.57
304.19	2320.35
304.40	2082.78
304.61	2234.33
304.83	2338.78
305.04	2267.10
305.26	2275.29
305.47	2201.57
305.68	2117.60
305.90	2029.54
306.11	2273.25
306.33	2185.18
306.54	2136.03
306.75	2117.60
306.97	2086.88
307.18	2127.84
307.39	2156.51
307.61	2220.00
307.82	2138.08
308.04	2254.81
308.25	2121.70
308.46	2244.57
308.68	2234.33
308.89	2121.70
309.10	2297.82
309.32	2203.61
309.53	2183.13
309.74	2232.29
309.96	2148.32
310.17	2285.53
310.39	2168.80
310.60	2205.66
310.81	2199.52
311.03	2123.74
311.24	2275.29
311.45	2170.85
311.67	2308.06
311.88	2113.50
312.09	2113.50
312.31	2164.70
312.52	2185.18
312.73	2185.18
312.95	2062.30
313.16	2107.36
313.37	2324.44
313.59	2228.19
313.80	2213.85
314.01	2301.92
314.23	2121.70
314.44	2129.89
314.65	2062.30
314.87	2080.74
315.08	2125.79
315.29	2158.56
315.51	2129.89
315.72	2025.44
315.93	2334.68
316.15	2203.61
316.36	2201.57
316.57	2283.49
316.79	2166.75
317.00	2095.07
317.21	2242.53
317.43	2156.51
317.64	2111.46
317.85	2111.46
318.07	2076.64
318.28	2193.37
318.49	2357.21
318.70	2465.75
318.92	2400.22
319.13	2314.20
319.34	2389.98
319.56	2353.12
319.77	2349.02
319.98	2318.30
320.20	2277.34
320.41	2279.39
320.62	2330.59
320.83	2129.89
321.05	2344.92
321.26	2224.09
321.47	2170.85
321.69	2318.30
321.90	2033.63
322.11	2103.26
322.32	2240.48
322.54	2377.69
322.75	2105.31
322.96	2492.38
323.18	2080.74
323.39	1998.82
323.60	2138.08
323.81	2256.86
324.03	2154.46
324.24	2125.79
324.45	2203.61
324.66	2115.55
324.88	2293.72
325.09	2314.20
325.30	2211.81
325.52	2166.75
325.73	2119.65
325.94	2121.70
326.15	2054.11
326.37	2082.78
326.58	2279.39
326.79	2383.84
327.00	2072.54
327.22	2189.28
327.43	2131.94
327.64	2127.84
327.85	2220.00
328.07	2193.37
328.28	2408.41
328.49	2146.27
328.70	2201.57
328.92	2138.08
329.13	2179.04
329.34	2236.38
329.55	2326.49
329.76	2281.44
329.98	2193.37
330.19	2375.64
330.40	2269.15
330.61	2265.05
330.83	2162.66
331.04	2133.98
331.25	2222.05
331.46	2154.46
331.68	2082.78
331.89	2265.05
332.10	2140.13
332.31	2088.93
332.52	2244.57
332.74	2283.49
332.95	2050.02
333.16	2142.18
333.37	2228.19
333.58	2090.98
333.80	2187.23
334.01	2007.01
334.22	2176.99
334.43	2158.56
334.64	2205.66
334.86	2062.30
335.07	2088.93
335.28	2379.74
335.49	2029.54
335.70	2170.85
335.92	2381.79
336.13	2416.60
336.34	2252.77
336.55	2176.99
336.76	2209.76
336.98	2017.25
337.19	2185.18
337.40	2289.63
337.61	2441.18
337.82	2103.26
338.04	2242.53
338.25	2156.51
338.46	2136.03
338.67	2125.79
338.88	2047.97
339.09	2078.69
339.31	2191.33
339.52	2033.63
339.73	2088.93
339.94	2136.03
340.15	2297.82
340.36	2109.41
340.58	2238.43
340.79	2084.83
341.00	2316.25
341.21	2123.74
341.42	2314.20
341.63	2189.28
341.85	2320.35
342.06	2197.47
342.27	2101.22
342.48	2244.57
342.69	2080.74
342.90	2236.38
343.12	2369.50
343.33	2060.26
343.54	2244.57
343.75	2314.20
343.96	2183.13
344.17	2152.42
344.38	2176.99
344.60	2168.80
344.81	2076.64
345.02	2133.98
345.23	2244.57
345.44	2494.43
345.65	2205.66
345.86	2222.05
346.07	2170.85
346.29	2109.41
346.50	2203.61
346.71	2226.14
346.92	2330.59
347.13	2367.45
347.34	2140.13
347.55	2113.50
347.76	2211.81
347.98	2058.21
348.19	2138.08
348.40	2297.82
348.61	2174.94
348.82	2334.68
349.03	2222.05
349.24	2170.85
349.45	2365.40
349.66	1961.95
349.88	2211.81
350.09	2144.22
350.30	2363.36
350.51	2312.16
350.72	2224.09
350.93	2209.76
351.14	2097.12
351.35	2256.86
351.56	2160.61
351.77	2201.57
351.99	2240.48
352.20	2308.06
352.41	2260.96
352.62	2070.50
352.83	2146.27
353.04	2172.89
353.25	2119.65
353.46	2285.53
353.67	2301.92
353.88	1984.48
354.09	2244.57
354.30	2230.24
354.52	2244.57
354.73	2129.89
354.94	2111.46
355.15	2160.61
355.36	2375.64
355.57	2123.74
355.78	2168.80
355.99	2117.60
356.20	2224.09
356.41	2314.20
356.62	2207.71
356.83	2228.19
357.04	2301.92
357.25	2033.63
357.46	2154.46
357.68	2062.30
357.89	2088.93
358.10	2203.61
358.31	2213.85
358.52	2154.46
358.73	2037.73
358.94	2103.26
359.15	2117.60
359.36	2351.07
359.57	2183.13
359.78	2125.79
359.99	2252.77
360.20	2097.12
360.41	2138.08
360.62	2193.37
360.83	2162.66
361.04	2191.33
361.25	2162.66
361.46	2426.84
361.67	2273.25
361.88	2322.40
362.09	2269.15
362.30	2232.29
362.51	2023.39
362.72	2109.41
362.93	2224.09
363.14	2228.19
363.35	2166.75
363.56	2103.26
363.78	2295.77
363.99	2269.15
364.20	2166.75
364.41	2185.18
364.62	2482.14
364.83	2293.72
365.04	2193.37
365.25	2158.56
365.46	2389.98
365.67	2148.32
365.88	2179.04
366.09	2162.66
366.30	2174.94
366.51	2166.75
366.72	2115.55
366.93	2191.33
367.14	2136.03
367.35	2281.44
367.56	2174.94
367.77	2269.15
367.98	2275.29
368.18	2312.16
368.39	2250.72
368.60	2070.50
368.81	2209.76
369.02	2191.33
369.23	2195.42
369.44	2082.78
369.65	2189.28
369.86	2207.71
370.07	2269.15
370.28	2109.41
370.49	2318.30
370.70	2326.49
370.91	2054.11
371.12	2037.73
371.33	2334.68
371.54	2197.47
371.75	2361.31
371.96	2056.16
372.17	2252.77
372.38	2133.98
372.59	2252.77
372.80	2039.78
373.01	2121.70
373.22	2176.99
373.43	2158.56
373.64	2119.65
373.85	2314.20
374.06	2398.17
374.26	2340.83
374.47	2277.34
374.68	2269.15
374.89	2191.33
375.10	2119.65
375.31	2238.43
375.52	2179.04
375.73	2250.72
375.94	2150.37
376.15	2318.30
376.36	2138.08
376.57	2119.65
376.78	2168.80
376.99	2187.23
377.20	2396.12
377.40	2095.07
377.61	2351.07
377.82	2107.36
378.03	2303.96
378.24	2306.01
378.45	2232.29
378.66	2179.04
378.87	2037.73
379.08	2039.78
379.29	2136.03
379.50	2359.26
379.71	2158.56
379.91	2265.05
380.12	2119.65
380.33	2277.34
380.54	2189.28
380.75	2129.89
380.96	2168.80
381.17	2301.92
381.38	2154.46
381.59	2213.85
381.80	2174.94
382.00	2428.89
382.21	2281.44
382.42	2389.98
382.63	2441.18
382.84	2236.38
383.05	2201.57
383.26	2357.21
383.47	2269.15
383.68	2183.13
383.88	2285.53
384.09	2230.24
384.30	2334.68
384.51	2238.43
384.72	2101.22
384.93	2093.02
385.14	2133.98
385.35	2277.34
385.55	2072.54
385.76	2287.58
385.97	2140.13
386.18	2119.65
386.39	2174.94
386.60	2105.31
386.81	2121.70
387.02	2117.60
387.22	2123.74
387.43	2254.81
387.64	2301.92
387.85	2422.75
388.06	2445.27
388.27	4079.55
388.48	8681.34
388.68	12562.24
388.89	14759.71
389.10	16021.26
389.31	14526.24
389.52	11421.52
389.73	9852.78
389.93	9017.21
390.14	8314.75
390.35	7364.50
390.56	6635.42
390.77	5306.29
390.98	4122.56
391.18	3321.81
391.39	2662.36
391.60	2383.84
391.81	2420.70
392.02	2179.04
392.23	2383.84
392.43	2269.15
392.64	2373.60
392.85	2269.15
393.06	2334.68
393.27	2256.86
393.47	2113.50
393.68	2172.89
393.89	2166.75
394.10	2265.05
394.31	2062.30
394.52	2127.84
394.72	2185.18
394.93	2293.72
395.14	2097.12
395.35	2220.00
395.56	2152.42
395.76	2189.28
395.97	2306.01
396.18	2314.20
396.39	2308.06
396.60	2666.46
396.80	2486.23
397.01	2363.36
397.22	2396.12
397.43	2334.68
397.64	2160.61
397.84	2306.01
398.05	2465.75
398.26	2254.81
398.47	2299.87
398.67	2332.64
398.88	2236.38
399.09	2193.37
399.30	2174.94
399.51	2232.29
399.71	2138.08
399.92	2201.57
400.13	2183.13
400.34	2156.51
400.54	2226.14
400.75	2340.83
400.96	2179.04
401.17	2295.77
401.37	2220.00
401.58	2160.61
401.79	2197.47
402.00	2301.92
402.21	2580.44
402.41	2598.87
402.62	2588.63
402.83	2629.59
403.04	2596.82
403.24	2709.46
403.45	2346.97
403.66	2457.56
403.87	2396.12
404.07	2488.28
404.28	2492.38
404.49	2432.99
404.70	2220.00
404.90	2254.81
405.11	2220.00
405.32	2240.48
405.52	2127.84
405.73	2125.79
405.94	2068.45
406.15	2211.81
406.35	2258.91
406.56	2179.04
406.77	2203.61
406.98	2240.48
407.18	2093.02
407.39	2351.07
407.60	2133.98
407.80	2201.57
408.01	2146.27
408.22	2260.96
408.43	2146.27
408.63	2277.34
408.84	2310.11
409.05	2310.11
409.25	2054.11
409.46	2144.22
409.67	2086.88
409.88	2117.60
410.08	2213.85
410.29	2193.37
410.50	2340.83
410.70	2234.33
410.91	2111.46
411.12	2260.96
411.32	2121.70
411.53	2125.79
411.74	2342.88
411.95	2197.47
412.15	2252.77
412.36	2265.05
412.57	2377.69
412.77	2363.36
412.98	2232.29
413.19	2213.85
413.39	2295.77
413.60	2179.04
413.81	2316.25
414.01	2191.33
414.22	2199.52
414.43	2287.58
414.63	2185.18
414.84	2285.53
415.05	2154.46
415.25	2052.06
415.46	2267.10
415.67	2162.66
415.87	2250.72
416.08	2220.00
416.29	2166.75
416.49	2256.86
416.70	2138.08
416.91	2168.80
417.11	2183.13
417.32	2375.64
417.53	2273.25
417.73	2246.62
417.94	2185.18
418.15	2197.47
418.35	2199.52
418.56	2179.04
418.77	2387.93
418.97	2189.28
419.18	2183.13
419.38	1972.19
419.59	2150.37
419.80	2336.73
420.00	2187.23
420.21	2250.72
420.42	2328.54
420.62	2181.09
420.83	2166.75
421.04	2129.89
421.24	2166.75
421.45	2211.81
421.65	2222.05
421.86	2195.42
422.07	2254.81
422.27	2258.91
422.48	2142.18
422.69	2164.70
422.89	2109.41
423.10	2168.80
423.30	2056.16
423.51	2191.33
423.72	2310.11
423.92	2289.63
424.13	2136.03
424.33	2154.46
424.54	2269.15
424.75	2244.57
424.95	2353.12
425.16	2146.27
425.36	2168.80
425.57	2330.59
425.78	2246.62
425.98	2263.01
426.19	2131.94
426.39	2115.55
426.60	2211.81
426.81	2306.01
427.01	2351.07
427.22	2119.65
427.42	2109.41
427.63	2144.22
427.83	2293.72
428.04	2357.21
428.25	2269.15
428.45	2351.07
428.66	2248.67
428.86	2105.31
429.07	2240.48
429.28	2160.61
429.48	2199.52
429.69	2086.88
429.89	2211.81
430.10	2058.21
430.30	2271.20
430.51	2338.78
430.71	2056.16
430.92	2123.74
431.13	2281.44
431.33	2269.15
431.54	2211.81
431.74	2355.16
431.95	2441.18
432.15	2037.73
432.36	2265.05
432.56	2281.44
432.77	2398.17
432.98	2500.57
433.18	2248.67
433.39	2185.18
433.59	2152.42
433.80	2432.99
434.00	2373.60
434.21	2074.59
434.41	2154.46
434.62	2463.71
434.82	2111.46
435.03	2144.22
435.23	2232.29
435.44	2047.97
435.64	2168.80
435.85	2185.18
436.06	2269.15
436.26	2285.53
436.47	2162.66
436.67	2111.46
436.88	2111.46
437.08	2244.57
437.29	2265.05
437.49	2222.05
437.70	2277.34
437.90	2152.42
438.11	2379.74
438.31	2242.53
438.52	2342.88
438.72	2353.12
438.93	2394.08
439.13	2310.11
439.34	2396.12
439.54	2236.38
439.75	2260.96
439.95	2275.29
440.16	2174.94
440.36	2283.49
440.57	2176.99
440.77	2275.29
440.98	2181.09
441.18	2283.49
441.39	2164.70
441.59	2117.60
441.80	2402.27
442.00	2158.56
442.21	2244.57
442.41	2035.68
442.62	2242.53
442.82	2080.74
443.02	2248.67
443.23	2176.99
443.43	2207.71
443.64	2402.27
443.84	2121.70
444.05	2283.49
444.25	2166.75
444.46	2170.85
444.66	2211.81
444.87	2349.02
445.07	2105.31
445.28	2185.18
445.48	2279.39
445.69	2211.81
445.89	2426.84
446.09	2183.13
446.30	2494.43
446.50	2793.43
446.71	4554.68
446.91	5558.19
447.12	6447.01
447.32	6813.59
447.53	6309.79
447.73	5105.59
447.93	4585.40
448.14	4151.23
448.34	4128.70
448.55	3641.29
448.75	3571.66
448.96	3315.66
449.16	3010.51
449.36	2797.53
449.57	2473.95
449.77	2314.20
449.98	2209.76
450.18	2326.49
450.39	2326.49
450.59	2273.25
450.79	2252.77
451.00	2154.46
451.20	2310.11
451.41	2146.27
451.61	2238.43
451.81	2170.85
452.02	2201.57
452.22	2205.66
452.43	2170.85
452.63	2154.46
452.84	2203.61
453.04	2111.46
453.24	2230.24
453.45	2121.70
453.65	2246.62
453.86	2140.13
454.06	2228.19
454.26	2234.33
454.47	2027.49
454.67	2301.92
454.87	2248.67
455.08	2174.94
455.28	2381.79
455.49	2260.96
455.69	2117.60
455.89	2375.64
456.10	2332.64
456.30	2179.04
456.51	2283.49
456.71	2244.57
456.91	2240.48
457.12	2220.00
457.32	2209.76
457.52	2070.50
457.73	2256.86
457.93	2289.63
458.14	2150.37
458.34	2097.12
458.54	2117.60
458.75	2217.95
458.95	2320.35
459.15	2265.05
459.36	2240.48
459.56	2191.33
459.76	2445.27
459.97	2181.09
460.17	2187.23
460.37	2299.87
460.58	2242.53
460.78	2220.00
460.99	2170.85
461.19	2209.76
461.39	2136.03
461.60	2160.61
461.80	2277.34
462.00	2170.85
462.21	2211.81
462.41	2160.61
462.61	2142.18
462.82	2023.39
463.02	2265.05
463.22	2242.53
463.43	2252.77
463.63	2209.76
463.83	2349.02
464.04	2295.77
464.24	2217.95
464.44	2023.39
464.64	2226.14
464.85	2269.15
465.05	2322.40
465.25	2220.00
465.46	2121.70
465.66	2285.53
465.86	2236.38
466.07	2285.53
466.27	2199.52
466.47	2088.93
466.68	2154.46
466.88	2330.59
467.08	2283.49
467.29	2271.20
467.49	2269.15
467.69	2289.63
467.89	2303.96
468.10	2199.52
468.30	2209.76
468.50	2277.34
468.71	2320.35
468.91	2074.59
469.11	2306.01
469.31	2205.66
469.52	2113.50
469.72	2334.68
469.92	2398.17
470.13	2174.94
470.33	2144.22
470.53	2265.05
470.73	2660.31
470.94	3174.35
471.14	3295.18
471.34	3698.63
471.54	3422.16
471.75	3178.45
471.95	2947.03
472.15	2686.94
472.36	2848.72
472.56	2748.37
472.76	2791.38
472.96	2633.69
473.17	2531.29
473.37	2443.23
473.57	2326.49
473.77	2316.25
473.98	2162.66
474.18	2150.37
474.38	2533.34
474.58	2207.71
474.79	2138.08
474.99	2174.94
475.19	2291.68
475.39	2066.40
475.60	2193.37
475.80	2162.66
476.00	2217.95
476.20	2162.66
476.41	2211.81
476.61	2287.58
476.81	2369.50
477.01	2101.22
477.21	2291.68
477.42	2277.34
477.62	2086.88
477.82	2324.44
478.02	2152.42
478.23	2232.29
478.43	2146.27
478.63	2197.47
478.83	2228.19
479.03	2101.22
479.24	2346.97
479.44	2439.13
479.64	2144.22
479.84	2015.20
480.04	2095.07
480.25	2293.72
480.45	2123.74
480.65	2197.47
480.85	2338.78
481.06	2150.37
481.26	2228.19
481.46	2265.05
481.66	2236.38
481.86	2060.26
482.06	2273.25
482.27	2113.50
482.47	2168.80
482.67	2236.38
482.87	2166.75
483.07	2263.01
483.28	2097.12
483.48	2107.36
483.68	2174.94
483.88	2117.60
484.08	2064.35
484.29	2064.35
484.49	2244.57
484.69	2121.70
484.89	2416.60
485.09	2224.09
485.29	2248.67
485.50	2150.37
485.70	2174.94
485.90	2379.74
486.10	2138.08
486.30	2226.14
486.50	2334.68
486.71	2236.38
486.91	2240.48
487.11	2263.01
487.31	2101.22
487.51	2248.67
487.71	2060.26
487.91	2150.37
488.12	2117.60
488.32	2017.25
488.52	2090.98
488.72	2045.92
488.92	2160.61
489.12	2330.59
489.32	2371.55
489.53	2215.90
489.73	2019.30
489.93	2314.20
490.13	2078.69
490.33	2078.69
490.53	2209.76
490.73	2281.44
490.94	2113.50
491.14	2293.72
491.34	2314.20
491.54	2447.32
491.74	3155.92
491.94	3817.41
492.14	4085.70
492.34	4124.61
492.54	3747.78
492.75	3215.31
492.95	3184.59
493.15	2918.36
493.35	2973.65
493.55	2744.28
493.75	2695.13
493.95	2637.78
494.15	2494.43
494.35	2400.22
494.56	2310.11
494.76	2234.33
494.96	2244.57
495.16	2211.81
495.36	2240.48
495.56	2205.66
495.76	2207.71
495.96	2220.00
496.16	2174.94
496.36	2394.08
496.56	2263.01
496.77	2232.29
496.97	2179.04
497.17	2361.31
497.37	2146.27
497.57	2238.43
497.77	2252.77
497.97	2160.61
498.17	2217.95
498.37	2209.76
498.57	2306.01
498.77	2062.30
498.97	2254.81
499.17	2375.64
499.38	2193.37
499.58	2310.11
499.78	2269.15
499.98	2369.50
500.18	2201.57
500.38	2179.04
500.58	2473.95
500.78	2846.68
500.98	5212.08
501.18	7380.88
501.38	9037.69
501.58	10065.77
501.78	9805.67
501.98	7847.82
502.18	6307.74
502.38	5586.86
502.58	5199.79
502.78	4581.31
502.98	4620.22
503.18	4343.74
503.38	3930.05
503.59	3571.66
503.79	3233.74
503.99	2930.64
504.19	2766.81
504.39	2867.16
504.59	2867.16
504.79	2822.10
504.99	2830.29
505.19	2555.86
505.39	2414.56
505.59	2549.72
505.79	2545.63
505.99	2492.38
506.19	2291.68
506.39	2422.75
506.59	2275.29
506.79	2228.19
506.99	2310.11
507.19	2191.33
507.39	2187.23
507.59	2166.75
507.79	2152.42
507.99	2191.33
508.19	2220.00
508.39	2189.28
508.59	2256.86
508.79	2406.36
508.99	2432.99
509.19	2197.47
509.39	2273.25
509.59	2166.75
509.79	2152.42
509.99	2258.91
510.19	2273.25
510.39	2232.29
510.59	2146.27
510.79	2127.84
510.99	2127.84
511.19	2168.80
511.39	2342.88
511.59	2252.77
511.79	2353.12
511.99	2213.85
512.19	2318.30
512.38	2226.14
512.58	2136.03
512.78	2197.47
512.98	2287.58
513.18	2404.32
513.38	2080.74
513.58	2228.19
513.78	2123.74
513.98	2138.08
514.18	2160.61
514.38	2185.18
514.58	2234.33
514.78	2162.66
514.98	2084.83
515.18	2176.99
515.38	2095.07
515.58	2385.88
515.78	2236.38
515.98	2154.46
516.18	2260.96
516.38	2250.72
516.57	2125.79
516.77	2187.23
516.97	2260.96
517.17	2232.29
517.37	2029.54
517.57	2260.96
517.77	2170.85
517.97	2199.52
518.17	2338.78
518.37	2138.08
518.57	2148.32
518.77	2203.61
518.97	2250.72
519.16	2242.53
519.36	2316.25
519.56	2193.37
519.76	2160.61
519.96	2136.03
520.16	2293.72
520.36	2152.42
520.56	2367.45
520.76	2256.86
520.96	2144.22
521.16	2312.16
521.35	2353.12
521.55	2392.03
521.75	2299.87
521.95	2217.95
522.15	2183.13
522.35	2084.83
522.55	2125.79
522.75	2320.35
522.95	2111.46
523.14	2125.79
523.34	2238.43
523.54	2170.85
523.74	2258.91
523.94	2195.42
524.14	2082.78
524.34	2224.09
524.54	2334.68
524.73	2193.37
524.93	2258.91
525.13	2168.80
525.33	2056.16
525.53	2416.60
525.73	2199.52
525.93	2207.71
526.13	2197.47
526.32	2166.75
526.52	2334.68
526.72	2361.31
526.92	2187.23
527.12	2193.37
527.32	2117.60
527.52	2260.96
527.71	2160.61
527.91	2162.66
528.11	2093.02
528.31	2250.72
528.51	2215.90
528.71	2228.19
528.90	2275.29
529.10	2396.12
529.30	2312.16
529.50	2052.06
529.70	2260.96
529.90	2185.18
530.09	2269.15
530.29	2095.07
530.49	2166.75
530.69	2406.36
530.89	2166.75
531.09	2277.34
531.28	2162.66
531.48	2285.53
531.68	2160.61
531.88	2185.18
532.08	2293.72
532.28	2183.13
532.47	2226.14
532.67	2375.64
532.87	2236.38
533.07	2203.61
533.27	2308.06
533.46	2308.06
533.66	2222.05
533.86	2230.24
534.06	2213.85
534.26	2179.04
534.45	2146.27
534.65	2334.68
534.85	2291.68
535.05	2203.61
535.25	2273.25
535.44	2037.73
535.64	2230.24
535.84	2220.00
536.04	2232.29
536.24	2170.85
536.43	2080.74
536.63	2263.01
536.83	2115.55
537.03	2172.89
537.22	2136.03
537.42	2097.12
537.62	2248.67
537.82	2166.75
538.02	2326.49
538.21	2367.45
538.41	2537.43
538.61	2314.20
538.81	2215.90
539.00	2365.40
539.20	2068.45
539.40	2187.23
539.60	2220.00
539.79	2248.67
539.99	2168.80
540.19	2111.46
540.39	2236.38
540.58	2228.19
540.78	2338.78
540.98	2281.44
541.18	2340.83
541.37	2256.86
541.57	2222.05
541.77	2205.66
541.97	2172.89
542.16	2109.41
542.36	2125.79
542.56	2185.18
542.76	2346.97
542.95	2277.34
543.15	2355.16
543.35	2271.20
543.54	2113.50
543.74	2146.27
543.94	2367.45
544.14	2125.79
544.33	2236.38
544.53	2176.99
544.73	2166.75
544.93	2164.70
545.12	2179.04
545.32	2162.66
545.52	2162.66
545.71	2052.06
545.91	2111.46
546.11	2154.46
546.30	2172.89
546.50	2160.61
546.70	2248.67
546.90	2246.62
547.09	2084.83
547.29	2187.23
547.49	2236.38
547.68	2291.68
547.88	2236.38
548.08	2228.19
548.27	2686.94
548.47	2093.02
548.67	2242.53
548.87	2265.05
549.06	2226.14
549.26	2193.37
549.46	2271.20
549.65	2185.18
549.85	2197.47
550.05	2238.43
550.24	2131.94
550.44	2199.52
550.64	2138.08
550.83	2113.50
551.03	2320.35
551.23	2312.16
551.42	2297.82
551.62	2140.13
551.82	2189.28
552.01	2181.09
552.21	2265.05
552.41	2260.96
552.60	2377.69
552.80	2224.09
553.00	2078.69
553.19	2244.57
553.39	2359.26
553.59	2158.56
553.78	2291.68
553.98	2209.76
554.17	2070.50
554.37	2215.90
554.57	2170.85
554.76	2150.37
554.96	2232.29
555.16	2215.90
555.35	2242.53
555.55	2164.70
555.75	2189.28
555.94	2263.01
556.14	2050.02
556.33	2215.90
556.53	2205.66
556.73	2226.14
556.92	2279.39
557.12	2297.82
557.32	2379.74
557.51	2412.51
557.71	2226.14
557.90	2355.16
558.10	2326.49
558.30	2248.67
558.49	2164.70
558.69	2168.80
558.88	2277.34
559.08	2312.16
559.28	2176.99
559.47	2168.80
559.67	2258.91
559.86	2435.03
560.06	2138.08
560.26	2101.22
560.45	2256.86
560.65	2111.46
560.84	2402.27
561.04	2164.70
561.24	2275.29
561.43	2123.74
561.63	2320.35
561.82	2232.29
562.02	2291.68
562.22	2189.28
562.41	2107.36
562.61	2197.47
562.80	2097.12
563.00	2482.14
563.19	2332.64
563.39	2246.62
563.59	2322.40
563.78	2179.04
563.98	2000.87
564.17	2136.03
564.37	2056.16
564.56	2205.66
564.76	2080.74
564.96	2289.63
565.15	2172.89
565.35	2457.56
565.54	2144.22
565.74	2242.53
565.93	2263.01
566.13	2215.90
566.32	2322.40
566.52	2158.56
566.71	2226.14
566.91	2293.72
567.11	2189.28
567.30	2156.51
567.50	2328.54
567.69	2267.10
567.89	2179.04
568.08	2176.99
568.28	2183.13
568.47	2174.94
568.67	2234.33
568.86	2189.28
569.06	2281.44
569.25	2187.23
569.45	2138.08
569.64	2195.42
569.84	2199.52
570.04	2291.68
570.23	2152.42
570.43	2158.56
570.62	2220.00
570.82	2383.84
571.01	2168.80
571.21	2131.94
571.40	2220.00
571.60	2351.07
571.79	2293.72
571.99	2238.43
572.18	2176.99
572.38	2217.95
572.57	2168.80
572.77	2252.77
572.96	2521.05
573.16	2275.29
573.35	2129.89
573.55	2334.68
573.74	2162.66
573.94	2183.13
574.13	2203.61
574.33	2285.53
574.52	2297.82
574.71	2244.57
574.91	2265.05
575.10	2115.55
575.30	2226.14
575.49	2111.46
575.69	2072.54
575.88	2291.68
576.08	2291.68
576.27	2332.64
576.47	2187.23
576.66	2396.12
576.86	2379.74
577.05	2355.16
577.25	2273.25
577.44	2410.46
577.64	2199.52
577.83	2295.77
578.02	2285.53
578.22	2385.88
578.41	2310.11
578.61	2191.33
578.80	2082.78
579.00	2230.24
579.19	2146.27
579.39	2275.29
579.58	2353.12
579.77	2314.20
579.97	2346.97
580.16	2260.96
580.36	2328.54
580.55	2258.91
580.75	2351.07
580.94	2236.38
581.13	2432.99
581.33	2367.45
581.52	2283.49
581.72	2457.56
581.91	2439.13
582.11	2228.19
582.30	2310.11
582.49	2310.11
582.69	2365.40
582.88	2359.26
583.08	2250.72
583.27	2310.11
583.47	2322.40
583.66	2199.52
583.85	2195.42
584.05	2224.09
584.24	2291.68
584.44	2342.88
584.63	2420.70
584.82	2406.36
585.02	2371.55
585.21	2340.83
585.41	2404.32
585.60	2326.49
585.79	2607.06
585.99	2439.13
586.18	2414.56
586.37	2848.72
586.57	4599.74
586.76	13287.22
586.96	32630.29
587.15	46751.03
587.34	55702.70
587.54	60769.38
587.73	56173.73
587.93	39507.37
588.12	29828.66
588.31	24352.40
588.51	20901.57
588.70	19214.04
588.89	17397.49
589.09	15095.58
589.28	13156.15
589.47	10608.48
589.67	8255.36
589.86	6504.35
590.06	4741.05
590.25	3780.55
590.44	3219.41
590.64	2813.91
590.83	2594.78
591.02	2504.67
591.22	2342.88
591.41	2314.20
591.60	2310.11
591.80	2555.86
591.99	2162.66
592.18	2234.33
592.38	2283.49
592.57	2306.01
592.76	2310.11
592.96	2244.57
593.15	2260.96
593.34	2267.10
593.54	2228.19
593.73	2318.30
593.92	2346.97
594.12	2363.36
594.31	2260.96
594.50	2369.50
594.70	2310.11
594.89	2539.48
595.08	2127.84
595.28	2256.86
595.47	2576.34
595.66	2349.02
595.86	2146.27
596.05	2281.44
596.24	2256.86
596.43	2404.32
596.63	2308.06
596.82	2293.72
597.01	2293.72
597.21	2363.36
597.40	2326.49
597.59	2201.57
597.79	2213.85
597.98	2351.07
598.17	2283.49
598.36	2220.00
598.56	2365.40
598.75	2121.70
598.94	2271.20
599.14	2181.09
599.33	2125.79
599.52	2240.48
599.71	2285.53
599.91	2295.77
600.10	2260.96
600.29	2228.19
600.48	2291.68
600.68	2240.48
600.87	2318.30
601.06	2158.56
601.26	2250.72
601.45	2238.43
601.64	2170.85
601.83	2375.64
602.03	2158.56
602.22	2097.12
602.41	2297.82
602.60	2469.85
602.80	2377.69
602.99	2189.28
603.18	2191.33
603.37	2267.10
603.57	2226.14
603.76	2226.14
603.95	2310.11
604.14	2119.65
604.34	2176.99
604.53	2226.14
604.72	2209.76
604.91	2342.88
605.10	2232.29
605.30	2029.54
605.49	2420.70
605.68	2328.54
605.87	2299.87
606.07	2193.37
606.26	2129.89
606.45	2267.10
606.64	2187.23
606.84	2162.66
607.03	2236.38
607.22	2367.45
607.41	2207.71
607.60	2220.00
607.80	2322.40
607.99	2330.59
608.18	2263.01
608.37	2224.09
608.56	2213.85
608.76	2346.97
608.95	2424.80
609.14	2365.40
609.33	2426.84
609.52	2389.98
609.72	2369.50
609.91	2297.82
610.10	2263.01
610.29	2402.27
610.48	2275.29
610.68	2310.11
610.87	2197.47
611.06	2308.06
611.25	2263.01
611.44	2377.69
611.63	2222.05
611.83	2314.20
612.02	2154.46
612.21	2238.43
612.40	2078.69
612.59	2160.61
612.79	2127.84
612.98	2252.77
613.17	2467.80
613.36	2217.95
613.55	2410.46
613.74	2301.92
613.93	2330.59
614.13	2459.61
614.32	2512.86
614.51	2443.23
614.70	2310.11
614.89	2265.05
615.08	2289.63
615.28	2643.93
615.47	2166.75
615.66	2277.34
615.85	2326.49
616.04	2416.60
616.23	2283.49
616.42	2238.43
616.62	2338.78
616.81	2306.01
617.00	2242.53
617.19	2340.83
617.38	2117.60
617.57	2258.91
617.76	2299.87
617.95	2287.58
618.15	2220.00
618.34	2340.83
618.53	2054.11
618.72	2252.77
618.91	2349.02
619.10	2344.92
619.29	2265.05
619.48	2189.28
619.68	2093.02
619.87	2176.99
620.06	2013.15
620.25	2236.38
620.44	2162.66
620.63	2166.75
620.82	2193.37
621.01	2187.23
621.20	2232.29
621.39	2248.67
621.59	2205.66
621.78	2340.83
621.97	2271.20
622.16	2260.96
622.35	2248.67
622.54	2303.96
622.73	2281.44
622.92	2047.97
623.11	2326.49
623.30	2234.33
623.49	2291.68
623.68	2148.32
623.88	2275.29
624.07	2215.90
624.26	2146.27
624.45	2191.33
624.64	2187.23
624.83	2220.00
625.02	2185.18
625.21	2168.80
625.40	2312.16
625.59	2332.64
625.78	2250.72
625.97	2408.41
626.16	2301.92
626.35	2332.64
626.54	2291.68
626.74	2357.21
626.93	2283.49
627.12	2242.53
627.31	2334.68
627.50	2320.35
627.69	2355.16
627.88	2174.94
628.07	2140.13
628.26	2078.69
628.45	2148.32
628.64	2154.46
628.83	2201.57
629.02	2074.59
629.21	2269.15
629.40	2310.11
629.59	2142.18
629.78	2133.98
629.97	2248.67
630.16	2258.91
630.35	2138.08
630.54	2215.90
630.73	2127.84
630.92	2121.70
631.11	2105.31
631.30	2250.72
631.49	2267.10
631.68	2138.08
631.87	2265.05
632.06	2041.82
632.25	2439.13
632.44	2234.33
632.63	2252.77
632.82	2246.62
633.01	2334.68
633.20	2355.16
633.39	2248.67
633.58	2224.09
633.77	2330.59
633.96	2342.88
634.15	2299.87
634.34	2256.86
634.53	2248.67
634.72	2176.99
634.91	2095.07
635.10	2283.49
635.29	2359.26
635.48	2252.77
635.67	2082.78
635.86	2076.64
636.05	2375.64
636.24	2187.23
636.43	2224.09
636.62	2236.38
636.81	1947.62
637.00	2224.09
637.19	2201.57
637.38	2224.09
637.57	2215.90
637.76	2303.96
637.95	2418.65
638.14	2256.86
638.33	2371.55
638.52	2283.49
638.71	2207.71
638.89	2162.66
639.08	2504.67
639.27	2416.60
639.46	2488.28
639.65	2916.31
639.84	2901.97
640.03	2979.79
640.22	2990.03
640.41	3026.90
640.60	2533.34
640.79	2605.02
640.98	2424.80
641.17	2469.85
641.36	2414.56
641.55	2441.18
641.74	2273.25
641.92	2283.49
642.11	2213.85
642.30	2234.33
642.49	2105.31
642.68	2226.14
642.87	2222.05
643.06	2275.29
643.25	2138.08
643.44	2090.98
643.63	2224.09
643.82	2185.18
644.00	2080.74
644.19	2119.65
644.38	2224.09
644.57	2256.86
644.76	2224.09
644.95	2160.61
645.14	2185.18
645.33	2113.50
645.52	2240.48
645.71	2176.99
645.89	2131.94
646.08	2183.13
646.27	2168.80
646.46	2332.64
646.65	2088.93
646.84	2250.72
647.03	2168.80
647.22	2308.06
647.40	2285.53
647.59	2164.70
647.78	2072.54
647.97	2142.18
648.16	2093.02
648.35	2330.59
648.54	2351.07
648.73	2176.99
648.91	2250.72
649.10	2238.43
649.29	2203.61
649.48	2189.28
649.67	2205.66
649.86	2289.63
650.05	2306.01
650.23	2392.03
650.42	2314.20
650.61	2523.10
650.80	2482.14
650.99	2441.18
651.18	2369.50
651.36	2418.65
651.55	2193.37
651.74	2277.34
651.93	2183.13
652.12	2203.61
652.31	2236.38
652.49	2166.75
652.68	2228.19
652.87	2306.01
653.06	2301.92
653.25	2340.83
653.44	2279.39
653.62	2394.08
653.81	2170.85
654.00	2236.38
654.19	2213.85
654.38	2432.99
654.56	2260.96
654.75	2152.42
654.94	2289.63
655.13	2101.22
655.32	2226.14
655.51	2269.15
655.69	2133.98
655.88	2236.38
656.07	2088.93
656.26	2273.25
656.45	2056.16
656.63	2170.85
656.82	2267.10
657.01	2207.71
657.20	2136.03
657.38	2254.81
657.57	2228.19
657.76	2031.58
657.95	2330.59
658.14	2136.03
658.32	2242.53
658.51	2129.89
658.70	2308.06
658.89	2252.77
659.08	2250.72
659.26	2402.27
659.45	2201.57
659.64	2379.74
659.83	2215.90
660.01	2562.01
660.20	2336.73
660.39	2432.99
660.58	2095.07
660.76	2242.53
660.95	2103.26
661.14	2232.29
661.33	2097.12
661.51	2191.33
661.70	2154.46
661.89	2267.10
662.08	2193.37
662.26	2111.46
662.45	2142.18
662.64	2521.05
662.83	2293.72
663.01	2064.35
663.20	2193.37
663.39	2396.12
663.58	2220.00
663.76	2209.76
663.95	2267.10
664.14	2136.03
664.32	2129.89
664.51	2144.22
664.70	2064.35
664.89	2217.95
665.07	2146.27
665.26	2293.72
665.45	2121.70
665.64	2322.40
665.82	2269.15
666.01	2273.25
666.20	2082.78
666.38	2326.49
666.57	2404.32
666.76	3309.52
666.95	8101.76
667.13	16359.17
667.32	22355.63
667.51	25685.62
667.69	28059.22
667.88	25661.05
668.07	18071.28
668.25	14534.43
668.44	12140.36
668.63	10319.71
668.81	9027.45
669.00	8011.65
669.19	7122.84
669.38	6131.62
669.56	5214.13
669.75	4468.67
669.94	3686.34
670.12	3203.02
670.31	2777.05
670.50	2519.00
670.68	2580.44
670.87	2355.16
671.06	2250.72
671.24	2263.01
671.43	2516.95
671.62	2297.82
671.80	2226.14
671.99	2263.01
672.18	2289.63
672.36	2334.68
672.55	2256.86
672.74	2181.09
672.92	2197.47
673.11	2250.72
673.29	2107.36
673.48	2289.63
673.67	2199.52
673.85	2248.67
674.04	2158.56
674.23	2318.30
674.41	2355.16
674.60	2123.74
674.79	2111.46
674.97	2189.28
675.16	2260.96
675.34	2375.64
675.53	2121.70
675.72	2220.00
675.90	2330.59
676.09	2131.94
676.28	2279.39
676.46	2031.58
676.65	2258.91
676.83	2107.36
677.02	2244.57
677.21	2211.81
677.39	2222.05
677.58	2224.09
677.77	2129.89
677.95	2152.42
678.14	2133.98
678.32	2166.75
678.51	2138.08
678.70	2428.89
678.88	2199.52
679.07	2193.37
679.25	2162.66
679.44	2174.94
679.63	2097.12
679.81	2166.75
680.00	2373.60
680.18	2242.53
680.37	2242.53
680.55	2207.71
680.74	2031.58
680.93	2009.06
681.11	2236.38
681.30	2250.72
681.48	2326.49
681.67	2119.65
681.85	2240.48
682.04	2084.83
682.23	2318.30
682.41	2246.62
682.60	2125.79
682.78	2226.14
682.97	2043.87
683.15	2240.48
683.34	2195.42
683.53	2297.82
683.71	2070.50
683.90	2387.93
684.08	2312.16
684.27	2111.46
684.45	2189.28
684.64	2351.07
684.82	2123.74
685.01	2279.39
685.19	2154.46
685.38	2291.68
685.57	2166.75
685.75	2133.98
685.94	2131.94
686.12	2148.32
686.31	2144.22
686.49	2369.50
686.68	2056.16
686.86	2293.72
687.05	2183.13
687.23	2275.29
687.42	2133.98
687.60	2101.22
687.79	2346.97
687.97	2324.44
688.16	2301.92
688.34	2279.39
688.53	1988.58
688.71	2289.63
688.90	2318.30
689.08	2152.42
689.27	2050.02
689.45	2265.05
689.64	2256.86
689.82	2189.28
690.01	2193.37
690.19	2205.66
690.38	2201.57
690.56	2310.11
690.75	2127.84
690.93	2185.18
691.12	2172.89
691.30	2224.09
691.49	2090.98
691.67	2193.37
691.86	2389.98
692.04	2080.74
692.23	2273.25
692.41	2226.14
692.60	2473.95
692.78	2394.08
692.97	2271.20
693.15	2271.20
693.34	2385.88
693.52	2351.07
693.71	2226.14
693.89	2185.18
694.08	2088.93
694.26	2244.57
694.44	2281.44
694.63	2242.53
694.81	2099.17
695.00	2127.84
695.18	2320.35
695.37	2473.95
695.55	2244.57
695.74	2191.33
695.92	2158.56
696.10	2396.12
696.29	2148.32
696.47	2082.78
696.66	2109.41
696.84	2146.27
697.03	2207.71
697.21	2412.51
697.40	3276.75
697.58	2293.72
697.76	2146.27
697.95	2125.79
698.13	2052.06
698.32	2111.46
698.50	2162.66
698.68	2166.75
698.87	2144.22
699.05	2351.07
699.24	2209.76
699.42	2107.36
699.61	2150.37
699.79	2252.77
699.97	2174.94
700.16	2064.35
700.34	2029.54
700.53	2168.80
700.71	2398.17
700.89	2269.15
701.08	2133.98
701.26	2193.37
701.45	2742.23
701.63	2107.36
701.81	2207.71
702.00	2107.36
702.18	2164.70
702.37	2199.52
702.55	2457.56
702.73	2457.56
702.92	2422.75
703.10	2473.95
703.28	2545.63
703.47	2295.77
703.65	2416.60
703.84	2467.80
704.02	2252.77
704.20	2484.19
704.39	2236.38
704.57	2273.25
704.75	2351.07
704.94	2260.96
705.12	2273.25
705.30	2449.37
705.49	4562.87
705.67	11220.82
705.86	20633.29
706.04	24850.05
706.22	28499.53
706.41	29845.05
706.59	25212.54
706.77	17948.40
706.96	14976.80
707.14	12939.07
707.32	11151.19
707.51	9887.59
707.69	8232.83
707.87	6455.20
708.06	5318.57
708.24	4241.34
708.42	3270.61
708.61	2934.74
708.79	2457.56
708.97	2375.64
709.16	2371.55
709.34	2355.16
709.52	2158.56
709.71	2273.25
709.89	2260.96
710.07	2121.70
710.26	2088.93
710.44	2250.72
710.62	2269.15
710.80	2205.66
710.99	2271.20
711.17	2260.96
711.35	2146.27
711.54	2154.46
711.72	2334.68
711.90	2201.57
712.09	2181.09
712.27	2172.89
712.45	2299.87
712.63	2170.85
712.82	2213.85
713.00	2236.38
713.18	2336.73
713.37	2275.29
713.55	2308.06
713.73	2207.71
713.91	2197.47
714.10	2158.56
714.28	2142.18
714.46	2283.49
714.65	2234.33
714.83	2277.34
715.01	2244.57
715.19	2201.57
715.38	2090.98
715.56	2250.72
715.74	2164.70
715.92	2113.50
716.11	2367.45
716.29	1990.63
716.47	2205.66
716.65	2203.61
716.84	2029.54
717.02	2293.72
717.20	2084.83
717.38	2211.81
717.57	2260.96
717.75	2252.77
717.93	2195.42
718.11	2299.87
718.30	2170.85
718.48	2254.81
718.66	2277.34
718.84	2269.15
719.03	2158.56
719.21	2064.35
719.39	2340.83
719.57	2273.25
719.75	2281.44
719.94	2033.63
720.12	2133.98
720.30	2234.33
720.48	2324.44
720.67	2193.37
720.85	2047.97
721.03	2183.13
721.21	2115.55
721.39	2328.54
721.58	2211.81
721.76	2195.42
721.94	2275.29
722.12	2258.91
722.30	2387.93
722.49	2238.43
722.67	2289.63
722.85	2244.57
723.03	2101.22
723.21	2168.80
723.40	2220.00
723.58	2289.63
723.76	2260.96
723.94	2338.78
724.12	2236.38
724.30	2441.18
724.49	2326.49
724.67	2193.37
724.85	2295.77
725.03	2136.03
725.21	2222.05
725.40	2318.30
725.58	2179.04
725.76	2330.59
725.94	2273.25
726.12	2052.06
726.30	2160.61
726.49	2224.09
726.67	2127.84
726.85	2252.77
727.03	2549.72
727.21	3712.97
727.39	5486.51
727.57	6688.67
727.76	7395.22
727.94	7700.36
728.12	7387.02
728.30	5943.21
728.48	5078.96
728.66	4452.28
728.84	4120.51
729.03	3594.19
729.21	3174.35
729.39	2756.57
729.57	2525.15
729.75	2359.26
729.93	2254.81
730.11	2181.09
730.30	2144.22
730.48	2144.22
730.66	2289.63
730.84	2269.15
731.02	2176.99
731.20	2148.32
731.38	2269.15
731.56	2088.93
731.74	2097.12
731.93	2230.24
732.11	2252.77
732.29	2211.81
732.47	2215.90
732.65	2226.14
732.83	2277.34
733.01	2238.43
733.19	2246.62
733.37	2330.59
733.56	2226.14
733.74	2187.23
733.92	2342.88
734.10	2234.33
734.28	2232.29
734.46	2084.83
734.64	2129.89
734.82	2195.42
735.00	2166.75
735.18	2047.97
735.36	2195.42
735.54	2228.19
735.73	2244.57
735.91	2164.70
736.09	2244.57
736.27	2205.66
736.45	2199.52
736.63	2045.92
736.81	2121.70
736.99	2258.91
737.17	2334.68
737.35	2158.56
737.53	2209.76
737.71	2187.23
737.89	2224.09
738.07	2101.22
738.25	2144.22
738.43	2029.54
738.61	2111.46
738.80	2097.12
738.98	2105.31
739.16	2176.99
739.34	2103.26
739.52	2351.07
739.70	2109.41
739.88	2351.07
740.06	2301.92
740.24	2043.87
740.42	2334.68
740.60	2062.30
740.78	2195.42
740.96	1966.05
741.14	2121.70
741.32	2207.71
741.50	2080.74
741.68	2379.74
741.86	2351.07
742.04	2099.17
742.22	2111.46
742.40	2199.52
742.58	2209.76
742.76	2154.46
742.94	2318.30
743.12	2041.82
743.30	2191.33
743.48	2217.95
743.66	2117.60
743.84	2176.99
744.02	2244.57
744.20	2170.85
744.38	2086.88
744.56	2193.37
744.74	2379.74
744.92	2260.96
745.10	2330.59
745.28	2222.05
745.46	2346.97
745.64	2203.61
745.82	2338.78
746.00	2193.37
746.18	2191.33
746.36	2045.92
746.54	2232.29
746.72	2236.38
746.90	2117.60
747.08	2265.05
747.26	2183.13
747.44	2226.14
747.62	2285.53
747.80	2287.58
747.98	2287.58
748.15	2113.50
748.33	2430.94
748.51	2217.95
748.69	2234.33
748.87	2107.36
749.05	2220.00
749.23	2222.05
749.41	2168.80
749.59	2154.46
749.77	2244.57
749.95	2234.33
750.13	2187.23
750.31	2215.90
750.49	2195.42
750.67	2220.00
750.85	2324.44
751.03	2211.81
751.20	2340.83
751.38	2170.85
751.56	2166.75
751.74	2248.67
751.92	2138.08
752.10	2189.28
752.28	2260.96
752.46	2142.18
752.64	2183.13
752.82	2150.37
753.00	2258.91
753.18	2097.12
753.35	2193.37
753.53	2224.09
753.71	2211.81
753.89	2238.43
754.07	2222.05
754.25	2285.53
754.43	2199.52
754.61	2170.85
754.79	2226.14
754.97	2152.42
755.14	2342.88
755.32	2111.46
755.50	2209.76
755.68	2201.57
755.86	2105.31
756.04	2129.89
756.22	2011.11
756.40	2250.72
756.57	2334.68
756.75	2162.66
756.93	2252.77
757.11	2211.81
757.29	2070.50
757.47	2123.74
757.65	2066.40
757.82	1994.72
758.00	2117.60
758.18	2174.94
758.36	2183.13
758.54	2310.11
758.72	2088.93
758.90	2226.14
759.07	2199.52
759.25	2072.54
759.43	2138.08
759.61	2060.26
759.79	3051.47
759.97	2277.34
760.15	2203.61
760.32	2127.84
760.50	2291.68
760.68	2371.55
760.86	2045.92
761.04	2316.25
761.22	2342.88
761.39	2156.51
761.57	2256.86
761.75	2133.98
761.93	2263.01
762.11	2158.56
762.28	2117.60
762.46	2007.01
762.64	2260.96
762.82	2072.54
763.00	2185.18
763.18	2334.68
763.35	2095.07
763.53	2269.15
763.71	2285.53
763.89	2154.46
764.07	2217.95
764.24	2193.37
764.42	2279.39
764.60	2103.26
764.78	2222.05
764.96	2310.11
765.13	2299.87
765.31	2195.42
765.49	2289.63
765.67	2084.83
765.84	2095.07
766.02	2113.50
766.20	2027.49
766.38	2144.22
766.56	2277.34
766.73	2242.53
766.91	2238.43
767.09	2160.61
767.27	2205.66
767.44	2197.47
767.62	2234.33
767.80	2240.48
767.98	2185.18
768.15	2211.81
768.33	2260.96
768.51	2287.58
768.69	2242.53
768.87	2101.22
769.04	2224.09
769.22	2482.14
769.40	2310.11
769.58	2428.89
769.75	2170.85
769.93	2322.40
770.11	2154.46
770.28	2176.99
770.46	2234.33
770.64	2211.81
770.82	2070.50
770.99	2123.74
771.17	2211.81
771.35	2158.56
771.53	2162.66
771.70	2129.89
771.88	2144.22
772.06	2166.75
772.23	2138.08
772.41	2248.67
772.59	2150.37
772.77	2066.40
772.94	2146.27
773.12	2260.96
773.30	2054.11
773.47	2232.29
773.65	2109.41
773.83	2359.26
774.01	2168.80
774.18	2039.78
774.36	2189.28
774.54	2072.54
774.71	2244.57
774.89	2037.73
775.07	2138.08
775.24	2154.46
775.42	2058.21
775.60	2287.58
775.78	2156.51
775.95	2097.12
776.13	2047.97
776.31	2050.02
776.48	2168.80
776.66	2267.10
776.84	2148.32
777.01	2101.22
777.19	2125.79
777.37	2146.27
777.54	2332.64
777.72	2379.74
777.90	2199.52
778.07	2066.40
778.25	2490.33
778.43	2201.57
778.60	2127.84
778.78	2244.57
778.96	2373.60
779.13	2095.07
779.31	2250.72
779.49	2238.43
779.66	2217.95
779.84	2170.85
780.01	2174.94
780.19	2115.55
780.37	2367.45
780.54	2258.91
780.72	2109.41
780.90	2158.56
781.07	2138.08
781.25	2158.56
781.43	2246.62
781.60	2138.08
781.78	2295.77
781.95	2240.48
782.13	2078.69
782.31	2220.00
782.48	2070.50
782.66	2172.89
782.83	2383.84
783.01	2205.66
783.19	2285.53
783.36	2176.99
783.54	2080.74
783.72	2258.91
783.89	2113.50
784.07	2232.29
784.24	2265.05
784.42	2328.54
784.60	2181.09
784.77	2162.66
784.95	2015.20
785.12	2158.56
785.30	2207.71
785.47	2045.92
785.65	2074.59
785.83	2160.61
786.00	2148.32
786.18	2203.61
786.35	2019.30
786.53	2062.30
786.71	2285.53
786.88	2308.06
787.06	2220.00
787.23	2138.08
787.41	2076.64
787.58	2201.57
787.76	2146.27
787.94	2133.98
788.11	2217.95
788.29	2064.35
788.46	2107.36
788.64	2062.30
788.81	2191.33
788.99	2179.04
789.16	2140.13
789.34	2146.27
789.52	2119.65
789.69	2131.94
789.87	2062.30
790.04	2150.37
790.22	2156.51
790.39	2371.55
790.57	2082.78
790.74	2111.46
790.92	2228.19
791.09	2082.78
791.27	2183.13
791.44	2269.15
791.62	2187.23
791.79	2340.83
791.97	2185.18
792.15	2465.75
792.32	2258.91
792.50	2226.14
792.67	2334.68
792.85	2291.68
793.02	2189.28
793.20	2150.37
793.37	2062.30
793.55	2179.04
793.72	2088.93
793.90	2174.94
794.07	2176.99
794.25	2093.02
794.42	2220.00
794.60	2176.99
794.77	2215.90
794.95	2181.09
795.12	2240.48
795.30	2197.47
795.47	2062.30
795.65	2437.08
795.82	2289.63
796.00	2047.97
796.17	2199.52
796.34	2164.70
796.52	2260.96
796.69	2293.72
796.87	2217.95
797.04	2236.38
797.22	2297.82
797.39	2263.01
797.57	2269.15
797.74	2185.18
797.92	2230.24
798.09	2179.04
798.27	2291.68
798.44	2117.60
798.62	2201.57
798.79	2193.37
798.96	2250.72
799.14	2197.47
799.31	2394.08
799.49	2189.28
799.66	2111.46
799.84	2166.75
800.01	2076.64
800.19	2232.29
800.36	2023.39
800.53	2209.76
800.71	2365.40
800.88	2385.88
801.06	2117.60
801.23	2097.12
801.41	2099.17
801.58	2174.94
801.75	2121.70
801.93	2205.66
802.10	2242.53
802.28	2199.52
802.45	2084.83
802.63	2265.05
802.80	2279.39
802.97	2138.08
803.15	2234.33
803.32	2170.85
803.50	2062.30
803.67	2138.08
803.84	2090.98
804.02	2201.57
804.19	2203.61
804.37	2045.92
804.54	2105.31
804.71	2172.89
804.89	2195.42
805.06	2121.70
805.24	2064.35
805.41	2043.87
805.58	2121.70
805.76	2441.18
805.93	2170.85
806.10	2297.82
806.28	2297.82
806.45	2224.09
806.63	2256.86
806.80	2156.51
806.97	2215.90
807.15	2156.51
807.32	2258.91
807.49	2136.03
807.67	1998.82
807.84	2246.62
808.01	2035.68
808.19	2359.26
808.36	2373.60
808.54	2160.61
808.71	2156.51
808.88	2113.50
809.06	2328.54
809.23	2322.40
809.40	2140.13
809.58	2230.24
809.75	2101.22
809.92	2072.54
810.10	2389.98
810.27	2138.08
810.44	2234.33
810.62	2277.34
810.79	2291.68
810.96	2156.51
811.14	2172.89
811.31	2207.71
811.48	2226.14
811.66	2115.55
811.83	2291.68
812.00	2189.28
812.18	2281.44
812.35	2344.92
812.52	2168.80
812.69	2105.31
812.87	2183.13
813.04	2101.22
813.21	2228.19
813.39	2111.46
813.56	2113.50
813.73	2439.13
813.91	2076.64
814.08	2162.66
814.25	2195.42
814.42	2023.39
814.60	2084.83
814.77	2250.72
814.94	2185.18
815.12	2174.94
815.29	2328.54
815.46	2050.02
815.63	2148.32
815.81	2201.57
815.98	2187.23
816.15	2078.69
816.33	2191.33
816.50	2164.70
816.67	2256.86
816.84	2162.66
817.02	2119.65
817.19	2230.24
817.36	2244.57
817.53	2275.29
817.71	2125.79
817.88	2289.63
818.05	2097.12
818.22	2174.94
818.40	2340.83
818.57	2062.30
818.74	2232.29
818.91	2211.81
819.09	2244.57
819.26	2281.44
819.43	2160.61
819.60	2148.32
819.78	2236.38
819.95	2281.44
820.12	2121.70
820.29	2324.44
820.47	2328.54
820.64	2105.31
820.81	2062.30
820.98	2090.98
821.15	2152.42
821.33	2275.29
821.50	2047.97
821.67	2287.58
821.84	2027.49
822.02	2234.33
822.19	2265.05
822.36	2111.46
822.53	2181.09
822.70	2127.84
822.88	2220.00
823.05	2320.35
823.22	2207.71
823.39	2193.37
823.56	2154.46
823.74	2404.32
823.91	2142.18
824.08	2131.94
824.25	2105.31
824.42	2371.55
824.60	2146.27
824.77	2246.62
824.94	2203.61
825.11	2185.18
825.28	2050.02
825.45	2193.37
825.63	2277.34
825.80	2045.92
825.97	2168.80
826.14	2146.27
826.31	1966.05
826.48	2279.39
826.66	2088.93
826.83	2015.20
827.00	2193.37
827.17	2103.26
827.34	2195.42
827.51	2078.69
827.69	2236.38
827.86	2054.11
828.03	2170.85
828.20	2125.79
828.37	2195.42
828.54	2236.38
828.71	2133.98
828.89	2349.02
829.06	2228.19
829.23	2334.68
829.40	2148.32
829.57	2162.66
829.74	2308.06
829.91	2133.98
830.09	2097.12
830.26	2220.00
830.43	2396.12
830.60	2185.18
830.77	2230.24
830.94	2330.59
831.11	2252.77
831.28	2170.85
831.46	2283.49
831.63	2166.75
831.80	2299.87
831.97	2103.26
832.14	2080.74
832.31	2260.96
832.48	2232.29
832.65	2291.68
832.82	2189.28
832.99	2224.09
833.17	2070.50
833.34	2344.92
833.51	2250.72
833.68	2007.01
833.85	2301.92
834.02	2154.46
834.19	2015.20
834.36	2154.46
834.53	2160.61
834.70	2310.11
834.87	2303.96
835.04	2201.57
835.22	2144.22
835.39	2195.42
835.56	2115.55
835.73	2090.98
835.90	2308.06
836.07	2045.92
836.24	2193.37
836.41	2060.26
836.58	2107.36
836.75	2373.60
836.92	2174.94
837.09	2072.54
837.26	2228.19
837.43	2207.71
837.60	2215.90
837.77	2146.27
837.94	2260.96
838.12	2385.88
838.29	2201.57
838.46	1972.19
838.63	2113.50
838.80	2273.25
838.97	2152.42
839.14	2164.70
839.31	2209.76
839.48	2283.49
839.65	2090.98
839.82	2258.91
839.99	2258.91
840.16	2203.61
840.33	2088.93
840.50	2117.60
840.67	2113.50
840.84	1990.63
841.01	2154.46
841.18	2090.98
841.35	2176.99
841.52	2295.77
841.69	2379.74
841.86	2199.52
842.03	2148.32
842.20	2297.82
842.37	2201.57
842.54	2211.81
842.71	2189.28
842.88	2144.22
843.05	2205.66
843.22	2133.98
843.39	2306.01
843.56	2068.45
843.73	2072.54
843.90	2197.47
844.07	2185.18
844.24	2281.44
844.41	2236.38
844.58	2228.19
844.75	2201.57
844.92	2308.06
845.09	2199.52
845.26	2056.16
845.43	2127.84
845.60	2162.66
845.77	2236.38
845.94	2121.70
846.10	2252.77
846.27	2113.50
846.44	2054.11
846.61	2168.80
846.78	2203.61
846.95	2242.53
847.12	2156.51
847.29	2203.61
847.46	2170.85
847.63	2289.63
847.80	2074.59
847.97	2136.03
848.14	2392.03
848.31	2121.70
848.48	2076.64
848.65	2265.05
848.82	2019.30
848.98	2441.18
849.15	2232.29
849.32	2213.85
849.49	2263.01
849.66	2193.37
849.83	2111.46
850.00	2166.75
850.17	2248.67
850.34	2105.31
850.51	2064.35
850.68	2152.42
850.85	2371.55
851.01	2228.19
851.18	2232.29
851.35	2121.70
851.52	2224.09
851.69	2351.07
851.86	2019.30
852.03	2125.79
852.20	2273.25
852.37	2113.50
852.53	2013.15
852.70	2166.75
852.87	2164.70
853.04	2248.67
853.21	2172.89
853.38	2340.83
853.55	2244.57
853.72	2365.40
853.89	2074.59
854.05	2105.31
854.22	2156.51
854.39	2138.08
854.56	2213.85
854.73	2244.57
854.90	2105.31
855.07	2166.75
855.23	2170.85
855.40	2127.84
855.57	2123.74
855.74	2039.78
855.91	2260.96
856.08	2056.16
856.25	2062.30
856.41	2172.89
856.58	2107.36
856.75	2195.42
856.92	2115.55
857.09	2318.30
857.26	1986.53
857.42	2179.04
857.59	2244.57
857.76	2183.13
857.93	2111.46
858.10	2281.44
858.27	2050.02
858.43	2195.42
858.60	2136.03
858.77	1945.57
858.94	2168.80
859.11	2244.57
859.27	2117.60
859.44	2105.31
859.61	2408.41
859.78	2271.20
859.95	2191.33
860.12	2095.07
860.28	2334.68
860.45	2412.51
860.62	2090.98
860.79	2242.53
860.95	2109.41
861.12	2070.50
861.29	2103.26
861.46	2121.70
861.63	2121.70
861.79	2123.74
861.96	2086.88
862.13	2113.50
862.30	2281.44
862.47	2099.17
862.63	2097.12
862.80	2242.53
862.97	2252.77
863.14	2226.14
863.30	2129.89
863.47	2129.89
863.64	2310.11
863.81	2236.38
863.97	2076.64
864.14	2215.90
864.31	2146.27
864.48	2220.00
864.65	2162.66
864.81	2295.77
864.98	2226.14
865.15	2236.38
865.32	2197.47
865.48	2295.77
865.65	2375.64
865.82	2166.75
865.98	2246.62
866.15	2289.63
866.32	2166.75
866.49	2097.12
866.65	2258.91
866.82	2066.40
866.99	2193.37
867.16	2127.84
867.32	2080.74
867.49	2113.50
867.66	2105.31
867.83	2121.70
867.99	2002.91
868.16	2109.41
868.33	2090.98
868.49	2183.13
868.66	2125.79
868.83	2252.77
868.99	2260.96
869.16	2203.61
869.33	2207.71
869.50	2265.05
869.66	2222.05
869.83	2209.76
870.00	2041.82
870.16	2179.04
870.33	2191.33
870.50	2293.72
870.66	2205.66
870.83	2285.53
871.00	2158.56
871.17	2222.05
871.33	2170.85
871.50	2162.66
871.67	2166.75
871.83	2185.18
872.00	2250.72
872.17	2099.17
872.33	2318.30
872.50	2287.58
872.67	2181.09
872.83	2121.70
873.00	2236.38
873.17	2127.84
873.33	2234.33
873.50	2154.46
873.67	2095.07
873.83	2168.80
874.00	2146.27
874.16	2252.77
874.33	2228.19
874.50	2183.13
874.66	2129.89
874.83	2160.61
875.00	2291.68
875.16	2246.62
875.33	2205.66
875.50	1957.86
875.66	2090.98
875.83	2215.90
875.99	2240.48
876.16	2162.66
876.33	1982.43
876.49	2113.50
876.66	2263.01
876.83	2154.46
876.99	2099.17
877.16	2144.22
877.32	2105.31
877.49	2121.70
877.66	2195.42
877.82	2316.25
877.99	2187.23
878.15	2170.85
878.32	2250.72
878.49	2234.33
878.65	2209.76
878.82	2240.48
878.98	2138.08
879.15	2263.01
879.32	2162.66
879.48	2209.76
879.65	2201.57
879.81	2185.18
879.98	2129.89
880.15	2166.75
880.31	2226.14
880.48	2064.35
880.64	2236.38
880.81	2174.94
880.97	2314.20
881.14	2269.15
881.31	2115.55
881.47	2369.50
881.64	2152.42
881.80	2000.87
881.97	2148.32
882.13	2222.05
882.30	2070.50
882.47	2156.51
882.63	2109.41
882.80	2125.79
882.96	2213.85
883.13	2338.78
883.29	2146.27
883.46	2201.57
883.62	2295.77
883.79	2279.39
883.95	2220.00
884.12	2150.37
884.29	2244.57
884.45	2228.19
884.62	2193.37
884.78	2068.45
884.95	2293.72
885.11	2115.55
885.28	2152.42
885.44	2105.31
885.61	2230.24
885.77	2381.79
885.94	2222.05
886.10	2172.89
886.27	2242.53
886.43	2265.05
886.60	2271.20
886.76	2115.55
886.93	2144.22
887.09	2197.47
887.26	2023.39
887.42	2131.94
887.59	2277.34
887.75	2367.45
887.92	2226.14
888.08	2222.05
888.25	2361.31
888.41	2334.68
888.58	2150.37
888.74	2125.79
888.91	2160.61
>>>>>End Processed Spectral Data<<<<<
