SpectraSuite Data File
++++++++++++++++++++++++++++++++++++
Date: Thu May 05 12:35:08 CEST 2016
User: root
Dark Spectrum Present: No
Reference Spectrum Present: No
Number of Sampled Component Spectra: 1
Spectrometers: USB4C02835
Integration Time (usec): 100000 (USB4C02835)
Spectra Averaged: 1 (USB4C02835)
Boxcar Smoothing: 0 (USB4C02835)
Correct for Electrical Dark: No (USB4C02835)
Strobe/Lamp Enabled: No (USB4C02835)
Correct for Detector Non-linearity: No (USB4C02835)
Correct for Stray Light: No (USB4C02835)
Number of Pixels in Processed Spectrum: 3648
>>>>>Begin Processed Spectral Data<<<<<
177.47	1751.01
177.69	1751.01
177.91	1751.01
178.13	1791.97
178.36	1730.53
178.58	2080.74
178.80	2166.75
179.02	2047.97
179.24	2039.78
179.46	2072.54
179.68	2228.19
179.90	2185.18
180.13	2222.05
180.35	2066.40
180.57	2105.31
180.79	2254.81
181.01	2170.85
181.23	2203.61
181.45	2185.18
181.67	2295.77
181.90	2240.48
182.12	2097.12
182.34	2011.11
182.56	2326.49
182.78	2252.77
183.00	2154.46
183.22	2117.60
183.44	2045.92
183.66	2473.95
183.89	2308.06
184.11	2107.36
184.33	2256.86
184.55	2338.78
184.77	2095.07
184.99	2123.74
185.21	2146.27
185.43	2465.75
185.65	2023.39
185.87	2123.74
186.10	2381.79
186.32	2461.66
186.54	2193.37
186.76	2205.66
186.98	2263.01
187.20	2211.81
187.42	2174.94
187.64	2158.56
187.86	2166.75
188.08	2273.25
188.30	2076.64
188.52	2224.09
188.75	2220.00
188.97	2246.62
189.19	2127.84
189.41	2131.94
189.63	2260.96
189.85	2103.26
190.07	1970.15
190.29	2066.40
190.51	2346.97
190.73	2004.96
190.95	2191.33
191.17	2150.37
191.39	2109.41
191.61	2146.27
191.84	2011.11
192.06	2205.66
192.28	1998.82
192.50	2572.25
192.72	2185.18
192.94	2121.70
193.16	2306.01
193.38	2238.43
193.60	2131.94
193.82	2086.88
194.04	2244.57
194.26	2271.20
194.48	2131.94
194.70	2056.16
194.92	2140.13
195.14	2260.96
195.36	2136.03
195.58	2238.43
195.80	2174.94
196.02	2158.56
196.24	2080.74
196.46	2203.61
196.69	2105.31
196.91	2396.12
197.13	2113.50
197.35	2119.65
197.57	2426.84
197.79	2197.47
198.01	2136.03
198.23	2215.90
198.45	2211.81
198.67	2146.27
198.89	2052.06
199.11	2176.99
199.33	2154.46
199.55	1945.57
199.77	2023.39
199.99	2217.95
200.21	2158.56
200.43	2273.25
200.65	1949.67
200.87	1980.39
201.09	2224.09
201.31	2236.38
201.53	2174.94
201.75	2113.50
201.97	2179.04
202.19	2146.27
202.41	2148.32
202.63	2242.53
202.85	2236.38
203.07	2275.29
203.29	2168.80
203.51	2127.84
203.73	2142.18
203.95	2519.00
204.17	2203.61
204.39	2158.56
204.61	2176.99
204.83	2138.08
205.05	2226.14
205.27	2217.95
205.49	2355.16
205.71	2158.56
205.93	1996.77
206.15	2054.11
206.37	2166.75
206.59	2246.62
206.81	2011.11
207.03	2062.30
207.25	2097.12
207.47	2258.91
207.69	2195.42
207.91	2230.24
208.13	2375.64
208.34	2138.08
208.56	2080.74
208.78	2133.98
209.00	2211.81
209.22	2138.08
209.44	2156.51
209.66	2105.31
209.88	2160.61
210.10	2113.50
210.32	2109.41
210.54	2189.28
210.76	2117.60
210.98	2242.53
211.20	1927.14
211.42	2199.52
211.64	2375.64
211.86	2291.68
212.08	2160.61
212.30	2123.74
212.52	2195.42
212.74	2217.95
212.96	2176.99
213.17	2154.46
213.39	2318.30
213.61	2295.77
213.83	2170.85
214.05	2152.42
214.27	2324.44
214.49	2119.65
214.71	2127.84
214.93	2240.48
215.15	2129.89
215.37	2256.86
215.59	2064.35
215.81	2138.08
216.03	2314.20
216.24	2238.43
216.46	2162.66
216.68	2176.99
216.90	2240.48
217.12	2281.44
217.34	2107.36
217.56	2205.66
217.78	2375.64
218.00	2176.99
218.22	2238.43
218.44	2207.71
218.66	2260.96
218.87	2357.21
219.09	2107.36
219.31	2217.95
219.53	2224.09
219.75	2195.42
219.97	2072.54
220.19	2158.56
220.41	2179.04
220.63	2287.58
220.85	2220.00
221.06	2140.13
221.28	2308.06
221.50	2293.72
221.72	2101.22
221.94	2004.96
222.16	2152.42
222.38	2324.44
222.60	2183.13
222.82	2136.03
223.03	2211.81
223.25	2109.41
223.47	2138.08
223.69	2220.00
223.91	2291.68
224.13	2121.70
224.35	2064.35
224.57	2263.01
224.78	2168.80
225.00	2119.65
225.22	2111.46
225.44	2125.79
225.66	2318.30
225.88	2195.42
226.10	2166.75
226.32	2207.71
226.53	2314.20
226.75	2150.37
226.97	2176.99
227.19	2093.02
227.41	2070.50
227.63	2129.89
227.85	1941.47
228.06	2066.40
228.28	2199.52
228.50	2318.30
228.72	2029.54
228.94	2101.22
229.16	1968.10
229.37	2056.16
229.59	2093.02
229.81	2228.19
230.03	2150.37
230.25	2101.22
230.47	2015.20
230.69	2095.07
230.90	2246.62
231.12	2093.02
231.34	2129.89
231.56	2246.62
231.78	2146.27
232.00	2144.22
232.21	2154.46
232.43	2129.89
232.65	1978.34
232.87	2084.83
233.09	2050.02
233.30	2004.96
233.52	2183.13
233.74	2215.90
233.96	2080.74
234.18	2105.31
234.40	2131.94
234.61	2408.41
234.83	2125.79
235.05	2031.58
235.27	2379.74
235.49	2316.25
235.70	2095.07
235.92	2183.13
236.14	2220.00
236.36	2453.47
236.58	1978.34
236.79	2138.08
237.01	2213.85
237.23	2193.37
237.45	2283.49
237.67	2117.60
237.88	2211.81
238.10	2430.94
238.32	2162.66
238.54	2084.83
238.76	2160.61
238.97	2088.93
239.19	2097.12
239.41	2199.52
239.63	2273.25
239.85	2146.27
240.06	2174.94
240.28	2047.97
240.50	2271.20
240.72	2191.33
240.93	2074.59
241.15	2197.47
241.37	2138.08
241.59	2310.11
241.81	2095.07
242.02	2133.98
242.24	2181.09
242.46	2230.24
242.68	2054.11
242.89	2070.50
243.11	2211.81
243.33	2179.04
243.55	2174.94
243.76	2176.99
243.98	2097.12
244.20	2138.08
244.42	2150.37
244.64	2133.98
244.85	2023.39
245.07	2127.84
245.29	2203.61
245.51	2082.78
245.72	2213.85
245.94	2316.25
246.16	2133.98
246.38	2160.61
246.59	2082.78
246.81	2154.46
247.03	2176.99
247.24	2043.87
247.46	2154.46
247.68	2191.33
247.90	2050.02
248.11	2086.88
248.33	2320.35
248.55	2203.61
248.77	2166.75
248.98	2162.66
249.20	2375.64
249.42	2306.01
249.64	2195.42
249.85	2109.41
250.07	2138.08
250.29	2215.90
250.50	2179.04
250.72	2000.87
250.94	2207.71
251.16	2441.18
251.37	2125.79
251.59	2160.61
251.81	2215.90
252.02	2256.86
252.24	2113.50
252.46	2168.80
252.68	2101.22
252.89	2152.42
253.11	2027.49
253.33	2281.44
253.54	2394.08
253.76	1970.15
253.98	2076.64
254.20	2119.65
254.41	2043.87
254.63	2211.81
254.85	2097.12
255.06	2158.56
255.28	2234.33
255.50	2185.18
255.71	2103.26
255.93	2002.91
256.15	2203.61
256.36	2226.14
256.58	2105.31
256.80	2156.51
257.02	2160.61
257.23	2185.18
257.45	2123.74
257.67	2193.37
257.88	2154.46
258.10	2199.52
258.32	2086.88
258.53	2199.52
258.75	2318.30
258.97	2213.85
259.18	2148.32
259.40	2150.37
259.62	2322.40
259.83	2324.44
260.05	2203.61
260.27	2584.54
260.48	2332.64
260.70	2050.02
260.92	2068.45
261.13	2070.50
261.35	2250.72
261.57	2179.04
261.78	2007.01
262.00	2074.59
262.22	2244.57
262.43	2093.02
262.65	2156.51
262.86	2154.46
263.08	2416.60
263.30	2168.80
263.51	2019.30
263.73	2078.69
263.95	2363.36
264.16	2117.60
264.38	2054.11
264.60	2183.13
264.81	2148.32
265.03	2344.92
265.25	2353.12
265.46	2146.27
265.68	2310.11
265.89	2224.09
266.11	1996.77
266.33	2113.50
266.54	2267.10
266.76	2162.66
266.98	2189.28
267.19	2279.39
267.41	2250.72
267.62	2138.08
267.84	2045.92
268.06	2166.75
268.27	2183.13
268.49	2267.10
268.70	2226.14
268.92	2209.76
269.14	2123.74
269.35	2074.59
269.57	2176.99
269.79	2191.33
270.00	2166.75
270.22	2349.02
270.43	2070.50
270.65	1961.95
270.87	2260.96
271.08	2119.65
271.30	2111.46
271.51	2121.70
271.73	2244.57
271.95	2244.57
272.16	2217.95
272.38	2209.76
272.59	2127.84
272.81	2334.68
273.02	2136.03
273.24	2109.41
273.46	2283.49
273.67	2076.64
273.89	2039.78
274.10	2093.02
274.32	2400.22
274.54	2207.71
274.75	2220.00
274.97	2185.18
275.18	2242.53
275.40	2250.72
275.61	2162.66
275.83	2203.61
276.05	2160.61
276.26	2211.81
276.48	2242.53
276.69	2176.99
276.91	2203.61
277.12	2328.54
277.34	2246.62
277.55	2234.33
277.77	2310.11
277.99	2207.71
278.20	2097.12
278.42	2045.92
278.63	2078.69
278.85	2152.42
279.06	2140.13
279.28	2172.89
279.49	2293.72
279.71	2306.01
279.93	2162.66
280.14	2240.48
280.36	2144.22
280.57	2373.60
280.79	2285.53
281.00	2074.59
281.22	2160.61
281.43	2308.06
281.65	1955.81
281.86	2076.64
282.08	2144.22
282.29	2394.08
282.51	2078.69
282.73	2152.42
282.94	2066.40
283.16	2275.29
283.37	2342.88
283.59	2156.51
283.80	2256.86
284.02	2228.19
284.23	2170.85
284.45	2166.75
284.66	2103.26
284.88	2097.12
285.09	2138.08
285.31	2201.57
285.52	2183.13
285.74	2045.92
285.95	2293.72
286.17	2201.57
286.38	2308.06
286.60	2142.18
286.81	2152.42
287.03	2136.03
287.24	2168.80
287.46	2209.76
287.67	2217.95
287.89	2326.49
288.10	2234.33
288.32	2244.57
288.53	2250.72
288.75	2138.08
288.96	2236.38
289.18	2207.71
289.39	2195.42
289.61	2189.28
289.82	2457.56
290.04	2351.07
290.25	2015.20
290.47	2197.47
290.68	2088.93
290.90	2322.40
291.11	2039.78
291.33	2271.20
291.54	2168.80
291.76	2093.02
291.97	2205.66
292.18	2256.86
292.40	2084.83
292.61	2166.75
292.83	2332.64
293.04	2213.85
293.26	2236.38
293.47	2246.62
293.69	2093.02
293.90	2107.36
294.12	2234.33
294.33	2242.53
294.55	2193.37
294.76	2209.76
294.97	2314.20
295.19	2420.70
295.40	2174.94
295.62	2170.85
295.83	2367.45
296.05	2101.22
296.26	2273.25
296.48	2123.74
296.69	2252.77
296.90	2162.66
297.12	2203.61
297.33	2258.91
297.55	2209.76
297.76	2207.71
297.98	2295.77
298.19	2166.75
298.41	2152.42
298.62	2142.18
298.83	2299.87
299.05	2230.24
299.26	2195.42
299.48	2007.01
299.69	2234.33
299.90	2176.99
300.12	2170.85
300.33	2226.14
300.55	2195.42
300.76	2271.20
300.98	2105.31
301.19	2287.58
301.40	2127.84
301.62	2168.80
301.83	2238.43
302.05	2162.66
302.26	2146.27
302.47	2183.13
302.69	2117.60
302.90	2226.14
303.12	1990.63
303.33	2277.34
303.54	2338.78
303.76	2185.18
303.97	2215.90
304.19	2285.53
304.40	2111.46
304.61	2283.49
304.83	2244.57
305.04	2269.15
305.26	2295.77
305.47	2187.23
305.68	2121.70
305.90	2136.03
306.11	2295.77
306.33	2105.31
306.54	2076.64
306.75	2185.18
306.97	2072.54
307.18	2133.98
307.39	2086.88
307.61	2226.14
307.82	2201.57
308.04	2211.81
308.25	2152.42
308.46	2224.09
308.68	2185.18
308.89	2197.47
309.10	2293.72
309.32	2181.09
309.53	2187.23
309.74	2222.05
309.96	2189.28
310.17	2230.24
310.39	2146.27
310.60	2326.49
310.81	2199.52
311.03	2072.54
311.24	2230.24
311.45	2230.24
311.67	2404.32
311.88	2211.81
312.09	2170.85
312.31	2226.14
312.52	2217.95
312.73	2111.46
312.95	2121.70
313.16	2101.22
313.37	2293.72
313.59	2293.72
313.80	2291.68
314.01	2414.56
314.23	2181.09
314.44	2103.26
314.65	2105.31
314.87	2093.02
315.08	2205.66
315.29	2095.07
315.51	2088.93
315.72	2117.60
315.93	2334.68
316.15	2121.70
316.36	2144.22
316.57	2289.63
316.79	2195.42
317.00	2138.08
317.21	2330.59
317.43	2125.79
317.64	2195.42
317.85	2189.28
318.07	2121.70
318.28	2183.13
318.49	2371.55
318.70	2482.14
318.92	2375.64
319.13	2387.93
319.34	2402.27
319.56	2322.40
319.77	2410.46
319.98	2349.02
320.20	2351.07
320.41	2306.01
320.62	2277.34
320.83	2136.03
321.05	2392.03
321.26	2258.91
321.47	2140.13
321.69	2340.83
321.90	2172.89
322.11	2199.52
322.32	2211.81
322.54	2361.31
322.75	2117.60
322.96	2437.08
323.18	2088.93
323.39	2080.74
323.60	2150.37
323.81	2224.09
324.03	2138.08
324.24	2119.65
324.45	2209.76
324.66	2090.98
324.88	2295.77
325.09	2322.40
325.30	2156.51
325.52	2224.09
325.73	2232.29
325.94	2093.02
326.15	2004.96
326.37	2252.77
326.58	2232.29
326.79	2332.64
327.00	2119.65
327.22	2236.38
327.43	2133.98
327.64	2013.15
327.85	2228.19
328.07	2146.27
328.28	2336.73
328.49	2148.32
328.70	2187.23
328.92	2140.13
329.13	2162.66
329.34	2310.11
329.55	2351.07
329.76	2326.49
329.98	2125.79
330.19	2361.31
330.40	2230.24
330.61	2179.04
330.83	2211.81
331.04	2070.50
331.25	2113.50
331.46	2181.09
331.68	2078.69
331.89	2291.68
332.10	2170.85
332.31	2078.69
332.52	2125.79
332.74	2326.49
332.95	2056.16
333.16	2113.50
333.37	2275.29
333.58	2150.37
333.80	2209.76
334.01	2054.11
334.22	2146.27
334.43	2097.12
334.64	2062.30
334.86	2082.78
335.07	2107.36
335.28	2297.82
335.49	2078.69
335.70	2209.76
335.92	2447.32
336.13	2398.17
336.34	2215.90
336.55	2275.29
336.76	2244.57
336.98	1959.91
337.19	2191.33
337.40	2308.06
337.61	2385.88
337.82	2248.67
338.04	2236.38
338.25	2017.25
338.46	2203.61
338.67	2187.23
338.88	2115.55
339.09	2156.51
339.31	2195.42
339.52	2070.50
339.73	2154.46
339.94	2217.95
340.15	2285.53
340.36	2156.51
340.58	2211.81
340.79	2148.32
341.00	2248.67
341.21	2189.28
341.42	2334.68
341.63	2068.45
341.85	2260.96
342.06	2277.34
342.27	2121.70
342.48	2244.57
342.69	2084.83
342.90	2244.57
343.12	2289.63
343.33	2078.69
343.54	2351.07
343.75	2330.59
343.96	2242.53
344.17	2166.75
344.38	2224.09
344.60	2070.50
344.81	2109.41
345.02	2095.07
345.23	2283.49
345.44	2486.23
345.65	2252.77
345.86	2174.94
346.07	2207.71
346.29	2222.05
346.50	2220.00
346.71	2269.15
346.92	2287.58
347.13	2299.87
347.34	2258.91
347.55	2260.96
347.76	2236.38
347.98	2086.88
348.19	2176.99
348.40	2338.78
348.61	2144.22
348.82	2408.41
349.03	2281.44
349.24	2082.78
349.45	2353.12
349.66	2027.49
349.88	2203.61
350.09	2060.26
350.30	2371.55
350.51	2375.64
350.72	2189.28
350.93	2224.09
351.14	2195.42
351.35	2242.53
351.56	2179.04
351.77	2162.66
351.99	2277.34
352.20	2381.79
352.41	2291.68
352.62	2127.84
352.83	2144.22
353.04	2195.42
353.25	2105.31
353.46	2250.72
353.67	2254.81
353.88	1980.39
354.09	2176.99
354.30	2144.22
354.52	2193.37
354.73	2187.23
354.94	2158.56
355.15	2260.96
355.36	2383.84
355.57	2105.31
355.78	2154.46
355.99	2060.26
356.20	2201.57
356.41	2263.01
356.62	2228.19
356.83	2244.57
357.04	2326.49
357.25	2007.01
357.46	2164.70
357.68	2043.87
357.89	2027.49
358.10	2138.08
358.31	2199.52
358.52	2244.57
358.73	2097.12
358.94	2064.35
359.15	2162.66
359.36	2287.58
359.57	2203.61
359.78	2146.27
359.99	2193.37
360.20	2060.26
360.41	2170.85
360.62	2295.77
360.83	2193.37
361.04	2236.38
361.25	2248.67
361.46	2271.20
361.67	2293.72
361.88	2250.72
362.09	2244.57
362.30	2254.81
362.51	2138.08
362.72	2199.52
362.93	2240.48
363.14	2258.91
363.35	2154.46
363.56	2093.02
363.78	2263.01
363.99	2236.38
364.20	2148.32
364.41	2170.85
364.62	2420.70
364.83	2234.33
365.04	2164.70
365.25	2179.04
365.46	2408.41
365.67	2050.02
365.88	2187.23
366.09	2158.56
366.30	2127.84
366.51	2254.81
366.72	2047.97
366.93	2242.53
367.14	2252.77
367.35	2250.72
367.56	2103.26
367.77	2320.35
367.98	2146.27
368.18	2248.67
368.39	2260.96
368.60	2150.37
368.81	2250.72
369.02	2316.25
369.23	2146.27
369.44	2062.30
369.65	2080.74
369.86	2203.61
370.07	2138.08
370.28	2109.41
370.49	2211.81
370.70	2260.96
370.91	2117.60
371.12	2078.69
371.33	2283.49
371.54	2123.74
371.75	2242.53
371.96	2025.44
372.17	2156.51
372.38	2215.90
372.59	2236.38
372.80	2162.66
373.01	2111.46
373.22	2244.57
373.43	2160.61
373.64	2099.17
373.85	2387.93
374.06	2392.03
374.26	2320.35
374.47	2195.42
374.68	2371.55
374.89	2281.44
375.10	2142.18
375.31	2256.86
375.52	2260.96
375.73	2183.13
375.94	2041.82
376.15	2318.30
376.36	2054.11
376.57	2090.98
376.78	2103.26
376.99	2179.04
377.20	2283.49
377.40	2117.60
377.61	2330.59
377.82	2097.12
378.03	2301.92
378.24	2267.10
378.45	2230.24
378.66	2140.13
378.87	2062.30
379.08	2097.12
379.29	2105.31
379.50	2328.54
379.71	2150.37
379.91	2250.72
380.12	2193.37
380.33	2150.37
380.54	2267.10
380.75	2199.52
380.96	2138.08
381.17	2209.76
381.38	2271.20
381.59	2195.42
381.80	2168.80
382.00	2334.68
382.21	2269.15
382.42	2355.16
382.63	2502.62
382.84	2248.67
383.05	2318.30
383.26	2355.16
383.47	2236.38
383.68	2224.09
383.88	2211.81
384.09	2189.28
384.30	2430.94
384.51	2207.71
384.72	2269.15
384.93	2082.78
385.14	2187.23
385.35	2285.53
385.55	2125.79
385.76	2293.72
385.97	2154.46
386.18	2041.82
386.39	2146.27
386.60	2084.83
386.81	2224.09
387.02	2097.12
387.22	2129.89
387.43	2310.11
387.64	2252.77
387.85	2514.91
388.06	2461.66
388.27	4196.29
388.48	8740.73
388.68	12216.13
388.89	14565.15
389.10	15744.78
389.31	14909.21
389.52	11460.43
389.73	9764.72
389.93	9029.49
390.14	8222.59
390.35	7382.93
390.56	6610.84
390.77	5289.90
390.98	4251.58
391.18	3250.13
391.39	2701.27
391.60	2301.92
391.81	2404.32
392.02	2168.80
392.23	2418.65
392.43	2213.85
392.64	2314.20
392.85	2203.61
393.06	2365.40
393.27	2252.77
393.47	2097.12
393.68	2138.08
393.89	2097.12
394.10	2301.92
394.31	2228.19
394.52	2187.23
394.72	2119.65
394.93	2306.01
395.14	2068.45
395.35	2242.53
395.56	2185.18
395.76	2267.10
395.97	2224.09
396.18	2295.77
396.39	2406.36
396.60	2762.71
396.80	2463.71
397.01	2359.26
397.22	2273.25
397.43	2414.56
397.64	2148.32
397.84	2349.02
398.05	2439.13
398.26	2078.69
398.47	2273.25
398.67	2357.21
398.88	2213.85
399.09	2318.30
399.30	2168.80
399.51	2207.71
399.71	2000.87
399.92	2220.00
400.13	2226.14
400.34	2174.94
400.54	2195.42
400.75	2336.73
400.96	2248.67
401.17	2373.60
401.37	2230.24
401.58	2187.23
401.79	2158.56
402.00	2263.01
402.21	2592.73
402.41	2519.00
402.62	2566.10
402.83	2713.56
403.04	2656.22
403.24	2850.77
403.45	2379.74
403.66	2432.99
403.87	2455.51
404.07	2406.36
404.28	2426.84
404.49	2439.13
404.70	2289.63
404.90	2297.82
405.11	2224.09
405.32	2285.53
405.52	2195.42
405.73	2189.28
405.94	2179.04
406.15	2162.66
406.35	2293.72
406.56	2291.68
406.77	2164.70
406.98	2166.75
407.18	2097.12
407.39	2396.12
407.60	2203.61
407.80	2158.56
408.01	2127.84
408.22	2244.57
408.43	2113.50
408.63	2222.05
408.84	2289.63
409.05	2328.54
409.25	2068.45
409.46	2115.55
409.67	2131.94
409.88	2168.80
410.08	2174.94
410.29	2142.18
410.50	2236.38
410.70	2295.77
410.91	2133.98
411.12	2201.57
411.32	2226.14
411.53	2062.30
411.74	2220.00
411.95	2299.87
412.15	2232.29
412.36	2318.30
412.57	2367.45
412.77	2373.60
412.98	2234.33
413.19	2185.18
413.39	2230.24
413.60	2211.81
413.81	2377.69
414.01	2093.02
414.22	2258.91
414.43	2240.48
414.63	2209.76
414.84	2351.07
415.05	2222.05
415.25	2117.60
415.46	2303.96
415.67	2211.81
415.87	2275.29
416.08	2222.05
416.29	2170.85
416.49	2301.92
416.70	2203.61
416.91	2080.74
417.11	2220.00
417.32	2297.82
417.53	2283.49
417.73	2316.25
417.94	2127.84
418.15	2228.19
418.35	2201.57
418.56	2238.43
418.77	2424.80
418.97	2183.13
419.18	2176.99
419.38	2004.96
419.59	2150.37
419.80	2461.66
420.00	2195.42
420.21	2179.04
420.42	2349.02
420.62	2236.38
420.83	2156.51
421.04	2103.26
421.24	2236.38
421.45	2297.82
421.65	2215.90
421.86	2172.89
422.07	2310.11
422.27	2236.38
422.48	2193.37
422.69	2064.35
422.89	2172.89
423.10	2168.80
423.30	2127.84
423.51	2160.61
423.72	2275.29
423.92	2287.58
424.13	2088.93
424.33	2154.46
424.54	2222.05
424.75	2232.29
424.95	2336.73
425.16	2136.03
425.36	2166.75
425.57	2334.68
425.78	2275.29
425.98	2285.53
426.19	2189.28
426.39	2138.08
426.60	2236.38
426.81	2371.55
427.01	2226.14
427.22	2195.42
427.42	2084.83
427.63	2101.22
427.83	2308.06
428.04	2342.88
428.25	2326.49
428.45	2246.62
428.66	2267.10
428.86	2179.04
429.07	2174.94
429.28	2156.51
429.48	2152.42
429.69	2043.87
429.89	2217.95
430.10	2078.69
430.30	2295.77
430.51	2310.11
430.71	2197.47
430.92	2103.26
431.13	2181.09
431.33	2248.67
431.54	2289.63
431.74	2365.40
431.95	2383.84
432.15	2101.22
432.36	2217.95
432.56	2256.86
432.77	2379.74
432.98	2346.97
433.18	2211.81
433.39	2166.75
433.59	2230.24
433.80	2373.60
434.00	2387.93
434.21	2191.33
434.41	2113.50
434.62	2478.04
434.82	2082.78
435.03	2168.80
435.23	2238.43
435.44	2107.36
435.64	2156.51
435.85	2228.19
436.06	2340.83
436.26	2320.35
436.47	2162.66
436.67	2133.98
436.88	2113.50
437.08	2318.30
437.29	2265.05
437.49	2252.77
437.70	2273.25
437.90	2168.80
438.11	2357.21
438.31	2277.34
438.52	2412.51
438.72	2373.60
438.93	2523.10
439.13	2297.82
439.34	2375.64
439.54	2269.15
439.75	2332.64
439.95	2275.29
440.16	2215.90
440.36	2242.53
440.57	2136.03
440.77	2146.27
440.98	2220.00
441.18	2258.91
441.39	2105.31
441.59	2127.84
441.80	2473.95
442.00	2162.66
442.21	2379.74
442.41	2037.73
442.62	2267.10
442.82	2097.12
443.02	2136.03
443.23	2230.24
443.43	2193.37
443.64	2297.82
443.84	2080.74
444.05	2334.68
444.25	2211.81
444.46	2154.46
444.66	2269.15
444.87	2297.82
445.07	2123.74
445.28	2150.37
445.48	2351.07
445.69	2236.38
445.89	2414.56
446.09	2238.43
446.30	2422.75
446.50	2818.00
446.71	4349.89
446.91	5562.28
447.12	6406.05
447.32	6676.38
447.53	6375.33
447.73	5113.78
447.93	4464.57
448.14	4214.72
448.34	4050.88
448.55	3655.62
448.75	3629.00
448.96	3450.83
449.16	2979.79
449.36	2789.33
449.57	2432.99
449.77	2342.88
449.98	2158.56
450.18	2267.10
450.39	2234.33
450.59	2308.06
450.79	2207.71
451.00	2107.36
451.20	2340.83
451.41	2211.81
451.61	2250.72
451.81	2195.42
452.02	2170.85
452.22	2119.65
452.43	2203.61
452.63	2267.10
452.84	2228.19
453.04	2166.75
453.24	2357.21
453.45	2154.46
453.65	2285.53
453.86	2140.13
454.06	2244.57
454.26	2308.06
454.47	2093.02
454.67	2289.63
454.87	2232.29
455.08	2197.47
455.28	2383.84
455.49	2222.05
455.69	2183.13
455.89	2408.41
456.10	2267.10
456.30	2136.03
456.51	2336.73
456.71	2256.86
456.91	2256.86
457.12	2252.77
457.32	2258.91
457.52	2117.60
457.73	2289.63
457.93	2287.58
458.14	2195.42
458.34	2050.02
458.54	2234.33
458.75	2191.33
458.95	2344.92
459.15	2199.52
459.36	2265.05
459.56	2211.81
459.76	2432.99
459.97	2209.76
460.17	2207.71
460.37	2238.43
460.58	2158.56
460.78	2301.92
460.99	2142.18
461.19	2224.09
461.39	2187.23
461.60	2220.00
461.80	2332.64
462.00	2090.98
462.21	2195.42
462.41	2179.04
462.61	2109.41
462.82	2047.97
463.02	2240.48
463.22	2211.81
463.43	2248.67
463.63	2230.24
463.83	2328.54
464.04	2226.14
464.24	2281.44
464.44	2168.80
464.64	2279.39
464.85	2146.27
465.05	2381.79
465.25	2240.48
465.46	2129.89
465.66	2226.14
465.86	2265.05
466.07	2183.13
466.27	2201.57
466.47	2064.35
466.68	2060.26
466.88	2310.11
467.08	2281.44
467.29	2330.59
467.49	2320.35
467.69	2162.66
467.89	2203.61
468.10	2170.85
468.30	2271.20
468.50	2324.44
468.71	2326.49
468.91	2097.12
469.11	2394.08
469.31	2230.24
469.52	2121.70
469.72	2412.51
469.92	2299.87
470.13	2250.72
470.33	2250.72
470.53	2379.74
470.73	2664.41
470.94	3088.34
471.14	3303.37
471.34	3616.71
471.54	3518.41
471.75	3131.34
471.95	2930.64
472.15	2852.82
472.36	2832.34
472.56	2719.70
472.76	2717.65
472.96	2678.74
473.17	2521.05
473.37	2467.80
473.57	2301.92
473.77	2279.39
473.98	2269.15
474.18	2156.51
474.38	2514.91
474.58	2226.14
474.79	2152.42
474.99	2246.62
475.19	2250.72
475.39	2142.18
475.60	2220.00
475.80	2146.27
476.00	2250.72
476.20	2211.81
476.41	2230.24
476.61	2269.15
476.81	2369.50
477.01	2123.74
477.21	2392.03
477.42	2338.78
477.62	2119.65
477.82	2310.11
478.02	2121.70
478.23	2215.90
478.43	2168.80
478.63	2152.42
478.83	2187.23
479.03	2197.47
479.24	2381.79
479.44	2363.36
479.64	2168.80
479.84	2033.63
480.04	2129.89
480.25	2318.30
480.45	2144.22
480.65	2142.18
480.85	2430.94
481.06	2185.18
481.26	2254.81
481.46	2277.34
481.66	2287.58
481.86	2136.03
482.06	2265.05
482.27	2166.75
482.47	2144.22
482.67	2260.96
482.87	2236.38
483.07	2285.53
483.28	2220.00
483.48	2095.07
483.68	2215.90
483.88	2097.12
484.08	2072.54
484.29	2131.94
484.49	2211.81
484.69	2119.65
484.89	2342.88
485.09	2316.25
485.29	2263.01
485.50	2222.05
485.70	2226.14
485.90	2349.02
486.10	2252.77
486.30	2185.18
486.50	2314.20
486.71	2289.63
486.91	2291.68
487.11	2297.82
487.31	2185.18
487.51	2256.86
487.71	2078.69
487.91	2183.13
488.12	2152.42
488.32	2000.87
488.52	2070.50
488.72	2062.30
488.92	2187.23
489.12	2306.01
489.32	2349.02
489.53	2250.72
489.73	2093.02
489.93	2342.88
490.13	2136.03
490.33	2150.37
490.53	2146.27
490.73	2385.88
490.94	2066.40
491.14	2310.11
491.34	2260.96
491.54	2596.82
491.74	3151.82
491.94	3706.82
492.14	4069.31
492.34	4007.87
492.54	3696.58
492.75	3268.56
492.95	3321.81
493.15	2996.18
493.35	2971.60
493.55	2869.20
493.75	2602.97
493.95	2723.80
494.15	2400.22
494.35	2373.60
494.56	2326.49
494.76	2265.05
494.96	2267.10
495.16	2230.24
495.36	2267.10
495.56	2312.16
495.76	2211.81
495.96	2183.13
496.16	2234.33
496.36	2355.16
496.56	2211.81
496.77	2187.23
496.97	2279.39
497.17	2254.81
497.37	2025.44
497.57	2228.19
497.77	2236.38
497.97	2103.26
498.17	2203.61
498.37	2195.42
498.57	2258.91
498.77	2203.61
498.97	2265.05
499.17	2367.45
499.38	2166.75
499.58	2224.09
499.78	2260.96
499.98	2308.06
500.18	2176.99
500.38	2150.37
500.58	2357.21
500.78	2795.48
500.98	5259.18
501.18	7294.86
501.38	9312.11
501.58	9987.94
501.78	9699.18
501.98	7851.91
502.18	6455.20
502.38	5504.94
502.58	5181.36
502.78	4720.57
502.98	4413.37
503.18	4261.82
503.38	3882.95
503.59	3502.03
503.79	3198.93
503.99	2912.21
504.19	2820.05
504.39	2834.39
504.59	2953.17
504.79	2856.92
504.99	2875.35
505.19	2443.23
505.39	2496.47
505.59	2605.02
505.79	2531.29
505.99	2455.51
506.19	2322.40
506.39	2424.80
506.59	2291.68
506.79	2166.75
506.99	2445.27
507.19	2217.95
507.39	2222.05
507.59	2127.84
507.79	2215.90
507.99	2181.09
508.19	2258.91
508.39	2146.27
508.59	2285.53
508.79	2344.92
508.99	2369.50
509.19	2162.66
509.39	2232.29
509.59	2140.13
509.79	2189.28
509.99	2299.87
510.19	2232.29
510.39	2334.68
510.59	2248.67
510.79	2117.60
510.99	2138.08
511.19	2195.42
511.39	2349.02
511.59	2277.34
511.79	2328.54
511.99	2207.71
512.19	2404.32
512.38	2273.25
512.58	2158.56
512.78	2195.42
512.98	2310.11
513.18	2314.20
513.38	2039.78
513.58	2256.86
513.78	2164.70
513.98	2189.28
514.18	2150.37
514.38	2189.28
514.58	2250.72
514.78	2185.18
514.98	2043.87
515.18	2195.42
515.38	2154.46
515.58	2383.84
515.78	2162.66
515.98	2183.13
516.18	2271.20
516.38	2195.42
516.57	2191.33
516.77	2209.76
516.97	2279.39
517.17	2125.79
517.37	2076.64
517.57	2260.96
517.77	2203.61
517.97	2201.57
518.17	2242.53
518.37	2179.04
518.57	2117.60
518.77	2203.61
518.97	2144.22
519.16	2226.14
519.36	2297.82
519.56	2242.53
519.76	2230.24
519.96	2240.48
520.16	2330.59
520.36	2138.08
520.56	2344.92
520.76	2115.55
520.96	2176.99
521.16	2367.45
521.35	2328.54
521.55	2357.21
521.75	2209.76
521.95	2191.33
522.15	2164.70
522.35	2113.50
522.55	2205.66
522.75	2260.96
522.95	2158.56
523.14	2115.55
523.34	2209.76
523.54	2103.26
523.74	2289.63
523.94	2230.24
524.14	2121.70
524.34	2258.91
524.54	2306.01
524.73	2138.08
524.93	2349.02
525.13	2248.67
525.33	2117.60
525.53	2400.22
525.73	2318.30
525.93	2191.33
526.13	2154.46
526.32	2183.13
526.52	2293.72
526.72	2306.01
526.92	2131.94
527.12	2211.81
527.32	2097.12
527.52	2248.67
527.71	2260.96
527.91	2207.71
528.11	2197.47
528.31	2209.76
528.51	2129.89
528.71	2162.66
528.90	2246.62
529.10	2324.44
529.30	2263.01
529.50	1980.39
529.70	2234.33
529.90	2174.94
530.09	2230.24
530.29	2125.79
530.49	2168.80
530.69	2430.94
530.89	2275.29
531.09	2222.05
531.28	2228.19
531.48	2322.40
531.68	2140.13
531.88	2240.48
532.08	2226.14
532.28	2105.31
532.47	2322.40
532.67	2312.16
532.87	2330.59
533.07	2162.66
533.27	2301.92
533.46	2246.62
533.66	2310.11
533.86	2236.38
534.06	2170.85
534.26	2293.72
534.45	2269.15
534.65	2334.68
534.85	2244.57
535.05	2125.79
535.25	2289.63
535.44	2103.26
535.64	2299.87
535.84	2129.89
536.04	2119.65
536.24	2242.53
536.43	2140.13
536.63	2181.09
536.83	2252.77
537.03	2156.51
537.22	2146.27
537.42	2078.69
537.62	2217.95
537.82	2187.23
538.02	2340.83
538.21	2346.97
538.41	2506.71
538.61	2260.96
538.81	2215.90
539.00	2285.53
539.20	2058.21
539.40	2170.85
539.60	2250.72
539.79	2242.53
539.99	2217.95
540.19	2160.61
540.39	2217.95
540.58	2197.47
540.78	2346.97
540.98	2287.58
541.18	2336.73
541.37	2330.59
541.57	2236.38
541.77	2244.57
541.97	2183.13
542.16	2056.16
542.36	2191.33
542.56	2226.14
542.76	2359.26
542.95	2224.09
543.15	2289.63
543.35	2203.61
543.54	2119.65
543.74	2133.98
543.94	2326.49
544.14	2131.94
544.33	2316.25
544.53	2174.94
544.73	2162.66
544.93	2150.37
545.12	2224.09
545.32	2215.90
545.52	2187.23
545.71	2117.60
545.91	2213.85
546.11	2213.85
546.30	2146.27
546.50	2193.37
546.70	2138.08
546.90	2267.10
547.09	2064.35
547.29	2209.76
547.49	2324.44
547.68	2115.55
547.88	2185.18
548.08	2299.87
548.27	2715.61
548.47	2095.07
548.67	2240.48
548.87	2228.19
549.06	2199.52
549.26	2269.15
549.46	2211.81
549.65	2146.27
549.85	2174.94
550.05	2279.39
550.24	2101.22
550.44	2220.00
550.64	2136.03
550.83	2156.51
551.03	2324.44
551.23	2301.92
551.42	2310.11
551.62	2193.37
551.82	2293.72
552.01	2125.79
552.21	2340.83
552.41	2224.09
552.60	2377.69
552.80	2260.96
553.00	2156.51
553.19	2181.09
553.39	2326.49
553.59	2123.74
553.78	2252.77
553.98	2256.86
554.17	2133.98
554.37	2230.24
554.57	2230.24
554.76	2078.69
554.96	2113.50
555.16	2263.01
555.35	2271.20
555.55	2281.44
555.75	2289.63
555.94	2301.92
556.14	2127.84
556.33	2238.43
556.53	2201.57
556.73	2183.13
556.92	2244.57
557.12	2285.53
557.32	2410.46
557.51	2359.26
557.71	2242.53
557.90	2375.64
558.10	2342.88
558.30	2205.66
558.49	2207.71
558.69	2181.09
558.88	2220.00
559.08	2269.15
559.28	2195.42
559.47	2193.37
559.67	2285.53
559.86	2445.27
560.06	2187.23
560.26	2220.00
560.45	2318.30
560.65	2314.20
560.84	2363.36
561.04	2119.65
561.24	2318.30
561.43	2113.50
561.63	2349.02
561.82	2240.48
562.02	2338.78
562.22	2170.85
562.41	2127.84
562.61	2207.71
562.80	2047.97
563.00	2432.99
563.19	2256.86
563.39	2281.44
563.59	2244.57
563.78	2140.13
563.98	2117.60
564.17	2144.22
564.37	2023.39
564.56	2222.05
564.76	2043.87
564.96	2320.35
565.15	2248.67
565.35	2471.90
565.54	2123.74
565.74	2185.18
565.93	2297.82
566.13	2224.09
566.32	2271.20
566.52	2263.01
566.71	2197.47
566.91	2263.01
567.11	2238.43
567.30	2052.06
567.50	2197.47
567.69	2252.77
567.89	2226.14
568.08	2189.28
568.28	2277.34
568.47	2215.90
568.67	2244.57
568.86	2150.37
569.06	2230.24
569.25	2154.46
569.45	2211.81
569.64	2127.84
569.84	2211.81
570.04	2205.66
570.23	2121.70
570.43	2179.04
570.62	2254.81
570.82	2375.64
571.01	2095.07
571.21	2115.55
571.40	2097.12
571.60	2328.54
571.79	2242.53
571.99	2301.92
572.18	2146.27
572.38	2205.66
572.57	2187.23
572.77	2267.10
572.96	2447.32
573.16	2236.38
573.35	2199.52
573.55	2377.69
573.74	2324.44
573.94	2150.37
574.13	2224.09
574.33	2287.58
574.52	2318.30
574.71	2224.09
574.91	2322.40
575.10	2101.22
575.30	2195.42
575.49	2205.66
575.69	2201.57
575.88	2281.44
576.08	2281.44
576.27	2355.16
576.47	2267.10
576.66	2426.84
576.86	2424.80
577.05	2316.25
577.25	2250.72
577.44	2494.43
577.64	2146.27
577.83	2349.02
578.02	2215.90
578.22	2406.36
578.41	2363.36
578.61	2226.14
578.80	2076.64
579.00	2250.72
579.19	2201.57
579.39	2242.53
579.58	2275.29
579.77	2131.94
579.97	2338.78
580.16	2342.88
580.36	2373.60
580.55	2275.29
580.75	2242.53
580.94	2236.38
581.13	2435.03
581.33	2424.80
581.52	2260.96
581.72	2420.70
581.91	2340.83
582.11	2228.19
582.30	2299.87
582.49	2338.78
582.69	2400.22
582.88	2293.72
583.08	2263.01
583.27	2377.69
583.47	2207.71
583.66	2252.77
583.85	2199.52
584.05	2240.48
584.24	2291.68
584.44	2301.92
584.63	2332.64
584.82	2422.75
585.02	2502.62
585.21	2392.03
585.41	2375.64
585.60	2385.88
585.79	2463.71
585.99	2484.19
586.18	2340.83
586.37	2873.30
586.57	4544.44
586.76	13344.56
586.96	32337.43
587.15	46228.80
587.34	55125.17
587.54	60470.37
587.73	55839.92
587.93	39355.82
588.12	29873.72
588.31	23748.25
588.51	20721.35
588.70	19121.88
588.89	17329.91
589.09	15003.42
589.28	12926.78
589.47	10471.26
589.67	8189.83
589.86	6541.21
590.06	4767.67
590.25	3831.75
590.44	3225.55
590.64	2725.85
590.83	2535.39
591.02	2459.61
591.22	2373.60
591.41	2377.69
591.60	2297.82
591.80	2551.77
591.99	2123.74
592.18	2207.71
592.38	2342.88
592.57	2248.67
592.76	2263.01
592.96	2279.39
593.15	2222.05
593.34	2363.36
593.54	2189.28
593.73	2250.72
593.92	2340.83
594.12	2297.82
594.31	2224.09
594.50	2394.08
594.70	2369.50
594.89	2484.19
595.08	2195.42
595.28	2365.40
595.47	2531.29
595.66	2439.13
595.86	2220.00
596.05	2213.85
596.24	2224.09
596.43	2361.31
596.63	2318.30
596.82	2332.64
597.01	2344.92
597.21	2445.27
597.40	2359.26
597.59	2291.68
597.79	2365.40
597.98	2256.86
598.17	2293.72
598.36	2279.39
598.56	2340.83
598.75	2215.90
598.94	2260.96
599.14	2224.09
599.33	2226.14
599.52	2287.58
599.71	2248.67
599.91	2244.57
600.10	2281.44
600.29	2185.18
600.48	2211.81
600.68	2299.87
600.87	2267.10
601.06	2209.76
601.26	2316.25
601.45	2222.05
601.64	2273.25
601.83	2375.64
602.03	2129.89
602.22	2127.84
602.41	2330.59
602.60	2455.51
602.80	2283.49
602.99	2265.05
603.18	2195.42
603.37	2267.10
603.57	2203.61
603.76	2332.64
603.95	2465.75
604.14	2170.85
604.34	2215.90
604.53	2254.81
604.72	2234.33
604.91	2404.32
605.10	2240.48
605.30	2125.79
605.49	2453.47
605.68	2355.16
605.87	2174.94
606.07	2127.84
606.26	2205.66
606.45	2252.77
606.64	2236.38
606.84	2201.57
607.03	2228.19
607.22	2363.36
607.41	2195.42
607.60	2205.66
607.80	2357.21
607.99	2193.37
608.18	2187.23
608.37	2232.29
608.56	2195.42
608.76	2308.06
608.95	2418.65
609.14	2357.21
609.33	2451.42
609.52	2451.42
609.72	2330.59
609.91	2375.64
610.10	2285.53
610.29	2381.79
610.48	2324.44
610.68	2252.77
610.87	2154.46
611.06	2242.53
611.25	2187.23
611.44	2306.01
611.63	2232.29
611.83	2365.40
612.02	2084.83
612.21	2340.83
612.40	2058.21
612.59	2152.42
612.79	2101.22
612.98	2129.89
613.17	2369.50
613.36	2283.49
613.55	2496.47
613.74	2285.53
613.93	2308.06
614.13	2455.51
614.32	2486.23
614.51	2410.46
614.70	2322.40
614.89	2299.87
615.08	2332.64
615.28	2768.85
615.47	2201.57
615.66	2318.30
615.85	2306.01
616.04	2398.17
616.23	2283.49
616.42	2377.69
616.62	2256.86
616.81	2275.29
617.00	2310.11
617.19	2230.24
617.38	2199.52
617.57	2248.67
617.76	2293.72
617.95	2269.15
618.15	2236.38
618.34	2340.83
618.53	2115.55
618.72	2277.34
618.91	2301.92
619.10	2367.45
619.29	2191.33
619.48	2217.95
619.68	2111.46
619.87	2199.52
620.06	2097.12
620.25	2363.36
620.44	2211.81
620.63	2183.13
620.82	2260.96
621.01	2205.66
621.20	2195.42
621.39	2252.77
621.59	2271.20
621.78	2260.96
621.97	2174.94
622.16	2252.77
622.35	2301.92
622.54	2318.30
622.73	2291.68
622.92	2115.55
623.11	2365.40
623.30	2222.05
623.49	2281.44
623.68	2138.08
623.88	2338.78
624.07	2199.52
624.26	2162.66
624.45	2277.34
624.64	2142.18
624.83	2119.65
625.02	2172.89
625.21	2203.61
625.40	2215.90
625.59	2334.68
625.78	2269.15
625.97	2334.68
626.16	2334.68
626.35	2373.60
626.54	2220.00
626.74	2428.89
626.93	2256.86
627.12	2326.49
627.31	2306.01
627.50	2265.05
627.69	2236.38
627.88	2220.00
628.07	2174.94
628.26	2080.74
628.45	2220.00
628.64	2131.94
628.83	2314.20
629.02	2054.11
629.21	2273.25
629.40	2217.95
629.59	2187.23
629.78	2144.22
629.97	2258.91
630.16	2291.68
630.35	2150.37
630.54	2213.85
630.73	2129.89
630.92	2211.81
631.11	2166.75
631.30	2260.96
631.49	2248.67
631.68	2297.82
631.87	2256.86
632.06	2125.79
632.25	2428.89
632.44	2189.28
632.63	2260.96
632.82	2326.49
633.01	2238.43
633.20	2310.11
633.39	2318.30
633.58	2209.76
633.77	2299.87
633.96	2340.83
634.15	2328.54
634.34	2336.73
634.53	2295.77
634.72	2146.27
634.91	2095.07
635.10	2234.33
635.29	2205.66
635.48	2263.01
635.67	2158.56
635.86	2064.35
636.05	2265.05
636.24	2187.23
636.43	2220.00
636.62	2258.91
636.81	1937.38
637.00	2191.33
637.19	2224.09
637.38	2226.14
637.57	2256.86
637.76	2308.06
637.95	2465.75
638.14	2277.34
638.33	2334.68
638.52	2389.98
638.71	2234.33
638.89	2199.52
639.08	2519.00
639.27	2361.31
639.46	2449.37
639.65	2877.40
639.84	2920.40
640.03	3010.51
640.22	3018.71
640.41	3061.71
640.60	2594.78
640.79	2512.86
640.98	2504.67
641.17	2490.33
641.36	2420.70
641.55	2400.22
641.74	2260.96
641.92	2293.72
642.11	2232.29
642.30	2283.49
642.49	2195.42
642.68	2136.03
642.87	2162.66
643.06	2252.77
643.25	2195.42
643.44	2090.98
643.63	2142.18
643.82	2217.95
644.00	2150.37
644.19	2250.72
644.38	2142.18
644.57	2240.48
644.76	2201.57
644.95	2195.42
645.14	2275.29
645.33	2211.81
645.52	2168.80
645.71	2095.07
645.89	2142.18
646.08	2084.83
646.27	2123.74
646.46	2461.66
646.65	2109.41
646.84	2203.61
647.03	2129.89
647.22	2246.62
647.40	2267.10
647.59	2172.89
647.78	2031.58
647.97	2131.94
648.16	2095.07
648.35	2346.97
648.54	2414.56
648.73	2187.23
648.91	2258.91
649.10	2260.96
649.29	2113.50
649.48	2146.27
649.67	2209.76
649.86	2275.29
650.05	2252.77
650.23	2424.80
650.42	2332.64
650.61	2510.81
650.80	2451.42
650.99	2484.19
651.18	2346.97
651.36	2310.11
651.55	2160.61
651.74	2236.38
651.93	2213.85
652.12	2193.37
652.31	2252.77
652.49	2154.46
652.68	2250.72
652.87	2367.45
653.06	2273.25
653.25	2406.36
653.44	2234.33
653.62	2379.74
653.81	2263.01
654.00	2236.38
654.19	2236.38
654.38	2494.43
654.56	2234.33
654.75	2215.90
654.94	2308.06
655.13	2162.66
655.32	2240.48
655.51	2281.44
655.69	2156.51
655.88	2250.72
656.07	2136.03
656.26	2191.33
656.45	2111.46
656.63	2201.57
656.82	2148.32
657.01	2295.77
657.20	2021.35
657.38	2404.32
657.57	2187.23
657.76	2093.02
657.95	2301.92
658.14	2113.50
658.32	2179.04
658.51	2041.82
658.70	2234.33
658.89	2267.10
659.08	2244.57
659.26	2314.20
659.45	2117.60
659.64	2322.40
659.83	2236.38
660.01	2596.82
660.20	2308.06
660.39	2457.56
660.58	2064.35
660.76	2234.33
660.95	2103.26
661.14	2248.67
661.33	2142.18
661.51	2172.89
661.70	2113.50
661.89	2172.89
662.08	2240.48
662.26	2121.70
662.45	2099.17
662.64	2412.51
662.83	2236.38
663.01	2121.70
663.20	2148.32
663.39	2365.40
663.58	2144.22
663.76	2236.38
663.95	2250.72
664.14	2138.08
664.32	2107.36
664.51	2156.51
664.70	2086.88
664.89	2254.81
665.07	2107.36
665.26	2283.49
665.45	2068.45
665.64	2203.61
665.82	2174.94
666.01	2314.20
666.20	2172.89
666.38	2236.38
666.57	2306.01
666.76	3334.09
666.95	8122.24
667.13	16443.14
667.32	21913.27
667.51	25489.02
667.69	27410.01
667.88	25566.84
668.07	18028.27
668.25	14522.15
668.44	11943.75
668.63	10397.54
668.81	9133.94
669.00	7782.28
669.19	7212.95
669.38	6176.67
669.56	5132.21
669.75	4339.65
669.94	3747.78
670.12	3114.96
670.31	2797.53
670.50	2523.10
670.68	2465.75
670.87	2428.89
671.06	2281.44
671.24	2359.26
671.43	2408.41
671.62	2349.02
671.80	2220.00
671.99	2291.68
672.18	2234.33
672.36	2361.31
672.55	2277.34
672.74	2148.32
672.92	2179.04
673.11	2271.20
673.29	2107.36
673.48	2293.72
673.67	2187.23
673.85	2332.64
674.04	2111.46
674.23	2228.19
674.41	2428.89
674.60	2088.93
674.79	2037.73
674.97	2121.70
675.16	2215.90
675.34	2301.92
675.53	2082.78
675.72	2248.67
675.90	2330.59
676.09	2142.18
676.28	2260.96
676.46	2045.92
676.65	2260.96
676.83	2127.84
677.02	2213.85
677.21	2265.05
677.39	2152.42
677.58	2193.37
677.77	2166.75
677.95	2093.02
678.14	2176.99
678.32	2125.79
678.51	2183.13
678.70	2394.08
678.88	2150.37
679.07	2201.57
679.25	2199.52
679.44	2191.33
679.63	2121.70
679.81	2244.57
680.00	2277.34
680.18	2287.58
680.37	2349.02
680.55	2224.09
680.74	2121.70
680.93	2058.21
681.11	2217.95
681.30	2189.28
681.48	2263.01
681.67	2176.99
681.85	2203.61
682.04	2082.78
682.23	2306.01
682.41	2271.20
682.60	2174.94
682.78	2220.00
682.97	2129.89
683.15	2224.09
683.34	2205.66
683.53	2351.07
683.71	2039.78
683.90	2285.53
684.08	2396.12
684.27	2086.88
684.45	2179.04
684.64	2308.06
684.82	2203.61
685.01	2207.71
685.19	2240.48
685.38	2312.16
685.57	2279.39
685.75	2127.84
685.94	2138.08
686.12	2131.94
686.31	2226.14
686.49	2387.93
686.68	2017.25
686.86	2172.89
687.05	2166.75
687.23	2301.92
687.42	2162.66
687.60	2113.50
687.79	2269.15
687.97	2326.49
688.16	2320.35
688.34	2322.40
688.53	2064.35
688.71	2236.38
688.90	2336.73
689.08	2144.22
689.27	2015.20
689.45	2316.25
689.64	2244.57
689.82	2183.13
690.01	2224.09
690.19	2228.19
690.38	2164.70
690.56	2246.62
690.75	2119.65
690.93	2152.42
691.12	2129.89
691.30	2181.09
691.49	2125.79
691.67	2301.92
691.86	2414.56
692.04	2131.94
692.23	2215.90
692.41	2222.05
692.60	2383.84
692.78	2383.84
692.97	2246.62
693.15	2338.78
693.34	2412.51
693.52	2316.25
693.71	2174.94
693.89	2170.85
694.08	2090.98
694.26	2312.16
694.44	2301.92
694.63	2310.11
694.81	2107.36
695.00	2109.41
695.18	2314.20
695.37	2424.80
695.55	2195.42
695.74	2158.56
695.92	2131.94
696.10	2334.68
696.29	2099.17
696.47	2131.94
696.66	2029.54
696.84	2156.51
697.03	2215.90
697.21	2367.45
697.40	3309.52
697.58	2340.83
697.76	2111.46
697.95	2076.64
698.13	2133.98
698.32	2170.85
698.50	2263.01
698.68	2248.67
698.87	2154.46
699.05	2371.55
699.24	2170.85
699.42	2119.65
699.61	2252.77
699.79	2179.04
699.97	2207.71
700.16	2086.88
700.34	2103.26
700.53	2236.38
700.71	2441.18
700.89	2246.62
701.08	2152.42
701.26	2297.82
701.45	2756.57
701.63	2195.42
701.81	2179.04
702.00	2211.81
702.18	2140.13
702.37	2140.13
702.55	2426.84
702.73	2416.60
702.92	2367.45
703.10	2570.20
703.28	2539.48
703.47	2295.77
703.65	2375.64
703.84	2488.28
704.02	2316.25
704.20	2400.22
704.39	2191.33
704.57	2189.28
704.75	2379.74
704.94	2369.50
705.12	2293.72
705.30	2576.34
705.49	4415.42
705.67	11265.88
705.86	20694.72
706.04	24774.28
706.22	28610.12
706.41	29523.52
706.59	25329.28
706.77	17999.60
706.96	14872.35
707.14	13008.70
707.32	10997.59
707.51	9817.96
707.69	8171.40
707.87	6475.68
708.06	5330.86
708.24	4339.65
708.42	3416.01
708.61	3135.44
708.79	2504.67
708.97	2377.69
709.16	2430.94
709.34	2250.72
709.52	2260.96
709.71	2220.00
709.89	2258.91
710.07	2138.08
710.26	2174.94
710.44	2217.95
710.62	2285.53
710.80	2111.46
710.99	2289.63
711.17	2301.92
711.35	2146.27
711.54	2174.94
711.72	2271.20
711.90	2265.05
712.09	2228.19
712.27	2138.08
712.45	2301.92
712.63	2189.28
712.82	2201.57
713.00	2199.52
713.18	2224.09
713.37	2240.48
713.55	2281.44
713.73	2236.38
713.91	2279.39
714.10	2209.76
714.28	2201.57
714.46	2150.37
714.65	2170.85
714.83	2215.90
715.01	2265.05
715.19	2189.28
715.38	2220.00
715.56	2191.33
715.74	2234.33
715.92	2097.12
716.11	2293.72
716.29	2033.63
716.47	2258.91
716.65	2179.04
716.84	2031.58
717.02	2281.44
717.20	2068.45
717.38	2117.60
717.57	2211.81
717.75	2144.22
717.93	2176.99
718.11	2215.90
718.30	2119.65
718.48	2162.66
718.66	2283.49
718.84	2260.96
719.03	2205.66
719.21	2062.30
719.39	2400.22
719.57	2226.14
719.75	2336.73
719.94	2099.17
720.12	2154.46
720.30	2205.66
720.48	2258.91
720.67	2121.70
720.85	2250.72
721.03	2097.12
721.21	2154.46
721.39	2328.54
721.58	2322.40
721.76	2220.00
721.94	2199.52
722.12	2179.04
722.30	2353.12
722.49	2156.51
722.67	2222.05
722.85	2220.00
723.03	2084.83
723.21	2168.80
723.40	2252.77
723.58	2295.77
723.76	2283.49
723.94	2265.05
724.12	2301.92
724.30	2400.22
724.49	2310.11
724.67	2187.23
724.85	2351.07
725.03	2152.42
725.21	2277.34
725.40	2306.01
725.58	2166.75
725.76	2418.65
725.94	2162.66
726.12	2138.08
726.30	2168.80
726.49	2185.18
726.67	2133.98
726.85	2248.67
727.03	2475.99
727.21	3698.63
727.39	5447.60
727.57	6707.10
727.76	7255.95
727.94	7862.15
728.12	7325.58
728.30	5941.16
728.48	4890.55
728.66	4605.88
728.84	4028.35
729.03	3553.23
729.21	3168.21
729.39	2844.63
729.57	2490.33
729.75	2453.47
729.93	2211.81
730.11	2244.57
730.30	2183.13
730.48	2154.46
730.66	2326.49
730.84	2271.20
731.02	2220.00
731.20	2138.08
731.38	2228.19
731.56	2129.89
731.74	2043.87
731.93	2193.37
732.11	2226.14
732.29	2193.37
732.47	2306.01
732.65	2240.48
732.83	2306.01
733.01	2263.01
733.19	2105.31
733.37	2240.48
733.56	2234.33
733.74	2154.46
733.92	2400.22
734.10	2176.99
734.28	2260.96
734.46	2064.35
734.64	2156.51
734.82	2215.90
735.00	2093.02
735.18	2220.00
735.36	2211.81
735.54	2193.37
735.73	2238.43
735.91	2316.25
736.09	2326.49
736.27	2203.61
736.45	2195.42
736.63	2007.01
736.81	2236.38
736.99	2365.40
737.17	2342.88
737.35	2168.80
737.53	2267.10
737.71	2187.23
737.89	2385.88
738.07	2119.65
738.25	2101.22
738.43	2031.58
738.61	2142.18
738.80	2127.84
738.98	2127.84
739.16	2133.98
739.34	2095.07
739.52	2318.30
739.70	2160.61
739.88	2254.81
740.06	2287.58
740.24	2029.54
740.42	2389.98
740.60	2023.39
740.78	2150.37
740.96	2082.78
741.14	2115.55
741.32	2187.23
741.50	2097.12
741.68	2420.70
741.86	2324.44
742.04	2152.42
742.22	2123.74
742.40	2220.00
742.58	2189.28
742.76	2129.89
742.94	2324.44
743.12	2062.30
743.30	2152.42
743.48	2332.64
743.66	2088.93
743.84	2197.47
744.02	2201.57
744.20	2183.13
744.38	2090.98
744.56	2101.22
744.74	2346.97
744.92	2220.00
745.10	2279.39
745.28	2205.66
745.46	2269.15
745.64	2197.47
745.82	2236.38
746.00	2154.46
746.18	2295.77
746.36	2111.46
746.54	2203.61
746.72	2217.95
746.90	2107.36
747.08	2242.53
747.26	2109.41
747.44	2328.54
747.62	2236.38
747.80	2273.25
747.98	2281.44
748.15	2129.89
748.33	2398.17
748.51	2246.62
748.69	2326.49
748.87	2144.22
749.05	2174.94
749.23	2144.22
749.41	2179.04
749.59	2119.65
749.77	2326.49
749.95	2131.94
750.13	2154.46
750.31	2201.57
750.49	2181.09
750.67	2310.11
750.85	2351.07
751.03	2215.90
751.20	2437.08
751.38	2217.95
751.56	2133.98
751.74	2211.81
751.92	2144.22
752.10	2113.50
752.28	2326.49
752.46	2062.30
752.64	2183.13
752.82	2183.13
753.00	2314.20
753.18	2176.99
753.35	2220.00
753.53	2176.99
753.71	2168.80
753.89	2197.47
754.07	2234.33
754.25	2306.01
754.43	2283.49
754.61	2078.69
754.79	2260.96
754.97	2156.51
755.14	2381.79
755.32	2117.60
755.50	2226.14
755.68	2193.37
755.86	2136.03
756.04	2168.80
756.22	2015.20
756.40	2318.30
756.57	2363.36
756.75	2078.69
756.93	2240.48
757.11	2265.05
757.29	2146.27
757.47	2115.55
757.65	1961.95
757.82	1998.82
758.00	2113.50
758.18	2195.42
758.36	2195.42
758.54	2383.84
758.72	2031.58
758.90	2256.86
759.07	2265.05
759.25	2113.50
759.43	2129.89
759.61	2072.54
759.79	3110.86
759.97	2252.77
760.15	2121.70
760.32	2152.42
760.50	2324.44
760.68	2326.49
760.86	2043.87
761.04	2246.62
761.22	2242.53
761.39	2293.72
761.57	2152.42
761.75	2158.56
761.93	2230.24
762.11	2129.89
762.28	2125.79
762.46	2136.03
762.64	2271.20
762.82	2043.87
763.00	2179.04
763.18	2217.95
763.35	2054.11
763.53	2279.39
763.71	2131.94
763.89	2179.04
764.07	2248.67
764.24	2129.89
764.42	2299.87
764.60	2195.42
764.78	2246.62
764.96	2238.43
765.13	2342.88
765.31	2156.51
765.49	2263.01
765.67	2129.89
765.84	2088.93
766.02	2183.13
766.20	2064.35
766.38	2226.14
766.56	2310.11
766.73	2301.92
766.91	2205.66
767.09	2236.38
767.27	2299.87
767.44	2119.65
767.62	2211.81
767.80	2160.61
767.98	2127.84
768.15	2090.98
768.33	2172.89
768.51	2277.34
768.69	2240.48
768.87	2164.70
769.04	2238.43
769.22	2469.85
769.40	2359.26
769.58	2406.36
769.75	2293.72
769.93	2373.60
770.11	2258.91
770.28	2162.66
770.46	2258.91
770.64	2238.43
770.82	2205.66
770.99	2140.13
771.17	2217.95
771.35	2121.70
771.53	2111.46
771.70	2125.79
771.88	2220.00
772.06	2154.46
772.23	2187.23
772.41	2140.13
772.59	2226.14
772.77	2084.83
772.94	2133.98
773.12	2197.47
773.30	2111.46
773.47	2291.68
773.65	2133.98
773.83	2224.09
774.01	2269.15
774.18	1982.43
774.36	2211.81
774.54	2088.93
774.71	2203.61
774.89	2015.20
775.07	2097.12
775.24	2154.46
775.42	2205.66
775.60	2310.11
775.78	2101.22
775.95	2004.96
776.13	1992.67
776.31	2009.06
776.48	2195.42
776.66	2283.49
776.84	2127.84
777.01	2115.55
777.19	2133.98
777.37	2084.83
777.54	2287.58
777.72	2332.64
777.90	2187.23
778.07	2138.08
778.25	2559.96
778.43	2330.59
778.60	2125.79
778.78	2281.44
778.96	2269.15
779.13	2121.70
779.31	2183.13
779.49	2213.85
779.66	2129.89
779.84	2179.04
780.01	2168.80
780.19	2072.54
780.37	2244.57
780.54	2238.43
780.72	2119.65
780.90	2142.18
781.07	2197.47
781.25	2117.60
781.43	2244.57
781.60	2154.46
781.78	2351.07
781.95	2224.09
782.13	2144.22
782.31	2201.57
782.48	1974.24
782.66	2172.89
782.83	2379.74
783.01	2267.10
783.19	2236.38
783.36	2213.85
783.54	2084.83
783.72	2293.72
783.89	2156.51
784.07	2244.57
784.24	2199.52
784.42	2291.68
784.60	2220.00
784.77	2185.18
784.95	1994.72
785.12	2123.74
785.30	2140.13
785.47	2146.27
785.65	2113.50
785.83	2193.37
786.00	2121.70
786.18	2125.79
786.35	2095.07
786.53	2109.41
786.71	2367.45
786.88	2234.33
787.06	2193.37
787.23	2097.12
787.41	2039.78
787.58	2125.79
787.76	2119.65
787.94	2240.48
788.11	2260.96
788.29	2068.45
788.46	2121.70
788.64	2099.17
788.81	2115.55
788.99	2084.83
789.16	2099.17
789.34	2131.94
789.52	2095.07
789.69	2150.37
789.87	2064.35
790.04	2080.74
790.22	2125.79
790.39	2451.42
790.57	1996.77
790.74	2111.46
790.92	2258.91
791.09	1964.00
791.27	2191.33
791.44	2351.07
791.62	2174.94
791.79	2308.06
791.97	2191.33
792.15	2435.03
792.32	2273.25
792.50	2297.82
792.67	2316.25
792.85	2201.57
793.02	2133.98
793.20	2174.94
793.37	2027.49
793.55	2170.85
793.72	2111.46
793.90	2162.66
794.07	2146.27
794.25	2088.93
794.42	2209.76
794.60	2176.99
794.77	2228.19
794.95	2244.57
795.12	2322.40
795.30	2187.23
795.47	1986.53
795.65	2432.99
795.82	2195.42
796.00	1996.77
796.17	2146.27
796.34	2205.66
796.52	2312.16
796.69	2287.58
796.87	2258.91
797.04	2209.76
797.22	2248.67
797.39	2185.18
797.57	2263.01
797.74	2195.42
797.92	2205.66
798.09	2088.93
798.27	2279.39
798.44	2213.85
798.62	2142.18
798.79	2250.72
798.96	2279.39
799.14	2211.81
799.31	2379.74
799.49	2199.52
799.66	2244.57
799.84	2166.75
800.01	2045.92
800.19	2258.91
800.36	2023.39
800.53	2197.47
800.71	2258.91
800.88	2301.92
801.06	2136.03
801.23	2144.22
801.41	2103.26
801.58	2144.22
801.75	2160.61
801.93	2199.52
802.10	2318.30
802.28	2138.08
802.45	2119.65
802.63	2166.75
802.80	2271.20
802.97	2174.94
803.15	2164.70
803.32	2164.70
803.50	2103.26
803.67	2117.60
803.84	2088.93
804.02	2234.33
804.19	2121.70
804.37	2023.39
804.54	2052.06
804.71	2117.60
804.89	2211.81
805.06	2179.04
805.24	2013.15
805.41	2025.44
805.58	2162.66
805.76	2475.99
805.93	2170.85
806.10	2351.07
806.28	2238.43
806.45	2244.57
806.63	2230.24
806.80	2181.09
806.97	2162.66
807.15	2275.29
807.32	2203.61
807.49	2244.57
807.67	2066.40
807.84	2205.66
808.01	2033.63
808.19	2277.34
808.36	2453.47
808.54	2172.89
808.71	2174.94
808.88	2156.51
809.06	2271.20
809.23	2375.64
809.40	2125.79
809.58	2232.29
809.75	2172.89
809.92	2068.45
810.10	2379.74
810.27	2170.85
810.44	2215.90
810.62	2254.81
810.79	2256.86
810.96	2174.94
811.14	2162.66
811.31	2291.68
811.48	2250.72
811.66	2187.23
811.83	2379.74
812.00	2254.81
812.18	2185.18
812.35	2351.07
812.52	2121.70
812.69	2205.66
812.87	2152.42
813.04	2131.94
813.21	2115.55
813.39	2090.98
813.56	2093.02
813.73	2232.29
813.91	2039.78
814.08	2195.42
814.25	2187.23
814.42	1998.82
814.60	2172.89
814.77	2174.94
814.94	2144.22
815.12	2129.89
815.29	2342.88
815.46	2142.18
815.63	2195.42
815.81	2209.76
815.98	2160.61
816.15	2138.08
816.33	2230.24
816.50	2111.46
816.67	2226.14
816.84	2127.84
817.02	2109.41
817.19	2121.70
817.36	2183.13
817.53	2220.00
817.71	2146.27
817.88	2275.29
818.05	2236.38
818.22	2142.18
818.40	2351.07
818.57	2150.37
818.74	2207.71
818.91	2211.81
819.09	2267.10
819.26	2179.04
819.43	2172.89
819.60	2193.37
819.78	2211.81
819.95	2301.92
820.12	2129.89
820.29	2271.20
820.47	2248.67
820.64	2170.85
820.81	2019.30
820.98	2129.89
821.15	2174.94
821.33	2283.49
821.50	1988.58
821.67	2269.15
821.84	2101.22
822.02	2267.10
822.19	2299.87
822.36	2172.89
822.53	2138.08
822.70	2090.98
822.88	2138.08
823.05	2205.66
823.22	2166.75
823.39	2256.86
823.56	2183.13
823.74	2396.12
823.91	2078.69
824.08	2004.96
824.25	2125.79
824.42	2293.72
824.60	2140.13
824.77	2279.39
824.94	2205.66
825.11	2222.05
825.28	2011.11
825.45	2199.52
825.63	2222.05
825.80	2154.46
825.97	2185.18
826.14	2103.26
826.31	2056.16
826.48	2224.09
826.66	2088.93
826.83	2127.84
827.00	2072.54
827.17	2115.55
827.34	2166.75
827.51	2160.61
827.69	2148.32
827.86	2123.74
828.03	2228.19
828.20	2240.48
828.37	2105.31
828.54	2330.59
828.71	2146.27
828.89	2324.44
829.06	2199.52
829.23	2252.77
829.40	2111.46
829.57	2090.98
829.74	2203.61
829.91	2166.75
830.09	2113.50
830.26	2242.53
830.43	2326.49
830.60	2193.37
830.77	2242.53
830.94	2263.01
831.11	2295.77
831.28	2220.00
831.46	2287.58
831.63	2084.83
831.80	2291.68
831.97	2121.70
832.14	2207.71
832.31	2121.70
832.48	2234.33
832.65	2340.83
832.82	2185.18
832.99	2217.95
833.17	2131.94
833.34	2267.10
833.51	2297.82
833.68	2058.21
833.85	2281.44
834.02	2121.70
834.19	2064.35
834.36	2084.83
834.53	2244.57
834.70	2281.44
834.87	2232.29
835.04	2101.22
835.22	2121.70
835.39	2176.99
835.56	2084.83
835.73	2125.79
835.90	2220.00
836.07	2138.08
836.24	2242.53
836.41	2166.75
836.58	2152.42
836.75	2346.97
836.92	2254.81
837.09	2152.42
837.26	2234.33
837.43	2187.23
837.60	2181.09
837.77	2093.02
837.94	2314.20
838.12	2316.25
838.29	2156.51
838.46	2062.30
838.63	2109.41
838.80	2299.87
838.97	2252.77
839.14	2064.35
839.31	2179.04
839.48	2226.14
839.65	2113.50
839.82	2260.96
839.99	2187.23
840.16	2195.42
840.33	2179.04
840.50	2189.28
840.67	2136.03
840.84	2023.39
841.01	2154.46
841.18	2105.31
841.35	2232.29
841.52	2275.29
841.69	2326.49
841.86	2183.13
842.03	2146.27
842.20	2248.67
842.37	2107.36
842.54	2144.22
842.71	2172.89
842.88	2093.02
843.05	2199.52
843.22	2181.09
843.39	2301.92
843.56	2152.42
843.73	2121.70
843.90	2201.57
844.07	2222.05
844.24	2316.25
844.41	2172.89
844.58	2138.08
844.75	2158.56
844.92	2174.94
845.09	2160.61
845.26	2170.85
845.43	2222.05
845.60	2238.43
845.77	2176.99
845.94	2166.75
846.10	2340.83
846.27	2064.35
846.44	2138.08
846.61	2099.17
846.78	2248.67
846.95	2224.09
847.12	2179.04
847.29	2152.42
847.46	2111.46
847.63	2250.72
847.80	2148.32
847.97	2162.66
848.14	2359.26
848.31	2144.22
848.48	2090.98
848.65	2232.29
848.82	2164.70
848.98	2422.75
849.15	2207.71
849.32	2232.29
849.49	2209.76
849.66	2179.04
849.83	2125.79
850.00	2095.07
850.17	2269.15
850.34	2191.33
850.51	2123.74
850.68	2170.85
850.85	2402.27
851.01	2215.90
851.18	2148.32
851.35	2179.04
851.52	2113.50
851.69	2332.64
851.86	2086.88
852.03	2172.89
852.20	2209.76
852.37	2166.75
852.53	2037.73
852.70	2162.66
852.87	2201.57
853.04	2226.14
853.21	2140.13
853.38	2269.15
853.55	2187.23
853.72	2287.58
853.89	2045.92
854.05	2170.85
854.22	2242.53
854.39	2072.54
854.56	2201.57
854.73	2293.72
854.90	2097.12
855.07	2220.00
855.23	2121.70
855.40	2090.98
855.57	2201.57
855.74	2117.60
855.91	2406.36
856.08	2068.45
856.25	2080.74
856.41	2072.54
856.58	2086.88
856.75	2078.69
856.92	2119.65
857.09	2246.62
857.26	2080.74
857.42	2127.84
857.59	2269.15
857.76	2185.18
857.93	2195.42
858.10	2195.42
858.27	2068.45
858.43	2220.00
858.60	2068.45
858.77	2056.16
858.94	2033.63
859.11	2254.81
859.27	2127.84
859.44	2162.66
859.61	2373.60
859.78	2256.86
859.95	2144.22
860.12	2070.50
860.28	2392.03
860.45	2314.20
860.62	2035.68
860.79	2176.99
860.95	2136.03
861.12	2076.64
861.29	2097.12
861.46	2054.11
861.63	2140.13
861.79	2125.79
861.96	2041.82
862.13	2113.50
862.30	2314.20
862.47	2150.37
862.63	2097.12
862.80	2220.00
862.97	2244.57
863.14	2222.05
863.30	2179.04
863.47	2093.02
863.64	2275.29
863.81	2256.86
863.97	2109.41
864.14	2203.61
864.31	2150.37
864.48	2146.27
864.65	2101.22
864.81	2220.00
864.98	2242.53
865.15	2199.52
865.32	2234.33
865.48	2123.74
865.65	2375.64
865.82	2129.89
865.98	2154.46
866.15	2203.61
866.32	2191.33
866.49	2121.70
866.65	2271.20
866.82	2111.46
866.99	2232.29
867.16	2138.08
867.32	2111.46
867.49	2144.22
867.66	2228.19
867.83	2099.17
867.99	2045.92
868.16	2107.36
868.33	2080.74
868.49	2140.13
868.66	2146.27
868.83	2303.96
868.99	2189.28
869.16	2258.91
869.33	2217.95
869.50	2256.86
869.66	2170.85
869.83	2181.09
870.00	2054.11
870.16	2211.81
870.33	2127.84
870.50	2291.68
870.66	2166.75
870.83	2213.85
871.00	2191.33
871.17	2314.20
871.33	2269.15
871.50	2084.83
871.67	2197.47
871.83	2205.66
872.00	2287.58
872.17	2072.54
872.33	2402.27
872.50	2248.67
872.67	2187.23
872.83	2093.02
873.00	2297.82
873.17	2260.96
873.33	2150.37
873.50	2267.10
873.67	2031.58
873.83	2111.46
874.00	2162.66
874.16	2275.29
874.33	2174.94
874.50	2166.75
874.66	2269.15
874.83	2158.56
875.00	2297.82
875.16	2306.01
875.33	2179.04
875.50	2062.30
875.66	2142.18
875.83	2203.61
875.99	2207.71
876.16	2187.23
876.33	2109.41
876.49	2140.13
876.66	2185.18
876.83	2172.89
876.99	2025.44
877.16	2160.61
877.32	2148.32
877.49	2187.23
877.66	2246.62
877.82	2340.83
877.99	2258.91
878.15	2281.44
878.32	2183.13
878.49	2217.95
878.65	2146.27
878.82	2303.96
878.98	2076.64
879.15	2205.66
879.32	2271.20
879.48	2193.37
879.65	2207.71
879.81	2166.75
879.98	2043.87
880.15	2109.41
880.31	2271.20
880.48	2088.93
880.64	2238.43
880.81	2248.67
880.97	2283.49
881.14	2297.82
881.31	2111.46
881.47	2367.45
881.64	2125.79
881.80	2064.35
881.97	2136.03
882.13	2189.28
882.30	2074.59
882.47	2111.46
882.63	2015.20
882.80	2095.07
882.96	2086.88
883.13	2320.35
883.29	2162.66
883.46	2131.94
883.62	2357.21
883.79	2150.37
883.95	2195.42
884.12	2093.02
884.29	2301.92
884.45	2146.27
884.62	2160.61
884.78	2119.65
884.95	2246.62
885.11	2148.32
885.28	2205.66
885.44	2090.98
885.61	2187.23
885.77	2291.68
885.94	2228.19
886.10	2150.37
886.27	2127.84
886.43	2306.01
886.60	2269.15
886.76	2168.80
886.93	2060.26
887.09	2213.85
887.26	2078.69
887.42	2179.04
887.59	2342.88
887.75	2320.35
887.92	2248.67
888.08	2220.00
888.25	2316.25
888.41	2351.07
888.58	2293.72
888.74	2074.59
888.91	2060.26
>>>>>End Processed Spectral Data<<<<<
