SpectraSuite Data File
++++++++++++++++++++++++++++++++++++
Date: Thu May 05 12:35:11 CEST 2016
User: root
Dark Spectrum Present: No
Reference Spectrum Present: No
Number of Sampled Component Spectra: 1
Spectrometers: USB4C02835
Integration Time (usec): 100000 (USB4C02835)
Spectra Averaged: 1 (USB4C02835)
Boxcar Smoothing: 0 (USB4C02835)
Correct for Electrical Dark: No (USB4C02835)
Strobe/Lamp Enabled: No (USB4C02835)
Correct for Detector Non-linearity: No (USB4C02835)
Correct for Stray Light: No (USB4C02835)
Number of Pixels in Processed Spectrum: 3648
>>>>>Begin Processed Spectral Data<<<<<
177.47	1794.02
177.69	1794.02
177.91	1794.02
178.13	1812.45
178.36	1777.64
178.58	2152.42
178.80	2232.29
179.02	2023.39
179.24	2117.60
179.46	2052.06
179.68	2248.67
179.90	2191.33
180.13	2160.61
180.35	2052.06
180.57	2146.27
180.79	2211.81
181.01	2228.19
181.23	2172.89
181.45	2172.89
181.67	2193.37
181.90	2252.77
182.12	2037.73
182.34	2035.68
182.56	2179.04
182.78	2250.72
183.00	2174.94
183.22	2162.66
183.44	2095.07
183.66	2398.17
183.89	2179.04
184.11	2277.34
184.33	2320.35
184.55	2246.62
184.77	2193.37
184.99	2187.23
185.21	2250.72
185.43	2422.75
185.65	2088.93
185.87	2144.22
186.10	2318.30
186.32	2334.68
186.54	2166.75
186.76	2234.33
186.98	2285.53
187.20	2086.88
187.42	2093.02
187.64	2111.46
187.86	2211.81
188.08	2246.62
188.30	2070.50
188.52	2166.75
188.75	2299.87
188.97	2265.05
189.19	2062.30
189.41	2119.65
189.63	2205.66
189.85	2101.22
190.07	2013.15
190.29	2027.49
190.51	2191.33
190.73	2146.27
190.95	2297.82
191.17	2099.17
191.39	2088.93
191.61	2144.22
191.84	2121.70
192.06	2217.95
192.28	2007.01
192.50	2449.37
192.72	2138.08
192.94	2211.81
193.16	2248.67
193.38	2258.91
193.60	2023.39
193.82	2148.32
194.04	2226.14
194.26	2242.53
194.48	2148.32
194.70	2142.18
194.92	2168.80
195.14	2240.48
195.36	2144.22
195.58	2140.13
195.80	2226.14
196.02	2176.99
196.24	2068.45
196.46	2191.33
196.69	2150.37
196.91	2508.76
197.13	2086.88
197.35	2138.08
197.57	2310.11
197.79	2207.71
198.01	2162.66
198.23	2183.13
198.45	2250.72
198.67	2162.66
198.89	2066.40
199.11	2150.37
199.33	2113.50
199.55	2013.15
199.77	2088.93
199.99	2201.57
200.21	2129.89
200.43	2179.04
200.65	2037.73
200.87	2004.96
201.09	2166.75
201.31	2168.80
201.53	2199.52
201.75	2146.27
201.97	2220.00
202.19	2244.57
202.41	2207.71
202.63	2279.39
202.85	2265.05
203.07	2260.96
203.29	2078.69
203.51	2080.74
203.73	2074.59
203.95	2418.65
204.17	2146.27
204.39	2205.66
204.61	2144.22
204.83	2168.80
205.05	2144.22
205.27	2179.04
205.49	2494.43
205.71	2166.75
205.93	2031.58
206.15	2093.02
206.37	2222.05
206.59	2158.56
206.81	2025.44
207.03	2113.50
207.25	2095.07
207.47	2269.15
207.69	2154.46
207.91	2236.38
208.13	2379.74
208.34	2064.35
208.56	2113.50
208.78	2174.94
209.00	2191.33
209.22	2140.13
209.44	2222.05
209.66	2070.50
209.88	2226.14
210.10	2111.46
210.32	2154.46
210.54	2211.81
210.76	2191.33
210.98	2367.45
211.20	1943.52
211.42	2234.33
211.64	2365.40
211.86	2228.19
212.08	2242.53
212.30	2129.89
212.52	2226.14
212.74	2228.19
212.96	2103.26
213.17	2234.33
213.39	2275.29
213.61	2377.69
213.83	2156.51
214.05	2199.52
214.27	2326.49
214.49	2058.21
214.71	2115.55
214.93	2176.99
215.15	2127.84
215.37	2361.31
215.59	1996.77
215.81	2220.00
216.03	2359.26
216.24	2172.89
216.46	2133.98
216.68	2146.27
216.90	2193.37
217.12	2291.68
217.34	2174.94
217.56	2252.77
217.78	2293.72
218.00	2187.23
218.22	2174.94
218.44	2197.47
218.66	2209.76
218.87	2392.03
219.09	2127.84
219.31	2191.33
219.53	2170.85
219.75	2101.22
219.97	2136.03
220.19	2211.81
220.41	2129.89
220.63	2328.54
220.85	2113.50
221.06	2095.07
221.28	2387.93
221.50	2224.09
221.72	2113.50
221.94	2133.98
222.16	2203.61
222.38	2297.82
222.60	2150.37
222.82	2224.09
223.03	2244.57
223.25	2019.30
223.47	2127.84
223.69	2263.01
223.91	2336.73
224.13	2199.52
224.35	2103.26
224.57	2201.57
224.78	2193.37
225.00	2123.74
225.22	2166.75
225.44	2127.84
225.66	2267.10
225.88	2203.61
226.10	2193.37
226.32	2217.95
226.53	2316.25
226.75	2152.42
226.97	2201.57
227.19	2062.30
227.41	2103.26
227.63	2160.61
227.85	2031.58
228.06	2172.89
228.28	2193.37
228.50	2201.57
228.72	2029.54
228.94	2127.84
229.16	1949.67
229.37	2105.31
229.59	2029.54
229.81	2273.25
230.03	2166.75
230.25	2056.16
230.47	2082.78
230.69	2017.25
230.90	2316.25
231.12	2033.63
231.34	2170.85
231.56	2226.14
231.78	2125.79
232.00	2187.23
232.21	2201.57
232.43	2129.89
232.65	1933.28
232.87	2279.39
233.09	2015.20
233.30	1994.72
233.52	2308.06
233.74	2277.34
233.96	2154.46
234.18	2113.50
234.40	2156.51
234.61	2404.32
234.83	2015.20
235.05	2052.06
235.27	2389.98
235.49	2279.39
235.70	2072.54
235.92	2228.19
236.14	2269.15
236.36	2349.02
236.58	2062.30
236.79	2179.04
237.01	2287.58
237.23	2158.56
237.45	2301.92
237.67	2121.70
237.88	2250.72
238.10	2486.23
238.32	2047.97
238.54	2052.06
238.76	2215.90
238.97	2148.32
239.19	2080.74
239.41	2217.95
239.63	2297.82
239.85	2166.75
240.06	2154.46
240.28	2058.21
240.50	2279.39
240.72	2142.18
240.93	2093.02
241.15	2226.14
241.37	2185.18
241.59	2318.30
241.81	2086.88
242.02	2025.44
242.24	2158.56
242.46	2269.15
242.68	2021.35
242.89	2156.51
243.11	2299.87
243.33	2150.37
243.55	2189.28
243.76	2199.52
243.98	2084.83
244.20	2101.22
244.42	2113.50
244.64	2154.46
244.85	2133.98
245.07	2162.66
245.29	2207.71
245.51	2119.65
245.72	2152.42
245.94	2314.20
246.16	2228.19
246.38	2258.91
246.59	2181.09
246.81	2097.12
247.03	2056.16
247.24	2023.39
247.46	2107.36
247.68	2176.99
247.90	2158.56
248.11	2064.35
248.33	2142.18
248.55	2156.51
248.77	2129.89
248.98	2181.09
249.20	2342.88
249.42	2254.81
249.64	2166.75
249.85	2109.41
250.07	2162.66
250.29	2301.92
250.50	2179.04
250.72	2027.49
250.94	2185.18
251.16	2355.16
251.37	2256.86
251.59	2176.99
251.81	2285.53
252.02	2326.49
252.24	2086.88
252.46	2187.23
252.68	2031.58
252.89	2213.85
253.11	2007.01
253.33	2328.54
253.54	2256.86
253.76	2148.32
253.98	2072.54
254.20	2150.37
254.41	2062.30
254.63	2195.42
254.85	2062.30
255.06	2129.89
255.28	2144.22
255.50	2162.66
255.71	2099.17
255.93	2015.20
256.15	2203.61
256.36	2236.38
256.58	2080.74
256.80	2129.89
257.02	2183.13
257.23	2164.70
257.45	2133.98
257.67	2170.85
257.88	2158.56
258.10	2254.81
258.32	2103.26
258.53	2158.56
258.75	2293.72
258.97	2183.13
259.18	2070.50
259.40	2152.42
259.62	2332.64
259.83	2383.84
260.05	2174.94
260.27	2607.06
260.48	2271.20
260.70	2052.06
260.92	2125.79
261.13	2156.51
261.35	2258.91
261.57	2254.81
261.78	2070.50
262.00	2111.46
262.22	2301.92
262.43	2109.41
262.65	2138.08
262.86	2103.26
263.08	2404.32
263.30	2187.23
263.51	1974.24
263.73	2093.02
263.95	2273.25
264.16	2103.26
264.38	2054.11
264.60	2082.78
264.81	2140.13
265.03	2334.68
265.25	2195.42
265.46	2146.27
265.68	2312.16
265.89	2263.01
266.11	2086.88
266.33	2105.31
266.54	2293.72
266.76	2297.82
266.98	2119.65
267.19	2250.72
267.41	2291.68
267.62	2142.18
267.84	2021.35
268.06	2117.60
268.27	2064.35
268.49	2322.40
268.70	2176.99
268.92	2144.22
269.14	2078.69
269.35	2111.46
269.57	2138.08
269.79	2238.43
270.00	2162.66
270.22	2260.96
270.43	2060.26
270.65	2007.01
270.87	2277.34
271.08	2179.04
271.30	2176.99
271.51	2127.84
271.73	2199.52
271.95	2285.53
272.16	2056.16
272.38	2195.42
272.59	2123.74
272.81	2275.29
273.02	2160.61
273.24	2174.94
273.46	2273.25
273.67	2078.69
273.89	2029.54
274.10	2113.50
274.32	2314.20
274.54	2226.14
274.75	2152.42
274.97	2129.89
275.18	2226.14
275.40	2232.29
275.61	2224.09
275.83	2107.36
276.05	2088.93
276.26	2199.52
276.48	2162.66
276.69	2084.83
276.91	2195.42
277.12	2324.44
277.34	2232.29
277.55	2228.19
277.77	2258.91
277.99	2160.61
278.20	2080.74
278.42	2121.70
278.63	2107.36
278.85	2035.68
279.06	2109.41
279.28	2244.57
279.49	2289.63
279.71	2265.05
279.93	2211.81
280.14	2164.70
280.36	2043.87
280.57	2299.87
280.79	2283.49
281.00	2084.83
281.22	2086.88
281.43	2275.29
281.65	1935.33
281.86	2050.02
282.08	2199.52
282.29	2439.13
282.51	2109.41
282.73	2129.89
282.94	2066.40
283.16	2291.68
283.37	2392.03
283.59	2140.13
283.80	2203.61
284.02	2244.57
284.23	2179.04
284.45	2152.42
284.66	2105.31
284.88	2129.89
285.09	2224.09
285.31	2232.29
285.52	2228.19
285.74	2002.91
285.95	2269.15
286.17	2240.48
286.38	2293.72
286.60	2131.94
286.81	2136.03
287.03	2189.28
287.24	2224.09
287.46	2230.24
287.67	2164.70
287.89	2387.93
288.10	2086.88
288.32	2179.04
288.53	2320.35
288.75	2133.98
288.96	2226.14
289.18	2138.08
289.39	2088.93
289.61	2252.77
289.82	2398.17
290.04	2412.51
290.25	2068.45
290.47	2213.85
290.68	2150.37
290.90	2308.06
291.11	2035.68
291.33	2248.67
291.54	2099.17
291.76	2170.85
291.97	2191.33
292.18	2203.61
292.40	2168.80
292.61	2129.89
292.83	2357.21
293.04	2154.46
293.26	2189.28
293.47	2236.38
293.69	2080.74
293.90	2209.76
294.12	2318.30
294.33	2244.57
294.55	2123.74
294.76	2289.63
294.97	2322.40
295.19	2394.08
295.40	2113.50
295.62	2191.33
295.83	2295.77
296.05	2121.70
296.26	2295.77
296.48	2088.93
296.69	2146.27
296.90	2250.72
297.12	2254.81
297.33	2301.92
297.55	2203.61
297.76	2215.90
297.98	2228.19
298.19	2144.22
298.41	2176.99
298.62	2158.56
298.83	2293.72
299.05	2207.71
299.26	2160.61
299.48	2115.55
299.69	2250.72
299.90	2191.33
300.12	2103.26
300.33	2238.43
300.55	2195.42
300.76	2234.33
300.98	2015.20
301.19	2197.47
301.40	2203.61
301.62	2136.03
301.83	2265.05
302.05	2129.89
302.26	2168.80
302.47	2222.05
302.69	2060.26
302.90	2224.09
303.12	1941.47
303.33	2226.14
303.54	2439.13
303.76	2179.04
303.97	2220.00
304.19	2260.96
304.40	2133.98
304.61	2250.72
304.83	2279.39
305.04	2293.72
305.26	2230.24
305.47	2066.40
305.68	2136.03
305.90	2017.25
306.11	2285.53
306.33	2093.02
306.54	2099.17
306.75	2080.74
306.97	2031.58
307.18	2152.42
307.39	2254.81
307.61	2201.57
307.82	2211.81
308.04	2228.19
308.25	2027.49
308.46	2088.93
308.68	2211.81
308.89	2136.03
309.10	2222.05
309.32	2187.23
309.53	2156.51
309.74	2269.15
309.96	2117.60
310.17	2224.09
310.39	2111.46
310.60	2217.95
310.81	2263.01
311.03	2095.07
311.24	2246.62
311.45	2166.75
311.67	2346.97
311.88	2242.53
312.09	2131.94
312.31	2097.12
312.52	2078.69
312.73	2146.27
312.95	2060.26
313.16	2074.59
313.37	2357.21
313.59	2256.86
313.80	2293.72
314.01	2359.26
314.23	2127.84
314.44	2138.08
314.65	2097.12
314.87	2062.30
315.08	2236.38
315.29	2189.28
315.51	2121.70
315.72	2070.50
315.93	2176.99
316.15	2248.67
316.36	2123.74
316.57	2205.66
316.79	2273.25
317.00	2193.37
317.21	2197.47
317.43	2119.65
317.64	2203.61
317.85	2103.26
318.07	2076.64
318.28	2273.25
318.49	2318.30
318.70	2432.99
318.92	2338.78
319.13	2373.60
319.34	2432.99
319.56	2301.92
319.77	2301.92
319.98	2383.84
320.20	2361.31
320.41	2326.49
320.62	2297.82
320.83	2133.98
321.05	2412.51
321.26	2201.57
321.47	2187.23
321.69	2326.49
321.90	2086.88
322.11	2176.99
322.32	2176.99
322.54	2375.64
322.75	2138.08
322.96	2430.94
323.18	2084.83
323.39	2043.87
323.60	2070.50
323.81	2263.01
324.03	2101.22
324.24	2189.28
324.45	2269.15
324.66	2183.13
324.88	2308.06
325.09	2342.88
325.30	2197.47
325.52	2166.75
325.73	2232.29
325.94	2144.22
326.15	1982.43
326.37	2099.17
326.58	2301.92
326.79	2330.59
327.00	2164.70
327.22	2179.04
327.43	2170.85
327.64	2185.18
327.85	2236.38
328.07	2226.14
328.28	2377.69
328.49	2103.26
328.70	2097.12
328.92	2164.70
329.13	2164.70
329.34	2170.85
329.55	2256.86
329.76	2306.01
329.98	2088.93
330.19	2256.86
330.40	2193.37
330.61	2185.18
330.83	2353.12
331.04	2101.22
331.25	2142.18
331.46	2127.84
331.68	2097.12
331.89	2349.02
332.10	2224.09
332.31	2115.55
332.52	2226.14
332.74	2275.29
332.95	2052.06
333.16	2217.95
333.37	2291.68
333.58	2146.27
333.80	2222.05
334.01	2109.41
334.22	2176.99
334.43	2201.57
334.64	2121.70
334.86	2111.46
335.07	2129.89
335.28	2318.30
335.49	1970.15
335.70	2236.38
335.92	2332.64
336.13	2426.84
336.34	2250.72
336.55	2090.98
336.76	2209.76
336.98	2023.39
337.19	2199.52
337.40	2234.33
337.61	2482.14
337.82	2054.11
338.04	2308.06
338.25	2027.49
338.46	2160.61
338.67	2107.36
338.88	2025.44
339.09	2058.21
339.31	2072.54
339.52	2086.88
339.73	2074.59
339.94	2170.85
340.15	2201.57
340.36	2166.75
340.58	2191.33
340.79	2113.50
341.00	2248.67
341.21	2090.98
341.42	2320.35
341.63	2187.23
341.85	2236.38
342.06	2172.89
342.27	2088.93
342.48	2209.76
342.69	2041.82
342.90	2228.19
343.12	2283.49
343.33	2166.75
343.54	2258.91
343.75	2306.01
343.96	2224.09
344.17	2129.89
344.38	2109.41
344.60	2076.64
344.81	2095.07
345.02	2101.22
345.23	2224.09
345.44	2426.84
345.65	2277.34
345.86	2240.48
346.07	2187.23
346.29	2176.99
346.50	2250.72
346.71	2293.72
346.92	2291.68
347.13	2392.03
347.34	2168.80
347.55	2199.52
347.76	2250.72
347.98	2109.41
348.19	2179.04
348.40	2297.82
348.61	2213.85
348.82	2248.67
349.03	2222.05
349.24	2080.74
349.45	2367.45
349.66	1959.91
349.88	2179.04
350.09	2131.94
350.30	2326.49
350.51	2275.29
350.72	2211.81
350.93	2242.53
351.14	2070.50
351.35	2136.03
351.56	2267.10
351.77	2105.31
351.99	2258.91
352.20	2318.30
352.41	2275.29
352.62	2000.87
352.83	2158.56
353.04	2240.48
353.25	2131.94
353.46	2203.61
353.67	2312.16
353.88	1966.05
354.09	2150.37
354.30	2174.94
354.52	2252.77
354.73	2217.95
354.94	2072.54
355.15	2232.29
355.36	2383.84
355.57	2170.85
355.78	2252.77
355.99	2160.61
356.20	2176.99
356.41	2324.44
356.62	2168.80
356.83	2144.22
357.04	2265.05
357.25	2068.45
357.46	2203.61
357.68	2086.88
357.89	1998.82
358.10	2138.08
358.31	2162.66
358.52	2164.70
358.73	2078.69
358.94	1996.77
359.15	2117.60
359.36	2303.96
359.57	2191.33
359.78	2162.66
359.99	2193.37
360.20	2047.97
360.41	2146.27
360.62	2236.38
360.83	2193.37
361.04	2242.53
361.25	2224.09
361.46	2392.03
361.67	2254.81
361.88	2162.66
362.09	2306.01
362.30	2238.43
362.51	2144.22
362.72	2179.04
362.93	2258.91
363.14	2211.81
363.35	2189.28
363.56	2127.84
363.78	2234.33
363.99	2295.77
364.20	2097.12
364.41	2248.67
364.62	2387.93
364.83	2215.90
365.04	2172.89
365.25	2172.89
365.46	2418.65
365.67	2121.70
365.88	2234.33
366.09	2176.99
366.30	2140.13
366.51	2224.09
366.72	2133.98
366.93	2195.42
367.14	2166.75
367.35	2299.87
367.56	2117.60
367.77	2342.88
367.98	2189.28
368.18	2207.71
368.39	2203.61
368.60	2054.11
368.81	2297.82
369.02	2199.52
369.23	2213.85
369.44	2037.73
369.65	2211.81
369.86	2220.00
370.07	2215.90
370.28	2117.60
370.49	2183.13
370.70	2273.25
370.91	2140.13
371.12	2101.22
371.33	2334.68
371.54	2062.30
371.75	2363.36
371.96	1949.67
372.17	2269.15
372.38	2162.66
372.59	2236.38
372.80	2185.18
373.01	2142.18
373.22	2265.05
373.43	2199.52
373.64	2074.59
373.85	2310.11
374.06	2359.26
374.26	2242.53
374.47	2189.28
374.68	2373.60
374.89	2172.89
375.10	2121.70
375.31	2224.09
375.52	2199.52
375.73	2195.42
375.94	2082.78
376.15	2260.96
376.36	2076.64
376.57	2103.26
376.78	2172.89
376.99	2152.42
377.20	2275.29
377.40	2119.65
377.61	2310.11
377.82	2090.98
378.03	2320.35
378.24	2238.43
378.45	2207.71
378.66	2248.67
378.87	2054.11
379.08	2050.02
379.29	2121.70
379.50	2353.12
379.71	2244.57
379.91	2244.57
380.12	2109.41
380.33	2195.42
380.54	2164.70
380.75	2129.89
380.96	2099.17
381.17	2238.43
381.38	2117.60
381.59	2299.87
381.80	2254.81
382.00	2389.98
382.21	2283.49
382.42	2432.99
382.63	2430.94
382.84	2230.24
383.05	2310.11
383.26	2387.93
383.47	2230.24
383.68	2236.38
383.88	2193.37
384.09	2152.42
384.30	2383.84
384.51	2240.48
384.72	2129.89
384.93	2111.46
385.14	2207.71
385.35	2256.86
385.55	2119.65
385.76	2367.45
385.97	2160.61
386.18	2039.78
386.39	2144.22
386.60	2185.18
386.81	2123.74
387.02	2103.26
387.22	2064.35
387.43	2303.96
387.64	2349.02
387.85	2301.92
388.06	2387.93
388.27	4165.57
388.48	8607.61
388.68	12232.52
388.89	14657.31
389.10	15896.33
389.31	14774.05
389.52	11452.24
389.73	9768.81
389.93	9017.21
390.14	8095.62
390.35	7423.89
390.56	6633.37
390.77	5275.57
390.98	4052.93
391.18	3305.42
391.39	2656.22
391.60	2379.74
391.81	2381.79
392.02	2179.04
392.23	2447.32
392.43	2310.11
392.64	2351.07
392.85	2197.47
393.06	2357.21
393.27	2133.98
393.47	2097.12
393.68	2164.70
393.89	2154.46
394.10	2301.92
394.31	2086.88
394.52	2113.50
394.72	2158.56
394.93	2342.88
395.14	2131.94
395.35	2189.28
395.56	2099.17
395.76	2156.51
395.97	2246.62
396.18	2349.02
396.39	2363.36
396.60	2666.46
396.80	2465.75
397.01	2383.84
397.22	2486.23
397.43	2361.31
397.64	2146.27
397.84	2252.77
398.05	2430.94
398.26	2170.85
398.47	2342.88
398.67	2297.82
398.88	2187.23
399.09	2297.82
399.30	2168.80
399.51	2230.24
399.71	2113.50
399.92	2176.99
400.13	2181.09
400.34	2174.94
400.54	2254.81
400.75	2406.36
400.96	2191.33
401.17	2338.78
401.37	2263.01
401.58	2154.46
401.79	2211.81
402.00	2318.30
402.21	2645.98
402.41	2506.71
402.62	2645.98
402.83	2615.26
403.04	2566.10
403.24	2818.00
403.45	2367.45
403.66	2465.75
403.87	2455.51
404.07	2510.81
404.28	2435.03
404.49	2465.75
404.70	2260.96
404.90	2312.16
405.11	2240.48
405.32	2281.44
405.52	2162.66
405.73	2150.37
405.94	2097.12
406.15	2097.12
406.35	2301.92
406.56	2228.19
406.77	2232.29
406.98	2170.85
407.18	2125.79
407.39	2334.68
407.60	2072.54
407.80	2207.71
408.01	2150.37
408.22	2252.77
408.43	2105.31
408.63	2158.56
408.84	2207.71
409.05	2256.86
409.25	2097.12
409.46	2097.12
409.67	2224.09
409.88	2115.55
410.08	2220.00
410.29	2105.31
410.50	2277.34
410.70	2209.76
410.91	2140.13
411.12	2158.56
411.32	2191.33
411.53	2127.84
411.74	2322.40
411.95	2324.44
412.15	2252.77
412.36	2299.87
412.57	2316.25
412.77	2353.12
412.98	2193.37
413.19	2154.46
413.39	2244.57
413.60	2246.62
413.81	2258.91
414.01	2103.26
414.22	2265.05
414.43	2279.39
414.63	2152.42
414.84	2363.36
415.05	2238.43
415.25	2070.50
415.46	2258.91
415.67	2086.88
415.87	2166.75
416.08	2197.47
416.29	2191.33
416.49	2306.01
416.70	2199.52
416.91	2191.33
417.11	2179.04
417.32	2328.54
417.53	2250.72
417.73	2260.96
417.94	2207.71
418.15	2248.67
418.35	2254.81
418.56	2148.32
418.77	2432.99
418.97	2248.67
419.18	2232.29
419.38	2015.20
419.59	2203.61
419.80	2283.49
420.00	2115.55
420.21	2191.33
420.42	2281.44
420.62	2230.24
420.83	2209.76
421.04	2121.70
421.24	2183.13
421.45	2308.06
421.65	2301.92
421.86	2170.85
422.07	2260.96
422.27	2222.05
422.48	2121.70
422.69	2097.12
422.89	2160.61
423.10	2127.84
423.30	2093.02
423.51	2195.42
423.72	2158.56
423.92	2252.77
424.13	2080.74
424.33	2119.65
424.54	2275.29
424.75	2197.47
424.95	2445.27
425.16	2277.34
425.36	2248.67
425.57	2363.36
425.78	2205.66
425.98	2240.48
426.19	2209.76
426.39	2148.32
426.60	2195.42
426.81	2242.53
427.01	2244.57
427.22	2129.89
427.42	2105.31
427.63	2133.98
427.83	2318.30
428.04	2359.26
428.25	2244.57
428.45	2269.15
428.66	2265.05
428.86	2191.33
429.07	2170.85
429.28	2154.46
429.48	2191.33
429.69	2140.13
429.89	2240.48
430.10	2060.26
430.30	2211.81
430.51	2230.24
430.71	2136.03
430.92	2140.13
431.13	2131.94
431.33	2283.49
431.54	2275.29
431.74	2297.82
431.95	2365.40
432.15	2119.65
432.36	2174.94
432.56	2242.53
432.77	2334.68
432.98	2412.51
433.18	2220.00
433.39	2166.75
433.59	2111.46
433.80	2359.26
434.00	2445.27
434.21	2160.61
434.41	2105.31
434.62	2478.04
434.82	2129.89
435.03	2070.50
435.23	2220.00
435.44	2107.36
435.64	2183.13
435.85	2220.00
436.06	2269.15
436.26	2271.20
436.47	2154.46
436.67	2076.64
436.88	2267.10
437.08	2279.39
437.29	2301.92
437.49	2226.14
437.70	2232.29
437.90	2183.13
438.11	2342.88
438.31	2236.38
438.52	2426.84
438.72	2355.16
438.93	2435.03
439.13	2287.58
439.34	2318.30
439.54	2242.53
439.75	2297.82
439.95	2334.68
440.16	2215.90
440.36	2205.66
440.57	2215.90
440.77	2201.57
440.98	2193.37
441.18	2312.16
441.39	2101.22
441.59	2029.54
441.80	2441.18
442.00	2162.66
442.21	2279.39
442.41	2064.35
442.62	2283.49
442.82	2131.94
443.02	2205.66
443.23	2252.77
443.43	2136.03
443.64	2396.12
443.84	2154.46
444.05	2285.53
444.25	2174.94
444.46	2238.43
444.66	2275.29
444.87	2469.85
445.07	2105.31
445.28	2191.33
445.48	2285.53
445.69	2213.85
445.89	2494.43
446.09	2207.71
446.30	2422.75
446.50	2793.43
446.71	4468.67
446.91	5550.00
447.12	6399.90
447.32	6627.23
447.53	6256.54
447.73	5089.20
447.93	4509.63
448.14	4181.95
448.34	4038.59
448.55	3528.65
448.75	3514.31
448.96	3295.18
449.16	3086.29
449.36	2846.68
449.57	2521.05
449.77	2338.78
449.98	2220.00
450.18	2332.64
450.39	2301.92
450.59	2336.73
450.79	2316.25
451.00	2105.31
451.20	2281.44
451.41	2232.29
451.61	2199.52
451.81	2105.31
452.02	2084.83
452.22	2117.60
452.43	2140.13
452.63	2176.99
452.84	2199.52
453.04	2238.43
453.24	2226.14
453.45	2101.22
453.65	2176.99
453.86	2234.33
454.06	2234.33
454.26	2211.81
454.47	2109.41
454.67	2293.72
454.87	2232.29
455.08	2242.53
455.28	2367.45
455.49	2277.34
455.69	2127.84
455.89	2400.22
456.10	2277.34
456.30	2168.80
456.51	2240.48
456.71	2224.09
456.91	2179.04
457.12	2168.80
457.32	2217.95
457.52	2101.22
457.73	2242.53
457.93	2267.10
458.14	2174.94
458.34	2086.88
458.54	2176.99
458.75	2189.28
458.95	2222.05
459.15	2252.77
459.36	2201.57
459.56	2189.28
459.76	2385.88
459.97	2193.37
460.17	2185.18
460.37	2246.62
460.58	2195.42
460.78	2201.57
460.99	2234.33
461.19	2164.70
461.39	2244.57
461.60	2125.79
461.80	2224.09
462.00	2123.74
462.21	2240.48
462.41	2125.79
462.61	2090.98
462.82	2015.20
463.02	2250.72
463.22	2195.42
463.43	2246.62
463.63	2121.70
463.83	2439.13
464.04	2176.99
464.24	2238.43
464.44	2060.26
464.64	2224.09
464.85	2277.34
465.05	2246.62
465.25	2136.03
465.46	2154.46
465.66	2289.63
465.86	2250.72
466.07	2195.42
466.27	2248.67
466.47	2154.46
466.68	2023.39
466.88	2340.83
467.08	2242.53
467.29	2312.16
467.49	2244.57
467.69	2115.55
467.89	2234.33
468.10	2168.80
468.30	2179.04
468.50	2320.35
468.71	2344.92
468.91	2076.64
469.11	2355.16
469.31	2220.00
469.52	2097.12
469.72	2359.26
469.92	2416.60
470.13	2193.37
470.33	2279.39
470.53	2260.96
470.73	2742.23
470.94	3127.25
471.14	3219.41
471.34	3649.48
471.54	3502.03
471.75	3155.92
471.95	2879.44
472.15	2762.71
472.36	2848.72
472.56	2711.51
472.76	2768.85
472.96	2594.78
473.17	2586.58
473.37	2482.14
473.57	2273.25
473.77	2316.25
473.98	2283.49
474.18	2160.61
474.38	2494.43
474.58	2166.75
474.79	2090.98
474.99	2226.14
475.19	2357.21
475.39	2131.94
475.60	2199.52
475.80	2215.90
476.00	2185.18
476.20	2248.67
476.41	2238.43
476.61	2336.73
476.81	2285.53
477.01	2125.79
477.21	2338.78
477.42	2271.20
477.62	2127.84
477.82	2199.52
478.02	2205.66
478.23	2248.67
478.43	2056.16
478.63	2129.89
478.83	2174.94
479.03	2187.23
479.24	2359.26
479.44	2430.94
479.64	2123.74
479.84	1998.82
480.04	2140.13
480.25	2220.00
480.45	2138.08
480.65	2220.00
480.85	2273.25
481.06	2183.13
481.26	2271.20
481.46	2258.91
481.66	2215.90
481.86	2158.56
482.06	2289.63
482.27	2209.76
482.47	2195.42
482.67	2172.89
482.87	2166.75
483.07	2197.47
483.28	2146.27
483.48	2138.08
483.68	2220.00
483.88	2162.66
484.08	2056.16
484.29	2103.26
484.49	2187.23
484.69	2080.74
484.89	2297.82
485.09	2308.06
485.29	2222.05
485.50	2215.90
485.70	2144.22
485.90	2330.59
486.10	2203.61
486.30	2158.56
486.50	2328.54
486.71	2234.33
486.91	2258.91
487.11	2334.68
487.31	2070.50
487.51	2269.15
487.71	2066.40
487.91	2123.74
488.12	2160.61
488.32	1961.95
488.52	2211.81
488.72	1986.53
488.92	2207.71
489.12	2303.96
489.32	2273.25
489.53	2267.10
489.73	2062.30
489.93	2404.32
490.13	2109.41
490.33	2060.26
490.53	2224.09
490.73	2381.79
490.94	2066.40
491.14	2209.76
491.34	2256.86
491.54	2611.16
491.74	3030.99
491.94	3770.31
492.14	3983.30
492.34	4032.45
492.54	3895.24
492.75	3135.44
492.95	3092.43
493.15	3030.99
493.35	2873.30
493.55	2854.87
493.75	2678.74
493.95	2742.23
494.15	2533.34
494.35	2437.08
494.56	2342.88
494.76	2242.53
494.96	2220.00
495.16	2158.56
495.36	2103.26
495.56	2201.57
495.76	2148.32
495.96	2236.38
496.16	2107.36
496.36	2428.89
496.56	2148.32
496.77	2293.72
496.97	2181.09
497.17	2326.49
497.37	2064.35
497.57	2301.92
497.77	2222.05
497.97	2113.50
498.17	2256.86
498.37	2191.33
498.57	2226.14
498.77	2136.03
498.97	2222.05
499.17	2363.36
499.38	2207.71
499.58	2299.87
499.78	2252.77
499.98	2279.39
500.18	2168.80
500.38	2183.13
500.58	2361.31
500.78	2916.31
500.98	5189.55
501.18	7301.01
501.38	9138.04
501.58	9930.60
501.78	9715.56
501.98	7747.47
502.18	6629.27
502.38	5574.57
502.58	5128.11
502.78	4741.05
502.98	4466.62
503.18	4333.50
503.38	3923.91
503.59	3411.92
503.79	3174.35
503.99	3010.51
504.19	2824.15
504.39	2899.92
504.59	2850.77
504.79	2908.12
504.99	2848.72
505.19	2545.63
505.39	2412.51
505.59	2662.36
505.79	2537.43
505.99	2441.18
506.19	2324.44
506.39	2459.61
506.59	2211.81
506.79	2201.57
506.99	2312.16
507.19	2176.99
507.39	2240.48
507.59	2078.69
507.79	2111.46
507.99	2166.75
508.19	2197.47
508.39	2131.94
508.59	2224.09
508.79	2445.27
508.99	2428.89
509.19	2185.18
509.39	2297.82
509.59	2160.61
509.79	2129.89
509.99	2244.57
510.19	2295.77
510.39	2168.80
510.59	2201.57
510.79	2160.61
510.99	2062.30
511.19	2215.90
511.39	2361.31
511.59	2340.83
511.79	2297.82
511.99	2236.38
512.19	2396.12
512.38	2238.43
512.58	2195.42
512.78	2209.76
512.98	2351.07
513.18	2351.07
513.38	2070.50
513.58	2291.68
513.78	2138.08
513.98	2158.56
514.18	2187.23
514.38	2131.94
514.58	2299.87
514.78	2146.27
514.98	2172.89
515.18	2195.42
515.38	2054.11
515.58	2361.31
515.78	2162.66
515.98	2242.53
516.18	2260.96
516.38	2211.81
516.57	2168.80
516.77	2109.41
516.97	2281.44
517.17	2164.70
517.37	2099.17
517.57	2176.99
517.77	2260.96
517.97	2133.98
518.17	2191.33
518.37	2176.99
518.57	2195.42
518.77	2211.81
518.97	2207.71
519.16	2250.72
519.36	2359.26
519.56	2152.42
519.76	2185.18
519.96	2138.08
520.16	2342.88
520.36	2131.94
520.56	2310.11
520.76	2201.57
520.96	2191.33
521.16	2277.34
521.35	2244.57
521.55	2336.73
521.75	2179.04
521.95	2146.27
522.15	2121.70
522.35	2023.39
522.55	2115.55
522.75	2279.39
522.95	2232.29
523.14	2084.83
523.34	2195.42
523.54	2205.66
523.74	2310.11
523.94	2267.10
524.14	2142.18
524.34	2209.76
524.54	2363.36
524.73	2148.32
524.93	2285.53
525.13	2269.15
525.33	2197.47
525.53	2408.41
525.73	2203.61
525.93	2234.33
526.13	2187.23
526.32	2267.10
526.52	2301.92
526.72	2312.16
526.92	2150.37
527.12	2140.13
527.32	2146.27
527.52	2258.91
527.71	2287.58
527.91	2179.04
528.11	2162.66
528.31	2187.23
528.51	2103.26
528.71	2201.57
528.90	2248.67
529.10	2297.82
529.30	2342.88
529.50	2004.96
529.70	2252.77
529.90	2215.90
530.09	2162.66
530.29	2025.44
530.49	2105.31
530.69	2478.04
530.89	2185.18
531.09	2236.38
531.28	2174.94
531.48	2299.87
531.68	2125.79
531.88	2191.33
532.08	2301.92
532.28	2174.94
532.47	2326.49
532.67	2273.25
532.87	2285.53
533.07	2105.31
533.27	2342.88
533.46	2336.73
533.66	2297.82
533.86	2207.71
534.06	2289.63
534.26	2240.48
534.45	2162.66
534.65	2308.06
534.85	2222.05
535.05	2193.37
535.25	2338.78
535.44	2090.98
535.64	2236.38
535.84	2217.95
536.04	2148.32
536.24	2189.28
536.43	2127.84
536.63	2232.29
536.83	2197.47
537.03	2277.34
537.22	2004.96
537.42	2037.73
537.62	2258.91
537.82	2072.54
538.02	2371.55
538.21	2258.91
538.41	2435.03
538.61	2162.66
538.81	2195.42
539.00	2240.48
539.20	2041.82
539.40	2185.18
539.60	2215.90
539.79	2252.77
539.99	2197.47
540.19	2142.18
540.39	2213.85
540.58	2181.09
540.78	2275.29
540.98	2293.72
541.18	2371.55
541.37	2267.10
541.57	2246.62
541.77	2314.20
541.97	2125.79
542.16	2054.11
542.36	2258.91
542.56	2234.33
542.76	2392.03
542.95	2334.68
543.15	2215.90
543.35	2281.44
543.54	2029.54
543.74	2187.23
543.94	2336.73
544.14	2185.18
544.33	2189.28
544.53	2162.66
544.73	2189.28
544.93	2162.66
545.12	2127.84
545.32	2181.09
545.52	2152.42
545.71	2039.78
545.91	2166.75
546.11	2117.60
546.30	2105.31
546.50	2174.94
546.70	2234.33
546.90	2230.24
547.09	2072.54
547.29	2205.66
547.49	2301.92
547.68	2189.28
547.88	2023.39
548.08	2310.11
548.27	2713.56
548.47	2131.94
548.67	2099.17
548.87	2295.77
549.06	2156.51
549.26	2269.15
549.46	2250.72
549.65	2191.33
549.85	2201.57
550.05	2260.96
550.24	2062.30
550.44	2258.91
550.64	2222.05
550.83	2183.13
551.03	2324.44
551.23	2303.96
551.42	2303.96
551.62	2152.42
551.82	2334.68
552.01	2174.94
552.21	2432.99
552.41	2228.19
552.60	2371.55
552.80	2265.05
553.00	2090.98
553.19	2220.00
553.39	2385.88
553.59	2160.61
553.78	2238.43
553.98	2244.57
554.17	2121.70
554.37	2273.25
554.57	2244.57
554.76	2103.26
554.96	2150.37
555.16	2269.15
555.35	2279.39
555.55	2277.34
555.75	2250.72
555.94	2291.68
556.14	2097.12
556.33	2306.01
556.53	2232.29
556.73	2226.14
556.92	2275.29
557.12	2263.01
557.32	2273.25
557.51	2340.83
557.71	2250.72
557.90	2299.87
558.10	2320.35
558.30	2252.77
558.49	2179.04
558.69	2113.50
558.88	2263.01
559.08	2211.81
559.28	2084.83
559.47	2232.29
559.67	2244.57
559.86	2408.41
560.06	2215.90
560.26	2232.29
560.45	2267.10
560.65	2215.90
560.84	2346.97
561.04	2189.28
561.24	2275.29
561.43	2136.03
561.63	2324.44
561.82	2224.09
562.02	2248.67
562.22	2056.16
562.41	2142.18
562.61	2160.61
562.80	2119.65
563.00	2482.14
563.19	2179.04
563.39	2226.14
563.59	2308.06
563.78	2140.13
563.98	2064.35
564.17	2152.42
564.37	2086.88
564.56	2146.27
564.76	2185.18
564.96	2334.68
565.15	2289.63
565.35	2385.88
565.54	2148.32
565.74	2244.57
565.93	2273.25
566.13	2271.20
566.32	2324.44
566.52	2291.68
566.71	2244.57
566.91	2293.72
567.11	2273.25
567.30	2088.93
567.50	2250.72
567.69	2260.96
567.89	2236.38
568.08	2152.42
568.28	2242.53
568.47	2189.28
568.67	2277.34
568.86	2138.08
569.06	2299.87
569.25	2125.79
569.45	2093.02
569.64	2148.32
569.84	2203.61
570.04	2265.05
570.23	2140.13
570.43	2217.95
570.62	2252.77
570.82	2299.87
571.01	2082.78
571.21	2125.79
571.40	2174.94
571.60	2318.30
571.79	2220.00
571.99	2224.09
572.18	2142.18
572.38	2283.49
572.57	2205.66
572.77	2297.82
572.96	2502.62
573.16	2248.67
573.35	2174.94
573.55	2258.91
573.74	2248.67
573.94	2209.76
574.13	2209.76
574.33	2271.20
574.52	2381.79
574.71	2179.04
574.91	2256.86
575.10	2078.69
575.30	2142.18
575.49	2068.45
575.69	2125.79
575.88	2258.91
576.08	2211.81
576.27	2410.46
576.47	2312.16
576.66	2406.36
576.86	2383.84
577.05	2410.46
577.25	2250.72
577.44	2404.32
577.64	2168.80
577.83	2310.11
578.02	2226.14
578.22	2355.16
578.41	2340.83
578.61	2185.18
578.80	2121.70
579.00	2220.00
579.19	2101.22
579.39	2342.88
579.58	2301.92
579.77	2174.94
579.97	2310.11
580.16	2408.41
580.36	2342.88
580.55	2308.06
580.75	2303.96
580.94	2240.48
581.13	2375.64
581.33	2371.55
581.52	2224.09
581.72	2490.33
581.91	2389.98
582.11	2176.99
582.30	2306.01
582.49	2295.77
582.69	2383.84
582.88	2422.75
583.08	2285.53
583.27	2406.36
583.47	2228.19
583.66	2166.75
583.85	2172.89
584.05	2209.76
584.24	2326.49
584.44	2244.57
584.63	2392.03
584.82	2416.60
585.02	2418.65
585.21	2396.12
585.41	2394.08
585.60	2375.64
585.79	2480.09
585.99	2504.67
586.18	2285.53
586.37	2922.45
586.57	4470.72
586.76	13168.44
586.96	32263.70
587.15	46515.51
587.34	55348.40
587.54	60617.83
587.73	55680.17
587.93	39556.52
588.12	29589.05
588.31	24018.58
588.51	20774.60
588.70	19056.35
588.89	17358.58
589.09	15095.58
589.28	12822.33
589.47	10635.10
589.67	8368.00
589.86	6301.60
590.06	4667.32
590.25	3700.68
590.44	3205.07
590.64	2754.52
590.83	2523.10
591.02	2494.43
591.22	2375.64
591.41	2324.44
591.60	2267.10
591.80	2539.48
591.99	2117.60
592.18	2203.61
592.38	2357.21
592.57	2179.04
592.76	2263.01
592.96	2224.09
593.15	2170.85
593.34	2322.40
593.54	2203.61
593.73	2260.96
593.92	2291.68
594.12	2349.02
594.31	2279.39
594.50	2465.75
594.70	2365.40
594.89	2453.47
595.08	2113.50
595.28	2377.69
595.47	2568.15
595.66	2283.49
595.86	2209.76
596.05	2160.61
596.24	2215.90
596.43	2547.67
596.63	2330.59
596.82	2256.86
597.01	2310.11
597.21	2408.41
597.40	2224.09
597.59	2246.62
597.79	2252.77
597.98	2289.63
598.17	2277.34
598.36	2279.39
598.56	2285.53
598.75	2211.81
598.94	2299.87
599.14	2197.47
599.33	2211.81
599.52	2363.36
599.71	2291.68
599.91	2326.49
600.10	2318.30
600.29	2183.13
600.48	2285.53
600.68	2299.87
600.87	2217.95
601.06	2152.42
601.26	2232.29
601.45	2283.49
601.64	2117.60
601.83	2303.96
602.03	2172.89
602.22	2154.46
602.41	2342.88
602.60	2480.09
602.80	2293.72
602.99	2224.09
603.18	2176.99
603.37	2220.00
603.57	2260.96
603.76	2357.21
603.95	2283.49
604.14	2236.38
604.34	2144.22
604.53	2195.42
604.72	2269.15
604.91	2312.16
605.10	2275.29
605.30	2107.36
605.49	2432.99
605.68	2314.20
605.87	2234.33
606.07	2123.74
606.26	2265.05
606.45	2267.10
606.64	2273.25
606.84	2260.96
607.03	2316.25
607.22	2244.57
607.41	2299.87
607.60	2269.15
607.80	2355.16
607.99	2187.23
608.18	2310.11
608.37	2228.19
608.56	2209.76
608.76	2387.93
608.95	2414.56
609.14	2283.49
609.33	2441.18
609.52	2387.93
609.72	2336.73
609.91	2349.02
610.10	2252.77
610.29	2252.77
610.48	2342.88
610.68	2326.49
610.87	2246.62
611.06	2310.11
611.25	2205.66
611.44	2349.02
611.63	2185.18
611.83	2346.97
612.02	2148.32
612.21	2250.72
612.40	2076.64
612.59	2125.79
612.79	2201.57
612.98	2220.00
613.17	2404.32
613.36	2297.82
613.55	2359.26
613.74	2346.97
613.93	2318.30
614.13	2484.19
614.32	2465.75
614.51	2502.62
614.70	2422.75
614.89	2316.25
615.08	2320.35
615.28	2824.15
615.47	2123.74
615.66	2320.35
615.85	2260.96
616.04	2414.56
616.23	2205.66
616.42	2375.64
616.62	2293.72
616.81	2297.82
617.00	2230.24
617.19	2277.34
617.38	2176.99
617.57	2242.53
617.76	2252.77
617.95	2252.77
618.15	2273.25
618.34	2355.16
618.53	2129.89
618.72	2279.39
618.91	2314.20
619.10	2265.05
619.29	2162.66
619.48	2207.71
619.68	2140.13
619.87	2224.09
620.06	2129.89
620.25	2224.09
620.44	2170.85
620.63	2211.81
620.82	2217.95
621.01	2252.77
621.20	2273.25
621.39	2260.96
621.59	2297.82
621.78	2238.43
621.97	2258.91
622.16	2283.49
622.35	2205.66
622.54	2267.10
622.73	2250.72
622.92	2062.30
623.11	2326.49
623.30	2121.70
623.49	2279.39
623.68	2148.32
623.88	2387.93
624.07	2195.42
624.26	2160.61
624.45	2234.33
624.64	2136.03
624.83	2222.05
625.02	2203.61
625.21	2230.24
625.40	2285.53
625.59	2310.11
625.78	2183.13
625.97	2326.49
626.16	2402.27
626.35	2234.33
626.54	2306.01
626.74	2406.36
626.93	2220.00
627.12	2236.38
627.31	2328.54
627.50	2207.71
627.69	2308.06
627.88	2170.85
628.07	2252.77
628.26	2097.12
628.45	2123.74
628.64	2209.76
628.83	2213.85
629.02	2148.32
629.21	2187.23
629.40	2222.05
629.59	2144.22
629.78	2297.82
629.97	2207.71
630.16	2207.71
630.35	2127.84
630.54	2248.67
630.73	2166.75
630.92	2244.57
631.11	2095.07
631.30	2183.13
631.49	2230.24
631.68	2199.52
631.87	2226.14
632.06	2181.09
632.25	2473.95
632.44	2211.81
632.63	2361.31
632.82	2234.33
633.01	2197.47
633.20	2322.40
633.39	2236.38
633.58	2215.90
633.77	2355.16
633.96	2277.34
634.15	2301.92
634.34	2295.77
634.53	2299.87
634.72	2260.96
634.91	2148.32
635.10	2242.53
635.29	2267.10
635.48	2203.61
635.67	2136.03
635.86	2121.70
636.05	2244.57
636.24	2164.70
636.43	2246.62
636.62	2236.38
636.81	1984.48
637.00	2242.53
637.19	2207.71
637.38	2203.61
637.57	2242.53
637.76	2277.34
637.95	2320.35
638.14	2265.05
638.33	2389.98
638.52	2297.82
638.71	2160.61
638.89	2127.84
639.08	2457.56
639.27	2428.89
639.46	2453.47
639.65	2901.97
639.84	2916.31
640.03	3067.86
640.22	2891.73
640.41	3043.28
640.60	2525.15
640.79	2488.28
640.98	2457.56
641.17	2521.05
641.36	2453.47
641.55	2475.99
641.74	2215.90
641.92	2316.25
642.11	2250.72
642.30	2258.91
642.49	2123.74
642.68	2172.89
642.87	2277.34
643.06	2209.76
643.25	2125.79
643.44	2129.89
643.63	2162.66
643.82	2318.30
644.00	2117.60
644.19	2297.82
644.38	2164.70
644.57	2215.90
644.76	2193.37
644.95	2193.37
645.14	2258.91
645.33	2179.04
645.52	2217.95
645.71	2025.44
645.89	2097.12
646.08	2226.14
646.27	2207.71
646.46	2375.64
646.65	2093.02
646.84	2242.53
647.03	2113.50
647.22	2326.49
647.40	2215.90
647.59	2156.51
647.78	2136.03
647.97	2095.07
648.16	2146.27
648.35	2328.54
648.54	2213.85
648.73	2088.93
648.91	2244.57
649.10	2213.85
649.29	2117.60
649.48	2131.94
649.67	2205.66
649.86	2224.09
650.05	2328.54
650.23	2435.03
650.42	2269.15
650.61	2523.10
650.80	2437.08
650.99	2465.75
651.18	2250.72
651.36	2359.26
651.55	2207.71
651.74	2299.87
651.93	2193.37
652.12	2228.19
652.31	2254.81
652.49	2156.51
652.68	2166.75
652.87	2344.92
653.06	2187.23
653.25	2330.59
653.44	2301.92
653.62	2338.78
653.81	2252.77
654.00	2236.38
654.19	2306.01
654.38	2363.36
654.56	2267.10
654.75	2119.65
654.94	2277.34
655.13	2256.86
655.32	2195.42
655.51	2297.82
655.69	2154.46
655.88	2289.63
656.07	2142.18
656.26	2250.72
656.45	2119.65
656.63	2234.33
656.82	2254.81
657.01	2234.33
657.20	2068.45
657.38	2351.07
657.57	2215.90
657.76	2074.59
657.95	2232.29
658.14	2199.52
658.32	2170.85
658.51	2150.37
658.70	2220.00
658.89	2240.48
659.08	2263.01
659.26	2502.62
659.45	2236.38
659.64	2359.26
659.83	2258.91
660.01	2582.49
660.20	2265.05
660.39	2359.26
660.58	2076.64
660.76	2260.96
660.95	2080.74
661.14	2201.57
661.33	2170.85
661.51	2181.09
661.70	2228.19
661.89	2238.43
662.08	2154.46
662.26	2152.42
662.45	2103.26
662.64	2406.36
662.83	2254.81
663.01	2076.64
663.20	2138.08
663.39	2295.77
663.58	2158.56
663.76	2224.09
663.95	2160.61
664.14	2121.70
664.32	2136.03
664.51	2078.69
664.70	2015.20
664.89	2193.37
665.07	2070.50
665.26	2291.68
665.45	2154.46
665.64	2271.20
665.82	2236.38
666.01	2291.68
666.20	2090.98
666.38	2428.89
666.57	2353.12
666.76	3243.98
666.95	7931.78
667.13	16393.99
667.32	21800.63
667.51	26033.78
667.69	27610.71
667.88	25714.30
668.07	18097.90
668.25	14491.43
668.44	11896.65
668.63	10336.10
668.81	8986.49
669.00	8071.04
669.19	7137.17
669.38	6244.26
669.56	5296.05
669.75	4480.96
669.94	3764.17
670.12	3108.82
670.31	2920.40
670.50	2586.58
670.68	2494.43
670.87	2351.07
671.06	2265.05
671.24	2367.45
671.43	2408.41
671.62	2359.26
671.80	2148.32
671.99	2310.11
672.18	2234.33
672.36	2260.96
672.55	2238.43
672.74	2162.66
672.92	2217.95
673.11	2306.01
673.29	2142.18
673.48	2220.00
673.67	2078.69
673.85	2299.87
674.04	2154.46
674.23	2183.13
674.41	2340.83
674.60	2062.30
674.79	2109.41
674.97	2019.30
675.16	2295.77
675.34	2244.57
675.53	2070.50
675.72	2277.34
675.90	2414.56
676.09	2138.08
676.28	2179.04
676.46	1996.77
676.65	2222.05
676.83	2183.13
677.02	2224.09
677.21	2203.61
677.39	2203.61
677.58	2105.31
677.77	2154.46
677.95	2156.51
678.14	2183.13
678.32	2187.23
678.51	2162.66
678.70	2332.64
678.88	2187.23
679.07	2228.19
679.25	2222.05
679.44	2119.65
679.63	2127.84
679.81	2260.96
680.00	2271.20
680.18	2316.25
680.37	2279.39
680.55	2244.57
680.74	2082.78
680.93	1990.63
681.11	2220.00
681.30	2224.09
681.48	2174.94
681.67	2191.33
681.85	2220.00
682.04	2125.79
682.23	2326.49
682.41	2162.66
682.60	2152.42
682.78	2154.46
682.97	2074.59
683.15	2170.85
683.34	2193.37
683.53	2310.11
683.71	2099.17
683.90	2346.97
684.08	2332.64
684.27	2107.36
684.45	2252.77
684.64	2369.50
684.82	2230.24
685.01	2217.95
685.19	2168.80
685.38	2336.73
685.57	2179.04
685.75	2082.78
685.94	2152.42
686.12	2172.89
686.31	2209.76
686.49	2387.93
686.68	2045.92
686.86	2265.05
687.05	2199.52
687.23	2375.64
687.42	2095.07
687.60	2068.45
687.79	2330.59
687.97	2332.64
688.16	2234.33
688.34	2277.34
688.53	2068.45
688.71	2258.91
688.90	2297.82
689.08	2207.71
689.27	2080.74
689.45	2308.06
689.64	2248.67
689.82	2228.19
690.01	2238.43
690.19	2232.29
690.38	2172.89
690.56	2277.34
690.75	2205.66
690.93	2205.66
691.12	2166.75
691.30	2144.22
691.49	2211.81
691.67	2111.46
691.86	2406.36
692.04	2179.04
692.23	2226.14
692.41	2234.33
692.60	2457.56
692.78	2379.74
692.97	2271.20
693.15	2297.82
693.34	2340.83
693.52	2365.40
693.71	2113.50
693.89	2197.47
694.08	2064.35
694.26	2228.19
694.44	2258.91
694.63	2260.96
694.81	2088.93
695.00	2101.22
695.18	2328.54
695.37	2410.46
695.55	2256.86
695.74	2226.14
695.92	2136.03
696.10	2357.21
696.29	2045.92
696.47	2148.32
696.66	2109.41
696.84	2131.94
697.03	2205.66
697.21	2363.36
697.40	3108.82
697.58	2267.10
697.76	2133.98
697.95	2072.54
698.13	2056.16
698.32	2154.46
698.50	2232.29
698.68	2232.29
698.87	2164.70
699.05	2297.82
699.24	2183.13
699.42	2072.54
699.61	2224.09
699.79	2183.13
699.97	2244.57
700.16	2078.69
700.34	2117.60
700.53	2199.52
700.71	2312.16
700.89	2324.44
701.08	2230.24
701.26	2138.08
701.45	2699.22
701.63	2185.18
701.81	2121.70
702.00	2209.76
702.18	2281.44
702.37	2211.81
702.55	2502.62
702.73	2478.04
702.92	2422.75
703.10	2645.98
703.28	2570.20
703.47	2232.29
703.65	2480.09
703.84	2365.40
704.02	2279.39
704.20	2443.23
704.39	2232.29
704.57	2236.38
704.75	2359.26
704.94	2271.20
705.12	2207.71
705.30	2484.19
705.49	4530.11
705.67	11005.78
705.86	20223.69
706.04	24528.52
706.22	28231.25
706.41	29283.91
706.59	25261.69
706.77	17911.53
706.96	14659.36
707.14	12867.39
707.32	11044.70
707.51	9750.38
707.69	8169.35
707.87	6535.07
708.06	5261.23
708.24	4153.28
708.42	3350.48
708.61	2975.70
708.79	2539.48
708.97	2365.40
709.16	2365.40
709.34	2306.01
709.52	2189.28
709.71	2162.66
709.89	2260.96
710.07	2097.12
710.26	2152.42
710.44	2252.77
710.62	2275.29
710.80	2248.67
710.99	2260.96
711.17	2281.44
711.35	2176.99
711.54	2170.85
711.72	2299.87
711.90	2226.14
712.09	2273.25
712.27	2088.93
712.45	2301.92
712.63	2158.56
712.82	2129.89
713.00	2154.46
713.18	2291.68
713.37	2236.38
713.55	2342.88
713.73	2246.62
713.91	2195.42
714.10	2129.89
714.28	2211.81
714.46	2277.34
714.65	2224.09
714.83	2095.07
715.01	2217.95
715.19	2144.22
715.38	2185.18
715.56	2277.34
715.74	2123.74
715.92	2166.75
716.11	2363.36
716.29	2078.69
716.47	2228.19
716.65	2185.18
716.84	2111.46
717.02	2365.40
717.20	2047.97
717.38	2138.08
717.57	2224.09
717.75	2207.71
717.93	2150.37
718.11	2277.34
718.30	2084.83
718.48	2183.13
718.66	2346.97
718.84	2275.29
719.03	2256.86
719.21	2113.50
719.39	2361.31
719.57	2310.11
719.75	2285.53
719.94	2074.59
720.12	2195.42
720.30	2252.77
720.48	2267.10
720.67	2162.66
720.85	2119.65
721.03	2207.71
721.21	2133.98
721.39	2269.15
721.58	2185.18
721.76	2207.71
721.94	2263.01
722.12	2250.72
722.30	2394.08
722.49	2144.22
722.67	2285.53
722.85	2187.23
723.03	2058.21
723.21	2168.80
723.40	2277.34
723.58	2279.39
723.76	2205.66
723.94	2353.12
724.12	2285.53
724.30	2328.54
724.49	2439.13
724.67	2162.66
724.85	2226.14
725.03	2107.36
725.21	2289.63
725.40	2250.72
725.58	2125.79
725.76	2226.14
725.94	2224.09
726.12	2109.41
726.30	2252.77
726.49	2209.76
726.67	2187.23
726.85	2197.47
727.03	2502.62
727.21	3745.73
727.39	5607.34
727.57	6586.27
727.76	7335.82
727.94	7683.98
728.12	7274.38
728.30	5857.19
728.48	4886.45
728.66	4642.75
728.84	4030.40
729.03	3514.31
729.21	3086.29
729.39	2727.89
729.57	2510.81
729.75	2461.66
729.93	2287.58
730.11	2232.29
730.30	2170.85
730.48	2289.63
730.66	2326.49
730.84	2320.35
731.02	2242.53
731.20	2115.55
731.38	2244.57
731.56	2074.59
731.74	2050.02
731.93	2228.19
732.11	2170.85
732.29	2160.61
732.47	2301.92
732.65	2211.81
732.83	2301.92
733.01	2228.19
733.19	2140.13
733.37	2197.47
733.56	2289.63
733.74	2095.07
733.92	2383.84
734.10	2117.60
734.28	2299.87
734.46	2054.11
734.64	2131.94
734.82	2179.04
735.00	2052.06
735.18	2170.85
735.36	2207.71
735.54	2166.75
735.73	2195.42
735.91	2183.13
736.09	2242.53
736.27	2164.70
736.45	2297.82
736.63	2033.63
736.81	2164.70
736.99	2293.72
737.17	2287.58
737.35	2086.88
737.53	2176.99
737.71	2228.19
737.89	2256.86
738.07	2129.89
738.25	2162.66
738.43	2121.70
738.61	2166.75
738.80	2095.07
738.98	2086.88
739.16	2166.75
739.34	2146.27
739.52	2383.84
739.70	2269.15
739.88	2205.66
740.06	2283.49
740.24	1970.15
740.42	2338.78
740.60	2056.16
740.78	2041.82
740.96	1998.82
741.14	2123.74
741.32	2346.97
741.50	2023.39
741.68	2355.16
741.86	2318.30
742.04	2097.12
742.22	2080.74
742.40	2209.76
742.58	2275.29
742.76	2101.22
742.94	2211.81
743.12	2070.50
743.30	2179.04
743.48	2256.86
743.66	2195.42
743.84	2158.56
744.02	2211.81
744.20	2203.61
744.38	2187.23
744.56	2095.07
744.74	2428.89
744.92	2215.90
745.10	2351.07
745.28	2363.36
745.46	2285.53
745.64	2097.12
745.82	2275.29
746.00	2222.05
746.18	2209.76
746.36	2047.97
746.54	2176.99
746.72	2158.56
746.90	2074.59
747.08	2363.36
747.26	2183.13
747.44	2240.48
747.62	2291.68
747.80	2303.96
747.98	2293.72
748.15	2174.94
748.33	2312.16
748.51	2269.15
748.69	2265.05
748.87	2140.13
749.05	2246.62
749.23	2176.99
749.41	2242.53
749.59	2236.38
749.77	2363.36
749.95	2121.70
750.13	2093.02
750.31	2316.25
750.49	2174.94
750.67	2289.63
750.85	2310.11
751.03	2215.90
751.20	2363.36
751.38	2240.48
751.56	2152.42
751.74	2250.72
751.92	2191.33
752.10	2070.50
752.28	2318.30
752.46	2129.89
752.64	2195.42
752.82	2121.70
753.00	2234.33
753.18	2158.56
753.35	2121.70
753.53	2195.42
753.71	2121.70
753.89	2244.57
754.07	2195.42
754.25	2240.48
754.43	2205.66
754.61	2093.02
754.79	2224.09
754.97	2152.42
755.14	2281.44
755.32	2111.46
755.50	2129.89
755.68	2209.76
755.86	2029.54
756.04	2105.31
756.22	2052.06
756.40	2273.25
756.57	2256.86
756.75	2138.08
756.93	2326.49
757.11	2256.86
757.29	2039.78
757.47	2115.55
757.65	2039.78
757.82	1984.48
758.00	2123.74
758.18	2215.90
758.36	2176.99
758.54	2320.35
758.72	2066.40
758.90	2234.33
759.07	2252.77
759.25	2107.36
759.43	2285.53
759.61	2080.74
759.79	3045.33
759.97	2320.35
760.15	2160.61
760.32	2158.56
760.50	2191.33
760.68	2342.88
760.86	2054.11
761.04	2314.20
761.22	2332.64
761.39	2232.29
761.57	2217.95
761.75	2168.80
761.93	2252.77
762.11	2162.66
762.28	2201.57
762.46	2101.22
762.64	2252.77
762.82	2125.79
763.00	2203.61
763.18	2332.64
763.35	2078.69
763.53	2193.37
763.71	2265.05
763.89	2113.50
764.07	2230.24
764.24	2193.37
764.42	2252.77
764.60	2185.18
764.78	2240.48
764.96	2271.20
765.13	2269.15
765.31	2176.99
765.49	2326.49
765.67	2148.32
765.84	2138.08
766.02	2107.36
766.20	2097.12
766.38	2193.37
766.56	2199.52
766.73	2271.20
766.91	2211.81
767.09	2203.61
767.27	2215.90
767.44	2123.74
767.62	2281.44
767.80	2234.33
767.98	2144.22
768.15	2107.36
768.33	2342.88
768.51	2250.72
768.69	2230.24
768.87	2291.68
769.04	2142.18
769.22	2400.22
769.40	2289.63
769.58	2367.45
769.75	2168.80
769.93	2340.83
770.11	2160.61
770.28	2078.69
770.46	2301.92
770.64	2269.15
770.82	2185.18
770.99	2265.05
771.17	2224.09
771.35	2183.13
771.53	2162.66
771.70	2195.42
771.88	2191.33
772.06	2136.03
772.23	2105.31
772.41	2308.06
772.59	2211.81
772.77	2054.11
772.94	2220.00
773.12	2312.16
773.30	2154.46
773.47	2271.20
773.65	2136.03
773.83	2283.49
774.01	2136.03
774.18	2019.30
774.36	2181.09
774.54	2037.73
774.71	2191.33
774.89	2015.20
775.07	2133.98
775.24	2127.84
775.42	2101.22
775.60	2279.39
775.78	2121.70
775.95	2054.11
776.13	2017.25
776.31	1941.47
776.48	2230.24
776.66	2324.44
776.84	2181.09
777.01	2086.88
777.19	2144.22
777.37	2142.18
777.54	2215.90
777.72	2379.74
777.90	2160.61
778.07	2125.79
778.25	2504.67
778.43	2308.06
778.60	2127.84
778.78	2246.62
778.96	2308.06
779.13	2101.22
779.31	2271.20
779.49	2136.03
779.66	2201.57
779.84	2162.66
780.01	2260.96
780.19	2068.45
780.37	2314.20
780.54	2267.10
780.72	2035.68
780.90	2129.89
781.07	2162.66
781.25	2041.82
781.43	2267.10
781.60	2152.42
781.78	2269.15
781.95	2252.77
782.13	2127.84
782.31	2224.09
782.48	2056.16
782.66	2234.33
782.83	2320.35
783.01	2295.77
783.19	2228.19
783.36	2220.00
783.54	2127.84
783.72	2342.88
783.89	2144.22
784.07	2217.95
784.24	2199.52
784.42	2297.82
784.60	2205.66
784.77	2265.05
784.95	1980.39
785.12	2150.37
785.30	2176.99
785.47	2101.22
785.65	2107.36
785.83	2095.07
786.00	2138.08
786.18	2236.38
786.35	2066.40
786.53	2009.06
786.71	2273.25
786.88	2308.06
787.06	2158.56
787.23	2176.99
787.41	2127.84
787.58	2179.04
787.76	2054.11
787.94	2236.38
788.11	2220.00
788.29	2045.92
788.46	2187.23
788.64	2086.88
788.81	2146.27
788.99	2170.85
789.16	2072.54
789.34	2224.09
789.52	2133.98
789.69	2146.27
789.87	1957.86
790.04	2113.50
790.22	2230.24
790.39	2408.41
790.57	2170.85
790.74	2133.98
790.92	2228.19
791.09	2078.69
791.27	2162.66
791.44	2322.40
791.62	2199.52
791.79	2242.53
791.97	2297.82
792.15	2422.75
792.32	2252.77
792.50	2312.16
792.67	2351.07
792.85	2318.30
793.02	2287.58
793.20	2187.23
793.37	2047.97
793.55	2179.04
793.72	2115.55
793.90	2236.38
794.07	2174.94
794.25	2144.22
794.42	2187.23
794.60	2158.56
794.77	2234.33
794.95	2203.61
795.12	2170.85
795.30	2146.27
795.47	1974.24
795.65	2381.79
795.82	2267.10
796.00	2131.94
796.17	2176.99
796.34	2119.65
796.52	2228.19
796.69	2291.68
796.87	2191.33
797.04	2267.10
797.22	2250.72
797.39	2197.47
797.57	2289.63
797.74	2158.56
797.92	2154.46
798.09	2150.37
798.27	2318.30
798.44	2138.08
798.62	2164.70
798.79	2170.85
798.96	2138.08
799.14	2146.27
799.31	2416.60
799.49	2170.85
799.66	2154.46
799.84	2181.09
800.01	2097.12
800.19	2195.42
800.36	2023.39
800.53	2242.53
800.71	2240.48
800.88	2301.92
801.06	2129.89
801.23	2105.31
801.41	2148.32
801.58	2144.22
801.75	2138.08
801.93	2246.62
802.10	2222.05
802.28	2125.79
802.45	2166.75
802.63	2213.85
802.80	2314.20
802.97	2117.60
803.15	2138.08
803.32	2138.08
803.50	2127.84
803.67	2144.22
803.84	2045.92
804.02	2191.33
804.19	2103.26
804.37	1998.82
804.54	2142.18
804.71	2131.94
804.89	2113.50
805.06	2060.26
805.24	2074.59
805.41	2162.66
805.58	2076.64
805.76	2416.60
805.93	2228.19
806.10	2279.39
806.28	2222.05
806.45	2199.52
806.63	2271.20
806.80	2232.29
806.97	2183.13
807.15	2166.75
807.32	2244.57
807.49	2203.61
807.67	2099.17
807.84	2215.90
808.01	2045.92
808.19	2355.16
808.36	2422.75
808.54	2125.79
808.71	2095.07
808.88	2142.18
809.06	2330.59
809.23	2369.50
809.40	2189.28
809.58	2263.01
809.75	2201.57
809.92	2119.65
810.10	2322.40
810.27	2156.51
810.44	2172.89
810.62	2179.04
810.79	2228.19
810.96	2113.50
811.14	2146.27
811.31	2201.57
811.48	2271.20
811.66	2115.55
811.83	2303.96
812.00	2215.90
812.18	2265.05
812.35	2359.26
812.52	2158.56
812.69	2168.80
812.87	2160.61
813.04	2199.52
813.21	2242.53
813.39	2109.41
813.56	2125.79
813.73	2260.96
813.91	2119.65
814.08	2152.42
814.25	2222.05
814.42	2004.96
814.60	2148.32
814.77	2142.18
814.94	2160.61
815.12	2269.15
815.29	2306.01
815.46	2133.98
815.63	2193.37
815.81	2174.94
815.98	2228.19
816.15	2162.66
816.33	2187.23
816.50	2152.42
816.67	2095.07
816.84	2220.00
817.02	2203.61
817.19	2113.50
817.36	2138.08
817.53	2285.53
817.71	2103.26
817.88	2283.49
818.05	2164.70
818.22	2191.33
818.40	2285.53
818.57	2232.29
818.74	2248.67
818.91	2187.23
819.09	2248.67
819.26	2228.19
819.43	2181.09
819.60	2121.70
819.78	2179.04
819.95	2236.38
820.12	2062.30
820.29	2340.83
820.47	2234.33
820.64	2136.03
820.81	2047.97
820.98	2095.07
821.15	2228.19
821.33	2260.96
821.50	1992.67
821.67	2263.01
821.84	2133.98
822.02	2244.57
822.19	2234.33
822.36	2068.45
822.53	2162.66
822.70	2099.17
822.88	2191.33
823.05	2342.88
823.22	2179.04
823.39	2234.33
823.56	2195.42
823.74	2340.83
823.91	2070.50
824.08	2086.88
824.25	2078.69
824.42	2400.22
824.60	2078.69
824.77	2131.94
824.94	2160.61
825.11	2293.72
825.28	1964.00
825.45	2119.65
825.63	2213.85
825.80	2164.70
825.97	2232.29
826.14	2179.04
826.31	2066.40
826.48	2217.95
826.66	2080.74
826.83	2129.89
827.00	2242.53
827.17	2123.74
827.34	2150.37
827.51	2160.61
827.69	2107.36
827.86	2080.74
828.03	2220.00
828.20	2232.29
828.37	2156.51
828.54	2269.15
828.71	2131.94
828.89	2322.40
829.06	2201.57
829.23	2338.78
829.40	2170.85
829.57	2166.75
829.74	2197.47
829.91	2170.85
830.09	2144.22
830.26	2289.63
830.43	2291.68
830.60	2236.38
830.77	2265.05
830.94	2308.06
831.11	2252.77
831.28	2179.04
831.46	2318.30
831.63	2164.70
831.80	2242.53
831.97	2115.55
832.14	2129.89
832.31	2146.27
832.48	2172.89
832.65	2365.40
832.82	2213.85
832.99	2252.77
833.17	2162.66
833.34	2326.49
833.51	2187.23
833.68	1988.58
833.85	2269.15
834.02	2170.85
834.19	2019.30
834.36	2179.04
834.53	2213.85
834.70	2203.61
834.87	2170.85
835.04	2125.79
835.22	2023.39
835.39	2211.81
835.56	2080.74
835.73	2146.27
835.90	2252.77
836.07	2072.54
836.24	2205.66
836.41	2031.58
836.58	2037.73
836.75	2322.40
836.92	2170.85
837.09	2138.08
837.26	2330.59
837.43	2144.22
837.60	2179.04
837.77	2156.51
837.94	2260.96
838.12	2349.02
838.29	2103.26
838.46	2082.78
838.63	2117.60
838.80	2383.84
838.97	2260.96
839.14	2183.13
839.31	2252.77
839.48	2207.71
839.65	2007.01
839.82	2185.18
839.99	2230.24
840.16	2197.47
840.33	2095.07
840.50	2162.66
840.67	2097.12
840.84	2013.15
841.01	2158.56
841.18	2080.74
841.35	2107.36
841.52	2285.53
841.69	2281.44
841.86	2133.98
842.03	2121.70
842.20	2273.25
842.37	2140.13
842.54	2170.85
842.71	2170.85
842.88	2050.02
843.05	2220.00
843.22	2115.55
843.39	2306.01
843.56	2154.46
843.73	2201.57
843.90	2107.36
844.07	2220.00
844.24	2195.42
844.41	2199.52
844.58	2129.89
844.75	2189.28
844.92	2258.91
845.09	2213.85
845.26	2131.94
845.43	2211.81
845.60	2142.18
845.77	2260.96
845.94	2133.98
846.10	2217.95
846.27	2064.35
846.44	2107.36
846.61	2064.35
846.78	2211.81
846.95	2312.16
847.12	2068.45
847.29	2187.23
847.46	2119.65
847.63	2250.72
847.80	2031.58
847.97	2093.02
848.14	2381.79
848.31	2162.66
848.48	2129.89
848.65	2156.51
848.82	2129.89
848.98	2424.80
849.15	2179.04
849.32	2211.81
849.49	2303.96
849.66	2203.61
849.83	2213.85
850.00	2117.60
850.17	2195.42
850.34	2156.51
850.51	2105.31
850.68	2101.22
850.85	2389.98
851.01	2215.90
851.18	2170.85
851.35	2166.75
851.52	2258.91
851.69	2256.86
851.86	2035.68
852.03	2107.36
852.20	2271.20
852.37	2191.33
852.53	2090.98
852.70	2142.18
852.87	2226.14
853.04	2371.55
853.21	2129.89
853.38	2246.62
853.55	2299.87
853.72	2336.73
853.89	2097.12
854.05	2097.12
854.22	2187.23
854.39	2189.28
854.56	2224.09
854.73	2215.90
854.90	2088.93
855.07	2191.33
855.23	2152.42
855.40	2070.50
855.57	2115.55
855.74	2109.41
855.91	2336.73
856.08	2074.59
856.25	2097.12
856.41	2121.70
856.58	2105.31
856.75	2129.89
856.92	2052.06
857.09	2301.92
857.26	2058.21
857.42	2140.13
857.59	2250.72
857.76	2166.75
857.93	2203.61
858.10	2168.80
858.27	2062.30
858.43	2199.52
858.60	2039.78
858.77	2029.54
858.94	2105.31
859.11	2195.42
859.27	2146.27
859.44	2123.74
859.61	2385.88
859.78	2240.48
859.95	2103.26
860.12	2088.93
860.28	2437.08
860.45	2346.97
860.62	2154.46
860.79	2185.18
860.95	2166.75
861.12	2045.92
861.29	2062.30
861.46	2156.51
861.63	2115.55
861.79	2230.24
861.96	2076.64
862.13	2101.22
862.30	2326.49
862.47	2052.06
862.63	2035.68
862.80	2238.43
862.97	2297.82
863.14	2220.00
863.30	2160.61
863.47	2150.37
863.64	2365.40
863.81	2246.62
863.97	2166.75
864.14	2197.47
864.31	2232.29
864.48	2220.00
864.65	2142.18
864.81	2209.76
864.98	2289.63
865.15	2301.92
865.32	2181.09
865.48	2234.33
865.65	2293.72
865.82	2146.27
865.98	2174.94
866.15	2131.94
866.32	2187.23
866.49	2201.57
866.65	2273.25
866.82	2113.50
866.99	2199.52
867.16	2183.13
867.32	2129.89
867.49	2170.85
867.66	2170.85
867.83	2140.13
867.99	1966.05
868.16	2146.27
868.33	2088.93
868.49	2191.33
868.66	2062.30
868.83	2199.52
868.99	2252.77
869.16	2201.57
869.33	2265.05
869.50	2236.38
869.66	2260.96
869.83	2183.13
870.00	2037.73
870.16	2246.62
870.33	2166.75
870.50	2238.43
870.66	2244.57
870.83	2203.61
871.00	2176.99
871.17	2222.05
871.33	2154.46
871.50	2138.08
871.67	2166.75
871.83	2140.13
872.00	2308.06
872.17	2189.28
872.33	2334.68
872.50	2289.63
872.67	2148.32
872.83	2158.56
873.00	2240.48
873.17	2133.98
873.33	2179.04
873.50	2220.00
873.67	2103.26
873.83	2109.41
874.00	2099.17
874.16	2252.77
874.33	2176.99
874.50	2029.54
874.66	2205.66
874.83	2162.66
875.00	2316.25
875.16	2230.24
875.33	2236.38
875.50	1996.77
875.66	2097.12
875.83	2144.22
875.99	2162.66
876.16	2179.04
876.33	2170.85
876.49	2142.18
876.66	2236.38
876.83	2086.88
876.99	1961.95
877.16	2138.08
877.32	2133.98
877.49	2111.46
877.66	2195.42
877.82	2281.44
877.99	2193.37
878.15	2256.86
878.32	2285.53
878.49	2271.20
878.65	2099.17
878.82	2330.59
878.98	2113.50
879.15	2273.25
879.32	2234.33
879.48	2176.99
879.65	2140.13
879.81	2103.26
879.98	2099.17
880.15	2103.26
880.31	2308.06
880.48	2140.13
880.64	2289.63
880.81	2195.42
880.97	2437.08
881.14	2291.68
881.31	2080.74
881.47	2291.68
881.64	2131.94
881.80	1998.82
881.97	2205.66
882.13	2203.61
882.30	2121.70
882.47	2113.50
882.63	2074.59
882.80	2021.35
882.96	2203.61
883.13	2359.26
883.29	2140.13
883.46	2197.47
883.62	2363.36
883.79	2199.52
883.95	2260.96
884.12	2168.80
884.29	2279.39
884.45	2281.44
884.62	2193.37
884.78	2013.15
884.95	2285.53
885.11	2017.25
885.28	2166.75
885.44	2062.30
885.61	2326.49
885.77	2351.07
885.94	2246.62
886.10	2183.13
886.27	2217.95
886.43	2416.60
886.60	2232.29
886.76	2129.89
886.93	2127.84
887.09	2193.37
887.26	2062.30
887.42	2138.08
887.59	2279.39
887.75	2449.37
887.92	2191.33
888.08	2260.96
888.25	2381.79
888.41	2160.61
888.58	2162.66
888.74	2115.55
888.91	2039.78
>>>>>End Processed Spectral Data<<<<<
