SpectraSuite Data File
++++++++++++++++++++++++++++++++++++
Date: Thu May 05 12:35:10 CEST 2016
User: root
Dark Spectrum Present: No
Reference Spectrum Present: No
Number of Sampled Component Spectra: 1
Spectrometers: USB4C02835
Integration Time (usec): 100000 (USB4C02835)
Spectra Averaged: 1 (USB4C02835)
Boxcar Smoothing: 0 (USB4C02835)
Correct for Electrical Dark: No (USB4C02835)
Strobe/Lamp Enabled: No (USB4C02835)
Correct for Detector Non-linearity: No (USB4C02835)
Correct for Stray Light: No (USB4C02835)
Number of Pixels in Processed Spectrum: 3648
>>>>>Begin Processed Spectral Data<<<<<
177.47	1724.39
177.69	1724.39
177.91	1724.39
178.13	1732.58
178.36	1785.83
178.58	2062.30
178.80	2228.19
179.02	2054.11
179.24	2099.17
179.46	2136.03
179.68	2197.47
179.90	2195.42
180.13	2226.14
180.35	2009.06
180.57	2129.89
180.79	2236.38
181.01	2150.37
181.23	2140.13
181.45	2213.85
181.67	2211.81
181.90	2160.61
182.12	2105.31
182.34	2011.11
182.56	2318.30
182.78	2162.66
183.00	2154.46
183.22	2160.61
183.44	2007.01
183.66	2428.89
183.89	2187.23
184.11	2129.89
184.33	2230.24
184.55	2289.63
184.77	2136.03
184.99	2066.40
185.21	2142.18
185.43	2351.07
185.65	2113.50
185.87	2138.08
186.10	2467.80
186.32	2389.98
186.54	2226.14
186.76	2183.13
186.98	2299.87
187.20	2088.93
187.42	2068.45
187.64	2166.75
187.86	2181.09
188.08	2314.20
188.30	2045.92
188.52	2086.88
188.75	2310.11
188.97	2289.63
189.19	2095.07
189.41	2133.98
189.63	2238.43
189.85	2197.47
190.07	2011.11
190.29	1986.53
190.51	2146.27
190.73	2033.63
190.95	2209.76
191.17	2117.60
191.39	2045.92
191.61	2185.18
191.84	2179.04
192.06	2168.80
192.28	2148.32
192.50	2500.57
192.72	2158.56
192.94	2160.61
193.16	2275.29
193.38	2283.49
193.60	2043.87
193.82	2162.66
194.04	2242.53
194.26	2162.66
194.48	2176.99
194.70	2160.61
194.92	2164.70
195.14	2283.49
195.36	1998.82
195.58	2185.18
195.80	2228.19
196.02	2097.12
196.24	2095.07
196.46	2174.94
196.69	2080.74
196.91	2447.32
197.13	2217.95
197.35	2101.22
197.57	2293.72
197.79	2209.76
198.01	2222.05
198.23	2144.22
198.45	2269.15
198.67	2086.88
198.89	2060.26
199.11	2207.71
199.33	2099.17
199.55	2035.68
199.77	2125.79
199.99	2299.87
200.21	2174.94
200.43	2164.70
200.65	2045.92
200.87	2027.49
201.09	2191.33
201.31	2215.90
201.53	2236.38
201.75	2209.76
201.97	2185.18
202.19	2199.52
202.41	2215.90
202.63	2308.06
202.85	2332.64
203.07	2156.51
203.29	2209.76
203.51	2066.40
203.73	2217.95
203.95	2432.99
204.17	2142.18
204.39	2179.04
204.61	2150.37
204.83	2133.98
205.05	2230.24
205.27	2242.53
205.49	2389.98
205.71	2205.66
205.93	1964.00
206.15	2115.55
206.37	2170.85
206.59	2226.14
206.81	1982.43
207.03	2017.25
207.25	2080.74
207.47	2211.81
207.69	2168.80
207.91	2312.16
208.13	2306.01
208.34	2146.27
208.56	2170.85
208.78	2156.51
209.00	2148.32
209.22	2068.45
209.44	2103.26
209.66	2142.18
209.88	2242.53
210.10	2158.56
210.32	2142.18
210.54	2207.71
210.76	2170.85
210.98	2267.10
211.20	2002.91
211.42	2236.38
211.64	2277.34
211.86	2209.76
212.08	2170.85
212.30	2105.31
212.52	2224.09
212.74	2260.96
212.96	2136.03
213.17	2217.95
213.39	2291.68
213.61	2328.54
213.83	2144.22
214.05	2162.66
214.27	2383.84
214.49	2101.22
214.71	2041.82
214.93	2179.04
215.15	2201.57
215.37	2193.37
215.59	1988.58
215.81	2166.75
216.03	2293.72
216.24	2289.63
216.46	2045.92
216.68	2189.28
216.90	2293.72
217.12	2336.73
217.34	2058.21
217.56	2185.18
217.78	2291.68
218.00	2201.57
218.22	2234.33
218.44	2080.74
218.66	2226.14
218.87	2365.40
219.09	2072.54
219.31	2156.51
219.53	2310.11
219.75	2166.75
219.97	2146.27
220.19	2131.94
220.41	2191.33
220.63	2340.83
220.85	2052.06
221.06	2056.16
221.28	2346.97
221.50	2230.24
221.72	2136.03
221.94	2123.74
222.16	2201.57
222.38	2234.33
222.60	2156.51
222.82	2187.23
223.03	2320.35
223.25	2111.46
223.47	2187.23
223.69	2299.87
223.91	2191.33
224.13	2224.09
224.35	2099.17
224.57	2291.68
224.78	2195.42
225.00	2162.66
225.22	2099.17
225.44	2176.99
225.66	2199.52
225.88	2160.61
226.10	2185.18
226.32	2129.89
226.53	2365.40
226.75	2162.66
226.97	2109.41
227.19	2097.12
227.41	2158.56
227.63	2131.94
227.85	1998.82
228.06	2158.56
228.28	2252.77
228.50	2295.77
228.72	2009.06
228.94	2070.50
229.16	2011.11
229.37	2080.74
229.59	2050.02
229.81	2252.77
230.03	2172.89
230.25	2064.35
230.47	2047.97
230.69	2111.46
230.90	2209.76
231.12	2195.42
231.34	2138.08
231.56	2252.77
231.78	2066.40
232.00	2220.00
232.21	2187.23
232.43	2074.59
232.65	2015.20
232.87	2308.06
233.09	2125.79
233.30	2187.23
233.52	2285.53
233.74	2136.03
233.96	2109.41
234.18	2191.33
234.40	2211.81
234.61	2457.56
234.83	2070.50
235.05	2023.39
235.27	2463.71
235.49	2316.25
235.70	2150.37
235.92	2232.29
236.14	2236.38
236.36	2443.23
236.58	2004.96
236.79	2195.42
237.01	2211.81
237.23	2166.75
237.45	2310.11
237.67	2113.50
237.88	2203.61
238.10	2410.46
238.32	2013.15
238.54	2154.46
238.76	2181.09
238.97	2142.18
239.19	2064.35
239.41	2162.66
239.63	2246.62
239.85	2152.42
240.06	2050.02
240.28	2140.13
240.50	2340.83
240.72	2181.09
240.93	2127.84
241.15	2230.24
241.37	2158.56
241.59	2285.53
241.81	2105.31
242.02	2076.64
242.24	2217.95
242.46	2269.15
242.68	2080.74
242.89	2187.23
243.11	2258.91
243.33	2244.57
243.55	2133.98
243.76	2187.23
243.98	2099.17
244.20	2127.84
244.42	2105.31
244.64	2093.02
244.85	2045.92
245.07	2117.60
245.29	2131.94
245.51	2117.60
245.72	2267.10
245.94	2275.29
246.16	2170.85
246.38	2199.52
246.59	2125.79
246.81	2090.98
247.03	2078.69
247.24	2047.97
247.46	2152.42
247.68	2189.28
247.90	2144.22
248.11	2129.89
248.33	2308.06
248.55	2211.81
248.77	2170.85
248.98	2234.33
249.20	2306.01
249.42	2228.19
249.64	2152.42
249.85	2064.35
250.07	2097.12
250.29	2322.40
250.50	2166.75
250.72	2074.59
250.94	2201.57
251.16	2398.17
251.37	2160.61
251.59	2226.14
251.81	2236.38
252.02	2371.55
252.24	2099.17
252.46	2240.48
252.68	2125.79
252.89	2088.93
253.11	2025.44
253.33	2301.92
253.54	2369.50
253.76	2105.31
253.98	2105.31
254.20	2133.98
254.41	2113.50
254.63	2168.80
254.85	2058.21
255.06	2162.66
255.28	2183.13
255.50	2146.27
255.71	2080.74
255.93	2029.54
256.15	2168.80
256.36	2222.05
256.58	2086.88
256.80	2166.75
257.02	2093.02
257.23	2140.13
257.45	2146.27
257.67	2213.85
257.88	2215.90
258.10	2273.25
258.32	2088.93
258.53	2181.09
258.75	2308.06
258.97	2113.50
259.18	2056.16
259.40	2129.89
259.62	2332.64
259.83	2351.07
260.05	2140.13
260.27	2519.00
260.48	2277.34
260.70	2076.64
260.92	2084.83
261.13	2215.90
261.35	2232.29
261.57	2170.85
261.78	2021.35
262.00	2090.98
262.22	2240.48
262.43	2103.26
262.65	2125.79
262.86	2142.18
263.08	2420.70
263.30	2256.86
263.51	2025.44
263.73	2090.98
263.95	2326.49
264.16	2109.41
264.38	1988.58
264.60	2133.98
264.81	2220.00
265.03	2263.01
265.25	2252.77
265.46	2078.69
265.68	2306.01
265.89	2316.25
266.11	1996.77
266.33	2150.37
266.54	2250.72
266.76	2189.28
266.98	2150.37
267.19	2162.66
267.41	2215.90
267.62	2185.18
267.84	2045.92
268.06	2207.71
268.27	2203.61
268.49	2355.16
268.70	2150.37
268.92	2109.41
269.14	2162.66
269.35	2035.68
269.57	2199.52
269.79	2183.13
270.00	2154.46
270.22	2306.01
270.43	2025.44
270.65	2050.02
270.87	2189.28
271.08	2316.25
271.30	2168.80
271.51	2103.26
271.73	2265.05
271.95	2312.16
272.16	2144.22
272.38	2248.67
272.59	2144.22
272.81	2226.14
273.02	2127.84
273.24	2203.61
273.46	2312.16
273.67	2117.60
273.89	2052.06
274.10	2187.23
274.32	2299.87
274.54	2150.37
274.75	2195.42
274.97	2093.02
275.18	2252.77
275.40	2267.10
275.61	2181.09
275.83	2242.53
276.05	2080.74
276.26	2125.79
276.48	2185.18
276.69	2158.56
276.91	2144.22
277.12	2326.49
277.34	2285.53
277.55	2299.87
277.77	2187.23
277.99	2111.46
278.20	2105.31
278.42	2138.08
278.63	2136.03
278.85	2050.02
279.06	1957.86
279.28	2195.42
279.49	2353.12
279.71	2248.67
279.93	2176.99
280.14	2138.08
280.36	2113.50
280.57	2250.72
280.79	2142.18
281.00	2080.74
281.22	2176.99
281.43	2246.62
281.65	1941.47
281.86	2017.25
282.08	2199.52
282.29	2443.23
282.51	2088.93
282.73	2076.64
282.94	2080.74
283.16	2285.53
283.37	2263.01
283.59	2146.27
283.80	2308.06
284.02	2162.66
284.23	2187.23
284.45	2146.27
284.66	2039.78
284.88	2099.17
285.09	2195.42
285.31	2213.85
285.52	2220.00
285.74	2009.06
285.95	2226.14
286.17	2203.61
286.38	2340.83
286.60	2138.08
286.81	2142.18
287.03	2152.42
287.24	2244.57
287.46	2252.77
287.67	2170.85
287.89	2263.01
288.10	2189.28
288.32	2205.66
288.53	2297.82
288.75	2232.29
288.96	2226.14
289.18	2170.85
289.39	2138.08
289.61	2244.57
289.82	2342.88
290.04	2379.74
290.25	2146.27
290.47	2176.99
290.68	2152.42
290.90	2277.34
291.11	2070.50
291.33	2236.38
291.54	2109.41
291.76	2054.11
291.97	2236.38
292.18	2174.94
292.40	2172.89
292.61	2115.55
292.83	2408.41
293.04	2168.80
293.26	2269.15
293.47	2187.23
293.69	2111.46
293.90	2195.42
294.12	2277.34
294.33	2152.42
294.55	2097.12
294.76	2308.06
294.97	2369.50
295.19	2344.92
295.40	2201.57
295.62	2146.27
295.83	2236.38
296.05	2146.27
296.26	2326.49
296.48	2215.90
296.69	2140.13
296.90	2179.04
297.12	2252.77
297.33	2336.73
297.55	2146.27
297.76	2306.01
297.98	2250.72
298.19	2166.75
298.41	2121.70
298.62	2181.09
298.83	2265.05
299.05	2205.66
299.26	2162.66
299.48	2088.93
299.69	2224.09
299.90	2138.08
300.12	2150.37
300.33	2277.34
300.55	2193.37
300.76	2217.95
300.98	2113.50
301.19	2191.33
301.40	2131.94
301.62	2185.18
301.83	2158.56
302.05	2250.72
302.26	2156.51
302.47	2234.33
302.69	2054.11
302.90	2207.71
303.12	2004.96
303.33	2252.77
303.54	2387.93
303.76	2146.27
303.97	2228.19
304.19	2334.68
304.40	2086.88
304.61	2248.67
304.83	2387.93
305.04	2277.34
305.26	2195.42
305.47	2133.98
305.68	2179.04
305.90	1992.67
306.11	2248.67
306.33	2105.31
306.54	2172.89
306.75	2111.46
306.97	2113.50
307.18	2199.52
307.39	2031.58
307.61	2185.18
307.82	2215.90
308.04	2236.38
308.25	2148.32
308.46	2220.00
308.68	2136.03
308.89	2187.23
309.10	2289.63
309.32	2187.23
309.53	2236.38
309.74	2187.23
309.96	2056.16
310.17	2236.38
310.39	2158.56
310.60	2271.20
310.81	2080.74
311.03	2064.35
311.24	2265.05
311.45	2154.46
311.67	2359.26
311.88	2213.85
312.09	2109.41
312.31	2056.16
312.52	2183.13
312.73	2156.51
312.95	2095.07
313.16	2146.27
313.37	2273.25
313.59	2263.01
313.80	2187.23
314.01	2373.60
314.23	2164.70
314.44	2133.98
314.65	2090.98
314.87	2179.04
315.08	2201.57
315.29	2162.66
315.51	2113.50
315.72	2078.69
315.93	2295.77
316.15	2217.95
316.36	2205.66
316.57	2195.42
316.79	2260.96
317.00	2154.46
317.21	2215.90
317.43	2133.98
317.64	2211.81
317.85	2072.54
318.07	2129.89
318.28	2117.60
318.49	2328.54
318.70	2469.85
318.92	2355.16
319.13	2428.89
319.34	2385.88
319.56	2281.44
319.77	2291.68
319.98	2308.06
320.20	2295.77
320.41	2283.49
320.62	2273.25
320.83	2172.89
321.05	2375.64
321.26	2191.33
321.47	2207.71
321.69	2328.54
321.90	2119.65
322.11	2107.36
322.32	2187.23
322.54	2349.02
322.75	2095.07
322.96	2459.61
323.18	2029.54
323.39	2031.58
323.60	2111.46
323.81	2224.09
324.03	2093.02
324.24	2230.24
324.45	2211.81
324.66	2133.98
324.88	2314.20
325.09	2328.54
325.30	2160.61
325.52	2195.42
325.73	2232.29
325.94	2105.31
326.15	2031.58
326.37	2174.94
326.58	2242.53
326.79	2355.16
327.00	2236.38
327.22	2215.90
327.43	2187.23
327.64	2131.94
327.85	2148.32
328.07	2207.71
328.28	2291.68
328.49	2183.13
328.70	2142.18
328.92	2154.46
329.13	2236.38
329.34	2269.15
329.55	2334.68
329.76	2256.86
329.98	2115.55
330.19	2301.92
330.40	2220.00
330.61	2193.37
330.83	2299.87
331.04	2078.69
331.25	2236.38
331.46	2201.57
331.68	2060.26
331.89	2330.59
332.10	2162.66
332.31	2045.92
332.52	2164.70
332.74	2281.44
332.95	2002.91
333.16	2119.65
333.37	2220.00
333.58	2093.02
333.80	2136.03
334.01	2076.64
334.22	2224.09
334.43	2138.08
334.64	2117.60
334.86	2064.35
335.07	2072.54
335.28	2260.96
335.49	2105.31
335.70	2170.85
335.92	2312.16
336.13	2402.27
336.34	2199.52
336.55	2099.17
336.76	2260.96
336.98	2066.40
337.19	2187.23
337.40	2265.05
337.61	2414.56
337.82	2154.46
338.04	2232.29
338.25	2058.21
338.46	2197.47
338.67	2121.70
338.88	2113.50
339.09	2054.11
339.31	2131.94
339.52	2056.16
339.73	2070.50
339.94	2195.42
340.15	2195.42
340.36	2084.83
340.58	2183.13
340.79	2080.74
341.00	2209.76
341.21	2125.79
341.42	2371.55
341.63	2088.93
341.85	2316.25
342.06	2224.09
342.27	2095.07
342.48	2215.90
342.69	2050.02
342.90	2168.80
343.12	2320.35
343.33	2080.74
343.54	2359.26
343.75	2336.73
343.96	2172.89
344.17	2054.11
344.38	2260.96
344.60	2080.74
344.81	2150.37
345.02	2142.18
345.23	2306.01
345.44	2441.18
345.65	2236.38
345.86	2217.95
346.07	2209.76
346.29	2142.18
346.50	2197.47
346.71	2185.18
346.92	2349.02
347.13	2389.98
347.34	2207.71
347.55	2170.85
347.76	2215.90
347.98	2129.89
348.19	2119.65
348.40	2269.15
348.61	2109.41
348.82	2291.68
349.03	2275.29
349.24	2097.12
349.45	2308.06
349.66	1998.82
349.88	2146.27
350.09	2127.84
350.30	2355.16
350.51	2324.44
350.72	2158.56
350.93	2170.85
351.14	2172.89
351.35	2252.77
351.56	2170.85
351.77	2224.09
351.99	2072.54
352.20	2416.60
352.41	2230.24
352.62	2052.06
352.83	2226.14
353.04	2125.79
353.25	2131.94
353.46	2279.39
353.67	2318.30
353.88	2037.73
354.09	2254.81
354.30	2211.81
354.52	2242.53
354.73	2129.89
354.94	2170.85
355.15	2121.70
355.36	2291.68
355.57	2164.70
355.78	2193.37
355.99	2133.98
356.20	2162.66
356.41	2226.14
356.62	2297.82
356.83	2191.33
357.04	2310.11
357.25	1986.53
357.46	2109.41
357.68	2023.39
357.89	2099.17
358.10	2236.38
358.31	2281.44
358.52	2195.42
358.73	2041.82
358.94	2150.37
359.15	2101.22
359.36	2228.19
359.57	2273.25
359.78	2217.95
359.99	2215.90
360.20	2113.50
360.41	2189.28
360.62	2197.47
360.83	2234.33
361.04	2224.09
361.25	2285.53
361.46	2316.25
361.67	2224.09
361.88	2228.19
362.09	2285.53
362.30	2250.72
362.51	2113.50
362.72	2193.37
362.93	2303.96
363.14	2275.29
363.35	2244.57
363.56	2148.32
363.78	2258.91
363.99	2187.23
364.20	2217.95
364.41	2228.19
364.62	2334.68
364.83	2220.00
365.04	2170.85
365.25	2148.32
365.46	2310.11
365.67	2058.21
365.88	2244.57
366.09	2115.55
366.30	2181.09
366.51	2160.61
366.72	2138.08
366.93	2158.56
367.14	2222.05
367.35	2273.25
367.56	2133.98
367.77	2220.00
367.98	2205.66
368.18	2217.95
368.39	2226.14
368.60	2109.41
368.81	2185.18
369.02	2179.04
369.23	2170.85
369.44	2058.21
369.65	2101.22
369.86	2168.80
370.07	2236.38
370.28	2179.04
370.49	2250.72
370.70	2316.25
370.91	2084.83
371.12	2078.69
371.33	2359.26
371.54	2097.12
371.75	2301.92
371.96	1982.43
372.17	2191.33
372.38	2136.03
372.59	2263.01
372.80	2133.98
373.01	2201.57
373.22	2150.37
373.43	2176.99
373.64	2009.06
373.85	2392.03
374.06	2359.26
374.26	2273.25
374.47	2150.37
374.68	2316.25
374.89	2228.19
375.10	2220.00
375.31	2256.86
375.52	2238.43
375.73	2209.76
375.94	2039.78
376.15	2361.31
376.36	2170.85
376.57	2150.37
376.78	2136.03
376.99	2277.34
377.20	2328.54
377.40	2277.34
377.61	2414.56
377.82	2050.02
378.03	2260.96
378.24	2256.86
378.45	2189.28
378.66	2199.52
378.87	2066.40
379.08	2068.45
379.29	2101.22
379.50	2314.20
379.71	2213.85
379.91	2279.39
380.12	2269.15
380.33	2203.61
380.54	2254.81
380.75	2207.71
380.96	2117.60
381.17	2224.09
381.38	2148.32
381.59	2127.84
381.80	2220.00
382.00	2426.84
382.21	2258.91
382.42	2308.06
382.63	2412.51
382.84	2232.29
383.05	2363.36
383.26	2342.88
383.47	2293.72
383.68	2234.33
383.88	2224.09
384.09	2170.85
384.30	2285.53
384.51	2176.99
384.72	2181.09
384.93	2103.26
385.14	2179.04
385.35	2252.77
385.55	2047.97
385.76	2260.96
385.97	2179.04
386.18	2054.11
386.39	2181.09
386.60	2209.76
386.81	2187.23
387.02	2176.99
387.22	2160.61
387.43	2232.29
387.64	2308.06
387.85	2400.22
388.06	2422.75
388.27	4079.55
388.48	8757.11
388.68	12224.33
388.89	14931.74
389.10	15802.13
389.31	14567.20
389.52	11599.70
389.73	10069.86
389.93	9101.17
390.14	8304.51
390.35	7227.28
390.56	6698.91
390.77	5355.44
390.98	4179.90
391.18	3321.81
391.39	2680.79
391.60	2336.73
391.81	2310.11
392.02	2162.66
392.23	2500.57
392.43	2215.90
392.64	2324.44
392.85	2246.62
393.06	2392.03
393.27	2230.24
393.47	2170.85
393.68	2199.52
393.89	2131.94
394.10	2338.78
394.31	2170.85
394.52	2043.87
394.72	2097.12
394.93	2375.64
395.14	2109.41
395.35	2183.13
395.56	2039.78
395.76	2242.53
395.97	2283.49
396.18	2209.76
396.39	2308.06
396.60	2678.74
396.80	2490.33
397.01	2326.49
397.22	2459.61
397.43	2318.30
397.64	2240.48
397.84	2330.59
398.05	2441.18
398.26	2215.90
398.47	2234.33
398.67	2258.91
398.88	2170.85
399.09	2306.01
399.30	2115.55
399.51	2265.05
399.71	2113.50
399.92	2181.09
400.13	2217.95
400.34	2179.04
400.54	2234.33
400.75	2373.60
400.96	2234.33
401.17	2361.31
401.37	2267.10
401.58	2232.29
401.79	2154.46
402.00	2320.35
402.21	2590.68
402.41	2570.20
402.62	2600.92
402.83	2656.22
403.04	2648.02
403.24	2777.05
403.45	2367.45
403.66	2394.08
403.87	2412.51
404.07	2537.43
404.28	2508.76
404.49	2437.08
404.70	2295.77
404.90	2240.48
405.11	2201.57
405.32	2267.10
405.52	2131.94
405.73	2115.55
405.94	2138.08
406.15	2183.13
406.35	2279.39
406.56	2230.24
406.77	2215.90
406.98	2209.76
407.18	2113.50
407.39	2351.07
407.60	2244.57
407.80	2295.77
408.01	2166.75
408.22	2289.63
408.43	2121.70
408.63	2271.20
408.84	2244.57
409.05	2234.33
409.25	2103.26
409.46	2113.50
409.67	2205.66
409.88	2109.41
410.08	2238.43
410.29	2127.84
410.50	2297.82
410.70	2201.57
410.91	2133.98
411.12	2316.25
411.32	2209.76
411.53	2052.06
411.74	2277.34
411.95	2375.64
412.15	2324.44
412.36	2326.49
412.57	2279.39
412.77	2267.10
412.98	2189.28
413.19	2256.86
413.39	2279.39
413.60	2293.72
413.81	2330.59
414.01	2101.22
414.22	2250.72
414.43	2277.34
414.63	2193.37
414.84	2244.57
415.05	2185.18
415.25	2097.12
415.46	2275.29
415.67	2154.46
415.87	2220.00
416.08	2232.29
416.29	2185.18
416.49	2271.20
416.70	2172.89
416.91	2111.46
417.11	2224.09
417.32	2271.20
417.53	2209.76
417.73	2275.29
417.94	2168.80
418.15	2226.14
418.35	2203.61
418.56	2215.90
418.77	2482.14
418.97	2228.19
419.18	2170.85
419.38	1953.76
419.59	2220.00
419.80	2338.78
420.00	2117.60
420.21	2209.76
420.42	2342.88
420.62	2203.61
420.83	2150.37
421.04	2136.03
421.24	2146.27
421.45	2263.01
421.65	2234.33
421.86	2146.27
422.07	2344.92
422.27	2301.92
422.48	2166.75
422.69	2088.93
422.89	2213.85
423.10	2211.81
423.30	2056.16
423.51	2244.57
423.72	2217.95
423.92	2195.42
424.13	2017.25
424.33	2142.18
424.54	2244.57
424.75	2129.89
424.95	2332.64
425.16	2131.94
425.36	2179.04
425.57	2248.67
425.78	2295.77
425.98	2267.10
426.19	2097.12
426.39	2115.55
426.60	2213.85
426.81	2330.59
427.01	2240.48
427.22	2123.74
427.42	2056.16
427.63	2107.36
427.83	2310.11
428.04	2340.83
428.25	2303.96
428.45	2334.68
428.66	2285.53
428.86	2138.08
429.07	2121.70
429.28	2150.37
429.48	2125.79
429.69	2154.46
429.89	2258.91
430.10	2105.31
430.30	2250.72
430.51	2336.73
430.71	2152.42
430.92	2172.89
431.13	2093.02
431.33	2267.10
431.54	2168.80
431.74	2371.55
431.95	2340.83
432.15	2084.83
432.36	2179.04
432.56	2236.38
432.77	2359.26
432.98	2369.50
433.18	2193.37
433.39	2220.00
433.59	2250.72
433.80	2373.60
434.00	2398.17
434.21	2150.37
434.41	2131.94
434.62	2371.55
434.82	2105.31
435.03	2072.54
435.23	2191.33
435.44	2047.97
435.64	2195.42
435.85	2222.05
436.06	2273.25
436.26	2295.77
436.47	2185.18
436.67	2127.84
436.88	2213.85
437.08	2363.36
437.29	2252.77
437.49	2168.80
437.70	2392.03
437.90	2203.61
438.11	2340.83
438.31	2271.20
438.52	2285.53
438.72	2346.97
438.93	2383.84
439.13	2263.01
439.34	2463.71
439.54	2166.75
439.75	2258.91
439.95	2242.53
440.16	2121.70
440.36	2295.77
440.57	2244.57
440.77	2201.57
440.98	2201.57
441.18	2277.34
441.39	2142.18
441.59	2062.30
441.80	2396.12
442.00	2136.03
442.21	2195.42
442.41	2119.65
442.62	2258.91
442.82	2174.94
443.02	2095.07
443.23	2166.75
443.43	2138.08
443.64	2346.97
443.84	2056.16
444.05	2256.86
444.25	2232.29
444.46	2129.89
444.66	2220.00
444.87	2389.98
445.07	2127.84
445.28	2211.81
445.48	2293.72
445.69	2222.05
445.89	2488.28
446.09	2269.15
446.30	2566.10
446.50	2906.07
446.71	4407.23
446.91	5494.70
447.12	6406.05
447.32	6725.53
447.53	6317.98
447.73	5009.33
447.93	4569.02
448.14	4120.51
448.34	4026.31
448.55	3608.52
448.75	3559.37
448.96	3358.67
449.16	3030.99
449.36	2910.16
449.57	2416.60
449.77	2404.32
449.98	2209.76
450.18	2355.16
450.39	2252.77
450.59	2322.40
450.79	2195.42
451.00	2193.37
451.20	2291.68
451.41	2138.08
451.61	2197.47
451.81	2277.34
452.02	2088.93
452.22	2133.98
452.43	2189.28
452.63	2117.60
452.84	2176.99
453.04	2203.61
453.24	2256.86
453.45	2168.80
453.65	2191.33
453.86	2209.76
454.06	2215.90
454.26	2209.76
454.47	2144.22
454.67	2357.21
454.87	2269.15
455.08	2213.85
455.28	2398.17
455.49	2260.96
455.69	2105.31
455.89	2406.36
456.10	2336.73
456.30	2133.98
456.51	2258.91
456.71	2226.14
456.91	2293.72
457.12	2185.18
457.32	2205.66
457.52	2131.94
457.73	2269.15
457.93	2306.01
458.14	2115.55
458.34	2045.92
458.54	2152.42
458.75	2133.98
458.95	2318.30
459.15	2228.19
459.36	2148.32
459.56	2265.05
459.76	2412.51
459.97	2258.91
460.17	2172.89
460.37	2299.87
460.58	2281.44
460.78	2230.24
460.99	2179.04
461.19	2158.56
461.39	2138.08
461.60	2246.62
461.80	2224.09
462.00	2119.65
462.21	2291.68
462.41	2117.60
462.61	2076.64
462.82	2045.92
463.02	2265.05
463.22	2107.36
463.43	2289.63
463.63	2232.29
463.83	2252.77
464.04	2199.52
464.24	2105.31
464.44	2166.75
464.64	2238.43
464.85	2334.68
465.05	2303.96
465.25	2265.05
465.46	2195.42
465.66	2248.67
465.86	2271.20
466.07	2144.22
466.27	2263.01
466.47	2121.70
466.68	2080.74
466.88	2389.98
467.08	2275.29
467.29	2273.25
467.49	2299.87
467.69	2238.43
467.89	2306.01
468.10	2142.18
468.30	2283.49
468.50	2314.20
468.71	2359.26
468.91	2113.50
469.11	2377.69
469.31	2187.23
469.52	2193.37
469.72	2422.75
469.92	2326.49
470.13	2220.00
470.33	2183.13
470.53	2265.05
470.73	2545.63
470.94	2969.55
471.14	3383.24
471.34	3719.11
471.54	3561.42
471.75	3145.68
471.95	2932.69
472.15	2768.85
472.36	2731.99
472.56	2633.69
472.76	2650.07
472.96	2654.17
473.17	2553.82
473.37	2494.43
473.57	2273.25
473.77	2377.69
473.98	2240.48
474.18	2076.64
474.38	2529.24
474.58	2232.29
474.79	2201.57
474.99	2232.29
475.19	2340.83
475.39	2213.85
475.60	2172.89
475.80	2226.14
476.00	2215.90
476.20	2125.79
476.41	2275.29
476.61	2275.29
476.81	2310.11
477.01	2146.27
477.21	2289.63
477.42	2224.09
477.62	2093.02
477.82	2295.77
478.02	2199.52
478.23	2174.94
478.43	2107.36
478.63	2195.42
478.83	2181.09
479.03	2213.85
479.24	2326.49
479.44	2412.51
479.64	2203.61
479.84	2072.54
480.04	2125.79
480.25	2330.59
480.45	2176.99
480.65	2244.57
480.85	2238.43
481.06	2187.23
481.26	2179.04
481.46	2215.90
481.66	2195.42
481.86	2109.41
482.06	2273.25
482.27	2183.13
482.47	2113.50
482.67	2310.11
482.87	2193.37
483.07	2295.77
483.28	2113.50
483.48	2099.17
483.68	2138.08
483.88	2109.41
484.08	2015.20
484.29	2093.02
484.49	2220.00
484.69	2138.08
484.89	2342.88
485.09	2289.63
485.29	2269.15
485.50	2271.20
485.70	2320.35
485.90	2285.53
486.10	2213.85
486.30	2248.67
486.50	2351.07
486.71	2217.95
486.91	2269.15
487.11	2314.20
487.31	2056.16
487.51	2209.76
487.71	2113.50
487.91	2068.45
488.12	2088.93
488.32	2031.58
488.52	2088.93
488.72	2023.39
488.92	2254.81
489.12	2310.11
489.32	2322.40
489.53	2220.00
489.73	2023.39
489.93	2389.98
490.13	2127.84
490.33	2088.93
490.53	2232.29
490.73	2256.86
490.94	2070.50
491.14	2281.44
491.34	2217.95
491.54	2488.28
491.74	3203.02
491.94	3758.02
492.14	3997.64
492.34	4097.99
492.54	3889.09
492.75	3211.22
492.95	3143.63
493.15	2967.51
493.35	2895.83
493.55	2826.20
493.75	2703.32
493.95	2723.80
494.15	2559.96
494.35	2367.45
494.56	2332.64
494.76	2252.77
494.96	2250.72
495.16	2232.29
495.36	2205.66
495.56	2254.81
495.76	2215.90
495.96	2232.29
496.16	2097.12
496.36	2502.62
496.56	2222.05
496.77	2242.53
496.97	2207.71
497.17	2306.01
497.37	2088.93
497.57	2269.15
497.77	2316.25
497.97	2097.12
498.17	2185.18
498.37	2228.19
498.57	2224.09
498.77	2187.23
498.97	2316.25
499.17	2375.64
499.38	2150.37
499.58	2224.09
499.78	2371.55
499.98	2346.97
500.18	2193.37
500.38	2199.52
500.58	2334.68
500.78	2889.68
500.98	5216.18
501.18	7161.75
501.38	9119.60
501.58	9985.90
501.78	9856.87
501.98	7782.28
502.18	6524.83
502.38	5459.88
502.58	5230.51
502.78	4620.22
502.98	4530.11
503.18	4276.16
503.38	3870.66
503.59	3385.29
503.79	3157.97
503.99	2992.08
504.19	2803.67
504.39	2824.15
504.59	2887.64
504.79	2914.26
504.99	2834.39
505.19	2578.39
505.39	2437.08
505.59	2629.59
505.79	2643.93
505.99	2367.45
506.19	2301.92
506.39	2541.53
506.59	2301.92
506.79	2267.10
506.99	2385.88
507.19	2267.10
507.39	2162.66
507.59	2189.28
507.79	2142.18
507.99	2183.13
508.19	2203.61
508.39	2160.61
508.59	2117.60
508.79	2367.45
508.99	2383.84
509.19	2119.65
509.39	2324.44
509.59	2133.98
509.79	2109.41
509.99	2209.76
510.19	2383.84
510.39	2246.62
510.59	2185.18
510.79	2211.81
510.99	2144.22
511.19	2246.62
511.39	2351.07
511.59	2351.07
511.79	2308.06
511.99	2201.57
512.19	2375.64
512.38	2185.18
512.58	2181.09
512.78	2164.70
512.98	2408.41
513.18	2303.96
513.38	2185.18
513.58	2277.34
513.78	2244.57
513.98	2199.52
514.18	2193.37
514.38	2166.75
514.58	2281.44
514.78	2133.98
514.98	2162.66
515.18	2166.75
515.38	2054.11
515.58	2377.69
515.78	2095.07
515.98	2306.01
516.18	2205.66
516.38	2244.57
516.57	2152.42
516.77	2156.51
516.97	2340.83
517.17	2103.26
517.37	2060.26
517.57	2232.29
517.77	2277.34
517.97	2170.85
518.17	2203.61
518.37	2072.54
518.57	2146.27
518.77	2181.09
518.97	2146.27
519.16	2252.77
519.36	2299.87
519.56	2150.37
519.76	2293.72
519.96	2248.67
520.16	2334.68
520.36	2117.60
520.56	2318.30
520.76	2242.53
520.96	2168.80
521.16	2293.72
521.35	2244.57
521.55	2301.92
521.75	2246.62
521.95	2160.61
522.15	2211.81
522.35	2097.12
522.55	2088.93
522.75	2342.88
522.95	2205.66
523.14	2090.98
523.34	2211.81
523.54	2238.43
523.74	2291.68
523.94	2230.24
524.14	2129.89
524.34	2238.43
524.54	2357.21
524.73	2166.75
524.93	2207.71
525.13	2269.15
525.33	2107.36
525.53	2424.80
525.73	2322.40
525.93	2170.85
526.13	2201.57
526.32	2263.01
526.52	2234.33
526.72	2258.91
526.92	2076.64
527.12	2129.89
527.32	2054.11
527.52	2265.05
527.71	2244.57
527.91	2136.03
528.11	2207.71
528.31	2117.60
528.51	2129.89
528.71	2273.25
528.90	2242.53
529.10	2258.91
529.30	2308.06
529.50	2033.63
529.70	2258.91
529.90	2244.57
530.09	2252.77
530.29	2056.16
530.49	2199.52
530.69	2396.12
530.89	2197.47
531.09	2258.91
531.28	2166.75
531.48	2318.30
531.68	2254.81
531.88	2150.37
532.08	2361.31
532.28	2232.29
532.47	2293.72
532.67	2326.49
532.87	2332.64
533.07	2123.74
533.27	2389.98
533.46	2242.53
533.66	2338.78
533.86	2140.13
534.06	2263.01
534.26	2289.63
534.45	2205.66
534.65	2308.06
534.85	2228.19
535.05	2113.50
535.25	2424.80
535.44	2033.63
535.64	2320.35
535.84	2185.18
536.04	2258.91
536.24	2154.46
536.43	2115.55
536.63	2213.85
536.83	2146.27
537.03	2248.67
537.22	2060.26
537.42	2093.02
537.62	2267.10
537.82	2138.08
538.02	2312.16
538.21	2340.83
538.41	2498.52
538.61	2174.94
538.81	2240.48
539.00	2314.20
539.20	2054.11
539.40	2115.55
539.60	2205.66
539.79	2213.85
539.99	2142.18
540.19	2158.56
540.39	2170.85
540.58	2203.61
540.78	2342.88
540.98	2267.10
541.18	2332.64
541.37	2256.86
541.57	2179.04
541.77	2326.49
541.97	2187.23
542.16	2072.54
542.36	2154.46
542.56	2156.51
542.76	2392.03
542.95	2238.43
543.15	2285.53
543.35	2283.49
543.54	2164.70
543.74	2201.57
543.94	2252.77
544.14	2136.03
544.33	2277.34
544.53	2234.33
544.73	2176.99
544.93	2226.14
545.12	2209.76
545.32	2205.66
545.52	2162.66
545.71	2154.46
545.91	2119.65
546.11	2220.00
546.30	2127.84
546.50	2265.05
546.70	2334.68
546.90	2289.63
547.09	2064.35
547.29	2183.13
547.49	2252.77
547.68	2197.47
547.88	2201.57
548.08	2312.16
548.27	2736.09
548.47	2127.84
548.67	2125.79
548.87	2269.15
549.06	2146.27
549.26	2097.12
549.46	2320.35
549.65	2189.28
549.85	2293.72
550.05	2215.90
550.24	2121.70
550.44	2220.00
550.64	2142.18
550.83	2119.65
551.03	2310.11
551.23	2330.59
551.42	2230.24
551.62	2158.56
551.82	2213.85
552.01	2199.52
552.21	2342.88
552.41	2185.18
552.60	2330.59
552.80	2252.77
553.00	2097.12
553.19	2248.67
553.39	2406.36
553.59	2101.22
553.78	2263.01
553.98	2250.72
554.17	2095.07
554.37	2179.04
554.57	2285.53
554.76	2062.30
554.96	2066.40
555.16	2207.71
555.35	2162.66
555.55	2224.09
555.75	2215.90
555.94	2246.62
556.14	2129.89
556.33	2242.53
556.53	2195.42
556.73	2203.61
556.92	2291.68
557.12	2271.20
557.32	2381.79
557.51	2326.49
557.71	2207.71
557.90	2316.25
558.10	2273.25
558.30	2140.13
558.49	2252.77
558.69	2170.85
558.88	2306.01
559.08	2179.04
559.28	2179.04
559.47	2142.18
559.67	2138.08
559.86	2422.75
560.06	2209.76
560.26	2127.84
560.45	2281.44
560.65	2176.99
560.84	2367.45
561.04	2146.27
561.24	2228.19
561.43	2111.46
561.63	2396.12
561.82	2183.13
562.02	2260.96
562.22	2154.46
562.41	2191.33
562.61	2222.05
562.80	2101.22
563.00	2441.18
563.19	2324.44
563.39	2234.33
563.59	2277.34
563.78	2101.22
563.98	2035.68
564.17	2244.57
564.37	2052.06
564.56	2246.62
564.76	2027.49
564.96	2344.92
565.15	2283.49
565.35	2424.80
565.54	2117.60
565.74	2234.33
565.93	2203.61
566.13	2176.99
566.32	2224.09
566.52	2322.40
566.71	2228.19
566.91	2250.72
567.11	2258.91
567.30	2138.08
567.50	2232.29
567.69	2170.85
567.89	2160.61
568.08	2088.93
568.28	2195.42
568.47	2158.56
568.67	2220.00
568.86	2152.42
569.06	2312.16
569.25	2228.19
569.45	2162.66
569.64	2195.42
569.84	2195.42
570.04	2187.23
570.23	2185.18
570.43	2140.13
570.62	2232.29
570.82	2424.80
571.01	2050.02
571.21	2111.46
571.40	2127.84
571.60	2238.43
571.79	2238.43
571.99	2215.90
572.18	2121.70
572.38	2265.05
572.57	2119.65
572.77	2293.72
572.96	2416.60
573.16	2189.28
573.35	2129.89
573.55	2324.44
573.74	2228.19
573.94	2166.75
574.13	2220.00
574.33	2338.78
574.52	2371.55
574.71	2176.99
574.91	2258.91
575.10	2056.16
575.30	2211.81
575.49	2148.32
575.69	2127.84
575.88	2205.66
576.08	2318.30
576.27	2445.27
576.47	2306.01
576.66	2473.95
576.86	2332.64
577.05	2344.92
577.25	2299.87
577.44	2342.88
577.64	2166.75
577.83	2359.26
578.02	2172.89
578.22	2396.12
578.41	2400.22
578.61	2242.53
578.80	2054.11
579.00	2209.76
579.19	2252.77
579.39	2330.59
579.58	2330.59
579.77	2293.72
579.97	2392.03
580.16	2375.64
580.36	2381.79
580.55	2338.78
580.75	2301.92
580.94	2275.29
581.13	2414.56
581.33	2363.36
581.52	2236.38
581.72	2394.08
581.91	2512.86
582.11	2191.33
582.30	2359.26
582.49	2252.77
582.69	2375.64
582.88	2295.77
583.08	2217.95
583.27	2322.40
583.47	2244.57
583.66	2207.71
583.85	2144.22
584.05	2293.72
584.24	2291.68
584.44	2240.48
584.63	2334.68
584.82	2447.32
585.02	2398.17
585.21	2365.40
585.41	2324.44
585.60	2371.55
585.79	2516.95
585.99	2539.48
586.18	2283.49
586.37	2873.30
586.57	4470.72
586.76	13213.49
586.96	32435.73
587.15	46161.22
587.34	55790.76
587.54	60810.34
587.73	55893.16
587.93	39751.07
588.12	29658.68
588.31	24069.78
588.51	20831.94
588.70	18943.71
588.89	17508.08
589.09	15009.56
589.28	12838.72
589.47	10540.90
589.67	8331.14
589.86	6481.82
590.06	4691.90
590.25	3850.18
590.44	3215.31
590.64	2715.61
590.83	2572.25
591.02	2406.36
591.22	2318.30
591.41	2357.21
591.60	2267.10
591.80	2519.00
591.99	2138.08
592.18	2234.33
592.38	2318.30
592.57	2191.33
592.76	2332.64
592.96	2217.95
593.15	2207.71
593.34	2349.02
593.54	2205.66
593.73	2338.78
593.92	2308.06
594.12	2273.25
594.31	2342.88
594.50	2359.26
594.70	2291.68
594.89	2455.51
595.08	2158.56
595.28	2318.30
595.47	2543.58
595.66	2301.92
595.86	2271.20
596.05	2269.15
596.24	2209.76
596.43	2428.89
596.63	2338.78
596.82	2357.21
597.01	2283.49
597.21	2504.67
597.40	2375.64
597.59	2211.81
597.79	2254.81
597.98	2275.29
598.17	2281.44
598.36	2197.47
598.56	2387.93
598.75	2211.81
598.94	2338.78
599.14	2187.23
599.33	2119.65
599.52	2310.11
599.71	2295.77
599.91	2322.40
600.10	2283.49
600.29	2146.27
600.48	2314.20
600.68	2271.20
600.87	2252.77
601.06	2133.98
601.26	2281.44
601.45	2232.29
601.64	2146.27
601.83	2379.74
602.03	2070.50
602.22	2181.09
602.41	2383.84
602.60	2512.86
602.80	2238.43
602.99	2394.08
603.18	2160.61
603.37	2269.15
603.57	2226.14
603.76	2228.19
603.95	2385.88
604.14	2224.09
604.34	2146.27
604.53	2174.94
604.72	2258.91
604.91	2338.78
605.10	2303.96
605.30	2133.98
605.49	2435.03
605.68	2203.61
605.87	2252.77
606.07	2144.22
606.26	2250.72
606.45	2275.29
606.64	2277.34
606.84	2176.99
607.03	2176.99
607.22	2389.98
607.41	2224.09
607.60	2185.18
607.80	2383.84
607.99	2224.09
608.18	2185.18
608.37	2297.82
608.56	2162.66
608.76	2357.21
608.95	2381.79
609.14	2248.67
609.33	2414.56
609.52	2498.52
609.72	2316.25
609.91	2404.32
610.10	2318.30
610.29	2346.97
610.48	2383.84
610.68	2215.90
610.87	2215.90
611.06	2332.64
611.25	2179.04
611.44	2437.08
611.63	2265.05
611.83	2328.54
612.02	2193.37
612.21	2322.40
612.40	2039.78
612.59	2195.42
612.79	2101.22
612.98	2199.52
613.17	2338.78
613.36	2263.01
613.55	2428.89
613.74	2285.53
613.93	2428.89
614.13	2471.90
614.32	2471.90
614.51	2435.03
614.70	2394.08
614.89	2281.44
615.08	2351.07
615.28	2842.58
615.47	2217.95
615.66	2383.84
615.85	2281.44
616.04	2484.19
616.23	2346.97
616.42	2301.92
616.62	2224.09
616.81	2260.96
617.00	2256.86
617.19	2291.68
617.38	2187.23
617.57	2336.73
617.76	2342.88
617.95	2299.87
618.15	2306.01
618.34	2371.55
618.53	2084.83
618.72	2340.83
618.91	2367.45
619.10	2392.03
619.29	2232.29
619.48	2195.42
619.68	2119.65
619.87	2187.23
620.06	2050.02
620.25	2222.05
620.44	2152.42
620.63	2246.62
620.82	2271.20
621.01	2220.00
621.20	2236.38
621.39	2289.63
621.59	2197.47
621.78	2244.57
621.97	2269.15
622.16	2340.83
622.35	2209.76
622.54	2326.49
622.73	2283.49
622.92	2080.74
623.11	2301.92
623.30	2226.14
623.49	2203.61
623.68	2150.37
623.88	2357.21
624.07	2220.00
624.26	2176.99
624.45	2220.00
624.64	2201.57
624.83	2234.33
625.02	2181.09
625.21	2203.61
625.40	2224.09
625.59	2269.15
625.78	2195.42
625.97	2320.35
626.16	2387.93
626.35	2330.59
626.54	2265.05
626.74	2408.41
626.93	2326.49
627.12	2234.33
627.31	2269.15
627.50	2226.14
627.69	2340.83
627.88	2127.84
628.07	2121.70
628.26	2080.74
628.45	2131.94
628.64	2148.32
628.83	2193.37
629.02	2068.45
629.21	2289.63
629.40	2217.95
629.59	2174.94
629.78	2170.85
629.97	2232.29
630.16	2310.11
630.35	2299.87
630.54	2246.62
630.73	2136.03
630.92	2201.57
631.11	2187.23
631.30	2172.89
631.49	2250.72
631.68	2195.42
631.87	2246.62
632.06	2183.13
632.25	2459.61
632.44	2142.18
632.63	2252.77
632.82	2289.63
633.01	2308.06
633.20	2320.35
633.39	2220.00
633.58	2168.80
633.77	2256.86
633.96	2234.33
634.15	2238.43
634.34	2310.11
634.53	2258.91
634.72	2174.94
634.91	2086.88
635.10	2291.68
635.29	2340.83
635.48	2236.38
635.67	2080.74
635.86	2160.61
636.05	2346.97
636.24	2199.52
636.43	2306.01
636.62	2226.14
636.81	1959.91
637.00	2191.33
637.19	2209.76
637.38	2207.71
637.57	2213.85
637.76	2244.57
637.95	2365.40
638.14	2277.34
638.33	2299.87
638.52	2287.58
638.71	2197.47
638.89	2160.61
639.08	2478.04
639.27	2402.27
639.46	2486.23
639.65	2977.75
639.84	2940.88
640.03	3106.77
640.22	2971.60
640.41	2944.98
640.60	2582.49
640.79	2529.24
640.98	2496.47
641.17	2494.43
641.36	2453.47
641.55	2465.75
641.74	2273.25
641.92	2342.88
642.11	2228.19
642.30	2285.53
642.49	2199.52
642.68	2224.09
642.87	2256.86
643.06	2236.38
643.25	2189.28
643.44	2183.13
643.63	2138.08
643.82	2252.77
644.00	2131.94
644.19	2140.13
644.38	2158.56
644.57	2230.24
644.76	2220.00
644.95	2174.94
645.14	2158.56
645.33	2150.37
645.52	2121.70
645.71	2101.22
645.89	2150.37
646.08	2160.61
646.27	2144.22
646.46	2336.73
646.65	2066.40
646.84	2181.09
647.03	2072.54
647.22	2324.44
647.40	2226.14
647.59	2193.37
647.78	2084.83
647.97	2101.22
648.16	2088.93
648.35	2308.06
648.54	2316.25
648.73	2168.80
648.91	2281.44
649.10	2193.37
649.29	2179.04
649.48	2191.33
649.67	2289.63
649.86	2281.44
650.05	2293.72
650.23	2490.33
650.42	2260.96
650.61	2615.26
650.80	2457.56
650.99	2549.72
651.18	2435.03
651.36	2295.77
651.55	2191.33
651.74	2277.34
651.93	2236.38
652.12	2273.25
652.31	2326.49
652.49	2211.81
652.68	2246.62
652.87	2361.31
653.06	2230.24
653.25	2359.26
653.44	2236.38
653.62	2357.21
653.81	2179.04
654.00	2170.85
654.19	2326.49
654.38	2555.86
654.56	2308.06
654.75	2189.28
654.94	2340.83
655.13	2252.77
655.32	2201.57
655.51	2224.09
655.69	2170.85
655.88	2295.77
656.07	2072.54
656.26	2093.02
656.45	2099.17
656.63	2189.28
656.82	2199.52
657.01	2287.58
657.20	2101.22
657.38	2303.96
657.57	2168.80
657.76	2080.74
657.95	2271.20
658.14	2103.26
658.32	2203.61
658.51	2111.46
658.70	2174.94
658.89	2158.56
659.08	2244.57
659.26	2365.40
659.45	2158.56
659.64	2332.64
659.83	2306.01
660.01	2592.73
660.20	2222.05
660.39	2461.66
660.58	2080.74
660.76	2267.10
660.95	2062.30
661.14	2224.09
661.33	2156.51
661.51	2168.80
661.70	2170.85
661.89	2275.29
662.08	2099.17
662.26	2088.93
662.45	2146.27
662.64	2328.54
662.83	2242.53
663.01	2045.92
663.20	2160.61
663.39	2328.54
663.58	2187.23
663.76	2185.18
663.95	2230.24
664.14	2193.37
664.32	2138.08
664.51	2088.93
664.70	2082.78
664.89	2240.48
665.07	2115.55
665.26	2228.19
665.45	2152.42
665.64	2244.57
665.82	2193.37
666.01	2293.72
666.20	2172.89
666.38	2256.86
666.57	2414.56
666.76	3323.85
666.95	8144.77
667.13	16627.46
667.32	22273.71
667.51	25910.90
667.69	27680.35
667.88	25618.04
668.07	18464.49
668.25	14358.31
668.44	12060.49
668.63	10284.90
668.81	9090.93
669.00	8003.46
669.19	7155.60
669.38	6090.66
669.56	5255.09
669.75	4442.04
669.94	3868.61
670.12	3180.50
670.31	2805.72
670.50	2615.26
670.68	2537.43
670.87	2312.16
671.06	2332.64
671.24	2330.59
671.43	2480.09
671.62	2291.68
671.80	2230.24
671.99	2222.05
672.18	2267.10
672.36	2222.05
672.55	2275.29
672.74	2187.23
672.92	2152.42
673.11	2232.29
673.29	2115.55
673.48	2334.68
673.67	2211.81
673.85	2406.36
674.04	2103.26
674.23	2275.29
674.41	2377.69
674.60	2127.84
674.79	2140.13
674.97	2162.66
675.16	2301.92
675.34	2275.29
675.53	2160.61
675.72	2258.91
675.90	2373.60
676.09	2138.08
676.28	2187.23
676.46	2041.82
676.65	2248.67
676.83	2203.61
677.02	2168.80
677.21	2275.29
677.39	2334.68
677.58	2080.74
677.77	2129.89
677.95	2119.65
678.14	2121.70
678.32	2176.99
678.51	2103.26
678.70	2414.56
678.88	2244.57
679.07	2211.81
679.25	2226.14
679.44	2185.18
679.63	2125.79
679.81	2207.71
680.00	2285.53
680.18	2244.57
680.37	2260.96
680.55	2138.08
680.74	2035.68
680.93	2029.54
681.11	2277.34
681.30	2232.29
681.48	2250.72
681.67	2095.07
681.85	2260.96
682.04	2076.64
682.23	2244.57
682.41	2209.76
682.60	2252.77
682.78	2144.22
682.97	2168.80
683.15	2195.42
683.34	2244.57
683.53	2381.79
683.71	2088.93
683.90	2314.20
684.08	2338.78
684.27	2109.41
684.45	2199.52
684.64	2287.58
684.82	2213.85
685.01	2291.68
685.19	2095.07
685.38	2256.86
685.57	2273.25
685.75	2154.46
685.94	2179.04
686.12	2174.94
686.31	2193.37
686.49	2406.36
686.68	2023.39
686.86	2203.61
687.05	2246.62
687.23	2338.78
687.42	2154.46
687.60	2072.54
687.79	2285.53
687.97	2363.36
688.16	2244.57
688.34	2277.34
688.53	2023.39
688.71	2215.90
688.90	2351.07
689.08	2170.85
689.27	1990.63
689.45	2201.57
689.64	2291.68
689.82	2174.94
690.01	2269.15
690.19	2263.01
690.38	2187.23
690.56	2320.35
690.75	2117.60
690.93	2166.75
691.12	2127.84
691.30	2215.90
691.49	2082.78
691.67	2170.85
691.86	2377.69
692.04	2133.98
692.23	2131.94
692.41	2199.52
692.60	2478.04
692.78	2318.30
692.97	2265.05
693.15	2301.92
693.34	2422.75
693.52	2371.55
693.71	2226.14
693.89	2185.18
694.08	2056.16
694.26	2310.11
694.44	2230.24
694.63	2273.25
694.81	2136.03
695.00	2187.23
695.18	2260.96
695.37	2482.14
695.55	2277.34
695.74	2205.66
695.92	2217.95
696.10	2248.67
696.29	2064.35
696.47	2131.94
696.66	2058.21
696.84	2072.54
697.03	2191.33
697.21	2439.13
697.40	3155.92
697.58	2369.50
697.76	2162.66
697.95	2199.52
698.13	2176.99
698.32	2201.57
698.50	2293.72
698.68	2220.00
698.87	2252.77
699.05	2392.03
699.24	2228.19
699.42	2033.63
699.61	2189.28
699.79	2224.09
699.97	2226.14
700.16	2113.50
700.34	2150.37
700.53	2125.79
700.71	2349.02
700.89	2301.92
701.08	2150.37
701.26	2211.81
701.45	2731.99
701.63	2117.60
701.81	2168.80
702.00	2150.37
702.18	2254.81
702.37	2236.38
702.55	2430.94
702.73	2351.07
702.92	2283.49
703.10	2576.34
703.28	2482.14
703.47	2310.11
703.65	2383.84
703.84	2453.47
704.02	2230.24
704.20	2502.62
704.39	2193.37
704.57	2234.33
704.75	2334.68
704.94	2322.40
705.12	2269.15
705.30	2469.85
705.49	4448.19
705.67	10991.45
705.86	20348.62
706.04	25083.52
706.22	28665.42
706.41	29980.21
706.59	25685.62
706.77	17997.55
706.96	14855.97
707.14	13025.08
707.32	11116.37
707.51	10020.71
707.69	8167.30
707.87	6637.47
708.06	5291.95
708.24	4218.82
708.42	3309.52
708.61	3080.14
708.79	2490.33
708.97	2398.17
709.16	2396.12
709.34	2332.64
709.52	2220.00
709.71	2232.29
709.89	2365.40
710.07	2129.89
710.26	2113.50
710.44	2228.19
710.62	2275.29
710.80	2228.19
710.99	2338.78
711.17	2185.18
711.35	2136.03
711.54	2099.17
711.72	2373.60
711.90	2297.82
712.09	2299.87
712.27	2093.02
712.45	2281.44
712.63	2086.88
712.82	2209.76
713.00	2144.22
713.18	2297.82
713.37	2291.68
713.55	2340.83
713.73	2263.01
713.91	2248.67
714.10	2133.98
714.28	2164.70
714.46	2236.38
714.65	2179.04
714.83	2236.38
715.01	2236.38
715.19	2199.52
715.38	2150.37
715.56	2199.52
715.74	2095.07
715.92	2045.92
716.11	2373.60
716.29	2039.78
716.47	2150.37
716.65	2185.18
716.84	2019.30
717.02	2299.87
717.20	2144.22
717.38	2150.37
717.57	2260.96
717.75	2248.67
717.93	2097.12
718.11	2201.57
718.30	2043.87
718.48	2201.57
718.66	2336.73
718.84	2285.53
719.03	2146.27
719.21	2031.58
719.39	2469.85
719.57	2293.72
719.75	2312.16
719.94	2090.98
720.12	2117.60
720.30	2181.09
720.48	2349.02
720.67	2154.46
720.85	2117.60
721.03	2195.42
721.21	2090.98
721.39	2318.30
721.58	2273.25
721.76	2168.80
721.94	2195.42
722.12	2306.01
722.30	2338.78
722.49	2174.94
722.67	2172.89
722.85	2125.79
723.03	2103.26
723.21	2179.04
723.40	2185.18
723.58	2349.02
723.76	2213.85
723.94	2416.60
724.12	2318.30
724.30	2406.36
724.49	2435.03
724.67	2176.99
724.85	2355.16
725.03	2123.74
725.21	2244.57
725.40	2383.84
725.58	2138.08
725.76	2330.59
725.94	2209.76
726.12	2138.08
726.30	2154.46
726.49	2156.51
726.67	2138.08
726.85	2209.76
727.03	2613.21
727.21	3774.41
727.39	5461.93
727.57	6772.63
727.76	7253.91
727.94	7778.19
728.12	7427.98
728.30	5971.88
728.48	5107.63
728.66	4474.81
728.84	4061.12
729.03	3553.23
729.21	3125.20
729.39	2818.00
729.57	2482.14
729.75	2371.55
729.93	2310.11
730.11	2201.57
730.30	2238.43
730.48	2170.85
730.66	2324.44
730.84	2256.86
731.02	2226.14
731.20	2170.85
731.38	2174.94
731.56	2060.26
731.74	2041.82
731.93	2226.14
732.11	2277.34
732.29	2148.32
732.47	2301.92
732.65	2301.92
732.83	2328.54
733.01	2295.77
733.19	2107.36
733.37	2328.54
733.56	2301.92
733.74	2074.59
733.92	2316.25
734.10	2080.74
734.28	2193.37
734.46	2019.30
734.64	2164.70
734.82	2146.27
735.00	2158.56
735.18	2095.07
735.36	2203.61
735.54	2195.42
735.73	2220.00
735.91	2220.00
736.09	2295.77
736.27	2242.53
736.45	2226.14
736.63	2074.59
736.81	2189.28
736.99	2281.44
737.17	2281.44
737.35	2131.94
737.53	2146.27
737.71	2220.00
737.89	2289.63
738.07	2156.51
738.25	2111.46
738.43	2113.50
738.61	2129.89
738.80	2066.40
738.98	2185.18
739.16	2097.12
739.34	2203.61
739.52	2258.91
739.70	2129.89
739.88	2301.92
740.06	2306.01
740.24	2015.20
740.42	2314.20
740.60	2004.96
740.78	2076.64
740.96	2035.68
741.14	2240.48
741.32	2213.85
741.50	2086.88
741.68	2400.22
741.86	2363.36
742.04	2162.66
742.22	2062.30
742.40	2226.14
742.58	2285.53
742.76	2117.60
742.94	2228.19
743.12	2060.26
743.30	2217.95
743.48	2283.49
743.66	2191.33
743.84	2183.13
744.02	2185.18
744.20	2248.67
744.38	2129.89
744.56	2115.55
744.74	2387.93
744.92	2193.37
745.10	2334.68
745.28	2203.61
745.46	2357.21
745.64	2205.66
745.82	2277.34
746.00	2189.28
746.18	2133.98
746.36	2101.22
746.54	2195.42
746.72	2242.53
746.90	2154.46
747.08	2217.95
747.26	2170.85
747.44	2289.63
747.62	2279.39
747.80	2211.81
747.98	2310.11
748.15	2191.33
748.33	2402.27
748.51	2220.00
748.69	2287.58
748.87	2107.36
749.05	2154.46
749.23	2160.61
749.41	2211.81
749.59	2256.86
749.77	2293.72
749.95	2160.61
750.13	2093.02
750.31	2248.67
750.49	2211.81
750.67	2254.81
750.85	2285.53
751.03	2228.19
751.20	2338.78
751.38	2222.05
751.56	2119.65
751.74	2140.13
751.92	2166.75
752.10	2072.54
752.28	2277.34
752.46	2185.18
752.64	2144.22
752.82	2181.09
753.00	2242.53
753.18	2172.89
753.35	2152.42
753.53	2187.23
753.71	2170.85
753.89	2256.86
754.07	2162.66
754.25	2371.55
754.43	2215.90
754.61	2119.65
754.79	2201.57
754.97	2232.29
755.14	2295.77
755.32	2086.88
755.50	2230.24
755.68	2306.01
755.86	2156.51
756.04	2074.59
756.22	1976.29
756.40	2250.72
756.57	2353.12
756.75	2142.18
756.93	2269.15
757.11	2205.66
757.29	2082.78
757.47	2170.85
757.65	2093.02
757.82	1980.39
758.00	2090.98
758.18	2187.23
758.36	2099.17
758.54	2277.34
758.72	2072.54
758.90	2258.91
759.07	2252.77
759.25	2156.51
759.43	2133.98
759.61	2047.97
759.79	3018.71
759.97	2203.61
760.15	2052.06
760.32	2205.66
760.50	2263.01
760.68	2308.06
760.86	2123.74
761.04	2355.16
761.22	2224.09
761.39	2215.90
761.57	2256.86
761.75	2240.48
761.93	2283.49
762.11	2170.85
762.28	2191.33
762.46	2144.22
762.64	2326.49
762.82	2039.78
763.00	2209.76
763.18	2285.53
763.35	2107.36
763.53	2234.33
763.71	2158.56
763.89	2160.61
764.07	2250.72
764.24	2158.56
764.42	2230.24
764.60	2240.48
764.78	2207.71
764.96	2238.43
765.13	2306.01
765.31	2154.46
765.49	2222.05
765.67	2107.36
765.84	2207.71
766.02	2146.27
766.20	2050.02
766.38	2289.63
766.56	2232.29
766.73	2211.81
766.91	2226.14
767.09	2136.03
767.27	2275.29
767.44	2101.22
767.62	2258.91
767.80	2301.92
767.98	2146.27
768.15	2164.70
768.33	2154.46
768.51	2301.92
768.69	2193.37
768.87	2258.91
769.04	2144.22
769.22	2381.79
769.40	2416.60
769.58	2369.50
769.75	2242.53
769.93	2316.25
770.11	2168.80
770.28	2199.52
770.46	2209.76
770.64	2275.29
770.82	2164.70
770.99	2179.04
771.17	2234.33
771.35	2179.04
771.53	2136.03
771.70	2170.85
771.88	2299.87
772.06	2168.80
772.23	2125.79
772.41	2187.23
772.59	2080.74
772.77	2029.54
772.94	2222.05
773.12	2217.95
773.30	2195.42
773.47	2293.72
773.65	2097.12
773.83	2367.45
774.01	2138.08
774.18	1994.72
774.36	2150.37
774.54	2076.64
774.71	2160.61
774.89	2080.74
775.07	2170.85
775.24	2103.26
775.42	2129.89
775.60	2326.49
775.78	2154.46
775.95	2050.02
776.13	2058.21
776.31	1990.63
776.48	2207.71
776.66	2338.78
776.84	2226.14
777.01	2045.92
777.19	2119.65
777.37	2140.13
777.54	2211.81
777.72	2396.12
777.90	2199.52
778.07	2019.30
778.25	2459.61
778.43	2193.37
778.60	2058.21
778.78	2215.90
778.96	2244.57
779.13	2127.84
779.31	2220.00
779.49	2203.61
779.66	2230.24
779.84	2123.74
780.01	2176.99
780.19	2097.12
780.37	2340.83
780.54	2283.49
780.72	2105.31
780.90	2174.94
781.07	2166.75
781.25	2131.94
781.43	2267.10
781.60	2170.85
781.78	2242.53
781.95	2201.57
782.13	2140.13
782.31	2140.13
782.48	2068.45
782.66	2144.22
782.83	2297.82
783.01	2179.04
783.19	2310.11
783.36	2187.23
783.54	2023.39
783.72	2324.44
783.89	2224.09
784.07	2242.53
784.24	2166.75
784.42	2316.25
784.60	2252.77
784.77	2238.43
784.95	1988.58
785.12	2078.69
785.30	2181.09
785.47	2064.35
785.65	2064.35
785.83	2209.76
786.00	2129.89
786.18	2162.66
786.35	2062.30
786.53	2078.69
786.71	2207.71
786.88	2217.95
787.06	2095.07
787.23	2105.31
787.41	2088.93
787.58	2168.80
787.76	2084.83
787.94	2224.09
788.11	2281.44
788.29	2021.35
788.46	2119.65
788.64	2066.40
788.81	2176.99
788.99	2080.74
789.16	2129.89
789.34	2093.02
789.52	2080.74
789.69	2150.37
789.87	2121.70
790.04	2127.84
790.22	2203.61
790.39	2310.11
790.57	2072.54
790.74	2088.93
790.92	2197.47
791.09	2007.01
791.27	2129.89
791.44	2275.29
791.62	2199.52
791.79	2332.64
791.97	2222.05
792.15	2473.95
792.32	2310.11
792.50	2215.90
792.67	2351.07
792.85	2375.64
793.02	2207.71
793.20	2144.22
793.37	2066.40
793.55	2101.22
793.72	2072.54
793.90	2232.29
794.07	2140.13
794.25	2152.42
794.42	2179.04
794.60	2168.80
794.77	2168.80
794.95	2242.53
795.12	2344.92
795.30	2201.57
795.47	1980.39
795.65	2457.56
795.82	2283.49
796.00	2117.60
796.17	2187.23
796.34	2080.74
796.52	2156.51
796.69	2185.18
796.87	2301.92
797.04	2265.05
797.22	2330.59
797.39	2281.44
797.57	2258.91
797.74	2224.09
797.92	2211.81
798.09	2131.94
798.27	2248.67
798.44	2090.98
798.62	2099.17
798.79	2150.37
798.96	2215.90
799.14	2207.71
799.31	2490.33
799.49	2136.03
799.66	2244.57
799.84	2205.66
800.01	2129.89
800.19	2179.04
800.36	2025.44
800.53	2174.94
800.71	2316.25
800.88	2308.06
801.06	2142.18
801.23	2154.46
801.41	2166.75
801.58	2136.03
801.75	2136.03
801.93	2291.68
802.10	2242.53
802.28	2166.75
802.45	2166.75
802.63	2213.85
802.80	2281.44
802.97	2224.09
803.15	2217.95
803.32	2263.01
803.50	2138.08
803.67	2082.78
803.84	2115.55
804.02	2207.71
804.19	2133.98
804.37	1992.67
804.54	2039.78
804.71	2179.04
804.89	2176.99
805.06	2125.79
805.24	2160.61
805.41	2127.84
805.58	2015.20
805.76	2392.03
805.93	2211.81
806.10	2299.87
806.28	2260.96
806.45	2199.52
806.63	2277.34
806.80	2164.70
806.97	2201.57
807.15	2156.51
807.32	2209.76
807.49	2226.14
807.67	2095.07
807.84	2234.33
808.01	2002.91
808.19	2338.78
808.36	2422.75
808.54	2050.02
808.71	2129.89
808.88	2238.43
809.06	2318.30
809.23	2346.97
809.40	2047.97
809.58	2230.24
809.75	2125.79
809.92	2115.55
810.10	2385.88
810.27	2220.00
810.44	2201.57
810.62	2191.33
810.79	2166.75
810.96	2176.99
811.14	2195.42
811.31	2277.34
811.48	2207.71
811.66	2232.29
811.83	2248.67
812.00	2269.15
812.18	2187.23
812.35	2349.02
812.52	2222.05
812.69	2209.76
812.87	2170.85
813.04	2054.11
813.21	2146.27
813.39	2154.46
813.56	2072.54
813.73	2265.05
813.91	2080.74
814.08	2174.94
814.25	2156.51
814.42	2047.97
814.60	2129.89
814.77	2166.75
814.94	2170.85
815.12	2209.76
815.29	2371.55
815.46	2174.94
815.63	2197.47
815.81	2174.94
815.98	2170.85
816.15	2174.94
816.33	2191.33
816.50	2099.17
816.67	2111.46
816.84	2256.86
817.02	2113.50
817.19	2211.81
817.36	2164.70
817.53	2207.71
817.71	2146.27
817.88	2183.13
818.05	2150.37
818.22	2127.84
818.40	2408.41
818.57	2205.66
818.74	2250.72
818.91	2133.98
819.09	2162.66
819.26	2230.24
819.43	2131.94
819.60	2138.08
819.78	2258.91
819.95	2367.45
820.12	2105.31
820.29	2338.78
820.47	2283.49
820.64	2144.22
820.81	2074.59
820.98	2097.12
821.15	2228.19
821.33	2267.10
821.50	2015.20
821.67	2170.85
821.84	2084.83
822.02	2150.37
822.19	2234.33
822.36	2150.37
822.53	2095.07
822.70	2033.63
822.88	2095.07
823.05	2291.68
823.22	2162.66
823.39	2246.62
823.56	2172.89
823.74	2439.13
823.91	2103.26
824.08	2086.88
824.25	2160.61
824.42	2420.70
824.60	2072.54
824.77	2244.57
824.94	2103.26
825.11	2193.37
825.28	2070.50
825.45	2162.66
825.63	2224.09
825.80	2086.88
825.97	2176.99
826.14	2199.52
826.31	1988.58
826.48	2246.62
826.66	2121.70
826.83	2084.83
827.00	2224.09
827.17	2136.03
827.34	2164.70
827.51	2099.17
827.69	2168.80
827.86	2039.78
828.03	2105.31
828.20	2162.66
828.37	2129.89
828.54	2285.53
828.71	2201.57
828.89	2267.10
829.06	2181.09
829.23	2314.20
829.40	2050.02
829.57	2179.04
829.74	2285.53
829.91	2107.36
830.09	2136.03
830.26	2265.05
830.43	2285.53
830.60	2215.90
830.77	2123.74
830.94	2281.44
831.11	2252.77
831.28	2191.33
831.46	2332.64
831.63	2162.66
831.80	2236.38
831.97	2095.07
832.14	2111.46
832.31	2230.24
832.48	2078.69
832.65	2324.44
832.82	2185.18
832.99	2205.66
833.17	2039.78
833.34	2332.64
833.51	2156.51
833.68	1988.58
833.85	2310.11
834.02	2185.18
834.19	2109.41
834.36	2050.02
834.53	2226.14
834.70	2299.87
834.87	2269.15
835.04	2209.76
835.22	2144.22
835.39	2154.46
835.56	2113.50
835.73	2138.08
835.90	2293.72
836.07	2011.11
836.24	2273.25
836.41	2150.37
836.58	2072.54
836.75	2291.68
836.92	2174.94
837.09	2103.26
837.26	2250.72
837.43	2267.10
837.60	2158.56
837.77	2090.98
837.94	2289.63
838.12	2351.07
838.29	2154.46
838.46	2064.35
838.63	2066.40
838.80	2287.58
838.97	2185.18
839.14	2183.13
839.31	2228.19
839.48	2252.77
839.65	2138.08
839.82	2193.37
839.99	2209.76
840.16	2244.57
840.33	2037.73
840.50	2199.52
840.67	2039.78
840.84	2031.58
841.01	2136.03
841.18	2070.50
841.35	2242.53
841.52	2226.14
841.69	2289.63
841.86	2138.08
842.03	2230.24
842.20	2273.25
842.37	2101.22
842.54	2127.84
842.71	2158.56
842.88	2056.16
843.05	2213.85
843.22	2093.02
843.39	2265.05
843.56	2129.89
843.73	2156.51
843.90	2168.80
844.07	2195.42
844.24	2254.81
844.41	2250.72
844.58	2158.56
844.75	2160.61
844.92	2220.00
845.09	2084.83
845.26	2064.35
845.43	2316.25
845.60	2158.56
845.77	2265.05
845.94	2215.90
846.10	2293.72
846.27	2047.97
846.44	2007.01
846.61	2047.97
846.78	2179.04
846.95	2328.54
847.12	2129.89
847.29	2170.85
847.46	2148.32
847.63	2211.81
847.80	2140.13
847.97	2144.22
848.14	2359.26
848.31	2117.60
848.48	2107.36
848.65	2207.71
848.82	2164.70
848.98	2457.56
849.15	2179.04
849.32	2234.33
849.49	2332.64
849.66	2150.37
849.83	2183.13
850.00	2117.60
850.17	2252.77
850.34	2142.18
850.51	2101.22
850.68	2113.50
850.85	2342.88
851.01	2183.13
851.18	2203.61
851.35	2148.32
851.52	2179.04
851.69	2293.72
851.86	2074.59
852.03	2119.65
852.20	2248.67
852.37	2195.42
852.53	2033.63
852.70	2146.27
852.87	2183.13
853.04	2285.53
853.21	2138.08
853.38	2215.90
853.55	2254.81
853.72	2318.30
853.89	2054.11
854.05	2009.06
854.22	2158.56
854.39	2129.89
854.56	2136.03
854.73	2242.53
854.90	2086.88
855.07	2117.60
855.23	2093.02
855.40	2148.32
855.57	2109.41
855.74	2029.54
855.91	2371.55
856.08	2054.11
856.25	2064.35
856.41	2125.79
856.58	2142.18
856.75	2201.57
856.92	2088.93
857.09	2281.44
857.26	2174.94
857.42	2131.94
857.59	2197.47
857.76	2191.33
857.93	2160.61
858.10	2234.33
858.27	2054.11
858.43	2217.95
858.60	2156.51
858.77	1986.53
858.94	2115.55
859.11	2338.78
859.27	2164.70
859.44	2185.18
859.61	2389.98
859.78	2303.96
859.95	2174.94
860.12	2072.54
860.28	2355.16
860.45	2392.03
860.62	2136.03
860.79	2154.46
860.95	2129.89
861.12	2088.93
861.29	2123.74
861.46	2080.74
861.63	2174.94
861.79	2232.29
861.96	2152.42
862.13	2127.84
862.30	2256.86
862.47	2154.46
862.63	2123.74
862.80	2211.81
862.97	2260.96
863.14	2265.05
863.30	2195.42
863.47	2103.26
863.64	2334.68
863.81	2250.72
863.97	2093.02
864.14	2138.08
864.31	2160.61
864.48	2189.28
864.65	2125.79
864.81	2234.33
864.98	2252.77
865.15	2260.96
865.32	2217.95
865.48	2203.61
865.65	2346.97
865.82	2113.50
865.98	2230.24
866.15	2144.22
866.32	2220.00
866.49	2199.52
866.65	2269.15
866.82	2107.36
866.99	2248.67
867.16	2156.51
867.32	2144.22
867.49	2115.55
867.66	2189.28
867.83	2133.98
867.99	2076.64
868.16	2154.46
868.33	2011.11
868.49	2127.84
868.66	2105.31
868.83	2250.72
868.99	2250.72
869.16	2234.33
869.33	2240.48
869.50	2236.38
869.66	2174.94
869.83	2123.74
870.00	2031.58
870.16	2222.05
870.33	2234.33
870.50	2244.57
870.66	2156.51
870.83	2244.57
871.00	2258.91
871.17	2252.77
871.33	2232.29
871.50	2093.02
871.67	2154.46
871.83	2142.18
872.00	2308.06
872.17	2105.31
872.33	2357.21
872.50	2256.86
872.67	2154.46
872.83	2152.42
873.00	2228.19
873.17	2258.91
873.33	2256.86
873.50	2217.95
873.67	2066.40
873.83	2111.46
874.00	2103.26
874.16	2185.18
874.33	2236.38
874.50	2054.11
874.66	2260.96
874.83	2170.85
875.00	2281.44
875.16	2217.95
875.33	2234.33
875.50	1916.90
875.66	2121.70
875.83	2273.25
875.99	2252.77
876.16	2191.33
876.33	2148.32
876.49	2105.31
876.66	2263.01
876.83	2142.18
876.99	2054.11
877.16	2220.00
877.32	2148.32
877.49	2117.60
877.66	2158.56
877.82	2269.15
877.99	2136.03
878.15	2244.57
878.32	2176.99
878.49	2209.76
878.65	2172.89
878.82	2334.68
878.98	2164.70
879.15	2230.24
879.32	2226.14
879.48	2191.33
879.65	2105.31
879.81	2183.13
879.98	2160.61
880.15	2109.41
880.31	2275.29
880.48	2080.74
880.64	2297.82
880.81	2250.72
880.97	2283.49
881.14	2392.03
881.31	2054.11
881.47	2420.70
881.64	2127.84
881.80	2070.50
881.97	2232.29
882.13	2273.25
882.30	2035.68
882.47	2176.99
882.63	2037.73
882.80	2095.07
882.96	2109.41
883.13	2330.59
883.29	2162.66
883.46	2226.14
883.62	2381.79
883.79	2156.51
883.95	2236.38
884.12	2181.09
884.29	2314.20
884.45	2133.98
884.62	2211.81
884.78	2113.50
884.95	2371.55
885.11	2097.12
885.28	2265.05
885.44	2187.23
885.61	2301.92
885.77	2267.10
885.94	2187.23
886.10	2220.00
886.27	2199.52
886.43	2299.87
886.60	2244.57
886.76	2144.22
886.93	2117.60
887.09	2228.19
887.26	2058.21
887.42	2154.46
887.59	2205.66
887.75	2424.80
887.92	2222.05
888.08	2220.00
888.25	2314.20
888.41	2273.25
888.58	2095.07
888.74	2066.40
888.91	2082.78
>>>>>End Processed Spectral Data<<<<<
