SpectraSuite Data File
++++++++++++++++++++++++++++++++++++
Date: Thu May 05 12:35:06 CEST 2016
User: root
Dark Spectrum Present: No
Reference Spectrum Present: No
Number of Sampled Component Spectra: 1
Spectrometers: USB4C02835
Integration Time (usec): 100000 (USB4C02835)
Spectra Averaged: 1 (USB4C02835)
Boxcar Smoothing: 0 (USB4C02835)
Correct for Electrical Dark: No (USB4C02835)
Strobe/Lamp Enabled: No (USB4C02835)
Correct for Detector Non-linearity: No (USB4C02835)
Correct for Stray Light: No (USB4C02835)
Number of Pixels in Processed Spectrum: 3648
>>>>>Begin Processed Spectral Data<<<<<
177.47	1822.69
177.69	1822.69
177.91	1822.69
178.13	1802.21
178.36	1767.40
178.58	2064.35
178.80	2187.23
179.02	2021.35
179.24	2148.32
179.46	2101.22
179.68	2224.09
179.90	2162.66
180.13	2191.33
180.35	2047.97
180.57	2070.50
180.79	2277.34
181.01	2162.66
181.23	2152.42
181.45	2295.77
181.67	2185.18
181.90	2269.15
182.12	2125.79
182.34	2068.45
182.56	2318.30
182.78	2201.57
183.00	2148.32
183.22	2207.71
183.44	2039.78
183.66	2551.77
183.89	2176.99
184.11	2095.07
184.33	2234.33
184.55	2359.26
184.77	2133.98
184.99	2119.65
185.21	2166.75
185.43	2367.45
185.65	2129.89
185.87	2203.61
186.10	2383.84
186.32	2400.22
186.54	2121.70
186.76	2170.85
186.98	2310.11
187.20	2172.89
187.42	2138.08
187.64	2144.22
187.86	2213.85
188.08	2324.44
188.30	2131.94
188.52	2158.56
188.75	2351.07
188.97	2269.15
189.19	2056.16
189.41	2154.46
189.63	2252.77
189.85	2166.75
190.07	2004.96
190.29	2074.59
190.51	2252.77
190.73	2072.54
190.95	2281.44
191.17	2144.22
191.39	2056.16
191.61	2273.25
191.84	2142.18
192.06	2162.66
192.28	2007.01
192.50	2514.91
192.72	2140.13
192.94	2117.60
193.16	2289.63
193.38	2318.30
193.60	2072.54
193.82	2131.94
194.04	2279.39
194.26	2179.04
194.48	2144.22
194.70	2064.35
194.92	2136.03
195.14	2285.53
195.36	2070.50
195.58	2189.28
195.80	2244.57
196.02	2146.27
196.24	2090.98
196.46	2256.86
196.69	2158.56
196.91	2506.71
197.13	2162.66
197.35	2166.75
197.57	2336.73
197.79	2144.22
198.01	2203.61
198.23	2187.23
198.45	2166.75
198.67	2146.27
198.89	2043.87
199.11	2195.42
199.33	2121.70
199.55	2004.96
199.77	2125.79
199.99	2193.37
200.21	2201.57
200.43	2170.85
200.65	1970.15
200.87	2062.30
201.09	2125.79
201.31	2172.89
201.53	2138.08
201.75	2205.66
201.97	2299.87
202.19	2158.56
202.41	2170.85
202.63	2291.68
202.85	2269.15
203.07	2232.29
203.29	2119.65
203.51	2086.88
203.73	2111.46
203.95	2482.14
204.17	2172.89
204.39	2123.74
204.61	2144.22
204.83	2138.08
205.05	2267.10
205.27	2158.56
205.49	2424.80
205.71	2181.09
205.93	1974.24
206.15	1998.82
206.37	2115.55
206.59	2150.37
206.81	2140.13
207.03	2064.35
207.25	2109.41
207.47	2183.13
207.69	2123.74
207.91	2314.20
208.13	2334.68
208.34	2133.98
208.56	2144.22
208.78	2129.89
209.00	2146.27
209.22	2140.13
209.44	2170.85
209.66	2146.27
209.88	2179.04
210.10	2150.37
210.32	2121.70
210.54	2195.42
210.76	2236.38
210.98	2230.24
211.20	1986.53
211.42	2183.13
211.64	2254.81
211.86	2230.24
212.08	2119.65
212.30	2166.75
212.52	2201.57
212.74	2289.63
212.96	2121.70
213.17	2230.24
213.39	2250.72
213.61	2349.02
213.83	2211.81
214.05	2131.94
214.27	2217.95
214.49	2097.12
214.71	2103.26
214.93	2183.13
215.15	2222.05
215.37	2281.44
215.59	2007.01
215.81	2162.66
216.03	2349.02
216.24	2195.42
216.46	2138.08
216.68	2181.09
216.90	2281.44
217.12	2265.05
217.34	2099.17
217.56	2199.52
217.78	2297.82
218.00	2215.90
218.22	2162.66
218.44	2189.28
218.66	2164.70
218.87	2383.84
219.09	2125.79
219.31	2207.71
219.53	2211.81
219.75	2125.79
219.97	2160.61
220.19	2058.21
220.41	2193.37
220.63	2322.40
220.85	2195.42
221.06	2144.22
221.28	2369.50
221.50	2310.11
221.72	2183.13
221.94	2146.27
222.16	2273.25
222.38	2308.06
222.60	2199.52
222.82	2084.83
223.03	2283.49
223.25	2099.17
223.47	2174.94
223.69	2281.44
223.91	2291.68
224.13	2215.90
224.35	2125.79
224.57	2215.90
224.78	2226.14
225.00	2074.59
225.22	2111.46
225.44	2164.70
225.66	2281.44
225.88	2187.23
226.10	2160.61
226.32	2193.37
226.53	2242.53
226.75	2215.90
226.97	2174.94
227.19	2166.75
227.41	2236.38
227.63	2195.42
227.85	2029.54
228.06	2154.46
228.28	2146.27
228.50	2222.05
228.72	2088.93
228.94	2088.93
229.16	2004.96
229.37	2086.88
229.59	2097.12
229.81	2242.53
230.03	2185.18
230.25	2041.82
230.47	1992.67
230.69	2103.26
230.90	2299.87
231.12	2066.40
231.34	2129.89
231.56	2258.91
231.78	2078.69
232.00	2209.76
232.21	2205.66
232.43	2166.75
232.65	1992.67
232.87	2191.33
233.09	2101.22
233.30	2023.39
233.52	2240.48
233.74	2144.22
233.96	2136.03
234.18	2250.72
234.40	2265.05
234.61	2357.21
234.83	2043.87
235.05	2013.15
235.27	2437.08
235.49	2314.20
235.70	2109.41
235.92	2179.04
236.14	2271.20
236.36	2326.49
236.58	2076.64
236.79	2269.15
237.01	2121.70
237.23	2217.95
237.45	2310.11
237.67	2082.78
237.88	2213.85
238.10	2457.56
238.32	2054.11
238.54	2113.50
238.76	2201.57
238.97	2133.98
239.19	2101.22
239.41	2203.61
239.63	2301.92
239.85	2168.80
240.06	2121.70
240.28	2052.06
240.50	2277.34
240.72	2162.66
240.93	2064.35
241.15	2267.10
241.37	2232.29
241.59	2312.16
241.81	2144.22
242.02	2090.98
242.24	2185.18
242.46	2303.96
242.68	2060.26
242.89	2105.31
243.11	2326.49
243.33	2088.93
243.55	2154.46
243.76	2209.76
243.98	2127.84
244.20	2174.94
244.42	2129.89
244.64	2183.13
244.85	2093.02
245.07	2072.54
245.29	2213.85
245.51	2133.98
245.72	2252.77
245.94	2338.78
246.16	2140.13
246.38	2189.28
246.59	2078.69
246.81	2144.22
247.03	2166.75
247.24	2078.69
247.46	2174.94
247.68	2228.19
247.90	2088.93
248.11	2043.87
248.33	2234.33
248.55	2129.89
248.77	2158.56
248.98	2179.04
249.20	2381.79
249.42	2220.00
249.64	2121.70
249.85	2158.56
250.07	2080.74
250.29	2236.38
250.50	2211.81
250.72	2043.87
250.94	2207.71
251.16	2400.22
251.37	2150.37
251.59	2217.95
251.81	2213.85
252.02	2371.55
252.24	2082.78
252.46	2195.42
252.68	2117.60
252.89	2086.88
253.11	2011.11
253.33	2258.91
253.54	2394.08
253.76	2115.55
253.98	2197.47
254.20	2103.26
254.41	2123.74
254.63	2152.42
254.85	2052.06
255.06	2144.22
255.28	2215.90
255.50	2211.81
255.71	2152.42
255.93	2066.40
256.15	2144.22
256.36	2195.42
256.58	2080.74
256.80	2154.46
257.02	2142.18
257.23	2138.08
257.45	2115.55
257.67	2179.04
257.88	2197.47
258.10	2256.86
258.32	2164.70
258.53	2211.81
258.75	2385.88
258.97	2097.12
259.18	2078.69
259.40	2154.46
259.62	2359.26
259.83	2392.03
260.05	2283.49
260.27	2529.24
260.48	2258.91
260.70	2101.22
260.92	2080.74
261.13	2181.09
261.35	2195.42
261.57	2258.91
261.78	2086.88
262.00	2142.18
262.22	2185.18
262.43	2078.69
262.65	2127.84
262.86	2170.85
263.08	2435.03
263.30	2207.71
263.51	1980.39
263.73	2017.25
263.95	2291.68
264.16	2109.41
264.38	2080.74
264.60	2095.07
264.81	2189.28
265.03	2269.15
265.25	2283.49
265.46	2088.93
265.68	2355.16
265.89	2275.29
266.11	1945.57
266.33	2129.89
266.54	2228.19
266.76	2297.82
266.98	2193.37
267.19	2199.52
267.41	2277.34
267.62	2220.00
267.84	2097.12
268.06	2166.75
268.27	2230.24
268.49	2246.62
268.70	2203.61
268.92	2160.61
269.14	2095.07
269.35	2007.01
269.57	2170.85
269.79	2191.33
270.00	2166.75
270.22	2279.39
270.43	2076.64
270.65	1984.48
270.87	2217.95
271.08	2326.49
271.30	2136.03
271.51	2172.89
271.73	2258.91
271.95	2324.44
272.16	2097.12
272.38	2183.13
272.59	2172.89
272.81	2224.09
273.02	2086.88
273.24	2244.57
273.46	2306.01
273.67	2080.74
273.89	2082.78
274.10	2136.03
274.32	2295.77
274.54	2269.15
274.75	2258.91
274.97	2191.33
275.18	2197.47
275.40	2275.29
275.61	2183.13
275.83	2174.94
276.05	2136.03
276.26	2105.31
276.48	2168.80
276.69	2156.51
276.91	2187.23
277.12	2299.87
277.34	2224.09
277.55	2316.25
277.77	2207.71
277.99	2150.37
278.20	2131.94
278.42	2074.59
278.63	2156.51
278.85	2072.54
279.06	2041.82
279.28	2246.62
279.49	2316.25
279.71	2277.34
279.93	2158.56
280.14	2183.13
280.36	2150.37
280.57	2236.38
280.79	2244.57
281.00	2105.31
281.22	2136.03
281.43	2328.54
281.65	1994.72
281.86	2107.36
282.08	2256.86
282.29	2394.08
282.51	2123.74
282.73	2095.07
282.94	2029.54
283.16	2203.61
283.37	2342.88
283.59	2121.70
283.80	2224.09
284.02	2224.09
284.23	2203.61
284.45	2119.65
284.66	2056.16
284.88	2115.55
285.09	2125.79
285.31	2207.71
285.52	2242.53
285.74	1990.63
285.95	2306.01
286.17	2209.76
286.38	2260.96
286.60	2136.03
286.81	2138.08
287.03	2129.89
287.24	2152.42
287.46	2256.86
287.67	2174.94
287.89	2277.34
288.10	2158.56
288.32	2131.94
288.53	2263.01
288.75	2183.13
288.96	2217.95
289.18	2164.70
289.39	2113.50
289.61	2250.72
289.82	2441.18
290.04	2381.79
290.25	2082.78
290.47	2174.94
290.68	2144.22
290.90	2381.79
291.11	2052.06
291.33	2285.53
291.54	2068.45
291.76	2086.88
291.97	2246.62
292.18	2271.20
292.40	2146.27
292.61	2121.70
292.83	2373.60
293.04	2248.67
293.26	2172.89
293.47	2133.98
293.69	2004.96
293.90	2099.17
294.12	2310.11
294.33	2160.61
294.55	2185.18
294.76	2236.38
294.97	2277.34
295.19	2379.74
295.40	2220.00
295.62	2226.14
295.83	2359.26
296.05	2131.94
296.26	2293.72
296.48	2129.89
296.69	2142.18
296.90	2181.09
297.12	2211.81
297.33	2281.44
297.55	2117.60
297.76	2267.10
297.98	2193.37
298.19	2140.13
298.41	2146.27
298.62	2152.42
298.83	2297.82
299.05	2263.01
299.26	2138.08
299.48	2041.82
299.69	2312.16
299.90	2162.66
300.12	2142.18
300.33	2293.72
300.55	2211.81
300.76	2170.85
300.98	2117.60
301.19	2244.57
301.40	2162.66
301.62	2158.56
301.83	2285.53
302.05	2258.91
302.26	2170.85
302.47	2248.67
302.69	2109.41
302.90	2267.10
303.12	2043.87
303.33	2240.48
303.54	2357.21
303.76	2154.46
303.97	2209.76
304.19	2367.45
304.40	2095.07
304.61	2291.68
304.83	2369.50
305.04	2277.34
305.26	2351.07
305.47	2201.57
305.68	2183.13
305.90	2086.88
306.11	2295.77
306.33	2226.14
306.54	2113.50
306.75	2140.13
306.97	2121.70
307.18	2125.79
307.39	2136.03
307.61	2215.90
307.82	2211.81
308.04	2238.43
308.25	2121.70
308.46	2234.33
308.68	2168.80
308.89	2193.37
309.10	2265.05
309.32	2281.44
309.53	2213.85
309.74	2240.48
309.96	2174.94
310.17	2340.83
310.39	2195.42
310.60	2238.43
310.81	2215.90
311.03	2121.70
311.24	2232.29
311.45	2232.29
311.67	2365.40
311.88	2125.79
312.09	2105.31
312.31	2043.87
312.52	2176.99
312.73	2166.75
312.95	2035.68
313.16	2113.50
313.37	2367.45
313.59	2205.66
313.80	2303.96
314.01	2392.03
314.23	2158.56
314.44	2105.31
314.65	2146.27
314.87	2095.07
315.08	2129.89
315.29	2158.56
315.51	2068.45
315.72	2058.21
315.93	2308.06
316.15	2269.15
316.36	2220.00
316.57	2260.96
316.79	2207.71
317.00	2224.09
317.21	2234.33
317.43	2172.89
317.64	2193.37
317.85	2109.41
318.07	2209.76
318.28	2152.42
318.49	2344.92
318.70	2537.43
318.92	2371.55
319.13	2394.08
319.34	2330.59
319.56	2209.76
319.77	2342.88
319.98	2334.68
320.20	2355.16
320.41	2301.92
320.62	2285.53
320.83	2140.13
321.05	2365.40
321.26	2215.90
321.47	2191.33
321.69	2357.21
321.90	2174.94
322.11	2168.80
322.32	2301.92
322.54	2355.16
322.75	2136.03
322.96	2469.85
323.18	2052.06
323.39	2056.16
323.60	2086.88
323.81	2226.14
324.03	2127.84
324.24	2127.84
324.45	2242.53
324.66	2193.37
324.88	2293.72
325.09	2326.49
325.30	2121.70
325.52	2127.84
325.73	2234.33
325.94	2052.06
326.15	2047.97
326.37	2064.35
326.58	2236.38
326.79	2334.68
327.00	2080.74
327.22	2232.29
327.43	2133.98
327.64	2123.74
327.85	2246.62
328.07	2207.71
328.28	2332.64
328.49	2129.89
328.70	2140.13
328.92	2166.75
329.13	2154.46
329.34	2242.53
329.55	2404.32
329.76	2273.25
329.98	2189.28
330.19	2252.77
330.40	2205.66
330.61	2215.90
330.83	2301.92
331.04	2185.18
331.25	2236.38
331.46	2097.12
331.68	2035.68
331.89	2359.26
332.10	2217.95
332.31	2011.11
332.52	2220.00
332.74	2389.98
332.95	2043.87
333.16	2158.56
333.37	2209.76
333.58	2138.08
333.80	2248.67
334.01	2136.03
334.22	2174.94
334.43	2185.18
334.64	2117.60
334.86	2125.79
335.07	2144.22
335.28	2291.68
335.49	2064.35
335.70	2263.01
335.92	2334.68
336.13	2416.60
336.34	2236.38
336.55	2170.85
336.76	2230.24
336.98	2121.70
337.19	2136.03
337.40	2220.00
337.61	2383.84
337.82	2150.37
338.04	2238.43
338.25	2000.87
338.46	2183.13
338.67	2090.98
338.88	2109.41
339.09	2078.69
339.31	2111.46
339.52	2088.93
339.73	2054.11
339.94	2099.17
340.15	2357.21
340.36	2121.70
340.58	2140.13
340.79	2060.26
341.00	2162.66
341.21	2041.82
341.42	2342.88
341.63	2158.56
341.85	2277.34
342.06	2187.23
342.27	2117.60
342.48	2301.92
342.69	1982.43
342.90	2236.38
343.12	2279.39
343.33	2189.28
343.54	2344.92
343.75	2289.63
343.96	2179.04
344.17	2086.88
344.38	2152.42
344.60	2168.80
344.81	2144.22
345.02	2170.85
345.23	2263.01
345.44	2375.64
345.65	2234.33
345.86	2265.05
346.07	2174.94
346.29	2084.83
346.50	2224.09
346.71	2236.38
346.92	2277.34
347.13	2453.47
347.34	2109.41
347.55	2097.12
347.76	2168.80
347.98	2045.92
348.19	2275.29
348.40	2273.25
348.61	2201.57
348.82	2322.40
349.03	2232.29
349.24	2103.26
349.45	2439.13
349.66	1972.19
349.88	2220.00
350.09	2076.64
350.30	2306.01
350.51	2224.09
350.72	2269.15
350.93	2226.14
351.14	2138.08
351.35	2252.77
351.56	2154.46
351.77	2170.85
351.99	2310.11
352.20	2326.49
352.41	2306.01
352.62	2007.01
352.83	2215.90
353.04	2185.18
353.25	2154.46
353.46	2256.86
353.67	2293.72
353.88	2004.96
354.09	2138.08
354.30	2115.55
354.52	2248.67
354.73	2195.42
354.94	2183.13
355.15	2133.98
355.36	2324.44
355.57	2097.12
355.78	2179.04
355.99	2078.69
356.20	2133.98
356.41	2316.25
356.62	2217.95
356.83	2211.81
357.04	2353.12
357.25	2015.20
357.46	2179.04
357.68	2043.87
357.89	2099.17
358.10	2181.09
358.31	2258.91
358.52	2115.55
358.73	2068.45
358.94	2136.03
359.15	2129.89
359.36	2232.29
359.57	2215.90
359.78	2213.85
359.99	2285.53
360.20	2125.79
360.41	2129.89
360.62	2236.38
360.83	2217.95
361.04	2136.03
361.25	2142.18
361.46	2357.21
361.67	2306.01
361.88	2260.96
362.09	2326.49
362.30	2238.43
362.51	2113.50
362.72	2199.52
362.93	2301.92
363.14	2252.77
363.35	2090.98
363.56	2144.22
363.78	2346.97
363.99	2273.25
364.20	2103.26
364.41	2146.27
364.62	2389.98
364.83	2254.81
365.04	2152.42
365.25	2183.13
365.46	2351.07
365.67	2164.70
365.88	2230.24
366.09	2162.66
366.30	2148.32
366.51	2158.56
366.72	2062.30
366.93	2133.98
367.14	2197.47
367.35	2256.86
367.56	2201.57
367.77	2355.16
367.98	2170.85
368.18	2164.70
368.39	2244.57
368.60	2097.12
368.81	2326.49
369.02	2211.81
369.23	2279.39
369.44	2101.22
369.65	2174.94
369.86	2179.04
370.07	2277.34
370.28	2086.88
370.49	2293.72
370.70	2250.72
370.91	2156.51
371.12	2068.45
371.33	2377.69
371.54	2062.30
371.75	2283.49
371.96	1998.82
372.17	2224.09
372.38	2127.84
372.59	2246.62
372.80	2166.75
373.01	2211.81
373.22	2211.81
373.43	2156.51
373.64	2045.92
373.85	2357.21
374.06	2410.46
374.26	2285.53
374.47	2191.33
374.68	2365.40
374.89	2199.52
375.10	2185.18
375.31	2236.38
375.52	2179.04
375.73	2375.64
375.94	2136.03
376.15	2334.68
376.36	2121.70
376.57	2174.94
376.78	2183.13
376.99	2170.85
377.20	2281.44
377.40	2183.13
377.61	2428.89
377.82	2105.31
378.03	2387.93
378.24	2267.10
378.45	2170.85
378.66	2265.05
378.87	2103.26
379.08	2060.26
379.29	2158.56
379.50	2269.15
379.71	2142.18
379.91	2236.38
380.12	2179.04
380.33	2203.61
380.54	2199.52
380.75	2166.75
380.96	2133.98
381.17	2265.05
381.38	2189.28
381.59	2203.61
381.80	2189.28
382.00	2387.93
382.21	2316.25
382.42	2365.40
382.63	2465.75
382.84	2271.20
383.05	2277.34
383.26	2418.65
383.47	2244.57
383.68	2246.62
383.88	2310.11
384.09	2203.61
384.30	2295.77
384.51	2154.46
384.72	2121.70
384.93	2162.66
385.14	2191.33
385.35	2252.77
385.55	2105.31
385.76	2310.11
385.97	2148.32
386.18	2047.97
386.39	2129.89
386.60	2170.85
386.81	2179.04
387.02	2105.31
387.22	2076.64
387.43	2289.63
387.64	2260.96
387.85	2383.84
388.06	2422.75
388.27	4132.80
388.48	8535.93
388.68	12277.57
388.89	14737.18
389.10	15857.42
389.31	14298.92
389.52	11456.34
389.73	9883.50
389.93	9058.17
390.14	8224.64
390.35	7284.62
390.56	6598.56
390.77	5425.07
390.98	4259.78
391.18	3243.98
391.39	2748.37
391.60	2379.74
391.81	2398.17
392.02	2187.23
392.23	2422.75
392.43	2308.06
392.64	2244.57
392.85	2236.38
393.06	2332.64
393.27	2189.28
393.47	2041.82
393.68	2250.72
393.89	2185.18
394.10	2287.58
394.31	2179.04
394.52	2080.74
394.72	2133.98
394.93	2340.83
395.14	2093.02
395.35	2230.24
395.56	2176.99
395.76	2244.57
395.97	2318.30
396.18	2351.07
396.39	2252.77
396.60	2736.09
396.80	2506.71
397.01	2281.44
397.22	2322.40
397.43	2346.97
397.64	2250.72
397.84	2318.30
398.05	2359.26
398.26	2185.18
398.47	2289.63
398.67	2375.64
398.88	2191.33
399.09	2277.34
399.30	2201.57
399.51	2201.57
399.71	2107.36
399.92	2170.85
400.13	2236.38
400.34	2119.65
400.54	2215.90
400.75	2404.32
400.96	2203.61
401.17	2332.64
401.37	2287.58
401.58	2236.38
401.79	2248.67
402.00	2283.49
402.21	2527.19
402.41	2469.85
402.62	2609.11
402.83	2721.75
403.04	2645.98
403.24	2842.58
403.45	2383.84
403.66	2478.04
403.87	2494.43
404.07	2416.60
404.28	2445.27
404.49	2420.70
404.70	2265.05
404.90	2295.77
405.11	2211.81
405.32	2244.57
405.52	2138.08
405.73	2131.94
405.94	2146.27
406.15	2236.38
406.35	2240.48
406.56	2224.09
406.77	2228.19
406.98	2238.43
407.18	2148.32
407.39	2324.44
407.60	2248.67
407.80	2240.48
408.01	2119.65
408.22	2193.37
408.43	2148.32
408.63	2238.43
408.84	2232.29
409.05	2334.68
409.25	2166.75
409.46	2064.35
409.67	2293.72
409.88	2133.98
410.08	2211.81
410.29	2129.89
410.50	2228.19
410.70	2242.53
410.91	2146.27
411.12	2246.62
411.32	2150.37
411.53	2166.75
411.74	2342.88
411.95	2240.48
412.15	2357.21
412.36	2334.68
412.57	2285.53
412.77	2273.25
412.98	2209.76
413.19	2213.85
413.39	2256.86
413.60	2301.92
413.81	2396.12
414.01	2129.89
414.22	2197.47
414.43	2322.40
414.63	2086.88
414.84	2310.11
415.05	2183.13
415.25	2052.06
415.46	2242.53
415.67	2226.14
415.87	2189.28
416.08	2224.09
416.29	2193.37
416.49	2246.62
416.70	2125.79
416.91	2217.95
417.11	2154.46
417.32	2295.77
417.53	2295.77
417.73	2250.72
417.94	2211.81
418.15	2242.53
418.35	2127.84
418.56	2254.81
418.77	2453.47
418.97	2228.19
419.18	2113.50
419.38	1998.82
419.59	2224.09
419.80	2404.32
420.00	2101.22
420.21	2209.76
420.42	2322.40
420.62	2213.85
420.83	2064.35
421.04	2170.85
421.24	2185.18
421.45	2260.96
421.65	2201.57
421.86	2179.04
422.07	2301.92
422.27	2242.53
422.48	2156.51
422.69	2047.97
422.89	2158.56
423.10	2170.85
423.30	2064.35
423.51	2197.47
423.72	2318.30
423.92	2195.42
424.13	2070.50
424.33	2199.52
424.54	2273.25
424.75	2164.70
424.95	2389.98
425.16	2236.38
425.36	2121.70
425.57	2269.15
425.78	2197.47
425.98	2281.44
426.19	2142.18
426.39	2133.98
426.60	2236.38
426.81	2289.63
427.01	2209.76
427.22	2078.69
427.42	2113.50
427.63	2183.13
427.83	2328.54
428.04	2408.41
428.25	2269.15
428.45	2295.77
428.66	2269.15
428.86	2179.04
429.07	2144.22
429.28	2179.04
429.48	2119.65
429.69	2117.60
429.89	2187.23
430.10	2033.63
430.30	2308.06
430.51	2310.11
430.71	2209.76
430.92	2246.62
431.13	2166.75
431.33	2310.11
431.54	2226.14
431.74	2291.68
431.95	2455.51
432.15	2136.03
432.36	2211.81
432.56	2224.09
432.77	2418.65
432.98	2394.08
433.18	2236.38
433.39	2205.66
433.59	2205.66
433.80	2396.12
434.00	2426.84
434.21	2140.13
434.41	2084.83
434.62	2428.89
434.82	2088.93
435.03	2105.31
435.23	2236.38
435.44	2068.45
435.64	2213.85
435.85	2195.42
436.06	2318.30
436.26	2312.16
436.47	2148.32
436.67	2156.51
436.88	2220.00
437.08	2232.29
437.29	2365.40
437.49	2248.67
437.70	2258.91
437.90	2244.57
438.11	2316.25
438.31	2273.25
438.52	2318.30
438.72	2387.93
438.93	2410.46
439.13	2250.72
439.34	2396.12
439.54	2248.67
439.75	2260.96
439.95	2314.20
440.16	2113.50
440.36	2238.43
440.57	2279.39
440.77	2226.14
440.98	2211.81
441.18	2248.67
441.39	2123.74
441.59	2058.21
441.80	2336.73
442.00	2179.04
442.21	2299.87
442.41	2117.60
442.62	2310.11
442.82	2168.80
443.02	2226.14
443.23	2299.87
443.43	2189.28
443.64	2308.06
443.84	2166.75
444.05	2314.20
444.25	2267.10
444.46	2162.66
444.66	2242.53
444.87	2355.16
445.07	2007.01
445.28	2215.90
445.48	2326.49
445.69	2320.35
445.89	2457.56
446.09	2162.66
446.30	2514.91
446.50	2772.95
446.71	4374.46
446.91	5531.56
447.12	6471.58
447.32	6807.45
447.53	6258.59
447.73	5148.59
447.93	4517.82
448.14	4249.54
448.34	4061.12
448.55	3702.73
448.75	3596.23
448.96	3385.29
449.16	3022.80
449.36	2836.44
449.57	2570.20
449.77	2392.03
449.98	2215.90
450.18	2301.92
450.39	2316.25
450.59	2220.00
450.79	2199.52
451.00	2090.98
451.20	2285.53
451.41	2224.09
451.61	2226.14
451.81	2183.13
452.02	2162.66
452.22	2170.85
452.43	2183.13
452.63	2111.46
452.84	2189.28
453.04	2162.66
453.24	2279.39
453.45	2088.93
453.65	2185.18
453.86	2267.10
454.06	2205.66
454.26	2203.61
454.47	2099.17
454.67	2377.69
454.87	2234.33
455.08	2209.76
455.28	2310.11
455.49	2185.18
455.69	2144.22
455.89	2351.07
456.10	2267.10
456.30	2211.81
456.51	2332.64
456.71	2306.01
456.91	2281.44
457.12	2183.13
457.32	2220.00
457.52	2078.69
457.73	2273.25
457.93	2250.72
458.14	2121.70
458.34	2084.83
458.54	2166.75
458.75	2183.13
458.95	2324.44
459.15	2267.10
459.36	2246.62
459.56	2203.61
459.76	2447.32
459.97	2265.05
460.17	2146.27
460.37	2260.96
460.58	2203.61
460.78	2301.92
460.99	2187.23
461.19	2267.10
461.39	2174.94
461.60	2201.57
461.80	2252.77
462.00	2078.69
462.21	2195.42
462.41	2086.88
462.61	2054.11
462.82	2125.79
463.02	2260.96
463.22	2185.18
463.43	2306.01
463.63	2176.99
463.83	2263.01
464.04	2269.15
464.24	2181.09
464.44	2097.12
464.64	2236.38
464.85	2301.92
465.05	2318.30
465.25	2154.46
465.46	2164.70
465.66	2269.15
465.86	2199.52
466.07	2199.52
466.27	2242.53
466.47	2056.16
466.68	2015.20
466.88	2320.35
467.08	2291.68
467.29	2220.00
467.49	2258.91
467.69	2285.53
467.89	2250.72
468.10	2162.66
468.30	2189.28
468.50	2273.25
468.71	2310.11
468.91	2099.17
469.11	2400.22
469.31	2209.76
469.52	2056.16
469.72	2373.60
469.92	2392.03
470.13	2136.03
470.33	2248.67
470.53	2271.20
470.73	2678.74
470.94	3067.86
471.14	3235.79
471.34	3610.57
471.54	3536.84
471.75	3231.69
471.95	2930.64
472.15	2805.72
472.36	2824.15
472.56	2748.37
472.76	2752.47
472.96	2668.50
473.17	2512.86
473.37	2461.66
473.57	2361.31
473.77	2303.96
473.98	2299.87
474.18	2121.70
474.38	2527.19
474.58	2142.18
474.79	2162.66
474.99	2226.14
475.19	2275.29
475.39	2179.04
475.60	2234.33
475.80	2299.87
476.00	2252.77
476.20	2191.33
476.41	2244.57
476.61	2203.61
476.81	2332.64
477.01	2027.49
477.21	2281.44
477.42	2285.53
477.62	2138.08
477.82	2328.54
478.02	2168.80
478.23	2222.05
478.43	2140.13
478.63	2111.46
478.83	2160.61
479.03	2133.98
479.24	2301.92
479.44	2418.65
479.64	2136.03
479.84	1992.67
480.04	2142.18
480.25	2252.77
480.45	2156.51
480.65	2179.04
480.85	2330.59
481.06	2176.99
481.26	2301.92
481.46	2168.80
481.66	2234.33
481.86	2170.85
482.06	2256.86
482.27	2195.42
482.47	2152.42
482.67	2314.20
482.87	2183.13
483.07	2281.44
483.28	2203.61
483.48	2115.55
483.68	2211.81
483.88	2140.13
484.08	1974.24
484.29	2047.97
484.49	2240.48
484.69	2107.36
484.89	2340.83
485.09	2318.30
485.29	2273.25
485.50	2168.80
485.70	2129.89
485.90	2369.50
486.10	2172.89
486.30	2187.23
486.50	2326.49
486.71	2220.00
486.91	2277.34
487.11	2318.30
487.31	2095.07
487.51	2293.72
487.71	2146.27
487.91	2142.18
488.12	2160.61
488.32	2099.17
488.52	2146.27
488.72	2072.54
488.92	2256.86
489.12	2342.88
489.32	2269.15
489.53	2301.92
489.73	2072.54
489.93	2357.21
490.13	2123.74
490.33	2082.78
490.53	2220.00
490.73	2379.74
490.94	2103.26
491.14	2228.19
491.34	2248.67
491.54	2572.25
491.74	3209.17
491.94	3778.50
492.14	4028.35
492.34	4194.24
492.54	3782.60
492.75	3153.87
492.95	3108.82
493.15	2908.12
493.35	2875.35
493.55	2830.29
493.75	2707.41
493.95	2584.54
494.15	2516.95
494.35	2346.97
494.56	2334.68
494.76	2138.08
494.96	2312.16
495.16	2189.28
495.36	2146.27
495.56	2220.00
495.76	2144.22
495.96	2205.66
496.16	2146.27
496.36	2408.41
496.56	2217.95
496.77	2289.63
496.97	2195.42
497.17	2303.96
497.37	2097.12
497.57	2240.48
497.77	2179.04
497.97	2113.50
498.17	2242.53
498.37	2129.89
498.57	2299.87
498.77	2189.28
498.97	2252.77
499.17	2414.56
499.38	2220.00
499.58	2281.44
499.78	2301.92
499.98	2291.68
500.18	2168.80
500.38	2162.66
500.58	2340.83
500.78	2893.78
500.98	5171.12
501.18	7274.38
501.38	9043.83
501.58	9863.02
501.78	9629.55
501.98	7696.27
502.18	6559.64
502.38	5623.72
502.58	5183.41
502.78	4667.32
502.98	4382.65
503.18	4374.46
503.38	3923.91
503.59	3450.83
503.79	3211.22
503.99	3047.38
504.19	2801.62
504.39	2856.92
504.59	2799.57
504.79	2828.24
504.99	2789.33
505.19	2605.02
505.39	2488.28
505.59	2605.02
505.79	2441.18
505.99	2398.17
506.19	2355.16
506.39	2457.56
506.59	2199.52
506.79	2244.57
506.99	2289.63
507.19	2267.10
507.39	2295.77
507.59	2142.18
507.79	2174.94
507.99	2150.37
508.19	2238.43
508.39	2148.32
508.59	2277.34
508.79	2351.07
508.99	2349.02
509.19	2138.08
509.39	2285.53
509.59	2113.50
509.79	2203.61
509.99	2170.85
510.19	2291.68
510.39	2252.77
510.59	2263.01
510.79	2166.75
510.99	2086.88
511.19	2301.92
511.39	2461.66
511.59	2353.12
511.79	2392.03
511.99	2226.14
512.19	2416.60
512.38	2269.15
512.58	2168.80
512.78	2277.34
512.98	2379.74
513.18	2385.88
513.38	2152.42
513.58	2263.01
513.78	2199.52
513.98	2244.57
514.18	2166.75
514.38	2146.27
514.58	2263.01
514.78	2136.03
514.98	2133.98
515.18	2287.58
515.38	2045.92
515.58	2381.79
515.78	2256.86
515.98	2226.14
516.18	2224.09
516.38	2187.23
516.57	2127.84
516.77	2176.99
516.97	2236.38
517.17	2179.04
517.37	2105.31
517.57	2263.01
517.77	2146.27
517.97	2179.04
518.17	2236.38
518.37	2068.45
518.57	2197.47
518.77	2254.81
518.97	2164.70
519.16	2203.61
519.36	2308.06
519.56	2095.07
519.76	2222.05
519.96	2201.57
520.16	2332.64
520.36	2093.02
520.56	2363.36
520.76	2107.36
520.96	2228.19
521.16	2369.50
521.35	2265.05
521.55	2250.72
521.75	2226.14
521.95	2176.99
522.15	2170.85
522.35	2021.35
522.55	2179.04
522.75	2342.88
522.95	2176.99
523.14	2146.27
523.34	2215.90
523.54	2160.61
523.74	2281.44
523.94	2127.84
524.14	2142.18
524.34	2176.99
524.54	2400.22
524.73	2228.19
524.93	2226.14
525.13	2222.05
525.33	2084.83
525.53	2439.13
525.73	2256.86
525.93	2224.09
526.13	2138.08
526.32	2162.66
526.52	2318.30
526.72	2308.06
526.92	2179.04
527.12	2187.23
527.32	2052.06
527.52	2269.15
527.71	2308.06
527.91	2129.89
528.11	2136.03
528.31	2164.70
528.51	2144.22
528.71	2246.62
528.90	2269.15
529.10	2281.44
529.30	2326.49
529.50	2041.82
529.70	2297.82
529.90	2211.81
530.09	2211.81
530.29	2154.46
530.49	2191.33
530.69	2404.32
530.89	2168.80
531.09	2230.24
531.28	2144.22
531.48	2314.20
531.68	2189.28
531.88	2232.29
532.08	2281.44
532.28	2127.84
532.47	2248.67
532.67	2349.02
532.87	2281.44
533.07	2109.41
533.27	2342.88
533.46	2215.90
533.66	2174.94
533.86	2228.19
534.06	2228.19
534.26	2285.53
534.45	2174.94
534.65	2340.83
534.85	2293.72
535.05	2168.80
535.25	2301.92
535.44	2105.31
535.64	2265.05
535.84	2224.09
536.04	2162.66
536.24	2195.42
536.43	2164.70
536.63	2138.08
536.83	2252.77
537.03	2224.09
537.22	2111.46
537.42	2070.50
537.62	2369.50
537.82	2191.33
538.02	2273.25
538.21	2308.06
538.41	2478.04
538.61	2324.44
538.81	2220.00
539.00	2301.92
539.20	2060.26
539.40	2230.24
539.60	2183.13
539.79	2310.11
539.99	2193.37
540.19	2119.65
540.39	2187.23
540.58	2285.53
540.78	2252.77
540.98	2285.53
541.18	2258.91
541.37	2248.67
541.57	2179.04
541.77	2213.85
541.97	2107.36
542.16	2047.97
542.36	2109.41
542.56	2191.33
542.76	2377.69
542.95	2291.68
543.15	2303.96
543.35	2283.49
543.54	2097.12
543.74	2127.84
543.94	2324.44
544.14	2129.89
544.33	2252.77
544.53	2172.89
544.73	2230.24
544.93	2199.52
545.12	2129.89
545.32	2256.86
545.52	2168.80
545.71	2107.36
545.91	2181.09
546.11	2203.61
546.30	2113.50
546.50	2244.57
546.70	2303.96
546.90	2183.13
547.09	2037.73
547.29	2226.14
547.49	2281.44
547.68	2303.96
547.88	2080.74
548.08	2316.25
548.27	2766.81
548.47	2189.28
548.67	2244.57
548.87	2240.48
549.06	2209.76
549.26	2265.05
549.46	2269.15
549.65	2179.04
549.85	2199.52
550.05	2297.82
550.24	2047.97
550.44	2236.38
550.64	2234.33
550.83	2144.22
551.03	2346.97
551.23	2383.84
551.42	2201.57
551.62	2220.00
551.82	2277.34
552.01	2170.85
552.21	2355.16
552.41	2191.33
552.60	2326.49
552.80	2176.99
553.00	2099.17
553.19	2199.52
553.39	2379.74
553.59	2131.94
553.78	2281.44
553.98	2170.85
554.17	2131.94
554.37	2295.77
554.57	2220.00
554.76	2144.22
554.96	2195.42
555.16	2322.40
555.35	2232.29
555.55	2322.40
555.75	2199.52
555.94	2295.77
556.14	2047.97
556.33	2236.38
556.53	2185.18
556.73	2209.76
556.92	2273.25
557.12	2396.12
557.32	2398.17
557.51	2408.41
557.71	2316.25
557.90	2441.18
558.10	2318.30
558.30	2211.81
558.49	2146.27
558.69	2170.85
558.88	2162.66
559.08	2193.37
559.28	2195.42
559.47	2121.70
559.67	2289.63
559.86	2439.13
560.06	2250.72
560.26	2209.76
560.45	2267.10
560.65	2142.18
560.84	2301.92
561.04	2062.30
561.24	2273.25
561.43	2099.17
561.63	2422.75
561.82	2215.90
562.02	2256.86
562.22	2121.70
562.41	2123.74
562.61	2138.08
562.80	2168.80
563.00	2416.60
563.19	2215.90
563.39	2265.05
563.59	2201.57
563.78	2193.37
563.98	2039.78
564.17	2109.41
564.37	2029.54
564.56	2203.61
564.76	2168.80
564.96	2269.15
565.15	2191.33
565.35	2484.19
565.54	2187.23
565.74	2168.80
565.93	2277.34
566.13	2136.03
566.32	2338.78
566.52	2242.53
566.71	2187.23
566.91	2277.34
567.11	2303.96
567.30	2129.89
567.50	2226.14
567.69	2234.33
567.89	2265.05
568.08	2117.60
568.28	2209.76
568.47	2131.94
568.67	2220.00
568.86	2176.99
569.06	2318.30
569.25	2228.19
569.45	2138.08
569.64	2144.22
569.84	2203.61
570.04	2258.91
570.23	2181.09
570.43	2140.13
570.62	2238.43
570.82	2342.88
571.01	2062.30
571.21	2152.42
571.40	2129.89
571.60	2250.72
571.79	2248.67
571.99	2133.98
572.18	2183.13
572.38	2324.44
572.57	2191.33
572.77	2217.95
572.96	2467.80
573.16	2297.82
573.35	2166.75
573.55	2389.98
573.74	2168.80
573.94	2211.81
574.13	2226.14
574.33	2250.72
574.52	2373.60
574.71	2148.32
574.91	2222.05
575.10	2127.84
575.30	2228.19
575.49	2162.66
575.69	2138.08
575.88	2340.83
576.08	2236.38
576.27	2418.65
576.47	2240.48
576.66	2334.68
576.86	2402.27
577.05	2230.24
577.25	2256.86
577.44	2416.60
577.64	2244.57
577.83	2326.49
578.02	2220.00
578.22	2295.77
578.41	2432.99
578.61	2095.07
578.80	2095.07
579.00	2250.72
579.19	2250.72
579.39	2275.29
579.58	2334.68
579.77	2160.61
579.97	2334.68
580.16	2310.11
580.36	2367.45
580.55	2340.83
580.75	2291.68
580.94	2224.09
581.13	2359.26
581.33	2357.21
581.52	2238.43
581.72	2478.04
581.91	2385.88
582.11	2195.42
582.30	2301.92
582.49	2281.44
582.69	2367.45
582.88	2314.20
583.08	2275.29
583.27	2318.30
583.47	2265.05
583.66	2152.42
583.85	2211.81
584.05	2228.19
584.24	2346.97
584.44	2293.72
584.63	2375.64
584.82	2379.74
585.02	2377.69
585.21	2396.12
585.41	2281.44
585.60	2426.84
585.79	2494.43
585.99	2430.94
586.18	2410.46
586.37	2916.31
586.57	4464.57
586.76	13213.49
586.96	32456.21
587.15	45983.04
587.34	55934.12
587.54	60294.25
587.73	55854.25
587.93	39327.14
588.12	29875.77
588.31	23824.02
588.51	20739.78
588.70	19134.17
588.89	17315.58
589.09	15132.44
589.28	12855.10
589.47	10606.43
589.67	8267.65
589.86	6389.66
590.06	4808.63
590.25	3719.11
590.44	3293.13
590.64	2811.86
590.83	2576.34
591.02	2449.37
591.22	2365.40
591.41	2353.12
591.60	2265.05
591.80	2492.38
591.99	2183.13
592.18	2279.39
592.38	2375.64
592.57	2179.04
592.76	2246.62
592.96	2320.35
593.15	2234.33
593.34	2367.45
593.54	2209.76
593.73	2299.87
593.92	2379.74
594.12	2230.24
594.31	2334.68
594.50	2338.78
594.70	2269.15
594.89	2539.48
595.08	2217.95
595.28	2242.53
595.47	2557.91
595.66	2340.83
595.86	2127.84
596.05	2211.81
596.24	2232.29
596.43	2349.02
596.63	2449.37
596.82	2324.44
597.01	2217.95
597.21	2506.71
597.40	2314.20
597.59	2312.16
597.79	2244.57
597.98	2293.72
598.17	2273.25
598.36	2277.34
598.56	2342.88
598.75	2138.08
598.94	2254.81
599.14	2209.76
599.33	2310.11
599.52	2265.05
599.71	2287.58
599.91	2320.35
600.10	2285.53
600.29	2187.23
600.48	2232.29
600.68	2250.72
600.87	2281.44
601.06	2127.84
601.26	2244.57
601.45	2228.19
601.64	2185.18
601.83	2400.22
602.03	2193.37
602.22	2111.46
602.41	2400.22
602.60	2486.23
602.80	2375.64
602.99	2248.67
603.18	2252.77
603.37	2222.05
603.57	2263.01
603.76	2338.78
603.95	2324.44
604.14	2152.42
604.34	2156.51
604.53	2207.71
604.72	2195.42
604.91	2236.38
605.10	2248.67
605.30	2105.31
605.49	2457.56
605.68	2287.58
605.87	2291.68
606.07	2236.38
606.26	2260.96
606.45	2258.91
606.64	2185.18
606.84	2189.28
607.03	2349.02
607.22	2232.29
607.41	2162.66
607.60	2246.62
607.80	2373.60
607.99	2158.56
608.18	2271.20
608.37	2248.67
608.56	2179.04
608.76	2363.36
608.95	2392.03
609.14	2291.68
609.33	2430.94
609.52	2392.03
609.72	2281.44
609.91	2385.88
610.10	2379.74
610.29	2414.56
610.48	2273.25
610.68	2275.29
610.87	2240.48
611.06	2318.30
611.25	2252.77
611.44	2330.59
611.63	2267.10
611.83	2359.26
612.02	2084.83
612.21	2275.29
612.40	2015.20
612.59	2123.74
612.79	2123.74
612.98	2316.25
613.17	2392.03
613.36	2181.09
613.55	2510.81
613.74	2293.72
613.93	2506.71
614.13	2398.17
614.32	2529.24
614.51	2473.95
614.70	2435.03
614.89	2279.39
615.08	2344.92
615.28	2846.68
615.47	2240.48
615.66	2330.59
615.85	2332.64
616.04	2523.10
616.23	2283.49
616.42	2310.11
616.62	2252.77
616.81	2254.81
617.00	2174.94
617.19	2263.01
617.38	2242.53
617.57	2267.10
617.76	2234.33
617.95	2250.72
618.15	2236.38
618.34	2330.59
618.53	2146.27
618.72	2326.49
618.91	2308.06
619.10	2334.68
619.29	2252.77
619.48	2240.48
619.68	2174.94
619.87	2160.61
620.06	2072.54
620.25	2234.33
620.44	2150.37
620.63	2242.53
620.82	2170.85
621.01	2260.96
621.20	2209.76
621.39	2252.77
621.59	2279.39
621.78	2207.71
621.97	2226.14
622.16	2222.05
622.35	2230.24
622.54	2236.38
622.73	2324.44
622.92	2076.64
623.11	2275.29
623.30	2179.04
623.49	2336.73
623.68	2183.13
623.88	2310.11
624.07	2215.90
624.26	2183.13
624.45	2246.62
624.64	2267.10
624.83	2197.47
625.02	2154.46
625.21	2215.90
625.40	2228.19
625.59	2349.02
625.78	2209.76
625.97	2379.74
626.16	2342.88
626.35	2410.46
626.54	2342.88
626.74	2529.24
626.93	2250.72
627.12	2217.95
627.31	2308.06
627.50	2234.33
627.69	2330.59
627.88	2176.99
628.07	2191.33
628.26	2099.17
628.45	2156.51
628.64	2185.18
628.83	2267.10
629.02	2072.54
629.21	2234.33
629.40	2248.67
629.59	2009.06
629.78	2191.33
629.97	2246.62
630.16	2246.62
630.35	2170.85
630.54	2174.94
630.73	2199.52
630.92	2240.48
631.11	2068.45
631.30	2312.16
631.49	2320.35
631.68	2234.33
631.87	2183.13
632.06	2095.07
632.25	2418.65
632.44	2250.72
632.63	2420.70
632.82	2299.87
633.01	2176.99
633.20	2375.64
633.39	2238.43
633.58	2195.42
633.77	2336.73
633.96	2277.34
634.15	2363.36
634.34	2326.49
634.53	2267.10
634.72	2199.52
634.91	2060.26
635.10	2236.38
635.29	2381.79
635.48	2148.32
635.67	2103.26
635.86	2146.27
636.05	2293.72
636.24	2199.52
636.43	2152.42
636.62	2148.32
636.81	1955.81
637.00	2244.57
637.19	2285.53
637.38	2154.46
637.57	2158.56
637.76	2260.96
637.95	2383.84
638.14	2387.93
638.33	2289.63
638.52	2367.45
638.71	2193.37
638.89	2172.89
639.08	2447.32
639.27	2385.88
639.46	2469.85
639.65	2832.34
639.84	2951.12
640.03	3121.10
640.22	2949.08
640.41	2926.55
640.60	2553.82
640.79	2525.15
640.98	2455.51
641.17	2426.84
641.36	2461.66
641.55	2396.12
641.74	2220.00
641.92	2269.15
642.11	2207.71
642.30	2238.43
642.49	2140.13
642.68	2172.89
642.87	2256.86
643.06	2289.63
643.25	2213.85
643.44	2125.79
643.63	2203.61
643.82	2314.20
644.00	2095.07
644.19	2166.75
644.38	2062.30
644.57	2267.10
644.76	2226.14
644.95	2228.19
645.14	2172.89
645.33	2207.71
645.52	2267.10
645.71	2105.31
645.89	2088.93
646.08	2160.61
646.27	2195.42
646.46	2375.64
646.65	2082.78
646.84	2193.37
647.03	2121.70
647.22	2361.31
647.40	2242.53
647.59	2230.24
647.78	2070.50
647.97	2162.66
648.16	2140.13
648.35	2349.02
648.54	2297.82
648.73	2174.94
648.91	2389.98
649.10	2224.09
649.29	2109.41
649.48	2162.66
649.67	2283.49
649.86	2226.14
650.05	2367.45
650.23	2441.18
650.42	2295.77
650.61	2572.25
650.80	2377.69
650.99	2525.15
651.18	2361.31
651.36	2402.27
651.55	2238.43
651.74	2328.54
651.93	2170.85
652.12	2205.66
652.31	2217.95
652.49	2185.18
652.68	2242.53
652.87	2355.16
653.06	2267.10
653.25	2410.46
653.44	2287.58
653.62	2416.60
653.81	2189.28
654.00	2207.71
654.19	2240.48
654.38	2414.56
654.56	2252.77
654.75	2256.86
654.94	2295.77
655.13	2217.95
655.32	2183.13
655.51	2252.77
655.69	2220.00
655.88	2260.96
656.07	2129.89
656.26	2287.58
656.45	2015.20
656.63	2267.10
656.82	2162.66
657.01	2252.77
657.20	2228.19
657.38	2279.39
657.57	2207.71
657.76	2025.44
657.95	2283.49
658.14	2146.27
658.32	2248.67
658.51	2150.37
658.70	2176.99
658.89	2207.71
659.08	2283.49
659.26	2428.89
659.45	2146.27
659.64	2301.92
659.83	2140.13
660.01	2605.02
660.20	2312.16
660.39	2455.51
660.58	2062.30
660.76	2303.96
660.95	2078.69
661.14	2209.76
661.33	2103.26
661.51	2164.70
661.70	2203.61
661.89	2283.49
662.08	2201.57
662.26	2072.54
662.45	2146.27
662.64	2342.88
662.83	2240.48
663.01	2056.16
663.20	2142.18
663.39	2306.01
663.58	2185.18
663.76	2265.05
663.95	2211.81
664.14	2152.42
664.32	2156.51
664.51	2052.06
664.70	2058.21
664.89	2236.38
665.07	2064.35
665.26	2293.72
665.45	2152.42
665.64	2269.15
665.82	2195.42
666.01	2228.19
666.20	2144.22
666.38	2318.30
666.57	2367.45
666.76	3289.04
666.95	8036.23
667.13	16752.38
667.32	21857.97
667.51	25712.25
667.69	27715.16
667.88	25785.97
668.07	18110.19
668.25	14702.37
668.44	11943.75
668.63	10272.61
668.81	9099.13
669.00	7944.07
669.19	7049.11
669.38	6131.62
669.56	5332.91
669.75	4448.19
669.94	3749.83
670.12	3137.49
670.31	2877.40
670.50	2588.63
670.68	2439.13
670.87	2396.12
671.06	2326.49
671.24	2387.93
671.43	2387.93
671.62	2322.40
671.80	2209.76
671.99	2299.87
672.18	2306.01
672.36	2269.15
672.55	2316.25
672.74	2220.00
672.92	2144.22
673.11	2248.67
673.29	2133.98
673.48	2301.92
673.67	2174.94
673.85	2295.77
674.04	2093.02
674.23	2338.78
674.41	2330.59
674.60	2064.35
674.79	2119.65
674.97	2162.66
675.16	2228.19
675.34	2295.77
675.53	2117.60
675.72	2232.29
675.90	2312.16
676.09	2138.08
676.28	2103.26
676.46	2037.73
676.65	2230.24
676.83	2111.46
677.02	2176.99
677.21	2222.05
677.39	2244.57
677.58	2142.18
677.77	2127.84
677.95	2076.64
678.14	2217.95
678.32	2164.70
678.51	2115.55
678.70	2340.83
678.88	2164.70
679.07	2279.39
679.25	2131.94
679.44	2131.94
679.63	2058.21
679.81	2201.57
680.00	2336.73
680.18	2197.47
680.37	2340.83
680.55	2160.61
680.74	2039.78
680.93	2045.92
681.11	2240.48
681.30	2162.66
681.48	2328.54
681.67	2222.05
681.85	2217.95
682.04	2082.78
682.23	2256.86
682.41	2189.28
682.60	2158.56
682.78	2146.27
682.97	2058.21
683.15	2189.28
683.34	2273.25
683.53	2406.36
683.71	2162.66
683.90	2410.46
684.08	2281.44
684.27	2205.66
684.45	2209.76
684.64	2236.38
684.82	2222.05
685.01	2254.81
685.19	2236.38
685.38	2387.93
685.57	2183.13
685.75	2121.70
685.94	2127.84
686.12	2072.54
686.31	2154.46
686.49	2344.92
686.68	2090.98
686.86	2275.29
687.05	2070.50
687.23	2320.35
687.42	2111.46
687.60	2056.16
687.79	2232.29
687.97	2361.31
688.16	2203.61
688.34	2267.10
688.53	2072.54
688.71	2265.05
688.90	2332.64
689.08	2224.09
689.27	2045.92
689.45	2306.01
689.64	2312.16
689.82	2211.81
690.01	2142.18
690.19	2213.85
690.38	2209.76
690.56	2236.38
690.75	2095.07
690.93	2052.06
691.12	2142.18
691.30	2220.00
691.49	2131.94
691.67	2252.77
691.86	2445.27
692.04	2224.09
692.23	2211.81
692.41	2283.49
692.60	2473.95
692.78	2357.21
692.97	2224.09
693.15	2328.54
693.34	2375.64
693.52	2332.64
693.71	2168.80
693.89	2211.81
694.08	2107.36
694.26	2295.77
694.44	2310.11
694.63	2236.38
694.81	2123.74
695.00	2158.56
695.18	2363.36
695.37	2373.60
695.55	2240.48
695.74	2133.98
695.92	2185.18
696.10	2289.63
696.29	2047.97
696.47	2076.64
696.66	2154.46
696.84	2109.41
697.03	2209.76
697.21	2430.94
697.40	3213.26
697.58	2402.27
697.76	2111.46
697.95	2209.76
698.13	2121.70
698.32	2148.32
698.50	2209.76
698.68	2275.29
698.87	2236.38
699.05	2299.87
699.24	2170.85
699.42	2174.94
699.61	2179.04
699.79	2211.81
699.97	2250.72
700.16	2133.98
700.34	2150.37
700.53	2256.86
700.71	2365.40
700.89	2299.87
701.08	2226.14
701.26	2263.01
701.45	2725.85
701.63	2107.36
701.81	2191.33
702.00	2111.46
702.18	2195.42
702.37	2220.00
702.55	2453.47
702.73	2365.40
702.92	2387.93
703.10	2607.06
703.28	2475.99
703.47	2215.90
703.65	2445.27
703.84	2422.75
704.02	2287.58
704.20	2344.92
704.39	2179.04
704.57	2256.86
704.75	2394.08
704.94	2263.01
705.12	2310.11
705.30	2537.43
705.49	4595.64
705.67	11038.55
705.86	20199.12
706.04	24977.03
706.22	28509.77
706.41	29507.13
706.59	25679.48
706.77	17889.01
706.96	14841.63
707.14	13025.08
707.32	11087.70
707.51	9715.56
707.69	8183.68
707.87	6586.27
708.06	5177.26
708.24	4175.81
708.42	3366.86
708.61	3170.26
708.79	2512.86
708.97	2412.51
709.16	2418.65
709.34	2271.20
709.52	2260.96
709.71	2277.34
709.89	2193.37
710.07	2138.08
710.26	2160.61
710.44	2263.01
710.62	2220.00
710.80	2131.94
710.99	2248.67
711.17	2308.06
711.35	2152.42
711.54	2172.89
711.72	2299.87
711.90	2248.67
712.09	2248.67
712.27	2152.42
712.45	2236.38
712.63	2105.31
712.82	2201.57
713.00	2185.18
713.18	2244.57
713.37	2203.61
713.55	2326.49
713.73	2230.24
713.91	2322.40
714.10	2220.00
714.28	2131.94
714.46	2299.87
714.65	2260.96
714.83	2312.16
715.01	2176.99
715.19	2220.00
715.38	2080.74
715.56	2203.61
715.74	2066.40
715.92	2113.50
716.11	2299.87
716.29	1980.39
716.47	2228.19
716.65	2164.70
716.84	2088.93
717.02	2250.72
717.20	2070.50
717.38	2213.85
717.57	2230.24
717.75	2211.81
717.93	2258.91
718.11	2322.40
718.30	2154.46
718.48	2211.81
718.66	2283.49
718.84	2295.77
719.03	2183.13
719.21	2146.27
719.39	2516.95
719.57	2306.01
719.75	2314.20
719.94	2015.20
720.12	2164.70
720.30	2228.19
720.48	2242.53
720.67	2138.08
720.85	2113.50
721.03	2142.18
721.21	2093.02
721.39	2267.10
721.58	2318.30
721.76	2185.18
721.94	2234.33
722.12	2277.34
722.30	2414.56
722.49	2060.26
722.67	2201.57
722.85	2238.43
723.03	2039.78
723.21	2164.70
723.40	2258.91
723.58	2318.30
723.76	2318.30
723.94	2439.13
724.12	2293.72
724.30	2408.41
724.49	2355.16
724.67	2258.91
724.85	2324.44
725.03	2154.46
725.21	2222.05
725.40	2301.92
725.58	2199.52
725.76	2277.34
725.94	2256.86
726.12	2097.12
726.30	2125.79
726.49	2162.66
726.67	2119.65
726.85	2318.30
727.03	2553.82
727.21	3737.54
727.39	5511.08
727.57	6596.51
727.76	7368.59
727.94	7786.38
728.12	7352.21
728.30	5963.68
728.48	5078.96
728.66	4632.51
728.84	4212.67
729.03	3575.75
729.21	3123.15
729.39	2713.56
729.57	2523.10
729.75	2394.08
729.93	2346.97
730.11	2222.05
730.30	2207.71
730.48	2201.57
730.66	2365.40
730.84	2271.20
731.02	2195.42
731.20	2066.40
731.38	2267.10
731.56	2064.35
731.74	2074.59
731.93	2211.81
732.11	2232.29
732.29	2240.48
732.47	2248.67
732.65	2236.38
732.83	2250.72
733.01	2187.23
733.19	2099.17
733.37	2211.81
733.56	2220.00
733.74	2199.52
733.92	2398.17
734.10	2144.22
734.28	2306.01
734.46	2066.40
734.64	2154.46
734.82	2158.56
735.00	2158.56
735.18	2072.54
735.36	2260.96
735.54	2160.61
735.73	2244.57
735.91	2203.61
736.09	2328.54
736.27	2189.28
736.45	2322.40
736.63	2101.22
736.81	2144.22
736.99	2289.63
737.17	2299.87
737.35	2162.66
737.53	2258.91
737.71	2195.42
737.89	2279.39
738.07	2099.17
738.25	2088.93
738.43	2131.94
738.61	2152.42
738.80	2047.97
738.98	2160.61
739.16	2136.03
739.34	2144.22
739.52	2349.02
739.70	2189.28
739.88	2258.91
740.06	2254.81
740.24	2039.78
740.42	2334.68
740.60	2027.49
740.78	2093.02
740.96	2025.44
741.14	2185.18
741.32	2258.91
741.50	2070.50
741.68	2420.70
741.86	2392.03
742.04	2103.26
742.22	2111.46
742.40	2150.37
742.58	2191.33
742.76	2191.33
742.94	2301.92
743.12	2070.50
743.30	2197.47
743.48	2283.49
743.66	2183.13
743.84	2246.62
744.02	2170.85
744.20	2170.85
744.38	2136.03
744.56	2107.36
744.74	2326.49
744.92	2222.05
745.10	2291.68
745.28	2297.82
745.46	2301.92
745.64	2144.22
745.82	2250.72
746.00	2207.71
746.18	2193.37
746.36	2103.26
746.54	2269.15
746.72	2205.66
746.90	2111.46
747.08	2277.34
747.26	2068.45
747.44	2256.86
747.62	2228.19
747.80	2351.07
747.98	2324.44
748.15	2148.32
748.33	2355.16
748.51	2244.57
748.69	2226.14
748.87	2158.56
749.05	2240.48
749.23	2213.85
749.41	2252.77
749.59	2099.17
749.77	2254.81
749.95	2273.25
750.13	2056.16
750.31	2248.67
750.49	2224.09
750.67	2220.00
750.85	2312.16
751.03	2238.43
751.20	2363.36
751.38	2111.46
751.56	2220.00
751.74	2179.04
751.92	2146.27
752.10	2125.79
752.28	2260.96
752.46	2107.36
752.64	2269.15
752.82	2189.28
753.00	2252.77
753.18	2097.12
753.35	2228.19
753.53	2150.37
753.71	2166.75
753.89	2197.47
754.07	2287.58
754.25	2293.72
754.43	2185.18
754.61	2121.70
754.79	2287.58
754.97	2181.09
755.14	2308.06
755.32	2166.75
755.50	2244.57
755.68	2172.89
755.86	2121.70
756.04	2119.65
756.22	1961.95
756.40	2234.33
756.57	2367.45
756.75	2189.28
756.93	2281.44
757.11	2342.88
757.29	2111.46
757.47	2093.02
757.65	2072.54
757.82	2039.78
758.00	2131.94
758.18	2103.26
758.36	2144.22
758.54	2359.26
758.72	2088.93
758.90	2285.53
759.07	2220.00
759.25	2127.84
759.43	2197.47
759.61	2097.12
759.79	3039.19
759.97	2297.82
760.15	2105.31
760.32	2215.90
760.50	2326.49
760.68	2355.16
760.86	2035.68
761.04	2314.20
761.22	2220.00
761.39	2252.77
761.57	2215.90
761.75	2211.81
761.93	2215.90
762.11	2195.42
762.28	2131.94
762.46	2142.18
762.64	2340.83
762.82	2115.55
763.00	2138.08
763.18	2303.96
763.35	2080.74
763.53	2271.20
763.71	2191.33
763.89	2138.08
764.07	2183.13
764.24	2230.24
764.42	2258.91
764.60	2201.57
764.78	2162.66
764.96	2379.74
765.13	2260.96
765.31	2215.90
765.49	2314.20
765.67	2074.59
765.84	2170.85
766.02	2131.94
766.20	2015.20
766.38	2228.19
766.56	2340.83
766.73	2248.67
766.91	2226.14
767.09	2236.38
767.27	2285.53
767.44	2150.37
767.62	2244.57
767.80	2244.57
767.98	2144.22
768.15	2150.37
768.33	2220.00
768.51	2326.49
768.69	2203.61
768.87	2277.34
769.04	2189.28
769.22	2453.47
769.40	2346.97
769.58	2404.32
769.75	2228.19
769.93	2297.82
770.11	2156.51
770.28	2056.16
770.46	2197.47
770.64	2248.67
770.82	2166.75
770.99	2168.80
771.17	2267.10
771.35	2201.57
771.53	2279.39
771.70	2181.09
771.88	2250.72
772.06	2093.02
772.23	2142.18
772.41	2189.28
772.59	2195.42
772.77	2002.91
772.94	2230.24
773.12	2191.33
773.30	2154.46
773.47	2209.76
773.65	2158.56
773.83	2330.59
774.01	2209.76
774.18	2152.42
774.36	2197.47
774.54	2060.26
774.71	2230.24
774.89	2088.93
775.07	2107.36
775.24	2129.89
775.42	2179.04
775.60	2355.16
775.78	2156.51
775.95	2119.65
776.13	2017.25
776.31	2015.20
776.48	2162.66
776.66	2269.15
776.84	2176.99
777.01	2158.56
777.19	2099.17
777.37	2097.12
777.54	2287.58
777.72	2375.64
777.90	2246.62
778.07	2025.44
778.25	2564.06
778.43	2334.68
778.60	2158.56
778.78	2226.14
778.96	2355.16
779.13	2027.49
779.31	2215.90
779.49	2211.81
779.66	2222.05
779.84	2228.19
780.01	2152.42
780.19	2074.59
780.37	2330.59
780.54	2240.48
780.72	2105.31
780.90	2129.89
781.07	2252.77
781.25	2123.74
781.43	2226.14
781.60	2121.70
781.78	2293.72
781.95	2181.09
782.13	2150.37
782.31	2179.04
782.48	2047.97
782.66	2244.57
782.83	2334.68
783.01	2197.47
783.19	2279.39
783.36	2133.98
783.54	2136.03
783.72	2303.96
783.89	2121.70
784.07	2244.57
784.24	2238.43
784.42	2256.86
784.60	2242.53
784.77	2207.71
784.95	2095.07
785.12	2162.66
785.30	2179.04
785.47	2060.26
785.65	2072.54
785.83	2195.42
786.00	2113.50
786.18	2240.48
786.35	2072.54
786.53	2072.54
786.71	2263.01
786.88	2236.38
787.06	2244.57
787.23	2195.42
787.41	2113.50
787.58	2197.47
787.76	2088.93
787.94	2168.80
788.11	2138.08
788.29	2185.18
788.46	2119.65
788.64	2035.68
788.81	2164.70
788.99	2033.63
789.16	2154.46
789.34	2158.56
789.52	2172.89
789.69	2154.46
789.87	2017.25
790.04	2162.66
790.22	2195.42
790.39	2381.79
790.57	2070.50
790.74	2105.31
790.92	2236.38
791.09	2047.97
791.27	2211.81
791.44	2246.62
791.62	2076.64
791.79	2246.62
791.97	2152.42
792.15	2447.32
792.32	2289.63
792.50	2293.72
792.67	2279.39
792.85	2377.69
793.02	2263.01
793.20	2152.42
793.37	2078.69
793.55	2142.18
793.72	2082.78
793.90	2179.04
794.07	2154.46
794.25	2052.06
794.42	2238.43
794.60	2142.18
794.77	2150.37
794.95	2226.14
795.12	2277.34
795.30	2101.22
795.47	1974.24
795.65	2396.12
795.82	2193.37
796.00	2117.60
796.17	2185.18
796.34	2072.54
796.52	2174.94
796.69	2277.34
796.87	2203.61
797.04	2142.18
797.22	2291.68
797.39	2256.86
797.57	2306.01
797.74	2195.42
797.92	2258.91
798.09	2160.61
798.27	2310.11
798.44	2129.89
798.62	2111.46
798.79	2168.80
798.96	2166.75
799.14	2146.27
799.31	2396.12
799.49	2189.28
799.66	2041.82
799.84	2215.90
800.01	2054.11
800.19	2260.96
800.36	1994.72
800.53	2203.61
800.71	2226.14
800.88	2326.49
801.06	2125.79
801.23	2144.22
801.41	2183.13
801.58	2109.41
801.75	2129.89
801.93	2236.38
802.10	2328.54
802.28	2201.57
802.45	2113.50
802.63	2158.56
802.80	2349.02
802.97	2160.61
803.15	2185.18
803.32	2127.84
803.50	2086.88
803.67	2052.06
803.84	2072.54
804.02	2248.67
804.19	2123.74
804.37	1996.77
804.54	2103.26
804.71	2226.14
804.89	2174.94
805.06	2111.46
805.24	2074.59
805.41	2013.15
805.58	2080.74
805.76	2416.60
805.93	2258.91
806.10	2293.72
806.28	2293.72
806.45	2226.14
806.63	2234.33
806.80	2172.89
806.97	2199.52
807.15	2267.10
807.32	2187.23
807.49	2121.70
807.67	2064.35
807.84	2207.71
808.01	2015.20
808.19	2346.97
808.36	2373.60
808.54	2111.46
808.71	2160.61
808.88	2142.18
809.06	2265.05
809.23	2328.54
809.40	2144.22
809.58	2246.62
809.75	2123.74
809.92	2052.06
810.10	2465.75
810.27	2277.34
810.44	2166.75
810.62	2306.01
810.79	2193.37
810.96	2076.64
811.14	2129.89
811.31	2256.86
811.48	2234.33
811.66	2224.09
811.83	2295.77
812.00	2199.52
812.18	2254.81
812.35	2365.40
812.52	2199.52
812.69	2150.37
812.87	2185.18
813.04	2064.35
813.21	2199.52
813.39	2168.80
813.56	2076.64
813.73	2330.59
813.91	2088.93
814.08	2250.72
814.25	2176.99
814.42	2060.26
814.60	2189.28
814.77	2172.89
814.94	2224.09
815.12	2254.81
815.29	2295.77
815.46	2162.66
815.63	2162.66
815.81	2172.89
815.98	2162.66
816.15	2181.09
816.33	2250.72
816.50	2160.61
816.67	2150.37
816.84	2185.18
817.02	2080.74
817.19	2133.98
817.36	2258.91
817.53	2197.47
817.71	2025.44
817.88	2187.23
818.05	2209.76
818.22	2168.80
818.40	2369.50
818.57	2150.37
818.74	2152.42
818.91	2220.00
819.09	2205.66
819.26	2336.73
819.43	2125.79
819.60	2088.93
819.78	2183.13
819.95	2269.15
820.12	2021.35
820.29	2346.97
820.47	2252.77
820.64	2158.56
820.81	2080.74
820.98	2090.98
821.15	2162.66
821.33	2250.72
821.50	2011.11
821.67	2252.77
821.84	2123.74
822.02	2287.58
822.19	2242.53
822.36	2101.22
822.53	2129.89
822.70	2095.07
822.88	2136.03
823.05	2355.16
823.22	2136.03
823.39	2232.29
823.56	2136.03
823.74	2346.97
823.91	2095.07
824.08	2099.17
824.25	2072.54
824.42	2392.03
824.60	2072.54
824.77	2185.18
824.94	2240.48
825.11	2207.71
825.28	2068.45
825.45	2205.66
825.63	2193.37
825.80	2109.41
825.97	2215.90
826.14	2197.47
826.31	2062.30
826.48	2263.01
826.66	2121.70
826.83	2164.70
827.00	2111.46
827.17	2107.36
827.34	2213.85
827.51	2123.74
827.69	2140.13
827.86	2070.50
828.03	2185.18
828.20	2156.51
828.37	2103.26
828.54	2228.19
828.71	2168.80
828.89	2250.72
829.06	2179.04
829.23	2385.88
829.40	2047.97
829.57	2119.65
829.74	2256.86
829.91	2111.46
830.09	2062.30
830.26	2152.42
830.43	2375.64
830.60	2076.64
830.77	2265.05
830.94	2275.29
831.11	2281.44
831.28	2150.37
831.46	2217.95
831.63	2181.09
831.80	2287.58
831.97	2162.66
832.14	2246.62
832.31	2283.49
832.48	2146.27
832.65	2330.59
832.82	2131.94
832.99	2205.66
833.17	2084.83
833.34	2344.92
833.51	2267.10
833.68	1937.38
833.85	2308.06
834.02	2097.12
834.19	2127.84
834.36	2144.22
834.53	2293.72
834.70	2252.77
834.87	2207.71
835.04	2168.80
835.22	2154.46
835.39	2164.70
835.56	1947.62
835.73	2119.65
835.90	2324.44
836.07	2138.08
836.24	2265.05
836.41	2047.97
836.58	2201.57
836.75	2234.33
836.92	2222.05
837.09	2095.07
837.26	2289.63
837.43	2277.34
837.60	2187.23
837.77	2133.98
837.94	2265.05
838.12	2265.05
838.29	2185.18
838.46	2105.31
838.63	2093.02
838.80	2314.20
838.97	2170.85
839.14	2154.46
839.31	2203.61
839.48	2250.72
839.65	2201.57
839.82	2220.00
839.99	2203.61
840.16	2252.77
840.33	2103.26
840.50	2146.27
840.67	2160.61
840.84	2074.59
841.01	2062.30
841.18	2125.79
841.35	2195.42
841.52	2324.44
841.69	2349.02
841.86	2211.81
842.03	2152.42
842.20	2222.05
842.37	2168.80
842.54	2176.99
842.71	2242.53
842.88	1998.82
843.05	2176.99
843.22	2146.27
843.39	2299.87
843.56	2142.18
843.73	2140.13
843.90	2191.33
844.07	2203.61
844.24	2263.01
844.41	2265.05
844.58	2138.08
844.75	2174.94
844.92	2199.52
845.09	2162.66
845.26	2047.97
845.43	2279.39
845.60	2176.99
845.77	2220.00
845.94	2191.33
846.10	2299.87
846.27	2101.22
846.44	2084.83
846.61	2002.91
846.78	2314.20
846.95	2314.20
847.12	2148.32
847.29	2185.18
847.46	2088.93
847.63	2187.23
847.80	2113.50
847.97	2166.75
848.14	2381.79
848.31	2176.99
848.48	2043.87
848.65	2289.63
848.82	2150.37
848.98	2435.03
849.15	2238.43
849.32	2236.38
849.49	2275.29
849.66	2203.61
849.83	2156.51
850.00	2031.58
850.17	2301.92
850.34	2244.57
850.51	2140.13
850.68	2170.85
850.85	2375.64
851.01	2187.23
851.18	2203.61
851.35	2105.31
851.52	2244.57
851.69	2285.53
851.86	2011.11
852.03	2113.50
852.20	2285.53
852.37	2181.09
852.53	2090.98
852.70	2117.60
852.87	2207.71
853.04	2187.23
853.21	2097.12
853.38	2308.06
853.55	2301.92
853.72	2252.77
853.89	2103.26
854.05	2015.20
854.22	2142.18
854.39	2205.66
854.56	2138.08
854.73	2242.53
854.90	2064.35
855.07	2133.98
855.23	2105.31
855.40	2146.27
855.57	2142.18
855.74	2019.30
855.91	2326.49
856.08	1986.53
856.25	2115.55
856.41	2113.50
856.58	2150.37
856.75	2181.09
856.92	2125.79
857.09	2252.77
857.26	2068.45
857.42	2152.42
857.59	2228.19
857.76	2209.76
857.93	2144.22
858.10	2215.90
858.27	2156.51
858.43	2234.33
858.60	2144.22
858.77	2097.12
858.94	2140.13
859.11	2363.36
859.27	2170.85
859.44	2203.61
859.61	2310.11
859.78	2283.49
859.95	2144.22
860.12	2076.64
860.28	2394.08
860.45	2336.73
860.62	2154.46
860.79	2150.37
860.95	2121.70
861.12	2105.31
861.29	2115.55
861.46	2088.93
861.63	2179.04
861.79	2140.13
861.96	2039.78
862.13	2076.64
862.30	2371.55
862.47	2113.50
862.63	2109.41
862.80	2189.28
862.97	2269.15
863.14	2222.05
863.30	2230.24
863.47	2115.55
863.64	2250.72
863.81	2187.23
863.97	2109.41
864.14	2144.22
864.31	2148.32
864.48	2254.81
864.65	2115.55
864.81	2242.53
864.98	2193.37
865.15	2267.10
865.32	2215.90
865.48	2185.18
865.65	2349.02
865.82	2129.89
865.98	2209.76
866.15	2256.86
866.32	2201.57
866.49	2080.74
866.65	2240.48
866.82	2142.18
866.99	2236.38
867.16	2168.80
867.32	2166.75
867.49	2095.07
867.66	2152.42
867.83	2119.65
867.99	2021.35
868.16	2158.56
868.33	2078.69
868.49	2217.95
868.66	2228.19
868.83	2244.57
868.99	2179.04
869.16	2258.91
869.33	2324.44
869.50	2189.28
869.66	2129.89
869.83	2199.52
870.00	2047.97
870.16	2220.00
870.33	2207.71
870.50	2244.57
870.66	2203.61
870.83	2258.91
871.00	2222.05
871.17	2252.77
871.33	2179.04
871.50	2185.18
871.67	2090.98
871.83	2189.28
872.00	2324.44
872.17	2138.08
872.33	2392.03
872.50	2265.05
872.67	2187.23
872.83	2121.70
873.00	2232.29
873.17	2193.37
873.33	2133.98
873.50	2240.48
873.67	2191.33
873.83	2103.26
874.00	2144.22
874.16	2179.04
874.33	2211.81
874.50	2150.37
874.66	2179.04
874.83	2172.89
875.00	2293.72
875.16	2314.20
875.33	2236.38
875.50	2050.02
875.66	2127.84
875.83	2156.51
875.99	2224.09
876.16	2252.77
876.33	2136.03
876.49	2187.23
876.66	2150.37
876.83	2117.60
876.99	2068.45
877.16	2123.74
877.32	2078.69
877.49	2127.84
877.66	2203.61
877.82	2344.92
877.99	2220.00
878.15	2256.86
878.32	2105.31
878.49	2193.37
878.65	2115.55
878.82	2224.09
878.98	2111.46
879.15	2308.06
879.32	2263.01
879.48	2156.51
879.65	2193.37
879.81	2146.27
879.98	2138.08
880.15	2168.80
880.31	2267.10
880.48	2152.42
880.64	2326.49
880.81	2271.20
880.97	2340.83
881.14	2377.69
881.31	2125.79
881.47	2271.20
881.64	2207.71
881.80	2084.83
881.97	2174.94
882.13	2123.74
882.30	2131.94
882.47	2238.43
882.63	2140.13
882.80	2107.36
882.96	2127.84
883.13	2220.00
883.29	2107.36
883.46	2136.03
883.62	2334.68
883.79	2133.98
883.95	2236.38
884.12	2197.47
884.29	2232.29
884.45	2123.74
884.62	2207.71
884.78	2138.08
884.95	2277.34
885.11	2066.40
885.28	2230.24
885.44	2148.32
885.61	2306.01
885.77	2334.68
885.94	2213.85
886.10	2125.79
886.27	2150.37
886.43	2408.41
886.60	2236.38
886.76	2136.03
886.93	2162.66
887.09	2160.61
887.26	2078.69
887.42	2187.23
887.59	2287.58
887.75	2457.56
887.92	2316.25
888.08	2301.92
888.25	2392.03
888.41	2215.90
888.58	2209.76
888.74	2095.07
888.91	2160.61
>>>>>End Processed Spectral Data<<<<<
