SpectraSuite Data File
++++++++++++++++++++++++++++++++++++
Date: Thu May 05 12:35:12 CEST 2016
User: root
Dark Spectrum Present: No
Reference Spectrum Present: No
Number of Sampled Component Spectra: 1
Spectrometers: USB4C02835
Integration Time (usec): 100000 (USB4C02835)
Spectra Averaged: 1 (USB4C02835)
Boxcar Smoothing: 0 (USB4C02835)
Correct for Electrical Dark: No (USB4C02835)
Strobe/Lamp Enabled: No (USB4C02835)
Correct for Detector Non-linearity: No (USB4C02835)
Correct for Stray Light: No (USB4C02835)
Number of Pixels in Processed Spectrum: 3648
>>>>>Begin Processed Spectral Data<<<<<
177.47	1800.16
177.69	1800.16
177.91	1800.16
178.13	1720.29
178.36	1800.16
178.58	2050.02
178.80	2230.24
179.02	2150.37
179.24	2080.74
179.46	2113.50
179.68	2246.62
179.90	2199.52
180.13	2170.85
180.35	2015.20
180.57	2136.03
180.79	2228.19
181.01	2152.42
181.23	2181.09
181.45	2205.66
181.67	2244.57
181.90	2236.38
182.12	2133.98
182.34	2050.02
182.56	2187.23
182.78	2195.42
183.00	2105.31
183.22	2146.27
183.44	2043.87
183.66	2461.66
183.89	2209.76
184.11	2121.70
184.33	2220.00
184.55	2381.79
184.77	2148.32
184.99	2109.41
185.21	2107.36
185.43	2381.79
185.65	2146.27
185.87	2105.31
186.10	2412.51
186.32	2406.36
186.54	2170.85
186.76	2211.81
186.98	2287.58
187.20	2228.19
187.42	2060.26
187.64	2131.94
187.86	2189.28
188.08	2232.29
188.30	2029.54
188.52	2179.04
188.75	2252.77
188.97	2392.03
189.19	2109.41
189.41	2172.89
189.63	2287.58
189.85	2150.37
190.07	1978.34
190.29	1988.58
190.51	2293.72
190.73	2123.74
190.95	2138.08
191.17	2103.26
191.39	2047.97
191.61	2250.72
191.84	2125.79
192.06	2203.61
192.28	2045.92
192.50	2488.28
192.72	2160.61
192.94	2133.98
193.16	2334.68
193.38	2224.09
193.60	2103.26
193.82	2076.64
194.04	2316.25
194.26	2187.23
194.48	2154.46
194.70	2013.15
194.92	2160.61
195.14	2207.71
195.36	2185.18
195.58	2103.26
195.80	2162.66
196.02	2101.22
196.24	2144.22
196.46	2181.09
196.69	2158.56
196.91	2449.37
197.13	2162.66
197.35	2088.93
197.57	2351.07
197.79	2197.47
198.01	2090.98
198.23	2162.66
198.45	2211.81
198.67	2035.68
198.89	2097.12
199.11	2148.32
199.33	2170.85
199.55	1947.62
199.77	2078.69
199.99	2197.47
200.21	2176.99
200.43	2260.96
200.65	2064.35
200.87	1959.91
201.09	2252.77
201.31	2195.42
201.53	2209.76
201.75	2183.13
201.97	2226.14
202.19	2217.95
202.41	2146.27
202.63	2285.53
202.85	2220.00
203.07	2189.28
203.29	2170.85
203.51	2043.87
203.73	2103.26
203.95	2523.10
204.17	2148.32
204.39	2115.55
204.61	2209.76
204.83	2117.60
205.05	2217.95
205.27	2172.89
205.49	2400.22
205.71	2162.66
205.93	2011.11
206.15	2062.30
206.37	2176.99
206.59	2226.14
206.81	1988.58
207.03	2088.93
207.25	2078.69
207.47	2269.15
207.69	2148.32
207.91	2279.39
208.13	2373.60
208.34	2158.56
208.56	2031.58
208.78	2201.57
209.00	2176.99
209.22	2111.46
209.44	2181.09
209.66	2093.02
209.88	2183.13
210.10	2195.42
210.32	2133.98
210.54	2287.58
210.76	2162.66
210.98	2232.29
211.20	2023.39
211.42	2226.14
211.64	2293.72
211.86	2174.94
212.08	2168.80
212.30	2150.37
212.52	2228.19
212.74	2252.77
212.96	2119.65
213.17	2179.04
213.39	2303.96
213.61	2308.06
213.83	2209.76
214.05	2224.09
214.27	2344.92
214.49	2080.74
214.71	2093.02
214.93	2244.57
215.15	2228.19
215.37	2228.19
215.59	2039.78
215.81	2129.89
216.03	2338.78
216.24	2267.10
216.46	2072.54
216.68	2154.46
216.90	2299.87
217.12	2396.12
217.34	2168.80
217.56	2131.94
217.78	2281.44
218.00	2297.82
218.22	2285.53
218.44	2203.61
218.66	2170.85
218.87	2271.20
219.09	2119.65
219.31	2185.18
219.53	2250.72
219.75	2140.13
219.97	2172.89
220.19	2088.93
220.41	2131.94
220.63	2308.06
220.85	2158.56
221.06	2105.31
221.28	2301.92
221.50	2195.42
221.72	2029.54
221.94	2080.74
222.16	2211.81
222.38	2244.57
222.60	2111.46
222.82	2189.28
223.03	2232.29
223.25	2062.30
223.47	2142.18
223.69	2367.45
223.91	2291.68
224.13	2187.23
224.35	2088.93
224.57	2248.67
224.78	2211.81
225.00	2062.30
225.22	2138.08
225.44	2099.17
225.66	2226.14
225.88	2232.29
226.10	2152.42
226.32	2154.46
226.53	2303.96
226.75	2133.98
226.97	2160.61
227.19	2150.37
227.41	2146.27
227.63	2084.83
227.85	1996.77
228.06	2133.98
228.28	2215.90
228.50	2232.29
228.72	2007.01
228.94	2107.36
229.16	2056.16
229.37	2105.31
229.59	2111.46
229.81	2205.66
230.03	2209.76
230.25	2127.84
230.47	2002.91
230.69	2111.46
230.90	2281.44
231.12	2152.42
231.34	2195.42
231.56	2273.25
231.78	2082.78
232.00	2228.19
232.21	2088.93
232.43	2074.59
232.65	1974.24
232.87	2170.85
233.09	1974.24
233.30	2076.64
233.52	2303.96
233.74	2150.37
233.96	2072.54
234.18	2158.56
234.40	2115.55
234.61	2408.41
234.83	2109.41
235.05	2056.16
235.27	2353.12
235.49	2279.39
235.70	2101.22
235.92	2234.33
236.14	2240.48
236.36	2435.03
236.58	2033.63
236.79	2193.37
237.01	2201.57
237.23	2258.91
237.45	2242.53
237.67	2152.42
237.88	2176.99
238.10	2336.73
238.32	2080.74
238.54	2138.08
238.76	2172.89
238.97	2150.37
239.19	2052.06
239.41	2285.53
239.63	2285.53
239.85	2119.65
240.06	2121.70
240.28	2123.74
240.50	2289.63
240.72	2172.89
240.93	2056.16
241.15	2142.18
241.37	2181.09
241.59	2332.64
241.81	2099.17
242.02	2086.88
242.24	2203.61
242.46	2199.52
242.68	2039.78
242.89	2164.70
243.11	2293.72
243.33	2217.95
243.55	2209.76
243.76	2199.52
243.98	2121.70
244.20	2228.19
244.42	2183.13
244.64	2127.84
244.85	2111.46
245.07	1996.77
245.29	2162.66
245.51	2099.17
245.72	2248.67
245.94	2301.92
246.16	2123.74
246.38	2242.53
246.59	2088.93
246.81	2140.13
247.03	2121.70
247.24	1914.85
247.46	2174.94
247.68	2217.95
247.90	2103.26
248.11	2154.46
248.33	2254.81
248.55	2209.76
248.77	2207.71
248.98	2133.98
249.20	2342.88
249.42	2152.42
249.64	2179.04
249.85	2150.37
250.07	2099.17
250.29	2213.85
250.50	2095.07
250.72	2084.83
250.94	2254.81
251.16	2367.45
251.37	2236.38
251.59	2252.77
251.81	2299.87
252.02	2340.83
252.24	2052.06
252.46	2228.19
252.68	2095.07
252.89	2142.18
253.11	2060.26
253.33	2269.15
253.54	2369.50
253.76	2080.74
253.98	2080.74
254.20	2185.18
254.41	2144.22
254.63	2162.66
254.85	2025.44
255.06	2084.83
255.28	2263.01
255.50	2170.85
255.71	2117.60
255.93	2084.83
256.15	2166.75
256.36	2289.63
256.58	2080.74
256.80	2181.09
257.02	2115.55
257.23	2185.18
257.45	2097.12
257.67	2193.37
257.88	2148.32
258.10	2273.25
258.32	2133.98
258.53	2244.57
258.75	2244.57
258.97	2072.54
259.18	2090.98
259.40	2088.93
259.62	2293.72
259.83	2371.55
260.05	2121.70
260.27	2578.39
260.48	2277.34
260.70	2109.41
260.92	2076.64
261.13	2187.23
261.35	2228.19
261.57	2236.38
261.78	1931.23
262.00	2109.41
262.22	2203.61
262.43	2162.66
262.65	2211.81
262.86	2170.85
263.08	2426.84
263.30	2136.03
263.51	1931.23
263.73	2111.46
263.95	2316.25
264.16	2258.91
264.38	2037.73
264.60	2164.70
264.81	2228.19
265.03	2263.01
265.25	2269.15
265.46	2162.66
265.68	2363.36
265.89	2291.68
266.11	2033.63
266.33	2105.31
266.54	2289.63
266.76	2306.01
266.98	2160.61
267.19	2242.53
267.41	2265.05
267.62	2213.85
267.84	2047.97
268.06	2162.66
268.27	2252.77
268.49	2351.07
268.70	2107.36
268.92	2136.03
269.14	2099.17
269.35	2152.42
269.57	2195.42
269.79	2185.18
270.00	2142.18
270.22	2342.88
270.43	2115.55
270.65	2047.97
270.87	2207.71
271.08	2244.57
271.30	2144.22
271.51	2213.85
271.73	2170.85
271.95	2252.77
272.16	2127.84
272.38	2242.53
272.59	2076.64
272.81	2187.23
273.02	2121.70
273.24	2129.89
273.46	2351.07
273.67	2099.17
273.89	2007.01
274.10	2093.02
274.32	2322.40
274.54	2154.46
274.75	2185.18
274.97	2115.55
275.18	2265.05
275.40	2201.57
275.61	2140.13
275.83	2170.85
276.05	2002.91
276.26	2133.98
276.48	2254.81
276.69	2179.04
276.91	2109.41
277.12	2367.45
277.34	2209.76
277.55	2232.29
277.77	2260.96
277.99	2162.66
278.20	2039.78
278.42	2062.30
278.63	2117.60
278.85	2129.89
279.06	2152.42
279.28	2252.77
279.49	2314.20
279.71	2267.10
279.93	2267.10
280.14	2138.08
280.36	2148.32
280.57	2297.82
280.79	2248.67
281.00	2101.22
281.22	2170.85
281.43	2283.49
281.65	2015.20
281.86	2088.93
282.08	2138.08
282.29	2392.03
282.51	1998.82
282.73	2066.40
282.94	2037.73
283.16	2285.53
283.37	2260.96
283.59	2197.47
283.80	2195.42
284.02	2187.23
284.23	2179.04
284.45	2074.59
284.66	2113.50
284.88	2170.85
285.09	2242.53
285.31	2197.47
285.52	2176.99
285.74	2080.74
285.95	2277.34
286.17	2111.46
286.38	2308.06
286.60	2088.93
286.81	2119.65
287.03	2164.70
287.24	2185.18
287.46	2242.53
287.67	2150.37
287.89	2318.30
288.10	2088.93
288.32	2201.57
288.53	2277.34
288.75	2197.47
288.96	2293.72
289.18	2109.41
289.39	2121.70
289.61	2230.24
289.82	2414.56
290.04	2375.64
290.25	2121.70
290.47	2160.61
290.68	2195.42
290.90	2293.72
291.11	2007.01
291.33	2289.63
291.54	2086.88
291.76	2043.87
291.97	2127.84
292.18	2250.72
292.40	2152.42
292.61	2211.81
292.83	2418.65
293.04	2271.20
293.26	2203.61
293.47	2076.64
293.69	2054.11
293.90	2154.46
294.12	2392.03
294.33	2123.74
294.55	2189.28
294.76	2244.57
294.97	2297.82
295.19	2330.59
295.40	2187.23
295.62	2176.99
295.83	2228.19
296.05	2129.89
296.26	2236.38
296.48	2109.41
296.69	2244.57
296.90	2232.29
297.12	2220.00
297.33	2340.83
297.55	2211.81
297.76	2277.34
297.98	2250.72
298.19	2215.90
298.41	2146.27
298.62	2074.59
298.83	2297.82
299.05	2160.61
299.26	2205.66
299.48	2168.80
299.69	2246.62
299.90	2162.66
300.12	2109.41
300.33	2238.43
300.55	2176.99
300.76	2306.01
300.98	2082.78
301.19	2162.66
301.40	2187.23
301.62	2113.50
301.83	2246.62
302.05	2121.70
302.26	2224.09
302.47	2107.36
302.69	2113.50
302.90	2179.04
303.12	1998.82
303.33	2240.48
303.54	2410.46
303.76	2119.65
303.97	2281.44
304.19	2260.96
304.40	2095.07
304.61	2179.04
304.83	2318.30
305.04	2306.01
305.26	2285.53
305.47	2123.74
305.68	2088.93
305.90	2045.92
306.11	2285.53
306.33	2185.18
306.54	2160.61
306.75	2080.74
306.97	2103.26
307.18	2154.46
307.39	2121.70
307.61	2193.37
307.82	2101.22
308.04	2133.98
308.25	2054.11
308.46	2086.88
308.68	2185.18
308.89	2209.76
309.10	2275.29
309.32	2213.85
309.53	2230.24
309.74	2150.37
309.96	2125.79
310.17	2289.63
310.39	2133.98
310.60	2187.23
310.81	2207.71
311.03	2117.60
311.24	2211.81
311.45	2244.57
311.67	2357.21
311.88	2160.61
312.09	2113.50
312.31	2142.18
312.52	2117.60
312.73	2121.70
312.95	2047.97
313.16	2154.46
313.37	2310.11
313.59	2246.62
313.80	2287.58
314.01	2273.25
314.23	2127.84
314.44	2129.89
314.65	2084.83
314.87	2136.03
315.08	2183.13
315.29	2136.03
315.51	2156.51
315.72	2117.60
315.93	2326.49
316.15	2187.23
316.36	2209.76
316.57	2248.67
316.79	2187.23
317.00	2103.26
317.21	2246.62
317.43	2113.50
317.64	2193.37
317.85	2123.74
318.07	2121.70
318.28	2211.81
318.49	2379.74
318.70	2441.18
318.92	2367.45
319.13	2336.73
319.34	2451.42
319.56	2269.15
319.77	2375.64
319.98	2316.25
320.20	2322.40
320.41	2310.11
320.62	2297.82
320.83	2121.70
321.05	2297.82
321.26	2285.53
321.47	2136.03
321.69	2330.59
321.90	2070.50
322.11	2109.41
322.32	2220.00
322.54	2342.88
322.75	2170.85
322.96	2523.10
323.18	2035.68
323.39	2039.78
323.60	2074.59
323.81	2244.57
324.03	2127.84
324.24	2248.67
324.45	2209.76
324.66	2039.78
324.88	2267.10
325.09	2306.01
325.30	2078.69
325.52	2224.09
325.73	2250.72
325.94	2023.39
326.15	1970.15
326.37	1996.77
326.58	2308.06
326.79	2332.64
327.00	2131.94
327.22	2140.13
327.43	2160.61
327.64	2107.36
327.85	2269.15
328.07	2187.23
328.28	2379.74
328.49	2136.03
328.70	2187.23
328.92	2084.83
329.13	2127.84
329.34	2191.33
329.55	2375.64
329.76	2265.05
329.98	2250.72
330.19	2299.87
330.40	2213.85
330.61	2240.48
330.83	2287.58
331.04	2133.98
331.25	2189.28
331.46	2226.14
331.68	2113.50
331.89	2281.44
332.10	2187.23
332.31	2095.07
332.52	2136.03
332.74	2242.53
332.95	2088.93
333.16	2150.37
333.37	2285.53
333.58	2152.42
333.80	2125.79
334.01	2045.92
334.22	2152.42
334.43	2136.03
334.64	2138.08
334.86	1970.15
335.07	2181.09
335.28	2359.26
335.49	2117.60
335.70	2123.74
335.92	2279.39
336.13	2375.64
336.34	2230.24
336.55	2176.99
336.76	2303.96
336.98	2052.06
337.19	2174.94
337.40	2289.63
337.61	2449.37
337.82	2260.96
338.04	2281.44
338.25	2101.22
338.46	2146.27
338.67	2199.52
338.88	2162.66
339.09	2035.68
339.31	2174.94
339.52	2111.46
339.73	2129.89
339.94	2160.61
340.15	2326.49
340.36	2131.94
340.58	2183.13
340.79	2117.60
341.00	2185.18
341.21	2117.60
341.42	2385.88
341.63	2156.51
341.85	2330.59
342.06	2303.96
342.27	2168.80
342.48	2332.64
342.69	2072.54
342.90	2220.00
343.12	2340.83
343.33	2107.36
343.54	2281.44
343.75	2324.44
343.96	2193.37
344.17	2076.64
344.38	2162.66
344.60	2062.30
344.81	2072.54
345.02	2158.56
345.23	2326.49
345.44	2400.22
345.65	2301.92
345.86	2217.95
346.07	2146.27
346.29	2144.22
346.50	2170.85
346.71	2250.72
346.92	2318.30
347.13	2453.47
347.34	2166.75
347.55	2181.09
347.76	2205.66
347.98	1996.77
348.19	2117.60
348.40	2232.29
348.61	2166.75
348.82	2308.06
349.03	2283.49
349.24	2074.59
349.45	2297.82
349.66	2050.02
349.88	2103.26
350.09	2093.02
350.30	2349.02
350.51	2303.96
350.72	2187.23
350.93	2136.03
351.14	2191.33
351.35	2246.62
351.56	2230.24
351.77	2162.66
351.99	2244.57
352.20	2377.69
352.41	2293.72
352.62	2021.35
352.83	2164.70
353.04	2236.38
353.25	2174.94
353.46	2277.34
353.67	2363.36
353.88	2043.87
354.09	2191.33
354.30	2148.32
354.52	2232.29
354.73	2217.95
354.94	2154.46
355.15	2121.70
355.36	2412.51
355.57	2154.46
355.78	2203.61
355.99	2119.65
356.20	2148.32
356.41	2263.01
356.62	2199.52
356.83	2236.38
357.04	2357.21
357.25	2017.25
357.46	2144.22
357.68	2045.92
357.89	2127.84
358.10	2207.71
358.31	2168.80
358.52	2172.89
358.73	2152.42
358.94	2158.56
359.15	2185.18
359.36	2232.29
359.57	2215.90
359.78	2144.22
359.99	2318.30
360.20	2009.06
360.41	2185.18
360.62	2199.52
360.83	2189.28
361.04	2238.43
361.25	2269.15
361.46	2375.64
361.67	2269.15
361.88	2183.13
362.09	2283.49
362.30	2209.76
362.51	2150.37
362.72	2154.46
362.93	2277.34
363.14	2254.81
363.35	2236.38
363.56	2129.89
363.78	2273.25
363.99	2301.92
364.20	2146.27
364.41	2217.95
364.62	2455.51
364.83	2170.85
365.04	2099.17
365.25	2119.65
365.46	2435.03
365.67	2234.33
365.88	2129.89
366.09	2099.17
366.30	2090.98
366.51	2189.28
366.72	2084.83
366.93	2047.97
367.14	2189.28
367.35	2320.35
367.56	2197.47
367.77	2293.72
367.98	2226.14
368.18	2265.05
368.39	2226.14
368.60	2068.45
368.81	2252.77
369.02	2213.85
369.23	2174.94
369.44	2082.78
369.65	2166.75
369.86	2236.38
370.07	2220.00
370.28	2125.79
370.49	2211.81
370.70	2242.53
370.91	2054.11
371.12	2047.97
371.33	2277.34
371.54	2207.71
371.75	2236.38
371.96	2035.68
372.17	2222.05
372.38	2240.48
372.59	2199.52
372.80	2166.75
373.01	2193.37
373.22	2179.04
373.43	2162.66
373.64	2007.01
373.85	2332.64
374.06	2353.12
374.26	2295.77
374.47	2160.61
374.68	2332.64
374.89	2195.42
375.10	2119.65
375.31	2340.83
375.52	2189.28
375.73	2217.95
375.94	2113.50
376.15	2293.72
376.36	2193.37
376.57	2123.74
376.78	2131.94
376.99	2176.99
377.20	2277.34
377.40	2101.22
377.61	2301.92
377.82	2080.74
378.03	2344.92
378.24	2263.01
378.45	2263.01
378.66	2215.90
378.87	2037.73
379.08	2119.65
379.29	2138.08
379.50	2301.92
379.71	2209.76
379.91	2273.25
380.12	2193.37
380.33	2160.61
380.54	2199.52
380.75	2142.18
380.96	2131.94
381.17	2301.92
381.38	2338.78
381.59	2166.75
381.80	2129.89
382.00	2361.31
382.21	2285.53
382.42	2367.45
382.63	2426.84
382.84	2271.20
383.05	2400.22
383.26	2441.18
383.47	2181.09
383.68	2260.96
383.88	2267.10
384.09	2248.67
384.30	2324.44
384.51	2232.29
384.72	2133.98
384.93	2109.41
385.14	2217.95
385.35	2252.77
385.55	2037.73
385.76	2324.44
385.97	2109.41
386.18	2019.30
386.39	2209.76
386.60	2176.99
386.81	2197.47
387.02	2125.79
387.22	2078.69
387.43	2244.57
387.64	2285.53
387.85	2398.17
388.06	2482.14
388.27	3995.59
388.48	8728.44
388.68	12633.92
388.89	14614.30
389.10	15800.08
389.31	14786.33
389.52	11704.14
389.73	10071.91
389.93	8849.27
390.14	8339.33
390.35	7434.13
390.56	6602.65
390.77	5328.81
390.98	4161.47
391.18	3229.65
391.39	2858.96
391.60	2398.17
391.81	2344.92
392.02	2205.66
392.23	2467.80
392.43	2269.15
392.64	2328.54
392.85	2269.15
393.06	2394.08
393.27	2166.75
393.47	2117.60
393.68	2107.36
393.89	2201.57
394.10	2328.54
394.31	2111.46
394.52	2105.31
394.72	2154.46
394.93	2291.68
395.14	2019.30
395.35	2176.99
395.56	2078.69
395.76	2174.94
395.97	2228.19
396.18	2349.02
396.39	2392.03
396.60	2676.70
396.80	2523.10
397.01	2371.55
397.22	2400.22
397.43	2377.69
397.64	2109.41
397.84	2248.67
398.05	2426.84
398.26	2269.15
398.47	2353.12
398.67	2287.58
398.88	2187.23
399.09	2320.35
399.30	2158.56
399.51	2258.91
399.71	2131.94
399.92	2125.79
400.13	2267.10
400.34	2176.99
400.54	2189.28
400.75	2351.07
400.96	2230.24
401.17	2371.55
401.37	2183.13
401.58	2215.90
401.79	2234.33
402.00	2330.59
402.21	2555.86
402.41	2527.19
402.62	2516.95
402.83	2686.94
403.04	2662.36
403.24	2752.47
403.45	2326.49
403.66	2428.89
403.87	2422.75
404.07	2500.57
404.28	2473.95
404.49	2439.13
404.70	2228.19
404.90	2273.25
405.11	2133.98
405.32	2306.01
405.52	2133.98
405.73	2111.46
405.94	2119.65
406.15	2144.22
406.35	2252.77
406.56	2330.59
406.77	2187.23
406.98	2256.86
407.18	2203.61
407.39	2308.06
407.60	2299.87
407.80	2254.81
408.01	2086.88
408.22	2166.75
408.43	2103.26
408.63	2254.81
408.84	2234.33
409.05	2310.11
409.25	2154.46
409.46	2086.88
409.67	2131.94
409.88	2152.42
410.08	2260.96
410.29	2217.95
410.50	2299.87
410.70	2252.77
410.91	2133.98
411.12	2207.71
411.32	2187.23
411.53	2093.02
411.74	2342.88
411.95	2377.69
412.15	2287.58
412.36	2322.40
412.57	2353.12
412.77	2322.40
412.98	2140.13
413.19	2199.52
413.39	2283.49
413.60	2195.42
413.81	2383.84
414.01	2138.08
414.22	2265.05
414.43	2285.53
414.63	2220.00
414.84	2357.21
415.05	2170.85
415.25	2013.15
415.46	2236.38
415.67	2090.98
415.87	2207.71
416.08	2176.99
416.29	2152.42
416.49	2205.66
416.70	2058.21
416.91	2144.22
417.11	2213.85
417.32	2330.59
417.53	2172.89
417.73	2269.15
417.94	2174.94
418.15	2250.72
418.35	2111.46
418.56	2172.89
418.77	2432.99
418.97	2193.37
419.18	2195.42
419.38	1994.72
419.59	2164.70
419.80	2338.78
420.00	2191.33
420.21	2174.94
420.42	2271.20
420.62	2252.77
420.83	2174.94
421.04	2150.37
421.24	2162.66
421.45	2269.15
421.65	2191.33
421.86	2037.73
422.07	2336.73
422.27	2267.10
422.48	2236.38
422.69	2111.46
422.89	2166.75
423.10	2101.22
423.30	2080.74
423.51	2152.42
423.72	2170.85
423.92	2246.62
424.13	2080.74
424.33	2191.33
424.54	2256.86
424.75	2220.00
424.95	2379.74
425.16	2205.66
425.36	2207.71
425.57	2275.29
425.78	2189.28
425.98	2285.53
426.19	2136.03
426.39	2119.65
426.60	2232.29
426.81	2314.20
427.01	2179.04
427.22	2172.89
427.42	2082.78
427.63	2031.58
427.83	2256.86
428.04	2394.08
428.25	2277.34
428.45	2275.29
428.66	2361.31
428.86	2224.09
429.07	2088.93
429.28	2195.42
429.48	2220.00
429.69	2146.27
429.89	2187.23
430.10	2090.98
430.30	2295.77
430.51	2359.26
430.71	2090.98
430.92	2183.13
431.13	2179.04
431.33	2179.04
431.54	2217.95
431.74	2287.58
431.95	2326.49
432.15	2097.12
432.36	2209.76
432.56	2232.29
432.77	2318.30
432.98	2318.30
433.18	2269.15
433.39	2129.89
433.59	2205.66
433.80	2326.49
434.00	2408.41
434.21	2172.89
434.41	2144.22
434.62	2346.97
434.82	2015.20
435.03	2144.22
435.23	2144.22
435.44	1939.43
435.64	2220.00
435.85	2203.61
436.06	2267.10
436.26	2265.05
436.47	2205.66
436.67	2125.79
436.88	2183.13
437.08	2330.59
437.29	2387.93
437.49	2213.85
437.70	2312.16
437.90	2158.56
438.11	2371.55
438.31	2269.15
438.52	2400.22
438.72	2342.88
438.93	2469.85
439.13	2289.63
439.34	2318.30
439.54	2228.19
439.75	2287.58
439.95	2205.66
440.16	2215.90
440.36	2269.15
440.57	2258.91
440.77	2283.49
440.98	2232.29
441.18	2232.29
441.39	2174.94
441.59	2097.12
441.80	2457.56
442.00	2191.33
442.21	2318.30
442.41	2033.63
442.62	2291.68
442.82	2078.69
443.02	2105.31
443.23	2230.24
443.43	2131.94
443.64	2369.50
443.84	2062.30
444.05	2338.78
444.25	2220.00
444.46	2160.61
444.66	2107.36
444.87	2418.65
445.07	2060.26
445.28	2187.23
445.48	2324.44
445.69	2252.77
445.89	2387.93
446.09	2224.09
446.30	2463.71
446.50	2789.33
446.71	4468.67
446.91	5617.58
447.12	6561.69
447.32	6868.89
447.53	6229.92
447.73	5183.41
447.93	4612.03
448.14	4190.14
448.34	4126.66
448.55	3661.77
448.75	3631.05
448.96	3272.65
449.16	3024.85
449.36	2834.39
449.57	2562.01
449.77	2322.40
449.98	2209.76
450.18	2242.53
450.39	2217.95
450.59	2242.53
450.79	2275.29
451.00	2158.56
451.20	2320.35
451.41	2215.90
451.61	2336.73
451.81	2217.95
452.02	2156.51
452.22	2162.66
452.43	2136.03
452.63	2170.85
452.84	2148.32
453.04	2107.36
453.24	2240.48
453.45	2138.08
453.65	2230.24
453.86	2283.49
454.06	2203.61
454.26	2213.85
454.47	2146.27
454.67	2330.59
454.87	2209.76
455.08	2203.61
455.28	2379.74
455.49	2277.34
455.69	2133.98
455.89	2402.27
456.10	2289.63
456.30	2222.05
456.51	2267.10
456.71	2209.76
456.91	2293.72
457.12	2265.05
457.32	2234.33
457.52	2111.46
457.73	2334.68
457.93	2275.29
458.14	2148.32
458.34	2043.87
458.54	2117.60
458.75	2166.75
458.95	2363.36
459.15	2277.34
459.36	2291.68
459.56	2256.86
459.76	2392.03
459.97	2162.66
460.17	2213.85
460.37	2250.72
460.58	2256.86
460.78	2250.72
460.99	2195.42
461.19	2086.88
461.39	2146.27
461.60	2172.89
461.80	2217.95
462.00	2140.13
462.21	2250.72
462.41	2195.42
462.61	2062.30
462.82	2007.01
463.02	2187.23
463.22	2220.00
463.43	2308.06
463.63	2189.28
463.83	2340.83
464.04	2265.05
464.24	2195.42
464.44	2142.18
464.64	2326.49
464.85	2209.76
465.05	2256.86
465.25	2129.89
465.46	2156.51
465.66	2277.34
465.86	2250.72
466.07	2318.30
466.27	2209.76
466.47	2052.06
466.68	2033.63
466.88	2269.15
467.08	2265.05
467.29	2283.49
467.49	2236.38
467.69	2258.91
467.89	2199.52
468.10	2211.81
468.30	2240.48
468.50	2258.91
468.71	2293.72
468.91	2117.60
469.11	2293.72
469.31	2201.57
469.52	2211.81
469.72	2402.27
469.92	2408.41
470.13	2244.57
470.33	2197.47
470.53	2355.16
470.73	2746.33
470.94	3041.23
471.14	3282.89
471.34	3651.53
471.54	3477.45
471.75	3188.69
471.95	2887.64
472.15	2785.24
472.36	2809.81
472.56	2695.13
472.76	2629.59
472.96	2697.17
473.17	2514.91
473.37	2392.03
473.57	2318.30
473.77	2293.72
473.98	2254.81
474.18	2101.22
474.38	2490.33
474.58	2148.32
474.79	2119.65
474.99	2256.86
475.19	2271.20
475.39	2181.09
475.60	2224.09
475.80	2250.72
476.00	2232.29
476.20	2146.27
476.41	2213.85
476.61	2275.29
476.81	2334.68
477.01	2138.08
477.21	2351.07
477.42	2250.72
477.62	2136.03
477.82	2232.29
478.02	2236.38
478.23	2287.58
478.43	2189.28
478.63	2140.13
478.83	2263.01
479.03	2193.37
479.24	2301.92
479.44	2308.06
479.64	2117.60
479.84	1927.14
480.04	2209.76
480.25	2281.44
480.45	2140.13
480.65	2203.61
480.85	2342.88
481.06	2064.35
481.26	2224.09
481.46	2228.19
481.66	2217.95
481.86	2097.12
482.06	2242.53
482.27	2187.23
482.47	2140.13
482.67	2205.66
482.87	2207.71
483.07	2322.40
483.28	2121.70
483.48	2265.05
483.68	2242.53
483.88	2068.45
484.08	2002.91
484.29	2105.31
484.49	2189.28
484.69	2019.30
484.89	2316.25
485.09	2269.15
485.29	2256.86
485.50	2287.58
485.70	2230.24
485.90	2275.29
486.10	2244.57
486.30	2293.72
486.50	2258.91
486.71	2203.61
486.91	2246.62
487.11	2351.07
487.31	2164.70
487.51	2281.44
487.71	2080.74
487.91	2142.18
488.12	2174.94
488.32	1990.63
488.52	2136.03
488.72	2101.22
488.92	2252.77
489.12	2242.53
489.32	2281.44
489.53	2160.61
489.73	2123.74
489.93	2301.92
490.13	2095.07
490.33	2050.02
490.53	2211.81
490.73	2324.44
490.94	2031.58
491.14	2310.11
491.34	2342.88
491.54	2527.19
491.74	3213.26
491.94	3839.94
492.14	4071.36
492.34	4163.52
492.54	3704.78
492.75	3299.28
492.95	3139.54
493.15	2963.41
493.35	2867.16
493.55	2879.44
493.75	2734.04
493.95	2738.13
494.15	2580.44
494.35	2318.30
494.56	2250.72
494.76	2222.05
494.96	2283.49
495.16	2197.47
495.36	2277.34
495.56	2250.72
495.76	2179.04
495.96	2146.27
496.16	2215.90
496.36	2338.78
496.56	2250.72
496.77	2242.53
496.97	2269.15
497.17	2344.92
497.37	2166.75
497.57	2234.33
497.77	2201.57
497.97	2156.51
498.17	2222.05
498.37	2211.81
498.57	2269.15
498.77	2193.37
498.97	2320.35
499.17	2318.30
499.38	2179.04
499.58	2285.53
499.78	2275.29
499.98	2330.59
500.18	2156.51
500.38	2146.27
500.58	2406.36
500.78	2848.72
500.98	5115.83
501.18	7475.09
501.38	9217.91
501.58	10166.12
501.78	9863.02
501.98	7784.33
502.18	6549.40
502.38	5693.35
502.58	5341.10
502.78	4695.99
502.98	4442.04
503.18	4335.55
503.38	3948.48
503.59	3432.40
503.79	3327.95
503.99	2975.70
504.19	2789.33
504.39	2875.35
504.59	2904.02
504.79	2863.06
504.99	2832.34
505.19	2557.91
505.39	2484.19
505.59	2609.11
505.79	2512.86
505.99	2394.08
506.19	2402.27
506.39	2516.95
506.59	2277.34
506.79	2269.15
506.99	2371.55
507.19	2242.53
507.39	2275.29
507.59	2043.87
507.79	2170.85
507.99	2144.22
508.19	2232.29
508.39	2187.23
508.59	2220.00
508.79	2430.94
508.99	2514.91
509.19	2103.26
509.39	2287.58
509.59	2111.46
509.79	2195.42
509.99	2179.04
510.19	2301.92
510.39	2234.33
510.59	2242.53
510.79	2158.56
510.99	2093.02
511.19	2230.24
511.39	2394.08
511.59	2328.54
511.79	2271.20
511.99	2203.61
512.19	2379.74
512.38	2095.07
512.58	2105.31
512.78	2215.90
512.98	2379.74
513.18	2383.84
513.38	2162.66
513.58	2271.20
513.78	2211.81
513.98	2211.81
514.18	2129.89
514.38	2205.66
514.58	2322.40
514.78	2045.92
514.98	2185.18
515.18	2168.80
515.38	2113.50
515.58	2326.49
515.78	2244.57
515.98	2136.03
516.18	2285.53
516.38	2199.52
516.57	2232.29
516.77	2078.69
516.97	2285.53
517.17	2162.66
517.37	2080.74
517.57	2263.01
517.77	2226.14
517.97	2162.66
518.17	2273.25
518.37	2084.83
518.57	2140.13
518.77	2199.52
518.97	2170.85
519.16	2207.71
519.36	2281.44
519.56	2164.70
519.76	2099.17
519.96	2207.71
520.16	2342.88
520.36	2197.47
520.56	2275.29
520.76	2191.33
520.96	2240.48
521.16	2310.11
521.35	2285.53
521.55	2398.17
521.75	2252.77
521.95	2162.66
522.15	2205.66
522.35	2060.26
522.55	2113.50
522.75	2224.09
522.95	2154.46
523.14	2095.07
523.34	2213.85
523.54	2228.19
523.74	2340.83
523.94	2332.64
524.14	2129.89
524.34	2215.90
524.54	2361.31
524.73	2201.57
524.93	2258.91
525.13	2142.18
525.33	2170.85
525.53	2353.12
525.73	2291.68
525.93	2121.70
526.13	2166.75
526.32	2166.75
526.52	2283.49
526.72	2242.53
526.92	2197.47
527.12	2187.23
527.32	2080.74
527.52	2154.46
527.71	2263.01
527.91	2240.48
528.11	2236.38
528.31	2226.14
528.51	2121.70
528.71	2273.25
528.90	2203.61
529.10	2269.15
529.30	2363.36
529.50	1988.58
529.70	2254.81
529.90	2144.22
530.09	2181.09
530.29	2084.83
530.49	2121.70
530.69	2535.39
530.89	2256.86
531.09	2293.72
531.28	2187.23
531.48	2301.92
531.68	2127.84
531.88	2209.76
532.08	2293.72
532.28	2136.03
532.47	2248.67
532.67	2303.96
532.87	2273.25
533.07	2162.66
533.27	2277.34
533.46	2234.33
533.66	2250.72
533.86	2283.49
534.06	2248.67
534.26	2269.15
534.45	2199.52
534.65	2314.20
534.85	2226.14
535.05	2144.22
535.25	2258.91
535.44	2039.78
535.64	2228.19
535.84	2242.53
536.04	2160.61
536.24	2195.42
536.43	2160.61
536.63	2291.68
536.83	2183.13
537.03	2201.57
537.22	2056.16
537.42	2052.06
537.62	2244.57
537.82	2078.69
538.02	2324.44
538.21	2297.82
538.41	2531.29
538.61	2279.39
538.81	2201.57
539.00	2289.63
539.20	2088.93
539.40	2191.33
539.60	2271.20
539.79	2308.06
539.99	2187.23
540.19	2142.18
540.39	2191.33
540.58	2236.38
540.78	2373.60
540.98	2205.66
541.18	2318.30
541.37	2238.43
541.57	2283.49
541.77	2226.14
541.97	2095.07
542.16	2056.16
542.36	2160.61
542.56	2125.79
542.76	2340.83
542.95	2269.15
543.15	2199.52
543.35	2279.39
543.54	2133.98
543.74	2136.03
543.94	2334.68
544.14	2127.84
544.33	2277.34
544.53	2176.99
544.73	2220.00
544.93	2152.42
545.12	2131.94
545.32	2197.47
545.52	2226.14
545.71	2129.89
545.91	2281.44
546.11	2236.38
546.30	2076.64
546.50	2185.18
546.70	2267.10
546.90	2201.57
547.09	2121.70
547.29	2203.61
547.49	2224.09
547.68	2099.17
547.88	2201.57
548.08	2240.48
548.27	2662.36
548.47	2193.37
548.67	2119.65
548.87	2260.96
549.06	2127.84
549.26	2211.81
549.46	2314.20
549.65	2158.56
549.85	2164.70
550.05	2220.00
550.24	2140.13
550.44	2209.76
550.64	2318.30
550.83	2207.71
551.03	2320.35
551.23	2334.68
551.42	2199.52
551.62	2158.56
551.82	2170.85
552.01	2060.26
552.21	2287.58
552.41	2207.71
552.60	2340.83
552.80	2189.28
553.00	2176.99
553.19	2234.33
553.39	2334.68
553.59	2117.60
553.78	2324.44
553.98	2226.14
554.17	2095.07
554.37	2234.33
554.57	2285.53
554.76	2076.64
554.96	2101.22
555.16	2185.18
555.35	2203.61
555.55	2271.20
555.75	2248.67
555.94	2289.63
556.14	2004.96
556.33	2207.71
556.53	2217.95
556.73	2215.90
556.92	2291.68
557.12	2303.96
557.32	2359.26
557.51	2373.60
557.71	2283.49
557.90	2387.93
558.10	2404.32
558.30	2195.42
558.49	2222.05
558.69	2254.81
558.88	2250.72
559.08	2295.77
559.28	2150.37
559.47	2150.37
559.67	2340.83
559.86	2394.08
560.06	2228.19
560.26	2127.84
560.45	2285.53
560.65	2168.80
560.84	2365.40
561.04	2082.78
561.24	2326.49
561.43	2056.16
561.63	2357.21
561.82	2189.28
562.02	2291.68
562.22	2103.26
562.41	2136.03
562.61	2131.94
562.80	2107.36
563.00	2465.75
563.19	2203.61
563.39	2267.10
563.59	2269.15
563.78	2103.26
563.98	2090.98
564.17	2142.18
564.37	2009.06
564.56	2324.44
564.76	2097.12
564.96	2293.72
565.15	2226.14
565.35	2445.27
565.54	2150.37
565.74	2211.81
565.93	2207.71
566.13	2252.77
566.32	2299.87
566.52	2271.20
566.71	2250.72
566.91	2252.77
567.11	2310.11
567.30	2168.80
567.50	2258.91
567.69	2242.53
567.89	2158.56
568.08	2113.50
568.28	2283.49
568.47	2183.13
568.67	2265.05
568.86	2199.52
569.06	2277.34
569.25	2152.42
569.45	2123.74
569.64	2127.84
569.84	2236.38
570.04	2283.49
570.23	2146.27
570.43	2176.99
570.62	2185.18
570.82	2406.36
571.01	2158.56
571.21	2084.83
571.40	2074.59
571.60	2273.25
571.79	2306.01
571.99	2248.67
572.18	2103.26
572.38	2324.44
572.57	2181.09
572.77	2320.35
572.96	2441.18
573.16	2238.43
573.35	2179.04
573.55	2367.45
573.74	2244.57
573.94	2129.89
574.13	2095.07
574.33	2162.66
574.52	2359.26
574.71	2228.19
574.91	2234.33
575.10	2037.73
575.30	2105.31
575.49	2144.22
575.69	2113.50
575.88	2230.24
576.08	2293.72
576.27	2394.08
576.47	2222.05
576.66	2420.70
576.86	2353.12
577.05	2338.78
577.25	2301.92
577.44	2396.12
577.64	2154.46
577.83	2263.01
578.02	2185.18
578.22	2377.69
578.41	2353.12
578.61	2197.47
578.80	1996.77
579.00	2230.24
579.19	2256.86
579.39	2342.88
579.58	2324.44
579.77	2176.99
579.97	2414.56
580.16	2426.84
580.36	2334.68
580.55	2310.11
580.75	2168.80
580.94	2238.43
581.13	2365.40
581.33	2404.32
581.52	2238.43
581.72	2398.17
581.91	2449.37
582.11	2269.15
582.30	2285.53
582.49	2240.48
582.69	2531.29
582.88	2252.77
583.08	2312.16
583.27	2308.06
583.47	2179.04
583.66	2125.79
583.85	2185.18
584.05	2213.85
584.24	2316.25
584.44	2375.64
584.63	2396.12
584.82	2322.40
585.02	2412.51
585.21	2383.84
585.41	2420.70
585.60	2346.97
585.79	2498.52
585.99	2441.18
586.18	2359.26
586.37	2846.68
586.57	4511.68
586.76	13285.17
586.96	32904.71
587.15	46710.07
587.34	56110.25
587.54	61209.69
587.73	56431.78
587.93	39716.26
588.12	29974.07
588.31	24286.86
588.51	21055.17
588.70	19062.49
588.89	17389.30
589.09	15359.77
589.28	12939.07
589.47	10487.65
589.67	8171.40
589.86	6553.50
590.06	4849.59
590.25	3897.28
590.44	3135.44
590.64	2875.35
590.83	2562.01
591.02	2492.38
591.22	2301.92
591.41	2375.64
591.60	2301.92
591.80	2492.38
591.99	2162.66
592.18	2258.91
592.38	2265.05
592.57	2240.48
592.76	2310.11
592.96	2211.81
593.15	2263.01
593.34	2332.64
593.54	2260.96
593.73	2326.49
593.92	2260.96
594.12	2277.34
594.31	2400.22
594.50	2453.47
594.70	2330.59
594.89	2525.15
595.08	2162.66
595.28	2244.57
595.47	2533.34
595.66	2281.44
595.86	2201.57
596.05	2242.53
596.24	2156.51
596.43	2416.60
596.63	2414.56
596.82	2353.12
597.01	2246.62
597.21	2471.90
597.40	2328.54
597.59	2234.33
597.79	2258.91
597.98	2285.53
598.17	2242.53
598.36	2215.90
598.56	2377.69
598.75	2275.29
598.94	2267.10
599.14	2220.00
599.33	2215.90
599.52	2316.25
599.71	2326.49
599.91	2365.40
600.10	2269.15
600.29	2211.81
600.48	2179.04
600.68	2203.61
600.87	2379.74
601.06	2138.08
601.26	2287.58
601.45	2260.96
601.64	2152.42
601.83	2306.01
602.03	2176.99
602.22	2113.50
602.41	2357.21
602.60	2480.09
602.80	2273.25
602.99	2240.48
603.18	2207.71
603.37	2293.72
603.57	2199.52
603.76	2349.02
603.95	2371.55
604.14	2166.75
604.34	2162.66
604.53	2193.37
604.72	2248.67
604.91	2353.12
605.10	2238.43
605.30	2125.79
605.49	2373.60
605.68	2271.20
605.87	2273.25
606.07	2150.37
606.26	2203.61
606.45	2220.00
606.64	2236.38
606.84	2287.58
607.03	2267.10
607.22	2357.21
607.41	2209.76
607.60	2146.27
607.80	2402.27
607.99	2187.23
608.18	2203.61
608.37	2226.14
608.56	2093.02
608.76	2379.74
608.95	2510.81
609.14	2279.39
609.33	2449.37
609.52	2496.47
609.72	2320.35
609.91	2406.36
610.10	2240.48
610.29	2402.27
610.48	2310.11
610.68	2310.11
610.87	2267.10
611.06	2326.49
611.25	2281.44
611.44	2291.68
611.63	2205.66
611.83	2412.51
612.02	2109.41
612.21	2359.26
612.40	2037.73
612.59	2074.59
612.79	2195.42
612.98	2234.33
613.17	2334.68
613.36	2131.94
613.55	2414.56
613.74	2269.15
613.93	2400.22
614.13	2459.61
614.32	2531.29
614.51	2525.15
614.70	2318.30
614.89	2228.19
615.08	2328.54
615.28	2777.05
615.47	2252.77
615.66	2310.11
615.85	2287.58
616.04	2406.36
616.23	2281.44
616.42	2306.01
616.62	2349.02
616.81	2314.20
617.00	2215.90
617.19	2265.05
617.38	2152.42
617.57	2277.34
617.76	2228.19
617.95	2306.01
618.15	2265.05
618.34	2334.68
618.53	2060.26
618.72	2324.44
618.91	2324.44
619.10	2385.88
619.29	2168.80
619.48	2240.48
619.68	2168.80
619.87	2138.08
620.06	2101.22
620.25	2215.90
620.44	2158.56
620.63	2220.00
620.82	2203.61
621.01	2222.05
621.20	2244.57
621.39	2301.92
621.59	2211.81
621.78	2172.89
621.97	2129.89
622.16	2332.64
622.35	2275.29
622.54	2275.29
622.73	2394.08
622.92	2021.35
623.11	2310.11
623.30	2162.66
623.49	2211.81
623.68	2103.26
623.88	2340.83
624.07	2211.81
624.26	2191.33
624.45	2250.72
624.64	2152.42
624.83	2254.81
625.02	2187.23
625.21	2211.81
625.40	2168.80
625.59	2351.07
625.78	2226.14
625.97	2299.87
626.16	2351.07
626.35	2346.97
626.54	2289.63
626.74	2432.99
626.93	2260.96
627.12	2160.61
627.31	2293.72
627.50	2310.11
627.69	2332.64
627.88	2150.37
628.07	2203.61
628.26	2109.41
628.45	2185.18
628.64	2156.51
628.83	2150.37
629.02	2150.37
629.21	2310.11
629.40	2265.05
629.59	2215.90
629.78	2205.66
629.97	2179.04
630.16	2246.62
630.35	2187.23
630.54	2232.29
630.73	2156.51
630.92	2263.01
631.11	2107.36
631.30	2201.57
631.49	2258.91
631.68	2174.94
631.87	2162.66
632.06	2105.31
632.25	2410.46
632.44	2197.47
632.63	2267.10
632.82	2252.77
633.01	2340.83
633.20	2263.01
633.39	2228.19
633.58	2195.42
633.77	2240.48
633.96	2336.73
634.15	2367.45
634.34	2291.68
634.53	2277.34
634.72	2209.76
634.91	2064.35
635.10	2172.89
635.29	2346.97
635.48	2205.66
635.67	2176.99
635.86	2160.61
636.05	2332.64
636.24	2207.71
636.43	2191.33
636.62	2156.51
636.81	1990.63
637.00	2201.57
637.19	2224.09
637.38	2185.18
637.57	2168.80
637.76	2322.40
637.95	2328.54
638.14	2269.15
638.33	2373.60
638.52	2283.49
638.71	2154.46
638.89	2150.37
639.08	2447.32
639.27	2396.12
639.46	2490.33
639.65	2887.64
639.84	2944.98
640.03	3071.95
640.22	2996.18
640.41	2975.70
640.60	2578.39
640.79	2572.25
640.98	2441.18
641.17	2521.05
641.36	2453.47
641.55	2482.14
641.74	2301.92
641.92	2211.81
642.11	2154.46
642.30	2240.48
642.49	2138.08
642.68	2103.26
642.87	2191.33
643.06	2195.42
643.25	2172.89
643.44	2133.98
643.63	2191.33
643.82	2275.29
644.00	2129.89
644.19	2271.20
644.38	2183.13
644.57	2287.58
644.76	2195.42
644.95	2232.29
645.14	2220.00
645.33	2185.18
645.52	2207.71
645.71	2060.26
645.89	2127.84
646.08	2176.99
646.27	2090.98
646.46	2316.25
646.65	2074.59
646.84	2205.66
647.03	2066.40
647.22	2222.05
647.40	2203.61
647.59	2213.85
647.78	2031.58
647.97	2041.82
648.16	2150.37
648.35	2389.98
648.54	2283.49
648.73	2174.94
648.91	2293.72
649.10	2234.33
649.29	2187.23
649.48	2199.52
649.67	2252.77
649.86	2248.67
650.05	2252.77
650.23	2426.84
650.42	2334.68
650.61	2531.29
650.80	2373.60
650.99	2449.37
651.18	2441.18
651.36	2424.80
651.55	2232.29
651.74	2369.50
651.93	2258.91
652.12	2154.46
652.31	2226.14
652.49	2193.37
652.68	2140.13
652.87	2351.07
653.06	2281.44
653.25	2361.31
653.44	2203.61
653.62	2316.25
653.81	2179.04
654.00	2183.13
654.19	2301.92
654.38	2494.43
654.56	2269.15
654.75	2179.04
654.94	2242.53
655.13	2193.37
655.32	2172.89
655.51	2254.81
655.69	2226.14
655.88	2203.61
656.07	2197.47
656.26	2232.29
656.45	2093.02
656.63	2203.61
656.82	2220.00
657.01	2344.92
657.20	2215.90
657.38	2349.02
657.57	2045.92
657.76	1970.15
657.95	2363.36
658.14	2160.61
658.32	2211.81
658.51	2095.07
658.70	2246.62
658.89	2248.67
659.08	2215.90
659.26	2402.27
659.45	2179.04
659.64	2346.97
659.83	2209.76
660.01	2551.77
660.20	2203.61
660.39	2381.79
660.58	2066.40
660.76	2287.58
660.95	2105.31
661.14	2244.57
661.33	2111.46
661.51	2179.04
661.70	2179.04
661.89	2242.53
662.08	2197.47
662.26	2105.31
662.45	2086.88
662.64	2318.30
662.83	2265.05
663.01	2068.45
663.20	2127.84
663.39	2375.64
663.58	2310.11
663.76	2129.89
663.95	2189.28
664.14	2185.18
664.32	2119.65
664.51	2086.88
664.70	2070.50
664.89	2226.14
665.07	2129.89
665.26	2222.05
665.45	2086.88
665.64	2383.84
665.82	2170.85
666.01	2320.35
666.20	2144.22
666.38	2279.39
666.57	2349.02
666.76	3291.09
666.95	7993.22
667.13	16385.80
667.32	22148.78
667.51	26119.79
667.69	27817.56
667.88	26060.40
668.07	18327.27
668.25	14731.04
668.44	12185.41
668.63	10289.00
668.81	9215.86
669.00	8001.41
669.19	7198.61
669.38	6217.63
669.56	5396.40
669.75	4435.90
669.94	3735.50
670.12	3215.31
670.31	2922.45
670.50	2598.87
670.68	2475.99
670.87	2418.65
671.06	2240.48
671.24	2224.09
671.43	2316.25
671.62	2263.01
671.80	2258.91
671.99	2269.15
672.18	2209.76
672.36	2357.21
672.55	2269.15
672.74	2181.09
672.92	2203.61
673.11	2263.01
673.29	2168.80
673.48	2236.38
673.67	2201.57
673.85	2308.06
674.04	2097.12
674.23	2244.57
674.41	2404.32
674.60	2127.84
674.79	2004.96
674.97	2115.55
675.16	2301.92
675.34	2197.47
675.53	2097.12
675.72	2256.86
675.90	2338.78
676.09	2193.37
676.28	2226.14
676.46	2125.79
676.65	2236.38
676.83	2211.81
677.02	2201.57
677.21	2191.33
677.39	2176.99
677.58	2086.88
677.77	2144.22
677.95	2105.31
678.14	2168.80
678.32	2209.76
678.51	2119.65
678.70	2375.64
678.88	2187.23
679.07	2289.63
679.25	2263.01
679.44	2232.29
679.63	2093.02
679.81	2242.53
680.00	2363.36
680.18	2236.38
680.37	2392.03
680.55	2236.38
680.74	2097.12
680.93	2064.35
681.11	2252.77
681.30	2240.48
681.48	2306.01
681.67	2136.03
681.85	2156.51
682.04	2156.51
682.23	2357.21
682.41	2211.81
682.60	2109.41
682.78	2277.34
682.97	2078.69
683.15	2269.15
683.34	2293.72
683.53	2355.16
683.71	2041.82
683.90	2353.12
684.08	2445.27
684.27	2211.81
684.45	2170.85
684.64	2244.57
684.82	2248.67
685.01	2289.63
685.19	2136.03
685.38	2303.96
685.57	2179.04
685.75	2226.14
685.94	2131.94
686.12	2088.93
686.31	2215.90
686.49	2320.35
686.68	2021.35
686.86	2205.66
687.05	2117.60
687.23	2340.83
687.42	2086.88
687.60	2007.01
687.79	2267.10
687.97	2306.01
688.16	2301.92
688.34	2328.54
688.53	2031.58
688.71	2195.42
688.90	2344.92
689.08	2119.65
689.27	2029.54
689.45	2226.14
689.64	2250.72
689.82	2213.85
690.01	2230.24
690.19	2281.44
690.38	2283.49
690.56	2269.15
690.75	2058.21
690.93	2183.13
691.12	2117.60
691.30	2203.61
691.49	2179.04
691.67	2236.38
691.86	2457.56
692.04	2144.22
692.23	2197.47
692.41	2328.54
692.60	2504.67
692.78	2400.22
692.97	2230.24
693.15	2308.06
693.34	2463.71
693.52	2301.92
693.71	2152.42
693.89	2172.89
694.08	2068.45
694.26	2297.82
694.44	2269.15
694.63	2375.64
694.81	2119.65
695.00	2099.17
695.18	2334.68
695.37	2369.50
695.55	2220.00
695.74	2158.56
695.92	2187.23
696.10	2332.64
696.29	2072.54
696.47	2205.66
696.66	2068.45
696.84	2033.63
697.03	2277.34
697.21	2447.32
697.40	3196.88
697.58	2285.53
697.76	2185.18
697.95	2176.99
698.13	2158.56
698.32	2148.32
698.50	2170.85
698.68	2244.57
698.87	2252.77
699.05	2373.60
699.24	2314.20
699.42	2050.02
699.61	2260.96
699.79	2166.75
699.97	2179.04
700.16	2011.11
700.34	2060.26
700.53	2170.85
700.71	2308.06
700.89	2230.24
701.08	2226.14
701.26	2207.71
701.45	2727.89
701.63	2207.71
701.81	2150.37
702.00	2127.84
702.18	2201.57
702.37	2226.14
702.55	2437.08
702.73	2459.61
702.92	2351.07
703.10	2564.06
703.28	2523.10
703.47	2256.86
703.65	2430.94
703.84	2463.71
704.02	2293.72
704.20	2398.17
704.39	2209.76
704.57	2234.33
704.75	2432.99
704.94	2285.53
705.12	2254.81
705.30	2551.77
705.49	4595.64
705.67	11321.17
705.86	20473.54
706.04	25034.37
706.22	28610.12
706.41	29984.31
706.59	25747.06
706.77	17966.83
706.96	14923.55
707.14	12975.93
707.32	11222.87
707.51	10096.49
707.69	8189.83
707.87	6608.80
708.06	5259.18
708.24	4218.82
708.42	3370.96
708.61	3108.82
708.79	2494.43
708.97	2422.75
709.16	2377.69
709.34	2385.88
709.52	2277.34
709.71	2144.22
709.89	2287.58
710.07	2185.18
710.26	2113.50
710.44	2209.76
710.62	2273.25
710.80	2289.63
710.99	2322.40
711.17	2291.68
711.35	2166.75
711.54	2160.61
711.72	2306.01
711.90	2211.81
712.09	2215.90
712.27	2172.89
712.45	2269.15
712.63	2095.07
712.82	2232.29
713.00	2197.47
713.18	2238.43
713.37	2254.81
713.55	2328.54
713.73	2217.95
713.91	2224.09
714.10	2138.08
714.28	2201.57
714.46	2193.37
714.65	2226.14
714.83	2195.42
715.01	2181.09
715.19	2156.51
715.38	2101.22
715.56	2232.29
715.74	2142.18
715.92	2148.32
716.11	2299.87
716.29	2000.87
716.47	2195.42
716.65	2179.04
716.84	2045.92
717.02	2310.11
717.20	2047.97
717.38	2097.12
717.57	2166.75
717.75	2271.20
717.93	2162.66
718.11	2273.25
718.30	2021.35
718.48	2252.77
718.66	2318.30
718.84	2287.58
719.03	2199.52
719.21	2043.87
719.39	2371.55
719.57	2260.96
719.75	2271.20
719.94	2021.35
720.12	2144.22
720.30	2158.56
720.48	2299.87
720.67	2097.12
720.85	2099.17
721.03	2136.03
721.21	2056.16
721.39	2285.53
721.58	2244.57
721.76	2187.23
721.94	2289.63
722.12	2236.38
722.30	2334.68
722.49	2209.76
722.67	2187.23
722.85	2185.18
723.03	2064.35
723.21	2158.56
723.40	2269.15
723.58	2281.44
723.76	2291.68
723.94	2367.45
724.12	2277.34
724.30	2383.84
724.49	2285.53
724.67	2146.27
724.85	2365.40
725.03	2105.31
725.21	2267.10
725.40	2310.11
725.58	2111.46
725.76	2342.88
725.94	2226.14
726.12	2142.18
726.30	2146.27
726.49	2260.96
726.67	2133.98
726.85	2256.86
727.03	2547.67
727.21	3837.89
727.39	5595.05
727.57	6635.42
727.76	7344.02
727.94	7827.34
728.12	7405.46
728.30	6041.51
728.48	5107.63
728.66	4675.51
728.84	4157.38
729.03	3471.31
729.21	3149.78
729.39	2801.62
729.57	2498.52
729.75	2412.51
729.93	2353.12
730.11	2217.95
730.30	2263.01
730.48	2220.00
730.66	2338.78
730.84	2336.73
731.02	2142.18
731.20	2162.66
731.38	2220.00
731.56	2121.70
731.74	2090.98
731.93	2275.29
732.11	2256.86
732.29	2088.93
732.47	2240.48
732.65	2215.90
732.83	2287.58
733.01	2166.75
733.19	2125.79
733.37	2250.72
733.56	2244.57
733.74	2109.41
733.92	2392.03
734.10	2107.36
734.28	2258.91
734.46	2047.97
734.64	2179.04
734.82	2176.99
735.00	2146.27
735.18	2179.04
735.36	2199.52
735.54	2158.56
735.73	2086.88
735.91	2191.33
736.09	2398.17
736.27	2244.57
736.45	2172.89
736.63	2066.40
736.81	2131.94
736.99	2213.85
737.17	2310.11
737.35	2158.56
737.53	2211.81
737.71	2166.75
737.89	2269.15
738.07	2172.89
738.25	2078.69
738.43	2127.84
738.61	2148.32
738.80	2150.37
738.98	2191.33
739.16	2197.47
739.34	2148.32
739.52	2314.20
739.70	2152.42
739.88	2314.20
740.06	2244.57
740.24	2058.21
740.42	2277.34
740.60	2144.22
740.78	2160.61
740.96	2064.35
741.14	2101.22
741.32	2201.57
741.50	2064.35
741.68	2365.40
741.86	2308.06
742.04	2129.89
742.22	2062.30
742.40	2199.52
742.58	2291.68
742.76	2103.26
742.94	2265.05
743.12	2084.83
743.30	2193.37
743.48	2299.87
743.66	2136.03
743.84	2199.52
744.02	2187.23
744.20	2127.84
744.38	2076.64
744.56	2138.08
744.74	2324.44
744.92	2256.86
745.10	2383.84
745.28	2220.00
745.46	2310.11
745.64	2176.99
745.82	2289.63
746.00	2154.46
746.18	2240.48
746.36	2103.26
746.54	2224.09
746.72	2142.18
746.90	2131.94
747.08	2301.92
747.26	2260.96
747.44	2273.25
747.62	2291.68
747.80	2170.85
747.98	2340.83
748.15	2146.27
748.33	2383.84
748.51	2220.00
748.69	2240.48
748.87	2103.26
749.05	2162.66
749.23	2215.90
749.41	2252.77
749.59	2228.19
749.77	2318.30
749.95	2211.81
750.13	2205.66
750.31	2207.71
750.49	2191.33
750.67	2224.09
750.85	2285.53
751.03	2201.57
751.20	2342.88
751.38	2248.67
751.56	2117.60
751.74	2211.81
751.92	2185.18
752.10	2066.40
752.28	2338.78
752.46	2086.88
752.64	2187.23
752.82	2166.75
753.00	2277.34
753.18	2172.89
753.35	2203.61
753.53	2195.42
753.71	2103.26
753.89	2220.00
754.07	2211.81
754.25	2318.30
754.43	2269.15
754.61	2168.80
754.79	2277.34
754.97	2138.08
755.14	2340.83
755.32	2017.25
755.50	2160.61
755.68	2226.14
755.86	2133.98
756.04	2152.42
756.22	2031.58
756.40	2283.49
756.57	2400.22
756.75	2183.13
756.93	2301.92
757.11	2267.10
757.29	2086.88
757.47	2138.08
757.65	2103.26
757.82	1945.57
758.00	2127.84
758.18	2144.22
758.36	2072.54
758.54	2314.20
758.72	2121.70
758.90	2385.88
759.07	2203.61
759.25	2113.50
759.43	2250.72
759.61	2174.94
759.79	2994.13
759.97	2334.68
760.15	2105.31
760.32	2189.28
760.50	2224.09
760.68	2387.93
760.86	2043.87
761.04	2326.49
761.22	2263.01
761.39	2197.47
761.57	2250.72
761.75	2164.70
761.93	2226.14
762.11	2207.71
762.28	2203.61
762.46	2078.69
762.64	2299.87
762.82	1998.82
763.00	2127.84
763.18	2258.91
763.35	2121.70
763.53	2236.38
763.71	2193.37
763.89	2207.71
764.07	2127.84
764.24	2236.38
764.42	2258.91
764.60	2150.37
764.78	2269.15
764.96	2287.58
765.13	2265.05
765.31	2160.61
765.49	2240.48
765.67	2068.45
765.84	2185.18
766.02	2095.07
766.20	2080.74
766.38	2246.62
766.56	2312.16
766.73	2252.77
766.91	2248.67
767.09	2220.00
767.27	2260.96
767.44	2062.30
767.62	2201.57
767.80	2228.19
767.98	2133.98
768.15	2140.13
768.33	2312.16
768.51	2314.20
768.69	2320.35
768.87	2236.38
769.04	2172.89
769.22	2432.99
769.40	2310.11
769.58	2396.12
769.75	2195.42
769.93	2226.14
770.11	2115.55
770.28	2062.30
770.46	2271.20
770.64	2222.05
770.82	2181.09
770.99	2152.42
771.17	2230.24
771.35	2158.56
771.53	2215.90
771.70	2228.19
771.88	2281.44
772.06	2217.95
772.23	2156.51
772.41	2211.81
772.59	2117.60
772.77	2050.02
772.94	2220.00
773.12	2285.53
773.30	2103.26
773.47	2252.77
773.65	2097.12
773.83	2330.59
774.01	2154.46
774.18	2004.96
774.36	2148.32
774.54	2127.84
774.71	2258.91
774.89	2052.06
775.07	2056.16
775.24	2142.18
775.42	2129.89
775.60	2355.16
775.78	2129.89
775.95	2047.97
776.13	2045.92
776.31	2039.78
776.48	2207.71
776.66	2289.63
776.84	2150.37
777.01	2140.13
777.19	2160.61
777.37	2119.65
777.54	2271.20
777.72	2367.45
777.90	2154.46
778.07	2136.03
778.25	2502.62
778.43	2205.66
778.60	2127.84
778.78	2263.01
778.96	2340.83
779.13	2082.78
779.31	2203.61
779.49	2181.09
779.66	2146.27
779.84	2187.23
780.01	2129.89
780.19	2156.51
780.37	2271.20
780.54	2263.01
780.72	2187.23
780.90	2170.85
781.07	2244.57
781.25	2150.37
781.43	2193.37
781.60	2103.26
781.78	2263.01
781.95	2222.05
782.13	2142.18
782.31	2183.13
782.48	2015.20
782.66	2185.18
782.83	2342.88
783.01	2244.57
783.19	2281.44
783.36	2158.56
783.54	2039.78
783.72	2344.92
783.89	2140.13
784.07	2211.81
784.24	2195.42
784.42	2367.45
784.60	2140.13
784.77	2250.72
784.95	1982.43
785.12	2174.94
785.30	2215.90
785.47	2047.97
785.65	2090.98
785.83	2183.13
786.00	2148.32
786.18	2193.37
786.35	2084.83
786.53	2119.65
786.71	2334.68
786.88	2162.66
787.06	2240.48
787.23	2111.46
787.41	2113.50
787.58	2148.32
787.76	2068.45
787.94	2222.05
788.11	2234.33
788.29	2072.54
788.46	2146.27
788.64	2043.87
788.81	2090.98
788.99	2133.98
789.16	2109.41
789.34	2185.18
789.52	2148.32
789.69	2113.50
789.87	2015.20
790.04	2103.26
790.22	2146.27
790.39	2432.99
790.57	2111.46
790.74	2119.65
790.92	2250.72
791.09	2037.73
791.27	2174.94
791.44	2342.88
791.62	2105.31
791.79	2256.86
791.97	2240.48
792.15	2512.86
792.32	2271.20
792.50	2365.40
792.67	2353.12
792.85	2297.82
793.02	2199.52
793.20	2174.94
793.37	2039.78
793.55	2195.42
793.72	2093.02
793.90	2260.96
794.07	2138.08
794.25	2093.02
794.42	2236.38
794.60	2078.69
794.77	2273.25
794.95	2256.86
795.12	2205.66
795.30	2131.94
795.47	2074.59
795.65	2449.37
795.82	2234.33
796.00	2203.61
796.17	2152.42
796.34	2148.32
796.52	2199.52
796.69	2238.43
796.87	2201.57
797.04	2179.04
797.22	2310.11
797.39	2156.51
797.57	2277.34
797.74	2250.72
797.92	2195.42
798.09	2160.61
798.27	2256.86
798.44	2170.85
798.62	2133.98
798.79	2217.95
798.96	2220.00
799.14	2123.74
799.31	2449.37
799.49	2220.00
799.66	2142.18
799.84	2203.61
800.01	2131.94
800.19	2269.15
800.36	2062.30
800.53	2185.18
800.71	2310.11
800.88	2326.49
801.06	2041.82
801.23	2031.58
801.41	2203.61
801.58	2183.13
801.75	2156.51
801.93	2236.38
802.10	2228.19
802.28	2172.89
802.45	2162.66
802.63	2189.28
802.80	2328.54
802.97	2093.02
803.15	2185.18
803.32	2146.27
803.50	2103.26
803.67	2181.09
803.84	2054.11
804.02	2176.99
804.19	2187.23
804.37	1966.05
804.54	2015.20
804.71	2162.66
804.89	2117.60
805.06	2119.65
805.24	2037.73
805.41	2109.41
805.58	2119.65
805.76	2408.41
805.93	2129.89
806.10	2392.03
806.28	2269.15
806.45	2144.22
806.63	2199.52
806.80	2174.94
806.97	2217.95
807.15	2187.23
807.32	2250.72
807.49	2265.05
807.67	2064.35
807.84	2228.19
808.01	1990.63
808.19	2355.16
808.36	2480.09
808.54	2193.37
808.71	2172.89
808.88	2146.27
809.06	2326.49
809.23	2316.25
809.40	2125.79
809.58	2289.63
809.75	2197.47
809.92	2115.55
810.10	2389.98
810.27	2158.56
810.44	2197.47
810.62	2242.53
810.79	2197.47
810.96	2121.70
811.14	2123.74
811.31	2242.53
811.48	2181.09
811.66	2238.43
811.83	2316.25
812.00	2258.91
812.18	2250.72
812.35	2443.23
812.52	2111.46
812.69	2260.96
812.87	2129.89
813.04	2125.79
813.21	2146.27
813.39	2136.03
813.56	2176.99
813.73	2299.87
813.91	2019.30
814.08	2183.13
814.25	2230.24
814.42	2060.26
814.60	2181.09
814.77	2191.33
814.94	2191.33
815.12	2314.20
815.29	2285.53
815.46	2144.22
815.63	2162.66
815.81	2197.47
815.98	2111.46
816.15	2220.00
816.33	2166.75
816.50	2232.29
816.67	2127.84
816.84	2170.85
817.02	2164.70
817.19	2136.03
817.36	2203.61
817.53	2258.91
817.71	2095.07
817.88	2234.33
818.05	2152.42
818.22	2113.50
818.40	2328.54
818.57	2150.37
818.74	2215.90
818.91	2136.03
819.09	2224.09
819.26	2281.44
819.43	2086.88
819.60	2142.18
819.78	2258.91
819.95	2230.24
820.12	2127.84
820.29	2336.73
820.47	2295.77
820.64	2105.31
820.81	2043.87
820.98	2131.94
821.15	2174.94
821.33	2267.10
821.50	2056.16
821.67	2230.24
821.84	2183.13
822.02	2252.77
822.19	2269.15
822.36	2103.26
822.53	2162.66
822.70	2035.68
822.88	2109.41
823.05	2242.53
823.22	2164.70
823.39	2176.99
823.56	2150.37
823.74	2371.55
823.91	2047.97
824.08	2082.78
824.25	2072.54
824.42	2338.78
824.60	2107.36
824.77	2217.95
824.94	2138.08
825.11	2242.53
825.28	2062.30
825.45	2254.81
825.63	2250.72
825.80	2052.06
825.97	2156.51
826.14	2211.81
826.31	2039.78
826.48	2271.20
826.66	2142.18
826.83	2103.26
827.00	2072.54
827.17	2125.79
827.34	2199.52
827.51	2115.55
827.69	2181.09
827.86	2050.02
828.03	2160.61
828.20	2152.42
828.37	2191.33
828.54	2283.49
828.71	2093.02
828.89	2308.06
829.06	2224.09
829.23	2316.25
829.40	2136.03
829.57	2072.54
829.74	2242.53
829.91	2062.30
830.09	2138.08
830.26	2152.42
830.43	2324.44
830.60	2201.57
830.77	2244.57
830.94	2234.33
831.11	2230.24
831.28	2064.35
831.46	2275.29
831.63	2131.94
831.80	2260.96
831.97	2066.40
832.14	2166.75
832.31	2265.05
832.48	2150.37
832.65	2295.77
832.82	2187.23
832.99	2246.62
833.17	2021.35
833.34	2299.87
833.51	2199.52
833.68	2039.78
833.85	2306.01
834.02	2099.17
834.19	2093.02
834.36	2191.33
834.53	2176.99
834.70	2353.12
834.87	2312.16
835.04	2136.03
835.22	2133.98
835.39	2103.26
835.56	2021.35
835.73	2195.42
835.90	2258.91
836.07	2052.06
836.24	2277.34
836.41	2074.59
836.58	2047.97
836.75	2299.87
836.92	2176.99
837.09	2090.98
837.26	2258.91
837.43	2256.86
837.60	2183.13
837.77	2125.79
837.94	2291.68
838.12	2308.06
838.29	2129.89
838.46	2031.58
838.63	2078.69
838.80	2301.92
838.97	2228.19
839.14	2197.47
839.31	2193.37
839.48	2332.64
839.65	2140.13
839.82	2191.33
839.99	2220.00
840.16	2195.42
840.33	2109.41
840.50	2185.18
840.67	2101.22
840.84	2021.35
841.01	2174.94
841.18	2072.54
841.35	2170.85
841.52	2271.20
841.69	2371.55
841.86	2197.47
842.03	2146.27
842.20	2240.48
842.37	2142.18
842.54	2185.18
842.71	2213.85
842.88	2095.07
843.05	2119.65
843.22	2174.94
843.39	2299.87
843.56	2078.69
843.73	2203.61
843.90	2181.09
844.07	2181.09
844.24	2185.18
844.41	2224.09
844.58	2222.05
844.75	2162.66
844.92	2260.96
845.09	2248.67
845.26	2058.21
845.43	2297.82
845.60	2260.96
845.77	2246.62
845.94	2152.42
846.10	2340.83
846.27	2119.65
846.44	2070.50
846.61	2101.22
846.78	2256.86
846.95	2254.81
847.12	2115.55
847.29	2168.80
847.46	2088.93
847.63	2283.49
847.80	2113.50
847.97	2142.18
848.14	2469.85
848.31	2215.90
848.48	2062.30
848.65	2211.81
848.82	2146.27
848.98	2478.04
849.15	2254.81
849.32	2217.95
849.49	2281.44
849.66	2136.03
849.83	2195.42
850.00	2037.73
850.17	2285.53
850.34	2230.24
850.51	2072.54
850.68	2123.74
850.85	2340.83
851.01	2168.80
851.18	2146.27
851.35	2125.79
851.52	2213.85
851.69	2310.11
851.86	2095.07
852.03	2121.70
852.20	2260.96
852.37	2238.43
852.53	2090.98
852.70	2160.61
852.87	2260.96
853.04	2207.71
853.21	2179.04
853.38	2220.00
853.55	2310.11
853.72	2287.58
853.89	2088.93
854.05	2136.03
854.22	2113.50
854.39	2119.65
854.56	2185.18
854.73	2211.81
854.90	2129.89
855.07	2242.53
855.23	2090.98
855.40	2176.99
855.57	2185.18
855.74	2062.30
855.91	2346.97
856.08	2039.78
856.25	2082.78
856.41	2109.41
856.58	2113.50
856.75	2164.70
856.92	2072.54
857.09	2291.68
857.26	2035.68
857.42	2166.75
857.59	2297.82
857.76	2154.46
857.93	2127.84
858.10	2199.52
858.27	2125.79
858.43	2224.09
858.60	2086.88
858.77	2043.87
858.94	2160.61
859.11	2322.40
859.27	2197.47
859.44	2150.37
859.61	2314.20
859.78	2236.38
859.95	2133.98
860.12	2080.74
860.28	2379.74
860.45	2318.30
860.62	2095.07
860.79	2193.37
860.95	2142.18
861.12	2142.18
861.29	2070.50
861.46	2187.23
861.63	2201.57
861.79	2232.29
861.96	2064.35
862.13	2111.46
862.30	2271.20
862.47	2131.94
862.63	2129.89
862.80	2162.66
862.97	2324.44
863.14	2244.57
863.30	2138.08
863.47	2136.03
863.64	2314.20
863.81	2244.57
863.97	2123.74
864.14	2103.26
864.31	2211.81
864.48	2162.66
864.65	2166.75
864.81	2246.62
864.98	2254.81
865.15	2297.82
865.32	2242.53
865.48	2220.00
865.65	2301.92
865.82	2121.70
865.98	2205.66
866.15	2228.19
866.32	2201.57
866.49	2160.61
866.65	2215.90
866.82	2119.65
866.99	2162.66
867.16	2066.40
867.32	2166.75
867.49	2056.16
867.66	2181.09
867.83	2150.37
867.99	2076.64
868.16	2181.09
868.33	2152.42
868.49	2183.13
868.66	2058.21
868.83	2248.67
868.99	2179.04
869.16	2158.56
869.33	2273.25
869.50	2205.66
869.66	2176.99
869.83	2138.08
870.00	2097.12
870.16	2242.53
870.33	2168.80
870.50	2195.42
870.66	2162.66
870.83	2269.15
871.00	2234.33
871.17	2215.90
871.33	2222.05
871.50	2111.46
871.67	2162.66
871.83	2031.58
872.00	2332.64
872.17	2117.60
872.33	2346.97
872.50	2281.44
872.67	2179.04
872.83	2203.61
873.00	2197.47
873.17	2109.41
873.33	2193.37
873.50	2228.19
873.67	2103.26
873.83	2103.26
874.00	2158.56
874.16	2285.53
874.33	2181.09
874.50	2099.17
874.66	2119.65
874.83	2193.37
875.00	2244.57
875.16	2322.40
875.33	2236.38
875.50	2029.54
875.66	2088.93
875.83	2252.77
875.99	2217.95
876.16	2146.27
876.33	2123.74
876.49	2168.80
876.66	2211.81
876.83	2162.66
876.99	2004.96
877.16	2148.32
877.32	2142.18
877.49	2144.22
877.66	2230.24
877.82	2306.01
877.99	2207.71
878.15	2258.91
878.32	2207.71
878.49	2310.11
878.65	2162.66
878.82	2246.62
878.98	2113.50
879.15	2269.15
879.32	2258.91
879.48	2265.05
879.65	2150.37
879.81	2146.27
879.98	2146.27
880.15	2146.27
880.31	2344.92
880.48	2086.88
880.64	2236.38
880.81	2240.48
880.97	2297.82
881.14	2228.19
881.31	2095.07
881.47	2351.07
881.64	2168.80
881.80	2101.22
881.97	2191.33
882.13	2166.75
882.30	2129.89
882.47	2220.00
882.63	2062.30
882.80	2125.79
882.96	2103.26
883.13	2205.66
883.29	2242.53
883.46	2109.41
883.62	2336.73
883.79	2152.42
883.95	2166.75
884.12	2197.47
884.29	2303.96
884.45	2119.65
884.62	2238.43
884.78	2127.84
884.95	2306.01
885.11	2170.85
885.28	2269.15
885.44	2183.13
885.61	2334.68
885.77	2402.27
885.94	2207.71
886.10	2183.13
886.27	2236.38
886.43	2359.26
886.60	2301.92
886.76	2152.42
886.93	2181.09
887.09	2162.66
887.26	1918.95
887.42	2162.66
887.59	2297.82
887.75	2396.12
887.92	2283.49
888.08	2205.66
888.25	2299.87
888.41	2205.66
888.58	2127.84
888.74	2088.93
888.91	2150.37
>>>>>End Processed Spectral Data<<<<<
