SpectraSuite Data File
++++++++++++++++++++++++++++++++++++
Date: Thu May 05 12:35:07 CEST 2016
User: root
Dark Spectrum Present: No
Reference Spectrum Present: No
Number of Sampled Component Spectra: 1
Spectrometers: USB4C02835
Integration Time (usec): 100000 (USB4C02835)
Spectra Averaged: 1 (USB4C02835)
Boxcar Smoothing: 0 (USB4C02835)
Correct for Electrical Dark: No (USB4C02835)
Strobe/Lamp Enabled: No (USB4C02835)
Correct for Detector Non-linearity: No (USB4C02835)
Correct for Stray Light: No (USB4C02835)
Number of Pixels in Processed Spectrum: 3648
>>>>>Begin Processed Spectral Data<<<<<
177.47	1814.50
177.69	1814.50
177.91	1814.50
178.13	1693.67
178.36	1753.06
178.58	2064.35
178.80	2183.13
179.02	2084.83
179.24	2029.54
179.46	2127.84
179.68	2174.94
179.90	2176.99
180.13	2117.60
180.35	1966.05
180.57	2060.26
180.79	2308.06
181.01	2174.94
181.23	2260.96
181.45	2238.43
181.67	2248.67
181.90	2209.76
182.12	2127.84
182.34	2047.97
182.56	2250.72
182.78	2203.61
183.00	2103.26
183.22	2129.89
183.44	2060.26
183.66	2482.14
183.89	2283.49
184.11	2179.04
184.33	2295.77
184.55	2254.81
184.77	2105.31
184.99	2166.75
185.21	2158.56
185.43	2392.03
185.65	2101.22
185.87	2121.70
186.10	2408.41
186.32	2422.75
186.54	2195.42
186.76	2238.43
186.98	2289.63
187.20	2142.18
187.42	2119.65
187.64	2144.22
187.86	2146.27
188.08	2265.05
188.30	2123.74
188.52	2142.18
188.75	2332.64
188.97	2295.77
189.19	2068.45
189.41	2072.54
189.63	2220.00
189.85	2103.26
190.07	2035.68
190.29	1994.72
190.51	2226.14
190.73	2131.94
190.95	2109.41
191.17	2154.46
191.39	2115.55
191.61	2189.28
191.84	2158.56
192.06	2240.48
192.28	2072.54
192.50	2408.41
192.72	2142.18
192.94	2121.70
193.16	2338.78
193.38	2277.34
193.60	2064.35
193.82	2086.88
194.04	2351.07
194.26	2222.05
194.48	2072.54
194.70	2035.68
194.92	2066.40
195.14	2244.57
195.36	2088.93
195.58	2123.74
195.80	2205.66
196.02	2168.80
196.24	2127.84
196.46	2209.76
196.69	2140.13
196.91	2453.47
197.13	2148.32
197.35	2150.37
197.57	2324.44
197.79	2328.54
198.01	2125.79
198.23	2146.27
198.45	2273.25
198.67	2074.59
198.89	2080.74
199.11	2258.91
199.33	2097.12
199.55	2031.58
199.77	2146.27
199.99	2228.19
200.21	2195.42
200.43	2176.99
200.65	1992.67
200.87	2025.44
201.09	2129.89
201.31	2166.75
201.53	2154.46
201.75	2170.85
201.97	2265.05
202.19	2131.94
202.41	2113.50
202.63	2283.49
202.85	2263.01
203.07	2222.05
203.29	2105.31
203.51	2052.06
203.73	2179.04
203.95	2445.27
204.17	2236.38
204.39	2156.51
204.61	2181.09
204.83	2154.46
205.05	2205.66
205.27	2162.66
205.49	2428.89
205.71	2181.09
205.93	2076.64
206.15	2105.31
206.37	2170.85
206.59	2191.33
206.81	2123.74
207.03	2093.02
207.25	2138.08
207.47	2246.62
207.69	2115.55
207.91	2318.30
208.13	2301.92
208.34	2162.66
208.56	2090.98
208.78	2127.84
209.00	2136.03
209.22	2105.31
209.44	2099.17
209.66	2099.17
209.88	2154.46
210.10	2107.36
210.32	2125.79
210.54	2207.71
210.76	2209.76
210.98	2267.10
211.20	2031.58
211.42	2220.00
211.64	2293.72
211.86	2244.57
212.08	2105.31
212.30	2097.12
212.52	2195.42
212.74	2211.81
212.96	2174.94
213.17	2203.61
213.39	2240.48
213.61	2330.59
213.83	2195.42
214.05	2199.52
214.27	2289.63
214.49	2064.35
214.71	2105.31
214.93	2211.81
215.15	2220.00
215.37	2265.05
215.59	2047.97
215.81	2195.42
216.03	2269.15
216.24	2170.85
216.46	2146.27
216.68	2232.29
216.90	2299.87
217.12	2291.68
217.34	2066.40
217.56	2185.18
217.78	2357.21
218.00	2238.43
218.22	2195.42
218.44	2181.09
218.66	2275.29
218.87	2349.02
219.09	2140.13
219.31	2265.05
219.53	2220.00
219.75	2125.79
219.97	2062.30
220.19	2176.99
220.41	2207.71
220.63	2334.68
220.85	2246.62
221.06	2101.22
221.28	2299.87
221.50	2279.39
221.72	2133.98
221.94	2105.31
222.16	2193.37
222.38	2344.92
222.60	2156.51
222.82	2125.79
223.03	2349.02
223.25	2097.12
223.47	2201.57
223.69	2246.62
223.91	2213.85
224.13	2176.99
224.35	2074.59
224.57	2244.57
224.78	2260.96
225.00	2080.74
225.22	2170.85
225.44	2068.45
225.66	2238.43
225.88	2160.61
226.10	2209.76
226.32	2060.26
226.53	2316.25
226.75	2084.83
226.97	2099.17
227.19	2129.89
227.41	2144.22
227.63	2080.74
227.85	2015.20
228.06	2138.08
228.28	2228.19
228.50	2254.81
228.72	2015.20
228.94	2080.74
229.16	2039.78
229.37	2080.74
229.59	2072.54
229.81	2168.80
230.03	2156.51
230.25	2062.30
230.47	2029.54
230.69	2017.25
230.90	2230.24
231.12	2125.79
231.34	2176.99
231.56	2191.33
231.78	2088.93
232.00	2199.52
232.21	2240.48
232.43	2138.08
232.65	1992.67
232.87	2277.34
233.09	2111.46
233.30	2152.42
233.52	2320.35
233.74	2121.70
233.96	2095.07
234.18	2164.70
234.40	2193.37
234.61	2306.01
234.83	2035.68
235.05	2033.63
235.27	2387.93
235.49	2293.72
235.70	2086.88
235.92	2230.24
236.14	2250.72
236.36	2410.46
236.58	2047.97
236.79	2193.37
237.01	2222.05
237.23	2176.99
237.45	2318.30
237.67	2119.65
237.88	2203.61
238.10	2430.94
238.32	2099.17
238.54	2113.50
238.76	2170.85
238.97	2154.46
239.19	2047.97
239.41	2164.70
239.63	2289.63
239.85	2144.22
240.06	2164.70
240.28	2090.98
240.50	2289.63
240.72	2191.33
240.93	2090.98
241.15	2174.94
241.37	2131.94
241.59	2289.63
241.81	2172.89
242.02	2113.50
242.24	2220.00
242.46	2267.10
242.68	2047.97
242.89	2144.22
243.11	2285.53
243.33	2215.90
243.55	2146.27
243.76	2150.37
243.98	2113.50
244.20	2207.71
244.42	2131.94
244.64	2172.89
244.85	2080.74
245.07	2084.83
245.29	2234.33
245.51	2105.31
245.72	2170.85
245.94	2258.91
246.16	2146.27
246.38	2154.46
246.59	2093.02
246.81	2136.03
247.03	2109.41
247.24	2050.02
247.46	2176.99
247.68	2197.47
247.90	2047.97
248.11	2113.50
248.33	2228.19
248.55	2240.48
248.77	2176.99
248.98	2166.75
249.20	2342.88
249.42	2273.25
249.64	2197.47
249.85	2197.47
250.07	2191.33
250.29	2283.49
250.50	2201.57
250.72	2002.91
250.94	2226.14
251.16	2453.47
251.37	2220.00
251.59	2162.66
251.81	2228.19
252.02	2404.32
252.24	2097.12
252.46	2222.05
252.68	2056.16
252.89	2074.59
253.11	1986.53
253.33	2330.59
253.54	2349.02
253.76	2107.36
253.98	2154.46
254.20	2070.50
254.41	2101.22
254.63	2197.47
254.85	2086.88
255.06	2146.27
255.28	2260.96
255.50	2111.46
255.71	2088.93
255.93	2035.68
256.15	2152.42
256.36	2277.34
256.58	2095.07
256.80	2111.46
257.02	2136.03
257.23	2066.40
257.45	2179.04
257.67	2217.95
257.88	2168.80
258.10	2199.52
258.32	2127.84
258.53	2224.09
258.75	2312.16
258.97	2140.13
259.18	2131.94
259.40	2035.68
259.62	2316.25
259.83	2326.49
260.05	2195.42
260.27	2621.40
260.48	2265.05
260.70	2062.30
260.92	2170.85
261.13	2203.61
261.35	2170.85
261.57	2242.53
261.78	2064.35
262.00	1982.43
262.22	2195.42
262.43	2170.85
262.65	2105.31
262.86	2070.50
263.08	2490.33
263.30	2166.75
263.51	1970.15
263.73	2142.18
263.95	2338.78
264.16	2060.26
264.38	2043.87
264.60	2187.23
264.81	2224.09
265.03	2271.20
265.25	2271.20
265.46	2062.30
265.68	2359.26
265.89	2238.43
266.11	2029.54
266.33	2166.75
266.54	2316.25
266.76	2183.13
266.98	2197.47
267.19	2164.70
267.41	2351.07
267.62	2197.47
267.84	1990.63
268.06	2166.75
268.27	2207.71
268.49	2324.44
268.70	2260.96
268.92	2179.04
269.14	2172.89
269.35	2113.50
269.57	2185.18
269.79	2230.24
270.00	2176.99
270.22	2334.68
270.43	2101.22
270.65	2113.50
270.87	2222.05
271.08	2291.68
271.30	2129.89
271.51	2127.84
271.73	2238.43
271.95	2312.16
272.16	2146.27
272.38	2242.53
272.59	2146.27
272.81	2179.04
273.02	2125.79
273.24	2234.33
273.46	2365.40
273.67	2121.70
273.89	2113.50
274.10	2111.46
274.32	2248.67
274.54	2232.29
274.75	2146.27
274.97	2156.51
275.18	2346.97
275.40	2201.57
275.61	2142.18
275.83	2217.95
276.05	2103.26
276.26	2172.89
276.48	2228.19
276.69	2144.22
276.91	2115.55
277.12	2269.15
277.34	2179.04
277.55	2240.48
277.77	2252.77
277.99	2131.94
278.20	2074.59
278.42	2013.15
278.63	2129.89
278.85	2101.22
279.06	2064.35
279.28	2242.53
279.49	2295.77
279.71	2224.09
279.93	2131.94
280.14	2136.03
280.36	2146.27
280.57	2267.10
280.79	2267.10
281.00	2056.16
281.22	2111.46
281.43	2349.02
281.65	1996.77
281.86	2109.41
282.08	2187.23
282.29	2349.02
282.51	2070.50
282.73	2043.87
282.94	2076.64
283.16	2258.91
283.37	2263.01
283.59	2205.66
283.80	2295.77
284.02	2291.68
284.23	2117.60
284.45	2183.13
284.66	2123.74
284.88	2101.22
285.09	2160.61
285.31	2246.62
285.52	2256.86
285.74	2080.74
285.95	2306.01
286.17	2207.71
286.38	2271.20
286.60	2043.87
286.81	2117.60
287.03	2172.89
287.24	2142.18
287.46	2283.49
287.67	2125.79
287.89	2359.26
288.10	2144.22
288.32	2150.37
288.53	2338.78
288.75	2158.56
288.96	2250.72
289.18	2052.06
289.39	2179.04
289.61	2179.04
289.82	2306.01
290.04	2447.32
290.25	2080.74
290.47	2183.13
290.68	2215.90
290.90	2254.81
291.11	2041.82
291.33	2254.81
291.54	2047.97
291.76	2129.89
291.97	2220.00
292.18	2211.81
292.40	2121.70
292.61	2162.66
292.83	2408.41
293.04	2269.15
293.26	2260.96
293.47	2097.12
293.69	2129.89
293.90	2220.00
294.12	2334.68
294.33	2183.13
294.55	2191.33
294.76	2240.48
294.97	2301.92
295.19	2375.64
295.40	2164.70
295.62	2224.09
295.83	2244.57
296.05	2166.75
296.26	2301.92
296.48	2090.98
296.69	2142.18
296.90	2160.61
297.12	2244.57
297.33	2263.01
297.55	2183.13
297.76	2230.24
297.98	2308.06
298.19	2193.37
298.41	2209.76
298.62	2037.73
298.83	2269.15
299.05	2316.25
299.26	2166.75
299.48	2152.42
299.69	2232.29
299.90	2131.94
300.12	2113.50
300.33	2183.13
300.55	2226.14
300.76	2283.49
300.98	2062.30
301.19	2246.62
301.40	2148.32
301.62	2093.02
301.83	2260.96
302.05	2236.38
302.26	2232.29
302.47	2213.85
302.69	2084.83
302.90	2181.09
303.12	1998.82
303.33	2170.85
303.54	2428.89
303.76	2113.50
303.97	2187.23
304.19	2334.68
304.40	2047.97
304.61	2295.77
304.83	2289.63
305.04	2293.72
305.26	2297.82
305.47	2146.27
305.68	2158.56
305.90	2144.22
306.11	2326.49
306.33	2121.70
306.54	2129.89
306.75	2084.83
306.97	2056.16
307.18	2082.78
307.39	2160.61
307.61	2322.40
307.82	2234.33
308.04	2246.62
308.25	2142.18
308.46	2265.05
308.68	2176.99
308.89	2111.46
309.10	2281.44
309.32	2181.09
309.53	2170.85
309.74	2240.48
309.96	2168.80
310.17	2308.06
310.39	2170.85
310.60	2191.33
310.81	2197.47
311.03	2025.44
311.24	2269.15
311.45	2283.49
311.67	2318.30
311.88	2123.74
312.09	2170.85
312.31	2144.22
312.52	2226.14
312.73	2197.47
312.95	2031.58
313.16	2133.98
313.37	2215.90
313.59	2195.42
313.80	2289.63
314.01	2306.01
314.23	2129.89
314.44	2088.93
314.65	2111.46
314.87	2164.70
315.08	2187.23
315.29	2191.33
315.51	2121.70
315.72	2011.11
315.93	2260.96
316.15	2154.46
316.36	2113.50
316.57	2220.00
316.79	2152.42
317.00	2150.37
317.21	2168.80
317.43	2119.65
317.64	2252.77
317.85	2074.59
318.07	2113.50
318.28	2207.71
318.49	2359.26
318.70	2443.23
318.92	2377.69
319.13	2424.80
319.34	2361.31
319.56	2314.20
319.77	2308.06
319.98	2297.82
320.20	2342.88
320.41	2250.72
320.62	2332.64
320.83	2121.70
321.05	2314.20
321.26	2205.66
321.47	2228.19
321.69	2306.01
321.90	2066.40
322.11	2113.50
322.32	2267.10
322.54	2254.81
322.75	2127.84
322.96	2504.67
323.18	2097.12
323.39	2035.68
323.60	2068.45
323.81	2215.90
324.03	2095.07
324.24	2224.09
324.45	2168.80
324.66	2232.29
324.88	2291.68
325.09	2373.60
325.30	2166.75
325.52	2154.46
325.73	2283.49
325.94	2088.93
326.15	1996.77
326.37	2123.74
326.58	2228.19
326.79	2379.74
327.00	2070.50
327.22	2207.71
327.43	2113.50
327.64	2174.94
327.85	2248.67
328.07	2275.29
328.28	2383.84
328.49	2138.08
328.70	2228.19
328.92	2176.99
329.13	2166.75
329.34	2236.38
329.55	2406.36
329.76	2246.62
329.98	2187.23
330.19	2254.81
330.40	2203.61
330.61	2236.38
330.83	2310.11
331.04	2119.65
331.25	2252.77
331.46	2131.94
331.68	2050.02
331.89	2224.09
332.10	2121.70
332.31	2115.55
332.52	2193.37
332.74	2260.96
332.95	2080.74
333.16	2160.61
333.37	2211.81
333.58	2129.89
333.80	2172.89
334.01	2033.63
334.22	2140.13
334.43	2176.99
334.64	2152.42
334.86	2007.01
335.07	2070.50
335.28	2340.83
335.49	2068.45
335.70	2215.90
335.92	2252.77
336.13	2357.21
336.34	2220.00
336.55	2146.27
336.76	2248.67
336.98	2027.49
337.19	2191.33
337.40	2314.20
337.61	2432.99
337.82	2215.90
338.04	2308.06
338.25	2105.31
338.46	2277.34
338.67	2201.57
338.88	2103.26
339.09	2043.87
339.31	2129.89
339.52	2142.18
339.73	2023.39
339.94	2224.09
340.15	2193.37
340.36	2125.79
340.58	2228.19
340.79	2103.26
341.00	2265.05
341.21	2097.12
341.42	2435.03
341.63	2138.08
341.85	2252.77
342.06	2154.46
342.27	2074.59
342.48	2213.85
342.69	2099.17
342.90	2320.35
343.12	2322.40
343.33	2066.40
343.54	2252.77
343.75	2312.16
343.96	2121.70
344.17	2154.46
344.38	2179.04
344.60	2146.27
344.81	2123.74
345.02	2183.13
345.23	2410.46
345.44	2461.66
345.65	2152.42
345.86	2203.61
346.07	2263.01
346.29	2121.70
346.50	2322.40
346.71	2252.77
346.92	2281.44
347.13	2457.56
347.34	2207.71
347.55	2082.78
347.76	2203.61
347.98	1990.63
348.19	2146.27
348.40	2244.57
348.61	2179.04
348.82	2273.25
349.03	2269.15
349.24	2111.46
349.45	2324.44
349.66	2002.91
349.88	2211.81
350.09	2117.60
350.30	2340.83
350.51	2308.06
350.72	2244.57
350.93	2183.13
351.14	2095.07
351.35	2273.25
351.56	2164.70
351.77	2174.94
351.99	2252.77
352.20	2353.12
352.41	2207.71
352.62	2052.06
352.83	2215.90
353.04	2174.94
353.25	2174.94
353.46	2244.57
353.67	2258.91
353.88	2035.68
354.09	2160.61
354.30	2179.04
354.52	2271.20
354.73	2224.09
354.94	2117.60
355.15	2150.37
355.36	2389.98
355.57	2256.86
355.78	2179.04
355.99	2097.12
356.20	2097.12
356.41	2359.26
356.62	2291.68
356.83	2207.71
357.04	2338.78
357.25	2019.30
357.46	2162.66
357.68	2000.87
357.89	2113.50
358.10	2199.52
358.31	2234.33
358.52	2181.09
358.73	2080.74
358.94	2056.16
359.15	2156.51
359.36	2224.09
359.57	2125.79
359.78	2189.28
359.99	2234.33
360.20	2129.89
360.41	2236.38
360.62	2232.29
360.83	2240.48
361.04	2211.81
361.25	2246.62
361.46	2297.82
361.67	2248.67
361.88	2226.14
362.09	2332.64
362.30	2236.38
362.51	2158.56
362.72	2226.14
362.93	2263.01
363.14	2234.33
363.35	2199.52
363.56	2117.60
363.78	2373.60
363.99	2275.29
364.20	2146.27
364.41	2246.62
364.62	2396.12
364.83	2203.61
365.04	2207.71
365.25	2136.03
365.46	2383.84
365.67	2129.89
365.88	2164.70
366.09	2181.09
366.30	2097.12
366.51	2179.04
366.72	2088.93
366.93	2236.38
367.14	2228.19
367.35	2308.06
367.56	2125.79
367.77	2316.25
367.98	2236.38
368.18	2299.87
368.39	2242.53
368.60	2039.78
368.81	2299.87
369.02	2211.81
369.23	2195.42
369.44	2021.35
369.65	2125.79
369.86	2248.67
370.07	2254.81
370.28	2111.46
370.49	2238.43
370.70	2205.66
370.91	2097.12
371.12	2086.88
371.33	2344.92
371.54	2131.94
371.75	2301.92
371.96	2041.82
372.17	2176.99
372.38	2138.08
372.59	2234.33
372.80	2086.88
373.01	2181.09
373.22	2267.10
373.43	2207.71
373.64	2072.54
373.85	2369.50
374.06	2361.31
374.26	2193.37
374.47	2248.67
374.68	2359.26
374.89	2193.37
375.10	2146.27
375.31	2238.43
375.52	2228.19
375.73	2187.23
375.94	2060.26
376.15	2383.84
376.36	2142.18
376.57	2052.06
376.78	2179.04
376.99	2183.13
377.20	2277.34
377.40	2158.56
377.61	2351.07
377.82	2105.31
378.03	2318.30
378.24	2267.10
378.45	2222.05
378.66	2183.13
378.87	2097.12
379.08	2041.82
379.29	2174.94
379.50	2308.06
379.71	2183.13
379.91	2213.85
380.12	2187.23
380.33	2213.85
380.54	2179.04
380.75	2162.66
380.96	2125.79
381.17	2228.19
381.38	2176.99
381.59	2265.05
381.80	2252.77
382.00	2355.16
382.21	2242.53
382.42	2394.08
382.63	2457.56
382.84	2308.06
383.05	2314.20
383.26	2478.04
383.47	2254.81
383.68	2176.99
383.88	2238.43
384.09	2224.09
384.30	2385.88
384.51	2285.53
384.72	2125.79
384.93	2041.82
385.14	2256.86
385.35	2316.25
385.55	2056.16
385.76	2328.54
385.97	2176.99
386.18	2072.54
386.39	2074.59
386.60	2201.57
386.81	2158.56
387.02	2185.18
387.22	2072.54
387.43	2263.01
387.64	2349.02
387.85	2412.51
388.06	2420.70
388.27	4011.97
388.48	8785.79
388.68	12324.68
388.89	14747.42
389.10	16078.60
389.31	14925.60
389.52	11460.43
389.73	9858.92
389.93	8994.68
390.14	8292.23
390.35	7366.54
390.56	6563.74
390.77	5492.65
390.98	4218.82
391.18	3274.70
391.39	2756.57
391.60	2330.59
391.81	2334.68
392.02	2238.43
392.23	2465.75
392.43	2303.96
392.64	2277.34
392.85	2201.57
393.06	2359.26
393.27	2281.44
393.47	2080.74
393.68	2199.52
393.89	2256.86
394.10	2334.68
394.31	2160.61
394.52	2152.42
394.72	2168.80
394.93	2375.64
395.14	2080.74
395.35	2258.91
395.56	2129.89
395.76	2205.66
395.97	2293.72
396.18	2277.34
396.39	2275.29
396.60	2738.13
396.80	2424.80
397.01	2500.57
397.22	2258.91
397.43	2402.27
397.64	2090.98
397.84	2209.76
398.05	2535.39
398.26	2164.70
398.47	2359.26
398.67	2297.82
398.88	2158.56
399.09	2220.00
399.30	2127.84
399.51	2217.95
399.71	2109.41
399.92	2240.48
400.13	2205.66
400.34	2144.22
400.54	2209.76
400.75	2402.27
400.96	2224.09
401.17	2310.11
401.37	2267.10
401.58	2267.10
401.79	2203.61
402.00	2289.63
402.21	2684.89
402.41	2523.10
402.62	2621.40
402.83	2621.40
403.04	2660.31
403.24	2779.09
403.45	2387.93
403.66	2457.56
403.87	2365.40
404.07	2498.52
404.28	2492.38
404.49	2500.57
404.70	2291.68
404.90	2336.73
405.11	2226.14
405.32	2211.81
405.52	2179.04
405.73	2103.26
405.94	2129.89
406.15	2195.42
406.35	2238.43
406.56	2269.15
406.77	2209.76
406.98	2263.01
407.18	2150.37
407.39	2322.40
407.60	2140.13
407.80	2195.42
408.01	2162.66
408.22	2228.19
408.43	2127.84
408.63	2207.71
408.84	2238.43
409.05	2291.68
409.25	2158.56
409.46	2121.70
409.67	2154.46
409.88	2142.18
410.08	2201.57
410.29	2103.26
410.50	2244.57
410.70	2260.96
410.91	2152.42
411.12	2199.52
411.32	2162.66
411.53	2095.07
411.74	2240.48
411.95	2283.49
412.15	2301.92
412.36	2310.11
412.57	2289.63
412.77	2336.73
412.98	2215.90
413.19	2164.70
413.39	2242.53
413.60	2199.52
413.81	2295.77
414.01	2129.89
414.22	2234.33
414.43	2312.16
414.63	2277.34
414.84	2283.49
415.05	2258.91
415.25	1982.43
415.46	2281.44
415.67	2176.99
415.87	2244.57
416.08	2224.09
416.29	2199.52
416.49	2267.10
416.70	2127.84
416.91	2166.75
417.11	2224.09
417.32	2316.25
417.53	2291.68
417.73	2228.19
417.94	2209.76
418.15	2275.29
418.35	2156.51
418.56	2201.57
418.77	2363.36
418.97	2187.23
419.18	2209.76
419.38	2019.30
419.59	2205.66
419.80	2363.36
420.00	2156.51
420.21	2183.13
420.42	2308.06
420.62	2107.36
420.83	2097.12
421.04	2158.56
421.24	2215.90
421.45	2281.44
421.65	2344.92
421.86	2166.75
422.07	2246.62
422.27	2316.25
422.48	2174.94
422.69	2136.03
422.89	2215.90
423.10	2211.81
423.30	2027.49
423.51	2244.57
423.72	2287.58
423.92	2301.92
424.13	2052.06
424.33	2197.47
424.54	2336.73
424.75	2224.09
424.95	2281.44
425.16	2273.25
425.36	2211.81
425.57	2299.87
425.78	2287.58
425.98	2217.95
426.19	2148.32
426.39	2099.17
426.60	2193.37
426.81	2338.78
427.01	2121.70
427.22	2097.12
427.42	2035.68
427.63	2142.18
427.83	2252.77
428.04	2269.15
428.25	2303.96
428.45	2236.38
428.66	2310.11
428.86	2121.70
429.07	2154.46
429.28	2172.89
429.48	2133.98
429.69	2090.98
429.89	2156.51
430.10	2111.46
430.30	2248.67
430.51	2293.72
430.71	2138.08
430.92	2195.42
431.13	2127.84
431.33	2287.58
431.54	2222.05
431.74	2324.44
431.95	2381.79
432.15	2050.02
432.36	2185.18
432.56	2281.44
432.77	2322.40
432.98	2428.89
433.18	2250.72
433.39	2250.72
433.59	2191.33
433.80	2420.70
434.00	2373.60
434.21	2183.13
434.41	2131.94
434.62	2420.70
434.82	2113.50
435.03	2072.54
435.23	2267.10
435.44	2021.35
435.64	2156.51
435.85	2281.44
436.06	2332.64
436.26	2289.63
436.47	2125.79
436.67	2176.99
436.88	2195.42
437.08	2281.44
437.29	2389.98
437.49	2211.81
437.70	2326.49
437.90	2279.39
438.11	2312.16
438.31	2281.44
438.52	2428.89
438.72	2396.12
438.93	2488.28
439.13	2316.25
439.34	2306.01
439.54	2185.18
439.75	2310.11
439.95	2277.34
440.16	2113.50
440.36	2220.00
440.57	2248.67
440.77	2170.85
440.98	2283.49
441.18	2353.12
441.39	2156.51
441.59	2162.66
441.80	2406.36
442.00	2185.18
442.21	2308.06
442.41	2093.02
442.62	2344.92
442.82	2146.27
443.02	2209.76
443.23	2199.52
443.43	2144.22
443.64	2373.60
443.84	2115.55
444.05	2342.88
444.25	2213.85
444.46	2166.75
444.66	2191.33
444.87	2271.20
445.07	2093.02
445.28	2160.61
445.48	2283.49
445.69	2240.48
445.89	2514.91
446.09	2281.44
446.30	2475.99
446.50	2779.09
446.71	4446.14
446.91	5529.52
447.12	6551.45
447.32	6760.34
447.53	6309.79
447.73	5242.80
447.93	4532.15
448.14	4261.82
448.34	4181.95
448.55	3504.07
448.75	3581.90
448.96	3446.73
449.16	3000.27
449.36	2846.68
449.57	2498.52
449.77	2383.84
449.98	2217.95
450.18	2342.88
450.39	2279.39
450.59	2260.96
450.79	2226.14
451.00	2133.98
451.20	2283.49
451.41	2217.95
451.61	2240.48
451.81	2164.70
452.02	2140.13
452.22	2236.38
452.43	2174.94
452.63	2158.56
452.84	2166.75
453.04	2121.70
453.24	2199.52
453.45	2254.81
453.65	2187.23
453.86	2217.95
454.06	2293.72
454.26	2228.19
454.47	2119.65
454.67	2281.44
454.87	2285.53
455.08	2211.81
455.28	2336.73
455.49	2166.75
455.69	2162.66
455.89	2525.15
456.10	2308.06
456.30	2179.04
456.51	2322.40
456.71	2224.09
456.91	2234.33
457.12	2183.13
457.32	2256.86
457.52	2150.37
457.73	2273.25
457.93	2338.78
458.14	2215.90
458.34	2133.98
458.54	2187.23
458.75	2181.09
458.95	2324.44
459.15	2240.48
459.36	2254.81
459.56	2193.37
459.76	2424.80
459.97	2258.91
460.17	2277.34
460.37	2232.29
460.58	2297.82
460.78	2283.49
460.99	2183.13
461.19	2226.14
461.39	2187.23
461.60	2238.43
461.80	2269.15
462.00	2129.89
462.21	2121.70
462.41	2224.09
462.61	2140.13
462.82	2095.07
463.02	2277.34
463.22	2164.70
463.43	2328.54
463.63	2252.77
463.83	2351.07
464.04	2260.96
464.24	2176.99
464.44	2133.98
464.64	2131.94
464.85	2295.77
465.05	2291.68
465.25	2172.89
465.46	2121.70
465.66	2236.38
465.86	2322.40
466.07	2189.28
466.27	2224.09
466.47	2115.55
466.68	2101.22
466.88	2365.40
467.08	2228.19
467.29	2297.82
467.49	2283.49
467.69	2220.00
467.89	2267.10
468.10	2189.28
468.30	2220.00
468.50	2336.73
468.71	2365.40
468.91	2056.16
469.11	2330.59
469.31	2242.53
469.52	2158.56
469.72	2396.12
469.92	2367.45
470.13	2232.29
470.33	2209.76
470.53	2351.07
470.73	2662.36
470.94	3104.72
471.14	3252.17
471.34	3514.31
471.54	3473.36
471.75	3080.14
471.95	2893.78
472.15	2801.62
472.36	2744.28
472.56	2709.46
472.76	2707.41
472.96	2596.82
473.17	2480.09
473.37	2451.42
473.57	2324.44
473.77	2332.64
473.98	2203.61
474.18	2191.33
474.38	2457.56
474.58	2160.61
474.79	2203.61
474.99	2240.48
475.19	2314.20
475.39	2084.83
475.60	2324.44
475.80	2162.66
476.00	2207.71
476.20	2162.66
476.41	2230.24
476.61	2299.87
476.81	2308.06
477.01	2162.66
477.21	2342.88
477.42	2330.59
477.62	2093.02
477.82	2277.34
478.02	2144.22
478.23	2263.01
478.43	2117.60
478.63	2170.85
478.83	2248.67
479.03	2152.42
479.24	2310.11
479.44	2336.73
479.64	2129.89
479.84	2084.83
480.04	2181.09
480.25	2299.87
480.45	2113.50
480.65	2207.71
480.85	2363.36
481.06	2127.84
481.26	2209.76
481.46	2215.90
481.66	2207.71
481.86	2146.27
482.06	2312.16
482.27	2209.76
482.47	2197.47
482.67	2267.10
482.87	2144.22
483.07	2342.88
483.28	2109.41
483.48	2090.98
483.68	2150.37
483.88	2111.46
484.08	2041.82
484.29	2095.07
484.49	2152.42
484.69	2105.31
484.89	2256.86
485.09	2248.67
485.29	2312.16
485.50	2154.46
485.70	2215.90
485.90	2387.93
486.10	2174.94
486.30	2195.42
486.50	2287.58
486.71	2217.95
486.91	2306.01
487.11	2265.05
487.31	2068.45
487.51	2230.24
487.71	2076.64
487.91	2111.46
488.12	2156.51
488.32	1970.15
488.52	2152.42
488.72	2019.30
488.92	2197.47
489.12	2248.67
489.32	2250.72
489.53	2314.20
489.73	2037.73
489.93	2330.59
490.13	2275.29
490.33	2013.15
490.53	2242.53
490.73	2252.77
490.94	2103.26
491.14	2342.88
491.34	2299.87
491.54	2549.72
491.74	3203.02
491.94	3829.70
492.14	4065.22
492.34	4140.99
492.54	3698.63
492.75	3241.93
492.95	3178.45
493.15	3051.47
493.35	2854.87
493.55	2789.33
493.75	2703.32
493.95	2699.22
494.15	2504.67
494.35	2303.96
494.56	2318.30
494.76	2205.66
494.96	2256.86
495.16	2179.04
495.36	2162.66
495.56	2191.33
495.76	2193.37
495.96	2244.57
496.16	2097.12
496.36	2346.97
496.56	2242.53
496.77	2246.62
496.97	2199.52
497.17	2332.64
497.37	2068.45
497.57	2277.34
497.77	2291.68
497.97	2086.88
498.17	2179.04
498.37	2189.28
498.57	2254.81
498.77	2166.75
498.97	2234.33
499.17	2365.40
499.38	2115.55
499.58	2250.72
499.78	2377.69
499.98	2283.49
500.18	2181.09
500.38	2121.70
500.58	2381.79
500.78	2869.20
500.98	5177.26
501.18	7362.45
501.38	9199.48
501.58	9891.69
501.78	9791.34
501.98	7802.76
502.18	6496.16
502.38	5740.46
502.58	5185.46
502.78	4644.79
502.98	4691.90
503.18	4267.97
503.38	3899.33
503.59	3424.20
503.79	3280.85
503.99	3059.67
504.19	2805.72
504.39	2852.82
504.59	2944.98
504.79	2807.77
504.99	2881.49
505.19	2611.16
505.39	2461.66
505.59	2508.76
505.79	2498.52
505.99	2400.22
506.19	2299.87
506.39	2465.75
506.59	2195.42
506.79	2203.61
506.99	2326.49
507.19	2211.81
507.39	2277.34
507.59	2162.66
507.79	2142.18
507.99	2138.08
508.19	2230.24
508.39	2213.85
508.59	2209.76
508.79	2396.12
508.99	2381.79
509.19	2156.51
509.39	2232.29
509.59	2242.53
509.79	2136.03
509.99	2236.38
510.19	2355.16
510.39	2293.72
510.59	2244.57
510.79	2189.28
510.99	2121.70
511.19	2195.42
511.39	2359.26
511.59	2322.40
511.79	2324.44
511.99	2146.27
512.19	2383.84
512.38	2146.27
512.58	2207.71
512.78	2242.53
512.98	2277.34
513.18	2326.49
513.38	2140.13
513.58	2346.97
513.78	2164.70
513.98	2244.57
514.18	2252.77
514.38	2111.46
514.58	2248.67
514.78	2154.46
514.98	2125.79
515.18	2230.24
515.38	2150.37
515.58	2394.08
515.78	2158.56
515.98	2185.18
516.18	2220.00
516.38	2213.85
516.57	2127.84
516.77	2105.31
516.97	2254.81
517.17	2179.04
517.37	1996.77
517.57	2357.21
517.77	2256.86
517.97	2174.94
518.17	2250.72
518.37	2144.22
518.57	2168.80
518.77	2217.95
518.97	2176.99
519.16	2324.44
519.36	2365.40
519.56	2164.70
519.76	2154.46
519.96	2185.18
520.16	2385.88
520.36	2144.22
520.56	2353.12
520.76	2154.46
520.96	2129.89
521.16	2303.96
521.35	2293.72
521.55	2379.74
521.75	2242.53
521.95	2238.43
522.15	2160.61
522.35	2117.60
522.55	2207.71
522.75	2281.44
522.95	2148.32
523.14	2183.13
523.34	2205.66
523.54	2213.85
523.74	2252.77
523.94	2191.33
524.14	2199.52
524.34	2193.37
524.54	2385.88
524.73	2158.56
524.93	2273.25
525.13	2213.85
525.33	2105.31
525.53	2521.05
525.73	2252.77
525.93	2252.77
526.13	2187.23
526.32	2185.18
526.52	2342.88
526.72	2222.05
526.92	2164.70
527.12	2215.90
527.32	2009.06
527.52	2162.66
527.71	2187.23
527.91	2228.19
528.11	2107.36
528.31	2203.61
528.51	2107.36
528.71	2195.42
528.90	2242.53
529.10	2240.48
529.30	2260.96
529.50	2064.35
529.70	2238.43
529.90	2201.57
530.09	2193.37
530.29	2107.36
530.49	2138.08
530.69	2418.65
530.89	2193.37
531.09	2340.83
531.28	2142.18
531.48	2324.44
531.68	2222.05
531.88	2213.85
532.08	2308.06
532.28	2187.23
532.47	2287.58
532.67	2359.26
532.87	2265.05
533.07	2146.27
533.27	2289.63
533.46	2234.33
533.66	2201.57
533.86	2172.89
534.06	2228.19
534.26	2256.86
534.45	2226.14
534.65	2310.11
534.85	2349.02
535.05	2115.55
535.25	2267.10
535.44	2031.58
535.64	2199.52
535.84	2297.82
536.04	2250.72
536.24	2148.32
536.43	2170.85
536.63	2224.09
536.83	2209.76
537.03	2207.71
537.22	2084.83
537.42	2080.74
537.62	2228.19
537.82	2123.74
538.02	2336.73
538.21	2258.91
538.41	2572.25
538.61	2176.99
538.81	2170.85
539.00	2312.16
539.20	2013.15
539.40	2176.99
539.60	2273.25
539.79	2344.92
539.99	2179.04
540.19	2119.65
540.39	2215.90
540.58	2207.71
540.78	2310.11
540.98	2232.29
541.18	2293.72
541.37	2232.29
541.57	2279.39
541.77	2170.85
541.97	2068.45
542.16	2097.12
542.36	2166.75
542.56	2117.60
542.76	2310.11
542.95	2326.49
543.15	2289.63
543.35	2228.19
543.54	2121.70
543.74	2170.85
543.94	2379.74
544.14	2185.18
544.33	2236.38
544.53	2201.57
544.73	2142.18
544.93	2166.75
545.12	2133.98
545.32	2187.23
545.52	2158.56
545.71	2129.89
545.91	2213.85
546.11	2187.23
546.30	2138.08
546.50	2166.75
546.70	2199.52
546.90	2211.81
547.09	2043.87
547.29	2187.23
547.49	2318.30
547.68	2166.75
547.88	2117.60
548.08	2273.25
548.27	2701.27
548.47	2158.56
548.67	2150.37
548.87	2256.86
549.06	2193.37
549.26	2244.57
549.46	2256.86
549.65	2105.31
549.85	2236.38
550.05	2275.29
550.24	2172.89
550.44	2228.19
550.64	2146.27
550.83	2193.37
551.03	2240.48
551.23	2244.57
551.42	2170.85
551.62	2213.85
551.82	2258.91
552.01	2176.99
552.21	2379.74
552.41	2215.90
552.60	2381.79
552.80	2203.61
553.00	2129.89
553.19	2263.01
553.39	2365.40
553.59	2127.84
553.78	2236.38
553.98	2220.00
554.17	2062.30
554.37	2213.85
554.57	2291.68
554.76	2019.30
554.96	2195.42
555.16	2168.80
555.35	2308.06
555.55	2174.94
555.75	2211.81
555.94	2240.48
556.14	2174.94
556.33	2164.70
556.53	2170.85
556.73	2252.77
556.92	2289.63
557.12	2326.49
557.32	2359.26
557.51	2398.17
557.71	2248.67
557.90	2385.88
558.10	2269.15
558.30	2205.66
558.49	2211.81
558.69	2144.22
558.88	2267.10
559.08	2232.29
559.28	2166.75
559.47	2160.61
559.67	2295.77
559.86	2365.40
560.06	2209.76
560.26	2142.18
560.45	2230.24
560.65	2209.76
560.84	2301.92
561.04	2113.50
561.24	2299.87
561.43	2170.85
561.63	2334.68
561.82	2220.00
562.02	2226.14
562.22	2181.09
562.41	2152.42
562.61	2176.99
562.80	2068.45
563.00	2480.09
563.19	2260.96
563.39	2207.71
563.59	2318.30
563.78	2121.70
563.98	2017.25
564.17	2076.64
564.37	2074.59
564.56	2154.46
564.76	2062.30
564.96	2336.73
565.15	2248.67
565.35	2457.56
565.54	2191.33
565.74	2185.18
565.93	2293.72
566.13	2183.13
566.32	2213.85
566.52	2246.62
566.71	2146.27
566.91	2289.63
567.11	2254.81
567.30	2185.18
567.50	2269.15
567.69	2285.53
567.89	2283.49
568.08	2189.28
568.28	2232.29
568.47	2068.45
568.67	2203.61
568.86	2158.56
569.06	2285.53
569.25	2236.38
569.45	2209.76
569.64	2113.50
569.84	2195.42
570.04	2324.44
570.23	2215.90
570.43	2170.85
570.62	2236.38
570.82	2379.74
571.01	2138.08
571.21	2136.03
571.40	2197.47
571.60	2260.96
571.79	2287.58
571.99	2183.13
572.18	2121.70
572.38	2306.01
572.57	2220.00
572.77	2314.20
572.96	2504.67
573.16	2271.20
573.35	2193.37
573.55	2291.68
573.74	2220.00
573.94	2183.13
574.13	2129.89
574.33	2226.14
574.52	2267.10
574.71	2211.81
574.91	2293.72
575.10	2174.94
575.30	2205.66
575.49	2127.84
575.69	2156.51
575.88	2269.15
576.08	2181.09
576.27	2412.51
576.47	2174.94
576.66	2435.03
576.86	2318.30
577.05	2236.38
577.25	2342.88
577.44	2422.75
577.64	2150.37
577.83	2353.12
578.02	2236.38
578.22	2314.20
578.41	2375.64
578.61	2248.67
578.80	2154.46
579.00	2242.53
579.19	2248.67
579.39	2322.40
579.58	2318.30
579.77	2168.80
579.97	2379.74
580.16	2379.74
580.36	2351.07
580.55	2330.59
580.75	2318.30
580.94	2258.91
581.13	2389.98
581.33	2414.56
581.52	2220.00
581.72	2484.19
581.91	2387.93
582.11	2322.40
582.30	2379.74
582.49	2258.91
582.69	2394.08
582.88	2314.20
583.08	2273.25
583.27	2396.12
583.47	2244.57
583.66	2185.18
583.85	2170.85
584.05	2252.77
584.24	2422.75
584.44	2281.44
584.63	2394.08
584.82	2432.99
585.02	2400.22
585.21	2410.46
585.41	2365.40
585.60	2351.07
585.79	2480.09
585.99	2490.33
586.18	2400.22
586.37	2983.89
586.57	4462.52
586.76	13612.85
586.96	32599.57
587.15	46630.20
587.34	56376.48
587.54	61375.58
587.73	56898.72
587.93	39644.58
588.12	30109.24
588.31	23940.75
588.51	20848.32
588.70	19367.64
588.89	17567.48
589.09	15210.26
589.28	13201.21
589.47	10784.60
589.67	8388.48
589.86	6492.06
590.06	4773.82
590.25	3864.52
590.44	3172.30
590.64	2740.18
590.83	2629.59
591.02	2488.28
591.22	2346.97
591.41	2316.25
591.60	2330.59
591.80	2537.43
591.99	2179.04
592.18	2238.43
592.38	2353.12
592.57	2215.90
592.76	2209.76
592.96	2316.25
593.15	2256.86
593.34	2326.49
593.54	2195.42
593.73	2355.16
593.92	2334.68
594.12	2357.21
594.31	2250.72
594.50	2475.99
594.70	2338.78
594.89	2519.00
595.08	2191.33
595.28	2340.83
595.47	2654.17
595.66	2322.40
595.86	2115.55
596.05	2211.81
596.24	2234.33
596.43	2496.47
596.63	2297.82
596.82	2308.06
597.01	2250.72
597.21	2443.23
597.40	2275.29
597.59	2260.96
597.79	2236.38
597.98	2326.49
598.17	2301.92
598.36	2326.49
598.56	2226.14
598.75	2230.24
598.94	2285.53
599.14	2316.25
599.33	2209.76
599.52	2220.00
599.71	2263.01
599.91	2308.06
600.10	2301.92
600.29	2234.33
600.48	2220.00
600.68	2277.34
600.87	2193.37
601.06	2054.11
601.26	2215.90
601.45	2258.91
601.64	2209.76
601.83	2252.77
602.03	2174.94
602.22	2115.55
602.41	2371.55
602.60	2527.19
602.80	2291.68
602.99	2207.71
603.18	2136.03
603.37	2244.57
603.57	2166.75
603.76	2285.53
603.95	2324.44
604.14	2244.57
604.34	2187.23
604.53	2197.47
604.72	2209.76
604.91	2244.57
605.10	2217.95
605.30	2125.79
605.49	2402.27
605.68	2256.86
605.87	2281.44
606.07	2115.55
606.26	2209.76
606.45	2228.19
606.64	2228.19
606.84	2195.42
607.03	2269.15
607.22	2353.12
607.41	2328.54
607.60	2209.76
607.80	2334.68
607.99	2191.33
608.18	2217.95
608.37	2267.10
608.56	2176.99
608.76	2334.68
608.95	2394.08
609.14	2297.82
609.33	2424.80
609.52	2490.33
609.72	2342.88
609.91	2408.41
610.10	2359.26
610.29	2418.65
610.48	2240.48
610.68	2299.87
610.87	2269.15
611.06	2244.57
611.25	2193.37
611.44	2318.30
611.63	2162.66
611.83	2271.20
612.02	2103.26
612.21	2234.33
612.40	2105.31
612.59	2160.61
612.79	2183.13
612.98	2258.91
613.17	2283.49
613.36	2090.98
613.55	2392.03
613.74	2310.11
613.93	2383.84
614.13	2541.53
614.32	2490.33
614.51	2467.80
614.70	2277.34
614.89	2269.15
615.08	2355.16
615.28	2746.33
615.47	2185.18
615.66	2355.16
615.85	2242.53
616.04	2394.08
616.23	2314.20
616.42	2320.35
616.62	2269.15
616.81	2301.92
617.00	2275.29
617.19	2275.29
617.38	2195.42
617.57	2176.99
617.76	2293.72
617.95	2306.01
618.15	2320.35
618.34	2432.99
618.53	2070.50
618.72	2275.29
618.91	2340.83
619.10	2312.16
619.29	2209.76
619.48	2252.77
619.68	2158.56
619.87	2260.96
620.06	2113.50
620.25	2187.23
620.44	2203.61
620.63	2138.08
620.82	2277.34
621.01	2213.85
621.20	2230.24
621.39	2267.10
621.59	2211.81
621.78	2144.22
621.97	2297.82
622.16	2297.82
622.35	2211.81
622.54	2289.63
622.73	2312.16
622.92	2125.79
623.11	2306.01
623.30	2211.81
623.49	2328.54
623.68	2187.23
623.88	2367.45
624.07	2211.81
624.26	2234.33
624.45	2148.32
624.64	2162.66
624.83	2267.10
625.02	2156.51
625.21	2148.32
625.40	2183.13
625.59	2330.59
625.78	2265.05
625.97	2449.37
626.16	2351.07
626.35	2406.36
626.54	2334.68
626.74	2406.36
626.93	2228.19
627.12	2166.75
627.31	2367.45
627.50	2336.73
627.69	2346.97
627.88	2230.24
628.07	2199.52
628.26	2115.55
628.45	2072.54
628.64	2072.54
628.83	2179.04
629.02	2047.97
629.21	2301.92
629.40	2252.77
629.59	2111.46
629.78	2144.22
629.97	2269.15
630.16	2244.57
630.35	2283.49
630.54	2193.37
630.73	2189.28
630.92	2254.81
631.11	2136.03
631.30	2152.42
631.49	2258.91
631.68	2166.75
631.87	2279.39
632.06	2152.42
632.25	2402.27
632.44	2285.53
632.63	2228.19
632.82	2189.28
633.01	2211.81
633.20	2322.40
633.39	2250.72
633.58	2117.60
633.77	2285.53
633.96	2318.30
634.15	2357.21
634.34	2346.97
634.53	2344.92
634.72	2140.13
634.91	2088.93
635.10	2142.18
635.29	2334.68
635.48	2150.37
635.67	2088.93
635.86	2050.02
636.05	2373.60
636.24	2158.56
636.43	2220.00
636.62	2205.66
636.81	1912.80
637.00	2230.24
637.19	2267.10
637.38	2246.62
637.57	2211.81
637.76	2293.72
637.95	2426.84
638.14	2254.81
638.33	2342.88
638.52	2351.07
638.71	2236.38
638.89	2179.04
639.08	2459.61
639.27	2430.94
639.46	2490.33
639.65	2926.55
639.84	3024.85
640.03	2987.99
640.22	2922.45
640.41	3053.52
640.60	2541.53
640.79	2510.81
640.98	2482.14
641.17	2453.47
641.36	2508.76
641.55	2432.99
641.74	2199.52
641.92	2199.52
642.11	2220.00
642.30	2189.28
642.49	2199.52
642.68	2170.85
642.87	2191.33
643.06	2209.76
643.25	2187.23
643.44	2115.55
643.63	2185.18
643.82	2299.87
644.00	2109.41
644.19	2148.32
644.38	2121.70
644.57	2213.85
644.76	2240.48
644.95	2121.70
645.14	2213.85
645.33	2275.29
645.52	2240.48
645.71	2070.50
645.89	2111.46
646.08	2211.81
646.27	2179.04
646.46	2375.64
646.65	2162.66
646.84	2220.00
647.03	2144.22
647.22	2277.34
647.40	2248.67
647.59	2189.28
647.78	2062.30
647.97	2131.94
648.16	2113.50
648.35	2285.53
648.54	2256.86
648.73	2148.32
648.91	2195.42
649.10	2258.91
649.29	2187.23
649.48	2154.46
649.67	2201.57
649.86	2267.10
650.05	2310.11
650.23	2459.61
650.42	2271.20
650.61	2500.57
650.80	2420.70
650.99	2555.86
651.18	2381.79
651.36	2367.45
651.55	2162.66
651.74	2363.36
651.93	2252.77
652.12	2199.52
652.31	2265.05
652.49	2222.05
652.68	2273.25
652.87	2320.35
653.06	2215.90
653.25	2428.89
653.44	2269.15
653.62	2408.41
653.81	2289.63
654.00	2176.99
654.19	2252.77
654.38	2471.90
654.56	2234.33
654.75	2215.90
654.94	2361.31
655.13	2228.19
655.32	2215.90
655.51	2254.81
655.69	2252.77
655.88	2322.40
656.07	2183.13
656.26	2224.09
656.45	2123.74
656.63	2162.66
656.82	2146.27
657.01	2349.02
657.20	2138.08
657.38	2332.64
657.57	2107.36
657.76	2039.78
657.95	2217.95
658.14	2150.37
658.32	2193.37
658.51	2078.69
658.70	2246.62
658.89	2277.34
659.08	2226.14
659.26	2439.13
659.45	2148.32
659.64	2289.63
659.83	2195.42
660.01	2519.00
660.20	2277.34
660.39	2416.60
660.58	2013.15
660.76	2346.97
660.95	2148.32
661.14	2318.30
661.33	2201.57
661.51	2244.57
661.70	2170.85
661.89	2252.77
662.08	2164.70
662.26	2043.87
662.45	2176.99
662.64	2312.16
662.83	2281.44
663.01	2050.02
663.20	2131.94
663.39	2242.53
663.58	2095.07
663.76	2166.75
663.95	2279.39
664.14	2146.27
664.32	2076.64
664.51	2088.93
664.70	2058.21
664.89	2246.62
665.07	2105.31
665.26	2326.49
665.45	2142.18
665.64	2228.19
665.82	2166.75
666.01	2316.25
666.20	2144.22
666.38	2297.82
666.57	2408.41
666.76	3241.93
666.95	8175.49
667.13	16805.63
667.32	22195.89
667.51	26021.49
667.69	27983.44
667.88	25935.48
668.07	18458.34
668.25	14638.88
668.44	12126.02
668.63	10205.03
668.81	9191.28
669.00	7950.21
669.19	6961.05
669.38	6148.00
669.56	5271.47
669.75	4450.24
669.94	3825.61
670.12	3205.07
670.31	2742.23
670.50	2570.20
670.68	2607.06
670.87	2351.07
671.06	2224.09
671.24	2375.64
671.43	2435.03
671.62	2275.29
671.80	2215.90
671.99	2334.68
672.18	2258.91
672.36	2244.57
672.55	2334.68
672.74	2215.90
672.92	2162.66
673.11	2269.15
673.29	2136.03
673.48	2357.21
673.67	2228.19
673.85	2334.68
674.04	2201.57
674.23	2166.75
674.41	2332.64
674.60	2119.65
674.79	2056.16
674.97	2076.64
675.16	2236.38
675.34	2267.10
675.53	2179.04
675.72	2273.25
675.90	2385.88
676.09	2220.00
676.28	2187.23
676.46	2062.30
676.65	2244.57
676.83	2129.89
677.02	2236.38
677.21	2236.38
677.39	2242.53
677.58	2133.98
677.77	2166.75
677.95	2232.29
678.14	2129.89
678.32	2195.42
678.51	2142.18
678.70	2369.50
678.88	2201.57
679.07	2234.33
679.25	2195.42
679.44	2129.89
679.63	2070.50
679.81	2183.13
680.00	2299.87
680.18	2269.15
680.37	2338.78
680.55	2244.57
680.74	2027.49
680.93	2021.35
681.11	2258.91
681.30	2195.42
681.48	2236.38
681.67	2129.89
681.85	2174.94
682.04	2185.18
682.23	2187.23
682.41	2181.09
682.60	2191.33
682.78	2203.61
682.97	2095.07
683.15	2310.11
683.34	2179.04
683.53	2314.20
683.71	2121.70
683.90	2240.48
684.08	2334.68
684.27	2203.61
684.45	2295.77
684.64	2303.96
684.82	2172.89
685.01	2346.97
685.19	2232.29
685.38	2392.03
685.57	2160.61
685.75	2097.12
685.94	2150.37
686.12	2052.06
686.31	2101.22
686.49	2328.54
686.68	2117.60
686.86	2152.42
687.05	2224.09
687.23	2318.30
687.42	2213.85
687.60	2037.73
687.79	2258.91
687.97	2328.54
688.16	2258.91
688.34	2283.49
688.53	2007.01
688.71	2256.86
688.90	2334.68
689.08	2187.23
689.27	2056.16
689.45	2299.87
689.64	2273.25
689.82	2236.38
690.01	2174.94
690.19	2150.37
690.38	2205.66
690.56	2209.76
690.75	2113.50
690.93	2129.89
691.12	2183.13
691.30	2220.00
691.49	2209.76
691.67	2215.90
691.86	2402.27
692.04	2220.00
692.23	2129.89
692.41	2250.72
692.60	2523.10
692.78	2408.41
692.97	2328.54
693.15	2303.96
693.34	2437.08
693.52	2310.11
693.71	2179.04
693.89	2164.70
694.08	2064.35
694.26	2334.68
694.44	2334.68
694.63	2226.14
694.81	2138.08
695.00	2183.13
695.18	2285.53
695.37	2457.56
695.55	2179.04
695.74	2131.94
695.92	2127.84
696.10	2310.11
696.29	2111.46
696.47	2123.74
696.66	2103.26
696.84	2217.95
697.03	2166.75
697.21	2422.75
697.40	3274.70
697.58	2375.64
697.76	2191.33
697.95	2103.26
698.13	2142.18
698.32	2138.08
698.50	2168.80
698.68	2254.81
698.87	2254.81
699.05	2334.68
699.24	2254.81
699.42	2213.85
699.61	2269.15
699.79	2203.61
699.97	2181.09
700.16	2170.85
700.34	2101.22
700.53	2201.57
700.71	2420.70
700.89	2217.95
701.08	2226.14
701.26	2211.81
701.45	2703.32
701.63	2146.27
701.81	2224.09
702.00	2113.50
702.18	2191.33
702.37	2244.57
702.55	2500.57
702.73	2494.43
702.92	2353.12
703.10	2572.25
703.28	2617.30
703.47	2349.02
703.65	2488.28
703.84	2480.09
704.02	2281.44
704.20	2383.84
704.39	2187.23
704.57	2236.38
704.75	2334.68
704.94	2349.02
705.12	2187.23
705.30	2500.57
705.49	4392.89
705.67	11128.66
705.86	20446.92
706.04	25032.32
706.22	28714.57
706.41	30043.70
706.59	25880.18
706.77	18038.51
706.96	15081.24
707.14	13023.03
707.32	11267.92
707.51	9983.85
707.69	8437.63
707.87	6754.20
708.06	5218.22
708.24	4089.79
708.42	3354.57
708.61	3014.61
708.79	2527.19
708.97	2504.67
709.16	2283.49
709.34	2346.97
709.52	2179.04
709.71	2187.23
709.89	2252.77
710.07	2064.35
710.26	2201.57
710.44	2201.57
710.62	2299.87
710.80	2203.61
710.99	2234.33
711.17	2260.96
711.35	2154.46
711.54	2195.42
711.72	2349.02
711.90	2244.57
712.09	2250.72
712.27	2154.46
712.45	2211.81
712.63	2142.18
712.82	2113.50
713.00	2209.76
713.18	2326.49
713.37	2275.29
713.55	2285.53
713.73	2217.95
713.91	2238.43
714.10	2138.08
714.28	2201.57
714.46	2199.52
714.65	2226.14
714.83	2248.67
715.01	2191.33
715.19	2226.14
715.38	2234.33
715.56	2291.68
715.74	2088.93
715.92	2105.31
716.11	2361.31
716.29	2017.25
716.47	2154.46
716.65	2201.57
716.84	2037.73
717.02	2263.01
717.20	2029.54
717.38	2160.61
717.57	2176.99
717.75	2217.95
717.93	2191.33
718.11	2267.10
718.30	2056.16
718.48	2183.13
718.66	2267.10
718.84	2328.54
719.03	2226.14
719.21	2113.50
719.39	2357.21
719.57	2275.29
719.75	2332.64
719.94	2123.74
720.12	2164.70
720.30	2189.28
720.48	2318.30
720.67	2136.03
720.85	2160.61
721.03	2226.14
721.21	2088.93
721.39	2283.49
721.58	2222.05
721.76	2174.94
721.94	2248.67
722.12	2236.38
722.30	2334.68
722.49	2107.36
722.67	2250.72
722.85	2283.49
723.03	2060.26
723.21	2168.80
723.40	2267.10
723.58	2332.64
723.76	2283.49
723.94	2303.96
724.12	2240.48
724.30	2396.12
724.49	2310.11
724.67	2140.13
724.85	2406.36
725.03	2142.18
725.21	2283.49
725.40	2222.05
725.58	2174.94
725.76	2314.20
725.94	2254.81
726.12	2193.37
726.30	2170.85
726.49	2254.81
726.67	2189.28
726.85	2322.40
727.03	2508.76
727.21	3839.94
727.39	5494.70
727.57	6584.22
727.76	7233.43
727.94	7735.18
728.12	7430.03
728.30	6025.12
728.48	4980.66
728.66	4616.12
728.84	4061.12
729.03	3518.41
729.21	3098.58
729.39	2799.57
729.57	2469.85
729.75	2379.74
729.93	2367.45
730.11	2179.04
730.30	2289.63
730.48	2191.33
730.66	2359.26
730.84	2279.39
731.02	2230.24
731.20	2211.81
731.38	2238.43
731.56	2117.60
731.74	2078.69
731.93	2164.70
732.11	2224.09
732.29	2123.74
732.47	2224.09
732.65	2164.70
732.83	2299.87
733.01	2213.85
733.19	2148.32
733.37	2215.90
733.56	2195.42
733.74	2058.21
733.92	2283.49
734.10	2183.13
734.28	2275.29
734.46	2095.07
734.64	2168.80
734.82	2209.76
735.00	2203.61
735.18	2115.55
735.36	2181.09
735.54	2127.84
735.73	2131.94
735.91	2240.48
736.09	2234.33
736.27	2179.04
736.45	2297.82
736.63	2039.78
736.81	2115.55
736.99	2277.34
737.17	2314.20
737.35	2142.18
737.53	2238.43
737.71	2236.38
737.89	2346.97
738.07	2060.26
738.25	2097.12
738.43	2013.15
738.61	2154.46
738.80	2033.63
738.98	2170.85
739.16	2127.84
739.34	2187.23
739.52	2285.53
739.70	2133.98
739.88	2250.72
740.06	2301.92
740.24	2047.97
740.42	2367.45
740.60	2129.89
740.78	2179.04
740.96	2011.11
741.14	2160.61
741.32	2228.19
741.50	2119.65
741.68	2301.92
741.86	2291.68
742.04	2088.93
742.22	2037.73
742.40	2289.63
742.58	2195.42
742.76	2140.13
742.94	2346.97
743.12	2090.98
743.30	2146.27
743.48	2236.38
743.66	2162.66
743.84	2252.77
744.02	2166.75
744.20	2201.57
744.38	2105.31
744.56	2035.68
744.74	2404.32
744.92	2277.34
745.10	2332.64
745.28	2256.86
745.46	2373.60
745.64	2150.37
745.82	2281.44
746.00	2242.53
746.18	2269.15
746.36	2066.40
746.54	2260.96
746.72	2193.37
746.90	2156.51
747.08	2326.49
747.26	2125.79
747.44	2285.53
747.62	2207.71
747.80	2230.24
747.98	2297.82
748.15	2211.81
748.33	2359.26
748.51	2211.81
748.69	2342.88
748.87	2162.66
749.05	2158.56
749.23	2230.24
749.41	2267.10
749.59	2205.66
749.77	2248.67
749.95	2179.04
750.13	2121.70
750.31	2269.15
750.49	2074.59
750.67	2267.10
750.85	2318.30
751.03	2222.05
751.20	2445.27
751.38	2146.27
751.56	2179.04
751.74	2207.71
751.92	2213.85
752.10	2037.73
752.28	2318.30
752.46	2150.37
752.64	2203.61
752.82	2172.89
753.00	2365.40
753.18	2097.12
753.35	2164.70
753.53	2242.53
753.71	2117.60
753.89	2308.06
754.07	2267.10
754.25	2283.49
754.43	2265.05
754.61	2052.06
754.79	2295.77
754.97	2162.66
755.14	2236.38
755.32	2064.35
755.50	2133.98
755.68	2234.33
755.86	2025.44
756.04	2144.22
756.22	2107.36
756.40	2281.44
756.57	2389.98
756.75	2125.79
756.93	2293.72
757.11	2203.61
757.29	2097.12
757.47	2113.50
757.65	2103.26
757.82	2056.16
758.00	2176.99
758.18	2103.26
758.36	2080.74
758.54	2297.82
758.72	2031.58
758.90	2326.49
759.07	2215.90
759.25	2107.36
759.43	2226.14
759.61	2056.16
759.79	2957.27
759.97	2240.48
760.15	2164.70
760.32	2148.32
760.50	2256.86
760.68	2336.73
760.86	2121.70
761.04	2316.25
761.22	2244.57
761.39	2252.77
761.57	2179.04
761.75	2168.80
761.93	2228.19
762.11	2172.89
762.28	2179.04
762.46	2129.89
762.64	2267.10
762.82	2125.79
763.00	2138.08
763.18	2301.92
763.35	2179.04
763.53	2240.48
763.71	2170.85
763.89	2115.55
764.07	2228.19
764.24	2127.84
764.42	2256.86
764.60	2144.22
764.78	2203.61
764.96	2287.58
765.13	2310.11
765.31	2185.18
765.49	2301.92
765.67	2119.65
765.84	2117.60
766.02	2121.70
766.20	2111.46
766.38	2232.29
766.56	2269.15
766.73	2297.82
766.91	2254.81
767.09	2244.57
767.27	2293.72
767.44	2084.83
767.62	2199.52
767.80	2207.71
767.98	2185.18
768.15	2209.76
768.33	2306.01
768.51	2336.73
768.69	2301.92
768.87	2248.67
769.04	2201.57
769.22	2392.03
769.40	2312.16
769.58	2326.49
769.75	2232.29
769.93	2363.36
770.11	2183.13
770.28	2074.59
770.46	2226.14
770.64	2185.18
770.82	2158.56
770.99	2197.47
771.17	2291.68
771.35	2133.98
771.53	2226.14
771.70	2166.75
771.88	2285.53
772.06	2121.70
772.23	2181.09
772.41	2240.48
772.59	2220.00
772.77	2138.08
772.94	2203.61
773.12	2242.53
773.30	2105.31
773.47	2199.52
773.65	2148.32
773.83	2301.92
774.01	2176.99
774.18	2004.96
774.36	2129.89
774.54	2093.02
774.71	2183.13
774.89	2000.87
775.07	2097.12
775.24	2191.33
775.42	2156.51
775.60	2277.34
775.78	2176.99
775.95	1982.43
776.13	2011.11
776.31	2041.82
776.48	2203.61
776.66	2281.44
776.84	2168.80
777.01	2179.04
777.19	2119.65
777.37	2127.84
777.54	2258.91
777.72	2340.83
777.90	2113.50
778.07	2090.98
778.25	2512.86
778.43	2346.97
778.60	2072.54
778.78	2279.39
778.96	2299.87
779.13	2025.44
779.31	2283.49
779.49	2269.15
779.66	2230.24
779.84	2189.28
780.01	2193.37
780.19	2123.74
780.37	2365.40
780.54	2226.14
780.72	2101.22
780.90	2150.37
781.07	2152.42
781.25	2101.22
781.43	2285.53
781.60	2144.22
781.78	2273.25
781.95	2242.53
782.13	2144.22
782.31	2154.46
782.48	2017.25
782.66	2203.61
782.83	2293.72
783.01	2189.28
783.19	2338.78
783.36	2162.66
783.54	2093.02
783.72	2238.43
783.89	2146.27
784.07	2252.77
784.24	2199.52
784.42	2301.92
784.60	2144.22
784.77	2230.24
784.95	2019.30
785.12	2125.79
785.30	2226.14
785.47	2142.18
785.65	2160.61
785.83	2131.94
786.00	2160.61
786.18	2138.08
786.35	2140.13
786.53	2086.88
786.71	2240.48
786.88	2283.49
787.06	2187.23
787.23	2113.50
787.41	2086.88
787.58	2234.33
787.76	2119.65
787.94	2195.42
788.11	2248.67
788.29	2152.42
788.46	2127.84
788.64	2045.92
788.81	2197.47
788.99	2181.09
789.16	2127.84
789.34	2148.32
789.52	2097.12
789.69	2217.95
789.87	1953.76
790.04	2125.79
790.22	2179.04
790.39	2342.88
790.57	2105.31
790.74	2062.30
790.92	2242.53
791.09	2095.07
791.27	2203.61
791.44	2215.90
791.62	2111.46
791.79	2310.11
791.97	2217.95
792.15	2512.86
792.32	2230.24
792.50	2234.33
792.67	2244.57
792.85	2353.12
793.02	2142.18
793.20	2115.55
793.37	2097.12
793.55	2174.94
793.72	2060.26
793.90	2258.91
794.07	2031.58
794.25	2015.20
794.42	2162.66
794.60	2168.80
794.77	2260.96
794.95	2246.62
795.12	2316.25
795.30	2170.85
795.47	2082.78
795.65	2478.04
795.82	2301.92
796.00	2121.70
796.17	2146.27
796.34	2068.45
796.52	2217.95
796.69	2226.14
796.87	2301.92
797.04	2236.38
797.22	2293.72
797.39	2248.67
797.57	2334.68
797.74	2246.62
797.92	2314.20
798.09	2142.18
798.27	2191.33
798.44	2150.37
798.62	2138.08
798.79	2199.52
798.96	2183.13
799.14	2203.61
799.31	2371.55
799.49	2187.23
799.66	2133.98
799.84	2252.77
800.01	2029.54
800.19	2238.43
800.36	2015.20
800.53	2263.01
800.71	2213.85
800.88	2346.97
801.06	2088.93
801.23	2113.50
801.41	2187.23
801.58	2105.31
801.75	2080.74
801.93	2269.15
802.10	2217.95
802.28	2215.90
802.45	2136.03
802.63	2244.57
802.80	2379.74
802.97	2136.03
803.15	2176.99
803.32	2142.18
803.50	2113.50
803.67	2133.98
803.84	2119.65
804.02	2199.52
804.19	2197.47
804.37	2021.35
804.54	2156.51
804.71	2146.27
804.89	2283.49
805.06	2097.12
805.24	2090.98
805.41	2117.60
805.58	2070.50
805.76	2404.32
805.93	2097.12
806.10	2324.44
806.28	2285.53
806.45	2238.43
806.63	2224.09
806.80	2088.93
806.97	2181.09
807.15	2263.01
807.32	2205.66
807.49	2199.52
807.67	2148.32
807.84	2193.37
808.01	2025.44
808.19	2334.68
808.36	2449.37
808.54	2095.07
808.71	2080.74
808.88	2207.71
809.06	2256.86
809.23	2336.73
809.40	2140.13
809.58	2215.90
809.75	2191.33
809.92	2080.74
810.10	2439.13
810.27	2113.50
810.44	2179.04
810.62	2217.95
810.79	2285.53
810.96	2168.80
811.14	2217.95
811.31	2226.14
811.48	2199.52
811.66	2166.75
811.83	2265.05
812.00	2301.92
812.18	2160.61
812.35	2314.20
812.52	2162.66
812.69	2086.88
812.87	2285.53
813.04	2076.64
813.21	2166.75
813.39	2107.36
813.56	2088.93
813.73	2287.58
813.91	2029.54
814.08	2246.62
814.25	2170.85
814.42	1955.81
814.60	2162.66
814.77	2281.44
814.94	2209.76
815.12	2158.56
815.29	2265.05
815.46	2138.08
815.63	2250.72
815.81	2187.23
815.98	2119.65
816.15	2144.22
816.33	2158.56
816.50	2121.70
816.67	2088.93
816.84	2174.94
817.02	2088.93
817.19	2230.24
817.36	2275.29
817.53	2234.33
817.71	2156.51
817.88	2240.48
818.05	2187.23
818.22	2115.55
818.40	2383.84
818.57	2150.37
818.74	2228.19
818.91	2172.89
819.09	2281.44
819.26	2228.19
819.43	2121.70
819.60	2084.83
819.78	2127.84
819.95	2226.14
820.12	2121.70
820.29	2289.63
820.47	2224.09
820.64	2111.46
820.81	2109.41
820.98	2154.46
821.15	2222.05
821.33	2248.67
821.50	2039.78
821.67	2207.71
821.84	2109.41
822.02	2228.19
822.19	2324.44
822.36	2222.05
822.53	2129.89
822.70	2017.25
822.88	2193.37
823.05	2269.15
823.22	2199.52
823.39	2144.22
823.56	2131.94
823.74	2361.31
823.91	2101.22
824.08	2088.93
824.25	2138.08
824.42	2387.93
824.60	2058.21
824.77	2263.01
824.94	2166.75
825.11	2191.33
825.28	2039.78
825.45	2240.48
825.63	2170.85
825.80	2080.74
825.97	2234.33
826.14	2162.66
826.31	2064.35
826.48	2299.87
826.66	2138.08
826.83	2144.22
827.00	2228.19
827.17	2086.88
827.34	2142.18
827.51	2070.50
827.69	2220.00
827.86	2078.69
828.03	2185.18
828.20	2199.52
828.37	2131.94
828.54	2211.81
828.71	2107.36
828.89	2338.78
829.06	2195.42
829.23	2297.82
829.40	2115.55
829.57	2162.66
829.74	2244.57
829.91	2068.45
830.09	2174.94
830.26	2160.61
830.43	2299.87
830.60	2205.66
830.77	2273.25
830.94	2277.34
831.11	2183.13
831.28	2052.06
831.46	2232.29
831.63	2131.94
831.80	2244.57
831.97	2156.51
832.14	2162.66
832.31	2224.09
832.48	2242.53
832.65	2308.06
832.82	2107.36
832.99	2209.76
833.17	2101.22
833.34	2287.58
833.51	2181.09
833.68	1939.43
833.85	2252.77
834.02	2136.03
834.19	2058.21
834.36	2047.97
834.53	2168.80
834.70	2297.82
834.87	2250.72
835.04	2056.16
835.22	2080.74
835.39	2195.42
835.56	2072.54
835.73	2146.27
835.90	2269.15
836.07	2176.99
836.24	2260.96
836.41	2095.07
836.58	2115.55
836.75	2326.49
836.92	2146.27
837.09	2195.42
837.26	2308.06
837.43	2203.61
837.60	2207.71
837.77	2136.03
837.94	2355.16
838.12	2357.21
838.29	2199.52
838.46	2039.78
838.63	2133.98
838.80	2451.42
838.97	2273.25
839.14	2195.42
839.31	2179.04
839.48	2301.92
839.65	2133.98
839.82	2174.94
839.99	2174.94
840.16	2136.03
840.33	2136.03
840.50	2193.37
840.67	2078.69
840.84	2041.82
841.01	2074.59
841.18	2109.41
841.35	2131.94
841.52	2271.20
841.69	2322.40
841.86	2195.42
842.03	2187.23
842.20	2291.68
842.37	2205.66
842.54	2176.99
842.71	2250.72
842.88	2037.73
843.05	2152.42
843.22	2174.94
843.39	2217.95
843.56	2068.45
843.73	2146.27
843.90	2244.57
844.07	2183.13
844.24	2234.33
844.41	2156.51
844.58	2195.42
844.75	2224.09
844.92	2205.66
845.09	2154.46
845.26	2154.46
845.43	2306.01
845.60	2203.61
845.77	2211.81
845.94	2170.85
846.10	2267.10
846.27	2023.39
846.44	2056.16
846.61	2076.64
846.78	2248.67
846.95	2367.45
847.12	2023.39
847.29	2152.42
847.46	2162.66
847.63	2326.49
847.80	2072.54
847.97	2203.61
848.14	2465.75
848.31	2226.14
848.48	2041.82
848.65	2209.76
848.82	2103.26
848.98	2392.03
849.15	2215.90
849.32	2166.75
849.49	2260.96
849.66	2123.74
849.83	2215.90
850.00	2031.58
850.17	2283.49
850.34	2117.60
850.51	2050.02
850.68	2160.61
850.85	2471.90
851.01	2168.80
851.18	2168.80
851.35	2142.18
851.52	2222.05
851.69	2314.20
851.86	2062.30
852.03	2062.30
852.20	2267.10
852.37	2187.23
852.53	2004.96
852.70	2115.55
852.87	2275.29
853.04	2183.13
853.21	2158.56
853.38	2220.00
853.55	2379.74
853.72	2402.27
853.89	2017.25
854.05	2066.40
854.22	2179.04
854.39	2215.90
854.56	2174.94
854.73	2207.71
854.90	2084.83
855.07	2111.46
855.23	2080.74
855.40	2121.70
855.57	2131.94
855.74	2021.35
855.91	2318.30
856.08	2074.59
856.25	2160.61
856.41	2103.26
856.58	2203.61
856.75	2168.80
856.92	2064.35
857.09	2242.53
857.26	2068.45
857.42	2105.31
857.59	2170.85
857.76	2222.05
857.93	2162.66
858.10	2195.42
858.27	2047.97
858.43	2248.67
858.60	2144.22
858.77	2047.97
858.94	2164.70
859.11	2267.10
859.27	2154.46
859.44	2123.74
859.61	2324.44
859.78	2252.77
859.95	2166.75
860.12	2068.45
860.28	2342.88
860.45	2422.75
860.62	2119.65
860.79	2228.19
860.95	2156.51
861.12	2103.26
861.29	2058.21
861.46	2121.70
861.63	2127.84
861.79	2240.48
861.96	2111.46
862.13	2078.69
862.30	2260.96
862.47	2088.93
862.63	2097.12
862.80	2263.01
862.97	2260.96
863.14	2121.70
863.30	2220.00
863.47	2158.56
863.64	2342.88
863.81	2193.37
863.97	2072.54
864.14	2209.76
864.31	2138.08
864.48	2170.85
864.65	2062.30
864.81	2244.57
864.98	2197.47
865.15	2256.86
865.32	2220.00
865.48	2265.05
865.65	2351.07
865.82	2154.46
865.98	2154.46
866.15	2213.85
866.32	2217.95
866.49	2131.94
866.65	2314.20
866.82	2039.78
866.99	2170.85
867.16	2095.07
867.32	2088.93
867.49	2074.59
867.66	2226.14
867.83	2088.93
867.99	2115.55
868.16	2140.13
868.33	2078.69
868.49	2162.66
868.66	2133.98
868.83	2228.19
868.99	2246.62
869.16	2269.15
869.33	2277.34
869.50	2222.05
869.66	2224.09
869.83	2226.14
870.00	2111.46
870.16	2203.61
870.33	2095.07
870.50	2252.77
870.66	2209.76
870.83	2318.30
871.00	2203.61
871.17	2174.94
871.33	2248.67
871.50	2111.46
871.67	2211.81
871.83	2193.37
872.00	2301.92
872.17	2191.33
872.33	2375.64
872.50	2301.92
872.67	2220.00
872.83	2162.66
873.00	2168.80
873.17	2193.37
873.33	2211.81
873.50	2172.89
873.67	2160.61
873.83	2170.85
874.00	2189.28
874.16	2277.34
874.33	2162.66
874.50	2172.89
874.66	2179.04
874.83	2164.70
875.00	2252.77
875.16	2349.02
875.33	2203.61
875.50	1931.23
875.66	2121.70
875.83	2211.81
875.99	2238.43
876.16	2133.98
876.33	2129.89
876.49	2152.42
876.66	2172.89
876.83	2127.84
876.99	2045.92
877.16	2142.18
877.32	2154.46
877.49	2191.33
877.66	2109.41
877.82	2332.64
877.99	2203.61
878.15	2207.71
878.32	2189.28
878.49	2244.57
878.65	2090.98
878.82	2297.82
878.98	2103.26
879.15	2244.57
879.32	2273.25
879.48	2129.89
879.65	2123.74
879.81	2140.13
879.98	2103.26
880.15	2164.70
880.31	2275.29
880.48	2058.21
880.64	2258.91
880.81	2232.29
880.97	2400.22
881.14	2285.53
881.31	2129.89
881.47	2334.68
881.64	2115.55
881.80	2097.12
881.97	2185.18
882.13	2181.09
882.30	2146.27
882.47	2160.61
882.63	2148.32
882.80	2111.46
882.96	2127.84
883.13	2265.05
883.29	2191.33
883.46	2109.41
883.62	2420.70
883.79	2179.04
883.95	2252.77
884.12	2189.28
884.29	2277.34
884.45	2160.61
884.62	2170.85
884.78	2164.70
884.95	2277.34
885.11	2117.60
885.28	2260.96
885.44	2086.88
885.61	2242.53
885.77	2273.25
885.94	2234.33
886.10	2181.09
886.27	2193.37
886.43	2285.53
886.60	2355.16
886.76	2136.03
886.93	2097.12
887.09	2183.13
887.26	2070.50
887.42	2136.03
887.59	2250.72
887.75	2308.06
887.92	2256.86
888.08	2269.15
888.25	2344.92
888.41	2205.66
888.58	2174.94
888.74	2107.36
888.91	2138.08
>>>>>End Processed Spectral Data<<<<<
