SpectraSuite Data File
++++++++++++++++++++++++++++++++++++
Date: Thu May 05 12:35:16 CEST 2016
User: root
Dark Spectrum Present: No
Reference Spectrum Present: No
Number of Sampled Component Spectra: 1
Spectrometers: USB4C02835
Integration Time (usec): 100000 (USB4C02835)
Spectra Averaged: 1 (USB4C02835)
Boxcar Smoothing: 0 (USB4C02835)
Correct for Electrical Dark: No (USB4C02835)
Strobe/Lamp Enabled: No (USB4C02835)
Correct for Detector Non-linearity: No (USB4C02835)
Correct for Stray Light: No (USB4C02835)
Number of Pixels in Processed Spectrum: 3648
>>>>>Begin Processed Spectral Data<<<<<
177.47	1755.11
177.69	1755.11
177.91	1755.11
178.13	1685.48
178.36	1785.83
178.58	2095.07
178.80	2271.20
179.02	2062.30
179.24	2082.78
179.46	2080.74
179.68	2156.51
179.90	2238.43
180.13	2215.90
180.35	2062.30
180.57	2172.89
180.79	2277.34
181.01	2224.09
181.23	2310.11
181.45	2273.25
181.67	2281.44
181.90	2289.63
182.12	2115.55
182.34	1978.34
182.56	2316.25
182.78	2220.00
183.00	2090.98
183.22	2185.18
183.44	2060.26
183.66	2422.75
183.89	2195.42
184.11	2144.22
184.33	2306.01
184.55	2326.49
184.77	2078.69
184.99	2148.32
185.21	2136.03
185.43	2420.70
185.65	2146.27
185.87	2174.94
186.10	2432.99
186.32	2402.27
186.54	2181.09
186.76	2230.24
186.98	2246.62
187.20	2170.85
187.42	2121.70
187.64	2082.78
187.86	2232.29
188.08	2320.35
188.30	2080.74
188.52	2140.13
188.75	2342.88
188.97	2342.88
189.19	2154.46
189.41	2105.31
189.63	2240.48
189.85	2131.94
190.07	2023.39
190.29	1996.77
190.51	2285.53
190.73	2136.03
190.95	2197.47
191.17	2125.79
191.39	2113.50
191.61	2142.18
191.84	2129.89
192.06	2140.13
192.28	2105.31
192.50	2482.14
192.72	2205.66
192.94	2154.46
193.16	2277.34
193.38	2291.68
193.60	2080.74
193.82	2129.89
194.04	2279.39
194.26	2332.64
194.48	2125.79
194.70	2080.74
194.92	2189.28
195.14	2242.53
195.36	2082.78
195.58	2187.23
195.80	2146.27
196.02	2101.22
196.24	2111.46
196.46	2258.91
196.69	2146.27
196.91	2424.80
197.13	2068.45
197.35	2064.35
197.57	2303.96
197.79	2248.67
198.01	2162.66
198.23	2162.66
198.45	2279.39
198.67	2097.12
198.89	2146.27
199.11	2224.09
199.33	2066.40
199.55	1988.58
199.77	2146.27
199.99	2306.01
200.21	2170.85
200.43	2179.04
200.65	2076.64
200.87	1900.52
201.09	2238.43
201.31	2146.27
201.53	2133.98
201.75	2101.22
201.97	2250.72
202.19	2234.33
202.41	2164.70
202.63	2326.49
202.85	2252.77
203.07	2187.23
203.29	2170.85
203.51	2064.35
203.73	2088.93
203.95	2443.23
204.17	2133.98
204.39	2088.93
204.61	2187.23
204.83	2183.13
205.05	2191.33
205.27	2179.04
205.49	2361.31
205.71	2252.77
205.93	2084.83
206.15	2113.50
206.37	2211.81
206.59	2168.80
206.81	2009.06
207.03	2086.88
207.25	2086.88
207.47	2285.53
207.69	2109.41
207.91	2324.44
208.13	2318.30
208.34	2179.04
208.56	2043.87
208.78	2179.04
209.00	2127.84
209.22	2162.66
209.44	2068.45
209.66	2113.50
209.88	2203.61
210.10	2162.66
210.32	2121.70
210.54	2232.29
210.76	2187.23
210.98	2269.15
211.20	1998.82
211.42	2166.75
211.64	2263.01
211.86	2301.92
212.08	2138.08
212.30	2127.84
212.52	2168.80
212.74	2183.13
212.96	2146.27
213.17	2224.09
213.39	2287.58
213.61	2306.01
213.83	2213.85
214.05	2174.94
214.27	2279.39
214.49	2086.88
214.71	2035.68
214.93	2170.85
215.15	2232.29
215.37	2205.66
215.59	2045.92
215.81	2193.37
216.03	2273.25
216.24	2224.09
216.46	2144.22
216.68	2152.42
216.90	2201.57
217.12	2357.21
217.34	2133.98
217.56	2191.33
217.78	2295.77
218.00	2254.81
218.22	2101.22
218.44	2197.47
218.66	2191.33
218.87	2357.21
219.09	2111.46
219.31	2162.66
219.53	2306.01
219.75	2138.08
219.97	2222.05
220.19	2217.95
220.41	2056.16
220.63	2357.21
220.85	2109.41
221.06	2088.93
221.28	2316.25
221.50	2299.87
221.72	2209.76
221.94	2095.07
222.16	2193.37
222.38	2295.77
222.60	2113.50
222.82	2150.37
223.03	2260.96
223.25	2056.16
223.47	2109.41
223.69	2291.68
223.91	2224.09
224.13	2209.76
224.35	2095.07
224.57	2230.24
224.78	2185.18
225.00	2029.54
225.22	2117.60
225.44	2138.08
225.66	2220.00
225.88	2224.09
226.10	2179.04
226.32	2174.94
226.53	2359.26
226.75	2179.04
226.97	2152.42
227.19	2138.08
227.41	2105.31
227.63	2154.46
227.85	1998.82
228.06	2162.66
228.28	2160.61
228.50	2236.38
228.72	1996.77
228.94	2142.18
229.16	2021.35
229.37	2101.22
229.59	2086.88
229.81	2260.96
230.03	2181.09
230.25	2047.97
230.47	2052.06
230.69	2035.68
230.90	2336.73
231.12	2170.85
231.34	2152.42
231.56	2154.46
231.78	2072.54
232.00	2146.27
232.21	2103.26
232.43	2117.60
232.65	2027.49
232.87	2232.29
233.09	2037.73
233.30	2103.26
233.52	2260.96
233.74	2176.99
233.96	2152.42
234.18	2142.18
234.40	2228.19
234.61	2316.25
234.83	1984.48
235.05	2050.02
235.27	2406.36
235.49	2279.39
235.70	2086.88
235.92	2263.01
236.14	2179.04
236.36	2408.41
236.58	2029.54
236.79	2189.28
237.01	2176.99
237.23	2146.27
237.45	2340.83
237.67	2093.02
237.88	2246.62
238.10	2355.16
238.32	2074.59
238.54	2082.78
238.76	2176.99
238.97	2121.70
239.19	2088.93
239.41	2240.48
239.63	2250.72
239.85	2162.66
240.06	2105.31
240.28	2088.93
240.50	2252.77
240.72	2170.85
240.93	2080.74
241.15	2174.94
241.37	2164.70
241.59	2297.82
241.81	2170.85
242.02	2111.46
242.24	2201.57
242.46	2267.10
242.68	2113.50
242.89	2162.66
243.11	2211.81
243.33	2236.38
243.55	2119.65
243.76	2156.51
243.98	2187.23
244.20	2152.42
244.42	2103.26
244.64	2140.13
244.85	2031.58
245.07	2093.02
245.29	2154.46
245.51	2078.69
245.72	2252.77
245.94	2310.11
246.16	2207.71
246.38	2209.76
246.59	2140.13
246.81	2185.18
247.03	2105.31
247.24	1992.67
247.46	2117.60
247.68	2166.75
247.90	2123.74
248.11	2164.70
248.33	2289.63
248.55	2185.18
248.77	2146.27
248.98	2193.37
249.20	2322.40
249.42	2172.89
249.64	2203.61
249.85	2095.07
250.07	2222.05
250.29	2109.41
250.50	2201.57
250.72	2086.88
250.94	2240.48
251.16	2496.47
251.37	2121.70
251.59	2136.03
251.81	2236.38
252.02	2367.45
252.24	2050.02
252.46	2318.30
252.68	2129.89
252.89	2107.36
253.11	2056.16
253.33	2328.54
253.54	2359.26
253.76	2086.88
253.98	2058.21
254.20	2070.50
254.41	2039.78
254.63	2183.13
254.85	2076.64
255.06	2179.04
255.28	2248.67
255.50	2166.75
255.71	2119.65
255.93	2045.92
256.15	2127.84
256.36	2236.38
256.58	2115.55
256.80	2181.09
257.02	2207.71
257.23	2170.85
257.45	2136.03
257.67	2205.66
257.88	1998.82
258.10	2236.38
258.32	2150.37
258.53	2207.71
258.75	2371.55
258.97	2140.13
259.18	2039.78
259.40	2095.07
259.62	2363.36
259.83	2252.77
260.05	2168.80
260.27	2654.17
260.48	2324.44
260.70	2191.33
260.92	2136.03
261.13	2111.46
261.35	2220.00
261.57	2269.15
261.78	1994.72
262.00	2039.78
262.22	2285.53
262.43	2142.18
262.65	2140.13
262.86	2170.85
263.08	2441.18
263.30	2187.23
263.51	2050.02
263.73	2117.60
263.95	2340.83
264.16	2060.26
264.38	2088.93
264.60	2185.18
264.81	2195.42
265.03	2340.83
265.25	2283.49
265.46	2162.66
265.68	2179.04
265.89	2248.67
266.11	2050.02
266.33	2195.42
266.54	2324.44
266.76	2244.57
266.98	2179.04
267.19	2187.23
267.41	2281.44
267.62	2146.27
267.84	2058.21
268.06	2244.57
268.27	2258.91
268.49	2330.59
268.70	2191.33
268.92	2113.50
269.14	2166.75
269.35	2101.22
269.57	2144.22
269.79	2176.99
270.00	2197.47
270.22	2375.64
270.43	2054.11
270.65	1947.62
270.87	2185.18
271.08	2232.29
271.30	2224.09
271.51	2154.46
271.73	2250.72
271.95	2367.45
272.16	2072.54
272.38	2226.14
272.59	2117.60
272.81	2281.44
273.02	2129.89
273.24	2193.37
273.46	2203.61
273.67	2111.46
273.89	2080.74
274.10	2064.35
274.32	2269.15
274.54	2258.91
274.75	2121.70
274.97	2152.42
275.18	2242.53
275.40	2324.44
275.61	2164.70
275.83	2197.47
276.05	2109.41
276.26	2199.52
276.48	2222.05
276.69	2105.31
276.91	2088.93
277.12	2381.79
277.34	2185.18
277.55	2320.35
277.77	2256.86
277.99	2105.31
278.20	2129.89
278.42	2062.30
278.63	2095.07
278.85	2050.02
279.06	2080.74
279.28	2295.77
279.49	2238.43
279.71	2244.57
279.93	2170.85
280.14	2060.26
280.36	2123.74
280.57	2316.25
280.79	2213.85
281.00	2041.82
281.22	2160.61
281.43	2326.49
281.65	2043.87
281.86	2113.50
282.08	2197.47
282.29	2406.36
282.51	2084.83
282.73	2109.41
282.94	2070.50
283.16	2322.40
283.37	2306.01
283.59	2220.00
283.80	2252.77
284.02	2240.48
284.23	2193.37
284.45	2066.40
284.66	2095.07
284.88	2095.07
285.09	2158.56
285.31	2230.24
285.52	2267.10
285.74	2093.02
285.95	2246.62
286.17	2228.19
286.38	2336.73
286.60	2158.56
286.81	2133.98
287.03	2150.37
287.24	2185.18
287.46	2252.77
287.67	2185.18
287.89	2373.60
288.10	2285.53
288.32	2191.33
288.53	2328.54
288.75	2156.51
288.96	2299.87
289.18	2166.75
289.39	2097.12
289.61	2224.09
289.82	2463.71
290.04	2353.12
290.25	2084.83
290.47	2152.42
290.68	2133.98
290.90	2340.83
291.11	2078.69
291.33	2254.81
291.54	2160.61
291.76	2111.46
291.97	2203.61
292.18	2142.18
292.40	2209.76
292.61	2109.41
292.83	2424.80
293.04	2209.76
293.26	2164.70
293.47	2205.66
293.69	2154.46
293.90	2144.22
294.12	2226.14
294.33	2211.81
294.55	2189.28
294.76	2271.20
294.97	2303.96
295.19	2322.40
295.40	2179.04
295.62	2191.33
295.83	2295.77
296.05	2105.31
296.26	2289.63
296.48	2138.08
296.69	2127.84
296.90	2140.13
297.12	2207.71
297.33	2248.67
297.55	2133.98
297.76	2289.63
297.98	2240.48
298.19	2211.81
298.41	2179.04
298.62	2109.41
298.83	2289.63
299.05	2230.24
299.26	2086.88
299.48	2232.29
299.69	2267.10
299.90	2133.98
300.12	2103.26
300.33	2252.77
300.55	2222.05
300.76	2203.61
300.98	2144.22
301.19	2187.23
301.40	2133.98
301.62	2150.37
301.83	2316.25
302.05	2125.79
302.26	2187.23
302.47	2234.33
302.69	2086.88
302.90	2256.86
303.12	2078.69
303.33	2207.71
303.54	2398.17
303.76	2191.33
303.97	2146.27
304.19	2338.78
304.40	2076.64
304.61	2297.82
304.83	2324.44
305.04	2281.44
305.26	2314.20
305.47	2197.47
305.68	2170.85
305.90	2002.91
306.11	2351.07
306.33	2170.85
306.54	2136.03
306.75	2113.50
306.97	2002.91
307.18	2156.51
307.39	2136.03
307.61	2260.96
307.82	2252.77
308.04	2211.81
308.25	2115.55
308.46	2256.86
308.68	2191.33
308.89	2265.05
309.10	2213.85
309.32	2224.09
309.53	2195.42
309.74	2260.96
309.96	2185.18
310.17	2322.40
310.39	2099.17
310.60	2250.72
310.81	2152.42
311.03	2043.87
311.24	2289.63
311.45	2269.15
311.67	2326.49
311.88	2207.71
312.09	2129.89
312.31	2179.04
312.52	2203.61
312.73	2140.13
312.95	2056.16
313.16	2099.17
313.37	2215.90
313.59	2170.85
313.80	2260.96
314.01	2301.92
314.23	2133.98
314.44	2131.94
314.65	2052.06
314.87	2037.73
315.08	2154.46
315.29	2136.03
315.51	2082.78
315.72	2070.50
315.93	2289.63
316.15	2205.66
316.36	2154.46
316.57	2199.52
316.79	2252.77
317.00	2099.17
317.21	2277.34
317.43	2174.94
317.64	2185.18
317.85	2121.70
318.07	2136.03
318.28	2191.33
318.49	2324.44
318.70	2365.40
318.92	2367.45
319.13	2408.41
319.34	2475.99
319.56	2215.90
319.77	2361.31
319.98	2295.77
320.20	2336.73
320.41	2256.86
320.62	2250.72
320.83	2107.36
321.05	2428.89
321.26	2203.61
321.47	2082.78
321.69	2301.92
321.90	2060.26
322.11	2136.03
322.32	2244.57
322.54	2308.06
322.75	2129.89
322.96	2478.04
323.18	2047.97
323.39	1992.67
323.60	2060.26
323.81	2168.80
324.03	2144.22
324.24	2242.53
324.45	2234.33
324.66	2080.74
324.88	2338.78
325.09	2369.50
325.30	2150.37
325.52	2138.08
325.73	2265.05
325.94	2076.64
326.15	2111.46
326.37	2111.46
326.58	2228.19
326.79	2275.29
327.00	2097.12
327.22	2226.14
327.43	2181.09
327.64	2078.69
327.85	2187.23
328.07	2201.57
328.28	2324.44
328.49	2142.18
328.70	2064.35
328.92	2187.23
329.13	2234.33
329.34	2244.57
329.55	2332.64
329.76	2293.72
329.98	2201.57
330.19	2224.09
330.40	2211.81
330.61	2154.46
330.83	2228.19
331.04	2121.70
331.25	2211.81
331.46	2109.41
331.68	2119.65
331.89	2271.20
332.10	2230.24
332.31	2066.40
332.52	2150.37
332.74	2256.86
332.95	2146.27
333.16	2166.75
333.37	2246.62
333.58	2185.18
333.80	2195.42
334.01	2062.30
334.22	2195.42
334.43	2154.46
334.64	2209.76
334.86	2060.26
335.07	2080.74
335.28	2281.44
335.49	2007.01
335.70	2236.38
335.92	2349.02
336.13	2418.65
336.34	2263.01
336.55	2174.94
336.76	2183.13
336.98	2074.59
337.19	2185.18
337.40	2293.72
337.61	2422.75
337.82	2121.70
338.04	2269.15
338.25	2144.22
338.46	2203.61
338.67	2070.50
338.88	2174.94
339.09	2078.69
339.31	2107.36
339.52	2111.46
339.73	2097.12
339.94	2146.27
340.15	2310.11
340.36	2148.32
340.58	2181.09
340.79	2078.69
341.00	2244.57
341.21	2017.25
341.42	2402.27
341.63	2183.13
341.85	2269.15
342.06	2238.43
342.27	2131.94
342.48	2228.19
342.69	2064.35
342.90	2191.33
343.12	2269.15
343.33	2088.93
343.54	2246.62
343.75	2306.01
343.96	2220.00
344.17	2119.65
344.38	2076.64
344.60	2144.22
344.81	2078.69
345.02	2140.13
345.23	2291.68
345.44	2418.65
345.65	2289.63
345.86	2162.66
346.07	2185.18
346.29	2211.81
346.50	2289.63
346.71	2215.90
346.92	2306.01
347.13	2471.90
347.34	2176.99
347.55	2191.33
347.76	2205.66
347.98	2054.11
348.19	2154.46
348.40	2346.97
348.61	2174.94
348.82	2338.78
349.03	2195.42
349.24	2066.40
349.45	2404.32
349.66	2121.70
349.88	2203.61
350.09	2117.60
350.30	2351.07
350.51	2342.88
350.72	2273.25
350.93	2209.76
351.14	2154.46
351.35	2246.62
351.56	2172.89
351.77	2129.89
351.99	2275.29
352.20	2308.06
352.41	2283.49
352.62	2027.49
352.83	2123.74
353.04	2220.00
353.25	2082.78
353.46	2244.57
353.67	2336.73
353.88	2047.97
354.09	2189.28
354.30	2105.31
354.52	2340.83
354.73	2183.13
354.94	2183.13
355.15	2193.37
355.36	2301.92
355.57	2136.03
355.78	2232.29
355.99	2185.18
356.20	2187.23
356.41	2260.96
356.62	2197.47
356.83	2164.70
357.04	2291.68
357.25	2105.31
357.46	2226.14
357.68	2109.41
357.89	2068.45
358.10	2146.27
358.31	2213.85
358.52	2154.46
358.73	2068.45
358.94	2129.89
359.15	2129.89
359.36	2318.30
359.57	2181.09
359.78	2224.09
359.99	2203.61
360.20	2129.89
360.41	2199.52
360.62	2256.86
360.83	2234.33
361.04	2160.61
361.25	2213.85
361.46	2342.88
361.67	2291.68
361.88	2222.05
362.09	2328.54
362.30	2189.28
362.51	2099.17
362.72	2152.42
362.93	2295.77
363.14	2349.02
363.35	2172.89
363.56	2166.75
363.78	2283.49
363.99	2316.25
364.20	2121.70
364.41	2203.61
364.62	2342.88
364.83	2226.14
365.04	2136.03
365.25	2203.61
365.46	2424.80
365.67	2078.69
365.88	2166.75
366.09	2068.45
366.30	2068.45
366.51	2275.29
366.72	2181.09
366.93	2201.57
367.14	2187.23
367.35	2326.49
367.56	2166.75
367.77	2265.05
367.98	2238.43
368.18	2265.05
368.39	2179.04
368.60	2088.93
368.81	2246.62
369.02	2187.23
369.23	2162.66
369.44	2043.87
369.65	2150.37
369.86	2230.24
370.07	2289.63
370.28	2078.69
370.49	2281.44
370.70	2226.14
370.91	2117.60
371.12	2119.65
371.33	2400.22
371.54	2140.13
371.75	2392.03
371.96	1970.15
372.17	2209.76
372.38	2211.81
372.59	2215.90
372.80	2088.93
373.01	2084.83
373.22	2215.90
373.43	2133.98
373.64	2060.26
373.85	2283.49
374.06	2316.25
374.26	2197.47
374.47	2152.42
374.68	2357.21
374.89	2181.09
375.10	2113.50
375.31	2228.19
375.52	2211.81
375.73	2238.43
375.94	2127.84
376.15	2351.07
376.36	2115.55
376.57	2176.99
376.78	2099.17
376.99	2174.94
377.20	2326.49
377.40	2189.28
377.61	2414.56
377.82	2074.59
378.03	2353.12
378.24	2314.20
378.45	2281.44
378.66	2213.85
378.87	2105.31
379.08	2035.68
379.29	2160.61
379.50	2285.53
379.71	2156.51
379.91	2273.25
380.12	2201.57
380.33	2185.18
380.54	2209.76
380.75	2170.85
380.96	2174.94
381.17	2187.23
381.38	2154.46
381.59	2189.28
381.80	2162.66
382.00	2422.75
382.21	2170.85
382.42	2318.30
382.63	2471.90
382.84	2279.39
383.05	2338.78
383.26	2424.80
383.47	2187.23
383.68	2224.09
383.88	2314.20
384.09	2162.66
384.30	2338.78
384.51	2297.82
384.72	2056.16
384.93	2103.26
385.14	2209.76
385.35	2248.67
385.55	2125.79
385.76	2377.69
385.97	2174.94
386.18	2056.16
386.39	2199.52
386.60	2127.84
386.81	2230.24
387.02	2072.54
387.22	2093.02
387.43	2220.00
387.64	2342.88
387.85	2406.36
388.06	2449.37
388.27	4140.99
388.48	8667.00
388.68	12095.30
388.89	14653.22
389.10	15959.82
389.31	14419.75
389.52	11403.09
389.73	9926.50
389.93	8908.66
390.14	8200.07
390.35	7311.25
390.56	6569.88
390.77	5289.90
390.98	4093.89
391.18	3289.04
391.39	2772.95
391.60	2338.78
391.81	2408.41
392.02	2119.65
392.23	2430.94
392.43	2332.64
392.64	2346.97
392.85	2140.13
393.06	2357.21
393.27	2136.03
393.47	2117.60
393.68	2187.23
393.89	2201.57
394.10	2443.23
394.31	2244.57
394.52	2080.74
394.72	2252.77
394.93	2306.01
395.14	2064.35
395.35	2258.91
395.56	2148.32
395.76	2168.80
395.97	2213.85
396.18	2242.53
396.39	2273.25
396.60	2670.55
396.80	2496.47
397.01	2441.18
397.22	2344.92
397.43	2357.21
397.64	2211.81
397.84	2392.03
398.05	2416.60
398.26	2265.05
398.47	2301.92
398.67	2256.86
398.88	2181.09
399.09	2236.38
399.30	2099.17
399.51	2220.00
399.71	2074.59
399.92	2138.08
400.13	2244.57
400.34	2191.33
400.54	2244.57
400.75	2357.21
400.96	2197.47
401.17	2332.64
401.37	2256.86
401.58	2107.36
401.79	2158.56
402.00	2277.34
402.21	2543.58
402.41	2549.72
402.62	2478.04
402.83	2668.50
403.04	2684.89
403.24	2711.51
403.45	2361.31
403.66	2461.66
403.87	2375.64
404.07	2416.60
404.28	2521.05
404.49	2375.64
404.70	2351.07
404.90	2293.72
405.11	2260.96
405.32	2283.49
405.52	2113.50
405.73	2107.36
405.94	2176.99
406.15	2228.19
406.35	2293.72
406.56	2301.92
406.77	2246.62
406.98	2267.10
407.18	2125.79
407.39	2340.83
407.60	2195.42
407.80	2260.96
408.01	2097.12
408.22	2318.30
408.43	2125.79
408.63	2185.18
408.84	2242.53
409.05	2260.96
409.25	2150.37
409.46	2142.18
409.67	2146.27
409.88	2236.38
410.08	2244.57
410.29	2086.88
410.50	2256.86
410.70	2213.85
410.91	2138.08
411.12	2258.91
411.32	2215.90
411.53	2121.70
411.74	2209.76
411.95	2285.53
412.15	2277.34
412.36	2381.79
412.57	2414.56
412.77	2367.45
412.98	2213.85
413.19	2142.18
413.39	2260.96
413.60	2285.53
413.81	2396.12
414.01	2117.60
414.22	2215.90
414.43	2263.01
414.63	2185.18
414.84	2320.35
415.05	2240.48
415.25	2101.22
415.46	2277.34
415.67	2211.81
415.87	2244.57
416.08	2203.61
416.29	2156.51
416.49	2326.49
416.70	2195.42
416.91	2191.33
417.11	2230.24
417.32	2236.38
417.53	2234.33
417.73	2240.48
417.94	2199.52
418.15	2256.86
418.35	2136.03
418.56	2133.98
418.77	2381.79
418.97	2226.14
419.18	2154.46
419.38	1972.19
419.59	2174.94
419.80	2346.97
420.00	2187.23
420.21	2185.18
420.42	2342.88
420.62	2258.91
420.83	2195.42
421.04	2158.56
421.24	2211.81
421.45	2299.87
421.65	2240.48
421.86	2152.42
422.07	2326.49
422.27	2213.85
422.48	2113.50
422.69	2125.79
422.89	2191.33
423.10	2191.33
423.30	2093.02
423.51	2236.38
423.72	2211.81
423.92	2295.77
424.13	2037.73
424.33	2170.85
424.54	2365.40
424.75	2191.33
424.95	2340.83
425.16	2150.37
425.36	2166.75
425.57	2392.03
425.78	2226.14
425.98	2293.72
426.19	2176.99
426.39	2086.88
426.60	2258.91
426.81	2293.72
427.01	2281.44
427.22	2090.98
427.42	2086.88
427.63	2031.58
427.83	2306.01
428.04	2363.36
428.25	2222.05
428.45	2265.05
428.66	2320.35
428.86	2234.33
429.07	2119.65
429.28	2205.66
429.48	2193.37
429.69	2166.75
429.89	2246.62
430.10	2045.92
430.30	2267.10
430.51	2291.68
430.71	2152.42
430.92	2197.47
431.13	2170.85
431.33	2248.67
431.54	2176.99
431.74	2334.68
431.95	2351.07
432.15	2174.94
432.36	2168.80
432.56	2234.33
432.77	2398.17
432.98	2357.21
433.18	2236.38
433.39	2121.70
433.59	2193.37
433.80	2308.06
434.00	2377.69
434.21	2238.43
434.41	2113.50
434.62	2381.79
434.82	2162.66
435.03	1996.77
435.23	2160.61
435.44	2002.91
435.64	2164.70
435.85	2174.94
436.06	2263.01
436.26	2312.16
436.47	2205.66
436.67	2138.08
436.88	2168.80
437.08	2291.68
437.29	2277.34
437.49	2209.76
437.70	2318.30
437.90	2138.08
438.11	2342.88
438.31	2281.44
438.52	2404.32
438.72	2385.88
438.93	2439.13
439.13	2299.87
439.34	2320.35
439.54	2281.44
439.75	2369.50
439.95	2285.53
440.16	2170.85
440.36	2232.29
440.57	2283.49
440.77	2258.91
440.98	2195.42
441.18	2273.25
441.39	2105.31
441.59	2099.17
441.80	2420.70
442.00	2205.66
442.21	2283.49
442.41	2080.74
442.62	2297.82
442.82	2142.18
443.02	2140.13
443.23	2279.39
443.43	2174.94
443.64	2310.11
443.84	2220.00
444.05	2263.01
444.25	2176.99
444.46	2215.90
444.66	2209.76
444.87	2398.17
445.07	2031.58
445.28	2187.23
445.48	2301.92
445.69	2230.24
445.89	2437.08
446.09	2222.05
446.30	2451.42
446.50	2908.12
446.71	4423.61
446.91	5590.95
447.12	6389.66
447.32	6868.89
447.53	6162.34
447.73	5193.65
447.93	4585.40
448.14	4190.14
448.34	4106.18
448.55	3614.66
448.75	3553.23
448.96	3266.51
449.16	3045.33
449.36	2891.73
449.57	2619.35
449.77	2295.77
449.98	2164.70
450.18	2275.29
450.39	2222.05
450.59	2306.01
450.79	2162.66
451.00	2172.89
451.20	2318.30
451.41	2215.90
451.61	2301.92
451.81	2142.18
452.02	2176.99
452.22	2154.46
452.43	2197.47
452.63	2072.54
452.84	2113.50
453.04	2150.37
453.24	2291.68
453.45	2119.65
453.65	2156.51
453.86	2197.47
454.06	2213.85
454.26	2220.00
454.47	2160.61
454.67	2359.26
454.87	2183.13
455.08	2164.70
455.28	2297.82
455.49	2287.58
455.69	2119.65
455.89	2406.36
456.10	2326.49
456.30	2199.52
456.51	2275.29
456.71	2263.01
456.91	2265.05
457.12	2187.23
457.32	2234.33
457.52	2115.55
457.73	2217.95
457.93	2267.10
458.14	2082.78
458.34	2095.07
458.54	2205.66
458.75	2129.89
458.95	2285.53
459.15	2289.63
459.36	2129.89
459.56	2252.77
459.76	2430.94
459.97	2248.67
460.17	2160.61
460.37	2285.53
460.58	2226.14
460.78	2260.96
460.99	2172.89
461.19	2113.50
461.39	2158.56
461.60	2142.18
461.80	2220.00
462.00	2105.31
462.21	2174.94
462.41	2115.55
462.61	2174.94
462.82	2007.01
463.02	2232.29
463.22	2246.62
463.43	2277.34
463.63	2209.76
463.83	2320.35
464.04	2246.62
464.24	2142.18
464.44	2119.65
464.64	2228.19
464.85	2203.61
465.05	2271.20
465.25	2269.15
465.46	2148.32
465.66	2195.42
465.86	2217.95
466.07	2172.89
466.27	2242.53
466.47	2076.64
466.68	2043.87
466.88	2322.40
467.08	2291.68
467.29	2238.43
467.49	2244.57
467.69	2232.29
467.89	2238.43
468.10	2148.32
468.30	2179.04
468.50	2303.96
468.71	2373.60
468.91	2131.94
469.11	2402.27
469.31	2197.47
469.52	2152.42
469.72	2406.36
469.92	2375.64
470.13	2248.67
470.33	2226.14
470.53	2285.53
470.73	2664.41
470.94	3098.58
471.14	3190.74
471.34	3608.52
471.54	3551.18
471.75	3071.95
471.95	2875.35
472.15	2777.05
472.36	2709.46
472.56	2731.99
472.76	2672.60
472.96	2631.64
473.17	2547.67
473.37	2469.85
473.57	2269.15
473.77	2293.72
473.98	2303.96
474.18	2127.84
474.38	2443.23
474.58	2140.13
474.79	2205.66
474.99	2281.44
475.19	2267.10
475.39	2142.18
475.60	2220.00
475.80	2256.86
476.00	2291.68
476.20	2234.33
476.41	2193.37
476.61	2328.54
476.81	2293.72
477.01	2138.08
477.21	2367.45
477.42	2220.00
477.62	2156.51
477.82	2312.16
478.02	2113.50
478.23	2236.38
478.43	2117.60
478.63	2189.28
478.83	2129.89
479.03	2211.81
479.24	2379.74
479.44	2392.03
479.64	2162.66
479.84	2058.21
480.04	2152.42
480.25	2242.53
480.45	2125.79
480.65	2189.28
480.85	2334.68
481.06	2174.94
481.26	2263.01
481.46	2271.20
481.66	2187.23
481.86	2115.55
482.06	2324.44
482.27	2088.93
482.47	2168.80
482.67	2220.00
482.87	2224.09
483.07	2314.20
483.28	2047.97
483.48	2093.02
483.68	2060.26
483.88	2043.87
484.08	2035.68
484.29	2150.37
484.49	2236.38
484.69	2084.83
484.89	2418.65
485.09	2285.53
485.29	2230.24
485.50	2301.92
485.70	2277.34
485.90	2303.96
486.10	2203.61
486.30	2236.38
486.50	2318.30
486.71	2299.87
486.91	2314.20
487.11	2334.68
487.31	2086.88
487.51	2279.39
487.71	2162.66
487.91	2123.74
488.12	2097.12
488.32	2064.35
488.52	2156.51
488.72	2027.49
488.92	2234.33
489.12	2379.74
489.32	2297.82
489.53	2220.00
489.73	2035.68
489.93	2330.59
490.13	2144.22
490.33	2144.22
490.53	2179.04
490.73	2318.30
490.94	2076.64
491.14	2322.40
491.34	2314.20
491.54	2519.00
491.74	3096.53
491.94	3831.75
492.14	3989.44
492.34	4136.90
492.54	3645.38
492.75	3135.44
492.95	3243.98
493.15	2949.08
493.35	2932.69
493.55	2842.58
493.75	2674.65
493.95	2738.13
494.15	2547.67
494.35	2365.40
494.56	2310.11
494.76	2140.13
494.96	2199.52
495.16	2236.38
495.36	2201.57
495.56	2250.72
495.76	2197.47
495.96	2133.98
496.16	2187.23
496.36	2404.32
496.56	2138.08
496.77	2250.72
496.97	2242.53
497.17	2437.08
497.37	2113.50
497.57	2207.71
497.77	2213.85
497.97	2164.70
498.17	2252.77
498.37	2152.42
498.57	2246.62
498.77	2199.52
498.97	2285.53
499.17	2377.69
499.38	2162.66
499.58	2283.49
499.78	2340.83
499.98	2353.12
500.18	2156.51
500.38	2193.37
500.58	2422.75
500.78	2906.07
500.98	5156.79
501.18	7260.05
501.38	9021.30
501.58	10055.53
501.78	9766.76
501.98	7649.16
502.18	6479.77
502.38	5474.22
502.58	5044.15
502.78	4667.32
502.98	4652.98
503.18	4333.50
503.38	3915.72
503.59	3358.67
503.79	3178.45
503.99	3045.33
504.19	2801.62
504.39	2787.29
504.59	2973.65
504.79	2947.03
504.99	2840.53
505.19	2643.93
505.39	2500.57
505.59	2613.21
505.79	2521.05
505.99	2389.98
506.19	2256.86
506.39	2418.65
506.59	2252.77
506.79	2230.24
506.99	2471.90
507.19	2242.53
507.39	2283.49
507.59	2129.89
507.79	2211.81
507.99	2123.74
508.19	2152.42
508.39	2199.52
508.59	2162.66
508.79	2267.10
508.99	2396.12
509.19	2142.18
509.39	2246.62
509.59	2088.93
509.79	2127.84
509.99	2281.44
510.19	2289.63
510.39	2232.29
510.59	2234.33
510.79	2193.37
510.99	2121.70
511.19	2152.42
511.39	2308.06
511.59	2324.44
511.79	2361.31
511.99	2215.90
512.19	2465.75
512.38	2230.24
512.58	2166.75
512.78	2209.76
512.98	2277.34
513.18	2373.60
513.38	2113.50
513.58	2293.72
513.78	2179.04
513.98	2207.71
514.18	2156.51
514.38	2326.49
514.58	2265.05
514.78	2193.37
514.98	2107.36
515.18	2142.18
515.38	2213.85
515.58	2371.55
515.78	2166.75
515.98	2285.53
516.18	2254.81
516.38	2164.70
516.57	2191.33
516.77	2095.07
516.97	2295.77
517.17	2117.60
517.37	2043.87
517.57	2340.83
517.77	2131.94
517.97	2174.94
518.17	2213.85
518.37	2136.03
518.57	2209.76
518.77	2215.90
518.97	2207.71
519.16	2215.90
519.36	2306.01
519.56	2154.46
519.76	2293.72
519.96	2160.61
520.16	2287.58
520.36	2097.12
520.56	2322.40
520.76	2136.03
520.96	2179.04
521.16	2334.68
521.35	2310.11
521.55	2330.59
521.75	2224.09
521.95	2166.75
522.15	2127.84
522.35	2109.41
522.55	2152.42
522.75	2308.06
522.95	2121.70
523.14	2107.36
523.34	2213.85
523.54	2172.89
523.74	2279.39
523.94	2203.61
524.14	2076.64
524.34	2258.91
524.54	2301.92
524.73	2158.56
524.93	2330.59
525.13	2279.39
525.33	2035.68
525.53	2435.03
525.73	2275.29
525.93	2222.05
526.13	2209.76
526.32	2136.03
526.52	2226.14
526.72	2314.20
526.92	2129.89
527.12	2078.69
527.32	2103.26
527.52	2236.38
527.71	2193.37
527.91	2183.13
528.11	2189.28
528.31	2248.67
528.51	2082.78
528.71	2226.14
528.90	2201.57
529.10	2351.07
529.30	2265.05
529.50	1943.52
529.70	2293.72
529.90	2236.38
530.09	2174.94
530.29	2152.42
530.49	2121.70
530.69	2432.99
530.89	2240.48
531.09	2281.44
531.28	2170.85
531.48	2373.60
531.68	2209.76
531.88	2283.49
532.08	2246.62
532.28	2162.66
532.47	2297.82
532.67	2291.68
532.87	2359.26
533.07	2156.51
533.27	2287.58
533.46	2234.33
533.66	2246.62
533.86	2277.34
534.06	2248.67
534.26	2246.62
534.45	2181.09
534.65	2306.01
534.85	2283.49
535.05	2129.89
535.25	2250.72
535.44	2090.98
535.64	2291.68
535.84	2197.47
536.04	2183.13
536.24	2115.55
536.43	2222.05
536.63	2205.66
536.83	2260.96
537.03	2232.29
537.22	2088.93
537.42	2078.69
537.62	2283.49
537.82	2140.13
538.02	2334.68
538.21	2254.81
538.41	2598.87
538.61	2381.79
538.81	2189.28
539.00	2285.53
539.20	2121.70
539.40	2176.99
539.60	2234.33
539.79	2346.97
539.99	2260.96
540.19	2189.28
540.39	2236.38
540.58	2289.63
540.78	2273.25
540.98	2217.95
541.18	2332.64
541.37	2220.00
541.57	2133.98
541.77	2152.42
541.97	2088.93
542.16	2129.89
542.36	2125.79
542.56	2170.85
542.76	2301.92
542.95	2242.53
543.15	2289.63
543.35	2326.49
543.54	2127.84
543.74	2201.57
543.94	2392.03
544.14	2162.66
544.33	2308.06
544.53	2172.89
544.73	2193.37
544.93	2187.23
545.12	2170.85
545.32	2236.38
545.52	2162.66
545.71	2146.27
545.91	2179.04
546.11	2166.75
546.30	2148.32
546.50	2195.42
546.70	2222.05
546.90	2209.76
547.09	2037.73
547.29	2197.47
547.49	2330.59
547.68	2211.81
547.88	2136.03
548.08	2295.77
548.27	2705.37
548.47	2181.09
548.67	2187.23
548.87	2238.43
549.06	2195.42
549.26	2176.99
549.46	2203.61
549.65	2170.85
549.85	2242.53
550.05	2228.19
550.24	2105.31
550.44	2168.80
550.64	2160.61
550.83	2197.47
551.03	2363.36
551.23	2283.49
551.42	2267.10
551.62	2238.43
551.82	2217.95
552.01	2248.67
552.21	2320.35
552.41	2226.14
552.60	2367.45
552.80	2199.52
553.00	2150.37
553.19	2232.29
553.39	2496.47
553.59	2050.02
553.78	2226.14
553.98	2213.85
554.17	2111.46
554.37	2179.04
554.57	2244.57
554.76	2072.54
554.96	2183.13
555.16	2285.53
555.35	2215.90
555.55	2353.12
555.75	2342.88
555.94	2308.06
556.14	2043.87
556.33	2271.20
556.53	2271.20
556.73	2236.38
556.92	2265.05
557.12	2291.68
557.32	2400.22
557.51	2361.31
557.71	2271.20
557.90	2373.60
558.10	2301.92
558.30	2115.55
558.49	2222.05
558.69	2234.33
558.88	2248.67
559.08	2209.76
559.28	2265.05
559.47	2244.57
559.67	2230.24
559.86	2379.74
560.06	2189.28
560.26	2211.81
560.45	2170.85
560.65	2185.18
560.84	2324.44
561.04	2101.22
561.24	2199.52
561.43	2170.85
561.63	2269.15
561.82	2236.38
562.02	2265.05
562.22	2183.13
562.41	2156.51
562.61	2179.04
562.80	2138.08
563.00	2510.81
563.19	2234.33
563.39	2207.71
563.59	2203.61
563.78	2117.60
563.98	2050.02
564.17	2158.56
564.37	2113.50
564.56	2248.67
564.76	2084.83
564.96	2297.82
565.15	2203.61
565.35	2369.50
565.54	2162.66
565.74	2250.72
565.93	2285.53
566.13	2236.38
566.32	2232.29
566.52	2230.24
566.71	2297.82
566.91	2332.64
567.11	2236.38
567.30	2248.67
567.50	2217.95
567.69	2170.85
567.89	2181.09
568.08	2183.13
568.28	2256.86
568.47	2054.11
568.67	2310.11
568.86	2140.13
569.06	2332.64
569.25	2203.61
569.45	2136.03
569.64	2154.46
569.84	2150.37
570.04	2250.72
570.23	2121.70
570.43	2250.72
570.62	2199.52
570.82	2392.03
571.01	2086.88
571.21	2187.23
571.40	2125.79
571.60	2316.25
571.79	2293.72
571.99	2252.77
572.18	2136.03
572.38	2314.20
572.57	2179.04
572.77	2308.06
572.96	2498.52
573.16	2258.91
573.35	2127.84
573.55	2389.98
573.74	2295.77
573.94	2189.28
574.13	2232.29
574.33	2287.58
574.52	2351.07
574.71	2185.18
574.91	2260.96
575.10	2166.75
575.30	2138.08
575.49	2023.39
575.69	2160.61
575.88	2254.81
576.08	2256.86
576.27	2306.01
576.47	2277.34
576.66	2406.36
576.86	2435.03
577.05	2244.57
577.25	2234.33
577.44	2486.23
577.64	2220.00
577.83	2326.49
578.02	2189.28
578.22	2301.92
578.41	2428.89
578.61	2179.04
578.80	2187.23
579.00	2230.24
579.19	2252.77
579.39	2336.73
579.58	2351.07
579.77	2244.57
579.97	2430.94
580.16	2400.22
580.36	2293.72
580.55	2355.16
580.75	2277.34
580.94	2332.64
581.13	2392.03
581.33	2326.49
581.52	2267.10
581.72	2469.85
581.91	2408.41
582.11	2256.86
582.30	2367.45
582.49	2359.26
582.69	2324.44
582.88	2377.69
583.08	2226.14
583.27	2355.16
583.47	2320.35
583.66	2166.75
583.85	2215.90
584.05	2238.43
584.24	2295.77
584.44	2330.59
584.63	2371.55
584.82	2365.40
585.02	2412.51
585.21	2379.74
585.41	2385.88
585.60	2346.97
585.79	2488.28
585.99	2457.56
586.18	2445.27
586.37	2904.02
586.57	4386.75
586.76	13387.57
586.96	32257.56
587.15	45917.51
587.34	55895.21
587.54	60421.22
587.73	55848.11
587.93	39577.00
588.12	29818.42
588.31	23643.80
588.51	20784.83
588.70	19099.36
588.89	17219.32
589.09	14890.78
589.28	13039.42
589.47	10639.20
589.67	8560.51
589.86	6424.48
590.06	4761.53
590.25	3880.90
590.44	3217.36
590.64	2824.15
590.83	2600.92
591.02	2447.32
591.22	2459.61
591.41	2363.36
591.60	2263.01
591.80	2486.23
591.99	2179.04
592.18	2166.75
592.38	2328.54
592.57	2103.26
592.76	2265.05
592.96	2265.05
593.15	2256.86
593.34	2310.11
593.54	2228.19
593.73	2316.25
593.92	2381.79
594.12	2318.30
594.31	2277.34
594.50	2416.60
594.70	2326.49
594.89	2539.48
595.08	2154.46
595.28	2357.21
595.47	2439.13
595.66	2357.21
595.86	2277.34
596.05	2146.27
596.24	2148.32
596.43	2336.73
596.63	2320.35
596.82	2285.53
597.01	2322.40
597.21	2410.46
597.40	2252.77
597.59	2273.25
597.79	2252.77
597.98	2330.59
598.17	2334.68
598.36	2242.53
598.56	2316.25
598.75	2166.75
598.94	2367.45
599.14	2244.57
599.33	2217.95
599.52	2332.64
599.71	2306.01
599.91	2248.67
600.10	2273.25
600.29	2215.90
600.48	2277.34
600.68	2289.63
600.87	2269.15
601.06	2187.23
601.26	2201.57
601.45	2275.29
601.64	2183.13
601.83	2328.54
602.03	2170.85
602.22	2220.00
602.41	2306.01
602.60	2553.82
602.80	2336.73
602.99	2308.06
603.18	2258.91
603.37	2252.77
603.57	2265.05
603.76	2281.44
603.95	2316.25
604.14	2230.24
604.34	2138.08
604.53	2185.18
604.72	2271.20
604.91	2299.87
605.10	2252.77
605.30	2150.37
605.49	2418.65
605.68	2297.82
605.87	2248.67
606.07	2109.41
606.26	2211.81
606.45	2310.11
606.64	2301.92
606.84	2297.82
607.03	2281.44
607.22	2324.44
607.41	2244.57
607.60	2203.61
607.80	2351.07
607.99	2224.09
608.18	2273.25
608.37	2256.86
608.56	2150.37
608.76	2310.11
608.95	2432.99
609.14	2322.40
609.33	2463.71
609.52	2459.61
609.72	2291.68
609.91	2369.50
610.10	2291.68
610.29	2408.41
610.48	2263.01
610.68	2258.91
610.87	2291.68
611.06	2338.78
611.25	2179.04
611.44	2359.26
611.63	2181.09
611.83	2371.55
612.02	2084.83
612.21	2398.17
612.40	2056.16
612.59	2125.79
612.79	2162.66
612.98	2193.37
613.17	2346.97
613.36	2252.77
613.55	2363.36
613.74	2336.73
613.93	2375.64
614.13	2521.05
614.32	2441.18
614.51	2514.91
614.70	2326.49
614.89	2256.86
615.08	2293.72
615.28	2746.33
615.47	2244.57
615.66	2373.60
615.85	2328.54
616.04	2355.16
616.23	2269.15
616.42	2330.59
616.62	2326.49
616.81	2287.58
617.00	2299.87
617.19	2285.53
617.38	2191.33
617.57	2203.61
617.76	2260.96
617.95	2412.51
618.15	2289.63
618.34	2385.88
618.53	2146.27
618.72	2363.36
618.91	2226.14
619.10	2312.16
619.29	2226.14
619.48	2211.81
619.68	2148.32
619.87	2195.42
620.06	2133.98
620.25	2336.73
620.44	2166.75
620.63	2140.13
620.82	2150.37
621.01	2330.59
621.20	2226.14
621.39	2199.52
621.59	2306.01
621.78	2254.81
621.97	2238.43
622.16	2220.00
622.35	2306.01
622.54	2369.50
622.73	2232.29
622.92	2105.31
623.11	2279.39
623.30	2166.75
623.49	2328.54
623.68	2170.85
623.88	2297.82
624.07	2201.57
624.26	2187.23
624.45	2248.67
624.64	2211.81
624.83	2236.38
625.02	2168.80
625.21	2203.61
625.40	2224.09
625.59	2310.11
625.78	2215.90
625.97	2338.78
626.16	2416.60
626.35	2469.85
626.54	2316.25
626.74	2365.40
626.93	2226.14
627.12	2279.39
627.31	2342.88
627.50	2303.96
627.69	2256.86
627.88	2113.50
628.07	2232.29
628.26	2078.69
628.45	2176.99
628.64	2103.26
628.83	2209.76
629.02	2207.71
629.21	2340.83
629.40	2252.77
629.59	2170.85
629.78	2267.10
629.97	2258.91
630.16	2301.92
630.35	2265.05
630.54	2234.33
630.73	2109.41
630.92	2207.71
631.11	2133.98
631.30	2195.42
631.49	2308.06
631.68	2281.44
631.87	2228.19
632.06	2076.64
632.25	2465.75
632.44	2170.85
632.63	2310.11
632.82	2254.81
633.01	2183.13
633.20	2308.06
633.39	2220.00
633.58	2195.42
633.77	2299.87
633.96	2359.26
634.15	2260.96
634.34	2297.82
634.53	2236.38
634.72	2185.18
634.91	2037.73
635.10	2283.49
635.29	2342.88
635.48	2291.68
635.67	2203.61
635.86	2060.26
636.05	2326.49
636.24	2187.23
636.43	2174.94
636.62	2230.24
636.81	1953.76
637.00	2236.38
637.19	2199.52
637.38	2213.85
637.57	2166.75
637.76	2213.85
637.95	2375.64
638.14	2271.20
638.33	2342.88
638.52	2377.69
638.71	2260.96
638.89	2156.51
639.08	2506.71
639.27	2340.83
639.46	2484.19
639.65	2858.96
639.84	2953.17
640.03	3055.57
640.22	2963.41
640.41	3004.37
640.60	2592.73
640.79	2562.01
640.98	2416.60
641.17	2482.14
641.36	2443.23
641.55	2396.12
641.74	2244.57
641.92	2265.05
642.11	2246.62
642.30	2226.14
642.49	2162.66
642.68	2156.51
642.87	2242.53
643.06	2273.25
643.25	2197.47
643.44	2103.26
643.63	2189.28
643.82	2244.57
644.00	2088.93
644.19	2166.75
644.38	2170.85
644.57	2265.05
644.76	2222.05
644.95	2265.05
645.14	2152.42
645.33	2146.27
645.52	2211.81
645.71	2068.45
645.89	2109.41
646.08	2179.04
646.27	2160.61
646.46	2349.02
646.65	2047.97
646.84	2211.81
647.03	2113.50
647.22	2299.87
647.40	2289.63
647.59	2211.81
647.78	2002.91
647.97	2117.60
648.16	2086.88
648.35	2332.64
648.54	2389.98
648.73	2185.18
648.91	2252.77
649.10	2164.70
649.29	2195.42
649.48	2250.72
649.67	2250.72
649.86	2250.72
650.05	2252.77
650.23	2475.99
650.42	2301.92
650.61	2504.67
650.80	2449.37
650.99	2574.30
651.18	2363.36
651.36	2330.59
651.55	2168.80
651.74	2430.94
651.93	2220.00
652.12	2269.15
652.31	2220.00
652.49	2273.25
652.68	2197.47
652.87	2369.50
653.06	2318.30
653.25	2379.74
653.44	2217.95
653.62	2422.75
653.81	2162.66
654.00	2172.89
654.19	2248.67
654.38	2428.89
654.56	2322.40
654.75	2133.98
654.94	2260.96
655.13	2289.63
655.32	2209.76
655.51	2238.43
655.69	2166.75
655.88	2279.39
656.07	2217.95
656.26	2183.13
656.45	2097.12
656.63	2187.23
656.82	2201.57
657.01	2316.25
657.20	2162.66
657.38	2310.11
657.57	2174.94
657.76	2054.11
657.95	2226.14
658.14	2185.18
658.32	2250.72
658.51	2195.42
658.70	2166.75
658.89	2220.00
659.08	2248.67
659.26	2443.23
659.45	2228.19
659.64	2344.92
659.83	2203.61
660.01	2641.88
660.20	2318.30
660.39	2330.59
660.58	2105.31
660.76	2291.68
660.95	2129.89
661.14	2269.15
661.33	2111.46
661.51	2138.08
661.70	2220.00
661.89	2244.57
662.08	2183.13
662.26	2115.55
662.45	2043.87
662.64	2381.79
662.83	2299.87
663.01	2111.46
663.20	2142.18
663.39	2353.12
663.58	2103.26
663.76	2176.99
663.95	2240.48
664.14	2031.58
664.32	2101.22
664.51	2160.61
664.70	2056.16
664.89	2226.14
665.07	2117.60
665.26	2260.96
665.45	2215.90
665.64	2328.54
665.82	2275.29
666.01	2273.25
666.20	2070.50
666.38	2306.01
666.57	2416.60
666.76	3354.57
666.95	7864.20
667.13	16652.03
667.32	21810.87
667.51	25515.64
667.69	27969.11
667.88	25552.51
668.07	18140.91
668.25	14247.72
668.44	12023.62
668.63	10254.18
668.81	8961.91
669.00	8040.33
669.19	7092.12
669.38	6123.43
669.56	5357.49
669.75	4384.70
669.94	3629.00
670.12	3168.21
670.31	2750.42
670.50	2602.97
670.68	2508.76
670.87	2379.74
671.06	2277.34
671.24	2363.36
671.43	2469.85
671.62	2287.58
671.80	2168.80
671.99	2234.33
672.18	2199.52
672.36	2365.40
672.55	2275.29
672.74	2295.77
672.92	2176.99
673.11	2297.82
673.29	2068.45
673.48	2256.86
673.67	2150.37
673.85	2320.35
674.04	2115.55
674.23	2162.66
674.41	2414.56
674.60	2093.02
674.79	2078.69
674.97	2138.08
675.16	2332.64
675.34	2252.77
675.53	2068.45
675.72	2185.18
675.90	2312.16
676.09	2191.33
676.28	2179.04
676.46	2095.07
676.65	2256.86
676.83	2078.69
677.02	2160.61
677.21	2199.52
677.39	2256.86
677.58	2179.04
677.77	2021.35
677.95	2166.75
678.14	2189.28
678.32	2199.52
678.51	2195.42
678.70	2357.21
678.88	2136.03
679.07	2217.95
679.25	2201.57
679.44	2207.71
679.63	2176.99
679.81	2267.10
680.00	2203.61
680.18	2209.76
680.37	2355.16
680.55	2283.49
680.74	2119.65
680.93	1961.95
681.11	2260.96
681.30	2170.85
681.48	2220.00
681.67	2236.38
681.85	2146.27
682.04	2162.66
682.23	2334.68
682.41	2193.37
682.60	2179.04
682.78	2193.37
682.97	2138.08
683.15	2228.19
683.34	2244.57
683.53	2367.45
683.71	2095.07
683.90	2371.55
684.08	2326.49
684.27	2160.61
684.45	2226.14
684.64	2308.06
684.82	2152.42
685.01	2254.81
685.19	2123.74
685.38	2426.84
685.57	2205.66
685.75	2068.45
685.94	2170.85
686.12	2133.98
686.31	2168.80
686.49	2310.11
686.68	2021.35
686.86	2162.66
687.05	2197.47
687.23	2402.27
687.42	2138.08
687.60	2072.54
687.79	2246.62
687.97	2342.88
688.16	2246.62
688.34	2199.52
688.53	2047.97
688.71	2154.46
688.90	2318.30
689.08	2240.48
689.27	2021.35
689.45	2291.68
689.64	2301.92
689.82	2209.76
690.01	2258.91
690.19	2236.38
690.38	2160.61
690.56	2211.81
690.75	2164.70
690.93	2203.61
691.12	2052.06
691.30	2217.95
691.49	2179.04
691.67	2146.27
691.86	2367.45
692.04	2207.71
692.23	2301.92
692.41	2310.11
692.60	2441.18
692.78	2387.93
692.97	2285.53
693.15	2363.36
693.34	2406.36
693.52	2301.92
693.71	2258.91
693.89	2183.13
694.08	2084.83
694.26	2238.43
694.44	2265.05
694.63	2349.02
694.81	2162.66
695.00	2111.46
695.18	2338.78
695.37	2416.60
695.55	2154.46
695.74	2176.99
695.92	2162.66
696.10	2285.53
696.29	2095.07
696.47	2107.36
696.66	2140.13
696.84	2138.08
697.03	2172.89
697.21	2404.32
697.40	3194.83
697.58	2297.82
697.76	2244.57
697.95	2074.59
698.13	2086.88
698.32	2123.74
698.50	2183.13
698.68	2269.15
698.87	2260.96
699.05	2332.64
699.24	2123.74
699.42	2052.06
699.61	2220.00
699.79	2185.18
699.97	2187.23
700.16	2076.64
700.34	2084.83
700.53	2232.29
700.71	2426.84
700.89	2265.05
701.08	2170.85
701.26	2195.42
701.45	2717.65
701.63	2164.70
701.81	2207.71
702.00	2181.09
702.18	2220.00
702.37	2236.38
702.55	2441.18
702.73	2353.12
702.92	2455.51
703.10	2547.67
703.28	2482.14
703.47	2224.09
703.65	2449.37
703.84	2486.23
704.02	2220.00
704.20	2389.98
704.39	2111.46
704.57	2189.28
704.75	2293.72
704.94	2303.96
705.12	2312.16
705.30	2535.39
705.49	4554.68
705.67	11030.36
705.86	20250.32
706.04	24399.50
706.22	28282.45
706.41	29347.39
706.59	25179.78
706.77	17872.62
706.96	14556.96
707.14	12939.07
707.32	11290.45
707.51	9744.24
707.69	8198.02
707.87	6616.99
708.06	5167.03
708.24	4165.57
708.42	3246.03
708.61	3088.34
708.79	2471.90
708.97	2435.03
709.16	2381.79
709.34	2267.10
709.52	2260.96
709.71	2236.38
709.89	2275.29
710.07	2211.81
710.26	2105.31
710.44	2238.43
710.62	2326.49
710.80	2220.00
710.99	2289.63
711.17	2232.29
711.35	2181.09
711.54	2144.22
711.72	2357.21
711.90	2215.90
712.09	2240.48
712.27	2170.85
712.45	2238.43
712.63	2213.85
712.82	2162.66
713.00	2195.42
713.18	2236.38
713.37	2215.90
713.55	2291.68
713.73	2281.44
713.91	2277.34
714.10	2172.89
714.28	2162.66
714.46	2236.38
714.65	2170.85
714.83	2234.33
715.01	2193.37
715.19	2164.70
715.38	2095.07
715.56	2224.09
715.74	2199.52
715.92	2133.98
716.11	2367.45
716.29	2007.01
716.47	2230.24
716.65	2176.99
716.84	2013.15
717.02	2271.20
717.20	2064.35
717.38	2199.52
717.57	2314.20
717.75	2195.42
717.93	2207.71
718.11	2275.29
718.30	2189.28
718.48	2148.32
718.66	2242.53
718.84	2314.20
719.03	2232.29
719.21	2133.98
719.39	2297.82
719.57	2369.50
719.75	2252.77
719.94	2133.98
720.12	2256.86
720.30	2172.89
720.48	2355.16
720.67	2131.94
720.85	2099.17
721.03	2129.89
721.21	2156.51
721.39	2293.72
721.58	2228.19
721.76	2215.90
721.94	2254.81
722.12	2187.23
722.30	2361.31
722.49	2172.89
722.67	2138.08
722.85	2179.04
723.03	2076.64
723.21	2129.89
723.40	2226.14
723.58	2301.92
723.76	2361.31
723.94	2277.34
724.12	2273.25
724.30	2410.46
724.49	2389.98
724.67	2154.46
724.85	2328.54
725.03	2095.07
725.21	2322.40
725.40	2275.29
725.58	2207.71
725.76	2334.68
725.94	2287.58
726.12	2123.74
726.30	2191.33
726.49	2201.57
726.67	2176.99
726.85	2283.49
727.03	2543.58
727.21	3729.35
727.39	5449.64
727.57	6674.33
727.76	7264.15
727.94	7800.71
728.12	7241.62
728.30	5816.23
728.48	4951.99
728.66	4530.11
728.84	4153.28
729.03	3620.81
729.21	3143.63
729.39	2758.61
729.57	2529.24
729.75	2363.36
729.93	2338.78
730.11	2332.64
730.30	2174.94
730.48	2207.71
730.66	2310.11
730.84	2279.39
731.02	2238.43
731.20	2203.61
731.38	2197.47
731.56	2125.79
731.74	2017.25
731.93	2269.15
732.11	2230.24
732.29	2181.09
732.47	2209.76
732.65	2160.61
732.83	2381.79
733.01	2183.13
733.19	2174.94
733.37	2260.96
733.56	2209.76
733.74	2093.02
733.92	2340.83
734.10	2117.60
734.28	2265.05
734.46	2066.40
734.64	2199.52
734.82	2215.90
735.00	2133.98
735.18	2056.16
735.36	2260.96
735.54	2248.67
735.73	2228.19
735.91	2238.43
736.09	2203.61
736.27	2209.76
736.45	2246.62
736.63	2078.69
736.81	2160.61
736.99	2332.64
737.17	2375.64
737.35	2107.36
737.53	2236.38
737.71	2142.18
737.89	2301.92
738.07	2072.54
738.25	2152.42
738.43	2068.45
738.61	2170.85
738.80	2080.74
738.98	2035.68
739.16	2226.14
739.34	2105.31
739.52	2342.88
739.70	2195.42
739.88	2299.87
740.06	2244.57
740.24	1972.19
740.42	2299.87
740.60	2105.31
740.78	2052.06
740.96	2115.55
741.14	2181.09
741.32	2187.23
741.50	2031.58
741.68	2340.83
741.86	2301.92
742.04	2045.92
742.22	2021.35
742.40	2232.29
742.58	2228.19
742.76	2105.31
742.94	2308.06
743.12	1970.15
743.30	2203.61
743.48	2152.42
743.66	2156.51
743.84	2271.20
744.02	2170.85
744.20	2213.85
744.38	2047.97
744.56	2148.32
744.74	2461.66
744.92	2246.62
745.10	2330.59
745.28	2275.29
745.46	2387.93
745.64	2195.42
745.82	2226.14
746.00	2191.33
746.18	2242.53
746.36	2082.78
746.54	2199.52
746.72	2215.90
746.90	2084.83
747.08	2379.74
747.26	2170.85
747.44	2285.53
747.62	2289.63
747.80	2226.14
747.98	2310.11
748.15	2197.47
748.33	2398.17
748.51	2250.72
748.69	2310.11
748.87	2115.55
749.05	2148.32
749.23	2213.85
749.41	2263.01
749.59	2170.85
749.77	2277.34
749.95	2176.99
750.13	2150.37
750.31	2271.20
750.49	2215.90
750.67	2273.25
750.85	2287.58
751.03	2203.61
751.20	2379.74
751.38	2179.04
751.56	2199.52
751.74	2183.13
751.92	2084.83
752.10	2166.75
752.28	2283.49
752.46	2125.79
752.64	2236.38
752.82	2193.37
753.00	2334.68
753.18	2244.57
753.35	2131.94
753.53	2224.09
753.71	2129.89
753.89	2201.57
754.07	2199.52
754.25	2310.11
754.43	2234.33
754.61	2072.54
754.79	2254.81
754.97	2164.70
755.14	2271.20
755.32	2054.11
755.50	2160.61
755.68	2215.90
755.86	2086.88
756.04	2109.41
756.22	2097.12
756.40	2256.86
756.57	2363.36
756.75	2191.33
756.93	2314.20
757.11	2283.49
757.29	2084.83
757.47	2033.63
757.65	2058.21
757.82	2062.30
758.00	2072.54
758.18	2158.56
758.36	2166.75
758.54	2324.44
758.72	2064.35
758.90	2222.05
759.07	2215.90
759.25	2054.11
759.43	2244.57
759.61	2125.79
759.79	3106.77
759.97	2256.86
760.15	2146.27
760.32	2170.85
760.50	2215.90
760.68	2422.75
760.86	2093.02
761.04	2287.58
761.22	2217.95
761.39	2129.89
761.57	2324.44
761.75	2170.85
761.93	2203.61
762.11	2146.27
762.28	2248.67
762.46	2072.54
762.64	2318.30
762.82	2121.70
763.00	2228.19
763.18	2299.87
763.35	2095.07
763.53	2306.01
763.71	2195.42
763.89	2226.14
764.07	2193.37
764.24	2273.25
764.42	2250.72
764.60	2260.96
764.78	2158.56
764.96	2254.81
765.13	2316.25
765.31	2164.70
765.49	2283.49
765.67	2072.54
765.84	2136.03
766.02	2166.75
766.20	2031.58
766.38	2267.10
766.56	2283.49
766.73	2256.86
766.91	2156.51
767.09	2209.76
767.27	2185.18
767.44	2119.65
767.62	2213.85
767.80	2146.27
767.98	2121.70
768.15	2242.53
768.33	2207.71
768.51	2217.95
768.69	2240.48
768.87	2260.96
769.04	2121.70
769.22	2424.80
769.40	2303.96
769.58	2365.40
769.75	2211.81
769.93	2258.91
770.11	2109.41
770.28	2166.75
770.46	2273.25
770.64	2191.33
770.82	2129.89
770.99	2187.23
771.17	2176.99
771.35	2154.46
771.53	2248.67
771.70	2179.04
771.88	2318.30
772.06	2158.56
772.23	2187.23
772.41	2217.95
772.59	2125.79
772.77	2103.26
772.94	2045.92
773.12	2224.09
773.30	2125.79
773.47	2244.57
773.65	2060.26
773.83	2314.20
774.01	2201.57
774.18	2035.68
774.36	2207.71
774.54	2039.78
774.71	2281.44
774.89	2076.64
775.07	2054.11
775.24	2189.28
775.42	2138.08
775.60	2367.45
775.78	2146.27
775.95	2193.37
776.13	2076.64
776.31	2074.59
776.48	2240.48
776.66	2277.34
776.84	2193.37
777.01	2111.46
777.19	2133.98
777.37	2101.22
777.54	2240.48
777.72	2371.55
777.90	2287.58
778.07	2072.54
778.25	2469.85
778.43	2299.87
778.60	2129.89
778.78	2281.44
778.96	2267.10
779.13	2029.54
779.31	2281.44
779.49	2222.05
779.66	2168.80
779.84	2148.32
780.01	2148.32
780.19	2019.30
780.37	2340.83
780.54	2226.14
780.72	2070.50
780.90	2201.57
781.07	2136.03
781.25	2133.98
781.43	2263.01
781.60	2154.46
781.78	2281.44
781.95	2252.77
782.13	2121.70
782.31	2242.53
782.48	2015.20
782.66	2250.72
782.83	2406.36
783.01	2179.04
783.19	2277.34
783.36	2168.80
783.54	2097.12
783.72	2338.78
783.89	2174.94
784.07	2246.62
784.24	2271.20
784.42	2338.78
784.60	2193.37
784.77	2265.05
784.95	2056.16
785.12	2103.26
785.30	2224.09
785.47	2164.70
785.65	2043.87
785.83	2142.18
786.00	2117.60
786.18	2162.66
786.35	2097.12
786.53	2099.17
786.71	2346.97
786.88	2254.81
787.06	2179.04
787.23	2131.94
787.41	2031.58
787.58	2203.61
787.76	2062.30
787.94	2179.04
788.11	2215.90
788.29	2117.60
788.46	2207.71
788.64	2029.54
788.81	2170.85
788.99	2047.97
789.16	2052.06
789.34	2244.57
789.52	2185.18
789.69	2154.46
789.87	2138.08
790.04	2138.08
790.22	2185.18
790.39	2346.97
790.57	2179.04
790.74	2084.83
790.92	2267.10
791.09	2037.73
791.27	2238.43
791.44	2303.96
791.62	2220.00
791.79	2334.68
791.97	2213.85
792.15	2508.76
792.32	2222.05
792.50	2275.29
792.67	2363.36
792.85	2306.01
793.02	2224.09
793.20	2115.55
793.37	2056.16
793.55	2131.94
793.72	2015.20
793.90	2222.05
794.07	2088.93
794.25	2023.39
794.42	2295.77
794.60	2160.61
794.77	2265.05
794.95	2287.58
795.12	2273.25
795.30	2140.13
795.47	2023.39
795.65	2492.38
795.82	2181.09
796.00	2156.51
796.17	2181.09
796.34	2138.08
796.52	2228.19
796.69	2246.62
796.87	2234.33
797.04	2242.53
797.22	2273.25
797.39	2152.42
797.57	2211.81
797.74	2215.90
797.92	2295.77
798.09	2158.56
798.27	2260.96
798.44	2179.04
798.62	2146.27
798.79	2260.96
798.96	2224.09
799.14	2144.22
799.31	2437.08
799.49	2189.28
799.66	2201.57
799.84	2222.05
800.01	2011.11
800.19	2189.28
800.36	2037.73
800.53	2142.18
800.71	2222.05
800.88	2349.02
801.06	2189.28
801.23	2160.61
801.41	2201.57
801.58	2133.98
801.75	2140.13
801.93	2228.19
802.10	2265.05
802.28	2156.51
802.45	2127.84
802.63	2203.61
802.80	2299.87
802.97	2207.71
803.15	2158.56
803.32	2099.17
803.50	2109.41
803.67	2138.08
803.84	2029.54
804.02	2222.05
804.19	2156.51
804.37	1982.43
804.54	2076.64
804.71	2146.27
804.89	2226.14
805.06	2109.41
805.24	2093.02
805.41	2119.65
805.58	2103.26
805.76	2400.22
805.93	2234.33
806.10	2236.38
806.28	2283.49
806.45	2217.95
806.63	2179.04
806.80	2252.77
806.97	2146.27
807.15	2228.19
807.32	2203.61
807.49	2217.95
807.67	2185.18
807.84	2269.15
808.01	1996.77
808.19	2344.92
808.36	2416.60
808.54	2183.13
808.71	2086.88
808.88	2220.00
809.06	2267.10
809.23	2293.72
809.40	2154.46
809.58	2193.37
809.75	2156.51
809.92	2095.07
810.10	2336.73
810.27	2109.41
810.44	2230.24
810.62	2297.82
810.79	2172.89
810.96	2187.23
811.14	2150.37
811.31	2234.33
811.48	2263.01
811.66	2150.37
811.83	2336.73
812.00	2244.57
812.18	2172.89
812.35	2406.36
812.52	2244.57
812.69	2115.55
812.87	2265.05
813.04	2123.74
813.21	2195.42
813.39	2140.13
813.56	2084.83
813.73	2267.10
813.91	2031.58
814.08	2191.33
814.25	2230.24
814.42	2025.44
814.60	2207.71
814.77	2244.57
814.94	2168.80
815.12	2156.51
815.29	2260.96
815.46	2115.55
815.63	2260.96
815.81	2189.28
815.98	2148.32
816.15	2185.18
816.33	2187.23
816.50	2111.46
816.67	2267.10
816.84	2086.88
817.02	2056.16
817.19	2158.56
817.36	2252.77
817.53	2265.05
817.71	2121.70
817.88	2207.71
818.05	2086.88
818.22	2220.00
818.40	2289.63
818.57	2064.35
818.74	2174.94
818.91	2217.95
819.09	2273.25
819.26	2273.25
819.43	2086.88
819.60	2176.99
819.78	2176.99
819.95	2349.02
820.12	2168.80
820.29	2275.29
820.47	2359.26
820.64	2140.13
820.81	2025.44
820.98	2052.06
821.15	2127.84
821.33	2220.00
821.50	2082.78
821.67	2183.13
821.84	2039.78
822.02	2252.77
822.19	2242.53
822.36	2170.85
822.53	2199.52
822.70	2072.54
822.88	2209.76
823.05	2301.92
823.22	2176.99
823.39	2258.91
823.56	2176.99
823.74	2340.83
823.91	2154.46
824.08	2058.21
824.25	2121.70
824.42	2293.72
824.60	2039.78
824.77	2170.85
824.94	2195.42
825.11	2260.96
825.28	2072.54
825.45	2207.71
825.63	2154.46
825.80	2068.45
825.97	2224.09
826.14	2205.66
826.31	2068.45
826.48	2228.19
826.66	2088.93
826.83	2179.04
827.00	2138.08
827.17	2072.54
827.34	2136.03
827.51	2117.60
827.69	2197.47
827.86	2023.39
828.03	2172.89
828.20	2191.33
828.37	2095.07
828.54	2205.66
828.71	2136.03
828.89	2340.83
829.06	2164.70
829.23	2295.77
829.40	2170.85
829.57	2093.02
829.74	2238.43
829.91	2217.95
830.09	2086.88
830.26	2244.57
830.43	2324.44
830.60	2209.76
830.77	2213.85
830.94	2285.53
831.11	2213.85
831.28	2113.50
831.46	2297.82
831.63	2168.80
831.80	2234.33
831.97	2072.54
832.14	2093.02
832.31	2183.13
832.48	2269.15
832.65	2265.05
832.82	2174.94
832.99	2244.57
833.17	2047.97
833.34	2369.50
833.51	2273.25
833.68	2090.98
833.85	2277.34
834.02	2109.41
834.19	2121.70
834.36	2142.18
834.53	2201.57
834.70	2306.01
834.87	2279.39
835.04	2127.84
835.22	2086.88
835.39	2138.08
835.56	2097.12
835.73	2082.78
835.90	2308.06
836.07	2129.89
836.24	2326.49
836.41	2107.36
836.58	2113.50
836.75	2260.96
836.92	2154.46
837.09	2164.70
837.26	2228.19
837.43	2211.81
837.60	2228.19
837.77	2156.51
837.94	2265.05
838.12	2353.12
838.29	2121.70
838.46	2031.58
838.63	2037.73
838.80	2260.96
838.97	2207.71
839.14	2168.80
839.31	2250.72
839.48	2269.15
839.65	2084.83
839.82	2121.70
839.99	2238.43
840.16	2111.46
840.33	2066.40
840.50	2240.48
840.67	2168.80
840.84	1949.67
841.01	2144.22
841.18	2066.40
841.35	2168.80
841.52	2269.15
841.69	2328.54
841.86	2197.47
842.03	2220.00
842.20	2285.53
842.37	2103.26
842.54	2150.37
842.71	2195.42
842.88	2045.92
843.05	2232.29
843.22	2136.03
843.39	2340.83
843.56	2205.66
843.73	2105.31
843.90	2138.08
844.07	2193.37
844.24	2240.48
844.41	2203.61
844.58	2131.94
844.75	2183.13
844.92	2246.62
845.09	2117.60
845.26	2121.70
845.43	2267.10
845.60	2181.09
845.77	2228.19
845.94	2197.47
846.10	2242.53
846.27	2076.64
846.44	2093.02
846.61	2072.54
846.78	2211.81
846.95	2265.05
847.12	2070.50
847.29	2176.99
847.46	2080.74
847.63	2349.02
847.80	2168.80
847.97	2166.75
848.14	2416.60
848.31	2213.85
848.48	2043.87
848.65	2162.66
848.82	2150.37
848.98	2396.12
849.15	2248.67
849.32	2310.11
849.49	2353.12
849.66	2183.13
849.83	2090.98
850.00	2072.54
850.17	2215.90
850.34	2162.66
850.51	2078.69
850.68	2064.35
850.85	2447.32
851.01	2244.57
851.18	2160.61
851.35	2191.33
851.52	2267.10
851.69	2349.02
851.86	2054.11
852.03	2088.93
852.20	2271.20
852.37	2136.03
852.53	1957.86
852.70	2064.35
852.87	2191.33
853.04	2267.10
853.21	2148.32
853.38	2248.67
853.55	2263.01
853.72	2338.78
853.89	2093.02
854.05	2125.79
854.22	2224.09
854.39	2101.22
854.56	2197.47
854.73	2234.33
854.90	2086.88
855.07	2176.99
855.23	2164.70
855.40	2127.84
855.57	2183.13
855.74	1961.95
855.91	2416.60
856.08	2142.18
856.25	2017.25
856.41	2136.03
856.58	2127.84
856.75	2166.75
856.92	2105.31
857.09	2265.05
857.26	2035.68
857.42	2176.99
857.59	2263.01
857.76	2162.66
857.93	2179.04
858.10	2093.02
858.27	2070.50
858.43	2263.01
858.60	2127.84
858.77	2004.96
858.94	2187.23
859.11	2189.28
859.27	2187.23
859.44	2150.37
859.61	2363.36
859.78	2244.57
859.95	2152.42
860.12	2115.55
860.28	2412.51
860.45	2371.55
860.62	2060.26
860.79	2170.85
860.95	2166.75
861.12	2097.12
861.29	2119.65
861.46	2052.06
861.63	2242.53
861.79	2211.81
861.96	2080.74
862.13	2183.13
862.30	2269.15
862.47	2185.18
862.63	2109.41
862.80	2254.81
862.97	2275.29
863.14	2224.09
863.30	2189.28
863.47	2013.15
863.64	2297.82
863.81	2209.76
863.97	2150.37
864.14	2195.42
864.31	2144.22
864.48	2201.57
864.65	2197.47
864.81	2232.29
864.98	2277.34
865.15	2269.15
865.32	2170.85
865.48	2203.61
865.65	2338.78
865.82	2080.74
865.98	2201.57
866.15	2285.53
866.32	2154.46
866.49	2146.27
866.65	2330.59
866.82	2074.59
866.99	2269.15
867.16	2183.13
867.32	2234.33
867.49	2080.74
867.66	2174.94
867.83	2183.13
867.99	2043.87
868.16	2193.37
868.33	2133.98
868.49	2228.19
868.66	2174.94
868.83	2287.58
868.99	2179.04
869.16	2254.81
869.33	2332.64
869.50	2224.09
869.66	2228.19
869.83	2160.61
870.00	2080.74
870.16	2197.47
870.33	2174.94
870.50	2310.11
870.66	2154.46
870.83	2316.25
871.00	2142.18
871.17	2213.85
871.33	2195.42
871.50	2029.54
871.67	2123.74
871.83	2197.47
872.00	2299.87
872.17	2133.98
872.33	2269.15
872.50	2273.25
872.67	2185.18
872.83	2125.79
873.00	2125.79
873.17	2211.81
873.33	2291.68
873.50	2271.20
873.67	2119.65
873.83	2185.18
874.00	2158.56
874.16	2310.11
874.33	2158.56
874.50	2131.94
874.66	2146.27
874.83	2193.37
875.00	2289.63
875.16	2371.55
875.33	2269.15
875.50	2023.39
875.66	2109.41
875.83	2193.37
875.99	2258.91
876.16	2088.93
876.33	2131.94
876.49	2113.50
876.66	2211.81
876.83	2138.08
876.99	2064.35
877.16	2232.29
877.32	2074.59
877.49	2176.99
877.66	2226.14
877.82	2322.40
877.99	2138.08
878.15	2303.96
878.32	2131.94
878.49	2179.04
878.65	2101.22
878.82	2297.82
878.98	2170.85
879.15	2244.57
879.32	2179.04
879.48	2256.86
879.65	2164.70
879.81	2191.33
879.98	2129.89
880.15	2162.66
880.31	2256.86
880.48	1982.43
880.64	2211.81
880.81	2158.56
880.97	2367.45
881.14	2275.29
881.31	2125.79
881.47	2328.54
881.64	2121.70
881.80	2043.87
881.97	2170.85
882.13	2199.52
882.30	2121.70
882.47	2183.13
882.63	2138.08
882.80	2039.78
882.96	2129.89
883.13	2320.35
883.29	2066.40
883.46	2170.85
883.62	2394.08
883.79	2232.29
883.95	2248.67
884.12	2133.98
884.29	2209.76
884.45	2183.13
884.62	2187.23
884.78	2068.45
884.95	2238.43
885.11	2148.32
885.28	2248.67
885.44	2160.61
885.61	2293.72
885.77	2320.35
885.94	2236.38
886.10	2115.55
886.27	2230.24
886.43	2363.36
886.60	2228.19
886.76	2138.08
886.93	2064.35
887.09	2193.37
887.26	2027.49
887.42	2224.09
887.59	2334.68
887.75	2416.60
887.92	2203.61
888.08	2265.05
888.25	2334.68
888.41	2267.10
888.58	2142.18
888.74	2129.89
888.91	2097.12
>>>>>End Processed Spectral Data<<<<<
