SpectraSuite Data File
++++++++++++++++++++++++++++++++++++
Date: Thu May 05 12:35:17 CEST 2016
User: root
Dark Spectrum Present: No
Reference Spectrum Present: No
Number of Sampled Component Spectra: 1
Spectrometers: USB4C02835
Integration Time (usec): 100000 (USB4C02835)
Spectra Averaged: 1 (USB4C02835)
Boxcar Smoothing: 0 (USB4C02835)
Correct for Electrical Dark: No (USB4C02835)
Strobe/Lamp Enabled: No (USB4C02835)
Correct for Detector Non-linearity: No (USB4C02835)
Correct for Stray Light: No (USB4C02835)
Number of Pixels in Processed Spectrum: 3648
>>>>>Begin Processed Spectral Data<<<<<
177.47	1794.02
177.69	1794.02
177.91	1794.02
178.13	1705.96
178.36	1785.83
178.58	2109.41
178.80	2211.81
179.02	2047.97
179.24	2101.22
179.46	2162.66
179.68	2183.13
179.90	2166.75
180.13	2291.68
180.35	2056.16
180.57	2093.02
180.79	2242.53
181.01	2162.66
181.23	2181.09
181.45	2215.90
181.67	2318.30
181.90	2215.90
182.12	2088.93
182.34	2017.25
182.56	2179.04
182.78	2191.33
183.00	2082.78
183.22	2113.50
183.44	2088.93
183.66	2502.62
183.89	2256.86
184.11	2140.13
184.33	2187.23
184.55	2256.86
184.77	2144.22
184.99	2158.56
185.21	2224.09
185.43	2377.69
185.65	2183.13
185.87	2105.31
186.10	2480.09
186.32	2414.56
186.54	2170.85
186.76	2174.94
186.98	2234.33
187.20	2078.69
187.42	2097.12
187.64	2115.55
187.86	2217.95
188.08	2318.30
188.30	2097.12
188.52	2164.70
188.75	2357.21
188.97	2314.20
189.19	2084.83
189.41	2111.46
189.63	2199.52
189.85	2127.84
190.07	2033.63
190.29	2047.97
190.51	2207.71
190.73	2080.74
190.95	2310.11
191.17	2140.13
191.39	2093.02
191.61	2185.18
191.84	2154.46
192.06	2191.33
192.28	2043.87
192.50	2394.08
192.72	2179.04
192.94	2179.04
193.16	2349.02
193.38	2236.38
193.60	2050.02
193.82	2193.37
194.04	2258.91
194.26	2260.96
194.48	2183.13
194.70	2097.12
194.92	2191.33
195.14	2285.53
195.36	2138.08
195.58	2138.08
195.80	2213.85
196.02	2156.51
196.24	2062.30
196.46	2148.32
196.69	2129.89
196.91	2475.99
197.13	2117.60
197.35	2105.31
197.57	2283.49
197.79	2293.72
198.01	2150.37
198.23	2183.13
198.45	2277.34
198.67	2086.88
198.89	2082.78
199.11	2230.24
199.33	2144.22
199.55	1912.80
199.77	2174.94
199.99	2187.23
200.21	2129.89
200.43	2191.33
200.65	2074.59
200.87	1994.72
201.09	2187.23
201.31	2125.79
201.53	2189.28
201.75	2154.46
201.97	2299.87
202.19	2226.14
202.41	2170.85
202.63	2269.15
202.85	2226.14
203.07	2226.14
203.29	2144.22
203.51	2113.50
203.73	2136.03
203.95	2551.77
204.17	2109.41
204.39	2211.81
204.61	2217.95
204.83	2131.94
205.05	2138.08
205.27	2097.12
205.49	2334.68
205.71	2154.46
205.93	2031.58
206.15	2095.07
206.37	2197.47
206.59	2176.99
206.81	2064.35
207.03	2035.68
207.25	2047.97
207.47	2269.15
207.69	2125.79
207.91	2275.29
208.13	2383.84
208.34	2121.70
208.56	2074.59
208.78	2176.99
209.00	2111.46
209.22	2127.84
209.44	2105.31
209.66	2035.68
209.88	2187.23
210.10	2183.13
210.32	2119.65
210.54	2226.14
210.76	2236.38
210.98	2318.30
211.20	2033.63
211.42	2207.71
211.64	2308.06
211.86	2224.09
212.08	2203.61
212.30	2115.55
212.52	2256.86
212.74	2217.95
212.96	2193.37
213.17	2265.05
213.39	2265.05
213.61	2351.07
213.83	2168.80
214.05	2090.98
214.27	2297.82
214.49	2117.60
214.71	2101.22
214.93	2269.15
215.15	2271.20
215.37	2224.09
215.59	2072.54
215.81	2183.13
216.03	2355.16
216.24	2152.42
216.46	2138.08
216.68	2185.18
216.90	2287.58
217.12	2324.44
217.34	2045.92
217.56	2150.37
217.78	2260.96
218.00	2211.81
218.22	2232.29
218.44	2162.66
218.66	2250.72
218.87	2338.78
219.09	2074.59
219.31	2115.55
219.53	2189.28
219.75	2125.79
219.97	2179.04
220.19	2166.75
220.41	2136.03
220.63	2252.77
220.85	2119.65
221.06	2113.50
221.28	2277.34
221.50	2312.16
221.72	2133.98
221.94	2119.65
222.16	2129.89
222.38	2248.67
222.60	2228.19
222.82	2121.70
223.03	2277.34
223.25	2072.54
223.47	2174.94
223.69	2353.12
223.91	2220.00
224.13	2189.28
224.35	2138.08
224.57	2271.20
224.78	2133.98
225.00	2068.45
225.22	2176.99
225.44	2105.31
225.66	2263.01
225.88	2084.83
226.10	2168.80
226.32	2162.66
226.53	2346.97
226.75	2103.26
226.97	2201.57
227.19	2154.46
227.41	2156.51
227.63	2199.52
227.85	1961.95
228.06	2193.37
228.28	2168.80
228.50	2306.01
228.72	2035.68
228.94	2095.07
229.16	2021.35
229.37	2095.07
229.59	2076.64
229.81	2254.81
230.03	2111.46
230.25	2111.46
230.47	2013.15
230.69	2088.93
230.90	2301.92
231.12	2103.26
231.34	2119.65
231.56	2281.44
231.78	2080.74
232.00	2150.37
232.21	2174.94
232.43	2185.18
232.65	2058.21
232.87	2299.87
233.09	2045.92
233.30	2080.74
233.52	2381.79
233.74	2183.13
233.96	2148.32
234.18	2197.47
234.40	2193.37
234.61	2424.80
234.83	2029.54
235.05	2127.84
235.27	2430.94
235.49	2254.81
235.70	2084.83
235.92	2156.51
236.14	2217.95
236.36	2449.37
236.58	2043.87
236.79	2236.38
237.01	2189.28
237.23	2146.27
237.45	2306.01
237.67	2138.08
237.88	2166.75
238.10	2473.95
238.32	2062.30
238.54	2111.46
238.76	2224.09
238.97	2068.45
239.19	2117.60
239.41	2213.85
239.63	2291.68
239.85	2164.70
240.06	2047.97
240.28	2080.74
240.50	2285.53
240.72	2228.19
240.93	2117.60
241.15	2211.81
241.37	2234.33
241.59	2326.49
241.81	2162.66
242.02	2140.13
242.24	2232.29
242.46	2244.57
242.68	1988.58
242.89	2111.46
243.11	2299.87
243.33	2166.75
243.55	2224.09
243.76	2117.60
243.98	2107.36
244.20	2158.56
244.42	2099.17
244.64	2058.21
244.85	2088.93
245.07	2052.06
245.29	2181.09
245.51	2187.23
245.72	2246.62
245.94	2303.96
246.16	2086.88
246.38	2115.55
246.59	2176.99
246.81	2117.60
247.03	2119.65
247.24	1982.43
247.46	2205.66
247.68	2121.70
247.90	2084.83
248.11	2105.31
248.33	2338.78
248.55	2220.00
248.77	2236.38
248.98	2176.99
249.20	2301.92
249.42	2228.19
249.64	2121.70
249.85	2166.75
250.07	2088.93
250.29	2236.38
250.50	2170.85
250.72	2064.35
250.94	2238.43
251.16	2451.42
251.37	2107.36
251.59	2146.27
251.81	2236.38
252.02	2291.68
252.24	2121.70
252.46	2242.53
252.68	2162.66
252.89	2086.88
253.11	1970.15
253.33	2232.29
253.54	2381.79
253.76	2082.78
253.98	2090.98
254.20	2004.96
254.41	2095.07
254.63	2197.47
254.85	2021.35
255.06	2111.46
255.28	2295.77
255.50	2187.23
255.71	2152.42
255.93	2050.02
256.15	2211.81
256.36	2172.89
256.58	2129.89
256.80	2076.64
257.02	2170.85
257.23	2197.47
257.45	2203.61
257.67	2187.23
257.88	2115.55
258.10	2228.19
258.32	2181.09
258.53	2181.09
258.75	2301.92
258.97	2138.08
259.18	2031.58
259.40	2127.84
259.62	2355.16
259.83	2324.44
260.05	2193.37
260.27	2621.40
260.48	2334.68
260.70	2097.12
260.92	2125.79
261.13	2129.89
261.35	2162.66
261.57	2265.05
261.78	1986.53
262.00	2064.35
262.22	2228.19
262.43	2131.94
262.65	2093.02
262.86	2164.70
263.08	2402.27
263.30	2222.05
263.51	2023.39
263.73	2056.16
263.95	2340.83
264.16	2084.83
264.38	2037.73
264.60	2160.61
264.81	2107.36
265.03	2297.82
265.25	2273.25
265.46	2150.37
265.68	2283.49
265.89	2211.81
266.11	2007.01
266.33	2201.57
266.54	2275.29
266.76	2244.57
266.98	2183.13
267.19	2318.30
267.41	2242.53
267.62	2179.04
267.84	1992.67
268.06	2236.38
268.27	2220.00
268.49	2275.29
268.70	2238.43
268.92	2152.42
269.14	2072.54
269.35	2066.40
269.57	2154.46
269.79	2197.47
270.00	2150.37
270.22	2359.26
270.43	2101.22
270.65	1964.00
270.87	2228.19
271.08	2240.48
271.30	2158.56
271.51	2170.85
271.73	2176.99
271.95	2379.74
272.16	2131.94
272.38	2181.09
272.59	2193.37
272.81	2189.28
273.02	2158.56
273.24	2101.22
273.46	2291.68
273.67	2113.50
273.89	2090.98
274.10	2047.97
274.32	2293.72
274.54	2246.62
274.75	2187.23
274.97	2152.42
275.18	2250.72
275.40	2285.53
275.61	2119.65
275.83	2164.70
276.05	2037.73
276.26	2217.95
276.48	2172.89
276.69	2090.98
276.91	2185.18
277.12	2351.07
277.34	2174.94
277.55	2242.53
277.77	2234.33
277.99	2117.60
278.20	2097.12
278.42	2015.20
278.63	2150.37
278.85	2129.89
279.06	2095.07
279.28	2154.46
279.49	2258.91
279.71	2254.81
279.93	2215.90
280.14	2265.05
280.36	2133.98
280.57	2277.34
280.79	2224.09
281.00	2127.84
281.22	2072.54
281.43	2334.68
281.65	1996.77
281.86	2133.98
282.08	2138.08
282.29	2381.79
282.51	2148.32
282.73	2097.12
282.94	2043.87
283.16	2248.67
283.37	2328.54
283.59	2150.37
283.80	2263.01
284.02	2215.90
284.23	2234.33
284.45	2113.50
284.66	2138.08
284.88	2138.08
285.09	2220.00
285.31	2312.16
285.52	2207.71
285.74	2113.50
285.95	2256.86
286.17	2166.75
286.38	2326.49
286.60	2138.08
286.81	2129.89
287.03	2117.60
287.24	2211.81
287.46	2215.90
287.67	2138.08
287.89	2394.08
288.10	2217.95
288.32	2174.94
288.53	2293.72
288.75	2224.09
288.96	2224.09
289.18	2127.84
289.39	2097.12
289.61	2265.05
289.82	2379.74
290.04	2336.73
290.25	2027.49
290.47	2152.42
290.68	2215.90
290.90	2252.77
291.11	2002.91
291.33	2250.72
291.54	2113.50
291.76	2133.98
291.97	2201.57
292.18	2256.86
292.40	2142.18
292.61	2160.61
292.83	2437.08
293.04	2240.48
293.26	2174.94
293.47	2172.89
293.69	2047.97
293.90	2103.26
294.12	2293.72
294.33	2111.46
294.55	2176.99
294.76	2238.43
294.97	2246.62
295.19	2392.03
295.40	2154.46
295.62	2170.85
295.83	2277.34
296.05	2129.89
296.26	2244.57
296.48	2160.61
296.69	2220.00
296.90	2138.08
297.12	2271.20
297.33	2277.34
297.55	2185.18
297.76	2267.10
297.98	2252.77
298.19	2224.09
298.41	2195.42
298.62	2131.94
298.83	2344.92
299.05	2131.94
299.26	2181.09
299.48	2097.12
299.69	2209.76
299.90	2162.66
300.12	2189.28
300.33	2230.24
300.55	2150.37
300.76	2154.46
300.98	2168.80
301.19	2320.35
301.40	2203.61
301.62	2146.27
301.83	2187.23
302.05	2273.25
302.26	2160.61
302.47	2156.51
302.69	2158.56
302.90	2222.05
303.12	2123.74
303.33	2287.58
303.54	2342.88
303.76	2160.61
303.97	2197.47
304.19	2277.34
304.40	2076.64
304.61	2162.66
304.83	2277.34
305.04	2260.96
305.26	2252.77
305.47	2199.52
305.68	2164.70
305.90	2131.94
306.11	2273.25
306.33	2144.22
306.54	2117.60
306.75	2131.94
306.97	2119.65
307.18	2158.56
307.39	2160.61
307.61	2254.81
307.82	2201.57
308.04	2220.00
308.25	2125.79
308.46	2189.28
308.68	2172.89
308.89	2201.57
309.10	2248.67
309.32	2179.04
309.53	2133.98
309.74	2217.95
309.96	2199.52
310.17	2240.48
310.39	2166.75
310.60	2279.39
310.81	2172.89
311.03	2088.93
311.24	2242.53
311.45	2064.35
311.67	2367.45
311.88	2179.04
312.09	2209.76
312.31	2113.50
312.52	2209.76
312.73	2140.13
312.95	2179.04
313.16	2146.27
313.37	2252.77
313.59	2181.09
313.80	2277.34
314.01	2324.44
314.23	2156.51
314.44	2109.41
314.65	2064.35
314.87	2172.89
315.08	2174.94
315.29	2111.46
315.51	2064.35
315.72	2052.06
315.93	2277.34
316.15	2269.15
316.36	2162.66
316.57	2203.61
316.79	2226.14
317.00	2101.22
317.21	2267.10
317.43	2146.27
317.64	2209.76
317.85	2121.70
318.07	2133.98
318.28	2199.52
318.49	2363.36
318.70	2478.04
318.92	2310.11
319.13	2383.84
319.34	2385.88
319.56	2287.58
319.77	2303.96
319.98	2310.11
320.20	2363.36
320.41	2301.92
320.62	2209.76
320.83	2074.59
321.05	2408.41
321.26	2187.23
321.47	2254.81
321.69	2250.72
321.90	2076.64
322.11	2176.99
322.32	2273.25
322.54	2314.20
322.75	2068.45
322.96	2426.84
323.18	1988.58
323.39	1970.15
323.60	2144.22
323.81	2277.34
324.03	2088.93
324.24	2189.28
324.45	2181.09
324.66	2195.42
324.88	2232.29
325.09	2326.49
325.30	2129.89
325.52	2209.76
325.73	2277.34
325.94	2117.60
326.15	2039.78
326.37	2123.74
326.58	2150.37
326.79	2439.13
327.00	2109.41
327.22	2164.70
327.43	2164.70
327.64	2136.03
327.85	2250.72
328.07	2176.99
328.28	2351.07
328.49	2121.70
328.70	2250.72
328.92	2179.04
329.13	2127.84
329.34	2269.15
329.55	2338.78
329.76	2324.44
329.98	2195.42
330.19	2406.36
330.40	2252.77
330.61	2246.62
330.83	2240.48
331.04	2160.61
331.25	2220.00
331.46	2146.27
331.68	2121.70
331.89	2314.20
332.10	2172.89
332.31	2103.26
332.52	2234.33
332.74	2326.49
332.95	2004.96
333.16	2129.89
333.37	2265.05
333.58	2125.79
333.80	2144.22
334.01	2095.07
334.22	2224.09
334.43	2176.99
334.64	2129.89
334.86	2039.78
335.07	2121.70
335.28	2252.77
335.49	2138.08
335.70	2199.52
335.92	2252.77
336.13	2424.80
336.34	2248.67
336.55	2179.04
336.76	2244.57
336.98	2023.39
337.19	2146.27
337.40	2295.77
337.61	2478.04
337.82	2093.02
338.04	2252.77
338.25	2007.01
338.46	2174.94
338.67	2191.33
338.88	2070.50
339.09	2129.89
339.31	2103.26
339.52	2017.25
339.73	2181.09
339.94	2150.37
340.15	2291.68
340.36	2222.05
340.58	2166.75
340.79	2125.79
341.00	2279.39
341.21	2107.36
341.42	2275.29
341.63	2099.17
341.85	2279.39
342.06	2250.72
342.27	2084.83
342.48	2258.91
342.69	2047.97
342.90	2244.57
343.12	2156.51
343.33	2220.00
343.54	2293.72
343.75	2369.50
343.96	2226.14
344.17	2082.78
344.38	2105.31
344.60	2107.36
344.81	2107.36
345.02	2154.46
345.23	2340.83
345.44	2389.98
345.65	2232.29
345.86	2228.19
346.07	2160.61
346.29	2164.70
346.50	2170.85
346.71	2316.25
346.92	2260.96
347.13	2385.88
347.34	2228.19
347.55	2138.08
347.76	2248.67
347.98	2072.54
348.19	2140.13
348.40	2299.87
348.61	2121.70
348.82	2326.49
349.03	2316.25
349.24	2109.41
349.45	2381.79
349.66	1984.48
349.88	2138.08
350.09	2115.55
350.30	2330.59
350.51	2324.44
350.72	2230.24
350.93	2260.96
351.14	2179.04
351.35	2295.77
351.56	2191.33
351.77	2170.85
351.99	2195.42
352.20	2330.59
352.41	2193.37
352.62	2009.06
352.83	2119.65
353.04	2170.85
353.25	2103.26
353.46	2279.39
353.67	2207.71
353.88	2060.26
354.09	2170.85
354.30	2195.42
354.52	2273.25
354.73	2162.66
354.94	2183.13
355.15	2168.80
355.36	2410.46
355.57	2189.28
355.78	2209.76
355.99	2060.26
356.20	2154.46
356.41	2279.39
356.62	2125.79
356.83	2158.56
357.04	2310.11
357.25	2070.50
357.46	2148.32
357.68	2138.08
357.89	2146.27
358.10	2217.95
358.31	2146.27
358.52	2146.27
358.73	2105.31
358.94	2068.45
359.15	2078.69
359.36	2244.57
359.57	2191.33
359.78	2197.47
359.99	2189.28
360.20	2080.74
360.41	2222.05
360.62	2314.20
360.83	2193.37
361.04	2281.44
361.25	2250.72
361.46	2398.17
361.67	2283.49
361.88	2189.28
362.09	2295.77
362.30	2101.22
362.51	2179.04
362.72	2166.75
362.93	2334.68
363.14	2326.49
363.35	2176.99
363.56	2191.33
363.78	2289.63
363.99	2295.77
364.20	2131.94
364.41	2185.18
364.62	2342.88
364.83	2189.28
365.04	2160.61
365.25	2215.90
365.46	2363.36
365.67	2152.42
365.88	2146.27
366.09	2203.61
366.30	2193.37
366.51	2222.05
366.72	2162.66
366.93	2187.23
367.14	2258.91
367.35	2357.21
367.56	2183.13
367.77	2281.44
367.98	2170.85
368.18	2275.29
368.39	2250.72
368.60	2070.50
368.81	2265.05
369.02	2228.19
369.23	2179.04
369.44	2031.58
369.65	2127.84
369.86	2226.14
370.07	2269.15
370.28	2142.18
370.49	2234.33
370.70	2217.95
370.91	2023.39
371.12	2062.30
371.33	2322.40
371.54	2138.08
371.75	2318.30
371.96	2015.20
372.17	2199.52
372.38	2187.23
372.59	2222.05
372.80	2193.37
373.01	2162.66
373.22	2179.04
373.43	2187.23
373.64	2074.59
373.85	2258.91
374.06	2334.68
374.26	2242.53
374.47	2228.19
374.68	2344.92
374.89	2260.96
375.10	2154.46
375.31	2263.01
375.52	2205.66
375.73	2242.53
375.94	2072.54
376.15	2322.40
376.36	2054.11
376.57	2187.23
376.78	2127.84
376.99	2187.23
377.20	2330.59
377.40	2082.78
377.61	2400.22
377.82	2127.84
378.03	2332.64
378.24	2222.05
378.45	2150.37
378.66	2281.44
378.87	2035.68
379.08	2060.26
379.29	2133.98
379.50	2275.29
379.71	2269.15
379.91	2310.11
380.12	2160.61
380.33	2244.57
380.54	2232.29
380.75	2179.04
380.96	2113.50
381.17	2226.14
381.38	2189.28
381.59	2226.14
381.80	2176.99
382.00	2373.60
382.21	2258.91
382.42	2375.64
382.63	2453.47
382.84	2232.29
383.05	2250.72
383.26	2398.17
383.47	2250.72
383.68	2263.01
383.88	2250.72
384.09	2283.49
384.30	2389.98
384.51	2242.53
384.72	2185.18
384.93	2109.41
385.14	2226.14
385.35	2285.53
385.55	2060.26
385.76	2295.77
385.97	2181.09
386.18	2111.46
386.39	2133.98
386.60	2162.66
386.81	2162.66
387.02	2031.58
387.22	2068.45
387.43	2256.86
387.64	2260.96
387.85	2383.84
388.06	2488.28
388.27	4022.21
388.48	8587.13
388.68	12226.37
388.89	14839.58
389.10	15750.93
389.31	14567.20
389.52	11380.56
389.73	9981.80
389.93	8818.55
390.14	8249.22
390.35	7507.85
390.56	6715.29
390.77	5463.98
390.98	4149.18
391.18	3254.22
391.39	2750.42
391.60	2287.58
391.81	2297.82
392.02	2123.74
392.23	2451.42
392.43	2238.43
392.64	2371.55
392.85	2142.18
393.06	2367.45
393.27	2174.94
393.47	2172.89
393.68	2295.77
393.89	2041.82
394.10	2349.02
394.31	2160.61
394.52	2162.66
394.72	2138.08
394.93	2324.44
395.14	2123.74
395.35	2154.46
395.56	2084.83
395.76	2185.18
395.97	2213.85
396.18	2353.12
396.39	2406.36
396.60	2654.17
396.80	2408.41
397.01	2336.73
397.22	2363.36
397.43	2402.27
397.64	2213.85
397.84	2346.97
398.05	2459.61
398.26	2193.37
398.47	2252.77
398.67	2318.30
398.88	2133.98
399.09	2238.43
399.30	2070.50
399.51	2258.91
399.71	2193.37
399.92	2222.05
400.13	2201.57
400.34	2160.61
400.54	2174.94
400.75	2359.26
400.96	2226.14
401.17	2314.20
401.37	2211.81
401.58	2205.66
401.79	2111.46
402.00	2314.20
402.21	2500.57
402.41	2496.47
402.62	2562.01
402.83	2654.17
403.04	2676.70
403.24	2674.65
403.45	2379.74
403.66	2478.04
403.87	2408.41
404.07	2432.99
404.28	2463.71
404.49	2394.08
404.70	2426.84
404.90	2340.83
405.11	2246.62
405.32	2281.44
405.52	2140.13
405.73	2213.85
405.94	2166.75
406.15	2105.31
406.35	2324.44
406.56	2228.19
406.77	2236.38
406.98	2152.42
407.18	2117.60
407.39	2412.51
407.60	2150.37
407.80	2252.77
408.01	2154.46
408.22	2242.53
408.43	2123.74
408.63	2199.52
408.84	2316.25
409.05	2260.96
409.25	2117.60
409.46	2205.66
409.67	2129.89
409.88	2146.27
410.08	2236.38
410.29	2172.89
410.50	2285.53
410.70	2209.76
410.91	2113.50
411.12	2166.75
411.32	2197.47
411.53	2197.47
411.74	2281.44
411.95	2297.82
412.15	2301.92
412.36	2357.21
412.57	2334.68
412.77	2443.23
412.98	2183.13
413.19	2209.76
413.39	2295.77
413.60	2295.77
413.81	2342.88
414.01	2103.26
414.22	2336.73
414.43	2297.82
414.63	2174.94
414.84	2355.16
415.05	2205.66
415.25	2107.36
415.46	2324.44
415.67	2062.30
415.87	2211.81
416.08	2222.05
416.29	2109.41
416.49	2285.53
416.70	2152.42
416.91	2152.42
417.11	2207.71
417.32	2349.02
417.53	2275.29
417.73	2240.48
417.94	2220.00
418.15	2277.34
418.35	2201.57
418.56	2234.33
418.77	2437.08
418.97	2179.04
419.18	2162.66
419.38	1990.63
419.59	2166.75
419.80	2277.34
420.00	2179.04
420.21	2265.05
420.42	2271.20
420.62	2246.62
420.83	2203.61
421.04	2183.13
421.24	2166.75
421.45	2285.53
421.65	2176.99
421.86	2158.56
422.07	2236.38
422.27	2246.62
422.48	2234.33
422.69	2142.18
422.89	2267.10
423.10	2183.13
423.30	2080.74
423.51	2248.67
423.72	2256.86
423.92	2277.34
424.13	2113.50
424.33	2211.81
424.54	2301.92
424.75	2166.75
424.95	2283.49
425.16	2195.42
425.36	2250.72
425.57	2256.86
425.78	2275.29
425.98	2285.53
426.19	2197.47
426.39	2146.27
426.60	2205.66
426.81	2316.25
427.01	2220.00
427.22	2123.74
427.42	2072.54
427.63	2047.97
427.83	2371.55
428.04	2336.73
428.25	2252.77
428.45	2342.88
428.66	2310.11
428.86	2187.23
429.07	2144.22
429.28	2267.10
429.48	2209.76
429.69	2150.37
429.89	2269.15
430.10	2154.46
430.30	2162.66
430.51	2359.26
430.71	2121.70
430.92	2252.77
431.13	2170.85
431.33	2349.02
431.54	2254.81
431.74	2301.92
431.95	2314.20
432.15	2066.40
432.36	2224.09
432.56	2213.85
432.77	2394.08
432.98	2455.51
433.18	2258.91
433.39	2150.37
433.59	2226.14
433.80	2453.47
434.00	2416.60
434.21	2172.89
434.41	2136.03
434.62	2392.03
434.82	2170.85
435.03	2113.50
435.23	2183.13
435.44	2015.20
435.64	2168.80
435.85	2156.51
436.06	2220.00
436.26	2312.16
436.47	2156.51
436.67	2105.31
436.88	2117.60
437.08	2334.68
437.29	2299.87
437.49	2176.99
437.70	2316.25
437.90	2179.04
438.11	2334.68
438.31	2269.15
438.52	2416.60
438.72	2541.53
438.93	2488.28
439.13	2256.86
439.34	2342.88
439.54	2228.19
439.75	2332.64
439.95	2265.05
440.16	2238.43
440.36	2269.15
440.57	2211.81
440.77	2273.25
440.98	2303.96
441.18	2265.05
441.39	2144.22
441.59	2078.69
441.80	2457.56
442.00	2228.19
442.21	2271.20
442.41	2052.06
442.62	2346.97
442.82	2111.46
443.02	2199.52
443.23	2211.81
443.43	2232.29
443.64	2363.36
443.84	2113.50
444.05	2308.06
444.25	2254.81
444.46	2228.19
444.66	2224.09
444.87	2318.30
445.07	2095.07
445.28	2179.04
445.48	2367.45
445.69	2236.38
445.89	2445.27
446.09	2203.61
446.30	2498.52
446.50	2756.57
446.71	4401.08
446.91	5654.44
447.12	6352.80
447.32	6729.63
447.53	6184.87
447.73	5152.69
447.93	4468.67
448.14	4214.72
448.34	4061.12
448.55	3585.99
448.75	3489.74
448.96	3358.67
449.16	3065.81
449.36	2813.91
449.57	2545.63
449.77	2299.87
449.98	2252.77
450.18	2295.77
450.39	2301.92
450.59	2283.49
450.79	2234.33
451.00	2162.66
451.20	2260.96
451.41	2199.52
451.61	2273.25
451.81	2183.13
452.02	2158.56
452.22	2103.26
452.43	2144.22
452.63	2113.50
452.84	2187.23
453.04	2222.05
453.24	2252.77
453.45	2084.83
453.65	2265.05
453.86	2271.20
454.06	2289.63
454.26	2246.62
454.47	2123.74
454.67	2361.31
454.87	2273.25
455.08	2217.95
455.28	2402.27
455.49	2297.82
455.69	2203.61
455.89	2432.99
456.10	2283.49
456.30	2187.23
456.51	2269.15
456.71	2281.44
456.91	2183.13
457.12	2156.51
457.32	2291.68
457.52	2109.41
457.73	2252.77
457.93	2260.96
458.14	2103.26
458.34	2041.82
458.54	2187.23
458.75	2152.42
458.95	2287.58
459.15	2179.04
459.36	2232.29
459.56	2244.57
459.76	2373.60
459.97	2236.38
460.17	2179.04
460.37	2328.54
460.58	2185.18
460.78	2285.53
460.99	2170.85
461.19	2174.94
461.39	2211.81
461.60	2211.81
461.80	2275.29
462.00	2105.31
462.21	2152.42
462.41	2068.45
462.61	2138.08
462.82	2004.96
463.02	2201.57
463.22	2170.85
463.43	2267.10
463.63	2211.81
463.83	2224.09
464.04	2256.86
464.24	2203.61
464.44	2107.36
464.64	2195.42
464.85	2338.78
465.05	2357.21
465.25	2164.70
465.46	2086.88
465.66	2265.05
465.86	2242.53
466.07	2248.67
466.27	2181.09
466.47	2113.50
466.68	2080.74
466.88	2281.44
467.08	2273.25
467.29	2338.78
467.49	2195.42
467.69	2232.29
467.89	2299.87
468.10	2201.57
468.30	2207.71
468.50	2314.20
468.71	2346.97
468.91	2095.07
469.11	2377.69
469.31	2179.04
469.52	2162.66
469.72	2371.55
469.92	2281.44
470.13	2099.17
470.33	2248.67
470.53	2244.57
470.73	2684.89
470.94	3049.43
471.14	3311.57
471.34	3641.29
471.54	3520.46
471.75	3088.34
471.95	2908.12
472.15	2783.19
472.36	2762.71
472.56	2703.32
472.76	2772.95
472.96	2658.26
473.17	2547.67
473.37	2445.27
473.57	2332.64
473.77	2310.11
473.98	2195.42
474.18	2101.22
474.38	2504.67
474.58	2074.59
474.79	2172.89
474.99	2275.29
475.19	2398.17
475.39	2150.37
475.60	2162.66
475.80	2187.23
476.00	2211.81
476.20	2191.33
476.41	2265.05
476.61	2281.44
476.81	2281.44
477.01	2119.65
477.21	2355.16
477.42	2357.21
477.62	2052.06
477.82	2355.16
478.02	2119.65
478.23	2142.18
478.43	2185.18
478.63	2187.23
478.83	2211.81
479.03	2187.23
479.24	2328.54
479.44	2299.87
479.64	2117.60
479.84	2052.06
480.04	2080.74
480.25	2295.77
480.45	2090.98
480.65	2181.09
480.85	2371.55
481.06	2183.13
481.26	2228.19
481.46	2293.72
481.66	2234.33
481.86	2179.04
482.06	2293.72
482.27	2133.98
482.47	2158.56
482.67	2240.48
482.87	2154.46
483.07	2203.61
483.28	2138.08
483.48	2105.31
483.68	2164.70
483.88	2111.46
484.08	2070.50
484.29	2181.09
484.49	2201.57
484.69	2052.06
484.89	2396.12
485.09	2287.58
485.29	2332.64
485.50	2228.19
485.70	2193.37
485.90	2263.01
486.10	2172.89
486.30	2228.19
486.50	2314.20
486.71	2152.42
486.91	2369.50
487.11	2322.40
487.31	2115.55
487.51	2273.25
487.71	2121.70
487.91	2078.69
488.12	2115.55
488.32	1964.00
488.52	2158.56
488.72	2029.54
488.92	2193.37
489.12	2367.45
489.32	2277.34
489.53	2269.15
489.73	2095.07
489.93	2430.94
490.13	2185.18
490.33	2070.50
490.53	2168.80
490.73	2295.77
490.94	2111.46
491.14	2263.01
491.34	2338.78
491.54	2527.19
491.74	3200.98
491.94	3770.31
492.14	3993.54
492.34	4061.12
492.54	3739.59
492.75	3307.47
492.95	3178.45
493.15	2910.16
493.35	2947.03
493.55	2795.48
493.75	2654.17
493.95	2770.90
494.15	2557.91
494.35	2402.27
494.56	2281.44
494.76	2170.85
494.96	2207.71
495.16	2314.20
495.36	2162.66
495.56	2260.96
495.76	2162.66
495.96	2113.50
496.16	2201.57
496.36	2426.84
496.56	2150.37
496.77	2246.62
496.97	2209.76
497.17	2357.21
497.37	2082.78
497.57	2299.87
497.77	2244.57
497.97	2162.66
498.17	2201.57
498.37	2170.85
498.57	2228.19
498.77	2152.42
498.97	2228.19
499.17	2392.03
499.38	2201.57
499.58	2271.20
499.78	2346.97
499.98	2330.59
500.18	2232.29
500.38	2125.79
500.58	2408.41
500.78	2883.54
500.98	5226.42
501.18	7305.10
501.38	8955.77
501.58	9994.09
501.78	9912.17
501.98	7749.51
502.18	6621.08
502.38	5754.79
502.58	5205.94
502.78	4564.92
502.98	4343.74
503.18	4251.58
503.38	3911.62
503.59	3467.21
503.79	3276.75
503.99	2965.46
504.19	2871.25
504.39	2775.00
504.59	2914.26
504.79	2826.20
504.99	2830.29
505.19	2631.64
505.39	2459.61
505.59	2629.59
505.79	2586.58
505.99	2439.13
506.19	2285.53
506.39	2443.23
506.59	2187.23
506.79	2269.15
506.99	2375.64
507.19	2228.19
507.39	2297.82
507.59	2121.70
507.79	2156.51
507.99	2195.42
508.19	2236.38
508.39	2215.90
508.59	2203.61
508.79	2346.97
508.99	2387.93
509.19	2217.95
509.39	2283.49
509.59	2088.93
509.79	2263.01
509.99	2215.90
510.19	2365.40
510.39	2301.92
510.59	2191.33
510.79	2105.31
510.99	2076.64
511.19	2158.56
511.39	2355.16
511.59	2359.26
511.79	2367.45
511.99	2256.86
512.19	2416.60
512.38	2205.66
512.58	2117.60
512.78	2144.22
512.98	2316.25
513.18	2318.30
513.38	2015.20
513.58	2308.06
513.78	2121.70
513.98	2226.14
514.18	2170.85
514.38	2193.37
514.58	2277.34
514.78	2093.02
514.98	2082.78
515.18	2164.70
515.38	2160.61
515.58	2318.30
515.78	2158.56
515.98	2162.66
516.18	2267.10
516.38	2236.38
516.57	2228.19
516.77	2179.04
516.97	2330.59
517.17	2127.84
517.37	2054.11
517.57	2330.59
517.77	2211.81
517.97	2191.33
518.17	2240.48
518.37	2158.56
518.57	2220.00
518.77	2248.67
518.97	2263.01
519.16	2258.91
519.36	2349.02
519.56	2203.61
519.76	2244.57
519.96	2166.75
520.16	2394.08
520.36	2176.99
520.56	2297.82
520.76	2172.89
520.96	2156.51
521.16	2402.27
521.35	2375.64
521.55	2295.77
521.75	2213.85
521.95	2174.94
522.15	2115.55
522.35	2045.92
522.55	2125.79
522.75	2346.97
522.95	2095.07
523.14	2088.93
523.34	2246.62
523.54	2150.37
523.74	2277.34
523.94	2217.95
524.14	2072.54
524.34	2228.19
524.54	2385.88
524.73	2187.23
524.93	2283.49
525.13	2310.11
525.33	2056.16
525.53	2424.80
525.73	2242.53
525.93	2207.71
526.13	2088.93
526.32	2152.42
526.52	2338.78
526.72	2256.86
526.92	2205.66
527.12	2189.28
527.32	2154.46
527.52	2248.67
527.71	2234.33
527.91	2240.48
528.11	2168.80
528.31	2197.47
528.51	2099.17
528.71	2308.06
528.90	2283.49
529.10	2398.17
529.30	2258.91
529.50	2035.68
529.70	2154.46
529.90	2193.37
530.09	2133.98
530.29	2152.42
530.49	2170.85
530.69	2531.29
530.89	2285.53
531.09	2301.92
531.28	2152.42
531.48	2361.31
531.68	2281.44
531.88	2281.44
532.08	2275.29
532.28	2138.08
532.47	2234.33
532.67	2340.83
532.87	2234.33
533.07	2121.70
533.27	2326.49
533.46	2191.33
533.66	2254.81
533.86	2254.81
534.06	2236.38
534.26	2217.95
534.45	2203.61
534.65	2299.87
534.85	2316.25
535.05	2199.52
535.25	2320.35
535.44	2093.02
535.64	2252.77
535.84	2209.76
536.04	2201.57
536.24	2160.61
536.43	2121.70
536.63	2236.38
536.83	2244.57
537.03	2199.52
537.22	2064.35
537.42	1986.53
537.62	2220.00
537.82	2181.09
538.02	2310.11
538.21	2334.68
538.41	2437.08
538.61	2267.10
538.81	2224.09
539.00	2275.29
539.20	2054.11
539.40	2156.51
539.60	2228.19
539.79	2271.20
539.99	2129.89
540.19	2166.75
540.39	2197.47
540.58	2232.29
540.78	2328.54
540.98	2191.33
541.18	2310.11
541.37	2209.76
541.57	2156.51
541.77	2342.88
541.97	2088.93
542.16	2099.17
542.36	2195.42
542.56	2129.89
542.76	2367.45
542.95	2199.52
543.15	2260.96
543.35	2375.64
543.54	2136.03
543.74	2183.13
543.94	2324.44
544.14	2140.13
544.33	2187.23
544.53	2103.26
544.73	2176.99
544.93	2234.33
545.12	2207.71
545.32	2236.38
545.52	2248.67
545.71	2156.51
545.91	2162.66
546.11	2240.48
546.30	2162.66
546.50	2228.19
546.70	2213.85
546.90	2240.48
547.09	2070.50
547.29	2179.04
547.49	2244.57
547.68	2342.88
547.88	2101.22
548.08	2269.15
548.27	2727.89
548.47	2136.03
548.67	2148.32
548.87	2281.44
549.06	2154.46
549.26	2203.61
549.46	2195.42
549.65	2078.69
549.85	2306.01
550.05	2250.72
550.24	2117.60
550.44	2248.67
550.64	2217.95
550.83	2172.89
551.03	2308.06
551.23	2271.20
551.42	2281.44
551.62	2117.60
551.82	2179.04
552.01	2174.94
552.21	2349.02
552.41	2258.91
552.60	2355.16
552.80	2232.29
553.00	2164.70
553.19	2224.09
553.39	2353.12
553.59	2080.74
553.78	2269.15
553.98	2179.04
554.17	2113.50
554.37	2244.57
554.57	2289.63
554.76	2037.73
554.96	2191.33
555.16	2181.09
555.35	2195.42
555.55	2181.09
555.75	2308.06
555.94	2289.63
556.14	2084.83
556.33	2256.86
556.53	2195.42
556.73	2244.57
556.92	2367.45
557.12	2283.49
557.32	2420.70
557.51	2400.22
557.71	2181.09
557.90	2359.26
558.10	2291.68
558.30	2168.80
558.49	2203.61
558.69	2201.57
558.88	2283.49
559.08	2230.24
559.28	2174.94
559.47	2250.72
559.67	2265.05
559.86	2406.36
560.06	2201.57
560.26	2193.37
560.45	2285.53
560.65	2183.13
560.84	2312.16
561.04	2148.32
561.24	2271.20
561.43	2138.08
561.63	2336.73
561.82	2312.16
562.02	2277.34
562.22	2097.12
562.41	2125.79
562.61	2129.89
562.80	2047.97
563.00	2461.66
563.19	2224.09
563.39	2220.00
563.59	2297.82
563.78	2078.69
563.98	2029.54
564.17	2093.02
564.37	1976.29
564.56	2250.72
564.76	2140.13
564.96	2312.16
565.15	2211.81
565.35	2441.18
565.54	2160.61
565.74	2252.77
565.93	2326.49
566.13	2256.86
566.32	2211.81
566.52	2222.05
566.71	2201.57
566.91	2236.38
567.11	2271.20
567.30	2150.37
567.50	2287.58
567.69	2252.77
567.89	2203.61
568.08	2160.61
568.28	2234.33
568.47	2090.98
568.67	2220.00
568.86	2187.23
569.06	2267.10
569.25	2203.61
569.45	2138.08
569.64	2146.27
569.84	2088.93
570.04	2230.24
570.23	2154.46
570.43	2181.09
570.62	2283.49
570.82	2389.98
571.01	2111.46
571.21	2170.85
571.40	2080.74
571.60	2306.01
571.79	2211.81
571.99	2260.96
572.18	2150.37
572.38	2263.01
572.57	2133.98
572.77	2234.33
572.96	2486.23
573.16	2240.48
573.35	2150.37
573.55	2367.45
573.74	2246.62
573.94	2172.89
574.13	2220.00
574.33	2367.45
574.52	2273.25
574.71	2172.89
574.91	2273.25
575.10	2080.74
575.30	2256.86
575.49	2156.51
575.69	2113.50
575.88	2248.67
576.08	2222.05
576.27	2424.80
576.47	2283.49
576.66	2422.75
576.86	2252.77
577.05	2248.67
577.25	2273.25
577.44	2490.33
577.64	2158.56
577.83	2326.49
578.02	2213.85
578.22	2351.07
578.41	2353.12
578.61	2267.10
578.80	2062.30
579.00	2252.77
579.19	2170.85
579.39	2199.52
579.58	2279.39
579.77	2228.19
579.97	2379.74
580.16	2435.03
580.36	2359.26
580.55	2383.84
580.75	2301.92
580.94	2322.40
581.13	2279.39
581.33	2420.70
581.52	2295.77
581.72	2510.81
581.91	2389.98
582.11	2211.81
582.30	2357.21
582.49	2248.67
582.69	2392.03
582.88	2277.34
583.08	2277.34
583.27	2369.50
583.47	2314.20
583.66	2146.27
583.85	2207.71
584.05	2176.99
584.24	2375.64
584.44	2320.35
584.63	2377.69
584.82	2449.37
585.02	2385.88
585.21	2373.60
585.41	2424.80
585.60	2326.49
585.79	2588.63
585.99	2521.05
586.18	2430.94
586.37	2844.63
586.57	4448.19
586.76	13291.32
586.96	32437.78
587.15	45870.40
587.34	55659.69
587.54	60490.85
587.73	55919.79
587.93	39361.96
588.12	29783.61
588.31	23592.60
588.51	20915.90
588.70	19001.05
588.89	17483.51
589.09	15087.39
589.28	13061.94
589.47	10547.04
589.67	8365.95
589.86	6471.58
590.06	4808.63
590.25	3807.17
590.44	3170.26
590.64	2695.13
590.83	2611.16
591.02	2506.71
591.22	2316.25
591.41	2357.21
591.60	2246.62
591.80	2549.72
591.99	2238.43
592.18	2211.81
592.38	2312.16
592.57	2248.67
592.76	2334.68
592.96	2308.06
593.15	2244.57
593.34	2338.78
593.54	2217.95
593.73	2318.30
593.92	2344.92
594.12	2406.36
594.31	2308.06
594.50	2361.31
594.70	2306.01
594.89	2551.77
595.08	2176.99
595.28	2326.49
595.47	2600.92
595.66	2297.82
595.86	2121.70
596.05	2232.29
596.24	2199.52
596.43	2400.22
596.63	2373.60
596.82	2260.96
597.01	2252.77
597.21	2449.37
597.40	2230.24
597.59	2285.53
597.79	2224.09
597.98	2336.73
598.17	2293.72
598.36	2195.42
598.56	2340.83
598.75	2265.05
598.94	2244.57
599.14	2271.20
599.33	2179.04
599.52	2318.30
599.71	2176.99
599.91	2234.33
600.10	2234.33
600.29	2332.64
600.48	2297.82
600.68	2254.81
600.87	2316.25
601.06	2142.18
601.26	2195.42
601.45	2289.63
601.64	2211.81
601.83	2385.88
602.03	2265.05
602.22	2045.92
602.41	2357.21
602.60	2490.33
602.80	2322.40
602.99	2285.53
603.18	2220.00
603.37	2230.24
603.57	2228.19
603.76	2238.43
603.95	2322.40
604.14	2195.42
604.34	2131.94
604.53	2211.81
604.72	2267.10
604.91	2215.90
605.10	2271.20
605.30	2097.12
605.49	2432.99
605.68	2318.30
605.87	2250.72
606.07	2060.26
606.26	2136.03
606.45	2326.49
606.64	2275.29
606.84	2138.08
607.03	2267.10
607.22	2361.31
607.41	2316.25
607.60	2181.09
607.80	2320.35
607.99	2260.96
608.18	2238.43
608.37	2242.53
608.56	2271.20
608.76	2471.90
608.95	2414.56
609.14	2244.57
609.33	2336.73
609.52	2510.81
609.72	2336.73
609.91	2361.31
610.10	2193.37
610.29	2461.66
610.48	2367.45
610.68	2252.77
610.87	2228.19
611.06	2277.34
611.25	2152.42
611.44	2334.68
611.63	2191.33
611.83	2389.98
612.02	2041.82
612.21	2293.72
612.40	2088.93
612.59	2150.37
612.79	2093.02
612.98	2183.13
613.17	2291.68
613.36	2242.53
613.55	2519.00
613.74	2332.64
613.93	2371.55
614.13	2461.66
614.32	2480.09
614.51	2443.23
614.70	2355.16
614.89	2330.59
615.08	2250.72
615.28	2760.66
615.47	2133.98
615.66	2293.72
615.85	2271.20
616.04	2344.92
616.23	2318.30
616.42	2336.73
616.62	2330.59
616.81	2269.15
617.00	2240.48
617.19	2281.44
617.38	2250.72
617.57	2373.60
617.76	2297.82
617.95	2349.02
618.15	2240.48
618.34	2435.03
618.53	2047.97
618.72	2379.74
618.91	2217.95
619.10	2238.43
619.29	2179.04
619.48	2205.66
619.68	2121.70
619.87	2220.00
620.06	2080.74
620.25	2254.81
620.44	2228.19
620.63	2076.64
620.82	2281.44
621.01	2242.53
621.20	2199.52
621.39	2246.62
621.59	2334.68
621.78	2148.32
621.97	2211.81
622.16	2289.63
622.35	2265.05
622.54	2215.90
622.73	2359.26
622.92	2023.39
623.11	2291.68
623.30	2209.76
623.49	2258.91
623.68	2097.12
623.88	2355.16
624.07	2269.15
624.26	2162.66
624.45	2170.85
624.64	2242.53
624.83	2263.01
625.02	2133.98
625.21	2238.43
625.40	2197.47
625.59	2381.79
625.78	2211.81
625.97	2344.92
626.16	2447.32
626.35	2375.64
626.54	2293.72
626.74	2523.10
626.93	2244.57
627.12	2258.91
627.31	2424.80
627.50	2168.80
627.69	2301.92
627.88	2125.79
628.07	2193.37
628.26	2050.02
628.45	2131.94
628.64	2107.36
628.83	2232.29
629.02	2072.54
629.21	2224.09
629.40	2232.29
629.59	2170.85
629.78	2244.57
629.97	2187.23
630.16	2248.67
630.35	2129.89
630.54	2236.38
630.73	2236.38
630.92	2293.72
631.11	2152.42
631.30	2217.95
631.49	2258.91
631.68	2199.52
631.87	2260.96
632.06	2109.41
632.25	2379.74
632.44	2256.86
632.63	2324.44
632.82	2203.61
633.01	2234.33
633.20	2328.54
633.39	2367.45
633.58	2191.33
633.77	2283.49
633.96	2271.20
634.15	2371.55
634.34	2316.25
634.53	2332.64
634.72	2199.52
634.91	2166.75
635.10	2176.99
635.29	2322.40
635.48	2283.49
635.67	2176.99
635.86	2090.98
636.05	2338.78
636.24	2195.42
636.43	2254.81
636.62	2232.29
636.81	2009.06
637.00	2195.42
637.19	2265.05
637.38	2187.23
637.57	2170.85
637.76	2283.49
637.95	2373.60
638.14	2355.16
638.33	2312.16
638.52	2303.96
638.71	2181.09
638.89	2160.61
639.08	2461.66
639.27	2373.60
639.46	2514.91
639.65	2854.87
639.84	2918.36
640.03	3082.19
640.22	3063.76
640.41	2953.17
640.60	2432.99
640.79	2514.91
640.98	2478.04
641.17	2410.46
641.36	2414.56
641.55	2379.74
641.74	2187.23
641.92	2187.23
642.11	2199.52
642.30	2303.96
642.49	2185.18
642.68	2125.79
642.87	2322.40
643.06	2207.71
643.25	2097.12
643.44	2125.79
643.63	2187.23
643.82	2314.20
644.00	2101.22
644.19	2183.13
644.38	1990.63
644.57	2273.25
644.76	2197.47
644.95	2105.31
645.14	2240.48
645.33	2154.46
645.52	2242.53
645.71	2078.69
645.89	2068.45
646.08	2185.18
646.27	2127.84
646.46	2375.64
646.65	2052.06
646.84	2228.19
647.03	2078.69
647.22	2263.01
647.40	2230.24
647.59	2174.94
647.78	2113.50
647.97	2097.12
648.16	2127.84
648.35	2293.72
648.54	2375.64
648.73	2207.71
648.91	2283.49
649.10	2213.85
649.29	2117.60
649.48	2183.13
649.67	2242.53
649.86	2258.91
650.05	2265.05
650.23	2478.04
650.42	2404.32
650.61	2443.23
650.80	2447.32
650.99	2553.82
651.18	2314.20
651.36	2342.88
651.55	2199.52
651.74	2279.39
651.93	2215.90
652.12	2162.66
652.31	2250.72
652.49	2164.70
652.68	2150.37
652.87	2314.20
653.06	2258.91
653.25	2480.09
653.44	2193.37
653.62	2342.88
653.81	2109.41
654.00	2209.76
654.19	2281.44
654.38	2482.14
654.56	2318.30
654.75	2179.04
654.94	2242.53
655.13	2234.33
655.32	2252.77
655.51	2170.85
655.69	2162.66
655.88	2306.01
656.07	2133.98
656.26	2183.13
656.45	2080.74
656.63	2170.85
656.82	2195.42
657.01	2318.30
657.20	2129.89
657.38	2252.77
657.57	2176.99
657.76	2031.58
657.95	2244.57
658.14	2152.42
658.32	2207.71
658.51	2101.22
658.70	2181.09
658.89	2256.86
659.08	2211.81
659.26	2342.88
659.45	2158.56
659.64	2306.01
659.83	2230.24
660.01	2594.78
660.20	2207.71
660.39	2371.55
660.58	2105.31
660.76	2260.96
660.95	2078.69
661.14	2209.76
661.33	2127.84
661.51	2152.42
661.70	2140.13
661.89	2226.14
662.08	2209.76
662.26	2097.12
662.45	2176.99
662.64	2389.98
662.83	2334.68
663.01	2095.07
663.20	2129.89
663.39	2275.29
663.58	2176.99
663.76	2193.37
663.95	2281.44
664.14	2150.37
664.32	2101.22
664.51	2074.59
664.70	2105.31
664.89	2289.63
665.07	2070.50
665.26	2310.11
665.45	2076.64
665.64	2351.07
665.82	2234.33
666.01	2228.19
666.20	2136.03
666.38	2383.84
666.57	2367.45
666.76	3362.76
666.95	7999.37
667.13	16572.16
667.32	21870.26
667.51	25544.31
667.69	27709.02
667.88	25484.92
668.07	18048.75
668.25	14556.96
668.44	11910.99
668.63	10110.82
668.81	9254.77
669.00	7901.06
669.19	7065.49
669.38	6074.28
669.56	5324.72
669.75	4378.56
669.94	3717.06
670.12	3094.48
670.31	2738.13
670.50	2629.59
670.68	2396.12
670.87	2369.50
671.06	2195.42
671.24	2273.25
671.43	2318.30
671.62	2318.30
671.80	2265.05
671.99	2344.92
672.18	2238.43
672.36	2271.20
672.55	2238.43
672.74	2213.85
672.92	2248.67
673.11	2228.19
673.29	2109.41
673.48	2297.82
673.67	2220.00
673.85	2299.87
674.04	2191.33
674.23	2140.13
674.41	2398.17
674.60	2047.97
674.79	1957.86
674.97	2117.60
675.16	2191.33
675.34	2320.35
675.53	2105.31
675.72	2252.77
675.90	2299.87
676.09	2125.79
676.28	2238.43
676.46	2076.64
676.65	2185.18
676.83	2160.61
677.02	2213.85
677.21	2230.24
677.39	2277.34
677.58	2123.74
677.77	2166.75
677.95	2170.85
678.14	2181.09
678.32	2156.51
678.51	2111.46
678.70	2383.84
678.88	2144.22
679.07	2330.59
679.25	2232.29
679.44	2123.74
679.63	2068.45
679.81	2260.96
680.00	2314.20
680.18	2215.90
680.37	2367.45
680.55	2203.61
680.74	2076.64
680.93	2086.88
681.11	2154.46
681.30	2205.66
681.48	2215.90
681.67	2215.90
681.85	2244.57
682.04	2070.50
682.23	2244.57
682.41	2236.38
682.60	2201.57
682.78	2150.37
682.97	2084.83
683.15	2097.12
683.34	2174.94
683.53	2365.40
683.71	2129.89
683.90	2291.68
684.08	2414.56
684.27	2140.13
684.45	2207.71
684.64	2332.64
684.82	2179.04
685.01	2287.58
685.19	2209.76
685.38	2322.40
685.57	2193.37
685.75	2136.03
685.94	2148.32
686.12	2148.32
686.31	2103.26
686.49	2447.32
686.68	2004.96
686.86	2236.38
687.05	2113.50
687.23	2357.21
687.42	2056.16
687.60	2072.54
687.79	2260.96
687.97	2406.36
688.16	2252.77
688.34	2289.63
688.53	2043.87
688.71	2295.77
688.90	2322.40
689.08	2191.33
689.27	2004.96
689.45	2271.20
689.64	2226.14
689.82	2228.19
690.01	2281.44
690.19	2252.77
690.38	2181.09
690.56	2275.29
690.75	2052.06
690.93	2185.18
691.12	2160.61
691.30	2265.05
691.49	2168.80
691.67	2238.43
691.86	2334.68
692.04	2107.36
692.23	2301.92
692.41	2246.62
692.60	2351.07
692.78	2299.87
692.97	2215.90
693.15	2277.34
693.34	2406.36
693.52	2265.05
693.71	2207.71
693.89	2168.80
694.08	2054.11
694.26	2267.10
694.44	2338.78
694.63	2336.73
694.81	2220.00
695.00	2162.66
695.18	2314.20
695.37	2484.19
695.55	2334.68
695.74	2170.85
695.92	2066.40
696.10	2336.73
696.29	2095.07
696.47	2093.02
696.66	2095.07
696.84	2181.09
697.03	2158.56
697.21	2408.41
697.40	3145.68
697.58	2349.02
697.76	2166.75
697.95	2148.32
698.13	2121.70
698.32	2129.89
698.50	2217.95
698.68	2226.14
698.87	2254.81
699.05	2277.34
699.24	2154.46
699.42	2072.54
699.61	2203.61
699.79	2254.81
699.97	2156.51
700.16	2076.64
700.34	2047.97
700.53	2224.09
700.71	2351.07
700.89	2289.63
701.08	2209.76
701.26	2224.09
701.45	2734.04
701.63	2095.07
701.81	2240.48
702.00	2133.98
702.18	2224.09
702.37	2166.75
702.55	2500.57
702.73	2351.07
702.92	2351.07
703.10	2506.71
703.28	2527.19
703.47	2179.04
703.65	2428.89
703.84	2500.57
704.02	2195.42
704.20	2435.03
704.39	2170.85
704.57	2205.66
704.75	2365.40
704.94	2289.63
705.12	2301.92
705.30	2428.89
705.49	4556.73
705.67	11161.43
705.86	20266.70
706.04	24794.76
706.22	28075.60
706.41	29593.15
706.59	25175.68
706.77	17800.94
706.96	14884.64
707.14	12773.18
707.32	11059.03
707.51	9879.40
707.69	8181.64
707.87	6504.35
708.06	5076.91
708.24	4157.38
708.42	3340.24
708.61	3104.72
708.79	2486.23
708.97	2363.36
709.16	2392.03
709.34	2258.91
709.52	2203.61
709.71	2238.43
709.89	2220.00
710.07	2113.50
710.26	2080.74
710.44	2205.66
710.62	2326.49
710.80	2176.99
710.99	2322.40
711.17	2271.20
711.35	2136.03
711.54	2127.84
711.72	2283.49
711.90	2211.81
712.09	2281.44
712.27	2107.36
712.45	2201.57
712.63	2215.90
712.82	2285.53
713.00	2187.23
713.18	2252.77
713.37	2336.73
713.55	2308.06
713.73	2242.53
713.91	2240.48
714.10	2172.89
714.28	2179.04
714.46	2150.37
714.65	2297.82
714.83	2131.94
715.01	2150.37
715.19	2248.67
715.38	2105.31
715.56	2289.63
715.74	2168.80
715.92	2166.75
716.11	2318.30
716.29	2007.01
716.47	2240.48
716.65	2121.70
716.84	2013.15
717.02	2236.38
717.20	2101.22
717.38	2187.23
717.57	2265.05
717.75	2224.09
717.93	2099.17
718.11	2176.99
718.30	2078.69
718.48	2250.72
718.66	2318.30
718.84	2295.77
719.03	2158.56
719.21	2056.16
719.39	2336.73
719.57	2342.88
719.75	2267.10
719.94	2109.41
720.12	2170.85
720.30	2250.72
720.48	2375.64
720.67	2162.66
720.85	2101.22
721.03	2146.27
721.21	2127.84
721.39	2275.29
721.58	2269.15
721.76	2166.75
721.94	2252.77
722.12	2220.00
722.30	2342.88
722.49	2226.14
722.67	2260.96
722.85	2201.57
723.03	2095.07
723.21	2121.70
723.40	2207.71
723.58	2336.73
723.76	2293.72
723.94	2416.60
724.12	2306.01
724.30	2322.40
724.49	2373.60
724.67	2154.46
724.85	2351.07
725.03	2121.70
725.21	2269.15
725.40	2394.08
725.58	2129.89
725.76	2281.44
725.94	2265.05
726.12	2146.27
726.30	2248.67
726.49	2195.42
726.67	2090.98
726.85	2277.34
727.03	2551.77
727.21	3653.58
727.39	5377.97
727.57	6598.56
727.76	7274.38
727.94	7794.57
728.12	7403.41
728.30	5982.12
728.48	4921.27
728.66	4552.63
728.84	4108.23
729.03	3528.65
729.21	3203.02
729.39	2748.37
729.57	2514.91
729.75	2349.02
729.93	2340.83
730.11	2138.08
730.30	2254.81
730.48	2226.14
730.66	2316.25
730.84	2283.49
731.02	2250.72
731.20	2127.84
731.38	2205.66
731.56	2090.98
731.74	2078.69
731.93	2273.25
732.11	2242.53
732.29	2277.34
732.47	2207.71
732.65	2150.37
732.83	2346.97
733.01	2228.19
733.19	2125.79
733.37	2271.20
733.56	2197.47
733.74	2138.08
733.92	2314.20
734.10	2133.98
734.28	2258.91
734.46	2043.87
734.64	2170.85
734.82	2185.18
735.00	2154.46
735.18	2131.94
735.36	2260.96
735.54	2187.23
735.73	2185.18
735.91	2193.37
736.09	2279.39
736.27	2162.66
736.45	2162.66
736.63	2080.74
736.81	2160.61
736.99	2320.35
737.17	2322.40
737.35	2078.69
737.53	2185.18
737.71	2156.51
737.89	2226.14
738.07	2088.93
738.25	2133.98
738.43	2111.46
738.61	2138.08
738.80	2070.50
738.98	2142.18
739.16	2146.27
739.34	2121.70
739.52	2281.44
739.70	2199.52
739.88	2271.20
740.06	2228.19
740.24	1953.76
740.42	2269.15
740.60	2023.39
740.78	2170.85
740.96	2047.97
741.14	2152.42
741.32	2228.19
741.50	2191.33
741.68	2439.13
741.86	2299.87
742.04	2064.35
742.22	2195.42
742.40	2172.89
742.58	2275.29
742.76	2146.27
742.94	2293.72
743.12	2047.97
743.30	2226.14
743.48	2197.47
743.66	2162.66
743.84	2287.58
744.02	2160.61
744.20	2166.75
744.38	2103.26
744.56	2107.36
744.74	2267.10
744.92	2283.49
745.10	2359.26
745.28	2162.66
745.46	2344.92
745.64	2148.32
745.82	2269.15
746.00	2162.66
746.18	2291.68
746.36	2066.40
746.54	2205.66
746.72	2213.85
746.90	2105.31
747.08	2275.29
747.26	2062.30
747.44	2195.42
747.62	2330.59
747.80	2244.57
747.98	2289.63
748.15	2080.74
748.33	2334.68
748.51	2224.09
748.69	2222.05
748.87	2070.50
749.05	2211.81
749.23	2267.10
749.41	2197.47
749.59	2156.51
749.77	2230.24
749.95	2166.75
750.13	2144.22
750.31	2256.86
750.49	2109.41
750.67	2242.53
750.85	2357.21
751.03	2142.18
751.20	2363.36
751.38	2199.52
751.56	2209.76
751.74	2199.52
751.92	2144.22
752.10	2078.69
752.28	2336.73
752.46	2127.84
752.64	2201.57
752.82	2187.23
753.00	2330.59
753.18	2121.70
753.35	2197.47
753.53	2181.09
753.71	2211.81
753.89	2361.31
754.07	2269.15
754.25	2248.67
754.43	2199.52
754.61	2121.70
754.79	2217.95
754.97	2199.52
755.14	2242.53
755.32	2123.74
755.50	2217.95
755.68	2176.99
755.86	2133.98
756.04	2113.50
756.22	2015.20
756.40	2316.25
756.57	2451.42
756.75	2170.85
756.93	2283.49
757.11	2256.86
757.29	2019.30
757.47	2099.17
757.65	2095.07
757.82	2033.63
758.00	2056.16
758.18	2162.66
758.36	2033.63
758.54	2326.49
758.72	2054.11
758.90	2228.19
759.07	2236.38
759.25	2095.07
759.43	2232.29
759.61	2041.82
759.79	3071.95
759.97	2301.92
760.15	2095.07
760.32	2129.89
760.50	2228.19
760.68	2355.16
760.86	2070.50
761.04	2308.06
761.22	2303.96
761.39	2187.23
761.57	2244.57
761.75	2191.33
761.93	2226.14
762.11	2121.70
762.28	2154.46
762.46	2052.06
762.64	2312.16
762.82	2080.74
763.00	2164.70
763.18	2328.54
763.35	2084.83
763.53	2211.81
763.71	2191.33
763.89	2142.18
764.07	2220.00
764.24	2199.52
764.42	2287.58
764.60	2154.46
764.78	2240.48
764.96	2273.25
765.13	2260.96
765.31	2154.46
765.49	2220.00
765.67	2068.45
765.84	2093.02
766.02	2125.79
766.20	2109.41
766.38	2267.10
766.56	2340.83
766.73	2207.71
766.91	2166.75
767.09	2191.33
767.27	2242.53
767.44	2125.79
767.62	2195.42
767.80	2275.29
767.98	2158.56
768.15	2133.98
768.33	2238.43
768.51	2220.00
768.69	2318.30
768.87	2209.76
769.04	2217.95
769.22	2453.47
769.40	2318.30
769.58	2430.94
769.75	2226.14
769.93	2289.63
770.11	2230.24
770.28	2017.25
770.46	2281.44
770.64	2205.66
770.82	2168.80
770.99	2168.80
771.17	2365.40
771.35	2222.05
771.53	2154.46
771.70	2123.74
771.88	2295.77
772.06	2179.04
772.23	2148.32
772.41	2263.01
772.59	2195.42
772.77	2142.18
772.94	2209.76
773.12	2240.48
773.30	2129.89
773.47	2179.04
773.65	2170.85
773.83	2295.77
774.01	2123.74
774.18	2113.50
774.36	2244.57
774.54	2152.42
774.71	2148.32
774.89	1984.48
775.07	2127.84
775.24	2121.70
775.42	2142.18
775.60	2340.83
775.78	2099.17
775.95	2099.17
776.13	2086.88
776.31	2047.97
776.48	2228.19
776.66	2242.53
776.84	2133.98
777.01	2133.98
777.19	2080.74
777.37	2074.59
777.54	2222.05
777.72	2439.13
777.90	2138.08
778.07	2127.84
778.25	2539.48
778.43	2275.29
778.60	2140.13
778.78	2226.14
778.96	2308.06
779.13	2103.26
779.31	2234.33
779.49	2154.46
779.66	2283.49
779.84	2158.56
780.01	2185.18
780.19	2103.26
780.37	2187.23
780.54	2248.67
780.72	2111.46
780.90	2205.66
781.07	2205.66
781.25	2062.30
781.43	2308.06
781.60	2152.42
781.78	2306.01
781.95	2201.57
782.13	2041.82
782.31	2199.52
782.48	2021.35
782.66	2220.00
782.83	2332.64
783.01	2199.52
783.19	2297.82
783.36	2187.23
783.54	2086.88
783.72	2293.72
783.89	2234.33
784.07	2285.53
784.24	2306.01
784.42	2359.26
784.60	2275.29
784.77	2211.81
784.95	2064.35
785.12	2142.18
785.30	2226.14
785.47	2150.37
785.65	2129.89
785.83	2166.75
786.00	2179.04
786.18	2228.19
786.35	2064.35
786.53	2031.58
786.71	2277.34
786.88	2242.53
787.06	2154.46
787.23	2195.42
787.41	2007.01
787.58	2160.61
787.76	2109.41
787.94	2267.10
788.11	2117.60
788.29	2179.04
788.46	2105.31
788.64	2072.54
788.81	2117.60
788.99	2109.41
789.16	2088.93
789.34	2170.85
789.52	2181.09
789.69	2148.32
789.87	2047.97
790.04	2176.99
790.22	2256.86
790.39	2453.47
790.57	2105.31
790.74	2056.16
790.92	2310.11
791.09	2039.78
791.27	2248.67
791.44	2230.24
791.62	2160.61
791.79	2318.30
791.97	2183.13
792.15	2502.62
792.32	2240.48
792.50	2271.20
792.67	2373.60
792.85	2285.53
793.02	2236.38
793.20	2176.99
793.37	2101.22
793.55	2146.27
793.72	2045.92
793.90	2267.10
794.07	2113.50
794.25	2105.31
794.42	2260.96
794.60	2217.95
794.77	2297.82
794.95	2205.66
795.12	2312.16
795.30	2131.94
795.47	2062.30
795.65	2574.30
795.82	2203.61
796.00	2066.40
796.17	2168.80
796.34	2101.22
796.52	2226.14
796.69	2215.90
796.87	2260.96
797.04	2217.95
797.22	2301.92
797.39	2224.09
797.57	2310.11
797.74	2289.63
797.92	2207.71
798.09	2111.46
798.27	2244.57
798.44	2129.89
798.62	2086.88
798.79	2236.38
798.96	2168.80
799.14	2170.85
799.31	2416.60
799.49	2215.90
799.66	2117.60
799.84	2220.00
800.01	2121.70
800.19	2191.33
800.36	2027.49
800.53	2205.66
800.71	2267.10
800.88	2355.16
801.06	2136.03
801.23	2066.40
801.41	2199.52
801.58	2220.00
801.75	2121.70
801.93	2189.28
802.10	2260.96
802.28	2191.33
802.45	2228.19
802.63	2273.25
802.80	2301.92
802.97	2170.85
803.15	2191.33
803.32	2121.70
803.50	2062.30
803.67	2105.31
803.84	2043.87
804.02	2228.19
804.19	2129.89
804.37	1982.43
804.54	2060.26
804.71	2203.61
804.89	2183.13
805.06	2107.36
805.24	2072.54
805.41	2117.60
805.58	2111.46
805.76	2463.71
805.93	2195.42
806.10	2375.64
806.28	2232.29
806.45	2271.20
806.63	2234.33
806.80	2224.09
806.97	2236.38
807.15	2148.32
807.32	2179.04
807.49	2142.18
807.67	2062.30
807.84	2179.04
808.01	2037.73
808.19	2443.23
808.36	2494.43
808.54	2150.37
808.71	2080.74
808.88	2121.70
809.06	2291.68
809.23	2277.34
809.40	2123.74
809.58	2277.34
809.75	2174.94
809.92	2062.30
810.10	2394.08
810.27	2156.51
810.44	2230.24
810.62	2234.33
810.79	2275.29
810.96	2148.32
811.14	2144.22
811.31	2250.72
811.48	2312.16
811.66	2121.70
811.83	2336.73
812.00	2133.98
812.18	2217.95
812.35	2373.60
812.52	2199.52
812.69	2117.60
812.87	2217.95
813.04	2150.37
813.21	2226.14
813.39	2080.74
813.56	2129.89
813.73	2297.82
813.91	1994.72
814.08	2113.50
814.25	2201.57
814.42	2070.50
814.60	2121.70
814.77	2189.28
814.94	2129.89
815.12	2193.37
815.29	2349.02
815.46	2072.54
815.63	2142.18
815.81	2099.17
815.98	2254.81
816.15	2228.19
816.33	2211.81
816.50	2205.66
816.67	2176.99
816.84	2113.50
817.02	2084.83
817.19	2199.52
817.36	2199.52
817.53	2152.42
817.71	2080.74
817.88	2228.19
818.05	2150.37
818.22	2113.50
818.40	2375.64
818.57	2160.61
818.74	2187.23
818.91	2193.37
819.09	2185.18
819.26	2191.33
819.43	2115.55
819.60	2154.46
819.78	2226.14
819.95	2349.02
820.12	2076.64
820.29	2334.68
820.47	2207.71
820.64	2086.88
820.81	1992.67
820.98	2084.83
821.15	2150.37
821.33	2260.96
821.50	1966.05
821.67	2267.10
821.84	2148.32
822.02	2179.04
822.19	2291.68
822.36	2115.55
822.53	2152.42
822.70	2078.69
822.88	2150.37
823.05	2301.92
823.22	2168.80
823.39	2271.20
823.56	2170.85
823.74	2346.97
823.91	2047.97
824.08	2113.50
824.25	2103.26
824.42	2414.56
824.60	2056.16
824.77	2195.42
824.94	2148.32
825.11	2306.01
825.28	2035.68
825.45	2254.81
825.63	2211.81
825.80	2080.74
825.97	2195.42
826.14	2226.14
826.31	2054.11
826.48	2254.81
826.66	2066.40
826.83	2109.41
827.00	2158.56
827.17	2097.12
827.34	2209.76
827.51	2152.42
827.69	2236.38
827.86	2111.46
828.03	2166.75
828.20	2117.60
828.37	2144.22
828.54	2236.38
828.71	2078.69
828.89	2377.69
829.06	2222.05
829.23	2297.82
829.40	2138.08
829.57	2129.89
829.74	2236.38
829.91	2109.41
830.09	2146.27
830.26	2283.49
830.43	2338.78
830.60	2197.47
830.77	2252.77
830.94	2297.82
831.11	2320.35
831.28	2201.57
831.46	2211.81
831.63	2113.50
831.80	2316.25
831.97	2117.60
832.14	2125.79
832.31	2203.61
832.48	2207.71
832.65	2265.05
832.82	2158.56
832.99	2281.44
833.17	2054.11
833.34	2334.68
833.51	2176.99
833.68	2125.79
833.85	2224.09
834.02	2078.69
834.19	2095.07
834.36	2097.12
834.53	2211.81
834.70	2234.33
834.87	2232.29
835.04	2152.42
835.22	2183.13
835.39	2138.08
835.56	2047.97
835.73	2095.07
835.90	2236.38
836.07	2181.09
836.24	2244.57
836.41	2152.42
836.58	2150.37
836.75	2287.58
836.92	2152.42
837.09	2047.97
837.26	2258.91
837.43	2191.33
837.60	2232.29
837.77	2195.42
837.94	2273.25
838.12	2310.11
838.29	2154.46
838.46	2062.30
838.63	2072.54
838.80	2322.40
838.97	2125.79
839.14	2179.04
839.31	2232.29
839.48	2326.49
839.65	2064.35
839.82	2232.29
839.99	2201.57
840.16	2195.42
840.33	2123.74
840.50	2174.94
840.67	2138.08
840.84	1961.95
841.01	2152.42
841.18	2119.65
841.35	2103.26
841.52	2377.69
841.69	2301.92
841.86	2125.79
842.03	2244.57
842.20	2291.68
842.37	2111.46
842.54	2189.28
842.71	2185.18
842.88	2035.68
843.05	2179.04
843.22	2127.84
843.39	2289.63
843.56	2115.55
843.73	2179.04
843.90	2170.85
844.07	2179.04
844.24	2334.68
844.41	2195.42
844.58	2197.47
844.75	2211.81
844.92	2222.05
845.09	2146.27
845.26	2113.50
845.43	2256.86
845.60	2195.42
845.77	2191.33
845.94	2144.22
846.10	2275.29
846.27	2004.96
846.44	2119.65
846.61	2068.45
846.78	2252.77
846.95	2291.68
847.12	2183.13
847.29	2187.23
847.46	2105.31
847.63	2263.01
847.80	2133.98
847.97	2150.37
848.14	2369.50
848.31	2195.42
848.48	2080.74
848.65	2080.74
848.82	2101.22
848.98	2389.98
849.15	2154.46
849.32	2215.90
849.49	2293.72
849.66	2209.76
849.83	2211.81
850.00	2131.94
850.17	2211.81
850.34	2152.42
850.51	2129.89
850.68	2160.61
850.85	2422.75
851.01	2256.86
851.18	2197.47
851.35	2166.75
851.52	2193.37
851.69	2314.20
851.86	1994.72
852.03	2148.32
852.20	2310.11
852.37	2152.42
852.53	2043.87
852.70	2146.27
852.87	2203.61
853.04	2224.09
853.21	2062.30
853.38	2295.77
853.55	2299.87
853.72	2353.12
853.89	2080.74
854.05	2133.98
854.22	2162.66
854.39	2105.31
854.56	2154.46
854.73	2260.96
854.90	2070.50
855.07	2099.17
855.23	2125.79
855.40	2093.02
855.57	2105.31
855.74	2004.96
855.91	2392.03
856.08	2007.01
856.25	2015.20
856.41	2146.27
856.58	2103.26
856.75	2158.56
856.92	2088.93
857.09	2332.64
857.26	2105.31
857.42	2170.85
857.59	2252.77
857.76	2191.33
857.93	2187.23
858.10	2172.89
858.27	2117.60
858.43	2152.42
858.60	2011.11
858.77	1996.77
858.94	2099.17
859.11	2338.78
859.27	2244.57
859.44	2166.75
859.61	2357.21
859.78	2246.62
859.95	2174.94
860.12	2084.83
860.28	2379.74
860.45	2445.27
860.62	2185.18
860.79	2179.04
860.95	2244.57
861.12	2115.55
861.29	2111.46
861.46	2035.68
861.63	2205.66
861.79	2199.52
861.96	2111.46
862.13	2119.65
862.30	2277.34
862.47	2148.32
862.63	2007.01
862.80	2295.77
862.97	2250.72
863.14	2207.71
863.30	2179.04
863.47	2154.46
863.64	2310.11
863.81	2244.57
863.97	2138.08
864.14	2170.85
864.31	2189.28
864.48	2168.80
864.65	2179.04
864.81	2242.53
864.98	2269.15
865.15	2166.75
865.32	2154.46
865.48	2154.46
865.65	2267.10
865.82	2162.66
865.98	2191.33
866.15	2252.77
866.32	2183.13
866.49	2248.67
866.65	2277.34
866.82	2172.89
866.99	2207.71
867.16	2150.37
867.32	2133.98
867.49	2064.35
867.66	2125.79
867.83	2150.37
867.99	2123.74
868.16	2111.46
868.33	2142.18
868.49	2144.22
868.66	2095.07
868.83	2242.53
868.99	2142.18
869.16	2201.57
869.33	2271.20
869.50	2265.05
869.66	2203.61
869.83	2170.85
870.00	2133.98
870.16	2254.81
870.33	2179.04
870.50	2189.28
870.66	2125.79
870.83	2293.72
871.00	2244.57
871.17	2207.71
871.33	2187.23
871.50	2090.98
871.67	2226.14
871.83	2109.41
872.00	2283.49
872.17	2095.07
872.33	2392.03
872.50	2330.59
872.67	2138.08
872.83	2152.42
873.00	2191.33
873.17	2232.29
873.33	2170.85
873.50	2242.53
873.67	2129.89
873.83	2113.50
874.00	2090.98
874.16	2236.38
874.33	2121.70
874.50	2060.26
874.66	2174.94
874.83	2133.98
875.00	2314.20
875.16	2263.01
875.33	2197.47
875.50	2023.39
875.66	2138.08
875.83	2193.37
875.99	2265.05
876.16	2119.65
876.33	2154.46
876.49	2105.31
876.66	2150.37
876.83	2170.85
876.99	2097.12
877.16	2156.51
877.32	2076.64
877.49	2172.89
877.66	2215.90
877.82	2332.64
877.99	2162.66
878.15	2242.53
878.32	2176.99
878.49	2205.66
878.65	2142.18
878.82	2205.66
878.98	2088.93
879.15	2314.20
879.32	2193.37
879.48	2125.79
879.65	2129.89
879.81	2232.29
879.98	2056.16
880.15	2181.09
880.31	2269.15
880.48	2068.45
880.64	2260.96
880.81	2193.37
880.97	2359.26
881.14	2301.92
881.31	2078.69
881.47	2367.45
881.64	2144.22
881.80	2070.50
881.97	2215.90
882.13	2162.66
882.30	2119.65
882.47	2052.06
882.63	2119.65
882.80	2150.37
882.96	2179.04
883.13	2326.49
883.29	2148.32
883.46	2123.74
883.62	2367.45
883.79	2119.65
883.95	2185.18
884.12	2152.42
884.29	2293.72
884.45	2191.33
884.62	2142.18
884.78	2050.02
884.95	2277.34
885.11	2158.56
885.28	2150.37
885.44	2107.36
885.61	2306.01
885.77	2330.59
885.94	2209.76
886.10	2138.08
886.27	2150.37
886.43	2326.49
886.60	2258.91
886.76	2103.26
886.93	2123.74
887.09	2211.81
887.26	2060.26
887.42	2115.55
887.59	2240.48
887.75	2430.94
887.92	2242.53
888.08	2230.24
888.25	2349.02
888.41	2269.15
888.58	2123.74
888.74	2072.54
888.91	2146.27
>>>>>End Processed Spectral Data<<<<<
