SpectraSuite Data File
++++++++++++++++++++++++++++++++++++
Date: Thu May 05 12:35:25 CEST 2016
User: root
Dark Spectrum Present: No
Reference Spectrum Present: No
Number of Sampled Component Spectra: 1
Spectrometers: USB4C02835
Integration Time (usec): 100000 (USB4C02835)
Spectra Averaged: 1 (USB4C02835)
Boxcar Smoothing: 0 (USB4C02835)
Correct for Electrical Dark: No (USB4C02835)
Strobe/Lamp Enabled: No (USB4C02835)
Correct for Detector Non-linearity: No (USB4C02835)
Correct for Stray Light: No (USB4C02835)
Number of Pixels in Processed Spectrum: 3648
>>>>>Begin Processed Spectral Data<<<<<
177.47	1761.25
177.69	1761.25
177.91	1761.25
178.13	1789.92
178.36	1785.83
178.58	2109.41
178.80	2240.48
179.02	2039.78
179.24	2140.13
179.46	2152.42
179.68	2215.90
179.90	2156.51
180.13	2252.77
180.35	2027.49
180.57	2138.08
180.79	2211.81
181.01	2199.52
181.23	2265.05
181.45	2260.96
181.67	2230.24
181.90	2191.33
182.12	2103.26
182.34	2029.54
182.56	2240.48
182.78	2220.00
183.00	2109.41
183.22	2142.18
183.44	1980.39
183.66	2430.94
183.89	2222.05
184.11	2176.99
184.33	2236.38
184.55	2242.53
184.77	2097.12
184.99	2121.70
185.21	2105.31
185.43	2428.89
185.65	2162.66
185.87	2113.50
186.10	2320.35
186.32	2303.96
186.54	2185.18
186.76	2138.08
186.98	2328.54
187.20	2176.99
187.42	2176.99
187.64	2150.37
187.86	2205.66
188.08	2203.61
188.30	2082.78
188.52	2113.50
188.75	2301.92
188.97	2404.32
189.19	2160.61
189.41	2127.84
189.63	2256.86
189.85	2103.26
190.07	2019.30
190.29	2023.39
190.51	2195.42
190.73	2033.63
190.95	2195.42
191.17	2181.09
191.39	2070.50
191.61	2164.70
191.84	2127.84
192.06	2179.04
192.28	2039.78
192.50	2439.13
192.72	2127.84
192.94	2213.85
193.16	2293.72
193.38	2158.56
193.60	2045.92
193.82	2277.34
194.04	2334.68
194.26	2263.01
194.48	2138.08
194.70	2047.97
194.92	2133.98
195.14	2281.44
195.36	2062.30
195.58	2125.79
195.80	2174.94
196.02	2179.04
196.24	2183.13
196.46	2238.43
196.69	2103.26
196.91	2414.56
197.13	2035.68
197.35	2176.99
197.57	2349.02
197.79	2269.15
198.01	2150.37
198.23	2275.29
198.45	2224.09
198.67	1986.53
198.89	2088.93
199.11	2144.22
199.33	2154.46
199.55	2015.20
199.77	2176.99
199.99	2240.48
200.21	2260.96
200.43	2236.38
200.65	2056.16
200.87	2017.25
201.09	2179.04
201.31	2191.33
201.53	2150.37
201.75	2146.27
201.97	2189.28
202.19	2193.37
202.41	2201.57
202.63	2291.68
202.85	2263.01
203.07	2193.37
203.29	2074.59
203.51	1984.48
203.73	2099.17
203.95	2424.80
204.17	2133.98
204.39	2127.84
204.61	2236.38
204.83	2086.88
205.05	2224.09
205.27	2193.37
205.49	2408.41
205.71	2158.56
205.93	2060.26
206.15	2072.54
206.37	2183.13
206.59	2199.52
206.81	1933.28
207.03	2058.21
207.25	2086.88
207.47	2193.37
207.69	2103.26
207.91	2351.07
208.13	2310.11
208.34	2109.41
208.56	2113.50
208.78	2203.61
209.00	2144.22
209.22	2080.74
209.44	2095.07
209.66	2013.15
209.88	2125.79
210.10	2129.89
210.32	2090.98
210.54	2322.40
210.76	2129.89
210.98	2267.10
211.20	1988.58
211.42	2187.23
211.64	2299.87
211.86	2222.05
212.08	2107.36
212.30	2162.66
212.52	2129.89
212.74	2226.14
212.96	2185.18
213.17	2146.27
213.39	2242.53
213.61	2295.77
213.83	2170.85
214.05	2166.75
214.27	2281.44
214.49	2070.50
214.71	2123.74
214.93	2220.00
215.15	2197.47
215.37	2289.63
215.59	2062.30
215.81	2133.98
216.03	2357.21
216.24	2168.80
216.46	2158.56
216.68	2148.32
216.90	2365.40
217.12	2213.85
217.34	2076.64
217.56	2197.47
217.78	2363.36
218.00	2263.01
218.22	2215.90
218.44	2127.84
218.66	2179.04
218.87	2408.41
219.09	2099.17
219.31	2207.71
219.53	2277.34
219.75	2205.66
219.97	2152.42
220.19	2211.81
220.41	2162.66
220.63	2402.27
220.85	2179.04
221.06	2123.74
221.28	2340.83
221.50	2279.39
221.72	2101.22
221.94	2072.54
222.16	2179.04
222.38	2330.59
222.60	2176.99
222.82	2191.33
223.03	2334.68
223.25	2082.78
223.47	2176.99
223.69	2275.29
223.91	2185.18
224.13	2142.18
224.35	2109.41
224.57	2242.53
224.78	2150.37
225.00	2103.26
225.22	2119.65
225.44	2181.09
225.66	2244.57
225.88	2142.18
226.10	2230.24
226.32	2209.76
226.53	2336.73
226.75	2127.84
226.97	2103.26
227.19	2138.08
227.41	2076.64
227.63	2209.76
227.85	1974.24
228.06	2183.13
228.28	2193.37
228.50	2244.57
228.72	1990.63
228.94	2142.18
229.16	2060.26
229.37	2084.83
229.59	2086.88
229.81	2314.20
230.03	2074.59
230.25	2023.39
230.47	2033.63
230.69	2093.02
230.90	2297.82
231.12	2187.23
231.34	2176.99
231.56	2199.52
231.78	2109.41
232.00	2228.19
232.21	2162.66
232.43	2117.60
232.65	1992.67
232.87	2168.80
233.09	2090.98
233.30	2078.69
233.52	2258.91
233.74	2193.37
233.96	2154.46
234.18	2195.42
234.40	2232.29
234.61	2375.64
234.83	2029.54
235.05	2047.97
235.27	2484.19
235.49	2318.30
235.70	2123.74
235.92	2193.37
236.14	2287.58
236.36	2449.37
236.58	2029.54
236.79	2207.71
237.01	2154.46
237.23	2179.04
237.45	2283.49
237.67	2119.65
237.88	2211.81
238.10	2328.54
238.32	2076.64
238.54	2072.54
238.76	2154.46
238.97	2170.85
239.19	2037.73
239.41	2244.57
239.63	2293.72
239.85	2062.30
240.06	2084.83
240.28	2119.65
240.50	2236.38
240.72	2281.44
240.93	2140.13
241.15	2228.19
241.37	2172.89
241.59	2260.96
241.81	2129.89
242.02	2076.64
242.24	2207.71
242.46	2287.58
242.68	2064.35
242.89	2168.80
243.11	2260.96
243.33	2170.85
243.55	2166.75
243.76	2181.09
243.98	2123.74
244.20	2199.52
244.42	2105.31
244.64	2148.32
244.85	2080.74
245.07	2101.22
245.29	2111.46
245.51	2168.80
245.72	2160.61
245.94	2344.92
246.16	2213.85
246.38	2103.26
246.59	2156.51
246.81	2095.07
247.03	2140.13
247.24	2002.91
247.46	2160.61
247.68	2273.25
247.90	2090.98
248.11	2060.26
248.33	2267.10
248.55	2230.24
248.77	2160.61
248.98	2215.90
249.20	2310.11
249.42	2189.28
249.64	2185.18
249.85	2125.79
250.07	2117.60
250.29	2285.53
250.50	2303.96
250.72	2086.88
250.94	2236.38
251.16	2387.93
251.37	2023.39
251.59	2176.99
251.81	2246.62
252.02	2367.45
252.24	2043.87
252.46	2185.18
252.68	2064.35
252.89	2189.28
253.11	1998.82
253.33	2295.77
253.54	2406.36
253.76	2045.92
253.98	2047.97
254.20	2103.26
254.41	2074.59
254.63	2174.94
254.85	2021.35
255.06	2093.02
255.28	2215.90
255.50	2093.02
255.71	2179.04
255.93	2015.20
256.15	2199.52
256.36	2242.53
256.58	2078.69
256.80	2179.04
257.02	2201.57
257.23	2113.50
257.45	2029.54
257.67	2150.37
257.88	2095.07
258.10	2269.15
258.32	2187.23
258.53	2146.27
258.75	2322.40
258.97	2183.13
259.18	2140.13
259.40	2043.87
259.62	2400.22
259.83	2330.59
260.05	2211.81
260.27	2576.34
260.48	2248.67
260.70	2025.44
260.92	2037.73
261.13	2131.94
261.35	2158.56
261.57	2203.61
261.78	1982.43
262.00	2113.50
262.22	2267.10
262.43	2115.55
262.65	2138.08
262.86	2072.54
263.08	2383.84
263.30	2238.43
263.51	2013.15
263.73	1994.72
263.95	2328.54
264.16	2033.63
264.38	2064.35
264.60	2101.22
264.81	2205.66
265.03	2287.58
265.25	2256.86
265.46	2150.37
265.68	2301.92
265.89	2273.25
266.11	1996.77
266.33	2193.37
266.54	2330.59
266.76	2209.76
266.98	2260.96
267.19	2242.53
267.41	2279.39
267.62	2187.23
267.84	1955.81
268.06	2246.62
268.27	2228.19
268.49	2301.92
268.70	2189.28
268.92	2103.26
269.14	2082.78
269.35	2056.16
269.57	2121.70
269.79	2240.48
270.00	2113.50
270.22	2297.82
270.43	2097.12
270.65	1964.00
270.87	2170.85
271.08	2230.24
271.30	2248.67
271.51	2217.95
271.73	2220.00
271.95	2387.93
272.16	2183.13
272.38	2197.47
272.59	2154.46
272.81	2211.81
273.02	2117.60
273.24	2185.18
273.46	2273.25
273.67	2172.89
273.89	2111.46
274.10	2136.03
274.32	2222.05
274.54	2232.29
274.75	2158.56
274.97	2117.60
275.18	2308.06
275.40	2250.72
275.61	2162.66
275.83	2211.81
276.05	2043.87
276.26	2228.19
276.48	2195.42
276.69	2103.26
276.91	2121.70
277.12	2330.59
277.34	2299.87
277.55	2314.20
277.77	2203.61
277.99	2183.13
278.20	2103.26
278.42	2066.40
278.63	2113.50
278.85	2142.18
279.06	2097.12
279.28	2160.61
279.49	2306.01
279.71	2189.28
279.93	2273.25
280.14	2076.64
280.36	2097.12
280.57	2263.01
280.79	2295.77
281.00	2105.31
281.22	2113.50
281.43	2252.77
281.65	1955.81
281.86	2156.51
282.08	2291.68
282.29	2359.26
282.51	2064.35
282.73	2152.42
282.94	1968.10
283.16	2195.42
283.37	2334.68
283.59	2115.55
283.80	2136.03
284.02	2246.62
284.23	2181.09
284.45	2138.08
284.66	2160.61
284.88	2154.46
285.09	2138.08
285.31	2174.94
285.52	2250.72
285.74	2050.02
285.95	2236.38
286.17	2170.85
286.38	2240.48
286.60	2154.46
286.81	2136.03
287.03	2080.74
287.24	2238.43
287.46	2283.49
287.67	2293.72
287.89	2363.36
288.10	2148.32
288.32	2189.28
288.53	2256.86
288.75	2260.96
288.96	2228.19
289.18	2191.33
289.39	2138.08
289.61	2144.22
289.82	2342.88
290.04	2353.12
290.25	2097.12
290.47	2121.70
290.68	2179.04
290.90	2297.82
291.11	2056.16
291.33	2252.77
291.54	2150.37
291.76	2170.85
291.97	2230.24
292.18	2215.90
292.40	2099.17
292.61	2084.83
292.83	2340.83
293.04	2211.81
293.26	2152.42
293.47	2291.68
293.69	2144.22
293.90	2162.66
294.12	2351.07
294.33	2250.72
294.55	2138.08
294.76	2236.38
294.97	2283.49
295.19	2402.27
295.40	2136.03
295.62	2176.99
295.83	2256.86
296.05	2131.94
296.26	2240.48
296.48	2086.88
296.69	2183.13
296.90	2234.33
297.12	2213.85
297.33	2203.61
297.55	2160.61
297.76	2242.53
297.98	2209.76
298.19	2205.66
298.41	2170.85
298.62	2093.02
298.83	2322.40
299.05	2166.75
299.26	2148.32
299.48	2097.12
299.69	2148.32
299.90	2213.85
300.12	2144.22
300.33	2242.53
300.55	2201.57
300.76	2148.32
300.98	2099.17
301.19	2168.80
301.40	2131.94
301.62	2166.75
301.83	2234.33
302.05	2197.47
302.26	2164.70
302.47	2185.18
302.69	2099.17
302.90	2215.90
303.12	2088.93
303.33	2236.38
303.54	2389.98
303.76	2232.29
303.97	2166.75
304.19	2301.92
304.40	2082.78
304.61	2211.81
304.83	2379.74
305.04	2254.81
305.26	2328.54
305.47	2127.84
305.68	2129.89
305.90	2111.46
306.11	2260.96
306.33	2299.87
306.54	2162.66
306.75	2093.02
306.97	2121.70
307.18	2056.16
307.39	2144.22
307.61	2193.37
307.82	2113.50
308.04	2234.33
308.25	2062.30
308.46	2203.61
308.68	2174.94
308.89	2179.04
309.10	2342.88
309.32	2164.70
309.53	2113.50
309.74	2238.43
309.96	2086.88
310.17	2201.57
310.39	2195.42
310.60	2234.33
310.81	2193.37
311.03	2066.40
311.24	2283.49
311.45	2201.57
311.67	2299.87
311.88	2166.75
312.09	2146.27
312.31	2144.22
312.52	2158.56
312.73	2150.37
312.95	2086.88
313.16	2062.30
313.37	2211.81
313.59	2236.38
313.80	2258.91
314.01	2340.83
314.23	2152.42
314.44	2144.22
314.65	2054.11
314.87	2080.74
315.08	2125.79
315.29	2162.66
315.51	2117.60
315.72	2058.21
315.93	2275.29
316.15	2240.48
316.36	2127.84
316.57	2244.57
316.79	2211.81
317.00	2187.23
317.21	2297.82
317.43	2191.33
317.64	2207.71
317.85	2099.17
318.07	2125.79
318.28	2193.37
318.49	2392.03
318.70	2455.51
318.92	2316.25
319.13	2432.99
319.34	2457.56
319.56	2244.57
319.77	2330.59
319.98	2406.36
320.20	2373.60
320.41	2289.63
320.62	2263.01
320.83	2115.55
321.05	2361.31
321.26	2213.85
321.47	2191.33
321.69	2301.92
321.90	2025.44
322.11	2166.75
322.32	2150.37
322.54	2324.44
322.75	2072.54
322.96	2475.99
323.18	2109.41
323.39	2027.49
323.60	2164.70
323.81	2222.05
324.03	2146.27
324.24	2265.05
324.45	2199.52
324.66	2150.37
324.88	2334.68
325.09	2320.35
325.30	2193.37
325.52	2211.81
325.73	2240.48
325.94	2068.45
326.15	1961.95
326.37	2074.59
326.58	2215.90
326.79	2289.63
327.00	2111.46
327.22	2226.14
327.43	2101.22
327.64	2095.07
327.85	2203.61
328.07	2193.37
328.28	2383.84
328.49	2150.37
328.70	2164.70
328.92	2215.90
329.13	2121.70
329.34	2260.96
329.55	2258.91
329.76	2297.82
329.98	2115.55
330.19	2322.40
330.40	2250.72
330.61	2224.09
330.83	2320.35
331.04	2125.79
331.25	2152.42
331.46	2203.61
331.68	2088.93
331.89	2369.50
332.10	2197.47
332.31	2058.21
332.52	2174.94
332.74	2326.49
332.95	2064.35
333.16	2199.52
333.37	2244.57
333.58	2113.50
333.80	2158.56
334.01	2033.63
334.22	2185.18
334.43	2084.83
334.64	2170.85
334.86	2068.45
335.07	2121.70
335.28	2410.46
335.49	2084.83
335.70	2222.05
335.92	2359.26
336.13	2428.89
336.34	2306.01
336.55	2242.53
336.76	2291.68
336.98	2068.45
337.19	2199.52
337.40	2279.39
337.61	2414.56
337.82	2146.27
338.04	2228.19
338.25	2025.44
338.46	2140.13
338.67	2213.85
338.88	2080.74
339.09	2078.69
339.31	2072.54
339.52	2136.03
339.73	2113.50
339.94	2195.42
340.15	2260.96
340.36	2168.80
340.58	2199.52
340.79	2109.41
341.00	2236.38
341.21	2060.26
341.42	2291.68
341.63	2117.60
341.85	2387.93
342.06	2154.46
342.27	2166.75
342.48	2250.72
342.69	2082.78
342.90	2252.77
343.12	2273.25
343.33	2088.93
343.54	2324.44
343.75	2379.74
343.96	2158.56
344.17	2078.69
344.38	2142.18
344.60	2140.13
344.81	2084.83
345.02	2164.70
345.23	2217.95
345.44	2449.37
345.65	2277.34
345.86	2240.48
346.07	2152.42
346.29	2191.33
346.50	2203.61
346.71	2273.25
346.92	2406.36
347.13	2400.22
347.34	2136.03
347.55	2121.70
347.76	2256.86
347.98	2097.12
348.19	2203.61
348.40	2263.01
348.61	2160.61
348.82	2318.30
349.03	2187.23
349.24	2103.26
349.45	2322.40
349.66	2047.97
349.88	2201.57
350.09	2107.36
350.30	2281.44
350.51	2342.88
350.72	2154.46
350.93	2250.72
351.14	2199.52
351.35	2109.41
351.56	2156.51
351.77	2197.47
351.99	2265.05
352.20	2328.54
352.41	2322.40
352.62	1994.72
352.83	2207.71
353.04	2197.47
353.25	2162.66
353.46	2203.61
353.67	2324.44
353.88	2000.87
354.09	2115.55
354.30	2158.56
354.52	2217.95
354.73	2209.76
354.94	2160.61
355.15	2185.18
355.36	2375.64
355.57	2138.08
355.78	2226.14
355.99	2146.27
356.20	2203.61
356.41	2283.49
356.62	2211.81
356.83	2074.59
357.04	2236.38
357.25	2043.87
357.46	2185.18
357.68	2019.30
357.89	2142.18
358.10	2174.94
358.31	2166.75
358.52	2123.74
358.73	2095.07
358.94	2088.93
359.15	2107.36
359.36	2166.75
359.57	2211.81
359.78	2215.90
359.99	2162.66
360.20	2146.27
360.41	2078.69
360.62	2242.53
360.83	2205.66
361.04	2179.04
361.25	2207.71
361.46	2367.45
361.67	2199.52
361.88	2285.53
362.09	2242.53
362.30	2263.01
362.51	2093.02
362.72	2220.00
362.93	2267.10
363.14	2248.67
363.35	2226.14
363.56	2101.22
363.78	2293.72
363.99	2238.43
364.20	2138.08
364.41	2193.37
364.62	2389.98
364.83	2246.62
365.04	2166.75
365.25	2199.52
365.46	2383.84
365.67	2152.42
365.88	2207.71
366.09	2078.69
366.30	2193.37
366.51	2113.50
366.72	2093.02
366.93	2189.28
367.14	2181.09
367.35	2301.92
367.56	2097.12
367.77	2299.87
367.98	2105.31
368.18	2277.34
368.39	2174.94
368.60	2113.50
368.81	2238.43
369.02	2160.61
369.23	2093.02
369.44	2076.64
369.65	2174.94
369.86	2207.71
370.07	2252.77
370.28	2201.57
370.49	2234.33
370.70	2236.38
370.91	2125.79
371.12	2090.98
371.33	2238.43
371.54	2099.17
371.75	2285.53
371.96	1961.95
372.17	2281.44
372.38	2203.61
372.59	2263.01
372.80	2119.65
373.01	2146.27
373.22	2111.46
373.43	2207.71
373.64	2052.06
373.85	2334.68
374.06	2353.12
374.26	2281.44
374.47	2246.62
374.68	2367.45
374.89	2260.96
375.10	2170.85
375.31	2265.05
375.52	2187.23
375.73	2222.05
375.94	2138.08
376.15	2277.34
376.36	2183.13
376.57	2150.37
376.78	2117.60
376.99	2158.56
377.20	2351.07
377.40	2084.83
377.61	2306.01
377.82	2072.54
378.03	2318.30
378.24	2201.57
378.45	2250.72
378.66	2187.23
378.87	2027.49
379.08	2019.30
379.29	2170.85
379.50	2314.20
379.71	2144.22
379.91	2314.20
380.12	2176.99
380.33	2199.52
380.54	2179.04
380.75	2156.51
380.96	2209.76
381.17	2203.61
381.38	2213.85
381.59	2285.53
381.80	2170.85
382.00	2387.93
382.21	2236.38
382.42	2314.20
382.63	2416.60
382.84	2265.05
383.05	2301.92
383.26	2314.20
383.47	2220.00
383.68	2310.11
383.88	2181.09
384.09	2203.61
384.30	2303.96
384.51	2271.20
384.72	2181.09
384.93	2099.17
385.14	2230.24
385.35	2267.10
385.55	2086.88
385.76	2365.40
385.97	2099.17
386.18	2125.79
386.39	2113.50
386.60	2103.26
386.81	2099.17
387.02	2097.12
387.22	2121.70
387.43	2340.83
387.64	2279.39
387.85	2367.45
388.06	2383.84
388.27	4124.61
388.48	8638.33
388.68	12488.51
388.89	14718.75
389.10	15908.62
389.31	14591.78
389.52	11401.04
389.73	9844.59
389.93	8906.62
390.14	8271.75
390.35	7235.47
390.56	6762.39
390.77	5390.25
390.98	4085.70
391.18	3379.15
391.39	2699.22
391.60	2332.64
391.81	2328.54
392.02	2152.42
392.23	2334.68
392.43	2234.33
392.64	2326.49
392.85	2246.62
393.06	2338.78
393.27	2236.38
393.47	2144.22
393.68	2267.10
393.89	2133.98
394.10	2349.02
394.31	2185.18
394.52	2174.94
394.72	2117.60
394.93	2320.35
395.14	2150.37
395.35	2220.00
395.56	2170.85
395.76	2158.56
395.97	2181.09
396.18	2320.35
396.39	2400.22
396.60	2703.32
396.80	2396.12
397.01	2383.84
397.22	2328.54
397.43	2392.03
397.64	2152.42
397.84	2291.68
398.05	2430.94
398.26	2285.53
398.47	2312.16
398.67	2263.01
398.88	2195.42
399.09	2269.15
399.30	2187.23
399.51	2201.57
399.71	2148.32
399.92	2207.71
400.13	2170.85
400.34	2117.60
400.54	2174.94
400.75	2322.40
400.96	2191.33
401.17	2318.30
401.37	2213.85
401.58	2140.13
401.79	2148.32
402.00	2342.88
402.21	2674.65
402.41	2553.82
402.62	2553.82
402.83	2674.65
403.04	2736.09
403.24	2789.33
403.45	2363.36
403.66	2514.91
403.87	2510.81
404.07	2457.56
404.28	2537.43
404.49	2480.09
404.70	2281.44
404.90	2361.31
405.11	2232.29
405.32	2224.09
405.52	2158.56
405.73	2191.33
405.94	2168.80
406.15	2238.43
406.35	2316.25
406.56	2220.00
406.77	2193.37
406.98	2205.66
407.18	2154.46
407.39	2320.35
407.60	2191.33
407.80	2281.44
408.01	2127.84
408.22	2244.57
408.43	2121.70
408.63	2203.61
408.84	2279.39
409.05	2230.24
409.25	2138.08
409.46	2088.93
409.67	2088.93
409.88	2146.27
410.08	2256.86
410.29	2154.46
410.50	2217.95
410.70	2230.24
410.91	2045.92
411.12	2248.67
411.32	2201.57
411.53	2138.08
411.74	2353.12
411.95	2301.92
412.15	2281.44
412.36	2299.87
412.57	2297.82
412.77	2426.84
412.98	2269.15
413.19	2217.95
413.39	2224.09
413.60	2215.90
413.81	2318.30
414.01	2088.93
414.22	2230.24
414.43	2293.72
414.63	2228.19
414.84	2260.96
415.05	2209.76
415.25	2086.88
415.46	2283.49
415.67	2152.42
415.87	2285.53
416.08	2129.89
416.29	2203.61
416.49	2267.10
416.70	2117.60
416.91	2187.23
417.11	2138.08
417.32	2193.37
417.53	2281.44
417.73	2207.71
417.94	2242.53
418.15	2197.47
418.35	2152.42
418.56	2195.42
418.77	2439.13
418.97	2164.70
419.18	2164.70
419.38	1966.05
419.59	2160.61
419.80	2281.44
420.00	2195.42
420.21	2303.96
420.42	2316.25
420.62	2191.33
420.83	2117.60
421.04	2154.46
421.24	2174.94
421.45	2281.44
421.65	2258.91
421.86	2142.18
422.07	2267.10
422.27	2203.61
422.48	2211.81
422.69	2127.84
422.89	2213.85
423.10	2232.29
423.30	2129.89
423.51	2232.29
423.72	2349.02
423.92	2269.15
424.13	2037.73
424.33	2179.04
424.54	2297.82
424.75	2217.95
424.95	2310.11
425.16	2254.81
425.36	2158.56
425.57	2361.31
425.78	2291.68
425.98	2199.52
426.19	2228.19
426.39	2086.88
426.60	2129.89
426.81	2340.83
427.01	2129.89
427.22	2179.04
427.42	2017.25
427.63	2162.66
427.83	2316.25
428.04	2389.98
428.25	2260.96
428.45	2246.62
428.66	2363.36
428.86	2160.61
429.07	2140.13
429.28	2193.37
429.48	2250.72
429.69	2121.70
429.89	2267.10
430.10	2142.18
430.30	2281.44
430.51	2291.68
430.71	2160.61
430.92	2131.94
431.13	2148.32
431.33	2256.86
431.54	2215.90
431.74	2414.56
431.95	2416.60
432.15	2140.13
432.36	2234.33
432.56	2172.89
432.77	2406.36
432.98	2344.92
433.18	2187.23
433.39	2158.56
433.59	2111.46
433.80	2357.21
434.00	2398.17
434.21	2162.66
434.41	2080.74
434.62	2420.70
434.82	2156.51
435.03	2183.13
435.23	2181.09
435.44	1998.82
435.64	2189.28
435.85	2250.72
436.06	2240.48
436.26	2340.83
436.47	2238.43
436.67	2138.08
436.88	2095.07
437.08	2428.89
437.29	2289.63
437.49	2269.15
437.70	2363.36
437.90	2232.29
438.11	2363.36
438.31	2267.10
438.52	2383.84
438.72	2373.60
438.93	2527.19
439.13	2267.10
439.34	2275.29
439.54	2242.53
439.75	2269.15
439.95	2385.88
440.16	2154.46
440.36	2340.83
440.57	2293.72
440.77	2277.34
440.98	2301.92
441.18	2326.49
441.39	2197.47
441.59	2056.16
441.80	2418.65
442.00	2226.14
442.21	2316.25
442.41	2066.40
442.62	2258.91
442.82	2193.37
443.02	2207.71
443.23	2215.90
443.43	2224.09
443.64	2312.16
443.84	2097.12
444.05	2269.15
444.25	2189.28
444.46	2195.42
444.66	2289.63
444.87	2346.97
445.07	2007.01
445.28	2131.94
445.48	2293.72
445.69	2285.53
445.89	2437.08
446.09	2191.33
446.30	2494.43
446.50	2766.81
446.71	4429.76
446.91	5595.05
447.12	6381.47
447.32	6789.02
447.53	6303.65
447.73	5193.65
447.93	4530.11
448.14	4278.21
448.34	3889.09
448.55	3637.19
448.75	3489.74
448.96	3418.06
449.16	3071.95
449.36	2908.12
449.57	2516.95
449.77	2306.01
449.98	2258.91
450.18	2234.33
450.39	2244.57
450.59	2224.09
450.79	2265.05
451.00	2183.13
451.20	2260.96
451.41	2228.19
451.61	2316.25
451.81	2236.38
452.02	2179.04
452.22	2207.71
452.43	2228.19
452.63	2097.12
452.84	2181.09
453.04	2097.12
453.24	2273.25
453.45	2090.98
453.65	2193.37
453.86	2295.77
454.06	2220.00
454.26	2269.15
454.47	2076.64
454.67	2330.59
454.87	2211.81
455.08	2158.56
455.28	2322.40
455.49	2269.15
455.69	2095.07
455.89	2392.03
456.10	2367.45
456.30	2115.55
456.51	2291.68
456.71	2152.42
456.91	2260.96
457.12	2236.38
457.32	2246.62
457.52	2185.18
457.73	2179.04
457.93	2289.63
458.14	2187.23
458.34	2029.54
458.54	2195.42
458.75	2181.09
458.95	2371.55
459.15	2258.91
459.36	2226.14
459.56	2240.48
459.76	2447.32
459.97	2263.01
460.17	2217.95
460.37	2289.63
460.58	2156.51
460.78	2254.81
460.99	2183.13
461.19	2215.90
461.39	2127.84
461.60	2168.80
461.80	2197.47
462.00	2136.03
462.21	2170.85
462.41	2113.50
462.61	2058.21
462.82	2095.07
463.02	2224.09
463.22	2197.47
463.43	2271.20
463.63	2226.14
463.83	2326.49
464.04	2287.58
464.24	2250.72
464.44	2150.37
464.64	2228.19
464.85	2254.81
465.05	2287.58
465.25	2230.24
465.46	2213.85
465.66	2269.15
465.86	2172.89
466.07	2187.23
466.27	2238.43
466.47	2111.46
466.68	2093.02
466.88	2392.03
467.08	2308.06
467.29	2320.35
467.49	2279.39
467.69	2234.33
467.89	2283.49
468.10	2217.95
468.30	2236.38
468.50	2293.72
468.71	2226.14
468.91	2066.40
469.11	2375.64
469.31	2195.42
469.52	2138.08
469.72	2465.75
469.92	2406.36
470.13	2224.09
470.33	2260.96
470.53	2312.16
470.73	2596.82
470.94	3030.99
471.14	3348.43
471.34	3641.29
471.54	3475.40
471.75	2996.18
471.95	2914.26
472.15	2777.05
472.36	2795.48
472.56	2699.22
472.76	2615.26
472.96	2621.40
473.17	2559.96
473.37	2424.80
473.57	2281.44
473.77	2330.59
473.98	2271.20
474.18	2187.23
474.38	2506.71
474.58	2140.13
474.79	2084.83
474.99	2217.95
475.19	2291.68
475.39	2088.93
475.60	2277.34
475.80	2164.70
476.00	2246.62
476.20	2146.27
476.41	2230.24
476.61	2334.68
476.81	2318.30
477.01	2164.70
477.21	2383.84
477.42	2252.77
477.62	2127.84
477.82	2271.20
478.02	2199.52
478.23	2240.48
478.43	2127.84
478.63	2162.66
478.83	2170.85
479.03	2162.66
479.24	2318.30
479.44	2387.93
479.64	2125.79
479.84	2025.44
480.04	2076.64
480.25	2271.20
480.45	2058.21
480.65	2189.28
480.85	2332.64
481.06	2119.65
481.26	2236.38
481.46	2199.52
481.66	2179.04
481.86	2121.70
482.06	2254.81
482.27	2183.13
482.47	2166.75
482.67	2238.43
482.87	2220.00
483.07	2330.59
483.28	2203.61
483.48	2086.88
483.68	2080.74
483.88	2119.65
484.08	2037.73
484.29	2101.22
484.49	2103.26
484.69	2097.12
484.89	2383.84
485.09	2256.86
485.29	2238.43
485.50	2226.14
485.70	2170.85
485.90	2377.69
486.10	2275.29
486.30	2269.15
486.50	2336.73
486.71	2217.95
486.91	2301.92
487.11	2287.58
487.31	2064.35
487.51	2310.11
487.71	2070.50
487.91	2125.79
488.12	2129.89
488.32	2011.11
488.52	2195.42
488.72	2009.06
488.92	2213.85
489.12	2334.68
489.32	2299.87
489.53	2183.13
489.73	2004.96
489.93	2318.30
490.13	2121.70
490.33	2123.74
490.53	2160.61
490.73	2265.05
490.94	2095.07
491.14	2207.71
491.34	2299.87
491.54	2533.34
491.74	3203.02
491.94	3758.02
492.14	3989.44
492.34	4136.90
492.54	3827.65
492.75	3184.59
492.95	3264.46
493.15	2979.79
493.35	2920.40
493.55	2871.25
493.75	2635.74
493.95	2719.70
494.15	2514.91
494.35	2408.41
494.56	2363.36
494.76	2142.18
494.96	2228.19
495.16	2361.31
495.36	2193.37
495.56	2199.52
495.76	2179.04
495.96	2105.31
496.16	2193.37
496.36	2422.75
496.56	2170.85
496.77	2205.66
496.97	2279.39
497.17	2328.54
497.37	2064.35
497.57	2220.00
497.77	2150.37
497.97	2148.32
498.17	2215.90
498.37	2136.03
498.57	2228.19
498.77	2174.94
498.97	2162.66
499.17	2375.64
499.38	2201.57
499.58	2330.59
499.78	2326.49
499.98	2263.01
500.18	2088.93
500.38	2183.13
500.58	2389.98
500.78	2887.64
500.98	5146.55
501.18	7247.76
501.38	9072.50
501.58	10110.82
501.78	9895.78
501.98	7772.04
502.18	6573.98
502.38	5574.57
502.58	5181.36
502.78	4593.59
502.98	4495.29
503.18	4255.68
503.38	3882.95
503.59	3436.49
503.79	3194.83
503.99	2977.75
504.19	2842.58
504.39	2832.34
504.59	2906.07
504.79	2908.12
504.99	2842.58
505.19	2613.21
505.39	2519.00
505.59	2514.91
505.79	2512.86
505.99	2447.32
506.19	2363.36
506.39	2396.12
506.59	2283.49
506.79	2246.62
506.99	2387.93
507.19	2250.72
507.39	2189.28
507.59	2113.50
507.79	2185.18
507.99	2209.76
508.19	2258.91
508.39	2203.61
508.59	2277.34
508.79	2269.15
508.99	2392.03
509.19	2152.42
509.39	2295.77
509.59	2142.18
509.79	2172.89
509.99	2293.72
510.19	2289.63
510.39	2342.88
510.59	2263.01
510.79	2236.38
510.99	2154.46
511.19	2162.66
511.39	2357.21
511.59	2310.11
511.79	2310.11
511.99	2191.33
512.19	2342.88
512.38	2244.57
512.58	2146.27
512.78	2201.57
512.98	2240.48
513.18	2379.74
513.38	2064.35
513.58	2230.24
513.78	2179.04
513.98	2103.26
514.18	2209.76
514.38	2236.38
514.58	2220.00
514.78	2156.51
514.98	2136.03
515.18	2220.00
515.38	2131.94
515.58	2408.41
515.78	2183.13
515.98	2150.37
516.18	2351.07
516.38	2260.96
516.57	2185.18
516.77	2162.66
516.97	2291.68
517.17	2224.09
517.37	2072.54
517.57	2318.30
517.77	2244.57
517.97	2185.18
518.17	2203.61
518.37	2123.74
518.57	2111.46
518.77	2179.04
518.97	2148.32
519.16	2211.81
519.36	2213.85
519.56	2185.18
519.76	2154.46
519.96	2172.89
520.16	2377.69
520.36	2183.13
520.56	2359.26
520.76	2170.85
520.96	2172.89
521.16	2271.20
521.35	2277.34
521.55	2303.96
521.75	2232.29
521.95	2076.64
522.15	2179.04
522.35	2039.78
522.55	2097.12
522.75	2275.29
522.95	2195.42
523.14	2115.55
523.34	2240.48
523.54	2185.18
523.74	2310.11
523.94	2191.33
524.14	2076.64
524.34	2275.29
524.54	2340.83
524.73	2199.52
524.93	2217.95
525.13	2238.43
525.33	2105.31
525.53	2447.32
525.73	2283.49
525.93	2197.47
526.13	2207.71
526.32	2277.34
526.52	2168.80
526.72	2293.72
526.92	2176.99
527.12	2166.75
527.32	2111.46
527.52	2154.46
527.71	2281.44
527.91	2129.89
528.11	2162.66
528.31	2234.33
528.51	2121.70
528.71	2209.76
528.90	2283.49
529.10	2281.44
529.30	2363.36
529.50	1951.71
529.70	2220.00
529.90	2179.04
530.09	2224.09
530.29	2170.85
530.49	2138.08
530.69	2469.85
530.89	2185.18
531.09	2238.43
531.28	2138.08
531.48	2375.64
531.68	2248.67
531.88	2220.00
532.08	2267.10
532.28	2258.91
532.47	2291.68
532.67	2367.45
532.87	2287.58
533.07	2136.03
533.27	2236.38
533.46	2295.77
533.66	2211.81
533.86	2226.14
534.06	2195.42
534.26	2166.75
534.45	2238.43
534.65	2271.20
534.85	2228.19
535.05	2117.60
535.25	2301.92
535.44	2127.84
535.64	2267.10
535.84	2197.47
536.04	2244.57
536.24	2115.55
536.43	2154.46
536.63	2191.33
536.83	2138.08
537.03	2234.33
537.22	2052.06
537.42	2029.54
537.62	2195.42
537.82	2131.94
538.02	2281.44
538.21	2314.20
538.41	2516.95
538.61	2269.15
538.81	2148.32
539.00	2422.75
539.20	2113.50
539.40	2179.04
539.60	2256.86
539.79	2265.05
539.99	2250.72
540.19	2238.43
540.39	2287.58
540.58	2146.27
540.78	2260.96
540.98	2209.76
541.18	2342.88
541.37	2158.56
541.57	2230.24
541.77	2191.33
541.97	2152.42
542.16	2072.54
542.36	2183.13
542.56	2179.04
542.76	2332.64
542.95	2236.38
543.15	2289.63
543.35	2228.19
543.54	2183.13
543.74	2201.57
543.94	2394.08
544.14	2316.25
544.33	2220.00
544.53	2152.42
544.73	2144.22
544.93	2158.56
545.12	2215.90
545.32	2232.29
545.52	2209.76
545.71	2045.92
545.91	2176.99
546.11	2228.19
546.30	2080.74
546.50	2170.85
546.70	2187.23
546.90	2179.04
547.09	1988.58
547.29	2166.75
547.49	2228.19
547.68	2144.22
547.88	2220.00
548.08	2228.19
548.27	2721.75
548.47	2133.98
548.67	2125.79
548.87	2283.49
549.06	2191.33
549.26	2211.81
549.46	2271.20
549.65	2093.02
549.85	2179.04
550.05	2232.29
550.24	2105.31
550.44	2252.77
550.64	2179.04
550.83	2293.72
551.03	2318.30
551.23	2277.34
551.42	2193.37
551.62	2093.02
551.82	2191.33
552.01	2129.89
552.21	2334.68
552.41	2228.19
552.60	2308.06
552.80	2156.51
553.00	2138.08
553.19	2152.42
553.39	2357.21
553.59	2062.30
553.78	2226.14
553.98	2197.47
554.17	2195.42
554.37	2283.49
554.57	2244.57
554.76	2072.54
554.96	2138.08
555.16	2195.42
555.35	2191.33
555.55	2191.33
555.75	2226.14
555.94	2312.16
556.14	2097.12
556.33	2211.81
556.53	2265.05
556.73	2244.57
556.92	2252.77
557.12	2289.63
557.32	2324.44
557.51	2349.02
557.71	2312.16
557.90	2314.20
558.10	2400.22
558.30	2146.27
558.49	2183.13
558.69	2258.91
558.88	2265.05
559.08	2301.92
559.28	2117.60
559.47	2199.52
559.67	2271.20
559.86	2406.36
560.06	2107.36
560.26	2123.74
560.45	2283.49
560.65	2252.77
560.84	2303.96
561.04	2209.76
561.24	2322.40
561.43	2066.40
561.63	2316.25
561.82	2293.72
562.02	2273.25
562.22	2125.79
562.41	2125.79
562.61	2164.70
562.80	2121.70
563.00	2398.17
563.19	2183.13
563.39	2256.86
563.59	2252.77
563.78	2097.12
563.98	2011.11
564.17	2162.66
564.37	2099.17
564.56	2168.80
564.76	2129.89
564.96	2242.53
565.15	2293.72
565.35	2416.60
565.54	2232.29
565.74	2267.10
565.93	2340.83
566.13	2209.76
566.32	2236.38
566.52	2209.76
566.71	2201.57
566.91	2273.25
567.11	2183.13
567.30	2181.09
567.50	2258.91
567.69	2176.99
567.89	2174.94
568.08	2150.37
568.28	2246.62
568.47	2119.65
568.67	2293.72
568.86	2144.22
569.06	2297.82
569.25	2174.94
569.45	2095.07
569.64	2176.99
569.84	2195.42
570.04	2211.81
570.23	2154.46
570.43	2074.59
570.62	2179.04
570.82	2365.40
571.01	2160.61
571.21	2105.31
571.40	2209.76
571.60	2220.00
571.79	2328.54
571.99	2217.95
572.18	2148.32
572.38	2269.15
572.57	2209.76
572.77	2226.14
572.96	2500.57
573.16	2140.13
573.35	2258.91
573.55	2342.88
573.74	2269.15
573.94	2211.81
574.13	2215.90
574.33	2324.44
574.52	2379.74
574.71	2250.72
574.91	2244.57
575.10	2068.45
575.30	2207.71
575.49	2185.18
575.69	2121.70
575.88	2351.07
576.08	2224.09
576.27	2414.56
576.47	2334.68
576.66	2367.45
576.86	2346.97
577.05	2314.20
577.25	2252.77
577.44	2512.86
577.64	2256.86
577.83	2336.73
578.02	2332.64
578.22	2340.83
578.41	2410.46
578.61	2123.74
578.80	2152.42
579.00	2224.09
579.19	2267.10
579.39	2308.06
579.58	2244.57
579.77	2252.77
579.97	2389.98
580.16	2361.31
580.36	2363.36
580.55	2359.26
580.75	2342.88
580.94	2263.01
581.13	2402.27
581.33	2365.40
581.52	2295.77
581.72	2469.85
581.91	2363.36
582.11	2199.52
582.30	2295.77
582.49	2220.00
582.69	2316.25
582.88	2299.87
583.08	2238.43
583.27	2306.01
583.47	2211.81
583.66	2189.28
583.85	2179.04
584.05	2342.88
584.24	2308.06
584.44	2299.87
584.63	2367.45
584.82	2437.08
585.02	2484.19
585.21	2418.65
585.41	2428.89
585.60	2359.26
585.79	2478.04
585.99	2494.43
586.18	2385.88
586.37	2824.15
586.57	4454.33
586.76	13139.77
586.96	32685.58
587.15	46579.00
587.34	55678.13
587.54	60818.53
587.73	56329.38
587.93	39679.39
588.12	30039.61
588.31	23989.91
588.51	20942.53
588.70	19205.85
588.89	17397.49
589.09	15288.09
589.28	12986.17
589.47	10626.91
589.67	8447.87
589.86	6494.11
590.06	4710.33
590.25	3805.13
590.44	3223.50
590.64	2879.44
590.83	2555.86
591.02	2533.34
591.22	2295.77
591.41	2318.30
591.60	2334.68
591.80	2527.19
591.99	2179.04
592.18	2138.08
592.38	2279.39
592.57	2248.67
592.76	2205.66
592.96	2258.91
593.15	2203.61
593.34	2314.20
593.54	2236.38
593.73	2197.47
593.92	2387.93
594.12	2295.77
594.31	2308.06
594.50	2361.31
594.70	2330.59
594.89	2490.33
595.08	2168.80
595.28	2308.06
595.47	2531.29
595.66	2312.16
595.86	2183.13
596.05	2189.28
596.24	2238.43
596.43	2392.03
596.63	2379.74
596.82	2248.67
597.01	2265.05
597.21	2387.93
597.40	2260.96
597.59	2232.29
597.79	2191.33
597.98	2285.53
598.17	2283.49
598.36	2250.72
598.56	2316.25
598.75	2230.24
598.94	2277.34
599.14	2303.96
599.33	2205.66
599.52	2279.39
599.71	2252.77
599.91	2265.05
600.10	2326.49
600.29	2281.44
600.48	2320.35
600.68	2263.01
600.87	2215.90
601.06	2168.80
601.26	2234.33
601.45	2263.01
601.64	2220.00
601.83	2367.45
602.03	2226.14
602.22	2088.93
602.41	2330.59
602.60	2447.32
602.80	2332.64
602.99	2265.05
603.18	2138.08
603.37	2220.00
603.57	2211.81
603.76	2320.35
603.95	2383.84
604.14	2160.61
604.34	2093.02
604.53	2211.81
604.72	2183.13
604.91	2297.82
605.10	2303.96
605.30	2107.36
605.49	2492.38
605.68	2301.92
605.87	2263.01
606.07	2113.50
606.26	2228.19
606.45	2260.96
606.64	2242.53
606.84	2166.75
607.03	2203.61
607.22	2367.45
607.41	2242.53
607.60	2181.09
607.80	2277.34
607.99	2260.96
608.18	2232.29
608.37	2109.41
608.56	2170.85
608.76	2373.60
608.95	2324.44
609.14	2258.91
609.33	2437.08
609.52	2471.90
609.72	2336.73
609.91	2426.84
610.10	2314.20
610.29	2387.93
610.48	2299.87
610.68	2263.01
610.87	2199.52
611.06	2271.20
611.25	2279.39
611.44	2406.36
611.63	2246.62
611.83	2353.12
612.02	2095.07
612.21	2334.68
612.40	2033.63
612.59	2138.08
612.79	2129.89
612.98	2230.24
613.17	2363.36
613.36	2267.10
613.55	2461.66
613.74	2373.60
613.93	2373.60
614.13	2471.90
614.32	2471.90
614.51	2443.23
614.70	2349.02
614.89	2260.96
615.08	2346.97
615.28	2740.18
615.47	2222.05
615.66	2387.93
615.85	2322.40
616.04	2412.51
616.23	2324.44
616.42	2346.97
616.62	2322.40
616.81	2248.67
617.00	2211.81
617.19	2355.16
617.38	2203.61
617.57	2248.67
617.76	2367.45
617.95	2318.30
618.15	2252.77
618.34	2357.21
618.53	2103.26
618.72	2428.89
618.91	2422.75
619.10	2330.59
619.29	2246.62
619.48	2207.71
619.68	2105.31
619.87	2183.13
620.06	2068.45
620.25	2174.94
620.44	2168.80
620.63	2205.66
620.82	2220.00
621.01	2240.48
621.20	2138.08
621.39	2222.05
621.59	2271.20
621.78	2164.70
621.97	2265.05
622.16	2222.05
622.35	2232.29
622.54	2248.67
622.73	2367.45
622.92	2099.17
623.11	2301.92
623.30	2138.08
623.49	2279.39
623.68	2168.80
623.88	2346.97
624.07	2179.04
624.26	2170.85
624.45	2224.09
624.64	2199.52
624.83	2220.00
625.02	2207.71
625.21	2154.46
625.40	2265.05
625.59	2340.83
625.78	2203.61
625.97	2250.72
626.16	2297.82
626.35	2404.32
626.54	2367.45
626.74	2424.80
626.93	2326.49
627.12	2222.05
627.31	2353.12
627.50	2263.01
627.69	2277.34
627.88	2217.95
628.07	2158.56
628.26	2072.54
628.45	2115.55
628.64	2107.36
628.83	2220.00
629.02	2115.55
629.21	2258.91
629.40	2232.29
629.59	2162.66
629.78	2211.81
629.97	2242.53
630.16	2236.38
630.35	2226.14
630.54	2238.43
630.73	2172.89
630.92	2279.39
631.11	2142.18
631.30	2226.14
631.49	2314.20
631.68	2201.57
631.87	2308.06
632.06	2133.98
632.25	2549.72
632.44	2254.81
632.63	2310.11
632.82	2273.25
633.01	2281.44
633.20	2254.81
633.39	2250.72
633.58	2242.53
633.77	2295.77
633.96	2299.87
634.15	2269.15
634.34	2314.20
634.53	2244.57
634.72	2263.01
634.91	2150.37
635.10	2269.15
635.29	2236.38
635.48	2242.53
635.67	2113.50
635.86	2072.54
636.05	2310.11
636.24	2267.10
636.43	2252.77
636.62	2246.62
636.81	1974.24
637.00	2197.47
637.19	2258.91
637.38	2242.53
637.57	2197.47
637.76	2320.35
637.95	2281.44
638.14	2295.77
638.33	2385.88
638.52	2346.97
638.71	2152.42
638.89	2174.94
639.08	2519.00
639.27	2437.08
639.46	2469.85
639.65	2879.44
639.84	2924.50
640.03	3045.33
640.22	2971.60
640.41	3055.57
640.60	2555.86
640.79	2555.86
640.98	2439.13
641.17	2469.85
641.36	2359.26
641.55	2408.41
641.74	2295.77
641.92	2203.61
642.11	2201.57
642.30	2349.02
642.49	2174.94
642.68	2185.18
642.87	2220.00
643.06	2258.91
643.25	2095.07
643.44	2146.27
643.63	2207.71
643.82	2308.06
644.00	2072.54
644.19	2244.57
644.38	2168.80
644.57	2344.92
644.76	2263.01
644.95	2217.95
645.14	2179.04
645.33	2226.14
645.52	2213.85
645.71	2097.12
645.89	2064.35
646.08	2252.77
646.27	2146.27
646.46	2531.29
646.65	2160.61
646.84	2220.00
647.03	2070.50
647.22	2371.55
647.40	2240.48
647.59	2179.04
647.78	2029.54
647.97	2138.08
648.16	2080.74
648.35	2291.68
648.54	2346.97
648.73	2146.27
648.91	2355.16
649.10	2213.85
649.29	2166.75
649.48	2211.81
649.67	2228.19
649.86	2193.37
650.05	2275.29
650.23	2412.51
650.42	2267.10
650.61	2461.66
650.80	2416.60
650.99	2596.82
651.18	2383.84
651.36	2392.03
651.55	2211.81
651.74	2351.07
651.93	2179.04
652.12	2252.77
652.31	2205.66
652.49	2166.75
652.68	2138.08
652.87	2400.22
653.06	2269.15
653.25	2359.26
653.44	2217.95
653.62	2369.50
653.81	2277.34
654.00	2179.04
654.19	2275.29
654.38	2437.08
654.56	2234.33
654.75	2152.42
654.94	2330.59
655.13	2203.61
655.32	2220.00
655.51	2207.71
655.69	2088.93
655.88	2252.77
656.07	2039.78
656.26	2234.33
656.45	2037.73
656.63	2164.70
656.82	2195.42
657.01	2236.38
657.20	2158.56
657.38	2236.38
657.57	2195.42
657.76	2047.97
657.95	2316.25
658.14	2170.85
658.32	2226.14
658.51	2115.55
658.70	2265.05
658.89	2265.05
659.08	2197.47
659.26	2408.41
659.45	2154.46
659.64	2332.64
659.83	2164.70
660.01	2562.01
660.20	2258.91
660.39	2387.93
660.58	2035.68
660.76	2332.64
660.95	2111.46
661.14	2224.09
661.33	2133.98
661.51	2170.85
661.70	2082.78
661.89	2281.44
662.08	2195.42
662.26	2111.46
662.45	2179.04
662.64	2371.55
662.83	2211.81
663.01	2070.50
663.20	2215.90
663.39	2215.90
663.58	2127.84
663.76	2189.28
663.95	2289.63
664.14	2129.89
664.32	2162.66
664.51	2152.42
664.70	2031.58
664.89	2326.49
665.07	2076.64
665.26	2363.36
665.45	2131.94
665.64	2242.53
665.82	2215.90
666.01	2267.10
666.20	2103.26
666.38	2287.58
666.57	2424.80
666.76	3342.28
666.95	8011.65
667.13	16494.34
667.32	21958.32
667.51	26375.79
667.69	27737.69
667.88	25847.41
668.07	18171.63
668.25	14636.83
668.44	11964.23
668.63	10518.37
668.81	9072.50
669.00	7931.78
669.19	7174.03
669.38	6256.54
669.56	5367.73
669.75	4417.47
669.94	3782.60
670.12	3260.37
670.31	2846.68
670.50	2592.73
670.68	2510.81
670.87	2342.88
671.06	2322.40
671.24	2228.19
671.43	2389.98
671.62	2338.78
671.80	2205.66
671.99	2195.42
672.18	2285.53
672.36	2318.30
672.55	2220.00
672.74	2220.00
672.92	2244.57
673.11	2281.44
673.29	2117.60
673.48	2324.44
673.67	2176.99
673.85	2301.92
674.04	2121.70
674.23	2152.42
674.41	2361.31
674.60	2086.88
674.79	2021.35
674.97	2103.26
675.16	2271.20
675.34	2230.24
675.53	2138.08
675.72	2248.67
675.90	2383.84
676.09	2160.61
676.28	2193.37
676.46	2078.69
676.65	2277.34
676.83	2088.93
677.02	2220.00
677.21	2273.25
677.39	2187.23
677.58	2193.37
677.77	2179.04
677.95	2203.61
678.14	2203.61
678.32	2183.13
678.51	2086.88
678.70	2361.31
678.88	2162.66
679.07	2129.89
679.25	2168.80
679.44	2207.71
679.63	2146.27
679.81	2244.57
680.00	2322.40
680.18	2234.33
680.37	2338.78
680.55	2203.61
680.74	2072.54
680.93	2027.49
681.11	2179.04
681.30	2179.04
681.48	2240.48
681.67	2142.18
681.85	2215.90
682.04	2090.98
682.23	2301.92
682.41	2189.28
682.60	2215.90
682.78	2123.74
682.97	2179.04
683.15	2226.14
683.34	2265.05
683.53	2367.45
683.71	2019.30
683.90	2322.40
684.08	2392.03
684.27	2244.57
684.45	2195.42
684.64	2244.57
684.82	2156.51
685.01	2275.29
685.19	2185.18
685.38	2334.68
685.57	2109.41
685.75	2168.80
685.94	2179.04
686.12	2115.55
686.31	2250.72
686.49	2361.31
686.68	2031.58
686.86	2267.10
687.05	2109.41
687.23	2394.08
687.42	2158.56
687.60	2015.20
687.79	2293.72
687.97	2308.06
688.16	2263.01
688.34	2252.77
688.53	2101.22
688.71	2244.57
688.90	2279.39
689.08	2201.57
689.27	2109.41
689.45	2201.57
689.64	2174.94
689.82	2291.68
690.01	2209.76
690.19	2269.15
690.38	2207.71
690.56	2357.21
690.75	2146.27
690.93	2164.70
691.12	2060.26
691.30	2197.47
691.49	2211.81
691.67	2215.90
691.86	2379.74
692.04	2111.46
692.23	2162.66
692.41	2293.72
692.60	2498.52
692.78	2367.45
692.97	2254.81
693.15	2285.53
693.34	2449.37
693.52	2355.16
693.71	2230.24
693.89	2123.74
694.08	2093.02
694.26	2244.57
694.44	2326.49
694.63	2242.53
694.81	2099.17
695.00	2162.66
695.18	2273.25
695.37	2484.19
695.55	2258.91
695.74	2162.66
695.92	2121.70
696.10	2326.49
696.29	2113.50
696.47	2099.17
696.66	2136.03
696.84	2074.59
697.03	2203.61
697.21	2400.22
697.40	3141.58
697.58	2252.77
697.76	2176.99
697.95	2056.16
698.13	2105.31
698.32	2158.56
698.50	2187.23
698.68	2256.86
698.87	2242.53
699.05	2299.87
699.24	2197.47
699.42	2125.79
699.61	2228.19
699.79	2234.33
699.97	2228.19
700.16	2082.78
700.34	2095.07
700.53	2242.53
700.71	2377.69
700.89	2191.33
701.08	2144.22
701.26	2185.18
701.45	2686.94
701.63	2164.70
701.81	2152.42
702.00	2185.18
702.18	2209.76
702.37	2252.77
702.55	2463.71
702.73	2371.55
702.92	2351.07
703.10	2605.02
703.28	2535.39
703.47	2252.77
703.65	2473.95
703.84	2430.94
704.02	2297.82
704.20	2465.75
704.39	2160.61
704.57	2205.66
704.75	2334.68
704.94	2308.06
705.12	2346.97
705.30	2543.58
705.49	4480.96
705.67	11128.66
705.86	19926.74
706.04	24561.29
706.22	27975.25
706.41	29251.14
706.59	25118.34
706.77	17737.46
706.96	14862.11
707.14	12685.12
707.32	11005.78
707.51	9742.19
707.69	7978.89
707.87	6606.75
708.06	5158.83
708.24	4227.01
708.42	3286.99
708.61	2971.60
708.79	2555.86
708.97	2400.22
709.16	2383.84
709.34	2293.72
709.52	2244.57
709.71	2252.77
709.89	2381.79
710.07	2099.17
710.26	2144.22
710.44	2154.46
710.62	2349.02
710.80	2250.72
710.99	2220.00
711.17	2314.20
711.35	2133.98
711.54	2252.77
711.72	2357.21
711.90	2295.77
712.09	2238.43
712.27	2158.56
712.45	2209.76
712.63	2152.42
712.82	2193.37
713.00	2228.19
713.18	2265.05
713.37	2228.19
713.55	2242.53
713.73	2185.18
713.91	2201.57
714.10	2133.98
714.28	2215.90
714.46	2267.10
714.65	2205.66
714.83	2291.68
715.01	2195.42
715.19	2170.85
715.38	2070.50
715.56	2273.25
715.74	2207.71
715.92	2140.13
716.11	2326.49
716.29	2023.39
716.47	2170.85
716.65	2195.42
716.84	2052.06
717.02	2263.01
717.20	2099.17
717.38	2162.66
717.57	2250.72
717.75	2213.85
717.93	2162.66
718.11	2215.90
718.30	2088.93
718.48	2244.57
718.66	2320.35
718.84	2308.06
719.03	2197.47
719.21	2027.49
719.39	2400.22
719.57	2312.16
719.75	2217.95
719.94	2133.98
720.12	2090.98
720.30	2244.57
720.48	2326.49
720.67	2172.89
720.85	2111.46
721.03	2176.99
721.21	2162.66
721.39	2322.40
721.58	2209.76
721.76	2248.67
721.94	2240.48
722.12	2242.53
722.30	2338.78
722.49	2136.03
722.67	2195.42
722.85	2199.52
723.03	2013.15
723.21	2166.75
723.40	2129.89
723.58	2277.34
723.76	2283.49
723.94	2308.06
724.12	2256.86
724.30	2359.26
724.49	2379.74
724.67	2185.18
724.85	2377.69
725.03	2078.69
725.21	2248.67
725.40	2340.83
725.58	2146.27
725.76	2373.60
725.94	2306.01
726.12	2101.22
726.30	2203.61
726.49	2146.27
726.67	2103.26
726.85	2226.14
727.03	2488.28
727.21	3735.50
727.39	5496.75
727.57	6545.31
727.76	7251.86
727.94	7622.54
728.12	7389.07
728.30	5916.58
728.48	4984.76
728.66	4437.95
728.84	4124.61
729.03	3407.82
729.21	3121.10
729.39	2734.04
729.57	2490.33
729.75	2351.07
729.93	2314.20
730.11	2295.77
730.30	2222.05
730.48	2209.76
730.66	2404.32
730.84	2263.01
731.02	2301.92
731.20	2189.28
731.38	2174.94
731.56	2123.74
731.74	2174.94
731.93	2277.34
732.11	2185.18
732.29	2166.75
732.47	2199.52
732.65	2238.43
732.83	2412.51
733.01	2258.91
733.19	2195.42
733.37	2217.95
733.56	2176.99
733.74	2154.46
733.92	2332.64
734.10	2152.42
734.28	2244.57
734.46	1992.67
734.64	2138.08
734.82	2164.70
735.00	2093.02
735.18	2072.54
735.36	2152.42
735.54	2154.46
735.73	2205.66
735.91	2176.99
736.09	2258.91
736.27	2176.99
736.45	2258.91
736.63	2115.55
736.81	2224.09
736.99	2275.29
737.17	2275.29
737.35	2154.46
737.53	2244.57
737.71	2176.99
737.89	2338.78
738.07	2064.35
738.25	2107.36
738.43	2095.07
738.61	2123.74
738.80	2045.92
738.98	2080.74
739.16	2146.27
739.34	2152.42
739.52	2349.02
739.70	2203.61
739.88	2250.72
740.06	2336.73
740.24	2017.25
740.42	2367.45
740.60	2099.17
740.78	2113.50
740.96	2056.16
741.14	2187.23
741.32	2170.85
741.50	2011.11
741.68	2322.40
741.86	2340.83
742.04	2129.89
742.22	2082.78
742.40	2193.37
742.58	2185.18
742.76	2041.82
742.94	2230.24
743.12	2072.54
743.30	2230.24
743.48	2285.53
743.66	2052.06
743.84	2246.62
744.02	2207.71
744.20	2097.12
744.38	2062.30
744.56	2205.66
744.74	2344.92
744.92	2277.34
745.10	2430.94
745.28	2213.85
745.46	2324.44
745.64	2162.66
745.82	2312.16
746.00	2195.42
746.18	2318.30
746.36	2097.12
746.54	2232.29
746.72	2209.76
746.90	2099.17
747.08	2330.59
747.26	2160.61
747.44	2201.57
747.62	2279.39
747.80	2236.38
747.98	2267.10
748.15	2199.52
748.33	2418.65
748.51	2152.42
748.69	2342.88
748.87	2158.56
749.05	2209.76
749.23	2205.66
749.41	2260.96
749.59	2220.00
749.77	2226.14
749.95	2078.69
750.13	2148.32
750.31	2234.33
750.49	2242.53
750.67	2248.67
750.85	2232.29
751.03	2183.13
751.20	2383.84
751.38	2129.89
751.56	2191.33
751.74	2172.89
751.92	2164.70
752.10	2072.54
752.28	2277.34
752.46	2148.32
752.64	2209.76
752.82	2248.67
753.00	2250.72
753.18	2193.37
753.35	2166.75
753.53	2179.04
753.71	2160.61
753.89	2295.77
754.07	2207.71
754.25	2293.72
754.43	2226.14
754.61	2084.83
754.79	2222.05
754.97	2172.89
755.14	2357.21
755.32	2056.16
755.50	2230.24
755.68	2228.19
755.86	2150.37
756.04	2197.47
756.22	2013.15
756.40	2254.81
756.57	2389.98
756.75	2215.90
756.93	2277.34
757.11	2338.78
757.29	2127.84
757.47	2035.68
757.65	2054.11
757.82	2072.54
758.00	2166.75
758.18	2144.22
758.36	2129.89
758.54	2377.69
758.72	2029.54
758.90	2265.05
759.07	2220.00
759.25	2113.50
759.43	2252.77
759.61	2066.40
759.79	3018.71
759.97	2236.38
760.15	2240.48
760.32	2095.07
760.50	2228.19
760.68	2426.84
760.86	2078.69
761.04	2275.29
761.22	2267.10
761.39	2123.74
761.57	2232.29
761.75	2207.71
761.93	2248.67
762.11	2271.20
762.28	2181.09
762.46	2109.41
762.64	2228.19
762.82	2103.26
763.00	2156.51
763.18	2318.30
763.35	2088.93
763.53	2240.48
763.71	2187.23
763.89	2242.53
764.07	2217.95
764.24	2179.04
764.42	2238.43
764.60	2166.75
764.78	2131.94
764.96	2297.82
765.13	2260.96
765.31	2117.60
765.49	2306.01
765.67	2115.55
765.84	2103.26
766.02	2072.54
766.20	2074.59
766.38	2267.10
766.56	2306.01
766.73	2248.67
766.91	2150.37
767.09	2199.52
767.27	2127.84
767.44	2109.41
767.62	2252.77
767.80	2273.25
767.98	2111.46
768.15	2179.04
768.33	2220.00
768.51	2320.35
768.69	2230.24
768.87	2236.38
769.04	2193.37
769.22	2471.90
769.40	2310.11
769.58	2406.36
769.75	2277.34
769.93	2236.38
770.11	2150.37
770.28	2060.26
770.46	2324.44
770.64	2199.52
770.82	2154.46
770.99	2187.23
771.17	2228.19
771.35	2107.36
771.53	2131.94
771.70	2174.94
771.88	2273.25
772.06	2179.04
772.23	2213.85
772.41	2136.03
772.59	2142.18
772.77	2064.35
772.94	2228.19
773.12	2129.89
773.30	2197.47
773.47	2293.72
773.65	2138.08
773.83	2334.68
774.01	2185.18
774.18	2041.82
774.36	2265.05
774.54	2131.94
774.71	2215.90
774.89	1974.24
775.07	2144.22
775.24	2127.84
775.42	2226.14
775.60	2363.36
775.78	2101.22
775.95	2129.89
776.13	2093.02
776.31	2043.87
776.48	2222.05
776.66	2236.38
776.84	2146.27
777.01	2109.41
777.19	2154.46
777.37	2101.22
777.54	2215.90
777.72	2371.55
777.90	2217.95
778.07	2136.03
778.25	2498.52
778.43	2299.87
778.60	2072.54
778.78	2248.67
778.96	2258.91
779.13	2121.70
779.31	2220.00
779.49	2168.80
779.66	2176.99
779.84	2211.81
780.01	2187.23
780.19	2117.60
780.37	2283.49
780.54	2234.33
780.72	2189.28
780.90	2201.57
781.07	2187.23
781.25	2133.98
781.43	2183.13
781.60	2117.60
781.78	2275.29
781.95	2260.96
782.13	2023.39
782.31	2170.85
782.48	2127.84
782.66	2193.37
782.83	2293.72
783.01	2236.38
783.19	2242.53
783.36	2183.13
783.54	2117.60
783.72	2246.62
783.89	2082.78
784.07	2260.96
784.24	2275.29
784.42	2322.40
784.60	2203.61
784.77	2162.66
784.95	2086.88
785.12	2152.42
785.30	2133.98
785.47	2115.55
785.65	2111.46
785.83	2138.08
786.00	2127.84
786.18	2203.61
786.35	2052.06
786.53	2107.36
786.71	2357.21
786.88	2267.10
787.06	2215.90
787.23	2174.94
787.41	2090.98
787.58	2197.47
787.76	2152.42
787.94	2213.85
788.11	2209.76
788.29	2131.94
788.46	2129.89
788.64	2133.98
788.81	2176.99
788.99	2160.61
789.16	2097.12
789.34	2199.52
789.52	2138.08
789.69	2152.42
789.87	2062.30
790.04	2090.98
790.22	2195.42
790.39	2363.36
790.57	2093.02
790.74	2154.46
790.92	2269.15
791.09	2023.39
791.27	2170.85
791.44	2195.42
791.62	2189.28
791.79	2258.91
791.97	2179.04
792.15	2400.22
792.32	2230.24
792.50	2263.01
792.67	2342.88
792.85	2361.31
793.02	2226.14
793.20	2146.27
793.37	2107.36
793.55	2183.13
793.72	2095.07
793.90	2207.71
794.07	2101.22
794.25	2107.36
794.42	2207.71
794.60	2138.08
794.77	2215.90
794.95	2260.96
795.12	2248.67
795.30	2191.33
795.47	2013.15
795.65	2475.99
795.82	2211.81
796.00	2142.18
796.17	2183.13
796.34	2095.07
796.52	2269.15
796.69	2238.43
796.87	2256.86
797.04	2220.00
797.22	2217.95
797.39	2113.50
797.57	2285.53
797.74	2176.99
797.92	2174.94
798.09	2162.66
798.27	2297.82
798.44	2164.70
798.62	2183.13
798.79	2154.46
798.96	2291.68
799.14	2217.95
799.31	2389.98
799.49	2179.04
799.66	2142.18
799.84	2211.81
800.01	2050.02
800.19	2199.52
800.36	2138.08
800.53	2224.09
800.71	2301.92
800.88	2291.68
801.06	2150.37
801.23	2148.32
801.41	2162.66
801.58	2146.27
801.75	2117.60
801.93	2220.00
802.10	2303.96
802.28	2197.47
802.45	2109.41
802.63	2172.89
802.80	2217.95
802.97	2154.46
803.15	2269.15
803.32	2176.99
803.50	2052.06
803.67	2121.70
803.84	2111.46
804.02	2162.66
804.19	2217.95
804.37	2056.16
804.54	2072.54
804.71	2211.81
804.89	2181.09
805.06	2146.27
805.24	2103.26
805.41	2095.07
805.58	2107.36
805.76	2385.88
805.93	2193.37
806.10	2312.16
806.28	2226.14
806.45	2226.14
806.63	2263.01
806.80	2232.29
806.97	2211.81
807.15	2154.46
807.32	2224.09
807.49	2244.57
807.67	2066.40
807.84	2297.82
808.01	2004.96
808.19	2416.60
808.36	2412.51
808.54	2228.19
808.71	2166.75
808.88	2164.70
809.06	2336.73
809.23	2338.78
809.40	2088.93
809.58	2203.61
809.75	2187.23
809.92	2105.31
810.10	2400.22
810.27	2224.09
810.44	2269.15
810.62	2174.94
810.79	2236.38
810.96	2107.36
811.14	2176.99
811.31	2303.96
811.48	2226.14
811.66	2217.95
811.83	2246.62
812.00	2291.68
812.18	2277.34
812.35	2281.44
812.52	2072.54
812.69	2097.12
812.87	2172.89
813.04	2127.84
813.21	2152.42
813.39	2205.66
813.56	2142.18
813.73	2338.78
813.91	2013.15
814.08	2164.70
814.25	2260.96
814.42	2039.78
814.60	2138.08
814.77	2191.33
814.94	2199.52
815.12	2220.00
815.29	2359.26
815.46	2117.60
815.63	2191.33
815.81	2127.84
815.98	2160.61
816.15	2195.42
816.33	2172.89
816.50	2189.28
816.67	2211.81
816.84	2179.04
817.02	2142.18
817.19	2133.98
817.36	2179.04
817.53	2193.37
817.71	2082.78
817.88	2226.14
818.05	2166.75
818.22	2213.85
818.40	2351.07
818.57	2140.13
818.74	2275.29
818.91	2117.60
819.09	2359.26
819.26	2263.01
819.43	2162.66
819.60	2086.88
819.78	2176.99
819.95	2308.06
820.12	2197.47
820.29	2279.39
820.47	2310.11
820.64	2093.02
820.81	2080.74
820.98	2127.84
821.15	2097.12
821.33	2230.24
821.50	2150.37
821.67	2213.85
821.84	2148.32
822.02	2324.44
822.19	2340.83
822.36	2097.12
822.53	2127.84
822.70	2111.46
822.88	2203.61
823.05	2228.19
823.22	2174.94
823.39	2195.42
823.56	2211.81
823.74	2398.17
823.91	2121.70
824.08	2152.42
824.25	2152.42
824.42	2340.83
824.60	2076.64
824.77	2263.01
824.94	2133.98
825.11	2277.34
825.28	2060.26
825.45	2215.90
825.63	2220.00
825.80	2185.18
825.97	2199.52
826.14	2211.81
826.31	1978.34
826.48	2260.96
826.66	2021.35
826.83	2138.08
827.00	2054.11
827.17	2064.35
827.34	2181.09
827.51	2127.84
827.69	2168.80
827.86	2062.30
828.03	2199.52
828.20	2195.42
828.37	2136.03
828.54	2273.25
828.71	2107.36
828.89	2344.92
829.06	2185.18
829.23	2318.30
829.40	2031.58
829.57	2138.08
829.74	2340.83
829.91	2072.54
830.09	2158.56
830.26	2215.90
830.43	2392.03
830.60	2168.80
830.77	2281.44
830.94	2281.44
831.11	2260.96
831.28	2160.61
831.46	2220.00
831.63	2193.37
831.80	2213.85
831.97	2123.74
832.14	2176.99
832.31	2207.71
832.48	2275.29
832.65	2244.57
832.82	2146.27
832.99	2228.19
833.17	2064.35
833.34	2277.34
833.51	2275.29
833.68	2000.87
833.85	2248.67
834.02	2090.98
834.19	2138.08
834.36	2160.61
834.53	2224.09
834.70	2303.96
834.87	2265.05
835.04	2033.63
835.22	2176.99
835.39	2113.50
835.56	2066.40
835.73	2068.45
835.90	2310.11
836.07	2150.37
836.24	2242.53
836.41	2133.98
836.58	2193.37
836.75	2275.29
836.92	2195.42
837.09	2093.02
837.26	2217.95
837.43	2244.57
837.60	2228.19
837.77	2138.08
837.94	2283.49
838.12	2285.53
838.29	2164.70
838.46	2039.78
838.63	2107.36
838.80	2324.44
838.97	2152.42
839.14	2121.70
839.31	2211.81
839.48	2332.64
839.65	2193.37
839.82	2226.14
839.99	2211.81
840.16	2242.53
840.33	2095.07
840.50	2197.47
840.67	2105.31
840.84	1953.76
841.01	2168.80
841.18	2101.22
841.35	2232.29
841.52	2281.44
841.69	2334.68
841.86	2156.51
842.03	2160.61
842.20	2260.96
842.37	2127.84
842.54	2179.04
842.71	2179.04
842.88	2095.07
843.05	2207.71
843.22	2133.98
843.39	2263.01
843.56	2211.81
843.73	2195.42
843.90	2205.66
844.07	2207.71
844.24	2308.06
844.41	2160.61
844.58	2181.09
844.75	2150.37
844.92	2234.33
845.09	2140.13
845.26	2148.32
845.43	2209.76
845.60	2086.88
845.77	2308.06
845.94	2240.48
846.10	2314.20
846.27	2074.59
846.44	1990.63
846.61	2025.44
846.78	2211.81
846.95	2224.09
847.12	2133.98
847.29	2160.61
847.46	2070.50
847.63	2326.49
847.80	2090.98
847.97	2191.33
848.14	2359.26
848.31	2224.09
848.48	2072.54
848.65	2217.95
848.82	2115.55
848.98	2389.98
849.15	2263.01
849.32	2222.05
849.49	2375.64
849.66	2230.24
849.83	2062.30
850.00	2115.55
850.17	2242.53
850.34	2179.04
850.51	2154.46
850.68	2136.03
850.85	2449.37
851.01	2234.33
851.18	2158.56
851.35	2170.85
851.52	2226.14
851.69	2355.16
851.86	2007.01
852.03	2154.46
852.20	2271.20
852.37	2240.48
852.53	2011.11
852.70	2146.27
852.87	2162.66
853.04	2220.00
853.21	2125.79
853.38	2213.85
853.55	2367.45
853.72	2267.10
853.89	2131.94
854.05	2125.79
854.22	2174.94
854.39	2217.95
854.56	2213.85
854.73	2326.49
854.90	2084.83
855.07	2136.03
855.23	2080.74
855.40	2070.50
855.57	2142.18
855.74	1980.39
855.91	2330.59
856.08	2066.40
856.25	2007.01
856.41	2111.46
856.58	2127.84
856.75	2133.98
856.92	2062.30
857.09	2248.67
857.26	2105.31
857.42	2281.44
857.59	2201.57
857.76	2152.42
857.93	2252.77
858.10	2236.38
858.27	2088.93
858.43	2254.81
858.60	2060.26
858.77	2088.93
858.94	2146.27
859.11	2297.82
859.27	2160.61
859.44	2109.41
859.61	2463.71
859.78	2242.53
859.95	2144.22
860.12	2119.65
860.28	2392.03
860.45	2383.84
860.62	2072.54
860.79	2146.27
860.95	2160.61
861.12	2064.35
861.29	2103.26
861.46	2080.74
861.63	2072.54
861.79	2254.81
861.96	2043.87
862.13	2095.07
862.30	2277.34
862.47	2154.46
862.63	2174.94
862.80	2222.05
862.97	2289.63
863.14	2133.98
863.30	2146.27
863.47	2125.79
863.64	2293.72
863.81	2232.29
863.97	2056.16
864.14	2189.28
864.31	2193.37
864.48	2168.80
864.65	2129.89
864.81	2234.33
864.98	2265.05
865.15	2215.90
865.32	2183.13
865.48	2271.20
865.65	2334.68
865.82	2097.12
865.98	2154.46
866.15	2234.33
866.32	2187.23
866.49	2176.99
866.65	2234.33
866.82	2103.26
866.99	2129.89
867.16	2131.94
867.32	2037.73
867.49	2164.70
867.66	2236.38
867.83	2211.81
867.99	1988.58
868.16	2201.57
868.33	2168.80
868.49	2162.66
868.66	2176.99
868.83	2195.42
868.99	2193.37
869.16	2258.91
869.33	2234.33
869.50	2234.33
869.66	2148.32
869.83	2213.85
870.00	2076.64
870.16	2160.61
870.33	2154.46
870.50	2205.66
870.66	2183.13
870.83	2236.38
871.00	2220.00
871.17	2285.53
871.33	2220.00
871.50	2090.98
871.67	2084.83
871.83	2064.35
872.00	2338.78
872.17	2144.22
872.33	2283.49
872.50	2369.50
872.67	2080.74
872.83	2121.70
873.00	2256.86
873.17	2265.05
873.33	2191.33
873.50	2342.88
873.67	2138.08
873.83	2129.89
874.00	2164.70
874.16	2240.48
874.33	2215.90
874.50	2072.54
874.66	2213.85
874.83	2150.37
875.00	2312.16
875.16	2260.96
875.33	2248.67
875.50	1916.90
875.66	2154.46
875.83	2246.62
875.99	2250.72
876.16	2144.22
876.33	2174.94
876.49	2162.66
876.66	2187.23
876.83	2215.90
876.99	2125.79
877.16	2209.76
877.32	2162.66
877.49	2121.70
877.66	2232.29
877.82	2363.36
877.99	2162.66
878.15	2234.33
878.32	2207.71
878.49	2220.00
878.65	2113.50
878.82	2301.92
878.98	2133.98
879.15	2252.77
879.32	2228.19
879.48	2185.18
879.65	2150.37
879.81	2168.80
879.98	2088.93
880.15	2209.76
880.31	2193.37
880.48	2101.22
880.64	2273.25
880.81	2150.37
880.97	2324.44
881.14	2303.96
881.31	2029.54
881.47	2301.92
881.64	2129.89
881.80	1986.53
881.97	2195.42
882.13	2222.05
882.30	2103.26
882.47	2097.12
882.63	2105.31
882.80	2191.33
882.96	2238.43
883.13	2346.97
883.29	2109.41
883.46	2176.99
883.62	2394.08
883.79	2226.14
883.95	2176.99
884.12	2074.59
884.29	2312.16
884.45	2113.50
884.62	2189.28
884.78	2004.96
884.95	2289.63
885.11	2060.26
885.28	2119.65
885.44	2140.13
885.61	2308.06
885.77	2359.26
885.94	2201.57
886.10	2086.88
886.27	2236.38
886.43	2265.05
886.60	2244.57
886.76	2121.70
886.93	2113.50
887.09	2279.39
887.26	1996.77
887.42	2123.74
887.59	2248.67
887.75	2381.79
887.92	2248.67
888.08	2314.20
888.25	2334.68
888.41	2318.30
888.58	2105.31
888.74	2166.75
888.91	2140.13
>>>>>End Processed Spectral Data<<<<<
