SpectraSuite Data File
++++++++++++++++++++++++++++++++++++
Date: Thu May 05 12:35:23 CEST 2016
User: root
Dark Spectrum Present: No
Reference Spectrum Present: No
Number of Sampled Component Spectra: 1
Spectrometers: USB4C02835
Integration Time (usec): 100000 (USB4C02835)
Spectra Averaged: 1 (USB4C02835)
Boxcar Smoothing: 0 (USB4C02835)
Correct for Electrical Dark: No (USB4C02835)
Strobe/Lamp Enabled: No (USB4C02835)
Correct for Detector Non-linearity: No (USB4C02835)
Correct for Stray Light: No (USB4C02835)
Number of Pixels in Processed Spectrum: 3648
>>>>>Begin Processed Spectral Data<<<<<
177.47	1781.73
177.69	1781.73
177.91	1781.73
178.13	1726.44
178.36	1732.58
178.58	2031.58
178.80	2226.14
179.02	2088.93
179.24	2082.78
179.46	2121.70
179.68	2195.42
179.90	2191.33
180.13	2170.85
180.35	2025.44
180.57	2160.61
180.79	2252.77
181.01	2148.32
181.23	2170.85
181.45	2226.14
181.67	2260.96
181.90	2170.85
182.12	2152.42
182.34	2056.16
182.56	2230.24
182.78	2217.95
183.00	2103.26
183.22	2097.12
183.44	2052.06
183.66	2422.75
183.89	2240.48
184.11	2136.03
184.33	2308.06
184.55	2316.25
184.77	2168.80
184.99	2082.78
185.21	2125.79
185.43	2432.99
185.65	2187.23
185.87	2183.13
186.10	2394.08
186.32	2392.03
186.54	2129.89
186.76	2207.71
186.98	2256.86
187.20	2185.18
187.42	2133.98
187.64	2115.55
187.86	2263.01
188.08	2340.83
188.30	2080.74
188.52	2136.03
188.75	2330.59
188.97	2265.05
189.19	2158.56
189.41	2217.95
189.63	2244.57
189.85	2166.75
190.07	2037.73
190.29	1992.67
190.51	2179.04
190.73	2076.64
190.95	2183.13
191.17	2101.22
191.39	2095.07
191.61	2142.18
191.84	2097.12
192.06	2183.13
192.28	2101.22
192.50	2494.43
192.72	2152.42
192.94	2121.70
193.16	2314.20
193.38	2224.09
193.60	2121.70
193.82	2185.18
194.04	2357.21
194.26	2267.10
194.48	2146.27
194.70	2082.78
194.92	2150.37
195.14	2256.86
195.36	2144.22
195.58	2197.47
195.80	2150.37
196.02	2062.30
196.24	2088.93
196.46	2185.18
196.69	2121.70
196.91	2437.08
197.13	2093.02
197.35	2148.32
197.57	2363.36
197.79	2220.00
198.01	2152.42
198.23	2150.37
198.45	2220.00
198.67	2043.87
198.89	2074.59
199.11	2213.85
199.33	2084.83
199.55	1992.67
199.77	2050.02
199.99	2174.94
200.21	2172.89
200.43	2220.00
200.65	2078.69
200.87	2017.25
201.09	2185.18
201.31	2123.74
201.53	2117.60
201.75	2189.28
201.97	2252.77
202.19	2133.98
202.41	2176.99
202.63	2308.06
202.85	2209.76
203.07	2181.09
203.29	2127.84
203.51	2009.06
203.73	2176.99
203.95	2455.51
204.17	2131.94
204.39	2164.70
204.61	2162.66
204.83	2144.22
205.05	2306.01
205.27	2148.32
205.49	2424.80
205.71	2217.95
205.93	2039.78
206.15	2084.83
206.37	2220.00
206.59	2160.61
206.81	2029.54
207.03	2056.16
207.25	2101.22
207.47	2242.53
207.69	2154.46
207.91	2359.26
208.13	2277.34
208.34	2220.00
208.56	2115.55
208.78	2148.32
209.00	2193.37
209.22	2056.16
209.44	2156.51
209.66	2045.92
209.88	2154.46
210.10	2187.23
210.32	2072.54
210.54	2226.14
210.76	2217.95
210.98	2234.33
211.20	2013.15
211.42	2150.37
211.64	2277.34
211.86	2152.42
212.08	2131.94
212.30	2209.76
212.52	2203.61
212.74	2172.89
212.96	2127.84
213.17	2148.32
213.39	2260.96
213.61	2449.37
213.83	2160.61
214.05	2213.85
214.27	2285.53
214.49	2113.50
214.71	2029.54
214.93	2185.18
215.15	2242.53
215.37	2353.12
215.59	2047.97
215.81	2197.47
216.03	2338.78
216.24	2230.24
216.46	2146.27
216.68	2230.24
216.90	2273.25
217.12	2238.43
217.34	2119.65
217.56	2189.28
217.78	2334.68
218.00	2244.57
218.22	2197.47
218.44	2217.95
218.66	2258.91
218.87	2334.68
219.09	2103.26
219.31	2160.61
219.53	2176.99
219.75	2162.66
219.97	2105.31
220.19	2084.83
220.41	2138.08
220.63	2346.97
220.85	2148.32
221.06	2131.94
221.28	2316.25
221.50	2295.77
221.72	2123.74
221.94	2129.89
222.16	2121.70
222.38	2226.14
222.60	2166.75
222.82	2136.03
223.03	2256.86
223.25	2031.58
223.47	2181.09
223.69	2273.25
223.91	2203.61
224.13	2230.24
224.35	2146.27
224.57	2267.10
224.78	2217.95
225.00	2084.83
225.22	2144.22
225.44	2146.27
225.66	2314.20
225.88	2238.43
226.10	2154.46
226.32	2170.85
226.53	2342.88
226.75	2154.46
226.97	2129.89
227.19	2068.45
227.41	2031.58
227.63	2144.22
227.85	2070.50
228.06	2129.89
228.28	2160.61
228.50	2201.57
228.72	2054.11
228.94	2142.18
229.16	2078.69
229.37	2054.11
229.59	2140.13
229.81	2215.90
230.03	2164.70
230.25	2129.89
230.47	2068.45
230.69	2054.11
230.90	2301.92
231.12	2152.42
231.34	2226.14
231.56	2230.24
231.78	2113.50
232.00	2217.95
232.21	2144.22
232.43	2138.08
232.65	2050.02
232.87	2187.23
233.09	2047.97
233.30	2080.74
233.52	2283.49
233.74	2213.85
233.96	2125.79
234.18	2131.94
234.40	2185.18
234.61	2402.27
234.83	2000.87
235.05	2109.41
235.27	2445.27
235.49	2312.16
235.70	2113.50
235.92	2230.24
236.14	2258.91
236.36	2486.23
236.58	2037.73
236.79	2203.61
237.01	2248.67
237.23	2154.46
237.45	2232.29
237.67	2127.84
237.88	2185.18
238.10	2439.13
238.32	2058.21
238.54	2146.27
238.76	2138.08
238.97	2111.46
239.19	2082.78
239.41	2220.00
239.63	2267.10
239.85	2201.57
240.06	2101.22
240.28	2127.84
240.50	2260.96
240.72	2152.42
240.93	2146.27
241.15	2254.81
241.37	2207.71
241.59	2310.11
241.81	2164.70
242.02	2066.40
242.24	2179.04
242.46	2297.82
242.68	2054.11
242.89	2138.08
243.11	2279.39
243.33	2125.79
243.55	2197.47
243.76	2170.85
243.98	2109.41
244.20	2267.10
244.42	2133.98
244.64	2179.04
244.85	2088.93
245.07	2078.69
245.29	2170.85
245.51	2154.46
245.72	2273.25
245.94	2324.44
246.16	2136.03
246.38	2207.71
246.59	2097.12
246.81	2160.61
247.03	2113.50
247.24	2037.73
247.46	2121.70
247.68	2166.75
247.90	2045.92
248.11	2101.22
248.33	2336.73
248.55	2183.13
248.77	2201.57
248.98	2187.23
249.20	2355.16
249.42	2170.85
249.64	2174.94
249.85	2185.18
250.07	2154.46
250.29	2254.81
250.50	2174.94
250.72	1984.48
250.94	2244.57
251.16	2355.16
251.37	2215.90
251.59	2193.37
251.81	2269.15
252.02	2324.44
252.24	2097.12
252.46	2236.38
252.68	2146.27
252.89	2201.57
253.11	2062.30
253.33	2295.77
253.54	2306.01
253.76	2103.26
253.98	2131.94
254.20	2142.18
254.41	2052.06
254.63	2144.22
254.85	2023.39
255.06	2185.18
255.28	2258.91
255.50	2187.23
255.71	2115.55
255.93	2050.02
256.15	2197.47
256.36	2279.39
256.58	2119.65
256.80	2150.37
257.02	2158.56
257.23	2160.61
257.45	2125.79
257.67	2138.08
257.88	2105.31
258.10	2248.67
258.32	2158.56
258.53	2154.46
258.75	2408.41
258.97	2060.26
259.18	2072.54
259.40	2035.68
259.62	2379.74
259.83	2346.97
260.05	2232.29
260.27	2619.35
260.48	2303.96
260.70	2072.54
260.92	2066.40
261.13	2144.22
261.35	2201.57
261.57	2275.29
261.78	1982.43
262.00	2066.40
262.22	2168.80
262.43	2168.80
262.65	2117.60
262.86	2115.55
263.08	2324.44
263.30	2183.13
263.51	1994.72
263.73	2133.98
263.95	2420.70
264.16	2111.46
264.38	2023.39
264.60	2058.21
264.81	2125.79
265.03	2351.07
265.25	2318.30
265.46	2111.46
265.68	2308.06
265.89	2246.62
266.11	2086.88
266.33	2152.42
266.54	2322.40
266.76	2170.85
266.98	2228.19
267.19	2312.16
267.41	2318.30
267.62	2136.03
267.84	2105.31
268.06	2174.94
268.27	2246.62
268.49	2383.84
268.70	2215.90
268.92	2144.22
269.14	2150.37
269.35	1986.53
269.57	2170.85
269.79	2267.10
270.00	2162.66
270.22	2351.07
270.43	2050.02
270.65	2019.30
270.87	2209.76
271.08	2260.96
271.30	2080.74
271.51	2068.45
271.73	2271.20
271.95	2351.07
272.16	2146.27
272.38	2160.61
272.59	2099.17
272.81	2230.24
273.02	2203.61
273.24	2144.22
273.46	2365.40
273.67	2131.94
273.89	2058.21
274.10	2047.97
274.32	2275.29
274.54	2187.23
274.75	2131.94
274.97	2125.79
275.18	2267.10
275.40	2260.96
275.61	2136.03
275.83	2138.08
276.05	2074.59
276.26	2080.74
276.48	2136.03
276.69	2093.02
276.91	2228.19
277.12	2283.49
277.34	2232.29
277.55	2265.05
277.77	2308.06
277.99	2170.85
278.20	2076.64
278.42	2035.68
278.63	2037.73
278.85	2111.46
279.06	2146.27
279.28	2328.54
279.49	2265.05
279.71	2271.20
279.93	2170.85
280.14	2127.84
280.36	2127.84
280.57	2326.49
280.79	2238.43
281.00	2140.13
281.22	2144.22
281.43	2199.52
281.65	2060.26
281.86	2119.65
282.08	2310.11
282.29	2389.98
282.51	2070.50
282.73	2121.70
282.94	1945.57
283.16	2240.48
283.37	2369.50
283.59	2131.94
283.80	2275.29
284.02	2205.66
284.23	2179.04
284.45	2111.46
284.66	2086.88
284.88	2150.37
285.09	2248.67
285.31	2271.20
285.52	2220.00
285.74	2146.27
285.95	2211.81
286.17	2228.19
286.38	2232.29
286.60	2203.61
286.81	2170.85
287.03	2162.66
287.24	2105.31
287.46	2328.54
287.67	2185.18
287.89	2297.82
288.10	2187.23
288.32	2205.66
288.53	2332.64
288.75	2189.28
288.96	2285.53
289.18	2138.08
289.39	2095.07
289.61	2195.42
289.82	2426.84
290.04	2328.54
290.25	2105.31
290.47	2189.28
290.68	2150.37
290.90	2320.35
291.11	2031.58
291.33	2351.07
291.54	2088.93
291.76	2129.89
291.97	2142.18
292.18	2195.42
292.40	2170.85
292.61	2031.58
292.83	2408.41
293.04	2193.37
293.26	2244.57
293.47	2205.66
293.69	2095.07
293.90	2213.85
294.12	2283.49
294.33	2203.61
294.55	2127.84
294.76	2277.34
294.97	2344.92
295.19	2461.66
295.40	2152.42
295.62	2183.13
295.83	2246.62
296.05	2138.08
296.26	2303.96
296.48	2154.46
296.69	2238.43
296.90	2158.56
297.12	2187.23
297.33	2344.92
297.55	2228.19
297.76	2281.44
297.98	2269.15
298.19	2220.00
298.41	2193.37
298.62	2136.03
298.83	2322.40
299.05	2234.33
299.26	2174.94
299.48	2152.42
299.69	2220.00
299.90	2168.80
300.12	2103.26
300.33	2303.96
300.55	2193.37
300.76	2181.09
300.98	2146.27
301.19	2207.71
301.40	2185.18
301.62	2246.62
301.83	2170.85
302.05	2150.37
302.26	2232.29
302.47	2097.12
302.69	2095.07
302.90	2187.23
303.12	2056.16
303.33	2168.80
303.54	2381.79
303.76	2146.27
303.97	2211.81
304.19	2312.16
304.40	2144.22
304.61	2260.96
304.83	2357.21
305.04	2185.18
305.26	2293.72
305.47	2158.56
305.68	2129.89
305.90	2127.84
306.11	2277.34
306.33	2160.61
306.54	2152.42
306.75	2060.26
306.97	2056.16
307.18	2113.50
307.39	2121.70
307.61	2160.61
307.82	2207.71
308.04	2203.61
308.25	2152.42
308.46	2301.92
308.68	2215.90
308.89	2209.76
309.10	2273.25
309.32	2213.85
309.53	2127.84
309.74	2275.29
309.96	2170.85
310.17	2318.30
310.39	2189.28
310.60	2283.49
310.81	2187.23
311.03	2064.35
311.24	2154.46
311.45	2179.04
311.67	2334.68
311.88	2176.99
312.09	2199.52
312.31	2101.22
312.52	2207.71
312.73	2107.36
312.95	2080.74
313.16	2215.90
313.37	2256.86
313.59	2197.47
313.80	2363.36
314.01	2301.92
314.23	2039.78
314.44	2060.26
314.65	2056.16
314.87	2086.88
315.08	2168.80
315.29	2127.84
315.51	2062.30
315.72	2047.97
315.93	2263.01
316.15	2267.10
316.36	2150.37
316.57	2271.20
316.79	2179.04
317.00	2047.97
317.21	2285.53
317.43	2068.45
317.64	2174.94
317.85	2095.07
318.07	2086.88
318.28	2166.75
318.49	2322.40
318.70	2437.08
318.92	2396.12
319.13	2451.42
319.34	2373.60
319.56	2279.39
319.77	2279.39
319.98	2406.36
320.20	2277.34
320.41	2226.14
320.62	2277.34
320.83	2109.41
321.05	2412.51
321.26	2183.13
321.47	2125.79
321.69	2338.78
321.90	2015.20
322.11	2144.22
322.32	2144.22
322.54	2312.16
322.75	2164.70
322.96	2488.28
323.18	1978.34
323.39	2013.15
323.60	1996.77
323.81	2306.01
324.03	2174.94
324.24	2181.09
324.45	2185.18
324.66	2179.04
324.88	2346.97
325.09	2248.67
325.30	2158.56
325.52	2123.74
325.73	2162.66
325.94	2084.83
326.15	2011.11
326.37	2088.93
326.58	2232.29
326.79	2365.40
327.00	2109.41
327.22	2195.42
327.43	2162.66
327.64	2029.54
327.85	2238.43
328.07	2242.53
328.28	2324.44
328.49	2158.56
328.70	2166.75
328.92	2244.57
329.13	2176.99
329.34	2209.76
329.55	2285.53
329.76	2203.61
329.98	2140.13
330.19	2211.81
330.40	2146.27
330.61	2187.23
330.83	2289.63
331.04	2119.65
331.25	2224.09
331.46	2123.74
331.68	2117.60
331.89	2295.77
332.10	2174.94
332.31	2095.07
332.52	2179.04
332.74	2324.44
332.95	2099.17
333.16	2179.04
333.37	2232.29
333.58	2125.79
333.80	2185.18
334.01	2000.87
334.22	2105.31
334.43	2209.76
334.64	2170.85
334.86	2109.41
335.07	2121.70
335.28	2338.78
335.49	2056.16
335.70	2174.94
335.92	2367.45
336.13	2396.12
336.34	2201.57
336.55	2166.75
336.76	2320.35
336.98	2009.06
337.19	2160.61
337.40	2269.15
337.61	2441.18
337.82	2103.26
338.04	2244.57
338.25	2045.92
338.46	2117.60
338.67	2176.99
338.88	2086.88
339.09	2027.49
339.31	2199.52
339.52	2109.41
339.73	2115.55
339.94	2154.46
340.15	2252.77
340.36	2162.66
340.58	2191.33
340.79	2037.73
341.00	2230.24
341.21	2017.25
341.42	2318.30
341.63	2113.50
341.85	2236.38
342.06	2195.42
342.27	2088.93
342.48	2269.15
342.69	2076.64
342.90	2256.86
343.12	2256.86
343.33	2138.08
343.54	2260.96
343.75	2392.03
343.96	2174.94
344.17	2066.40
344.38	2236.38
344.60	2140.13
344.81	2074.59
345.02	2138.08
345.23	2215.90
345.44	2422.75
345.65	2213.85
345.86	2203.61
346.07	2189.28
346.29	2121.70
346.50	2203.61
346.71	2293.72
346.92	2306.01
347.13	2363.36
347.34	2156.51
347.55	2125.79
347.76	2162.66
347.98	2007.01
348.19	2111.46
348.40	2334.68
348.61	2176.99
348.82	2387.93
349.03	2226.14
349.24	2066.40
349.45	2359.26
349.66	2111.46
349.88	2166.75
350.09	2080.74
350.30	2338.78
350.51	2326.49
350.72	2228.19
350.93	2195.42
351.14	2154.46
351.35	2346.97
351.56	2146.27
351.77	2172.89
351.99	2260.96
352.20	2369.50
352.41	2269.15
352.62	2047.97
352.83	2244.57
353.04	2166.75
353.25	2146.27
353.46	2185.18
353.67	2314.20
353.88	1949.67
354.09	2131.94
354.30	2189.28
354.52	2312.16
354.73	2209.76
354.94	2113.50
355.15	2179.04
355.36	2330.59
355.57	2158.56
355.78	2176.99
355.99	2138.08
356.20	2121.70
356.41	2242.53
356.62	2213.85
356.83	2168.80
357.04	2394.08
357.25	2111.46
357.46	2133.98
357.68	2097.12
357.89	2127.84
358.10	2140.13
358.31	2095.07
358.52	2150.37
358.73	2197.47
358.94	2166.75
359.15	2144.22
359.36	2164.70
359.57	2187.23
359.78	2183.13
359.99	2260.96
360.20	2047.97
360.41	2250.72
360.62	2279.39
360.83	2224.09
361.04	2185.18
361.25	2185.18
361.46	2324.44
361.67	2242.53
361.88	2267.10
362.09	2285.53
362.30	2199.52
362.51	2144.22
362.72	2127.84
362.93	2310.11
363.14	2301.92
363.35	2176.99
363.56	2160.61
363.78	2244.57
363.99	2250.72
364.20	2090.98
364.41	2244.57
364.62	2428.89
364.83	2181.09
365.04	2162.66
365.25	2211.81
365.46	2367.45
365.67	2131.94
365.88	2263.01
366.09	2174.94
366.30	2129.89
366.51	2148.32
366.72	2136.03
366.93	2215.90
367.14	2191.33
367.35	2287.58
367.56	2215.90
367.77	2248.67
367.98	2211.81
368.18	2240.48
368.39	2240.48
368.60	2211.81
368.81	2281.44
369.02	2258.91
369.23	2203.61
369.44	2082.78
369.65	2142.18
369.86	2283.49
370.07	2293.72
370.28	2133.98
370.49	2273.25
370.70	2263.01
370.91	2111.46
371.12	2099.17
371.33	2301.92
371.54	2125.79
371.75	2256.86
371.96	2023.39
372.17	2277.34
372.38	2129.89
372.59	2207.71
372.80	2121.70
373.01	2183.13
373.22	2217.95
373.43	2142.18
373.64	2052.06
373.85	2285.53
374.06	2402.27
374.26	2213.85
374.47	2252.77
374.68	2332.64
374.89	2240.48
375.10	2183.13
375.31	2265.05
375.52	2234.33
375.73	2246.62
375.94	2185.18
376.15	2353.12
376.36	2107.36
376.57	2160.61
376.78	2074.59
376.99	2154.46
377.20	2322.40
377.40	2140.13
377.61	2316.25
377.82	2062.30
378.03	2314.20
378.24	2312.16
378.45	2242.53
378.66	2154.46
378.87	2086.88
379.08	2064.35
379.29	2121.70
379.50	2293.72
379.71	2242.53
379.91	2289.63
380.12	2142.18
380.33	2260.96
380.54	2138.08
380.75	2230.24
380.96	2199.52
381.17	2281.44
381.38	2195.42
381.59	2217.95
381.80	2136.03
382.00	2408.41
382.21	2332.64
382.42	2357.21
382.63	2383.84
382.84	2240.48
383.05	2236.38
383.26	2410.46
383.47	2217.95
383.68	2185.18
383.88	2326.49
384.09	2209.76
384.30	2439.13
384.51	2209.76
384.72	2189.28
384.93	2064.35
385.14	2232.29
385.35	2308.06
385.55	2062.30
385.76	2322.40
385.97	2131.94
386.18	2105.31
386.39	2109.41
386.60	2109.41
386.81	2166.75
387.02	2166.75
387.22	2050.02
387.43	2297.82
387.64	2310.11
387.85	2414.56
388.06	2400.22
388.27	4128.70
388.48	8490.88
388.68	12214.09
388.89	14520.10
389.10	15660.82
389.31	14393.12
389.52	11241.30
389.73	9834.35
389.93	8888.18
390.14	8107.91
390.35	7368.59
390.56	6518.68
390.77	5347.25
390.98	3997.64
391.18	3215.31
391.39	2676.70
391.60	2322.40
391.81	2344.92
392.02	2107.36
392.23	2410.46
392.43	2269.15
392.64	2355.16
392.85	2172.89
393.06	2359.26
393.27	2176.99
393.47	2133.98
393.68	2205.66
393.89	2228.19
394.10	2281.44
394.31	2127.84
394.52	2150.37
394.72	2195.42
394.93	2334.68
395.14	2088.93
395.35	2236.38
395.56	2176.99
395.76	2213.85
395.97	2179.04
396.18	2301.92
396.39	2367.45
396.60	2633.69
396.80	2412.51
397.01	2340.83
397.22	2316.25
397.43	2357.21
397.64	2228.19
397.84	2277.34
398.05	2414.56
398.26	2299.87
398.47	2234.33
398.67	2349.02
398.88	2267.10
399.09	2254.81
399.30	2183.13
399.51	2228.19
399.71	2086.88
399.92	2242.53
400.13	2140.13
400.34	2174.94
400.54	2160.61
400.75	2299.87
400.96	2308.06
401.17	2394.08
401.37	2207.71
401.58	2160.61
401.79	2127.84
402.00	2269.15
402.21	2568.15
402.41	2551.77
402.62	2594.78
402.83	2650.07
403.04	2625.50
403.24	2750.42
403.45	2281.44
403.66	2465.75
403.87	2473.95
404.07	2467.80
404.28	2488.28
404.49	2432.99
404.70	2252.77
404.90	2346.97
405.11	2254.81
405.32	2269.15
405.52	2185.18
405.73	2072.54
405.94	2133.98
406.15	2172.89
406.35	2330.59
406.56	2334.68
406.77	2203.61
406.98	2226.14
407.18	2138.08
407.39	2357.21
407.60	2103.26
407.80	2258.91
408.01	2217.95
408.22	2189.28
408.43	2072.54
408.63	2211.81
408.84	2265.05
409.05	2291.68
409.25	2131.94
409.46	2162.66
409.67	2187.23
409.88	2176.99
410.08	2217.95
410.29	2119.65
410.50	2283.49
410.70	2246.62
410.91	2052.06
411.12	2179.04
411.32	2138.08
411.53	2093.02
411.74	2250.72
411.95	2250.72
412.15	2236.38
412.36	2394.08
412.57	2287.58
412.77	2389.98
412.98	2232.29
413.19	2179.04
413.39	2248.67
413.60	2203.61
413.81	2316.25
414.01	2142.18
414.22	2248.67
414.43	2357.21
414.63	2152.42
414.84	2301.92
415.05	2179.04
415.25	2105.31
415.46	2211.81
415.67	2136.03
415.87	2183.13
416.08	2203.61
416.29	2211.81
416.49	2242.53
416.70	2146.27
416.91	2123.74
417.11	2195.42
417.32	2209.76
417.53	2289.63
417.73	2154.46
417.94	2234.33
418.15	2228.19
418.35	2170.85
418.56	2170.85
418.77	2412.51
418.97	2254.81
419.18	2105.31
419.38	1986.53
419.59	2166.75
419.80	2340.83
420.00	2103.26
420.21	2191.33
420.42	2324.44
420.62	2193.37
420.83	2121.70
421.04	2168.80
421.24	2179.04
421.45	2265.05
421.65	2220.00
421.86	2164.70
422.07	2283.49
422.27	2213.85
422.48	2215.90
422.69	2070.50
422.89	2224.09
423.10	2148.32
423.30	2097.12
423.51	2211.81
423.72	2211.81
423.92	2340.83
424.13	2117.60
424.33	2244.57
424.54	2250.72
424.75	2215.90
424.95	2381.79
425.16	2146.27
425.36	2158.56
425.57	2389.98
425.78	2310.11
425.98	2230.24
426.19	2160.61
426.39	2066.40
426.60	2195.42
426.81	2295.77
427.01	2209.76
427.22	2086.88
427.42	2109.41
427.63	2078.69
427.83	2228.19
428.04	2357.21
428.25	2312.16
428.45	2285.53
428.66	2263.01
428.86	2113.50
429.07	2131.94
429.28	2252.77
429.48	2170.85
429.69	2148.32
429.89	2176.99
430.10	2140.13
430.30	2279.39
430.51	2318.30
430.71	2115.55
430.92	2207.71
431.13	2148.32
431.33	2260.96
431.54	2295.77
431.74	2328.54
431.95	2435.03
432.15	2168.80
432.36	2207.71
432.56	2269.15
432.77	2285.53
432.98	2432.99
433.18	2193.37
433.39	2127.84
433.59	2187.23
433.80	2404.32
434.00	2385.88
434.21	2129.89
434.41	2164.70
434.62	2508.76
434.82	2052.06
435.03	2043.87
435.23	2224.09
435.44	2097.12
435.64	2164.70
435.85	2277.34
436.06	2252.77
436.26	2242.53
436.47	2217.95
436.67	2107.36
436.88	2154.46
437.08	2306.01
437.29	2269.15
437.49	2185.18
437.70	2265.05
437.90	2179.04
438.11	2297.82
438.31	2222.05
438.52	2498.52
438.72	2373.60
438.93	2475.99
439.13	2349.02
439.34	2359.26
439.54	2228.19
439.75	2297.82
439.95	2342.88
440.16	2195.42
440.36	2289.63
440.57	2291.68
440.77	2244.57
440.98	2213.85
441.18	2308.06
441.39	2166.75
441.59	2033.63
441.80	2406.36
442.00	2179.04
442.21	2301.92
442.41	2113.50
442.62	2277.34
442.82	2189.28
443.02	2140.13
443.23	2240.48
443.43	2242.53
443.64	2387.93
443.84	2111.46
444.05	2326.49
444.25	2250.72
444.46	2152.42
444.66	2222.05
444.87	2336.73
445.07	2131.94
445.28	2215.90
445.48	2383.84
445.69	2326.49
445.89	2584.54
446.09	2176.99
446.30	2385.88
446.50	2865.11
446.71	4300.73
446.91	5550.00
447.12	6254.50
447.32	6643.61
447.53	6242.21
447.73	5230.51
447.93	4552.63
448.14	4206.53
448.34	4046.79
448.55	3637.19
448.75	3577.80
448.96	3313.61
449.16	3018.71
449.36	2875.35
449.57	2559.96
449.77	2340.83
449.98	2228.19
450.18	2301.92
450.39	2318.30
450.59	2275.29
450.79	2189.28
451.00	2105.31
451.20	2326.49
451.41	2162.66
451.61	2254.81
451.81	2172.89
452.02	2123.74
452.22	2144.22
452.43	2144.22
452.63	2144.22
452.84	2201.57
453.04	2183.13
453.24	2174.94
453.45	2191.33
453.65	2222.05
453.86	2273.25
454.06	2258.91
454.26	2277.34
454.47	2152.42
454.67	2338.78
454.87	2240.48
455.08	2240.48
455.28	2340.83
455.49	2353.12
455.69	2193.37
455.89	2338.78
456.10	2230.24
456.30	2211.81
456.51	2277.34
456.71	2152.42
456.91	2267.10
457.12	2211.81
457.32	2246.62
457.52	2099.17
457.73	2263.01
457.93	2326.49
458.14	2088.93
458.34	2133.98
458.54	2129.89
458.75	2138.08
458.95	2371.55
459.15	2263.01
459.36	2201.57
459.56	2220.00
459.76	2404.32
459.97	2203.61
460.17	2207.71
460.37	2293.72
460.58	2232.29
460.78	2273.25
460.99	2154.46
461.19	2209.76
461.39	2179.04
461.60	2166.75
461.80	2191.33
462.00	2111.46
462.21	2127.84
462.41	2127.84
462.61	2115.55
462.82	2074.59
463.02	2277.34
463.22	2224.09
463.43	2283.49
463.63	2222.05
463.83	2367.45
464.04	2217.95
464.24	2250.72
464.44	2136.03
464.64	2267.10
464.85	2285.53
465.05	2269.15
465.25	2185.18
465.46	2164.70
465.66	2344.92
465.86	2324.44
466.07	2201.57
466.27	2209.76
466.47	2099.17
466.68	2080.74
466.88	2246.62
467.08	2142.18
467.29	2330.59
467.49	2203.61
467.69	2232.29
467.89	2207.71
468.10	2203.61
468.30	2220.00
468.50	2312.16
468.71	2220.00
468.91	2093.02
469.11	2269.15
469.31	2250.72
469.52	2152.42
469.72	2424.80
469.92	2432.99
470.13	2230.24
470.33	2230.24
470.53	2310.11
470.73	2691.03
470.94	3106.77
471.14	3268.56
471.34	3538.89
471.54	3340.24
471.75	3252.17
471.95	2809.81
472.15	2775.00
472.36	2762.71
472.56	2740.18
472.76	2662.36
472.96	2582.49
473.17	2559.96
473.37	2426.84
473.57	2293.72
473.77	2312.16
473.98	2189.28
474.18	2117.60
474.38	2482.14
474.58	2119.65
474.79	2131.94
474.99	2230.24
475.19	2252.77
475.39	2105.31
475.60	2332.64
475.80	2232.29
476.00	2211.81
476.20	2181.09
476.41	2228.19
476.61	2283.49
476.81	2244.57
477.01	2152.42
477.21	2389.98
477.42	2322.40
477.62	2142.18
477.82	2260.96
478.02	2207.71
478.23	2240.48
478.43	2119.65
478.63	2164.70
478.83	2250.72
479.03	2215.90
479.24	2369.50
479.44	2435.03
479.64	2197.47
479.84	2037.73
480.04	2226.14
480.25	2232.29
480.45	2191.33
480.65	2144.22
480.85	2379.74
481.06	2113.50
481.26	2267.10
481.46	2308.06
481.66	2203.61
481.86	2070.50
482.06	2357.21
482.27	2181.09
482.47	2168.80
482.67	2230.24
482.87	2238.43
483.07	2295.77
483.28	2191.33
483.48	2123.74
483.68	2252.77
483.88	2131.94
484.08	1974.24
484.29	2121.70
484.49	2211.81
484.69	2047.97
484.89	2373.60
485.09	2242.53
485.29	2256.86
485.50	2269.15
485.70	2228.19
485.90	2340.83
486.10	2269.15
486.30	2271.20
486.50	2330.59
486.71	2238.43
486.91	2256.86
487.11	2254.81
487.31	2002.91
487.51	2316.25
487.71	2121.70
487.91	2113.50
488.12	2179.04
488.32	1984.48
488.52	2189.28
488.72	1982.43
488.92	2162.66
489.12	2318.30
489.32	2328.54
489.53	2222.05
489.73	2097.12
489.93	2396.12
490.13	2113.50
490.33	2060.26
490.53	2244.57
490.73	2387.93
490.94	2078.69
491.14	2285.53
491.34	2334.68
491.54	2537.43
491.74	3176.40
491.94	3696.58
492.14	4100.03
492.34	4083.65
492.54	3841.99
492.75	3223.50
492.95	3096.53
493.15	2947.03
493.35	2830.29
493.55	2746.33
493.75	2650.07
493.95	2836.44
494.15	2521.05
494.35	2334.68
494.56	2283.49
494.76	2185.18
494.96	2277.34
495.16	2183.13
495.36	2228.19
495.56	2254.81
495.76	2193.37
495.96	2176.99
496.16	2203.61
496.36	2357.21
496.56	2220.00
496.77	2242.53
496.97	2277.34
497.17	2291.68
497.37	2045.92
497.57	2320.35
497.77	2254.81
497.97	2056.16
498.17	2248.67
498.37	2125.79
498.57	2303.96
498.77	2187.23
498.97	2289.63
499.17	2459.61
499.38	2215.90
499.58	2316.25
499.78	2375.64
499.98	2318.30
500.18	2236.38
500.38	2156.51
500.58	2353.12
500.78	2924.50
500.98	5128.11
501.18	7419.79
501.38	9052.02
501.58	9752.43
501.78	9822.06
501.98	7749.51
502.18	6596.51
502.38	5545.90
502.58	5070.77
502.78	4751.29
502.98	4419.52
503.18	4186.05
503.38	3850.18
503.59	3471.31
503.79	3207.12
503.99	3053.52
504.19	2850.77
504.39	2881.49
504.59	2856.92
504.79	2836.44
504.99	2924.50
505.19	2490.33
505.39	2529.24
505.59	2629.59
505.79	2478.04
505.99	2410.46
506.19	2365.40
506.39	2412.51
506.59	2193.37
506.79	2238.43
506.99	2398.17
507.19	2232.29
507.39	2217.95
507.59	2131.94
507.79	2136.03
507.99	2203.61
508.19	2220.00
508.39	2203.61
508.59	2176.99
508.79	2318.30
508.99	2373.60
509.19	2146.27
509.39	2273.25
509.59	2158.56
509.79	2174.94
509.99	2297.82
510.19	2291.68
510.39	2254.81
510.59	2193.37
510.79	2193.37
510.99	2152.42
511.19	2254.81
511.39	2396.12
511.59	2275.29
511.79	2310.11
511.99	2176.99
512.19	2459.61
512.38	2148.32
512.58	2129.89
512.78	2252.77
512.98	2244.57
513.18	2283.49
513.38	2037.73
513.58	2318.30
513.78	2168.80
513.98	2273.25
514.18	2136.03
514.38	2138.08
514.58	2258.91
514.78	2050.02
514.98	2017.25
515.18	2121.70
515.38	2078.69
515.58	2363.36
515.78	2187.23
515.98	2176.99
516.18	2295.77
516.38	2199.52
516.57	2195.42
516.77	2166.75
516.97	2291.68
517.17	2146.27
517.37	2093.02
517.57	2222.05
517.77	2265.05
517.97	2076.64
518.17	2310.11
518.37	2105.31
518.57	2088.93
518.77	2170.85
518.97	2207.71
519.16	2301.92
519.36	2322.40
519.56	2230.24
519.76	2113.50
519.96	2201.57
520.16	2265.05
520.36	2183.13
520.56	2389.98
520.76	2129.89
520.96	2195.42
521.16	2318.30
521.35	2275.29
521.55	2326.49
521.75	2240.48
521.95	2213.85
522.15	2197.47
522.35	2121.70
522.55	2150.37
522.75	2256.86
522.95	2234.33
523.14	2111.46
523.34	2242.53
523.54	2164.70
523.74	2232.29
523.94	2238.43
524.14	2097.12
524.34	2199.52
524.54	2322.40
524.73	2187.23
524.93	2265.05
525.13	2211.81
525.33	2170.85
525.53	2371.55
525.73	2297.82
525.93	2238.43
526.13	2181.09
526.32	2162.66
526.52	2359.26
526.72	2314.20
526.92	2260.96
527.12	2195.42
527.32	2080.74
527.52	2310.11
527.71	2203.61
527.91	2215.90
528.11	2174.94
528.31	2201.57
528.51	2150.37
528.71	2203.61
528.90	2363.36
529.10	2336.73
529.30	2306.01
529.50	2023.39
529.70	2308.06
529.90	2142.18
530.09	2170.85
530.29	2013.15
530.49	2162.66
530.69	2475.99
530.89	2203.61
531.09	2254.81
531.28	2179.04
531.48	2308.06
531.68	2215.90
531.88	2142.18
532.08	2324.44
532.28	2113.50
532.47	2213.85
532.67	2334.68
532.87	2322.40
533.07	2172.89
533.27	2332.64
533.46	2238.43
533.66	2217.95
533.86	2240.48
534.06	2185.18
534.26	2287.58
534.45	2240.48
534.65	2371.55
534.85	2277.34
535.05	2158.56
535.25	2338.78
535.44	2047.97
535.64	2277.34
535.84	2136.03
536.04	2203.61
536.24	2213.85
536.43	2158.56
536.63	2226.14
536.83	2185.18
537.03	2174.94
537.22	2011.11
537.42	2131.94
537.62	2281.44
537.82	2113.50
538.02	2346.97
538.21	2275.29
538.41	2510.81
538.61	2254.81
538.81	2203.61
539.00	2334.68
539.20	2043.87
539.40	2179.04
539.60	2203.61
539.79	2232.29
539.99	2224.09
540.19	2072.54
540.39	2226.14
540.58	2295.77
540.78	2330.59
540.98	2244.57
541.18	2258.91
541.37	2273.25
541.57	2293.72
541.77	2260.96
541.97	2107.36
542.16	2154.46
542.36	2191.33
542.56	2162.66
542.76	2355.16
542.95	2306.01
543.15	2334.68
543.35	2277.34
543.54	2121.70
543.74	2211.81
543.94	2326.49
544.14	2160.61
544.33	2281.44
544.53	2152.42
544.73	2136.03
544.93	2199.52
545.12	2209.76
545.32	2146.27
545.52	2158.56
545.71	2111.46
545.91	2129.89
546.11	2191.33
546.30	2080.74
546.50	2187.23
546.70	2267.10
546.90	2213.85
547.09	2039.78
547.29	2197.47
547.49	2240.48
547.68	2172.89
547.88	2162.66
548.08	2281.44
548.27	2664.41
548.47	2150.37
548.67	2121.70
548.87	2254.81
549.06	2088.93
549.26	2197.47
549.46	2228.19
549.65	2215.90
549.85	2252.77
550.05	2260.96
550.24	2129.89
550.44	2244.57
550.64	2215.90
550.83	2174.94
551.03	2365.40
551.23	2389.98
551.42	2252.77
551.62	2234.33
551.82	2195.42
552.01	2215.90
552.21	2324.44
552.41	2205.66
552.60	2383.84
552.80	2238.43
553.00	2084.83
553.19	2250.72
553.39	2359.26
553.59	2041.82
553.78	2232.29
553.98	2265.05
554.17	2015.20
554.37	2244.57
554.57	2301.92
554.76	2084.83
554.96	2117.60
555.16	2236.38
555.35	2213.85
555.55	2246.62
555.75	2201.57
555.94	2277.34
556.14	1994.72
556.33	2244.57
556.53	2293.72
556.73	2187.23
556.92	2269.15
557.12	2324.44
557.32	2381.79
557.51	2320.35
557.71	2191.33
557.90	2357.21
558.10	2349.02
558.30	2240.48
558.49	2105.31
558.69	2174.94
558.88	2226.14
559.08	2232.29
559.28	2131.94
559.47	2185.18
559.67	2293.72
559.86	2387.93
560.06	2162.66
560.26	2197.47
560.45	2199.52
560.65	2191.33
560.84	2326.49
561.04	2117.60
561.24	2248.67
561.43	2103.26
561.63	2293.72
561.82	2252.77
562.02	2244.57
562.22	2197.47
562.41	2152.42
562.61	2152.42
562.80	2183.13
563.00	2465.75
563.19	2324.44
563.39	2244.57
563.59	2324.44
563.78	2105.31
563.98	2047.97
564.17	2166.75
564.37	2074.59
564.56	2220.00
564.76	2123.74
564.96	2328.54
565.15	2252.77
565.35	2488.28
565.54	2197.47
565.74	2367.45
565.93	2220.00
566.13	2158.56
566.32	2217.95
566.52	2217.95
566.71	2273.25
566.91	2248.67
567.11	2289.63
567.30	2133.98
567.50	2299.87
567.69	2234.33
567.89	2160.61
568.08	2152.42
568.28	2252.77
568.47	2058.21
568.67	2236.38
568.86	2168.80
569.06	2226.14
569.25	2232.29
569.45	2086.88
569.64	2115.55
569.84	2160.61
570.04	2308.06
570.23	2088.93
570.43	2176.99
570.62	2277.34
570.82	2355.16
571.01	2060.26
571.21	2152.42
571.40	2095.07
571.60	2234.33
571.79	2310.11
571.99	2154.46
572.18	2162.66
572.38	2252.77
572.57	2144.22
572.77	2232.29
572.96	2426.84
573.16	2230.24
573.35	2168.80
573.55	2299.87
573.74	2228.19
573.94	2187.23
574.13	2127.84
574.33	2316.25
574.52	2283.49
574.71	2148.32
574.91	2342.88
575.10	2174.94
575.30	2246.62
575.49	2121.70
575.69	2170.85
575.88	2318.30
576.08	2301.92
576.27	2383.84
576.47	2228.19
576.66	2367.45
576.86	2375.64
577.05	2310.11
577.25	2220.00
577.44	2455.51
577.64	2228.19
577.83	2234.33
578.02	2248.67
578.22	2359.26
578.41	2420.70
578.61	2220.00
578.80	2105.31
579.00	2230.24
579.19	2248.67
579.39	2314.20
579.58	2279.39
579.77	2174.94
579.97	2383.84
580.16	2328.54
580.36	2340.83
580.55	2310.11
580.75	2299.87
580.94	2283.49
581.13	2342.88
581.33	2369.50
581.52	2242.53
581.72	2371.55
581.91	2383.84
582.11	2246.62
582.30	2306.01
582.49	2281.44
582.69	2447.32
582.88	2226.14
583.08	2228.19
583.27	2346.97
583.47	2279.39
583.66	2115.55
583.85	2115.55
584.05	2162.66
584.24	2306.01
584.44	2265.05
584.63	2351.07
584.82	2471.90
585.02	2416.60
585.21	2404.32
585.41	2381.79
585.60	2344.92
585.79	2439.13
585.99	2514.91
586.18	2447.32
586.37	2858.96
586.57	4513.72
586.76	13117.24
586.96	31852.06
587.15	45917.51
587.34	54885.56
587.54	60314.73
587.73	55497.91
587.93	38784.43
588.12	29369.92
588.31	23662.23
588.51	20534.98
588.70	18986.72
588.89	17530.61
589.09	14884.64
589.28	13035.32
589.47	10415.97
589.67	8155.01
589.86	6301.60
590.06	4726.71
590.25	3719.11
590.44	3174.35
590.64	2822.10
590.83	2582.49
591.02	2551.77
591.22	2371.55
591.41	2295.77
591.60	2273.25
591.80	2465.75
591.99	2097.12
592.18	2181.09
592.38	2285.53
592.57	2164.70
592.76	2250.72
592.96	2324.44
593.15	2226.14
593.34	2334.68
593.54	2176.99
593.73	2351.07
593.92	2359.26
594.12	2340.83
594.31	2365.40
594.50	2426.84
594.70	2383.84
594.89	2482.14
595.08	2170.85
595.28	2228.19
595.47	2519.00
595.66	2373.60
595.86	2179.04
596.05	2158.56
596.24	2187.23
596.43	2430.94
596.63	2363.36
596.82	2201.57
597.01	2369.50
597.21	2428.89
597.40	2301.92
597.59	2332.64
597.79	2246.62
597.98	2297.82
598.17	2269.15
598.36	2236.38
598.56	2373.60
598.75	2191.33
598.94	2295.77
599.14	2246.62
599.33	2162.66
599.52	2291.68
599.71	2191.33
599.91	2375.64
600.10	2326.49
600.29	2197.47
600.48	2217.95
600.68	2281.44
600.87	2252.77
601.06	2080.74
601.26	2213.85
601.45	2209.76
601.64	2222.05
601.83	2342.88
602.03	2129.89
602.22	2045.92
602.41	2381.79
602.60	2480.09
602.80	2322.40
602.99	2269.15
603.18	2220.00
603.37	2234.33
603.57	2256.86
603.76	2285.53
603.95	2326.49
604.14	2191.33
604.34	2150.37
604.53	2170.85
604.72	2195.42
604.91	2277.34
605.10	2357.21
605.30	2093.02
605.49	2392.03
605.68	2273.25
605.87	2291.68
606.07	2072.54
606.26	2228.19
606.45	2201.57
606.64	2211.81
606.84	2222.05
607.03	2179.04
607.22	2330.59
607.41	2269.15
607.60	2220.00
607.80	2250.72
607.99	2283.49
608.18	2203.61
608.37	2228.19
608.56	2133.98
608.76	2283.49
608.95	2420.70
609.14	2306.01
609.33	2385.88
609.52	2414.56
609.72	2277.34
609.91	2383.84
610.10	2363.36
610.29	2426.84
610.48	2297.82
610.68	2287.58
610.87	2269.15
611.06	2226.14
611.25	2238.43
611.44	2283.49
611.63	2220.00
611.83	2340.83
612.02	2080.74
612.21	2318.30
612.40	2025.44
612.59	2136.03
612.79	2193.37
612.98	2222.05
613.17	2359.26
613.36	2144.22
613.55	2400.22
613.74	2238.43
613.93	2424.80
614.13	2475.99
614.32	2473.95
614.51	2465.75
614.70	2375.64
614.89	2291.68
615.08	2336.73
615.28	2766.81
615.47	2183.13
615.66	2306.01
615.85	2269.15
616.04	2428.89
616.23	2291.68
616.42	2285.53
616.62	2260.96
616.81	2236.38
617.00	2209.76
617.19	2224.09
617.38	2240.48
617.57	2271.20
617.76	2293.72
617.95	2306.01
618.15	2316.25
618.34	2353.12
618.53	2090.98
618.72	2312.16
618.91	2285.53
619.10	2359.26
619.29	2207.71
619.48	2220.00
619.68	2084.83
619.87	2203.61
620.06	2129.89
620.25	2324.44
620.44	2201.57
620.63	2195.42
620.82	2232.29
621.01	2230.24
621.20	2273.25
621.39	2242.53
621.59	2301.92
621.78	2154.46
621.97	2269.15
622.16	2277.34
622.35	2260.96
622.54	2432.99
622.73	2293.72
622.92	2074.59
623.11	2357.21
623.30	2146.27
623.49	2248.67
623.68	2136.03
623.88	2269.15
624.07	2203.61
624.26	2226.14
624.45	2142.18
624.64	2203.61
624.83	2226.14
625.02	2152.42
625.21	2189.28
625.40	2299.87
625.59	2324.44
625.78	2299.87
625.97	2342.88
626.16	2342.88
626.35	2369.50
626.54	2322.40
626.74	2426.84
626.93	2285.53
627.12	2269.15
627.31	2342.88
627.50	2295.77
627.69	2275.29
627.88	2152.42
628.07	2258.91
628.26	2127.84
628.45	2093.02
628.64	2146.27
628.83	2232.29
629.02	2160.61
629.21	2244.57
629.40	2291.68
629.59	2191.33
629.78	2162.66
629.97	2277.34
630.16	2267.10
630.35	2205.66
630.54	2217.95
630.73	2193.37
630.92	2269.15
631.11	2174.94
631.30	2172.89
631.49	2301.92
631.68	2193.37
631.87	2263.01
632.06	2101.22
632.25	2531.29
632.44	2242.53
632.63	2238.43
632.82	2306.01
633.01	2322.40
633.20	2324.44
633.39	2220.00
633.58	2138.08
633.77	2336.73
633.96	2285.53
634.15	2332.64
634.34	2254.81
634.53	2217.95
634.72	2160.61
634.91	2074.59
635.10	2181.09
635.29	2336.73
635.48	2240.48
635.67	2158.56
635.86	2064.35
636.05	2334.68
636.24	2205.66
636.43	2207.71
636.62	2236.38
636.81	1978.34
637.00	2220.00
637.19	2318.30
637.38	2226.14
637.57	2189.28
637.76	2224.09
637.95	2353.12
638.14	2201.57
638.33	2265.05
638.52	2293.72
638.71	2117.60
638.89	2181.09
639.08	2478.04
639.27	2445.27
639.46	2422.75
639.65	2910.16
639.84	2967.51
640.03	3063.76
640.22	2949.08
640.41	2938.84
640.60	2631.64
640.79	2562.01
640.98	2383.84
641.17	2455.51
641.36	2504.67
641.55	2418.65
641.74	2232.29
641.92	2183.13
642.11	2189.28
642.30	2324.44
642.49	2160.61
642.68	2252.77
642.87	2179.04
643.06	2269.15
643.25	2105.31
643.44	2174.94
643.63	2162.66
643.82	2220.00
644.00	2097.12
644.19	2234.33
644.38	2072.54
644.57	2224.09
644.76	2205.66
644.95	2285.53
645.14	2203.61
645.33	2205.66
645.52	2136.03
645.71	2050.02
645.89	2099.17
646.08	2277.34
646.27	2105.31
646.46	2398.17
646.65	2054.11
646.84	2183.13
647.03	2058.21
647.22	2299.87
647.40	2248.67
647.59	2174.94
647.78	2070.50
647.97	2099.17
648.16	2187.23
648.35	2330.59
648.54	2299.87
648.73	2150.37
648.91	2258.91
649.10	2220.00
649.29	2142.18
649.48	2197.47
649.67	2232.29
649.86	2220.00
650.05	2277.34
650.23	2519.00
650.42	2308.06
650.61	2514.91
650.80	2453.47
650.99	2580.44
651.18	2402.27
651.36	2342.88
651.55	2265.05
651.74	2379.74
651.93	2252.77
652.12	2244.57
652.31	2230.24
652.49	2236.38
652.68	2207.71
652.87	2336.73
653.06	2277.34
653.25	2387.93
653.44	2234.33
653.62	2359.26
653.81	2199.52
654.00	2185.18
654.19	2283.49
654.38	2533.34
654.56	2232.29
654.75	2119.65
654.94	2318.30
655.13	2236.38
655.32	2154.46
655.51	2281.44
655.69	2187.23
655.88	2346.97
656.07	2088.93
656.26	2269.15
656.45	2129.89
656.63	2244.57
656.82	2199.52
657.01	2295.77
657.20	2191.33
657.38	2228.19
657.57	2119.65
657.76	2078.69
657.95	2289.63
658.14	2176.99
658.32	2271.20
658.51	2103.26
658.70	2142.18
658.89	2179.04
659.08	2281.44
659.26	2394.08
659.45	2187.23
659.64	2383.84
659.83	2191.33
660.01	2547.67
660.20	2234.33
660.39	2463.71
660.58	2045.92
660.76	2314.20
660.95	2045.92
661.14	2150.37
661.33	2037.73
661.51	2203.61
661.70	2185.18
661.89	2224.09
662.08	2224.09
662.26	2056.16
662.45	2111.46
662.64	2363.36
662.83	2236.38
663.01	2109.41
663.20	2203.61
663.39	2320.35
663.58	2172.89
663.76	2224.09
663.95	2240.48
664.14	2150.37
664.32	2191.33
664.51	2060.26
664.70	2031.58
664.89	2340.83
665.07	2129.89
665.26	2254.81
665.45	2121.70
665.64	2281.44
665.82	2193.37
666.01	2269.15
666.20	2166.75
666.38	2375.64
666.57	2430.94
666.76	3270.61
666.95	7929.74
667.13	16271.11
667.32	22058.67
667.51	25665.14
667.69	27399.77
667.88	25273.98
668.07	17835.76
668.25	14415.65
668.44	11960.14
668.63	10332.00
668.81	8974.20
669.00	8017.80
669.19	7108.50
669.38	6115.23
669.56	5191.60
669.75	4343.74
669.94	3669.96
670.12	3074.00
670.31	2801.62
670.50	2559.96
670.68	2461.66
670.87	2371.55
671.06	2252.77
671.24	2269.15
671.43	2451.42
671.62	2312.16
671.80	2179.04
671.99	2193.37
672.18	2291.68
672.36	2283.49
672.55	2172.89
672.74	2226.14
672.92	2199.52
673.11	2273.25
673.29	2133.98
673.48	2260.96
673.67	2222.05
673.85	2318.30
674.04	2150.37
674.23	2217.95
674.41	2437.08
674.60	2080.74
674.79	1976.29
674.97	2131.94
675.16	2289.63
675.34	2230.24
675.53	2187.23
675.72	2242.53
675.90	2400.22
676.09	2154.46
676.28	2215.90
676.46	2052.06
676.65	2244.57
676.83	2119.65
677.02	2220.00
677.21	2203.61
677.39	2170.85
677.58	2154.46
677.77	2129.89
677.95	2090.98
678.14	2187.23
678.32	2244.57
678.51	2127.84
678.70	2379.74
678.88	2181.09
679.07	2193.37
679.25	2230.24
679.44	2176.99
679.63	2064.35
679.81	2220.00
680.00	2281.44
680.18	2222.05
680.37	2301.92
680.55	2258.91
680.74	2105.31
680.93	1990.63
681.11	2295.77
681.30	2205.66
681.48	2199.52
681.67	2152.42
681.85	2236.38
682.04	2119.65
682.23	2324.44
682.41	2201.57
682.60	2162.66
682.78	2228.19
682.97	2158.56
683.15	2209.76
683.34	2277.34
683.53	2256.86
683.71	2086.88
683.90	2301.92
684.08	2289.63
684.27	2211.81
684.45	2160.61
684.64	2297.82
684.82	2174.94
685.01	2291.68
685.19	2211.81
685.38	2318.30
685.57	2271.20
685.75	2240.48
685.94	2154.46
686.12	2111.46
686.31	2119.65
686.49	2265.05
686.68	2082.78
686.86	2244.57
687.05	2191.33
687.23	2275.29
687.42	2142.18
687.60	2113.50
687.79	2306.01
687.97	2248.67
688.16	2236.38
688.34	2299.87
688.53	1978.34
688.71	2211.81
688.90	2297.82
689.08	2181.09
689.27	2125.79
689.45	2248.67
689.64	2242.53
689.82	2185.18
690.01	2201.57
690.19	2244.57
690.38	2181.09
690.56	2254.81
690.75	2086.88
690.93	2136.03
691.12	2084.83
691.30	2230.24
691.49	2162.66
691.67	2185.18
691.86	2398.17
692.04	2150.37
692.23	2230.24
692.41	2283.49
692.60	2469.85
692.78	2457.56
692.97	2306.01
693.15	2334.68
693.34	2422.75
693.52	2334.68
693.71	2201.57
693.89	2179.04
694.08	2187.23
694.26	2248.67
694.44	2291.68
694.63	2308.06
694.81	2080.74
695.00	2097.12
695.18	2303.96
695.37	2424.80
695.55	2248.67
695.74	2113.50
695.92	2121.70
696.10	2375.64
696.29	2129.89
696.47	2115.55
696.66	2021.35
696.84	2150.37
697.03	2142.18
697.21	2408.41
697.40	3268.56
697.58	2308.06
697.76	2076.64
697.95	2123.74
698.13	2174.94
698.32	2150.37
698.50	2090.98
698.68	2263.01
698.87	2285.53
699.05	2400.22
699.24	2181.09
699.42	1978.34
699.61	2334.68
699.79	2220.00
699.97	2256.86
700.16	2101.22
700.34	2029.54
700.53	2230.24
700.71	2330.59
700.89	2299.87
701.08	2220.00
701.26	2236.38
701.45	2699.22
701.63	2162.66
701.81	2187.23
702.00	2160.61
702.18	2197.47
702.37	2162.66
702.55	2441.18
702.73	2494.43
702.92	2359.26
703.10	2461.66
703.28	2490.33
703.47	2342.88
703.65	2461.66
703.84	2316.25
704.02	2203.61
704.20	2420.70
704.39	2187.23
704.57	2256.86
704.75	2260.96
704.94	2301.92
705.12	2310.11
705.30	2475.99
705.49	4390.84
705.67	10925.91
705.86	19951.31
706.04	24403.60
706.22	27913.81
706.41	29005.38
706.59	25009.79
706.77	17499.89
706.96	14532.39
707.14	12670.78
707.32	10868.57
707.51	9617.26
707.69	8241.03
707.87	6442.91
708.06	5255.09
708.24	4161.47
708.42	3313.61
708.61	3123.15
708.79	2432.99
708.97	2396.12
709.16	2406.36
709.34	2314.20
709.52	2248.67
709.71	2281.44
709.89	2340.83
710.07	2076.64
710.26	2064.35
710.44	2129.89
710.62	2297.82
710.80	2142.18
710.99	2308.06
711.17	2285.53
711.35	2107.36
711.54	2121.70
711.72	2277.34
711.90	2195.42
712.09	2211.81
712.27	2148.32
712.45	2205.66
712.63	2148.32
712.82	2226.14
713.00	2224.09
713.18	2260.96
713.37	2365.40
713.55	2310.11
713.73	2273.25
713.91	2283.49
714.10	2185.18
714.28	2236.38
714.46	2232.29
714.65	2293.72
714.83	2226.14
715.01	2170.85
715.19	2250.72
715.38	2174.94
715.56	2289.63
715.74	2090.98
715.92	2119.65
716.11	2351.07
716.29	1992.67
716.47	2220.00
716.65	2174.94
716.84	2052.06
717.02	2244.57
717.20	2080.74
717.38	2115.55
717.57	2256.86
717.75	2211.81
717.93	2109.41
718.11	2273.25
718.30	1970.15
718.48	2248.67
718.66	2267.10
718.84	2234.33
719.03	2166.75
719.21	2056.16
719.39	2351.07
719.57	2303.96
719.75	2213.85
719.94	2113.50
720.12	2113.50
720.30	2238.43
720.48	2244.57
720.67	2099.17
720.85	2064.35
721.03	2064.35
721.21	2150.37
721.39	2381.79
721.58	2185.18
721.76	2166.75
721.94	2172.89
722.12	2252.77
722.30	2359.26
722.49	2176.99
722.67	2228.19
722.85	2170.85
723.03	2019.30
723.21	2123.74
723.40	2275.29
723.58	2303.96
723.76	2228.19
723.94	2424.80
724.12	2215.90
724.30	2379.74
724.49	2340.83
724.67	2156.51
724.85	2365.40
725.03	2070.50
725.21	2346.97
725.40	2283.49
725.58	2179.04
725.76	2324.44
725.94	2224.09
726.12	2152.42
726.30	2250.72
726.49	2181.09
726.67	2258.91
726.85	2271.20
727.03	2584.54
727.21	3655.62
727.39	5572.52
727.57	6528.92
727.76	7258.00
727.94	7651.21
728.12	7217.04
728.30	5849.00
728.48	5066.67
728.66	4446.14
728.84	4048.83
729.03	3450.83
729.21	3098.58
729.39	2766.81
729.57	2543.58
729.75	2443.23
729.93	2330.59
730.11	2242.53
730.30	2154.46
730.48	2283.49
730.66	2359.26
730.84	2256.86
731.02	2172.89
731.20	2187.23
731.38	2213.85
731.56	2129.89
731.74	2093.02
731.93	2281.44
732.11	2103.26
732.29	2117.60
732.47	2228.19
732.65	2299.87
732.83	2351.07
733.01	2250.72
733.19	2158.56
733.37	2252.77
733.56	2211.81
733.74	2232.29
733.92	2283.49
734.10	2144.22
734.28	2242.53
734.46	2004.96
734.64	2138.08
734.82	2185.18
735.00	2179.04
735.18	2117.60
735.36	2217.95
735.54	2152.42
735.73	2195.42
735.91	2228.19
736.09	2289.63
736.27	2148.32
736.45	2156.51
736.63	2037.73
736.81	2228.19
736.99	2236.38
737.17	2334.68
737.35	2193.37
737.53	2146.27
737.71	2232.29
737.89	2365.40
738.07	2062.30
738.25	2176.99
738.43	2015.20
738.61	2162.66
738.80	2099.17
738.98	2062.30
739.16	2144.22
739.34	2111.46
739.52	2310.11
739.70	2166.75
739.88	2316.25
740.06	2342.88
740.24	2025.44
740.42	2242.53
740.60	2033.63
740.78	2211.81
740.96	2082.78
741.14	2138.08
741.32	2136.03
741.50	2054.11
741.68	2379.74
741.86	2342.88
742.04	2150.37
742.22	2086.88
742.40	2170.85
742.58	2242.53
742.76	2189.28
742.94	2285.53
743.12	2043.87
743.30	2146.27
743.48	2254.81
743.66	2099.17
743.84	2248.67
744.02	2179.04
744.20	2215.90
744.38	2195.42
744.56	2111.46
744.74	2371.55
744.92	2306.01
745.10	2328.54
745.28	2385.88
745.46	2381.79
745.64	2127.84
745.82	2209.76
746.00	2158.56
746.18	2240.48
746.36	2103.26
746.54	2265.05
746.72	2220.00
746.90	2117.60
747.08	2248.67
747.26	2211.81
747.44	2279.39
747.62	2285.53
747.80	2222.05
747.98	2260.96
748.15	2222.05
748.33	2355.16
748.51	2154.46
748.69	2287.58
748.87	2183.13
749.05	2203.61
749.23	2185.18
749.41	2191.33
749.59	2197.47
749.77	2394.08
749.95	2154.46
750.13	2138.08
750.31	2258.91
750.49	2162.66
750.67	2312.16
750.85	2351.07
751.03	2256.86
751.20	2371.55
751.38	2187.23
751.56	2109.41
751.74	2160.61
751.92	2156.51
752.10	2144.22
752.28	2269.15
752.46	2164.70
752.64	2189.28
752.82	2170.85
753.00	2230.24
753.18	2121.70
753.35	2111.46
753.53	2248.67
753.71	2301.92
753.89	2269.15
754.07	2252.77
754.25	2295.77
754.43	2295.77
754.61	2148.32
754.79	2330.59
754.97	2138.08
755.14	2351.07
755.32	2131.94
755.50	2191.33
755.68	2228.19
755.86	2056.16
756.04	2121.70
756.22	2093.02
756.40	2197.47
756.57	2357.21
756.75	2150.37
756.93	2281.44
757.11	2172.89
757.29	2103.26
757.47	2152.42
757.65	2084.83
757.82	1974.24
758.00	2103.26
758.18	2056.16
758.36	2088.93
758.54	2371.55
758.72	1976.29
758.90	2252.77
759.07	2183.13
759.25	2146.27
759.43	2260.96
759.61	2109.41
759.79	2973.65
759.97	2283.49
760.15	2121.70
760.32	2226.14
760.50	2211.81
760.68	2392.03
760.86	2058.21
761.04	2269.15
761.22	2291.68
761.39	2197.47
761.57	2303.96
761.75	2142.18
761.93	2228.19
762.11	2195.42
762.28	2179.04
762.46	2113.50
762.64	2310.11
762.82	2066.40
763.00	2160.61
763.18	2193.37
763.35	2111.46
763.53	2242.53
763.71	2250.72
763.89	2113.50
764.07	2269.15
764.24	2238.43
764.42	2215.90
764.60	2244.57
764.78	2273.25
764.96	2252.77
765.13	2236.38
765.31	2189.28
765.49	2260.96
765.67	2115.55
765.84	2174.94
766.02	2129.89
766.20	2078.69
766.38	2209.76
766.56	2279.39
766.73	2258.91
766.91	2138.08
767.09	2215.90
767.27	2224.09
767.44	2064.35
767.62	2291.68
767.80	2205.66
767.98	2090.98
768.15	2129.89
768.33	2244.57
768.51	2303.96
768.69	2207.71
768.87	2215.90
769.04	2273.25
769.22	2467.80
769.40	2359.26
769.58	2422.75
769.75	2185.18
769.93	2326.49
770.11	2088.93
770.28	2068.45
770.46	2310.11
770.64	2252.77
770.82	2176.99
770.99	2158.56
771.17	2201.57
771.35	2215.90
771.53	2140.13
771.70	2107.36
771.88	2263.01
772.06	2228.19
772.23	2121.70
772.41	2193.37
772.59	2226.14
772.77	2076.64
772.94	2203.61
773.12	2246.62
773.30	2150.37
773.47	2334.68
773.65	2103.26
773.83	2281.44
774.01	2136.03
774.18	1994.72
774.36	2121.70
774.54	2039.78
774.71	2215.90
774.89	2086.88
775.07	2074.59
775.24	2193.37
775.42	2119.65
775.60	2424.80
775.78	2150.37
775.95	2080.74
776.13	2002.91
776.31	2031.58
776.48	2193.37
776.66	2344.92
776.84	2142.18
777.01	2095.07
777.19	2047.97
777.37	2093.02
777.54	2236.38
777.72	2478.04
777.90	2271.20
778.07	2158.56
778.25	2586.58
778.43	2314.20
778.60	2144.22
778.78	2213.85
778.96	2273.25
779.13	2088.93
779.31	2265.05
779.49	2140.13
779.66	2242.53
779.84	2152.42
780.01	2160.61
780.19	2109.41
780.37	2338.78
780.54	2201.57
780.72	2146.27
780.90	2129.89
781.07	2217.95
781.25	2158.56
781.43	2320.35
781.60	2123.74
781.78	2310.11
781.95	2250.72
782.13	2136.03
782.31	2144.22
782.48	2011.11
782.66	2138.08
782.83	2340.83
783.01	2209.76
783.19	2310.11
783.36	2222.05
783.54	2076.64
783.72	2293.72
783.89	2152.42
784.07	2238.43
784.24	2236.38
784.42	2342.88
784.60	2152.42
784.77	2236.38
784.95	2060.26
785.12	2158.56
785.30	2211.81
785.47	2168.80
785.65	2082.78
785.83	2185.18
786.00	2101.22
786.18	2250.72
786.35	2080.74
786.53	2158.56
786.71	2301.92
786.88	2299.87
787.06	2230.24
787.23	2244.57
787.41	2090.98
787.58	2179.04
787.76	2152.42
787.94	2203.61
788.11	2254.81
788.29	2129.89
788.46	2166.75
788.64	2062.30
788.81	2158.56
788.99	2103.26
789.16	2064.35
789.34	2164.70
789.52	2072.54
789.69	2072.54
789.87	1968.10
790.04	2240.48
790.22	2105.31
790.39	2379.74
790.57	2029.54
790.74	2129.89
790.92	2277.34
791.09	2105.31
791.27	2191.33
791.44	2324.44
791.62	2129.89
791.79	2283.49
791.97	2185.18
792.15	2496.47
792.32	2213.85
792.50	2330.59
792.67	2316.25
792.85	2338.78
793.02	2156.51
793.20	2095.07
793.37	2086.88
793.55	2215.90
793.72	2119.65
793.90	2328.54
794.07	2103.26
794.25	2113.50
794.42	2215.90
794.60	2146.27
794.77	2234.33
794.95	2224.09
795.12	2346.97
795.30	2220.00
795.47	2072.54
795.65	2473.95
795.82	2205.66
796.00	2056.16
796.17	2117.60
796.34	2154.46
796.52	2236.38
796.69	2250.72
796.87	2217.95
797.04	2172.89
797.22	2285.53
797.39	2224.09
797.57	2265.05
797.74	2238.43
797.92	2209.76
798.09	2136.03
798.27	2234.33
798.44	2166.75
798.62	2170.85
798.79	2228.19
798.96	2205.66
799.14	2191.33
799.31	2422.75
799.49	2131.94
799.66	2140.13
799.84	2195.42
800.01	2035.68
800.19	2224.09
800.36	2015.20
800.53	2193.37
800.71	2185.18
800.88	2303.96
801.06	2183.13
801.23	2068.45
801.41	2185.18
801.58	2103.26
801.75	2121.70
801.93	2222.05
802.10	2299.87
802.28	2131.94
802.45	2215.90
802.63	2211.81
802.80	2308.06
802.97	2158.56
803.15	2154.46
803.32	2189.28
803.50	2142.18
803.67	2142.18
803.84	2117.60
804.02	2209.76
804.19	2150.37
804.37	1957.86
804.54	2050.02
804.71	2228.19
804.89	2244.57
805.06	2162.66
805.24	2105.31
805.41	2088.93
805.58	2138.08
805.76	2478.04
805.93	2201.57
806.10	2269.15
806.28	2199.52
806.45	2222.05
806.63	2279.39
806.80	2215.90
806.97	2240.48
807.15	2166.75
807.32	2232.29
807.49	2140.13
807.67	2074.59
807.84	2260.96
808.01	2076.64
808.19	2342.88
808.36	2459.61
808.54	2115.55
808.71	2093.02
808.88	2148.32
809.06	2265.05
809.23	2326.49
809.40	2170.85
809.58	2285.53
809.75	2158.56
809.92	2047.97
810.10	2361.31
810.27	2248.67
810.44	2244.57
810.62	2199.52
810.79	2226.14
810.96	2150.37
811.14	2080.74
811.31	2265.05
811.48	2285.53
811.66	2187.23
811.83	2252.77
812.00	2252.77
812.18	2187.23
812.35	2398.17
812.52	2117.60
812.69	2107.36
812.87	2123.74
813.04	2146.27
813.21	2232.29
813.39	2140.13
813.56	2095.07
813.73	2236.38
813.91	2009.06
814.08	2154.46
814.25	2203.61
814.42	2050.02
814.60	2150.37
814.77	2197.47
814.94	2191.33
815.12	2232.29
815.29	2346.97
815.46	2150.37
815.63	2140.13
815.81	2195.42
815.98	2127.84
816.15	2244.57
816.33	2162.66
816.50	2138.08
816.67	2232.29
816.84	2162.66
817.02	2093.02
817.19	2168.80
817.36	2236.38
817.53	2230.24
817.71	2103.26
817.88	2287.58
818.05	2170.85
818.22	2090.98
818.40	2334.68
818.57	2119.65
818.74	2220.00
818.91	2168.80
819.09	2211.81
819.26	2244.57
819.43	2160.61
819.60	2103.26
819.78	2291.68
819.95	2260.96
820.12	2037.73
820.29	2281.44
820.47	2232.29
820.64	2103.26
820.81	2080.74
820.98	2076.64
821.15	2252.77
821.33	2244.57
821.50	2127.84
821.67	2211.81
821.84	2080.74
822.02	2234.33
822.19	2291.68
822.36	2119.65
822.53	2152.42
822.70	2033.63
822.88	2152.42
823.05	2306.01
823.22	2217.95
823.39	2254.81
823.56	2166.75
823.74	2387.93
823.91	2166.75
824.08	2156.51
824.25	2095.07
824.42	2451.42
824.60	2099.17
824.77	2181.09
824.94	2195.42
825.11	2179.04
825.28	2082.78
825.45	2162.66
825.63	2252.77
825.80	2056.16
825.97	2228.19
826.14	2138.08
826.31	2078.69
826.48	2238.43
826.66	2117.60
826.83	2125.79
827.00	2150.37
827.17	2113.50
827.34	2203.61
827.51	2166.75
827.69	2189.28
827.86	2056.16
828.03	2158.56
828.20	2156.51
828.37	2109.41
828.54	2179.04
828.71	2176.99
828.89	2316.25
829.06	2217.95
829.23	2291.68
829.40	2113.50
829.57	2123.74
829.74	2201.57
829.91	2179.04
830.09	2136.03
830.26	2207.71
830.43	2273.25
830.60	2185.18
830.77	2293.72
830.94	2263.01
831.11	2267.10
831.28	2168.80
831.46	2287.58
831.63	2213.85
831.80	2256.86
831.97	2080.74
832.14	2174.94
832.31	2201.57
832.48	2154.46
832.65	2267.10
832.82	2154.46
832.99	2236.38
833.17	2043.87
833.34	2256.86
833.51	2209.76
833.68	1974.24
833.85	2226.14
834.02	2095.07
834.19	2129.89
834.36	2103.26
834.53	2312.16
834.70	2289.63
834.87	2205.66
835.04	2078.69
835.22	2156.51
835.39	2084.83
835.56	2062.30
835.73	2140.13
835.90	2332.64
836.07	2105.31
836.24	2201.57
836.41	2123.74
836.58	2187.23
836.75	2297.82
836.92	2154.46
837.09	2113.50
837.26	2299.87
837.43	2209.76
837.60	2252.77
837.77	2226.14
837.94	2265.05
838.12	2375.64
838.29	2176.99
838.46	2017.25
838.63	2103.26
838.80	2306.01
838.97	2166.75
839.14	2164.70
839.31	2187.23
839.48	2222.05
839.65	2197.47
839.82	2228.19
839.99	2203.61
840.16	2187.23
840.33	2050.02
840.50	2117.60
840.67	2146.27
840.84	1984.48
841.01	2179.04
841.18	2136.03
841.35	2174.94
841.52	2240.48
841.69	2377.69
841.86	2191.33
842.03	2209.76
842.20	2310.11
842.37	2121.70
842.54	2199.52
842.71	2228.19
842.88	2113.50
843.05	2138.08
843.22	2082.78
843.39	2244.57
843.56	2168.80
843.73	2144.22
843.90	2197.47
844.07	2097.12
844.24	2275.29
844.41	2232.29
844.58	2207.71
844.75	2127.84
844.92	2244.57
845.09	2176.99
845.26	2136.03
845.43	2240.48
845.60	2058.21
845.77	2234.33
845.94	2209.76
846.10	2244.57
846.27	2045.92
846.44	2019.30
846.61	2093.02
846.78	2299.87
846.95	2273.25
847.12	2119.65
847.29	2068.45
847.46	2129.89
847.63	2250.72
847.80	2095.07
847.97	2150.37
848.14	2416.60
848.31	2193.37
848.48	2050.02
848.65	2244.57
848.82	2136.03
848.98	2357.21
849.15	2256.86
849.32	2220.00
849.49	2289.63
849.66	2236.38
849.83	2226.14
850.00	2093.02
850.17	2215.90
850.34	2144.22
850.51	2131.94
850.68	2146.27
850.85	2432.99
851.01	2181.09
851.18	2138.08
851.35	2113.50
851.52	2154.46
851.69	2308.06
851.86	2056.16
852.03	2050.02
852.20	2289.63
852.37	2140.13
852.53	2084.83
852.70	2133.98
852.87	2168.80
853.04	2260.96
853.21	2142.18
853.38	2256.86
853.55	2322.40
853.72	2316.25
853.89	2097.12
854.05	2093.02
854.22	2136.03
854.39	2176.99
854.56	2146.27
854.73	2301.92
854.90	2093.02
855.07	2156.51
855.23	2088.93
855.40	2039.78
855.57	2136.03
855.74	2064.35
855.91	2314.20
856.08	2123.74
856.25	2029.54
856.41	2138.08
856.58	2041.82
856.75	2166.75
856.92	2058.21
857.09	2256.86
857.26	2076.64
857.42	2193.37
857.59	2244.57
857.76	2168.80
857.93	2250.72
858.10	2168.80
858.27	2082.78
858.43	2260.96
858.60	2115.55
858.77	2058.21
858.94	2174.94
859.11	2330.59
859.27	2160.61
859.44	2176.99
859.61	2344.92
859.78	2250.72
859.95	2129.89
860.12	2125.79
860.28	2437.08
860.45	2392.03
860.62	2154.46
860.79	2144.22
860.95	2109.41
861.12	2127.84
861.29	2041.82
861.46	2031.58
861.63	2187.23
861.79	2242.53
861.96	2047.97
862.13	2099.17
862.30	2285.53
862.47	2101.22
862.63	2056.16
862.80	2260.96
862.97	2291.68
863.14	2377.69
863.30	2103.26
863.47	2144.22
863.64	2334.68
863.81	2217.95
863.97	2129.89
864.14	2193.37
864.31	2131.94
864.48	2162.66
864.65	2138.08
864.81	2258.91
864.98	2260.96
865.15	2271.20
865.32	2179.04
865.48	2248.67
865.65	2353.12
865.82	2080.74
865.98	2125.79
866.15	2220.00
866.32	2115.55
866.49	2211.81
866.65	2299.87
866.82	2072.54
866.99	2244.57
867.16	2050.02
867.32	2095.07
867.49	2060.26
867.66	2156.51
867.83	2127.84
867.99	2088.93
868.16	2097.12
868.33	2088.93
868.49	2088.93
868.66	2162.66
868.83	2230.24
868.99	2176.99
869.16	2203.61
869.33	2275.29
869.50	2203.61
869.66	2203.61
869.83	2121.70
870.00	2056.16
870.16	2248.67
870.33	2162.66
870.50	2303.96
870.66	2144.22
870.83	2316.25
871.00	2179.04
871.17	2183.13
871.33	2189.28
871.50	2133.98
871.67	2166.75
871.83	2121.70
872.00	2271.20
872.17	2105.31
872.33	2365.40
872.50	2265.05
872.67	2117.60
872.83	2154.46
873.00	2162.66
873.17	2244.57
873.33	2162.66
873.50	2271.20
873.67	2117.60
873.83	2101.22
874.00	2086.88
874.16	2197.47
874.33	2154.46
874.50	2088.93
874.66	2250.72
874.83	2109.41
875.00	2250.72
875.16	2310.11
875.33	2197.47
875.50	1978.34
875.66	2160.61
875.83	2179.04
875.99	2283.49
876.16	2062.30
876.33	2097.12
876.49	2170.85
876.66	2211.81
876.83	2129.89
876.99	2095.07
877.16	2121.70
877.32	2107.36
877.49	2123.74
877.66	2269.15
877.82	2367.45
877.99	2152.42
878.15	2336.73
878.32	2197.47
878.49	2160.61
878.65	2187.23
878.82	2195.42
878.98	2152.42
879.15	2316.25
879.32	2224.09
879.48	2185.18
879.65	2205.66
879.81	2140.13
879.98	2150.37
880.15	2162.66
880.31	2228.19
880.48	2136.03
880.64	2236.38
880.81	2244.57
880.97	2353.12
881.14	2297.82
881.31	2166.75
881.47	2301.92
881.64	2066.40
881.80	2166.75
881.97	2172.89
882.13	2179.04
882.30	2047.97
882.47	2068.45
882.63	2107.36
882.80	2152.42
882.96	2195.42
883.13	2248.67
883.29	2103.26
883.46	2146.27
883.62	2355.16
883.79	2136.03
883.95	2244.57
884.12	2209.76
884.29	2289.63
884.45	2176.99
884.62	2203.61
884.78	2127.84
884.95	2363.36
885.11	2068.45
885.28	2193.37
885.44	2183.13
885.61	2226.14
885.77	2265.05
885.94	2176.99
886.10	2170.85
886.27	2129.89
886.43	2349.02
886.60	2248.67
886.76	2084.83
886.93	2088.93
887.09	2226.14
887.26	2097.12
887.42	2191.33
887.59	2291.68
887.75	2398.17
887.92	2269.15
888.08	2222.05
888.25	2326.49
888.41	2299.87
888.58	2111.46
888.74	2111.46
888.91	2140.13
>>>>>End Processed Spectral Data<<<<<
