SpectraSuite Data File
++++++++++++++++++++++++++++++++++++
Date: Thu May 05 12:35:22 CEST 2016
User: root
Dark Spectrum Present: No
Reference Spectrum Present: No
Number of Sampled Component Spectra: 1
Spectrometers: USB4C02835
Integration Time (usec): 100000 (USB4C02835)
Spectra Averaged: 1 (USB4C02835)
Boxcar Smoothing: 0 (USB4C02835)
Correct for Electrical Dark: No (USB4C02835)
Strobe/Lamp Enabled: No (USB4C02835)
Correct for Detector Non-linearity: No (USB4C02835)
Correct for Stray Light: No (USB4C02835)
Number of Pixels in Processed Spectrum: 3648
>>>>>Begin Processed Spectral Data<<<<<
177.47	1726.44
177.69	1726.44
177.91	1726.44
178.13	1814.50
178.36	1791.97
178.58	2064.35
178.80	2250.72
179.02	2066.40
179.24	2080.74
179.46	2119.65
179.68	2193.37
179.90	2090.98
180.13	2201.57
180.35	2056.16
180.57	2090.98
180.79	2273.25
181.01	2146.27
181.23	2146.27
181.45	2287.58
181.67	2183.13
181.90	2193.37
182.12	2189.28
182.34	2068.45
182.56	2226.14
182.78	2289.63
183.00	2086.88
183.22	2105.31
183.44	2013.15
183.66	2387.93
183.89	2254.81
184.11	2095.07
184.33	2191.33
184.55	2199.52
184.77	2203.61
184.99	2170.85
185.21	2203.61
185.43	2377.69
185.65	2123.74
185.87	2166.75
186.10	2412.51
186.32	2408.41
186.54	2105.31
186.76	2217.95
186.98	2209.76
187.20	2275.29
187.42	2093.02
187.64	2076.64
187.86	2217.95
188.08	2234.33
188.30	2142.18
188.52	2138.08
188.75	2351.07
188.97	2383.84
189.19	2035.68
189.41	2117.60
189.63	2289.63
189.85	2146.27
190.07	2076.64
190.29	2074.59
190.51	2338.78
190.73	2101.22
190.95	2250.72
191.17	2146.27
191.39	2093.02
191.61	2127.84
191.84	2111.46
192.06	2209.76
192.28	2078.69
192.50	2516.95
192.72	2203.61
192.94	2111.46
193.16	2267.10
193.38	2281.44
193.60	2088.93
193.82	2150.37
194.04	2267.10
194.26	2232.29
194.48	2146.27
194.70	2107.36
194.92	2086.88
195.14	2211.81
195.36	2097.12
195.58	2176.99
195.80	2189.28
196.02	2176.99
196.24	2133.98
196.46	2160.61
196.69	2162.66
196.91	2430.94
197.13	2123.74
197.35	2088.93
197.57	2322.40
197.79	2256.86
198.01	2199.52
198.23	2209.76
198.45	2246.62
198.67	2084.83
198.89	2129.89
199.11	2138.08
199.33	2138.08
199.55	2084.83
199.77	2021.35
199.99	2263.01
200.21	2211.81
200.43	2244.57
200.65	1992.67
200.87	2011.11
201.09	2250.72
201.31	2211.81
201.53	2217.95
201.75	2154.46
201.97	2234.33
202.19	2146.27
202.41	2172.89
202.63	2291.68
202.85	2224.09
203.07	2269.15
203.29	2074.59
203.51	2031.58
203.73	2115.55
203.95	2412.51
204.17	2179.04
204.39	2179.04
204.61	2242.53
204.83	2148.32
205.05	2279.39
205.27	2148.32
205.49	2367.45
205.71	2203.61
205.93	2050.02
206.15	2111.46
206.37	2172.89
206.59	2138.08
206.81	2152.42
207.03	2011.11
207.25	2127.84
207.47	2215.90
207.69	2113.50
207.91	2289.63
208.13	2273.25
208.34	2133.98
208.56	2054.11
208.78	2176.99
209.00	2111.46
209.22	2133.98
209.44	2080.74
209.66	2068.45
209.88	2193.37
210.10	2158.56
210.32	2168.80
210.54	2187.23
210.76	2236.38
210.98	2306.01
211.20	2056.16
211.42	2224.09
211.64	2308.06
211.86	2275.29
212.08	2142.18
212.30	2176.99
212.52	2181.09
212.74	2181.09
212.96	2232.29
213.17	2228.19
213.39	2291.68
213.61	2412.51
213.83	2174.94
214.05	2185.18
214.27	2363.36
214.49	2070.50
214.71	2062.30
214.93	2250.72
215.15	2201.57
215.37	2301.92
215.59	2121.70
215.81	2109.41
216.03	2322.40
216.24	2189.28
216.46	2146.27
216.68	2123.74
216.90	2250.72
217.12	2420.70
217.34	2099.17
217.56	2217.95
217.78	2387.93
218.00	2164.70
218.22	2146.27
218.44	2176.99
218.66	2215.90
218.87	2365.40
219.09	2179.04
219.31	2156.51
219.53	2252.77
219.75	2125.79
219.97	2047.97
220.19	2111.46
220.41	2123.74
220.63	2342.88
220.85	2136.03
221.06	2111.46
221.28	2322.40
221.50	2277.34
221.72	2148.32
221.94	2066.40
222.16	2234.33
222.38	2277.34
222.60	2129.89
222.82	2191.33
223.03	2316.25
223.25	2060.26
223.47	2093.02
223.69	2267.10
223.91	2185.18
224.13	2224.09
224.35	2105.31
224.57	2283.49
224.78	2275.29
225.00	2150.37
225.22	2195.42
225.44	2146.27
225.66	2248.67
225.88	2144.22
226.10	2234.33
226.32	2080.74
226.53	2306.01
226.75	2138.08
226.97	2080.74
227.19	2189.28
227.41	2101.22
227.63	2146.27
227.85	2015.20
228.06	2113.50
228.28	2199.52
228.50	2289.63
228.72	1986.53
228.94	2140.13
229.16	1957.86
229.37	2131.94
229.59	2041.82
229.81	2326.49
230.03	2088.93
230.25	2015.20
230.47	2039.78
230.69	2113.50
230.90	2242.53
231.12	2183.13
231.34	2129.89
231.56	2236.38
231.78	2080.74
232.00	2166.75
232.21	2095.07
232.43	2125.79
232.65	1961.95
232.87	2271.20
233.09	2119.65
233.30	2109.41
233.52	2273.25
233.74	2209.76
233.96	2086.88
234.18	2136.03
234.40	2269.15
234.61	2367.45
234.83	2064.35
235.05	2076.64
235.27	2494.43
235.49	2285.53
235.70	2095.07
235.92	2195.42
236.14	2183.13
236.36	2453.47
236.58	2039.78
236.79	2275.29
237.01	2162.66
237.23	2154.46
237.45	2334.68
237.67	2058.21
237.88	2217.95
238.10	2363.36
238.32	2017.25
238.54	2117.60
238.76	2158.56
238.97	2183.13
239.19	2000.87
239.41	2168.80
239.63	2297.82
239.85	2123.74
240.06	2088.93
240.28	2220.00
240.50	2265.05
240.72	2256.86
240.93	2146.27
241.15	2162.66
241.37	2162.66
241.59	2344.92
241.81	2185.18
242.02	2195.42
242.24	2250.72
242.46	2254.81
242.68	2097.12
242.89	2125.79
243.11	2242.53
243.33	2293.72
243.55	2185.18
243.76	2203.61
243.98	2142.18
244.20	2166.75
244.42	2181.09
244.64	2236.38
244.85	2088.93
245.07	2074.59
245.29	2129.89
245.51	2236.38
245.72	2230.24
245.94	2228.19
246.16	2136.03
246.38	2176.99
246.59	2090.98
246.81	2213.85
247.03	2039.78
247.24	2035.68
247.46	2101.22
247.68	2265.05
247.90	2105.31
248.11	2088.93
248.33	2322.40
248.55	2193.37
248.77	2127.84
248.98	2176.99
249.20	2310.11
249.42	2176.99
249.64	2211.81
249.85	2105.31
250.07	2086.88
250.29	2254.81
250.50	2121.70
250.72	2080.74
250.94	2260.96
251.16	2344.92
251.37	2150.37
251.59	2172.89
251.81	2150.37
252.02	2316.25
252.24	2146.27
252.46	2205.66
252.68	2101.22
252.89	2123.74
253.11	1945.57
253.33	2277.34
253.54	2394.08
253.76	2058.21
253.98	2146.27
254.20	2084.83
254.41	2023.39
254.63	2166.75
254.85	2002.91
255.06	2136.03
255.28	2236.38
255.50	2172.89
255.71	2076.64
255.93	2047.97
256.15	2140.13
256.36	2260.96
256.58	2187.23
256.80	2142.18
257.02	2170.85
257.23	2201.57
257.45	2185.18
257.67	2197.47
257.88	2158.56
258.10	2244.57
258.32	2129.89
258.53	2179.04
258.75	2369.50
258.97	2076.64
259.18	2152.42
259.40	2111.46
259.62	2363.36
259.83	2209.76
260.05	2170.85
260.27	2508.76
260.48	2334.68
260.70	2015.20
260.92	2125.79
261.13	2193.37
261.35	2179.04
261.57	2244.57
261.78	2103.26
262.00	2111.46
262.22	2250.72
262.43	2113.50
262.65	2088.93
262.86	2099.17
263.08	2523.10
263.30	2181.09
263.51	2029.54
263.73	2133.98
263.95	2367.45
264.16	2172.89
264.38	2070.50
264.60	2109.41
264.81	2160.61
265.03	2248.67
265.25	2252.77
265.46	2129.89
265.68	2277.34
265.89	2222.05
266.11	2029.54
266.33	2115.55
266.54	2291.68
266.76	2199.52
266.98	2166.75
267.19	2301.92
267.41	2318.30
267.62	2271.20
267.84	2064.35
268.06	2316.25
268.27	2187.23
268.49	2365.40
268.70	2189.28
268.92	2150.37
269.14	2170.85
269.35	2080.74
269.57	2152.42
269.79	2113.50
270.00	2119.65
270.22	2324.44
270.43	1998.82
270.65	1982.43
270.87	2154.46
271.08	2224.09
271.30	2172.89
271.51	2150.37
271.73	2234.33
271.95	2271.20
272.16	2168.80
272.38	2179.04
272.59	2136.03
272.81	2308.06
273.02	2127.84
273.24	2164.70
273.46	2303.96
273.67	2105.31
273.89	2039.78
274.10	2080.74
274.32	2256.86
274.54	2195.42
274.75	2209.76
274.97	2144.22
275.18	2217.95
275.40	2193.37
275.61	2176.99
275.83	2211.81
276.05	2037.73
276.26	2260.96
276.48	2226.14
276.69	2097.12
276.91	2138.08
277.12	2316.25
277.34	2246.62
277.55	2248.67
277.77	2195.42
277.99	2164.70
278.20	2154.46
278.42	2107.36
278.63	2119.65
278.85	2156.51
279.06	2121.70
279.28	2215.90
279.49	2277.34
279.71	2207.71
279.93	2193.37
280.14	2205.66
280.36	2058.21
280.57	2220.00
280.79	2244.57
281.00	2054.11
281.22	2111.46
281.43	2398.17
281.65	2023.39
281.86	2076.64
282.08	2205.66
282.29	2322.40
282.51	2080.74
282.73	2119.65
282.94	2050.02
283.16	2306.01
283.37	2230.24
283.59	2201.57
283.80	2236.38
284.02	2160.61
284.23	2220.00
284.45	2164.70
284.66	2187.23
284.88	2144.22
285.09	2179.04
285.31	2260.96
285.52	2228.19
285.74	2109.41
285.95	2283.49
286.17	2193.37
286.38	2179.04
286.60	2142.18
286.81	2152.42
287.03	2105.31
287.24	2168.80
287.46	2291.68
287.67	2162.66
287.89	2332.64
288.10	2113.50
288.32	2193.37
288.53	2281.44
288.75	2150.37
288.96	2269.15
289.18	2082.78
289.39	2246.62
289.61	2220.00
289.82	2383.84
290.04	2338.78
290.25	2133.98
290.47	2170.85
290.68	2179.04
290.90	2351.07
291.11	2025.44
291.33	2191.33
291.54	2090.98
291.76	2103.26
291.97	2179.04
292.18	2191.33
292.40	2158.56
292.61	2183.13
292.83	2320.35
293.04	2254.81
293.26	2275.29
293.47	2121.70
293.69	2113.50
293.90	2209.76
294.12	2324.44
294.33	2166.75
294.55	2136.03
294.76	2267.10
294.97	2349.02
295.19	2418.65
295.40	2093.02
295.62	2240.48
295.83	2281.44
296.05	2154.46
296.26	2277.34
296.48	2154.46
296.69	2131.94
296.90	2199.52
297.12	2254.81
297.33	2226.14
297.55	2156.51
297.76	2207.71
297.98	2312.16
298.19	2193.37
298.41	2138.08
298.62	2164.70
298.83	2258.91
299.05	2205.66
299.26	2162.66
299.48	2088.93
299.69	2170.85
299.90	2121.70
300.12	2093.02
300.33	2254.81
300.55	2174.94
300.76	2252.77
300.98	2117.60
301.19	2269.15
301.40	2136.03
301.62	2117.60
301.83	2207.71
302.05	2195.42
302.26	2119.65
302.47	2140.13
302.69	2095.07
302.90	2199.52
303.12	1996.77
303.33	2355.16
303.54	2387.93
303.76	2217.95
303.97	2232.29
304.19	2289.63
304.40	2125.79
304.61	2263.01
304.83	2306.01
305.04	2242.53
305.26	2197.47
305.47	2246.62
305.68	2195.42
305.90	2105.31
306.11	2246.62
306.33	2179.04
306.54	2158.56
306.75	2121.70
306.97	2060.26
307.18	2176.99
307.39	2101.22
307.61	2203.61
307.82	2299.87
308.04	2260.96
308.25	2076.64
308.46	2176.99
308.68	2207.71
308.89	2166.75
309.10	2306.01
309.32	2215.90
309.53	2271.20
309.74	2222.05
309.96	2039.78
310.17	2379.74
310.39	2162.66
310.60	2297.82
310.81	2168.80
311.03	2052.06
311.24	2256.86
311.45	2179.04
311.67	2371.55
311.88	2226.14
312.09	2164.70
312.31	2105.31
312.52	2095.07
312.73	2170.85
312.95	2123.74
313.16	2142.18
313.37	2351.07
313.59	2211.81
313.80	2211.81
314.01	2355.16
314.23	2119.65
314.44	2093.02
314.65	2154.46
314.87	2195.42
315.08	2222.05
315.29	2050.02
315.51	2027.49
315.72	2113.50
315.93	2267.10
316.15	2176.99
316.36	2111.46
316.57	2183.13
316.79	2176.99
317.00	2064.35
317.21	2267.10
317.43	2080.74
317.64	2133.98
317.85	2125.79
318.07	2203.61
318.28	2258.91
318.49	2246.62
318.70	2463.71
318.92	2400.22
319.13	2398.17
319.34	2379.74
319.56	2234.33
319.77	2359.26
319.98	2326.49
320.20	2283.49
320.41	2256.86
320.62	2291.68
320.83	2054.11
321.05	2320.35
321.26	2185.18
321.47	2205.66
321.69	2258.91
321.90	2084.83
322.11	2082.78
322.32	2234.33
322.54	2396.12
322.75	2162.66
322.96	2435.03
323.18	2113.50
323.39	2052.06
323.60	2047.97
323.81	2226.14
324.03	2156.51
324.24	2211.81
324.45	2197.47
324.66	2199.52
324.88	2336.73
325.09	2361.31
325.30	2019.30
325.52	2248.67
325.73	2281.44
325.94	2142.18
326.15	2031.58
326.37	2064.35
326.58	2250.72
326.79	2369.50
327.00	2129.89
327.22	2168.80
327.43	2127.84
327.64	2068.45
327.85	2187.23
328.07	2170.85
328.28	2400.22
328.49	2195.42
328.70	2211.81
328.92	2160.61
329.13	2191.33
329.34	2318.30
329.55	2363.36
329.76	2318.30
329.98	2201.57
330.19	2289.63
330.40	2291.68
330.61	2213.85
330.83	2289.63
331.04	2095.07
331.25	2168.80
331.46	2113.50
331.68	2105.31
331.89	2166.75
332.10	2211.81
332.31	2013.15
332.52	2187.23
332.74	2306.01
332.95	2109.41
333.16	2138.08
333.37	2283.49
333.58	2031.58
333.80	2228.19
334.01	2041.82
334.22	2109.41
334.43	2101.22
334.64	2125.79
334.86	2115.55
335.07	2076.64
335.28	2359.26
335.49	2103.26
335.70	2181.09
335.92	2330.59
336.13	2428.89
336.34	2209.76
336.55	2263.01
336.76	2256.86
336.98	1957.86
337.19	2095.07
337.40	2316.25
337.61	2455.51
337.82	2129.89
338.04	2250.72
338.25	2023.39
338.46	2156.51
338.67	2185.18
338.88	2017.25
339.09	2060.26
339.31	2154.46
339.52	1988.58
339.73	2129.89
339.94	2191.33
340.15	2310.11
340.36	2127.84
340.58	2148.32
340.79	2082.78
341.00	2263.01
341.21	2068.45
341.42	2326.49
341.63	2154.46
341.85	2193.37
342.06	2172.89
342.27	2136.03
342.48	2152.42
342.69	2093.02
342.90	2131.94
343.12	2320.35
343.33	2133.98
343.54	2256.86
343.75	2310.11
343.96	2125.79
344.17	2101.22
344.38	2138.08
344.60	2095.07
344.81	2088.93
345.02	2238.43
345.23	2353.12
345.44	2465.75
345.65	2293.72
345.86	2199.52
346.07	2242.53
346.29	2211.81
346.50	2258.91
346.71	2232.29
346.92	2340.83
347.13	2365.40
347.34	2267.10
347.55	2121.70
347.76	2209.76
347.98	2025.44
348.19	2133.98
348.40	2228.19
348.61	2176.99
348.82	2330.59
349.03	2244.57
349.24	2109.41
349.45	2320.35
349.66	2062.30
349.88	2146.27
350.09	2117.60
350.30	2387.93
350.51	2267.10
350.72	2211.81
350.93	2236.38
351.14	2197.47
351.35	2170.85
351.56	2189.28
351.77	2232.29
351.99	2209.76
352.20	2379.74
352.41	2291.68
352.62	2035.68
352.83	2191.33
353.04	2136.03
353.25	2129.89
353.46	2277.34
353.67	2228.19
353.88	1972.19
354.09	2203.61
354.30	2107.36
354.52	2310.11
354.73	2215.90
354.94	2197.47
355.15	2240.48
355.36	2353.12
355.57	2181.09
355.78	2174.94
355.99	2199.52
356.20	2076.64
356.41	2334.68
356.62	2207.71
356.83	2234.33
357.04	2367.45
357.25	2045.92
357.46	2115.55
357.68	2023.39
357.89	2078.69
358.10	2222.05
358.31	2191.33
358.52	2195.42
358.73	2082.78
358.94	2103.26
359.15	2119.65
359.36	2291.68
359.57	2160.61
359.78	2215.90
359.99	2170.85
360.20	2105.31
360.41	2174.94
360.62	2191.33
360.83	2228.19
361.04	2113.50
361.25	2236.38
361.46	2437.08
361.67	2297.82
361.88	2201.57
362.09	2312.16
362.30	2136.03
362.51	2164.70
362.72	2269.15
362.93	2244.57
363.14	2275.29
363.35	2242.53
363.56	2082.78
363.78	2242.53
363.99	2275.29
364.20	2115.55
364.41	2224.09
364.62	2383.84
364.83	2179.04
365.04	2121.70
365.25	2199.52
365.46	2408.41
365.67	2105.31
365.88	2187.23
366.09	2105.31
366.30	2152.42
366.51	2193.37
366.72	2088.93
366.93	2166.75
367.14	2234.33
367.35	2281.44
367.56	2179.04
367.77	2338.78
367.98	2197.47
368.18	2252.77
368.39	2258.91
368.60	2090.98
368.81	2295.77
369.02	2162.66
369.23	2093.02
369.44	2070.50
369.65	2154.46
369.86	2211.81
370.07	2226.14
370.28	2138.08
370.49	2326.49
370.70	2287.58
370.91	2109.41
371.12	2093.02
371.33	2275.29
371.54	2121.70
371.75	2263.01
371.96	1996.77
372.17	2199.52
372.38	2213.85
372.59	2295.77
372.80	2115.55
373.01	2170.85
373.22	2207.71
373.43	2174.94
373.64	2170.85
373.85	2349.02
374.06	2344.92
374.26	2224.09
374.47	2224.09
374.68	2318.30
374.89	2211.81
375.10	2140.13
375.31	2213.85
375.52	2224.09
375.73	2203.61
375.94	2129.89
376.15	2275.29
376.36	2170.85
376.57	2144.22
376.78	2123.74
376.99	2203.61
377.20	2293.72
377.40	2133.98
377.61	2291.68
377.82	2121.70
378.03	2346.97
378.24	2316.25
378.45	2250.72
378.66	2224.09
378.87	2019.30
379.08	2086.88
379.29	2152.42
379.50	2244.57
379.71	2136.03
379.91	2267.10
380.12	2185.18
380.33	2158.56
380.54	2146.27
380.75	2193.37
380.96	2109.41
381.17	2252.77
381.38	2183.13
381.59	2168.80
381.80	2205.66
382.00	2377.69
382.21	2238.43
382.42	2443.23
382.63	2492.38
382.84	2342.88
383.05	2306.01
383.26	2410.46
383.47	2160.61
383.68	2267.10
383.88	2285.53
384.09	2207.71
384.30	2346.97
384.51	2224.09
384.72	2189.28
384.93	2133.98
385.14	2191.33
385.35	2191.33
385.55	2088.93
385.76	2346.97
385.97	2113.50
386.18	2047.97
386.39	2127.84
386.60	2156.51
386.81	2125.79
387.02	2086.88
387.22	2107.36
387.43	2338.78
387.64	2228.19
387.85	2371.55
388.06	2408.41
388.27	4145.09
388.48	8732.54
388.68	12136.26
388.89	14454.56
389.10	15564.56
389.31	14407.46
389.52	11333.46
389.73	9938.79
389.93	8984.44
390.14	8138.63
390.35	7253.91
390.56	6563.74
390.77	5277.62
390.98	4102.08
391.18	3282.89
391.39	2729.94
391.60	2310.11
391.81	2340.83
392.02	2170.85
392.23	2531.29
392.43	2174.94
392.64	2324.44
392.85	2220.00
393.06	2414.56
393.27	2226.14
393.47	2127.84
393.68	2265.05
393.89	2236.38
394.10	2254.81
394.31	2138.08
394.52	2115.55
394.72	2097.12
394.93	2406.36
395.14	2226.14
395.35	2181.09
395.56	2066.40
395.76	2217.95
395.97	2234.33
396.18	2336.73
396.39	2445.27
396.60	2668.50
396.80	2449.37
397.01	2346.97
397.22	2418.65
397.43	2367.45
397.64	2166.75
397.84	2318.30
398.05	2377.69
398.26	2240.48
398.47	2281.44
398.67	2301.92
398.88	2215.90
399.09	2271.20
399.30	2164.70
399.51	2201.57
399.71	2176.99
399.92	2156.51
400.13	2152.42
400.34	2164.70
400.54	2164.70
400.75	2334.68
400.96	2334.68
401.17	2306.01
401.37	2269.15
401.58	2172.89
401.79	2185.18
402.00	2283.49
402.21	2580.44
402.41	2514.91
402.62	2660.31
402.83	2684.89
403.04	2691.03
403.24	2744.28
403.45	2301.92
403.66	2453.47
403.87	2473.95
404.07	2539.48
404.28	2402.27
404.49	2439.13
404.70	2377.69
404.90	2246.62
405.11	2248.67
405.32	2295.77
405.52	2158.56
405.73	2162.66
405.94	2101.22
406.15	2129.89
406.35	2242.53
406.56	2310.11
406.77	2181.09
406.98	2142.18
407.18	2105.31
407.39	2289.63
407.60	2179.04
407.80	2293.72
408.01	2117.60
408.22	2260.96
408.43	2183.13
408.63	2256.86
408.84	2281.44
409.05	2232.29
409.25	2072.54
409.46	2111.46
409.67	2187.23
409.88	2148.32
410.08	2162.66
410.29	2203.61
410.50	2287.58
410.70	2193.37
410.91	2168.80
411.12	2211.81
411.32	2236.38
411.53	2095.07
411.74	2389.98
411.95	2297.82
412.15	2207.71
412.36	2392.03
412.57	2326.49
412.77	2312.16
412.98	2228.19
413.19	2181.09
413.39	2326.49
413.60	2285.53
413.81	2303.96
414.01	2199.52
414.22	2273.25
414.43	2281.44
414.63	2193.37
414.84	2263.01
415.05	2179.04
415.25	2093.02
415.46	2293.72
415.67	2121.70
415.87	2174.94
416.08	2131.94
416.29	2230.24
416.49	2220.00
416.70	2191.33
416.91	2121.70
417.11	2133.98
417.32	2281.44
417.53	2252.77
417.73	2228.19
417.94	2170.85
418.15	2209.76
418.35	2183.13
418.56	2179.04
418.77	2449.37
418.97	2189.28
419.18	2228.19
419.38	1945.57
419.59	2230.24
419.80	2314.20
420.00	2170.85
420.21	2197.47
420.42	2324.44
420.62	2228.19
420.83	2127.84
421.04	2230.24
421.24	2105.31
421.45	2246.62
421.65	2299.87
421.86	2136.03
422.07	2275.29
422.27	2246.62
422.48	2248.67
422.69	2105.31
422.89	2230.24
423.10	2236.38
423.30	2125.79
423.51	2152.42
423.72	2144.22
423.92	2301.92
424.13	2004.96
424.33	2170.85
424.54	2236.38
424.75	2242.53
424.95	2256.86
425.16	2273.25
425.36	2168.80
425.57	2324.44
425.78	2226.14
425.98	2336.73
426.19	2121.70
426.39	2099.17
426.60	2252.77
426.81	2185.18
427.01	2199.52
427.22	2158.56
427.42	2054.11
427.63	2103.26
427.83	2318.30
428.04	2424.80
428.25	2289.63
428.45	2332.64
428.66	2357.21
428.86	2099.17
429.07	2179.04
429.28	2197.47
429.48	2224.09
429.69	2172.89
429.89	2260.96
430.10	2191.33
430.30	2222.05
430.51	2346.97
430.71	2111.46
430.92	2203.61
431.13	2222.05
431.33	2336.73
431.54	2234.33
431.74	2301.92
431.95	2455.51
432.15	2095.07
432.36	2209.76
432.56	2187.23
432.77	2355.16
432.98	2389.98
433.18	2174.94
433.39	2228.19
433.59	2154.46
433.80	2379.74
434.00	2367.45
434.21	2168.80
434.41	2088.93
434.62	2410.46
434.82	2074.59
435.03	2097.12
435.23	2281.44
435.44	2084.83
435.64	2191.33
435.85	2224.09
436.06	2250.72
436.26	2285.53
436.47	2250.72
436.67	2111.46
436.88	2207.71
437.08	2295.77
437.29	2351.07
437.49	2201.57
437.70	2316.25
437.90	2152.42
438.11	2293.72
438.31	2283.49
438.52	2426.84
438.72	2435.03
438.93	2496.47
439.13	2326.49
439.34	2334.68
439.54	2293.72
439.75	2277.34
439.95	2342.88
440.16	2170.85
440.36	2242.53
440.57	2271.20
440.77	2248.67
440.98	2283.49
441.18	2283.49
441.39	2138.08
441.59	2052.06
441.80	2297.82
442.00	2215.90
442.21	2357.21
442.41	2039.78
442.62	2232.29
442.82	2213.85
443.02	2275.29
443.23	2232.29
443.43	2242.53
443.64	2373.60
443.84	2156.51
444.05	2414.56
444.25	2277.34
444.46	2203.61
444.66	2240.48
444.87	2369.50
445.07	2117.60
445.28	2236.38
445.48	2357.21
445.69	2310.11
445.89	2422.75
446.09	2285.53
446.30	2539.48
446.50	2797.53
446.71	4339.65
446.91	5613.48
447.12	6508.44
447.32	6694.81
447.53	6303.65
447.73	5027.76
447.93	4480.96
448.14	4292.54
448.34	4091.84
448.55	3616.71
448.75	3577.80
448.96	3336.14
449.16	2998.23
449.36	2889.68
449.57	2566.10
449.77	2299.87
449.98	2277.34
450.18	2287.58
450.39	2318.30
450.59	2260.96
450.79	2187.23
451.00	2179.04
451.20	2234.33
451.41	2187.23
451.61	2314.20
451.81	2265.05
452.02	2168.80
452.22	2131.94
452.43	2176.99
452.63	2166.75
452.84	2187.23
453.04	2197.47
453.24	2236.38
453.45	2082.78
453.65	2205.66
453.86	2197.47
454.06	2232.29
454.26	2179.04
454.47	2160.61
454.67	2349.02
454.87	2158.56
455.08	2207.71
455.28	2340.83
455.49	2248.67
455.69	2150.37
455.89	2359.26
456.10	2285.53
456.30	2205.66
456.51	2240.48
456.71	2226.14
456.91	2287.58
457.12	2281.44
457.32	2228.19
457.52	2189.28
457.73	2281.44
457.93	2263.01
458.14	2168.80
458.34	2080.74
458.54	2203.61
458.75	2172.89
458.95	2344.92
459.15	2193.37
459.36	2238.43
459.56	2205.66
459.76	2500.57
459.97	2242.53
460.17	2209.76
460.37	2254.81
460.58	2230.24
460.78	2224.09
460.99	2129.89
461.19	2260.96
461.39	2093.02
461.60	2238.43
461.80	2213.85
462.00	2078.69
462.21	2234.33
462.41	2099.17
462.61	2086.88
462.82	2105.31
463.02	2260.96
463.22	2168.80
463.43	2420.70
463.63	2211.81
463.83	2346.97
464.04	2265.05
464.24	2195.42
464.44	2101.22
464.64	2351.07
464.85	2367.45
465.05	2293.72
465.25	2197.47
465.46	2185.18
465.66	2226.14
465.86	2301.92
466.07	2195.42
466.27	2250.72
466.47	2041.82
466.68	2131.94
466.88	2322.40
467.08	2308.06
467.29	2240.48
467.49	2228.19
467.69	2144.22
467.89	2252.77
468.10	2170.85
468.30	2285.53
468.50	2371.55
468.71	2365.40
468.91	2082.78
469.11	2334.68
469.31	2220.00
469.52	2160.61
469.72	2408.41
469.92	2480.09
470.13	2136.03
470.33	2203.61
470.53	2254.81
470.73	2666.46
470.94	3063.76
471.14	3268.56
471.34	3618.76
471.54	3602.38
471.75	3067.86
471.95	2834.39
472.15	2815.96
472.36	2809.81
472.56	2727.89
472.76	2688.98
472.96	2664.41
473.17	2531.29
473.37	2478.04
473.57	2330.59
473.77	2365.40
473.98	2244.57
474.18	2105.31
474.38	2521.05
474.58	2256.86
474.79	2160.61
474.99	2238.43
475.19	2326.49
475.39	2035.68
475.60	2283.49
475.80	2189.28
476.00	2254.81
476.20	2207.71
476.41	2269.15
476.61	2289.63
476.81	2389.98
477.01	2080.74
477.21	2349.02
477.42	2248.67
477.62	2097.12
477.82	2287.58
478.02	2201.57
478.23	2250.72
478.43	2154.46
478.63	2234.33
478.83	2193.37
479.03	2189.28
479.24	2318.30
479.44	2371.55
479.64	2084.83
479.84	2078.69
480.04	2047.97
480.25	2242.53
480.45	2185.18
480.65	2252.77
480.85	2351.07
481.06	2160.61
481.26	2250.72
481.46	2256.86
481.66	2244.57
481.86	2187.23
482.06	2318.30
482.27	2168.80
482.47	2131.94
482.67	2265.05
482.87	2193.37
483.07	2293.72
483.28	2187.23
483.48	2119.65
483.68	2109.41
483.88	2140.13
484.08	2080.74
484.29	2093.02
484.49	2277.34
484.69	2101.22
484.89	2281.44
485.09	2279.39
485.29	2285.53
485.50	2234.33
485.70	2191.33
485.90	2310.11
486.10	2246.62
486.30	2220.00
486.50	2400.22
486.71	2234.33
486.91	2301.92
487.11	2326.49
487.31	2109.41
487.51	2269.15
487.71	2133.98
487.91	2097.12
488.12	2131.94
488.32	2076.64
488.52	2217.95
488.72	2099.17
488.92	2269.15
489.12	2420.70
489.32	2224.09
489.53	2238.43
489.73	2002.91
489.93	2363.36
490.13	2152.42
490.33	2054.11
490.53	2230.24
490.73	2373.60
490.94	2052.06
491.14	2279.39
491.34	2283.49
491.54	2504.67
491.74	3166.16
491.94	3715.02
492.14	4065.22
492.34	4087.75
492.54	3825.61
492.75	3205.07
492.95	3088.34
493.15	2863.06
493.35	2897.88
493.55	2766.81
493.75	2736.09
493.95	2791.38
494.15	2545.63
494.35	2410.46
494.56	2269.15
494.76	2168.80
494.96	2308.06
495.16	2226.14
495.36	2211.81
495.56	2258.91
495.76	2265.05
495.96	2203.61
496.16	2230.24
496.36	2338.78
496.56	2154.46
496.77	2244.57
496.97	2220.00
497.17	2330.59
497.37	2103.26
497.57	2207.71
497.77	2133.98
497.97	2125.79
498.17	2258.91
498.37	2232.29
498.57	2289.63
498.77	2164.70
498.97	2248.67
499.17	2443.23
499.38	2166.75
499.58	2260.96
499.78	2334.68
499.98	2293.72
500.18	2181.09
500.38	2113.50
500.58	2394.08
500.78	2856.92
500.98	5162.93
501.18	7372.69
501.38	8933.24
501.58	9899.88
501.78	9625.45
501.98	7753.61
502.18	6490.01
502.38	5470.12
502.58	5281.71
502.78	4685.75
502.98	4472.76
503.18	4222.91
503.38	3909.57
503.59	3477.45
503.79	3131.34
503.99	2916.31
504.19	2793.43
504.39	2863.06
504.59	2883.54
504.79	2871.25
504.99	2840.53
505.19	2643.93
505.39	2588.63
505.59	2535.39
505.79	2496.47
505.99	2416.60
506.19	2310.11
506.39	2498.52
506.59	2207.71
506.79	2217.95
506.99	2377.69
507.19	2269.15
507.39	2269.15
507.59	2121.70
507.79	2160.61
507.99	2140.13
508.19	2193.37
508.39	2250.72
508.59	2242.53
508.79	2377.69
508.99	2467.80
509.19	2176.99
509.39	2222.05
509.59	2113.50
509.79	2193.37
509.99	2217.95
510.19	2293.72
510.39	2283.49
510.59	2260.96
510.79	2138.08
510.99	2113.50
511.19	2179.04
511.39	2375.64
511.59	2281.44
511.79	2342.88
511.99	2205.66
512.19	2422.75
512.38	2236.38
512.58	2166.75
512.78	2097.12
512.98	2285.53
513.18	2367.45
513.38	2138.08
513.58	2267.10
513.78	2201.57
513.98	2166.75
514.18	2121.70
514.38	2148.32
514.58	2170.85
514.78	2166.75
514.98	2150.37
515.18	2150.37
515.38	2033.63
515.58	2455.51
515.78	2250.72
515.98	2168.80
516.18	2240.48
516.38	2269.15
516.57	2121.70
516.77	2234.33
516.97	2250.72
517.17	2148.32
517.37	2088.93
517.57	2217.95
517.77	2183.13
517.97	2148.32
518.17	2232.29
518.37	2164.70
518.57	2183.13
518.77	2203.61
518.97	2156.51
519.16	2220.00
519.36	2400.22
519.56	2127.84
519.76	2213.85
519.96	2226.14
520.16	2330.59
520.36	2158.56
520.56	2349.02
520.76	2164.70
520.96	2283.49
521.16	2291.68
521.35	2244.57
521.55	2371.55
521.75	2265.05
521.95	2131.94
522.15	2133.98
522.35	2021.35
522.55	2127.84
522.75	2301.92
522.95	2136.03
523.14	2150.37
523.34	2181.09
523.54	2076.64
523.74	2295.77
523.94	2244.57
524.14	2133.98
524.34	2334.68
524.54	2297.82
524.73	2158.56
524.93	2301.92
525.13	2265.05
525.33	2074.59
525.53	2334.68
525.73	2265.05
525.93	2217.95
526.13	2207.71
526.32	2203.61
526.52	2344.92
526.72	2301.92
526.92	2156.51
527.12	2170.85
527.32	2121.70
527.52	2232.29
527.71	2193.37
527.91	2148.32
528.11	2150.37
528.31	2242.53
528.51	2025.44
528.71	2260.96
528.90	2283.49
529.10	2267.10
529.30	2273.25
529.50	1998.82
529.70	2252.77
529.90	2244.57
530.09	2277.34
530.29	2101.22
530.49	2109.41
530.69	2465.75
530.89	2162.66
531.09	2293.72
531.28	2193.37
531.48	2258.91
531.68	2273.25
531.88	2211.81
532.08	2269.15
532.28	2146.27
532.47	2199.52
532.67	2250.72
532.87	2328.54
533.07	2158.56
533.27	2328.54
533.46	2252.77
533.66	2211.81
533.86	2226.14
534.06	2201.57
534.26	2224.09
534.45	2217.95
534.65	2299.87
534.85	2310.11
535.05	2174.94
535.25	2316.25
535.44	2097.12
535.64	2244.57
535.84	2203.61
536.04	2168.80
536.24	2078.69
536.43	2088.93
536.63	2293.72
536.83	2172.89
537.03	2158.56
537.22	2093.02
537.42	2107.36
537.62	2172.89
537.82	2060.26
538.02	2367.45
538.21	2297.82
538.41	2445.27
538.61	2283.49
538.81	2201.57
539.00	2269.15
539.20	1984.48
539.40	2273.25
539.60	2203.61
539.79	2367.45
539.99	2156.51
540.19	2148.32
540.39	2146.27
540.58	2236.38
540.78	2252.77
540.98	2248.67
541.18	2314.20
541.37	2252.77
541.57	2234.33
541.77	2306.01
541.97	2174.94
542.16	2056.16
542.36	2152.42
542.56	2246.62
542.76	2404.32
542.95	2303.96
543.15	2306.01
543.35	2299.87
543.54	2162.66
543.74	2133.98
543.94	2342.88
544.14	2197.47
544.33	2310.11
544.53	2154.46
544.73	2172.89
544.93	2195.42
545.12	2183.13
545.32	2215.90
545.52	2136.03
545.71	2166.75
545.91	2060.26
546.11	2146.27
546.30	2111.46
546.50	2232.29
546.70	2242.53
546.90	2234.33
547.09	2058.21
547.29	2217.95
547.49	2260.96
547.68	2189.28
547.88	2121.70
548.08	2267.10
548.27	2711.51
548.47	2195.42
548.67	2148.32
548.87	2283.49
549.06	2170.85
549.26	2238.43
549.46	2238.43
549.65	2181.09
549.85	2193.37
550.05	2220.00
550.24	2146.27
550.44	2220.00
550.64	2183.13
550.83	2160.61
551.03	2277.34
551.23	2330.59
551.42	2258.91
551.62	2170.85
551.82	2279.39
552.01	2217.95
552.21	2279.39
552.41	2187.23
552.60	2373.60
552.80	2187.23
553.00	2086.88
553.19	2240.48
553.39	2414.56
553.59	2176.99
553.78	2293.72
553.98	2295.77
554.17	2056.16
554.37	2250.72
554.57	2191.33
554.76	2142.18
554.96	2152.42
555.16	2209.76
555.35	2203.61
555.55	2236.38
555.75	2238.43
555.94	2322.40
556.14	2035.68
556.33	2244.57
556.53	2258.91
556.73	2236.38
556.92	2187.23
557.12	2285.53
557.32	2328.54
557.51	2332.64
557.71	2236.38
557.90	2338.78
558.10	2275.29
558.30	2199.52
558.49	2199.52
558.69	2189.28
558.88	2258.91
559.08	2207.71
559.28	2158.56
559.47	2236.38
559.67	2215.90
559.86	2349.02
560.06	2189.28
560.26	2123.74
560.45	2217.95
560.65	2166.75
560.84	2291.68
561.04	2160.61
561.24	2373.60
561.43	2093.02
561.63	2418.65
561.82	2228.19
562.02	2293.72
562.22	2107.36
562.41	2062.30
562.61	2127.84
562.80	2072.54
563.00	2377.69
563.19	2183.13
563.39	2193.37
563.59	2322.40
563.78	2105.31
563.98	2054.11
564.17	2205.66
564.37	2072.54
564.56	2105.31
564.76	2144.22
564.96	2279.39
565.15	2179.04
565.35	2396.12
565.54	2154.46
565.74	2258.91
565.93	2252.77
566.13	2181.09
566.32	2289.63
566.52	2293.72
566.71	2230.24
566.91	2267.10
567.11	2306.01
567.30	2156.51
567.50	2301.92
567.69	2248.67
567.89	2199.52
568.08	2144.22
568.28	2211.81
568.47	2205.66
568.67	2195.42
568.86	2144.22
569.06	2275.29
569.25	2156.51
569.45	2176.99
569.64	2152.42
569.84	2191.33
570.04	2260.96
570.23	2117.60
570.43	2084.83
570.62	2179.04
570.82	2340.83
571.01	2119.65
571.21	2170.85
571.40	2199.52
571.60	2269.15
571.79	2256.86
571.99	2179.04
572.18	2136.03
572.38	2267.10
572.57	2215.90
572.77	2215.90
572.96	2453.47
573.16	2224.09
573.35	2228.19
573.55	2371.55
573.74	2238.43
573.94	2109.41
574.13	2127.84
574.33	2238.43
574.52	2310.11
574.71	2267.10
574.91	2240.48
575.10	2078.69
575.30	2187.23
575.49	2164.70
575.69	2154.46
575.88	2246.62
576.08	2281.44
576.27	2359.26
576.47	2252.77
576.66	2375.64
576.86	2375.64
577.05	2320.35
577.25	2285.53
577.44	2379.74
577.64	2199.52
577.83	2342.88
578.02	2258.91
578.22	2303.96
578.41	2369.50
578.61	2187.23
578.80	2144.22
579.00	2232.29
579.19	2260.96
579.39	2293.72
579.58	2338.78
579.77	2281.44
579.97	2359.26
580.16	2320.35
580.36	2353.12
580.55	2330.59
580.75	2293.72
580.94	2209.76
581.13	2443.23
581.33	2367.45
581.52	2226.14
581.72	2510.81
581.91	2416.60
582.11	2217.95
582.30	2392.03
582.49	2256.86
582.69	2375.64
582.88	2281.44
583.08	2244.57
583.27	2400.22
583.47	2267.10
583.66	2187.23
583.85	2154.46
584.05	2226.14
584.24	2293.72
584.44	2359.26
584.63	2342.88
584.82	2406.36
585.02	2394.08
585.21	2428.89
585.41	2523.10
585.60	2351.07
585.79	2523.10
585.99	2510.81
586.18	2295.77
586.37	2854.87
586.57	4466.62
586.76	13238.07
586.96	32286.23
587.15	45739.33
587.34	55162.04
587.54	60279.91
587.73	55915.69
587.93	39044.52
588.12	29687.36
588.31	24188.56
588.51	20543.17
588.70	18814.69
588.89	17293.05
589.09	14982.94
589.28	12932.92
589.47	10600.29
589.67	8241.03
589.86	6432.67
590.06	4679.61
590.25	3780.55
590.44	3211.22
590.64	2813.91
590.83	2584.54
591.02	2527.19
591.22	2379.74
591.41	2478.04
591.60	2240.48
591.80	2447.32
591.99	2115.55
592.18	2244.57
592.38	2342.88
592.57	2189.28
592.76	2263.01
592.96	2287.58
593.15	2269.15
593.34	2297.82
593.54	2154.46
593.73	2342.88
593.92	2277.34
594.12	2334.68
594.31	2295.77
594.50	2432.99
594.70	2301.92
594.89	2473.95
595.08	2185.18
595.28	2281.44
595.47	2488.28
595.66	2289.63
595.86	2152.42
596.05	2252.77
596.24	2187.23
596.43	2414.56
596.63	2359.26
596.82	2273.25
597.01	2293.72
597.21	2449.37
597.40	2316.25
597.59	2191.33
597.79	2189.28
597.98	2342.88
598.17	2260.96
598.36	2236.38
598.56	2248.67
598.75	2211.81
598.94	2207.71
599.14	2293.72
599.33	2220.00
599.52	2314.20
599.71	2242.53
599.91	2258.91
600.10	2342.88
600.29	2213.85
600.48	2260.96
600.68	2336.73
600.87	2277.34
601.06	2179.04
601.26	2234.33
601.45	2230.24
601.64	2271.20
601.83	2334.68
602.03	2246.62
602.22	2127.84
602.41	2318.30
602.60	2351.07
602.80	2316.25
602.99	2320.35
603.18	2101.22
603.37	2162.66
603.57	2193.37
603.76	2285.53
603.95	2314.20
604.14	2263.01
604.34	2086.88
604.53	2224.09
604.72	2353.12
604.91	2293.72
605.10	2205.66
605.30	2101.22
605.49	2367.45
605.68	2236.38
605.87	2293.72
606.07	2111.46
606.26	2224.09
606.45	2263.01
606.64	2277.34
606.84	2260.96
607.03	2199.52
607.22	2314.20
607.41	2252.77
607.60	2299.87
607.80	2361.31
607.99	2195.42
608.18	2228.19
608.37	2195.42
608.56	2207.71
608.76	2308.06
608.95	2406.36
609.14	2326.49
609.33	2385.88
609.52	2463.71
609.72	2291.68
609.91	2396.12
610.10	2293.72
610.29	2418.65
610.48	2269.15
610.68	2359.26
610.87	2228.19
611.06	2361.31
611.25	2215.90
611.44	2365.40
611.63	2228.19
611.83	2418.65
612.02	2090.98
612.21	2330.59
612.40	2074.59
612.59	2095.07
612.79	2203.61
612.98	2232.29
613.17	2375.64
613.36	2242.53
613.55	2480.09
613.74	2330.59
613.93	2371.55
614.13	2416.60
614.32	2510.81
614.51	2363.36
614.70	2447.32
614.89	2242.53
615.08	2326.49
615.28	2670.55
615.47	2142.18
615.66	2303.96
615.85	2299.87
616.04	2439.13
616.23	2250.72
616.42	2281.44
616.62	2226.14
616.81	2260.96
617.00	2232.29
617.19	2316.25
617.38	2201.57
617.57	2220.00
617.76	2316.25
617.95	2263.01
618.15	2301.92
618.34	2314.20
618.53	2009.06
618.72	2400.22
618.91	2303.96
619.10	2314.20
619.29	2228.19
619.48	2207.71
619.68	2146.27
619.87	2148.32
620.06	2041.82
620.25	2293.72
620.44	2185.18
620.63	2215.90
620.82	2236.38
621.01	2181.09
621.20	2172.89
621.39	2316.25
621.59	2291.68
621.78	2252.77
621.97	2277.34
622.16	2328.54
622.35	2265.05
622.54	2269.15
622.73	2301.92
622.92	2039.78
623.11	2308.06
623.30	2144.22
623.49	2213.85
623.68	2170.85
623.88	2389.98
624.07	2176.99
624.26	2256.86
624.45	2265.05
624.64	2185.18
624.83	2256.86
625.02	2228.19
625.21	2183.13
625.40	2222.05
625.59	2338.78
625.78	2176.99
625.97	2377.69
626.16	2416.60
626.35	2367.45
626.54	2318.30
626.74	2465.75
626.93	2324.44
627.12	2240.48
627.31	2291.68
627.50	2197.47
627.69	2332.64
627.88	2156.51
628.07	2183.13
628.26	2154.46
628.45	2199.52
628.64	2082.78
628.83	2277.34
629.02	2103.26
629.21	2230.24
629.40	2215.90
629.59	2154.46
629.78	2250.72
629.97	2193.37
630.16	2289.63
630.35	2172.89
630.54	2181.09
630.73	2187.23
630.92	2168.80
631.11	2179.04
631.30	2211.81
631.49	2293.72
631.68	2277.34
631.87	2287.58
632.06	2129.89
632.25	2447.32
632.44	2254.81
632.63	2332.64
632.82	2275.29
633.01	2254.81
633.20	2385.88
633.39	2322.40
633.58	2179.04
633.77	2246.62
633.96	2336.73
634.15	2285.53
634.34	2297.82
634.53	2353.12
634.72	2183.13
634.91	2107.36
635.10	2162.66
635.29	2287.58
635.48	2199.52
635.67	2144.22
635.86	2045.92
636.05	2285.53
636.24	2226.14
636.43	2236.38
636.62	2258.91
636.81	1992.67
637.00	2181.09
637.19	2258.91
637.38	2222.05
637.57	2179.04
637.76	2269.15
637.95	2289.63
638.14	2238.43
638.33	2297.82
638.52	2353.12
638.71	2170.85
638.89	2193.37
639.08	2445.27
639.27	2277.34
639.46	2533.34
639.65	2799.57
639.84	2908.12
640.03	3069.91
640.22	3035.09
640.41	2901.97
640.60	2615.26
640.79	2490.33
640.98	2451.42
641.17	2490.33
641.36	2439.13
641.55	2426.84
641.74	2195.42
641.92	2277.34
642.11	2179.04
642.30	2160.61
642.49	2129.89
642.68	2152.42
642.87	2277.34
643.06	2238.43
643.25	2187.23
643.44	2152.42
643.63	2156.51
643.82	2349.02
644.00	2095.07
644.19	2203.61
644.38	2144.22
644.57	2265.05
644.76	2185.18
644.95	2176.99
645.14	2201.57
645.33	2162.66
645.52	2217.95
645.71	2074.59
645.89	2088.93
646.08	2228.19
646.27	2172.89
646.46	2359.26
646.65	2123.74
646.84	2265.05
647.03	2080.74
647.22	2254.81
647.40	2269.15
647.59	2138.08
647.78	2125.79
647.97	2115.55
648.16	2123.74
648.35	2361.31
648.54	2285.53
648.73	2129.89
648.91	2291.68
649.10	2179.04
649.29	2121.70
649.48	2127.84
649.67	2203.61
649.86	2346.97
650.05	2220.00
650.23	2494.43
650.42	2291.68
650.61	2496.47
650.80	2426.84
650.99	2602.97
651.18	2402.27
651.36	2375.64
651.55	2228.19
651.74	2373.60
651.93	2191.33
652.12	2291.68
652.31	2263.01
652.49	2236.38
652.68	2187.23
652.87	2371.55
653.06	2209.76
653.25	2394.08
653.44	2269.15
653.62	2418.65
653.81	2187.23
654.00	2217.95
654.19	2289.63
654.38	2525.15
654.56	2297.82
654.75	2119.65
654.94	2349.02
655.13	2230.24
655.32	2152.42
655.51	2271.20
655.69	2152.42
655.88	2346.97
656.07	2066.40
656.26	2263.01
656.45	2074.59
656.63	2174.94
656.82	2228.19
657.01	2357.21
657.20	2095.07
657.38	2314.20
657.57	2181.09
657.76	2101.22
657.95	2224.09
658.14	2211.81
658.32	2242.53
658.51	2172.89
658.70	2226.14
658.89	2195.42
659.08	2152.42
659.26	2330.59
659.45	2197.47
659.64	2246.62
659.83	2195.42
660.01	2502.62
660.20	2293.72
660.39	2383.84
660.58	2039.78
660.76	2217.95
660.95	2109.41
661.14	2301.92
661.33	2121.70
661.51	2207.71
661.70	2158.56
661.89	2226.14
662.08	2138.08
662.26	2125.79
662.45	2129.89
662.64	2392.03
662.83	2238.43
663.01	2129.89
663.20	2142.18
663.39	2377.69
663.58	2136.03
663.76	2176.99
663.95	2260.96
664.14	2115.55
664.32	2162.66
664.51	2076.64
664.70	2025.44
664.89	2318.30
665.07	2097.12
665.26	2324.44
665.45	2131.94
665.64	2242.53
665.82	2224.09
666.01	2246.62
666.20	2127.84
666.38	2316.25
666.57	2375.64
666.76	3258.32
666.95	8150.92
667.13	16365.32
667.32	22017.71
667.51	25577.08
667.69	27776.60
667.88	25484.92
668.07	17932.01
668.25	14356.26
668.44	11755.34
668.63	10229.60
668.81	8982.39
669.00	7991.17
669.19	6975.38
669.38	6029.22
669.56	5328.81
669.75	4417.47
669.94	3643.34
670.12	3149.78
670.31	2783.19
670.50	2506.71
670.68	2473.95
670.87	2367.45
671.06	2213.85
671.24	2289.63
671.43	2416.60
671.62	2236.38
671.80	2207.71
671.99	2301.92
672.18	2279.39
672.36	2328.54
672.55	2346.97
672.74	2217.95
672.92	2199.52
673.11	2312.16
673.29	2129.89
673.48	2342.88
673.67	2170.85
673.85	2326.49
674.04	2168.80
674.23	2220.00
674.41	2353.12
674.60	2131.94
674.79	2050.02
674.97	2113.50
675.16	2346.97
675.34	2256.86
675.53	2084.83
675.72	2174.94
675.90	2383.84
676.09	2084.83
676.28	2256.86
676.46	2103.26
676.65	2271.20
676.83	2148.32
677.02	2201.57
677.21	2127.84
677.39	2260.96
677.58	2220.00
677.77	2138.08
677.95	2146.27
678.14	2170.85
678.32	2236.38
678.51	2136.03
678.70	2367.45
678.88	2201.57
679.07	2213.85
679.25	2215.90
679.44	2162.66
679.63	2058.21
679.81	2256.86
680.00	2238.43
680.18	2201.57
680.37	2404.32
680.55	2244.57
680.74	2031.58
680.93	2047.97
681.11	2263.01
681.30	2176.99
681.48	2228.19
681.67	2187.23
681.85	2158.56
682.04	2183.13
682.23	2281.44
682.41	2215.90
682.60	2211.81
682.78	2269.15
682.97	2131.94
683.15	2156.51
683.34	2199.52
683.53	2244.57
683.71	1990.63
683.90	2383.84
684.08	2363.36
684.27	2160.61
684.45	2248.67
684.64	2281.44
684.82	2146.27
685.01	2254.81
685.19	2162.66
685.38	2267.10
685.57	2244.57
685.75	2148.32
685.94	2129.89
686.12	2105.31
686.31	2248.67
686.49	2408.41
686.68	2043.87
686.86	2248.67
687.05	2174.94
687.23	2428.89
687.42	2232.29
687.60	2086.88
687.79	2263.01
687.97	2392.03
688.16	2310.11
688.34	2269.15
688.53	2047.97
688.71	2242.53
688.90	2224.09
689.08	2195.42
689.27	2041.82
689.45	2207.71
689.64	2215.90
689.82	2154.46
690.01	2199.52
690.19	2230.24
690.38	2209.76
690.56	2301.92
690.75	2050.02
690.93	2185.18
691.12	2074.59
691.30	2207.71
691.49	2211.81
691.67	2234.33
691.86	2332.64
692.04	2164.70
692.23	2179.04
692.41	2191.33
692.60	2457.56
692.78	2447.32
692.97	2293.72
693.15	2291.68
693.34	2359.26
693.52	2359.26
693.71	2174.94
693.89	2234.33
694.08	2097.12
694.26	2318.30
694.44	2365.40
694.63	2265.05
694.81	2080.74
695.00	2152.42
695.18	2328.54
695.37	2355.16
695.55	2176.99
695.74	2125.79
695.92	2168.80
696.10	2301.92
696.29	2154.46
696.47	2152.42
696.66	2084.83
696.84	2152.42
697.03	2187.23
697.21	2514.91
697.40	3157.97
697.58	2359.26
697.76	2195.42
697.95	2166.75
698.13	2183.13
698.32	2150.37
698.50	2228.19
698.68	2254.81
698.87	2250.72
699.05	2355.16
699.24	2199.52
699.42	2109.41
699.61	2260.96
699.79	2201.57
699.97	2209.76
700.16	2111.46
700.34	2097.12
700.53	2170.85
700.71	2381.79
700.89	2287.58
701.08	2207.71
701.26	2203.61
701.45	2766.81
701.63	2197.47
701.81	2162.66
702.00	2232.29
702.18	2174.94
702.37	2220.00
702.55	2355.16
702.73	2394.08
702.92	2357.21
703.10	2586.58
703.28	2457.56
703.47	2297.82
703.65	2465.75
703.84	2363.36
704.02	2334.68
704.20	2449.37
704.39	2234.33
704.57	2244.57
704.75	2375.64
704.94	2342.88
705.12	2285.53
705.30	2467.80
705.49	4626.36
705.67	10897.24
705.86	20156.11
706.04	24610.44
706.22	28005.97
706.41	29498.94
706.59	24848.00
706.77	17671.92
706.96	14894.88
707.14	12748.61
707.32	11059.03
707.51	9625.45
707.69	8034.18
707.87	6449.05
708.06	5357.49
708.24	4132.80
708.42	3389.39
708.61	3117.01
708.79	2463.71
708.97	2412.51
709.16	2408.41
709.34	2244.57
709.52	2164.70
709.71	2263.01
709.89	2269.15
710.07	2170.85
710.26	2183.13
710.44	2301.92
710.62	2252.77
710.80	2222.05
710.99	2277.34
711.17	2258.91
711.35	2129.89
711.54	2138.08
711.72	2328.54
711.90	2306.01
712.09	2154.46
712.27	2158.56
712.45	2301.92
712.63	2226.14
712.82	2252.77
713.00	2193.37
713.18	2201.57
713.37	2228.19
713.55	2295.77
713.73	2191.33
713.91	2234.33
714.10	2158.56
714.28	2162.66
714.46	2217.95
714.65	2291.68
714.83	2197.47
715.01	2222.05
715.19	2260.96
715.38	2150.37
715.56	2244.57
715.74	2142.18
715.92	2146.27
716.11	2449.37
716.29	2035.68
716.47	2146.27
716.65	2193.37
716.84	2058.21
717.02	2297.82
717.20	2027.49
717.38	2121.70
717.57	2238.43
717.75	2121.70
717.93	2179.04
718.11	2170.85
718.30	2123.74
718.48	2228.19
718.66	2260.96
718.84	2338.78
719.03	2209.76
719.21	2156.51
719.39	2351.07
719.57	2203.61
719.75	2285.53
719.94	2105.31
720.12	2156.51
720.30	2217.95
720.48	2277.34
720.67	2133.98
720.85	2115.55
721.03	2164.70
721.21	2138.08
721.39	2260.96
721.58	2297.82
721.76	2123.74
721.94	2183.13
722.12	2246.62
722.30	2338.78
722.49	2170.85
722.67	2185.18
722.85	2242.53
723.03	2050.02
723.21	2095.07
723.40	2254.81
723.58	2336.73
723.76	2330.59
723.94	2375.64
724.12	2267.10
724.30	2412.51
724.49	2342.88
724.67	2162.66
724.85	2359.26
725.03	2203.61
725.21	2283.49
725.40	2320.35
725.58	2109.41
725.76	2301.92
725.94	2285.53
726.12	2156.51
726.30	2224.09
726.49	2179.04
726.67	2199.52
726.85	2330.59
727.03	2523.10
727.21	3725.26
727.39	5406.64
727.57	6571.93
727.76	7288.72
727.94	7827.34
728.12	7272.34
728.30	5805.99
728.48	4882.36
728.66	4528.06
728.84	3999.68
729.03	3528.65
729.21	3211.22
729.39	2854.87
729.57	2512.86
729.75	2359.26
729.93	2363.36
730.11	2220.00
730.30	2211.81
730.48	2213.85
730.66	2373.60
730.84	2250.72
731.02	2199.52
731.20	2133.98
731.38	2244.57
731.56	2111.46
731.74	2113.50
731.93	2193.37
732.11	2267.10
732.29	2187.23
732.47	2303.96
732.65	2248.67
732.83	2322.40
733.01	2252.77
733.19	2144.22
733.37	2217.95
733.56	2205.66
733.74	2078.69
733.92	2363.36
734.10	2115.55
734.28	2256.86
734.46	1978.34
734.64	2191.33
734.82	2174.94
735.00	2113.50
735.18	2144.22
735.36	2203.61
735.54	2213.85
735.73	2136.03
735.91	2228.19
736.09	2250.72
736.27	2201.57
736.45	2285.53
736.63	2101.22
736.81	2168.80
736.99	2306.01
737.17	2301.92
737.35	2131.94
737.53	2252.77
737.71	2185.18
737.89	2240.48
738.07	2111.46
738.25	2078.69
738.43	2105.31
738.61	2166.75
738.80	2058.21
738.98	2117.60
739.16	2129.89
739.34	2070.50
739.52	2377.69
739.70	2111.46
739.88	2203.61
740.06	2244.57
740.24	1982.43
740.42	2316.25
740.60	2074.59
740.78	2146.27
740.96	2035.68
741.14	2146.27
741.32	2164.70
741.50	2105.31
741.68	2281.44
741.86	2324.44
742.04	2056.16
742.22	2152.42
742.40	2172.89
742.58	2279.39
742.76	2176.99
742.94	2301.92
743.12	2021.35
743.30	2230.24
743.48	2197.47
743.66	2140.13
743.84	2228.19
744.02	2187.23
744.20	2215.90
744.38	2138.08
744.56	2111.46
744.74	2365.40
744.92	2205.66
745.10	2400.22
745.28	2353.12
745.46	2375.64
745.64	2189.28
745.82	2332.64
746.00	2146.27
746.18	2299.87
746.36	2101.22
746.54	2269.15
746.72	2244.57
746.90	2146.27
747.08	2230.24
747.26	2176.99
747.44	2183.13
747.62	2193.37
747.80	2226.14
747.98	2316.25
748.15	2185.18
748.33	2406.36
748.51	2295.77
748.69	2185.18
748.87	2117.60
749.05	2197.47
749.23	2148.32
749.41	2199.52
749.59	2160.61
749.77	2404.32
749.95	2095.07
750.13	2056.16
750.31	2215.90
750.49	2183.13
750.67	2273.25
750.85	2306.01
751.03	2217.95
751.20	2377.69
751.38	2107.36
751.56	2209.76
751.74	2152.42
751.92	2144.22
752.10	2088.93
752.28	2318.30
752.46	2150.37
752.64	2185.18
752.82	2195.42
753.00	2265.05
753.18	2205.66
753.35	2244.57
753.53	2154.46
753.71	2121.70
753.89	2199.52
754.07	2285.53
754.25	2238.43
754.43	2211.81
754.61	2090.98
754.79	2246.62
754.97	2164.70
755.14	2369.50
755.32	2176.99
755.50	2260.96
755.68	2209.76
755.86	2088.93
756.04	2133.98
756.22	2021.35
756.40	2263.01
756.57	2367.45
756.75	2154.46
756.93	2254.81
757.11	2256.86
757.29	2185.18
757.47	2111.46
757.65	1980.39
757.82	2045.92
758.00	2111.46
758.18	2082.78
758.36	2119.65
758.54	2342.88
758.72	2060.26
758.90	2287.58
759.07	2183.13
759.25	2078.69
759.43	2176.99
759.61	2097.12
759.79	3049.43
759.97	2258.91
760.15	2197.47
760.32	2099.17
760.50	2199.52
760.68	2353.12
760.86	2121.70
761.04	2299.87
761.22	2258.91
761.39	2203.61
761.57	2258.91
761.75	2154.46
761.93	2217.95
762.11	2099.17
762.28	2105.31
762.46	2099.17
762.64	2287.58
762.82	2105.31
763.00	2170.85
763.18	2287.58
763.35	2090.98
763.53	2236.38
763.71	2228.19
763.89	2176.99
764.07	2150.37
764.24	2230.24
764.42	2293.72
764.60	2179.04
764.78	2172.89
764.96	2220.00
765.13	2217.95
765.31	2156.51
765.49	2289.63
765.67	2119.65
765.84	2168.80
766.02	2084.83
766.20	2060.26
766.38	2203.61
766.56	2193.37
766.73	2260.96
766.91	2238.43
767.09	2125.79
767.27	2240.48
767.44	2039.78
767.62	2279.39
767.80	2185.18
767.98	2195.42
768.15	2195.42
768.33	2295.77
768.51	2340.83
768.69	2299.87
768.87	2232.29
769.04	2242.53
769.22	2420.70
769.40	2359.26
769.58	2453.47
769.75	2183.13
769.93	2244.57
770.11	2062.30
770.28	2072.54
770.46	2158.56
770.64	2254.81
770.82	2148.32
770.99	2129.89
771.17	2265.05
771.35	2234.33
771.53	2154.46
771.70	2097.12
771.88	2197.47
772.06	2189.28
772.23	2226.14
772.41	2226.14
772.59	2127.84
772.77	2160.61
772.94	2101.22
773.12	2191.33
773.30	2125.79
773.47	2189.28
773.65	2125.79
773.83	2316.25
774.01	2203.61
774.18	2035.68
774.36	2220.00
774.54	2029.54
774.71	2252.77
774.89	2082.78
775.07	2107.36
775.24	2133.98
775.42	2166.75
775.60	2369.50
775.78	2064.35
775.95	2072.54
776.13	2068.45
776.31	2066.40
776.48	2162.66
776.66	2267.10
776.84	2119.65
777.01	2136.03
777.19	2107.36
777.37	2115.55
777.54	2244.57
777.72	2449.37
777.90	2254.81
778.07	2109.41
778.25	2504.67
778.43	2271.20
778.60	2113.50
778.78	2279.39
778.96	2351.07
779.13	2088.93
779.31	2250.72
779.49	2164.70
779.66	2205.66
779.84	2195.42
780.01	2224.09
780.19	2101.22
780.37	2324.44
780.54	2232.29
780.72	2109.41
780.90	2152.42
781.07	2133.98
781.25	2099.17
781.43	2248.67
781.60	2164.70
781.78	2322.40
781.95	2215.90
782.13	2172.89
782.31	2232.29
782.48	2027.49
782.66	2160.61
782.83	2316.25
783.01	2351.07
783.19	2252.77
783.36	2150.37
783.54	2123.74
783.72	2250.72
783.89	2183.13
784.07	2248.67
784.24	2211.81
784.42	2330.59
784.60	2193.37
784.77	2230.24
784.95	2021.35
785.12	2150.37
785.30	2199.52
785.47	2062.30
785.65	2125.79
785.83	2207.71
786.00	2168.80
786.18	2242.53
786.35	2050.02
786.53	2144.22
786.71	2263.01
786.88	2267.10
787.06	2207.71
787.23	2193.37
787.41	2101.22
787.58	2209.76
787.76	2168.80
787.94	2242.53
788.11	2179.04
788.29	2125.79
788.46	2093.02
788.64	2062.30
788.81	2195.42
788.99	2129.89
789.16	2072.54
789.34	2179.04
789.52	2138.08
789.69	2213.85
789.87	1992.67
790.04	2164.70
790.22	2176.99
790.39	2359.26
790.57	2103.26
790.74	2154.46
790.92	2277.34
791.09	2115.55
791.27	2148.32
791.44	2326.49
791.62	2189.28
791.79	2289.63
791.97	2205.66
792.15	2424.80
792.32	2271.20
792.50	2222.05
792.67	2310.11
792.85	2277.34
793.02	2144.22
793.20	2123.74
793.37	2007.01
793.55	2105.31
793.72	2068.45
793.90	2297.82
794.07	2115.55
794.25	2158.56
794.42	2267.10
794.60	2197.47
794.77	2146.27
794.95	2222.05
795.12	2226.14
795.30	2129.89
795.47	1982.43
795.65	2392.03
795.82	2222.05
796.00	2125.79
796.17	2199.52
796.34	2117.60
796.52	2162.66
796.69	2246.62
796.87	2236.38
797.04	2236.38
797.22	2217.95
797.39	2256.86
797.57	2240.48
797.74	2179.04
797.92	2244.57
798.09	2144.22
798.27	2267.10
798.44	2197.47
798.62	2119.65
798.79	2189.28
798.96	2220.00
799.14	2220.00
799.31	2418.65
799.49	2105.31
799.66	2066.40
799.84	2131.94
800.01	2097.12
800.19	2146.27
800.36	1970.15
800.53	2203.61
800.71	2228.19
800.88	2248.67
801.06	2121.70
801.23	2168.80
801.41	2084.83
801.58	2119.65
801.75	2158.56
801.93	2174.94
802.10	2258.91
802.28	2129.89
802.45	2101.22
802.63	2281.44
802.80	2267.10
802.97	2156.51
803.15	2117.60
803.32	2154.46
803.50	2133.98
803.67	2138.08
803.84	2029.54
804.02	2162.66
804.19	2203.61
804.37	2043.87
804.54	2103.26
804.71	2211.81
804.89	2244.57
805.06	2148.32
805.24	2097.12
805.41	2047.97
805.58	2121.70
805.76	2338.78
805.93	2220.00
806.10	2277.34
806.28	2236.38
806.45	2211.81
806.63	2154.46
806.80	2195.42
806.97	2185.18
807.15	2244.57
807.32	2183.13
807.49	2203.61
807.67	2082.78
807.84	2131.94
808.01	2019.30
808.19	2320.35
808.36	2430.94
808.54	2088.93
808.71	2152.42
808.88	2195.42
809.06	2220.00
809.23	2340.83
809.40	2127.84
809.58	2228.19
809.75	2252.77
809.92	2064.35
810.10	2353.12
810.27	2176.99
810.44	2226.14
810.62	2285.53
810.79	2217.95
810.96	2136.03
811.14	2144.22
811.31	2260.96
811.48	2273.25
811.66	2207.71
811.83	2273.25
812.00	2301.92
812.18	2207.71
812.35	2420.70
812.52	2193.37
812.69	2119.65
812.87	2224.09
813.04	2113.50
813.21	2179.04
813.39	2162.66
813.56	2078.69
813.73	2275.29
813.91	2111.46
814.08	2142.18
814.25	2170.85
814.42	2052.06
814.60	2205.66
814.77	2138.08
814.94	2265.05
815.12	2197.47
815.29	2291.68
815.46	2133.98
815.63	2220.00
815.81	2162.66
815.98	2162.66
816.15	2154.46
816.33	2203.61
816.50	2176.99
816.67	2160.61
816.84	2203.61
817.02	2105.31
817.19	2220.00
817.36	2209.76
817.53	2242.53
817.71	2097.12
817.88	2213.85
818.05	2181.09
818.22	2117.60
818.40	2338.78
818.57	2174.94
818.74	2205.66
818.91	2195.42
819.09	2293.72
819.26	2228.19
819.43	2113.50
819.60	2011.11
819.78	2306.01
819.95	2250.72
820.12	2072.54
820.29	2277.34
820.47	2273.25
820.64	2129.89
820.81	2105.31
820.98	2105.31
821.15	2179.04
821.33	2248.67
821.50	2031.58
821.67	2320.35
821.84	2107.36
822.02	2263.01
822.19	2351.07
822.36	2191.33
822.53	2160.61
822.70	2103.26
822.88	2131.94
823.05	2316.25
823.22	2099.17
823.39	2269.15
823.56	2179.04
823.74	2334.68
823.91	2109.41
824.08	2123.74
824.25	2097.12
824.42	2326.49
824.60	2117.60
824.77	2217.95
824.94	2121.70
825.11	2295.77
825.28	2011.11
825.45	2209.76
825.63	2224.09
825.80	2082.78
825.97	2236.38
826.14	2252.77
826.31	2007.01
826.48	2267.10
826.66	2160.61
826.83	2097.12
827.00	2191.33
827.17	2086.88
827.34	2121.70
827.51	2191.33
827.69	2117.60
827.86	2119.65
828.03	2129.89
828.20	2174.94
828.37	2174.94
828.54	2209.76
828.71	2113.50
828.89	2334.68
829.06	2228.19
829.23	2265.05
829.40	2193.37
829.57	2125.79
829.74	2289.63
829.91	2101.22
830.09	2162.66
830.26	2187.23
830.43	2275.29
830.60	2129.89
830.77	2207.71
830.94	2248.67
831.11	2211.81
831.28	2162.66
831.46	2269.15
831.63	2076.64
831.80	2267.10
831.97	2031.58
832.14	2156.51
832.31	2189.28
832.48	2162.66
832.65	2224.09
832.82	2170.85
832.99	2213.85
833.17	2084.83
833.34	2246.62
833.51	2234.33
833.68	2025.44
833.85	2289.63
834.02	2070.50
834.19	2105.31
834.36	2154.46
834.53	2269.15
834.70	2220.00
834.87	2191.33
835.04	2097.12
835.22	2117.60
835.39	2119.65
835.56	2099.17
835.73	2176.99
835.90	2256.86
836.07	2131.94
836.24	2230.24
836.41	2113.50
836.58	2162.66
836.75	2338.78
836.92	2142.18
837.09	2037.73
837.26	2320.35
837.43	2183.13
837.60	2195.42
837.77	2179.04
837.94	2334.68
838.12	2256.86
838.29	2095.07
838.46	2060.26
838.63	2074.59
838.80	2375.64
838.97	2228.19
839.14	2203.61
839.31	2201.57
839.48	2285.53
839.65	2107.36
839.82	2254.81
839.99	2211.81
840.16	2209.76
840.33	2107.36
840.50	2152.42
840.67	2121.70
840.84	1947.62
841.01	2138.08
841.18	2105.31
841.35	2138.08
841.52	2273.25
841.69	2359.26
841.86	2158.56
842.03	2166.75
842.20	2242.53
842.37	2193.37
842.54	2160.61
842.71	2265.05
842.88	2062.30
843.05	2193.37
843.22	2156.51
843.39	2248.67
843.56	2140.13
843.73	2109.41
843.90	2277.34
844.07	2197.47
844.24	2277.34
844.41	2150.37
844.58	2158.56
844.75	2166.75
844.92	2222.05
845.09	2183.13
845.26	2101.22
845.43	2230.24
845.60	2154.46
845.77	2201.57
845.94	2187.23
846.10	2168.80
846.27	2103.26
846.44	2103.26
846.61	2088.93
846.78	2162.66
846.95	2277.34
847.12	1957.86
847.29	2195.42
847.46	2129.89
847.63	2297.82
847.80	2103.26
847.97	2199.52
848.14	2351.07
848.31	2138.08
848.48	2056.16
848.65	2179.04
848.82	2113.50
848.98	2355.16
849.15	2133.98
849.32	2267.10
849.49	2273.25
849.66	2228.19
849.83	2129.89
850.00	2097.12
850.17	2252.77
850.34	2148.32
850.51	2078.69
850.68	2213.85
850.85	2340.83
851.01	2129.89
851.18	2189.28
851.35	2176.99
851.52	2258.91
851.69	2285.53
851.86	2072.54
852.03	2068.45
852.20	2277.34
852.37	2256.86
852.53	2043.87
852.70	2121.70
852.87	2205.66
853.04	2318.30
853.21	2197.47
853.38	2281.44
853.55	2299.87
853.72	2234.33
853.89	2123.74
854.05	2150.37
854.22	2172.89
854.39	2154.46
854.56	2179.04
854.73	2322.40
854.90	2146.27
855.07	2179.04
855.23	2105.31
855.40	2187.23
855.57	2193.37
855.74	1968.10
855.91	2398.17
856.08	2068.45
856.25	2084.83
856.41	2162.66
856.58	2086.88
856.75	2107.36
856.92	2084.83
857.09	2297.82
857.26	2021.35
857.42	2037.73
857.59	2279.39
857.76	2113.50
857.93	2113.50
858.10	2097.12
858.27	2035.68
858.43	2281.44
858.60	2140.13
858.77	2033.63
858.94	2113.50
859.11	2310.11
859.27	2146.27
859.44	2111.46
859.61	2426.84
859.78	2267.10
859.95	2129.89
860.12	2099.17
860.28	2361.31
860.45	2295.77
860.62	2117.60
860.79	2156.51
860.95	2156.51
861.12	2209.76
861.29	2086.88
861.46	2060.26
861.63	2097.12
861.79	2199.52
861.96	2076.64
862.13	2127.84
862.30	2263.01
862.47	2119.65
862.63	2129.89
862.80	2217.95
862.97	2267.10
863.14	2260.96
863.30	2142.18
863.47	2097.12
863.64	2424.80
863.81	2248.67
863.97	2152.42
864.14	2195.42
864.31	2160.61
864.48	2172.89
864.65	2105.31
864.81	2240.48
864.98	2244.57
865.15	2183.13
865.32	2201.57
865.48	2213.85
865.65	2326.49
865.82	2168.80
865.98	2183.13
866.15	2310.11
866.32	2195.42
866.49	2068.45
866.65	2250.72
866.82	2056.16
866.99	2195.42
867.16	2097.12
867.32	2064.35
867.49	2179.04
867.66	2119.65
867.83	2166.75
867.99	2078.69
868.16	2201.57
868.33	2043.87
868.49	2189.28
868.66	2123.74
868.83	2224.09
868.99	2179.04
869.16	2220.00
869.33	2252.77
869.50	2260.96
869.66	2158.56
869.83	2193.37
870.00	2109.41
870.16	2146.27
870.33	2174.94
870.50	2271.20
870.66	2248.67
870.83	2267.10
871.00	2258.91
871.17	2183.13
871.33	2260.96
871.50	2115.55
871.67	2156.51
871.83	2105.31
872.00	2244.57
872.17	2138.08
872.33	2281.44
872.50	2365.40
872.67	2156.51
872.83	2045.92
873.00	2269.15
873.17	2240.48
873.33	2242.53
873.50	2252.77
873.67	2084.83
873.83	2113.50
874.00	2095.07
874.16	2306.01
874.33	2199.52
874.50	2047.97
874.66	2144.22
874.83	2193.37
875.00	2297.82
875.16	2367.45
875.33	2185.18
875.50	2015.20
875.66	2119.65
875.83	2166.75
875.99	2211.81
876.16	2144.22
876.33	2107.36
876.49	2146.27
876.66	2150.37
876.83	2228.19
876.99	2035.68
877.16	2109.41
877.32	2162.66
877.49	2144.22
877.66	2209.76
877.82	2357.21
877.99	2162.66
878.15	2287.58
878.32	2244.57
878.49	2222.05
878.65	2086.88
878.82	2279.39
878.98	2162.66
879.15	2336.73
879.32	2199.52
879.48	2201.57
879.65	2150.37
879.81	2176.99
879.98	2090.98
880.15	2152.42
880.31	2236.38
880.48	2138.08
880.64	2152.42
880.81	2242.53
880.97	2340.83
881.14	2269.15
881.31	2088.93
881.47	2351.07
881.64	2144.22
881.80	2060.26
881.97	2228.19
882.13	2234.33
882.30	2111.46
882.47	2131.94
882.63	2113.50
882.80	2170.85
882.96	2125.79
883.13	2346.97
883.29	2109.41
883.46	2213.85
883.62	2379.74
883.79	2281.44
883.95	2283.49
884.12	2113.50
884.29	2306.01
884.45	2176.99
884.62	2232.29
884.78	2095.07
884.95	2359.26
885.11	2111.46
885.28	2211.81
885.44	2125.79
885.61	2197.47
885.77	2242.53
885.94	2226.14
886.10	2199.52
886.27	2189.28
886.43	2297.82
886.60	2295.77
886.76	2138.08
886.93	2170.85
887.09	2226.14
887.26	2105.31
887.42	2168.80
887.59	2277.34
887.75	2392.03
887.92	2260.96
888.08	2250.72
888.25	2283.49
888.41	2301.92
888.58	2121.70
888.74	2074.59
888.91	2146.27
>>>>>End Processed Spectral Data<<<<<
