SpectraSuite Data File
++++++++++++++++++++++++++++++++++++
Date: Thu May 05 12:35:21 CEST 2016
User: root
Dark Spectrum Present: No
Reference Spectrum Present: No
Number of Sampled Component Spectra: 1
Spectrometers: USB4C02835
Integration Time (usec): 100000 (USB4C02835)
Spectra Averaged: 1 (USB4C02835)
Boxcar Smoothing: 0 (USB4C02835)
Correct for Electrical Dark: No (USB4C02835)
Strobe/Lamp Enabled: No (USB4C02835)
Correct for Detector Non-linearity: No (USB4C02835)
Correct for Stray Light: No (USB4C02835)
Number of Pixels in Processed Spectrum: 3648
>>>>>Begin Processed Spectral Data<<<<<
177.47	1777.64
177.69	1777.64
177.91	1777.64
178.13	1697.77
178.36	1832.93
178.58	2121.70
178.80	2185.18
179.02	2078.69
179.24	2060.26
179.46	2060.26
179.68	2230.24
179.90	2183.13
180.13	2172.89
180.35	2099.17
180.57	2113.50
180.79	2230.24
181.01	2187.23
181.23	2181.09
181.45	2291.68
181.67	2181.09
181.90	2289.63
182.12	2068.45
182.34	1986.53
182.56	2291.68
182.78	2267.10
183.00	2123.74
183.22	2220.00
183.44	2052.06
183.66	2457.56
183.89	2234.33
184.11	2172.89
184.33	2228.19
184.55	2314.20
184.77	2193.37
184.99	2162.66
185.21	2109.41
185.43	2408.41
185.65	2109.41
185.87	2140.13
186.10	2428.89
186.32	2410.46
186.54	2203.61
186.76	2238.43
186.98	2189.28
187.20	2133.98
187.42	2142.18
187.64	2187.23
187.86	2181.09
188.08	2357.21
188.30	2064.35
188.52	2146.27
188.75	2318.30
188.97	2373.60
189.19	2150.37
189.41	2160.61
189.63	2324.44
189.85	2103.26
190.07	2027.49
190.29	2058.21
190.51	2275.29
190.73	2015.20
190.95	2236.38
191.17	2148.32
191.39	2045.92
191.61	2107.36
191.84	2146.27
192.06	2207.71
192.28	2088.93
192.50	2416.60
192.72	2168.80
192.94	2111.46
193.16	2297.82
193.38	2183.13
193.60	2095.07
193.82	2179.04
194.04	2267.10
194.26	2146.27
194.48	2138.08
194.70	2119.65
194.92	2097.12
195.14	2201.57
195.36	2074.59
195.58	2123.74
195.80	2162.66
196.02	2129.89
196.24	2082.78
196.46	2158.56
196.69	2084.83
196.91	2439.13
197.13	2101.22
197.35	2066.40
197.57	2318.30
197.79	2252.77
198.01	2160.61
198.23	2201.57
198.45	2234.33
198.67	2095.07
198.89	2105.31
199.11	2236.38
199.33	2113.50
199.55	1992.67
199.77	2080.74
199.99	2275.29
200.21	2152.42
200.43	2172.89
200.65	2080.74
200.87	2017.25
201.09	2211.81
201.31	2183.13
201.53	2230.24
201.75	2076.64
201.97	2170.85
202.19	2187.23
202.41	2232.29
202.63	2283.49
202.85	2269.15
203.07	2273.25
203.29	2052.06
203.51	2084.83
203.73	2152.42
203.95	2441.18
204.17	2127.84
204.39	2185.18
204.61	2084.83
204.83	2142.18
205.05	2176.99
205.27	2138.08
205.49	2318.30
205.71	2252.77
205.93	2047.97
206.15	2058.21
206.37	2150.37
206.59	2228.19
206.81	2072.54
207.03	2025.44
207.25	2070.50
207.47	2256.86
207.69	2205.66
207.91	2330.59
208.13	2351.07
208.34	2105.31
208.56	2111.46
208.78	2136.03
209.00	2150.37
209.22	2172.89
209.44	2187.23
209.66	2076.64
209.88	2199.52
210.10	2140.13
210.32	2150.37
210.54	2236.38
210.76	2193.37
210.98	2314.20
211.20	1966.05
211.42	2133.98
211.64	2260.96
211.86	2252.77
212.08	2185.18
212.30	2109.41
212.52	2103.26
212.74	2179.04
212.96	2115.55
213.17	2193.37
213.39	2242.53
213.61	2357.21
213.83	2215.90
214.05	2099.17
214.27	2308.06
214.49	2074.59
214.71	2127.84
214.93	2215.90
215.15	2174.94
215.37	2355.16
215.59	2082.78
215.81	2152.42
216.03	2258.91
216.24	2164.70
216.46	2121.70
216.68	2142.18
216.90	2320.35
217.12	2322.40
217.34	2133.98
217.56	2176.99
217.78	2289.63
218.00	2285.53
218.22	2226.14
218.44	2154.46
218.66	2211.81
218.87	2400.22
219.09	2115.55
219.31	2146.27
219.53	2217.95
219.75	2154.46
219.97	2146.27
220.19	2095.07
220.41	2152.42
220.63	2312.16
220.85	2181.09
221.06	2064.35
221.28	2297.82
221.50	2289.63
221.72	2078.69
221.94	2172.89
222.16	2234.33
222.38	2299.87
222.60	2125.79
222.82	2136.03
223.03	2285.53
223.25	2162.66
223.47	2146.27
223.69	2312.16
223.91	2273.25
224.13	2197.47
224.35	2109.41
224.57	2281.44
224.78	2293.72
225.00	2052.06
225.22	2187.23
225.44	2160.61
225.66	2328.54
225.88	2144.22
226.10	2252.77
226.32	2185.18
226.53	2273.25
226.75	2160.61
226.97	2174.94
227.19	2125.79
227.41	2117.60
227.63	2185.18
227.85	1998.82
228.06	2115.55
228.28	2236.38
228.50	2271.20
228.72	2070.50
228.94	2074.59
229.16	1931.23
229.37	2095.07
229.59	2039.78
229.81	2252.77
230.03	2166.75
230.25	2054.11
230.47	2070.50
230.69	2015.20
230.90	2244.57
231.12	2179.04
231.34	2133.98
231.56	2181.09
231.78	2064.35
232.00	2205.66
232.21	2209.76
232.43	2152.42
232.65	1990.63
232.87	2287.58
233.09	2074.59
233.30	2131.94
233.52	2260.96
233.74	2109.41
233.96	2058.21
234.18	2185.18
234.40	2179.04
234.61	2361.31
234.83	2072.54
235.05	1982.43
235.27	2416.60
235.49	2312.16
235.70	2170.85
235.92	2281.44
236.14	2238.43
236.36	2424.80
236.58	2045.92
236.79	2152.42
237.01	2164.70
237.23	2283.49
237.45	2340.83
237.67	2103.26
237.88	2260.96
238.10	2367.45
238.32	2060.26
238.54	2205.66
238.76	2236.38
238.97	2045.92
239.19	2074.59
239.41	2277.34
239.63	2285.53
239.85	2109.41
240.06	2127.84
240.28	2115.55
240.50	2269.15
240.72	2154.46
240.93	2076.64
241.15	2256.86
241.37	2289.63
241.59	2306.01
241.81	2127.84
242.02	2152.42
242.24	2185.18
242.46	2277.34
242.68	2060.26
242.89	2125.79
243.11	2254.81
243.33	2183.13
243.55	2107.36
243.76	2195.42
243.98	2138.08
244.20	2201.57
244.42	2170.85
244.64	2107.36
244.85	2025.44
245.07	2119.65
245.29	2193.37
245.51	2103.26
245.72	2240.48
245.94	2306.01
246.16	2162.66
246.38	2115.55
246.59	2099.17
246.81	2103.26
247.03	2097.12
247.24	2013.15
247.46	2115.55
247.68	2174.94
247.90	2123.74
248.11	2187.23
248.33	2224.09
248.55	2185.18
248.77	2260.96
248.98	2211.81
249.20	2263.01
249.42	2189.28
249.64	2152.42
249.85	2119.65
250.07	2127.84
250.29	2258.91
250.50	2185.18
250.72	2058.21
250.94	2265.05
251.16	2408.41
251.37	2179.04
251.59	2140.13
251.81	2205.66
252.02	2299.87
252.24	2150.37
252.46	2252.77
252.68	2103.26
252.89	2127.84
253.11	1996.77
253.33	2215.90
253.54	2383.84
253.76	2039.78
253.98	2086.88
254.20	2101.22
254.41	2113.50
254.63	2179.04
254.85	1984.48
255.06	2176.99
255.28	2191.33
255.50	2162.66
255.71	2090.98
255.93	2019.30
256.15	2164.70
256.36	2236.38
256.58	2099.17
256.80	2035.68
257.02	2146.27
257.23	2176.99
257.45	2119.65
257.67	2217.95
257.88	2138.08
258.10	2170.85
258.32	2166.75
258.53	2209.76
258.75	2342.88
258.97	2121.70
259.18	2230.24
259.40	2152.42
259.62	2396.12
259.83	2332.64
260.05	2228.19
260.27	2598.87
260.48	2226.14
260.70	2105.31
260.92	2115.55
261.13	2224.09
261.35	2287.58
261.57	2179.04
261.78	2101.22
262.00	2080.74
262.22	2283.49
262.43	2099.17
262.65	2146.27
262.86	2191.33
263.08	2342.88
263.30	2176.99
263.51	2015.20
263.73	2076.64
263.95	2326.49
264.16	2179.04
264.38	2060.26
264.60	2162.66
264.81	2203.61
265.03	2258.91
265.25	2293.72
265.46	2222.05
265.68	2254.81
265.89	2269.15
266.11	2019.30
266.33	2146.27
266.54	2355.16
266.76	2187.23
266.98	2185.18
267.19	2205.66
267.41	2320.35
267.62	2197.47
267.84	2027.49
268.06	2213.85
268.27	2252.77
268.49	2263.01
268.70	2133.98
268.92	2191.33
269.14	2144.22
269.35	2095.07
269.57	2119.65
269.79	2220.00
270.00	2150.37
270.22	2301.92
270.43	2097.12
270.65	2009.06
270.87	2220.00
271.08	2369.50
271.30	2224.09
271.51	2103.26
271.73	2238.43
271.95	2279.39
272.16	2097.12
272.38	2211.81
272.59	2162.66
272.81	2346.97
273.02	2133.98
273.24	2269.15
273.46	2273.25
273.67	2142.18
273.89	2084.83
274.10	2093.02
274.32	2293.72
274.54	2181.09
274.75	2211.81
274.97	2136.03
275.18	2207.71
275.40	2205.66
275.61	2193.37
275.83	2232.29
276.05	2039.78
276.26	2172.89
276.48	2203.61
276.69	2133.98
276.91	2170.85
277.12	2334.68
277.34	2267.10
277.55	2224.09
277.77	2267.10
277.99	2105.31
278.20	2133.98
278.42	2078.69
278.63	2158.56
278.85	2095.07
279.06	2062.30
279.28	2228.19
279.49	2277.34
279.71	2326.49
279.93	2232.29
280.14	2203.61
280.36	2125.79
280.57	2260.96
280.79	2242.53
281.00	2138.08
281.22	2127.84
281.43	2295.77
281.65	1990.63
281.86	2125.79
282.08	2226.14
282.29	2392.03
282.51	2033.63
282.73	2187.23
282.94	2056.16
283.16	2244.57
283.37	2349.02
283.59	2199.52
283.80	2236.38
284.02	2224.09
284.23	2185.18
284.45	2209.76
284.66	2052.06
284.88	2129.89
285.09	2269.15
285.31	2222.05
285.52	2299.87
285.74	2101.22
285.95	2277.34
286.17	2250.72
286.38	2297.82
286.60	2109.41
286.81	2064.35
287.03	2146.27
287.24	2179.04
287.46	2236.38
287.67	2181.09
287.89	2332.64
288.10	2154.46
288.32	2242.53
288.53	2359.26
288.75	2217.95
288.96	2246.62
289.18	2164.70
289.39	2105.31
289.61	2172.89
289.82	2387.93
290.04	2373.60
290.25	2115.55
290.47	2201.57
290.68	2185.18
290.90	2172.89
291.11	2103.26
291.33	2279.39
291.54	2105.31
291.76	2111.46
291.97	2205.66
292.18	2240.48
292.40	2191.33
292.61	2062.30
292.83	2375.64
293.04	2211.81
293.26	2234.33
293.47	2265.05
293.69	2195.42
293.90	2217.95
294.12	2293.72
294.33	2150.37
294.55	2138.08
294.76	2258.91
294.97	2277.34
295.19	2387.93
295.40	2086.88
295.62	2224.09
295.83	2314.20
296.05	2156.51
296.26	2260.96
296.48	2168.80
296.69	2138.08
296.90	2174.94
297.12	2285.53
297.33	2269.15
297.55	2205.66
297.76	2248.67
297.98	2299.87
298.19	2166.75
298.41	2146.27
298.62	2162.66
298.83	2365.40
299.05	2217.95
299.26	2150.37
299.48	2138.08
299.69	2195.42
299.90	2176.99
300.12	2150.37
300.33	2281.44
300.55	2213.85
300.76	2215.90
300.98	2127.84
301.19	2328.54
301.40	2203.61
301.62	2150.37
301.83	2269.15
302.05	2299.87
302.26	2168.80
302.47	2179.04
302.69	2099.17
302.90	2211.81
303.12	2011.11
303.33	2244.57
303.54	2420.70
303.76	2191.33
303.97	2224.09
304.19	2297.82
304.40	2090.98
304.61	2228.19
304.83	2299.87
305.04	2308.06
305.26	2279.39
305.47	2258.91
305.68	2265.05
305.90	2117.60
306.11	2301.92
306.33	2217.95
306.54	2131.94
306.75	2129.89
306.97	2035.68
307.18	2074.59
307.39	2093.02
307.61	2285.53
307.82	2164.70
308.04	2250.72
308.25	2078.69
308.46	2197.47
308.68	2228.19
308.89	2150.37
309.10	2256.86
309.32	2228.19
309.53	2142.18
309.74	2240.48
309.96	2207.71
310.17	2252.77
310.39	2088.93
310.60	2269.15
310.81	2162.66
311.03	2076.64
311.24	2228.19
311.45	2215.90
311.67	2381.79
311.88	2170.85
312.09	2166.75
312.31	2187.23
312.52	2160.61
312.73	2111.46
312.95	2117.60
313.16	2146.27
313.37	2306.01
313.59	2195.42
313.80	2404.32
314.01	2299.87
314.23	2129.89
314.44	2158.56
314.65	2125.79
314.87	2152.42
315.08	2129.89
315.29	2197.47
315.51	2086.88
315.72	2103.26
315.93	2271.20
316.15	2222.05
316.36	2129.89
316.57	2242.53
316.79	2248.67
317.00	2164.70
317.21	2168.80
317.43	2086.88
317.64	2170.85
317.85	2101.22
318.07	2095.07
318.28	2285.53
318.49	2318.30
318.70	2445.27
318.92	2293.72
319.13	2359.26
319.34	2465.75
319.56	2328.54
319.77	2361.31
319.98	2318.30
320.20	2312.16
320.41	2246.62
320.62	2365.40
320.83	2113.50
321.05	2400.22
321.26	2187.23
321.47	2232.29
321.69	2248.67
321.90	2111.46
322.11	2105.31
322.32	2193.37
322.54	2332.64
322.75	2191.33
322.96	2447.32
323.18	2088.93
323.39	2041.82
323.60	2056.16
323.81	2285.53
324.03	2068.45
324.24	2291.68
324.45	2226.14
324.66	2150.37
324.88	2357.21
325.09	2287.58
325.30	2107.36
325.52	2127.84
325.73	2289.63
325.94	2140.13
326.15	2099.17
326.37	2140.13
326.58	2267.10
326.79	2344.92
327.00	2129.89
327.22	2152.42
327.43	2103.26
327.64	2160.61
327.85	2222.05
328.07	2183.13
328.28	2400.22
328.49	2185.18
328.70	2105.31
328.92	2146.27
329.13	2172.89
329.34	2279.39
329.55	2314.20
329.76	2199.52
329.98	2158.56
330.19	2289.63
330.40	2215.90
330.61	2279.39
330.83	2246.62
331.04	2133.98
331.25	2170.85
331.46	2111.46
331.68	2107.36
331.89	2310.11
332.10	2252.77
332.31	2097.12
332.52	2107.36
332.74	2387.93
332.95	2088.93
333.16	2050.02
333.37	2209.76
333.58	2160.61
333.80	2193.37
334.01	1996.77
334.22	2133.98
334.43	2111.46
334.64	2150.37
334.86	2176.99
335.07	2181.09
335.28	2383.84
335.49	2084.83
335.70	2234.33
335.92	2301.92
336.13	2432.99
336.34	2220.00
336.55	2199.52
336.76	2232.29
336.98	2007.01
337.19	2109.41
337.40	2426.84
337.61	2344.92
337.82	2158.56
338.04	2174.94
338.25	2072.54
338.46	2154.46
338.67	2144.22
338.88	2025.44
339.09	1992.67
339.31	2154.46
339.52	2050.02
339.73	2056.16
339.94	2113.50
340.15	2285.53
340.36	2056.16
340.58	2215.90
340.79	2117.60
341.00	2281.44
341.21	2168.80
341.42	2330.59
341.63	2172.89
341.85	2308.06
342.06	2176.99
342.27	2113.50
342.48	2260.96
342.69	2080.74
342.90	2254.81
343.12	2291.68
343.33	2127.84
343.54	2289.63
343.75	2301.92
343.96	2168.80
344.17	2095.07
344.38	2183.13
344.60	2136.03
344.81	2103.26
345.02	2131.94
345.23	2342.88
345.44	2424.80
345.65	2295.77
345.86	2179.04
346.07	2191.33
346.29	2162.66
346.50	2228.19
346.71	2228.19
346.92	2295.77
347.13	2355.16
347.34	2168.80
347.55	2201.57
347.76	2248.67
347.98	2004.96
348.19	2158.56
348.40	2234.33
348.61	2203.61
348.82	2330.59
349.03	2248.67
349.24	2080.74
349.45	2369.50
349.66	2013.15
349.88	2146.27
350.09	2138.08
350.30	2324.44
350.51	2279.39
350.72	2187.23
350.93	2211.81
351.14	2127.84
351.35	2273.25
351.56	2154.46
351.77	2211.81
351.99	2232.29
352.20	2420.70
352.41	2295.77
352.62	2013.15
352.83	2152.42
353.04	2228.19
353.25	2179.04
353.46	2224.09
353.67	2258.91
353.88	1988.58
354.09	2156.51
354.30	2129.89
354.52	2291.68
354.73	2170.85
354.94	2103.26
355.15	2228.19
355.36	2365.40
355.57	2176.99
355.78	2258.91
355.99	2123.74
356.20	2158.56
356.41	2252.77
356.62	2215.90
356.83	2121.70
357.04	2295.77
357.25	2056.16
357.46	2105.31
357.68	2027.49
357.89	2150.37
358.10	2265.05
358.31	2246.62
358.52	2174.94
358.73	2062.30
358.94	2123.74
359.15	2174.94
359.36	2199.52
359.57	2215.90
359.78	2154.46
359.99	2252.77
360.20	2068.45
360.41	2136.03
360.62	2191.33
360.83	2152.42
361.04	2260.96
361.25	2205.66
361.46	2291.68
361.67	2297.82
361.88	2133.98
362.09	2277.34
362.30	2346.97
362.51	2111.46
362.72	2191.33
362.93	2351.07
363.14	2363.36
363.35	2207.71
363.56	2045.92
363.78	2234.33
363.99	2260.96
364.20	2101.22
364.41	2215.90
364.62	2400.22
364.83	2209.76
365.04	2179.04
365.25	2140.13
365.46	2418.65
365.67	2179.04
365.88	2193.37
366.09	2156.51
366.30	2097.12
366.51	2217.95
366.72	2105.31
366.93	2193.37
367.14	2179.04
367.35	2306.01
367.56	2168.80
367.77	2252.77
367.98	2222.05
368.18	2295.77
368.39	2209.76
368.60	2105.31
368.81	2256.86
369.02	2232.29
369.23	2174.94
369.44	2029.54
369.65	2144.22
369.86	2183.13
370.07	2287.58
370.28	2154.46
370.49	2269.15
370.70	2291.68
370.91	2154.46
371.12	2004.96
371.33	2281.44
371.54	2107.36
371.75	2414.56
371.96	2017.25
372.17	2162.66
372.38	2230.24
372.59	2226.14
372.80	2215.90
373.01	2117.60
373.22	2199.52
373.43	2203.61
373.64	2113.50
373.85	2392.03
374.06	2396.12
374.26	2332.64
374.47	2234.33
374.68	2318.30
374.89	2283.49
375.10	2164.70
375.31	2236.38
375.52	2170.85
375.73	2209.76
375.94	2074.59
376.15	2238.43
376.36	2211.81
376.57	2162.66
376.78	2179.04
376.99	2166.75
377.20	2256.86
377.40	2228.19
377.61	2349.02
377.82	2117.60
378.03	2328.54
378.24	2220.00
378.45	2220.00
378.66	2260.96
378.87	1974.24
379.08	2103.26
379.29	2113.50
379.50	2381.79
379.71	2111.46
379.91	2297.82
380.12	2160.61
380.33	2203.61
380.54	2244.57
380.75	2248.67
380.96	2162.66
381.17	2326.49
381.38	2187.23
381.59	2209.76
381.80	2084.83
382.00	2383.84
382.21	2236.38
382.42	2422.75
382.63	2420.70
382.84	2281.44
383.05	2308.06
383.26	2389.98
383.47	2238.43
383.68	2269.15
383.88	2201.57
384.09	2172.89
384.30	2394.08
384.51	2226.14
384.72	2111.46
384.93	2113.50
385.14	2187.23
385.35	2379.74
385.55	2095.07
385.76	2324.44
385.97	2162.66
386.18	2101.22
386.39	2150.37
386.60	2172.89
386.81	2197.47
387.02	2068.45
387.22	2148.32
387.43	2297.82
387.64	2248.67
387.85	2420.70
388.06	2451.42
388.27	3977.16
388.48	8503.17
388.68	12443.46
388.89	14538.53
389.10	15877.90
389.31	14511.91
389.52	11302.74
389.73	10061.67
389.93	9058.17
390.14	8187.78
390.35	7376.78
390.56	6647.71
390.77	5472.17
390.98	4218.82
391.18	3196.88
391.39	2715.61
391.60	2334.68
391.81	2422.75
392.02	2238.43
392.23	2416.60
392.43	2263.01
392.64	2342.88
392.85	2265.05
393.06	2322.40
393.27	2291.68
393.47	2095.07
393.68	2187.23
393.89	2160.61
394.10	2273.25
394.31	2166.75
394.52	2209.76
394.72	2127.84
394.93	2424.80
395.14	2162.66
395.35	2281.44
395.56	2076.64
395.76	2160.61
395.97	2187.23
396.18	2351.07
396.39	2346.97
396.60	2676.70
396.80	2418.65
397.01	2414.56
397.22	2383.84
397.43	2322.40
397.64	2220.00
397.84	2232.29
398.05	2435.03
398.26	2191.33
398.47	2326.49
398.67	2334.68
398.88	2211.81
399.09	2314.20
399.30	2148.32
399.51	2275.29
399.71	2101.22
399.92	2170.85
400.13	2324.44
400.34	2125.79
400.54	2205.66
400.75	2367.45
400.96	2250.72
401.17	2303.96
401.37	2344.92
401.58	2228.19
401.79	2195.42
402.00	2297.82
402.21	2576.34
402.41	2543.58
402.62	2586.58
402.83	2697.17
403.04	2572.25
403.24	2695.13
403.45	2359.26
403.66	2465.75
403.87	2402.27
404.07	2463.71
404.28	2473.95
404.49	2404.32
404.70	2269.15
404.90	2396.12
405.11	2287.58
405.32	2201.57
405.52	2066.40
405.73	2127.84
405.94	2150.37
406.15	2174.94
406.35	2250.72
406.56	2263.01
406.77	2193.37
406.98	2271.20
407.18	2170.85
407.39	2258.91
407.60	2195.42
407.80	2265.05
408.01	2133.98
408.22	2256.86
408.43	2138.08
408.63	2236.38
408.84	2275.29
409.05	2213.85
409.25	2148.32
409.46	2183.13
409.67	2144.22
409.88	2176.99
410.08	2258.91
410.29	2154.46
410.50	2248.67
410.70	2226.14
410.91	2179.04
411.12	2217.95
411.32	2220.00
411.53	2054.11
411.74	2367.45
411.95	2301.92
412.15	2256.86
412.36	2351.07
412.57	2318.30
412.77	2371.55
412.98	2269.15
413.19	2207.71
413.39	2310.11
413.60	2209.76
413.81	2299.87
414.01	2121.70
414.22	2203.61
414.43	2316.25
414.63	2203.61
414.84	2306.01
415.05	2234.33
415.25	2027.49
415.46	2195.42
415.67	2201.57
415.87	2260.96
416.08	2174.94
416.29	2113.50
416.49	2170.85
416.70	2189.28
416.91	2111.46
417.11	2240.48
417.32	2308.06
417.53	2220.00
417.73	2215.90
417.94	2220.00
418.15	2207.71
418.35	2176.99
418.56	2193.37
418.77	2471.90
418.97	2125.79
419.18	2138.08
419.38	1978.34
419.59	2166.75
419.80	2316.25
420.00	2095.07
420.21	2166.75
420.42	2260.96
420.62	2250.72
420.83	2138.08
421.04	2129.89
421.24	2181.09
421.45	2287.58
421.65	2207.71
421.86	2213.85
422.07	2244.57
422.27	2299.87
422.48	2230.24
422.69	2041.82
422.89	2203.61
423.10	2150.37
423.30	2101.22
423.51	2201.57
423.72	2215.90
423.92	2265.05
424.13	2160.61
424.33	2189.28
424.54	2254.81
424.75	2267.10
424.95	2293.72
425.16	2283.49
425.36	2123.74
425.57	2297.82
425.78	2224.09
425.98	2260.96
426.19	2138.08
426.39	2093.02
426.60	2252.77
426.81	2258.91
427.01	2195.42
427.22	2076.64
427.42	2056.16
427.63	2170.85
427.83	2285.53
428.04	2441.18
428.25	2301.92
428.45	2324.44
428.66	2287.58
428.86	2176.99
429.07	2228.19
429.28	2240.48
429.48	2156.51
429.69	2183.13
429.89	2238.43
430.10	2121.70
430.30	2220.00
430.51	2375.64
430.71	2172.89
430.92	2156.51
431.13	2166.75
431.33	2230.24
431.54	2215.90
431.74	2334.68
431.95	2461.66
432.15	2129.89
432.36	2269.15
432.56	2267.10
432.77	2334.68
432.98	2344.92
433.18	2244.57
433.39	2193.37
433.59	2217.95
433.80	2353.12
434.00	2373.60
434.21	2121.70
434.41	2111.46
434.62	2420.70
434.82	2070.50
435.03	2136.03
435.23	2222.05
435.44	2082.78
435.64	2123.74
435.85	2301.92
436.06	2252.77
436.26	2338.78
436.47	2164.70
436.67	2146.27
436.88	2217.95
437.08	2265.05
437.29	2285.53
437.49	2252.77
437.70	2303.96
437.90	2156.51
438.11	2363.36
438.31	2234.33
438.52	2432.99
438.72	2414.56
438.93	2457.56
439.13	2359.26
439.34	2357.21
439.54	2195.42
439.75	2281.44
439.95	2306.01
440.16	2154.46
440.36	2308.06
440.57	2217.95
440.77	2217.95
440.98	2236.38
441.18	2293.72
441.39	2146.27
441.59	2158.56
441.80	2383.84
442.00	2197.47
442.21	2265.05
442.41	2111.46
442.62	2344.92
442.82	2138.08
443.02	2113.50
443.23	2168.80
443.43	2236.38
443.64	2389.98
443.84	2125.79
444.05	2289.63
444.25	2209.76
444.46	2213.85
444.66	2172.89
444.87	2297.82
445.07	2101.22
445.28	2158.56
445.48	2351.07
445.69	2129.89
445.89	2475.99
446.09	2258.91
446.30	2519.00
446.50	2760.66
446.71	4466.62
446.91	5543.85
447.12	6393.76
447.32	6799.26
447.53	6340.51
447.73	5222.32
447.93	4480.96
448.14	4288.45
448.34	4075.46
448.55	3577.80
448.75	3588.04
448.96	3448.78
449.16	2983.89
449.36	2918.36
449.57	2555.86
449.77	2383.84
449.98	2230.24
450.18	2275.29
450.39	2287.58
450.59	2375.64
450.79	2267.10
451.00	2133.98
451.20	2281.44
451.41	2179.04
451.61	2314.20
451.81	2228.19
452.02	2138.08
452.22	2154.46
452.43	2187.23
452.63	2226.14
452.84	2172.89
453.04	2172.89
453.24	2281.44
453.45	2191.33
453.65	2154.46
453.86	2164.70
454.06	2289.63
454.26	2213.85
454.47	2115.55
454.67	2336.73
454.87	2166.75
455.08	2164.70
455.28	2416.60
455.49	2232.29
455.69	2179.04
455.89	2334.68
456.10	2289.63
456.30	2183.13
456.51	2269.15
456.71	2275.29
456.91	2222.05
457.12	2291.68
457.32	2265.05
457.52	2103.26
457.73	2277.34
457.93	2306.01
458.14	2146.27
458.34	2039.78
458.54	2179.04
458.75	2158.56
458.95	2316.25
459.15	2306.01
459.36	2267.10
459.56	2193.37
459.76	2367.45
459.97	2179.04
460.17	2234.33
460.37	2265.05
460.58	2248.67
460.78	2291.68
460.99	2185.18
461.19	2250.72
461.39	2183.13
461.60	2232.29
461.80	2258.91
462.00	2125.79
462.21	2240.48
462.41	2078.69
462.61	2054.11
462.82	1998.82
463.02	2215.90
463.22	2291.68
463.43	2260.96
463.63	2172.89
463.83	2279.39
464.04	2291.68
464.24	2138.08
464.44	2152.42
464.64	2246.62
464.85	2293.72
465.05	2226.14
465.25	2181.09
465.46	2213.85
465.66	2238.43
465.86	2271.20
466.07	2273.25
466.27	2240.48
466.47	2047.97
466.68	2162.66
466.88	2367.45
467.08	2185.18
467.29	2312.16
467.49	2183.13
467.69	2176.99
467.89	2226.14
468.10	2256.86
468.30	2220.00
468.50	2338.78
468.71	2301.92
468.91	2074.59
469.11	2346.97
469.31	2195.42
469.52	2121.70
469.72	2301.92
469.92	2355.16
470.13	2234.33
470.33	2244.57
470.53	2318.30
470.73	2666.46
470.94	3030.99
471.14	3284.94
471.34	3665.86
471.54	3489.74
471.75	3137.49
471.95	2930.64
472.15	2678.74
472.36	2699.22
472.56	2719.70
472.76	2678.74
472.96	2654.17
473.17	2549.72
473.37	2467.80
473.57	2269.15
473.77	2383.84
473.98	2215.90
474.18	2185.18
474.38	2555.86
474.58	2170.85
474.79	2133.98
474.99	2283.49
475.19	2357.21
475.39	2095.07
475.60	2291.68
475.80	2244.57
476.00	2230.24
476.20	2140.13
476.41	2191.33
476.61	2310.11
476.81	2271.20
477.01	2109.41
477.21	2322.40
477.42	2275.29
477.62	2101.22
477.82	2332.64
478.02	2133.98
478.23	2224.09
478.43	2109.41
478.63	2179.04
478.83	2220.00
479.03	2211.81
479.24	2324.44
479.44	2449.37
479.64	2162.66
479.84	2009.06
480.04	2129.89
480.25	2256.86
480.45	2097.12
480.65	2095.07
480.85	2379.74
481.06	2166.75
481.26	2312.16
481.46	2258.91
481.66	2236.38
481.86	2127.84
482.06	2353.12
482.27	2191.33
482.47	2127.84
482.67	2297.82
482.87	2236.38
483.07	2293.72
483.28	2193.37
483.48	2166.75
483.68	2185.18
483.88	2064.35
484.08	2066.40
484.29	2129.89
484.49	2162.66
484.69	2142.18
484.89	2383.84
485.09	2310.11
485.29	2306.01
485.50	2236.38
485.70	2193.37
485.90	2373.60
486.10	2222.05
486.30	2256.86
486.50	2283.49
486.71	2224.09
486.91	2236.38
487.11	2338.78
487.31	2103.26
487.51	2271.20
487.71	2111.46
487.91	2056.16
488.12	2129.89
488.32	2004.96
488.52	2123.74
488.72	2095.07
488.92	2267.10
489.12	2236.38
489.32	2293.72
489.53	2351.07
489.73	1964.00
489.93	2432.99
490.13	2170.85
490.33	2093.02
490.53	2209.76
490.73	2367.45
490.94	2070.50
491.14	2283.49
491.34	2310.11
491.54	2484.19
491.74	3211.22
491.94	3692.49
492.14	4069.31
492.34	4120.51
492.54	3790.79
492.75	3262.41
492.95	3110.86
493.15	2930.64
493.35	2871.25
493.55	2789.33
493.75	2654.17
493.95	2781.14
494.15	2572.25
494.35	2371.55
494.56	2310.11
494.76	2232.29
494.96	2291.68
495.16	2308.06
495.36	2230.24
495.56	2220.00
495.76	2199.52
495.96	2174.94
496.16	2072.54
496.36	2340.83
496.56	2250.72
496.77	2211.81
496.97	2166.75
497.17	2420.70
497.37	2150.37
497.57	2287.58
497.77	2277.34
497.97	2119.65
498.17	2185.18
498.37	2133.98
498.57	2248.67
498.77	2226.14
498.97	2287.58
499.17	2336.73
499.38	2144.22
499.58	2312.16
499.78	2295.77
499.98	2295.77
500.18	2195.42
500.38	2170.85
500.58	2367.45
500.78	2912.21
500.98	5142.45
501.18	7487.37
501.38	9043.83
501.58	9944.94
501.78	9879.40
501.98	7817.10
502.18	6463.39
502.38	5629.87
502.58	5095.35
502.78	4665.27
502.98	4450.24
503.18	4313.02
503.38	3905.48
503.59	3465.16
503.79	3346.38
503.99	2924.50
504.19	2858.96
504.39	2885.59
504.59	2875.35
504.79	2811.86
504.99	2957.27
505.19	2605.02
505.39	2525.15
505.59	2531.29
505.79	2547.67
505.99	2422.75
506.19	2332.64
506.39	2359.26
506.59	2277.34
506.79	2236.38
506.99	2351.07
507.19	2160.61
507.39	2371.55
507.59	2129.89
507.79	2187.23
507.99	2209.76
508.19	2228.19
508.39	2211.81
508.59	2271.20
508.79	2324.44
508.99	2459.61
509.19	2136.03
509.39	2346.97
509.59	2158.56
509.79	2129.89
509.99	2234.33
510.19	2228.19
510.39	2306.01
510.59	2226.14
510.79	2162.66
510.99	2142.18
511.19	2187.23
511.39	2441.18
511.59	2203.61
511.79	2269.15
511.99	2232.29
512.19	2420.70
512.38	2238.43
512.58	2170.85
512.78	2189.28
512.98	2359.26
513.18	2389.98
513.38	2090.98
513.58	2248.67
513.78	2170.85
513.98	2179.04
514.18	2226.14
514.38	2199.52
514.58	2281.44
514.78	2156.51
514.98	2154.46
515.18	2267.10
515.38	2064.35
515.58	2367.45
515.78	2160.61
515.98	2236.38
516.18	2273.25
516.38	2228.19
516.57	2199.52
516.77	2189.28
516.97	2201.57
517.17	2166.75
517.37	2150.37
517.57	2326.49
517.77	2201.57
517.97	2191.33
518.17	2260.96
518.37	2136.03
518.57	2138.08
518.77	2107.36
518.97	2193.37
519.16	2267.10
519.36	2285.53
519.56	2207.71
519.76	2176.99
519.96	2224.09
520.16	2371.55
520.36	2164.70
520.56	2299.87
520.76	2125.79
520.96	2260.96
521.16	2271.20
521.35	2351.07
521.55	2318.30
521.75	2228.19
521.95	2162.66
522.15	2174.94
522.35	2179.04
522.55	2160.61
522.75	2211.81
522.95	2185.18
523.14	2154.46
523.34	2191.33
523.54	2144.22
523.74	2349.02
523.94	2226.14
524.14	2068.45
524.34	2359.26
524.54	2295.77
524.73	2097.12
524.93	2279.39
525.13	2209.76
525.33	2158.56
525.53	2441.18
525.73	2312.16
525.93	2248.67
526.13	2185.18
526.32	2113.50
526.52	2265.05
526.72	2232.29
526.92	2185.18
527.12	2133.98
527.32	2064.35
527.52	2303.96
527.71	2179.04
527.91	2195.42
528.11	2136.03
528.31	2150.37
528.51	2095.07
528.71	2285.53
528.90	2285.53
529.10	2342.88
529.30	2316.25
529.50	2045.92
529.70	2322.40
529.90	2162.66
530.09	2195.42
530.29	2111.46
530.49	2154.46
530.69	2447.32
530.89	2258.91
531.09	2301.92
531.28	2146.27
531.48	2332.64
531.68	2297.82
531.88	2217.95
532.08	2320.35
532.28	2205.66
532.47	2301.92
532.67	2322.40
532.87	2299.87
533.07	2150.37
533.27	2328.54
533.46	2318.30
533.66	2252.77
533.86	2156.51
534.06	2299.87
534.26	2232.29
534.45	2222.05
534.65	2346.97
534.85	2224.09
535.05	2150.37
535.25	2310.11
535.44	2033.63
535.64	2244.57
535.84	2185.18
536.04	2101.22
536.24	2146.27
536.43	2123.74
536.63	2217.95
536.83	2301.92
537.03	2203.61
537.22	2080.74
537.42	2060.26
537.62	2197.47
537.82	2148.32
538.02	2338.78
538.21	2330.59
538.41	2447.32
538.61	2252.77
538.81	2209.76
539.00	2340.83
539.20	2060.26
539.40	2215.90
539.60	2244.57
539.79	2265.05
539.99	2209.76
540.19	2107.36
540.39	2170.85
540.58	2275.29
540.78	2318.30
540.98	2299.87
541.18	2340.83
541.37	2181.09
541.57	2209.76
541.77	2299.87
541.97	2142.18
542.16	2103.26
542.36	2187.23
542.56	2228.19
542.76	2379.74
542.95	2228.19
543.15	2285.53
543.35	2238.43
543.54	2144.22
543.74	2203.61
543.94	2267.10
544.14	2193.37
544.33	2240.48
544.53	2187.23
544.73	2248.67
544.93	2084.83
545.12	2148.32
545.32	2193.37
545.52	2170.85
545.71	2142.18
545.91	2144.22
546.11	2224.09
546.30	2111.46
546.50	2154.46
546.70	2220.00
546.90	2252.77
547.09	2052.06
547.29	2170.85
547.49	2301.92
547.68	2131.94
547.88	2138.08
548.08	2240.48
548.27	2719.70
548.47	2195.42
548.67	2209.76
548.87	2232.29
549.06	2136.03
549.26	2185.18
549.46	2224.09
549.65	2152.42
549.85	2185.18
550.05	2263.01
550.24	2146.27
550.44	2170.85
550.64	2254.81
550.83	2150.37
551.03	2301.92
551.23	2295.77
551.42	2224.09
551.62	2115.55
551.82	2174.94
552.01	2193.37
552.21	2285.53
552.41	2148.32
552.60	2342.88
552.80	2287.58
553.00	2133.98
553.19	2199.52
553.39	2371.55
553.59	2105.31
553.78	2240.48
553.98	2256.86
554.17	2133.98
554.37	2285.53
554.57	2250.72
554.76	2078.69
554.96	2109.41
555.16	2275.29
555.35	2199.52
555.55	2246.62
555.75	2301.92
555.94	2301.92
556.14	2109.41
556.33	2271.20
556.53	2297.82
556.73	2197.47
556.92	2295.77
557.12	2252.77
557.32	2379.74
557.51	2289.63
557.71	2240.48
557.90	2349.02
558.10	2346.97
558.30	2123.74
558.49	2220.00
558.69	2185.18
558.88	2232.29
559.08	2244.57
559.28	2172.89
559.47	2209.76
559.67	2265.05
559.86	2428.89
560.06	2267.10
560.26	2185.18
560.45	2258.91
560.65	2144.22
560.84	2334.68
561.04	2095.07
561.24	2269.15
561.43	2160.61
561.63	2336.73
561.82	2310.11
562.02	2320.35
562.22	2187.23
562.41	2172.89
562.61	2086.88
562.80	2156.51
563.00	2496.47
563.19	2150.37
563.39	2279.39
563.59	2267.10
563.78	2133.98
563.98	2066.40
564.17	2195.42
564.37	2068.45
564.56	2234.33
564.76	2129.89
564.96	2299.87
565.15	2238.43
565.35	2392.03
565.54	2168.80
565.74	2217.95
565.93	2297.82
566.13	2297.82
566.32	2273.25
566.52	2285.53
566.71	2273.25
566.91	2254.81
567.11	2367.45
567.30	2093.02
567.50	2242.53
567.69	2238.43
567.89	2160.61
568.08	2131.94
568.28	2226.14
568.47	2193.37
568.67	2170.85
568.86	2146.27
569.06	2295.77
569.25	2181.09
569.45	2133.98
569.64	2160.61
569.84	2172.89
570.04	2379.74
570.23	2191.33
570.43	2215.90
570.62	2176.99
570.82	2361.31
571.01	2127.84
571.21	2232.29
571.40	2138.08
571.60	2224.09
571.79	2299.87
571.99	2160.61
572.18	2185.18
572.38	2318.30
572.57	2183.13
572.77	2242.53
572.96	2490.33
573.16	2228.19
573.35	2254.81
573.55	2240.48
573.74	2195.42
573.94	2207.71
574.13	2195.42
574.33	2336.73
574.52	2316.25
574.71	2207.71
574.91	2258.91
575.10	2166.75
575.30	2215.90
575.49	2113.50
575.69	2127.84
575.88	2293.72
576.08	2224.09
576.27	2371.55
576.47	2279.39
576.66	2414.56
576.86	2373.60
577.05	2256.86
577.25	2310.11
577.44	2478.04
577.64	2199.52
577.83	2195.42
578.02	2193.37
578.22	2318.30
578.41	2424.80
578.61	2217.95
578.80	2162.66
579.00	2246.62
579.19	2211.81
579.39	2281.44
579.58	2295.77
579.77	2228.19
579.97	2398.17
580.16	2373.60
580.36	2324.44
580.55	2316.25
580.75	2252.77
580.94	2326.49
581.13	2422.75
581.33	2424.80
581.52	2176.99
581.72	2531.29
581.91	2340.83
582.11	2258.91
582.30	2359.26
582.49	2277.34
582.69	2416.60
582.88	2332.64
583.08	2314.20
583.27	2252.77
583.47	2224.09
583.66	2140.13
583.85	2211.81
584.05	2121.70
584.24	2328.54
584.44	2215.90
584.63	2410.46
584.82	2422.75
585.02	2443.23
585.21	2414.56
585.41	2406.36
585.60	2336.73
585.79	2529.24
585.99	2471.90
586.18	2330.59
586.37	2881.49
586.57	4366.27
586.76	13403.96
586.96	32298.52
587.15	46550.33
587.34	55639.22
587.54	61031.52
587.73	56063.14
587.93	39359.91
588.12	29933.11
588.31	23770.77
588.51	20803.27
588.70	19203.80
588.89	17571.57
589.09	15173.40
589.28	13004.60
589.47	10596.19
589.67	8404.86
589.86	6438.81
590.06	4876.21
590.25	3678.15
590.44	3225.55
590.64	2723.80
590.83	2662.36
591.02	2461.66
591.22	2461.66
591.41	2369.50
591.60	2283.49
591.80	2496.47
591.99	2146.27
592.18	2195.42
592.38	2318.30
592.57	2179.04
592.76	2283.49
592.96	2269.15
593.15	2160.61
593.34	2365.40
593.54	2250.72
593.73	2338.78
593.92	2310.11
594.12	2301.92
594.31	2291.68
594.50	2414.56
594.70	2332.64
594.89	2484.19
595.08	2215.90
595.28	2299.87
595.47	2586.58
595.66	2299.87
595.86	2090.98
596.05	2199.52
596.24	2185.18
596.43	2439.13
596.63	2357.21
596.82	2260.96
597.01	2265.05
597.21	2414.56
597.40	2267.10
597.59	2232.29
597.79	2271.20
597.98	2260.96
598.17	2297.82
598.36	2187.23
598.56	2365.40
598.75	2185.18
598.94	2244.57
599.14	2209.76
599.33	2217.95
599.52	2342.88
599.71	2222.05
599.91	2303.96
600.10	2273.25
600.29	2179.04
600.48	2207.71
600.68	2252.77
600.87	2283.49
601.06	2183.13
601.26	2289.63
601.45	2250.72
601.64	2158.56
601.83	2375.64
602.03	2146.27
602.22	2076.64
602.41	2265.05
602.60	2414.56
602.80	2281.44
602.99	2293.72
603.18	2150.37
603.37	2170.85
603.57	2195.42
603.76	2322.40
603.95	2236.38
604.14	2275.29
604.34	2166.75
604.53	2222.05
604.72	2269.15
604.91	2367.45
605.10	2283.49
605.30	2093.02
605.49	2439.13
605.68	2236.38
605.87	2185.18
606.07	2127.84
606.26	2301.92
606.45	2361.31
606.64	2215.90
606.84	2176.99
607.03	2308.06
607.22	2318.30
607.41	2242.53
607.60	2215.90
607.80	2408.41
607.99	2172.89
608.18	2205.66
608.37	2236.38
608.56	2146.27
608.76	2285.53
608.95	2469.85
609.14	2252.77
609.33	2340.83
609.52	2379.74
609.72	2381.79
609.91	2428.89
610.10	2254.81
610.29	2377.69
610.48	2283.49
610.68	2273.25
610.87	2238.43
611.06	2277.34
611.25	2250.72
611.44	2353.12
611.63	2226.14
611.83	2369.50
612.02	2138.08
612.21	2373.60
612.40	1951.71
612.59	2172.89
612.79	2185.18
612.98	2258.91
613.17	2340.83
613.36	2248.67
613.55	2316.25
613.74	2318.30
613.93	2383.84
614.13	2457.56
614.32	2480.09
614.51	2430.94
614.70	2232.29
614.89	2254.81
615.08	2344.92
615.28	2793.43
615.47	2244.57
615.66	2310.11
615.85	2250.72
616.04	2385.88
616.23	2310.11
616.42	2269.15
616.62	2301.92
616.81	2316.25
617.00	2273.25
617.19	2363.36
617.38	2138.08
617.57	2283.49
617.76	2285.53
617.95	2324.44
618.15	2287.58
618.34	2396.12
618.53	2097.12
618.72	2334.68
618.91	2361.31
619.10	2324.44
619.29	2217.95
619.48	2205.66
619.68	2064.35
619.87	2191.33
620.06	2082.78
620.25	2226.14
620.44	2056.16
620.63	2183.13
620.82	2236.38
621.01	2258.91
621.20	2263.01
621.39	2242.53
621.59	2252.77
621.78	2248.67
621.97	2291.68
622.16	2308.06
622.35	2310.11
622.54	2289.63
622.73	2297.82
622.92	2090.98
623.11	2252.77
623.30	2207.71
623.49	2336.73
623.68	2117.60
623.88	2365.40
624.07	2244.57
624.26	2160.61
624.45	2185.18
624.64	2199.52
624.83	2301.92
625.02	2152.42
625.21	2209.76
625.40	2291.68
625.59	2451.42
625.78	2154.46
625.97	2326.49
626.16	2308.06
626.35	2406.36
626.54	2340.83
626.74	2451.42
626.93	2248.67
627.12	2228.19
627.31	2363.36
627.50	2244.57
627.69	2373.60
627.88	2152.42
628.07	2191.33
628.26	2076.64
628.45	2146.27
628.64	2113.50
628.83	2258.91
629.02	2109.41
629.21	2256.86
629.40	2228.19
629.59	2168.80
629.78	2179.04
629.97	2287.58
630.16	2277.34
630.35	2168.80
630.54	2228.19
630.73	2154.46
630.92	2234.33
631.11	2162.66
631.30	2193.37
631.49	2314.20
631.68	2189.28
631.87	2252.77
632.06	2105.31
632.25	2502.62
632.44	2293.72
632.63	2248.67
632.82	2254.81
633.01	2209.76
633.20	2363.36
633.39	2324.44
633.58	2127.84
633.77	2301.92
633.96	2351.07
634.15	2285.53
634.34	2308.06
634.53	2293.72
634.72	2129.89
634.91	2019.30
635.10	2277.34
635.29	2209.76
635.48	2256.86
635.67	2144.22
635.86	2111.46
636.05	2310.11
636.24	2205.66
636.43	2162.66
636.62	2220.00
636.81	2074.59
637.00	2211.81
637.19	2158.56
637.38	2246.62
637.57	2162.66
637.76	2238.43
637.95	2349.02
638.14	2349.02
638.33	2293.72
638.52	2310.11
638.71	2244.57
638.89	2160.61
639.08	2377.69
639.27	2330.59
639.46	2564.06
639.65	2922.45
639.84	2924.50
640.03	3067.86
640.22	3002.32
640.41	2942.93
640.60	2568.15
640.79	2516.95
640.98	2457.56
641.17	2514.91
641.36	2424.80
641.55	2459.61
641.74	2195.42
641.92	2244.57
642.11	2195.42
642.30	2256.86
642.49	2119.65
642.68	2242.53
642.87	2250.72
643.06	2275.29
643.25	2185.18
643.44	2029.54
643.63	2228.19
643.82	2252.77
644.00	2154.46
644.19	2111.46
644.38	2138.08
644.57	2271.20
644.76	2240.48
644.95	2193.37
645.14	2195.42
645.33	2244.57
645.52	2207.71
645.71	2080.74
645.89	2176.99
646.08	2187.23
646.27	2152.42
646.46	2377.69
646.65	2074.59
646.84	2269.15
647.03	2119.65
647.22	2273.25
647.40	2222.05
647.59	2211.81
647.78	2125.79
647.97	2154.46
648.16	2144.22
648.35	2289.63
648.54	2283.49
648.73	2172.89
648.91	2275.29
649.10	2199.52
649.29	2136.03
649.48	2160.61
649.67	2306.01
649.86	2306.01
650.05	2265.05
650.23	2469.85
650.42	2285.53
650.61	2457.56
650.80	2432.99
650.99	2543.58
651.18	2414.56
651.36	2326.49
651.55	2244.57
651.74	2322.40
651.93	2185.18
652.12	2224.09
652.31	2220.00
652.49	2179.04
652.68	2213.85
652.87	2367.45
653.06	2293.72
653.25	2412.51
653.44	2256.86
653.62	2256.86
653.81	2105.31
654.00	2179.04
654.19	2252.77
654.38	2461.66
654.56	2269.15
654.75	2136.03
654.94	2316.25
655.13	2228.19
655.32	2205.66
655.51	2279.39
655.69	2172.89
655.88	2279.39
656.07	2064.35
656.26	2187.23
656.45	2064.35
656.63	2158.56
656.82	2301.92
657.01	2330.59
657.20	2211.81
657.38	2359.26
657.57	2195.42
657.76	2037.73
657.95	2205.66
658.14	2131.94
658.32	2181.09
658.51	2064.35
658.70	2220.00
658.89	2275.29
659.08	2226.14
659.26	2453.47
659.45	2129.89
659.64	2351.07
659.83	2220.00
660.01	2629.59
660.20	2322.40
660.39	2432.99
660.58	1970.15
660.76	2271.20
660.95	2088.93
661.14	2207.71
661.33	2193.37
661.51	2127.84
661.70	2215.90
661.89	2310.11
662.08	2211.81
662.26	2088.93
662.45	2123.74
662.64	2396.12
662.83	2189.28
663.01	2125.79
663.20	2179.04
663.39	2287.58
663.58	2168.80
663.76	2166.75
663.95	2240.48
664.14	2162.66
664.32	2127.84
664.51	2111.46
664.70	2070.50
664.89	2312.16
665.07	1990.63
665.26	2295.77
665.45	2015.20
665.64	2346.97
665.82	2269.15
666.01	2318.30
666.20	2125.79
666.38	2363.36
666.57	2412.51
666.76	3356.62
666.95	8044.42
667.13	16518.92
667.32	22128.30
667.51	25849.46
667.69	27866.71
667.88	25683.58
668.07	17979.12
668.25	14483.24
668.44	12007.24
668.63	10303.33
668.81	9031.54
669.00	7880.58
669.19	7225.23
669.38	6027.17
669.56	5189.55
669.75	4423.61
669.94	3710.92
670.12	3162.06
670.31	2750.42
670.50	2566.10
670.68	2531.29
670.87	2328.54
671.06	2387.93
671.24	2310.11
671.43	2432.99
671.62	2301.92
671.80	2138.08
671.99	2242.53
672.18	2252.77
672.36	2340.83
672.55	2220.00
672.74	2238.43
672.92	2140.13
673.11	2269.15
673.29	2109.41
673.48	2324.44
673.67	2162.66
673.85	2314.20
674.04	2109.41
674.23	2179.04
674.41	2338.78
674.60	2054.11
674.79	2111.46
674.97	2101.22
675.16	2308.06
675.34	2322.40
675.53	2168.80
675.72	2232.29
675.90	2314.20
676.09	2181.09
676.28	2199.52
676.46	2027.49
676.65	2187.23
676.83	2121.70
677.02	2191.33
677.21	2240.48
677.39	2220.00
677.58	2179.04
677.77	2125.79
677.95	2129.89
678.14	2138.08
678.32	2193.37
678.51	2056.16
678.70	2359.26
678.88	2211.81
679.07	2232.29
679.25	2217.95
679.44	2232.29
679.63	2113.50
679.81	2189.28
680.00	2293.72
680.18	2201.57
680.37	2322.40
680.55	2170.85
680.74	2097.12
680.93	1933.28
681.11	2234.33
681.30	2144.22
681.48	2166.75
681.67	2211.81
681.85	2211.81
682.04	2207.71
682.23	2240.48
682.41	2172.89
682.60	2140.13
682.78	2199.52
682.97	2138.08
683.15	2123.74
683.34	2295.77
683.53	2426.84
683.71	2068.45
683.90	2344.92
684.08	2330.59
684.27	2195.42
684.45	2209.76
684.64	2342.88
684.82	2185.18
685.01	2314.20
685.19	2189.28
685.38	2357.21
685.57	2179.04
685.75	2158.56
685.94	2176.99
686.12	2168.80
686.31	2111.46
686.49	2365.40
686.68	2086.88
686.86	2279.39
687.05	2109.41
687.23	2351.07
687.42	2103.26
687.60	2088.93
687.79	2238.43
687.97	2371.55
688.16	2367.45
688.34	2359.26
688.53	1966.05
688.71	2287.58
688.90	2310.11
689.08	2179.04
689.27	2097.12
689.45	2230.24
689.64	2322.40
689.82	2220.00
690.01	2252.77
690.19	2187.23
690.38	2258.91
690.56	2299.87
690.75	2125.79
690.93	2260.96
691.12	2138.08
691.30	2115.55
691.49	2275.29
691.67	2236.38
691.86	2394.08
692.04	2260.96
692.23	2185.18
692.41	2246.62
692.60	2496.47
692.78	2412.51
692.97	2226.14
693.15	2224.09
693.34	2453.47
693.52	2273.25
693.71	2140.13
693.89	2191.33
694.08	2050.02
694.26	2277.34
694.44	2256.86
694.63	2299.87
694.81	2127.84
695.00	2156.51
695.18	2277.34
695.37	2402.27
695.55	2195.42
695.74	2209.76
695.92	2138.08
696.10	2289.63
696.29	2035.68
696.47	2123.74
696.66	2078.69
696.84	2072.54
697.03	2222.05
697.21	2453.47
697.40	3192.78
697.58	2256.86
697.76	2154.46
697.95	2090.98
698.13	2138.08
698.32	2107.36
698.50	2222.05
698.68	2236.38
698.87	2199.52
699.05	2342.88
699.24	2166.75
699.42	2064.35
699.61	2217.95
699.79	2195.42
699.97	2183.13
700.16	2101.22
700.34	2070.50
700.53	2220.00
700.71	2338.78
700.89	2256.86
701.08	2150.37
701.26	2189.28
701.45	2672.60
701.63	2090.98
701.81	2187.23
702.00	2148.32
702.18	2285.53
702.37	2148.32
702.55	2492.38
702.73	2387.93
702.92	2379.74
703.10	2557.91
703.28	2486.23
703.47	2359.26
703.65	2498.52
703.84	2389.98
704.02	2291.68
704.20	2449.37
704.39	2217.95
704.57	2189.28
704.75	2336.73
704.94	2326.49
705.12	2260.96
705.30	2492.38
705.49	4480.96
705.67	11009.88
705.86	20010.70
706.04	24614.54
706.22	28405.33
706.41	29300.29
706.59	25292.41
706.77	17762.03
706.96	14888.73
707.14	12855.10
707.32	11112.28
707.51	9944.94
707.69	8124.29
707.87	6514.59
708.06	5142.45
708.24	4167.62
708.42	3356.62
708.61	3059.67
708.79	2539.48
708.97	2422.75
709.16	2432.99
709.34	2320.35
709.52	2271.20
709.71	2226.14
709.89	2258.91
710.07	2187.23
710.26	2111.46
710.44	2183.13
710.62	2320.35
710.80	2250.72
710.99	2314.20
711.17	2308.06
711.35	2144.22
711.54	2088.93
711.72	2273.25
711.90	2232.29
712.09	2252.77
712.27	2176.99
712.45	2232.29
712.63	2131.94
712.82	2238.43
713.00	2226.14
713.18	2209.76
713.37	2252.77
713.55	2220.00
713.73	2234.33
713.91	2256.86
714.10	2187.23
714.28	2133.98
714.46	2277.34
714.65	2277.34
714.83	2154.46
715.01	2146.27
715.19	2170.85
715.38	2093.02
715.56	2170.85
715.74	2226.14
715.92	2150.37
716.11	2346.97
716.29	2027.49
716.47	2183.13
716.65	2224.09
716.84	2074.59
717.02	2291.68
717.20	1970.15
717.38	2174.94
717.57	2246.62
717.75	2226.14
717.93	2187.23
718.11	2297.82
718.30	2121.70
718.48	2211.81
718.66	2283.49
718.84	2289.63
719.03	2160.61
719.21	2072.54
719.39	2406.36
719.57	2291.68
719.75	2275.29
719.94	2129.89
720.12	2121.70
720.30	2252.77
720.48	2273.25
720.67	2052.06
720.85	2056.16
721.03	2140.13
721.21	2136.03
721.39	2289.63
721.58	2244.57
721.76	2140.13
721.94	2191.33
722.12	2265.05
722.30	2338.78
722.49	2201.57
722.67	2273.25
722.85	2226.14
723.03	2115.55
723.21	2154.46
723.40	2172.89
723.58	2303.96
723.76	2285.53
723.94	2408.41
724.12	2271.20
724.30	2439.13
724.49	2375.64
724.67	2174.94
724.85	2375.64
725.03	2066.40
725.21	2322.40
725.40	2318.30
725.58	2095.07
725.76	2332.64
725.94	2260.96
726.12	2127.84
726.30	2195.42
726.49	2236.38
726.67	2152.42
726.85	2217.95
727.03	2449.37
727.21	3629.00
727.39	5451.69
727.57	6539.16
727.76	7366.54
727.94	7716.75
728.12	7413.65
728.30	5892.01
728.48	5031.86
728.66	4552.63
728.84	4140.99
729.03	3504.07
729.21	3145.68
729.39	2760.66
729.57	2443.23
729.75	2387.93
729.93	2344.92
730.11	2238.43
730.30	2185.18
730.48	2252.77
730.66	2308.06
730.84	2236.38
731.02	2246.62
731.20	2156.51
731.38	2205.66
731.56	2080.74
731.74	2084.83
731.93	2191.33
732.11	2154.46
732.29	2205.66
732.47	2179.04
732.65	2172.89
732.83	2359.26
733.01	2306.01
733.19	2133.98
733.37	2191.33
733.56	2230.24
733.74	2158.56
733.92	2326.49
734.10	2166.75
734.28	2197.47
734.46	2076.64
734.64	2256.86
734.82	2199.52
735.00	2142.18
735.18	2148.32
735.36	2187.23
735.54	2142.18
735.73	2181.09
735.91	2254.81
736.09	2275.29
736.27	2209.76
736.45	2244.57
736.63	2011.11
736.81	2142.18
736.99	2316.25
737.17	2316.25
737.35	2113.50
737.53	2166.75
737.71	2215.90
737.89	2328.54
738.07	2101.22
738.25	2125.79
738.43	2013.15
738.61	2176.99
738.80	2045.92
738.98	2101.22
739.16	2152.42
739.34	2095.07
739.52	2252.77
739.70	2179.04
739.88	2285.53
740.06	2195.42
740.24	2023.39
740.42	2334.68
740.60	2088.93
740.78	2119.65
740.96	2029.54
741.14	2131.94
741.32	2191.33
741.50	2037.73
741.68	2353.12
741.86	2285.53
742.04	2060.26
742.22	2115.55
742.40	2138.08
742.58	2334.68
742.76	2088.93
742.94	2346.97
743.12	1998.82
743.30	2230.24
743.48	2240.48
743.66	2164.70
743.84	2187.23
744.02	2121.70
744.20	2226.14
744.38	2103.26
744.56	2144.22
744.74	2387.93
744.92	2176.99
745.10	2287.58
745.28	2166.75
745.46	2330.59
745.64	2201.57
745.82	2275.29
746.00	2154.46
746.18	2211.81
746.36	2070.50
746.54	2183.13
746.72	2181.09
746.90	2088.93
747.08	2312.16
747.26	2187.23
747.44	2275.29
747.62	2256.86
747.80	2252.77
747.98	2236.38
748.15	2144.22
748.33	2396.12
748.51	2273.25
748.69	2283.49
748.87	2125.79
749.05	2136.03
749.23	2220.00
749.41	2279.39
749.59	2144.22
749.77	2267.10
749.95	2205.66
750.13	2158.56
750.31	2326.49
750.49	2121.70
750.67	2265.05
750.85	2359.26
751.03	2179.04
751.20	2486.23
751.38	2170.85
751.56	2195.42
751.74	2197.47
751.92	2228.19
752.10	2117.60
752.28	2277.34
752.46	2156.51
752.64	2183.13
752.82	2199.52
753.00	2277.34
753.18	2058.21
753.35	2146.27
753.53	2260.96
753.71	2220.00
753.89	2170.85
754.07	2269.15
754.25	2312.16
754.43	2168.80
754.61	2068.45
754.79	2277.34
754.97	2174.94
755.14	2291.68
755.32	2080.74
755.50	2287.58
755.68	2263.01
755.86	2076.64
756.04	2189.28
756.22	2070.50
756.40	2230.24
756.57	2308.06
756.75	2152.42
756.93	2334.68
757.11	2287.58
757.29	2078.69
757.47	2129.89
757.65	2113.50
757.82	1978.34
758.00	2125.79
758.18	2066.40
758.36	2097.12
758.54	2346.97
758.72	2115.55
758.90	2310.11
759.07	2197.47
759.25	2101.22
759.43	2240.48
759.61	2103.26
759.79	2981.84
759.97	2289.63
760.15	2082.78
760.32	2242.53
760.50	2228.19
760.68	2379.74
760.86	2109.41
761.04	2252.77
761.22	2332.64
761.39	2226.14
761.57	2285.53
761.75	2195.42
761.93	2191.33
762.11	2181.09
762.28	2211.81
762.46	2158.56
762.64	2293.72
762.82	2156.51
763.00	2154.46
763.18	2295.77
763.35	2095.07
763.53	2256.86
763.71	2187.23
763.89	2193.37
764.07	2174.94
764.24	2105.31
764.42	2279.39
764.60	2131.94
764.78	2138.08
764.96	2232.29
765.13	2258.91
765.31	2148.32
765.49	2273.25
765.67	2113.50
765.84	2138.08
766.02	2103.26
766.20	2004.96
766.38	2203.61
766.56	2267.10
766.73	2220.00
766.91	2160.61
767.09	2150.37
767.27	2265.05
767.44	2119.65
767.62	2267.10
767.80	2195.42
767.98	2060.26
768.15	2144.22
768.33	2344.92
768.51	2232.29
768.69	2258.91
768.87	2207.71
769.04	2181.09
769.22	2449.37
769.40	2299.87
769.58	2389.98
769.75	2209.76
769.93	2355.16
770.11	2195.42
770.28	2133.98
770.46	2170.85
770.64	2133.98
770.82	2185.18
770.99	2138.08
771.17	2228.19
771.35	2162.66
771.53	2150.37
771.70	2185.18
771.88	2293.72
772.06	2138.08
772.23	2031.58
772.41	2236.38
772.59	2234.33
772.77	2121.70
772.94	2129.89
773.12	2224.09
773.30	2179.04
773.47	2254.81
773.65	2119.65
773.83	2324.44
774.01	2236.38
774.18	1986.53
774.36	2158.56
774.54	2088.93
774.71	2265.05
774.89	2043.87
775.07	2097.12
775.24	2183.13
775.42	2105.31
775.60	2373.60
775.78	2119.65
775.95	2097.12
776.13	2035.68
776.31	2007.01
776.48	2191.33
776.66	2273.25
776.84	2166.75
777.01	2064.35
777.19	2160.61
777.37	2121.70
777.54	2228.19
777.72	2394.08
777.90	2185.18
778.07	2121.70
778.25	2439.13
778.43	2334.68
778.60	2144.22
778.78	2283.49
778.96	2234.33
779.13	2093.02
779.31	2236.38
779.49	2187.23
779.66	2189.28
779.84	2144.22
780.01	2131.94
780.19	2088.93
780.37	2240.48
780.54	2277.34
780.72	2138.08
780.90	2168.80
781.07	2138.08
781.25	2166.75
781.43	2281.44
781.60	2179.04
781.78	2318.30
781.95	2236.38
782.13	2234.33
782.31	2105.31
782.48	2023.39
782.66	2195.42
782.83	2324.44
783.01	2232.29
783.19	2226.14
783.36	2185.18
783.54	2068.45
783.72	2295.77
783.89	2111.46
784.07	2162.66
784.24	2275.29
784.42	2338.78
784.60	2234.33
784.77	2220.00
784.95	1970.15
785.12	2103.26
785.30	2179.04
785.47	2093.02
785.65	2193.37
785.83	2152.42
786.00	2084.83
786.18	2152.42
786.35	2054.11
786.53	2064.35
786.71	2258.91
786.88	2295.77
787.06	2236.38
787.23	2195.42
787.41	2086.88
787.58	2234.33
787.76	2121.70
787.94	2201.57
788.11	2181.09
788.29	2076.64
788.46	2138.08
788.64	2027.49
788.81	2170.85
788.99	2121.70
789.16	2142.18
789.34	2133.98
789.52	2197.47
789.69	2193.37
789.87	2027.49
790.04	2127.84
790.22	2183.13
790.39	2443.23
790.57	2015.20
790.74	2103.26
790.92	2271.20
791.09	2047.97
791.27	2168.80
791.44	2277.34
791.62	2195.42
791.79	2248.67
791.97	2226.14
792.15	2570.20
792.32	2242.53
792.50	2281.44
792.67	2322.40
792.85	2338.78
793.02	2183.13
793.20	2183.13
793.37	2080.74
793.55	2168.80
793.72	2103.26
793.90	2250.72
794.07	2103.26
794.25	2129.89
794.42	2254.81
794.60	2174.94
794.77	2185.18
794.95	2246.62
795.12	2260.96
795.30	2201.57
795.47	1964.00
795.65	2389.98
795.82	2213.85
796.00	2084.83
796.17	2158.56
796.34	2140.13
796.52	2226.14
796.69	2254.81
796.87	2162.66
797.04	2250.72
797.22	2312.16
797.39	2228.19
797.57	2310.11
797.74	2213.85
797.92	2136.03
798.09	2088.93
798.27	2199.52
798.44	2138.08
798.62	2150.37
798.79	2228.19
798.96	2174.94
799.14	2160.61
799.31	2418.65
799.49	2088.93
799.66	2156.51
799.84	2183.13
800.01	2101.22
800.19	2199.52
800.36	1978.34
800.53	2211.81
800.71	2217.95
800.88	2385.88
801.06	2131.94
801.23	2076.64
801.41	2170.85
801.58	2111.46
801.75	2109.41
801.93	2162.66
802.10	2269.15
802.28	2170.85
802.45	2213.85
802.63	2211.81
802.80	2289.63
802.97	2133.98
803.15	2240.48
803.32	2160.61
803.50	2097.12
803.67	2127.84
803.84	2082.78
804.02	2160.61
804.19	2117.60
804.37	1912.80
804.54	2064.35
804.71	2144.22
804.89	2217.95
805.06	2107.36
805.24	2080.74
805.41	2078.69
805.58	2187.23
805.76	2402.27
805.93	2166.75
806.10	2351.07
806.28	2258.91
806.45	2172.89
806.63	2258.91
806.80	2150.37
806.97	2199.52
807.15	2203.61
807.32	2117.60
807.49	2146.27
807.67	2090.98
807.84	2193.37
808.01	2039.78
808.19	2312.16
808.36	2322.40
808.54	2164.70
808.71	2127.84
808.88	2187.23
809.06	2299.87
809.23	2310.11
809.40	2121.70
809.58	2232.29
809.75	2232.29
809.92	2045.92
810.10	2478.04
810.27	2193.37
810.44	2123.74
810.62	2201.57
810.79	2220.00
810.96	2150.37
811.14	2199.52
811.31	2326.49
811.48	2301.92
811.66	2187.23
811.83	2334.68
812.00	2217.95
812.18	2252.77
812.35	2320.35
812.52	2193.37
812.69	2101.22
812.87	2084.83
813.04	2164.70
813.21	2195.42
813.39	2152.42
813.56	2125.79
813.73	2285.53
813.91	2058.21
814.08	2187.23
814.25	2234.33
814.42	2013.15
814.60	2185.18
814.77	2193.37
814.94	2195.42
815.12	2248.67
815.29	2328.54
815.46	2119.65
815.63	2238.43
815.81	2146.27
815.98	2138.08
816.15	2222.05
816.33	2164.70
816.50	2152.42
816.67	2187.23
816.84	2189.28
817.02	2047.97
817.19	2211.81
817.36	2183.13
817.53	2246.62
817.71	2086.88
817.88	2236.38
818.05	2195.42
818.22	2138.08
818.40	2383.84
818.57	2191.33
818.74	2174.94
818.91	2211.81
819.09	2222.05
819.26	2263.01
819.43	2090.98
819.60	2097.12
819.78	2154.46
819.95	2207.71
820.12	2097.12
820.29	2326.49
820.47	2334.68
820.64	2144.22
820.81	2129.89
820.98	2088.93
821.15	2179.04
821.33	2346.97
821.50	2088.93
821.67	2230.24
821.84	2203.61
822.02	2242.53
822.19	2207.71
822.36	2115.55
822.53	2215.90
822.70	2095.07
822.88	2162.66
823.05	2355.16
823.22	2191.33
823.39	2289.63
823.56	2187.23
823.74	2387.93
823.91	2035.68
824.08	2162.66
824.25	2086.88
824.42	2373.60
824.60	2080.74
824.77	2172.89
824.94	2138.08
825.11	2207.71
825.28	2037.73
825.45	2125.79
825.63	2140.13
825.80	2097.12
825.97	2234.33
826.14	2082.78
826.31	2060.26
826.48	2138.08
826.66	2088.93
826.83	2133.98
827.00	2138.08
827.17	2144.22
827.34	2152.42
827.51	2138.08
827.69	2170.85
827.86	2074.59
828.03	2220.00
828.20	2207.71
828.37	2144.22
828.54	2224.09
828.71	2084.83
828.89	2324.44
829.06	2138.08
829.23	2351.07
829.40	2203.61
829.57	2150.37
829.74	2281.44
829.91	2129.89
830.09	2138.08
830.26	2269.15
830.43	2332.64
830.60	2191.33
830.77	2277.34
830.94	2338.78
831.11	2273.25
831.28	2136.03
831.46	2252.77
831.63	2086.88
831.80	2236.38
831.97	2150.37
832.14	2183.13
832.31	2226.14
832.48	2215.90
832.65	2238.43
832.82	2226.14
832.99	2222.05
833.17	2181.09
833.34	2363.36
833.51	2250.72
833.68	2093.02
833.85	2242.53
834.02	2158.56
834.19	2154.46
834.36	2189.28
834.53	2215.90
834.70	2244.57
834.87	2199.52
835.04	2160.61
835.22	2082.78
835.39	2156.51
835.56	2095.07
835.73	2047.97
835.90	2222.05
836.07	2150.37
836.24	2248.67
836.41	2072.54
836.58	2121.70
836.75	2326.49
836.92	2240.48
837.09	2076.64
837.26	2293.72
837.43	2275.29
837.60	2193.37
837.77	2164.70
837.94	2226.14
838.12	2285.53
838.29	2111.46
838.46	2027.49
838.63	2097.12
838.80	2418.65
838.97	2183.13
839.14	2146.27
839.31	2158.56
839.48	2254.81
839.65	2131.94
839.82	2183.13
839.99	2211.81
840.16	2222.05
840.33	2199.52
840.50	2131.94
840.67	2074.59
840.84	1998.82
841.01	2191.33
841.18	2111.46
841.35	2197.47
841.52	2306.01
841.69	2332.64
841.86	2121.70
842.03	2129.89
842.20	2285.53
842.37	2088.93
842.54	2176.99
842.71	2213.85
842.88	2162.66
843.05	2156.51
843.22	2158.56
843.39	2220.00
843.56	2191.33
843.73	2174.94
843.90	2129.89
844.07	2127.84
844.24	2258.91
844.41	2301.92
844.58	2174.94
844.75	2095.07
844.92	2283.49
845.09	2176.99
845.26	2045.92
845.43	2207.71
845.60	2109.41
845.77	2207.71
845.94	2172.89
846.10	2389.98
846.27	2029.54
846.44	2060.26
846.61	2097.12
846.78	2240.48
846.95	2308.06
847.12	2101.22
847.29	2224.09
847.46	2138.08
847.63	2326.49
847.80	2082.78
847.97	2121.70
848.14	2373.60
848.31	2164.70
848.48	2076.64
848.65	2287.58
848.82	2146.27
848.98	2377.69
849.15	2244.57
849.32	2295.77
849.49	2273.25
849.66	2209.76
849.83	2193.37
850.00	2082.78
850.17	2260.96
850.34	2181.09
850.51	2142.18
850.68	2162.66
850.85	2424.80
851.01	2164.70
851.18	2115.55
851.35	2125.79
851.52	2232.29
851.69	2291.68
851.86	2060.26
852.03	2129.89
852.20	2211.81
852.37	2236.38
852.53	1998.82
852.70	2156.51
852.87	2201.57
853.04	2242.53
853.21	2162.66
853.38	2312.16
853.55	2281.44
853.72	2312.16
853.89	2088.93
854.05	2023.39
854.22	2179.04
854.39	2164.70
854.56	2150.37
854.73	2326.49
854.90	2099.17
855.07	2156.51
855.23	2099.17
855.40	2066.40
855.57	2144.22
855.74	2039.78
855.91	2330.59
856.08	2047.97
856.25	1998.82
856.41	2101.22
856.58	2181.09
856.75	2113.50
856.92	1996.77
857.09	2158.56
857.26	2029.54
857.42	2174.94
857.59	2293.72
857.76	2164.70
857.93	2187.23
858.10	2211.81
858.27	2023.39
858.43	2160.61
858.60	2058.21
858.77	2060.26
858.94	2146.27
859.11	2195.42
859.27	2088.93
859.44	2103.26
859.61	2428.89
859.78	2248.67
859.95	2129.89
860.12	2144.22
860.28	2371.55
860.45	2361.31
860.62	2068.45
860.79	2136.03
860.95	2220.00
861.12	2090.98
861.29	2107.36
861.46	2121.70
861.63	2213.85
861.79	2166.75
861.96	2072.54
862.13	2127.84
862.30	2349.02
862.47	2113.50
862.63	2025.44
862.80	2263.01
862.97	2260.96
863.14	2258.91
863.30	2160.61
863.47	2101.22
863.64	2328.54
863.81	2207.71
863.97	2127.84
864.14	2185.18
864.31	2170.85
864.48	2185.18
864.65	2168.80
864.81	2238.43
864.98	2205.66
865.15	2306.01
865.32	2201.57
865.48	2258.91
865.65	2322.40
865.82	2152.42
865.98	2138.08
866.15	2250.72
866.32	2207.71
866.49	2164.70
866.65	2373.60
866.82	2105.31
866.99	2174.94
867.16	2228.19
867.32	2056.16
867.49	2070.50
867.66	2195.42
867.83	2111.46
867.99	2043.87
868.16	2101.22
868.33	2119.65
868.49	2209.76
868.66	2179.04
868.83	2228.19
868.99	2256.86
869.16	2187.23
869.33	2228.19
869.50	2222.05
869.66	2258.91
869.83	2164.70
870.00	2113.50
870.16	2271.20
870.33	2174.94
870.50	2252.77
870.66	2215.90
870.83	2228.19
871.00	2123.74
871.17	2215.90
871.33	2138.08
871.50	2146.27
871.67	2220.00
871.83	2068.45
872.00	2240.48
872.17	2125.79
872.33	2338.78
872.50	2295.77
872.67	2285.53
872.83	2107.36
873.00	2140.13
873.17	2166.75
873.33	2236.38
873.50	2224.09
873.67	2160.61
873.83	2095.07
874.00	2176.99
874.16	2285.53
874.33	2150.37
874.50	2107.36
874.66	2215.90
874.83	2164.70
875.00	2332.64
875.16	2357.21
875.33	2260.96
875.50	2002.91
875.66	2154.46
875.83	2185.18
875.99	2230.24
876.16	2162.66
876.33	2097.12
876.49	2082.78
876.66	2185.18
876.83	2109.41
876.99	2097.12
877.16	2220.00
877.32	2146.27
877.49	2185.18
877.66	2191.33
877.82	2271.20
877.99	2131.94
878.15	2146.27
878.32	2265.05
878.49	2267.10
878.65	2113.50
878.82	2295.77
878.98	2162.66
879.15	2260.96
879.32	2226.14
879.48	2181.09
879.65	2131.94
879.81	2117.60
879.98	2162.66
880.15	2109.41
880.31	2203.61
880.48	2146.27
880.64	2179.04
880.81	2211.81
880.97	2387.93
881.14	2275.29
881.31	2015.20
881.47	2351.07
881.64	2162.66
881.80	2037.73
881.97	2166.75
882.13	2277.34
882.30	2086.88
882.47	2154.46
882.63	2111.46
882.80	2136.03
882.96	2138.08
883.13	2250.72
883.29	2105.31
883.46	2140.13
883.62	2414.56
883.79	2244.57
883.95	2306.01
884.12	2172.89
884.29	2269.15
884.45	2170.85
884.62	2217.95
884.78	2043.87
884.95	2285.53
885.11	2109.41
885.28	2191.33
885.44	2193.37
885.61	2209.76
885.77	2322.40
885.94	2215.90
886.10	2179.04
886.27	2172.89
886.43	2361.31
886.60	2258.91
886.76	2103.26
886.93	2095.07
887.09	2232.29
887.26	2021.35
887.42	2158.56
887.59	2256.86
887.75	2396.12
887.92	2238.43
888.08	2240.48
888.25	2299.87
888.41	2291.68
888.58	2125.79
888.74	2172.89
888.91	2080.74
>>>>>End Processed Spectral Data<<<<<
