SpectraSuite Data File
++++++++++++++++++++++++++++++++++++
Date: Thu May 05 12:35:19 CEST 2016
User: root
Dark Spectrum Present: No
Reference Spectrum Present: No
Number of Sampled Component Spectra: 1
Spectrometers: USB4C02835
Integration Time (usec): 100000 (USB4C02835)
Spectra Averaged: 1 (USB4C02835)
Boxcar Smoothing: 0 (USB4C02835)
Correct for Electrical Dark: No (USB4C02835)
Strobe/Lamp Enabled: No (USB4C02835)
Correct for Detector Non-linearity: No (USB4C02835)
Correct for Stray Light: No (USB4C02835)
Number of Pixels in Processed Spectrum: 3648
>>>>>Begin Processed Spectral Data<<<<<
177.47	1728.49
177.69	1728.49
177.91	1728.49
178.13	1746.92
178.36	1769.44
178.58	2174.94
178.80	2185.18
179.02	2074.59
179.24	2070.50
179.46	2056.16
179.68	2168.80
179.90	2154.46
180.13	2158.56
180.35	2086.88
180.57	2060.26
180.79	2242.53
181.01	2121.70
181.23	2224.09
181.45	2185.18
181.67	2220.00
181.90	2242.53
182.12	2111.46
182.34	1974.24
182.56	2303.96
182.78	2260.96
183.00	2162.66
183.22	2078.69
183.44	2011.11
183.66	2363.36
183.89	2287.58
184.11	2172.89
184.33	2279.39
184.55	2365.40
184.77	2123.74
184.99	2183.13
185.21	2195.42
185.43	2435.03
185.65	2152.42
185.87	2111.46
186.10	2349.02
186.32	2406.36
186.54	2193.37
186.76	2238.43
186.98	2310.11
187.20	2166.75
187.42	2000.87
187.64	2176.99
187.86	2129.89
188.08	2297.82
188.30	2113.50
188.52	2127.84
188.75	2289.63
188.97	2289.63
189.19	2086.88
189.41	2047.97
189.63	2224.09
189.85	2117.60
190.07	2023.39
190.29	1970.15
190.51	2181.09
190.73	2138.08
190.95	2244.57
191.17	2150.37
191.39	2072.54
191.61	2168.80
191.84	2029.54
192.06	2138.08
192.28	2127.84
192.50	2498.52
192.72	2168.80
192.94	2189.28
193.16	2285.53
193.38	2217.95
193.60	2099.17
193.82	2129.89
194.04	2281.44
194.26	2275.29
194.48	2152.42
194.70	2064.35
194.92	2086.88
195.14	2273.25
195.36	2103.26
195.58	2215.90
195.80	2236.38
196.02	2146.27
196.24	2146.27
196.46	2179.04
196.69	2138.08
196.91	2426.84
197.13	2056.16
197.35	2111.46
197.57	2365.40
197.79	2228.19
198.01	2142.18
198.23	2209.76
198.45	2322.40
198.67	2088.93
198.89	2068.45
199.11	2166.75
199.33	2189.28
199.55	2047.97
199.77	2052.06
199.99	2217.95
200.21	2103.26
200.43	2195.42
200.65	2133.98
200.87	1955.81
201.09	2174.94
201.31	2154.46
201.53	2125.79
201.75	2203.61
201.97	2244.57
202.19	2209.76
202.41	2125.79
202.63	2265.05
202.85	2232.29
203.07	2244.57
203.29	2080.74
203.51	2015.20
203.73	2228.19
203.95	2512.86
204.17	2125.79
204.39	2193.37
204.61	2187.23
204.83	2113.50
205.05	2318.30
205.27	2158.56
205.49	2371.55
205.71	2248.67
205.93	2031.58
206.15	2007.01
206.37	2131.94
206.59	2129.89
206.81	2015.20
207.03	2131.94
207.25	2093.02
207.47	2277.34
207.69	2113.50
207.91	2363.36
208.13	2318.30
208.34	2152.42
208.56	2011.11
208.78	2121.70
209.00	2201.57
209.22	2125.79
209.44	2142.18
209.66	2131.94
209.88	2260.96
210.10	2125.79
210.32	2095.07
210.54	2195.42
210.76	2152.42
210.98	2306.01
211.20	2047.97
211.42	2220.00
211.64	2371.55
211.86	2256.86
212.08	2129.89
212.30	2105.31
212.52	2197.47
212.74	2224.09
212.96	2111.46
213.17	2248.67
213.39	2232.29
213.61	2326.49
213.83	2179.04
214.05	2129.89
214.27	2299.87
214.49	2078.69
214.71	2047.97
214.93	2185.18
215.15	2185.18
215.37	2287.58
215.59	2027.49
215.81	2203.61
216.03	2383.84
216.24	2152.42
216.46	2185.18
216.68	2234.33
216.90	2250.72
217.12	2353.12
217.34	2105.31
217.56	2187.23
217.78	2267.10
218.00	2256.86
218.22	2224.09
218.44	2244.57
218.66	2207.71
218.87	2363.36
219.09	2113.50
219.31	2195.42
219.53	2236.38
219.75	2072.54
219.97	2174.94
220.19	2185.18
220.41	2234.33
220.63	2322.40
220.85	2146.27
221.06	2062.30
221.28	2285.53
221.50	2232.29
221.72	2127.84
221.94	2084.83
222.16	2228.19
222.38	2199.52
222.60	2252.77
222.82	2105.31
223.03	2299.87
223.25	2078.69
223.47	2176.99
223.69	2263.01
223.91	2326.49
224.13	2238.43
224.35	2088.93
224.57	2265.05
224.78	2246.62
225.00	2146.27
225.22	2107.36
225.44	2176.99
225.66	2277.34
225.88	2121.70
226.10	2189.28
226.32	2205.66
226.53	2404.32
226.75	2107.36
226.97	2133.98
227.19	2113.50
227.41	2160.61
227.63	2082.78
227.85	2109.41
228.06	2166.75
228.28	2201.57
228.50	2326.49
228.72	2013.15
228.94	2002.91
229.16	1990.63
229.37	2078.69
229.59	1972.19
229.81	2310.11
230.03	2105.31
230.25	2068.45
230.47	2027.49
230.69	2029.54
230.90	2353.12
231.12	2074.59
231.34	2156.51
231.56	2138.08
231.78	2060.26
232.00	2230.24
232.21	2101.22
232.43	2080.74
232.65	1996.77
232.87	2287.58
233.09	2072.54
233.30	2121.70
233.52	2308.06
233.74	2138.08
233.96	2093.02
234.18	2176.99
234.40	2217.95
234.61	2367.45
234.83	2088.93
235.05	2088.93
235.27	2414.56
235.49	2285.53
235.70	2068.45
235.92	2256.86
236.14	2187.23
236.36	2428.89
236.58	2076.64
236.79	2172.89
237.01	2197.47
237.23	2205.66
237.45	2258.91
237.67	2156.51
237.88	2254.81
238.10	2381.79
238.32	2062.30
238.54	2080.74
238.76	2258.91
238.97	2097.12
239.19	2056.16
239.41	2207.71
239.63	2326.49
239.85	2138.08
240.06	2113.50
240.28	2107.36
240.50	2318.30
240.72	2189.28
240.93	2107.36
241.15	2211.81
241.37	2117.60
241.59	2381.79
241.81	2201.57
242.02	2199.52
242.24	2252.77
242.46	2318.30
242.68	2088.93
242.89	2101.22
243.11	2297.82
243.33	2240.48
243.55	2133.98
243.76	2119.65
243.98	2117.60
244.20	2195.42
244.42	2078.69
244.64	2033.63
244.85	2015.20
245.07	2019.30
245.29	2166.75
245.51	2119.65
245.72	2238.43
245.94	2303.96
246.16	2164.70
246.38	2209.76
246.59	2123.74
246.81	2086.88
247.03	2068.45
247.24	2068.45
247.46	2056.16
247.68	2281.44
247.90	2097.12
248.11	2185.18
248.33	2285.53
248.55	2224.09
248.77	2140.13
248.98	2232.29
249.20	2297.82
249.42	2191.33
249.64	2144.22
249.85	2082.78
250.07	2088.93
250.29	2215.90
250.50	2222.05
250.72	2062.30
250.94	2152.42
251.16	2437.08
251.37	2119.65
251.59	2191.33
251.81	2242.53
252.02	2326.49
252.24	2039.78
252.46	2195.42
252.68	2021.35
252.89	2119.65
253.11	2027.49
253.33	2211.81
253.54	2263.01
253.76	1994.72
253.98	2119.65
254.20	2133.98
254.41	2113.50
254.63	2123.74
254.85	2074.59
255.06	2187.23
255.28	2283.49
255.50	2191.33
255.71	2101.22
255.93	2029.54
256.15	2129.89
256.36	2183.13
256.58	2109.41
256.80	2086.88
257.02	2222.05
257.23	2183.13
257.45	2152.42
257.67	2213.85
257.88	2148.32
258.10	2289.63
258.32	2099.17
258.53	2191.33
258.75	2346.97
258.97	2215.90
259.18	2058.21
259.40	2152.42
259.62	2410.46
259.83	2306.01
260.05	2146.27
260.27	2652.12
260.48	2256.86
260.70	2162.66
260.92	2099.17
261.13	2142.18
261.35	2220.00
261.57	2234.33
261.78	2021.35
262.00	2068.45
262.22	2338.78
262.43	2062.30
262.65	2140.13
262.86	2121.70
263.08	2398.17
263.30	2193.37
263.51	1957.86
263.73	2140.13
263.95	2314.20
264.16	2095.07
264.38	2103.26
264.60	2113.50
264.81	2170.85
265.03	2293.72
265.25	2285.53
265.46	2129.89
265.68	2346.97
265.89	2252.77
266.11	2084.83
266.33	2138.08
266.54	2326.49
266.76	2318.30
266.98	2244.57
267.19	2201.57
267.41	2236.38
267.62	2228.19
267.84	2013.15
268.06	2205.66
268.27	2201.57
268.49	2326.49
268.70	2162.66
268.92	2187.23
269.14	2174.94
269.35	2052.06
269.57	2230.24
269.79	2191.33
270.00	2097.12
270.22	2336.73
270.43	2017.25
270.65	2019.30
270.87	2168.80
271.08	2244.57
271.30	2189.28
271.51	2166.75
271.73	2232.29
271.95	2291.68
272.16	2103.26
272.38	2226.14
272.59	2129.89
272.81	2209.76
273.02	2160.61
273.24	2238.43
273.46	2230.24
273.67	2095.07
273.89	2023.39
274.10	2093.02
274.32	2269.15
274.54	2179.04
274.75	2086.88
274.97	2170.85
275.18	2246.62
275.40	2267.10
275.61	2119.65
275.83	2076.64
276.05	2072.54
276.26	2105.31
276.48	2252.77
276.69	2076.64
276.91	2127.84
277.12	2299.87
277.34	2242.53
277.55	2267.10
277.77	2207.71
277.99	2197.47
278.20	2125.79
278.42	2015.20
278.63	2105.31
278.85	2109.41
279.06	2047.97
279.28	2244.57
279.49	2285.53
279.71	2269.15
279.93	2150.37
280.14	2164.70
280.36	2172.89
280.57	2252.77
280.79	2222.05
281.00	2076.64
281.22	2090.98
281.43	2222.05
281.65	1974.24
281.86	2080.74
282.08	2160.61
282.29	2453.47
282.51	2064.35
282.73	2103.26
282.94	2002.91
283.16	2228.19
283.37	2316.25
283.59	2133.98
283.80	2150.37
284.02	2197.47
284.23	2215.90
284.45	2095.07
284.66	2047.97
284.88	2060.26
285.09	2162.66
285.31	2170.85
285.52	2248.67
285.74	2078.69
285.95	2275.29
286.17	2150.37
286.38	2342.88
286.60	2236.38
286.81	2095.07
287.03	2166.75
287.24	2267.10
287.46	2168.80
287.67	2207.71
287.89	2435.03
288.10	2209.76
288.32	2246.62
288.53	2279.39
288.75	2166.75
288.96	2285.53
289.18	2150.37
289.39	2172.89
289.61	2187.23
289.82	2344.92
290.04	2412.51
290.25	2090.98
290.47	2121.70
290.68	2174.94
290.90	2269.15
291.11	2009.06
291.33	2240.48
291.54	2203.61
291.76	2136.03
291.97	2133.98
292.18	2136.03
292.40	2203.61
292.61	2133.98
292.83	2342.88
293.04	2213.85
293.26	2191.33
293.47	2136.03
293.69	2156.51
293.90	2176.99
294.12	2318.30
294.33	2156.51
294.55	2201.57
294.76	2269.15
294.97	2303.96
295.19	2430.94
295.40	2228.19
295.62	2263.01
295.83	2308.06
296.05	2142.18
296.26	2238.43
296.48	2125.79
296.69	2189.28
296.90	2281.44
297.12	2170.85
297.33	2207.71
297.55	2248.67
297.76	2205.66
297.98	2265.05
298.19	2242.53
298.41	2191.33
298.62	2119.65
298.83	2297.82
299.05	2267.10
299.26	2156.51
299.48	2117.60
299.69	2246.62
299.90	2142.18
300.12	2107.36
300.33	2248.67
300.55	2138.08
300.76	2187.23
300.98	2097.12
301.19	2238.43
301.40	2154.46
301.62	2181.09
301.83	2203.61
302.05	2242.53
302.26	2179.04
302.47	2193.37
302.69	2129.89
302.90	2222.05
303.12	1978.34
303.33	2271.20
303.54	2277.34
303.76	2201.57
303.97	2172.89
304.19	2355.16
304.40	2193.37
304.61	2256.86
304.83	2346.97
305.04	2195.42
305.26	2271.20
305.47	2123.74
305.68	2240.48
305.90	2064.35
306.11	2351.07
306.33	2217.95
306.54	2072.54
306.75	2125.79
306.97	2103.26
307.18	2074.59
307.39	2121.70
307.61	2267.10
307.82	2195.42
308.04	2160.61
308.25	2035.68
308.46	2244.57
308.68	2273.25
308.89	2197.47
309.10	2234.33
309.32	2232.29
309.53	2226.14
309.74	2168.80
309.96	2187.23
310.17	2361.31
310.39	2078.69
310.60	2215.90
310.81	2097.12
311.03	2031.58
311.24	2277.34
311.45	2105.31
311.67	2324.44
311.88	2209.76
312.09	2176.99
312.31	2115.55
312.52	2107.36
312.73	2183.13
312.95	2113.50
313.16	2119.65
313.37	2258.91
313.59	2242.53
313.80	2281.44
314.01	2340.83
314.23	2121.70
314.44	2117.60
314.65	2033.63
314.87	2093.02
315.08	2123.74
315.29	2097.12
315.51	2133.98
315.72	2037.73
315.93	2252.77
316.15	2228.19
316.36	2187.23
316.57	2209.76
316.79	2144.22
317.00	2144.22
317.21	2320.35
317.43	2195.42
317.64	2174.94
317.85	2088.93
318.07	2080.74
318.28	2205.66
318.49	2287.58
318.70	2455.51
318.92	2412.51
319.13	2441.18
319.34	2420.70
319.56	2267.10
319.77	2363.36
319.98	2275.29
320.20	2295.77
320.41	2281.44
320.62	2260.96
320.83	2131.94
321.05	2365.40
321.26	2179.04
321.47	2179.04
321.69	2277.34
321.90	2047.97
322.11	2125.79
322.32	2220.00
322.54	2351.07
322.75	2140.13
322.96	2498.52
323.18	2050.02
323.39	1994.72
323.60	2070.50
323.81	2164.70
324.03	2074.59
324.24	2226.14
324.45	2283.49
324.66	2215.90
324.88	2340.83
325.09	2279.39
325.30	2127.84
325.52	2256.86
325.73	2271.20
325.94	2097.12
326.15	2062.30
326.37	2133.98
326.58	2314.20
326.79	2344.92
327.00	2054.11
327.22	2232.29
327.43	2140.13
327.64	2103.26
327.85	2228.19
328.07	2215.90
328.28	2402.27
328.49	2183.13
328.70	2195.42
328.92	2193.37
329.13	2166.75
329.34	2258.91
329.55	2373.60
329.76	2273.25
329.98	2256.86
330.19	2293.72
330.40	2205.66
330.61	2203.61
330.83	2232.29
331.04	2093.02
331.25	2193.37
331.46	2105.31
331.68	2088.93
331.89	2310.11
332.10	2220.00
332.31	2064.35
332.52	2138.08
332.74	2328.54
332.95	1957.86
333.16	2176.99
333.37	2211.81
333.58	2179.04
333.80	2211.81
334.01	1996.77
334.22	2201.57
334.43	2080.74
334.64	2162.66
334.86	2060.26
335.07	2129.89
335.28	2340.83
335.49	1984.48
335.70	2271.20
335.92	2256.86
336.13	2326.49
336.34	2238.43
336.55	2158.56
336.76	2248.67
336.98	2045.92
337.19	2152.42
337.40	2273.25
337.61	2430.94
337.82	2088.93
338.04	2209.76
338.25	1998.82
338.46	2144.22
338.67	2230.24
338.88	2064.35
339.09	2037.73
339.31	2097.12
339.52	2021.35
339.73	2062.30
339.94	2109.41
340.15	2326.49
340.36	2101.22
340.58	2142.18
340.79	2097.12
341.00	2236.38
341.21	2162.66
341.42	2367.45
341.63	2088.93
341.85	2340.83
342.06	2121.70
342.27	2111.46
342.48	2297.82
342.69	2064.35
342.90	2207.71
343.12	2293.72
343.33	2150.37
343.54	2303.96
343.75	2308.06
343.96	2162.66
344.17	2154.46
344.38	2205.66
344.60	2060.26
344.81	2095.07
345.02	2144.22
345.23	2279.39
345.44	2383.84
345.65	2211.81
345.86	2238.43
346.07	2125.79
346.29	2138.08
346.50	2215.90
346.71	2193.37
346.92	2258.91
347.13	2432.99
347.34	2113.50
347.55	2228.19
347.76	2226.14
347.98	2052.06
348.19	2162.66
348.40	2316.25
348.61	2127.84
348.82	2400.22
349.03	2207.71
349.24	2111.46
349.45	2373.60
349.66	1974.24
349.88	2189.28
350.09	2095.07
350.30	2293.72
350.51	2340.83
350.72	2260.96
350.93	2199.52
351.14	2185.18
351.35	2181.09
351.56	2211.81
351.77	2211.81
351.99	2205.66
352.20	2357.21
352.41	2295.77
352.62	1996.77
352.83	2228.19
353.04	2230.24
353.25	2127.84
353.46	2222.05
353.67	2250.72
353.88	2107.36
354.09	2189.28
354.30	2244.57
354.52	2285.53
354.73	2205.66
354.94	2097.12
355.15	2154.46
355.36	2371.55
355.57	2113.50
355.78	2146.27
355.99	2103.26
356.20	2191.33
356.41	2340.83
356.62	2217.95
356.83	2164.70
357.04	2379.74
357.25	2101.22
357.46	2119.65
357.68	2072.54
357.89	2072.54
358.10	2191.33
358.31	2179.04
358.52	2136.03
358.73	2033.63
358.94	2123.74
359.15	2187.23
359.36	2099.17
359.57	2160.61
359.78	2189.28
359.99	2158.56
360.20	2129.89
360.41	2144.22
360.62	2226.14
360.83	2103.26
361.04	2236.38
361.25	2308.06
361.46	2416.60
361.67	2201.57
361.88	2230.24
362.09	2289.63
362.30	2162.66
362.51	2121.70
362.72	2197.47
362.93	2232.29
363.14	2283.49
363.35	2250.72
363.56	2095.07
363.78	2271.20
363.99	2279.39
364.20	2162.66
364.41	2199.52
364.62	2408.41
364.83	2254.81
365.04	2170.85
365.25	2117.60
365.46	2379.74
365.67	2101.22
365.88	2211.81
366.09	2224.09
366.30	2095.07
366.51	2250.72
366.72	2113.50
366.93	2187.23
367.14	2154.46
367.35	2357.21
367.56	2187.23
367.77	2303.96
367.98	2181.09
368.18	2281.44
368.39	2260.96
368.60	2095.07
368.81	2303.96
369.02	2246.62
369.23	2105.31
369.44	2142.18
369.65	2064.35
369.86	2211.81
370.07	2263.01
370.28	2170.85
370.49	2260.96
370.70	2269.15
370.91	2103.26
371.12	2068.45
371.33	2291.68
371.54	2187.23
371.75	2326.49
371.96	1935.33
372.17	2228.19
372.38	2215.90
372.59	2226.14
372.80	2133.98
373.01	2199.52
373.22	2203.61
373.43	2199.52
373.64	2113.50
373.85	2244.57
374.06	2316.25
374.26	2277.34
374.47	2136.03
374.68	2291.68
374.89	2166.75
375.10	2181.09
375.31	2179.04
375.52	2240.48
375.73	2197.47
375.94	2088.93
376.15	2314.20
376.36	2084.83
376.57	2144.22
376.78	2138.08
376.99	2101.22
377.20	2375.64
377.40	2101.22
377.61	2357.21
377.82	2093.02
378.03	2312.16
378.24	2228.19
378.45	2187.23
378.66	2179.04
378.87	2031.58
379.08	2027.49
379.29	2113.50
379.50	2334.68
379.71	2197.47
379.91	2211.81
380.12	2174.94
380.33	2189.28
380.54	2226.14
380.75	2183.13
380.96	2146.27
381.17	2258.91
381.38	2207.71
381.59	2205.66
381.80	2232.29
382.00	2377.69
382.21	2260.96
382.42	2363.36
382.63	2463.71
382.84	2242.53
383.05	2260.96
383.26	2387.93
383.47	2244.57
383.68	2209.76
383.88	2326.49
384.09	2244.57
384.30	2400.22
384.51	2209.76
384.72	2140.13
384.93	2056.16
385.14	2170.85
385.35	2273.25
385.55	2029.54
385.76	2383.84
385.97	2174.94
386.18	2047.97
386.39	2142.18
386.60	2146.27
386.81	2199.52
387.02	2050.02
387.22	2101.22
387.43	2340.83
387.64	2234.33
387.85	2289.63
388.06	2385.88
388.27	4093.89
388.48	8564.61
388.68	12238.66
388.89	14499.62
389.10	15795.98
389.31	14415.65
389.52	11564.88
389.73	9891.69
389.93	8966.01
390.14	8238.98
390.35	7358.35
390.56	6518.68
390.77	5271.47
390.98	4118.47
391.18	3256.27
391.39	2764.76
391.60	2334.68
391.81	2361.31
392.02	2154.46
392.23	2447.32
392.43	2265.05
392.64	2260.96
392.85	2207.71
393.06	2424.80
393.27	2129.89
393.47	2152.42
393.68	2201.57
393.89	2117.60
394.10	2281.44
394.31	2172.89
394.52	2162.66
394.72	2142.18
394.93	2365.40
395.14	2105.31
395.35	2201.57
395.56	2197.47
395.76	2181.09
395.97	2207.71
396.18	2328.54
396.39	2365.40
396.60	2652.12
396.80	2453.47
397.01	2355.16
397.22	2404.32
397.43	2379.74
397.64	2113.50
397.84	2289.63
398.05	2381.79
398.26	2299.87
398.47	2318.30
398.67	2256.86
398.88	2172.89
399.09	2181.09
399.30	2138.08
399.51	2273.25
399.71	2133.98
399.92	2222.05
400.13	2209.76
400.34	2138.08
400.54	2127.84
400.75	2332.64
400.96	2226.14
401.17	2365.40
401.37	2195.42
401.58	2146.27
401.79	2189.28
402.00	2387.93
402.21	2592.73
402.41	2553.82
402.62	2537.43
402.83	2695.13
403.04	2668.50
403.24	2789.33
403.45	2324.44
403.66	2482.14
403.87	2488.28
404.07	2467.80
404.28	2500.57
404.49	2473.95
404.70	2285.53
404.90	2330.59
405.11	2211.81
405.32	2324.44
405.52	2121.70
405.73	2131.94
405.94	2082.78
406.15	2209.76
406.35	2265.05
406.56	2228.19
406.77	2293.72
406.98	2226.14
407.18	2176.99
407.39	2361.31
407.60	2203.61
407.80	2252.77
408.01	2084.83
408.22	2273.25
408.43	2109.41
408.63	2207.71
408.84	2332.64
409.05	2277.34
409.25	2174.94
409.46	2095.07
409.67	2176.99
409.88	2162.66
410.08	2334.68
410.29	2242.53
410.50	2217.95
410.70	2166.75
410.91	2064.35
411.12	2271.20
411.32	2197.47
411.53	2185.18
411.74	2275.29
411.95	2228.19
412.15	2297.82
412.36	2363.36
412.57	2316.25
412.77	2351.07
412.98	2187.23
413.19	2170.85
413.39	2201.57
413.60	2174.94
413.81	2344.92
414.01	2095.07
414.22	2256.86
414.43	2295.77
414.63	2207.71
414.84	2326.49
415.05	2215.90
415.25	2062.30
415.46	2281.44
415.67	2185.18
415.87	2242.53
416.08	2146.27
416.29	2121.70
416.49	2205.66
416.70	2187.23
416.91	2158.56
417.11	2154.46
417.32	2338.78
417.53	2303.96
417.73	2254.81
417.94	2181.09
418.15	2222.05
418.35	2166.75
418.56	2146.27
418.77	2359.26
418.97	2158.56
419.18	2250.72
419.38	1990.63
419.59	2183.13
419.80	2342.88
420.00	2127.84
420.21	2193.37
420.42	2336.73
420.62	2254.81
420.83	2123.74
421.04	2185.18
421.24	2162.66
421.45	2283.49
421.65	2220.00
421.86	2103.26
422.07	2363.36
422.27	2330.59
422.48	2222.05
422.69	2129.89
422.89	2129.89
423.10	2179.04
423.30	2064.35
423.51	2209.76
423.72	2197.47
423.92	2250.72
424.13	2043.87
424.33	2181.09
424.54	2334.68
424.75	2160.61
424.95	2306.01
425.16	2125.79
425.36	2279.39
425.57	2232.29
425.78	2312.16
425.98	2275.29
426.19	2176.99
426.39	2154.46
426.60	2205.66
426.81	2299.87
427.01	2338.78
427.22	2107.36
427.42	2039.78
427.63	2131.94
427.83	2226.14
428.04	2299.87
428.25	2301.92
428.45	2306.01
428.66	2283.49
428.86	2195.42
429.07	2193.37
429.28	2176.99
429.48	2166.75
429.69	2174.94
429.89	2172.89
430.10	2033.63
430.30	2246.62
430.51	2299.87
430.71	2095.07
430.92	2121.70
431.13	2183.13
431.33	2246.62
431.54	2217.95
431.74	2318.30
431.95	2359.26
432.15	2068.45
432.36	2154.46
432.56	2224.09
432.77	2330.59
432.98	2312.16
433.18	2240.48
433.39	2148.32
433.59	2224.09
433.80	2400.22
434.00	2353.12
434.21	2179.04
434.41	2088.93
434.62	2408.41
434.82	2058.21
435.03	2074.59
435.23	2277.34
435.44	2002.91
435.64	2211.81
435.85	2281.44
436.06	2232.29
436.26	2326.49
436.47	2215.90
436.67	2176.99
436.88	2234.33
437.08	2289.63
437.29	2228.19
437.49	2240.48
437.70	2299.87
437.90	2256.86
438.11	2277.34
438.31	2340.83
438.52	2340.83
438.72	2371.55
438.93	2502.62
439.13	2365.40
439.34	2242.53
439.54	2234.33
439.75	2301.92
439.95	2318.30
440.16	2179.04
440.36	2240.48
440.57	2252.77
440.77	2271.20
440.98	2236.38
441.18	2279.39
441.39	2183.13
441.59	2154.46
441.80	2408.41
442.00	2181.09
442.21	2228.19
442.41	2060.26
442.62	2310.11
442.82	2090.98
443.02	2179.04
443.23	2183.13
443.43	2187.23
443.64	2406.36
443.84	2154.46
444.05	2283.49
444.25	2179.04
444.46	2209.76
444.66	2250.72
444.87	2279.39
445.07	2029.54
445.28	2285.53
445.48	2320.35
445.69	2271.20
445.89	2496.47
446.09	2263.01
446.30	2500.57
446.50	2756.57
446.71	4511.68
446.91	5552.04
447.12	6418.33
447.32	6879.13
447.53	6320.03
447.73	5031.86
447.93	4521.92
448.14	4335.55
448.34	4046.79
448.55	3674.06
448.75	3557.32
448.96	3397.58
449.16	3067.86
449.36	2889.68
449.57	2473.95
449.77	2353.12
449.98	2201.57
450.18	2377.69
450.39	2324.44
450.59	2342.88
450.79	2195.42
451.00	2201.57
451.20	2275.29
451.41	2203.61
451.61	2254.81
451.81	2197.47
452.02	2195.42
452.22	2162.66
452.43	2199.52
452.63	2197.47
452.84	2150.37
453.04	2150.37
453.24	2195.42
453.45	2082.78
453.65	2201.57
453.86	2269.15
454.06	2283.49
454.26	2277.34
454.47	2150.37
454.67	2285.53
454.87	2256.86
455.08	2248.67
455.28	2351.07
455.49	2211.81
455.69	2086.88
455.89	2441.18
456.10	2334.68
456.30	2187.23
456.51	2330.59
456.71	2195.42
456.91	2197.47
457.12	2260.96
457.32	2244.57
457.52	2115.55
457.73	2254.81
457.93	2310.11
458.14	2166.75
458.34	2080.74
458.54	2203.61
458.75	2095.07
458.95	2279.39
459.15	2217.95
459.36	2260.96
459.56	2248.67
459.76	2496.47
459.97	2211.81
460.17	2203.61
460.37	2318.30
460.58	2224.09
460.78	2213.85
460.99	2148.32
461.19	2133.98
461.39	2136.03
461.60	2187.23
461.80	2191.33
462.00	2068.45
462.21	2244.57
462.41	2127.84
462.61	2156.51
462.82	2105.31
463.02	2248.67
463.22	2320.35
463.43	2301.92
463.63	2138.08
463.83	2301.92
464.04	2209.76
464.24	2191.33
464.44	2199.52
464.64	2254.81
464.85	2281.44
465.05	2250.72
465.25	2187.23
465.46	2207.71
465.66	2318.30
465.86	2250.72
466.07	2193.37
466.27	2228.19
466.47	2103.26
466.68	2080.74
466.88	2320.35
467.08	2199.52
467.29	2230.24
467.49	2215.90
467.69	2181.09
467.89	2260.96
468.10	2228.19
468.30	2240.48
468.50	2203.61
468.71	2265.05
468.91	2103.26
469.11	2320.35
469.31	2166.75
469.52	2144.22
469.72	2392.03
469.92	2373.60
470.13	2123.74
470.33	2166.75
470.53	2293.72
470.73	2699.22
470.94	3037.14
471.14	3299.28
471.34	3741.64
471.54	3551.18
471.75	3155.92
471.95	2852.82
472.15	2709.46
472.36	2789.33
472.56	2682.84
472.76	2705.37
472.96	2551.77
473.17	2514.91
473.37	2478.04
473.57	2285.53
473.77	2330.59
473.98	2144.22
474.18	2107.36
474.38	2447.32
474.58	2207.71
474.79	2119.65
474.99	2203.61
475.19	2299.87
475.39	2105.31
475.60	2176.99
475.80	2220.00
476.00	2220.00
476.20	2162.66
476.41	2195.42
476.61	2342.88
476.81	2342.88
477.01	2070.50
477.21	2389.98
477.42	2338.78
477.62	2062.30
477.82	2330.59
478.02	2152.42
478.23	2248.67
478.43	2129.89
478.63	2166.75
478.83	2140.13
479.03	2148.32
479.24	2387.93
479.44	2402.27
479.64	2129.89
479.84	2060.26
480.04	2080.74
480.25	2287.58
480.45	2113.50
480.65	2224.09
480.85	2349.02
481.06	2244.57
481.26	2203.61
481.46	2150.37
481.66	2217.95
481.86	2117.60
482.06	2340.83
482.27	2168.80
482.47	2127.84
482.67	2265.05
482.87	2250.72
483.07	2299.87
483.28	2136.03
483.48	2093.02
483.68	2240.48
483.88	2146.27
484.08	2002.91
484.29	2037.73
484.49	2176.99
484.69	2066.40
484.89	2314.20
485.09	2310.11
485.29	2238.43
485.50	2342.88
485.70	2265.05
485.90	2281.44
486.10	2242.53
486.30	2215.90
486.50	2291.68
486.71	2187.23
486.91	2297.82
487.11	2336.73
487.31	2080.74
487.51	2260.96
487.71	2191.33
487.91	2064.35
488.12	2088.93
488.32	2039.78
488.52	2138.08
488.72	2084.83
488.92	2269.15
489.12	2342.88
489.32	2402.27
489.53	2291.68
489.73	2080.74
489.93	2383.84
490.13	2244.57
490.33	2123.74
490.53	2228.19
490.73	2340.83
490.94	2064.35
491.14	2312.16
491.34	2351.07
491.54	2457.56
491.74	3131.34
491.94	3696.58
492.14	4065.22
492.34	4128.70
492.54	3735.50
492.75	3114.96
492.95	3252.17
493.15	2992.08
493.35	2832.34
493.55	2910.16
493.75	2705.37
493.95	2715.61
494.15	2455.51
494.35	2351.07
494.56	2355.16
494.76	2203.61
494.96	2217.95
495.16	2228.19
495.36	2236.38
495.56	2301.92
495.76	2140.13
495.96	2195.42
496.16	2111.46
496.36	2361.31
496.56	2209.76
496.77	2240.48
496.97	2260.96
497.17	2260.96
497.37	2090.98
497.57	2279.39
497.77	2205.66
497.97	2142.18
498.17	2101.22
498.37	2181.09
498.57	2230.24
498.77	2197.47
498.97	2263.01
499.17	2363.36
499.38	2215.90
499.58	2271.20
499.78	2318.30
499.98	2336.73
500.18	2179.04
500.38	2160.61
500.58	2408.41
500.78	2858.96
500.98	5345.20
501.18	7399.31
501.38	9258.87
501.58	9922.41
501.78	9873.26
501.98	7772.04
502.18	6498.20
502.38	5607.34
502.58	5126.07
502.78	4698.04
502.98	4552.63
503.18	4300.73
503.38	3870.66
503.59	3420.11
503.79	3305.42
503.99	3008.47
504.19	2785.24
504.39	2875.35
504.59	2926.55
504.79	2865.11
504.99	2879.44
505.19	2582.49
505.39	2523.10
505.59	2656.22
505.79	2475.99
505.99	2457.56
506.19	2301.92
506.39	2439.13
506.59	2236.38
506.79	2265.05
506.99	2332.64
507.19	2195.42
507.39	2336.73
507.59	2064.35
507.79	2197.47
507.99	2148.32
508.19	2258.91
508.39	2164.70
508.59	2248.67
508.79	2312.16
508.99	2355.16
509.19	2131.94
509.39	2252.77
509.59	2172.89
509.79	2207.71
509.99	2203.61
510.19	2285.53
510.39	2242.53
510.59	2181.09
510.79	2162.66
510.99	2170.85
511.19	2232.29
511.39	2240.48
511.59	2256.86
511.79	2273.25
511.99	2199.52
512.19	2334.68
512.38	2211.81
512.58	2144.22
512.78	2217.95
512.98	2308.06
513.18	2359.26
513.38	2099.17
513.58	2355.16
513.78	2064.35
513.98	2185.18
514.18	2215.90
514.38	2168.80
514.58	2185.18
514.78	2156.51
514.98	2103.26
515.18	2201.57
515.38	2131.94
515.58	2385.88
515.78	2097.12
515.98	2271.20
516.18	2281.44
516.38	2195.42
516.57	2129.89
516.77	2176.99
516.97	2328.54
517.17	2170.85
517.37	2095.07
517.57	2277.34
517.77	2232.29
517.97	2250.72
518.17	2220.00
518.37	2170.85
518.57	2160.61
518.77	2263.01
518.97	2156.51
519.16	2258.91
519.36	2293.72
519.56	2140.13
519.76	2160.61
519.96	2160.61
520.16	2369.50
520.36	2101.22
520.56	2228.19
520.76	2166.75
520.96	2140.13
521.16	2308.06
521.35	2254.81
521.55	2357.21
521.75	2252.77
521.95	2205.66
522.15	2154.46
522.35	2072.54
522.55	2138.08
522.75	2312.16
522.95	2109.41
523.14	2117.60
523.34	2242.53
523.54	2172.89
523.74	2185.18
523.94	2189.28
524.14	2093.02
524.34	2269.15
524.54	2340.83
524.73	2211.81
524.93	2265.05
525.13	2199.52
525.33	2103.26
525.53	2387.93
525.73	2285.53
525.93	2220.00
526.13	2179.04
526.32	2158.56
526.52	2279.39
526.72	2359.26
526.92	2267.10
527.12	2209.76
527.32	2088.93
527.52	2232.29
527.71	2267.10
527.91	2170.85
528.11	2193.37
528.31	2203.61
528.51	2076.64
528.71	2209.76
528.90	2220.00
529.10	2285.53
529.30	2340.83
529.50	2000.87
529.70	2281.44
529.90	2181.09
530.09	2146.27
530.29	2074.59
530.49	2113.50
530.69	2480.09
530.89	2164.70
531.09	2277.34
531.28	2117.60
531.48	2332.64
531.68	2230.24
531.88	2230.24
532.08	2277.34
532.28	2252.77
532.47	2203.61
532.67	2289.63
532.87	2193.37
533.07	2287.58
533.27	2316.25
533.46	2217.95
533.66	2299.87
533.86	2263.01
534.06	2209.76
534.26	2256.86
534.45	2193.37
534.65	2301.92
534.85	2269.15
535.05	2142.18
535.25	2328.54
535.44	2129.89
535.64	2295.77
535.84	2176.99
536.04	2170.85
536.24	2232.29
536.43	2160.61
536.63	2287.58
536.83	2189.28
537.03	2287.58
537.22	2095.07
537.42	2129.89
537.62	2174.94
537.82	2174.94
538.02	2351.07
538.21	2365.40
538.41	2461.66
538.61	2344.92
538.81	2191.33
539.00	2344.92
539.20	2043.87
539.40	2236.38
539.60	2209.76
539.79	2299.87
539.99	2203.61
540.19	2150.37
540.39	2172.89
540.58	2252.77
540.78	2318.30
540.98	2226.14
541.18	2301.92
541.37	2228.19
541.57	2265.05
541.77	2187.23
541.97	2111.46
542.16	2097.12
542.36	2185.18
542.56	2179.04
542.76	2371.55
542.95	2289.63
543.15	2334.68
543.35	2349.02
543.54	2119.65
543.74	2158.56
543.94	2310.11
544.14	2174.94
544.33	2179.04
544.53	2205.66
544.73	2105.31
544.93	2156.51
545.12	2209.76
545.32	2215.90
545.52	2133.98
545.71	2099.17
545.91	2181.09
546.11	2162.66
546.30	2146.27
546.50	2285.53
546.70	2205.66
546.90	2215.90
547.09	1982.43
547.29	2172.89
547.49	2299.87
547.68	2228.19
547.88	2160.61
548.08	2230.24
548.27	2621.40
548.47	2107.36
548.67	2166.75
548.87	2279.39
549.06	2162.66
549.26	2220.00
549.46	2238.43
549.65	2179.04
549.85	2279.39
550.05	2179.04
550.24	2060.26
550.44	2240.48
550.64	2197.47
550.83	2154.46
551.03	2312.16
551.23	2318.30
551.42	2267.10
551.62	2176.99
551.82	2164.70
552.01	2146.27
552.21	2357.21
552.41	2164.70
552.60	2324.44
552.80	2201.57
553.00	2146.27
553.19	2142.18
553.39	2281.44
553.59	2060.26
553.78	2228.19
553.98	2209.76
554.17	2121.70
554.37	2256.86
554.57	2260.96
554.76	2144.22
554.96	2224.09
555.16	2154.46
555.35	2269.15
555.55	2312.16
555.75	2209.76
555.94	2316.25
556.14	1980.39
556.33	2279.39
556.53	2170.85
556.73	2252.77
556.92	2310.11
557.12	2269.15
557.32	2375.64
557.51	2408.41
557.71	2283.49
557.90	2303.96
558.10	2283.49
558.30	2211.81
558.49	2152.42
558.69	2195.42
558.88	2244.57
559.08	2168.80
559.28	2187.23
559.47	2181.09
559.67	2250.72
559.86	2420.70
560.06	2168.80
560.26	2189.28
560.45	2179.04
560.65	2160.61
560.84	2273.25
561.04	2142.18
561.24	2232.29
561.43	2070.50
561.63	2396.12
561.82	2168.80
562.02	2250.72
562.22	2125.79
562.41	2093.02
562.61	2131.94
562.80	2142.18
563.00	2447.32
563.19	2246.62
563.39	2203.61
563.59	2234.33
563.78	2127.84
563.98	2031.58
564.17	2140.13
564.37	2070.50
564.56	2207.71
564.76	2133.98
564.96	2326.49
565.15	2293.72
565.35	2349.02
565.54	2156.51
565.74	2240.48
565.93	2351.07
566.13	2242.53
566.32	2236.38
566.52	2289.63
566.71	2222.05
566.91	2289.63
567.11	2308.06
567.30	2129.89
567.50	2240.48
567.69	2279.39
567.89	2258.91
568.08	2093.02
568.28	2228.19
568.47	2101.22
568.67	2168.80
568.86	2166.75
569.06	2301.92
569.25	2199.52
569.45	2088.93
569.64	2170.85
569.84	2215.90
570.04	2260.96
570.23	2162.66
570.43	2160.61
570.62	2252.77
570.82	2406.36
571.01	2125.79
571.21	2183.13
571.40	2189.28
571.60	2285.53
571.79	2297.82
571.99	2234.33
572.18	2113.50
572.38	2220.00
572.57	2160.61
572.77	2260.96
572.96	2420.70
573.16	2230.24
573.35	2127.84
573.55	2299.87
573.74	2256.86
573.94	2258.91
574.13	2123.74
574.33	2322.40
574.52	2392.03
574.71	2310.11
574.91	2248.67
575.10	2105.31
575.30	2246.62
575.49	2176.99
575.69	2224.09
575.88	2267.10
576.08	2252.77
576.27	2412.51
576.47	2232.29
576.66	2332.64
576.86	2373.60
577.05	2250.72
577.25	2277.34
577.44	2441.18
577.64	2101.22
577.83	2377.69
578.02	2220.00
578.22	2437.08
578.41	2375.64
578.61	2217.95
578.80	2158.56
579.00	2283.49
579.19	2310.11
579.39	2318.30
579.58	2267.10
579.77	2232.29
579.97	2359.26
580.16	2344.92
580.36	2349.02
580.55	2330.59
580.75	2228.19
580.94	2293.72
581.13	2365.40
581.33	2381.79
581.52	2254.81
581.72	2459.61
581.91	2459.61
582.11	2275.29
582.30	2281.44
582.49	2303.96
582.69	2363.36
582.88	2285.53
583.08	2326.49
583.27	2346.97
583.47	2275.29
583.66	2191.33
583.85	2181.09
584.05	2224.09
584.24	2314.20
584.44	2224.09
584.63	2392.03
584.82	2365.40
585.02	2428.89
585.21	2408.41
585.41	2363.36
585.60	2478.04
585.79	2457.56
585.99	2488.28
586.18	2381.79
586.37	2875.35
586.57	4485.05
586.76	13369.14
586.96	32298.52
587.15	46413.12
587.34	55637.17
587.54	60591.20
587.73	55708.85
587.93	39493.03
588.12	29902.39
588.31	23555.74
588.51	20743.88
588.70	18855.65
588.89	17444.60
589.09	15095.58
589.28	12969.79
589.47	10624.86
589.67	8152.96
589.86	6424.48
590.06	4612.03
590.25	3819.46
590.44	3217.36
590.64	2826.20
590.83	2570.20
591.02	2605.02
591.22	2439.13
591.41	2332.64
591.60	2277.34
591.80	2408.41
591.99	2156.51
592.18	2215.90
592.38	2314.20
592.57	2230.24
592.76	2242.53
592.96	2283.49
593.15	2279.39
593.34	2379.74
593.54	2258.91
593.73	2250.72
593.92	2310.11
594.12	2285.53
594.31	2310.11
594.50	2428.89
594.70	2328.54
594.89	2537.43
595.08	2086.88
595.28	2351.07
595.47	2592.73
595.66	2232.29
595.86	2174.94
596.05	2207.71
596.24	2142.18
596.43	2424.80
596.63	2363.36
596.82	2281.44
597.01	2301.92
597.21	2400.22
597.40	2310.11
597.59	2256.86
597.79	2279.39
597.98	2303.96
598.17	2271.20
598.36	2299.87
598.56	2287.58
598.75	2140.13
598.94	2258.91
599.14	2281.44
599.33	2097.12
599.52	2340.83
599.71	2236.38
599.91	2320.35
600.10	2351.07
600.29	2252.77
600.48	2379.74
600.68	2252.77
600.87	2201.57
601.06	2127.84
601.26	2260.96
601.45	2244.57
601.64	2189.28
601.83	2303.96
602.03	2160.61
602.22	2133.98
602.41	2344.92
602.60	2488.28
602.80	2306.01
602.99	2203.61
603.18	2185.18
603.37	2213.85
603.57	2246.62
603.76	2314.20
603.95	2355.16
604.14	2179.04
604.34	2256.86
604.53	2228.19
604.72	2265.05
604.91	2283.49
605.10	2301.92
605.30	2148.32
605.49	2359.26
605.68	2303.96
605.87	2258.91
606.07	2148.32
606.26	2220.00
606.45	2244.57
606.64	2226.14
606.84	2203.61
607.03	2267.10
607.22	2334.68
607.41	2234.33
607.60	2209.76
607.80	2330.59
607.99	2248.67
608.18	2267.10
608.37	2213.85
608.56	2187.23
608.76	2424.80
608.95	2506.71
609.14	2281.44
609.33	2414.56
609.52	2445.27
609.72	2244.57
609.91	2357.21
610.10	2240.48
610.29	2412.51
610.48	2387.93
610.68	2301.92
610.87	2148.32
611.06	2318.30
611.25	2250.72
611.44	2273.25
611.63	2150.37
611.83	2355.16
612.02	2088.93
612.21	2379.74
612.40	2080.74
612.59	2136.03
612.79	2111.46
612.98	2324.44
613.17	2443.23
613.36	2252.77
613.55	2389.98
613.74	2291.68
613.93	2426.84
614.13	2535.39
614.32	2537.43
614.51	2461.66
614.70	2301.92
614.89	2269.15
615.08	2369.50
615.28	2748.37
615.47	2252.77
615.66	2340.83
615.85	2310.11
616.04	2418.65
616.23	2285.53
616.42	2308.06
616.62	2228.19
616.81	2279.39
617.00	2195.42
617.19	2303.96
617.38	2193.37
617.57	2275.29
617.76	2265.05
617.95	2283.49
618.15	2256.86
618.34	2310.11
618.53	2113.50
618.72	2340.83
618.91	2293.72
619.10	2369.50
619.29	2195.42
619.48	2256.86
619.68	2148.32
619.87	2150.37
620.06	2023.39
620.25	2263.01
620.44	2144.22
620.63	2230.24
620.82	2220.00
621.01	2310.11
621.20	2248.67
621.39	2254.81
621.59	2338.78
621.78	2238.43
621.97	2234.33
622.16	2279.39
622.35	2228.19
622.54	2301.92
622.73	2285.53
622.92	2105.31
623.11	2334.68
623.30	2125.79
623.49	2287.58
623.68	2138.08
623.88	2383.84
624.07	2187.23
624.26	2205.66
624.45	2236.38
624.64	2093.02
624.83	2201.57
625.02	2195.42
625.21	2142.18
625.40	2203.61
625.59	2308.06
625.78	2252.77
625.97	2340.83
626.16	2342.88
626.35	2367.45
626.54	2310.11
626.74	2424.80
626.93	2222.05
627.12	2289.63
627.31	2359.26
627.50	2312.16
627.69	2340.83
627.88	2193.37
628.07	2226.14
628.26	2113.50
628.45	2211.81
628.64	2133.98
628.83	2308.06
629.02	2154.46
629.21	2314.20
629.40	2209.76
629.59	2203.61
629.78	2205.66
629.97	2193.37
630.16	2263.01
630.35	2185.18
630.54	2222.05
630.73	2144.22
630.92	2275.29
631.11	2142.18
631.30	2142.18
631.49	2334.68
631.68	2181.09
631.87	2199.52
632.06	2154.46
632.25	2449.37
632.44	2217.95
632.63	2367.45
632.82	2230.24
633.01	2166.75
633.20	2406.36
633.39	2330.59
633.58	2127.84
633.77	2226.14
633.96	2271.20
634.15	2291.68
634.34	2297.82
634.53	2285.53
634.72	2183.13
634.91	2047.97
635.10	2293.72
635.29	2324.44
635.48	2254.81
635.67	2107.36
635.86	2172.89
636.05	2344.92
636.24	2234.33
636.43	2179.04
636.62	2299.87
636.81	1966.05
637.00	2224.09
637.19	2146.27
637.38	2220.00
637.57	2201.57
637.76	2234.33
637.95	2361.31
638.14	2217.95
638.33	2310.11
638.52	2326.49
638.71	2154.46
638.89	2144.22
639.08	2543.58
639.27	2394.08
639.46	2490.33
639.65	2877.40
639.84	2932.69
640.03	2985.94
640.22	2908.12
640.41	3047.38
640.60	2551.77
640.79	2514.91
640.98	2424.80
641.17	2457.56
641.36	2488.28
641.55	2373.60
641.74	2195.42
641.92	2193.37
642.11	2203.61
642.30	2209.76
642.49	2203.61
642.68	2174.94
642.87	2273.25
643.06	2297.82
643.25	2144.22
643.44	2045.92
643.63	2176.99
643.82	2326.49
644.00	2072.54
644.19	2189.28
644.38	2111.46
644.57	2308.06
644.76	2273.25
644.95	2088.93
645.14	2203.61
645.33	2174.94
645.52	2142.18
645.71	2074.59
645.89	2052.06
646.08	2224.09
646.27	2129.89
646.46	2316.25
646.65	2027.49
646.84	2217.95
647.03	2111.46
647.22	2260.96
647.40	2301.92
647.59	2228.19
647.78	2029.54
647.97	2121.70
648.16	2183.13
648.35	2371.55
648.54	2263.01
648.73	2068.45
648.91	2324.44
649.10	2250.72
649.29	2191.33
649.48	2217.95
649.67	2318.30
649.86	2283.49
650.05	2187.23
650.23	2453.47
650.42	2279.39
650.61	2459.61
650.80	2424.80
650.99	2471.90
651.18	2351.07
651.36	2277.34
651.55	2195.42
651.74	2295.77
651.93	2140.13
652.12	2207.71
652.31	2320.35
652.49	2183.13
652.68	2158.56
652.87	2379.74
653.06	2306.01
653.25	2435.03
653.44	2201.57
653.62	2412.51
653.81	2181.09
654.00	2215.90
654.19	2236.38
654.38	2394.08
654.56	2277.34
654.75	2144.22
654.94	2324.44
655.13	2209.76
655.32	2174.94
655.51	2244.57
655.69	2170.85
655.88	2236.38
656.07	2127.84
656.26	2238.43
656.45	2076.64
656.63	2250.72
656.82	2179.04
657.01	2369.50
657.20	2183.13
657.38	2392.03
657.57	2164.70
657.76	2021.35
657.95	2326.49
658.14	2115.55
658.32	2146.27
658.51	2084.83
658.70	2203.61
658.89	2252.77
659.08	2162.66
659.26	2449.37
659.45	2154.46
659.64	2332.64
659.83	2248.67
660.01	2478.04
660.20	2160.61
660.39	2363.36
660.58	2072.54
660.76	2230.24
660.95	2095.07
661.14	2199.52
661.33	2056.16
661.51	2168.80
661.70	2109.41
661.89	2166.75
662.08	2133.98
662.26	2076.64
662.45	2105.31
662.64	2441.18
662.83	2211.81
663.01	2047.97
663.20	2136.03
663.39	2365.40
663.58	2146.27
663.76	2154.46
663.95	2342.88
664.14	2136.03
664.32	2170.85
664.51	2146.27
664.70	2041.82
664.89	2183.13
665.07	2088.93
665.26	2207.71
665.45	2142.18
665.64	2244.57
665.82	2211.81
666.01	2306.01
666.20	2072.54
666.38	2209.76
666.57	2299.87
666.76	3309.52
666.95	7966.60
667.13	16469.76
667.32	21814.96
667.51	25665.14
667.69	27795.03
667.88	25427.58
668.07	18142.96
668.25	14544.67
668.44	11960.14
668.63	10063.72
668.81	9004.92
669.00	7929.74
669.19	7055.25
669.38	6152.10
669.56	5300.14
669.75	4323.26
669.94	3731.40
670.12	3102.67
670.31	2850.77
670.50	2652.12
670.68	2568.15
670.87	2367.45
671.06	2326.49
671.24	2271.20
671.43	2398.17
671.62	2291.68
671.80	2211.81
671.99	2283.49
672.18	2236.38
672.36	2271.20
672.55	2201.57
672.74	2322.40
672.92	2195.42
673.11	2256.86
673.29	2146.27
673.48	2289.63
673.67	2109.41
673.85	2256.86
674.04	2144.22
674.23	2170.85
674.41	2328.54
674.60	2109.41
674.79	2076.64
674.97	2103.26
675.16	2236.38
675.34	2275.29
675.53	2113.50
675.72	2287.58
675.90	2392.03
676.09	2205.66
676.28	2191.33
676.46	2084.83
676.65	2201.57
676.83	2144.22
677.02	2201.57
677.21	2205.66
677.39	2258.91
677.58	2076.64
677.77	2138.08
677.95	2146.27
678.14	2191.33
678.32	2220.00
678.51	2146.27
678.70	2408.41
678.88	2129.89
679.07	2230.24
679.25	2217.95
679.44	2158.56
679.63	2117.60
679.81	2195.42
680.00	2301.92
680.18	2222.05
680.37	2277.34
680.55	2185.18
680.74	2074.59
680.93	1974.24
681.11	2220.00
681.30	2213.85
681.48	2242.53
681.67	2138.08
681.85	2187.23
682.04	2125.79
682.23	2240.48
682.41	2207.71
682.60	2133.98
682.78	2166.75
682.97	2117.60
683.15	2236.38
683.34	2189.28
683.53	2265.05
683.71	2004.96
683.90	2295.77
684.08	2389.98
684.27	2228.19
684.45	2179.04
684.64	2326.49
684.82	2248.67
685.01	2273.25
685.19	2197.47
685.38	2355.16
685.57	2187.23
685.75	2127.84
685.94	2117.60
686.12	2097.12
686.31	2101.22
686.49	2340.83
686.68	2066.40
686.86	2174.94
687.05	2232.29
687.23	2287.58
687.42	2183.13
687.60	2041.82
687.79	2252.77
687.97	2336.73
688.16	2297.82
688.34	2295.77
688.53	2050.02
688.71	2269.15
688.90	2273.25
689.08	2146.27
689.27	2068.45
689.45	2332.64
689.64	2291.68
689.82	2162.66
690.01	2283.49
690.19	2252.77
690.38	2222.05
690.56	2316.25
690.75	2160.61
690.93	2117.60
691.12	2162.66
691.30	2267.10
691.49	2209.76
691.67	2127.84
691.86	2385.88
692.04	2195.42
692.23	2197.47
692.41	2197.47
692.60	2533.34
692.78	2400.22
692.97	2230.24
693.15	2316.25
693.34	2422.75
693.52	2361.31
693.71	2168.80
693.89	2090.98
694.08	2060.26
694.26	2293.72
694.44	2363.36
694.63	2285.53
694.81	2084.83
695.00	2195.42
695.18	2240.48
695.37	2435.03
695.55	2189.28
695.74	2164.70
695.92	2160.61
696.10	2344.92
696.29	2101.22
696.47	2144.22
696.66	2060.26
696.84	2136.03
697.03	2191.33
697.21	2455.51
697.40	3286.99
697.58	2277.34
697.76	2176.99
697.95	2199.52
698.13	2062.30
698.32	2195.42
698.50	2217.95
698.68	2301.92
698.87	2291.68
699.05	2371.55
699.24	2220.00
699.42	2162.66
699.61	2133.98
699.79	2140.13
699.97	2209.76
700.16	2138.08
700.34	2093.02
700.53	2220.00
700.71	2301.92
700.89	2338.78
701.08	2154.46
701.26	2226.14
701.45	2719.70
701.63	2185.18
701.81	2183.13
702.00	2195.42
702.18	2267.10
702.37	2187.23
702.55	2475.99
702.73	2439.13
702.92	2293.72
703.10	2539.48
703.28	2543.58
703.47	2312.16
703.65	2379.74
703.84	2383.84
704.02	2217.95
704.20	2519.00
704.39	2244.57
704.57	2187.23
704.75	2398.17
704.94	2297.82
705.12	2301.92
705.30	2568.15
705.49	4358.08
705.67	11136.85
705.86	20162.25
706.04	24536.71
706.22	28022.36
706.41	29529.66
706.59	25138.82
706.77	17780.46
706.96	14688.03
707.14	12881.72
707.32	11059.03
707.51	9766.76
707.69	8198.02
707.87	6567.84
708.06	5070.77
708.24	4145.09
708.42	3297.23
708.61	3030.99
708.79	2527.19
708.97	2373.60
709.16	2447.32
709.34	2301.92
709.52	2297.82
709.71	2179.04
709.89	2326.49
710.07	2150.37
710.26	2148.32
710.44	2199.52
710.62	2295.77
710.80	2121.70
710.99	2308.06
711.17	2336.73
711.35	2070.50
711.54	2215.90
711.72	2344.92
711.90	2230.24
712.09	2185.18
712.27	2148.32
712.45	2285.53
712.63	2144.22
712.82	2308.06
713.00	2176.99
713.18	2232.29
713.37	2279.39
713.55	2211.81
713.73	2275.29
713.91	2265.05
714.10	2152.42
714.28	2201.57
714.46	2254.81
714.65	2297.82
714.83	2285.53
715.01	2207.71
715.19	2172.89
715.38	2258.91
715.56	2224.09
715.74	2133.98
715.92	2138.08
716.11	2301.92
716.29	1982.43
716.47	2236.38
716.65	2148.32
716.84	2074.59
717.02	2283.49
717.20	2013.15
717.38	2146.27
717.57	2220.00
717.75	2215.90
717.93	2138.08
718.11	2330.59
718.30	2080.74
718.48	2246.62
718.66	2338.78
718.84	2308.06
719.03	2160.61
719.21	2144.22
719.39	2428.89
719.57	2279.39
719.75	2349.02
719.94	2115.55
720.12	2185.18
720.30	2191.33
720.48	2316.25
720.67	2203.61
720.85	2193.37
721.03	2160.61
721.21	2086.88
721.39	2297.82
721.58	2236.38
721.76	2162.66
721.94	2224.09
722.12	2260.96
722.30	2398.17
722.49	2146.27
722.67	2146.27
722.85	2148.32
723.03	2009.06
723.21	2080.74
723.40	2189.28
723.58	2291.68
723.76	2197.47
723.94	2338.78
724.12	2256.86
724.30	2432.99
724.49	2418.65
724.67	2207.71
724.85	2357.21
725.03	2070.50
725.21	2295.77
725.40	2359.26
725.58	2166.75
725.76	2301.92
725.94	2232.29
726.12	2195.42
726.30	2236.38
726.49	2142.18
726.67	2181.09
726.85	2279.39
727.03	2545.63
727.21	3678.15
727.39	5470.12
727.57	6516.64
727.76	7294.86
727.94	7681.93
728.12	7270.29
728.30	5853.09
728.48	4853.69
728.66	4442.04
728.84	3979.20
729.03	3514.31
729.21	3055.57
729.39	2793.43
729.57	2475.99
729.75	2432.99
729.93	2371.55
730.11	2228.19
730.30	2269.15
730.48	2211.81
730.66	2301.92
730.84	2295.77
731.02	2154.46
731.20	2166.75
731.38	2211.81
731.56	2023.39
731.74	2123.74
731.93	2236.38
732.11	2176.99
732.29	2209.76
732.47	2256.86
732.65	2252.77
732.83	2291.68
733.01	2252.77
733.19	2119.65
733.37	2181.09
733.56	2230.24
733.74	2183.13
733.92	2308.06
734.10	2152.42
734.28	2203.61
734.46	2115.55
734.64	2154.46
734.82	2170.85
735.00	2084.83
735.18	2117.60
735.36	2195.42
735.54	2179.04
735.73	2131.94
735.91	2269.15
736.09	2258.91
736.27	2185.18
736.45	2242.53
736.63	2070.50
736.81	2148.32
736.99	2291.68
737.17	2334.68
737.35	2158.56
737.53	2250.72
737.71	2136.03
737.89	2277.34
738.07	2195.42
738.25	2179.04
738.43	2078.69
738.61	2160.61
738.80	2015.20
738.98	2117.60
739.16	2119.65
739.34	2170.85
739.52	2285.53
739.70	2176.99
739.88	2260.96
740.06	2193.37
740.24	1996.77
740.42	2324.44
740.60	2107.36
740.78	2097.12
740.96	2031.58
741.14	2117.60
741.32	2203.61
741.50	2097.12
741.68	2330.59
741.86	2349.02
742.04	2058.21
742.22	2076.64
742.40	2191.33
742.58	2232.29
742.76	2160.61
742.94	2250.72
743.12	2031.58
743.30	2238.43
743.48	2246.62
743.66	2142.18
743.84	2293.72
744.02	2215.90
744.20	2125.79
744.38	2078.69
744.56	2111.46
744.74	2293.72
744.92	2127.84
745.10	2406.36
745.28	2183.13
745.46	2359.26
745.64	2164.70
745.82	2232.29
746.00	2211.81
746.18	2269.15
746.36	2101.22
746.54	2287.58
746.72	2133.98
746.90	2127.84
747.08	2308.06
747.26	2201.57
747.44	2283.49
747.62	2228.19
747.80	2275.29
747.98	2240.48
748.15	2187.23
748.33	2412.51
748.51	2187.23
748.69	2267.10
748.87	2201.57
749.05	2142.18
749.23	2162.66
749.41	2248.67
749.59	2150.37
749.77	2215.90
749.95	2105.31
750.13	2142.18
750.31	2201.57
750.49	2234.33
750.67	2310.11
750.85	2279.39
751.03	2205.66
751.20	2422.75
751.38	2215.90
751.56	2191.33
751.74	2222.05
751.92	2166.75
752.10	2109.41
752.28	2297.82
752.46	2138.08
752.64	2213.85
752.82	2197.47
753.00	2318.30
753.18	2166.75
753.35	2187.23
753.53	2211.81
753.71	2158.56
753.89	2238.43
754.07	2209.76
754.25	2189.28
754.43	2193.37
754.61	2107.36
754.79	2197.47
754.97	2133.98
755.14	2318.30
755.32	2121.70
755.50	2185.18
755.68	2201.57
755.86	2123.74
756.04	2117.60
756.22	2013.15
756.40	2179.04
756.57	2346.97
756.75	2226.14
756.93	2324.44
757.11	2303.96
757.29	2045.92
757.47	2084.83
757.65	2041.82
757.82	1955.81
758.00	2105.31
758.18	2230.24
758.36	2121.70
758.54	2314.20
758.72	2086.88
758.90	2224.09
759.07	2220.00
759.25	2133.98
759.43	2258.91
759.61	2097.12
759.79	3043.28
759.97	2324.44
760.15	2183.13
760.32	2146.27
760.50	2205.66
760.68	2361.31
760.86	2068.45
761.04	2295.77
761.22	2318.30
761.39	2226.14
761.57	2205.66
761.75	2277.34
761.93	2162.66
762.11	2209.76
762.28	2138.08
762.46	2105.31
762.64	2312.16
762.82	2101.22
763.00	2113.50
763.18	2324.44
763.35	2123.74
763.53	2209.76
763.71	2187.23
763.89	2176.99
764.07	2234.33
764.24	2215.90
764.42	2303.96
764.60	2127.84
764.78	2269.15
764.96	2293.72
765.13	2277.34
765.31	2164.70
765.49	2269.15
765.67	2101.22
765.84	2070.50
766.02	2086.88
766.20	2105.31
766.38	2228.19
766.56	2209.76
766.73	2199.52
766.91	2168.80
767.09	2256.86
767.27	2250.72
767.44	2144.22
767.62	2217.95
767.80	2258.91
767.98	2133.98
768.15	2144.22
768.33	2234.33
768.51	2299.87
768.69	2220.00
768.87	2187.23
769.04	2234.33
769.22	2453.47
769.40	2277.34
769.58	2410.46
769.75	2267.10
769.93	2367.45
770.11	2244.57
770.28	2097.12
770.46	2228.19
770.64	2310.11
770.82	2125.79
770.99	2197.47
771.17	2240.48
771.35	2187.23
771.53	2168.80
771.70	2070.50
771.88	2193.37
772.06	2201.57
772.23	2228.19
772.41	2197.47
772.59	2158.56
772.77	2062.30
772.94	2211.81
773.12	2267.10
773.30	2097.12
773.47	2269.15
773.65	2117.60
773.83	2355.16
774.01	2199.52
774.18	1980.39
774.36	2111.46
774.54	2088.93
774.71	2228.19
774.89	2113.50
775.07	2113.50
775.24	2174.94
775.42	2025.44
775.60	2355.16
775.78	2117.60
775.95	2082.78
776.13	2035.68
776.31	1945.57
776.48	2236.38
776.66	2285.53
776.84	2142.18
777.01	2144.22
777.19	2168.80
777.37	2136.03
777.54	2275.29
777.72	2412.51
777.90	2109.41
778.07	2060.26
778.25	2488.28
778.43	2267.10
778.60	2133.98
778.78	2203.61
778.96	2414.56
779.13	2076.64
779.31	2244.57
779.49	2185.18
779.66	2125.79
779.84	2187.23
780.01	2234.33
780.19	2090.98
780.37	2258.91
780.54	2226.14
780.72	2129.89
780.90	2193.37
781.07	2129.89
781.25	2156.51
781.43	2252.77
781.60	2093.02
781.78	2392.03
781.95	2160.61
782.13	2201.57
782.31	2115.55
782.48	2007.01
782.66	2140.13
782.83	2375.64
783.01	2242.53
783.19	2275.29
783.36	2170.85
783.54	2115.55
783.72	2306.01
783.89	2156.51
784.07	2312.16
784.24	2193.37
784.42	2258.91
784.60	2228.19
784.77	2258.91
784.95	2011.11
785.12	2166.75
785.30	2244.57
785.47	2072.54
785.65	2119.65
785.83	2166.75
786.00	2113.50
786.18	2209.76
786.35	2131.94
786.53	2113.50
786.71	2240.48
786.88	2203.61
787.06	2174.94
787.23	2236.38
787.41	2119.65
787.58	2121.70
787.76	2162.66
787.94	2203.61
788.11	2205.66
788.29	2133.98
788.46	2185.18
788.64	2060.26
788.81	2133.98
788.99	2072.54
789.16	2211.81
789.34	2191.33
789.52	2119.65
789.69	2179.04
789.87	1994.72
790.04	2189.28
790.22	2154.46
790.39	2416.60
790.57	2164.70
790.74	2078.69
790.92	2301.92
791.09	2056.16
791.27	2232.29
791.44	2330.59
791.62	2154.46
791.79	2193.37
791.97	2162.66
792.15	2531.29
792.32	2254.81
792.50	2342.88
792.67	2351.07
792.85	2357.21
793.02	2211.81
793.20	2199.52
793.37	2095.07
793.55	2105.31
793.72	2129.89
793.90	2297.82
794.07	2113.50
794.25	2080.74
794.42	2232.29
794.60	2258.91
794.77	2267.10
794.95	2220.00
795.12	2224.09
795.30	2158.56
795.47	2002.91
795.65	2336.73
795.82	2176.99
796.00	2107.36
796.17	2121.70
796.34	2045.92
796.52	2199.52
796.69	2293.72
796.87	2318.30
797.04	2230.24
797.22	2285.53
797.39	2156.51
797.57	2226.14
797.74	2248.67
797.92	2222.05
798.09	2047.97
798.27	2281.44
798.44	2203.61
798.62	2142.18
798.79	2179.04
798.96	2275.29
799.14	2252.77
799.31	2400.22
799.49	2215.90
799.66	2086.88
799.84	2197.47
800.01	2029.54
800.19	2195.42
800.36	2103.26
800.53	2193.37
800.71	2285.53
800.88	2392.03
801.06	2074.59
801.23	2093.02
801.41	2146.27
801.58	2109.41
801.75	2172.89
801.93	2193.37
802.10	2260.96
802.28	2191.33
802.45	2105.31
802.63	2199.52
802.80	2371.55
802.97	2174.94
803.15	2187.23
803.32	2133.98
803.50	2111.46
803.67	2119.65
803.84	2080.74
804.02	2109.41
804.19	2113.50
804.37	2047.97
804.54	2064.35
804.71	2150.37
804.89	2101.22
805.06	2142.18
805.24	2095.07
805.41	2156.51
805.58	2090.98
805.76	2426.84
805.93	2179.04
806.10	2220.00
806.28	2215.90
806.45	2166.75
806.63	2166.75
806.80	2228.19
806.97	2170.85
807.15	2215.90
807.32	2183.13
807.49	2181.09
807.67	2166.75
807.84	2199.52
808.01	2035.68
808.19	2379.74
808.36	2308.06
808.54	2162.66
808.71	2103.26
808.88	2179.04
809.06	2254.81
809.23	2375.64
809.40	2260.96
809.58	2189.28
809.75	2164.70
809.92	2121.70
810.10	2392.03
810.27	2183.13
810.44	2203.61
810.62	2322.40
810.79	2232.29
810.96	2119.65
811.14	2144.22
811.31	2260.96
811.48	2260.96
811.66	2230.24
811.83	2338.78
812.00	2269.15
812.18	2187.23
812.35	2410.46
812.52	2160.61
812.69	2113.50
812.87	2095.07
813.04	2107.36
813.21	2179.04
813.39	2193.37
813.56	2144.22
813.73	2195.42
813.91	2025.44
814.08	2195.42
814.25	2199.52
814.42	2017.25
814.60	2162.66
814.77	2170.85
814.94	2191.33
815.12	2224.09
815.29	2328.54
815.46	2123.74
815.63	2203.61
815.81	2244.57
815.98	2201.57
816.15	2189.28
816.33	2222.05
816.50	2107.36
816.67	2095.07
816.84	2174.94
817.02	2086.88
817.19	2129.89
817.36	2269.15
817.53	2195.42
817.71	2109.41
817.88	2199.52
818.05	2244.57
818.22	2174.94
818.40	2338.78
818.57	2189.28
818.74	2289.63
818.91	2174.94
819.09	2326.49
819.26	2326.49
819.43	2129.89
819.60	2158.56
819.78	2193.37
819.95	2252.77
820.12	2103.26
820.29	2275.29
820.47	2334.68
820.64	2193.37
820.81	2050.02
820.98	2101.22
821.15	2088.93
821.33	2254.81
821.50	2103.26
821.67	2224.09
821.84	2142.18
822.02	2256.86
822.19	2306.01
822.36	2195.42
822.53	2142.18
822.70	2072.54
822.88	2197.47
823.05	2332.64
823.22	2176.99
823.39	2248.67
823.56	2162.66
823.74	2346.97
823.91	2076.64
824.08	2076.64
824.25	2146.27
824.42	2375.64
824.60	2070.50
824.77	2224.09
824.94	2156.51
825.11	2252.77
825.28	2064.35
825.45	2185.18
825.63	2195.42
825.80	2125.79
825.97	2267.10
826.14	2222.05
826.31	2062.30
826.48	2275.29
826.66	2062.30
826.83	2142.18
827.00	2220.00
827.17	2136.03
827.34	2185.18
827.51	2093.02
827.69	2093.02
827.86	2088.93
828.03	2140.13
828.20	2187.23
828.37	2191.33
828.54	2291.68
828.71	2158.56
828.89	2252.77
829.06	2226.14
829.23	2383.84
829.40	2093.02
829.57	2133.98
829.74	2240.48
829.91	2123.74
830.09	2056.16
830.26	2183.13
830.43	2275.29
830.60	2101.22
830.77	2199.52
830.94	2252.77
831.11	2310.11
831.28	2084.83
831.46	2299.87
831.63	2138.08
831.80	2269.15
831.97	2191.33
832.14	2203.61
832.31	2201.57
832.48	2209.76
832.65	2248.67
832.82	2232.29
832.99	2148.32
833.17	2084.83
833.34	2396.12
833.51	2170.85
833.68	2086.88
833.85	2318.30
834.02	2127.84
834.19	2117.60
834.36	2060.26
834.53	2211.81
834.70	2236.38
834.87	2170.85
835.04	2078.69
835.22	2080.74
835.39	2080.74
835.56	2037.73
835.73	2076.64
835.90	2357.21
836.07	2088.93
836.24	2260.96
836.41	2082.78
836.58	2185.18
836.75	2248.67
836.92	2162.66
837.09	2074.59
837.26	2273.25
837.43	2285.53
837.60	2226.14
837.77	2113.50
837.94	2234.33
838.12	2248.67
838.29	2166.75
838.46	2021.35
838.63	2052.06
838.80	2349.02
838.97	2228.19
839.14	2123.74
839.31	2215.90
839.48	2269.15
839.65	2093.02
839.82	2271.20
839.99	2195.42
840.16	2170.85
840.33	2080.74
840.50	2174.94
840.67	2095.07
840.84	1966.05
841.01	2195.42
841.18	2109.41
841.35	2125.79
841.52	2269.15
841.69	2306.01
841.86	2176.99
842.03	2168.80
842.20	2228.19
842.37	2160.61
842.54	2205.66
842.71	2179.04
842.88	2025.44
843.05	2275.29
843.22	2174.94
843.39	2254.81
843.56	2103.26
843.73	2146.27
843.90	2170.85
844.07	2170.85
844.24	2238.43
844.41	2203.61
844.58	2109.41
844.75	2193.37
844.92	2232.29
845.09	2191.33
845.26	2076.64
845.43	2283.49
845.60	2121.70
845.77	2228.19
845.94	2201.57
846.10	2281.44
846.27	2060.26
846.44	2109.41
846.61	2062.30
846.78	2297.82
846.95	2250.72
847.12	2195.42
847.29	2095.07
847.46	2144.22
847.63	2248.67
847.80	2103.26
847.97	2140.13
848.14	2424.80
848.31	2179.04
848.48	2082.78
848.65	2195.42
848.82	2105.31
848.98	2400.22
849.15	2226.14
849.32	2275.29
849.49	2252.77
849.66	2211.81
849.83	2154.46
850.00	2058.21
850.17	2226.14
850.34	2234.33
850.51	2105.31
850.68	2185.18
850.85	2471.90
851.01	2312.16
851.18	2207.71
851.35	2129.89
851.52	2199.52
851.69	2340.83
851.86	1976.29
852.03	2189.28
852.20	2260.96
852.37	2146.27
852.53	2052.06
852.70	2168.80
852.87	2160.61
853.04	2275.29
853.21	2217.95
853.38	2271.20
853.55	2269.15
853.72	2260.96
853.89	2043.87
854.05	2072.54
854.22	2113.50
854.39	2195.42
854.56	2209.76
854.73	2197.47
854.90	2105.31
855.07	2160.61
855.23	2062.30
855.40	2199.52
855.57	2185.18
855.74	2009.06
855.91	2357.21
856.08	2101.22
856.25	2047.97
856.41	2172.89
856.58	2138.08
856.75	2125.79
856.92	2160.61
857.09	2242.53
857.26	2090.98
857.42	2138.08
857.59	2269.15
857.76	2136.03
857.93	2172.89
858.10	2162.66
858.27	2111.46
858.43	2201.57
858.60	2113.50
858.77	2052.06
858.94	2115.55
859.11	2283.49
859.27	2101.22
859.44	2142.18
859.61	2414.56
859.78	2275.29
859.95	2156.51
860.12	2150.37
860.28	2349.02
860.45	2375.64
860.62	2156.51
860.79	2211.81
860.95	2131.94
861.12	2082.78
861.29	2109.41
861.46	2203.61
861.63	2113.50
861.79	2170.85
861.96	2068.45
862.13	2125.79
862.30	2226.14
862.47	2119.65
862.63	2129.89
862.80	2160.61
862.97	2273.25
863.14	2232.29
863.30	2187.23
863.47	2187.23
863.64	2213.85
863.81	2230.24
863.97	2060.26
864.14	2125.79
864.31	2215.90
864.48	2195.42
864.65	2158.56
864.81	2242.53
864.98	2250.72
865.15	2260.96
865.32	2162.66
865.48	2226.14
865.65	2367.45
865.82	2199.52
865.98	2244.57
866.15	2162.66
866.32	2187.23
866.49	2138.08
866.65	2224.09
866.82	2097.12
866.99	2095.07
867.16	2215.90
867.32	2056.16
867.49	2127.84
867.66	2148.32
867.83	2138.08
867.99	2183.13
868.16	2050.02
868.33	2086.88
868.49	2162.66
868.66	2158.56
868.83	2244.57
868.99	2166.75
869.16	2119.65
869.33	2230.24
869.50	2256.86
869.66	2174.94
869.83	2170.85
870.00	2080.74
870.16	2250.72
870.33	2129.89
870.50	2271.20
870.66	2191.33
870.83	2256.86
871.00	2230.24
871.17	2226.14
871.33	2162.66
871.50	2080.74
871.67	2201.57
871.83	2004.96
872.00	2220.00
872.17	2174.94
872.33	2324.44
872.50	2236.38
872.67	2136.03
872.83	2080.74
873.00	2203.61
873.17	2138.08
873.33	2285.53
873.50	2197.47
873.67	2136.03
873.83	2220.00
874.00	2129.89
874.16	2232.29
874.33	2236.38
874.50	2043.87
874.66	2146.27
874.83	2207.71
875.00	2260.96
875.16	2346.97
875.33	2238.43
875.50	1937.38
875.66	2088.93
875.83	2215.90
875.99	2252.77
876.16	2097.12
876.33	2185.18
876.49	2187.23
876.66	2246.62
876.83	2138.08
876.99	2086.88
877.16	2148.32
877.32	2074.59
877.49	2148.32
877.66	2144.22
877.82	2306.01
877.99	2168.80
878.15	2273.25
878.32	2248.67
878.49	2193.37
878.65	2129.89
878.82	2193.37
878.98	2232.29
879.15	2244.57
879.32	2236.38
879.48	2185.18
879.65	2136.03
879.81	2168.80
879.98	2080.74
880.15	2088.93
880.31	2226.14
880.48	2072.54
880.64	2267.10
880.81	2220.00
880.97	2342.88
881.14	2258.91
881.31	2117.60
881.47	2375.64
881.64	2187.23
881.80	2064.35
881.97	2258.91
882.13	2125.79
882.30	2119.65
882.47	2127.84
882.63	2007.01
882.80	2121.70
882.96	2131.94
883.13	2342.88
883.29	2162.66
883.46	2156.51
883.62	2381.79
883.79	2238.43
883.95	2201.57
884.12	2111.46
884.29	2291.68
884.45	2189.28
884.62	2222.05
884.78	2146.27
884.95	2357.21
885.11	2119.65
885.28	2154.46
885.44	2113.50
885.61	2193.37
885.77	2295.77
885.94	2187.23
886.10	2199.52
886.27	2211.81
886.43	2340.83
886.60	2230.24
886.76	2160.61
886.93	2047.97
887.09	2269.15
887.26	2052.06
887.42	2179.04
887.59	2285.53
887.75	2504.67
887.92	2283.49
888.08	2166.75
888.25	2322.40
888.41	2217.95
888.58	2179.04
888.74	2097.12
888.91	2101.22
>>>>>End Processed Spectral Data<<<<<
