SpectraSuite Data File
++++++++++++++++++++++++++++++++++++
Date: Thu May 05 12:35:20 CEST 2016
User: root
Dark Spectrum Present: No
Reference Spectrum Present: No
Number of Sampled Component Spectra: 1
Spectrometers: USB4C02835
Integration Time (usec): 100000 (USB4C02835)
Spectra Averaged: 1 (USB4C02835)
Boxcar Smoothing: 0 (USB4C02835)
Correct for Electrical Dark: No (USB4C02835)
Strobe/Lamp Enabled: No (USB4C02835)
Correct for Detector Non-linearity: No (USB4C02835)
Correct for Stray Light: No (USB4C02835)
Number of Pixels in Processed Spectrum: 3648
>>>>>Begin Processed Spectral Data<<<<<
177.47	1751.01
177.69	1751.01
177.91	1751.01
178.13	1755.11
178.36	1716.20
178.58	2103.26
178.80	2213.85
179.02	2064.35
179.24	2181.09
179.46	2088.93
179.68	2146.27
179.90	2160.61
180.13	2250.72
180.35	2076.64
180.57	2103.26
180.79	2260.96
181.01	2127.84
181.23	2146.27
181.45	2267.10
181.67	2209.76
181.90	2291.68
182.12	2113.50
182.34	2039.78
182.56	2267.10
182.78	2250.72
183.00	2119.65
183.22	2168.80
183.44	2029.54
183.66	2418.65
183.89	2238.43
184.11	2160.61
184.33	2265.05
184.55	2324.44
184.77	2131.94
184.99	2109.41
185.21	2166.75
185.43	2389.98
185.65	2136.03
185.87	2113.50
186.10	2418.65
186.32	2424.80
186.54	2170.85
186.76	2187.23
186.98	2215.90
187.20	2191.33
187.42	2072.54
187.64	2150.37
187.86	2224.09
188.08	2340.83
188.30	2068.45
188.52	2138.08
188.75	2326.49
188.97	2338.78
189.19	2111.46
189.41	2095.07
189.63	2260.96
189.85	2080.74
190.07	2103.26
190.29	2045.92
190.51	2205.66
190.73	2117.60
190.95	2240.48
191.17	2197.47
191.39	2064.35
191.61	2150.37
191.84	2125.79
192.06	2174.94
192.28	2056.16
192.50	2445.27
192.72	2164.70
192.94	2117.60
193.16	2281.44
193.38	2238.43
193.60	2125.79
193.82	2152.42
194.04	2310.11
194.26	2193.37
194.48	2129.89
194.70	2105.31
194.92	2209.76
195.14	2260.96
195.36	2125.79
195.58	2203.61
195.80	2117.60
196.02	2090.98
196.24	2105.31
196.46	2131.94
196.69	2146.27
196.91	2365.40
197.13	2054.11
197.35	2070.50
197.57	2330.59
197.79	2267.10
198.01	2121.70
198.23	2154.46
198.45	2191.33
198.67	2062.30
198.89	2054.11
199.11	2193.37
199.33	2197.47
199.55	1986.53
199.77	2099.17
199.99	2267.10
200.21	2121.70
200.43	2187.23
200.65	2078.69
200.87	2047.97
201.09	2121.70
201.31	2168.80
201.53	2203.61
201.75	2080.74
201.97	2234.33
202.19	2162.66
202.41	2193.37
202.63	2265.05
202.85	2281.44
203.07	2119.65
203.29	2011.11
203.51	1990.63
203.73	2086.88
203.95	2473.95
204.17	2209.76
204.39	2191.33
204.61	2187.23
204.83	2136.03
205.05	2203.61
205.27	2215.90
205.49	2463.71
205.71	2160.61
205.93	2101.22
206.15	2115.55
206.37	2162.66
206.59	2211.81
206.81	2070.50
207.03	2027.49
207.25	2150.37
207.47	2258.91
207.69	2056.16
207.91	2332.64
208.13	2250.72
208.34	2136.03
208.56	2023.39
208.78	2146.27
209.00	2138.08
209.22	2152.42
209.44	2144.22
209.66	2101.22
209.88	2230.24
210.10	2127.84
210.32	2160.61
210.54	2252.77
210.76	2146.27
210.98	2263.01
211.20	2019.30
211.42	2152.42
211.64	2310.11
211.86	2260.96
212.08	2197.47
212.30	2217.95
212.52	2191.33
212.74	2201.57
212.96	2164.70
213.17	2162.66
213.39	2197.47
213.61	2353.12
213.83	2168.80
214.05	2211.81
214.27	2285.53
214.49	2136.03
214.71	2150.37
214.93	2201.57
215.15	2267.10
215.37	2281.44
215.59	2004.96
215.81	2152.42
216.03	2342.88
216.24	2170.85
216.46	2129.89
216.68	2154.46
216.90	2260.96
217.12	2203.61
217.34	2148.32
217.56	2228.19
217.78	2349.02
218.00	2240.48
218.22	2121.70
218.44	2228.19
218.66	2250.72
218.87	2336.73
219.09	2144.22
219.31	2160.61
219.53	2181.09
219.75	2166.75
219.97	2105.31
220.19	2154.46
220.41	2187.23
220.63	2387.93
220.85	2125.79
221.06	2050.02
221.28	2277.34
221.50	2203.61
221.72	2103.26
221.94	2084.83
222.16	2277.34
222.38	2258.91
222.60	2162.66
222.82	2064.35
223.03	2291.68
223.25	2086.88
223.47	2252.77
223.69	2310.11
223.91	2267.10
224.13	2193.37
224.35	2070.50
224.57	2244.57
224.78	2185.18
225.00	2107.36
225.22	2127.84
225.44	2072.54
225.66	2293.72
225.88	2101.22
226.10	2156.51
226.32	2111.46
226.53	2306.01
226.75	2211.81
226.97	2144.22
227.19	2127.84
227.41	2121.70
227.63	2166.75
227.85	2039.78
228.06	2101.22
228.28	2224.09
228.50	2275.29
228.72	2007.01
228.94	2039.78
229.16	1998.82
229.37	2103.26
229.59	2129.89
229.81	2246.62
230.03	2267.10
230.25	2113.50
230.47	2064.35
230.69	2054.11
230.90	2256.86
231.12	2086.88
231.34	2228.19
231.56	2205.66
231.78	2146.27
232.00	2228.19
232.21	2172.89
232.43	2039.78
232.65	1990.63
232.87	2260.96
233.09	2031.58
233.30	2136.03
233.52	2275.29
233.74	2183.13
233.96	2185.18
234.18	2136.03
234.40	2154.46
234.61	2408.41
234.83	2011.11
235.05	2056.16
235.27	2369.50
235.49	2220.00
235.70	2095.07
235.92	2256.86
236.14	2289.63
236.36	2437.08
236.58	2035.68
236.79	2203.61
237.01	2144.22
237.23	2181.09
237.45	2297.82
237.67	2076.64
237.88	2256.86
238.10	2336.73
238.32	2111.46
238.54	2101.22
238.76	2111.46
238.97	2170.85
239.19	2074.59
239.41	2314.20
239.63	2351.07
239.85	2146.27
240.06	2109.41
240.28	2060.26
240.50	2285.53
240.72	2248.67
240.93	2142.18
241.15	2242.53
241.37	2152.42
241.59	2346.97
241.81	2029.54
242.02	2174.94
242.24	2207.71
242.46	2263.01
242.68	2023.39
242.89	2154.46
243.11	2297.82
243.33	2224.09
243.55	2197.47
243.76	2166.75
243.98	2129.89
244.20	2232.29
244.42	2090.98
244.64	2191.33
244.85	2056.16
245.07	2086.88
245.29	2121.70
245.51	2115.55
245.72	2193.37
245.94	2285.53
246.16	2248.67
246.38	2107.36
246.59	2123.74
246.81	2127.84
247.03	2082.78
247.24	1978.34
247.46	2224.09
247.68	2254.81
247.90	2117.60
248.11	2133.98
248.33	2306.01
248.55	2181.09
248.77	2203.61
248.98	2224.09
249.20	2326.49
249.42	2238.43
249.64	2142.18
249.85	2113.50
250.07	2072.54
250.29	2299.87
250.50	2195.42
250.72	2097.12
250.94	2129.89
251.16	2314.20
251.37	2158.56
251.59	2166.75
251.81	2242.53
252.02	2316.25
252.24	2056.16
252.46	2176.99
252.68	2138.08
252.89	2160.61
253.11	2007.01
253.33	2215.90
253.54	2351.07
253.76	2027.49
253.98	2105.31
254.20	2066.40
254.41	2029.54
254.63	2154.46
254.85	2093.02
255.06	2111.46
255.28	2314.20
255.50	2209.76
255.71	2201.57
255.93	2068.45
256.15	2301.92
256.36	2209.76
256.58	2080.74
256.80	2066.40
257.02	2211.81
257.23	2136.03
257.45	2168.80
257.67	2166.75
257.88	2043.87
258.10	2203.61
258.32	2160.61
258.53	2162.66
258.75	2338.78
258.97	2111.46
259.18	2088.93
259.40	2170.85
259.62	2406.36
259.83	2277.34
260.05	2162.66
260.27	2566.10
260.48	2351.07
260.70	2080.74
260.92	2095.07
261.13	2201.57
261.35	2176.99
261.57	2199.52
261.78	2004.96
262.00	2093.02
262.22	2244.57
262.43	2099.17
262.65	2146.27
262.86	2213.85
263.08	2463.71
263.30	2224.09
263.51	1982.43
263.73	2099.17
263.95	2306.01
264.16	2070.50
264.38	2097.12
264.60	2191.33
264.81	2220.00
265.03	2299.87
265.25	2297.82
265.46	2127.84
265.68	2394.08
265.89	2230.24
266.11	1978.34
266.33	2185.18
266.54	2291.68
266.76	2248.67
266.98	2209.76
267.19	2181.09
267.41	2303.96
267.62	2099.17
267.84	2002.91
268.06	2211.81
268.27	2121.70
268.49	2244.57
268.70	2195.42
268.92	2138.08
269.14	2062.30
269.35	1968.10
269.57	2176.99
269.79	2234.33
270.00	2133.98
270.22	2318.30
270.43	2140.13
270.65	2002.91
270.87	2156.51
271.08	2246.62
271.30	2146.27
271.51	2099.17
271.73	2242.53
271.95	2246.62
272.16	2123.74
272.38	2179.04
272.59	2119.65
272.81	2244.57
273.02	2095.07
273.24	2146.27
273.46	2306.01
273.67	2097.12
273.89	2043.87
274.10	2127.84
274.32	2340.83
274.54	2183.13
274.75	2152.42
274.97	2154.46
275.18	2342.88
275.40	2256.86
275.61	2129.89
275.83	2220.00
276.05	2109.41
276.26	2220.00
276.48	2166.75
276.69	2195.42
276.91	2170.85
277.12	2330.59
277.34	2168.80
277.55	2291.68
277.77	2258.91
277.99	2203.61
278.20	2088.93
278.42	2052.06
278.63	2093.02
278.85	2136.03
279.06	2004.96
279.28	2281.44
279.49	2285.53
279.71	2283.49
279.93	2252.77
280.14	2133.98
280.36	2109.41
280.57	2265.05
280.79	2275.29
281.00	2007.01
281.22	2203.61
281.43	2303.96
281.65	2025.44
281.86	2111.46
282.08	2193.37
282.29	2334.68
282.51	2056.16
282.73	2144.22
282.94	2037.73
283.16	2291.68
283.37	2258.91
283.59	2211.81
283.80	2258.91
284.02	2228.19
284.23	2203.61
284.45	2136.03
284.66	2090.98
284.88	2144.22
285.09	2156.51
285.31	2293.72
285.52	2250.72
285.74	2123.74
285.95	2250.72
286.17	2254.81
286.38	2285.53
286.60	2113.50
286.81	2138.08
287.03	2113.50
287.24	2158.56
287.46	2279.39
287.67	2179.04
287.89	2363.36
288.10	2199.52
288.32	2181.09
288.53	2334.68
288.75	2152.42
288.96	2269.15
289.18	2115.55
289.39	2195.42
289.61	2224.09
289.82	2400.22
290.04	2416.60
290.25	2074.59
290.47	2101.22
290.68	2179.04
290.90	2299.87
291.11	2080.74
291.33	2220.00
291.54	2179.04
291.76	2131.94
291.97	2195.42
292.18	2179.04
292.40	2140.13
292.61	2181.09
292.83	2402.27
293.04	2217.95
293.26	2228.19
293.47	2152.42
293.69	2080.74
293.90	2125.79
294.12	2250.72
294.33	2152.42
294.55	2201.57
294.76	2236.38
294.97	2404.32
295.19	2355.16
295.40	2131.94
295.62	2201.57
295.83	2285.53
296.05	2054.11
296.26	2230.24
296.48	2205.66
296.69	2207.71
296.90	2045.92
297.12	2299.87
297.33	2224.09
297.55	2211.81
297.76	2277.34
297.98	2193.37
298.19	2154.46
298.41	2211.81
298.62	2088.93
298.83	2316.25
299.05	2191.33
299.26	2146.27
299.48	2166.75
299.69	2222.05
299.90	2136.03
300.12	2162.66
300.33	2252.77
300.55	2236.38
300.76	2283.49
300.98	2123.74
301.19	2271.20
301.40	2154.46
301.62	2191.33
301.83	2226.14
302.05	2209.76
302.26	2144.22
302.47	2164.70
302.69	2076.64
302.90	2183.13
303.12	1920.99
303.33	2256.86
303.54	2398.17
303.76	2127.84
303.97	2207.71
304.19	2226.14
304.40	2121.70
304.61	2269.15
304.83	2351.07
305.04	2236.38
305.26	2258.91
305.47	2158.56
305.68	2195.42
305.90	2158.56
306.11	2277.34
306.33	2224.09
306.54	2119.65
306.75	2185.18
306.97	2090.98
307.18	2066.40
307.39	2086.88
307.61	2222.05
307.82	2179.04
308.04	2217.95
308.25	2097.12
308.46	2275.29
308.68	2123.74
308.89	2199.52
309.10	2254.81
309.32	2248.67
309.53	2213.85
309.74	2242.53
309.96	2133.98
310.17	2295.77
310.39	2154.46
310.60	2355.16
310.81	2189.28
311.03	2066.40
311.24	2228.19
311.45	2136.03
311.67	2269.15
311.88	2217.95
312.09	2138.08
312.31	2109.41
312.52	2152.42
312.73	2191.33
312.95	2043.87
313.16	2093.02
313.37	2359.26
313.59	2242.53
313.80	2324.44
314.01	2299.87
314.23	2160.61
314.44	2086.88
314.65	2154.46
314.87	2142.18
315.08	2162.66
315.29	2109.41
315.51	2129.89
315.72	2078.69
315.93	2351.07
316.15	2318.30
316.36	2179.04
316.57	2215.90
316.79	2273.25
317.00	2131.94
317.21	2236.38
317.43	2144.22
317.64	2201.57
317.85	2119.65
318.07	2148.32
318.28	2232.29
318.49	2260.96
318.70	2514.91
318.92	2482.14
319.13	2416.60
319.34	2398.17
319.56	2306.01
319.77	2324.44
319.98	2295.77
320.20	2299.87
320.41	2301.92
320.62	2308.06
320.83	2111.46
321.05	2353.12
321.26	2205.66
321.47	2260.96
321.69	2238.43
321.90	2060.26
322.11	2174.94
322.32	2224.09
322.54	2365.40
322.75	2127.84
322.96	2488.28
323.18	2021.35
323.39	2056.16
323.60	2158.56
323.81	2211.81
324.03	2164.70
324.24	2275.29
324.45	2215.90
324.66	2095.07
324.88	2314.20
325.09	2301.92
325.30	2181.09
325.52	2211.81
325.73	2158.56
325.94	2160.61
326.15	2076.64
326.37	2123.74
326.58	2340.83
326.79	2297.82
327.00	2142.18
327.22	2201.57
327.43	2140.13
327.64	2113.50
327.85	2244.57
328.07	2164.70
328.28	2328.54
328.49	2142.18
328.70	2115.55
328.92	2162.66
329.13	2176.99
329.34	2220.00
329.55	2318.30
329.76	2258.91
329.98	2244.57
330.19	2351.07
330.40	2236.38
330.61	2238.43
330.83	2252.77
331.04	2082.78
331.25	2201.57
331.46	2168.80
331.68	2181.09
331.89	2291.68
332.10	2164.70
332.31	2035.68
332.52	2154.46
332.74	2336.73
332.95	2045.92
333.16	2256.86
333.37	2312.16
333.58	2203.61
333.80	2209.76
334.01	2017.25
334.22	2197.47
334.43	2156.51
334.64	2189.28
334.86	2103.26
335.07	2080.74
335.28	2424.80
335.49	2136.03
335.70	2160.61
335.92	2340.83
336.13	2441.18
336.34	2201.57
336.55	2217.95
336.76	2277.34
336.98	2052.06
337.19	2232.29
337.40	2316.25
337.61	2394.08
337.82	2207.71
338.04	2275.29
338.25	2035.68
338.46	2236.38
338.67	2201.57
338.88	2041.82
339.09	2097.12
339.31	2127.84
339.52	2082.78
339.73	2068.45
339.94	2224.09
340.15	2267.10
340.36	2129.89
340.58	2179.04
340.79	2117.60
341.00	2281.44
341.21	2086.88
341.42	2299.87
341.63	2205.66
341.85	2277.34
342.06	2232.29
342.27	2129.89
342.48	2236.38
342.69	2052.06
342.90	2226.14
343.12	2236.38
343.33	2138.08
343.54	2213.85
343.75	2283.49
343.96	2164.70
344.17	2080.74
344.38	2189.28
344.60	2011.11
344.81	2043.87
345.02	2203.61
345.23	2248.67
345.44	2437.08
345.65	2228.19
345.86	2248.67
346.07	2199.52
346.29	2133.98
346.50	2209.76
346.71	2256.86
346.92	2301.92
347.13	2406.36
347.34	2197.47
347.55	2105.31
347.76	2195.42
347.98	2080.74
348.19	2119.65
348.40	2340.83
348.61	2170.85
348.82	2385.88
349.03	2297.82
349.24	2113.50
349.45	2349.02
349.66	2013.15
349.88	2148.32
350.09	2066.40
350.30	2318.30
350.51	2312.16
350.72	2187.23
350.93	2181.09
351.14	2109.41
351.35	2252.77
351.56	2187.23
351.77	2168.80
351.99	2250.72
352.20	2334.68
352.41	2344.92
352.62	1951.71
352.83	2183.13
353.04	2164.70
353.25	2133.98
353.46	2297.82
353.67	2283.49
353.88	2052.06
354.09	2121.70
354.30	2142.18
354.52	2248.67
354.73	2232.29
354.94	2045.92
355.15	2166.75
355.36	2406.36
355.57	2115.55
355.78	2205.66
355.99	2172.89
356.20	2142.18
356.41	2252.77
356.62	2246.62
356.83	2201.57
357.04	2340.83
357.25	1966.05
357.46	2064.35
357.68	2039.78
357.89	2095.07
358.10	2168.80
358.31	2154.46
358.52	2226.14
358.73	2095.07
358.94	2117.60
359.15	2084.83
359.36	2240.48
359.57	2154.46
359.78	2154.46
359.99	2314.20
360.20	2113.50
360.41	2119.65
360.62	2267.10
360.83	2148.32
361.04	2148.32
361.25	2152.42
361.46	2369.50
361.67	2312.16
361.88	2220.00
362.09	2263.01
362.30	2109.41
362.51	2199.52
362.72	2220.00
362.93	2242.53
363.14	2297.82
363.35	2230.24
363.56	2113.50
363.78	2244.57
363.99	2205.66
364.20	2060.26
364.41	2168.80
364.62	2389.98
364.83	2234.33
365.04	2226.14
365.25	2260.96
365.46	2445.27
365.67	2086.88
365.88	2152.42
366.09	2119.65
366.30	2125.79
366.51	2152.42
366.72	2158.56
366.93	2176.99
367.14	2183.13
367.35	2236.38
367.56	2199.52
367.77	2265.05
367.98	2195.42
368.18	2195.42
368.39	2226.14
368.60	2119.65
368.81	2238.43
369.02	2207.71
369.23	2195.42
369.44	2070.50
369.65	2150.37
369.86	2283.49
370.07	2244.57
370.28	2131.94
370.49	2289.63
370.70	2306.01
370.91	2166.75
371.12	2146.27
371.33	2283.49
371.54	2129.89
371.75	2318.30
371.96	1961.95
372.17	2170.85
372.38	2176.99
372.59	2242.53
372.80	2183.13
373.01	2217.95
373.22	2203.61
373.43	2136.03
373.64	2111.46
373.85	2226.14
374.06	2353.12
374.26	2275.29
374.47	2273.25
374.68	2328.54
374.89	2297.82
375.10	2224.09
375.31	2365.40
375.52	2156.51
375.73	2185.18
375.94	2052.06
376.15	2277.34
376.36	2199.52
376.57	2138.08
376.78	2142.18
376.99	2176.99
377.20	2293.72
377.40	2189.28
377.61	2324.44
377.82	2121.70
378.03	2320.35
378.24	2316.25
378.45	2224.09
378.66	2199.52
378.87	2007.01
379.08	1990.63
379.29	2111.46
379.50	2283.49
379.71	2222.05
379.91	2277.34
380.12	2074.59
380.33	2244.57
380.54	2220.00
380.75	2111.46
380.96	2119.65
381.17	2234.33
381.38	2179.04
381.59	2291.68
381.80	2203.61
382.00	2426.84
382.21	2211.81
382.42	2400.22
382.63	2484.19
382.84	2260.96
383.05	2332.64
383.26	2373.60
383.47	2222.05
383.68	2287.58
383.88	2277.34
384.09	2195.42
384.30	2490.33
384.51	2267.10
384.72	2201.57
384.93	2074.59
385.14	2166.75
385.35	2287.58
385.55	2023.39
385.76	2285.53
385.97	2174.94
386.18	2127.84
386.39	2207.71
386.60	2197.47
386.81	2183.13
387.02	2097.12
387.22	2066.40
387.43	2336.73
387.64	2195.42
387.85	2314.20
388.06	2379.74
388.27	4020.16
388.48	8681.34
388.68	12363.59
388.89	14835.49
389.10	15787.79
389.31	14720.80
389.52	11581.26
389.73	9822.06
389.93	9006.97
390.14	8339.33
390.35	7479.18
390.56	6688.67
390.77	5371.82
390.98	4020.16
391.18	3157.97
391.39	2793.43
391.60	2389.98
391.81	2349.02
392.02	2074.59
392.23	2512.86
392.43	2271.20
392.64	2383.84
392.85	2213.85
393.06	2410.46
393.27	2127.84
393.47	2090.98
393.68	2179.04
393.89	2226.14
394.10	2357.21
394.31	2125.79
394.52	2181.09
394.72	2117.60
394.93	2344.92
395.14	2007.01
395.35	2164.70
395.56	2172.89
395.76	2207.71
395.97	2209.76
396.18	2322.40
396.39	2389.98
396.60	2648.02
396.80	2383.84
397.01	2314.20
397.22	2469.85
397.43	2324.44
397.64	2189.28
397.84	2308.06
398.05	2418.65
398.26	2187.23
398.47	2240.48
398.67	2281.44
398.88	2226.14
399.09	2293.72
399.30	2168.80
399.51	2195.42
399.71	2138.08
399.92	2154.46
400.13	2226.14
400.34	2248.67
400.54	2160.61
400.75	2297.82
400.96	2310.11
401.17	2361.31
401.37	2215.90
401.58	2183.13
401.79	2111.46
402.00	2363.36
402.21	2553.82
402.41	2463.71
402.62	2645.98
402.83	2592.73
403.04	2650.07
403.24	2699.22
403.45	2394.08
403.66	2564.06
403.87	2400.22
404.07	2525.15
404.28	2439.13
404.49	2410.46
404.70	2308.06
404.90	2275.29
405.11	2191.33
405.32	2260.96
405.52	2107.36
405.73	2185.18
405.94	2125.79
406.15	2179.04
406.35	2361.31
406.56	2265.05
406.77	2269.15
406.98	2228.19
407.18	2183.13
407.39	2322.40
407.60	2176.99
407.80	2330.59
408.01	2162.66
408.22	2217.95
408.43	2056.16
408.63	2252.77
408.84	2285.53
409.05	2236.38
409.25	2179.04
409.46	2144.22
409.67	2193.37
409.88	2099.17
410.08	2232.29
410.29	2170.85
410.50	2256.86
410.70	2220.00
410.91	2068.45
411.12	2281.44
411.32	2220.00
411.53	2183.13
411.74	2365.40
411.95	2258.91
412.15	2297.82
412.36	2369.50
412.57	2287.58
412.77	2369.50
412.98	2220.00
413.19	2220.00
413.39	2203.61
413.60	2260.96
413.81	2375.64
414.01	2064.35
414.22	2193.37
414.43	2310.11
414.63	2246.62
414.84	2340.83
415.05	2166.75
415.25	2097.12
415.46	2267.10
415.67	2148.32
415.87	2238.43
416.08	2140.13
416.29	2113.50
416.49	2265.05
416.70	2166.75
416.91	2195.42
417.11	2260.96
417.32	2332.64
417.53	2287.58
417.73	2279.39
417.94	2162.66
418.15	2287.58
418.35	2150.37
418.56	2203.61
418.77	2490.33
418.97	2209.76
419.18	2187.23
419.38	2107.36
419.59	2166.75
419.80	2416.60
420.00	2158.56
420.21	2248.67
420.42	2324.44
420.62	2203.61
420.83	2136.03
421.04	2129.89
421.24	2174.94
421.45	2299.87
421.65	2246.62
421.86	2150.37
422.07	2308.06
422.27	2191.33
422.48	2193.37
422.69	2119.65
422.89	2293.72
423.10	2138.08
423.30	2109.41
423.51	2144.22
423.72	2230.24
423.92	2226.14
424.13	2113.50
424.33	2220.00
424.54	2263.01
424.75	2179.04
424.95	2392.03
425.16	2185.18
425.36	2097.12
425.57	2394.08
425.78	2267.10
425.98	2312.16
426.19	2234.33
426.39	2093.02
426.60	2260.96
426.81	2236.38
427.01	2265.05
427.22	2168.80
427.42	1998.82
427.63	2127.84
427.83	2252.77
428.04	2338.78
428.25	2299.87
428.45	2338.78
428.66	2250.72
428.86	2150.37
429.07	2211.81
429.28	2189.28
429.48	2140.13
429.69	2125.79
429.89	2179.04
430.10	2144.22
430.30	2301.92
430.51	2322.40
430.71	2133.98
430.92	2162.66
431.13	2133.98
431.33	2283.49
431.54	2195.42
431.74	2301.92
431.95	2324.44
432.15	2185.18
432.36	2191.33
432.56	2283.49
432.77	2359.26
432.98	2402.27
433.18	2273.25
433.39	2201.57
433.59	2203.61
433.80	2486.23
434.00	2318.30
434.21	2052.06
434.41	2076.64
434.62	2389.98
434.82	2164.70
435.03	2025.44
435.23	2228.19
435.44	2011.11
435.64	2181.09
435.85	2244.57
436.06	2230.24
436.26	2351.07
436.47	2158.56
436.67	2113.50
436.88	2209.76
437.08	2265.05
437.29	2306.01
437.49	2297.82
437.70	2299.87
437.90	2187.23
438.11	2334.68
438.31	2271.20
438.52	2359.26
438.72	2375.64
438.93	2559.96
439.13	2308.06
439.34	2340.83
439.54	2250.72
439.75	2375.64
439.95	2340.83
440.16	2183.13
440.36	2203.61
440.57	2222.05
440.77	2248.67
440.98	2248.67
441.18	2289.63
441.39	2185.18
441.59	2150.37
441.80	2426.84
442.00	2187.23
442.21	2330.59
442.41	2086.88
442.62	2281.44
442.82	2193.37
443.02	2228.19
443.23	2265.05
443.43	2248.67
443.64	2379.74
443.84	2111.46
444.05	2301.92
444.25	2228.19
444.46	2209.76
444.66	2234.33
444.87	2330.59
445.07	2088.93
445.28	2174.94
445.48	2346.97
445.69	2314.20
445.89	2441.18
446.09	2242.53
446.30	2531.29
446.50	2926.55
446.71	4388.80
446.91	5511.08
447.12	6336.42
447.32	6780.82
447.53	6352.80
447.73	5154.74
447.93	4536.25
448.14	4296.64
448.34	4073.41
448.55	3717.06
448.75	3512.27
448.96	3313.61
449.16	2994.13
449.36	2916.31
449.57	2580.44
449.77	2283.49
449.98	2211.81
450.18	2318.30
450.39	2338.78
450.59	2195.42
450.79	2252.77
451.00	2185.18
451.20	2254.81
451.41	2189.28
451.61	2197.47
451.81	2191.33
452.02	2267.10
452.22	2217.95
452.43	2187.23
452.63	2150.37
452.84	2129.89
453.04	2176.99
453.24	2220.00
453.45	2111.46
453.65	2201.57
453.86	2238.43
454.06	2183.13
454.26	2256.86
454.47	2170.85
454.67	2318.30
454.87	2211.81
455.08	2201.57
455.28	2254.81
455.49	2291.68
455.69	2121.70
455.89	2432.99
456.10	2238.43
456.30	2181.09
456.51	2293.72
456.71	2279.39
456.91	2181.09
457.12	2211.81
457.32	2226.14
457.52	2072.54
457.73	2244.57
457.93	2250.72
458.14	2211.81
458.34	2033.63
458.54	2170.85
458.75	2123.74
458.95	2375.64
459.15	2242.53
459.36	2195.42
459.56	2199.52
459.76	2424.80
459.97	2232.29
460.17	2144.22
460.37	2258.91
460.58	2170.85
460.78	2318.30
460.99	2185.18
461.19	2125.79
461.39	2133.98
461.60	2093.02
461.80	2308.06
462.00	2160.61
462.21	2191.33
462.41	2166.75
462.61	2103.26
462.82	2093.02
463.02	2228.19
463.22	2187.23
463.43	2242.53
463.63	2215.90
463.83	2342.88
464.04	2279.39
464.24	2181.09
464.44	2113.50
464.64	2205.66
464.85	2291.68
465.05	2220.00
465.25	2242.53
465.46	2119.65
465.66	2226.14
465.86	2215.90
466.07	2189.28
466.27	2211.81
466.47	2017.25
466.68	2099.17
466.88	2377.69
467.08	2289.63
467.29	2310.11
467.49	2342.88
467.69	2164.70
467.89	2338.78
468.10	2119.65
468.30	2258.91
468.50	2205.66
468.71	2310.11
468.91	2099.17
469.11	2410.46
469.31	2224.09
469.52	2088.93
469.72	2326.49
469.92	2416.60
470.13	2191.33
470.33	2160.61
470.53	2340.83
470.73	2682.84
470.94	3108.82
471.14	3250.13
471.34	3672.01
471.54	3465.16
471.75	3133.39
471.95	2840.53
472.15	2818.00
472.36	2820.05
472.56	2721.75
472.76	2723.80
472.96	2629.59
473.17	2559.96
473.37	2461.66
473.57	2252.77
473.77	2301.92
473.98	2265.05
474.18	2113.50
474.38	2535.39
474.58	2162.66
474.79	2136.03
474.99	2252.77
475.19	2308.06
475.39	2088.93
475.60	2250.72
475.80	2174.94
476.00	2207.71
476.20	2158.56
476.41	2230.24
476.61	2324.44
476.81	2322.40
477.01	2127.84
477.21	2396.12
477.42	2254.81
477.62	2160.61
477.82	2320.35
478.02	2195.42
478.23	2267.10
478.43	2080.74
478.63	2234.33
478.83	2203.61
479.03	2146.27
479.24	2357.21
479.44	2340.83
479.64	2154.46
479.84	2062.30
480.04	2209.76
480.25	2299.87
480.45	2123.74
480.65	2164.70
480.85	2355.16
481.06	2183.13
481.26	2228.19
481.46	2248.67
481.66	2215.90
481.86	2095.07
482.06	2308.06
482.27	2146.27
482.47	2127.84
482.67	2209.76
482.87	2195.42
483.07	2320.35
483.28	2205.66
483.48	2076.64
483.68	2127.84
483.88	2136.03
484.08	2076.64
484.29	2185.18
484.49	2152.42
484.69	2123.74
484.89	2346.97
485.09	2295.77
485.29	2252.77
485.50	2203.61
485.70	2222.05
485.90	2324.44
486.10	2158.56
486.30	2156.51
486.50	2351.07
486.71	2256.86
486.91	2203.61
487.11	2334.68
487.31	2021.35
487.51	2320.35
487.71	2088.93
487.91	2123.74
488.12	2162.66
488.32	1964.00
488.52	2174.94
488.72	2015.20
488.92	2181.09
489.12	2324.44
489.32	2252.77
489.53	2260.96
489.73	2138.08
489.93	2379.74
490.13	2086.88
490.33	2101.22
490.53	2187.23
490.73	2422.75
490.94	2050.02
491.14	2326.49
491.34	2318.30
491.54	2570.20
491.74	3180.50
491.94	3635.14
492.14	3950.53
492.34	4069.31
492.54	3807.17
492.75	3172.30
492.95	3131.34
493.15	2897.88
493.35	2834.39
493.55	2895.83
493.75	2682.84
493.95	2736.09
494.15	2432.99
494.35	2422.75
494.56	2324.44
494.76	2146.27
494.96	2224.09
495.16	2285.53
495.36	2228.19
495.56	2260.96
495.76	2250.72
495.96	2207.71
496.16	2119.65
496.36	2381.79
496.56	2230.24
496.77	2205.66
496.97	2201.57
497.17	2342.88
497.37	2058.21
497.57	2269.15
497.77	2252.77
497.97	2097.12
498.17	2252.77
498.37	2191.33
498.57	2228.19
498.77	2097.12
498.97	2213.85
499.17	2359.26
499.38	2297.82
499.58	2222.05
499.78	2232.29
499.98	2349.02
500.18	2140.13
500.38	2142.18
500.58	2359.26
500.78	2838.48
500.98	5244.85
501.18	7456.65
501.38	9187.19
501.58	10080.10
501.78	9965.42
501.98	7878.54
502.18	6557.60
502.38	5627.82
502.58	5214.13
502.78	4706.23
502.98	4530.11
503.18	4267.97
503.38	3964.87
503.59	3391.44
503.79	3262.41
503.99	3047.38
504.19	2801.62
504.39	2760.66
504.59	2844.63
504.79	2873.30
504.99	2887.64
505.19	2512.86
505.39	2445.27
505.59	2514.91
505.79	2516.95
505.99	2361.31
506.19	2340.83
506.39	2508.76
506.59	2293.72
506.79	2246.62
506.99	2359.26
507.19	2232.29
507.39	2236.38
507.59	2209.76
507.79	2179.04
507.99	2314.20
508.19	2277.34
508.39	2138.08
508.59	2211.81
508.79	2340.83
508.99	2478.04
509.19	2154.46
509.39	2224.09
509.59	2158.56
509.79	2080.74
509.99	2203.61
510.19	2340.83
510.39	2256.86
510.59	2265.05
510.79	2142.18
510.99	2082.78
511.19	2156.51
511.39	2408.41
511.59	2355.16
511.79	2351.07
511.99	2238.43
512.19	2351.07
512.38	2170.85
512.58	2127.84
512.78	2207.71
512.98	2340.83
513.18	2285.53
513.38	2156.51
513.58	2291.68
513.78	2199.52
513.98	2201.57
514.18	2133.98
514.38	2170.85
514.58	2232.29
514.78	2127.84
514.98	2144.22
515.18	2187.23
515.38	2103.26
515.58	2369.50
515.78	2183.13
515.98	2203.61
516.18	2228.19
516.38	2250.72
516.57	2095.07
516.77	2166.75
516.97	2230.24
517.17	2213.85
517.37	2035.68
517.57	2215.90
517.77	2256.86
517.97	2097.12
518.17	2224.09
518.37	2150.37
518.57	2207.71
518.77	2224.09
518.97	2252.77
519.16	2222.05
519.36	2312.16
519.56	2158.56
519.76	2260.96
519.96	2199.52
520.16	2342.88
520.36	2207.71
520.56	2355.16
520.76	2105.31
520.96	2185.18
521.16	2312.16
521.35	2279.39
521.55	2351.07
521.75	2285.53
521.95	2168.80
522.15	2095.07
522.35	2160.61
522.55	2170.85
522.75	2310.11
522.95	2101.22
523.14	2164.70
523.34	2310.11
523.54	2203.61
523.74	2195.42
523.94	2181.09
524.14	2181.09
524.34	2211.81
524.54	2392.03
524.73	2193.37
524.93	2283.49
525.13	2238.43
525.33	2060.26
525.53	2357.21
525.73	2351.07
525.93	2174.94
526.13	2166.75
526.32	2176.99
526.52	2400.22
526.72	2293.72
526.92	2144.22
527.12	2203.61
527.32	2160.61
527.52	2226.14
527.71	2295.77
527.91	2242.53
528.11	2148.32
528.31	2220.00
528.51	2176.99
528.71	2193.37
528.90	2230.24
529.10	2246.62
529.30	2289.63
529.50	1974.24
529.70	2195.42
529.90	2125.79
530.09	2158.56
530.29	2160.61
530.49	2215.90
530.69	2473.95
530.89	2232.29
531.09	2269.15
531.28	2217.95
531.48	2250.72
531.68	2179.04
531.88	2324.44
532.08	2355.16
532.28	2232.29
532.47	2277.34
532.67	2287.58
532.87	2306.01
533.07	2164.70
533.27	2322.40
533.46	2279.39
533.66	2263.01
533.86	2269.15
534.06	2203.61
534.26	2299.87
534.45	2193.37
534.65	2344.92
534.85	2189.28
535.05	2172.89
535.25	2379.74
535.44	2113.50
535.64	2236.38
535.84	2107.36
536.04	2174.94
536.24	2295.77
536.43	2080.74
536.63	2209.76
536.83	2228.19
537.03	2217.95
537.22	2164.70
537.42	2074.59
537.62	2289.63
537.82	2144.22
538.02	2293.72
538.21	2318.30
538.41	2482.14
538.61	2238.43
538.81	2166.75
539.00	2281.44
539.20	2101.22
539.40	2224.09
539.60	2275.29
539.79	2267.10
539.99	2236.38
540.19	2162.66
540.39	2168.80
540.58	2197.47
540.78	2281.44
540.98	2195.42
541.18	2271.20
541.37	2240.48
541.57	2240.48
541.77	2287.58
541.97	2088.93
542.16	2093.02
542.36	2191.33
542.56	2086.88
542.76	2330.59
542.95	2283.49
543.15	2246.62
543.35	2320.35
543.54	2166.75
543.74	2183.13
543.94	2328.54
544.14	2133.98
544.33	2244.57
544.53	2113.50
544.73	2228.19
544.93	2119.65
545.12	2209.76
545.32	2230.24
545.52	2160.61
545.71	2146.27
545.91	2138.08
546.11	2199.52
546.30	2121.70
546.50	2236.38
546.70	2187.23
546.90	2179.04
547.09	2029.54
547.29	2179.04
547.49	2199.52
547.68	2283.49
547.88	2074.59
548.08	2209.76
548.27	2727.89
548.47	2172.89
548.67	2097.12
548.87	2299.87
549.06	2179.04
549.26	2230.24
549.46	2217.95
549.65	2121.70
549.85	2258.91
550.05	2312.16
550.24	2125.79
550.44	2263.01
550.64	2144.22
550.83	2195.42
551.03	2361.31
551.23	2244.57
551.42	2301.92
551.62	2129.89
551.82	2170.85
552.01	2222.05
552.21	2332.64
552.41	2193.37
552.60	2336.73
552.80	2242.53
553.00	2170.85
553.19	2230.24
553.39	2332.64
553.59	2101.22
553.78	2228.19
553.98	2236.38
554.17	2080.74
554.37	2285.53
554.57	2275.29
554.76	2043.87
554.96	2170.85
555.16	2197.47
555.35	2246.62
555.55	2228.19
555.75	2168.80
555.94	2312.16
556.14	2072.54
556.33	2213.85
556.53	2170.85
556.73	2240.48
556.92	2283.49
557.12	2306.01
557.32	2381.79
557.51	2353.12
557.71	2310.11
557.90	2375.64
558.10	2267.10
558.30	2170.85
558.49	2189.28
558.69	2140.13
558.88	2263.01
559.08	2230.24
559.28	2273.25
559.47	2285.53
559.67	2189.28
559.86	2392.03
560.06	2215.90
560.26	2179.04
560.45	2248.67
560.65	2242.53
560.84	2303.96
561.04	2144.22
561.24	2260.96
561.43	2162.66
561.63	2355.16
561.82	2252.77
562.02	2291.68
562.22	2123.74
562.41	2248.67
562.61	2166.75
562.80	2123.74
563.00	2463.71
563.19	2199.52
563.39	2179.04
563.59	2201.57
563.78	2111.46
563.98	2060.26
564.17	2160.61
564.37	2185.18
564.56	2205.66
564.76	2168.80
564.96	2375.64
565.15	2310.11
565.35	2465.75
565.54	2179.04
565.74	2254.81
565.93	2238.43
566.13	2201.57
566.32	2273.25
566.52	2170.85
566.71	2256.86
566.91	2281.44
567.11	2263.01
567.30	2125.79
567.50	2318.30
567.69	2277.34
567.89	2220.00
568.08	2062.30
568.28	2150.37
568.47	2162.66
568.67	2232.29
568.86	2142.18
569.06	2363.36
569.25	2193.37
569.45	2072.54
569.64	2162.66
569.84	2195.42
570.04	2314.20
570.23	2099.17
570.43	2263.01
570.62	2258.91
570.82	2430.94
571.01	2043.87
571.21	2166.75
571.40	2078.69
571.60	2279.39
571.79	2238.43
571.99	2299.87
572.18	2113.50
572.38	2252.77
572.57	2146.27
572.77	2273.25
572.96	2480.09
573.16	2273.25
573.35	2263.01
573.55	2273.25
573.74	2326.49
573.94	2195.42
574.13	2201.57
574.33	2310.11
574.52	2291.68
574.71	2248.67
574.91	2254.81
575.10	2088.93
575.30	2144.22
575.49	2113.50
575.69	2154.46
575.88	2293.72
576.08	2265.05
576.27	2381.79
576.47	2336.73
576.66	2418.65
576.86	2410.46
577.05	2254.81
577.25	2238.43
577.44	2424.80
577.64	2222.05
577.83	2355.16
578.02	2199.52
578.22	2410.46
578.41	2449.37
578.61	2115.55
578.80	2086.88
579.00	2193.37
579.19	2154.46
579.39	2252.77
579.58	2314.20
579.77	2162.66
579.97	2400.22
580.16	2336.73
580.36	2275.29
580.55	2312.16
580.75	2263.01
580.94	2254.81
581.13	2424.80
581.33	2418.65
581.52	2234.33
581.72	2381.79
581.91	2410.46
582.11	2170.85
582.30	2293.72
582.49	2326.49
582.69	2461.66
582.88	2279.39
583.08	2220.00
583.27	2269.15
583.47	2211.81
583.66	2238.43
583.85	2172.89
584.05	2119.65
584.24	2332.64
584.44	2324.44
584.63	2379.74
584.82	2359.26
585.02	2355.16
585.21	2377.69
585.41	2461.66
585.60	2396.12
585.79	2537.43
585.99	2508.76
586.18	2283.49
586.37	2895.83
586.57	4452.28
586.76	13371.19
586.96	32556.56
587.15	46875.96
587.34	55858.35
587.54	60826.72
587.73	56247.46
587.93	39916.96
588.12	30033.46
588.31	24206.99
588.51	20993.73
588.70	19246.81
588.89	17692.40
589.09	15271.70
589.28	13037.37
589.47	10665.82
589.67	8353.66
589.86	6508.44
590.06	4671.42
590.25	3848.13
590.44	3235.79
590.64	2775.00
590.83	2645.98
591.02	2478.04
591.22	2361.31
591.41	2297.82
591.60	2244.57
591.80	2459.61
591.99	2260.96
592.18	2289.63
592.38	2310.11
592.57	2189.28
592.76	2240.48
592.96	2291.68
593.15	2301.92
593.34	2301.92
593.54	2179.04
593.73	2293.72
593.92	2260.96
594.12	2332.64
594.31	2291.68
594.50	2424.80
594.70	2379.74
594.89	2531.29
595.08	2215.90
595.28	2328.54
595.47	2469.85
595.66	2289.63
595.86	2187.23
596.05	2220.00
596.24	2240.48
596.43	2416.60
596.63	2332.64
596.82	2322.40
597.01	2381.79
597.21	2432.99
597.40	2234.33
597.59	2316.25
597.79	2252.77
597.98	2324.44
598.17	2310.11
598.36	2236.38
598.56	2277.34
598.75	2146.27
598.94	2248.67
599.14	2248.67
599.33	2189.28
599.52	2299.87
599.71	2193.37
599.91	2273.25
600.10	2344.92
600.29	2238.43
600.48	2275.29
600.68	2295.77
600.87	2222.05
601.06	2140.13
601.26	2236.38
601.45	2273.25
601.64	2174.94
601.83	2328.54
602.03	2170.85
602.22	2082.78
602.41	2377.69
602.60	2414.56
602.80	2236.38
602.99	2250.72
603.18	2185.18
603.37	2201.57
603.57	2267.10
603.76	2244.57
603.95	2373.60
604.14	2215.90
604.34	2099.17
604.53	2179.04
604.72	2230.24
604.91	2287.58
605.10	2344.92
605.30	2035.68
605.49	2449.37
605.68	2246.62
605.87	2287.58
606.07	2037.73
606.26	2211.81
606.45	2297.82
606.64	2179.04
606.84	2199.52
607.03	2310.11
607.22	2373.60
607.41	2217.95
607.60	2176.99
607.80	2324.44
607.99	2236.38
608.18	2215.90
608.37	2197.47
608.56	2070.50
608.76	2334.68
608.95	2416.60
609.14	2299.87
609.33	2420.70
609.52	2441.18
609.72	2404.32
609.91	2414.56
610.10	2279.39
610.29	2324.44
610.48	2293.72
610.68	2334.68
610.87	2207.71
611.06	2297.82
611.25	2234.33
611.44	2314.20
611.63	2170.85
611.83	2396.12
612.02	2140.13
612.21	2291.68
612.40	2035.68
612.59	2138.08
612.79	2021.35
612.98	2101.22
613.17	2394.08
613.36	2144.22
613.55	2392.03
613.74	2236.38
613.93	2492.38
614.13	2457.56
614.32	2420.70
614.51	2432.99
614.70	2291.68
614.89	2281.44
615.08	2336.73
615.28	2731.99
615.47	2228.19
615.66	2301.92
615.85	2217.95
616.04	2422.75
616.23	2260.96
616.42	2238.43
616.62	2291.68
616.81	2244.57
617.00	2279.39
617.19	2306.01
617.38	2209.76
617.57	2265.05
617.76	2301.92
617.95	2344.92
618.15	2318.30
618.34	2363.36
618.53	2146.27
618.72	2353.12
618.91	2371.55
619.10	2308.06
619.29	2226.14
619.48	2234.33
619.68	2129.89
619.87	2213.85
620.06	2113.50
620.25	2265.05
620.44	2181.09
620.63	2228.19
620.82	2281.44
621.01	2275.29
621.20	2154.46
621.39	2293.72
621.59	2244.57
621.78	2279.39
621.97	2275.29
622.16	2293.72
622.35	2258.91
622.54	2306.01
622.73	2389.98
622.92	2054.11
623.11	2310.11
623.30	2213.85
623.49	2316.25
623.68	2080.74
623.88	2359.26
624.07	2205.66
624.26	2232.29
624.45	2267.10
624.64	2127.84
624.83	2203.61
625.02	2133.98
625.21	2156.51
625.40	2291.68
625.59	2283.49
625.78	2179.04
625.97	2308.06
626.16	2346.97
626.35	2437.08
626.54	2301.92
626.74	2389.98
626.93	2199.52
627.12	2242.53
627.31	2295.77
627.50	2248.67
627.69	2357.21
627.88	2168.80
628.07	2156.51
628.26	2170.85
628.45	2146.27
628.64	2191.33
628.83	2222.05
629.02	2056.16
629.21	2287.58
629.40	2279.39
629.59	2154.46
629.78	2195.42
629.97	2148.32
630.16	2310.11
630.35	2217.95
630.54	2166.75
630.73	2211.81
630.92	2201.57
631.11	2111.46
631.30	2203.61
631.49	2301.92
631.68	2236.38
631.87	2258.91
632.06	2113.50
632.25	2449.37
632.44	2220.00
632.63	2273.25
632.82	2260.96
633.01	2232.29
633.20	2363.36
633.39	2316.25
633.58	2164.70
633.77	2301.92
633.96	2267.10
634.15	2303.96
634.34	2279.39
634.53	2299.87
634.72	2213.85
634.91	2105.31
635.10	2299.87
635.29	2195.42
635.48	2236.38
635.67	2129.89
635.86	2103.26
636.05	2316.25
636.24	2117.60
636.43	2236.38
636.62	2189.28
636.81	2052.06
637.00	2162.66
637.19	2240.48
637.38	2271.20
637.57	2283.49
637.76	2275.29
637.95	2402.27
638.14	2306.01
638.33	2344.92
638.52	2269.15
638.71	2160.61
638.89	2256.86
639.08	2471.90
639.27	2332.64
639.46	2445.27
639.65	2918.36
639.84	2977.75
640.03	3028.95
640.22	3010.51
640.41	2981.84
640.60	2594.78
640.79	2508.76
640.98	2408.41
641.17	2506.71
641.36	2424.80
641.55	2392.03
641.74	2195.42
641.92	2209.76
642.11	2156.51
642.30	2236.38
642.49	2174.94
642.68	2281.44
642.87	2275.29
643.06	2295.77
643.25	2115.55
643.44	2121.70
643.63	2228.19
643.82	2260.96
644.00	2070.50
644.19	2224.09
644.38	2090.98
644.57	2285.53
644.76	2160.61
644.95	2144.22
645.14	2228.19
645.33	2152.42
645.52	2224.09
645.71	2013.15
645.89	2037.73
646.08	2168.80
646.27	2236.38
646.46	2344.92
646.65	2064.35
646.84	2211.81
647.03	2220.00
647.22	2275.29
647.40	2142.18
647.59	2140.13
647.78	2002.91
647.97	2072.54
648.16	2119.65
648.35	2260.96
648.54	2379.74
648.73	2158.56
648.91	2250.72
649.10	2267.10
649.29	2168.80
649.48	2172.89
649.67	2252.77
649.86	2263.01
650.05	2293.72
650.23	2437.08
650.42	2328.54
650.61	2447.32
650.80	2441.18
650.99	2555.86
651.18	2449.37
651.36	2314.20
651.55	2287.58
651.74	2277.34
651.93	2244.57
652.12	2201.57
652.31	2260.96
652.49	2232.29
652.68	2234.33
652.87	2353.12
653.06	2248.67
653.25	2414.56
653.44	2199.52
653.62	2441.18
653.81	2207.71
654.00	2246.62
654.19	2295.77
654.38	2367.45
654.56	2226.14
654.75	2146.27
654.94	2273.25
655.13	2260.96
655.32	2291.68
655.51	2297.82
655.69	2164.70
655.88	2297.82
656.07	2068.45
656.26	2322.40
656.45	2158.56
656.63	2279.39
656.82	2308.06
657.01	2281.44
657.20	2183.13
657.38	2252.77
657.57	2119.65
657.76	2035.68
657.95	2271.20
658.14	2138.08
658.32	2224.09
658.51	2027.49
658.70	2260.96
658.89	2189.28
659.08	2197.47
659.26	2359.26
659.45	2220.00
659.64	2320.35
659.83	2158.56
660.01	2508.76
660.20	2244.57
660.39	2416.60
660.58	2043.87
660.76	2297.82
660.95	2166.75
661.14	2224.09
661.33	2121.70
661.51	2211.81
661.70	2133.98
661.89	2271.20
662.08	2107.36
662.26	2144.22
662.45	2084.83
662.64	2379.74
662.83	2250.72
663.01	2017.25
663.20	2248.67
663.39	2346.97
663.58	2136.03
663.76	2189.28
663.95	2293.72
664.14	2138.08
664.32	2148.32
664.51	2133.98
664.70	2029.54
664.89	2187.23
665.07	2062.30
665.26	2295.77
665.45	2156.51
665.64	2326.49
665.82	2240.48
666.01	2238.43
666.20	2129.89
666.38	2330.59
666.57	2385.88
666.76	3366.86
666.95	8224.64
667.13	16647.94
667.32	22113.97
667.51	25917.04
667.69	28065.36
667.88	25867.89
668.07	18102.00
668.25	14677.79
668.44	12011.34
668.63	10448.74
668.81	9154.42
669.00	7896.97
669.19	7194.51
669.38	6213.54
669.56	5357.49
669.75	4505.53
669.94	3723.21
670.12	3071.95
670.31	2848.72
670.50	2648.02
670.68	2457.56
670.87	2367.45
671.06	2301.92
671.24	2342.88
671.43	2435.03
671.62	2281.44
671.80	2207.71
671.99	2318.30
672.18	2359.26
672.36	2283.49
672.55	2232.29
672.74	2193.37
672.92	2217.95
673.11	2252.77
673.29	2084.83
673.48	2293.72
673.67	2127.84
673.85	2254.81
674.04	2211.81
674.23	2220.00
674.41	2383.84
674.60	2121.70
674.79	2058.21
674.97	2123.74
675.16	2346.97
675.34	2353.12
675.53	2133.98
675.72	2316.25
675.90	2414.56
676.09	2174.94
676.28	2232.29
676.46	2045.92
676.65	2351.07
676.83	2133.98
677.02	2226.14
677.21	2133.98
677.39	2250.72
677.58	2125.79
677.77	2199.52
677.95	2129.89
678.14	2170.85
678.32	2179.04
678.51	2193.37
678.70	2299.87
678.88	2176.99
679.07	2246.62
679.25	2195.42
679.44	2162.66
679.63	2095.07
679.81	2224.09
680.00	2322.40
680.18	2226.14
680.37	2351.07
680.55	2256.86
680.74	2086.88
680.93	2031.58
681.11	2316.25
681.30	2205.66
681.48	2222.05
681.67	2123.74
681.85	2279.39
682.04	2115.55
682.23	2312.16
682.41	2256.86
682.60	2222.05
682.78	2234.33
682.97	2111.46
683.15	2166.75
683.34	2297.82
683.53	2369.50
683.71	2121.70
683.90	2373.60
684.08	2318.30
684.27	2138.08
684.45	2295.77
684.64	2289.63
684.82	2179.04
685.01	2252.77
685.19	2209.76
685.38	2330.59
685.57	2136.03
685.75	2166.75
685.94	2140.13
686.12	2068.45
686.31	2209.76
686.49	2342.88
686.68	2035.68
686.86	2144.22
687.05	2199.52
687.23	2326.49
687.42	2121.70
687.60	2080.74
687.79	2195.42
687.97	2326.49
688.16	2353.12
688.34	2293.72
688.53	2076.64
688.71	2152.42
688.90	2283.49
689.08	2191.33
689.27	2088.93
689.45	2263.01
689.64	2250.72
689.82	2283.49
690.01	2236.38
690.19	2189.28
690.38	2064.35
690.56	2269.15
690.75	2146.27
690.93	2160.61
691.12	2105.31
691.30	2230.24
691.49	2217.95
691.67	2197.47
691.86	2299.87
692.04	2131.94
692.23	2207.71
692.41	2230.24
692.60	2451.42
692.78	2344.92
692.97	2291.68
693.15	2312.16
693.34	2385.88
693.52	2340.83
693.71	2183.13
693.89	2256.86
694.08	2031.58
694.26	2242.53
694.44	2285.53
694.63	2322.40
694.81	2103.26
695.00	2174.94
695.18	2332.64
695.37	2461.66
695.55	2234.33
695.74	2195.42
695.92	2144.22
696.10	2402.27
696.29	2060.26
696.47	2209.76
696.66	1996.77
696.84	2187.23
697.03	2244.57
697.21	2316.25
697.40	3188.69
697.58	2330.59
697.76	2217.95
697.95	2144.22
698.13	2131.94
698.32	2086.88
698.50	2168.80
698.68	2252.77
698.87	2359.26
699.05	2475.99
699.24	2224.09
699.42	2158.56
699.61	2193.37
699.79	2164.70
699.97	2191.33
700.16	2047.97
700.34	2097.12
700.53	2181.09
700.71	2318.30
700.89	2295.77
701.08	2150.37
701.26	2168.80
701.45	2781.14
701.63	2185.18
701.81	2232.29
702.00	2187.23
702.18	2220.00
702.37	2160.61
702.55	2420.70
702.73	2424.80
702.92	2340.83
703.10	2555.86
703.28	2514.91
703.47	2349.02
703.65	2400.22
703.84	2371.55
704.02	2236.38
704.20	2371.55
704.39	2189.28
704.57	2146.27
704.75	2367.45
704.94	2387.93
705.12	2281.44
705.30	2547.67
705.49	4489.15
705.67	11358.03
705.86	20334.28
706.04	24540.81
706.22	28593.74
706.41	29744.70
706.59	25319.04
706.77	18147.05
706.96	14827.29
707.14	12969.79
707.32	11067.22
707.51	9946.98
707.69	8109.96
707.87	6649.75
708.06	5164.98
708.24	4188.10
708.42	3354.57
708.61	3043.28
708.79	2461.66
708.97	2387.93
709.16	2310.11
709.34	2330.59
709.52	2244.57
709.71	2281.44
709.89	2248.67
710.07	2160.61
710.26	2093.02
710.44	2240.48
710.62	2326.49
710.80	2195.42
710.99	2258.91
711.17	2258.91
711.35	2138.08
711.54	2154.46
711.72	2224.09
711.90	2246.62
712.09	2195.42
712.27	2150.37
712.45	2277.34
712.63	2101.22
712.82	2228.19
713.00	2228.19
713.18	2228.19
713.37	2303.96
713.55	2322.40
713.73	2306.01
713.91	2234.33
714.10	2146.27
714.28	2215.90
714.46	2285.53
714.65	2228.19
714.83	2220.00
715.01	2224.09
715.19	2189.28
715.38	2144.22
715.56	2252.77
715.74	2037.73
715.92	2136.03
716.11	2402.27
716.29	2041.82
716.47	2211.81
716.65	2160.61
716.84	2070.50
717.02	2342.88
717.20	2064.35
717.38	2170.85
717.57	2222.05
717.75	2201.57
717.93	2127.84
718.11	2297.82
718.30	2162.66
718.48	2170.85
718.66	2226.14
718.84	2318.30
719.03	2113.50
719.21	2076.64
719.39	2379.74
719.57	2447.32
719.75	2363.36
719.94	2123.74
720.12	2111.46
720.30	2191.33
720.48	2224.09
720.67	2142.18
720.85	2111.46
721.03	2136.03
721.21	2035.68
721.39	2342.88
721.58	2240.48
721.76	2176.99
721.94	2293.72
722.12	2189.28
722.30	2381.79
722.49	2093.02
722.67	2244.57
722.85	2254.81
723.03	2056.16
723.21	2158.56
723.40	2226.14
723.58	2334.68
723.76	2240.48
723.94	2398.17
724.12	2324.44
724.30	2461.66
724.49	2324.44
724.67	2193.37
724.85	2340.83
725.03	2150.37
725.21	2211.81
725.40	2381.79
725.58	2129.89
725.76	2215.90
725.94	2256.86
726.12	2099.17
726.30	2211.81
726.49	2213.85
726.67	2179.04
726.85	2269.15
727.03	2598.87
727.21	3682.25
727.39	5611.43
727.57	6641.56
727.76	7378.83
727.94	7802.76
728.12	7241.62
728.30	5922.73
728.48	4995.00
728.66	4597.69
728.84	4057.03
729.03	3555.27
729.21	3137.49
729.39	2811.86
729.57	2523.10
729.75	2467.80
729.93	2381.79
730.11	2226.14
730.30	2156.51
730.48	2254.81
730.66	2357.21
730.84	2322.40
731.02	2176.99
731.20	2197.47
731.38	2236.38
731.56	2011.11
731.74	2027.49
731.93	2195.42
732.11	2185.18
732.29	2201.57
732.47	2258.91
732.65	2207.71
732.83	2332.64
733.01	2246.62
733.19	2119.65
733.37	2265.05
733.56	2250.72
733.74	2201.57
733.92	2332.64
734.10	2123.74
734.28	2258.91
734.46	2066.40
734.64	2187.23
734.82	2176.99
735.00	2076.64
735.18	2131.94
735.36	2179.04
735.54	2146.27
735.73	2199.52
735.91	2172.89
736.09	2340.83
736.27	2170.85
736.45	2201.57
736.63	2007.01
736.81	2113.50
736.99	2248.67
737.17	2330.59
737.35	2170.85
737.53	2215.90
737.71	2277.34
737.89	2295.77
738.07	2142.18
738.25	2162.66
738.43	2002.91
738.61	2164.70
738.80	2060.26
738.98	2078.69
739.16	2176.99
739.34	2097.12
739.52	2289.63
739.70	2154.46
739.88	2234.33
740.06	2351.07
740.24	1966.05
740.42	2332.64
740.60	2111.46
740.78	2152.42
740.96	2054.11
741.14	2162.66
741.32	2117.60
741.50	2047.97
741.68	2353.12
741.86	2318.30
742.04	2150.37
742.22	2146.27
742.40	2150.37
742.58	2211.81
742.76	2174.94
742.94	2314.20
743.12	2035.68
743.30	2203.61
743.48	2318.30
743.66	2080.74
743.84	2183.13
744.02	2191.33
744.20	2154.46
744.38	2047.97
744.56	2164.70
744.74	2250.72
744.92	2252.77
745.10	2404.32
745.28	2236.38
745.46	2285.53
745.64	2164.70
745.82	2324.44
746.00	2183.13
746.18	2181.09
746.36	2111.46
746.54	2164.70
746.72	2215.90
746.90	2125.79
747.08	2273.25
747.26	2217.95
747.44	2310.11
747.62	2275.29
747.80	2193.37
747.98	2310.11
748.15	2168.80
748.33	2320.35
748.51	2152.42
748.69	2228.19
748.87	2127.84
749.05	2220.00
749.23	2109.41
749.41	2185.18
749.59	2158.56
749.77	2324.44
749.95	2072.54
750.13	2138.08
750.31	2244.57
750.49	2133.98
750.67	2324.44
750.85	2269.15
751.03	2187.23
751.20	2379.74
751.38	2197.47
751.56	2215.90
751.74	2222.05
751.92	2179.04
752.10	2176.99
752.28	2263.01
752.46	2215.90
752.64	2220.00
752.82	2256.86
753.00	2265.05
753.18	2121.70
753.35	2181.09
753.53	2176.99
753.71	2136.03
753.89	2265.05
754.07	2203.61
754.25	2318.30
754.43	2242.53
754.61	2029.54
754.79	2281.44
754.97	2176.99
755.14	2263.01
755.32	2054.11
755.50	2187.23
755.68	2246.62
755.86	2133.98
756.04	2113.50
756.22	2113.50
756.40	2279.39
756.57	2392.03
756.75	2183.13
756.93	2392.03
757.11	2283.49
757.29	2136.03
757.47	2066.40
757.65	2064.35
757.82	2021.35
758.00	2084.83
758.18	2123.74
758.36	2156.51
758.54	2310.11
758.72	1990.63
758.90	2310.11
759.07	2230.24
759.25	2179.04
759.43	2215.90
759.61	2039.78
759.79	2998.23
759.97	2238.43
760.15	2125.79
760.32	2179.04
760.50	2267.10
760.68	2402.27
760.86	2064.35
761.04	2334.68
761.22	2269.15
761.39	2215.90
761.57	2238.43
761.75	2146.27
761.93	2203.61
762.11	2166.75
762.28	2158.56
762.46	2136.03
762.64	2301.92
762.82	2097.12
763.00	2170.85
763.18	2289.63
763.35	2103.26
763.53	2172.89
763.71	2179.04
763.89	2197.47
764.07	2201.57
764.24	2174.94
764.42	2297.82
764.60	2111.46
764.78	2217.95
764.96	2299.87
765.13	2240.48
765.31	2160.61
765.49	2258.91
765.67	2121.70
765.84	2142.18
766.02	2109.41
766.20	2054.11
766.38	2265.05
766.56	2269.15
766.73	2252.77
766.91	2148.32
767.09	2172.89
767.27	2222.05
767.44	2103.26
767.62	2220.00
767.80	2211.81
767.98	2105.31
768.15	2215.90
768.33	2271.20
768.51	2375.64
768.69	2230.24
768.87	2230.24
769.04	2230.24
769.22	2469.85
769.40	2375.64
769.58	2475.99
769.75	2242.53
769.93	2330.59
770.11	2170.85
770.28	2140.13
770.46	2242.53
770.64	2306.01
770.82	2095.07
770.99	2166.75
771.17	2285.53
771.35	2203.61
771.53	2086.88
771.70	2142.18
771.88	2213.85
772.06	2162.66
772.23	2224.09
772.41	2267.10
772.59	2136.03
772.77	2099.17
772.94	2215.90
773.12	2246.62
773.30	2109.41
773.47	2160.61
773.65	2084.83
773.83	2351.07
774.01	2154.46
774.18	1982.43
774.36	2242.53
774.54	2082.78
774.71	2269.15
774.89	2052.06
775.07	2060.26
775.24	2119.65
775.42	2144.22
775.60	2375.64
775.78	2103.26
775.95	2070.50
776.13	2011.11
776.31	2039.78
776.48	2269.15
776.66	2322.40
776.84	2117.60
777.01	2088.93
777.19	2138.08
777.37	2162.66
777.54	2281.44
777.72	2342.88
777.90	2185.18
778.07	2207.71
778.25	2457.56
778.43	2314.20
778.60	2119.65
778.78	2287.58
778.96	2359.26
779.13	2011.11
779.31	2269.15
779.49	2164.70
779.66	2199.52
779.84	2117.60
780.01	2146.27
780.19	2162.66
780.37	2238.43
780.54	2254.81
780.72	2131.94
780.90	2176.99
781.07	2068.45
781.25	2068.45
781.43	2269.15
781.60	2105.31
781.78	2287.58
781.95	2211.81
782.13	2131.94
782.31	2185.18
782.48	2052.06
782.66	2111.46
782.83	2363.36
783.01	2211.81
783.19	2324.44
783.36	2146.27
783.54	2111.46
783.72	2285.53
783.89	2133.98
784.07	2199.52
784.24	2236.38
784.42	2338.78
784.60	2166.75
784.77	2211.81
784.95	2043.87
785.12	2097.12
785.30	2244.57
785.47	2109.41
785.65	2133.98
785.83	2211.81
786.00	2170.85
786.18	2211.81
786.35	2093.02
786.53	2076.64
786.71	2281.44
786.88	2238.43
787.06	2195.42
787.23	2125.79
787.41	2066.40
787.58	2176.99
787.76	2152.42
787.94	2250.72
788.11	2195.42
788.29	2101.22
788.46	2121.70
788.64	2088.93
788.81	2127.84
788.99	2047.97
789.16	2117.60
789.34	2211.81
789.52	2105.31
789.69	2269.15
789.87	2033.63
790.04	2158.56
790.22	2220.00
790.39	2353.12
790.57	2025.44
790.74	2093.02
790.92	2301.92
791.09	2007.01
791.27	2242.53
791.44	2312.16
791.62	2174.94
791.79	2320.35
791.97	2224.09
792.15	2441.18
792.32	2306.01
792.50	2269.15
792.67	2367.45
792.85	2342.88
793.02	2236.38
793.20	2156.51
793.37	1959.91
793.55	2281.44
793.72	2084.83
793.90	2240.48
794.07	2121.70
794.25	2133.98
794.42	2162.66
794.60	2228.19
794.77	2234.33
794.95	2297.82
795.12	2303.96
795.30	2222.05
795.47	2054.11
795.65	2412.51
795.82	2263.01
796.00	2076.64
796.17	2211.81
796.34	2129.89
796.52	2179.04
796.69	2301.92
796.87	2252.77
797.04	2154.46
797.22	2279.39
797.39	2236.38
797.57	2220.00
797.74	2224.09
797.92	2260.96
798.09	2138.08
798.27	2248.67
798.44	2222.05
798.62	2187.23
798.79	2275.29
798.96	2207.71
799.14	2201.57
799.31	2392.03
799.49	2127.84
799.66	2072.54
799.84	2205.66
800.01	2068.45
800.19	2252.77
800.36	2015.20
800.53	2211.81
800.71	2297.82
800.88	2383.84
801.06	2119.65
801.23	2103.26
801.41	2170.85
801.58	2162.66
801.75	2037.73
801.93	2232.29
802.10	2271.20
802.28	2154.46
802.45	2105.31
802.63	2238.43
802.80	2383.84
802.97	2074.59
803.15	2207.71
803.32	2111.46
803.50	2070.50
803.67	2105.31
803.84	2037.73
804.02	2236.38
804.19	2111.46
804.37	2023.39
804.54	2088.93
804.71	2136.03
804.89	2230.24
805.06	2066.40
805.24	2037.73
805.41	2058.21
805.58	2095.07
805.76	2373.60
805.93	2168.80
806.10	2242.53
806.28	2310.11
806.45	2224.09
806.63	2301.92
806.80	2199.52
806.97	2217.95
807.15	2252.77
807.32	2277.34
807.49	2133.98
807.67	2090.98
807.84	2187.23
808.01	2031.58
808.19	2326.49
808.36	2389.98
808.54	2154.46
808.71	2199.52
808.88	2181.09
809.06	2269.15
809.23	2314.20
809.40	2179.04
809.58	2242.53
809.75	2183.13
809.92	2070.50
810.10	2451.42
810.27	2152.42
810.44	2224.09
810.62	2308.06
810.79	2160.61
810.96	2164.70
811.14	2121.70
811.31	2267.10
811.48	2236.38
811.66	2176.99
811.83	2318.30
812.00	2281.44
812.18	2185.18
812.35	2373.60
812.52	2066.40
812.69	2152.42
812.87	2195.42
813.04	2140.13
813.21	2269.15
813.39	2099.17
813.56	2181.09
813.73	2310.11
813.91	2093.02
814.08	2103.26
814.25	2248.67
814.42	2029.54
814.60	2242.53
814.77	2226.14
814.94	2191.33
815.12	2183.13
815.29	2392.03
815.46	2144.22
815.63	2097.12
815.81	2101.22
815.98	2152.42
816.15	2160.61
816.33	2127.84
816.50	2207.71
816.67	2197.47
816.84	2195.42
817.02	2084.83
817.19	2203.61
817.36	2179.04
817.53	2228.19
817.71	2093.02
817.88	2199.52
818.05	2131.94
818.22	2158.56
818.40	2383.84
818.57	2168.80
818.74	2244.57
818.91	2154.46
819.09	2281.44
819.26	2283.49
819.43	2066.40
819.60	2113.50
819.78	2250.72
819.95	2320.35
820.12	2015.20
820.29	2289.63
820.47	2248.67
820.64	2101.22
820.81	2052.06
820.98	2093.02
821.15	2172.89
821.33	2310.11
821.50	2025.44
821.67	2228.19
821.84	2123.74
822.02	2211.81
822.19	2299.87
822.36	2185.18
822.53	2133.98
822.70	2201.57
822.88	2138.08
823.05	2291.68
823.22	2150.37
823.39	2160.61
823.56	2203.61
823.74	2314.20
823.91	2101.22
824.08	2133.98
824.25	2025.44
824.42	2342.88
824.60	2080.74
824.77	2164.70
824.94	2181.09
825.11	2211.81
825.28	1992.67
825.45	2187.23
825.63	2230.24
825.80	2146.27
825.97	2248.67
826.14	2154.46
826.31	2093.02
826.48	2285.53
826.66	2123.74
826.83	2146.27
827.00	2095.07
827.17	2095.07
827.34	2185.18
827.51	2193.37
827.69	2154.46
827.86	2099.17
828.03	2154.46
828.20	2201.57
828.37	2162.66
828.54	2224.09
828.71	2127.84
828.89	2301.92
829.06	2240.48
829.23	2369.50
829.40	2129.89
829.57	2101.22
829.74	2220.00
829.91	2076.64
830.09	2131.94
830.26	2246.62
830.43	2291.68
830.60	2203.61
830.77	2277.34
830.94	2271.20
831.11	2285.53
831.28	2168.80
831.46	2226.14
831.63	2170.85
831.80	2299.87
831.97	2121.70
832.14	2176.99
832.31	2291.68
832.48	2189.28
832.65	2297.82
832.82	2215.90
832.99	2232.29
833.17	2037.73
833.34	2275.29
833.51	2267.10
833.68	2058.21
833.85	2281.44
834.02	2193.37
834.19	2062.30
834.36	2111.46
834.53	2209.76
834.70	2222.05
834.87	2275.29
835.04	2195.42
835.22	2029.54
835.39	2146.27
835.56	2133.98
835.73	2162.66
835.90	2248.67
836.07	2117.60
836.24	2179.04
836.41	2125.79
836.58	2070.50
836.75	2301.92
836.92	2152.42
837.09	2088.93
837.26	2402.27
837.43	2201.57
837.60	2205.66
837.77	2217.95
837.94	2293.72
838.12	2340.83
838.29	2068.45
838.46	2015.20
838.63	2129.89
838.80	2338.78
838.97	2269.15
839.14	2150.37
839.31	2226.14
839.48	2201.57
839.65	2203.61
839.82	2289.63
839.99	2228.19
840.16	2240.48
840.33	2068.45
840.50	2146.27
840.67	2111.46
840.84	1974.24
841.01	2256.86
841.18	2107.36
841.35	2195.42
841.52	2267.10
841.69	2306.01
841.86	2168.80
842.03	2168.80
842.20	2258.91
842.37	2119.65
842.54	2201.57
842.71	2133.98
842.88	2060.26
843.05	2162.66
843.22	2043.87
843.39	2263.01
843.56	2244.57
843.73	2191.33
843.90	2246.62
844.07	2215.90
844.24	2330.59
844.41	2185.18
844.58	2260.96
844.75	2127.84
844.92	2256.86
845.09	2115.55
845.26	2062.30
845.43	2213.85
845.60	2234.33
845.77	2244.57
845.94	2209.76
846.10	2250.72
846.27	2076.64
846.44	2047.97
846.61	2033.63
846.78	2250.72
846.95	2234.33
847.12	2127.84
847.29	2131.94
847.46	2129.89
847.63	2293.72
847.80	2115.55
847.97	2138.08
848.14	2435.03
848.31	2162.66
848.48	2101.22
848.65	2136.03
848.82	2136.03
848.98	2443.23
849.15	2230.24
849.32	2281.44
849.49	2224.09
849.66	2246.62
849.83	2113.50
850.00	2043.87
850.17	2232.29
850.34	2269.15
850.51	2080.74
850.68	2109.41
850.85	2426.84
851.01	2187.23
851.18	2121.70
851.35	2070.50
851.52	2179.04
851.69	2269.15
851.86	2056.16
852.03	2123.74
852.20	2224.09
852.37	2172.89
852.53	2033.63
852.70	2150.37
852.87	2228.19
853.04	2322.40
853.21	2154.46
853.38	2287.58
853.55	2281.44
853.72	2306.01
853.89	2101.22
854.05	2103.26
854.22	2160.61
854.39	2179.04
854.56	2140.13
854.73	2303.96
854.90	2142.18
855.07	2154.46
855.23	2162.66
855.40	2199.52
855.57	2193.37
855.74	2017.25
855.91	2336.73
856.08	2021.35
856.25	2062.30
856.41	2146.27
856.58	2136.03
856.75	2234.33
856.92	2070.50
857.09	2277.34
857.26	2011.11
857.42	2119.65
857.59	2275.29
857.76	2170.85
857.93	2238.43
858.10	2131.94
858.27	2090.98
858.43	2240.48
858.60	2039.78
858.77	2021.35
858.94	2189.28
859.11	2236.38
859.27	2084.83
859.44	2113.50
859.61	2340.83
859.78	2220.00
859.95	2086.88
860.12	2064.35
860.28	2430.94
860.45	2342.88
860.62	2154.46
860.79	2195.42
860.95	2166.75
861.12	2023.39
861.29	2072.54
861.46	2072.54
861.63	2220.00
861.79	2162.66
861.96	2099.17
862.13	2117.60
862.30	2330.59
862.47	2185.18
862.63	2123.74
862.80	2238.43
862.97	2283.49
863.14	2150.37
863.30	2211.81
863.47	2033.63
863.64	2310.11
863.81	2183.13
863.97	2121.70
864.14	2220.00
864.31	2129.89
864.48	2244.57
864.65	2150.37
864.81	2203.61
864.98	2277.34
865.15	2338.78
865.32	2160.61
865.48	2277.34
865.65	2332.64
865.82	2150.37
865.98	2150.37
866.15	2258.91
866.32	2185.18
866.49	2119.65
866.65	2297.82
866.82	2131.94
866.99	2179.04
867.16	2054.11
867.32	2029.54
867.49	2158.56
867.66	2093.02
867.83	2162.66
867.99	2031.58
868.16	2158.56
868.33	2105.31
868.49	2133.98
868.66	2078.69
868.83	2211.81
868.99	2285.53
869.16	2158.56
869.33	2260.96
869.50	2310.11
869.66	2136.03
869.83	2181.09
870.00	2064.35
870.16	2209.76
870.33	2088.93
870.50	2320.35
870.66	2170.85
870.83	2258.91
871.00	2193.37
871.17	2224.09
871.33	2166.75
871.50	2109.41
871.67	2203.61
871.83	2062.30
872.00	2289.63
872.17	2162.66
872.33	2314.20
872.50	2271.20
872.67	2217.95
872.83	2158.56
873.00	2228.19
873.17	2199.52
873.33	2174.94
873.50	2228.19
873.67	2019.30
873.83	2172.89
874.00	2107.36
874.16	2187.23
874.33	2156.51
874.50	2060.26
874.66	2222.05
874.83	2072.54
875.00	2258.91
875.16	2314.20
875.33	2267.10
875.50	1988.58
875.66	2121.70
875.83	2181.09
875.99	2226.14
876.16	2068.45
876.33	2121.70
876.49	2138.08
876.66	2242.53
876.83	2115.55
876.99	1990.63
877.16	2138.08
877.32	2142.18
877.49	2109.41
877.66	2142.18
877.82	2316.25
877.99	2191.33
878.15	2285.53
878.32	2283.49
878.49	2187.23
878.65	2133.98
878.82	2308.06
878.98	2142.18
879.15	2322.40
879.32	2318.30
879.48	2207.71
879.65	2160.61
879.81	2097.12
879.98	2125.79
880.15	2103.26
880.31	2269.15
880.48	2056.16
880.64	2179.04
880.81	2203.61
880.97	2351.07
881.14	2277.34
881.31	2023.39
881.47	2291.68
881.64	2133.98
881.80	2039.78
881.97	2215.90
882.13	2162.66
882.30	2101.22
882.47	2125.79
882.63	2058.21
882.80	2121.70
882.96	2131.94
883.13	2277.34
883.29	2140.13
883.46	2193.37
883.62	2338.78
883.79	2156.51
883.95	2289.63
884.12	2078.69
884.29	2351.07
884.45	2133.98
884.62	2199.52
884.78	2138.08
884.95	2279.39
885.11	2121.70
885.28	2189.28
885.44	2088.93
885.61	2283.49
885.77	2275.29
885.94	2217.95
886.10	2084.83
886.27	2244.57
886.43	2279.39
886.60	2252.77
886.76	2140.13
886.93	2148.32
887.09	2271.20
887.26	2041.82
887.42	2117.60
887.59	2306.01
887.75	2430.94
887.92	2295.77
888.08	2232.29
888.25	2299.87
888.41	2265.05
888.58	2168.80
888.74	2062.30
888.91	2113.50
>>>>>End Processed Spectral Data<<<<<
