SpectraSuite Data File
++++++++++++++++++++++++++++++++++++
Date: Thu May 05 12:35:18 CEST 2016
User: root
Dark Spectrum Present: No
Reference Spectrum Present: No
Number of Sampled Component Spectra: 1
Spectrometers: USB4C02835
Integration Time (usec): 100000 (USB4C02835)
Spectra Averaged: 1 (USB4C02835)
Boxcar Smoothing: 0 (USB4C02835)
Correct for Electrical Dark: No (USB4C02835)
Strobe/Lamp Enabled: No (USB4C02835)
Correct for Detector Non-linearity: No (USB4C02835)
Correct for Stray Light: No (USB4C02835)
Number of Pixels in Processed Spectrum: 3648
>>>>>Begin Processed Spectral Data<<<<<
177.47	1791.97
177.69	1791.97
177.91	1791.97
178.13	1744.87
178.36	1763.30
178.58	2113.50
178.80	2254.81
179.02	2080.74
179.24	2136.03
179.46	2138.08
179.68	2209.76
179.90	2220.00
180.13	2220.00
180.35	2060.26
180.57	2133.98
180.79	2211.81
181.01	2158.56
181.23	2197.47
181.45	2275.29
181.67	2269.15
181.90	2285.53
182.12	2086.88
182.34	2088.93
182.56	2185.18
182.78	2215.90
183.00	2195.42
183.22	2154.46
183.44	1980.39
183.66	2379.74
183.89	2244.57
184.11	2166.75
184.33	2244.57
184.55	2297.82
184.77	2152.42
184.99	2097.12
185.21	2127.84
185.43	2428.89
185.65	2170.85
185.87	2115.55
186.10	2422.75
186.32	2424.80
186.54	2152.42
186.76	2236.38
186.98	2301.92
187.20	2222.05
187.42	2101.22
187.64	2144.22
187.86	2195.42
188.08	2232.29
188.30	1992.67
188.52	2146.27
188.75	2334.68
188.97	2318.30
189.19	2113.50
189.41	2162.66
189.63	2203.61
189.85	2211.81
190.07	2062.30
190.29	1998.82
190.51	2234.33
190.73	2043.87
190.95	2228.19
191.17	2101.22
191.39	2031.58
191.61	2187.23
191.84	2068.45
192.06	2125.79
192.28	2045.92
192.50	2461.66
192.72	2217.95
192.94	2166.75
193.16	2318.30
193.38	2211.81
193.60	2125.79
193.82	2162.66
194.04	2334.68
194.26	2201.57
194.48	2117.60
194.70	2197.47
194.92	2150.37
195.14	2279.39
195.36	2160.61
195.58	2224.09
195.80	2179.04
196.02	2148.32
196.24	2107.36
196.46	2183.13
196.69	2222.05
196.91	2459.61
197.13	2074.59
197.35	2088.93
197.57	2316.25
197.79	2252.77
198.01	2146.27
198.23	2213.85
198.45	2283.49
198.67	2107.36
198.89	2056.16
199.11	2172.89
199.33	2047.97
199.55	1994.72
199.77	2088.93
199.99	2275.29
200.21	2133.98
200.43	2267.10
200.65	2002.91
200.87	2056.16
201.09	2154.46
201.31	2217.95
201.53	2248.67
201.75	2103.26
201.97	2199.52
202.19	2256.86
202.41	2152.42
202.63	2244.57
202.85	2252.77
203.07	2242.53
203.29	2101.22
203.51	2074.59
203.73	2133.98
203.95	2392.03
204.17	2131.94
204.39	2203.61
204.61	2138.08
204.83	2207.71
205.05	2158.56
205.27	2205.66
205.49	2398.17
205.71	2179.04
205.93	1974.24
206.15	2068.45
206.37	2181.09
206.59	2197.47
206.81	2002.91
207.03	2113.50
207.25	2076.64
207.47	2240.48
207.69	2095.07
207.91	2344.92
208.13	2316.25
208.34	2076.64
208.56	2103.26
208.78	2131.94
209.00	2086.88
209.22	2152.42
209.44	2195.42
209.66	2136.03
209.88	2144.22
210.10	2117.60
210.32	2136.03
210.54	2260.96
210.76	2080.74
210.98	2238.43
211.20	2047.97
211.42	2195.42
211.64	2353.12
211.86	2254.81
212.08	2191.33
212.30	2252.77
212.52	2170.85
212.74	2232.29
212.96	2119.65
213.17	2215.90
213.39	2193.37
213.61	2396.12
213.83	2127.84
214.05	2156.51
214.27	2322.40
214.49	2133.98
214.71	2095.07
214.93	2201.57
215.15	2129.89
215.37	2228.19
215.59	2080.74
215.81	2050.02
216.03	2328.54
216.24	2154.46
216.46	2103.26
216.68	2105.31
216.90	2230.24
217.12	2308.06
217.34	2136.03
217.56	2252.77
217.78	2355.16
218.00	2306.01
218.22	2146.27
218.44	2195.42
218.66	2277.34
218.87	2373.60
219.09	2099.17
219.31	2312.16
219.53	2281.44
219.75	2144.22
219.97	2228.19
220.19	2146.27
220.41	2146.27
220.63	2383.84
220.85	2238.43
221.06	2179.04
221.28	2271.20
221.50	2260.96
221.72	2045.92
221.94	2133.98
222.16	2213.85
222.38	2248.67
222.60	2131.94
222.82	2076.64
223.03	2349.02
223.25	2191.33
223.47	2103.26
223.69	2299.87
223.91	2287.58
224.13	2215.90
224.35	2113.50
224.57	2226.14
224.78	2176.99
225.00	2179.04
225.22	2172.89
225.44	2088.93
225.66	2224.09
225.88	2152.42
226.10	2185.18
226.32	2183.13
226.53	2310.11
226.75	2136.03
226.97	2187.23
227.19	2080.74
227.41	2170.85
227.63	2107.36
227.85	1951.71
228.06	2158.56
228.28	2113.50
228.50	2256.86
228.72	2045.92
228.94	2109.41
229.16	2011.11
229.37	2068.45
229.59	2015.20
229.81	2244.57
230.03	2152.42
230.25	2058.21
230.47	2056.16
230.69	2093.02
230.90	2267.10
231.12	2101.22
231.34	2187.23
231.56	2187.23
231.78	2144.22
232.00	2138.08
232.21	2129.89
232.43	2070.50
232.65	2017.25
232.87	2217.95
233.09	1998.82
233.30	2052.06
233.52	2265.05
233.74	2113.50
233.96	2045.92
234.18	2172.89
234.40	2154.46
234.61	2459.61
234.83	2015.20
235.05	2064.35
235.27	2473.95
235.49	2359.26
235.70	2047.97
235.92	2254.81
236.14	2281.44
236.36	2400.22
236.58	2037.73
236.79	2267.10
237.01	2205.66
237.23	2254.81
237.45	2324.44
237.67	2127.84
237.88	2168.80
238.10	2359.26
238.32	2060.26
238.54	2070.50
238.76	2240.48
238.97	2121.70
239.19	2060.26
239.41	2105.31
239.63	2303.96
239.85	2117.60
240.06	2166.75
240.28	2111.46
240.50	2353.12
240.72	2226.14
240.93	2068.45
241.15	2236.38
241.37	2240.48
241.59	2275.29
241.81	2107.36
242.02	2066.40
242.24	2226.14
242.46	2324.44
242.68	2031.58
242.89	2111.46
243.11	2277.34
243.33	2162.66
243.55	2168.80
243.76	2236.38
243.98	2150.37
244.20	2238.43
244.42	2113.50
244.64	2162.66
244.85	2072.54
245.07	2105.31
245.29	2113.50
245.51	2154.46
245.72	2232.29
245.94	2387.93
246.16	2160.61
246.38	2230.24
246.59	2129.89
246.81	2174.94
247.03	2144.22
247.24	2009.06
247.46	2088.93
247.68	2234.33
247.90	2088.93
248.11	2154.46
248.33	2324.44
248.55	2222.05
248.77	2187.23
248.98	2170.85
249.20	2377.69
249.42	2195.42
249.64	2179.04
249.85	2105.31
250.07	2062.30
250.29	2203.61
250.50	2236.38
250.72	2035.68
250.94	2203.61
251.16	2414.56
251.37	2097.12
251.59	2176.99
251.81	2349.02
252.02	2326.49
252.24	2133.98
252.46	2267.10
252.68	2050.02
252.89	2068.45
253.11	2041.82
253.33	2269.15
253.54	2361.31
253.76	2070.50
253.98	2103.26
254.20	2111.46
254.41	2099.17
254.63	2156.51
254.85	2115.55
255.06	2113.50
255.28	2250.72
255.50	2150.37
255.71	2080.74
255.93	1978.34
256.15	2207.71
256.36	2217.95
256.58	2086.88
256.80	2080.74
257.02	2084.83
257.23	2215.90
257.45	2224.09
257.67	2275.29
257.88	2088.93
258.10	2195.42
258.32	2136.03
258.53	2136.03
258.75	2353.12
258.97	2047.97
259.18	2103.26
259.40	2150.37
259.62	2363.36
259.83	2291.68
260.05	2119.65
260.27	2576.34
260.48	2283.49
260.70	2039.78
260.92	2074.59
261.13	2133.98
261.35	2193.37
261.57	2279.39
261.78	2095.07
262.00	2068.45
262.22	2236.38
262.43	2191.33
262.65	2187.23
262.86	2166.75
263.08	2414.56
263.30	2189.28
263.51	2011.11
263.73	2084.83
263.95	2379.74
264.16	2090.98
264.38	2090.98
264.60	2060.26
264.81	2199.52
265.03	2199.52
265.25	2220.00
265.46	2148.32
265.68	2285.53
265.89	2242.53
266.11	2013.15
266.33	2179.04
266.54	2342.88
266.76	2205.66
266.98	2205.66
267.19	2283.49
267.41	2291.68
267.62	2187.23
267.84	1982.43
268.06	2131.94
268.27	2125.79
268.49	2254.81
268.70	2103.26
268.92	2179.04
269.14	2093.02
269.35	2088.93
269.57	2138.08
269.79	2183.13
270.00	2174.94
270.22	2310.11
270.43	2113.50
270.65	1953.76
270.87	2258.91
271.08	2318.30
271.30	2232.29
271.51	2140.13
271.73	2258.91
271.95	2342.88
272.16	2172.89
272.38	2176.99
272.59	2152.42
272.81	2222.05
273.02	2154.46
273.24	2136.03
273.46	2260.96
273.67	2064.35
273.89	2101.22
274.10	2080.74
274.32	2289.63
274.54	2191.33
274.75	2191.33
274.97	2129.89
275.18	2197.47
275.40	2199.52
275.61	2119.65
275.83	2205.66
276.05	2101.22
276.26	2109.41
276.48	2220.00
276.69	2123.74
276.91	2103.26
277.12	2406.36
277.34	2228.19
277.55	2273.25
277.77	2195.42
277.99	2199.52
278.20	2080.74
278.42	2095.07
278.63	2125.79
278.85	2150.37
279.06	2084.83
279.28	2213.85
279.49	2308.06
279.71	2281.44
279.93	2252.77
280.14	2199.52
280.36	2150.37
280.57	2267.10
280.79	2248.67
281.00	2129.89
281.22	2129.89
281.43	2301.92
281.65	1970.15
281.86	2080.74
282.08	2252.77
282.29	2301.92
282.51	2058.21
282.73	2084.83
282.94	2072.54
283.16	2281.44
283.37	2322.40
283.59	2195.42
283.80	2242.53
284.02	2222.05
284.23	2193.37
284.45	2160.61
284.66	2084.83
284.88	2152.42
285.09	2174.94
285.31	2168.80
285.52	2220.00
285.74	2023.39
285.95	2310.11
286.17	2170.85
286.38	2301.92
286.60	2078.69
286.81	2086.88
287.03	2133.98
287.24	2117.60
287.46	2201.57
287.67	2213.85
287.89	2318.30
288.10	2168.80
288.32	2176.99
288.53	2281.44
288.75	2201.57
288.96	2283.49
289.18	2121.70
289.39	2228.19
289.61	2230.24
289.82	2367.45
290.04	2340.83
290.25	2072.54
290.47	2121.70
290.68	2156.51
290.90	2252.77
291.11	2121.70
291.33	2244.57
291.54	2160.61
291.76	2195.42
291.97	2238.43
292.18	2285.53
292.40	2103.26
292.61	2052.06
292.83	2375.64
293.04	2260.96
293.26	2220.00
293.47	2217.95
293.69	2142.18
293.90	2166.75
294.12	2336.73
294.33	2142.18
294.55	2133.98
294.76	2308.06
294.97	2316.25
295.19	2402.27
295.40	2119.65
295.62	2277.34
295.83	2353.12
296.05	2162.66
296.26	2289.63
296.48	2076.64
296.69	2164.70
296.90	2183.13
297.12	2275.29
297.33	2299.87
297.55	2201.57
297.76	2310.11
297.98	2209.76
298.19	2238.43
298.41	2146.27
298.62	2138.08
298.83	2312.16
299.05	2244.57
299.26	2195.42
299.48	2156.51
299.69	2207.71
299.90	2138.08
300.12	2162.66
300.33	2260.96
300.55	2217.95
300.76	2199.52
300.98	2068.45
301.19	2338.78
301.40	2119.65
301.62	2127.84
301.83	2271.20
302.05	2199.52
302.26	2152.42
302.47	2217.95
302.69	2119.65
302.90	2199.52
303.12	1949.67
303.33	2254.81
303.54	2285.53
303.76	2111.46
303.97	2242.53
304.19	2240.48
304.40	2072.54
304.61	2263.01
304.83	2299.87
305.04	2242.53
305.26	2291.68
305.47	2224.09
305.68	2150.37
305.90	2066.40
306.11	2310.11
306.33	2107.36
306.54	2133.98
306.75	2029.54
306.97	2041.82
307.18	2119.65
307.39	2142.18
307.61	2240.48
307.82	2166.75
308.04	2236.38
308.25	2111.46
308.46	2209.76
308.68	2303.96
308.89	2238.43
309.10	2291.68
309.32	2215.90
309.53	2156.51
309.74	2226.14
309.96	2236.38
310.17	2301.92
310.39	2197.47
310.60	2291.68
310.81	2197.47
311.03	1966.05
311.24	2260.96
311.45	2193.37
311.67	2336.73
311.88	2228.19
312.09	2146.27
312.31	2230.24
312.52	2152.42
312.73	2121.70
312.95	2105.31
313.16	2176.99
313.37	2322.40
313.59	2172.89
313.80	2285.53
314.01	2363.36
314.23	2170.85
314.44	2127.84
314.65	2056.16
314.87	2162.66
315.08	2160.61
315.29	2109.41
315.51	2060.26
315.72	2121.70
315.93	2365.40
316.15	2248.67
316.36	2166.75
316.57	2168.80
316.79	2289.63
317.00	2172.89
317.21	2250.72
317.43	2115.55
317.64	2197.47
317.85	2125.79
318.07	2103.26
318.28	2211.81
318.49	2424.80
318.70	2525.15
318.92	2359.26
319.13	2400.22
319.34	2383.84
319.56	2324.44
319.77	2310.11
319.98	2404.32
320.20	2293.72
320.41	2293.72
320.62	2269.15
320.83	2119.65
321.05	2398.17
321.26	2205.66
321.47	2211.81
321.69	2310.11
321.90	2027.49
322.11	2105.31
322.32	2166.75
322.54	2334.68
322.75	2113.50
322.96	2451.42
323.18	2107.36
323.39	2023.39
323.60	2078.69
323.81	2303.96
324.03	2207.71
324.24	2181.09
324.45	2242.53
324.66	2129.89
324.88	2306.01
325.09	2318.30
325.30	2213.85
325.52	2193.37
325.73	2250.72
325.94	2068.45
326.15	2140.13
326.37	2119.65
326.58	2263.01
326.79	2379.74
327.00	2129.89
327.22	2107.36
327.43	2117.60
327.64	2109.41
327.85	2176.99
328.07	2179.04
328.28	2392.03
328.49	2154.46
328.70	2220.00
328.92	2187.23
329.13	2238.43
329.34	2295.77
329.55	2314.20
329.76	2230.24
329.98	2172.89
330.19	2234.33
330.40	2142.18
330.61	2220.00
330.83	2246.62
331.04	2111.46
331.25	2248.67
331.46	2140.13
331.68	2093.02
331.89	2226.14
332.10	2222.05
332.31	2039.78
332.52	2215.90
332.74	2275.29
332.95	2064.35
333.16	2103.26
333.37	2244.57
333.58	2093.02
333.80	2148.32
334.01	2007.01
334.22	2195.42
334.43	2082.78
334.64	2150.37
334.86	2047.97
335.07	2103.26
335.28	2334.68
335.49	1996.77
335.70	2244.57
335.92	2312.16
336.13	2387.93
336.34	2252.77
336.55	2203.61
336.76	2312.16
336.98	2035.68
337.19	2146.27
337.40	2381.79
337.61	2346.97
337.82	2183.13
338.04	2275.29
338.25	1972.19
338.46	2142.18
338.67	2197.47
338.88	2105.31
339.09	2076.64
339.31	2181.09
339.52	2127.84
339.73	2117.60
339.94	2232.29
340.15	2260.96
340.36	2140.13
340.58	2193.37
340.79	2080.74
341.00	2256.86
341.21	2076.64
341.42	2281.44
341.63	2201.57
341.85	2236.38
342.06	2217.95
342.27	2125.79
342.48	2222.05
342.69	2023.39
342.90	2170.85
343.12	2308.06
343.33	2088.93
343.54	2238.43
343.75	2357.21
343.96	2097.12
344.17	2125.79
344.38	2154.46
344.60	2076.64
344.81	2043.87
345.02	2174.94
345.23	2301.92
345.44	2519.00
345.65	2258.91
345.86	2172.89
346.07	2183.13
346.29	2080.74
346.50	2273.25
346.71	2273.25
346.92	2387.93
347.13	2392.03
347.34	2193.37
347.55	2146.27
347.76	2211.81
347.98	2060.26
348.19	2121.70
348.40	2324.44
348.61	2164.70
348.82	2287.58
349.03	2332.64
349.24	2158.56
349.45	2336.73
349.66	2050.02
349.88	2158.56
350.09	2088.93
350.30	2326.49
350.51	2269.15
350.72	2168.80
350.93	2260.96
351.14	2176.99
351.35	2301.92
351.56	2093.02
351.77	2113.50
351.99	2228.19
352.20	2326.49
352.41	2283.49
352.62	2045.92
352.83	2220.00
353.04	2174.94
353.25	2115.55
353.46	2250.72
353.67	2285.53
353.88	2084.83
354.09	2176.99
354.30	2230.24
354.52	2281.44
354.73	2228.19
354.94	2199.52
355.15	2160.61
355.36	2408.41
355.57	2138.08
355.78	2187.23
355.99	2181.09
356.20	2146.27
356.41	2285.53
356.62	2248.67
356.83	2170.85
357.04	2373.60
357.25	2011.11
357.46	2146.27
357.68	2136.03
357.89	2080.74
358.10	2205.66
358.31	2244.57
358.52	2183.13
358.73	2152.42
358.94	2115.55
359.15	2058.21
359.36	2301.92
359.57	2183.13
359.78	2254.81
359.99	2244.57
360.20	2052.06
360.41	2207.71
360.62	2236.38
360.83	2236.38
361.04	2263.01
361.25	2228.19
361.46	2328.54
361.67	2209.76
361.88	2222.05
362.09	2287.58
362.30	2207.71
362.51	2072.54
362.72	2236.38
362.93	2289.63
363.14	2283.49
363.35	2127.84
363.56	2113.50
363.78	2322.40
363.99	2263.01
364.20	2162.66
364.41	2191.33
364.62	2308.06
364.83	2211.81
365.04	2129.89
365.25	2172.89
365.46	2404.32
365.67	2080.74
365.88	2181.09
366.09	2193.37
366.30	2222.05
366.51	2150.37
366.72	2117.60
366.93	2191.33
367.14	2269.15
367.35	2299.87
367.56	2160.61
367.77	2357.21
367.98	2166.75
368.18	2301.92
368.39	2236.38
368.60	2088.93
368.81	2267.10
369.02	2269.15
369.23	2226.14
369.44	2045.92
369.65	2170.85
369.86	2232.29
370.07	2242.53
370.28	2068.45
370.49	2277.34
370.70	2318.30
370.91	2197.47
371.12	2093.02
371.33	2256.86
371.54	2267.10
371.75	2265.05
371.96	1978.34
372.17	2170.85
372.38	2172.89
372.59	2193.37
372.80	2148.32
373.01	2164.70
373.22	2242.53
373.43	2211.81
373.64	2056.16
373.85	2297.82
374.06	2346.97
374.26	2277.34
374.47	2197.47
374.68	2369.50
374.89	2174.94
375.10	2138.08
375.31	2295.77
375.52	2254.81
375.73	2160.61
375.94	2140.13
376.15	2314.20
376.36	2154.46
376.57	2125.79
376.78	2142.18
376.99	2269.15
377.20	2385.88
377.40	2166.75
377.61	2326.49
377.82	2111.46
378.03	2312.16
378.24	2258.91
378.45	2183.13
378.66	2195.42
378.87	2066.40
379.08	2027.49
379.29	2125.79
379.50	2330.59
379.71	2115.55
379.91	2301.92
380.12	2045.92
380.33	2183.13
380.54	2234.33
380.75	2193.37
380.96	2207.71
381.17	2240.48
381.38	2250.72
381.59	2236.38
381.80	2121.70
382.00	2398.17
382.21	2250.72
382.42	2338.78
382.63	2424.80
382.84	2303.96
383.05	2287.58
383.26	2320.35
383.47	2236.38
383.68	2258.91
383.88	2342.88
384.09	2226.14
384.30	2445.27
384.51	2207.71
384.72	2170.85
384.93	2060.26
385.14	2220.00
385.35	2371.55
385.55	2113.50
385.76	2291.68
385.97	2154.46
386.18	2125.79
386.39	2129.89
386.60	2136.03
386.81	2183.13
387.02	2193.37
387.22	2131.94
387.43	2297.82
387.64	2230.24
387.85	2338.78
388.06	2521.05
388.27	4071.36
388.48	8869.75
388.68	12310.34
388.89	14786.33
389.10	15798.03
389.31	14636.83
389.52	11261.78
389.73	9852.78
389.93	9095.03
390.14	8132.48
390.35	7319.44
390.56	6444.96
390.77	5406.64
390.98	4198.34
391.18	3330.00
391.39	2660.31
391.60	2355.16
391.81	2324.44
392.02	2152.42
392.23	2432.99
392.43	2230.24
392.64	2318.30
392.85	2185.18
393.06	2330.59
393.27	2170.85
393.47	2154.46
393.68	2220.00
393.89	2133.98
394.10	2326.49
394.31	2133.98
394.52	2058.21
394.72	2133.98
394.93	2387.93
395.14	2127.84
395.35	2189.28
395.56	2148.32
395.76	2260.96
395.97	2187.23
396.18	2275.29
396.39	2416.60
396.60	2602.97
396.80	2484.19
397.01	2369.50
397.22	2316.25
397.43	2398.17
397.64	2217.95
397.84	2424.80
398.05	2410.46
398.26	2256.86
398.47	2301.92
398.67	2340.83
398.88	2234.33
399.09	2277.34
399.30	2115.55
399.51	2254.81
399.71	2133.98
399.92	2187.23
400.13	2314.20
400.34	2125.79
400.54	2201.57
400.75	2330.59
400.96	2195.42
401.17	2439.13
401.37	2258.91
401.58	2217.95
401.79	2236.38
402.00	2314.20
402.21	2512.86
402.41	2568.15
402.62	2613.21
402.83	2584.54
403.04	2635.74
403.24	2797.53
403.45	2342.88
403.66	2406.36
403.87	2498.52
404.07	2357.21
404.28	2443.23
404.49	2344.92
404.70	2373.60
404.90	2344.92
405.11	2271.20
405.32	2254.81
405.52	2170.85
405.73	2174.94
405.94	2146.27
406.15	2142.18
406.35	2240.48
406.56	2334.68
406.77	2213.85
406.98	2224.09
407.18	2074.59
407.39	2375.64
407.60	2131.94
407.80	2234.33
408.01	2185.18
408.22	2193.37
408.43	2109.41
408.63	2322.40
408.84	2211.81
409.05	2281.44
409.25	2129.89
409.46	2195.42
409.67	2185.18
409.88	2154.46
410.08	2222.05
410.29	2125.79
410.50	2240.48
410.70	2258.91
410.91	2138.08
411.12	2244.57
411.32	2250.72
411.53	2236.38
411.74	2371.55
411.95	2263.01
412.15	2332.64
412.36	2316.25
412.57	2281.44
412.77	2322.40
412.98	2217.95
413.19	2133.98
413.39	2179.04
413.60	2289.63
413.81	2301.92
414.01	2109.41
414.22	2260.96
414.43	2326.49
414.63	2170.85
414.84	2373.60
415.05	2240.48
415.25	2115.55
415.46	2308.06
415.67	2222.05
415.87	2172.89
416.08	2086.88
416.29	2148.32
416.49	2297.82
416.70	2146.27
416.91	2220.00
417.11	2174.94
417.32	2289.63
417.53	2322.40
417.73	2226.14
417.94	2162.66
418.15	2244.57
418.35	2187.23
418.56	2224.09
418.77	2406.36
418.97	2158.56
419.18	2187.23
419.38	2072.54
419.59	2232.29
419.80	2285.53
420.00	2224.09
420.21	2260.96
420.42	2269.15
420.62	2283.49
420.83	2090.98
421.04	2183.13
421.24	2176.99
421.45	2289.63
421.65	2203.61
421.86	2172.89
422.07	2220.00
422.27	2228.19
422.48	2103.26
422.69	2064.35
422.89	2277.34
423.10	2185.18
423.30	2113.50
423.51	2187.23
423.72	2316.25
423.92	2263.01
424.13	2144.22
424.33	2246.62
424.54	2326.49
424.75	2236.38
424.95	2381.79
425.16	2207.71
425.36	2158.56
425.57	2291.68
425.78	2222.05
425.98	2263.01
426.19	2228.19
426.39	2156.51
426.60	2111.46
426.81	2355.16
427.01	2320.35
427.22	2080.74
427.42	1990.63
427.63	2109.41
427.83	2285.53
428.04	2361.31
428.25	2342.88
428.45	2222.05
428.66	2326.49
428.86	2232.29
429.07	2170.85
429.28	2240.48
429.48	2263.01
429.69	2101.22
429.89	2148.32
430.10	2088.93
430.30	2344.92
430.51	2338.78
430.71	2099.17
430.92	2162.66
431.13	2185.18
431.33	2293.72
431.54	2263.01
431.74	2344.92
431.95	2426.84
432.15	2097.12
432.36	2215.90
432.56	2244.57
432.77	2398.17
432.98	2330.59
433.18	2269.15
433.39	2174.94
433.59	2158.56
433.80	2408.41
434.00	2342.88
434.21	2158.56
434.41	2133.98
434.62	2334.68
434.82	2136.03
435.03	2105.31
435.23	2215.90
435.44	2047.97
435.64	2160.61
435.85	2248.67
436.06	2234.33
436.26	2283.49
436.47	2138.08
436.67	2154.46
436.88	2203.61
437.08	2283.49
437.29	2349.02
437.49	2183.13
437.70	2301.92
437.90	2193.37
438.11	2369.50
438.31	2260.96
438.52	2379.74
438.72	2396.12
438.93	2537.43
439.13	2322.40
439.34	2371.55
439.54	2209.76
439.75	2201.57
439.95	2301.92
440.16	2185.18
440.36	2271.20
440.57	2246.62
440.77	2224.09
440.98	2252.77
441.18	2258.91
441.39	2064.35
441.59	2105.31
441.80	2445.27
442.00	2283.49
442.21	2275.29
442.41	2062.30
442.62	2316.25
442.82	2160.61
443.02	2238.43
443.23	2154.46
443.43	2250.72
443.64	2441.18
443.84	2160.61
444.05	2330.59
444.25	2275.29
444.46	2170.85
444.66	2250.72
444.87	2371.55
445.07	2117.60
445.28	2244.57
445.48	2318.30
445.69	2269.15
445.89	2432.99
446.09	2191.33
446.30	2475.99
446.50	2801.62
446.71	4353.98
446.91	5554.09
447.12	6360.99
447.32	6762.39
447.53	6317.98
447.73	5234.61
447.93	4550.59
448.14	4220.86
448.34	4075.46
448.55	3594.19
448.75	3542.99
448.96	3301.33
449.16	2998.23
449.36	2908.12
449.57	2467.80
449.77	2310.11
449.98	2170.85
450.18	2281.44
450.39	2285.53
450.59	2275.29
450.79	2199.52
451.00	2144.22
451.20	2310.11
451.41	2230.24
451.61	2318.30
451.81	2195.42
452.02	2179.04
452.22	2203.61
452.43	2215.90
452.63	2205.66
452.84	2144.22
453.04	2197.47
453.24	2199.52
453.45	2203.61
453.65	2185.18
453.86	2252.77
454.06	2220.00
454.26	2168.80
454.47	2045.92
454.67	2336.73
454.87	2181.09
455.08	2224.09
455.28	2392.03
455.49	2207.71
455.69	2093.02
455.89	2422.75
456.10	2293.72
456.30	2209.76
456.51	2211.81
456.71	2166.75
456.91	2209.76
457.12	2136.03
457.32	2318.30
457.52	2119.65
457.73	2299.87
457.93	2240.48
458.14	2181.09
458.34	2121.70
458.54	2193.37
458.75	2093.02
458.95	2332.64
459.15	2267.10
459.36	2170.85
459.56	2258.91
459.76	2355.16
459.97	2230.24
460.17	2174.94
460.37	2293.72
460.58	2220.00
460.78	2308.06
460.99	2129.89
461.19	2252.77
461.39	2113.50
461.60	2252.77
461.80	2260.96
462.00	2037.73
462.21	2234.33
462.41	2158.56
462.61	2101.22
462.82	2072.54
463.02	2207.71
463.22	2220.00
463.43	2322.40
463.63	2170.85
463.83	2320.35
464.04	2248.67
464.24	2205.66
464.44	2097.12
464.64	2191.33
464.85	2289.63
465.05	2281.44
465.25	2205.66
465.46	2150.37
465.66	2209.76
465.86	2242.53
466.07	2275.29
466.27	2234.33
466.47	2093.02
466.68	2025.44
466.88	2353.12
467.08	2295.77
467.29	2326.49
467.49	2260.96
467.69	2232.29
467.89	2269.15
468.10	2142.18
468.30	2230.24
468.50	2340.83
468.71	2217.95
468.91	2105.31
469.11	2400.22
469.31	2203.61
469.52	2037.73
469.72	2295.77
469.92	2373.60
470.13	2187.23
470.33	2152.42
470.53	2295.77
470.73	2643.93
470.94	3141.58
471.14	3297.23
471.34	3659.72
471.54	3540.94
471.75	3194.83
471.95	2809.81
472.15	2713.56
472.36	2770.90
472.56	2660.31
472.76	2619.35
472.96	2742.23
473.17	2447.32
473.37	2463.71
473.57	2342.88
473.77	2340.83
473.98	2287.58
474.18	2148.32
474.38	2508.76
474.58	2123.74
474.79	2136.03
474.99	2258.91
475.19	2346.97
475.39	2125.79
475.60	2273.25
475.80	2271.20
476.00	2260.96
476.20	2133.98
476.41	2246.62
476.61	2293.72
476.81	2240.48
477.01	2088.93
477.21	2408.41
477.42	2301.92
477.62	2060.26
477.82	2220.00
478.02	2150.37
478.23	2238.43
478.43	2076.64
478.63	2172.89
478.83	2213.85
479.03	2174.94
479.24	2291.68
479.44	2385.88
479.64	2127.84
479.84	2045.92
480.04	2131.94
480.25	2291.68
480.45	2150.37
480.65	2154.46
480.85	2355.16
481.06	2215.90
481.26	2263.01
481.46	2240.48
481.66	2285.53
481.86	2095.07
482.06	2340.83
482.27	2133.98
482.47	2168.80
482.67	2267.10
482.87	2176.99
483.07	2244.57
483.28	2158.56
483.48	2166.75
483.68	2201.57
483.88	2097.12
484.08	2074.59
484.29	2138.08
484.49	2121.70
484.69	2041.82
484.89	2312.16
485.09	2273.25
485.29	2312.16
485.50	2176.99
485.70	2179.04
485.90	2367.45
486.10	2242.53
486.30	2254.81
486.50	2265.05
486.71	2236.38
486.91	2224.09
487.11	2293.72
487.31	2078.69
487.51	2285.53
487.71	2105.31
487.91	2197.47
488.12	2140.13
488.32	2062.30
488.52	2148.32
488.72	2080.74
488.92	2226.14
489.12	2369.50
489.32	2293.72
489.53	2193.37
489.73	2101.22
489.93	2351.07
490.13	2193.37
490.33	2088.93
490.53	2207.71
490.73	2342.88
490.94	2027.49
491.14	2263.01
491.34	2293.72
491.54	2537.43
491.74	3082.19
491.94	3755.97
492.14	4124.61
492.34	4095.94
492.54	3850.18
492.75	3215.31
492.95	3139.54
493.15	2938.84
493.35	2936.79
493.55	2772.95
493.75	2662.36
493.95	2744.28
494.15	2514.91
494.35	2252.77
494.56	2281.44
494.76	2168.80
494.96	2260.96
495.16	2234.33
495.36	2260.96
495.56	2265.05
495.76	2201.57
495.96	2217.95
496.16	2193.37
496.36	2346.97
496.56	2203.61
496.77	2269.15
496.97	2193.37
497.17	2342.88
497.37	2109.41
497.57	2269.15
497.77	2103.26
497.97	2052.06
498.17	2224.09
498.37	2158.56
498.57	2277.34
498.77	2129.89
498.97	2299.87
499.17	2387.93
499.38	2148.32
499.58	2297.82
499.78	2308.06
499.98	2318.30
500.18	2142.18
500.38	2084.83
500.58	2392.03
500.78	2873.30
500.98	5255.09
501.18	7251.86
501.38	8961.91
501.58	9979.75
501.78	9703.28
501.98	7866.25
502.18	6279.07
502.38	5660.59
502.58	5197.74
502.78	4650.94
502.98	4485.05
503.18	4331.45
503.38	3962.82
503.59	3528.65
503.79	3198.93
503.99	3018.71
504.19	2846.68
504.39	2791.38
504.59	2871.25
504.79	2963.41
504.99	2820.05
505.19	2633.69
505.39	2465.75
505.59	2572.25
505.79	2478.04
505.99	2408.41
506.19	2314.20
506.39	2412.51
506.59	2166.75
506.79	2260.96
506.99	2361.31
507.19	2232.29
507.39	2222.05
507.59	2119.65
507.79	2207.71
507.99	2185.18
508.19	2220.00
508.39	2170.85
508.59	2215.90
508.79	2324.44
508.99	2416.60
509.19	2168.80
509.39	2289.63
509.59	2154.46
509.79	2140.13
509.99	2215.90
510.19	2308.06
510.39	2285.53
510.59	2252.77
510.79	2043.87
510.99	2047.97
511.19	2275.29
511.39	2340.83
511.59	2310.11
511.79	2340.83
511.99	2220.00
512.19	2367.45
512.38	2199.52
512.58	2154.46
512.78	2215.90
512.98	2308.06
513.18	2416.60
513.38	2146.27
513.58	2279.39
513.78	2183.13
513.98	2209.76
514.18	2197.47
514.38	2232.29
514.58	2220.00
514.78	2176.99
514.98	2170.85
515.18	2199.52
515.38	2078.69
515.58	2363.36
515.78	2152.42
515.98	2260.96
516.18	2250.72
516.38	2213.85
516.57	2138.08
516.77	2150.37
516.97	2332.64
517.17	2201.57
517.37	2105.31
517.57	2312.16
517.77	2187.23
517.97	2113.50
518.17	2310.11
518.37	2099.17
518.57	2201.57
518.77	2211.81
518.97	2244.57
519.16	2174.94
519.36	2310.11
519.56	2144.22
519.76	2191.33
519.96	2226.14
520.16	2340.83
520.36	2119.65
520.56	2334.68
520.76	2152.42
520.96	2099.17
521.16	2287.58
521.35	2340.83
521.55	2297.82
521.75	2240.48
521.95	2156.51
522.15	2185.18
522.35	2129.89
522.55	2142.18
522.75	2224.09
522.95	2172.89
523.14	2127.84
523.34	2154.46
523.54	2207.71
523.74	2326.49
523.94	2346.97
524.14	2052.06
524.34	2199.52
524.54	2295.77
524.73	2232.29
524.93	2277.34
525.13	2179.04
525.33	2146.27
525.53	2449.37
525.73	2365.40
525.93	2203.61
526.13	2129.89
526.32	2170.85
526.52	2265.05
526.72	2281.44
526.92	2160.61
527.12	2154.46
527.32	2047.97
527.52	2289.63
527.71	2203.61
527.91	2207.71
528.11	2123.74
528.31	2256.86
528.51	2101.22
528.71	2314.20
528.90	2277.34
529.10	2277.34
529.30	2254.81
529.50	1996.77
529.70	2275.29
529.90	2158.56
530.09	2191.33
530.29	2037.73
530.49	2146.27
530.69	2539.48
530.89	2197.47
531.09	2346.97
531.28	2269.15
531.48	2242.53
531.68	2299.87
531.88	2215.90
532.08	2244.57
532.28	2207.71
532.47	2361.31
532.67	2340.83
532.87	2240.48
533.07	2138.08
533.27	2260.96
533.46	2291.68
533.66	2318.30
533.86	2207.71
534.06	2250.72
534.26	2269.15
534.45	2258.91
534.65	2441.18
534.85	2287.58
535.05	2152.42
535.25	2283.49
535.44	1974.24
535.64	2285.53
535.84	2258.91
536.04	2187.23
536.24	2152.42
536.43	2207.71
536.63	2232.29
536.83	2220.00
537.03	2129.89
537.22	2072.54
537.42	1990.63
537.62	2193.37
537.82	2117.60
538.02	2351.07
538.21	2297.82
538.41	2592.73
538.61	2338.78
538.81	2170.85
539.00	2283.49
539.20	2152.42
539.40	2183.13
539.60	2240.48
539.79	2244.57
539.99	2240.48
540.19	2017.25
540.39	2142.18
540.58	2211.81
540.78	2314.20
540.98	2248.67
541.18	2355.16
541.37	2263.01
541.57	2197.47
541.77	2217.95
541.97	2172.89
542.16	2160.61
542.36	2131.94
542.56	2086.88
542.76	2375.64
542.95	2230.24
543.15	2349.02
543.35	2224.09
543.54	2187.23
543.74	2142.18
543.94	2310.11
544.14	2209.76
544.33	2281.44
544.53	2193.37
544.73	2181.09
544.93	2211.81
545.12	2195.42
545.32	2279.39
545.52	2195.42
545.71	2172.89
545.91	2113.50
546.11	2217.95
546.30	2090.98
546.50	2230.24
546.70	2260.96
546.90	2260.96
547.09	2019.30
547.29	2244.57
547.49	2263.01
547.68	2154.46
547.88	2152.42
548.08	2363.36
548.27	2729.94
548.47	2154.46
548.67	2201.57
548.87	2265.05
549.06	2127.84
549.26	2142.18
549.46	2142.18
549.65	2201.57
549.85	2238.43
550.05	2220.00
550.24	2103.26
550.44	2240.48
550.64	2195.42
550.83	2207.71
551.03	2340.83
551.23	2342.88
551.42	2283.49
551.62	2195.42
551.82	2115.55
552.01	2220.00
552.21	2320.35
552.41	2222.05
552.60	2260.96
552.80	2176.99
553.00	2174.94
553.19	2236.38
553.39	2357.21
553.59	2015.20
553.78	2197.47
553.98	2248.67
554.17	2062.30
554.37	2240.48
554.57	2252.77
554.76	2117.60
554.96	2113.50
555.16	2238.43
555.35	2170.85
555.55	2193.37
555.75	2211.81
555.94	2256.86
556.14	2060.26
556.33	2275.29
556.53	2144.22
556.73	2150.37
556.92	2215.90
557.12	2222.05
557.32	2430.94
557.51	2379.74
557.71	2269.15
557.90	2342.88
558.10	2342.88
558.30	2222.05
558.49	2162.66
558.69	2146.27
558.88	2193.37
559.08	2226.14
559.28	2220.00
559.47	2187.23
559.67	2267.10
559.86	2457.56
560.06	2242.53
560.26	2121.70
560.45	2230.24
560.65	2232.29
560.84	2355.16
561.04	2170.85
561.24	2228.19
561.43	2037.73
561.63	2349.02
561.82	2162.66
562.02	2312.16
562.22	2211.81
562.41	2193.37
562.61	2138.08
562.80	2164.70
563.00	2469.85
563.19	2168.80
563.39	2189.28
563.59	2207.71
563.78	2113.50
563.98	2070.50
564.17	2105.31
564.37	2119.65
564.56	2117.60
564.76	2123.74
564.96	2260.96
565.15	2258.91
565.35	2449.37
565.54	2152.42
565.74	2334.68
565.93	2226.14
566.13	2248.67
566.32	2275.29
566.52	2301.92
566.71	2168.80
566.91	2269.15
567.11	2269.15
567.30	2136.03
567.50	2201.57
567.69	2260.96
567.89	2170.85
568.08	2133.98
568.28	2203.61
568.47	2125.79
568.67	2265.05
568.86	2101.22
569.06	2326.49
569.25	2138.08
569.45	2140.13
569.64	2142.18
569.84	2187.23
570.04	2185.18
570.23	2160.61
570.43	2250.72
570.62	2220.00
570.82	2310.11
571.01	2131.94
571.21	2115.55
571.40	2166.75
571.60	2349.02
571.79	2252.77
571.99	2158.56
572.18	2127.84
572.38	2248.67
572.57	2166.75
572.77	2240.48
572.96	2521.05
573.16	2226.14
573.35	2273.25
573.55	2342.88
573.74	2269.15
573.94	2244.57
574.13	2240.48
574.33	2269.15
574.52	2285.53
574.71	2228.19
574.91	2285.53
575.10	2093.02
575.30	2238.43
575.49	2133.98
575.69	2197.47
575.88	2285.53
576.08	2187.23
576.27	2392.03
576.47	2361.31
576.66	2383.84
576.86	2402.27
577.05	2295.77
577.25	2318.30
577.44	2441.18
577.64	2179.04
577.83	2334.68
578.02	2183.13
578.22	2308.06
578.41	2363.36
578.61	2201.57
578.80	2007.01
579.00	2162.66
579.19	2244.57
579.39	2299.87
579.58	2285.53
579.77	2176.99
579.97	2392.03
580.16	2381.79
580.36	2355.16
580.55	2318.30
580.75	2289.63
580.94	2226.14
581.13	2375.64
581.33	2400.22
581.52	2197.47
581.72	2346.97
581.91	2449.37
582.11	2236.38
582.30	2365.40
582.49	2265.05
582.69	2420.70
582.88	2260.96
583.08	2250.72
583.27	2357.21
583.47	2291.68
583.66	2213.85
583.85	2234.33
584.05	2215.90
584.24	2291.68
584.44	2342.88
584.63	2416.60
584.82	2375.64
585.02	2463.71
585.21	2400.22
585.41	2402.27
585.60	2293.72
585.79	2480.09
585.99	2516.95
586.18	2359.26
586.37	2893.78
586.57	4499.39
586.76	13453.11
586.96	32476.69
587.15	46306.62
587.34	55250.10
587.54	60415.08
587.73	55833.77
587.93	39624.10
588.12	29939.26
588.31	23660.18
588.51	20793.03
588.70	19164.89
588.89	17272.57
589.09	15062.81
589.28	13170.49
589.47	10610.53
589.67	8300.42
589.86	6502.30
590.06	4734.90
590.25	3751.88
590.44	3147.73
590.64	2746.33
590.83	2600.92
591.02	2498.52
591.22	2326.49
591.41	2351.07
591.60	2340.83
591.80	2521.05
591.99	2222.05
592.18	2146.27
592.38	2404.32
592.57	2215.90
592.76	2230.24
592.96	2285.53
593.15	2260.96
593.34	2256.86
593.54	2154.46
593.73	2244.57
593.92	2303.96
594.12	2349.02
594.31	2287.58
594.50	2402.27
594.70	2299.87
594.89	2504.67
595.08	2185.18
595.28	2314.20
595.47	2506.71
595.66	2283.49
595.86	2187.23
596.05	2217.95
596.24	2187.23
596.43	2392.03
596.63	2359.26
596.82	2324.44
597.01	2318.30
597.21	2420.70
597.40	2308.06
597.59	2260.96
597.79	2238.43
597.98	2371.55
598.17	2330.59
598.36	2258.91
598.56	2279.39
598.75	2160.61
598.94	2332.64
599.14	2269.15
599.33	2113.50
599.52	2320.35
599.71	2303.96
599.91	2318.30
600.10	2273.25
600.29	2258.91
600.48	2316.25
600.68	2295.77
600.87	2310.11
601.06	2138.08
601.26	2293.72
601.45	2209.76
601.64	2260.96
601.83	2379.74
602.03	2127.84
602.22	2125.79
602.41	2400.22
602.60	2414.56
602.80	2346.97
602.99	2273.25
603.18	2189.28
603.37	2301.92
603.57	2232.29
603.76	2271.20
603.95	2377.69
604.14	2156.51
604.34	2170.85
604.53	2224.09
604.72	2277.34
604.91	2267.10
605.10	2236.38
605.30	2062.30
605.49	2387.93
605.68	2279.39
605.87	2336.73
606.07	2154.46
606.26	2203.61
606.45	2318.30
606.64	2152.42
606.84	2232.29
607.03	2267.10
607.22	2402.27
607.41	2244.57
607.60	2258.91
607.80	2301.92
607.99	2226.14
608.18	2220.00
608.37	2191.33
608.56	2189.28
608.76	2285.53
608.95	2457.56
609.14	2338.78
609.33	2490.33
609.52	2420.70
609.72	2385.88
609.91	2346.97
610.10	2316.25
610.29	2334.68
610.48	2289.63
610.68	2344.92
610.87	2303.96
611.06	2283.49
611.25	2285.53
611.44	2306.01
611.63	2220.00
611.83	2346.97
612.02	2029.54
612.21	2207.71
612.40	2029.54
612.59	2107.36
612.79	2078.69
612.98	2252.77
613.17	2299.87
613.36	2207.71
613.55	2408.41
613.74	2303.96
613.93	2353.12
614.13	2523.10
614.32	2496.47
614.51	2441.18
614.70	2299.87
614.89	2318.30
615.08	2361.31
615.28	2738.13
615.47	2162.66
615.66	2338.78
615.85	2254.81
616.04	2394.08
616.23	2310.11
616.42	2355.16
616.62	2326.49
616.81	2228.19
617.00	2269.15
617.19	2312.16
617.38	2154.46
617.57	2246.62
617.76	2318.30
617.95	2367.45
618.15	2244.57
618.34	2408.41
618.53	2129.89
618.72	2291.68
618.91	2252.77
619.10	2381.79
619.29	2170.85
619.48	2205.66
619.68	2086.88
619.87	2084.83
620.06	2099.17
620.25	2230.24
620.44	2207.71
620.63	2107.36
620.82	2273.25
621.01	2228.19
621.20	2250.72
621.39	2254.81
621.59	2252.77
621.78	2252.77
621.97	2230.24
622.16	2322.40
622.35	2293.72
622.54	2295.77
622.73	2326.49
622.92	2105.31
623.11	2353.12
623.30	2242.53
623.49	2332.64
623.68	2080.74
623.88	2326.49
624.07	2252.77
624.26	2146.27
624.45	2281.44
624.64	2127.84
624.83	2242.53
625.02	2160.61
625.21	2162.66
625.40	2293.72
625.59	2269.15
625.78	2240.48
625.97	2293.72
626.16	2355.16
626.35	2355.16
626.54	2293.72
626.74	2455.51
626.93	2238.43
627.12	2306.01
627.31	2351.07
627.50	2285.53
627.69	2387.93
627.88	2176.99
628.07	2209.76
628.26	2133.98
628.45	2109.41
628.64	2095.07
628.83	2193.37
629.02	2097.12
629.21	2299.87
629.40	2310.11
629.59	2211.81
629.78	2176.99
629.97	2236.38
630.16	2230.24
630.35	2236.38
630.54	2256.86
630.73	2179.04
630.92	2220.00
631.11	2129.89
631.30	2195.42
631.49	2291.68
631.68	2246.62
631.87	2291.68
632.06	2070.50
632.25	2381.79
632.44	2303.96
632.63	2283.49
632.82	2328.54
633.01	2299.87
633.20	2336.73
633.39	2230.24
633.58	2136.03
633.77	2291.68
633.96	2312.16
634.15	2301.92
634.34	2269.15
634.53	2275.29
634.72	2256.86
634.91	2054.11
635.10	2179.04
635.29	2250.72
635.48	2228.19
635.67	2113.50
635.86	2060.26
636.05	2336.73
636.24	2209.76
636.43	2236.38
636.62	2260.96
636.81	2035.68
637.00	2222.05
637.19	2215.90
637.38	2207.71
637.57	2224.09
637.76	2238.43
637.95	2310.11
638.14	2293.72
638.33	2342.88
638.52	2281.44
638.71	2187.23
638.89	2211.81
639.08	2498.52
639.27	2355.16
639.46	2547.67
639.65	2867.16
639.84	2965.46
640.03	3178.45
640.22	2904.02
640.41	2942.93
640.60	2605.02
640.79	2588.63
640.98	2418.65
641.17	2502.62
641.36	2502.62
641.55	2394.08
641.74	2193.37
641.92	2289.63
642.11	2166.75
642.30	2275.29
642.49	2154.46
642.68	2181.09
642.87	2220.00
643.06	2217.95
643.25	2117.60
643.44	2080.74
643.63	2228.19
643.82	2168.80
644.00	2045.92
644.19	2123.74
644.38	2095.07
644.57	2306.01
644.76	2189.28
644.95	2088.93
645.14	2291.68
645.33	2166.75
645.52	2162.66
645.71	2084.83
645.89	2072.54
646.08	2220.00
646.27	2150.37
646.46	2322.40
646.65	2117.60
646.84	2191.33
647.03	2152.42
647.22	2279.39
647.40	2172.89
647.59	2148.32
647.78	2072.54
647.97	2097.12
648.16	2086.88
648.35	2340.83
648.54	2308.06
648.73	2142.18
648.91	2279.39
649.10	2267.10
649.29	2191.33
649.48	2150.37
649.67	2242.53
649.86	2291.68
650.05	2269.15
650.23	2357.21
650.42	2283.49
650.61	2586.58
650.80	2428.89
650.99	2465.75
651.18	2381.79
651.36	2359.26
651.55	2273.25
651.74	2461.66
651.93	2250.72
652.12	2193.37
652.31	2287.58
652.49	2197.47
652.68	2203.61
652.87	2424.80
653.06	2193.37
653.25	2408.41
653.44	2224.09
653.62	2332.64
653.81	2211.81
654.00	2242.53
654.19	2240.48
654.38	2385.88
654.56	2199.52
654.75	2154.46
654.94	2203.61
655.13	2215.90
655.32	2119.65
655.51	2269.15
655.69	2172.89
655.88	2248.67
656.07	2056.16
656.26	2197.47
656.45	2047.97
656.63	2193.37
656.82	2250.72
657.01	2279.39
657.20	2207.71
657.38	2346.97
657.57	2117.60
657.76	2127.84
657.95	2291.68
658.14	2103.26
658.32	2211.81
658.51	2070.50
658.70	2242.53
658.89	2234.33
659.08	2267.10
659.26	2437.08
659.45	2152.42
659.64	2363.36
659.83	2217.95
660.01	2553.82
660.20	2258.91
660.39	2398.17
660.58	2109.41
660.76	2242.53
660.95	2066.40
661.14	2166.75
661.33	2054.11
661.51	2258.91
661.70	2140.13
661.89	2273.25
662.08	2191.33
662.26	2037.73
662.45	2033.63
662.64	2383.84
662.83	2240.48
663.01	2047.97
663.20	2154.46
663.39	2297.82
663.58	2211.81
663.76	2170.85
663.95	2285.53
664.14	2080.74
664.32	2082.78
664.51	2131.94
664.70	2054.11
664.89	2269.15
665.07	2023.39
665.26	2299.87
665.45	2095.07
665.64	2293.72
665.82	2236.38
666.01	2322.40
666.20	2121.70
666.38	2330.59
666.57	2375.64
666.76	3252.17
666.95	7989.13
667.13	16441.09
667.32	22064.82
667.51	25886.32
667.69	27541.08
667.88	25685.62
668.07	18255.59
668.25	14409.51
668.44	11982.67
668.63	10297.19
668.81	9189.24
669.00	7759.75
669.19	7077.78
669.38	6143.91
669.56	5294.00
669.75	4489.15
669.94	3692.49
670.12	3162.06
670.31	2727.89
670.50	2578.39
670.68	2537.43
670.87	2406.36
671.06	2232.29
671.24	2351.07
671.43	2365.40
671.62	2314.20
671.80	2189.28
671.99	2351.07
672.18	2246.62
672.36	2242.53
672.55	2287.58
672.74	2224.09
672.92	2211.81
673.11	2385.88
673.29	2097.12
673.48	2273.25
673.67	2179.04
673.85	2306.01
674.04	2117.60
674.23	2142.18
674.41	2428.89
674.60	2113.50
674.79	2060.26
674.97	2176.99
675.16	2244.57
675.34	2359.26
675.53	2162.66
675.72	2215.90
675.90	2344.92
676.09	2144.22
676.28	2140.13
676.46	2088.93
676.65	2250.72
676.83	2125.79
677.02	2142.18
677.21	2209.76
677.39	2197.47
677.58	2138.08
677.77	2140.13
677.95	2162.66
678.14	2209.76
678.32	2103.26
678.51	2193.37
678.70	2422.75
678.88	2203.61
679.07	2252.77
679.25	2213.85
679.44	2222.05
679.63	2142.18
679.81	2199.52
680.00	2303.96
680.18	2263.01
680.37	2351.07
680.55	2215.90
680.74	2144.22
680.93	2047.97
681.11	2179.04
681.30	2220.00
681.48	2185.18
681.67	2146.27
681.85	2185.18
682.04	2152.42
682.23	2281.44
682.41	2240.48
682.60	2138.08
682.78	2193.37
682.97	2111.46
683.15	2179.04
683.34	2217.95
683.53	2301.92
683.71	2088.93
683.90	2260.96
684.08	2338.78
684.27	2119.65
684.45	2224.09
684.64	2342.88
684.82	2211.81
685.01	2248.67
685.19	2242.53
685.38	2365.40
685.57	2203.61
685.75	2136.03
685.94	2193.37
686.12	2068.45
686.31	2179.04
686.49	2310.11
686.68	2027.49
686.86	2146.27
687.05	2222.05
687.23	2357.21
687.42	2064.35
687.60	2064.35
687.79	2258.91
687.97	2408.41
688.16	2217.95
688.34	2267.10
688.53	2088.93
688.71	2195.42
688.90	2334.68
689.08	2197.47
689.27	2099.17
689.45	2242.53
689.64	2242.53
689.82	2301.92
690.01	2207.71
690.19	2209.76
690.38	2176.99
690.56	2320.35
690.75	2160.61
690.93	2170.85
691.12	2168.80
691.30	2277.34
691.49	2201.57
691.67	2160.61
691.86	2363.36
692.04	2117.60
692.23	2164.70
692.41	2252.77
692.60	2531.29
692.78	2385.88
692.97	2240.48
693.15	2248.67
693.34	2357.21
693.52	2346.97
693.71	2217.95
693.89	2168.80
694.08	2084.83
694.26	2256.86
694.44	2375.64
694.63	2250.72
694.81	2125.79
695.00	2105.31
695.18	2326.49
695.37	2449.37
695.55	2265.05
695.74	2187.23
695.92	2189.28
696.10	2387.93
696.29	2103.26
696.47	2181.09
696.66	2154.46
696.84	2095.07
697.03	2152.42
697.21	2359.26
697.40	3200.98
697.58	2283.49
697.76	2090.98
697.95	2181.09
698.13	2105.31
698.32	2193.37
698.50	2203.61
698.68	2275.29
698.87	2252.77
699.05	2310.11
699.24	2295.77
699.42	2121.70
699.61	2252.77
699.79	2242.53
699.97	2160.61
700.16	2023.39
700.34	2093.02
700.53	2193.37
700.71	2402.27
700.89	2228.19
701.08	2234.33
701.26	2189.28
701.45	2752.47
701.63	2168.80
701.81	2213.85
702.00	2144.22
702.18	2211.81
702.37	2306.01
702.55	2367.45
702.73	2445.27
702.92	2471.90
703.10	2514.91
703.28	2488.28
703.47	2222.05
703.65	2422.75
703.84	2404.32
704.02	2258.91
704.20	2359.26
704.39	2174.94
704.57	2172.89
704.75	2383.84
704.94	2365.40
705.12	2281.44
705.30	2496.47
705.49	4624.31
705.67	11089.75
705.86	20082.38
706.04	24518.28
706.22	28255.82
706.41	29384.26
706.59	25462.40
706.77	18001.65
706.96	14753.57
707.14	12740.41
707.32	10923.87
707.51	9852.78
707.69	8075.14
707.87	6465.44
708.06	5285.81
708.24	4261.82
708.42	3377.10
708.61	3127.25
708.79	2529.24
708.97	2373.60
709.16	2414.56
709.34	2254.81
709.52	2189.28
709.71	2228.19
709.89	2299.87
710.07	2082.78
710.26	2093.02
710.44	2197.47
710.62	2273.25
710.80	2158.56
710.99	2226.14
711.17	2271.20
711.35	2189.28
711.54	2179.04
711.72	2246.62
711.90	2226.14
712.09	2213.85
712.27	2211.81
712.45	2295.77
712.63	2054.11
712.82	2275.29
713.00	2119.65
713.18	2277.34
713.37	2207.71
713.55	2267.10
713.73	2312.16
713.91	2244.57
714.10	2185.18
714.28	2095.07
714.46	2220.00
714.65	2232.29
714.83	2183.13
715.01	2324.44
715.19	2166.75
715.38	2154.46
715.56	2209.76
715.74	2103.26
715.92	2136.03
716.11	2291.68
716.29	1955.81
716.47	2258.91
716.65	2203.61
716.84	2029.54
717.02	2275.29
717.20	2070.50
717.38	2176.99
717.57	2220.00
717.75	2238.43
717.93	2170.85
718.11	2207.71
718.30	2183.13
718.48	2215.90
718.66	2267.10
718.84	2332.64
719.03	2203.61
719.21	2103.26
719.39	2383.84
719.57	2275.29
719.75	2322.40
719.94	2170.85
720.12	2158.56
720.30	2236.38
720.48	2258.91
720.67	2160.61
720.85	2168.80
721.03	2131.94
721.21	2160.61
721.39	2301.92
721.58	2207.71
721.76	2199.52
721.94	2258.91
722.12	2195.42
722.30	2330.59
722.49	2213.85
722.67	2254.81
722.85	2281.44
723.03	2129.89
723.21	2152.42
723.40	2183.13
723.58	2273.25
723.76	2349.02
723.94	2377.69
724.12	2273.25
724.30	2371.55
724.49	2322.40
724.67	2224.09
724.85	2332.64
725.03	2224.09
725.21	2246.62
725.40	2316.25
725.58	2160.61
725.76	2318.30
725.94	2193.37
726.12	2113.50
726.30	2234.33
726.49	2205.66
726.67	2224.09
726.85	2248.67
727.03	2551.77
727.21	3751.88
727.39	5429.17
727.57	6569.88
727.76	7393.17
727.94	7757.71
728.12	7358.35
728.30	5828.52
728.48	5015.48
728.66	4571.07
728.84	3985.35
729.03	3585.99
729.21	3147.73
729.39	2813.91
729.57	2557.91
729.75	2410.46
729.93	2394.08
730.11	2162.66
730.30	2129.89
730.48	2129.89
730.66	2371.55
730.84	2330.59
731.02	2232.29
731.20	2142.18
731.38	2226.14
731.56	2142.18
731.74	2078.69
731.93	2211.81
732.11	2242.53
732.29	2193.37
732.47	2207.71
732.65	2283.49
732.83	2385.88
733.01	2273.25
733.19	2082.78
733.37	2252.77
733.56	2166.75
733.74	2111.46
733.92	2326.49
734.10	2162.66
734.28	2246.62
734.46	2052.06
734.64	2183.13
734.82	2160.61
735.00	2133.98
735.18	2097.12
735.36	2224.09
735.54	2162.66
735.73	2234.33
735.91	2220.00
736.09	2281.44
736.27	2226.14
736.45	2330.59
736.63	2084.83
736.81	2150.37
736.99	2285.53
737.17	2381.79
737.35	2076.64
737.53	2195.42
737.71	2129.89
737.89	2256.86
738.07	2142.18
738.25	2084.83
738.43	2047.97
738.61	2166.75
738.80	2084.83
738.98	2140.13
739.16	2166.75
739.34	2144.22
739.52	2351.07
739.70	2156.51
739.88	2287.58
740.06	2267.10
740.24	1986.53
740.42	2363.36
740.60	2047.97
740.78	2047.97
740.96	2074.59
741.14	2099.17
741.32	2197.47
741.50	2078.69
741.68	2389.98
741.86	2351.07
742.04	2117.60
742.22	2064.35
742.40	2172.89
742.58	2242.53
742.76	2109.41
742.94	2252.77
743.12	2045.92
743.30	2181.09
743.48	2289.63
743.66	2125.79
743.84	2217.95
744.02	2174.94
744.20	2230.24
744.38	2125.79
744.56	2113.50
744.74	2303.96
744.92	2244.57
745.10	2367.45
745.28	2220.00
745.46	2344.92
745.64	2205.66
745.82	2248.67
746.00	2158.56
746.18	2211.81
746.36	2078.69
746.54	2275.29
746.72	2187.23
746.90	2093.02
747.08	2318.30
747.26	2097.12
747.44	2301.92
747.62	2203.61
747.80	2203.61
747.98	2404.32
748.15	2131.94
748.33	2422.75
748.51	2248.67
748.69	2281.44
748.87	2064.35
749.05	2220.00
749.23	2174.94
749.41	2283.49
749.59	2154.46
749.77	2244.57
749.95	2179.04
750.13	2095.07
750.31	2291.68
750.49	2187.23
750.67	2271.20
750.85	2314.20
751.03	2248.67
751.20	2383.84
751.38	2207.71
751.56	2121.70
751.74	2103.26
751.92	2230.24
752.10	1994.72
752.28	2236.38
752.46	2056.16
752.64	2244.57
752.82	2197.47
753.00	2334.68
753.18	2152.42
753.35	2156.51
753.53	2220.00
753.71	2160.61
753.89	2203.61
754.07	2199.52
754.25	2324.44
754.43	2260.96
754.61	2105.31
754.79	2228.19
754.97	2121.70
755.14	2310.11
755.32	2140.13
755.50	2187.23
755.68	2222.05
755.86	2043.87
756.04	2123.74
756.22	2076.64
756.40	2234.33
756.57	2295.77
756.75	2105.31
756.93	2332.64
757.11	2222.05
757.29	2101.22
757.47	2158.56
757.65	2015.20
757.82	2021.35
758.00	2129.89
758.18	2131.94
758.36	2101.22
758.54	2338.78
758.72	2023.39
758.90	2254.81
759.07	2273.25
759.25	2179.04
759.43	2197.47
759.61	2074.59
759.79	3086.29
759.97	2297.82
760.15	2131.94
760.32	2246.62
760.50	2273.25
760.68	2383.84
760.86	2047.97
761.04	2203.61
761.22	2295.77
761.39	2125.79
761.57	2205.66
761.75	2154.46
761.93	2252.77
762.11	2117.60
762.28	2152.42
762.46	2123.74
762.64	2197.47
762.82	2045.92
763.00	2179.04
763.18	2312.16
763.35	2119.65
763.53	2260.96
763.71	2152.42
763.89	2162.66
764.07	2181.09
764.24	2203.61
764.42	2228.19
764.60	2099.17
764.78	2142.18
764.96	2224.09
765.13	2332.64
765.31	2133.98
765.49	2273.25
765.67	2166.75
765.84	2217.95
766.02	2158.56
766.20	2097.12
766.38	2287.58
766.56	2260.96
766.73	2183.13
766.91	2193.37
767.09	2228.19
767.27	2193.37
767.44	2125.79
767.62	2271.20
767.80	2246.62
767.98	2256.86
768.15	2176.99
768.33	2336.73
768.51	2297.82
768.69	2185.18
768.87	2258.91
769.04	2205.66
769.22	2371.55
769.40	2269.15
769.58	2416.60
769.75	2242.53
769.93	2316.25
770.11	2226.14
770.28	2031.58
770.46	2252.77
770.64	2260.96
770.82	2158.56
770.99	2133.98
771.17	2326.49
771.35	2068.45
771.53	2133.98
771.70	2160.61
771.88	2260.96
772.06	2250.72
772.23	2162.66
772.41	2236.38
772.59	2121.70
772.77	2113.50
772.94	2101.22
773.12	2256.86
773.30	2201.57
773.47	2220.00
773.65	2031.58
773.83	2342.88
774.01	2162.66
774.18	2041.82
774.36	2213.85
774.54	2047.97
774.71	2224.09
774.89	2021.35
775.07	2066.40
775.24	2152.42
775.42	2160.61
775.60	2349.02
775.78	2060.26
775.95	2043.87
776.13	2033.63
776.31	2007.01
776.48	2138.08
776.66	2334.68
776.84	2187.23
777.01	2172.89
777.19	2136.03
777.37	2144.22
777.54	2260.96
777.72	2326.49
777.90	2271.20
778.07	2131.94
778.25	2459.61
778.43	2269.15
778.60	2097.12
778.78	2176.99
778.96	2375.64
779.13	2144.22
779.31	2238.43
779.49	2201.57
779.66	2164.70
779.84	2168.80
780.01	2152.42
780.19	2144.22
780.37	2367.45
780.54	2299.87
780.72	2187.23
780.90	2213.85
781.07	2142.18
781.25	2168.80
781.43	2308.06
781.60	2154.46
781.78	2334.68
781.95	2213.85
782.13	2140.13
782.31	2193.37
782.48	2058.21
782.66	2240.48
782.83	2377.69
783.01	2207.71
783.19	2232.29
783.36	2187.23
783.54	2086.88
783.72	2238.43
783.89	2140.13
784.07	2281.44
784.24	2152.42
784.42	2260.96
784.60	2152.42
784.77	2217.95
784.95	2062.30
785.12	2101.22
785.30	2105.31
785.47	2160.61
785.65	2150.37
785.83	2150.37
786.00	2154.46
786.18	2187.23
786.35	2142.18
786.53	2090.98
786.71	2277.34
786.88	2252.77
787.06	2230.24
787.23	2152.42
787.41	2027.49
787.58	2267.10
787.76	2154.46
787.94	2209.76
788.11	2136.03
788.29	2093.02
788.46	2203.61
788.64	2074.59
788.81	2129.89
788.99	2107.36
789.16	2099.17
789.34	2181.09
789.52	2129.89
789.69	2179.04
789.87	2054.11
790.04	2170.85
790.22	2193.37
790.39	2410.46
790.57	2076.64
790.74	2054.11
790.92	2252.77
791.09	2062.30
791.27	2228.19
791.44	2326.49
791.62	2138.08
791.79	2271.20
791.97	2183.13
792.15	2428.89
792.32	2263.01
792.50	2248.67
792.67	2312.16
792.85	2265.05
793.02	2203.61
793.20	2197.47
793.37	2133.98
793.55	2121.70
793.72	2179.04
793.90	2289.63
794.07	2117.60
794.25	2125.79
794.42	2263.01
794.60	2138.08
794.77	2203.61
794.95	2301.92
795.12	2252.77
795.30	2150.37
795.47	2070.50
795.65	2498.52
795.82	2275.29
796.00	2121.70
796.17	2185.18
796.34	2084.83
796.52	2146.27
796.69	2256.86
796.87	2258.91
797.04	2324.44
797.22	2228.19
797.39	2236.38
797.57	2252.77
797.74	2236.38
797.92	2217.95
798.09	2082.78
798.27	2303.96
798.44	2213.85
798.62	2185.18
798.79	2215.90
798.96	2160.61
799.14	2197.47
799.31	2373.60
799.49	2125.79
799.66	2103.26
799.84	2209.76
800.01	2088.93
800.19	2240.48
800.36	2039.78
800.53	2160.61
800.71	2199.52
800.88	2367.45
801.06	2129.89
801.23	2156.51
801.41	2252.77
801.58	2158.56
801.75	2179.04
801.93	2273.25
802.10	2252.77
802.28	2220.00
802.45	2211.81
802.63	2265.05
802.80	2375.64
802.97	2119.65
803.15	2166.75
803.32	2125.79
803.50	2140.13
803.67	2174.94
803.84	2047.97
804.02	2226.14
804.19	2195.42
804.37	1986.53
804.54	2029.54
804.71	2117.60
804.89	2207.71
805.06	2136.03
805.24	2109.41
805.41	2133.98
805.58	2203.61
805.76	2389.98
805.93	2209.76
806.10	2326.49
806.28	2226.14
806.45	2207.71
806.63	2129.89
806.80	2252.77
806.97	2201.57
807.15	2207.71
807.32	2265.05
807.49	2201.57
807.67	2144.22
807.84	2203.61
808.01	2031.58
808.19	2320.35
808.36	2424.80
808.54	2129.89
808.71	2121.70
808.88	2230.24
809.06	2256.86
809.23	2355.16
809.40	2144.22
809.58	2228.19
809.75	2201.57
809.92	2062.30
810.10	2381.79
810.27	2162.66
810.44	2254.81
810.62	2222.05
810.79	2252.77
810.96	2058.21
811.14	2170.85
811.31	2226.14
811.48	2207.71
811.66	2185.18
811.83	2310.11
812.00	2269.15
812.18	2220.00
812.35	2371.55
812.52	2144.22
812.69	2148.32
812.87	2127.84
813.04	2138.08
813.21	2211.81
813.39	2142.18
813.56	2086.88
813.73	2308.06
813.91	2099.17
814.08	2195.42
814.25	2150.37
814.42	2043.87
814.60	2146.27
814.77	2150.37
814.94	2144.22
815.12	2295.77
815.29	2299.87
815.46	2086.88
815.63	2238.43
815.81	2162.66
815.98	2131.94
816.15	2136.03
816.33	2199.52
816.50	2129.89
816.67	2222.05
816.84	2191.33
817.02	2068.45
817.19	2131.94
817.36	2248.67
817.53	2308.06
817.71	2095.07
817.88	2281.44
818.05	2191.33
818.22	2129.89
818.40	2375.64
818.57	2107.36
818.74	2217.95
818.91	2179.04
819.09	2299.87
819.26	2346.97
819.43	2185.18
819.60	2140.13
819.78	2267.10
819.95	2258.91
820.12	2062.30
820.29	2301.92
820.47	2340.83
820.64	2131.94
820.81	1990.63
820.98	2113.50
821.15	2162.66
821.33	2203.61
821.50	2064.35
821.67	2244.57
821.84	2107.36
822.02	2228.19
822.19	2308.06
822.36	2179.04
822.53	2168.80
822.70	2066.40
822.88	2117.60
823.05	2371.55
823.22	2220.00
823.39	2203.61
823.56	2232.29
823.74	2316.25
823.91	2127.84
824.08	2119.65
824.25	2131.94
824.42	2334.68
824.60	2035.68
824.77	2322.40
824.94	2193.37
825.11	2228.19
825.28	2193.37
825.45	2152.42
825.63	2199.52
825.80	2080.74
825.97	2211.81
826.14	2144.22
826.31	2039.78
826.48	2226.14
826.66	2123.74
826.83	2166.75
827.00	2101.22
827.17	2138.08
827.34	2123.74
827.51	2103.26
827.69	2105.31
827.86	2064.35
828.03	2256.86
828.20	2228.19
828.37	2084.83
828.54	2254.81
828.71	2056.16
828.89	2355.16
829.06	2179.04
829.23	2351.07
829.40	2088.93
829.57	2133.98
829.74	2220.00
829.91	2107.36
830.09	2166.75
830.26	2207.71
830.43	2324.44
830.60	2179.04
830.77	2256.86
830.94	2328.54
831.11	2252.77
831.28	2152.42
831.46	2283.49
831.63	2072.54
831.80	2283.49
831.97	2115.55
832.14	2105.31
832.31	2246.62
832.48	2195.42
832.65	2258.91
832.82	2209.76
832.99	2209.76
833.17	2088.93
833.34	2412.51
833.51	2248.67
833.68	1970.15
833.85	2285.53
834.02	2078.69
834.19	2201.57
834.36	2119.65
834.53	2179.04
834.70	2269.15
834.87	2240.48
835.04	2093.02
835.22	2109.41
835.39	2146.27
835.56	2007.01
835.73	2105.31
835.90	2332.64
836.07	2129.89
836.24	2238.43
836.41	2056.16
836.58	2162.66
836.75	2197.47
836.92	2170.85
837.09	2121.70
837.26	2303.96
837.43	2187.23
837.60	2189.28
837.77	2080.74
837.94	2320.35
838.12	2340.83
838.29	2166.75
838.46	2052.06
838.63	2111.46
838.80	2402.27
838.97	2195.42
839.14	2113.50
839.31	2150.37
839.48	2265.05
839.65	2090.98
839.82	2265.05
839.99	2265.05
840.16	2215.90
840.33	2125.79
840.50	2193.37
840.67	2105.31
840.84	2002.91
841.01	2242.53
841.18	2140.13
841.35	2240.48
841.52	2301.92
841.69	2320.35
841.86	2209.76
842.03	2201.57
842.20	2252.77
842.37	2142.18
842.54	2158.56
842.71	2166.75
842.88	2101.22
843.05	2213.85
843.22	2150.37
843.39	2322.40
843.56	2007.01
843.73	2103.26
843.90	2176.99
844.07	2103.26
844.24	2275.29
844.41	2187.23
844.58	2191.33
844.75	2127.84
844.92	2265.05
845.09	2162.66
845.26	2127.84
845.43	2279.39
845.60	2136.03
845.77	2250.72
845.94	2136.03
846.10	2240.48
846.27	2045.92
846.44	2111.46
846.61	2148.32
846.78	2316.25
846.95	2199.52
847.12	2162.66
847.29	2133.98
847.46	2193.37
847.63	2250.72
847.80	2131.94
847.97	2052.06
848.14	2422.75
848.31	2176.99
848.48	2095.07
848.65	2203.61
848.82	2142.18
848.98	2375.64
849.15	2217.95
849.32	2220.00
849.49	2293.72
849.66	2152.42
849.83	2217.95
850.00	2088.93
850.17	2220.00
850.34	2228.19
850.51	2152.42
850.68	2129.89
850.85	2340.83
851.01	2224.09
851.18	2187.23
851.35	2205.66
851.52	2267.10
851.69	2363.36
851.86	2009.06
852.03	2136.03
852.20	2291.68
852.37	2187.23
852.53	2166.75
852.70	2121.70
852.87	2176.99
853.04	2291.68
853.21	2084.83
853.38	2277.34
853.55	2246.62
853.72	2338.78
853.89	2064.35
854.05	2117.60
854.22	2150.37
854.39	2099.17
854.56	2174.94
854.73	2275.29
854.90	2099.17
855.07	2191.33
855.23	2131.94
855.40	2121.70
855.57	2138.08
855.74	1994.72
855.91	2328.54
856.08	2023.39
856.25	2088.93
856.41	2174.94
856.58	2045.92
856.75	2152.42
856.92	2144.22
857.09	2248.67
857.26	2019.30
857.42	2179.04
857.59	2232.29
857.76	2146.27
857.93	2166.75
858.10	2142.18
858.27	2090.98
858.43	2226.14
858.60	2170.85
858.77	2015.20
858.94	2129.89
859.11	2322.40
859.27	2150.37
859.44	2164.70
859.61	2396.12
859.78	2258.91
859.95	2168.80
860.12	2076.64
860.28	2426.84
860.45	2414.56
860.62	2176.99
860.79	2195.42
860.95	2179.04
861.12	2140.13
861.29	2117.60
861.46	2185.18
861.63	2113.50
861.79	2258.91
861.96	2097.12
862.13	2160.61
862.30	2250.72
862.47	2220.00
862.63	2086.88
862.80	2211.81
862.97	2281.44
863.14	2265.05
863.30	2185.18
863.47	2093.02
863.64	2371.55
863.81	2193.37
863.97	2093.02
864.14	2127.84
864.31	2117.60
864.48	2150.37
864.65	2093.02
864.81	2236.38
864.98	2174.94
865.15	2230.24
865.32	2191.33
865.48	2220.00
865.65	2273.25
865.82	2215.90
865.98	2168.80
866.15	2254.81
866.32	2166.75
866.49	2150.37
866.65	2306.01
866.82	2101.22
866.99	2215.90
867.16	2144.22
867.32	2160.61
867.49	2103.26
867.66	2154.46
867.83	2115.55
867.99	2039.78
868.16	2123.74
868.33	2070.50
868.49	2263.01
868.66	2080.74
868.83	2168.80
868.99	2207.71
869.16	2164.70
869.33	2267.10
869.50	2279.39
869.66	2205.66
869.83	2154.46
870.00	2140.13
870.16	2193.37
870.33	2138.08
870.50	2248.67
870.66	2211.81
870.83	2324.44
871.00	2138.08
871.17	2244.57
871.33	2187.23
871.50	2162.66
871.67	2152.42
871.83	2195.42
872.00	2260.96
872.17	2150.37
872.33	2332.64
872.50	2295.77
872.67	2074.59
872.83	2099.17
873.00	2199.52
873.17	2189.28
873.33	2252.77
873.50	2213.85
873.67	2133.98
873.83	2136.03
874.00	2160.61
874.16	2187.23
874.33	2252.77
874.50	2150.37
874.66	2197.47
874.83	2144.22
875.00	2250.72
875.16	2258.91
875.33	2189.28
875.50	2060.26
875.66	2113.50
875.83	2185.18
875.99	2179.04
876.16	2185.18
876.33	2113.50
876.49	2164.70
876.66	2263.01
876.83	2066.40
876.99	2078.69
877.16	2217.95
877.32	2076.64
877.49	2152.42
877.66	2269.15
877.82	2316.25
877.99	2226.14
878.15	2250.72
878.32	2209.76
878.49	2150.37
878.65	2127.84
878.82	2277.34
878.98	2125.79
879.15	2179.04
879.32	2166.75
879.48	2168.80
879.65	2183.13
879.81	2174.94
879.98	2154.46
880.15	2224.09
880.31	2256.86
880.48	2121.70
880.64	2275.29
880.81	2179.04
880.97	2357.21
881.14	2297.82
881.31	2086.88
881.47	2346.97
881.64	2144.22
881.80	2084.83
881.97	2215.90
882.13	2205.66
882.30	2097.12
882.47	2174.94
882.63	2080.74
882.80	2168.80
882.96	2107.36
883.13	2306.01
883.29	2099.17
883.46	2144.22
883.62	2430.94
883.79	2170.85
883.95	2236.38
884.12	2201.57
884.29	2320.35
884.45	2211.81
884.62	2195.42
884.78	2064.35
884.95	2349.02
885.11	2150.37
885.28	2234.33
885.44	2168.80
885.61	2260.96
885.77	2269.15
885.94	2228.19
886.10	2156.51
886.27	2197.47
886.43	2355.16
886.60	2314.20
886.76	2093.02
886.93	2119.65
887.09	2238.43
887.26	2054.11
887.42	2115.55
887.59	2250.72
887.75	2392.03
887.92	2318.30
888.08	2197.47
888.25	2330.59
888.41	2258.91
888.58	2168.80
888.74	2093.02
888.91	2088.93
>>>>>End Processed Spectral Data<<<<<
