SpectraSuite Data File
++++++++++++++++++++++++++++++++++++
Date: Thu May 05 12:35:24 CEST 2016
User: root
Dark Spectrum Present: No
Reference Spectrum Present: No
Number of Sampled Component Spectra: 1
Spectrometers: USB4C02835
Integration Time (usec): 100000 (USB4C02835)
Spectra Averaged: 1 (USB4C02835)
Boxcar Smoothing: 0 (USB4C02835)
Correct for Electrical Dark: No (USB4C02835)
Strobe/Lamp Enabled: No (USB4C02835)
Correct for Detector Non-linearity: No (USB4C02835)
Correct for Stray Light: No (USB4C02835)
Number of Pixels in Processed Spectrum: 3648
>>>>>Begin Processed Spectral Data<<<<<
177.47	1816.55
177.69	1816.55
177.91	1816.55
178.13	1767.40
178.36	1710.05
178.58	2121.70
178.80	2207.71
179.02	2097.12
179.24	2041.82
179.46	2195.42
179.68	2228.19
179.90	2117.60
180.13	2191.33
180.35	2078.69
180.57	2129.89
180.79	2244.57
181.01	2209.76
181.23	2152.42
181.45	2232.29
181.67	2211.81
181.90	2301.92
182.12	2158.56
182.34	2019.30
182.56	2203.61
182.78	2252.77
183.00	2107.36
183.22	2232.29
183.44	1982.43
183.66	2404.32
183.89	2238.43
184.11	2217.95
184.33	2179.04
184.55	2269.15
184.77	2084.83
184.99	2174.94
185.21	2084.83
185.43	2400.22
185.65	2099.17
185.87	2152.42
186.10	2373.60
186.32	2469.85
186.54	2172.89
186.76	2244.57
186.98	2301.92
187.20	2144.22
187.42	2113.50
187.64	2093.02
187.86	2250.72
188.08	2238.43
188.30	2115.55
188.52	2097.12
188.75	2205.66
188.97	2320.35
189.19	2185.18
189.41	2045.92
189.63	2170.85
189.85	2113.50
190.07	2086.88
190.29	2072.54
190.51	2150.37
190.73	2017.25
190.95	2199.52
191.17	2168.80
191.39	2154.46
191.61	2193.37
191.84	2170.85
192.06	2222.05
192.28	2066.40
192.50	2418.65
192.72	2160.61
192.94	2152.42
193.16	2240.48
193.38	2242.53
193.60	2090.98
193.82	2168.80
194.04	2230.24
194.26	2220.00
194.48	2119.65
194.70	2119.65
194.92	2090.98
195.14	2269.15
195.36	1992.67
195.58	2254.81
195.80	2136.03
196.02	2117.60
196.24	2086.88
196.46	2166.75
196.69	2152.42
196.91	2453.47
197.13	2117.60
197.35	2125.79
197.57	2326.49
197.79	2189.28
198.01	2195.42
198.23	2113.50
198.45	2308.06
198.67	2035.68
198.89	2099.17
199.11	2181.09
199.33	2136.03
199.55	1941.47
199.77	2172.89
199.99	2191.33
200.21	2148.32
200.43	2310.11
200.65	2086.88
200.87	2013.15
201.09	2142.18
201.31	2146.27
201.53	2256.86
201.75	2215.90
201.97	2220.00
202.19	2154.46
202.41	2088.93
202.63	2197.47
202.85	2308.06
203.07	2187.23
203.29	2162.66
203.51	2035.68
203.73	2138.08
203.95	2451.42
204.17	2160.61
204.39	2154.46
204.61	2154.46
204.83	2140.13
205.05	2256.86
205.27	2170.85
205.49	2365.40
205.71	2220.00
205.93	2072.54
206.15	2105.31
206.37	2256.86
206.59	2105.31
206.81	1988.58
207.03	2127.84
207.25	2136.03
207.47	2228.19
207.69	2154.46
207.91	2326.49
208.13	2359.26
208.34	2185.18
208.56	2031.58
208.78	2156.51
209.00	2117.60
209.22	2101.22
209.44	2105.31
209.66	2107.36
209.88	2226.14
210.10	2191.33
210.32	2084.83
210.54	2220.00
210.76	2146.27
210.98	2236.38
211.20	2004.96
211.42	2168.80
211.64	2338.78
211.86	2193.37
212.08	2144.22
212.30	2170.85
212.52	2179.04
212.74	2340.83
212.96	2189.28
213.17	2172.89
213.39	2244.57
213.61	2328.54
213.83	2207.71
214.05	2138.08
214.27	2297.82
214.49	2093.02
214.71	2105.31
214.93	2211.81
215.15	2234.33
215.37	2244.57
215.59	2068.45
215.81	2189.28
216.03	2324.44
216.24	2201.57
216.46	2117.60
216.68	2125.79
216.90	2332.64
217.12	2220.00
217.34	2111.46
217.56	2156.51
217.78	2326.49
218.00	2299.87
218.22	2070.50
218.44	2150.37
218.66	2244.57
218.87	2381.79
219.09	2062.30
219.31	2183.13
219.53	2228.19
219.75	2138.08
219.97	2125.79
220.19	2170.85
220.41	2252.77
220.63	2373.60
220.85	2138.08
221.06	2072.54
221.28	2285.53
221.50	2246.62
221.72	2086.88
221.94	2093.02
222.16	2183.13
222.38	2258.91
222.60	2097.12
222.82	2142.18
223.03	2263.01
223.25	2043.87
223.47	2144.22
223.69	2330.59
223.91	2181.09
224.13	2211.81
224.35	2097.12
224.57	2226.14
224.78	2217.95
225.00	2090.98
225.22	2150.37
225.44	2105.31
225.66	2244.57
225.88	2101.22
226.10	2179.04
226.32	2107.36
226.53	2365.40
226.75	2093.02
226.97	2185.18
227.19	2095.07
227.41	2146.27
227.63	2154.46
227.85	2080.74
228.06	2133.98
228.28	2168.80
228.50	2250.72
228.72	2062.30
228.94	2119.65
229.16	2062.30
229.37	2109.41
229.59	2121.70
229.81	2195.42
230.03	2168.80
230.25	2019.30
230.47	2035.68
230.69	2099.17
230.90	2312.16
231.12	2103.26
231.34	2162.66
231.56	2201.57
231.78	2070.50
232.00	2220.00
232.21	2152.42
232.43	2117.60
232.65	2043.87
232.87	2228.19
233.09	2072.54
233.30	2150.37
233.52	2260.96
233.74	2191.33
233.96	2095.07
234.18	2172.89
234.40	2203.61
234.61	2408.41
234.83	2043.87
235.05	2007.01
235.27	2443.23
235.49	2267.10
235.70	2117.60
235.92	2232.29
236.14	2232.29
236.36	2445.27
236.58	2084.83
236.79	2156.51
237.01	2107.36
237.23	2105.31
237.45	2314.20
237.67	2099.17
237.88	2183.13
238.10	2367.45
238.32	2015.20
238.54	2099.17
238.76	2129.89
238.97	2023.39
239.19	2097.12
239.41	2199.52
239.63	2279.39
239.85	2222.05
240.06	2201.57
240.28	2121.70
240.50	2250.72
240.72	2136.03
240.93	2174.94
241.15	2203.61
241.37	2160.61
241.59	2318.30
241.81	2105.31
242.02	2136.03
242.24	2152.42
242.46	2254.81
242.68	2019.30
242.89	2062.30
243.11	2273.25
243.33	2119.65
243.55	2211.81
243.76	2160.61
243.98	2185.18
244.20	2211.81
244.42	2170.85
244.64	2179.04
244.85	2039.78
245.07	2045.92
245.29	2129.89
245.51	2064.35
245.72	2207.71
245.94	2273.25
246.16	2199.52
246.38	2115.55
246.59	2179.04
246.81	2121.70
247.03	2062.30
247.24	2047.97
247.46	2181.09
247.68	2238.43
247.90	2070.50
248.11	2115.55
248.33	2281.44
248.55	2222.05
248.77	2160.61
248.98	2154.46
249.20	2277.34
249.42	2207.71
249.64	2193.37
249.85	2152.42
250.07	2125.79
250.29	2312.16
250.50	2267.10
250.72	2095.07
250.94	2295.77
251.16	2418.65
251.37	2150.37
251.59	2244.57
251.81	2283.49
252.02	2277.34
252.24	2133.98
252.46	2263.01
252.68	2113.50
252.89	2113.50
253.11	2021.35
253.33	2250.72
253.54	2265.05
253.76	2002.91
253.98	2078.69
254.20	2072.54
254.41	2015.20
254.63	2199.52
254.85	2047.97
255.06	2174.94
255.28	2265.05
255.50	2076.64
255.71	2121.70
255.93	2027.49
256.15	2176.99
256.36	2234.33
256.58	2127.84
256.80	2142.18
257.02	2228.19
257.23	2037.73
257.45	2203.61
257.67	2209.76
257.88	2150.37
258.10	2199.52
258.32	2113.50
258.53	2146.27
258.75	2353.12
258.97	2101.22
259.18	2043.87
259.40	2146.27
259.62	2346.97
259.83	2271.20
260.05	2176.99
260.27	2605.02
260.48	2308.06
260.70	2109.41
260.92	2138.08
261.13	2162.66
261.35	2215.90
261.57	2248.67
261.78	1998.82
262.00	2086.88
262.22	2203.61
262.43	2086.88
262.65	2111.46
262.86	2176.99
263.08	2432.99
263.30	2140.13
263.51	1992.67
263.73	2111.46
263.95	2324.44
264.16	2117.60
264.38	2050.02
264.60	2105.31
264.81	2226.14
265.03	2273.25
265.25	2193.37
265.46	2082.78
265.68	2308.06
265.89	2258.91
266.11	2027.49
266.33	2119.65
266.54	2279.39
266.76	2181.09
266.98	2129.89
267.19	2299.87
267.41	2287.58
267.62	2244.57
267.84	2000.87
268.06	2207.71
268.27	2144.22
268.49	2250.72
268.70	2244.57
268.92	2148.32
269.14	2142.18
269.35	2045.92
269.57	2154.46
269.79	2195.42
270.00	2113.50
270.22	2361.31
270.43	2021.35
270.65	1959.91
270.87	2148.32
271.08	2289.63
271.30	2197.47
271.51	2052.06
271.73	2195.42
271.95	2406.36
272.16	2148.32
272.38	2129.89
272.59	2013.15
272.81	2215.90
273.02	2088.93
273.24	2150.37
273.46	2260.96
273.67	2062.30
273.89	2031.58
274.10	2082.78
274.32	2351.07
274.54	2248.67
274.75	2176.99
274.97	2168.80
275.18	2226.14
275.40	2242.53
275.61	2125.79
275.83	2240.48
276.05	2064.35
276.26	2146.27
276.48	2211.81
276.69	2162.66
276.91	2103.26
277.12	2273.25
277.34	2185.18
277.55	2263.01
277.77	2291.68
277.99	2103.26
278.20	2088.93
278.42	2068.45
278.63	2136.03
278.85	2113.50
279.06	2021.35
279.28	2174.94
279.49	2228.19
279.71	2250.72
279.93	2205.66
280.14	2281.44
280.36	2144.22
280.57	2340.83
280.79	2285.53
281.00	2144.22
281.22	2072.54
281.43	2332.64
281.65	1982.43
281.86	2152.42
282.08	2322.40
282.29	2377.69
282.51	2015.20
282.73	2101.22
282.94	2074.59
283.16	2263.01
283.37	2293.72
283.59	2226.14
283.80	2267.10
284.02	2166.75
284.23	2289.63
284.45	2043.87
284.66	2115.55
284.88	2111.46
285.09	2113.50
285.31	2197.47
285.52	2285.53
285.74	2054.11
285.95	2289.63
286.17	2226.14
286.38	2207.71
286.60	2072.54
286.81	2172.89
287.03	2150.37
287.24	2164.70
287.46	2246.62
287.67	2240.48
287.89	2293.72
288.10	2187.23
288.32	2232.29
288.53	2299.87
288.75	2156.51
288.96	2279.39
289.18	2121.70
289.39	2121.70
289.61	2176.99
289.82	2392.03
290.04	2371.55
290.25	2136.03
290.47	2236.38
290.68	2170.85
290.90	2306.01
291.11	2080.74
291.33	2267.10
291.54	2127.84
291.76	2103.26
291.97	2273.25
292.18	2187.23
292.40	2222.05
292.61	2138.08
292.83	2359.26
293.04	2195.42
293.26	2228.19
293.47	2138.08
293.69	2097.12
293.90	2220.00
294.12	2269.15
294.33	2199.52
294.55	2107.36
294.76	2199.52
294.97	2238.43
295.19	2367.45
295.40	2176.99
295.62	2154.46
295.83	2285.53
296.05	2156.51
296.26	2267.10
296.48	2170.85
296.69	2199.52
296.90	2164.70
297.12	2260.96
297.33	2310.11
297.55	2217.95
297.76	2260.96
297.98	2265.05
298.19	2240.48
298.41	2168.80
298.62	2133.98
298.83	2367.45
299.05	2236.38
299.26	2195.42
299.48	2082.78
299.69	2215.90
299.90	2217.95
300.12	2138.08
300.33	2185.18
300.55	2244.57
300.76	2248.67
300.98	2105.31
301.19	2183.13
301.40	2136.03
301.62	2142.18
301.83	2271.20
302.05	2222.05
302.26	2121.70
302.47	2170.85
302.69	2168.80
302.90	2240.48
303.12	1998.82
303.33	2170.85
303.54	2332.64
303.76	2131.94
303.97	2185.18
304.19	2326.49
304.40	2136.03
304.61	2222.05
304.83	2316.25
305.04	2238.43
305.26	2213.85
305.47	2152.42
305.68	2142.18
305.90	2025.44
306.11	2269.15
306.33	2127.84
306.54	2138.08
306.75	2140.13
306.97	2023.39
307.18	2113.50
307.39	2097.12
307.61	2146.27
307.82	2199.52
308.04	2224.09
308.25	2119.65
308.46	2170.85
308.68	2201.57
308.89	2226.14
309.10	2277.34
309.32	2244.57
309.53	2150.37
309.74	2299.87
309.96	2121.70
310.17	2344.92
310.39	2088.93
310.60	2142.18
310.81	2133.98
311.03	2076.64
311.24	2193.37
311.45	2148.32
311.67	2316.25
311.88	2140.13
312.09	2097.12
312.31	2125.79
312.52	2152.42
312.73	2121.70
312.95	2103.26
313.16	2115.55
313.37	2306.01
313.59	2265.05
313.80	2295.77
314.01	2289.63
314.23	2136.03
314.44	2113.50
314.65	2082.78
314.87	2133.98
315.08	2043.87
315.29	2121.70
315.51	2133.98
315.72	2047.97
315.93	2295.77
316.15	2306.01
316.36	2138.08
316.57	2162.66
316.79	2199.52
317.00	2201.57
317.21	2244.57
317.43	2179.04
317.64	2256.86
317.85	2129.89
318.07	2172.89
318.28	2179.04
318.49	2322.40
318.70	2418.65
318.92	2322.40
319.13	2389.98
319.34	2424.80
319.56	2281.44
319.77	2346.97
319.98	2285.53
320.20	2318.30
320.41	2351.07
320.62	2246.62
320.83	2121.70
321.05	2295.77
321.26	2226.14
321.47	2181.09
321.69	2342.88
321.90	2074.59
322.11	2195.42
322.32	2244.57
322.54	2357.21
322.75	2160.61
322.96	2496.47
323.18	2121.70
323.39	1933.28
323.60	2066.40
323.81	2181.09
324.03	2121.70
324.24	2183.13
324.45	2199.52
324.66	2263.01
324.88	2277.34
325.09	2301.92
325.30	2162.66
325.52	2158.56
325.73	2326.49
325.94	2107.36
326.15	2052.06
326.37	2070.50
326.58	2283.49
326.79	2279.39
327.00	2093.02
327.22	2248.67
327.43	2127.84
327.64	2109.41
327.85	2195.42
328.07	2146.27
328.28	2375.64
328.49	2179.04
328.70	2187.23
328.92	2170.85
329.13	2209.76
329.34	2174.94
329.55	2381.79
329.76	2252.77
329.98	2095.07
330.19	2303.96
330.40	2142.18
330.61	2127.84
330.83	2205.66
331.04	2080.74
331.25	2199.52
331.46	2207.71
331.68	2117.60
331.89	2365.40
332.10	2242.53
332.31	2021.35
332.52	2205.66
332.74	2293.72
332.95	2045.92
333.16	2156.51
333.37	2240.48
333.58	2123.74
333.80	2195.42
334.01	2068.45
334.22	2142.18
334.43	2129.89
334.64	2199.52
334.86	2031.58
335.07	2189.28
335.28	2322.40
335.49	2015.20
335.70	2172.89
335.92	2359.26
336.13	2443.23
336.34	2224.09
336.55	2199.52
336.76	2195.42
336.98	2103.26
337.19	2176.99
337.40	2328.54
337.61	2381.79
337.82	2125.79
338.04	2252.77
338.25	2109.41
338.46	2070.50
338.67	2174.94
338.88	2062.30
339.09	2150.37
339.31	2164.70
339.52	2019.30
339.73	2064.35
339.94	2093.02
340.15	2318.30
340.36	2103.26
340.58	2228.19
340.79	2052.06
341.00	2232.29
341.21	2193.37
341.42	2326.49
341.63	2121.70
341.85	2230.24
342.06	2215.90
342.27	2138.08
342.48	2295.77
342.69	2111.46
342.90	2281.44
343.12	2258.91
343.33	2129.89
343.54	2301.92
343.75	2400.22
343.96	2199.52
344.17	2064.35
344.38	2191.33
344.60	2115.55
344.81	2037.73
345.02	2187.23
345.23	2291.68
345.44	2428.89
345.65	2199.52
345.86	2191.33
346.07	2244.57
346.29	2097.12
346.50	2279.39
346.71	2299.87
346.92	2316.25
347.13	2334.68
347.34	2174.94
347.55	2125.79
347.76	2154.46
347.98	2011.11
348.19	2142.18
348.40	2269.15
348.61	2168.80
348.82	2320.35
349.03	2285.53
349.24	2123.74
349.45	2367.45
349.66	2062.30
349.88	2179.04
350.09	2097.12
350.30	2322.40
350.51	2320.35
350.72	2203.61
350.93	2183.13
351.14	2127.84
351.35	2273.25
351.56	2142.18
351.77	2111.46
351.99	2316.25
352.20	2396.12
352.41	2330.59
352.62	2062.30
352.83	2191.33
353.04	2193.37
353.25	2179.04
353.46	2195.42
353.67	2291.68
353.88	2111.46
354.09	2179.04
354.30	2160.61
354.52	2281.44
354.73	2205.66
354.94	2080.74
355.15	2215.90
355.36	2406.36
355.57	2156.51
355.78	2209.76
355.99	2170.85
356.20	2133.98
356.41	2220.00
356.62	2125.79
356.83	2191.33
357.04	2316.25
357.25	2039.78
357.46	2133.98
357.68	2117.60
357.89	2121.70
358.10	2181.09
358.31	2170.85
358.52	2148.32
358.73	2148.32
358.94	2060.26
359.15	2162.66
359.36	2211.81
359.57	2111.46
359.78	2138.08
359.99	2293.72
360.20	2074.59
360.41	2166.75
360.62	2195.42
360.83	2252.77
361.04	2217.95
361.25	2209.76
361.46	2375.64
361.67	2203.61
361.88	2265.05
362.09	2277.34
362.30	2301.92
362.51	2144.22
362.72	2205.66
362.93	2250.72
363.14	2250.72
363.35	2232.29
363.56	2035.68
363.78	2242.53
363.99	2330.59
364.20	2076.64
364.41	2187.23
364.62	2351.07
364.83	2238.43
365.04	2138.08
365.25	2152.42
365.46	2449.37
365.67	2168.80
365.88	2185.18
366.09	2129.89
366.30	2209.76
366.51	2263.01
366.72	2076.64
366.93	2187.23
367.14	2187.23
367.35	2283.49
367.56	2142.18
367.77	2336.73
367.98	2162.66
368.18	2254.81
368.39	2160.61
368.60	2115.55
368.81	2289.63
369.02	2156.51
369.23	2152.42
369.44	2080.74
369.65	2199.52
369.86	2263.01
370.07	2199.52
370.28	2007.01
370.49	2299.87
370.70	2256.86
370.91	2150.37
371.12	2084.83
371.33	2256.86
371.54	2138.08
371.75	2258.91
371.96	1953.76
372.17	2217.95
372.38	2172.89
372.59	2220.00
372.80	2105.31
373.01	2195.42
373.22	2220.00
373.43	2236.38
373.64	2121.70
373.85	2232.29
374.06	2291.68
374.26	2349.02
374.47	2263.01
374.68	2256.86
374.89	2256.86
375.10	2203.61
375.31	2269.15
375.52	2232.29
375.73	2263.01
375.94	2129.89
376.15	2312.16
376.36	2189.28
376.57	2070.50
376.78	2144.22
376.99	2156.51
377.20	2363.36
377.40	2099.17
377.61	2269.15
377.82	2052.06
378.03	2340.83
378.24	2318.30
378.45	2260.96
378.66	2154.46
378.87	2033.63
379.08	2052.06
379.29	2179.04
379.50	2367.45
379.71	2195.42
379.91	2299.87
380.12	2146.27
380.33	2121.70
380.54	2191.33
380.75	2224.09
380.96	2152.42
381.17	2234.33
381.38	2220.00
381.59	2201.57
381.80	2170.85
382.00	2400.22
382.21	2285.53
382.42	2432.99
382.63	2392.03
382.84	2275.29
383.05	2297.82
383.26	2328.54
383.47	2158.56
383.68	2217.95
383.88	2301.92
384.09	2244.57
384.30	2299.87
384.51	2275.29
384.72	2127.84
384.93	2156.51
385.14	2187.23
385.35	2310.11
385.55	2060.26
385.76	2301.92
385.97	2144.22
386.18	2056.16
386.39	2213.85
386.60	2158.56
386.81	2158.56
387.02	2127.84
387.22	2047.97
387.43	2316.25
387.64	2316.25
387.85	2379.74
388.06	2406.36
388.27	4151.23
388.48	8527.74
388.68	12238.66
388.89	14444.32
389.10	15539.99
389.31	14368.55
389.52	11190.10
389.73	9588.59
389.93	8910.71
390.14	8075.14
390.35	7364.50
390.56	6547.36
390.77	5177.26
390.98	4157.38
391.18	3256.27
391.39	2717.65
391.60	2432.99
391.81	2318.30
392.02	2246.62
392.23	2392.03
392.43	2285.53
392.64	2306.01
392.85	2260.96
393.06	2365.40
393.27	2207.71
393.47	2107.36
393.68	2207.71
393.89	2125.79
394.10	2346.97
394.31	2109.41
394.52	2111.46
394.72	2052.06
394.93	2324.44
395.14	2088.93
395.35	2258.91
395.56	2086.88
395.76	2164.70
395.97	2250.72
396.18	2277.34
396.39	2375.64
396.60	2621.40
396.80	2437.08
397.01	2328.54
397.22	2328.54
397.43	2338.78
397.64	2193.37
397.84	2351.07
398.05	2357.21
398.26	2183.13
398.47	2228.19
398.67	2242.53
398.88	2146.27
399.09	2285.53
399.30	2095.07
399.51	2316.25
399.71	2109.41
399.92	2203.61
400.13	2228.19
400.34	2109.41
400.54	2211.81
400.75	2392.03
400.96	2185.18
401.17	2306.01
401.37	2179.04
401.58	2146.27
401.79	2152.42
402.00	2310.11
402.21	2570.20
402.41	2543.58
402.62	2596.82
402.83	2695.13
403.04	2611.16
403.24	2715.61
403.45	2367.45
403.66	2408.41
403.87	2383.84
404.07	2490.33
404.28	2498.52
404.49	2441.18
404.70	2312.16
404.90	2244.57
405.11	2234.33
405.32	2252.77
405.52	2176.99
405.73	2193.37
405.94	2119.65
406.15	2193.37
406.35	2281.44
406.56	2291.68
406.77	2236.38
406.98	2240.48
407.18	2162.66
407.39	2328.54
407.60	2162.66
407.80	2211.81
408.01	2230.24
408.22	2220.00
408.43	2095.07
408.63	2277.34
408.84	2283.49
409.05	2273.25
409.25	2138.08
409.46	2062.30
409.67	2148.32
409.88	2164.70
410.08	2232.29
410.29	2117.60
410.50	2162.66
410.70	2277.34
410.91	2070.50
411.12	2203.61
411.32	2220.00
411.53	2127.84
411.74	2351.07
411.95	2346.97
412.15	2420.70
412.36	2342.88
412.57	2291.68
412.77	2373.60
412.98	2252.77
413.19	2195.42
413.39	2297.82
413.60	2213.85
413.81	2344.92
414.01	2138.08
414.22	2199.52
414.43	2299.87
414.63	2279.39
414.84	2314.20
415.05	2215.90
415.25	2097.12
415.46	2232.29
415.67	2170.85
415.87	2209.76
416.08	2154.46
416.29	2150.37
416.49	2226.14
416.70	2111.46
416.91	2185.18
417.11	2217.95
417.32	2275.29
417.53	2234.33
417.73	2193.37
417.94	2146.27
418.15	2228.19
418.35	2168.80
418.56	2168.80
418.77	2537.43
418.97	2201.57
419.18	2197.47
419.38	1974.24
419.59	2129.89
419.80	2340.83
420.00	2154.46
420.21	2209.76
420.42	2269.15
420.62	2236.38
420.83	2129.89
421.04	2158.56
421.24	2250.72
421.45	2213.85
421.65	2287.58
421.86	2162.66
422.07	2273.25
422.27	2256.86
422.48	2170.85
422.69	2093.02
422.89	2224.09
423.10	2146.27
423.30	2072.54
423.51	2174.94
423.72	2168.80
423.92	2326.49
424.13	2019.30
424.33	2191.33
424.54	2291.68
424.75	2213.85
424.95	2363.36
425.16	2148.32
425.36	2162.66
425.57	2271.20
425.78	2359.26
425.98	2265.05
426.19	2168.80
426.39	2080.74
426.60	2144.22
426.81	2293.72
427.01	2217.95
427.22	2183.13
427.42	2017.25
427.63	2164.70
427.83	2293.72
428.04	2361.31
428.25	2240.48
428.45	2324.44
428.66	2351.07
428.86	2119.65
429.07	2234.33
429.28	2146.27
429.48	2224.09
429.69	2107.36
429.89	2293.72
430.10	2121.70
430.30	2195.42
430.51	2281.44
430.71	2142.18
430.92	2160.61
431.13	2170.85
431.33	2211.81
431.54	2220.00
431.74	2295.77
431.95	2383.84
432.15	2105.31
432.36	2256.86
432.56	2242.53
432.77	2414.56
432.98	2412.51
433.18	2209.76
433.39	2162.66
433.59	2226.14
433.80	2349.02
434.00	2437.08
434.21	2174.94
434.41	2088.93
434.62	2398.17
434.82	2133.98
435.03	2113.50
435.23	2236.38
435.44	2088.93
435.64	2201.57
435.85	2209.76
436.06	2256.86
436.26	2265.05
436.47	2179.04
436.67	2119.65
436.88	2213.85
437.08	2310.11
437.29	2342.88
437.49	2224.09
437.70	2213.85
437.90	2199.52
438.11	2322.40
438.31	2281.44
438.52	2406.36
438.72	2408.41
438.93	2471.90
439.13	2301.92
439.34	2326.49
439.54	2201.57
439.75	2238.43
439.95	2275.29
440.16	2129.89
440.36	2203.61
440.57	2256.86
440.77	2301.92
440.98	2064.35
441.18	2260.96
441.39	2160.61
441.59	2115.55
441.80	2408.41
442.00	2205.66
442.21	2340.83
442.41	2056.16
442.62	2275.29
442.82	2133.98
443.02	2152.42
443.23	2220.00
443.43	2236.38
443.64	2346.97
443.84	2185.18
444.05	2283.49
444.25	2271.20
444.46	2277.34
444.66	2201.57
444.87	2375.64
445.07	2162.66
445.28	2201.57
445.48	2363.36
445.69	2330.59
445.89	2490.33
446.09	2176.99
446.30	2502.62
446.50	2813.91
446.71	4349.89
446.91	5488.56
447.12	6420.38
447.32	6748.06
447.53	6096.80
447.73	5164.98
447.93	4462.52
448.14	4138.94
448.34	4079.55
448.55	3610.57
448.75	3547.08
448.96	3395.53
449.16	3010.51
449.36	2820.05
449.57	2469.85
449.77	2287.58
449.98	2236.38
450.18	2269.15
450.39	2275.29
450.59	2375.64
450.79	2246.62
451.00	2119.65
451.20	2277.34
451.41	2275.29
451.61	2293.72
451.81	2232.29
452.02	2203.61
452.22	2209.76
452.43	2179.04
452.63	2244.57
452.84	2181.09
453.04	2226.14
453.24	2250.72
453.45	2119.65
453.65	2168.80
453.86	2230.24
454.06	2222.05
454.26	2183.13
454.47	2125.79
454.67	2373.60
454.87	2238.43
455.08	2220.00
455.28	2383.84
455.49	2244.57
455.69	2146.27
455.89	2365.40
456.10	2314.20
456.30	2121.70
456.51	2275.29
456.71	2277.34
456.91	2222.05
457.12	2271.20
457.32	2236.38
457.52	2084.83
457.73	2258.91
457.93	2283.49
458.14	2201.57
458.34	2019.30
458.54	2181.09
458.75	2199.52
458.95	2260.96
459.15	2217.95
459.36	2238.43
459.56	2242.53
459.76	2475.99
459.97	2295.77
460.17	2209.76
460.37	2291.68
460.58	2203.61
460.78	2183.13
460.99	2162.66
461.19	2179.04
461.39	2172.89
461.60	2181.09
461.80	2273.25
462.00	2097.12
462.21	2154.46
462.41	2123.74
462.61	2109.41
462.82	2011.11
463.02	2183.13
463.22	2224.09
463.43	2324.44
463.63	2193.37
463.83	2306.01
464.04	2265.05
464.24	2193.37
464.44	2150.37
464.64	2179.04
464.85	2271.20
465.05	2269.15
465.25	2201.57
465.46	2170.85
465.66	2265.05
465.86	2306.01
466.07	2199.52
466.27	2189.28
466.47	2070.50
466.68	2064.35
466.88	2320.35
467.08	2209.76
467.29	2342.88
467.49	2242.53
467.69	2222.05
467.89	2252.77
468.10	2156.51
468.30	2252.77
468.50	2301.92
468.71	2332.64
468.91	2023.39
469.11	2375.64
469.31	2254.81
469.52	2160.61
469.72	2394.08
469.92	2398.17
470.13	2162.66
470.33	2275.29
470.53	2254.81
470.73	2658.26
470.94	3104.72
471.14	3268.56
471.34	3635.14
471.54	3438.54
471.75	3045.33
471.95	2887.64
472.15	2785.24
472.36	2813.91
472.56	2740.18
472.76	2660.31
472.96	2639.83
473.17	2465.75
473.37	2519.00
473.57	2279.39
473.77	2340.83
473.98	2205.66
474.18	2054.11
474.38	2469.85
474.58	2113.50
474.79	2176.99
474.99	2308.06
475.19	2326.49
475.39	2113.50
475.60	2199.52
475.80	2170.85
476.00	2244.57
476.20	2232.29
476.41	2263.01
476.61	2355.16
476.81	2371.55
477.01	2156.51
477.21	2424.80
477.42	2363.36
477.62	2133.98
477.82	2228.19
478.02	2146.27
478.23	2275.29
478.43	2162.66
478.63	2203.61
478.83	2215.90
479.03	2127.84
479.24	2301.92
479.44	2424.80
479.64	2213.85
479.84	2076.64
480.04	2158.56
480.25	2203.61
480.45	2080.74
480.65	2101.22
480.85	2349.02
481.06	2133.98
481.26	2244.57
481.46	2248.67
481.66	2301.92
481.86	2129.89
482.06	2293.72
482.27	2123.74
482.47	2166.75
482.67	2222.05
482.87	2183.13
483.07	2312.16
483.28	2162.66
483.48	2084.83
483.68	2152.42
483.88	2119.65
484.08	2062.30
484.29	2179.04
484.49	2076.64
484.69	2035.68
484.89	2334.68
485.09	2277.34
485.29	2248.67
485.50	2220.00
485.70	2248.67
485.90	2326.49
486.10	2226.14
486.30	2287.58
486.50	2383.84
486.71	2236.38
486.91	2179.04
487.11	2240.48
487.31	2133.98
487.51	2203.61
487.71	2060.26
487.91	2115.55
488.12	2144.22
488.32	1916.90
488.52	2152.42
488.72	2072.54
488.92	2179.04
489.12	2303.96
489.32	2318.30
489.53	2277.34
489.73	2068.45
489.93	2344.92
490.13	2115.55
490.33	2084.83
490.53	2156.51
490.73	2254.81
490.94	2056.16
491.14	2250.72
491.34	2346.97
491.54	2525.15
491.74	3172.30
491.94	3723.21
492.14	3989.44
492.34	4036.55
492.54	3735.50
492.75	3205.07
492.95	3174.35
493.15	2963.41
493.35	2863.06
493.55	2731.99
493.75	2650.07
493.95	2717.65
494.15	2494.43
494.35	2375.64
494.56	2357.21
494.76	2150.37
494.96	2256.86
495.16	2353.12
495.36	2234.33
495.56	2220.00
495.76	2179.04
495.96	2181.09
496.16	2199.52
496.36	2437.08
496.56	2099.17
496.77	2263.01
496.97	2199.52
497.17	2338.78
497.37	2056.16
497.57	2287.58
497.77	2299.87
497.97	2066.40
498.17	2226.14
498.37	2129.89
498.57	2263.01
498.77	2125.79
498.97	2260.96
499.17	2320.35
499.38	2209.76
499.58	2281.44
499.78	2346.97
499.98	2256.86
500.18	2181.09
500.38	2168.80
500.58	2441.18
500.78	2850.77
500.98	5267.38
501.18	7282.58
501.38	9064.31
501.58	9994.09
501.78	9707.37
501.98	7708.55
502.18	6360.99
502.38	5576.62
502.58	5119.92
502.78	4620.22
502.98	4460.48
503.18	4214.72
503.38	3897.28
503.59	3362.76
503.79	3256.27
503.99	2947.03
504.19	2883.54
504.39	2856.92
504.59	2842.58
504.79	2869.20
504.99	2840.53
505.19	2562.01
505.39	2543.58
505.59	2555.86
505.79	2572.25
505.99	2400.22
506.19	2394.08
506.39	2428.89
506.59	2236.38
506.79	2201.57
506.99	2308.06
507.19	2275.29
507.39	2213.85
507.59	2213.85
507.79	2150.37
507.99	2136.03
508.19	2275.29
508.39	2185.18
508.59	2179.04
508.79	2293.72
508.99	2363.36
509.19	2113.50
509.39	2289.63
509.59	2183.13
509.79	2162.66
509.99	2207.71
510.19	2322.40
510.39	2256.86
510.59	2176.99
510.79	2209.76
510.99	2062.30
511.19	2269.15
511.39	2383.84
511.59	2338.78
511.79	2342.88
511.99	2248.67
512.19	2420.70
512.38	2176.99
512.58	2086.88
512.78	2199.52
512.98	2363.36
513.18	2394.08
513.38	2060.26
513.58	2269.15
513.78	2105.31
513.98	2279.39
514.18	2197.47
514.38	2127.84
514.58	2299.87
514.78	2166.75
514.98	2140.13
515.18	2181.09
515.38	2144.22
515.58	2351.07
515.78	2142.18
515.98	2162.66
516.18	2357.21
516.38	2140.13
516.57	2146.27
516.77	2129.89
516.97	2226.14
517.17	2152.42
517.37	2099.17
517.57	2328.54
517.77	2265.05
517.97	2078.69
518.17	2240.48
518.37	2084.83
518.57	2140.13
518.77	2203.61
518.97	2203.61
519.16	2213.85
519.36	2351.07
519.56	2162.66
519.76	2193.37
519.96	2271.20
520.16	2314.20
520.36	2183.13
520.56	2281.44
520.76	2066.40
520.96	2166.75
521.16	2275.29
521.35	2412.51
521.55	2351.07
521.75	2211.81
521.95	2121.70
522.15	2160.61
522.35	2082.78
522.55	2117.60
522.75	2320.35
522.95	2121.70
523.14	2158.56
523.34	2162.66
523.54	2174.94
523.74	2250.72
523.94	2256.86
524.14	2064.35
524.34	2314.20
524.54	2287.58
524.73	2195.42
524.93	2250.72
525.13	2232.29
525.33	2103.26
525.53	2377.69
525.73	2295.77
525.93	2203.61
526.13	2201.57
526.32	2176.99
526.52	2273.25
526.72	2267.10
526.92	2142.18
527.12	2095.07
527.32	2066.40
527.52	2289.63
527.71	2273.25
527.91	2138.08
528.11	2133.98
528.31	2252.77
528.51	2111.46
528.71	2342.88
528.90	2283.49
529.10	2334.68
529.30	2334.68
529.50	1986.53
529.70	2271.20
529.90	2121.70
530.09	2211.81
530.29	2156.51
530.49	2125.79
530.69	2535.39
530.89	2211.81
531.09	2250.72
531.28	2144.22
531.48	2318.30
531.68	2154.46
531.88	2222.05
532.08	2299.87
532.28	2148.32
532.47	2197.47
532.67	2353.12
532.87	2234.33
533.07	2117.60
533.27	2271.20
533.46	2203.61
533.66	2240.48
533.86	2193.37
534.06	2252.77
534.26	2285.53
534.45	2191.33
534.65	2396.12
534.85	2285.53
535.05	2129.89
535.25	2295.77
535.44	2090.98
535.64	2285.53
535.84	2127.84
536.04	2138.08
536.24	2131.94
536.43	2170.85
536.63	2209.76
536.83	2129.89
537.03	2236.38
537.22	2062.30
537.42	2084.83
537.62	2232.29
537.82	2109.41
538.02	2326.49
538.21	2342.88
538.41	2486.23
538.61	2215.90
538.81	2148.32
539.00	2275.29
539.20	2123.74
539.40	2162.66
539.60	2246.62
539.79	2230.24
539.99	2172.89
540.19	2129.89
540.39	2148.32
540.58	2277.34
540.78	2308.06
540.98	2156.51
541.18	2267.10
541.37	2152.42
541.57	2281.44
541.77	2220.00
541.97	2164.70
542.16	2127.84
542.36	2154.46
542.56	2131.94
542.76	2369.50
542.95	2295.77
543.15	2275.29
543.35	2328.54
543.54	2170.85
543.74	2127.84
543.94	2377.69
544.14	2254.81
544.33	2324.44
544.53	2209.76
544.73	2199.52
544.93	2119.65
545.12	2174.94
545.32	2181.09
545.52	2238.43
545.71	2095.07
545.91	2187.23
546.11	2217.95
546.30	2095.07
546.50	2209.76
546.70	2277.34
546.90	2164.70
547.09	2041.82
547.29	2168.80
547.49	2213.85
547.68	2234.33
547.88	2183.13
548.08	2215.90
548.27	2711.51
548.47	2099.17
548.67	2133.98
548.87	2258.91
549.06	2226.14
549.26	2279.39
549.46	2267.10
549.65	2152.42
549.85	2269.15
550.05	2238.43
550.24	2070.50
550.44	2232.29
550.64	2181.09
550.83	2162.66
551.03	2336.73
551.23	2349.02
551.42	2289.63
551.62	2174.94
551.82	2195.42
552.01	2199.52
552.21	2234.33
552.41	2152.42
552.60	2422.75
552.80	2213.85
553.00	2142.18
553.19	2195.42
553.39	2353.12
553.59	2064.35
553.78	2222.05
553.98	2209.76
554.17	2097.12
554.37	2289.63
554.57	2283.49
554.76	2154.46
554.96	2209.76
555.16	2267.10
555.35	2191.33
555.55	2265.05
555.75	2236.38
555.94	2324.44
556.14	2109.41
556.33	2291.68
556.53	2254.81
556.73	2252.77
556.92	2250.72
557.12	2351.07
557.32	2361.31
557.51	2224.09
557.71	2306.01
557.90	2320.35
558.10	2328.54
558.30	2193.37
558.49	2207.71
558.69	2236.38
558.88	2220.00
559.08	2191.33
559.28	2166.75
559.47	2242.53
559.67	2256.86
559.86	2457.56
560.06	2181.09
560.26	2201.57
560.45	2267.10
560.65	2236.38
560.84	2404.32
561.04	2152.42
561.24	2285.53
561.43	2176.99
561.63	2396.12
561.82	2267.10
562.02	2215.90
562.22	2179.04
562.41	2133.98
562.61	2146.27
562.80	2185.18
563.00	2463.71
563.19	2310.11
563.39	2236.38
563.59	2328.54
563.78	2146.27
563.98	2000.87
564.17	2146.27
564.37	2080.74
564.56	2211.81
564.76	2142.18
564.96	2375.64
565.15	2246.62
565.35	2469.85
565.54	2193.37
565.74	2306.01
565.93	2240.48
566.13	2158.56
566.32	2236.38
566.52	2267.10
566.71	2226.14
566.91	2322.40
567.11	2232.29
567.30	2129.89
567.50	2318.30
567.69	2220.00
567.89	2187.23
568.08	2129.89
568.28	2211.81
568.47	2142.18
568.67	2213.85
568.86	2158.56
569.06	2252.77
569.25	2275.29
569.45	2052.06
569.64	2176.99
569.84	2222.05
570.04	2314.20
570.23	2160.61
570.43	2162.66
570.62	2209.76
570.82	2359.26
571.01	2158.56
571.21	2164.70
571.40	2060.26
571.60	2236.38
571.79	2265.05
571.99	2146.27
572.18	2154.46
572.38	2224.09
572.57	2222.05
572.77	2217.95
572.96	2441.18
573.16	2248.67
573.35	2179.04
573.55	2303.96
573.74	2236.38
573.94	2189.28
574.13	2176.99
574.33	2287.58
574.52	2295.77
574.71	2275.29
574.91	2201.57
575.10	2136.03
575.30	2244.57
575.49	2146.27
575.69	2185.18
575.88	2230.24
576.08	2342.88
576.27	2351.07
576.47	2269.15
576.66	2449.37
576.86	2375.64
577.05	2217.95
577.25	2275.29
577.44	2387.93
577.64	2226.14
577.83	2299.87
578.02	2146.27
578.22	2293.72
578.41	2402.27
578.61	2232.29
578.80	2133.98
579.00	2234.33
579.19	2228.19
579.39	2342.88
579.58	2342.88
579.77	2215.90
579.97	2367.45
580.16	2353.12
580.36	2355.16
580.55	2297.82
580.75	2203.61
580.94	2211.81
581.13	2381.79
581.33	2383.84
581.52	2244.57
581.72	2424.80
581.91	2377.69
582.11	2346.97
582.30	2314.20
582.49	2340.83
582.69	2355.16
582.88	2228.19
583.08	2244.57
583.27	2346.97
583.47	2252.77
583.66	2203.61
583.85	2101.22
584.05	2228.19
584.24	2265.05
584.44	2306.01
584.63	2418.65
584.82	2453.47
585.02	2514.91
585.21	2396.12
585.41	2361.31
585.60	2367.45
585.79	2521.05
585.99	2527.19
586.18	2334.68
586.37	2932.69
586.57	4392.89
586.76	13172.54
586.96	31770.14
587.15	45700.42
587.34	55452.85
587.54	60017.77
587.73	55506.10
587.93	38763.95
588.12	29150.79
588.31	23758.49
588.51	20643.52
588.70	18900.70
588.89	16887.55
589.09	14880.54
589.28	12773.18
589.47	10508.13
589.67	8255.36
589.86	6274.98
590.06	4765.62
590.25	3739.59
590.44	3307.47
590.64	2783.19
590.83	2557.91
591.02	2529.24
591.22	2406.36
591.41	2297.82
591.60	2252.77
591.80	2588.63
591.99	2170.85
592.18	2228.19
592.38	2361.31
592.57	2242.53
592.76	2269.15
592.96	2254.81
593.15	2232.29
593.34	2342.88
593.54	2220.00
593.73	2392.03
593.92	2240.48
594.12	2308.06
594.31	2320.35
594.50	2310.11
594.70	2320.35
594.89	2586.58
595.08	2199.52
595.28	2330.59
595.47	2588.63
595.66	2332.64
595.86	2113.50
596.05	2170.85
596.24	2260.96
596.43	2404.32
596.63	2365.40
596.82	2260.96
597.01	2359.26
597.21	2428.89
597.40	2269.15
597.59	2258.91
597.79	2279.39
597.98	2306.01
598.17	2293.72
598.36	2232.29
598.56	2316.25
598.75	2189.28
598.94	2301.92
599.14	2275.29
599.33	2230.24
599.52	2291.68
599.71	2273.25
599.91	2328.54
600.10	2320.35
600.29	2181.09
600.48	2316.25
600.68	2222.05
600.87	2254.81
601.06	2187.23
601.26	2201.57
601.45	2215.90
601.64	2123.74
601.83	2240.48
602.03	2136.03
602.22	2093.02
602.41	2326.49
602.60	2529.24
602.80	2285.53
602.99	2318.30
603.18	2097.12
603.37	2265.05
603.57	2211.81
603.76	2240.48
603.95	2324.44
604.14	2185.18
604.34	2154.46
604.53	2222.05
604.72	2240.48
604.91	2295.77
605.10	2222.05
605.30	2086.88
605.49	2457.56
605.68	2287.58
605.87	2209.76
606.07	2138.08
606.26	2248.67
606.45	2279.39
606.64	2283.49
606.84	2244.57
607.03	2234.33
607.22	2357.21
607.41	2260.96
607.60	2230.24
607.80	2316.25
607.99	2127.84
608.18	2250.72
608.37	2162.66
608.56	2117.60
608.76	2326.49
608.95	2387.93
609.14	2303.96
609.33	2312.16
609.52	2482.14
609.72	2324.44
609.91	2375.64
610.10	2297.82
610.29	2453.47
610.48	2271.20
610.68	2285.53
610.87	2258.91
611.06	2367.45
611.25	2170.85
611.44	2314.20
611.63	2154.46
611.83	2314.20
612.02	2074.59
612.21	2318.30
612.40	2111.46
612.59	2105.31
612.79	2072.54
612.98	2209.76
613.17	2424.80
613.36	2217.95
613.55	2441.18
613.74	2400.22
613.93	2426.84
614.13	2404.32
614.32	2498.52
614.51	2445.27
614.70	2369.50
614.89	2326.49
615.08	2265.05
615.28	2717.65
615.47	2226.14
615.66	2357.21
615.85	2318.30
616.04	2461.66
616.23	2269.15
616.42	2301.92
616.62	2394.08
616.81	2252.77
617.00	2199.52
617.19	2271.20
617.38	2160.61
617.57	2283.49
617.76	2318.30
617.95	2252.77
618.15	2267.10
618.34	2389.98
618.53	2093.02
618.72	2338.78
618.91	2373.60
619.10	2357.21
619.29	2224.09
619.48	2207.71
619.68	2146.27
619.87	2183.13
620.06	2154.46
620.25	2248.67
620.44	2154.46
620.63	2230.24
620.82	2162.66
621.01	2222.05
621.20	2166.75
621.39	2279.39
621.59	2326.49
621.78	2220.00
621.97	2326.49
622.16	2285.53
622.35	2279.39
622.54	2248.67
622.73	2334.68
622.92	2068.45
623.11	2269.15
623.30	2203.61
623.49	2273.25
623.68	2109.41
623.88	2359.26
624.07	2238.43
624.26	2056.16
624.45	2220.00
624.64	2189.28
624.83	2166.75
625.02	2181.09
625.21	2230.24
625.40	2258.91
625.59	2334.68
625.78	2156.51
625.97	2342.88
626.16	2342.88
626.35	2346.97
626.54	2254.81
626.74	2478.04
626.93	2213.85
627.12	2244.57
627.31	2426.84
627.50	2306.01
627.69	2381.79
627.88	2113.50
628.07	2142.18
628.26	2170.85
628.45	2189.28
628.64	2138.08
628.83	2154.46
629.02	2045.92
629.21	2242.53
629.40	2260.96
629.59	2162.66
629.78	2150.37
629.97	2236.38
630.16	2170.85
630.35	2158.56
630.54	2213.85
630.73	2129.89
630.92	2224.09
631.11	2144.22
631.30	2232.29
631.49	2279.39
631.68	2199.52
631.87	2244.57
632.06	2115.55
632.25	2416.60
632.44	2232.29
632.63	2287.58
632.82	2224.09
633.01	2207.71
633.20	2369.50
633.39	2361.31
633.58	2129.89
633.77	2236.38
633.96	2277.34
634.15	2260.96
634.34	2338.78
634.53	2209.76
634.72	2195.42
634.91	2080.74
635.10	2244.57
635.29	2238.43
635.48	2269.15
635.67	2131.94
635.86	2095.07
636.05	2357.21
636.24	2150.37
636.43	2174.94
636.62	2277.34
636.81	1998.82
637.00	2162.66
637.19	2293.72
637.38	2176.99
637.57	2234.33
637.76	2242.53
637.95	2463.71
638.14	2242.53
638.33	2340.83
638.52	2340.83
638.71	2199.52
638.89	2111.46
639.08	2510.81
639.27	2432.99
639.46	2566.10
639.65	2893.78
639.84	2910.16
640.03	3102.67
640.22	3026.90
640.41	2957.27
640.60	2506.71
640.79	2582.49
640.98	2424.80
641.17	2469.85
641.36	2422.75
641.55	2478.04
641.74	2166.75
641.92	2176.99
642.11	2170.85
642.30	2287.58
642.49	2185.18
642.68	2185.18
642.87	2232.29
643.06	2205.66
643.25	2172.89
643.44	2072.54
643.63	2105.31
643.82	2310.11
644.00	2193.37
644.19	2283.49
644.38	2166.75
644.57	2240.48
644.76	2252.77
644.95	2129.89
645.14	2154.46
645.33	2234.33
645.52	2179.04
645.71	2043.87
645.89	2121.70
646.08	2166.75
646.27	2226.14
646.46	2394.08
646.65	2029.54
646.84	2191.33
647.03	2187.23
647.22	2299.87
647.40	2242.53
647.59	2138.08
647.78	2062.30
647.97	2150.37
648.16	2166.75
648.35	2336.73
648.54	2301.92
648.73	2133.98
648.91	2248.67
649.10	2172.89
649.29	2187.23
649.48	2131.94
649.67	2260.96
649.86	2248.67
650.05	2291.68
650.23	2482.14
650.42	2349.02
650.61	2449.37
650.80	2467.80
650.99	2469.85
651.18	2359.26
651.36	2408.41
651.55	2203.61
651.74	2275.29
651.93	2195.42
652.12	2207.71
652.31	2217.95
652.49	2187.23
652.68	2185.18
652.87	2314.20
653.06	2246.62
653.25	2367.45
653.44	2291.68
653.62	2383.84
653.81	2162.66
654.00	2154.46
654.19	2342.88
654.38	2455.51
654.56	2277.34
654.75	2166.75
654.94	2297.82
655.13	2254.81
655.32	2160.61
655.51	2342.88
655.69	2148.32
655.88	2318.30
656.07	2068.45
656.26	2183.13
656.45	2109.41
656.63	2236.38
656.82	2179.04
657.01	2330.59
657.20	2160.61
657.38	2336.73
657.57	2189.28
657.76	2064.35
657.95	2267.10
658.14	2119.65
658.32	2340.83
658.51	2072.54
658.70	2203.61
658.89	2299.87
659.08	2207.71
659.26	2379.74
659.45	2138.08
659.64	2289.63
659.83	2185.18
660.01	2562.01
660.20	2322.40
660.39	2359.26
660.58	2021.35
660.76	2275.29
660.95	2041.82
661.14	2291.68
661.33	2078.69
661.51	2170.85
661.70	2160.61
661.89	2209.76
662.08	2269.15
662.26	2082.78
662.45	2144.22
662.64	2375.64
662.83	2248.67
663.01	2076.64
663.20	2129.89
663.39	2418.65
663.58	2160.61
663.76	2224.09
663.95	2236.38
664.14	2144.22
664.32	2101.22
664.51	2136.03
664.70	2086.88
664.89	2281.44
665.07	2050.02
665.26	2351.07
665.45	2074.59
665.64	2312.16
665.82	2195.42
666.01	2281.44
666.20	2123.74
666.38	2328.54
666.57	2408.41
666.76	3305.42
666.95	7962.50
667.13	16205.58
667.32	21696.18
667.51	25415.29
667.69	27295.33
667.88	25403.00
668.07	17913.58
668.25	14184.23
668.44	11859.79
668.63	10385.25
668.81	8937.34
669.00	7741.32
669.19	7094.16
669.38	6045.60
669.56	5242.80
669.75	4390.84
669.94	3733.45
670.12	3125.20
670.31	2783.19
670.50	2633.69
670.68	2441.18
670.87	2422.75
671.06	2246.62
671.24	2365.40
671.43	2400.22
671.62	2314.20
671.80	2220.00
671.99	2320.35
672.18	2164.70
672.36	2387.93
672.55	2265.05
672.74	2310.11
672.92	2129.89
673.11	2277.34
673.29	2138.08
673.48	2306.01
673.67	2248.67
673.85	2299.87
674.04	2150.37
674.23	2240.48
674.41	2291.68
674.60	2168.80
674.79	2027.49
674.97	2142.18
675.16	2342.88
675.34	2224.09
675.53	2066.40
675.72	2181.09
675.90	2328.54
676.09	2191.33
676.28	2185.18
676.46	2056.16
676.65	2291.68
676.83	2152.42
677.02	2281.44
677.21	2234.33
677.39	2211.81
677.58	2107.36
677.77	2129.89
677.95	2176.99
678.14	2158.56
678.32	2271.20
678.51	2095.07
678.70	2293.72
678.88	2123.74
679.07	2158.56
679.25	2222.05
679.44	2131.94
679.63	2136.03
679.81	2217.95
680.00	2357.21
680.18	2220.00
680.37	2314.20
680.55	2211.81
680.74	2082.78
680.93	1990.63
681.11	2207.71
681.30	2168.80
681.48	2269.15
681.67	2185.18
681.85	2195.42
682.04	2093.02
682.23	2236.38
682.41	2136.03
682.60	2189.28
682.78	2256.86
682.97	2131.94
683.15	2140.13
683.34	2203.61
683.53	2273.25
683.71	2074.59
683.90	2316.25
684.08	2314.20
684.27	2123.74
684.45	2265.05
684.64	2240.48
684.82	2183.13
685.01	2316.25
685.19	2199.52
685.38	2375.64
685.57	2199.52
685.75	2111.46
685.94	2154.46
686.12	2123.74
686.31	2144.22
686.49	2326.49
686.68	1970.15
686.86	2273.25
687.05	2209.76
687.23	2375.64
687.42	2133.98
687.60	2099.17
687.79	2332.64
687.97	2267.10
688.16	2344.92
688.34	2252.77
688.53	2054.11
688.71	2211.81
688.90	2275.29
689.08	2138.08
689.27	2146.27
689.45	2246.62
689.64	2267.10
689.82	2240.48
690.01	2154.46
690.19	2293.72
690.38	2176.99
690.56	2277.34
690.75	2152.42
690.93	2162.66
691.12	2129.89
691.30	2215.90
691.49	2201.57
691.67	2138.08
691.86	2416.60
692.04	2195.42
692.23	2269.15
692.41	2285.53
692.60	2449.37
692.78	2396.12
692.97	2250.72
693.15	2285.53
693.34	2402.27
693.52	2340.83
693.71	2230.24
693.89	2168.80
694.08	2084.83
694.26	2273.25
694.44	2269.15
694.63	2293.72
694.81	2113.50
695.00	2183.13
695.18	2328.54
695.37	2473.95
695.55	2236.38
695.74	2154.46
695.92	2082.78
696.10	2289.63
696.29	2121.70
696.47	2117.60
696.66	2152.42
696.84	2097.12
697.03	2189.28
697.21	2379.74
697.40	3274.70
697.58	2330.59
697.76	2215.90
697.95	2115.55
698.13	2056.16
698.32	2103.26
698.50	2226.14
698.68	2263.01
698.87	2224.09
699.05	2406.36
699.24	2217.95
699.42	2111.46
699.61	2336.73
699.79	2228.19
699.97	2252.77
700.16	2150.37
700.34	2125.79
700.53	2174.94
700.71	2340.83
700.89	2351.07
701.08	2201.57
701.26	2164.70
701.45	2791.38
701.63	2176.99
701.81	2174.94
702.00	2107.36
702.18	2166.75
702.37	2203.61
702.55	2426.84
702.73	2383.84
702.92	2373.60
703.10	2602.97
703.28	2422.75
703.47	2346.97
703.65	2441.18
703.84	2428.89
704.02	2275.29
704.20	2465.75
704.39	2158.56
704.57	2129.89
704.75	2367.45
704.94	2338.78
705.12	2308.06
705.30	2455.51
705.49	4493.24
705.67	10911.58
705.86	20141.77
706.04	24385.16
706.22	27879.00
706.41	28913.22
706.59	25222.78
706.77	17903.34
706.96	14835.49
707.14	12859.20
707.32	11032.41
707.51	9758.57
707.69	8195.97
707.87	6379.42
708.06	5078.96
708.24	4161.47
708.42	3286.99
708.61	3030.99
708.79	2492.38
708.97	2402.27
709.16	2326.49
709.34	2346.97
709.52	2172.89
709.71	2226.14
709.89	2267.10
710.07	2195.42
710.26	2152.42
710.44	2170.85
710.62	2220.00
710.80	2166.75
710.99	2242.53
711.17	2240.48
711.35	2113.50
711.54	2117.60
711.72	2336.73
711.90	2226.14
712.09	2226.14
712.27	2148.32
712.45	2181.09
712.63	2146.27
712.82	2281.44
713.00	2197.47
713.18	2269.15
713.37	2189.28
713.55	2254.81
713.73	2217.95
713.91	2183.13
714.10	2125.79
714.28	2174.94
714.46	2217.95
714.65	2322.40
714.83	2150.37
715.01	2209.76
715.19	2242.53
715.38	2127.84
715.56	2236.38
715.74	2099.17
715.92	2080.74
716.11	2373.60
716.29	2062.30
716.47	2193.37
716.65	2213.85
716.84	1998.82
717.02	2332.64
717.20	2025.44
717.38	2228.19
717.57	2244.57
717.75	2269.15
717.93	2115.55
718.11	2234.33
718.30	2099.17
718.48	2228.19
718.66	2254.81
718.84	2316.25
719.03	2250.72
719.21	2088.93
719.39	2373.60
719.57	2357.21
719.75	2265.05
719.94	2107.36
720.12	2162.66
720.30	2207.71
720.48	2252.77
720.67	2187.23
720.85	2111.46
721.03	2152.42
721.21	2213.85
721.39	2293.72
721.58	2260.96
721.76	2228.19
721.94	2281.44
722.12	2181.09
722.30	2357.21
722.49	2236.38
722.67	2170.85
722.85	2248.67
723.03	1990.63
723.21	2174.94
723.40	2168.80
723.58	2314.20
723.76	2226.14
723.94	2344.92
724.12	2242.53
724.30	2420.70
724.49	2308.06
724.67	2189.28
724.85	2269.15
725.03	2146.27
725.21	2285.53
725.40	2369.50
725.58	2121.70
725.76	2326.49
725.94	2340.83
726.12	2170.85
726.30	2254.81
726.49	2203.61
726.67	2076.64
726.85	2279.39
727.03	2471.90
727.21	3618.76
727.39	5289.90
727.57	6467.49
727.76	7239.57
727.94	7698.31
728.12	7147.41
728.30	5853.09
728.48	5060.53
728.66	4433.85
728.84	3971.01
729.03	3420.11
729.21	3157.97
729.39	2818.00
729.57	2543.58
729.75	2465.75
729.93	2310.11
730.11	2211.81
730.30	2193.37
730.48	2191.33
730.66	2326.49
730.84	2265.05
731.02	2248.67
731.20	2166.75
731.38	2209.76
731.56	2103.26
731.74	2121.70
731.93	2215.90
732.11	2121.70
732.29	2209.76
732.47	2238.43
732.65	2179.04
732.83	2297.82
733.01	2279.39
733.19	2045.92
733.37	2144.22
733.56	2199.52
733.74	2158.56
733.92	2418.65
734.10	2119.65
734.28	2240.48
734.46	2031.58
734.64	2146.27
734.82	2246.62
735.00	2136.03
735.18	2166.75
735.36	2158.56
735.54	2220.00
735.73	2201.57
735.91	2232.29
736.09	2306.01
736.27	2271.20
736.45	2201.57
736.63	2050.02
736.81	2154.46
736.99	2344.92
737.17	2342.88
737.35	2113.50
737.53	2195.42
737.71	2170.85
737.89	2424.80
738.07	2109.41
738.25	2084.83
738.43	2023.39
738.61	2154.46
738.80	2121.70
738.98	2127.84
739.16	2123.74
739.34	2133.98
739.52	2334.68
739.70	2215.90
739.88	2277.34
740.06	2256.86
740.24	2015.20
740.42	2299.87
740.60	2131.94
740.78	2121.70
740.96	2058.21
741.14	2140.13
741.32	2203.61
741.50	2070.50
741.68	2432.99
741.86	2367.45
742.04	2103.26
742.22	2068.45
742.40	2271.20
742.58	2226.14
742.76	2045.92
742.94	2275.29
743.12	2076.64
743.30	2203.61
743.48	2310.11
743.66	2103.26
743.84	2338.78
744.02	2211.81
744.20	2187.23
744.38	2113.50
744.56	2232.29
744.74	2416.60
744.92	2224.09
745.10	2363.36
745.28	2201.57
745.46	2428.89
745.64	2254.81
745.82	2228.19
746.00	2209.76
746.18	2242.53
746.36	2113.50
746.54	2205.66
746.72	2170.85
746.90	2074.59
747.08	2271.20
747.26	2203.61
747.44	2287.58
747.62	2211.81
747.80	2226.14
747.98	2265.05
748.15	2193.37
748.33	2408.41
748.51	2095.07
748.69	2283.49
748.87	2111.46
749.05	2220.00
749.23	2191.33
749.41	2187.23
749.59	2213.85
749.77	2287.58
749.95	2187.23
750.13	2111.46
750.31	2281.44
750.49	2179.04
750.67	2211.81
750.85	2377.69
751.03	2150.37
751.20	2398.17
751.38	2146.27
751.56	2158.56
751.74	2170.85
751.92	2160.61
752.10	2131.94
752.28	2324.44
752.46	2078.69
752.64	2275.29
752.82	2263.01
753.00	2301.92
753.18	2109.41
753.35	2232.29
753.53	2170.85
753.71	2195.42
753.89	2195.42
754.07	2183.13
754.25	2234.33
754.43	2162.66
754.61	2133.98
754.79	2236.38
754.97	2263.01
755.14	2328.54
755.32	2093.02
755.50	2234.33
755.68	2244.57
755.86	2133.98
756.04	2201.57
756.22	2011.11
756.40	2293.72
756.57	2328.54
756.75	2160.61
756.93	2355.16
757.11	2260.96
757.29	2074.59
757.47	2193.37
757.65	1988.58
757.82	1982.43
758.00	2187.23
758.18	2211.81
758.36	2105.31
758.54	2320.35
758.72	2113.50
758.90	2162.66
759.07	2273.25
759.25	2082.78
759.43	2244.57
759.61	2072.54
759.79	2990.03
759.97	2236.38
760.15	2064.35
760.32	2152.42
760.50	2224.09
760.68	2383.84
760.86	2060.26
761.04	2260.96
761.22	2260.96
761.39	2191.33
761.57	2279.39
761.75	2162.66
761.93	2252.77
762.11	2158.56
762.28	2199.52
762.46	2088.93
762.64	2250.72
762.82	1998.82
763.00	2133.98
763.18	2285.53
763.35	2144.22
763.53	2293.72
763.71	2203.61
763.89	2170.85
764.07	2152.42
764.24	2256.86
764.42	2211.81
764.60	2162.66
764.78	2224.09
764.96	2236.38
765.13	2316.25
765.31	2131.94
765.49	2174.94
765.67	2138.08
765.84	2111.46
766.02	2109.41
766.20	2060.26
766.38	2205.66
766.56	2279.39
766.73	2238.43
766.91	2217.95
767.09	2121.70
767.27	2254.81
767.44	2133.98
767.62	2248.67
767.80	2240.48
767.98	2127.84
768.15	2115.55
768.33	2277.34
768.51	2271.20
768.69	2281.44
768.87	2189.28
769.04	2252.77
769.22	2414.56
769.40	2465.75
769.58	2396.12
769.75	2281.44
769.93	2326.49
770.11	2295.77
770.28	2088.93
770.46	2258.91
770.64	2232.29
770.82	2127.84
770.99	2154.46
771.17	2195.42
771.35	2203.61
771.53	2174.94
771.70	2138.08
771.88	2203.61
772.06	2138.08
772.23	2131.94
772.41	2242.53
772.59	2193.37
772.77	2146.27
772.94	2205.66
773.12	2213.85
773.30	2121.70
773.47	2201.57
773.65	2062.30
773.83	2291.68
774.01	2181.09
774.18	2031.58
774.36	2201.57
774.54	2086.88
774.71	2168.80
774.89	2035.68
775.07	2129.89
775.24	2217.95
775.42	2095.07
775.60	2488.28
775.78	2154.46
775.95	2201.57
776.13	2146.27
776.31	2021.35
776.48	2197.47
776.66	2263.01
776.84	2179.04
777.01	2125.79
777.19	2166.75
777.37	2150.37
777.54	2385.88
777.72	2381.79
777.90	2183.13
778.07	2043.87
778.25	2611.16
778.43	2342.88
778.60	2144.22
778.78	2310.11
778.96	2258.91
779.13	2183.13
779.31	2238.43
779.49	2224.09
779.66	2238.43
779.84	2168.80
780.01	2158.56
780.19	2107.36
780.37	2267.10
780.54	2265.05
780.72	2066.40
780.90	2154.46
781.07	2142.18
781.25	2107.36
781.43	2226.14
781.60	2154.46
781.78	2265.05
781.95	2230.24
782.13	2072.54
782.31	2201.57
782.48	1986.53
782.66	2283.49
782.83	2310.11
783.01	2222.05
783.19	2238.43
783.36	2156.51
783.54	2111.46
783.72	2265.05
783.89	2181.09
784.07	2213.85
784.24	2289.63
784.42	2328.54
784.60	2111.46
784.77	2256.86
784.95	2078.69
785.12	2211.81
785.30	2179.04
785.47	2068.45
785.65	2150.37
785.83	2148.32
786.00	2162.66
786.18	2250.72
786.35	2039.78
786.53	2097.12
786.71	2240.48
786.88	2238.43
787.06	2164.70
787.23	2133.98
787.41	2045.92
787.58	2209.76
787.76	2138.08
787.94	2246.62
788.11	2199.52
788.29	2043.87
788.46	2146.27
788.64	2056.16
788.81	2097.12
788.99	2117.60
789.16	2062.30
789.34	2232.29
789.52	2140.13
789.69	2197.47
789.87	2086.88
790.04	2207.71
790.22	2160.61
790.39	2351.07
790.57	2031.58
790.74	2148.32
790.92	2293.72
791.09	1990.63
791.27	2228.19
791.44	2275.29
791.62	2148.32
791.79	2213.85
791.97	2230.24
792.15	2547.67
792.32	2228.19
792.50	2308.06
792.67	2383.84
792.85	2260.96
793.02	2195.42
793.20	2154.46
793.37	2080.74
793.55	2103.26
793.72	2097.12
793.90	2263.01
794.07	2113.50
794.25	2119.65
794.42	2152.42
794.60	2238.43
794.77	2211.81
794.95	2250.72
795.12	2250.72
795.30	2174.94
795.47	2070.50
795.65	2408.41
795.82	2265.05
796.00	2168.80
796.17	2131.94
796.34	2062.30
796.52	2267.10
796.69	2346.97
796.87	2353.12
797.04	2250.72
797.22	2283.49
797.39	2195.42
797.57	2242.53
797.74	2316.25
797.92	2220.00
798.09	2156.51
798.27	2320.35
798.44	2211.81
798.62	2158.56
798.79	2224.09
798.96	2211.81
799.14	2203.61
799.31	2416.60
799.49	2117.60
799.66	2068.45
799.84	2179.04
800.01	1945.57
800.19	2107.36
800.36	2029.54
800.53	2230.24
800.71	2220.00
800.88	2392.03
801.06	2127.84
801.23	2183.13
801.41	2269.15
801.58	2070.50
801.75	2076.64
801.93	2263.01
802.10	2310.11
802.28	2158.56
802.45	2230.24
802.63	2273.25
802.80	2338.78
802.97	2176.99
803.15	2215.90
803.32	2220.00
803.50	2144.22
803.67	2080.74
803.84	2181.09
804.02	2181.09
804.19	2224.09
804.37	1998.82
804.54	2152.42
804.71	2217.95
804.89	2148.32
805.06	2103.26
805.24	2043.87
805.41	2115.55
805.58	2166.75
805.76	2373.60
805.93	2152.42
806.10	2306.01
806.28	2248.67
806.45	2240.48
806.63	2211.81
806.80	2291.68
806.97	2199.52
807.15	2197.47
807.32	2181.09
807.49	2156.51
807.67	2095.07
807.84	2187.23
808.01	2043.87
808.19	2383.84
808.36	2371.55
808.54	2138.08
808.71	2181.09
808.88	2242.53
809.06	2416.60
809.23	2344.92
809.40	2154.46
809.58	2228.19
809.75	2263.01
809.92	2166.75
810.10	2428.89
810.27	2174.94
810.44	2170.85
810.62	2273.25
810.79	2230.24
810.96	2138.08
811.14	2109.41
811.31	2174.94
811.48	2207.71
811.66	2146.27
811.83	2258.91
812.00	2297.82
812.18	2226.14
812.35	2363.36
812.52	2121.70
812.69	2131.94
812.87	2183.13
813.04	2168.80
813.21	2170.85
813.39	2105.31
813.56	2086.88
813.73	2275.29
813.91	2088.93
814.08	2166.75
814.25	2209.76
814.42	2080.74
814.60	2187.23
814.77	2189.28
814.94	2138.08
815.12	2160.61
815.29	2326.49
815.46	2097.12
815.63	2150.37
815.81	2123.74
815.98	2179.04
816.15	2230.24
816.33	2160.61
816.50	2162.66
816.67	2224.09
816.84	2082.78
817.02	2054.11
817.19	2133.98
817.36	2273.25
817.53	2187.23
817.71	2142.18
817.88	2273.25
818.05	2148.32
818.22	2160.61
818.40	2400.22
818.57	2189.28
818.74	2127.84
818.91	2138.08
819.09	2205.66
819.26	2256.86
819.43	2150.37
819.60	2164.70
819.78	2201.57
819.95	2269.15
820.12	2113.50
820.29	2273.25
820.47	2310.11
820.64	2064.35
820.81	2052.06
820.98	2111.46
821.15	2144.22
821.33	2303.96
821.50	2043.87
821.67	2226.14
821.84	2113.50
822.02	2273.25
822.19	2279.39
822.36	2078.69
822.53	2078.69
822.70	2146.27
822.88	2170.85
823.05	2316.25
823.22	2183.13
823.39	2250.72
823.56	2213.85
823.74	2310.11
823.91	2144.22
824.08	2191.33
824.25	2027.49
824.42	2308.06
824.60	2107.36
824.77	2170.85
824.94	2123.74
825.11	2250.72
825.28	2103.26
825.45	2162.66
825.63	2299.87
825.80	2101.22
825.97	2252.77
826.14	2166.75
826.31	2093.02
826.48	2267.10
826.66	2070.50
826.83	2144.22
827.00	2242.53
827.17	2033.63
827.34	2195.42
827.51	2068.45
827.69	2136.03
827.86	2074.59
828.03	2176.99
828.20	2199.52
828.37	2158.56
828.54	2281.44
828.71	2099.17
828.89	2363.36
829.06	2162.66
829.23	2271.20
829.40	2150.37
829.57	2187.23
829.74	2260.96
829.91	2193.37
830.09	2125.79
830.26	2248.67
830.43	2351.07
830.60	2123.74
830.77	2238.43
830.94	2252.77
831.11	2301.92
831.28	2144.22
831.46	2275.29
831.63	2131.94
831.80	2299.87
831.97	2148.32
832.14	2205.66
832.31	2232.29
832.48	2176.99
832.65	2308.06
832.82	2211.81
832.99	2295.77
833.17	2105.31
833.34	2373.60
833.51	2187.23
833.68	2043.87
833.85	2256.86
834.02	2103.26
834.19	2109.41
834.36	2095.07
834.53	2187.23
834.70	2236.38
834.87	2179.04
835.04	2107.36
835.22	2088.93
835.39	2207.71
835.56	2136.03
835.73	2105.31
835.90	2252.77
836.07	2086.88
836.24	2170.85
836.41	2039.78
836.58	2093.02
836.75	2273.25
836.92	2152.42
837.09	2127.84
837.26	2269.15
837.43	2201.57
837.60	2162.66
837.77	2107.36
837.94	2193.37
838.12	2281.44
838.29	2101.22
838.46	2011.11
838.63	2062.30
838.80	2375.64
838.97	2203.61
839.14	2138.08
839.31	2215.90
839.48	2236.38
839.65	2090.98
839.82	2228.19
839.99	2164.70
840.16	2248.67
840.33	2138.08
840.50	2195.42
840.67	2160.61
840.84	1949.67
841.01	2201.57
841.18	2084.83
841.35	2224.09
841.52	2258.91
841.69	2351.07
841.86	2125.79
842.03	2277.34
842.20	2232.29
842.37	2201.57
842.54	2146.27
842.71	2267.10
842.88	1957.86
843.05	2285.53
843.22	2158.56
843.39	2228.19
843.56	2109.41
843.73	2203.61
843.90	2170.85
844.07	2201.57
844.24	2213.85
844.41	2244.57
844.58	2185.18
844.75	2168.80
844.92	2244.57
845.09	2162.66
845.26	2064.35
845.43	2191.33
845.60	2168.80
845.77	2263.01
845.94	2209.76
846.10	2312.16
846.27	2004.96
846.44	2062.30
846.61	2099.17
846.78	2271.20
846.95	2228.19
847.12	2187.23
847.29	2129.89
847.46	2107.36
847.63	2314.20
847.80	2117.60
847.97	2144.22
848.14	2367.45
848.31	2136.03
848.48	2109.41
848.65	2236.38
848.82	2136.03
848.98	2392.03
849.15	2166.75
849.32	2211.81
849.49	2301.92
849.66	2154.46
849.83	2119.65
850.00	2076.64
850.17	2203.61
850.34	2162.66
850.51	2099.17
850.68	2109.41
850.85	2414.56
851.01	2201.57
851.18	2156.51
851.35	2183.13
851.52	2203.61
851.69	2326.49
851.86	1925.09
852.03	2127.84
852.20	2316.25
852.37	2152.42
852.53	1982.43
852.70	2068.45
852.87	2275.29
853.04	2185.18
853.21	2093.02
853.38	2265.05
853.55	2310.11
853.72	2306.01
853.89	2101.22
854.05	2113.50
854.22	2138.08
854.39	2138.08
854.56	2140.13
854.73	2226.14
854.90	2109.41
855.07	2115.55
855.23	2193.37
855.40	2183.13
855.57	2172.89
855.74	1941.47
855.91	2301.92
856.08	2011.11
856.25	2101.22
856.41	2160.61
856.58	2133.98
856.75	2115.55
856.92	2086.88
857.09	2244.57
857.26	2041.82
857.42	2152.42
857.59	2238.43
857.76	2187.23
857.93	2146.27
858.10	2201.57
858.27	2088.93
858.43	2209.76
858.60	2138.08
858.77	2029.54
858.94	2113.50
859.11	2336.73
859.27	2269.15
859.44	2113.50
859.61	2359.26
859.78	2168.80
859.95	2154.46
860.12	2056.16
860.28	2543.58
860.45	2373.60
860.62	2113.50
860.79	2203.61
860.95	2146.27
861.12	2101.22
861.29	2052.06
861.46	2117.60
861.63	2195.42
861.79	2252.77
861.96	2056.16
862.13	2117.60
862.30	2260.96
862.47	2086.88
862.63	2062.30
862.80	2213.85
862.97	2279.39
863.14	2232.29
863.30	2170.85
863.47	2068.45
863.64	2312.16
863.81	2293.72
863.97	2097.12
864.14	2211.81
864.31	2162.66
864.48	2224.09
864.65	2054.11
864.81	2195.42
864.98	2258.91
865.15	2291.68
865.32	2230.24
865.48	2240.48
865.65	2328.54
865.82	2113.50
865.98	2113.50
866.15	2250.72
866.32	2240.48
866.49	2209.76
866.65	2260.96
866.82	2054.11
866.99	2191.33
867.16	2174.94
867.32	2107.36
867.49	2133.98
867.66	2142.18
867.83	2111.46
867.99	2105.31
868.16	2129.89
868.33	2125.79
868.49	2154.46
868.66	2121.70
868.83	2215.90
868.99	2211.81
869.16	2195.42
869.33	2279.39
869.50	2181.09
869.66	2170.85
869.83	2232.29
870.00	2029.54
870.16	2297.82
870.33	2195.42
870.50	2185.18
870.66	2113.50
870.83	2205.66
871.00	2199.52
871.17	2185.18
871.33	2211.81
871.50	2088.93
871.67	2138.08
871.83	2054.11
872.00	2244.57
872.17	2117.60
872.33	2367.45
872.50	2289.63
872.67	2070.50
872.83	2146.27
873.00	2215.90
873.17	2181.09
873.33	2236.38
873.50	2164.70
873.67	2101.22
873.83	2109.41
874.00	2093.02
874.16	2226.14
874.33	2211.81
874.50	2035.68
874.66	2234.33
874.83	2131.94
875.00	2281.44
875.16	2346.97
875.33	2224.09
875.50	1974.24
875.66	2152.42
875.83	2168.80
875.99	2228.19
876.16	2093.02
876.33	2078.69
876.49	2220.00
876.66	2209.76
876.83	2138.08
876.99	2064.35
877.16	2138.08
877.32	2164.70
877.49	2060.26
877.66	2252.77
877.82	2322.40
877.99	2224.09
878.15	2230.24
878.32	2224.09
878.49	2160.61
878.65	2174.94
878.82	2267.10
878.98	2144.22
879.15	2242.53
879.32	2291.68
879.48	2187.23
879.65	2164.70
879.81	2136.03
879.98	2201.57
880.15	2158.56
880.31	2256.86
880.48	2187.23
880.64	2318.30
880.81	2236.38
880.97	2342.88
881.14	2275.29
881.31	2056.16
881.47	2263.01
881.64	2174.94
881.80	2088.93
881.97	2185.18
882.13	2164.70
882.30	2138.08
882.47	2101.22
882.63	2035.68
882.80	2107.36
882.96	2117.60
883.13	2310.11
883.29	2093.02
883.46	2240.48
883.62	2306.01
883.79	2207.71
883.95	2252.77
884.12	2093.02
884.29	2310.11
884.45	2228.19
884.62	2228.19
884.78	2093.02
884.95	2246.62
885.11	2162.66
885.28	2195.42
885.44	2166.75
885.61	2328.54
885.77	2342.88
885.94	2242.53
886.10	2193.37
886.27	2195.42
886.43	2303.96
886.60	2230.24
886.76	2133.98
886.93	2121.70
887.09	2152.42
887.26	2031.58
887.42	2156.51
887.59	2279.39
887.75	2461.66
887.92	2312.16
888.08	2203.61
888.25	2340.83
888.41	2242.53
888.58	2183.13
888.74	2086.88
888.91	2148.32
>>>>>End Processed Spectral Data<<<<<
