SpectraSuite Data File
++++++++++++++++++++++++++++++++++++
Date: Thu May 05 12:35:26 CEST 2016
User: root
Dark Spectrum Present: No
Reference Spectrum Present: No
Number of Sampled Component Spectra: 1
Spectrometers: USB4C02835
Integration Time (usec): 100000 (USB4C02835)
Spectra Averaged: 1 (USB4C02835)
Boxcar Smoothing: 0 (USB4C02835)
Correct for Electrical Dark: No (USB4C02835)
Strobe/Lamp Enabled: No (USB4C02835)
Correct for Detector Non-linearity: No (USB4C02835)
Correct for Stray Light: No (USB4C02835)
Number of Pixels in Processed Spectrum: 3648
>>>>>Begin Processed Spectral Data<<<<<
177.47	1810.40
177.69	1810.40
177.91	1810.40
178.13	1761.25
178.36	1724.39
178.58	2115.55
178.80	2191.33
179.02	2064.35
179.24	2095.07
179.46	2174.94
179.68	2162.66
179.90	2185.18
180.13	2183.13
180.35	1996.77
180.57	2140.13
180.79	2314.20
181.01	2195.42
181.23	2160.61
181.45	2289.63
181.67	2248.67
181.90	2248.67
182.12	2119.65
182.34	2002.91
182.56	2312.16
182.78	2222.05
183.00	2162.66
183.22	2140.13
183.44	2009.06
183.66	2455.51
183.89	2273.25
184.11	2095.07
184.33	2238.43
184.55	2306.01
184.77	2152.42
184.99	2150.37
185.21	2152.42
185.43	2404.32
185.65	2123.74
185.87	2074.59
186.10	2422.75
186.32	2422.75
186.54	2176.99
186.76	2213.85
186.98	2162.66
187.20	2213.85
187.42	2148.32
187.64	2209.76
187.86	2164.70
188.08	2316.25
188.30	2086.88
188.52	2129.89
188.75	2310.11
188.97	2232.29
189.19	2230.24
189.41	2154.46
189.63	2205.66
189.85	2129.89
190.07	2004.96
190.29	2029.54
190.51	2269.15
190.73	2072.54
190.95	2193.37
191.17	2140.13
191.39	2037.73
191.61	2195.42
191.84	2164.70
192.06	2170.85
192.28	2060.26
192.50	2473.95
192.72	2187.23
192.94	2105.31
193.16	2285.53
193.38	2287.58
193.60	2074.59
193.82	2119.65
194.04	2281.44
194.26	2275.29
194.48	2154.46
194.70	2158.56
194.92	2160.61
195.14	2293.72
195.36	2062.30
195.58	2181.09
195.80	2209.76
196.02	2166.75
196.24	2062.30
196.46	2176.99
196.69	2185.18
196.91	2424.80
197.13	2109.41
197.35	2111.46
197.57	2412.51
197.79	2250.72
198.01	2176.99
198.23	2166.75
198.45	2256.86
198.67	2095.07
198.89	2099.17
199.11	2146.27
199.33	2121.70
199.55	1990.63
199.77	2056.16
199.99	2220.00
200.21	2215.90
200.43	2181.09
200.65	2056.16
200.87	1929.19
201.09	2195.42
201.31	2136.03
201.53	2160.61
201.75	2142.18
201.97	2185.18
202.19	2224.09
202.41	2179.04
202.63	2260.96
202.85	2232.29
203.07	2242.53
203.29	2101.22
203.51	2080.74
203.73	2084.83
203.95	2496.47
204.17	2113.50
204.39	2181.09
204.61	2187.23
204.83	2144.22
205.05	2263.01
205.27	2127.84
205.49	2310.11
205.71	2179.04
205.93	2037.73
206.15	2045.92
206.37	2187.23
206.59	2193.37
206.81	1966.05
207.03	2058.21
207.25	2082.78
207.47	2303.96
207.69	2144.22
207.91	2248.67
208.13	2375.64
208.34	2125.79
208.56	2070.50
208.78	2131.94
209.00	2181.09
209.22	2127.84
209.44	2129.89
209.66	2129.89
209.88	2156.51
210.10	2146.27
210.32	2136.03
210.54	2213.85
210.76	2209.76
210.98	2275.29
211.20	1988.58
211.42	2220.00
211.64	2334.68
211.86	2226.14
212.08	2203.61
212.30	2179.04
212.52	2154.46
212.74	2242.53
212.96	2105.31
213.17	2191.33
213.39	2252.77
213.61	2252.77
213.83	2191.33
214.05	2117.60
214.27	2389.98
214.49	2064.35
214.71	2078.69
214.93	2187.23
215.15	2195.42
215.37	2232.29
215.59	2117.60
215.81	2185.18
216.03	2346.97
216.24	2195.42
216.46	2115.55
216.68	2179.04
216.90	2320.35
217.12	2340.83
217.34	2068.45
217.56	2195.42
217.78	2301.92
218.00	2258.91
218.22	2164.70
218.44	2150.37
218.66	2269.15
218.87	2334.68
219.09	2080.74
219.31	2144.22
219.53	2228.19
219.75	2170.85
219.97	2080.74
220.19	2189.28
220.41	2226.14
220.63	2406.36
220.85	2136.03
221.06	2072.54
221.28	2283.49
221.50	2215.90
221.72	2168.80
221.94	2119.65
222.16	2117.60
222.38	2277.34
222.60	2166.75
222.82	2226.14
223.03	2265.05
223.25	2037.73
223.47	2193.37
223.69	2275.29
223.91	2170.85
224.13	2256.86
224.35	2150.37
224.57	2222.05
224.78	2211.81
225.00	2080.74
225.22	2121.70
225.44	2207.71
225.66	2269.15
225.88	2146.27
226.10	2217.95
226.32	2160.61
226.53	2373.60
226.75	2197.47
226.97	2162.66
227.19	2170.85
227.41	2084.83
227.63	2111.46
227.85	2023.39
228.06	2158.56
228.28	2195.42
228.50	2293.72
228.72	2045.92
228.94	2140.13
229.16	2064.35
229.37	2133.98
229.59	2156.51
229.81	2281.44
230.03	2197.47
230.25	2127.84
230.47	2097.12
230.69	2056.16
230.90	2230.24
231.12	2144.22
231.34	2273.25
231.56	2230.24
231.78	2025.44
232.00	2133.98
232.21	2099.17
232.43	2084.83
232.65	2011.11
232.87	2250.72
233.09	2086.88
233.30	2138.08
233.52	2338.78
233.74	2217.95
233.96	2060.26
234.18	2142.18
234.40	2207.71
234.61	2334.68
234.83	1959.91
235.05	2070.50
235.27	2465.75
235.49	2308.06
235.70	2217.95
235.92	2160.61
236.14	2201.57
236.36	2389.98
236.58	2037.73
236.79	2189.28
237.01	2232.29
237.23	2140.13
237.45	2351.07
237.67	2060.26
237.88	2215.90
238.10	2306.01
238.32	2027.49
238.54	2127.84
238.76	2201.57
238.97	2121.70
239.19	2109.41
239.41	2226.14
239.63	2203.61
239.85	2127.84
240.06	2129.89
240.28	2113.50
240.50	2342.88
240.72	2246.62
240.93	2117.60
241.15	2250.72
241.37	2195.42
241.59	2269.15
241.81	2129.89
242.02	2140.13
242.24	2162.66
242.46	2244.57
242.68	2068.45
242.89	2170.85
243.11	2301.92
243.33	2144.22
243.55	2133.98
243.76	2236.38
243.98	2168.80
244.20	2172.89
244.42	2174.94
244.64	2154.46
244.85	1998.82
245.07	2076.64
245.29	2170.85
245.51	2111.46
245.72	2252.77
245.94	2330.59
246.16	2179.04
246.38	2142.18
246.59	2103.26
246.81	2103.26
247.03	2144.22
247.24	2013.15
247.46	2154.46
247.68	2136.03
247.90	2105.31
248.11	2109.41
248.33	2242.53
248.55	2256.86
248.77	2156.51
248.98	2205.66
249.20	2387.93
249.42	2234.33
249.64	2093.02
249.85	2140.13
250.07	2191.33
250.29	2217.95
250.50	2211.81
250.72	2015.20
250.94	2234.33
251.16	2404.32
251.37	2176.99
251.59	2258.91
251.81	2244.57
252.02	2281.44
252.24	2111.46
252.46	2242.53
252.68	2097.12
252.89	1980.39
253.11	1957.86
253.33	2260.96
253.54	2285.53
253.76	2144.22
253.98	2103.26
254.20	2136.03
254.41	2023.39
254.63	2181.09
254.85	2007.01
255.06	2176.99
255.28	2301.92
255.50	2215.90
255.71	2123.74
255.93	2045.92
256.15	2103.26
256.36	2258.91
256.58	2127.84
256.80	2201.57
257.02	2215.90
257.23	2150.37
257.45	2162.66
257.67	2203.61
257.88	2156.51
258.10	2236.38
258.32	2127.84
258.53	2166.75
258.75	2285.53
258.97	2097.12
259.18	2107.36
259.40	2144.22
259.62	2336.73
259.83	2342.88
260.05	2119.65
260.27	2637.78
260.48	2326.49
260.70	2064.35
260.92	2101.22
261.13	2199.52
261.35	2185.18
261.57	2230.24
261.78	2027.49
262.00	2021.35
262.22	2299.87
262.43	2136.03
262.65	2170.85
262.86	2215.90
263.08	2478.04
263.30	2164.70
263.51	2029.54
263.73	2021.35
263.95	2324.44
264.16	2054.11
264.38	2176.99
264.60	2131.94
264.81	2189.28
265.03	2349.02
265.25	2213.85
265.46	2078.69
265.68	2371.55
265.89	2260.96
266.11	2041.82
266.33	2160.61
266.54	2400.22
266.76	2303.96
266.98	2207.71
267.19	2248.67
267.41	2275.29
267.62	2113.50
267.84	1988.58
268.06	2248.67
268.27	2289.63
268.49	2301.92
268.70	2174.94
268.92	2172.89
269.14	2082.78
269.35	2021.35
269.57	2156.51
269.79	2140.13
270.00	2170.85
270.22	2322.40
270.43	2072.54
270.65	1957.86
270.87	2228.19
271.08	2220.00
271.30	2203.61
271.51	2176.99
271.73	2287.58
271.95	2334.68
272.16	2123.74
272.38	2207.71
272.59	2121.70
272.81	2258.91
273.02	2158.56
273.24	2224.09
273.46	2326.49
273.67	2097.12
273.89	2007.01
274.10	2117.60
274.32	2359.26
274.54	2203.61
274.75	2144.22
274.97	2072.54
275.18	2273.25
275.40	2283.49
275.61	2152.42
275.83	2238.43
276.05	2062.30
276.26	2217.95
276.48	2121.70
276.69	2176.99
276.91	2129.89
277.12	2312.16
277.34	2248.67
277.55	2285.53
277.77	2156.51
277.99	2185.18
278.20	2062.30
278.42	2072.54
278.63	2072.54
278.85	2113.50
279.06	2058.21
279.28	2228.19
279.49	2252.77
279.71	2277.34
279.93	2170.85
280.14	2146.27
280.36	2117.60
280.57	2283.49
280.79	2256.86
281.00	2133.98
281.22	2209.76
281.43	2277.34
281.65	2031.58
281.86	2060.26
282.08	2228.19
282.29	2301.92
282.51	2047.97
282.73	2090.98
282.94	2060.26
283.16	2273.25
283.37	2281.44
283.59	2088.93
283.80	2248.67
284.02	2150.37
284.23	2240.48
284.45	2183.13
284.66	2111.46
284.88	2152.42
285.09	2228.19
285.31	2242.53
285.52	2213.85
285.74	2078.69
285.95	2281.44
286.17	2185.18
286.38	2244.57
286.60	2160.61
286.81	2113.50
287.03	2170.85
287.24	2160.61
287.46	2185.18
287.67	2179.04
287.89	2336.73
288.10	2174.94
288.32	2176.99
288.53	2297.82
288.75	2185.18
288.96	2283.49
289.18	2138.08
289.39	2158.56
289.61	2164.70
289.82	2338.78
290.04	2322.40
290.25	2047.97
290.47	2199.52
290.68	2179.04
290.90	2205.66
291.11	2009.06
291.33	2252.77
291.54	2064.35
291.76	2070.50
291.97	2193.37
292.18	2095.07
292.40	2109.41
292.61	2101.22
292.83	2355.16
293.04	2191.33
293.26	2185.18
293.47	2131.94
293.69	2168.80
293.90	2170.85
294.12	2353.12
294.33	2279.39
294.55	2199.52
294.76	2269.15
294.97	2252.77
295.19	2287.58
295.40	2164.70
295.62	2234.33
295.83	2289.63
296.05	2095.07
296.26	2355.16
296.48	2103.26
296.69	2213.85
296.90	2195.42
297.12	2244.57
297.33	2314.20
297.55	2211.81
297.76	2232.29
297.98	2217.95
298.19	2250.72
298.41	2250.72
298.62	2129.89
298.83	2285.53
299.05	2187.23
299.26	2195.42
299.48	2136.03
299.69	2217.95
299.90	2191.33
300.12	2115.55
300.33	2306.01
300.55	2166.75
300.76	2269.15
300.98	2072.54
301.19	2289.63
301.40	2133.98
301.62	2199.52
301.83	2207.71
302.05	2224.09
302.26	2197.47
302.47	2146.27
302.69	2105.31
302.90	2203.61
303.12	2058.21
303.33	2265.05
303.54	2373.60
303.76	2160.61
303.97	2187.23
304.19	2269.15
304.40	2125.79
304.61	2258.91
304.83	2318.30
305.04	2209.76
305.26	2342.88
305.47	2250.72
305.68	2150.37
305.90	2043.87
306.11	2351.07
306.33	2150.37
306.54	2117.60
306.75	2084.83
306.97	2056.16
307.18	2088.93
307.39	2117.60
307.61	2226.14
307.82	2086.88
308.04	2234.33
308.25	2031.58
308.46	2220.00
308.68	2174.94
308.89	2201.57
309.10	2279.39
309.32	2265.05
309.53	2152.42
309.74	2244.57
309.96	2164.70
310.17	2332.64
310.39	2064.35
310.60	2275.29
310.81	2240.48
311.03	2082.78
311.24	2322.40
311.45	2201.57
311.67	2349.02
311.88	2160.61
312.09	2179.04
312.31	2211.81
312.52	2056.16
312.73	2197.47
312.95	2027.49
313.16	2095.07
313.37	2312.16
313.59	2236.38
313.80	2197.47
314.01	2357.21
314.23	2115.55
314.44	2250.72
314.65	2109.41
314.87	2090.98
315.08	2101.22
315.29	2166.75
315.51	2131.94
315.72	2111.46
315.93	2381.79
316.15	2279.39
316.36	2183.13
316.57	2193.37
316.79	2254.81
317.00	2105.31
317.21	2224.09
317.43	2070.50
317.64	2197.47
317.85	2115.55
318.07	2123.74
318.28	2164.70
318.49	2291.68
318.70	2492.38
318.92	2373.60
319.13	2408.41
319.34	2418.65
319.56	2355.16
319.77	2310.11
319.98	2392.03
320.20	2332.64
320.41	2222.05
320.62	2189.28
320.83	2129.89
321.05	2320.35
321.26	2279.39
321.47	2201.57
321.69	2361.31
321.90	2070.50
322.11	2136.03
322.32	2174.94
322.54	2326.49
322.75	2107.36
322.96	2496.47
323.18	2035.68
323.39	2097.12
323.60	2095.07
323.81	2281.44
324.03	2133.98
324.24	2207.71
324.45	2152.42
324.66	2064.35
324.88	2289.63
325.09	2394.08
325.30	2201.57
325.52	2197.47
325.73	2236.38
325.94	2050.02
326.15	1986.53
326.37	2074.59
326.58	2314.20
326.79	2355.16
327.00	2066.40
327.22	2181.09
327.43	2187.23
327.64	2152.42
327.85	2209.76
328.07	2275.29
328.28	2285.53
328.49	2140.13
328.70	2209.76
328.92	2209.76
329.13	2187.23
329.34	2215.90
329.55	2306.01
329.76	2285.53
329.98	2232.29
330.19	2240.48
330.40	2211.81
330.61	2181.09
330.83	2289.63
331.04	2066.40
331.25	2275.29
331.46	2160.61
331.68	2043.87
331.89	2318.30
332.10	2144.22
332.31	2037.73
332.52	2146.27
332.74	2232.29
332.95	2074.59
333.16	2170.85
333.37	2260.96
333.58	2193.37
333.80	2162.66
334.01	2093.02
334.22	2193.37
334.43	2099.17
334.64	2187.23
334.86	2121.70
335.07	2072.54
335.28	2297.82
335.49	2076.64
335.70	2150.37
335.92	2306.01
336.13	2478.04
336.34	2187.23
336.55	2154.46
336.76	2191.33
336.98	2127.84
337.19	2152.42
337.40	2291.68
337.61	2457.56
337.82	2201.57
338.04	2267.10
338.25	2166.75
338.46	2144.22
338.67	2127.84
338.88	2138.08
339.09	2133.98
339.31	2158.56
339.52	2084.83
339.73	2105.31
339.94	2174.94
340.15	2277.34
340.36	2164.70
340.58	2234.33
340.79	2070.50
341.00	2256.86
341.21	2111.46
341.42	2349.02
341.63	2240.48
341.85	2205.66
342.06	2179.04
342.27	2201.57
342.48	2201.57
342.69	2090.98
342.90	2234.33
343.12	2287.58
343.33	2179.04
343.54	2193.37
343.75	2332.64
343.96	2138.08
344.17	2138.08
344.38	2185.18
344.60	2072.54
344.81	2064.35
345.02	2207.71
345.23	2318.30
345.44	2457.56
345.65	2269.15
345.86	2205.66
346.07	2183.13
346.29	2125.79
346.50	2199.52
346.71	2250.72
346.92	2303.96
347.13	2398.17
347.34	2172.89
347.55	2140.13
347.76	2236.38
347.98	2084.83
348.19	2201.57
348.40	2236.38
348.61	2152.42
348.82	2271.20
349.03	2209.76
349.24	2158.56
349.45	2301.92
349.66	1990.63
349.88	2174.94
350.09	2093.02
350.30	2308.06
350.51	2293.72
350.72	2168.80
350.93	2191.33
351.14	2117.60
351.35	2240.48
351.56	2191.33
351.77	2150.37
351.99	2260.96
352.20	2383.84
352.41	2308.06
352.62	2021.35
352.83	2248.67
353.04	2220.00
353.25	2121.70
353.46	2252.77
353.67	2265.05
353.88	2041.82
354.09	2154.46
354.30	2113.50
354.52	2320.35
354.73	2279.39
354.94	2129.89
355.15	2258.91
355.36	2287.58
355.57	2086.88
355.78	2176.99
355.99	2152.42
356.20	2121.70
356.41	2260.96
356.62	2220.00
356.83	2168.80
357.04	2297.82
357.25	2043.87
357.46	2101.22
357.68	2084.83
357.89	2080.74
358.10	2205.66
358.31	2191.33
358.52	2146.27
358.73	2060.26
358.94	2115.55
359.15	2121.70
359.36	2246.62
359.57	2117.60
359.78	2183.13
359.99	2265.05
360.20	2009.06
360.41	2179.04
360.62	2224.09
360.83	2195.42
361.04	2152.42
361.25	2160.61
361.46	2326.49
361.67	2254.81
361.88	2211.81
362.09	2297.82
362.30	2258.91
362.51	2185.18
362.72	2172.89
362.93	2238.43
363.14	2281.44
363.35	2215.90
363.56	2105.31
363.78	2303.96
363.99	2316.25
364.20	2052.06
364.41	2172.89
364.62	2422.75
364.83	2203.61
365.04	2150.37
365.25	2187.23
365.46	2414.56
365.67	2105.31
365.88	2195.42
366.09	2133.98
366.30	2228.19
366.51	2191.33
366.72	2125.79
366.93	2160.61
367.14	2197.47
367.35	2326.49
367.56	2078.69
367.77	2316.25
367.98	2152.42
368.18	2283.49
368.39	2279.39
368.60	2037.73
368.81	2250.72
369.02	2148.32
369.23	2179.04
369.44	2019.30
369.65	2183.13
369.86	2187.23
370.07	2244.57
370.28	2064.35
370.49	2295.77
370.70	2267.10
370.91	2017.25
371.12	2002.91
371.33	2271.20
371.54	2152.42
371.75	2359.26
371.96	1957.86
372.17	2205.66
372.38	2191.33
372.59	2230.24
372.80	2242.53
373.01	2252.77
373.22	2205.66
373.43	2260.96
373.64	2078.69
373.85	2269.15
374.06	2455.51
374.26	2256.86
374.47	2213.85
374.68	2318.30
374.89	2191.33
375.10	2181.09
375.31	2285.53
375.52	2207.71
375.73	2195.42
375.94	2080.74
376.15	2353.12
376.36	2078.69
376.57	2133.98
376.78	2127.84
376.99	2189.28
377.20	2373.60
377.40	2168.80
377.61	2355.16
377.82	2129.89
378.03	2256.86
378.24	2256.86
378.45	2215.90
378.66	2271.20
378.87	2031.58
379.08	2037.73
379.29	2144.22
379.50	2275.29
379.71	2244.57
379.91	2217.95
380.12	2076.64
380.33	2146.27
380.54	2213.85
380.75	2162.66
380.96	2172.89
381.17	2201.57
381.38	2213.85
381.59	2224.09
381.80	2209.76
382.00	2420.70
382.21	2228.19
382.42	2349.02
382.63	2455.51
382.84	2248.67
383.05	2299.87
383.26	2293.72
383.47	2164.70
383.68	2254.81
383.88	2297.82
384.09	2267.10
384.30	2392.03
384.51	2189.28
384.72	2072.54
384.93	2080.74
385.14	2201.57
385.35	2349.02
385.55	2082.78
385.76	2330.59
385.97	2170.85
386.18	2062.30
386.39	2138.08
386.60	2217.95
386.81	2162.66
387.02	2103.26
387.22	2037.73
387.43	2191.33
387.64	2246.62
387.85	2418.65
388.06	2398.17
388.27	4059.07
388.48	8599.42
388.68	12177.22
388.89	14855.97
389.10	15824.65
389.31	14384.93
389.52	11442.00
389.73	9867.11
389.93	8923.00
390.14	8150.92
390.35	7413.65
390.56	6508.44
390.77	5267.38
390.98	4227.01
391.18	3256.27
391.39	2756.57
391.60	2369.50
391.81	2402.27
392.02	2150.37
392.23	2426.84
392.43	2158.56
392.64	2310.11
392.85	2146.27
393.06	2398.17
393.27	2234.33
393.47	2203.61
393.68	2228.19
393.89	2152.42
394.10	2310.11
394.31	2162.66
394.52	2144.22
394.72	2111.46
394.93	2351.07
395.14	2039.78
395.35	2166.75
395.56	2125.79
395.76	2260.96
395.97	2240.48
396.18	2291.68
396.39	2349.02
396.60	2650.07
396.80	2455.51
397.01	2306.01
397.22	2336.73
397.43	2459.61
397.64	2209.76
397.84	2303.96
398.05	2439.13
398.26	2271.20
398.47	2254.81
398.67	2351.07
398.88	2252.77
399.09	2263.01
399.30	2129.89
399.51	2195.42
399.71	2127.84
399.92	2162.66
400.13	2242.53
400.34	2136.03
400.54	2129.89
400.75	2381.79
400.96	2215.90
401.17	2332.64
401.37	2283.49
401.58	2101.22
401.79	2146.27
402.00	2316.25
402.21	2578.39
402.41	2519.00
402.62	2574.30
402.83	2666.46
403.04	2572.25
403.24	2801.62
403.45	2293.72
403.66	2408.41
403.87	2383.84
404.07	2426.84
404.28	2406.36
404.49	2447.32
404.70	2224.09
404.90	2318.30
405.11	2176.99
405.32	2260.96
405.52	2197.47
405.73	2109.41
405.94	2162.66
406.15	2199.52
406.35	2324.44
406.56	2297.82
406.77	2256.86
406.98	2195.42
407.18	2152.42
407.39	2355.16
407.60	2179.04
407.80	2205.66
408.01	2127.84
408.22	2310.11
408.43	2174.94
408.63	2250.72
408.84	2215.90
409.05	2308.06
409.25	2127.84
409.46	2152.42
409.67	2244.57
409.88	2158.56
410.08	2215.90
410.29	2117.60
410.50	2263.01
410.70	2220.00
410.91	2109.41
411.12	2203.61
411.32	2250.72
411.53	2150.37
411.74	2250.72
411.95	2293.72
412.15	2330.59
412.36	2422.75
412.57	2242.53
412.77	2416.60
412.98	2222.05
413.19	2115.55
413.39	2254.81
413.60	2203.61
413.81	2324.44
414.01	2109.41
414.22	2248.67
414.43	2295.77
414.63	2205.66
414.84	2312.16
415.05	2146.27
415.25	2058.21
415.46	2269.15
415.67	2113.50
415.87	2258.91
416.08	2220.00
416.29	2054.11
416.49	2260.96
416.70	2146.27
416.91	2158.56
417.11	2109.41
417.32	2281.44
417.53	2265.05
417.73	2322.40
417.94	2170.85
418.15	2217.95
418.35	2226.14
418.56	2248.67
418.77	2375.64
418.97	2119.65
419.18	2119.65
419.38	2052.06
419.59	2170.85
419.80	2330.59
420.00	2158.56
420.21	2291.68
420.42	2400.22
420.62	2254.81
420.83	2121.70
421.04	2228.19
421.24	2162.66
421.45	2265.05
421.65	2217.95
421.86	2176.99
422.07	2226.14
422.27	2314.20
422.48	2170.85
422.69	2086.88
422.89	2154.46
423.10	2158.56
423.30	2105.31
423.51	2138.08
423.72	2211.81
423.92	2256.86
424.13	2101.22
424.33	2131.94
424.54	2226.14
424.75	2191.33
424.95	2377.69
425.16	2220.00
425.36	2136.03
425.57	2342.88
425.78	2174.94
425.98	2273.25
426.19	2121.70
426.39	2080.74
426.60	2189.28
426.81	2291.68
427.01	2242.53
427.22	2109.41
427.42	2095.07
427.63	2121.70
427.83	2213.85
428.04	2398.17
428.25	2271.20
428.45	2289.63
428.66	2303.96
428.86	2185.18
429.07	2142.18
429.28	2211.81
429.48	2113.50
429.69	2109.41
429.89	2265.05
430.10	2101.22
430.30	2338.78
430.51	2293.72
430.71	2125.79
430.92	2217.95
431.13	2172.89
431.33	2236.38
431.54	2224.09
431.74	2328.54
431.95	2363.36
432.15	2131.94
432.36	2263.01
432.56	2193.37
432.77	2328.54
432.98	2439.13
433.18	2283.49
433.39	2209.76
433.59	2213.85
433.80	2349.02
434.00	2398.17
434.21	2060.26
434.41	2111.46
434.62	2502.62
434.82	2047.97
435.03	2070.50
435.23	2226.14
435.44	2029.54
435.64	2174.94
435.85	2238.43
436.06	2224.09
436.26	2351.07
436.47	2203.61
436.67	2113.50
436.88	2179.04
437.08	2318.30
437.29	2301.92
437.49	2271.20
437.70	2252.77
437.90	2295.77
438.11	2326.49
438.31	2285.53
438.52	2445.27
438.72	2338.78
438.93	2478.04
439.13	2383.84
439.34	2303.96
439.54	2201.57
439.75	2297.82
439.95	2242.53
440.16	2131.94
440.36	2275.29
440.57	2312.16
440.77	2215.90
440.98	2287.58
441.18	2342.88
441.39	2105.31
441.59	2111.46
441.80	2297.82
442.00	2203.61
442.21	2310.11
442.41	2064.35
442.62	2336.73
442.82	2140.13
443.02	2191.33
443.23	2170.85
443.43	2111.46
443.64	2334.68
443.84	2215.90
444.05	2303.96
444.25	2201.57
444.46	2142.18
444.66	2179.04
444.87	2269.15
445.07	2086.88
445.28	2244.57
445.48	2326.49
445.69	2240.48
445.89	2400.22
446.09	2271.20
446.30	2428.89
446.50	2795.48
446.71	4476.86
446.91	5593.00
447.12	6379.42
447.32	6758.30
447.53	6242.21
447.73	5167.03
447.93	4528.06
448.14	4290.49
448.34	4030.40
448.55	3542.99
448.75	3538.89
448.96	3428.30
449.16	3010.51
449.36	2815.96
449.57	2508.76
449.77	2338.78
449.98	2170.85
450.18	2326.49
450.39	2265.05
450.59	2254.81
450.79	2269.15
451.00	2111.46
451.20	2291.68
451.41	2211.81
451.61	2232.29
451.81	2226.14
452.02	2052.06
452.22	2176.99
452.43	2166.75
452.63	2117.60
452.84	2213.85
453.04	2230.24
453.24	2267.10
453.45	2217.95
453.65	2195.42
453.86	2271.20
454.06	2232.29
454.26	2252.77
454.47	2095.07
454.67	2324.44
454.87	2267.10
455.08	2250.72
455.28	2320.35
455.49	2168.80
455.69	2121.70
455.89	2416.60
456.10	2312.16
456.30	2220.00
456.51	2265.05
456.71	2187.23
456.91	2203.61
457.12	2156.51
457.32	2232.29
457.52	2090.98
457.73	2310.11
457.93	2285.53
458.14	2125.79
458.34	2103.26
458.54	2197.47
458.75	2074.59
458.95	2377.69
459.15	2310.11
459.36	2142.18
459.56	2265.05
459.76	2457.56
459.97	2220.00
460.17	2250.72
460.37	2316.25
460.58	2217.95
460.78	2322.40
460.99	2166.75
461.19	2267.10
461.39	2154.46
461.60	2215.90
461.80	2265.05
462.00	2138.08
462.21	2244.57
462.41	2121.70
462.61	2107.36
462.82	2033.63
463.02	2220.00
463.22	2215.90
463.43	2336.73
463.63	2168.80
463.83	2351.07
464.04	2265.05
464.24	2070.50
464.44	2123.74
464.64	2248.67
464.85	2256.86
465.05	2299.87
465.25	2213.85
465.46	2185.18
465.66	2285.53
465.86	2324.44
466.07	2287.58
466.27	2238.43
466.47	2093.02
466.68	2101.22
466.88	2349.02
467.08	2252.77
467.29	2330.59
467.49	2287.58
467.69	2207.71
467.89	2291.68
468.10	2205.66
468.30	2220.00
468.50	2271.20
468.71	2351.07
468.91	2058.21
469.11	2289.63
469.31	2271.20
469.52	2168.80
469.72	2346.97
469.92	2398.17
470.13	2201.57
470.33	2213.85
470.53	2365.40
470.73	2617.30
470.94	3010.51
471.14	3219.41
471.34	3669.96
471.54	3520.46
471.75	3117.01
471.95	2811.86
472.15	2707.41
472.36	2832.34
472.56	2719.70
472.76	2768.85
472.96	2562.01
473.17	2527.19
473.37	2471.90
473.57	2240.48
473.77	2273.25
473.98	2193.37
474.18	2150.37
474.38	2475.99
474.58	2170.85
474.79	2121.70
474.99	2273.25
475.19	2269.15
475.39	2125.79
475.60	2185.18
475.80	2312.16
476.00	2271.20
476.20	2121.70
476.41	2277.34
476.61	2269.15
476.81	2357.21
477.01	2093.02
477.21	2357.21
477.42	2332.64
477.62	2043.87
477.82	2256.86
478.02	2168.80
478.23	2230.24
478.43	2111.46
478.63	2121.70
478.83	2252.77
479.03	2156.51
479.24	2346.97
479.44	2394.08
479.64	2138.08
479.84	2062.30
480.04	2160.61
480.25	2215.90
480.45	2174.94
480.65	2181.09
480.85	2314.20
481.06	2093.02
481.26	2252.77
481.46	2256.86
481.66	2297.82
481.86	2121.70
482.06	2367.45
482.27	2136.03
482.47	2248.67
482.67	2279.39
482.87	2191.33
483.07	2242.53
483.28	2191.33
483.48	2086.88
483.68	2168.80
483.88	2123.74
484.08	2027.49
484.29	2064.35
484.49	2179.04
484.69	2144.22
484.89	2359.26
485.09	2301.92
485.29	2236.38
485.50	2236.38
485.70	2217.95
485.90	2285.53
486.10	2252.77
486.30	2258.91
486.50	2340.83
486.71	2246.62
486.91	2316.25
487.11	2369.50
487.31	2031.58
487.51	2263.01
487.71	2058.21
487.91	2152.42
488.12	2109.41
488.32	1945.57
488.52	2136.03
488.72	2021.35
488.92	2203.61
489.12	2252.77
489.32	2285.53
489.53	2226.14
489.73	2080.74
489.93	2338.78
490.13	2174.94
490.33	2123.74
490.53	2166.75
490.73	2269.15
490.94	2113.50
491.14	2228.19
491.34	2322.40
491.54	2547.67
491.74	3215.31
491.94	3702.73
492.14	4112.32
492.34	4245.44
492.54	3844.04
492.75	3209.17
492.95	3170.26
493.15	2961.36
493.35	2908.12
493.55	2779.09
493.75	2639.83
493.95	2725.85
494.15	2465.75
494.35	2406.36
494.56	2312.16
494.76	2164.70
494.96	2295.77
495.16	2234.33
495.36	2174.94
495.56	2230.24
495.76	2160.61
495.96	2109.41
496.16	2201.57
496.36	2432.99
496.56	2164.70
496.77	2224.09
496.97	2195.42
497.17	2363.36
497.37	2142.18
497.57	2326.49
497.77	2189.28
497.97	2166.75
498.17	2230.24
498.37	2176.99
498.57	2215.90
498.77	2119.65
498.97	2293.72
499.17	2353.12
499.38	2258.91
499.58	2279.39
499.78	2322.40
499.98	2355.16
500.18	2144.22
500.38	2111.46
500.58	2375.64
500.78	2901.97
500.98	5285.81
501.18	7358.35
501.38	8914.81
501.58	10030.95
501.78	9715.56
501.98	7823.24
502.18	6477.73
502.38	5562.28
502.58	5267.38
502.78	4640.70
502.98	4526.01
503.18	4372.41
503.38	4005.83
503.59	3438.54
503.79	3217.36
503.99	2957.27
504.19	2934.74
504.39	2787.29
504.59	2969.55
504.79	2869.20
504.99	2824.15
505.19	2588.63
505.39	2439.13
505.59	2555.86
505.79	2570.20
505.99	2439.13
506.19	2195.42
506.39	2502.62
506.59	2260.96
506.79	2201.57
506.99	2363.36
507.19	2234.33
507.39	2316.25
507.59	2047.97
507.79	2152.42
507.99	2154.46
508.19	2277.34
508.39	2197.47
508.59	2138.08
508.79	2336.73
508.99	2430.94
509.19	2086.88
509.39	2263.01
509.59	2207.71
509.79	2252.77
509.99	2185.18
510.19	2289.63
510.39	2250.72
510.59	2232.29
510.79	2136.03
510.99	2080.74
511.19	2187.23
511.39	2394.08
511.59	2359.26
511.79	2258.91
511.99	2246.62
512.19	2385.88
512.38	2303.96
512.58	2144.22
512.78	2154.46
512.98	2291.68
513.18	2383.84
513.38	2002.91
513.58	2244.57
513.78	2250.72
513.98	2246.62
514.18	2109.41
514.38	2152.42
514.58	2263.01
514.78	2107.36
514.98	2152.42
515.18	2224.09
515.38	2113.50
515.58	2414.56
515.78	2090.98
515.98	2226.14
516.18	2146.27
516.38	2211.81
516.57	2115.55
516.77	2160.61
516.97	2267.10
517.17	2148.32
517.37	2064.35
517.57	2373.60
517.77	2195.42
517.97	2183.13
518.17	2281.44
518.37	2105.31
518.57	2224.09
518.77	2170.85
518.97	2181.09
519.16	2226.14
519.36	2291.68
519.56	2121.70
519.76	2226.14
519.96	2181.09
520.16	2410.46
520.36	2146.27
520.56	2281.44
520.76	2111.46
520.96	2166.75
521.16	2248.67
521.35	2291.68
521.55	2344.92
521.75	2293.72
521.95	2187.23
522.15	2176.99
522.35	2019.30
522.55	2244.57
522.75	2277.34
522.95	2185.18
523.14	2119.65
523.34	2260.96
523.54	2160.61
523.74	2277.34
523.94	2226.14
524.14	2144.22
524.34	2279.39
524.54	2310.11
524.73	2176.99
524.93	2334.68
525.13	2203.61
525.33	2121.70
525.53	2408.41
525.73	2330.59
525.93	2183.13
526.13	2129.89
526.32	2144.22
526.52	2310.11
526.72	2363.36
526.92	2183.13
527.12	2183.13
527.32	2047.97
527.52	2224.09
527.71	2236.38
527.91	2197.47
528.11	2113.50
528.31	2252.77
528.51	2086.88
528.71	2230.24
528.90	2172.89
529.10	2293.72
529.30	2236.38
529.50	1980.39
529.70	2222.05
529.90	2176.99
530.09	2140.13
530.29	2125.79
530.49	2039.78
530.69	2406.36
530.89	2228.19
531.09	2318.30
531.28	2260.96
531.48	2342.88
531.68	2236.38
531.88	2207.71
532.08	2326.49
532.28	2160.61
532.47	2240.48
532.67	2260.96
532.87	2265.05
533.07	2174.94
533.27	2357.21
533.46	2246.62
533.66	2248.67
533.86	2185.18
534.06	2281.44
534.26	2246.62
534.45	2193.37
534.65	2271.20
534.85	2248.67
535.05	2207.71
535.25	2277.34
535.44	2086.88
535.64	2289.63
535.84	2174.94
536.04	2142.18
536.24	2166.75
536.43	2168.80
536.63	2287.58
536.83	2082.78
537.03	2164.70
537.22	2080.74
537.42	2019.30
537.62	2230.24
537.82	2093.02
538.02	2308.06
538.21	2318.30
538.41	2439.13
538.61	2269.15
538.81	2215.90
539.00	2320.35
539.20	2121.70
539.40	2205.66
539.60	2287.58
539.79	2230.24
539.99	2260.96
540.19	2121.70
540.39	2187.23
540.58	2230.24
540.78	2291.68
540.98	2195.42
541.18	2273.25
541.37	2340.83
541.57	2213.85
541.77	2236.38
541.97	2111.46
542.16	2039.78
542.36	2162.66
542.56	2238.43
542.76	2375.64
542.95	2220.00
543.15	2285.53
543.35	2306.01
543.54	2127.84
543.74	2136.03
543.94	2318.30
544.14	2101.22
544.33	2222.05
544.53	2131.94
544.73	2246.62
544.93	2156.51
545.12	2193.37
545.32	2166.75
545.52	2162.66
545.71	2121.70
545.91	2179.04
546.11	2185.18
546.30	2117.60
546.50	2252.77
546.70	2203.61
546.90	2254.81
547.09	2111.46
547.29	2183.13
547.49	2324.44
547.68	2207.71
547.88	2162.66
548.08	2234.33
548.27	2746.33
548.47	2107.36
548.67	2117.60
548.87	2326.49
549.06	2170.85
549.26	2189.28
549.46	2271.20
549.65	2228.19
549.85	2183.13
550.05	2295.77
550.24	2090.98
550.44	2187.23
550.64	2246.62
550.83	2162.66
551.03	2271.20
551.23	2332.64
551.42	2269.15
551.62	2230.24
551.82	2207.71
552.01	2152.42
552.21	2330.59
552.41	2179.04
552.60	2338.78
552.80	2295.77
553.00	2123.74
553.19	2226.14
553.39	2306.01
553.59	2195.42
553.78	2179.04
553.98	2209.76
554.17	2015.20
554.37	2285.53
554.57	2283.49
554.76	2119.65
554.96	2215.90
555.16	2185.18
555.35	2256.86
555.55	2242.53
555.75	2183.13
555.94	2256.86
556.14	2121.70
556.33	2236.38
556.53	2191.33
556.73	2183.13
556.92	2275.29
557.12	2316.25
557.32	2293.72
557.51	2351.07
557.71	2265.05
557.90	2338.78
558.10	2410.46
558.30	2176.99
558.49	2195.42
558.69	2191.33
558.88	2424.80
559.08	2236.38
559.28	2197.47
559.47	2197.47
559.67	2279.39
559.86	2349.02
560.06	2197.47
560.26	2197.47
560.45	2213.85
560.65	2097.12
560.84	2240.48
561.04	2193.37
561.24	2226.14
561.43	2105.31
561.63	2435.03
561.82	2189.28
562.02	2215.90
562.22	2127.84
562.41	2064.35
562.61	2095.07
562.80	2154.46
563.00	2375.64
563.19	2248.67
563.39	2248.67
563.59	2267.10
563.78	2138.08
563.98	2088.93
564.17	2105.31
564.37	2082.78
564.56	2201.57
564.76	2084.83
564.96	2338.78
565.15	2187.23
565.35	2432.99
565.54	2209.76
565.74	2299.87
565.93	2269.15
566.13	2228.19
566.32	2244.57
566.52	2215.90
566.71	2228.19
566.91	2310.11
567.11	2242.53
567.30	2164.70
567.50	2179.04
567.69	2230.24
567.89	2209.76
568.08	2125.79
568.28	2283.49
568.47	2131.94
568.67	2199.52
568.86	2070.50
569.06	2277.34
569.25	2168.80
569.45	2152.42
569.64	2195.42
569.84	2185.18
570.04	2211.81
570.23	2107.36
570.43	2258.91
570.62	2289.63
570.82	2342.88
571.01	2097.12
571.21	2138.08
571.40	2107.36
571.60	2265.05
571.79	2222.05
571.99	2242.53
572.18	2119.65
572.38	2215.90
572.57	2201.57
572.77	2377.69
572.96	2465.75
573.16	2197.47
573.35	2197.47
573.55	2392.03
573.74	2174.94
573.94	2140.13
574.13	2168.80
574.33	2303.96
574.52	2361.31
574.71	2234.33
574.91	2312.16
575.10	2097.12
575.30	2265.05
575.49	2123.74
575.69	2150.37
575.88	2275.29
576.08	2142.18
576.27	2320.35
576.47	2224.09
576.66	2387.93
576.86	2383.84
577.05	2277.34
577.25	2224.09
577.44	2398.17
577.64	2129.89
577.83	2281.44
578.02	2244.57
578.22	2250.72
578.41	2355.16
578.61	2172.89
578.80	2068.45
579.00	2293.72
579.19	2277.34
579.39	2275.29
579.58	2297.82
579.77	2236.38
579.97	2392.03
580.16	2357.21
580.36	2338.78
580.55	2340.83
580.75	2349.02
580.94	2258.91
581.13	2367.45
581.33	2371.55
581.52	2306.01
581.72	2445.27
581.91	2418.65
582.11	2228.19
582.30	2367.45
582.49	2279.39
582.69	2355.16
582.88	2289.63
583.08	2330.59
583.27	2330.59
583.47	2220.00
583.66	2082.78
583.85	2119.65
584.05	2299.87
584.24	2365.40
584.44	2303.96
584.63	2349.02
584.82	2443.23
585.02	2416.60
585.21	2432.99
585.41	2400.22
585.60	2375.64
585.79	2490.33
585.99	2549.72
586.18	2496.47
586.37	2951.12
586.57	4415.42
586.76	13422.39
586.96	32359.95
587.15	46277.95
587.34	55342.26
587.54	60509.28
587.73	55956.65
587.93	39564.71
588.12	30129.72
588.31	23778.97
588.51	20623.05
588.70	19046.11
588.89	17426.17
589.09	15148.82
589.28	13068.09
589.47	10501.98
589.67	8320.90
589.86	6219.68
590.06	4624.31
590.25	3862.47
590.44	3293.13
590.64	2777.05
590.83	2596.82
591.02	2566.10
591.22	2312.16
591.41	2375.64
591.60	2293.72
591.80	2545.63
591.99	2201.57
592.18	2228.19
592.38	2334.68
592.57	2197.47
592.76	2275.29
592.96	2267.10
593.15	2195.42
593.34	2389.98
593.54	2220.00
593.73	2332.64
593.92	2301.92
594.12	2306.01
594.31	2316.25
594.50	2363.36
594.70	2349.02
594.89	2529.24
595.08	2162.66
595.28	2308.06
595.47	2545.63
595.66	2334.68
595.86	2095.07
596.05	2254.81
596.24	2125.79
596.43	2451.42
596.63	2346.97
596.82	2326.49
597.01	2310.11
597.21	2383.84
597.40	2326.49
597.59	2289.63
597.79	2244.57
597.98	2310.11
598.17	2301.92
598.36	2252.77
598.56	2267.10
598.75	2181.09
598.94	2226.14
599.14	2275.29
599.33	2291.68
599.52	2279.39
599.71	2275.29
599.91	2349.02
600.10	2351.07
600.29	2248.67
600.48	2326.49
600.68	2209.76
600.87	2250.72
601.06	2146.27
601.26	2189.28
601.45	2318.30
601.64	2236.38
601.83	2324.44
602.03	2117.60
602.22	2123.74
602.41	2316.25
602.60	2453.47
602.80	2295.77
602.99	2217.95
603.18	2199.52
603.37	2176.99
603.57	2324.44
603.76	2256.86
603.95	2357.21
604.14	2072.54
604.34	2170.85
604.53	2258.91
604.72	2189.28
604.91	2287.58
605.10	2277.34
605.30	2103.26
605.49	2424.80
605.68	2277.34
605.87	2267.10
606.07	2090.98
606.26	2246.62
606.45	2199.52
606.64	2301.92
606.84	2154.46
607.03	2195.42
607.22	2322.40
607.41	2181.09
607.60	2314.20
607.80	2351.07
607.99	2215.90
608.18	2158.56
608.37	2263.01
608.56	2107.36
608.76	2365.40
608.95	2441.18
609.14	2314.20
609.33	2408.41
609.52	2381.79
609.72	2361.31
609.91	2377.69
610.10	2281.44
610.29	2441.18
610.48	2340.83
610.68	2263.01
610.87	2250.72
611.06	2301.92
611.25	2183.13
611.44	2320.35
611.63	2174.94
611.83	2369.50
612.02	2138.08
612.21	2306.01
612.40	2047.97
612.59	2168.80
612.79	2129.89
612.98	2242.53
613.17	2353.12
613.36	2228.19
613.55	2420.70
613.74	2322.40
613.93	2432.99
614.13	2447.32
614.32	2471.90
614.51	2514.91
614.70	2174.94
614.89	2256.86
615.08	2334.68
615.28	2703.32
615.47	2170.85
615.66	2394.08
615.85	2293.72
616.04	2355.16
616.23	2242.53
616.42	2301.92
616.62	2326.49
616.81	2236.38
617.00	2215.90
617.19	2275.29
617.38	2164.70
617.57	2258.91
617.76	2301.92
617.95	2299.87
618.15	2283.49
618.34	2377.69
618.53	2111.46
618.72	2363.36
618.91	2396.12
619.10	2355.16
619.29	2226.14
619.48	2123.74
619.68	2158.56
619.87	2230.24
620.06	2129.89
620.25	2281.44
620.44	2187.23
620.63	2172.89
620.82	2187.23
621.01	2281.44
621.20	2248.67
621.39	2244.57
621.59	2297.82
621.78	2168.80
621.97	2228.19
622.16	2236.38
622.35	2242.53
622.54	2312.16
622.73	2332.64
622.92	2058.21
623.11	2269.15
623.30	2195.42
623.49	2246.62
623.68	2154.46
623.88	2381.79
624.07	2203.61
624.26	2164.70
624.45	2207.71
624.64	2154.46
624.83	2211.81
625.02	2220.00
625.21	2140.13
625.40	2234.33
625.59	2328.54
625.78	2209.76
625.97	2355.16
626.16	2402.27
626.35	2310.11
626.54	2293.72
626.74	2430.94
626.93	2232.29
627.12	2191.33
627.31	2365.40
627.50	2283.49
627.69	2293.72
627.88	2113.50
628.07	2168.80
628.26	2090.98
628.45	2168.80
628.64	2115.55
628.83	2287.58
629.02	2086.88
629.21	2308.06
629.40	2203.61
629.59	2174.94
629.78	2181.09
629.97	2174.94
630.16	2197.47
630.35	2191.33
630.54	2258.91
630.73	2113.50
630.92	2199.52
631.11	2119.65
631.30	2189.28
631.49	2267.10
631.68	2217.95
631.87	2271.20
632.06	2109.41
632.25	2482.14
632.44	2195.42
632.63	2381.79
632.82	2338.78
633.01	2322.40
633.20	2316.25
633.39	2240.48
633.58	2138.08
633.77	2164.70
633.96	2297.82
634.15	2306.01
634.34	2316.25
634.53	2258.91
634.72	2240.48
634.91	2064.35
635.10	2334.68
635.29	2330.59
635.48	2224.09
635.67	2105.31
635.86	2119.65
636.05	2324.44
636.24	2142.18
636.43	2308.06
636.62	2246.62
636.81	1980.39
637.00	2201.57
637.19	2183.13
637.38	2217.95
637.57	2197.47
637.76	2271.20
637.95	2301.92
638.14	2250.72
638.33	2346.97
638.52	2283.49
638.71	2154.46
638.89	2199.52
639.08	2496.47
639.27	2306.01
639.46	2494.43
639.65	2865.11
639.84	2908.12
640.03	3108.82
640.22	2953.17
640.41	2994.13
640.60	2527.19
640.79	2535.39
640.98	2486.23
641.17	2416.60
641.36	2453.47
641.55	2478.04
641.74	2207.71
641.92	2174.94
642.11	2179.04
642.30	2258.91
642.49	2250.72
642.68	2220.00
642.87	2318.30
643.06	2258.91
643.25	2170.85
643.44	2168.80
643.63	2226.14
643.82	2297.82
644.00	2056.16
644.19	2176.99
644.38	2121.70
644.57	2324.44
644.76	2162.66
644.95	2193.37
645.14	2220.00
645.33	2154.46
645.52	2203.61
645.71	2095.07
645.89	2084.83
646.08	2127.84
646.27	2133.98
646.46	2369.50
646.65	2064.35
646.84	2211.81
647.03	2047.97
647.22	2277.34
647.40	2209.76
647.59	2154.46
647.78	2011.11
647.97	2121.70
648.16	2150.37
648.35	2371.55
648.54	2332.64
648.73	2248.67
648.91	2338.78
649.10	2236.38
649.29	2111.46
649.48	2250.72
649.67	2244.57
649.86	2281.44
650.05	2301.92
650.23	2553.82
650.42	2291.68
650.61	2496.47
650.80	2373.60
650.99	2441.18
651.18	2371.55
651.36	2394.08
651.55	2246.62
651.74	2363.36
651.93	2133.98
652.12	2170.85
652.31	2220.00
652.49	2150.37
652.68	2226.14
652.87	2324.44
653.06	2244.57
653.25	2332.64
653.44	2127.84
653.62	2406.36
653.81	2162.66
654.00	2254.81
654.19	2254.81
654.38	2457.56
654.56	2265.05
654.75	2179.04
654.94	2361.31
655.13	2246.62
655.32	2187.23
655.51	2310.11
655.69	2097.12
655.88	2299.87
656.07	2097.12
656.26	2217.95
656.45	2127.84
656.63	2246.62
656.82	2265.05
657.01	2265.05
657.20	2146.27
657.38	2461.66
657.57	2174.94
657.76	1994.72
657.95	2318.30
658.14	2086.88
658.32	2269.15
658.51	2031.58
658.70	2265.05
658.89	2244.57
659.08	2189.28
659.26	2439.13
659.45	2230.24
659.64	2281.44
659.83	2148.32
660.01	2598.87
660.20	2279.39
660.39	2398.17
660.58	2054.11
660.76	2301.92
660.95	2095.07
661.14	2228.19
661.33	2150.37
661.51	2140.13
661.70	2209.76
661.89	2260.96
662.08	2119.65
662.26	2074.59
662.45	2162.66
662.64	2445.27
662.83	2344.92
663.01	2103.26
663.20	2152.42
663.39	2355.16
663.58	2220.00
663.76	2203.61
663.95	2224.09
664.14	2144.22
664.32	2154.46
664.51	2111.46
664.70	2060.26
664.89	2224.09
665.07	2070.50
665.26	2367.45
665.45	2045.92
665.64	2193.37
665.82	2277.34
666.01	2246.62
666.20	2037.73
666.38	2316.25
666.57	2310.11
666.76	3297.23
666.95	8056.71
667.13	16357.13
667.32	22085.30
667.51	25624.18
667.69	27553.37
667.88	25550.46
668.07	18210.54
668.25	14483.24
668.44	11794.25
668.63	10307.43
668.81	8970.10
669.00	8034.18
669.19	7116.69
669.38	6150.05
669.56	5226.42
669.75	4452.28
669.94	3641.29
670.12	3104.72
670.31	2725.85
670.50	2609.11
670.68	2482.14
670.87	2359.26
671.06	2295.77
671.24	2316.25
671.43	2398.17
671.62	2344.92
671.80	2183.13
671.99	2260.96
672.18	2275.29
672.36	2250.72
672.55	2263.01
672.74	2195.42
672.92	2224.09
673.11	2332.64
673.29	2062.30
673.48	2250.72
673.67	2170.85
673.85	2293.72
674.04	2158.56
674.23	2213.85
674.41	2369.50
674.60	2164.70
674.79	2056.16
674.97	2076.64
675.16	2197.47
675.34	2314.20
675.53	2152.42
675.72	2232.29
675.90	2310.11
676.09	2252.77
676.28	2277.34
676.46	2015.20
676.65	2283.49
676.83	2099.17
677.02	2283.49
677.21	2250.72
677.39	2228.19
677.58	2133.98
677.77	2162.66
677.95	2058.21
678.14	2224.09
678.32	2109.41
678.51	2156.51
678.70	2414.56
678.88	2166.75
679.07	2297.82
679.25	2193.37
679.44	2183.13
679.63	2084.83
679.81	2269.15
680.00	2338.78
680.18	2281.44
680.37	2326.49
680.55	2193.37
680.74	2152.42
680.93	2027.49
681.11	2260.96
681.30	2156.51
681.48	2160.61
681.67	2176.99
681.85	2244.57
682.04	2093.02
682.23	2297.82
682.41	2205.66
682.60	2197.47
682.78	2199.52
682.97	2121.70
683.15	2275.29
683.34	2176.99
683.53	2375.64
683.71	2029.54
683.90	2332.64
684.08	2326.49
684.27	2150.37
684.45	2277.34
684.64	2371.55
684.82	2250.72
685.01	2217.95
685.19	2195.42
685.38	2308.06
685.57	2224.09
685.75	2156.51
685.94	2154.46
686.12	2166.75
686.31	2136.03
686.49	2381.79
686.68	2097.12
686.86	2252.77
687.05	2209.76
687.23	2377.69
687.42	2142.18
687.60	2041.82
687.79	2281.44
687.97	2314.20
688.16	2252.77
688.34	2297.82
688.53	2000.87
688.71	2248.67
688.90	2342.88
689.08	2176.99
689.27	2031.58
689.45	2299.87
689.64	2310.11
689.82	2301.92
690.01	2289.63
690.19	2226.14
690.38	2226.14
690.56	2361.31
690.75	2088.93
690.93	2197.47
691.12	2199.52
691.30	2189.28
691.49	2224.09
691.67	2213.85
691.86	2455.51
692.04	2166.75
692.23	2136.03
692.41	2220.00
692.60	2435.03
692.78	2381.79
692.97	2256.86
693.15	2336.73
693.34	2375.64
693.52	2353.12
693.71	2197.47
693.89	2183.13
694.08	2052.06
694.26	2256.86
694.44	2285.53
694.63	2277.34
694.81	2127.84
695.00	2125.79
695.18	2295.77
695.37	2428.89
695.55	2226.14
695.74	2170.85
695.92	2160.61
696.10	2375.64
696.29	2047.97
696.47	2154.46
696.66	1961.95
696.84	2078.69
697.03	2164.70
697.21	2400.22
697.40	3157.97
697.58	2318.30
697.76	2158.56
697.95	2097.12
698.13	2103.26
698.32	2154.46
698.50	2224.09
698.68	2275.29
698.87	2236.38
699.05	2306.01
699.24	2220.00
699.42	2043.87
699.61	2224.09
699.79	2220.00
699.97	2191.33
700.16	2103.26
700.34	2170.85
700.53	2269.15
700.71	2371.55
700.89	2312.16
701.08	2154.46
701.26	2215.90
701.45	2789.33
701.63	2121.70
701.81	2183.13
702.00	2093.02
702.18	2187.23
702.37	2181.09
702.55	2494.43
702.73	2441.18
702.92	2365.40
703.10	2541.53
703.28	2514.91
703.47	2224.09
703.65	2404.32
703.84	2428.89
704.02	2265.05
704.20	2455.51
704.39	2293.72
704.57	2297.82
704.75	2383.84
704.94	2228.19
705.12	2291.68
705.30	2504.67
705.49	4517.82
705.67	10919.77
705.86	20131.53
706.04	24518.28
706.22	27833.94
706.41	29419.07
706.59	25132.67
706.77	17862.38
706.96	14769.95
707.14	12781.37
707.32	11099.99
707.51	9830.25
707.69	8214.40
707.87	6354.85
708.06	5138.35
708.24	4149.18
708.42	3278.80
708.61	3092.43
708.79	2488.28
708.97	2361.31
709.16	2398.17
709.34	2256.86
709.52	2138.08
709.71	2203.61
709.89	2228.19
710.07	2162.66
710.26	2144.22
710.44	2168.80
710.62	2283.49
710.80	2084.83
710.99	2265.05
711.17	2320.35
711.35	2113.50
711.54	2043.87
711.72	2324.44
711.90	2277.34
712.09	2166.75
712.27	2150.37
712.45	2166.75
712.63	2164.70
712.82	2189.28
713.00	2224.09
713.18	2234.33
713.37	2299.87
713.55	2244.57
713.73	2240.48
713.91	2269.15
714.10	2189.28
714.28	2277.34
714.46	2228.19
714.65	2193.37
714.83	2203.61
715.01	2224.09
715.19	2111.46
715.38	2062.30
715.56	2199.52
715.74	2088.93
715.92	2179.04
716.11	2306.01
716.29	2054.11
716.47	2156.51
716.65	2217.95
716.84	2060.26
717.02	2281.44
717.20	2019.30
717.38	2062.30
717.57	2248.67
717.75	2312.16
717.93	2209.76
718.11	2226.14
718.30	2162.66
718.48	2187.23
718.66	2312.16
718.84	2254.81
719.03	2144.22
719.21	2043.87
719.39	2281.44
719.57	2267.10
719.75	2306.01
719.94	2080.74
720.12	2129.89
720.30	2234.33
720.48	2244.57
720.67	2150.37
720.85	2174.94
721.03	2168.80
721.21	2121.70
721.39	2355.16
721.58	2211.81
721.76	2230.24
721.94	2256.86
722.12	2179.04
722.30	2344.92
722.49	2166.75
722.67	2234.33
722.85	2273.25
723.03	2125.79
723.21	2078.69
723.40	2230.24
723.58	2330.59
723.76	2220.00
723.94	2396.12
724.12	2283.49
724.30	2461.66
724.49	2299.87
724.67	2062.30
724.85	2351.07
725.03	2068.45
725.21	2295.77
725.40	2351.07
725.58	2185.18
725.76	2363.36
725.94	2279.39
726.12	2105.31
726.30	2273.25
726.49	2127.84
726.67	2125.79
726.85	2277.34
727.03	2465.75
727.21	3727.30
727.39	5562.28
727.57	6668.19
727.76	7272.34
727.94	7706.51
728.12	7241.62
728.30	5955.49
728.48	4997.04
728.66	4464.57
728.84	4120.51
729.03	3420.11
729.21	3102.67
729.39	2793.43
729.57	2449.37
729.75	2385.88
729.93	2385.88
730.11	2144.22
730.30	2220.00
730.48	2228.19
730.66	2308.06
730.84	2269.15
731.02	2228.19
731.20	2127.84
731.38	2248.67
731.56	2082.78
731.74	2099.17
731.93	2277.34
732.11	2176.99
732.29	2189.28
732.47	2285.53
732.65	2260.96
732.83	2326.49
733.01	2224.09
733.19	2070.50
733.37	2273.25
733.56	2260.96
733.74	2199.52
733.92	2312.16
734.10	2158.56
734.28	2310.11
734.46	2019.30
734.64	2193.37
734.82	2129.89
735.00	2138.08
735.18	2201.57
735.36	2281.44
735.54	2181.09
735.73	2250.72
735.91	2236.38
736.09	2220.00
736.27	2211.81
736.45	2244.57
736.63	2058.21
736.81	2172.89
736.99	2330.59
737.17	2349.02
737.35	2166.75
737.53	2236.38
737.71	2154.46
737.89	2291.68
738.07	2127.84
738.25	2146.27
738.43	2097.12
738.61	2140.13
738.80	2123.74
738.98	2193.37
739.16	2127.84
739.34	2125.79
739.52	2217.95
739.70	2226.14
739.88	2228.19
740.06	2267.10
740.24	2041.82
740.42	2316.25
740.60	2119.65
740.78	2228.19
740.96	2041.82
741.14	2183.13
741.32	2183.13
741.50	2062.30
741.68	2408.41
741.86	2301.92
742.04	2111.46
742.22	2150.37
742.40	2185.18
742.58	2240.48
742.76	2127.84
742.94	2260.96
743.12	2035.68
743.30	2215.90
743.48	2265.05
743.66	2140.13
743.84	2250.72
744.02	2146.27
744.20	2179.04
744.38	2103.26
744.56	2099.17
744.74	2320.35
744.92	2303.96
745.10	2328.54
745.28	2265.05
745.46	2318.30
745.64	2131.94
745.82	2326.49
746.00	2172.89
746.18	2129.89
746.36	2154.46
746.54	2191.33
746.72	2242.53
746.90	2154.46
747.08	2346.97
747.26	2193.37
747.44	2256.86
747.62	2277.34
747.80	2236.38
747.98	2295.77
748.15	2164.70
748.33	2398.17
748.51	2273.25
748.69	2170.85
748.87	2095.07
749.05	2170.85
749.23	2185.18
749.41	2240.48
749.59	2197.47
749.77	2334.68
749.95	2181.09
750.13	2209.76
750.31	2174.94
750.49	2287.58
750.67	2326.49
750.85	2324.44
751.03	2230.24
751.20	2457.56
751.38	2213.85
751.56	2144.22
751.74	2250.72
751.92	2090.98
752.10	2080.74
752.28	2285.53
752.46	2168.80
752.64	2119.65
752.82	2195.42
753.00	2281.44
753.18	2195.42
753.35	2160.61
753.53	2242.53
753.71	2142.18
753.89	2256.86
754.07	2220.00
754.25	2281.44
754.43	2244.57
754.61	2039.78
754.79	2222.05
754.97	2232.29
755.14	2316.25
755.32	2068.45
755.50	2172.89
755.68	2160.61
755.86	2045.92
756.04	2146.27
756.22	2039.78
756.40	2260.96
756.57	2271.20
756.75	2127.84
756.93	2281.44
757.11	2254.81
757.29	2086.88
757.47	2052.06
757.65	2013.15
757.82	1982.43
758.00	2127.84
758.18	2064.35
758.36	2133.98
758.54	2373.60
758.72	2148.32
758.90	2369.50
759.07	2273.25
759.25	2152.42
759.43	2197.47
759.61	2101.22
759.79	2996.18
759.97	2326.49
760.15	2138.08
760.32	2095.07
760.50	2144.22
760.68	2416.60
760.86	2086.88
761.04	2357.21
761.22	2217.95
761.39	2193.37
761.57	2271.20
761.75	2154.46
761.93	2217.95
762.11	2150.37
762.28	2187.23
762.46	2107.36
762.64	2220.00
762.82	2133.98
763.00	2174.94
763.18	2322.40
763.35	2168.80
763.53	2220.00
763.71	2111.46
763.89	2146.27
764.07	2150.37
764.24	2220.00
764.42	2260.96
764.60	2203.61
764.78	2203.61
764.96	2224.09
765.13	2275.29
765.31	2152.42
765.49	2236.38
765.67	2064.35
765.84	2082.78
766.02	2199.52
766.20	2011.11
766.38	2242.53
766.56	2191.33
766.73	2252.77
766.91	2183.13
767.09	2144.22
767.27	2281.44
767.44	2146.27
767.62	2269.15
767.80	2224.09
767.98	2064.35
768.15	2217.95
768.33	2242.53
768.51	2314.20
768.69	2297.82
768.87	2144.22
769.04	2154.46
769.22	2402.27
769.40	2289.63
769.58	2381.79
769.75	2252.77
769.93	2271.20
770.11	2142.18
770.28	2154.46
770.46	2228.19
770.64	2222.05
770.82	2170.85
770.99	2193.37
771.17	2285.53
771.35	2209.76
771.53	2088.93
771.70	2174.94
771.88	2230.24
772.06	2191.33
772.23	2093.02
772.41	2224.09
772.59	2185.18
772.77	2103.26
772.94	2138.08
773.12	2211.81
773.30	2142.18
773.47	2228.19
773.65	2119.65
773.83	2308.06
774.01	2187.23
774.18	2013.15
774.36	2168.80
774.54	2054.11
774.71	2281.44
774.89	2039.78
775.07	2076.64
775.24	2056.16
775.42	2101.22
775.60	2459.61
775.78	2097.12
775.95	2125.79
776.13	2043.87
776.31	1949.67
776.48	2256.86
776.66	2260.96
776.84	2127.84
777.01	2152.42
777.19	2127.84
777.37	2080.74
777.54	2234.33
777.72	2367.45
777.90	2220.00
778.07	2172.89
778.25	2443.23
778.43	2234.33
778.60	2109.41
778.78	2174.94
778.96	2250.72
779.13	2113.50
779.31	2314.20
779.49	2211.81
779.66	2174.94
779.84	2146.27
780.01	2138.08
780.19	2154.46
780.37	2308.06
780.54	2203.61
780.72	2090.98
780.90	2162.66
781.07	2226.14
781.25	2150.37
781.43	2244.57
781.60	2136.03
781.78	2334.68
781.95	2252.77
782.13	2136.03
782.31	2154.46
782.48	2084.83
782.66	2142.18
782.83	2342.88
783.01	2213.85
783.19	2277.34
783.36	2187.23
783.54	2019.30
783.72	2312.16
783.89	2228.19
784.07	2228.19
784.24	2142.18
784.42	2289.63
784.60	2127.84
784.77	2224.09
784.95	1959.91
785.12	2101.22
785.30	2228.19
785.47	2105.31
785.65	2121.70
785.83	2166.75
786.00	2185.18
786.18	2158.56
786.35	2105.31
786.53	2170.85
786.71	2301.92
786.88	2293.72
787.06	2238.43
787.23	2168.80
787.41	2123.74
787.58	2215.90
787.76	2093.02
787.94	2220.00
788.11	2336.73
788.29	2084.83
788.46	2099.17
788.64	2080.74
788.81	2183.13
788.99	2150.37
789.16	2129.89
789.34	2193.37
789.52	2162.66
789.69	2086.88
789.87	1943.52
790.04	2088.93
790.22	2191.33
790.39	2367.45
790.57	2095.07
790.74	2119.65
790.92	2271.20
791.09	1998.82
791.27	2172.89
791.44	2361.31
791.62	2195.42
791.79	2293.72
791.97	2183.13
792.15	2465.75
792.32	2258.91
792.50	2330.59
792.67	2363.36
792.85	2344.92
793.02	2297.82
793.20	2170.85
793.37	2101.22
793.55	2109.41
793.72	2162.66
793.90	2293.72
794.07	2072.54
794.25	2076.64
794.42	2146.27
794.60	2228.19
794.77	2252.77
794.95	2277.34
795.12	2303.96
795.30	2195.42
795.47	2054.11
795.65	2432.99
795.82	2189.28
796.00	2105.31
796.17	2172.89
796.34	2146.27
796.52	2260.96
796.69	2263.01
796.87	2224.09
797.04	2226.14
797.22	2191.33
797.39	2191.33
797.57	2293.72
797.74	2252.77
797.92	2168.80
798.09	2090.98
798.27	2285.53
798.44	2142.18
798.62	2138.08
798.79	2269.15
798.96	2176.99
799.14	2168.80
799.31	2404.32
799.49	2187.23
799.66	2152.42
799.84	2162.66
800.01	2080.74
800.19	2189.28
800.36	2070.50
800.53	2203.61
800.71	2260.96
800.88	2322.40
801.06	2082.78
801.23	2125.79
801.41	2238.43
801.58	2125.79
801.75	2160.61
801.93	2213.85
802.10	2256.86
802.28	2121.70
802.45	2183.13
802.63	2238.43
802.80	2318.30
802.97	2076.64
803.15	2252.77
803.32	2195.42
803.50	2121.70
803.67	2121.70
803.84	2117.60
804.02	2168.80
804.19	2185.18
804.37	2015.20
804.54	2045.92
804.71	2152.42
804.89	2162.66
805.06	2150.37
805.24	2148.32
805.41	2031.58
805.58	2117.60
805.76	2445.27
805.93	2238.43
806.10	2340.83
806.28	2258.91
806.45	2242.53
806.63	2164.70
806.80	2260.96
806.97	2217.95
807.15	2205.66
807.32	2193.37
807.49	2217.95
807.67	2121.70
807.84	2263.01
808.01	2064.35
808.19	2351.07
808.36	2437.08
808.54	2101.22
808.71	2111.46
808.88	2150.37
809.06	2316.25
809.23	2275.29
809.40	2125.79
809.58	2250.72
809.75	2211.81
809.92	2080.74
810.10	2361.31
810.27	2256.86
810.44	2220.00
810.62	2267.10
810.79	2179.04
810.96	2138.08
811.14	2144.22
811.31	2240.48
811.48	2316.25
811.66	2152.42
811.83	2301.92
812.00	2170.85
812.18	2256.86
812.35	2426.84
812.52	2144.22
812.69	2166.75
812.87	2140.13
813.04	2105.31
813.21	2179.04
813.39	2146.27
813.56	2103.26
813.73	2301.92
813.91	2064.35
814.08	2191.33
814.25	2174.94
814.42	2064.35
814.60	2117.60
814.77	2119.65
814.94	2187.23
815.12	2121.70
815.29	2285.53
815.46	2205.66
815.63	2117.60
815.81	2162.66
815.98	2197.47
816.15	2166.75
816.33	2193.37
816.50	2152.42
816.67	2181.09
816.84	2119.65
817.02	2140.13
817.19	2193.37
817.36	2240.48
817.53	2220.00
817.71	2070.50
817.88	2252.77
818.05	2148.32
818.22	2099.17
818.40	2340.83
818.57	2086.88
818.74	2260.96
818.91	2183.13
819.09	2220.00
819.26	2322.40
819.43	2127.84
819.60	2068.45
819.78	2226.14
819.95	2222.05
820.12	2023.39
820.29	2289.63
820.47	2269.15
820.64	2172.89
820.81	2029.54
820.98	2117.60
821.15	2205.66
821.33	2267.10
821.50	2047.97
821.67	2226.14
821.84	2105.31
822.02	2256.86
822.19	2260.96
822.36	2160.61
822.53	2105.31
822.70	2086.88
822.88	2138.08
823.05	2316.25
823.22	2185.18
823.39	2283.49
823.56	2176.99
823.74	2412.51
823.91	2029.54
824.08	2097.12
824.25	2152.42
824.42	2387.93
824.60	2037.73
824.77	2203.61
824.94	2146.27
825.11	2285.53
825.28	2133.98
825.45	2187.23
825.63	2158.56
825.80	2080.74
825.97	2187.23
826.14	2179.04
826.31	2119.65
826.48	2310.11
826.66	2076.64
826.83	2111.46
827.00	2252.77
827.17	2103.26
827.34	2203.61
827.51	2117.60
827.69	2127.84
827.86	1988.58
828.03	2211.81
828.20	2205.66
828.37	2064.35
828.54	2220.00
828.71	2074.59
828.89	2275.29
829.06	2129.89
829.23	2281.44
829.40	2129.89
829.57	2199.52
829.74	2224.09
829.91	2154.46
830.09	2152.42
830.26	2271.20
830.43	2355.16
830.60	2170.85
830.77	2183.13
830.94	2269.15
831.11	2322.40
831.28	2277.34
831.46	2328.54
831.63	2078.69
831.80	2263.01
831.97	2164.70
832.14	2201.57
832.31	2140.13
832.48	2125.79
832.65	2277.34
832.82	2209.76
832.99	2174.94
833.17	2129.89
833.34	2334.68
833.51	2230.24
833.68	1990.63
833.85	2310.11
834.02	2109.41
834.19	2062.30
834.36	2031.58
834.53	2193.37
834.70	2267.10
834.87	2224.09
835.04	2174.94
835.22	2123.74
835.39	2189.28
835.56	2023.39
835.73	2144.22
835.90	2344.92
836.07	2062.30
836.24	2203.61
836.41	2072.54
836.58	2043.87
836.75	2330.59
836.92	2193.37
837.09	2111.46
837.26	2252.77
837.43	2260.96
837.60	2228.19
837.77	2121.70
837.94	2236.38
838.12	2322.40
838.29	2113.50
838.46	2052.06
838.63	2047.97
838.80	2344.92
838.97	2273.25
839.14	2142.18
839.31	2209.76
839.48	2252.77
839.65	2150.37
839.82	2234.33
839.99	2285.53
840.16	2179.04
840.33	2140.13
840.50	2138.08
840.67	2050.02
840.84	2013.15
841.01	2095.07
841.18	2070.50
841.35	2215.90
841.52	2205.66
841.69	2375.64
841.86	2217.95
842.03	2215.90
842.20	2252.77
842.37	2121.70
842.54	2154.46
842.71	2125.79
842.88	2160.61
843.05	2172.89
843.22	2084.83
843.39	2308.06
843.56	2099.17
843.73	2107.36
843.90	2080.74
844.07	2113.50
844.24	2258.91
844.41	2146.27
844.58	2185.18
844.75	2123.74
844.92	2195.42
845.09	2129.89
845.26	2097.12
845.43	2263.01
845.60	2185.18
845.77	2215.90
845.94	2197.47
846.10	2207.71
846.27	2076.64
846.44	2160.61
846.61	1996.77
846.78	2191.33
846.95	2279.39
847.12	2113.50
847.29	2203.61
847.46	2152.42
847.63	2263.01
847.80	2119.65
847.97	2121.70
848.14	2346.97
848.31	2203.61
848.48	2058.21
848.65	2199.52
848.82	2043.87
848.98	2394.08
849.15	2205.66
849.32	2207.71
849.49	2248.67
849.66	2127.84
849.83	2179.04
850.00	2088.93
850.17	2121.70
850.34	2170.85
850.51	2162.66
850.68	2103.26
850.85	2338.78
851.01	2187.23
851.18	2209.76
851.35	2129.89
851.52	2252.77
851.69	2283.49
851.86	2027.49
852.03	2176.99
852.20	2314.20
852.37	2191.33
852.53	2082.78
852.70	2129.89
852.87	2199.52
853.04	2310.11
853.21	2172.89
853.38	2289.63
853.55	2306.01
853.72	2256.86
853.89	2097.12
854.05	2088.93
854.22	2111.46
854.39	2121.70
854.56	2185.18
854.73	2369.50
854.90	2088.93
855.07	2224.09
855.23	2113.50
855.40	2140.13
855.57	2179.04
855.74	1996.77
855.91	2342.88
856.08	2068.45
856.25	2078.69
856.41	2162.66
856.58	2152.42
856.75	2131.94
856.92	2101.22
857.09	2263.01
857.26	1980.39
857.42	2199.52
857.59	2244.57
857.76	2133.98
857.93	2162.66
858.10	2164.70
858.27	2047.97
858.43	2236.38
858.60	2078.69
858.77	2017.25
858.94	2256.86
859.11	2330.59
859.27	2095.07
859.44	2064.35
859.61	2404.32
859.78	2220.00
859.95	2070.50
860.12	2031.58
860.28	2293.72
860.45	2314.20
860.62	2041.82
860.79	2199.52
860.95	2168.80
861.12	2121.70
861.29	2097.12
861.46	2052.06
861.63	2220.00
861.79	2203.61
861.96	2088.93
862.13	2119.65
862.30	2273.25
862.47	2125.79
862.63	2082.78
862.80	2279.39
862.97	2306.01
863.14	2220.00
863.30	2226.14
863.47	2140.13
863.64	2308.06
863.81	2187.23
863.97	2080.74
864.14	2250.72
864.31	2138.08
864.48	2230.24
864.65	2162.66
864.81	2230.24
864.98	2256.86
865.15	2236.38
865.32	2168.80
865.48	2254.81
865.65	2375.64
865.82	2107.36
865.98	2142.18
866.15	2252.77
866.32	2095.07
866.49	2170.85
866.65	2244.57
866.82	2166.75
866.99	2082.78
867.16	2138.08
867.32	2150.37
867.49	2088.93
867.66	2088.93
867.83	2160.61
867.99	2037.73
868.16	2142.18
868.33	2004.96
868.49	2152.42
868.66	2113.50
868.83	2179.04
868.99	2195.42
869.16	2222.05
869.33	2207.71
869.50	2162.66
869.66	2172.89
869.83	2238.43
870.00	2035.68
870.16	2156.51
870.33	2183.13
870.50	2273.25
870.66	2179.04
870.83	2242.53
871.00	2224.09
871.17	2234.33
871.33	2246.62
871.50	2195.42
871.67	2172.89
871.83	2080.74
872.00	2306.01
872.17	2187.23
872.33	2289.63
872.50	2363.36
872.67	2152.42
872.83	2080.74
873.00	2193.37
873.17	2199.52
873.33	2252.77
873.50	2236.38
873.67	2072.54
873.83	2080.74
874.00	2158.56
874.16	2179.04
874.33	2226.14
874.50	2086.88
874.66	2138.08
874.83	2125.79
875.00	2275.29
875.16	2285.53
875.33	2215.90
875.50	1949.67
875.66	2154.46
875.83	2203.61
875.99	2146.27
876.16	2189.28
876.33	2101.22
876.49	2205.66
876.66	2183.13
876.83	2136.03
876.99	2105.31
877.16	2113.50
877.32	2168.80
877.49	2162.66
877.66	2234.33
877.82	2310.11
877.99	2156.51
878.15	2285.53
878.32	2215.90
878.49	2242.53
878.65	2136.03
878.82	2283.49
878.98	2150.37
879.15	2287.58
879.32	2189.28
879.48	2203.61
879.65	2170.85
879.81	2179.04
879.98	2162.66
880.15	2062.30
880.31	2297.82
880.48	2152.42
880.64	2250.72
880.81	2144.22
880.97	2306.01
881.14	2338.78
881.31	2078.69
881.47	2349.02
881.64	2144.22
881.80	2054.11
881.97	2228.19
882.13	2185.18
882.30	2101.22
882.47	2146.27
882.63	2191.33
882.80	2185.18
882.96	2162.66
883.13	2281.44
883.29	2099.17
883.46	2142.18
883.62	2328.54
883.79	2201.57
883.95	2267.10
884.12	2191.33
884.29	2211.81
884.45	2179.04
884.62	2193.37
884.78	2035.68
884.95	2301.92
885.11	2136.03
885.28	2146.27
885.44	2142.18
885.61	2168.80
885.77	2271.20
885.94	2256.86
886.10	2176.99
886.27	2174.94
886.43	2301.92
886.60	2293.72
886.76	2228.19
886.93	2121.70
887.09	2195.42
887.26	2037.73
887.42	2215.90
887.59	2248.67
887.75	2371.55
887.92	2220.00
888.08	2187.23
888.25	2263.01
888.41	2314.20
888.58	2156.51
888.74	1990.63
888.91	2121.70
>>>>>End Processed Spectral Data<<<<<
