SpectraSuite Data File
++++++++++++++++++++++++++++++++++++
Date: Thu May 05 12:35:31 CEST 2016
User: root
Dark Spectrum Present: No
Reference Spectrum Present: No
Number of Sampled Component Spectra: 1
Spectrometers: USB4C02835
Integration Time (usec): 100000 (USB4C02835)
Spectra Averaged: 1 (USB4C02835)
Boxcar Smoothing: 0 (USB4C02835)
Correct for Electrical Dark: No (USB4C02835)
Strobe/Lamp Enabled: No (USB4C02835)
Correct for Detector Non-linearity: No (USB4C02835)
Correct for Stray Light: No (USB4C02835)
Number of Pixels in Processed Spectrum: 3648
>>>>>Begin Processed Spectral Data<<<<<
177.47	1794.02
177.69	1794.02
177.91	1794.02
178.13	1767.40
178.36	1753.06
178.58	2037.73
178.80	2260.96
179.02	2068.45
179.24	2109.41
179.46	2160.61
179.68	2199.52
179.90	2189.28
180.13	2211.81
180.35	2107.36
180.57	2009.06
180.79	2205.66
181.01	2236.38
181.23	2195.42
181.45	2357.21
181.67	2299.87
181.90	2267.10
182.12	2047.97
182.34	2086.88
182.56	2222.05
182.78	2209.76
183.00	2045.92
183.22	2105.31
183.44	2025.44
183.66	2396.12
183.89	2269.15
184.11	2138.08
184.33	2291.68
184.55	2297.82
184.77	2185.18
184.99	2154.46
185.21	2105.31
185.43	2490.33
185.65	2078.69
185.87	2158.56
186.10	2410.46
186.32	2408.41
186.54	2168.80
186.76	2226.14
186.98	2291.68
187.20	2148.32
187.42	2170.85
187.64	2142.18
187.86	2277.34
188.08	2269.15
188.30	2074.59
188.52	2193.37
188.75	2299.87
188.97	2299.87
189.19	2127.84
189.41	2129.89
189.63	2258.91
189.85	2097.12
190.07	2052.06
190.29	2033.63
190.51	2254.81
190.73	2123.74
190.95	2293.72
191.17	2121.70
191.39	2140.13
191.61	2287.58
191.84	2179.04
192.06	2220.00
192.28	2050.02
192.50	2506.71
192.72	2195.42
192.94	2131.94
193.16	2285.53
193.38	2185.18
193.60	2037.73
193.82	2097.12
194.04	2265.05
194.26	2199.52
194.48	2154.46
194.70	2113.50
194.92	2179.04
195.14	2324.44
195.36	2113.50
195.58	2181.09
195.80	2146.27
196.02	2105.31
196.24	2099.17
196.46	2117.60
196.69	2129.89
196.91	2408.41
197.13	2125.79
197.35	2176.99
197.57	2281.44
197.79	2275.29
198.01	2168.80
198.23	2183.13
198.45	2244.57
198.67	2103.26
198.89	2127.84
199.11	2275.29
199.33	2088.93
199.55	1986.53
199.77	2203.61
199.99	2228.19
200.21	2217.95
200.43	2220.00
200.65	2068.45
200.87	1974.24
201.09	2215.90
201.31	2166.75
201.53	2160.61
201.75	2144.22
201.97	2183.13
202.19	2222.05
202.41	2170.85
202.63	2322.40
202.85	2217.95
203.07	2246.62
203.29	2152.42
203.51	2093.02
203.73	2121.70
203.95	2443.23
204.17	2111.46
204.39	2150.37
204.61	2238.43
204.83	2220.00
205.05	2199.52
205.27	2320.35
205.49	2418.65
205.71	2168.80
205.93	2023.39
206.15	2068.45
206.37	2201.57
206.59	2187.23
206.81	2011.11
207.03	2111.46
207.25	2095.07
207.47	2254.81
207.69	2101.22
207.91	2314.20
208.13	2342.88
208.34	2174.94
208.56	2107.36
208.78	2119.65
209.00	2209.76
209.22	2158.56
209.44	2133.98
209.66	2142.18
209.88	2172.89
210.10	2265.05
210.32	2099.17
210.54	2201.57
210.76	2125.79
210.98	2275.29
211.20	1945.57
211.42	2125.79
211.64	2265.05
211.86	2220.00
212.08	2172.89
212.30	2170.85
212.52	2150.37
212.74	2224.09
212.96	2105.31
213.17	2207.71
213.39	2310.11
213.61	2316.25
213.83	2168.80
214.05	2220.00
214.27	2353.12
214.49	1998.82
214.71	2093.02
214.93	2181.09
215.15	2215.90
215.37	2326.49
215.59	1984.48
215.81	2203.61
216.03	2295.77
216.24	2285.53
216.46	2086.88
216.68	2146.27
216.90	2273.25
217.12	2181.09
217.34	2160.61
217.56	2209.76
217.78	2308.06
218.00	2269.15
218.22	2236.38
218.44	2238.43
218.66	2252.77
218.87	2295.77
219.09	2170.85
219.31	2199.52
219.53	2232.29
219.75	2158.56
219.97	2166.75
220.19	2072.54
220.41	2101.22
220.63	2267.10
220.85	2142.18
221.06	2179.04
221.28	2293.72
221.50	2230.24
221.72	2168.80
221.94	2097.12
222.16	2211.81
222.38	2303.96
222.60	2191.33
222.82	2101.22
223.03	2220.00
223.25	2125.79
223.47	2054.11
223.69	2310.11
223.91	2234.33
224.13	2213.85
224.35	2045.92
224.57	2254.81
224.78	2281.44
225.00	2023.39
225.22	2144.22
225.44	2154.46
225.66	2277.34
225.88	2181.09
226.10	2138.08
226.32	2187.23
226.53	2367.45
226.75	2174.94
226.97	2115.55
227.19	2146.27
227.41	2076.64
227.63	2154.46
227.85	2074.59
228.06	2121.70
228.28	2187.23
228.50	2215.90
228.72	2043.87
228.94	2123.74
229.16	2097.12
229.37	2103.26
229.59	2060.26
229.81	2260.96
230.03	2127.84
230.25	2007.01
230.47	2062.30
230.69	2058.21
230.90	2297.82
231.12	2183.13
231.34	2250.72
231.56	2160.61
231.78	2093.02
232.00	2183.13
232.21	2129.89
232.43	2142.18
232.65	2039.78
232.87	2258.91
233.09	2076.64
233.30	2123.74
233.52	2242.53
233.74	2209.76
233.96	2103.26
234.18	2277.34
234.40	2176.99
234.61	2365.40
234.83	2060.26
235.05	2013.15
235.27	2346.97
235.49	2338.78
235.70	2193.37
235.92	2181.09
236.14	2224.09
236.36	2514.91
236.58	2047.97
236.79	2203.61
237.01	2183.13
237.23	2119.65
237.45	2238.43
237.67	2138.08
237.88	2234.33
238.10	2373.60
238.32	2140.13
238.54	2115.55
238.76	2176.99
238.97	2095.07
239.19	2133.98
239.41	2281.44
239.63	2361.31
239.85	2129.89
240.06	2133.98
240.28	2142.18
240.50	2277.34
240.72	2179.04
240.93	2125.79
241.15	2250.72
241.37	2273.25
241.59	2291.68
241.81	2138.08
242.02	2131.94
242.24	2174.94
242.46	2252.77
242.68	2142.18
242.89	2148.32
243.11	2236.38
243.33	2138.08
243.55	2074.59
243.76	2209.76
243.98	2170.85
244.20	2293.72
244.42	2144.22
244.64	2195.42
244.85	2166.75
245.07	2121.70
245.29	2160.61
245.51	2201.57
245.72	2230.24
245.94	2195.42
246.16	2187.23
246.38	2185.18
246.59	2207.71
246.81	2107.36
247.03	2160.61
247.24	1996.77
247.46	2170.85
247.68	2187.23
247.90	2121.70
248.11	2097.12
248.33	2289.63
248.55	2224.09
248.77	2179.04
248.98	2254.81
249.20	2263.01
249.42	2213.85
249.64	2160.61
249.85	2035.68
250.07	2095.07
250.29	2166.75
250.50	2146.27
250.72	2033.63
250.94	2199.52
251.16	2385.88
251.37	2193.37
251.59	2189.28
251.81	2254.81
252.02	2316.25
252.24	2047.97
252.46	2238.43
252.68	2144.22
252.89	2146.27
253.11	1980.39
253.33	2248.67
253.54	2357.21
253.76	2090.98
253.98	2166.75
254.20	2119.65
254.41	2076.64
254.63	2121.70
254.85	2101.22
255.06	2095.07
255.28	2131.94
255.50	2244.57
255.71	2072.54
255.93	2013.15
256.15	2179.04
256.36	2250.72
256.58	2080.74
256.80	2123.74
257.02	2222.05
257.23	2152.42
257.45	2150.37
257.67	2138.08
257.88	2138.08
258.10	2207.71
258.32	2109.41
258.53	2146.27
258.75	2320.35
258.97	2217.95
259.18	2095.07
259.40	2152.42
259.62	2361.31
259.83	2308.06
260.05	2154.46
260.27	2600.92
260.48	2400.22
260.70	2117.60
260.92	2103.26
261.13	2072.54
261.35	2232.29
261.57	2207.71
261.78	1976.29
262.00	2056.16
262.22	2228.19
262.43	2084.83
262.65	2148.32
262.86	2127.84
263.08	2422.75
263.30	2301.92
263.51	2002.91
263.73	2154.46
263.95	2275.29
264.16	2105.31
264.38	2095.07
264.60	2154.46
264.81	2203.61
265.03	2334.68
265.25	2244.57
265.46	2107.36
265.68	2297.82
265.89	2240.48
266.11	2060.26
266.33	2203.61
266.54	2285.53
266.76	2265.05
266.98	2156.51
267.19	2197.47
267.41	2332.64
267.62	2236.38
267.84	2031.58
268.06	2195.42
268.27	2213.85
268.49	2260.96
268.70	2193.37
268.92	2170.85
269.14	2072.54
269.35	2035.68
269.57	2111.46
269.79	2140.13
270.00	2119.65
270.22	2289.63
270.43	2060.26
270.65	2015.20
270.87	2207.71
271.08	2293.72
271.30	2267.10
271.51	2115.55
271.73	2217.95
271.95	2283.49
272.16	2179.04
272.38	2215.90
272.59	2179.04
272.81	2224.09
273.02	2162.66
273.24	2166.75
273.46	2281.44
273.67	2101.22
273.89	2047.97
274.10	2179.04
274.32	2363.36
274.54	2154.46
274.75	2191.33
274.97	2181.09
275.18	2215.90
275.40	2244.57
275.61	2160.61
275.83	2224.09
276.05	2056.16
276.26	2115.55
276.48	2232.29
276.69	2097.12
276.91	2142.18
277.12	2381.79
277.34	2203.61
277.55	2244.57
277.77	2228.19
277.99	2150.37
278.20	2090.98
278.42	2097.12
278.63	2070.50
278.85	2082.78
279.06	2086.88
279.28	2226.14
279.49	2248.67
279.71	2318.30
279.93	2176.99
280.14	2197.47
280.36	2154.46
280.57	2330.59
280.79	2246.62
281.00	2138.08
281.22	2105.31
281.43	2318.30
281.65	2097.12
281.86	2052.06
282.08	2275.29
282.29	2349.02
282.51	1998.82
282.73	2101.22
282.94	2011.11
283.16	2248.67
283.37	2312.16
283.59	2131.94
283.80	2185.18
284.02	2170.85
284.23	2199.52
284.45	2101.22
284.66	2127.84
284.88	2138.08
285.09	2217.95
285.31	2277.34
285.52	2242.53
285.74	2050.02
285.95	2269.15
286.17	2191.33
286.38	2340.83
286.60	2109.41
286.81	2158.56
287.03	2152.42
287.24	2185.18
287.46	2191.33
287.67	2187.23
287.89	2351.07
288.10	2220.00
288.32	2207.71
288.53	2379.74
288.75	2193.37
288.96	2224.09
289.18	2158.56
289.39	2172.89
289.61	2203.61
289.82	2365.40
290.04	2383.84
290.25	2078.69
290.47	2121.70
290.68	2166.75
290.90	2301.92
291.11	2095.07
291.33	2228.19
291.54	2152.42
291.76	2074.59
291.97	2263.01
292.18	2187.23
292.40	2168.80
292.61	2144.22
292.83	2346.97
293.04	2160.61
293.26	2146.27
293.47	2162.66
293.69	2152.42
293.90	2084.83
294.12	2301.92
294.33	2154.46
294.55	2084.83
294.76	2308.06
294.97	2375.64
295.19	2389.98
295.40	2095.07
295.62	2265.05
295.83	2303.96
296.05	2168.80
296.26	2353.12
296.48	2183.13
296.69	2193.37
296.90	2185.18
297.12	2220.00
297.33	2258.91
297.55	2236.38
297.76	2174.94
297.98	2211.81
298.19	2205.66
298.41	2146.27
298.62	2064.35
298.83	2283.49
299.05	2152.42
299.26	2142.18
299.48	2086.88
299.69	2209.76
299.90	2146.27
300.12	2168.80
300.33	2185.18
300.55	2152.42
300.76	2179.04
300.98	2109.41
301.19	2324.44
301.40	2183.13
301.62	2185.18
301.83	2310.11
302.05	2209.76
302.26	2195.42
302.47	2193.37
302.69	2144.22
302.90	2203.61
303.12	1959.91
303.33	2174.94
303.54	2363.36
303.76	2158.56
303.97	2172.89
304.19	2371.55
304.40	2097.12
304.61	2267.10
304.83	2357.21
305.04	2248.67
305.26	2260.96
305.47	2242.53
305.68	2162.66
305.90	2029.54
306.11	2312.16
306.33	2154.46
306.54	2078.69
306.75	2097.12
306.97	2127.84
307.18	2090.98
307.39	2144.22
307.61	2220.00
307.82	2168.80
308.04	2271.20
308.25	2070.50
308.46	2240.48
308.68	2215.90
308.89	2154.46
309.10	2316.25
309.32	2195.42
309.53	2183.13
309.74	2279.39
309.96	2041.82
310.17	2250.72
310.39	2162.66
310.60	2226.14
310.81	2211.81
311.03	2064.35
311.24	2224.09
311.45	2220.00
311.67	2338.78
311.88	2279.39
312.09	2127.84
312.31	2131.94
312.52	2097.12
312.73	2088.93
312.95	2117.60
313.16	2109.41
313.37	2244.57
313.59	2203.61
313.80	2250.72
314.01	2332.64
314.23	2082.78
314.44	2166.75
314.65	1994.72
314.87	2011.11
315.08	2138.08
315.29	2138.08
315.51	2133.98
315.72	2082.78
315.93	2392.03
316.15	2191.33
316.36	2195.42
316.57	2207.71
316.79	2226.14
317.00	2136.03
317.21	2244.57
317.43	2107.36
317.64	2226.14
317.85	2101.22
318.07	2129.89
318.28	2236.38
318.49	2367.45
318.70	2494.43
318.92	2406.36
319.13	2383.84
319.34	2387.93
319.56	2342.88
319.77	2353.12
319.98	2435.03
320.20	2301.92
320.41	2293.72
320.62	2220.00
320.83	2043.87
321.05	2322.40
321.26	2189.28
321.47	2254.81
321.69	2293.72
321.90	2039.78
322.11	2146.27
322.32	2176.99
322.54	2324.44
322.75	2136.03
322.96	2441.18
323.18	2093.02
323.39	1984.48
323.60	2117.60
323.81	2217.95
324.03	2129.89
324.24	2166.75
324.45	2146.27
324.66	2064.35
324.88	2293.72
325.09	2394.08
325.30	2240.48
325.52	2185.18
325.73	2238.43
325.94	2152.42
326.15	2088.93
326.37	2129.89
326.58	2236.38
326.79	2279.39
327.00	2050.02
327.22	2209.76
327.43	2176.99
327.64	2107.36
327.85	2244.57
328.07	2187.23
328.28	2449.37
328.49	2121.70
328.70	2140.13
328.92	2183.13
329.13	2127.84
329.34	2281.44
329.55	2301.92
329.76	2326.49
329.98	2271.20
330.19	2351.07
330.40	2201.57
330.61	2211.81
330.83	2285.53
331.04	2160.61
331.25	2179.04
331.46	2113.50
331.68	2099.17
331.89	2250.72
332.10	2191.33
332.31	1964.00
332.52	2203.61
332.74	2447.32
332.95	2054.11
333.16	2193.37
333.37	2238.43
333.58	2129.89
333.80	2187.23
334.01	2058.21
334.22	2119.65
334.43	2205.66
334.64	2109.41
334.86	2138.08
335.07	2115.55
335.28	2234.33
335.49	2060.26
335.70	2301.92
335.92	2334.68
336.13	2410.46
336.34	2244.57
336.55	2291.68
336.76	2160.61
336.98	2076.64
337.19	2277.34
337.40	2312.16
337.61	2324.44
337.82	2086.88
338.04	2349.02
338.25	2007.01
338.46	2031.58
338.67	2111.46
338.88	2072.54
339.09	2088.93
339.31	2162.66
339.52	2115.55
339.73	2138.08
339.94	2152.42
340.15	2250.72
340.36	2121.70
340.58	2142.18
340.79	2043.87
341.00	2217.95
341.21	2064.35
341.42	2357.21
341.63	2187.23
341.85	2318.30
342.06	2201.57
342.27	2060.26
342.48	2197.47
342.69	2002.91
342.90	2222.05
343.12	2346.97
343.33	2164.70
343.54	2246.62
343.75	2353.12
343.96	2187.23
344.17	2156.51
344.38	2183.13
344.60	2129.89
344.81	2058.21
345.02	2160.61
345.23	2355.16
345.44	2351.07
345.65	2217.95
345.86	2246.62
346.07	2203.61
346.29	2115.55
346.50	2234.33
346.71	2254.81
346.92	2299.87
347.13	2449.37
347.34	2211.81
347.55	2201.57
347.76	2312.16
347.98	2080.74
348.19	2244.57
348.40	2242.53
348.61	2162.66
348.82	2308.06
349.03	2254.81
349.24	2084.83
349.45	2428.89
349.66	2019.30
349.88	2166.75
350.09	2113.50
350.30	2308.06
350.51	2289.63
350.72	2187.23
350.93	2170.85
351.14	2121.70
351.35	2271.20
351.56	2195.42
351.77	2209.76
351.99	2293.72
352.20	2353.12
352.41	2258.91
352.62	2039.78
352.83	2131.94
353.04	2217.95
353.25	2191.33
353.46	2269.15
353.67	2277.34
353.88	2019.30
354.09	2222.05
354.30	2217.95
354.52	2209.76
354.73	2111.46
354.94	2031.58
355.15	2140.13
355.36	2373.60
355.57	2226.14
355.78	2230.24
355.99	2185.18
356.20	2172.89
356.41	2334.68
356.62	2203.61
356.83	2172.89
357.04	2254.81
357.25	2093.02
357.46	2195.42
357.68	1984.48
357.89	2095.07
358.10	2189.28
358.31	2170.85
358.52	2154.46
358.73	2109.41
358.94	2090.98
359.15	2133.98
359.36	2250.72
359.57	2152.42
359.78	2152.42
359.99	2254.81
360.20	2115.55
360.41	2133.98
360.62	2242.53
360.83	2242.53
361.04	2166.75
361.25	2158.56
361.46	2406.36
361.67	2254.81
361.88	2256.86
362.09	2244.57
362.30	2203.61
362.51	2119.65
362.72	2140.13
362.93	2236.38
363.14	2334.68
363.35	2277.34
363.56	2129.89
363.78	2297.82
363.99	2265.05
364.20	2088.93
364.41	2191.33
364.62	2375.64
364.83	2242.53
365.04	2197.47
365.25	2232.29
365.46	2398.17
365.67	2131.94
365.88	2154.46
366.09	2176.99
366.30	2131.94
366.51	2285.53
366.72	2082.78
366.93	2162.66
367.14	2127.84
367.35	2346.97
367.56	2183.13
367.77	2252.77
367.98	2306.01
368.18	2179.04
368.39	2187.23
368.60	2072.54
368.81	2256.86
369.02	2136.03
369.23	2195.42
369.44	2082.78
369.65	2193.37
369.86	2281.44
370.07	2267.10
370.28	2101.22
370.49	2240.48
370.70	2226.14
370.91	2101.22
371.12	2109.41
371.33	2195.42
371.54	2123.74
371.75	2228.19
371.96	1978.34
372.17	2203.61
372.38	2176.99
372.59	2201.57
372.80	2119.65
373.01	2168.80
373.22	2265.05
373.43	2183.13
373.64	2138.08
373.85	2306.01
374.06	2289.63
374.26	2215.90
374.47	2238.43
374.68	2320.35
374.89	2150.37
375.10	2144.22
375.31	2314.20
375.52	2269.15
375.73	2203.61
375.94	2144.22
376.15	2318.30
376.36	2187.23
376.57	2162.66
376.78	2066.40
376.99	2189.28
377.20	2269.15
377.40	2152.42
377.61	2437.08
377.82	2070.50
378.03	2263.01
378.24	2291.68
378.45	2160.61
378.66	2228.19
378.87	2070.50
379.08	2039.78
379.29	2232.29
379.50	2291.68
379.71	2138.08
379.91	2248.67
380.12	2105.31
380.33	2215.90
380.54	2070.50
380.75	2207.71
380.96	2121.70
381.17	2314.20
381.38	2193.37
381.59	2185.18
381.80	2187.23
382.00	2396.12
382.21	2281.44
382.42	2410.46
382.63	2340.83
382.84	2230.24
383.05	2301.92
383.26	2389.98
383.47	2183.13
383.68	2176.99
383.88	2275.29
384.09	2176.99
384.30	2346.97
384.51	2242.53
384.72	2142.18
384.93	2058.21
385.14	2220.00
385.35	2265.05
385.55	2086.88
385.76	2285.53
385.97	2207.71
386.18	2002.91
386.39	2127.84
386.60	2037.73
386.81	2125.79
387.02	2105.31
387.22	2164.70
387.43	2242.53
387.64	2289.63
387.85	2383.84
388.06	2453.47
388.27	4042.69
388.48	8542.08
388.68	11984.71
388.89	14608.16
389.10	15806.22
389.31	14366.50
389.52	11353.94
389.73	9805.67
389.93	9066.36
390.14	8234.88
390.35	7446.41
390.56	6625.18
390.77	5384.11
390.98	4145.09
391.18	3215.31
391.39	2701.27
391.60	2320.35
391.81	2338.78
392.02	2138.08
392.23	2381.79
392.43	2220.00
392.64	2295.77
392.85	2150.37
393.06	2381.79
393.27	2176.99
393.47	2113.50
393.68	2193.37
393.89	2170.85
394.10	2314.20
394.31	2043.87
394.52	2123.74
394.72	2154.46
394.93	2398.17
395.14	2125.79
395.35	2273.25
395.56	2127.84
395.76	2119.65
395.97	2240.48
396.18	2301.92
396.39	2310.11
396.60	2668.50
396.80	2506.71
397.01	2389.98
397.22	2363.36
397.43	2359.26
397.64	2133.98
397.84	2260.96
398.05	2432.99
398.26	2308.06
398.47	2283.49
398.67	2396.12
398.88	2131.94
399.09	2197.47
399.30	2152.42
399.51	2254.81
399.71	2162.66
399.92	2162.66
400.13	2146.27
400.34	2205.66
400.54	2213.85
400.75	2324.44
400.96	2258.91
401.17	2363.36
401.37	2277.34
401.58	2211.81
401.79	2187.23
402.00	2301.92
402.21	2600.92
402.41	2519.00
402.62	2478.04
402.83	2619.35
403.04	2586.58
403.24	2711.51
403.45	2389.98
403.66	2473.95
403.87	2435.03
404.07	2490.33
404.28	2453.47
404.49	2437.08
404.70	2299.87
404.90	2320.35
405.11	2220.00
405.32	2215.90
405.52	2187.23
405.73	2220.00
405.94	2068.45
406.15	2222.05
406.35	2256.86
406.56	2248.67
406.77	2209.76
406.98	2144.22
407.18	2076.64
407.39	2285.53
407.60	2152.42
407.80	2211.81
408.01	2164.70
408.22	2189.28
408.43	2146.27
408.63	2224.09
408.84	2275.29
409.05	2303.96
409.25	2121.70
409.46	2095.07
409.67	2152.42
409.88	2125.79
410.08	2258.91
410.29	2146.27
410.50	2236.38
410.70	2252.77
410.91	2226.14
411.12	2146.27
411.32	2197.47
411.53	2160.61
411.74	2269.15
411.95	2265.05
412.15	2328.54
412.36	2295.77
412.57	2308.06
412.77	2340.83
412.98	2226.14
413.19	2199.52
413.39	2226.14
413.60	2185.18
413.81	2367.45
414.01	2146.27
414.22	2246.62
414.43	2340.83
414.63	2232.29
414.84	2260.96
415.05	2195.42
415.25	2117.60
415.46	2273.25
415.67	2166.75
415.87	2244.57
416.08	2246.62
416.29	2097.12
416.49	2174.94
416.70	2121.70
416.91	2176.99
417.11	2240.48
417.32	2228.19
417.53	2269.15
417.73	2252.77
417.94	2179.04
418.15	2279.39
418.35	2228.19
418.56	2215.90
418.77	2457.56
418.97	2189.28
419.18	2242.53
419.38	2007.01
419.59	2234.33
419.80	2303.96
420.00	2129.89
420.21	2154.46
420.42	2328.54
420.62	2162.66
420.83	2121.70
421.04	2193.37
421.24	2217.95
421.45	2273.25
421.65	2193.37
421.86	2185.18
422.07	2293.72
422.27	2269.15
422.48	2193.37
422.69	2125.79
422.89	2234.33
423.10	2179.04
423.30	2076.64
423.51	2203.61
423.72	2224.09
423.92	2232.29
424.13	2064.35
424.33	2117.60
424.54	2299.87
424.75	2263.01
424.95	2310.11
425.16	2267.10
425.36	2138.08
425.57	2359.26
425.78	2271.20
425.98	2265.05
426.19	2174.94
426.39	2127.84
426.60	2265.05
426.81	2293.72
427.01	2203.61
427.22	2121.70
427.42	2068.45
427.63	2072.54
427.83	2301.92
428.04	2389.98
428.25	2267.10
428.45	2318.30
428.66	2316.25
428.86	2181.09
429.07	2170.85
429.28	2250.72
429.48	2179.04
429.69	2111.46
429.89	2160.61
430.10	2162.66
430.30	2291.68
430.51	2289.63
430.71	2146.27
430.92	2117.60
431.13	2203.61
431.33	2328.54
431.54	2256.86
431.74	2332.64
431.95	2396.12
432.15	2119.65
432.36	2162.66
432.56	2170.85
432.77	2387.93
432.98	2353.12
433.18	2215.90
433.39	2220.00
433.59	2232.29
433.80	2340.83
434.00	2359.26
434.21	2154.46
434.41	2097.12
434.62	2416.60
434.82	2105.31
435.03	2078.69
435.23	2146.27
435.44	2013.15
435.64	2199.52
435.85	2191.33
436.06	2312.16
436.26	2361.31
436.47	2189.28
436.67	2103.26
436.88	2160.61
437.08	2332.64
437.29	2306.01
437.49	2203.61
437.70	2260.96
437.90	2144.22
438.11	2369.50
438.31	2267.10
438.52	2363.36
438.72	2426.84
438.93	2545.63
439.13	2287.58
439.34	2385.88
439.54	2242.53
439.75	2346.97
439.95	2281.44
440.16	2156.51
440.36	2207.71
440.57	2295.77
440.77	2172.89
440.98	2252.77
441.18	2244.57
441.39	2187.23
441.59	2107.36
441.80	2392.03
442.00	2240.48
442.21	2269.15
442.41	2058.21
442.62	2260.96
442.82	2103.26
443.02	2277.34
443.23	2228.19
443.43	2138.08
443.64	2387.93
443.84	2195.42
444.05	2254.81
444.25	2191.33
444.46	2133.98
444.66	2187.23
444.87	2308.06
445.07	2076.64
445.28	2220.00
445.48	2363.36
445.69	2291.68
445.89	2422.75
446.09	2197.47
446.30	2422.75
446.50	2885.59
446.71	4489.15
446.91	5660.59
447.12	6303.65
447.32	6664.09
447.53	6272.93
447.73	5050.29
447.93	4503.48
448.14	4239.30
448.34	3977.16
448.55	3717.06
448.75	3502.03
448.96	3356.62
449.16	3071.95
449.36	2852.82
449.57	2478.04
449.77	2357.21
449.98	2207.71
450.18	2308.06
450.39	2334.68
450.59	2265.05
450.79	2156.51
451.00	2119.65
451.20	2240.48
451.41	2232.29
451.61	2250.72
451.81	2185.18
452.02	2162.66
452.22	2154.46
452.43	2224.09
452.63	2281.44
452.84	2269.15
453.04	2095.07
453.24	2220.00
453.45	2179.04
453.65	2213.85
453.86	2250.72
454.06	2252.77
454.26	2277.34
454.47	2064.35
454.67	2322.40
454.87	2260.96
455.08	2197.47
455.28	2379.74
455.49	2260.96
455.69	2162.66
455.89	2316.25
456.10	2265.05
456.30	2228.19
456.51	2330.59
456.71	2209.76
456.91	2224.09
457.12	2205.66
457.32	2252.77
457.52	2148.32
457.73	2242.53
457.93	2232.29
458.14	2181.09
458.34	1998.82
458.54	2193.37
458.75	2203.61
458.95	2383.84
459.15	2211.81
459.36	2310.11
459.56	2220.00
459.76	2439.13
459.97	2195.42
460.17	2176.99
460.37	2326.49
460.58	2252.77
460.78	2230.24
460.99	2258.91
461.19	2127.84
461.39	2121.70
461.60	2187.23
461.80	2220.00
462.00	2064.35
462.21	2164.70
462.41	2109.41
462.61	2119.65
462.82	2093.02
463.02	2228.19
463.22	2187.23
463.43	2312.16
463.63	2217.95
463.83	2408.41
464.04	2228.19
464.24	2144.22
464.44	2140.13
464.64	2191.33
464.85	2297.82
465.05	2306.01
465.25	2183.13
465.46	2136.03
465.66	2258.91
465.86	2328.54
466.07	2187.23
466.27	2201.57
466.47	2152.42
466.68	2082.78
466.88	2346.97
467.08	2279.39
467.29	2332.64
467.49	2176.99
467.69	2115.55
467.89	2316.25
468.10	2146.27
468.30	2193.37
468.50	2271.20
468.71	2283.49
468.91	2164.70
469.11	2432.99
469.31	2236.38
469.52	2168.80
469.72	2346.97
469.92	2375.64
470.13	2207.71
470.33	2160.61
470.53	2344.92
470.73	2615.26
470.94	3043.28
471.14	3155.92
471.34	3606.47
471.54	3444.68
471.75	3063.76
471.95	2879.44
472.15	2803.67
472.36	2748.37
472.56	2740.18
472.76	2750.42
472.96	2594.78
473.17	2490.33
473.37	2406.36
473.57	2406.36
473.77	2283.49
473.98	2179.04
474.18	2093.02
474.38	2539.48
474.58	2217.95
474.79	2179.04
474.99	2207.71
475.19	2293.72
475.39	2138.08
475.60	2324.44
475.80	2152.42
476.00	2260.96
476.20	2158.56
476.41	2234.33
476.61	2310.11
476.81	2367.45
477.01	2191.33
477.21	2416.60
477.42	2361.31
477.62	2156.51
477.82	2293.72
478.02	2164.70
478.23	2185.18
478.43	2105.31
478.63	2289.63
478.83	2250.72
479.03	2170.85
479.24	2375.64
479.44	2496.47
479.64	2138.08
479.84	2027.49
480.04	2082.78
480.25	2281.44
480.45	2129.89
480.65	2140.13
480.85	2338.78
481.06	2220.00
481.26	2234.33
481.46	2220.00
481.66	2295.77
481.86	2203.61
482.06	2371.55
482.27	2203.61
482.47	2170.85
482.67	2238.43
482.87	2285.53
483.07	2273.25
483.28	2111.46
483.48	2131.94
483.68	2187.23
483.88	2099.17
484.08	2047.97
484.29	2111.46
484.49	2172.89
484.69	2101.22
484.89	2340.83
485.09	2328.54
485.29	2252.77
485.50	2168.80
485.70	2260.96
485.90	2287.58
486.10	2162.66
486.30	2176.99
486.50	2263.01
486.71	2287.58
486.91	2297.82
487.11	2291.68
487.31	2115.55
487.51	2232.29
487.71	2189.28
487.91	2148.32
488.12	2111.46
488.32	1986.53
488.52	2170.85
488.72	2070.50
488.92	2293.72
489.12	2310.11
489.32	2320.35
489.53	2271.20
489.73	2064.35
489.93	2344.92
490.13	2158.56
490.33	2084.83
490.53	2232.29
490.73	2334.68
490.94	2025.44
491.14	2199.52
491.34	2342.88
491.54	2592.73
491.74	3080.14
491.94	3721.16
492.14	4028.35
492.34	4009.92
492.54	3788.74
492.75	3178.45
492.95	3137.49
493.15	2883.54
493.35	2875.35
493.55	2758.61
493.75	2734.04
493.95	2744.28
494.15	2510.81
494.35	2371.55
494.56	2404.32
494.76	2213.85
494.96	2318.30
495.16	2254.81
495.36	2133.98
495.56	2246.62
495.76	2226.14
495.96	2142.18
496.16	2076.64
496.36	2389.98
496.56	2168.80
496.77	2211.81
496.97	2242.53
497.17	2293.72
497.37	2172.89
497.57	2252.77
497.77	2260.96
497.97	2121.70
498.17	2183.13
498.37	2138.08
498.57	2232.29
498.77	2170.85
498.97	2310.11
499.17	2351.07
499.38	2176.99
499.58	2228.19
499.78	2346.97
499.98	2318.30
500.18	2174.94
500.38	2144.22
500.58	2371.55
500.78	2912.21
500.98	5160.88
501.18	7292.82
501.38	9015.16
501.58	9768.81
501.78	9709.42
501.98	7761.80
502.18	6436.77
502.38	5560.24
502.58	5062.58
502.78	4652.98
502.98	4407.23
503.18	4263.87
503.38	3975.11
503.59	3475.40
503.79	3205.07
503.99	2947.03
504.19	2768.85
504.39	2856.92
504.59	2875.35
504.79	2914.26
504.99	2840.53
505.19	2519.00
505.39	2412.51
505.59	2607.06
505.79	2541.53
505.99	2310.11
506.19	2346.97
506.39	2465.75
506.59	2183.13
506.79	2215.90
506.99	2357.21
507.19	2201.57
507.39	2260.96
507.59	2166.75
507.79	2181.09
507.99	2113.50
508.19	2238.43
508.39	2093.02
508.59	2222.05
508.79	2367.45
508.99	2338.78
509.19	2166.75
509.39	2299.87
509.59	2140.13
509.79	2119.65
509.99	2236.38
510.19	2334.68
510.39	2351.07
510.59	2195.42
510.79	2144.22
510.99	2133.98
511.19	2199.52
511.39	2330.59
511.59	2357.21
511.79	2289.63
511.99	2232.29
512.19	2310.11
512.38	2152.42
512.58	2201.57
512.78	2217.95
512.98	2318.30
513.18	2392.03
513.38	2107.36
513.58	2230.24
513.78	2205.66
513.98	2220.00
514.18	2088.93
514.38	2215.90
514.58	2254.81
514.78	2162.66
514.98	2170.85
515.18	2183.13
515.38	2121.70
515.58	2316.25
515.78	2222.05
515.98	2199.52
516.18	2289.63
516.38	2199.52
516.57	2248.67
516.77	2105.31
516.97	2260.96
517.17	2125.79
517.37	2088.93
517.57	2279.39
517.77	2152.42
517.97	2121.70
518.17	2293.72
518.37	2170.85
518.57	2152.42
518.77	2170.85
518.97	2162.66
519.16	2160.61
519.36	2367.45
519.56	2162.66
519.76	2176.99
519.96	2203.61
520.16	2416.60
520.36	2111.46
520.56	2365.40
520.76	2146.27
520.96	2240.48
521.16	2322.40
521.35	2318.30
521.55	2332.64
521.75	2310.11
521.95	2140.13
522.15	2113.50
522.35	2047.97
522.55	2150.37
522.75	2332.64
522.95	2203.61
523.14	2082.78
523.34	2246.62
523.54	2103.26
523.74	2263.01
523.94	2187.23
524.14	2052.06
524.34	2201.57
524.54	2291.68
524.73	2211.81
524.93	2287.58
525.13	2201.57
525.33	2101.22
525.53	2488.28
525.73	2275.29
525.93	2209.76
526.13	2236.38
526.32	2129.89
526.52	2324.44
526.72	2281.44
526.92	2205.66
527.12	2060.26
527.32	2060.26
527.52	2195.42
527.71	2226.14
527.91	2228.19
528.11	2201.57
528.31	2244.57
528.51	2011.11
528.71	2232.29
528.90	2217.95
529.10	2320.35
529.30	2320.35
529.50	2004.96
529.70	2293.72
529.90	2129.89
530.09	2244.57
530.29	2115.55
530.49	2142.18
530.69	2473.95
530.89	2228.19
531.09	2195.42
531.28	2131.94
531.48	2312.16
531.68	2220.00
531.88	2267.10
532.08	2326.49
532.28	2185.18
532.47	2291.68
532.67	2316.25
532.87	2279.39
533.07	2207.71
533.27	2306.01
533.46	2301.92
533.66	2285.53
533.86	2242.53
534.06	2228.19
534.26	2226.14
534.45	2285.53
534.65	2334.68
534.85	2260.96
535.05	2179.04
535.25	2299.87
535.44	2097.12
535.64	2279.39
535.84	2133.98
536.04	2166.75
536.24	2133.98
536.43	2150.37
536.63	2215.90
536.83	2113.50
537.03	2217.95
537.22	2047.97
537.42	2123.74
537.62	2193.37
537.82	2234.33
538.02	2324.44
538.21	2342.88
538.41	2564.06
538.61	2226.14
538.81	2164.70
539.00	2281.44
539.20	2164.70
539.40	2133.98
539.60	2271.20
539.79	2281.44
539.99	2222.05
540.19	2144.22
540.39	2207.71
540.58	2269.15
540.78	2308.06
540.98	2265.05
541.18	2351.07
541.37	2293.72
541.57	2248.67
541.77	2244.57
541.97	2111.46
542.16	2047.97
542.36	2238.43
542.56	2197.47
542.76	2258.91
542.95	2238.43
543.15	2252.77
543.35	2344.92
543.54	2068.45
543.74	2146.27
543.94	2330.59
544.14	2119.65
544.33	2197.47
544.53	2133.98
544.73	2152.42
544.93	2144.22
545.12	2093.02
545.32	2224.09
545.52	2183.13
545.71	2113.50
545.91	2158.56
546.11	2136.03
546.30	2103.26
546.50	2185.18
546.70	2308.06
546.90	2203.61
547.09	2064.35
547.29	2201.57
547.49	2265.05
547.68	2224.09
547.88	2183.13
548.08	2250.72
548.27	2660.31
548.47	2129.89
548.67	2154.46
548.87	2168.80
549.06	2109.41
549.26	2265.05
549.46	2240.48
549.65	2242.53
549.85	2260.96
550.05	2228.19
550.24	2023.39
550.44	2148.32
550.64	2207.71
550.83	2179.04
551.03	2371.55
551.23	2252.77
551.42	2258.91
551.62	2152.42
551.82	2211.81
552.01	2166.75
552.21	2383.84
552.41	2129.89
552.60	2408.41
552.80	2250.72
553.00	2162.66
553.19	2228.19
553.39	2351.07
553.59	2136.03
553.78	2299.87
553.98	2183.13
554.17	2072.54
554.37	2242.53
554.57	2256.86
554.76	2060.26
554.96	2152.42
555.16	2312.16
555.35	2211.81
555.55	2271.20
555.75	2217.95
555.94	2260.96
556.14	2127.84
556.33	2236.38
556.53	2203.61
556.73	2213.85
556.92	2236.38
557.12	2299.87
557.32	2404.32
557.51	2353.12
557.71	2283.49
557.90	2355.16
558.10	2363.36
558.30	2166.75
558.49	2129.89
558.69	2176.99
558.88	2263.01
559.08	2236.38
559.28	2168.80
559.47	2211.81
559.67	2281.44
559.86	2369.50
560.06	2267.10
560.26	2174.94
560.45	2275.29
560.65	2252.77
560.84	2297.82
561.04	2152.42
561.24	2269.15
561.43	2039.78
561.63	2412.51
561.82	2244.57
562.02	2291.68
562.22	2144.22
562.41	2097.12
562.61	2160.61
562.80	2136.03
563.00	2469.85
563.19	2209.76
563.39	2217.95
563.59	2318.30
563.78	2179.04
563.98	2037.73
564.17	2152.42
564.37	2029.54
564.56	2138.08
564.76	2054.11
564.96	2338.78
565.15	2240.48
565.35	2508.76
565.54	2156.51
565.74	2277.34
565.93	2330.59
566.13	2244.57
566.32	2275.29
566.52	2308.06
566.71	2228.19
566.91	2236.38
567.11	2287.58
567.30	2129.89
567.50	2324.44
567.69	2289.63
567.89	2095.07
568.08	2121.70
568.28	2252.77
568.47	2123.74
568.67	2254.81
568.86	2086.88
569.06	2281.44
569.25	2281.44
569.45	2158.56
569.64	2152.42
569.84	2121.70
570.04	2230.24
570.23	2156.51
570.43	2205.66
570.62	2240.48
570.82	2310.11
571.01	2119.65
571.21	2195.42
571.40	2117.60
571.60	2211.81
571.79	2224.09
571.99	2238.43
572.18	2185.18
572.38	2222.05
572.57	2252.77
572.77	2242.53
572.96	2437.08
573.16	2258.91
573.35	2125.79
573.55	2369.50
573.74	2217.95
573.94	2240.48
574.13	2183.13
574.33	2213.85
574.52	2344.92
574.71	2269.15
574.91	2285.53
575.10	2086.88
575.30	2207.71
575.49	2217.95
575.69	2170.85
575.88	2281.44
576.08	2236.38
576.27	2383.84
576.47	2295.77
576.66	2408.41
576.86	2412.51
577.05	2224.09
577.25	2281.44
577.44	2420.70
577.64	2181.09
577.83	2275.29
578.02	2205.66
578.22	2303.96
578.41	2396.12
578.61	2310.11
578.80	2072.54
579.00	2238.43
579.19	2187.23
579.39	2275.29
579.58	2260.96
579.77	2271.20
579.97	2310.11
580.16	2322.40
580.36	2226.14
580.55	2328.54
580.75	2250.72
580.94	2283.49
581.13	2346.97
581.33	2469.85
581.52	2256.86
581.72	2387.93
581.91	2373.60
582.11	2191.33
582.30	2326.49
582.49	2301.92
582.69	2396.12
582.88	2166.75
583.08	2166.75
583.27	2392.03
583.47	2285.53
583.66	2170.85
583.85	2187.23
584.05	2248.67
584.24	2316.25
584.44	2254.81
584.63	2351.07
584.82	2424.80
585.02	2463.71
585.21	2379.74
585.41	2426.84
585.60	2375.64
585.79	2453.47
585.99	2480.09
586.18	2412.51
586.37	2863.06
586.57	4440.00
586.76	13158.20
586.96	32075.29
587.15	46134.59
587.34	55186.61
587.54	60492.90
587.73	55366.84
587.93	39206.31
588.12	29709.88
588.31	23948.95
588.51	20604.61
588.70	19037.92
588.89	17243.90
589.09	15140.63
589.28	13029.18
589.47	10553.18
589.67	8372.10
589.86	6369.18
590.06	4591.55
590.25	3792.84
590.44	3104.72
590.64	2715.61
590.83	2572.25
591.02	2492.38
591.22	2312.16
591.41	2369.50
591.60	2308.06
591.80	2519.00
591.99	2129.89
592.18	2222.05
592.38	2416.60
592.57	2166.75
592.76	2228.19
592.96	2334.68
593.15	2203.61
593.34	2340.83
593.54	2203.61
593.73	2299.87
593.92	2326.49
594.12	2385.88
594.31	2277.34
594.50	2400.22
594.70	2367.45
594.89	2494.43
595.08	2136.03
595.28	2310.11
595.47	2547.67
595.66	2273.25
595.86	2148.32
596.05	2258.91
596.24	2215.90
596.43	2383.84
596.63	2355.16
596.82	2254.81
597.01	2314.20
597.21	2410.46
597.40	2265.05
597.59	2314.20
597.79	2138.08
597.98	2344.92
598.17	2277.34
598.36	2226.14
598.56	2385.88
598.75	2217.95
598.94	2303.96
599.14	2287.58
599.33	2160.61
599.52	2338.78
599.71	2244.57
599.91	2308.06
600.10	2371.55
600.29	2230.24
600.48	2240.48
600.68	2287.58
600.87	2267.10
601.06	2164.70
601.26	2260.96
601.45	2179.04
601.64	2252.77
601.83	2363.36
602.03	2168.80
602.22	2060.26
602.41	2318.30
602.60	2447.32
602.80	2326.49
602.99	2269.15
603.18	2142.18
603.37	2193.37
603.57	2217.95
603.76	2285.53
603.95	2291.68
604.14	2185.18
604.34	2105.31
604.53	2232.29
604.72	2195.42
604.91	2330.59
605.10	2283.49
605.30	2039.78
605.49	2459.61
605.68	2351.07
605.87	2265.05
606.07	2230.24
606.26	2179.04
606.45	2353.12
606.64	2240.48
606.84	2072.54
607.03	2283.49
607.22	2346.97
607.41	2263.01
607.60	2150.37
607.80	2400.22
607.99	2260.96
608.18	2279.39
608.37	2252.77
608.56	2150.37
608.76	2314.20
608.95	2455.51
609.14	2340.83
609.33	2404.32
609.52	2287.58
609.72	2320.35
609.91	2330.59
610.10	2283.49
610.29	2346.97
610.48	2285.53
610.68	2281.44
610.87	2236.38
611.06	2297.82
611.25	2232.29
611.44	2297.82
611.63	2164.70
611.83	2387.93
612.02	2056.16
612.21	2297.82
612.40	2082.78
612.59	2101.22
612.79	2050.02
612.98	2166.75
613.17	2346.97
613.36	2267.10
613.55	2420.70
613.74	2172.89
613.93	2441.18
614.13	2478.04
614.32	2535.39
614.51	2338.78
614.70	2267.10
614.89	2230.24
615.08	2306.01
615.28	2738.13
615.47	2162.66
615.66	2289.63
615.85	2275.29
616.04	2475.99
616.23	2256.86
616.42	2269.15
616.62	2281.44
616.81	2269.15
617.00	2318.30
617.19	2326.49
617.38	2185.18
617.57	2244.57
617.76	2258.91
617.95	2308.06
618.15	2281.44
618.34	2312.16
618.53	2121.70
618.72	2371.55
618.91	2303.96
619.10	2310.11
619.29	2176.99
619.48	2246.62
619.68	2136.03
619.87	2213.85
620.06	2064.35
620.25	2275.29
620.44	2187.23
620.63	2240.48
620.82	2254.81
621.01	2269.15
621.20	2187.23
621.39	2289.63
621.59	2355.16
621.78	2254.81
621.97	2185.18
622.16	2256.86
622.35	2256.86
622.54	2349.02
622.73	2334.68
622.92	2047.97
623.11	2353.12
623.30	2158.56
623.49	2312.16
623.68	2088.93
623.88	2279.39
624.07	2258.91
624.26	2097.12
624.45	2181.09
624.64	2168.80
624.83	2197.47
625.02	2160.61
625.21	2252.77
625.40	2183.13
625.59	2338.78
625.78	2228.19
625.97	2355.16
626.16	2355.16
626.35	2387.93
626.54	2361.31
626.74	2381.79
626.93	2217.95
627.12	2277.34
627.31	2322.40
627.50	2263.01
627.69	2318.30
627.88	2146.27
628.07	2129.89
628.26	2107.36
628.45	2136.03
628.64	2185.18
628.83	2187.23
629.02	2039.78
629.21	2306.01
629.40	2166.75
629.59	2220.00
629.78	2240.48
629.97	2316.25
630.16	2269.15
630.35	2197.47
630.54	2277.34
630.73	2199.52
630.92	2269.15
631.11	2166.75
631.30	2160.61
631.49	2308.06
631.68	2127.84
631.87	2246.62
632.06	2039.78
632.25	2482.14
632.44	2283.49
632.63	2269.15
632.82	2236.38
633.01	2289.63
633.20	2373.60
633.39	2185.18
633.58	2283.49
633.77	2273.25
633.96	2310.11
634.15	2293.72
634.34	2322.40
634.53	2213.85
634.72	2211.81
634.91	2045.92
635.10	2199.52
635.29	2316.25
635.48	2220.00
635.67	2138.08
635.86	2093.02
636.05	2281.44
636.24	2140.13
636.43	2209.76
636.62	2215.90
636.81	1974.24
637.00	2285.53
637.19	2269.15
637.38	2185.18
637.57	2138.08
637.76	2234.33
637.95	2389.98
638.14	2242.53
638.33	2336.73
638.52	2336.73
638.71	2209.76
638.89	2176.99
639.08	2508.76
639.27	2381.79
639.46	2506.71
639.65	2942.93
639.84	2922.45
640.03	3022.80
640.22	2977.75
640.41	2936.79
640.60	2607.06
640.79	2627.54
640.98	2359.26
641.17	2504.67
641.36	2398.17
641.55	2367.45
641.74	2185.18
641.92	2267.10
642.11	2285.53
642.30	2242.53
642.49	2142.18
642.68	2193.37
642.87	2211.81
643.06	2283.49
643.25	2154.46
643.44	2084.83
643.63	2263.01
643.82	2301.92
644.00	2138.08
644.19	2195.42
644.38	2160.61
644.57	2172.89
644.76	2232.29
644.95	2121.70
645.14	2187.23
645.33	2222.05
645.52	2189.28
645.71	2113.50
645.89	2166.75
646.08	2095.07
646.27	2111.46
646.46	2349.02
646.65	2043.87
646.84	2258.91
647.03	2117.60
647.22	2312.16
647.40	2265.05
647.59	2189.28
647.78	2033.63
647.97	2140.13
648.16	2082.78
648.35	2287.58
648.54	2258.91
648.73	2277.34
648.91	2267.10
649.10	2179.04
649.29	2121.70
649.48	2099.17
649.67	2228.19
649.86	2197.47
650.05	2287.58
650.23	2451.42
650.42	2291.68
650.61	2521.05
650.80	2328.54
650.99	2478.04
651.18	2404.32
651.36	2344.92
651.55	2170.85
651.74	2342.88
651.93	2242.53
652.12	2181.09
652.31	2240.48
652.49	2285.53
652.68	2203.61
652.87	2387.93
653.06	2258.91
653.25	2369.50
653.44	2228.19
653.62	2394.08
653.81	2179.04
654.00	2224.09
654.19	2260.96
654.38	2494.43
654.56	2293.72
654.75	2136.03
654.94	2267.10
655.13	2215.90
655.32	2246.62
655.51	2176.99
655.69	2150.37
655.88	2191.33
656.07	2037.73
656.26	2293.72
656.45	2078.69
656.63	2254.81
656.82	2213.85
657.01	2240.48
657.20	2187.23
657.38	2387.93
657.57	2146.27
657.76	2158.56
657.95	2312.16
658.14	2146.27
658.32	2254.81
658.51	2133.98
658.70	2232.29
658.89	2215.90
659.08	2181.09
659.26	2338.78
659.45	2138.08
659.64	2240.48
659.83	2193.37
660.01	2543.58
660.20	2267.10
660.39	2457.56
660.58	2064.35
660.76	2234.33
660.95	2113.50
661.14	2236.38
661.33	2136.03
661.51	2140.13
661.70	2201.57
661.89	2250.72
662.08	2283.49
662.26	2072.54
662.45	2103.26
662.64	2406.36
662.83	2220.00
663.01	2097.12
663.20	2215.90
663.39	2371.55
663.58	2187.23
663.76	2181.09
663.95	2359.26
664.14	2111.46
664.32	2183.13
664.51	2162.66
664.70	2045.92
664.89	2213.85
665.07	2123.74
665.26	2240.48
665.45	2084.83
665.64	2316.25
665.82	2195.42
666.01	2324.44
666.20	2166.75
666.38	2275.29
666.57	2308.06
666.76	3241.93
666.95	8044.42
667.13	16176.91
667.32	21974.70
667.51	25425.53
667.69	27446.88
667.88	25446.01
668.07	17981.17
668.25	14208.81
668.44	11896.65
668.63	10200.93
668.81	9090.93
669.00	7929.74
669.19	6954.90
669.38	6191.01
669.56	5279.66
669.75	4386.75
669.94	3712.97
670.12	3080.14
670.31	2867.16
670.50	2519.00
670.68	2414.56
670.87	2342.88
671.06	2254.81
671.24	2367.45
671.43	2402.27
671.62	2346.97
671.80	2217.95
671.99	2263.01
672.18	2326.49
672.36	2279.39
672.55	2275.29
672.74	2211.81
672.92	2142.18
673.11	2213.85
673.29	2144.22
673.48	2310.11
673.67	2252.77
673.85	2303.96
674.04	2179.04
674.23	2174.94
674.41	2531.29
674.60	2095.07
674.79	2052.06
674.97	2125.79
675.16	2250.72
675.34	2226.14
675.53	2162.66
675.72	2236.38
675.90	2441.18
676.09	2152.42
676.28	2273.25
676.46	2121.70
676.65	2277.34
676.83	2117.60
677.02	2205.66
677.21	2209.76
677.39	2211.81
677.58	2099.17
677.77	2187.23
677.95	2093.02
678.14	2224.09
678.32	2097.12
678.51	2150.37
678.70	2289.63
678.88	2084.83
679.07	2244.57
679.25	2260.96
679.44	2144.22
679.63	2121.70
679.81	2187.23
680.00	2301.92
680.18	2256.86
680.37	2312.16
680.55	2209.76
680.74	2095.07
680.93	2013.15
681.11	2277.34
681.30	2203.61
681.48	2207.71
681.67	2156.51
681.85	2254.81
682.04	2099.17
682.23	2342.88
682.41	2158.56
682.60	2222.05
682.78	2176.99
682.97	2093.02
683.15	2150.37
683.34	2252.77
683.53	2326.49
683.71	2070.50
683.90	2377.69
684.08	2365.40
684.27	2148.32
684.45	2220.00
684.64	2316.25
684.82	2193.37
685.01	2211.81
685.19	2252.77
685.38	2381.79
685.57	2138.08
685.75	2113.50
685.94	2154.46
686.12	2064.35
686.31	2146.27
686.49	2342.88
686.68	2045.92
686.86	2236.38
687.05	2187.23
687.23	2287.58
687.42	2224.09
687.60	2074.59
687.79	2322.40
687.97	2258.91
688.16	2297.82
688.34	2332.64
688.53	2056.16
688.71	2256.86
688.90	2324.44
689.08	2191.33
689.27	2101.22
689.45	2189.28
689.64	2228.19
689.82	2220.00
690.01	2252.77
690.19	2293.72
690.38	2097.12
690.56	2312.16
690.75	2166.75
690.93	2113.50
691.12	2095.07
691.30	2203.61
691.49	2099.17
691.67	2191.33
691.86	2359.26
692.04	2203.61
692.23	2170.85
692.41	2242.53
692.60	2430.94
692.78	2375.64
692.97	2244.57
693.15	2338.78
693.34	2428.89
693.52	2316.25
693.71	2179.04
693.89	2230.24
694.08	2021.35
694.26	2324.44
694.44	2295.77
694.63	2297.82
694.81	2168.80
695.00	2168.80
695.18	2318.30
695.37	2418.65
695.55	2222.05
695.74	2148.32
695.92	2170.85
696.10	2306.01
696.29	2140.13
696.47	2140.13
696.66	2150.37
696.84	2146.27
697.03	2187.23
697.21	2406.36
697.40	3198.93
697.58	2396.12
697.76	2226.14
697.95	2078.69
698.13	2095.07
698.32	2113.50
698.50	2183.13
698.68	2230.24
698.87	2240.48
699.05	2355.16
699.24	2260.96
699.42	2025.44
699.61	2213.85
699.79	2146.27
699.97	2205.66
700.16	2121.70
700.34	2054.11
700.53	2248.67
700.71	2416.60
700.89	2359.26
701.08	2269.15
701.26	2297.82
701.45	2750.42
701.63	2117.60
701.81	2123.74
702.00	2168.80
702.18	2248.67
702.37	2220.00
702.55	2424.80
702.73	2527.19
702.92	2379.74
703.10	2484.19
703.28	2488.28
703.47	2299.87
703.65	2420.70
703.84	2408.41
704.02	2215.90
704.20	2400.22
704.39	2283.49
704.57	2236.38
704.75	2349.02
704.94	2340.83
705.12	2240.48
705.30	2502.62
705.49	4489.15
705.67	11026.26
705.86	20072.14
706.04	24315.53
706.22	27721.30
706.41	28993.09
706.59	24589.96
706.77	17626.87
706.96	14587.68
707.14	12564.29
707.32	10893.15
707.51	9699.18
707.69	7958.41
707.87	6295.46
708.06	5175.22
708.24	4202.43
708.42	3313.61
708.61	3026.90
708.79	2471.90
708.97	2430.94
709.16	2412.51
709.34	2252.77
709.52	2236.38
709.71	2176.99
709.89	2334.68
710.07	2158.56
710.26	2166.75
710.44	2193.37
710.62	2234.33
710.80	2220.00
710.99	2283.49
711.17	2310.11
711.35	2164.70
711.54	2105.31
711.72	2291.68
711.90	2301.92
712.09	2314.20
712.27	2121.70
712.45	2258.91
712.63	2162.66
712.82	2164.70
713.00	2189.28
713.18	2209.76
713.37	2220.00
713.55	2289.63
713.73	2232.29
713.91	2260.96
714.10	2164.70
714.28	2105.31
714.46	2250.72
714.65	2220.00
714.83	2250.72
715.01	2285.53
715.19	2181.09
715.38	2097.12
715.56	2240.48
715.74	2082.78
715.92	2146.27
716.11	2303.96
716.29	2050.02
716.47	2195.42
716.65	2187.23
716.84	2029.54
717.02	2265.05
717.20	2127.84
717.38	2066.40
717.57	2252.77
717.75	2234.33
717.93	2183.13
718.11	2310.11
718.30	2099.17
718.48	2293.72
718.66	2289.63
718.84	2295.77
719.03	2140.13
719.21	2156.51
719.39	2389.98
719.57	2287.58
719.75	2258.91
719.94	2029.54
720.12	2082.78
720.30	2160.61
720.48	2291.68
720.67	2129.89
720.85	2191.33
721.03	2133.98
721.21	2107.36
721.39	2246.62
721.58	2297.82
721.76	2203.61
721.94	2242.53
722.12	2293.72
722.30	2287.58
722.49	2111.46
722.67	2170.85
722.85	2228.19
723.03	2068.45
723.21	2185.18
723.40	2291.68
723.58	2295.77
723.76	2322.40
723.94	2406.36
724.12	2260.96
724.30	2359.26
724.49	2365.40
724.67	2162.66
724.85	2371.55
725.03	2170.85
725.21	2332.64
725.40	2279.39
725.58	2162.66
725.76	2338.78
725.94	2236.38
726.12	2007.01
726.30	2215.90
726.49	2103.26
726.67	2129.89
726.85	2207.71
727.03	2545.63
727.21	3641.29
727.39	5578.67
727.57	6549.40
727.76	7155.60
727.94	7700.36
728.12	7102.36
728.30	5801.90
728.48	4974.52
728.66	4589.50
728.84	4134.85
729.03	3551.18
729.21	3172.30
729.39	2713.56
729.57	2555.86
729.75	2334.68
729.93	2291.68
730.11	2232.29
730.30	2226.14
730.48	2170.85
730.66	2373.60
730.84	2287.58
731.02	2197.47
731.20	2195.42
731.38	2140.13
731.56	2056.16
731.74	2099.17
731.93	2238.43
732.11	2203.61
732.29	2164.70
732.47	2277.34
732.65	2197.47
732.83	2295.77
733.01	2252.77
733.19	2123.74
733.37	2285.53
733.56	2209.76
733.74	2121.70
733.92	2340.83
734.10	2154.46
734.28	2273.25
734.46	2029.54
734.64	2222.05
734.82	2244.57
735.00	2082.78
735.18	2164.70
735.36	2211.81
735.54	2234.33
735.73	2271.20
735.91	2232.29
736.09	2273.25
736.27	2236.38
736.45	2205.66
736.63	2088.93
736.81	2160.61
736.99	2256.86
737.17	2297.82
737.35	2148.32
737.53	2254.81
737.71	2162.66
737.89	2373.60
738.07	2152.42
738.25	2113.50
738.43	2027.49
738.61	2113.50
738.80	2119.65
738.98	2076.64
739.16	2166.75
739.34	2105.31
739.52	2340.83
739.70	2301.92
739.88	2213.85
740.06	2277.34
740.24	2066.40
740.42	2375.64
740.60	2150.37
740.78	2101.22
740.96	1974.24
741.14	2156.51
741.32	2205.66
741.50	2009.06
741.68	2400.22
741.86	2324.44
742.04	2117.60
742.22	2097.12
742.40	2168.80
742.58	2215.90
742.76	2195.42
742.94	2283.49
743.12	2064.35
743.30	2158.56
743.48	2246.62
743.66	2064.35
743.84	2246.62
744.02	2179.04
744.20	2209.76
744.38	2080.74
744.56	2068.45
744.74	2410.46
744.92	2238.43
745.10	2306.01
745.28	2260.96
745.46	2340.83
745.64	2138.08
745.82	2273.25
746.00	2224.09
746.18	2250.72
746.36	2039.78
746.54	2273.25
746.72	2179.04
746.90	2031.58
747.08	2340.83
747.26	2195.42
747.44	2230.24
747.62	2242.53
747.80	2271.20
747.98	2322.40
748.15	2166.75
748.33	2338.78
748.51	2250.72
748.69	2281.44
748.87	2074.59
749.05	2224.09
749.23	2236.38
749.41	2234.33
749.59	2181.09
749.77	2306.01
749.95	2201.57
750.13	2117.60
750.31	2248.67
750.49	2183.13
750.67	2215.90
750.85	2265.05
751.03	2230.24
751.20	2451.42
751.38	2174.94
751.56	2133.98
751.74	2179.04
751.92	2215.90
752.10	2062.30
752.28	2271.20
752.46	2201.57
752.64	2138.08
752.82	2207.71
753.00	2283.49
753.18	2105.31
753.35	2226.14
753.53	2224.09
753.71	2176.99
753.89	2275.29
754.07	2301.92
754.25	2346.97
754.43	2291.68
754.61	2058.21
754.79	2252.77
754.97	2191.33
755.14	2260.96
755.32	2045.92
755.50	2187.23
755.68	2256.86
755.86	2064.35
756.04	2172.89
756.22	2004.96
756.40	2244.57
756.57	2334.68
756.75	2179.04
756.93	2301.92
757.11	2269.15
757.29	2099.17
757.47	2133.98
757.65	2076.64
757.82	1925.09
758.00	2191.33
758.18	2009.06
758.36	2062.30
758.54	2322.40
758.72	2068.45
758.90	2220.00
759.07	2203.61
759.25	2133.98
759.43	2224.09
759.61	2062.30
759.79	3170.26
759.97	2248.67
760.15	2064.35
760.32	2154.46
760.50	2150.37
760.68	2404.32
760.86	2136.03
761.04	2236.38
761.22	2207.71
761.39	2158.56
761.57	2203.61
761.75	2168.80
761.93	2228.19
762.11	2138.08
762.28	2195.42
762.46	2111.46
762.64	2246.62
762.82	2078.69
763.00	2162.66
763.18	2258.91
763.35	2047.97
763.53	2283.49
763.71	2144.22
763.89	2160.61
764.07	2213.85
764.24	2170.85
764.42	2295.77
764.60	2166.75
764.78	2201.57
764.96	2310.11
765.13	2244.57
765.31	2154.46
765.49	2250.72
765.67	2086.88
765.84	2170.85
766.02	2064.35
766.20	2109.41
766.38	2138.08
766.56	2176.99
766.73	2234.33
766.91	2154.46
767.09	2220.00
767.27	2254.81
767.44	2097.12
767.62	2220.00
767.80	2195.42
767.98	2195.42
768.15	2166.75
768.33	2285.53
768.51	2203.61
768.69	2238.43
768.87	2248.67
769.04	2156.51
769.22	2445.27
769.40	2357.21
769.58	2377.69
769.75	2217.95
769.93	2336.73
770.11	2217.95
770.28	2093.02
770.46	2236.38
770.64	2222.05
770.82	2170.85
770.99	2156.51
771.17	2252.77
771.35	2158.56
771.53	2138.08
771.70	2187.23
771.88	2297.82
772.06	2172.89
772.23	2174.94
772.41	2193.37
772.59	2166.75
772.77	2113.50
772.94	2164.70
773.12	2213.85
773.30	2140.13
773.47	2207.71
773.65	2037.73
773.83	2342.88
774.01	2215.90
774.18	2039.78
774.36	2154.46
774.54	2045.92
774.71	2168.80
774.89	2027.49
775.07	2072.54
775.24	2176.99
775.42	2152.42
775.60	2306.01
775.78	2127.84
775.95	2025.44
776.13	2047.97
776.31	1945.57
776.48	2152.42
776.66	2250.72
776.84	2099.17
777.01	2086.88
777.19	2086.88
777.37	2160.61
777.54	2244.57
777.72	2383.84
777.90	2234.33
778.07	2064.35
778.25	2506.71
778.43	2322.40
778.60	2088.93
778.78	2254.81
778.96	2273.25
779.13	2033.63
779.31	2310.11
779.49	2205.66
779.66	2203.61
779.84	2144.22
780.01	2222.05
780.19	2072.54
780.37	2273.25
780.54	2254.81
780.72	2199.52
780.90	2170.85
781.07	2125.79
781.25	2220.00
781.43	2310.11
781.60	2166.75
781.78	2334.68
781.95	2211.81
782.13	2056.16
782.31	2222.05
782.48	1972.19
782.66	2129.89
782.83	2357.21
783.01	2265.05
783.19	2275.29
783.36	2199.52
783.54	2064.35
783.72	2299.87
783.89	2176.99
784.07	2215.90
784.24	2297.82
784.42	2359.26
784.60	2226.14
784.77	2193.37
784.95	2029.54
785.12	2158.56
785.30	2193.37
785.47	2146.27
785.65	2043.87
785.83	2131.94
786.00	2158.56
786.18	2224.09
786.35	2076.64
786.53	2146.27
786.71	2232.29
786.88	2265.05
787.06	2230.24
787.23	2138.08
787.41	2113.50
787.58	2168.80
787.76	2160.61
787.94	2203.61
788.11	2168.80
788.29	2064.35
788.46	2140.13
788.64	2101.22
788.81	2142.18
788.99	2121.70
789.16	2119.65
789.34	2224.09
789.52	2121.70
789.69	2162.66
789.87	2050.02
790.04	2131.94
790.22	2113.50
790.39	2365.40
790.57	2072.54
790.74	2050.02
790.92	2330.59
791.09	2082.78
791.27	2211.81
791.44	2269.15
791.62	2179.04
791.79	2279.39
791.97	2226.14
792.15	2432.99
792.32	2287.58
792.50	2220.00
792.67	2318.30
792.85	2371.55
793.02	2183.13
793.20	2156.51
793.37	2099.17
793.55	2129.89
793.72	2056.16
793.90	2291.68
794.07	2117.60
794.25	2131.94
794.42	2207.71
794.60	2176.99
794.77	2283.49
794.95	2238.43
795.12	2330.59
795.30	2142.18
795.47	2035.68
795.65	2424.80
795.82	2168.80
796.00	2125.79
796.17	2183.13
796.34	2185.18
796.52	2267.10
796.69	2373.60
796.87	2349.02
797.04	2170.85
797.22	2301.92
797.39	2240.48
797.57	2256.86
797.74	2195.42
797.92	2187.23
798.09	2187.23
798.27	2265.05
798.44	2166.75
798.62	2179.04
798.79	2183.13
798.96	2250.72
799.14	2185.18
799.31	2449.37
799.49	2070.50
799.66	2117.60
799.84	2258.91
800.01	2056.16
800.19	2168.80
800.36	2105.31
800.53	2209.76
800.71	2222.05
800.88	2318.30
801.06	2121.70
801.23	2183.13
801.41	2203.61
801.58	2162.66
801.75	2115.55
801.93	2217.95
802.10	2308.06
802.28	2154.46
802.45	2195.42
802.63	2265.05
802.80	2308.06
802.97	2154.46
803.15	2152.42
803.32	2187.23
803.50	2164.70
803.67	2084.83
803.84	2095.07
804.02	2258.91
804.19	2097.12
804.37	1998.82
804.54	2113.50
804.71	2201.57
804.89	2220.00
805.06	2119.65
805.24	2138.08
805.41	2080.74
805.58	2113.50
805.76	2457.56
805.93	2170.85
806.10	2306.01
806.28	2236.38
806.45	2152.42
806.63	2269.15
806.80	2254.81
806.97	2295.77
807.15	2240.48
807.32	2258.91
807.49	2222.05
807.67	2140.13
807.84	2281.44
808.01	2035.68
808.19	2312.16
808.36	2375.64
808.54	2187.23
808.71	2113.50
808.88	2207.71
809.06	2285.53
809.23	2318.30
809.40	2113.50
809.58	2217.95
809.75	2193.37
809.92	2111.46
810.10	2342.88
810.27	2146.27
810.44	2160.61
810.62	2191.33
810.79	2226.14
810.96	2160.61
811.14	2095.07
811.31	2224.09
811.48	2269.15
811.66	2258.91
811.83	2240.48
812.00	2260.96
812.18	2267.10
812.35	2389.98
812.52	2179.04
812.69	2136.03
812.87	2117.60
813.04	2185.18
813.21	2156.51
813.39	2154.46
813.56	2105.31
813.73	2301.92
813.91	2105.31
814.08	2228.19
814.25	2228.19
814.42	2082.78
814.60	2148.32
814.77	2224.09
814.94	2176.99
815.12	2234.33
815.29	2334.68
815.46	2125.79
815.63	2258.91
815.81	2269.15
815.98	2080.74
816.15	2107.36
816.33	2207.71
816.50	2158.56
816.67	2160.61
816.84	2191.33
817.02	2047.97
817.19	2183.13
817.36	2228.19
817.53	2199.52
817.71	2121.70
817.88	2187.23
818.05	2176.99
818.22	2254.81
818.40	2326.49
818.57	2127.84
818.74	2203.61
818.91	2131.94
819.09	2230.24
819.26	2273.25
819.43	2097.12
819.60	2133.98
819.78	2211.81
819.95	2310.11
820.12	2090.98
820.29	2254.81
820.47	2357.21
820.64	2166.75
820.81	2062.30
820.98	2109.41
821.15	2176.99
821.33	2176.99
821.50	2068.45
821.67	2193.37
821.84	2133.98
822.02	2191.33
822.19	2308.06
822.36	2250.72
822.53	2127.84
822.70	2121.70
822.88	2170.85
823.05	2328.54
823.22	2146.27
823.39	2213.85
823.56	2205.66
823.74	2324.44
823.91	2082.78
824.08	2189.28
824.25	2101.22
824.42	2301.92
824.60	2107.36
824.77	2222.05
824.94	2164.70
825.11	2222.05
825.28	2023.39
825.45	2127.84
825.63	2224.09
825.80	2076.64
825.97	2222.05
826.14	2144.22
826.31	2013.15
826.48	2154.46
826.66	2127.84
826.83	2084.83
827.00	2127.84
827.17	2121.70
827.34	2103.26
827.51	2117.60
827.69	2205.66
827.86	2047.97
828.03	2142.18
828.20	2148.32
828.37	2080.74
828.54	2244.57
828.71	2121.70
828.89	2310.11
829.06	2170.85
829.23	2449.37
829.40	2101.22
829.57	2144.22
829.74	2220.00
829.91	2070.50
830.09	2154.46
830.26	2252.77
830.43	2398.17
830.60	2172.89
830.77	2285.53
830.94	2256.86
831.11	2263.01
831.28	2166.75
831.46	2252.77
831.63	2166.75
831.80	2244.57
831.97	2105.31
832.14	2115.55
832.31	2152.42
832.48	2236.38
832.65	2176.99
832.82	2154.46
832.99	2252.77
833.17	2066.40
833.34	2281.44
833.51	2234.33
833.68	2019.30
833.85	2291.68
834.02	2109.41
834.19	2054.11
834.36	2113.50
834.53	2174.94
834.70	2281.44
834.87	2222.05
835.04	2160.61
835.22	2125.79
835.39	2199.52
835.56	2111.46
835.73	2105.31
835.90	2306.01
836.07	2121.70
836.24	2179.04
836.41	2088.93
836.58	2179.04
836.75	2238.43
836.92	2185.18
837.09	2152.42
837.26	2285.53
837.43	2269.15
837.60	2160.61
837.77	2203.61
837.94	2232.29
838.12	2342.88
838.29	2133.98
838.46	2158.56
838.63	2058.21
838.80	2289.63
838.97	2252.77
839.14	2133.98
839.31	2115.55
839.48	2328.54
839.65	2142.18
839.82	2176.99
839.99	2252.77
840.16	2193.37
840.33	2088.93
840.50	2162.66
840.67	2170.85
840.84	2023.39
841.01	2199.52
841.18	2062.30
841.35	2113.50
841.52	2224.09
841.69	2430.94
841.86	2211.81
842.03	2314.20
842.20	2297.82
842.37	2179.04
842.54	2105.31
842.71	2162.66
842.88	2111.46
843.05	2183.13
843.22	2136.03
843.39	2271.20
843.56	2164.70
843.73	2127.84
843.90	2224.09
844.07	2199.52
844.24	2301.92
844.41	2211.81
844.58	2146.27
844.75	2199.52
844.92	2250.72
845.09	2154.46
845.26	2080.74
845.43	2181.09
845.60	2076.64
845.77	2240.48
845.94	2101.22
846.10	2234.33
846.27	2031.58
846.44	2105.31
846.61	2082.78
846.78	2201.57
846.95	2314.20
847.12	2113.50
847.29	2138.08
847.46	2058.21
847.63	2342.88
847.80	2146.27
847.97	2133.98
848.14	2432.99
848.31	2174.94
848.48	2068.45
848.65	2138.08
848.82	2142.18
848.98	2480.09
849.15	2185.18
849.32	2244.57
849.49	2269.15
849.66	2238.43
849.83	2142.18
850.00	2031.58
850.17	2252.77
850.34	2185.18
850.51	2125.79
850.68	2195.42
850.85	2344.92
851.01	2166.75
851.18	2183.13
851.35	2084.83
851.52	2185.18
851.69	2301.92
851.86	2078.69
852.03	2109.41
852.20	2269.15
852.37	2162.66
852.53	2052.06
852.70	2099.17
852.87	2211.81
853.04	2187.23
853.21	2179.04
853.38	2236.38
853.55	2283.49
853.72	2359.26
853.89	2047.97
854.05	2109.41
854.22	2101.22
854.39	2205.66
854.56	2162.66
854.73	2256.86
854.90	2078.69
855.07	2144.22
855.23	2187.23
855.40	2166.75
855.57	2160.61
855.74	1980.39
855.91	2312.16
856.08	2117.60
856.25	2068.45
856.41	2117.60
856.58	2152.42
856.75	2125.79
856.92	2013.15
857.09	2314.20
857.26	2054.11
857.42	2150.37
857.59	2230.24
857.76	2193.37
857.93	2154.46
858.10	2256.86
858.27	2097.12
858.43	2211.81
858.60	2209.76
858.77	1990.63
858.94	2191.33
859.11	2250.72
859.27	2129.89
859.44	2197.47
859.61	2449.37
859.78	2260.96
859.95	2150.37
860.12	2097.12
860.28	2367.45
860.45	2443.23
860.62	2138.08
860.79	2144.22
860.95	2201.57
861.12	2099.17
861.29	2064.35
861.46	2129.89
861.63	2146.27
861.79	2215.90
861.96	2097.12
862.13	2140.13
862.30	2258.91
862.47	2121.70
862.63	2113.50
862.80	2254.81
862.97	2297.82
863.14	2220.00
863.30	2195.42
863.47	2119.65
863.64	2355.16
863.81	2236.38
863.97	2035.68
864.14	2133.98
864.31	2230.24
864.48	2220.00
864.65	2119.65
864.81	2256.86
864.98	2207.71
865.15	2367.45
865.32	2220.00
865.48	2263.01
865.65	2287.58
865.82	2211.81
865.98	2203.61
866.15	2220.00
866.32	2129.89
866.49	2129.89
866.65	2326.49
866.82	2105.31
866.99	2156.51
867.16	2107.36
867.32	2097.12
867.49	2097.12
867.66	2142.18
867.83	2140.13
867.99	2074.59
868.16	2105.31
868.33	2088.93
868.49	2125.79
868.66	2211.81
868.83	2250.72
868.99	2191.33
869.16	2179.04
869.33	2260.96
869.50	2228.19
869.66	2211.81
869.83	2181.09
870.00	2105.31
870.16	2256.86
870.33	2142.18
870.50	2226.14
870.66	2113.50
870.83	2260.96
871.00	2152.42
871.17	2242.53
871.33	2162.66
871.50	2207.71
871.67	2189.28
871.83	2035.68
872.00	2306.01
872.17	2060.26
872.33	2408.41
872.50	2316.25
872.67	2183.13
872.83	2170.85
873.00	2236.38
873.17	2197.47
873.33	2260.96
873.50	2250.72
873.67	2121.70
873.83	2121.70
874.00	2154.46
874.16	2168.80
874.33	2138.08
874.50	2174.94
874.66	2109.41
874.83	2170.85
875.00	2336.73
875.16	2283.49
875.33	2172.89
875.50	2000.87
875.66	2152.42
875.83	2203.61
875.99	2293.72
876.16	2172.89
876.33	2070.50
876.49	2146.27
876.66	2183.13
876.83	2074.59
876.99	1996.77
877.16	2140.13
877.32	2070.50
877.49	2158.56
877.66	2162.66
877.82	2342.88
877.99	2199.52
878.15	2252.77
878.32	2103.26
878.49	2179.04
878.65	2101.22
878.82	2277.34
878.98	2109.41
879.15	2269.15
879.32	2209.76
879.48	2133.98
879.65	2140.13
879.81	2154.46
879.98	2193.37
880.15	2127.84
880.31	2265.05
880.48	2140.13
880.64	2217.95
880.81	2129.89
880.97	2303.96
881.14	2353.12
881.31	2105.31
881.47	2265.05
881.64	2121.70
881.80	2031.58
881.97	2189.28
882.13	2142.18
882.30	2109.41
882.47	2117.60
882.63	2172.89
882.80	2113.50
882.96	2117.60
883.13	2353.12
883.29	2138.08
883.46	2170.85
883.62	2336.73
883.79	2199.52
883.95	2133.98
884.12	2125.79
884.29	2228.19
884.45	2189.28
884.62	2250.72
884.78	2103.26
884.95	2318.30
885.11	2181.09
885.28	2162.66
885.44	2062.30
885.61	2293.72
885.77	2326.49
885.94	2197.47
886.10	2070.50
886.27	2154.46
886.43	2306.01
886.60	2211.81
886.76	2176.99
886.93	2121.70
887.09	2265.05
887.26	2017.25
887.42	2138.08
887.59	2297.82
887.75	2408.41
887.92	2252.77
888.08	2213.85
888.25	2400.22
888.41	2226.14
888.58	2166.75
888.74	2084.83
888.91	2095.07
>>>>>End Processed Spectral Data<<<<<
