SpectraSuite Data File
++++++++++++++++++++++++++++++++++++
Date: Thu May 05 12:35:32 CEST 2016
User: root
Dark Spectrum Present: No
Reference Spectrum Present: No
Number of Sampled Component Spectra: 1
Spectrometers: USB4C02835
Integration Time (usec): 100000 (USB4C02835)
Spectra Averaged: 1 (USB4C02835)
Boxcar Smoothing: 0 (USB4C02835)
Correct for Electrical Dark: No (USB4C02835)
Strobe/Lamp Enabled: No (USB4C02835)
Correct for Detector Non-linearity: No (USB4C02835)
Correct for Stray Light: No (USB4C02835)
Number of Pixels in Processed Spectrum: 3648
>>>>>Begin Processed Spectral Data<<<<<
177.47	1767.40
177.69	1767.40
177.91	1767.40
178.13	1767.40
178.36	1744.87
178.58	2127.84
178.80	2213.85
179.02	2021.35
179.24	2168.80
179.46	2070.50
179.68	2148.32
179.90	2115.55
180.13	2234.33
180.35	2076.64
180.57	2117.60
180.79	2281.44
181.01	2162.66
181.23	2191.33
181.45	2224.09
181.67	2199.52
181.90	2310.11
182.12	2058.21
182.34	2111.46
182.56	2220.00
182.78	2217.95
183.00	2064.35
183.22	2226.14
183.44	2068.45
183.66	2482.14
183.89	2174.94
184.11	2154.46
184.33	2181.09
184.55	2369.50
184.77	2162.66
184.99	2195.42
185.21	2121.70
185.43	2398.17
185.65	2097.12
185.87	2152.42
186.10	2340.83
186.32	2336.73
186.54	2193.37
186.76	2166.75
186.98	2312.16
187.20	2176.99
187.42	2172.89
187.64	2103.26
187.86	2222.05
188.08	2256.86
188.30	2080.74
188.52	2129.89
188.75	2353.12
188.97	2351.07
189.19	2097.12
189.41	2064.35
189.63	2189.28
189.85	2138.08
190.07	2009.06
190.29	2047.97
190.51	2246.62
190.73	2019.30
190.95	2226.14
191.17	2086.88
191.39	2031.58
191.61	2140.13
191.84	2103.26
192.06	2144.22
192.28	2078.69
192.50	2516.95
192.72	2211.81
192.94	2158.56
193.16	2295.77
193.38	2209.76
193.60	2101.22
193.82	2133.98
194.04	2367.45
194.26	2148.32
194.48	2174.94
194.70	2095.07
194.92	2105.31
195.14	2277.34
195.36	2148.32
195.58	2129.89
195.80	2254.81
196.02	2170.85
196.24	2179.04
196.46	2213.85
196.69	2199.52
196.91	2363.36
197.13	2154.46
197.35	2097.12
197.57	2398.17
197.79	2246.62
198.01	2105.31
198.23	2154.46
198.45	2203.61
198.67	2179.04
198.89	2142.18
199.11	2222.05
199.33	2084.83
199.55	1976.29
199.77	2086.88
199.99	2183.13
200.21	2123.74
200.43	2088.93
200.65	1982.43
200.87	2047.97
201.09	2179.04
201.31	2146.27
201.53	2176.99
201.75	2179.04
201.97	2211.81
202.19	2187.23
202.41	2162.66
202.63	2318.30
202.85	2187.23
203.07	2236.38
203.29	2117.60
203.51	2072.54
203.73	2166.75
203.95	2420.70
204.17	2121.70
204.39	2207.71
204.61	2154.46
204.83	2090.98
205.05	2220.00
205.27	2199.52
205.49	2418.65
205.71	2195.42
205.93	2015.20
206.15	2097.12
206.37	2242.53
206.59	2189.28
206.81	2023.39
207.03	2076.64
207.25	2142.18
207.47	2230.24
207.69	2148.32
207.91	2269.15
208.13	2353.12
208.34	2166.75
208.56	2095.07
208.78	2201.57
209.00	2154.46
209.22	2125.79
209.44	2093.02
209.66	2088.93
209.88	2269.15
210.10	2166.75
210.32	2113.50
210.54	2191.33
210.76	2226.14
210.98	2189.28
211.20	1929.19
211.42	2146.27
211.64	2377.69
211.86	2242.53
212.08	2215.90
212.30	2203.61
212.52	2170.85
212.74	2234.33
212.96	2158.56
213.17	2185.18
213.39	2355.16
213.61	2297.82
213.83	2170.85
214.05	2183.13
214.27	2330.59
214.49	2099.17
214.71	2086.88
214.93	2179.04
215.15	2285.53
215.37	2334.68
215.59	2052.06
215.81	2187.23
216.03	2326.49
216.24	2185.18
216.46	2107.36
216.68	2176.99
216.90	2234.33
217.12	2312.16
217.34	2068.45
217.56	2125.79
217.78	2303.96
218.00	2197.47
218.22	2183.13
218.44	2150.37
218.66	2123.74
218.87	2369.50
219.09	2142.18
219.31	2099.17
219.53	2236.38
219.75	2129.89
219.97	2234.33
220.19	2199.52
220.41	2144.22
220.63	2353.12
220.85	2125.79
221.06	2148.32
221.28	2344.92
221.50	2279.39
221.72	2152.42
221.94	2136.03
222.16	2215.90
222.38	2248.67
222.60	2230.24
222.82	2176.99
223.03	2299.87
223.25	2056.16
223.47	2144.22
223.69	2310.11
223.91	2252.77
224.13	2236.38
224.35	2097.12
224.57	2195.42
224.78	2224.09
225.00	2117.60
225.22	2133.98
225.44	2121.70
225.66	2277.34
225.88	2107.36
226.10	2203.61
226.32	2193.37
226.53	2363.36
226.75	2181.09
226.97	2133.98
227.19	2183.13
227.41	2078.69
227.63	2125.79
227.85	2070.50
228.06	2142.18
228.28	2254.81
228.50	2217.95
228.72	2078.69
228.94	2131.94
229.16	2074.59
229.37	2166.75
229.59	2127.84
229.81	2310.11
230.03	2168.80
230.25	2039.78
230.47	2025.44
230.69	2017.25
230.90	2291.68
231.12	2144.22
231.34	2150.37
231.56	2181.09
231.78	2113.50
232.00	2211.81
232.21	2086.88
232.43	2125.79
232.65	2078.69
232.87	2271.20
233.09	2052.06
233.30	2074.59
233.52	2283.49
233.74	2244.57
233.96	2138.08
234.18	2201.57
234.40	2125.79
234.61	2342.88
234.83	2064.35
235.05	2039.78
235.27	2441.18
235.49	2293.72
235.70	2115.55
235.92	2158.56
236.14	2226.14
236.36	2439.13
236.58	2002.91
236.79	2209.76
237.01	2199.52
237.23	2154.46
237.45	2244.57
237.67	2064.35
237.88	2285.53
238.10	2398.17
238.32	2043.87
238.54	2117.60
238.76	2162.66
238.97	2191.33
239.19	2105.31
239.41	2203.61
239.63	2314.20
239.85	2131.94
240.06	2099.17
240.28	2072.54
240.50	2312.16
240.72	2176.99
240.93	2097.12
241.15	2281.44
241.37	2152.42
241.59	2310.11
241.81	2168.80
242.02	2136.03
242.24	2195.42
242.46	2201.57
242.68	2070.50
242.89	2070.50
243.11	2209.76
243.33	2195.42
243.55	2140.13
243.76	2138.08
243.98	2105.31
244.20	2183.13
244.42	2117.60
244.64	2138.08
244.85	2011.11
245.07	2150.37
245.29	2142.18
245.51	2205.66
245.72	2271.20
245.94	2217.95
246.16	2170.85
246.38	2185.18
246.59	2195.42
246.81	2148.32
247.03	2078.69
247.24	2054.11
247.46	2201.57
247.68	2220.00
247.90	2072.54
248.11	2125.79
248.33	2285.53
248.55	2193.37
248.77	2117.60
248.98	2236.38
249.20	2338.78
249.42	2121.70
249.64	2131.94
249.85	2179.04
250.07	2095.07
250.29	2238.43
250.50	2201.57
250.72	2113.50
250.94	2226.14
251.16	2443.23
251.37	2226.14
251.59	2187.23
251.81	2205.66
252.02	2320.35
252.24	2035.68
252.46	2209.76
252.68	2148.32
252.89	2168.80
253.11	2076.64
253.33	2295.77
253.54	2306.01
253.76	2154.46
253.98	2129.89
254.20	2154.46
254.41	2035.68
254.63	2154.46
254.85	1998.82
255.06	2162.66
255.28	2242.53
255.50	2213.85
255.71	2129.89
255.93	2056.16
256.15	2215.90
256.36	2228.19
256.58	2088.93
256.80	2113.50
257.02	2127.84
257.23	2138.08
257.45	2123.74
257.67	2129.89
257.88	2060.26
258.10	2248.67
258.32	2127.84
258.53	2129.89
258.75	2256.86
258.97	2144.22
259.18	2113.50
259.40	2131.94
259.62	2367.45
259.83	2271.20
260.05	2187.23
260.27	2500.57
260.48	2244.57
260.70	2109.41
260.92	2056.16
261.13	2176.99
261.35	2232.29
261.57	2293.72
261.78	2023.39
262.00	2041.82
262.22	2252.77
262.43	2101.22
262.65	2076.64
262.86	2131.94
263.08	2471.90
263.30	2211.81
263.51	2041.82
263.73	2039.78
263.95	2389.98
264.16	2109.41
264.38	2047.97
264.60	2154.46
264.81	2154.46
265.03	2281.44
265.25	2310.11
265.46	2170.85
265.68	2301.92
265.89	2277.34
266.11	1990.63
266.33	2172.89
266.54	2258.91
266.76	2269.15
266.98	2217.95
267.19	2279.39
267.41	2260.96
267.62	2172.89
267.84	2043.87
268.06	2162.66
268.27	2271.20
268.49	2336.73
268.70	2160.61
268.92	2170.85
269.14	2080.74
269.35	2080.74
269.57	2152.42
269.79	2156.51
270.00	2113.50
270.22	2277.34
270.43	2115.55
270.65	2013.15
270.87	2201.57
271.08	2234.33
271.30	2207.71
271.51	2172.89
271.73	2224.09
271.95	2322.40
272.16	2148.32
272.38	2250.72
272.59	2146.27
272.81	2193.37
273.02	2181.09
273.24	2127.84
273.46	2322.40
273.67	2015.20
273.89	2093.02
274.10	2093.02
274.32	2285.53
274.54	2181.09
274.75	2146.27
274.97	2168.80
275.18	2248.67
275.40	2230.24
275.61	2144.22
275.83	2185.18
276.05	2160.61
276.26	2078.69
276.48	2164.70
276.69	2148.32
276.91	2199.52
277.12	2318.30
277.34	2228.19
277.55	2273.25
277.77	2244.57
277.99	2146.27
278.20	2007.01
278.42	2068.45
278.63	2066.40
278.85	2082.78
279.06	2138.08
279.28	2215.90
279.49	2172.89
279.71	2260.96
279.93	2160.61
280.14	2113.50
280.36	2105.31
280.57	2303.96
280.79	2199.52
281.00	2109.41
281.22	2097.12
281.43	2316.25
281.65	1990.63
281.86	2064.35
282.08	2207.71
282.29	2328.54
282.51	2088.93
282.73	2093.02
282.94	2080.74
283.16	2252.77
283.37	2332.64
283.59	2281.44
283.80	2215.90
284.02	2187.23
284.23	2209.76
284.45	2228.19
284.66	2133.98
284.88	2185.18
285.09	2209.76
285.31	2240.48
285.52	2279.39
285.74	2045.92
285.95	2195.42
286.17	2146.27
286.38	2273.25
286.60	2133.98
286.81	2109.41
287.03	2103.26
287.24	2138.08
287.46	2242.53
287.67	2199.52
287.89	2359.26
288.10	2228.19
288.32	2189.28
288.53	2279.39
288.75	2160.61
288.96	2289.63
289.18	2183.13
289.39	2199.52
289.61	2252.77
289.82	2412.51
290.04	2332.64
290.25	2064.35
290.47	2162.66
290.68	2187.23
290.90	2332.64
291.11	1982.43
291.33	2275.29
291.54	2119.65
291.76	2193.37
291.97	2260.96
292.18	2209.76
292.40	2183.13
292.61	2062.30
292.83	2416.60
293.04	2215.90
293.26	2207.71
293.47	2265.05
293.69	2011.11
293.90	2078.69
294.12	2236.38
294.33	2195.42
294.55	2164.70
294.76	2195.42
294.97	2269.15
295.19	2428.89
295.40	2201.57
295.62	2189.28
295.83	2322.40
296.05	2144.22
296.26	2275.29
296.48	2150.37
296.69	2187.23
296.90	2187.23
297.12	2306.01
297.33	2260.96
297.55	2240.48
297.76	2195.42
297.98	2277.34
298.19	2232.29
298.41	2158.56
298.62	2166.75
298.83	2283.49
299.05	2215.90
299.26	2117.60
299.48	2185.18
299.69	2254.81
299.90	2144.22
300.12	2138.08
300.33	2248.67
300.55	2168.80
300.76	2236.38
300.98	2080.74
301.19	2265.05
301.40	2164.70
301.62	2095.07
301.83	2275.29
302.05	2203.61
302.26	2170.85
302.47	2199.52
302.69	2144.22
302.90	2150.37
303.12	1947.62
303.33	2181.09
303.54	2322.40
303.76	2146.27
303.97	2103.26
304.19	2279.39
304.40	2154.46
304.61	2209.76
304.83	2389.98
305.04	2203.61
305.26	2236.38
305.47	2154.46
305.68	2162.66
305.90	2070.50
306.11	2334.68
306.33	2250.72
306.54	2129.89
306.75	2201.57
306.97	2043.87
307.18	2093.02
307.39	2121.70
307.61	2156.51
307.82	2138.08
308.04	2303.96
308.25	2119.65
308.46	2148.32
308.68	2201.57
308.89	2258.91
309.10	2205.66
309.32	2215.90
309.53	2168.80
309.74	2248.67
309.96	2170.85
310.17	2351.07
310.39	2125.79
310.60	2299.87
310.81	2185.18
311.03	2054.11
311.24	2332.64
311.45	2205.66
311.67	2353.12
311.88	2166.75
312.09	2113.50
312.31	2174.94
312.52	2047.97
312.73	2187.23
312.95	2113.50
313.16	2084.83
313.37	2236.38
313.59	2150.37
313.80	2193.37
314.01	2269.15
314.23	2166.75
314.44	2156.51
314.65	2064.35
314.87	2146.27
315.08	2107.36
315.29	2129.89
315.51	2095.07
315.72	2054.11
315.93	2389.98
316.15	2238.43
316.36	2140.13
316.57	2152.42
316.79	2146.27
317.00	2164.70
317.21	2238.43
317.43	2113.50
317.64	2244.57
317.85	2127.84
318.07	2162.66
318.28	2205.66
318.49	2275.29
318.70	2488.28
318.92	2363.36
319.13	2420.70
319.34	2379.74
319.56	2260.96
319.77	2340.83
319.98	2295.77
320.20	2316.25
320.41	2316.25
320.62	2275.29
320.83	2117.60
321.05	2371.55
321.26	2228.19
321.47	2133.98
321.69	2273.25
321.90	2088.93
322.11	2125.79
322.32	2203.61
322.54	2359.26
322.75	2095.07
322.96	2453.47
323.18	2037.73
323.39	2066.40
323.60	2105.31
323.81	2265.05
324.03	2258.91
324.24	2203.61
324.45	2144.22
324.66	2154.46
324.88	2299.87
325.09	2310.11
325.30	2271.20
325.52	2154.46
325.73	2256.86
325.94	2066.40
326.15	2043.87
326.37	2144.22
326.58	2277.34
326.79	2320.35
327.00	2146.27
327.22	2228.19
327.43	2187.23
327.64	2103.26
327.85	2252.77
328.07	2166.75
328.28	2279.39
328.49	2172.89
328.70	2176.99
328.92	2138.08
329.13	2176.99
329.34	2199.52
329.55	2404.32
329.76	2248.67
329.98	2172.89
330.19	2289.63
330.40	2170.85
330.61	2248.67
330.83	2203.61
331.04	2131.94
331.25	2148.32
331.46	2097.12
331.68	2054.11
331.89	2242.53
332.10	2281.44
332.31	1972.19
332.52	2136.03
332.74	2316.25
332.95	2023.39
333.16	2158.56
333.37	2324.44
333.58	2166.75
333.80	2207.71
334.01	2064.35
334.22	2154.46
334.43	2220.00
334.64	2158.56
334.86	2047.97
335.07	2093.02
335.28	2267.10
335.49	2052.06
335.70	2242.53
335.92	2248.67
336.13	2396.12
336.34	2258.91
336.55	2207.71
336.76	2234.33
336.98	2080.74
337.19	2174.94
337.40	2299.87
337.61	2387.93
337.82	2168.80
338.04	2189.28
338.25	2072.54
338.46	2172.89
338.67	2183.13
338.88	2019.30
339.09	2156.51
339.31	2168.80
339.52	2056.16
339.73	2133.98
339.94	2191.33
340.15	2289.63
340.36	2131.94
340.58	2226.14
340.79	2097.12
341.00	2269.15
341.21	2113.50
341.42	2246.62
341.63	2176.99
341.85	2336.73
342.06	2224.09
342.27	2088.93
342.48	2230.24
342.69	2052.06
342.90	2267.10
343.12	2328.54
343.33	2119.65
343.54	2324.44
343.75	2310.11
343.96	2199.52
344.17	2107.36
344.38	2138.08
344.60	2133.98
344.81	2111.46
345.02	2170.85
345.23	2228.19
345.44	2451.42
345.65	2164.70
345.86	2170.85
346.07	2234.33
346.29	2176.99
346.50	2176.99
346.71	2256.86
346.92	2285.53
347.13	2443.23
347.34	2211.81
347.55	2097.12
347.76	2242.53
347.98	2101.22
348.19	2138.08
348.40	2326.49
348.61	2168.80
348.82	2408.41
349.03	2195.42
349.24	2115.55
349.45	2432.99
349.66	2002.91
349.88	2191.33
350.09	2109.41
350.30	2226.14
350.51	2355.16
350.72	2162.66
350.93	2205.66
351.14	2109.41
351.35	2263.01
351.56	2162.66
351.77	2250.72
351.99	2176.99
352.20	2365.40
352.41	2254.81
352.62	2031.58
352.83	2226.14
353.04	2179.04
353.25	2162.66
353.46	2232.29
353.67	2252.77
353.88	1998.82
354.09	2115.55
354.30	2228.19
354.52	2236.38
354.73	2260.96
354.94	2103.26
355.15	2172.89
355.36	2349.02
355.57	2154.46
355.78	2217.95
355.99	2201.57
356.20	2185.18
356.41	2324.44
356.62	2191.33
356.83	2166.75
357.04	2295.77
357.25	2052.06
357.46	2115.55
357.68	1964.00
357.89	2043.87
358.10	2269.15
358.31	2205.66
358.52	2111.46
358.73	2113.50
358.94	2115.55
359.15	2172.89
359.36	2228.19
359.57	2088.93
359.78	2185.18
359.99	2252.77
360.20	2111.46
360.41	2131.94
360.62	2297.82
360.83	2172.89
361.04	2176.99
361.25	2254.81
361.46	2349.02
361.67	2172.89
361.88	2265.05
362.09	2297.82
362.30	2183.13
362.51	2084.83
362.72	2183.13
362.93	2299.87
363.14	2224.09
363.35	2195.42
363.56	2162.66
363.78	2289.63
363.99	2306.01
364.20	2189.28
364.41	2176.99
364.62	2408.41
364.83	2232.29
365.04	2105.31
365.25	2140.13
365.46	2432.99
365.67	2136.03
365.88	2224.09
366.09	2195.42
366.30	2076.64
366.51	2224.09
366.72	2111.46
366.93	2101.22
367.14	2193.37
367.35	2240.48
367.56	2138.08
367.77	2295.77
367.98	2220.00
368.18	2228.19
368.39	2211.81
368.60	2138.08
368.81	2226.14
369.02	2236.38
369.23	2162.66
369.44	2101.22
369.65	2205.66
369.86	2195.42
370.07	2220.00
370.28	2047.97
370.49	2226.14
370.70	2285.53
370.91	2052.06
371.12	2056.16
371.33	2389.98
371.54	2197.47
371.75	2340.83
371.96	1953.76
372.17	2148.32
372.38	2271.20
372.59	2183.13
372.80	2166.75
373.01	2162.66
373.22	2228.19
373.43	2088.93
373.64	2072.54
373.85	2320.35
374.06	2359.26
374.26	2287.58
374.47	2172.89
374.68	2416.60
374.89	2269.15
375.10	2121.70
375.31	2283.49
375.52	2228.19
375.73	2230.24
375.94	2189.28
376.15	2265.05
376.36	2088.93
376.57	2088.93
376.78	2099.17
376.99	2306.01
377.20	2283.49
377.40	2226.14
377.61	2357.21
377.82	2052.06
378.03	2353.12
378.24	2387.93
378.45	2191.33
378.66	2242.53
378.87	2080.74
379.08	2097.12
379.29	2105.31
379.50	2271.20
379.71	2183.13
379.91	2316.25
380.12	2144.22
380.33	2160.61
380.54	2234.33
380.75	2187.23
380.96	2154.46
381.17	2258.91
381.38	2101.22
381.59	2271.20
381.80	2275.29
382.00	2394.08
382.21	2295.77
382.42	2414.56
382.63	2420.70
382.84	2230.24
383.05	2334.68
383.26	2301.92
383.47	2310.11
383.68	2246.62
383.88	2349.02
384.09	2211.81
384.30	2408.41
384.51	2234.33
384.72	2185.18
384.93	2084.83
385.14	2271.20
385.35	2310.11
385.55	2097.12
385.76	2412.51
385.97	2138.08
386.18	2062.30
386.39	2060.26
386.60	2205.66
386.81	2152.42
387.02	2138.08
387.22	2174.94
387.43	2297.82
387.64	2299.87
387.85	2334.68
388.06	2316.25
388.27	4128.70
388.48	8697.72
388.68	12193.61
388.89	14890.78
389.10	15632.15
389.31	14864.16
389.52	11523.92
389.73	9705.32
389.93	8935.29
390.14	8361.86
390.35	7409.55
390.56	6602.65
390.77	5390.25
390.98	4179.90
391.18	3239.89
391.39	2654.17
391.60	2365.40
391.81	2379.74
392.02	2185.18
392.23	2357.21
392.43	2369.50
392.64	2332.64
392.85	2162.66
393.06	2404.32
393.27	2146.27
393.47	2113.50
393.68	2164.70
393.89	2148.32
394.10	2389.98
394.31	2166.75
394.52	2088.93
394.72	2119.65
394.93	2267.10
395.14	2158.56
395.35	2250.72
395.56	2150.37
395.76	2146.27
395.97	2234.33
396.18	2336.73
396.39	2338.78
396.60	2699.22
396.80	2447.32
397.01	2301.92
397.22	2383.84
397.43	2355.16
397.64	2133.98
397.84	2326.49
398.05	2455.51
398.26	2258.91
398.47	2265.05
398.67	2299.87
398.88	2230.24
399.09	2260.96
399.30	2170.85
399.51	2211.81
399.71	2086.88
399.92	2109.41
400.13	2226.14
400.34	2107.36
400.54	2209.76
400.75	2326.49
400.96	2201.57
401.17	2392.03
401.37	2154.46
401.58	2236.38
401.79	2146.27
402.00	2299.87
402.21	2596.82
402.41	2555.86
402.62	2535.39
402.83	2609.11
403.04	2715.61
403.24	2803.67
403.45	2418.65
403.66	2459.61
403.87	2437.08
404.07	2539.48
404.28	2420.70
404.49	2447.32
404.70	2207.71
404.90	2271.20
405.11	2207.71
405.32	2244.57
405.52	2160.61
405.73	2154.46
405.94	2142.18
406.15	2209.76
406.35	2250.72
406.56	2303.96
406.77	2306.01
406.98	2209.76
407.18	2201.57
407.39	2316.25
407.60	2203.61
407.80	2250.72
408.01	2105.31
408.22	2263.01
408.43	2148.32
408.63	2166.75
408.84	2316.25
409.05	2283.49
409.25	2039.78
409.46	2160.61
409.67	2121.70
409.88	2162.66
410.08	2201.57
410.29	2093.02
410.50	2308.06
410.70	2258.91
410.91	2138.08
411.12	2258.91
411.32	2236.38
411.53	2205.66
411.74	2291.68
411.95	2303.96
412.15	2353.12
412.36	2301.92
412.57	2310.11
412.77	2344.92
412.98	2285.53
413.19	2215.90
413.39	2269.15
413.60	2197.47
413.81	2422.75
414.01	2101.22
414.22	2269.15
414.43	2238.43
414.63	2209.76
414.84	2342.88
415.05	2248.67
415.25	2066.40
415.46	2250.72
415.67	2183.13
415.87	2209.76
416.08	2234.33
416.29	2146.27
416.49	2260.96
416.70	2179.04
416.91	2119.65
417.11	2240.48
417.32	2285.53
417.53	2187.23
417.73	2244.57
417.94	2228.19
418.15	2242.53
418.35	2176.99
418.56	2127.84
418.77	2351.07
418.97	2199.52
419.18	2144.22
419.38	1966.05
419.59	2152.42
419.80	2363.36
420.00	2203.61
420.21	2172.89
420.42	2318.30
420.62	2240.48
420.83	2131.94
421.04	2160.61
421.24	2168.80
421.45	2238.43
421.65	2164.70
421.86	2195.42
422.07	2308.06
422.27	2203.61
422.48	2217.95
422.69	2021.35
422.89	2181.09
423.10	2109.41
423.30	2093.02
423.51	2181.09
423.72	2236.38
423.92	2201.57
424.13	2080.74
424.33	2242.53
424.54	2260.96
424.75	2215.90
424.95	2344.92
425.16	2209.76
425.36	2228.19
425.57	2273.25
425.78	2324.44
425.98	2234.33
426.19	2154.46
426.39	2158.56
426.60	2271.20
426.81	2285.53
427.01	2166.75
427.22	2070.50
427.42	2095.07
427.63	2105.31
427.83	2324.44
428.04	2369.50
428.25	2394.08
428.45	2297.82
428.66	2328.54
428.86	2258.91
429.07	2242.53
429.28	2209.76
429.48	2150.37
429.69	2183.13
429.89	2211.81
430.10	2035.68
430.30	2277.34
430.51	2351.07
430.71	2121.70
430.92	2090.98
431.13	2144.22
431.33	2236.38
431.54	2256.86
431.74	2371.55
431.95	2326.49
432.15	2066.40
432.36	2244.57
432.56	2277.34
432.77	2385.88
432.98	2406.36
433.18	2217.95
433.39	2136.03
433.59	2136.03
433.80	2410.46
434.00	2490.33
434.21	2187.23
434.41	2174.94
434.62	2379.74
434.82	2070.50
435.03	2113.50
435.23	2183.13
435.44	1988.58
435.64	2142.18
435.85	2234.33
436.06	2269.15
436.26	2234.33
436.47	2166.75
436.67	2097.12
436.88	2117.60
437.08	2187.23
437.29	2326.49
437.49	2217.95
437.70	2361.31
437.90	2213.85
438.11	2359.26
438.31	2215.90
438.52	2547.67
438.72	2457.56
438.93	2475.99
439.13	2269.15
439.34	2375.64
439.54	2281.44
439.75	2324.44
439.95	2260.96
440.16	2179.04
440.36	2234.33
440.57	2281.44
440.77	2195.42
440.98	2217.95
441.18	2320.35
441.39	2109.41
441.59	2154.46
441.80	2406.36
442.00	2170.85
442.21	2289.63
442.41	2088.93
442.62	2269.15
442.82	2136.03
443.02	2265.05
443.23	2316.25
443.43	2226.14
443.64	2359.26
443.84	2131.94
444.05	2265.05
444.25	2211.81
444.46	2174.94
444.66	2203.61
444.87	2381.79
445.07	2056.16
445.28	2191.33
445.48	2353.12
445.69	2283.49
445.89	2492.38
446.09	2250.72
446.30	2490.33
446.50	2766.81
446.71	4405.18
446.91	5666.73
447.12	6494.11
447.32	6819.74
447.53	6256.54
447.73	5134.26
447.93	4714.42
448.14	4325.31
448.34	4093.89
448.55	3600.33
448.75	3547.08
448.96	3346.38
449.16	3143.63
449.36	2930.64
449.57	2584.54
449.77	2310.11
449.98	2185.18
450.18	2351.07
450.39	2285.53
450.59	2314.20
450.79	2220.00
451.00	2080.74
451.20	2318.30
451.41	2236.38
451.61	2220.00
451.81	2199.52
452.02	2187.23
452.22	2146.27
452.43	2226.14
452.63	2115.55
452.84	2187.23
453.04	2088.93
453.24	2250.72
453.45	2176.99
453.65	2228.19
453.86	2293.72
454.06	2260.96
454.26	2242.53
454.47	2115.55
454.67	2357.21
454.87	2310.11
455.08	2263.01
455.28	2265.05
455.49	2308.06
455.69	2125.79
455.89	2432.99
456.10	2303.96
456.30	2176.99
456.51	2277.34
456.71	2258.91
456.91	2250.72
457.12	2281.44
457.32	2240.48
457.52	2127.84
457.73	2293.72
457.93	2289.63
458.14	2105.31
458.34	2025.44
458.54	2183.13
458.75	2179.04
458.95	2285.53
459.15	2201.57
459.36	2234.33
459.56	2191.33
459.76	2363.36
459.97	2265.05
460.17	2164.70
460.37	2277.34
460.58	2185.18
460.78	2287.58
460.99	2125.79
461.19	2125.79
461.39	2224.09
461.60	2142.18
461.80	2281.44
462.00	2133.98
462.21	2172.89
462.41	2166.75
462.61	2090.98
462.82	2058.21
463.02	2207.71
463.22	2217.95
463.43	2256.86
463.63	2205.66
463.83	2365.40
464.04	2232.29
464.24	2195.42
464.44	2060.26
464.64	2275.29
464.85	2164.70
465.05	2250.72
465.25	2209.76
465.46	2127.84
465.66	2258.91
465.86	2281.44
466.07	2246.62
466.27	2187.23
466.47	2136.03
466.68	2105.31
466.88	2412.51
467.08	2260.96
467.29	2385.88
467.49	2275.29
467.69	2195.42
467.89	2244.57
468.10	2211.81
468.30	2252.77
468.50	2328.54
468.71	2314.20
468.91	2123.74
469.11	2355.16
469.31	2189.28
469.52	2101.22
469.72	2369.50
469.92	2443.23
470.13	2195.42
470.33	2246.62
470.53	2273.25
470.73	2701.27
470.94	3037.14
471.14	3223.50
471.34	3684.30
471.54	3416.01
471.75	3121.10
471.95	2901.97
472.15	2785.24
472.36	2785.24
472.56	2658.26
472.76	2684.89
472.96	2582.49
473.17	2482.14
473.37	2494.43
473.57	2246.62
473.77	2441.18
473.98	2238.43
474.18	2166.75
474.38	2457.56
474.58	2125.79
474.79	2150.37
474.99	2232.29
475.19	2269.15
475.39	2111.46
475.60	2258.91
475.80	2220.00
476.00	2252.77
476.20	2146.27
476.41	2275.29
476.61	2310.11
476.81	2340.83
477.01	2111.46
477.21	2373.60
477.42	2287.58
477.62	2123.74
477.82	2312.16
478.02	2119.65
478.23	2211.81
478.43	2109.41
478.63	2203.61
478.83	2174.94
479.03	2166.75
479.24	2367.45
479.44	2340.83
479.64	2168.80
479.84	2023.39
480.04	2179.04
480.25	2312.16
480.45	2181.09
480.65	2187.23
480.85	2381.79
481.06	2146.27
481.26	2242.53
481.46	2140.13
481.66	2260.96
481.86	2142.18
482.06	2316.25
482.27	2258.91
482.47	2170.85
482.67	2258.91
482.87	2156.51
483.07	2267.10
483.28	2088.93
483.48	2168.80
483.68	2103.26
483.88	2113.50
484.08	2013.15
484.29	2131.94
484.49	2265.05
484.69	2064.35
484.89	2389.98
485.09	2281.44
485.29	2244.57
485.50	2228.19
485.70	2201.57
485.90	2408.41
486.10	2207.71
486.30	2246.62
486.50	2355.16
486.71	2152.42
486.91	2267.10
487.11	2338.78
487.31	2054.11
487.51	2252.77
487.71	2111.46
487.91	2121.70
488.12	2140.13
488.32	1986.53
488.52	2168.80
488.72	2039.78
488.92	2338.78
489.12	2396.12
489.32	2207.71
489.53	2119.65
489.73	2090.98
489.93	2320.35
490.13	2086.88
490.33	2072.54
490.53	2232.29
490.73	2359.26
490.94	2076.64
491.14	2275.29
491.34	2301.92
491.54	2578.39
491.74	3153.87
491.94	3807.17
492.14	4028.35
492.34	4130.75
492.54	3755.97
492.75	3223.50
492.95	3119.06
493.15	3026.90
493.35	2873.30
493.55	2838.48
493.75	2758.61
493.95	2809.81
494.15	2576.34
494.35	2336.73
494.56	2324.44
494.76	2246.62
494.96	2220.00
495.16	2248.67
495.36	2158.56
495.56	2283.49
495.76	2269.15
495.96	2160.61
496.16	2160.61
496.36	2392.03
496.56	2203.61
496.77	2285.53
496.97	2146.27
497.17	2363.36
497.37	2060.26
497.57	2281.44
497.77	2314.20
497.97	2158.56
498.17	2138.08
498.37	2158.56
498.57	2285.53
498.77	2148.32
498.97	2275.29
499.17	2424.80
499.38	2222.05
499.58	2250.72
499.78	2228.19
499.98	2342.88
500.18	2215.90
500.38	2170.85
500.58	2437.08
500.78	2809.81
500.98	5210.03
501.18	7421.84
501.38	9142.13
501.58	9981.80
501.78	9863.02
501.98	7935.88
502.18	6514.59
502.38	5668.78
502.58	5130.16
502.78	4603.83
502.98	4526.01
503.18	4235.20
503.38	3973.06
503.59	3411.92
503.79	3221.45
503.99	3016.66
504.19	2775.00
504.39	2844.63
504.59	2856.92
504.79	2916.31
504.99	2924.50
505.19	2519.00
505.39	2537.43
505.59	2598.87
505.79	2492.38
505.99	2404.32
506.19	2334.68
506.39	2346.97
506.59	2256.86
506.79	2150.37
506.99	2355.16
507.19	2201.57
507.39	2252.77
507.59	2088.93
507.79	2127.84
507.99	2174.94
508.19	2201.57
508.39	2176.99
508.59	2201.57
508.79	2367.45
508.99	2377.69
509.19	2142.18
509.39	2258.91
509.59	2191.33
509.79	2121.70
509.99	2287.58
510.19	2258.91
510.39	2271.20
510.59	2306.01
510.79	2072.54
510.99	2107.36
511.19	2220.00
511.39	2342.88
511.59	2273.25
511.79	2402.27
511.99	2195.42
512.19	2441.18
512.38	2179.04
512.58	2154.46
512.78	2160.61
512.98	2334.68
513.18	2367.45
513.38	2121.70
513.58	2277.34
513.78	2131.94
513.98	2185.18
514.18	2109.41
514.38	2365.40
514.58	2234.33
514.78	2133.98
514.98	2113.50
515.18	2207.71
515.38	2152.42
515.58	2404.32
515.78	2162.66
515.98	2215.90
516.18	2355.16
516.38	2172.89
516.57	2201.57
516.77	2187.23
516.97	2242.53
517.17	2174.94
517.37	2080.74
517.57	2242.53
517.77	2166.75
517.97	2140.13
518.17	2244.57
518.37	2072.54
518.57	2152.42
518.77	2115.55
518.97	2234.33
519.16	2273.25
519.36	2316.25
519.56	2179.04
519.76	2185.18
519.96	2260.96
520.16	2416.60
520.36	2123.74
520.56	2312.16
520.76	2154.46
520.96	2170.85
521.16	2252.77
521.35	2328.54
521.55	2330.59
521.75	2252.77
521.95	2164.70
522.15	2170.85
522.35	2047.97
522.55	2117.60
522.75	2277.34
522.95	2179.04
523.14	2121.70
523.34	2285.53
523.54	2191.33
523.74	2258.91
523.94	2183.13
524.14	2074.59
524.34	2242.53
524.54	2289.63
524.73	2174.94
524.93	2232.29
525.13	2258.91
525.33	2097.12
525.53	2439.13
525.73	2248.67
525.93	2209.76
526.13	2174.94
526.32	2138.08
526.52	2299.87
526.72	2355.16
526.92	2181.09
527.12	2117.60
527.32	2111.46
527.52	2193.37
527.71	2215.90
527.91	2187.23
528.11	2133.98
528.31	2146.27
528.51	2154.46
528.71	2267.10
528.90	2277.34
529.10	2301.92
529.30	2289.63
529.50	1974.24
529.70	2291.68
529.90	2078.69
530.09	2250.72
530.29	2105.31
530.49	2125.79
530.69	2371.55
530.89	2207.71
531.09	2269.15
531.28	2162.66
531.48	2332.64
531.68	2181.09
531.88	2170.85
532.08	2275.29
532.28	2209.76
532.47	2228.19
532.67	2301.92
532.87	2269.15
533.07	2158.56
533.27	2330.59
533.46	2289.63
533.66	2201.57
533.86	2195.42
534.06	2179.04
534.26	2283.49
534.45	2238.43
534.65	2213.85
534.85	2267.10
535.05	2242.53
535.25	2285.53
535.44	2090.98
535.64	2267.10
535.84	2129.89
536.04	2201.57
536.24	2133.98
536.43	2097.12
536.63	2164.70
536.83	2228.19
537.03	2248.67
537.22	2062.30
537.42	2074.59
537.62	2193.37
537.82	2232.29
538.02	2373.60
538.21	2351.07
538.41	2496.47
538.61	2279.39
538.81	2160.61
539.00	2273.25
539.20	2056.16
539.40	2209.76
539.60	2234.33
539.79	2332.64
539.99	2170.85
540.19	2127.84
540.39	2176.99
540.58	2197.47
540.78	2217.95
540.98	2248.67
541.18	2326.49
541.37	2252.77
541.57	2168.80
541.77	2220.00
541.97	2099.17
542.16	2035.68
542.36	2150.37
542.56	2144.22
542.76	2361.31
542.95	2236.38
543.15	2246.62
543.35	2217.95
543.54	2119.65
543.74	2093.02
543.94	2289.63
544.14	2201.57
544.33	2203.61
544.53	2199.52
544.73	2129.89
544.93	2127.84
545.12	2217.95
545.32	2222.05
545.52	2133.98
545.71	2121.70
545.91	2152.42
546.11	2199.52
546.30	2154.46
546.50	2246.62
546.70	2308.06
546.90	2230.24
547.09	2045.92
547.29	2187.23
547.49	2398.17
547.68	2242.53
547.88	2123.74
548.08	2293.72
548.27	2711.51
548.47	2101.22
548.67	2121.70
548.87	2236.38
549.06	2097.12
549.26	2199.52
549.46	2201.57
549.65	2195.42
549.85	2217.95
550.05	2209.76
550.24	2095.07
550.44	2244.57
550.64	2207.71
550.83	2193.37
551.03	2330.59
551.23	2389.98
551.42	2295.77
551.62	2162.66
551.82	2150.37
552.01	2187.23
552.21	2293.72
552.41	2144.22
552.60	2355.16
552.80	2293.72
553.00	2222.05
553.19	2260.96
553.39	2367.45
553.59	2136.03
553.78	2236.38
553.98	2203.61
554.17	2170.85
554.37	2185.18
554.57	2230.24
554.76	2093.02
554.96	2148.32
555.16	2234.33
555.35	2244.57
555.55	2271.20
555.75	2228.19
555.94	2256.86
556.14	2099.17
556.33	2265.05
556.53	2199.52
556.73	2195.42
556.92	2258.91
557.12	2273.25
557.32	2424.80
557.51	2357.21
557.71	2207.71
557.90	2349.02
558.10	2357.21
558.30	2164.70
558.49	2260.96
558.69	2140.13
558.88	2267.10
559.08	2164.70
559.28	2170.85
559.47	2269.15
559.67	2256.86
559.86	2498.52
560.06	2252.77
560.26	2179.04
560.45	2238.43
560.65	2097.12
560.84	2295.77
561.04	2164.70
561.24	2351.07
561.43	2127.84
561.63	2310.11
561.82	2267.10
562.02	2283.49
562.22	2273.25
562.41	2154.46
562.61	2156.51
562.80	2127.84
563.00	2478.04
563.19	2168.80
563.39	2207.71
563.59	2285.53
563.78	2093.02
563.98	2068.45
564.17	2082.78
564.37	2045.92
564.56	2205.66
564.76	2168.80
564.96	2338.78
565.15	2154.46
565.35	2381.79
565.54	2201.57
565.74	2230.24
565.93	2203.61
566.13	2240.48
566.32	2306.01
566.52	2246.62
566.71	2324.44
566.91	2285.53
567.11	2265.05
567.30	2103.26
567.50	2285.53
567.69	2244.57
567.89	2154.46
568.08	2156.51
568.28	2252.77
568.47	2086.88
568.67	2193.37
568.86	2189.28
569.06	2361.31
569.25	2195.42
569.45	2133.98
569.64	2103.26
569.84	2095.07
570.04	2252.77
570.23	2240.48
570.43	2205.66
570.62	2220.00
570.82	2402.27
571.01	2080.74
571.21	2136.03
571.40	2105.31
571.60	2301.92
571.79	2156.51
571.99	2215.90
572.18	2162.66
572.38	2308.06
572.57	2197.47
572.77	2267.10
572.96	2543.58
573.16	2246.62
573.35	2203.61
573.55	2289.63
573.74	2222.05
573.94	2228.19
574.13	2258.91
574.33	2236.38
574.52	2283.49
574.71	2170.85
574.91	2291.68
575.10	2148.32
575.30	2185.18
575.49	2170.85
575.69	2205.66
575.88	2293.72
576.08	2299.87
576.27	2406.36
576.47	2236.38
576.66	2400.22
576.86	2326.49
577.05	2209.76
577.25	2400.22
577.44	2469.85
577.64	2248.67
577.83	2217.95
578.02	2240.48
578.22	2371.55
578.41	2455.51
578.61	2232.29
578.80	2152.42
579.00	2248.67
579.19	2252.77
579.39	2361.31
579.58	2326.49
579.77	2228.19
579.97	2363.36
580.16	2369.50
580.36	2297.82
580.55	2355.16
580.75	2281.44
580.94	2283.49
581.13	2371.55
581.33	2396.12
581.52	2293.72
581.72	2445.27
581.91	2383.84
582.11	2170.85
582.30	2342.88
582.49	2289.63
582.69	2324.44
582.88	2332.64
583.08	2252.77
583.27	2338.78
583.47	2312.16
583.66	2191.33
583.85	2152.42
584.05	2183.13
584.24	2301.92
584.44	2258.91
584.63	2369.50
584.82	2453.47
585.02	2420.70
585.21	2394.08
585.41	2402.27
585.60	2295.77
585.79	2545.63
585.99	2457.56
586.18	2371.55
586.37	2842.58
586.57	4497.34
586.76	13324.08
586.96	32501.26
587.15	46576.95
587.34	56181.93
587.54	61242.46
587.73	56566.94
587.93	39681.44
588.12	29978.17
588.31	24196.75
588.51	21059.26
588.70	19132.12
588.89	17430.26
589.09	15195.93
589.28	13223.73
589.47	10866.52
589.67	8392.58
589.86	6246.30
590.06	4747.19
590.25	3823.56
590.44	3203.02
590.64	2871.25
590.83	2535.39
591.02	2539.48
591.22	2346.97
591.41	2396.12
591.60	2316.25
591.80	2537.43
591.99	2133.98
592.18	2263.01
592.38	2252.77
592.57	2183.13
592.76	2250.72
592.96	2209.76
593.15	2244.57
593.34	2369.50
593.54	2191.33
593.73	2267.10
593.92	2334.68
594.12	2301.92
594.31	2318.30
594.50	2416.60
594.70	2357.21
594.89	2482.14
595.08	2207.71
595.28	2316.25
595.47	2564.06
595.66	2316.25
595.86	2156.51
596.05	2166.75
596.24	2248.67
596.43	2471.90
596.63	2375.64
596.82	2244.57
597.01	2297.82
597.21	2400.22
597.40	2308.06
597.59	2242.53
597.79	2269.15
597.98	2277.34
598.17	2230.24
598.36	2195.42
598.56	2357.21
598.75	2199.52
598.94	2189.28
599.14	2340.83
599.33	2129.89
599.52	2275.29
599.71	2314.20
599.91	2285.53
600.10	2273.25
600.29	2209.76
600.48	2273.25
600.68	2285.53
600.87	2285.53
601.06	2138.08
601.26	2287.58
601.45	2224.09
601.64	2201.57
601.83	2389.98
602.03	2133.98
602.22	2154.46
602.41	2279.39
602.60	2492.38
602.80	2379.74
602.99	2226.14
603.18	2170.85
603.37	2269.15
603.57	2215.90
603.76	2301.92
603.95	2383.84
604.14	2248.67
604.34	2199.52
604.53	2248.67
604.72	2217.95
604.91	2357.21
605.10	2211.81
605.30	2144.22
605.49	2353.12
605.68	2308.06
605.87	2242.53
606.07	2033.63
606.26	2187.23
606.45	2267.10
606.64	2291.68
606.84	2187.23
607.03	2242.53
607.22	2385.88
607.41	2246.62
607.60	2222.05
607.80	2379.74
607.99	2256.86
608.18	2240.48
608.37	2273.25
608.56	2166.75
608.76	2310.11
608.95	2410.46
609.14	2342.88
609.33	2394.08
609.52	2486.23
609.72	2293.72
609.91	2418.65
610.10	2381.79
610.29	2342.88
610.48	2291.68
610.68	2289.63
610.87	2203.61
611.06	2324.44
611.25	2211.81
611.44	2285.53
611.63	2224.09
611.83	2349.02
612.02	2080.74
612.21	2383.84
612.40	2017.25
612.59	2172.89
612.79	2125.79
612.98	2191.33
613.17	2330.59
613.36	2252.77
613.55	2459.61
613.74	2336.73
613.93	2416.60
614.13	2510.81
614.32	2502.62
614.51	2367.45
614.70	2363.36
614.89	2256.86
615.08	2326.49
615.28	2756.57
615.47	2142.18
615.66	2215.90
615.85	2250.72
616.04	2416.60
616.23	2320.35
616.42	2244.57
616.62	2256.86
616.81	2285.53
617.00	2209.76
617.19	2242.53
617.38	2179.04
617.57	2295.77
617.76	2312.16
617.95	2301.92
618.15	2299.87
618.34	2404.32
618.53	2103.26
618.72	2322.40
618.91	2332.64
619.10	2289.63
619.29	2215.90
619.48	2322.40
619.68	2144.22
619.87	2191.33
620.06	2121.70
620.25	2254.81
620.44	2154.46
620.63	2179.04
620.82	2248.67
621.01	2306.01
621.20	2244.57
621.39	2263.01
621.59	2236.38
621.78	2269.15
621.97	2162.66
622.16	2263.01
622.35	2269.15
622.54	2328.54
622.73	2379.74
622.92	2039.78
623.11	2285.53
623.30	2211.81
623.49	2324.44
623.68	2146.27
623.88	2320.35
624.07	2172.89
624.26	2234.33
624.45	2232.29
624.64	2176.99
624.83	2265.05
625.02	2140.13
625.21	2185.18
625.40	2232.29
625.59	2383.84
625.78	2189.28
625.97	2383.84
626.16	2396.12
626.35	2394.08
626.54	2349.02
626.74	2428.89
626.93	2232.29
627.12	2179.04
627.31	2314.20
627.50	2242.53
627.69	2312.16
627.88	2236.38
628.07	2195.42
628.26	2004.96
628.45	2183.13
628.64	2070.50
628.83	2228.19
629.02	2056.16
629.21	2301.92
629.40	2357.21
629.59	2136.03
629.78	2142.18
629.97	2236.38
630.16	2306.01
630.35	2244.57
630.54	2160.61
630.73	2152.42
630.92	2242.53
631.11	2086.88
631.30	2207.71
631.49	2287.58
631.68	2232.29
631.87	2207.71
632.06	2084.83
632.25	2467.80
632.44	2209.76
632.63	2203.61
632.82	2318.30
633.01	2269.15
633.20	2336.73
633.39	2244.57
633.58	2260.96
633.77	2293.72
633.96	2285.53
634.15	2273.25
634.34	2299.87
634.53	2336.73
634.72	2222.05
634.91	2064.35
635.10	2263.01
635.29	2349.02
635.48	2172.89
635.67	2140.13
635.86	1996.77
636.05	2301.92
636.24	2254.81
636.43	2199.52
636.62	2168.80
636.81	2054.11
637.00	2308.06
637.19	2242.53
637.38	2236.38
637.57	2326.49
637.76	2289.63
637.95	2344.92
638.14	2267.10
638.33	2322.40
638.52	2273.25
638.71	2226.14
638.89	2162.66
639.08	2506.71
639.27	2349.02
639.46	2572.25
639.65	2885.59
639.84	2858.96
640.03	3133.39
640.22	2932.69
640.41	2994.13
640.60	2531.29
640.79	2584.54
640.98	2406.36
641.17	2422.75
641.36	2416.60
641.55	2416.60
641.74	2260.96
641.92	2222.05
642.11	2254.81
642.30	2176.99
642.49	2138.08
642.68	2158.56
642.87	2193.37
643.06	2224.09
643.25	2138.08
643.44	2090.98
643.63	2158.56
643.82	2287.58
644.00	2121.70
644.19	2263.01
644.38	2146.27
644.57	2244.57
644.76	2228.19
644.95	2195.42
645.14	2201.57
645.33	2172.89
645.52	2232.29
645.71	2056.16
645.89	2156.51
646.08	2189.28
646.27	2144.22
646.46	2408.41
646.65	2099.17
646.84	2248.67
647.03	2101.22
647.22	2357.21
647.40	2269.15
647.59	2217.95
647.78	2009.06
647.97	2160.61
648.16	2168.80
648.35	2357.21
648.54	2248.67
648.73	2158.56
648.91	2287.58
649.10	2158.56
649.29	2109.41
649.48	2166.75
649.67	2287.58
649.86	2281.44
650.05	2220.00
650.23	2469.85
650.42	2389.98
650.61	2525.15
650.80	2359.26
650.99	2490.33
651.18	2295.77
651.36	2383.84
651.55	2242.53
651.74	2316.25
651.93	2265.05
652.12	2170.85
652.31	2209.76
652.49	2168.80
652.68	2168.80
652.87	2320.35
653.06	2211.81
653.25	2408.41
653.44	2234.33
653.62	2449.37
653.81	2162.66
654.00	2252.77
654.19	2244.57
654.38	2490.33
654.56	2215.90
654.75	2072.54
654.94	2332.64
655.13	2263.01
655.32	2197.47
655.51	2293.72
655.69	2168.80
655.88	2250.72
656.07	2125.79
656.26	2242.53
656.45	2070.50
656.63	2154.46
656.82	2234.33
657.01	2316.25
657.20	2119.65
657.38	2369.50
657.57	2250.72
657.76	2162.66
657.95	2172.89
658.14	2101.22
658.32	2138.08
658.51	2068.45
658.70	2181.09
658.89	2306.01
659.08	2170.85
659.26	2402.27
659.45	2234.33
659.64	2289.63
659.83	2160.61
660.01	2531.29
660.20	2334.68
660.39	2398.17
660.58	2002.91
660.76	2248.67
660.95	2039.78
661.14	2293.72
661.33	2121.70
661.51	2191.33
661.70	2199.52
661.89	2297.82
662.08	2197.47
662.26	2109.41
662.45	2072.54
662.64	2353.12
662.83	2244.57
663.01	2109.41
663.20	2166.75
663.39	2328.54
663.58	2162.66
663.76	2162.66
663.95	2271.20
664.14	2093.02
664.32	2170.85
664.51	2170.85
664.70	2066.40
664.89	2234.33
665.07	2195.42
665.26	2265.05
665.45	2093.02
665.64	2220.00
665.82	2201.57
666.01	2275.29
666.20	2125.79
666.38	2306.01
666.57	2404.32
666.76	3444.68
666.95	7933.83
667.13	16531.20
667.32	21989.04
667.51	25964.15
667.69	27741.78
667.88	25648.76
668.07	18335.46
668.25	14677.79
668.44	11870.03
668.63	10264.42
668.81	9043.83
669.00	7927.69
669.19	7167.89
669.38	6285.22
669.56	5341.10
669.75	4390.84
669.94	3737.54
670.12	3194.83
670.31	2715.61
670.50	2607.06
670.68	2457.56
670.87	2308.06
671.06	2289.63
671.24	2336.73
671.43	2465.75
671.62	2318.30
671.80	2222.05
671.99	2314.20
672.18	2256.86
672.36	2295.77
672.55	2199.52
672.74	2158.56
672.92	2162.66
673.11	2256.86
673.29	2107.36
673.48	2308.06
673.67	2195.42
673.85	2375.64
674.04	2179.04
674.23	2240.48
674.41	2340.83
674.60	2080.74
674.79	2002.91
674.97	2115.55
675.16	2287.58
675.34	2242.53
675.53	2166.75
675.72	2183.13
675.90	2351.07
676.09	2160.61
676.28	2187.23
676.46	2035.68
676.65	2342.88
676.83	2183.13
677.02	2158.56
677.21	2166.75
677.39	2207.71
677.58	2148.32
677.77	2138.08
677.95	2189.28
678.14	2199.52
678.32	2148.32
678.51	2142.18
678.70	2400.22
678.88	2150.37
679.07	2238.43
679.25	2234.33
679.44	2138.08
679.63	2121.70
679.81	2224.09
680.00	2318.30
680.18	2226.14
680.37	2383.84
680.55	2215.90
680.74	2070.50
680.93	2064.35
681.11	2222.05
681.30	2217.95
681.48	2281.44
681.67	2170.85
681.85	2252.77
682.04	2217.95
682.23	2252.77
682.41	2205.66
682.60	2191.33
682.78	2109.41
682.97	2150.37
683.15	2179.04
683.34	2291.68
683.53	2336.73
683.71	2011.11
683.90	2351.07
684.08	2439.13
684.27	2232.29
684.45	2265.05
684.64	2326.49
684.82	2185.18
685.01	2250.72
685.19	2142.18
685.38	2394.08
685.57	2174.94
685.75	2123.74
685.94	2250.72
686.12	2107.36
686.31	2179.04
686.49	2277.34
686.68	1996.77
686.86	2244.57
687.05	2277.34
687.23	2414.56
687.42	2191.33
687.60	2080.74
687.79	2242.53
687.97	2303.96
688.16	2293.72
688.34	2326.49
688.53	2074.59
688.71	2320.35
688.90	2375.64
689.08	2174.94
689.27	2041.82
689.45	2258.91
689.64	2275.29
689.82	2242.53
690.01	2187.23
690.19	2308.06
690.38	2146.27
690.56	2344.92
690.75	2158.56
690.93	2127.84
691.12	2193.37
691.30	2254.81
691.49	2154.46
691.67	2181.09
691.86	2510.81
692.04	2187.23
692.23	2244.57
692.41	2252.77
692.60	2422.75
692.78	2383.84
692.97	2291.68
693.15	2324.44
693.34	2346.97
693.52	2299.87
693.71	2152.42
693.89	2215.90
694.08	2052.06
694.26	2281.44
694.44	2310.11
694.63	2271.20
694.81	2162.66
695.00	2125.79
695.18	2162.66
695.37	2412.51
695.55	2168.80
695.74	2127.84
695.92	2131.94
696.10	2285.53
696.29	2045.92
696.47	2119.65
696.66	2086.88
696.84	2119.65
697.03	2246.62
697.21	2392.03
697.40	3186.64
697.58	2336.73
697.76	2131.94
697.95	2154.46
698.13	2119.65
698.32	2162.66
698.50	2129.89
698.68	2334.68
698.87	2273.25
699.05	2367.45
699.24	2220.00
699.42	2056.16
699.61	2240.48
699.79	2215.90
699.97	2162.66
700.16	2076.64
700.34	2054.11
700.53	2236.38
700.71	2299.87
700.89	2271.20
701.08	2121.70
701.26	2263.01
701.45	2797.53
701.63	2191.33
701.81	2160.61
702.00	2174.94
702.18	2187.23
702.37	2269.15
702.55	2512.86
702.73	2451.42
702.92	2363.36
703.10	2570.20
703.28	2439.13
703.47	2263.01
703.65	2478.04
703.84	2420.70
704.02	2193.37
704.20	2346.97
704.39	2191.33
704.57	2230.24
704.75	2394.08
704.94	2377.69
705.12	2228.19
705.30	2543.58
705.49	4435.90
705.67	11155.29
705.86	20172.49
706.04	24794.76
706.22	28116.56
706.41	29374.02
706.59	25210.50
706.77	17647.35
706.96	14776.09
707.14	12767.04
707.32	11071.32
707.51	9836.39
707.69	8210.31
707.87	6508.44
708.06	5310.38
708.24	4243.39
708.42	3360.72
708.61	3090.38
708.79	2432.99
708.97	2455.51
709.16	2482.14
709.34	2314.20
709.52	2236.38
709.71	2183.13
709.89	2308.06
710.07	2207.71
710.26	2150.37
710.44	2123.74
710.62	2250.72
710.80	2236.38
710.99	2291.68
711.17	2232.29
711.35	2209.76
711.54	2172.89
711.72	2273.25
711.90	2287.58
712.09	2220.00
712.27	2084.83
712.45	2275.29
712.63	2080.74
712.82	2265.05
713.00	2240.48
713.18	2244.57
713.37	2256.86
713.55	2342.88
713.73	2295.77
713.91	2195.42
714.10	2156.51
714.28	2179.04
714.46	2287.58
714.65	2111.46
714.83	2248.67
715.01	2179.04
715.19	2215.90
715.38	2158.56
715.56	2170.85
715.74	2150.37
715.92	2062.30
716.11	2293.72
716.29	2025.44
716.47	2195.42
716.65	2176.99
716.84	2029.54
717.02	2220.00
717.20	2009.06
717.38	2103.26
717.57	2195.42
717.75	2193.37
717.93	2176.99
718.11	2269.15
718.30	2095.07
718.48	2191.33
718.66	2342.88
718.84	2197.47
719.03	2203.61
719.21	2058.21
719.39	2330.59
719.57	2289.63
719.75	2258.91
719.94	2133.98
720.12	2121.70
720.30	2150.37
720.48	2332.64
720.67	2187.23
720.85	2072.54
721.03	2310.11
721.21	2121.70
721.39	2267.10
721.58	2226.14
721.76	2207.71
721.94	2187.23
722.12	2234.33
722.30	2357.21
722.49	2213.85
722.67	2189.28
722.85	2181.09
723.03	2047.97
723.21	2125.79
723.40	2217.95
723.58	2318.30
723.76	2308.06
723.94	2324.44
724.12	2267.10
724.30	2379.74
724.49	2349.02
724.67	2213.85
724.85	2334.68
725.03	2133.98
725.21	2308.06
725.40	2346.97
725.58	2185.18
725.76	2379.74
725.94	2217.95
726.12	2140.13
726.30	2166.75
726.49	2146.27
726.67	2107.36
726.85	2389.98
727.03	2494.43
727.21	3745.73
727.39	5449.64
727.57	6541.21
727.76	7280.53
727.94	7671.69
728.12	7212.95
728.30	5912.49
728.48	5001.14
728.66	4573.11
728.84	4075.46
729.03	3571.66
729.21	3143.63
729.39	2781.14
729.57	2521.05
729.75	2365.40
729.93	2432.99
730.11	2240.48
730.30	2211.81
730.48	2154.46
730.66	2406.36
730.84	2285.53
731.02	2205.66
731.20	2148.32
731.38	2220.00
731.56	2064.35
731.74	2015.20
731.93	2203.61
732.11	2152.42
732.29	2203.61
732.47	2232.29
732.65	2228.19
732.83	2226.14
733.01	2336.73
733.19	2205.66
733.37	2269.15
733.56	2170.85
733.74	2117.60
733.92	2338.78
734.10	2230.24
734.28	2215.90
734.46	2047.97
734.64	2170.85
734.82	2131.94
735.00	2125.79
735.18	2187.23
735.36	2205.66
735.54	2205.66
735.73	2217.95
735.91	2230.24
736.09	2330.59
736.27	2232.29
736.45	2273.25
736.63	2035.68
736.81	2183.13
736.99	2271.20
737.17	2332.64
737.35	2224.09
737.53	2277.34
737.71	2131.94
737.89	2314.20
738.07	2176.99
738.25	2154.46
738.43	2099.17
738.61	2146.27
738.80	2072.54
738.98	2072.54
739.16	2146.27
739.34	2088.93
739.52	2299.87
739.70	2095.07
739.88	2236.38
740.06	2330.59
740.24	2025.44
740.42	2369.50
740.60	2029.54
740.78	2117.60
740.96	2070.50
741.14	2080.74
741.32	2148.32
741.50	2095.07
741.68	2346.97
741.86	2316.25
742.04	2150.37
742.22	2050.02
742.40	2199.52
742.58	2258.91
742.76	2093.02
742.94	2281.44
743.12	2123.74
743.30	2166.75
743.48	2256.86
743.66	2113.50
743.84	2260.96
744.02	2158.56
744.20	2160.61
744.38	2117.60
744.56	2197.47
744.74	2377.69
744.92	2297.82
745.10	2336.73
745.28	2238.43
745.46	2375.64
745.64	2158.56
745.82	2222.05
746.00	2252.77
746.18	2265.05
746.36	2111.46
746.54	2228.19
746.72	2205.66
746.90	2207.71
747.08	2295.77
747.26	2129.89
747.44	2273.25
747.62	2265.05
747.80	2236.38
747.98	2293.72
748.15	2152.42
748.33	2459.61
748.51	2201.57
748.69	2260.96
748.87	2090.98
749.05	2064.35
749.23	2187.23
749.41	2215.90
749.59	2195.42
749.77	2277.34
749.95	2131.94
750.13	2176.99
750.31	2201.57
750.49	2170.85
750.67	2377.69
750.85	2355.16
751.03	2226.14
751.20	2336.73
751.38	2181.09
751.56	2158.56
751.74	2111.46
751.92	2187.23
752.10	2066.40
752.28	2258.91
752.46	2088.93
752.64	2109.41
752.82	2226.14
753.00	2252.77
753.18	2127.84
753.35	2117.60
753.53	2189.28
753.71	2166.75
753.89	2301.92
754.07	2179.04
754.25	2260.96
754.43	2230.24
754.61	2023.39
754.79	2250.72
754.97	2150.37
755.14	2338.78
755.32	2068.45
755.50	2260.96
755.68	2226.14
755.86	2045.92
756.04	2168.80
756.22	2015.20
756.40	2246.62
756.57	2373.60
756.75	2144.22
756.93	2365.40
757.11	2342.88
757.29	2045.92
757.47	2058.21
757.65	2084.83
757.82	2037.73
758.00	2207.71
758.18	2199.52
758.36	2142.18
758.54	2324.44
758.72	2015.20
758.90	2287.58
759.07	2193.37
759.25	2127.84
759.43	2275.29
759.61	2023.39
759.79	2977.75
759.97	2265.05
760.15	2222.05
760.32	2150.37
760.50	2236.38
760.68	2375.64
760.86	2056.16
761.04	2332.64
761.22	2244.57
761.39	2160.61
761.57	2199.52
761.75	2207.71
761.93	2322.40
762.11	2183.13
762.28	2152.42
762.46	2150.37
762.64	2217.95
762.82	2039.78
763.00	2150.37
763.18	2281.44
763.35	2174.94
763.53	2263.01
763.71	2211.81
763.89	2138.08
764.07	2160.61
764.24	2199.52
764.42	2310.11
764.60	2234.33
764.78	2238.43
764.96	2322.40
765.13	2293.72
765.31	2150.37
765.49	2199.52
765.67	2052.06
765.84	2201.57
766.02	2154.46
766.20	1984.48
766.38	2228.19
766.56	2228.19
766.73	2289.63
766.91	2207.71
767.09	2277.34
767.27	2201.57
767.44	2090.98
767.62	2265.05
767.80	2273.25
767.98	2183.13
768.15	2088.93
768.33	2275.29
768.51	2267.10
768.69	2252.77
768.87	2236.38
769.04	2152.42
769.22	2402.27
769.40	2293.72
769.58	2426.84
769.75	2211.81
769.93	2412.51
770.11	2160.61
770.28	2095.07
770.46	2240.48
770.64	2273.25
770.82	2160.61
770.99	2183.13
771.17	2191.33
771.35	2113.50
771.53	2166.75
771.70	2203.61
771.88	2236.38
772.06	2234.33
772.23	2207.71
772.41	2193.37
772.59	2172.89
772.77	2109.41
772.94	2097.12
773.12	2224.09
773.30	2144.22
773.47	2150.37
773.65	2129.89
773.83	2332.64
774.01	2199.52
774.18	1982.43
774.36	2183.13
774.54	2066.40
774.71	2224.09
774.89	2019.30
775.07	2129.89
775.24	2088.93
775.42	2185.18
775.60	2328.54
775.78	2146.27
775.95	2064.35
776.13	2023.39
776.31	2017.25
776.48	2260.96
776.66	2324.44
776.84	2199.52
777.01	2107.36
777.19	2166.75
777.37	2181.09
777.54	2207.71
777.72	2377.69
777.90	2236.38
778.07	2170.85
778.25	2512.86
778.43	2314.20
778.60	2119.65
778.78	2217.95
778.96	2355.16
779.13	2039.78
779.31	2209.76
779.49	2203.61
779.66	2279.39
779.84	2209.76
780.01	2195.42
780.19	2113.50
780.37	2332.64
780.54	2353.12
780.72	2111.46
780.90	2197.47
781.07	2164.70
781.25	2125.79
781.43	2293.72
781.60	2185.18
781.78	2363.36
781.95	2201.57
782.13	2072.54
782.31	2125.79
782.48	1966.05
782.66	2093.02
782.83	2318.30
783.01	2201.57
783.19	2275.29
783.36	2189.28
783.54	2070.50
783.72	2252.77
783.89	2152.42
784.07	2201.57
784.24	2242.53
784.42	2293.72
784.60	2256.86
784.77	2275.29
784.95	2021.35
785.12	2179.04
785.30	2207.71
785.47	2072.54
785.65	2011.11
785.83	2220.00
786.00	2172.89
786.18	2267.10
786.35	2152.42
786.53	2187.23
786.71	2224.09
786.88	2254.81
787.06	2185.18
787.23	2105.31
787.41	2070.50
787.58	2244.57
787.76	2031.58
787.94	2168.80
788.11	2142.18
788.29	2121.70
788.46	2144.22
788.64	2082.78
788.81	2164.70
788.99	2109.41
789.16	2127.84
789.34	2152.42
789.52	2129.89
789.69	2179.04
789.87	2004.96
790.04	2205.66
790.22	2187.23
790.39	2310.11
790.57	2088.93
790.74	2080.74
790.92	2273.25
791.09	2023.39
791.27	2162.66
791.44	2248.67
791.62	2140.13
791.79	2332.64
791.97	2220.00
792.15	2496.47
792.32	2232.29
792.50	2232.29
792.67	2357.21
792.85	2338.78
793.02	2179.04
793.20	2172.89
793.37	2025.44
793.55	2205.66
793.72	2103.26
793.90	2222.05
794.07	2064.35
794.25	2109.41
794.42	2201.57
794.60	2152.42
794.77	2197.47
794.95	2220.00
795.12	2256.86
795.30	2172.89
795.47	2039.78
795.65	2418.65
795.82	2195.42
796.00	2164.70
796.17	2211.81
796.34	2060.26
796.52	2205.66
796.69	2346.97
796.87	2185.18
797.04	2158.56
797.22	2326.49
797.39	2162.66
797.57	2240.48
797.74	2244.57
797.92	2203.61
798.09	2142.18
798.27	2236.38
798.44	2174.94
798.62	2062.30
798.79	2154.46
798.96	2209.76
799.14	2207.71
799.31	2389.98
799.49	2179.04
799.66	2113.50
799.84	2260.96
800.01	2062.30
800.19	2232.29
800.36	2099.17
800.53	2138.08
800.71	2306.01
800.88	2330.59
801.06	2127.84
801.23	2121.70
801.41	2215.90
801.58	2099.17
801.75	2160.61
801.93	2183.13
802.10	2265.05
802.28	2197.47
802.45	2125.79
802.63	2283.49
802.80	2332.64
802.97	2095.07
803.15	2215.90
803.32	2176.99
803.50	2062.30
803.67	2115.55
803.84	2111.46
804.02	2187.23
804.19	2144.22
804.37	1990.63
804.54	2021.35
804.71	2101.22
804.89	2162.66
805.06	2080.74
805.24	2154.46
805.41	2109.41
805.58	2138.08
805.76	2428.89
805.93	2230.24
806.10	2260.96
806.28	2316.25
806.45	2201.57
806.63	2205.66
806.80	2281.44
806.97	2199.52
807.15	2195.42
807.32	2179.04
807.49	2252.77
807.67	2054.11
807.84	2201.57
808.01	2047.97
808.19	2340.83
808.36	2312.16
808.54	2111.46
808.71	2125.79
808.88	2183.13
809.06	2318.30
809.23	2353.12
809.40	2050.02
809.58	2201.57
809.75	2125.79
809.92	2084.83
810.10	2437.08
810.27	2121.70
810.44	2181.09
810.62	2258.91
810.79	2254.81
810.96	2099.17
811.14	2072.54
811.31	2179.04
811.48	2211.81
811.66	2119.65
811.83	2306.01
812.00	2193.37
812.18	2263.01
812.35	2365.40
812.52	2152.42
812.69	2088.93
812.87	2099.17
813.04	2179.04
813.21	2199.52
813.39	2109.41
813.56	2105.31
813.73	2310.11
813.91	2054.11
814.08	2228.19
814.25	2207.71
814.42	2056.16
814.60	2168.80
814.77	2213.85
814.94	2203.61
815.12	2203.61
815.29	2324.44
815.46	2101.22
815.63	2285.53
815.81	2209.76
815.98	2093.02
816.15	2189.28
816.33	2185.18
816.50	2232.29
816.67	2174.94
816.84	2117.60
817.02	2121.70
817.19	2166.75
817.36	2250.72
817.53	2242.53
817.71	2123.74
817.88	2242.53
818.05	2224.09
818.22	2129.89
818.40	2373.60
818.57	2158.56
818.74	2203.61
818.91	2140.13
819.09	2209.76
819.26	2174.94
819.43	2103.26
819.60	2103.26
819.78	2265.05
819.95	2250.72
820.12	2109.41
820.29	2387.93
820.47	2244.57
820.64	2017.25
820.81	2054.11
820.98	2150.37
821.15	2211.81
821.33	2222.05
821.50	2035.68
821.67	2267.10
821.84	2195.42
822.02	2213.85
822.19	2301.92
822.36	2103.26
822.53	2136.03
822.70	2125.79
822.88	2129.89
823.05	2369.50
823.22	2179.04
823.39	2207.71
823.56	2179.04
823.74	2392.03
823.91	2064.35
824.08	2045.92
824.25	2142.18
824.42	2375.64
824.60	2064.35
824.77	2179.04
824.94	2113.50
825.11	2265.05
825.28	2088.93
825.45	2240.48
825.63	2271.20
825.80	2105.31
825.97	2228.19
826.14	2203.61
826.31	2056.16
826.48	2244.57
826.66	2156.51
826.83	2076.64
827.00	2156.51
827.17	2084.83
827.34	2176.99
827.51	2133.98
827.69	2115.55
827.86	2062.30
828.03	2213.85
828.20	2174.94
828.37	2181.09
828.54	2211.81
828.71	2172.89
828.89	2310.11
829.06	2213.85
829.23	2334.68
829.40	2068.45
829.57	2148.32
829.74	2250.72
829.91	2154.46
830.09	2070.50
830.26	2189.28
830.43	2269.15
830.60	2170.85
830.77	2232.29
830.94	2381.79
831.11	2299.87
831.28	2203.61
831.46	2306.01
831.63	2138.08
831.80	2224.09
831.97	2105.31
832.14	2146.27
832.31	2217.95
832.48	2217.95
832.65	2265.05
832.82	2187.23
832.99	2275.29
833.17	2076.64
833.34	2353.12
833.51	2187.23
833.68	1976.29
833.85	2322.40
834.02	2093.02
834.19	2121.70
834.36	2105.31
834.53	2265.05
834.70	2297.82
834.87	2252.77
835.04	2056.16
835.22	2123.74
835.39	2195.42
835.56	2088.93
835.73	2109.41
835.90	2275.29
836.07	2064.35
836.24	2254.81
836.41	2154.46
836.58	2125.79
836.75	2287.58
836.92	2232.29
837.09	2117.60
837.26	2220.00
837.43	2344.92
837.60	2308.06
837.77	2185.18
837.94	2301.92
838.12	2303.96
838.29	2279.39
838.46	1998.82
838.63	2103.26
838.80	2303.96
838.97	2181.09
839.14	2226.14
839.31	2156.51
839.48	2238.43
839.65	2093.02
839.82	2252.77
839.99	2136.03
840.16	2226.14
840.33	2097.12
840.50	2215.90
840.67	2121.70
840.84	1941.47
841.01	2127.84
841.18	2168.80
841.35	2105.31
841.52	2236.38
841.69	2379.74
841.86	2217.95
842.03	2199.52
842.20	2260.96
842.37	2154.46
842.54	2097.12
842.71	2269.15
842.88	2111.46
843.05	2211.81
843.22	2109.41
843.39	2330.59
843.56	2191.33
843.73	2160.61
843.90	2131.94
844.07	2138.08
844.24	2232.29
844.41	2185.18
844.58	2125.79
844.75	2156.51
844.92	2299.87
845.09	2131.94
845.26	2039.78
845.43	2220.00
845.60	2133.98
845.77	2211.81
845.94	2158.56
846.10	2299.87
846.27	2105.31
846.44	2086.88
846.61	2064.35
846.78	2252.77
846.95	2314.20
847.12	2113.50
847.29	2174.94
847.46	2086.88
847.63	2263.01
847.80	2109.41
847.97	2168.80
848.14	2457.56
848.31	2148.32
848.48	2136.03
848.65	2201.57
848.82	2203.61
848.98	2432.99
849.15	2222.05
849.32	2281.44
849.49	2369.50
849.66	2158.56
849.83	2133.98
850.00	2039.78
850.17	2228.19
850.34	2222.05
850.51	2088.93
850.68	2183.13
850.85	2416.60
851.01	2260.96
851.18	2160.61
851.35	2140.13
851.52	2183.13
851.69	2271.20
851.86	1964.00
852.03	2060.26
852.20	2287.58
852.37	2152.42
852.53	2052.06
852.70	2162.66
852.87	2191.33
853.04	2291.68
853.21	2101.22
853.38	2252.77
853.55	2373.60
853.72	2310.11
853.89	2084.83
854.05	2080.74
854.22	2217.95
854.39	2174.94
854.56	2209.76
854.73	2234.33
854.90	2103.26
855.07	2121.70
855.23	2064.35
855.40	2158.56
855.57	2101.22
855.74	1980.39
855.91	2349.02
856.08	2041.82
856.25	2047.97
856.41	2174.94
856.58	2074.59
856.75	2109.41
856.92	2082.78
857.09	2308.06
857.26	2009.06
857.42	2142.18
857.59	2263.01
857.76	2185.18
857.93	2183.13
858.10	2160.61
858.27	2064.35
858.43	2213.85
858.60	2093.02
858.77	2088.93
858.94	2133.98
859.11	2318.30
859.27	2127.84
859.44	2105.31
859.61	2334.68
859.78	2248.67
859.95	2197.47
860.12	2119.65
860.28	2408.41
860.45	2367.45
860.62	2121.70
860.79	2234.33
860.95	2103.26
861.12	2133.98
861.29	2088.93
861.46	2004.96
861.63	2142.18
861.79	2179.04
861.96	2000.87
862.13	2164.70
862.30	2260.96
862.47	2113.50
862.63	2088.93
862.80	2234.33
862.97	2252.77
863.14	2279.39
863.30	2211.81
863.47	2115.55
863.64	2402.27
863.81	2152.42
863.97	2154.46
864.14	2107.36
864.31	2189.28
864.48	2176.99
864.65	2146.27
864.81	2146.27
864.98	2236.38
865.15	2222.05
865.32	2228.19
865.48	2258.91
865.65	2252.77
865.82	2183.13
865.98	2199.52
866.15	2293.72
866.32	2220.00
866.49	2076.64
866.65	2185.18
866.82	2166.75
866.99	2248.67
867.16	2162.66
867.32	2127.84
867.49	2086.88
867.66	2179.04
867.83	2168.80
867.99	2086.88
868.16	2187.23
868.33	2084.83
868.49	2191.33
868.66	2174.94
868.83	2252.77
868.99	2174.94
869.16	2170.85
869.33	2363.36
869.50	2189.28
869.66	2187.23
869.83	2131.94
870.00	2084.83
870.16	2209.76
870.33	2099.17
870.50	2340.83
870.66	2119.65
870.83	2340.83
871.00	2301.92
871.17	2267.10
871.33	2211.81
871.50	2076.64
871.67	2168.80
871.83	2072.54
872.00	2308.06
872.17	2088.93
872.33	2322.40
872.50	2295.77
872.67	2191.33
872.83	2117.60
873.00	2195.42
873.17	2127.84
873.33	2207.71
873.50	2146.27
873.67	2090.98
873.83	2109.41
874.00	2150.37
874.16	2285.53
874.33	2166.75
874.50	2054.11
874.66	2162.66
874.83	2105.31
875.00	2217.95
875.16	2303.96
875.33	2158.56
875.50	1964.00
875.66	2181.09
875.83	2209.76
875.99	2267.10
876.16	2162.66
876.33	2187.23
876.49	2144.22
876.66	2226.14
876.83	2187.23
876.99	2170.85
877.16	2172.89
877.32	2150.37
877.49	2088.93
877.66	2193.37
877.82	2291.68
877.99	2121.70
878.15	2299.87
878.32	2156.51
878.49	2254.81
878.65	2162.66
878.82	2236.38
878.98	2189.28
879.15	2279.39
879.32	2260.96
879.48	2220.00
879.65	2187.23
879.81	2162.66
879.98	2125.79
880.15	2142.18
880.31	2238.43
880.48	2121.70
880.64	2209.76
880.81	2228.19
880.97	2349.02
881.14	2285.53
881.31	2099.17
881.47	2281.44
881.64	2121.70
881.80	2109.41
881.97	2189.28
882.13	2260.96
882.30	2054.11
882.47	2164.70
882.63	2086.88
882.80	2078.69
882.96	2181.09
883.13	2215.90
883.29	2150.37
883.46	2166.75
883.62	2383.84
883.79	2277.34
883.95	2254.81
884.12	2166.75
884.29	2277.34
884.45	2203.61
884.62	2234.33
884.78	2095.07
884.95	2326.49
885.11	2078.69
885.28	2201.57
885.44	2093.02
885.61	2220.00
885.77	2340.83
885.94	2236.38
886.10	2088.93
886.27	2213.85
886.43	2359.26
886.60	2220.00
886.76	2203.61
886.93	2099.17
887.09	2142.18
887.26	1998.82
887.42	2072.54
887.59	2322.40
887.75	2373.60
887.92	2271.20
888.08	2256.86
888.25	2357.21
888.41	2228.19
888.58	2170.85
888.74	2052.06
888.91	2078.69
>>>>>End Processed Spectral Data<<<<<
