SpectraSuite Data File
++++++++++++++++++++++++++++++++++++
Date: Thu May 05 12:35:27 CEST 2016
User: root
Dark Spectrum Present: No
Reference Spectrum Present: No
Number of Sampled Component Spectra: 1
Spectrometers: USB4C02835
Integration Time (usec): 100000 (USB4C02835)
Spectra Averaged: 1 (USB4C02835)
Boxcar Smoothing: 0 (USB4C02835)
Correct for Electrical Dark: No (USB4C02835)
Strobe/Lamp Enabled: No (USB4C02835)
Correct for Detector Non-linearity: No (USB4C02835)
Correct for Stray Light: No (USB4C02835)
Number of Pixels in Processed Spectrum: 3648
>>>>>Begin Processed Spectral Data<<<<<
177.47	1783.78
177.69	1783.78
177.91	1783.78
178.13	1765.35
178.36	1779.68
178.58	2056.16
178.80	2256.86
179.02	2056.16
179.24	2054.11
179.46	2125.79
179.68	2156.51
179.90	2236.38
180.13	2211.81
180.35	2031.58
180.57	2074.59
180.79	2318.30
181.01	2226.14
181.23	2215.90
181.45	2226.14
181.67	2351.07
181.90	2263.01
182.12	2170.85
182.34	2027.49
182.56	2220.00
182.78	2158.56
183.00	2109.41
183.22	2146.27
183.44	2019.30
183.66	2486.23
183.89	2260.96
184.11	2160.61
184.33	2209.76
184.55	2244.57
184.77	2187.23
184.99	2131.94
185.21	2224.09
185.43	2461.66
185.65	2140.13
185.87	2129.89
186.10	2392.03
186.32	2377.69
186.54	2215.90
186.76	2224.09
186.98	2277.34
187.20	2158.56
187.42	2162.66
187.64	2131.94
187.86	2240.48
188.08	2273.25
188.30	2068.45
188.52	2144.22
188.75	2340.83
188.97	2332.64
189.19	2144.22
189.41	2164.70
189.63	2228.19
189.85	2105.31
190.07	2064.35
190.29	2058.21
190.51	2113.50
190.73	2047.97
190.95	2295.77
191.17	2166.75
191.39	2058.21
191.61	2150.37
191.84	2129.89
192.06	2187.23
192.28	2039.78
192.50	2449.37
192.72	2187.23
192.94	2226.14
193.16	2289.63
193.38	2179.04
193.60	2084.83
193.82	2133.98
194.04	2226.14
194.26	2226.14
194.48	2146.27
194.70	2095.07
194.92	2097.12
195.14	2273.25
195.36	2076.64
195.58	2224.09
195.80	2213.85
196.02	2154.46
196.24	2099.17
196.46	2203.61
196.69	2244.57
196.91	2506.71
197.13	2181.09
197.35	2031.58
197.57	2324.44
197.79	2224.09
198.01	2097.12
198.23	2146.27
198.45	2154.46
198.67	2041.82
198.89	2088.93
199.11	2232.29
199.33	2162.66
199.55	2011.11
199.77	2146.27
199.99	2138.08
200.21	2072.54
200.43	2162.66
200.65	2111.46
200.87	1984.48
201.09	2170.85
201.31	2234.33
201.53	2176.99
201.75	2203.61
201.97	2191.33
202.19	2203.61
202.41	2211.81
202.63	2306.01
202.85	2176.99
203.07	2207.71
203.29	2127.84
203.51	2086.88
203.73	2115.55
203.95	2400.22
204.17	2197.47
204.39	2146.27
204.61	2172.89
204.83	2129.89
205.05	2205.66
205.27	2193.37
205.49	2375.64
205.71	2160.61
205.93	2072.54
206.15	2103.26
206.37	2152.42
206.59	2111.46
206.81	2019.30
207.03	2117.60
207.25	2062.30
207.47	2269.15
207.69	2187.23
207.91	2359.26
208.13	2414.56
208.34	2228.19
208.56	2011.11
208.78	2176.99
209.00	2183.13
209.22	2158.56
209.44	2136.03
209.66	2138.08
209.88	2156.51
210.10	2162.66
210.32	2115.55
210.54	2240.48
210.76	2154.46
210.98	2281.44
211.20	1925.09
211.42	2201.57
211.64	2355.16
211.86	2289.63
212.08	2224.09
212.30	2162.66
212.52	2097.12
212.74	2217.95
212.96	2195.42
213.17	2183.13
213.39	2248.67
213.61	2432.99
213.83	2185.18
214.05	2215.90
214.27	2224.09
214.49	2082.78
214.71	2090.98
214.93	2213.85
215.15	2152.42
215.37	2277.34
215.59	1998.82
215.81	2095.07
216.03	2332.64
216.24	2129.89
216.46	2115.55
216.68	2138.08
216.90	2303.96
217.12	2301.92
217.34	2146.27
217.56	2179.04
217.78	2330.59
218.00	2201.57
218.22	2129.89
218.44	2148.32
218.66	2142.18
218.87	2334.68
219.09	2125.79
219.31	2209.76
219.53	2277.34
219.75	2213.85
219.97	2105.31
220.19	2199.52
220.41	2242.53
220.63	2355.16
220.85	2138.08
221.06	2146.27
221.28	2377.69
221.50	2244.57
221.72	2125.79
221.94	2119.65
222.16	2162.66
222.38	2285.53
222.60	2154.46
222.82	2072.54
223.03	2267.10
223.25	2097.12
223.47	2086.88
223.69	2301.92
223.91	2211.81
224.13	2277.34
224.35	2029.54
224.57	2363.36
224.78	2207.71
225.00	2060.26
225.22	2195.42
225.44	2117.60
225.66	2201.57
225.88	2131.94
226.10	2197.47
226.32	2195.42
226.53	2314.20
226.75	2154.46
226.97	2215.90
227.19	2162.66
227.41	2129.89
227.63	2181.09
227.85	2052.06
228.06	2166.75
228.28	2195.42
228.50	2318.30
228.72	2074.59
228.94	2041.82
229.16	2009.06
229.37	2086.88
229.59	2103.26
229.81	2242.53
230.03	2183.13
230.25	2035.68
230.47	2027.49
230.69	2035.68
230.90	2242.53
231.12	2168.80
231.34	2168.80
231.56	2154.46
231.78	2043.87
232.00	2185.18
232.21	2138.08
232.43	2133.98
232.65	1986.53
232.87	2199.52
233.09	2074.59
233.30	2211.81
233.52	2342.88
233.74	2269.15
233.96	2027.49
234.18	2236.38
234.40	2203.61
234.61	2398.17
234.83	2078.69
235.05	2058.21
235.27	2428.89
235.49	2332.64
235.70	2117.60
235.92	2287.58
236.14	2332.64
236.36	2387.93
236.58	2086.88
236.79	2228.19
237.01	2181.09
237.23	2166.75
237.45	2258.91
237.67	2117.60
237.88	2213.85
238.10	2420.70
238.32	2105.31
238.54	2131.94
238.76	2123.74
238.97	2144.22
239.19	2125.79
239.41	2195.42
239.63	2322.40
239.85	2103.26
240.06	2150.37
240.28	2105.31
240.50	2236.38
240.72	2076.64
240.93	2031.58
241.15	2170.85
241.37	2197.47
241.59	2273.25
241.81	2056.16
242.02	2113.50
242.24	2152.42
242.46	2195.42
242.68	2086.88
242.89	2152.42
243.11	2328.54
243.33	2203.61
243.55	2146.27
243.76	2160.61
243.98	2168.80
244.20	2172.89
244.42	2195.42
244.64	2146.27
244.85	2078.69
245.07	2056.16
245.29	2195.42
245.51	2158.56
245.72	2258.91
245.94	2234.33
246.16	2187.23
246.38	2220.00
246.59	2093.02
246.81	2047.97
247.03	2129.89
247.24	1974.24
247.46	2133.98
247.68	2234.33
247.90	2117.60
248.11	2099.17
248.33	2297.82
248.55	2150.37
248.77	2095.07
248.98	2193.37
249.20	2322.40
249.42	2170.85
249.64	2144.22
249.85	2109.41
250.07	2117.60
250.29	2248.67
250.50	2201.57
250.72	2039.78
250.94	2242.53
251.16	2392.03
251.37	2185.18
251.59	2211.81
251.81	2215.90
252.02	2271.20
252.24	2025.44
252.46	2160.61
252.68	2185.18
252.89	2109.41
253.11	1929.19
253.33	2263.01
253.54	2256.86
253.76	2056.16
253.98	2146.27
254.20	2162.66
254.41	2080.74
254.63	2146.27
254.85	2121.70
255.06	2176.99
255.28	2195.42
255.50	2189.28
255.71	2119.65
255.93	1974.24
256.15	2144.22
256.36	2277.34
256.58	2131.94
256.80	2179.04
257.02	2144.22
257.23	2138.08
257.45	2107.36
257.67	2207.71
257.88	2220.00
258.10	2273.25
258.32	2103.26
258.53	2125.79
258.75	2371.55
258.97	2031.58
259.18	2056.16
259.40	2109.41
259.62	2306.01
259.83	2369.50
260.05	2152.42
260.27	2564.06
260.48	2271.20
260.70	2043.87
260.92	2090.98
261.13	2160.61
261.35	2207.71
261.57	2246.62
261.78	2007.01
262.00	2060.26
262.22	2281.44
262.43	2158.56
262.65	2148.32
262.86	2105.31
263.08	2398.17
263.30	2158.56
263.51	2023.39
263.73	2045.92
263.95	2353.12
264.16	2056.16
264.38	2023.39
264.60	2152.42
264.81	2215.90
265.03	2273.25
265.25	2338.78
265.46	2121.70
265.68	2369.50
265.89	2287.58
266.11	1994.72
266.33	2244.57
266.54	2224.09
266.76	2176.99
266.98	2252.77
267.19	2187.23
267.41	2273.25
267.62	2215.90
267.84	1988.58
268.06	2166.75
268.27	2199.52
268.49	2310.11
268.70	2244.57
268.92	2187.23
269.14	2136.03
269.35	2090.98
269.57	2162.66
269.79	2199.52
270.00	2129.89
270.22	2359.26
270.43	2111.46
270.65	1994.72
270.87	2244.57
271.08	2244.57
271.30	2203.61
271.51	2105.31
271.73	2240.48
271.95	2322.40
272.16	2174.94
272.38	2236.38
272.59	2111.46
272.81	2232.29
273.02	2170.85
273.24	2238.43
273.46	2273.25
273.67	1994.72
273.89	2090.98
274.10	2064.35
274.32	2324.44
274.54	2220.00
274.75	2152.42
274.97	2045.92
275.18	2244.57
275.40	2193.37
275.61	2176.99
275.83	2217.95
276.05	2074.59
276.26	2121.70
276.48	2140.13
276.69	2211.81
276.91	2160.61
277.12	2293.72
277.34	2293.72
277.55	2275.29
277.77	2203.61
277.99	2154.46
278.20	2068.45
278.42	2047.97
278.63	2195.42
278.85	2148.32
279.06	2025.44
279.28	2269.15
279.49	2291.68
279.71	2244.57
279.93	2226.14
280.14	2152.42
280.36	2140.13
280.57	2310.11
280.79	2260.96
281.00	2000.87
281.22	2140.13
281.43	2303.96
281.65	1992.67
281.86	2054.11
282.08	2244.57
282.29	2367.45
282.51	2080.74
282.73	2080.74
282.94	2025.44
283.16	2291.68
283.37	2250.72
283.59	2215.90
283.80	2232.29
284.02	2099.17
284.23	2244.57
284.45	2099.17
284.66	2119.65
284.88	2138.08
285.09	2170.85
285.31	2332.64
285.52	2250.72
285.74	2027.49
285.95	2273.25
286.17	2236.38
286.38	2322.40
286.60	2093.02
286.81	2127.84
287.03	2189.28
287.24	2185.18
287.46	2220.00
287.67	2174.94
287.89	2326.49
288.10	2217.95
288.32	2193.37
288.53	2322.40
288.75	2238.43
288.96	2246.62
289.18	2095.07
289.39	2179.04
289.61	2166.75
289.82	2310.11
290.04	2318.30
290.25	2007.01
290.47	2174.94
290.68	2193.37
290.90	2310.11
291.11	2011.11
291.33	2232.29
291.54	2121.70
291.76	2131.94
291.97	2174.94
292.18	2117.60
292.40	2136.03
292.61	2162.66
292.83	2465.75
293.04	2267.10
293.26	2222.05
293.47	2179.04
293.69	2105.31
293.90	2170.85
294.12	2310.11
294.33	2203.61
294.55	2129.89
294.76	2289.63
294.97	2363.36
295.19	2455.51
295.40	2160.61
295.62	2244.57
295.83	2342.88
296.05	2117.60
296.26	2283.49
296.48	2164.70
296.69	2154.46
296.90	2142.18
297.12	2248.67
297.33	2265.05
297.55	2299.87
297.76	2269.15
297.98	2238.43
298.19	2179.04
298.41	2136.03
298.62	2150.37
298.83	2365.40
299.05	2209.76
299.26	2101.22
299.48	2066.40
299.69	2277.34
299.90	2113.50
300.12	2187.23
300.33	2291.68
300.55	2240.48
300.76	2215.90
300.98	2150.37
301.19	2265.05
301.40	2127.84
301.62	2148.32
301.83	2275.29
302.05	2174.94
302.26	2160.61
302.47	2140.13
302.69	2138.08
302.90	2256.86
303.12	2060.26
303.33	2279.39
303.54	2306.01
303.76	2185.18
303.97	2131.94
304.19	2316.25
304.40	2109.41
304.61	2238.43
304.83	2306.01
305.04	2199.52
305.26	2234.33
305.47	2117.60
305.68	2176.99
305.90	1972.19
306.11	2209.76
306.33	2146.27
306.54	2119.65
306.75	2174.94
306.97	2009.06
307.18	2150.37
307.39	2146.27
307.61	2242.53
307.82	2201.57
308.04	2238.43
308.25	2095.07
308.46	2207.71
308.68	2238.43
308.89	2164.70
309.10	2285.53
309.32	2236.38
309.53	2226.14
309.74	2228.19
309.96	2140.13
310.17	2291.68
310.39	2136.03
310.60	2279.39
310.81	2211.81
311.03	2082.78
311.24	2303.96
311.45	2215.90
311.67	2263.01
311.88	2174.94
312.09	2133.98
312.31	2115.55
312.52	2121.70
312.73	2170.85
312.95	2056.16
313.16	2170.85
313.37	2303.96
313.59	2242.53
313.80	2211.81
314.01	2285.53
314.23	2154.46
314.44	2023.39
314.65	2080.74
314.87	2054.11
315.08	2162.66
315.29	2099.17
315.51	2138.08
315.72	1990.63
315.93	2252.77
316.15	2160.61
316.36	2170.85
316.57	2195.42
316.79	2203.61
317.00	2154.46
317.21	2316.25
317.43	2074.59
317.64	2226.14
317.85	2066.40
318.07	2154.46
318.28	2193.37
318.49	2346.97
318.70	2435.03
318.92	2385.88
319.13	2359.26
319.34	2473.95
319.56	2289.63
319.77	2363.36
319.98	2375.64
320.20	2322.40
320.41	2224.09
320.62	2260.96
320.83	2252.77
321.05	2367.45
321.26	2197.47
321.47	2203.61
321.69	2291.68
321.90	2103.26
322.11	2076.64
322.32	2187.23
322.54	2285.53
322.75	2154.46
322.96	2422.75
323.18	2052.06
323.39	2031.58
323.60	2082.78
323.81	2203.61
324.03	2195.42
324.24	2242.53
324.45	2146.27
324.66	2201.57
324.88	2265.05
325.09	2310.11
325.30	2168.80
325.52	2203.61
325.73	2244.57
325.94	2033.63
326.15	2070.50
326.37	2187.23
326.58	2293.72
326.79	2381.79
327.00	2103.26
327.22	2254.81
327.43	2179.04
327.64	2031.58
327.85	2211.81
328.07	2215.90
328.28	2342.88
328.49	2111.46
328.70	2189.28
328.92	2195.42
329.13	2179.04
329.34	2242.53
329.55	2367.45
329.76	2322.40
329.98	2138.08
330.19	2306.01
330.40	2252.77
330.61	2228.19
330.83	2234.33
331.04	2105.31
331.25	2166.75
331.46	2113.50
331.68	2027.49
331.89	2328.54
332.10	2162.66
332.31	2088.93
332.52	2236.38
332.74	2308.06
332.95	1974.24
333.16	2082.78
333.37	2312.16
333.58	2113.50
333.80	2209.76
334.01	2041.82
334.22	2185.18
334.43	2111.46
334.64	2220.00
334.86	1992.67
335.07	2095.07
335.28	2289.63
335.49	2078.69
335.70	2203.61
335.92	2308.06
336.13	2439.13
336.34	2209.76
336.55	2193.37
336.76	2267.10
336.98	2007.01
337.19	2199.52
337.40	2263.01
337.61	2445.27
337.82	2119.65
338.04	2148.32
338.25	2052.06
338.46	2187.23
338.67	2168.80
338.88	2105.31
339.09	2166.75
339.31	2086.88
339.52	2078.69
339.73	2127.84
339.94	2156.51
340.15	2281.44
340.36	2123.74
340.58	2156.51
340.79	2174.94
341.00	2252.77
341.21	2056.16
341.42	2297.82
341.63	2142.18
341.85	2367.45
342.06	2191.33
342.27	2203.61
342.48	2289.63
342.69	2103.26
342.90	2203.61
343.12	2271.20
343.33	2174.94
343.54	2324.44
343.75	2416.60
343.96	2064.35
344.17	2009.06
344.38	2103.26
344.60	2109.41
344.81	2117.60
345.02	2195.42
345.23	2252.77
345.44	2523.10
345.65	2271.20
345.86	2181.09
346.07	2230.24
346.29	2256.86
346.50	2291.68
346.71	2228.19
346.92	2330.59
347.13	2383.84
347.34	2078.69
347.55	2195.42
347.76	2275.29
347.98	2054.11
348.19	2162.66
348.40	2361.31
348.61	2142.18
348.82	2265.05
349.03	2242.53
349.24	2111.46
349.45	2351.07
349.66	2009.06
349.88	2179.04
350.09	2170.85
350.30	2277.34
350.51	2258.91
350.72	2269.15
350.93	2172.89
351.14	2113.50
351.35	2220.00
351.56	2207.71
351.77	2129.89
351.99	2277.34
352.20	2361.31
352.41	2220.00
352.62	2072.54
352.83	2189.28
353.04	2205.66
353.25	2136.03
353.46	2260.96
353.67	2244.57
353.88	1986.53
354.09	2232.29
354.30	2138.08
354.52	2306.01
354.73	2240.48
354.94	2082.78
355.15	2195.42
355.36	2334.68
355.57	2199.52
355.78	2193.37
355.99	2136.03
356.20	2170.85
356.41	2369.50
356.62	2271.20
356.83	2172.89
357.04	2351.07
357.25	1990.63
357.46	2125.79
357.68	2105.31
357.89	2105.31
358.10	2176.99
358.31	2133.98
358.52	2138.08
358.73	2047.97
358.94	2086.88
359.15	2101.22
359.36	2203.61
359.57	2228.19
359.78	2199.52
359.99	2220.00
360.20	2076.64
360.41	2121.70
360.62	2252.77
360.83	2183.13
361.04	2176.99
361.25	2263.01
361.46	2363.36
361.67	2207.71
361.88	2152.42
362.09	2293.72
362.30	2269.15
362.51	2043.87
362.72	2179.04
362.93	2236.38
363.14	2291.68
363.35	2162.66
363.56	2072.54
363.78	2332.64
363.99	2254.81
364.20	2004.96
364.41	2170.85
364.62	2379.74
364.83	2179.04
365.04	2152.42
365.25	2195.42
365.46	2338.78
365.67	2195.42
365.88	2201.57
366.09	2162.66
366.30	2170.85
366.51	2156.51
366.72	2125.79
366.93	2154.46
367.14	2238.43
367.35	2336.73
367.56	2164.70
367.77	2220.00
367.98	2228.19
368.18	2160.61
368.39	2267.10
368.60	2113.50
368.81	2193.37
369.02	2185.18
369.23	2127.84
369.44	2131.94
369.65	2205.66
369.86	2185.18
370.07	2263.01
370.28	2086.88
370.49	2220.00
370.70	2222.05
370.91	2058.21
371.12	2041.82
371.33	2234.33
371.54	2199.52
371.75	2310.11
371.96	2015.20
372.17	2222.05
372.38	2133.98
372.59	2346.97
372.80	2164.70
373.01	2181.09
373.22	2162.66
373.43	2166.75
373.64	2054.11
373.85	2326.49
374.06	2242.53
374.26	2222.05
374.47	2240.48
374.68	2375.64
374.89	2136.03
375.10	2181.09
375.31	2209.76
375.52	2228.19
375.73	2168.80
375.94	2099.17
376.15	2254.81
376.36	2138.08
376.57	2179.04
376.78	2138.08
376.99	2314.20
377.20	2396.12
377.40	2187.23
377.61	2291.68
377.82	2123.74
378.03	2332.64
378.24	2322.40
378.45	2156.51
378.66	2217.95
378.87	2129.89
379.08	2056.16
379.29	2121.70
379.50	2211.81
379.71	2127.84
379.91	2252.77
380.12	2117.60
380.33	2121.70
380.54	2232.29
380.75	2220.00
380.96	2228.19
381.17	2123.74
381.38	2211.81
381.59	2166.75
381.80	2250.72
382.00	2389.98
382.21	2234.33
382.42	2398.17
382.63	2424.80
382.84	2310.11
383.05	2220.00
383.26	2359.26
383.47	2211.81
383.68	2336.73
383.88	2234.33
384.09	2220.00
384.30	2392.03
384.51	2217.95
384.72	2217.95
384.93	2101.22
385.14	2211.81
385.35	2252.77
385.55	2121.70
385.76	2310.11
385.97	2195.42
386.18	2041.82
386.39	2107.36
386.60	2197.47
386.81	2162.66
387.02	2095.07
387.22	2056.16
387.43	2254.81
387.64	2365.40
387.85	2400.22
388.06	2430.94
388.27	4077.51
388.48	8664.96
388.68	12115.78
388.89	14440.23
389.10	15580.95
389.31	14505.76
389.52	11308.88
389.73	9809.77
389.93	9000.82
390.14	8079.24
390.35	7380.88
390.56	6551.45
390.77	5347.25
390.98	4093.89
391.18	3215.31
391.39	2650.07
391.60	2367.45
391.81	2320.35
392.02	2187.23
392.23	2461.66
392.43	2248.67
392.64	2320.35
392.85	2136.03
393.06	2363.36
393.27	2258.91
393.47	2097.12
393.68	2271.20
393.89	2158.56
394.10	2328.54
394.31	2220.00
394.52	2195.42
394.72	2064.35
394.93	2330.59
395.14	2064.35
395.35	2236.38
395.56	2101.22
395.76	2220.00
395.97	2162.66
396.18	2357.21
396.39	2387.93
396.60	2760.66
396.80	2408.41
397.01	2449.37
397.22	2408.41
397.43	2273.25
397.64	2140.13
397.84	2299.87
398.05	2441.18
398.26	2224.09
398.47	2338.78
398.67	2324.44
398.88	2183.13
399.09	2250.72
399.30	2152.42
399.51	2217.95
399.71	2115.55
399.92	2082.78
400.13	2263.01
400.34	2195.42
400.54	2125.79
400.75	2334.68
400.96	2199.52
401.17	2322.40
401.37	2228.19
401.58	2168.80
401.79	2215.90
402.00	2246.62
402.21	2592.73
402.41	2506.71
402.62	2643.93
402.83	2627.54
403.04	2684.89
403.24	2801.62
403.45	2410.46
403.66	2535.39
403.87	2383.84
404.07	2435.03
404.28	2449.37
404.49	2367.45
404.70	2318.30
404.90	2297.82
405.11	2281.44
405.32	2236.38
405.52	2148.32
405.73	2115.55
405.94	2142.18
406.15	2226.14
406.35	2295.77
406.56	2277.34
406.77	2232.29
406.98	2236.38
407.18	2166.75
407.39	2318.30
407.60	2150.37
407.80	2234.33
408.01	2121.70
408.22	2263.01
408.43	2170.85
408.63	2244.57
408.84	2318.30
409.05	2289.63
409.25	2086.88
409.46	2191.33
409.67	2111.46
409.88	2136.03
410.08	2203.61
410.29	2109.41
410.50	2220.00
410.70	2244.57
410.91	2080.74
411.12	2252.77
411.32	2101.22
411.53	2166.75
411.74	2265.05
411.95	2314.20
412.15	2361.31
412.36	2367.45
412.57	2244.57
412.77	2324.44
412.98	2207.71
413.19	2224.09
413.39	2236.38
413.60	2197.47
413.81	2326.49
414.01	2152.42
414.22	2240.48
414.43	2285.53
414.63	2234.33
414.84	2316.25
415.05	2119.65
415.25	2052.06
415.46	2217.95
415.67	2197.47
415.87	2195.42
416.08	2220.00
416.29	2170.85
416.49	2308.06
416.70	2199.52
416.91	2197.47
417.11	2211.81
417.32	2338.78
417.53	2289.63
417.73	2269.15
417.94	2181.09
418.15	2228.19
418.35	2162.66
418.56	2154.46
418.77	2428.89
418.97	2179.04
419.18	2142.18
419.38	2015.20
419.59	2256.86
419.80	2381.79
420.00	2238.43
420.21	2203.61
420.42	2373.60
420.62	2260.96
420.83	2117.60
421.04	2207.71
421.24	2148.32
421.45	2195.42
421.65	2181.09
421.86	2176.99
422.07	2301.92
422.27	2267.10
422.48	2138.08
422.69	2103.26
422.89	2252.77
423.10	2279.39
423.30	2013.15
423.51	2111.46
423.72	2185.18
423.92	2238.43
424.13	2056.16
424.33	2193.37
424.54	2310.11
424.75	2244.57
424.95	2271.20
425.16	2244.57
425.36	2154.46
425.57	2316.25
425.78	2271.20
425.98	2308.06
426.19	2105.31
426.39	2066.40
426.60	2222.05
426.81	2283.49
427.01	2232.29
427.22	2103.26
427.42	2133.98
427.63	2174.94
427.83	2242.53
428.04	2398.17
428.25	2297.82
428.45	2285.53
428.66	2256.86
428.86	2150.37
429.07	2224.09
429.28	2150.37
429.48	2125.79
429.69	2146.27
429.89	2226.14
430.10	2133.98
430.30	2256.86
430.51	2234.33
430.71	2136.03
430.92	2041.82
431.13	2193.37
431.33	2224.09
431.54	2232.29
431.74	2365.40
431.95	2392.03
432.15	2109.41
432.36	2189.28
432.56	2226.14
432.77	2381.79
432.98	2322.40
433.18	2199.52
433.39	2217.95
433.59	2158.56
433.80	2365.40
434.00	2435.03
434.21	2179.04
434.41	2148.32
434.62	2416.60
434.82	2039.78
435.03	2146.27
435.23	2193.37
435.44	2054.11
435.64	2179.04
435.85	2203.61
436.06	2283.49
436.26	2281.44
436.47	2166.75
436.67	2234.33
436.88	2201.57
437.08	2293.72
437.29	2308.06
437.49	2213.85
437.70	2349.02
437.90	2244.57
438.11	2426.84
438.31	2252.77
438.52	2396.12
438.72	2408.41
438.93	2375.64
439.13	2340.83
439.34	2322.40
439.54	2240.48
439.75	2316.25
439.95	2314.20
440.16	2072.54
440.36	2222.05
440.57	2201.57
440.77	2244.57
440.98	2267.10
441.18	2271.20
441.39	2203.61
441.59	2062.30
441.80	2416.60
442.00	2203.61
442.21	2398.17
442.41	2125.79
442.62	2316.25
442.82	2160.61
443.02	2267.10
443.23	2156.51
443.43	2187.23
443.64	2363.36
443.84	2228.19
444.05	2301.92
444.25	2203.61
444.46	2197.47
444.66	2144.22
444.87	2355.16
445.07	2152.42
445.28	2152.42
445.48	2318.30
445.69	2250.72
445.89	2482.14
446.09	2275.29
446.30	2447.32
446.50	2764.76
446.71	4446.14
446.91	5691.31
447.12	6500.25
447.32	6758.30
447.53	6197.15
447.73	5062.58
447.93	4618.17
448.14	4155.33
448.34	4120.51
448.55	3473.36
448.75	3547.08
448.96	3338.19
449.16	3059.67
449.36	2852.82
449.57	2557.91
449.77	2373.60
449.98	2211.81
450.18	2250.72
450.39	2283.49
450.59	2226.14
450.79	2234.33
451.00	2176.99
451.20	2277.34
451.41	2095.07
451.61	2246.62
451.81	2281.44
452.02	2226.14
452.22	2138.08
452.43	2179.04
452.63	2101.22
452.84	2181.09
453.04	2174.94
453.24	2201.57
453.45	2121.70
453.65	2193.37
453.86	2193.37
454.06	2283.49
454.26	2246.62
454.47	2076.64
454.67	2432.99
454.87	2256.86
455.08	2176.99
455.28	2318.30
455.49	2203.61
455.69	2097.12
455.89	2482.14
456.10	2285.53
456.30	2170.85
456.51	2250.72
456.71	2250.72
456.91	2258.91
457.12	2209.76
457.32	2207.71
457.52	2113.50
457.73	2238.43
457.93	2209.76
458.14	2170.85
458.34	2052.06
458.54	2213.85
458.75	2211.81
458.95	2338.78
459.15	2203.61
459.36	2191.33
459.56	2228.19
459.76	2414.56
459.97	2228.19
460.17	2252.77
460.37	2314.20
460.58	2220.00
460.78	2275.29
460.99	2148.32
461.19	2174.94
461.39	2228.19
461.60	2154.46
461.80	2250.72
462.00	2105.31
462.21	2176.99
462.41	2144.22
462.61	2111.46
462.82	2088.93
463.02	2217.95
463.22	2228.19
463.43	2330.59
463.63	2189.28
463.83	2338.78
464.04	2248.67
464.24	2138.08
464.44	2158.56
464.64	2246.62
464.85	2252.77
465.05	2195.42
465.25	2172.89
465.46	2150.37
465.66	2248.67
465.86	2326.49
466.07	2217.95
466.27	2185.18
466.47	2045.92
466.68	2050.02
466.88	2392.03
467.08	2265.05
467.29	2263.01
467.49	2252.77
467.69	2158.56
467.89	2269.15
468.10	2127.84
468.30	2267.10
468.50	2332.64
468.71	2293.72
468.91	2050.02
469.11	2363.36
469.31	2263.01
469.52	2111.46
469.72	2394.08
469.92	2379.74
470.13	2136.03
470.33	2217.95
470.53	2193.37
470.73	2654.17
470.94	3016.66
471.14	3213.26
471.34	3647.43
471.54	3532.75
471.75	3227.60
471.95	2854.87
472.15	2772.95
472.36	2818.00
472.56	2719.70
472.76	2674.65
472.96	2666.46
473.17	2539.48
473.37	2445.27
473.57	2263.01
473.77	2275.29
473.98	2283.49
474.18	2146.27
474.38	2430.94
474.58	2142.18
474.79	2131.94
474.99	2320.35
475.19	2297.82
475.39	2133.98
475.60	2285.53
475.80	2207.71
476.00	2240.48
476.20	2107.36
476.41	2209.76
476.61	2285.53
476.81	2351.07
477.01	2136.03
477.21	2338.78
477.42	2320.35
477.62	2127.84
477.82	2285.53
478.02	2179.04
478.23	2252.77
478.43	2113.50
478.63	2170.85
478.83	2084.83
479.03	2152.42
479.24	2338.78
479.44	2338.78
479.64	2080.74
479.84	2068.45
480.04	2174.94
480.25	2293.72
480.45	2215.90
480.65	2203.61
480.85	2318.30
481.06	2170.85
481.26	2119.65
481.46	2230.24
481.66	2199.52
481.86	2115.55
482.06	2256.86
482.27	2260.96
482.47	2158.56
482.67	2248.67
482.87	2207.71
483.07	2295.77
483.28	2082.78
483.48	2054.11
483.68	2207.71
483.88	1996.77
484.08	2019.30
484.29	2033.63
484.49	2185.18
484.69	2125.79
484.89	2303.96
485.09	2238.43
485.29	2215.90
485.50	2199.52
485.70	2136.03
485.90	2316.25
486.10	2179.04
486.30	2269.15
486.50	2275.29
486.71	2265.05
486.91	2275.29
487.11	2289.63
487.31	2041.82
487.51	2217.95
487.71	2164.70
487.91	2166.75
488.12	2127.84
488.32	1996.77
488.52	2121.70
488.72	2007.01
488.92	2258.91
489.12	2306.01
489.32	2283.49
489.53	2252.77
489.73	2070.50
489.93	2361.31
490.13	2127.84
490.33	2142.18
490.53	2140.13
490.73	2365.40
490.94	2093.02
491.14	2226.14
491.34	2379.74
491.54	2498.52
491.74	3190.74
491.94	3739.59
492.14	4145.09
492.34	4087.75
492.54	3862.47
492.75	3250.13
492.95	3248.08
493.15	2930.64
493.35	2883.54
493.55	2801.62
493.75	2701.27
493.95	2680.79
494.15	2504.67
494.35	2310.11
494.56	2291.68
494.76	2189.28
494.96	2185.18
495.16	2275.29
495.36	2185.18
495.56	2240.48
495.76	2197.47
495.96	2170.85
496.16	2093.02
496.36	2383.84
496.56	2174.94
496.77	2228.19
496.97	2176.99
497.17	2340.83
497.37	2056.16
497.57	2226.14
497.77	2185.18
497.97	1998.82
498.17	2162.66
498.37	2144.22
498.57	2355.16
498.77	2119.65
498.97	2193.37
499.17	2400.22
499.38	2199.52
499.58	2340.83
499.78	2258.91
499.98	2238.43
500.18	2172.89
500.38	2123.74
500.58	2408.41
500.78	2930.64
500.98	5205.94
501.18	7143.32
501.38	9092.98
501.58	10018.66
501.78	9838.44
501.98	7751.56
502.18	6694.81
502.38	5636.01
502.58	5054.39
502.78	4720.57
502.98	4499.39
503.18	4263.87
503.38	3903.43
503.59	3391.44
503.79	3223.50
503.99	3094.48
504.19	2742.23
504.39	2797.53
504.59	2906.07
504.79	2916.31
504.99	2850.77
505.19	2568.15
505.39	2457.56
505.59	2553.82
505.79	2459.61
505.99	2424.80
506.19	2201.57
506.39	2441.18
506.59	2246.62
506.79	2287.58
506.99	2326.49
507.19	2236.38
507.39	2299.87
507.59	2097.12
507.79	2117.60
507.99	2170.85
508.19	2242.53
508.39	2131.94
508.59	2291.68
508.79	2308.06
508.99	2375.64
509.19	2232.29
509.39	2250.72
509.59	2133.98
509.79	2170.85
509.99	2179.04
510.19	2306.01
510.39	2363.36
510.59	2220.00
510.79	2201.57
510.99	2086.88
511.19	2170.85
511.39	2314.20
511.59	2234.33
511.79	2338.78
511.99	2205.66
512.19	2424.80
512.38	2166.75
512.58	2119.65
512.78	2097.12
512.98	2322.40
513.18	2353.12
513.38	2129.89
513.58	2275.29
513.78	2209.76
513.98	2232.29
514.18	2197.47
514.38	2209.76
514.58	2252.77
514.78	2189.28
514.98	2125.79
515.18	2236.38
515.38	2109.41
515.58	2363.36
515.78	2127.84
515.98	2160.61
516.18	2316.25
516.38	2220.00
516.57	2082.78
516.77	2203.61
516.97	2252.77
517.17	2179.04
517.37	1990.63
517.57	2275.29
517.77	2224.09
517.97	2127.84
518.17	2281.44
518.37	2170.85
518.57	2146.27
518.77	2166.75
518.97	2205.66
519.16	2293.72
519.36	2287.58
519.56	2195.42
519.76	2170.85
519.96	2133.98
520.16	2392.03
520.36	2129.89
520.56	2252.77
520.76	2195.42
520.96	2250.72
521.16	2277.34
521.35	2346.97
521.55	2283.49
521.75	2179.04
521.95	2080.74
522.15	2129.89
522.35	2136.03
522.55	2160.61
522.75	2244.57
522.95	2269.15
523.14	2115.55
523.34	2246.62
523.54	2205.66
523.74	2248.67
523.94	2199.52
524.14	2029.54
524.34	2215.90
524.54	2406.36
524.73	2189.28
524.93	2228.19
525.13	2228.19
525.33	2056.16
525.53	2469.85
525.73	2187.23
525.93	2207.71
526.13	2174.94
526.32	2191.33
526.52	2252.77
526.72	2242.53
526.92	2187.23
527.12	2166.75
527.32	2142.18
527.52	2189.28
527.71	2179.04
527.91	2158.56
528.11	2123.74
528.31	2265.05
528.51	2113.50
528.71	2242.53
528.90	2330.59
529.10	2330.59
529.30	2293.72
529.50	2033.63
529.70	2199.52
529.90	2232.29
530.09	2209.76
530.29	2035.68
530.49	2090.98
530.69	2430.94
530.89	2211.81
531.09	2330.59
531.28	2193.37
531.48	2293.72
531.68	2285.53
531.88	2146.27
532.08	2279.39
532.28	2152.42
532.47	2263.01
532.67	2285.53
532.87	2244.57
533.07	2097.12
533.27	2265.05
533.46	2269.15
533.66	2168.80
533.86	2281.44
534.06	2254.81
534.26	2256.86
534.45	2146.27
534.65	2287.58
534.85	2217.95
535.05	2228.19
535.25	2295.77
535.44	2093.02
535.64	2201.57
535.84	2127.84
536.04	2222.05
536.24	2211.81
536.43	2164.70
536.63	2215.90
536.83	2164.70
537.03	2215.90
537.22	2127.84
537.42	2088.93
537.62	2260.96
537.82	2203.61
538.02	2373.60
538.21	2291.68
538.41	2424.80
538.61	2187.23
538.81	2170.85
539.00	2355.16
539.20	2125.79
539.40	2168.80
539.60	2299.87
539.79	2316.25
539.99	2195.42
540.19	2127.84
540.39	2183.13
540.58	2224.09
540.78	2320.35
540.98	2222.05
541.18	2306.01
541.37	2242.53
541.57	2217.95
541.77	2256.86
541.97	2105.31
542.16	2082.78
542.36	2168.80
542.56	2176.99
542.76	2320.35
542.95	2297.82
543.15	2246.62
543.35	2316.25
543.54	2099.17
543.74	2125.79
543.94	2387.93
544.14	2138.08
544.33	2258.91
544.53	2211.81
544.73	2211.81
544.93	2234.33
545.12	2187.23
545.32	2236.38
545.52	2168.80
545.71	2105.31
545.91	2152.42
546.11	2164.70
546.30	2162.66
546.50	2131.94
546.70	2232.29
546.90	2201.57
547.09	2062.30
547.29	2248.67
547.49	2326.49
547.68	2220.00
547.88	2109.41
548.08	2242.53
548.27	2625.50
548.47	2179.04
548.67	2217.95
548.87	2301.92
549.06	2133.98
549.26	2199.52
549.46	2215.90
549.65	2168.80
549.85	2238.43
550.05	2158.56
550.24	2084.83
550.44	2234.33
550.64	2181.09
550.83	2232.29
551.03	2316.25
551.23	2367.45
551.42	2263.01
551.62	2140.13
551.82	2207.71
552.01	2232.29
552.21	2285.53
552.41	2158.56
552.60	2326.49
552.80	2263.01
553.00	2197.47
553.19	2256.86
553.39	2443.23
553.59	2066.40
553.78	2240.48
553.98	2228.19
554.17	2088.93
554.37	2201.57
554.57	2269.15
554.76	2035.68
554.96	2166.75
555.16	2281.44
555.35	2293.72
555.55	2258.91
555.75	2240.48
555.94	2334.68
556.14	2103.26
556.33	2203.61
556.53	2267.10
556.73	2195.42
556.92	2277.34
557.12	2240.48
557.32	2459.61
557.51	2416.60
557.71	2277.34
557.90	2340.83
558.10	2281.44
558.30	2265.05
558.49	2203.61
558.69	2189.28
558.88	2293.72
559.08	2303.96
559.28	2142.18
559.47	2183.13
559.67	2287.58
559.86	2367.45
560.06	2142.18
560.26	2187.23
560.45	2252.77
560.65	2195.42
560.84	2326.49
561.04	2203.61
561.24	2234.33
561.43	2121.70
561.63	2310.11
561.82	2197.47
562.02	2320.35
562.22	2127.84
562.41	2127.84
562.61	2166.75
562.80	2099.17
563.00	2457.56
563.19	2281.44
563.39	2203.61
563.59	2281.44
563.78	2047.97
563.98	2072.54
564.17	2174.94
564.37	1982.43
564.56	2211.81
564.76	2160.61
564.96	2338.78
565.15	2254.81
565.35	2523.10
565.54	2146.27
565.74	2281.44
565.93	2281.44
566.13	2183.13
566.32	2197.47
566.52	2203.61
566.71	2273.25
566.91	2383.84
567.11	2211.81
567.30	2119.65
567.50	2246.62
567.69	2234.33
567.89	2170.85
568.08	2133.98
568.28	2189.28
568.47	2117.60
568.67	2299.87
568.86	2242.53
569.06	2297.82
569.25	2269.15
569.45	2095.07
569.64	2156.51
569.84	2138.08
570.04	2242.53
570.23	2097.12
570.43	2146.27
570.62	2236.38
570.82	2359.26
571.01	2097.12
571.21	2142.18
571.40	2172.89
571.60	2353.12
571.79	2240.48
571.99	2199.52
572.18	2078.69
572.38	2195.42
572.57	2181.09
572.77	2277.34
572.96	2482.14
573.16	2179.04
573.35	2138.08
573.55	2398.17
573.74	2303.96
573.94	2170.85
574.13	2238.43
574.33	2340.83
574.52	2346.97
574.71	2220.00
574.91	2187.23
575.10	2152.42
575.30	2236.38
575.49	2093.02
575.69	2162.66
575.88	2252.77
576.08	2330.59
576.27	2424.80
576.47	2228.19
576.66	2426.84
576.86	2367.45
577.05	2230.24
577.25	2306.01
577.44	2437.08
577.64	2242.53
577.83	2312.16
578.02	2281.44
578.22	2328.54
578.41	2447.32
578.61	2217.95
578.80	2023.39
579.00	2199.52
579.19	2201.57
579.39	2334.68
579.58	2275.29
579.77	2146.27
579.97	2287.58
580.16	2291.68
580.36	2359.26
580.55	2336.73
580.75	2285.53
580.94	2246.62
581.13	2326.49
581.33	2383.84
581.52	2217.95
581.72	2543.58
581.91	2400.22
582.11	2095.07
582.30	2392.03
582.49	2289.63
582.69	2486.23
582.88	2306.01
583.08	2277.34
583.27	2379.74
583.47	2256.86
583.66	2207.71
583.85	2176.99
584.05	2258.91
584.24	2328.54
584.44	2236.38
584.63	2389.98
584.82	2514.91
585.02	2375.64
585.21	2394.08
585.41	2414.56
585.60	2334.68
585.79	2404.32
585.99	2494.43
586.18	2396.12
586.37	2906.07
586.57	4421.56
586.76	13264.69
586.96	32239.12
587.15	46060.87
587.34	55620.78
587.54	60494.95
587.73	55897.26
587.93	39749.03
588.12	29812.28
588.31	23934.61
588.51	20842.18
588.70	19162.84
588.89	17356.54
589.09	14982.94
589.28	13129.53
589.47	10553.18
589.67	8306.56
589.86	6240.16
590.06	4751.29
590.25	3792.84
590.44	3127.25
590.64	2740.18
590.83	2580.44
591.02	2519.00
591.22	2355.16
591.41	2377.69
591.60	2326.49
591.80	2459.61
591.99	2224.09
592.18	2222.05
592.38	2260.96
592.57	2191.33
592.76	2230.24
592.96	2232.29
593.15	2248.67
593.34	2375.64
593.54	2244.57
593.73	2293.72
593.92	2283.49
594.12	2256.86
594.31	2322.40
594.50	2351.07
594.70	2269.15
594.89	2467.80
595.08	2138.08
595.28	2334.68
595.47	2537.43
595.66	2408.41
595.86	2127.84
596.05	2160.61
596.24	2195.42
596.43	2457.56
596.63	2297.82
596.82	2301.92
597.01	2301.92
597.21	2398.17
597.40	2260.96
597.59	2248.67
597.79	2244.57
597.98	2342.88
598.17	2230.24
598.36	2195.42
598.56	2314.20
598.75	2166.75
598.94	2205.66
599.14	2332.64
599.33	2207.71
599.52	2289.63
599.71	2164.70
599.91	2320.35
600.10	2289.63
600.29	2273.25
600.48	2310.11
600.68	2191.33
600.87	2179.04
601.06	2136.03
601.26	2176.99
601.45	2215.90
601.64	2215.90
601.83	2355.16
602.03	2152.42
602.22	2111.46
602.41	2244.57
602.60	2424.80
602.80	2310.11
602.99	2240.48
603.18	2211.81
603.37	2271.20
603.57	2263.01
603.76	2271.20
603.95	2365.40
604.14	2179.04
604.34	2150.37
604.53	2236.38
604.72	2310.11
604.91	2201.57
605.10	2330.59
605.30	2058.21
605.49	2422.75
605.68	2293.72
605.87	2234.33
606.07	2121.70
606.26	2265.05
606.45	2316.25
606.64	2273.25
606.84	2230.24
607.03	2267.10
607.22	2389.98
607.41	2242.53
607.60	2207.71
607.80	2312.16
607.99	2226.14
608.18	2248.67
608.37	2201.57
608.56	2176.99
608.76	2365.40
608.95	2500.57
609.14	2299.87
609.33	2383.84
609.52	2418.65
609.72	2355.16
609.91	2365.40
610.10	2287.58
610.29	2451.42
610.48	2392.03
610.68	2260.96
610.87	2232.29
611.06	2332.64
611.25	2176.99
611.44	2330.59
611.63	2238.43
611.83	2324.44
612.02	2117.60
612.21	2351.07
612.40	1994.72
612.59	2119.65
612.79	2082.78
612.98	2217.95
613.17	2285.53
613.36	2236.38
613.55	2469.85
613.74	2326.49
613.93	2398.17
614.13	2486.23
614.32	2473.95
614.51	2422.75
614.70	2422.75
614.89	2263.01
615.08	2336.73
615.28	2775.00
615.47	2195.42
615.66	2361.31
615.85	2293.72
616.04	2432.99
616.23	2267.10
616.42	2285.53
616.62	2328.54
616.81	2232.29
617.00	2097.12
617.19	2289.63
617.38	2129.89
617.57	2256.86
617.76	2267.10
617.95	2357.21
618.15	2316.25
618.34	2398.17
618.53	2220.00
618.72	2346.97
618.91	2314.20
619.10	2349.02
619.29	2248.67
619.48	2271.20
619.68	2156.51
619.87	2166.75
620.06	2072.54
620.25	2226.14
620.44	2215.90
620.63	2160.61
620.82	2260.96
621.01	2250.72
621.20	2142.18
621.39	2299.87
621.59	2273.25
621.78	2285.53
621.97	2215.90
622.16	2371.55
622.35	2301.92
622.54	2279.39
622.73	2328.54
622.92	2084.83
623.11	2222.05
623.30	2138.08
623.49	2271.20
623.68	2117.60
623.88	2318.30
624.07	2230.24
624.26	2226.14
624.45	2199.52
624.64	2187.23
624.83	2297.82
625.02	2181.09
625.21	2179.04
625.40	2195.42
625.59	2322.40
625.78	2287.58
625.97	2396.12
626.16	2424.80
626.35	2428.89
626.54	2287.58
626.74	2465.75
626.93	2265.05
627.12	2189.28
627.31	2273.25
627.50	2246.62
627.69	2312.16
627.88	2146.27
628.07	2105.31
628.26	2078.69
628.45	2160.61
628.64	2078.69
628.83	2113.50
629.02	2078.69
629.21	2328.54
629.40	2205.66
629.59	2199.52
629.78	2183.13
629.97	2265.05
630.16	2254.81
630.35	2189.28
630.54	2181.09
630.73	2090.98
630.92	2189.28
631.11	2127.84
631.30	2191.33
631.49	2273.25
631.68	2242.53
631.87	2246.62
632.06	2133.98
632.25	2447.32
632.44	2189.28
632.63	2299.87
632.82	2234.33
633.01	2207.71
633.20	2322.40
633.39	2283.49
633.58	2166.75
633.77	2283.49
633.96	2344.92
634.15	2349.02
634.34	2281.44
634.53	2303.96
634.72	2228.19
634.91	2121.70
635.10	2260.96
635.29	2291.68
635.48	2185.18
635.67	2174.94
635.86	2097.12
636.05	2351.07
636.24	2252.77
636.43	2166.75
636.62	2215.90
636.81	1966.05
637.00	2113.50
637.19	2150.37
637.38	2232.29
637.57	2252.77
637.76	2359.26
637.95	2328.54
638.14	2301.92
638.33	2291.68
638.52	2256.86
638.71	2168.80
638.89	2170.85
639.08	2494.43
639.27	2349.02
639.46	2420.70
639.65	2947.03
639.84	2977.75
640.03	3147.73
640.22	2971.60
640.41	2940.88
640.60	2547.67
640.79	2475.99
640.98	2455.51
641.17	2451.42
641.36	2508.76
641.55	2342.88
641.74	2193.37
641.92	2203.61
642.11	2185.18
642.30	2158.56
642.49	2234.33
642.68	2168.80
642.87	2283.49
643.06	2265.05
643.25	2162.66
643.44	2088.93
643.63	2179.04
643.82	2285.53
644.00	2174.94
644.19	2191.33
644.38	2150.37
644.57	2291.68
644.76	2234.33
644.95	2133.98
645.14	2240.48
645.33	2199.52
645.52	2197.47
645.71	2070.50
645.89	2127.84
646.08	2168.80
646.27	2125.79
646.46	2342.88
646.65	2072.54
646.84	2129.89
647.03	2076.64
647.22	2301.92
647.40	2248.67
647.59	2211.81
647.78	2109.41
647.97	2131.94
648.16	2097.12
648.35	2312.16
648.54	2310.11
648.73	2199.52
648.91	2293.72
649.10	2129.89
649.29	2160.61
649.48	2164.70
649.67	2168.80
649.86	2312.16
650.05	2310.11
650.23	2357.21
650.42	2258.91
650.61	2459.61
650.80	2478.04
650.99	2529.24
651.18	2334.68
651.36	2351.07
651.55	2170.85
651.74	2320.35
651.93	2179.04
652.12	2258.91
652.31	2277.34
652.49	2183.13
652.68	2205.66
652.87	2430.94
653.06	2330.59
653.25	2465.75
653.44	2303.96
653.62	2398.17
653.81	2195.42
654.00	2152.42
654.19	2308.06
654.38	2455.51
654.56	2217.95
654.75	2181.09
654.94	2201.57
655.13	2181.09
655.32	2232.29
655.51	2252.77
655.69	2131.94
655.88	2199.52
656.07	2123.74
656.26	2226.14
656.45	2072.54
656.63	2156.51
656.82	2238.43
657.01	2281.44
657.20	2105.31
657.38	2322.40
657.57	2123.74
657.76	2068.45
657.95	2312.16
658.14	2136.03
658.32	2176.99
658.51	2082.78
658.70	2252.77
658.89	2199.52
659.08	2211.81
659.26	2467.80
659.45	2168.80
659.64	2258.91
659.83	2205.66
660.01	2555.86
660.20	2228.19
660.39	2377.69
660.58	2035.68
660.76	2277.34
660.95	2121.70
661.14	2265.05
661.33	2123.74
661.51	2174.94
661.70	2234.33
661.89	2158.56
662.08	2207.71
662.26	2078.69
662.45	2086.88
662.64	2379.74
662.83	2301.92
663.01	2129.89
663.20	2105.31
663.39	2375.64
663.58	2193.37
663.76	2168.80
663.95	2334.68
664.14	2099.17
664.32	2185.18
664.51	2097.12
664.70	2033.63
664.89	2246.62
665.07	2133.98
665.26	2252.77
665.45	2183.13
665.64	2291.68
665.82	2187.23
666.01	2256.86
666.20	2121.70
666.38	2342.88
666.57	2330.59
666.76	3264.46
666.95	7987.08
667.13	16398.09
667.32	22027.95
667.51	25439.87
667.69	27594.33
667.88	25656.95
668.07	18110.19
668.25	14595.87
668.44	12134.21
668.63	10176.36
668.81	9033.59
669.00	7962.50
669.19	7075.73
669.38	6193.06
669.56	5193.65
669.75	4472.76
669.94	3798.98
670.12	3162.06
670.31	2770.90
670.50	2564.06
670.68	2402.27
670.87	2361.31
671.06	2197.47
671.24	2342.88
671.43	2465.75
671.62	2299.87
671.80	2267.10
671.99	2195.42
672.18	2244.57
672.36	2332.64
672.55	2170.85
672.74	2238.43
672.92	2191.33
673.11	2308.06
673.29	2113.50
673.48	2283.49
673.67	2158.56
673.85	2273.25
674.04	2183.13
674.23	2201.57
674.41	2392.03
674.60	2148.32
674.79	2064.35
674.97	2136.03
675.16	2263.01
675.34	2269.15
675.53	2105.31
675.72	2246.62
675.90	2338.78
676.09	2181.09
676.28	2193.37
676.46	2109.41
676.65	2197.47
676.83	2115.55
677.02	2168.80
677.21	2230.24
677.39	2211.81
677.58	2150.37
677.77	2197.47
677.95	2129.89
678.14	2152.42
678.32	2131.94
678.51	2111.46
678.70	2342.88
678.88	2138.08
679.07	2140.13
679.25	2162.66
679.44	2150.37
679.63	2119.65
679.81	2185.18
680.00	2349.02
680.18	2301.92
680.37	2351.07
680.55	2230.24
680.74	2029.54
680.93	1984.48
681.11	2242.53
681.30	2199.52
681.48	2275.29
681.67	2152.42
681.85	2248.67
682.04	2088.93
682.23	2301.92
682.41	2146.27
682.60	2127.84
682.78	2211.81
682.97	2113.50
683.15	2215.90
683.34	2179.04
683.53	2346.97
683.71	2068.45
683.90	2293.72
684.08	2308.06
684.27	2119.65
684.45	2191.33
684.64	2361.31
684.82	2162.66
685.01	2260.96
685.19	2258.91
685.38	2346.97
685.57	2217.95
685.75	2133.98
685.94	2162.66
686.12	2082.78
686.31	2129.89
686.49	2222.05
686.68	2111.46
686.86	2242.53
687.05	2183.13
687.23	2326.49
687.42	2125.79
687.60	2037.73
687.79	2334.68
687.97	2271.20
688.16	2250.72
688.34	2373.60
688.53	2027.49
688.71	2189.28
688.90	2301.92
689.08	2185.18
689.27	2027.49
689.45	2265.05
689.64	2209.76
689.82	2217.95
690.01	2252.77
690.19	2244.57
690.38	2211.81
690.56	2367.45
690.75	2113.50
690.93	2140.13
691.12	2193.37
691.30	2179.04
691.49	2246.62
691.67	2254.81
691.86	2424.80
692.04	2211.81
692.23	2252.77
692.41	2275.29
692.60	2549.72
692.78	2355.16
692.97	2295.77
693.15	2291.68
693.34	2441.18
693.52	2275.29
693.71	2185.18
693.89	2093.02
694.08	2025.44
694.26	2283.49
694.44	2269.15
694.63	2234.33
694.81	2179.04
695.00	2121.70
695.18	2316.25
695.37	2420.70
695.55	2226.14
695.74	2148.32
695.92	2088.93
696.10	2295.77
696.29	2105.31
696.47	2181.09
696.66	2027.49
696.84	2082.78
697.03	2148.32
697.21	2357.21
697.40	3209.17
697.58	2383.84
697.76	2224.09
697.95	2103.26
698.13	2078.69
698.32	2127.84
698.50	2244.57
698.68	2172.89
698.87	2258.91
699.05	2398.17
699.24	2156.51
699.42	2125.79
699.61	2220.00
699.79	2205.66
699.97	2164.70
700.16	2054.11
700.34	2113.50
700.53	2224.09
700.71	2414.56
700.89	2234.33
701.08	2217.95
701.26	2146.27
701.45	2707.41
701.63	2146.27
701.81	2142.18
702.00	2164.70
702.18	2240.48
702.37	2199.52
702.55	2496.47
702.73	2428.89
702.92	2293.72
703.10	2523.10
703.28	2463.71
703.47	2209.76
703.65	2387.93
703.84	2424.80
704.02	2269.15
704.20	2375.64
704.39	2215.90
704.57	2195.42
704.75	2414.56
704.94	2361.31
705.12	2258.91
705.30	2559.96
705.49	4538.30
705.67	11038.55
705.86	20055.76
706.04	24678.02
706.22	28118.61
706.41	29345.34
706.59	25255.55
706.77	17655.54
706.96	14812.96
707.14	12920.63
707.32	10942.30
707.51	9617.26
707.69	8189.83
707.87	6487.96
708.06	5097.39
708.24	4126.66
708.42	3268.56
708.61	3131.34
708.79	2486.23
708.97	2398.17
709.16	2406.36
709.34	2281.44
709.52	2252.77
709.71	2285.53
709.89	2293.72
710.07	2121.70
710.26	2088.93
710.44	2228.19
710.62	2297.82
710.80	2215.90
710.99	2310.11
711.17	2222.05
711.35	2174.94
711.54	2228.19
711.72	2258.91
711.90	2240.48
712.09	2224.09
712.27	2172.89
712.45	2312.16
712.63	2189.28
712.82	2211.81
713.00	2205.66
713.18	2267.10
713.37	2277.34
713.55	2242.53
713.73	2275.29
713.91	2179.04
714.10	2191.33
714.28	2170.85
714.46	2246.62
714.65	2244.57
714.83	2215.90
715.01	2144.22
715.19	2228.19
715.38	2138.08
715.56	2144.22
715.74	2140.13
715.92	2078.69
716.11	2346.97
716.29	2023.39
716.47	2187.23
716.65	2160.61
716.84	2129.89
717.02	2248.67
717.20	1992.67
717.38	2129.89
717.57	2238.43
717.75	2168.80
717.93	2189.28
718.11	2236.38
718.30	2119.65
718.48	2181.09
718.66	2297.82
718.84	2234.33
719.03	2230.24
719.21	2109.41
719.39	2336.73
719.57	2238.43
719.75	2310.11
719.94	2109.41
720.12	2127.84
720.30	2158.56
720.48	2269.15
720.67	2138.08
720.85	2086.88
721.03	2084.83
721.21	2068.45
721.39	2267.10
721.58	2228.19
721.76	2193.37
721.94	2273.25
722.12	2277.34
722.30	2414.56
722.49	2152.42
722.67	2162.66
722.85	2201.57
723.03	2011.11
723.21	2226.14
723.40	2267.10
723.58	2269.15
723.76	2220.00
723.94	2437.08
724.12	2187.23
724.30	2449.37
724.49	2326.49
724.67	2220.00
724.85	2357.21
725.03	2039.78
725.21	2232.29
725.40	2336.73
725.58	2205.66
725.76	2318.30
725.94	2244.57
726.12	2072.54
726.30	2187.23
726.49	2205.66
726.67	2189.28
726.85	2285.53
727.03	2514.91
727.21	3635.14
727.39	5406.64
727.57	6602.65
727.76	7395.22
727.94	7681.93
728.12	7194.51
728.30	5846.95
728.48	4954.04
728.66	4521.92
728.84	4093.89
729.03	3522.51
729.21	3112.91
729.39	2801.62
729.57	2504.67
729.75	2514.91
729.93	2371.55
730.11	2174.94
730.30	2195.42
730.48	2230.24
730.66	2435.03
730.84	2228.19
731.02	2187.23
731.20	2097.12
731.38	2213.85
731.56	2105.31
731.74	2125.79
731.93	2293.72
732.11	2140.13
732.29	2121.70
732.47	2250.72
732.65	2158.56
732.83	2267.10
733.01	2279.39
733.19	2097.12
733.37	2242.53
733.56	2277.34
733.74	2201.57
733.92	2289.63
734.10	2158.56
734.28	2246.62
734.46	2000.87
734.64	2201.57
734.82	2197.47
735.00	2172.89
735.18	2142.18
735.36	2197.47
735.54	2172.89
735.73	2201.57
735.91	2226.14
736.09	2283.49
736.27	2168.80
736.45	2273.25
736.63	2052.06
736.81	2176.99
736.99	2287.58
737.17	2320.35
737.35	2144.22
737.53	2258.91
737.71	2256.86
737.89	2353.12
738.07	2097.12
738.25	2109.41
738.43	2045.92
738.61	2099.17
738.80	2127.84
738.98	2084.83
739.16	2097.12
739.34	2105.31
739.52	2295.77
739.70	2189.28
739.88	2283.49
740.06	2293.72
740.24	1972.19
740.42	2324.44
740.60	2002.91
740.78	2154.46
740.96	2039.78
741.14	2105.31
741.32	2158.56
741.50	2062.30
741.68	2336.73
741.86	2293.72
742.04	2068.45
742.22	2095.07
742.40	2154.46
742.58	2252.77
742.76	2107.36
742.94	2326.49
743.12	2041.82
743.30	2199.52
743.48	2215.90
743.66	2107.36
743.84	2326.49
744.02	2176.99
744.20	2217.95
744.38	2113.50
744.56	2037.73
744.74	2394.08
744.92	2230.24
745.10	2201.57
745.28	2281.44
745.46	2332.64
745.64	2170.85
745.82	2260.96
746.00	2131.94
746.18	2170.85
746.36	2148.32
746.54	2232.29
746.72	2176.99
746.90	2099.17
747.08	2320.35
747.26	2103.26
747.44	2164.70
747.62	2224.09
747.80	2211.81
747.98	2318.30
748.15	2256.86
748.33	2402.27
748.51	2166.75
748.69	2297.82
748.87	2144.22
749.05	2162.66
749.23	2193.37
749.41	2131.94
749.59	2086.88
749.77	2281.44
749.95	2105.31
750.13	2170.85
750.31	2195.42
750.49	2166.75
750.67	2273.25
750.85	2310.11
751.03	2170.85
751.20	2414.56
751.38	2131.94
751.56	2154.46
751.74	2174.94
751.92	2158.56
752.10	2084.83
752.28	2289.63
752.46	2129.89
752.64	2166.75
752.82	2158.56
753.00	2301.92
753.18	2179.04
753.35	2234.33
753.53	2189.28
753.71	2152.42
753.89	2207.71
754.07	2203.61
754.25	2338.78
754.43	2232.29
754.61	2088.93
754.79	2252.77
754.97	2220.00
755.14	2303.96
755.32	2101.22
755.50	2183.13
755.68	2263.01
755.86	2103.26
756.04	2189.28
756.22	1966.05
756.40	2277.34
756.57	2367.45
756.75	2160.61
756.93	2344.92
757.11	2260.96
757.29	2113.50
757.47	2039.78
757.65	2072.54
757.82	1904.61
758.00	2113.50
758.18	2168.80
758.36	2146.27
758.54	2338.78
758.72	2105.31
758.90	2207.71
759.07	2236.38
759.25	2133.98
759.43	2183.13
759.61	2056.16
759.79	2987.99
759.97	2375.64
760.15	2121.70
760.32	2109.41
760.50	2236.38
760.68	2332.64
760.86	2080.74
761.04	2242.53
761.22	2312.16
761.39	2211.81
761.57	2242.53
761.75	2166.75
761.93	2248.67
762.11	2203.61
762.28	2244.57
762.46	2131.94
762.64	2277.34
762.82	2056.16
763.00	2162.66
763.18	2256.86
763.35	2125.79
763.53	2248.67
763.71	2187.23
763.89	2197.47
764.07	2197.47
764.24	2146.27
764.42	2242.53
764.60	2113.50
764.78	2244.57
764.96	2291.68
765.13	2234.33
765.31	2170.85
765.49	2287.58
765.67	2123.74
765.84	2185.18
766.02	2187.23
766.20	2119.65
766.38	2220.00
766.56	2209.76
766.73	2258.91
766.91	2154.46
767.09	2232.29
767.27	2187.23
767.44	2050.02
767.62	2244.57
767.80	2187.23
767.98	2111.46
768.15	2205.66
768.33	2205.66
768.51	2301.92
768.69	2244.57
768.87	2215.90
769.04	2191.33
769.22	2447.32
769.40	2336.73
769.58	2355.16
769.75	2207.71
769.93	2310.11
770.11	2232.29
770.28	2072.54
770.46	2252.77
770.64	2191.33
770.82	2166.75
770.99	2082.78
771.17	2226.14
771.35	2148.32
771.53	2125.79
771.70	2164.70
771.88	2191.33
772.06	2168.80
772.23	2162.66
772.41	2119.65
772.59	2199.52
772.77	2088.93
772.94	2201.57
773.12	2185.18
773.30	2199.52
773.47	2215.90
773.65	2050.02
773.83	2310.11
774.01	2189.28
774.18	2066.40
774.36	2213.85
774.54	2019.30
774.71	2269.15
774.89	2054.11
775.07	2113.50
775.24	2160.61
775.42	2142.18
775.60	2324.44
775.78	2070.50
775.95	2043.87
776.13	2035.68
776.31	1966.05
776.48	2185.18
776.66	2334.68
776.84	2211.81
777.01	2164.70
777.19	2099.17
777.37	2152.42
777.54	2228.19
777.72	2346.97
777.90	2207.71
778.07	2103.26
778.25	2488.28
778.43	2211.81
778.60	2148.32
778.78	2303.96
778.96	2387.93
779.13	2070.50
779.31	2285.53
779.49	2220.00
779.66	2160.61
779.84	2136.03
780.01	2224.09
780.19	2093.02
780.37	2342.88
780.54	2314.20
780.72	2064.35
780.90	2105.31
781.07	2220.00
781.25	2115.55
781.43	2224.09
781.60	2136.03
781.78	2310.11
781.95	2133.98
782.13	2127.84
782.31	2133.98
782.48	2045.92
782.66	2121.70
782.83	2324.44
783.01	2215.90
783.19	2281.44
783.36	2220.00
783.54	2150.37
783.72	2197.47
783.89	2113.50
784.07	2215.90
784.24	2217.95
784.42	2371.55
784.60	2242.53
784.77	2250.72
784.95	1978.34
785.12	2080.74
785.30	2162.66
785.47	2082.78
785.65	2140.13
785.83	2195.42
786.00	2086.88
786.18	2220.00
786.35	2097.12
786.53	2195.42
786.71	2254.81
786.88	2220.00
787.06	2228.19
787.23	2207.71
787.41	2035.68
787.58	2144.22
787.76	2080.74
787.94	2197.47
788.11	2287.58
788.29	2037.73
788.46	2154.46
788.64	2068.45
788.81	2072.54
788.99	2082.78
789.16	2097.12
789.34	2142.18
789.52	2181.09
789.69	2062.30
789.87	2074.59
790.04	2090.98
790.22	2138.08
790.39	2457.56
790.57	2150.37
790.74	2166.75
790.92	2295.77
791.09	1947.62
791.27	2191.33
791.44	2314.20
791.62	2191.33
791.79	2301.92
791.97	2185.18
792.15	2516.95
792.32	2228.19
792.50	2379.74
792.67	2238.43
792.85	2318.30
793.02	2238.43
793.20	2164.70
793.37	2015.20
793.55	2181.09
793.72	2113.50
793.90	2291.68
794.07	2113.50
794.25	2060.26
794.42	2168.80
794.60	2123.74
794.77	2138.08
794.95	2226.14
795.12	2285.53
795.30	2172.89
795.47	2084.83
795.65	2396.12
795.82	2236.38
796.00	2158.56
796.17	2168.80
796.34	2127.84
796.52	2160.61
796.69	2308.06
796.87	2285.53
797.04	2176.99
797.22	2285.53
797.39	2228.19
797.57	2258.91
797.74	2197.47
797.92	2199.52
798.09	2217.95
798.27	2357.21
798.44	2125.79
798.62	2136.03
798.79	2205.66
798.96	2199.52
799.14	2170.85
799.31	2420.70
799.49	2181.09
799.66	2215.90
799.84	2154.46
800.01	2047.97
800.19	2226.14
800.36	2007.01
800.53	2211.81
800.71	2308.06
800.88	2336.73
801.06	2121.70
801.23	2138.08
801.41	2123.74
801.58	2047.97
801.75	2097.12
801.93	2193.37
802.10	2179.04
802.28	2248.67
802.45	2078.69
802.63	2191.33
802.80	2295.77
802.97	2140.13
803.15	2154.46
803.32	2125.79
803.50	2136.03
803.67	2107.36
803.84	2080.74
804.02	2232.29
804.19	2133.98
804.37	1953.76
804.54	2076.64
804.71	2162.66
804.89	2224.09
805.06	2099.17
805.24	2111.46
805.41	2109.41
805.58	2152.42
805.76	2428.89
805.93	2129.89
806.10	2342.88
806.28	2277.34
806.45	2252.77
806.63	2211.81
806.80	2299.87
806.97	2138.08
807.15	2211.81
807.32	2209.76
807.49	2211.81
807.67	2090.98
807.84	2121.70
808.01	2072.54
808.19	2351.07
808.36	2414.56
808.54	2228.19
808.71	2109.41
808.88	2209.76
809.06	2293.72
809.23	2357.21
809.40	2078.69
809.58	2195.42
809.75	2176.99
809.92	2109.41
810.10	2367.45
810.27	2142.18
810.44	2260.96
810.62	2287.58
810.79	2187.23
810.96	2166.75
811.14	2166.75
811.31	2246.62
811.48	2199.52
811.66	2185.18
811.83	2277.34
812.00	2310.11
812.18	2238.43
812.35	2328.54
812.52	2103.26
812.69	2148.32
812.87	2154.46
813.04	2074.59
813.21	2166.75
813.39	2113.50
813.56	2080.74
813.73	2265.05
813.91	2052.06
814.08	2265.05
814.25	2170.85
814.42	2107.36
814.60	2234.33
814.77	2228.19
814.94	2189.28
815.12	2125.79
815.29	2389.98
815.46	2154.46
815.63	2146.27
815.81	2174.94
815.98	2146.27
816.15	2162.66
816.33	2144.22
816.50	2195.42
816.67	2199.52
816.84	2209.76
817.02	2105.31
817.19	2148.32
817.36	2228.19
817.53	2226.14
817.71	2103.26
817.88	2273.25
818.05	2140.13
818.22	2125.79
818.40	2326.49
818.57	2136.03
818.74	2209.76
818.91	2084.83
819.09	2250.72
819.26	2273.25
819.43	2138.08
819.60	2095.07
819.78	2217.95
819.95	2222.05
820.12	2095.07
820.29	2355.16
820.47	2324.44
820.64	2125.79
820.81	2142.18
820.98	2095.07
821.15	2113.50
821.33	2244.57
821.50	2054.11
821.67	2314.20
821.84	2172.89
822.02	2123.74
822.19	2236.38
822.36	2125.79
822.53	2113.50
822.70	2035.68
822.88	2195.42
823.05	2396.12
823.22	2217.95
823.39	2267.10
823.56	2170.85
823.74	2406.36
823.91	2131.94
824.08	2088.93
824.25	2113.50
824.42	2406.36
824.60	2013.15
824.77	2195.42
824.94	2207.71
825.11	2183.13
825.28	2029.54
825.45	2263.01
825.63	2174.94
825.80	2140.13
825.97	2256.86
826.14	2121.70
826.31	2009.06
826.48	2226.14
826.66	2176.99
826.83	2189.28
827.00	2215.90
827.17	2136.03
827.34	2121.70
827.51	2152.42
827.69	2195.42
827.86	2041.82
828.03	2088.93
828.20	2197.47
828.37	2146.27
828.54	2226.14
828.71	2129.89
828.89	2310.11
829.06	2191.33
829.23	2326.49
829.40	2205.66
829.57	2174.94
829.74	2297.82
829.91	2174.94
830.09	2111.46
830.26	2281.44
830.43	2293.72
830.60	2215.90
830.77	2234.33
830.94	2269.15
831.11	2283.49
831.28	2176.99
831.46	2265.05
831.63	2183.13
831.80	2346.97
831.97	2129.89
832.14	2179.04
832.31	2226.14
832.48	2193.37
832.65	2265.05
832.82	2232.29
832.99	2299.87
833.17	2129.89
833.34	2338.78
833.51	2170.85
833.68	2082.78
833.85	2226.14
834.02	2123.74
834.19	2115.55
834.36	2082.78
834.53	2174.94
834.70	2242.53
834.87	2189.28
835.04	2133.98
835.22	2109.41
835.39	2164.70
835.56	2097.12
835.73	2119.65
835.90	2289.63
836.07	2035.68
836.24	2252.77
836.41	2093.02
836.58	2109.41
836.75	2181.09
836.92	2209.76
837.09	2095.07
837.26	2314.20
837.43	2232.29
837.60	2166.75
837.77	2152.42
837.94	2258.91
838.12	2293.72
838.29	2060.26
838.46	2009.06
838.63	2097.12
838.80	2363.36
838.97	2236.38
839.14	2213.85
839.31	2213.85
839.48	2287.58
839.65	2127.84
839.82	2138.08
839.99	2207.71
840.16	2158.56
840.33	2144.22
840.50	2205.66
840.67	2062.30
840.84	2011.11
841.01	2107.36
841.18	2101.22
841.35	2236.38
841.52	2211.81
841.69	2299.87
841.86	2256.86
842.03	2211.81
842.20	2256.86
842.37	2144.22
842.54	2107.36
842.71	2129.89
842.88	2064.35
843.05	2228.19
843.22	2095.07
843.39	2226.14
843.56	2162.66
843.73	2152.42
843.90	2152.42
844.07	2142.18
844.24	2293.72
844.41	2191.33
844.58	2183.13
844.75	2187.23
844.92	2140.13
845.09	2181.09
845.26	2080.74
845.43	2256.86
845.60	2226.14
845.77	2260.96
845.94	2187.23
846.10	2222.05
846.27	2105.31
846.44	2047.97
846.61	2136.03
846.78	2246.62
846.95	2389.98
847.12	2095.07
847.29	2158.56
847.46	2123.74
847.63	2269.15
847.80	2127.84
847.97	2156.51
848.14	2377.69
848.31	2097.12
848.48	1988.58
848.65	2209.76
848.82	2070.50
848.98	2414.56
849.15	2265.05
849.32	2275.29
849.49	2250.72
849.66	2201.57
849.83	2176.99
850.00	2056.16
850.17	2240.48
850.34	2080.74
850.51	2050.02
850.68	2101.22
850.85	2414.56
851.01	2314.20
851.18	2191.33
851.35	2125.79
851.52	2299.87
851.69	2226.14
851.86	2009.06
852.03	2088.93
852.20	2234.33
852.37	2154.46
852.53	2047.97
852.70	2154.46
852.87	2176.99
853.04	2256.86
853.21	2111.46
853.38	2209.76
853.55	2351.07
853.72	2369.50
853.89	2119.65
854.05	2068.45
854.22	2174.94
854.39	2164.70
854.56	2244.57
854.73	2312.16
854.90	2140.13
855.07	2103.26
855.23	2152.42
855.40	2076.64
855.57	2154.46
855.74	1994.72
855.91	2279.39
856.08	2015.20
856.25	2109.41
856.41	2117.60
856.58	2127.84
856.75	2095.07
856.92	2127.84
857.09	2275.29
857.26	2127.84
857.42	2207.71
857.59	2246.62
857.76	2140.13
857.93	2191.33
858.10	2176.99
858.27	2076.64
858.43	2199.52
858.60	2084.83
858.77	1994.72
858.94	2111.46
859.11	2246.62
859.27	2125.79
859.44	2168.80
859.61	2367.45
859.78	2189.28
859.95	2156.51
860.12	2060.26
860.28	2392.03
860.45	2330.59
860.62	2090.98
860.79	2181.09
860.95	2162.66
861.12	2113.50
861.29	2101.22
861.46	2138.08
861.63	2193.37
861.79	2201.57
861.96	2070.50
862.13	2136.03
862.30	2252.77
862.47	2095.07
862.63	2070.50
862.80	2209.76
862.97	2234.33
863.14	2156.51
863.30	2228.19
863.47	2074.59
863.64	2377.69
863.81	2189.28
863.97	2185.18
864.14	2160.61
864.31	2156.51
864.48	2133.98
864.65	2197.47
864.81	2213.85
864.98	2293.72
865.15	2224.09
865.32	2232.29
865.48	2252.77
865.65	2326.49
865.82	2115.55
865.98	2205.66
866.15	2236.38
866.32	2168.80
866.49	2117.60
866.65	2273.25
866.82	2047.97
866.99	2152.42
867.16	2150.37
867.32	2113.50
867.49	2142.18
867.66	2207.71
867.83	2138.08
867.99	2047.97
868.16	2142.18
868.33	2152.42
868.49	2164.70
868.66	2142.18
868.83	2211.81
868.99	2236.38
869.16	2205.66
869.33	2246.62
869.50	2234.33
869.66	2236.38
869.83	2123.74
870.00	2090.98
870.16	2217.95
870.33	2129.89
870.50	2275.29
870.66	2193.37
870.83	2252.77
871.00	2140.13
871.17	2191.33
871.33	2217.95
871.50	2129.89
871.67	2187.23
871.83	2154.46
872.00	2301.92
872.17	2084.83
872.33	2365.40
872.50	2375.64
872.67	2088.93
872.83	2095.07
873.00	2166.75
873.17	2113.50
873.33	2172.89
873.50	2232.29
873.67	2129.89
873.83	2160.61
874.00	2256.86
874.16	2244.57
874.33	2211.81
874.50	2054.11
874.66	2248.67
874.83	2230.24
875.00	2299.87
875.16	2263.01
875.33	2308.06
875.50	1988.58
875.66	2158.56
875.83	2244.57
875.99	2236.38
876.16	2166.75
876.33	2162.66
876.49	2203.61
876.66	2242.53
876.83	2226.14
876.99	2039.78
877.16	2146.27
877.32	2162.66
877.49	2054.11
877.66	2160.61
877.82	2367.45
877.99	2199.52
878.15	2250.72
878.32	2187.23
878.49	2183.13
878.65	2109.41
878.82	2287.58
878.98	2217.95
879.15	2252.77
879.32	2193.37
879.48	2230.24
879.65	2144.22
879.81	2195.42
879.98	2156.51
880.15	2088.93
880.31	2238.43
880.48	2056.16
880.64	2234.33
880.81	2273.25
880.97	2349.02
881.14	2316.25
881.31	2070.50
881.47	2338.78
881.64	2133.98
881.80	1986.53
881.97	2144.22
882.13	2187.23
882.30	2080.74
882.47	2107.36
882.63	2109.41
882.80	2119.65
882.96	2103.26
883.13	2330.59
883.29	2129.89
883.46	2199.52
883.62	2381.79
883.79	2213.85
883.95	2324.44
884.12	2136.03
884.29	2215.90
884.45	2142.18
884.62	2160.61
884.78	2205.66
884.95	2351.07
885.11	2080.74
885.28	2203.61
885.44	2078.69
885.61	2254.81
885.77	2363.36
885.94	2195.42
886.10	2166.75
886.27	2199.52
886.43	2420.70
886.60	2252.77
886.76	2090.98
886.93	2072.54
887.09	2240.48
887.26	2056.16
887.42	2172.89
887.59	2303.96
887.75	2394.08
887.92	2234.33
888.08	2195.42
888.25	2367.45
888.41	2289.63
888.58	2146.27
888.74	2115.55
888.91	2152.42
>>>>>End Processed Spectral Data<<<<<
