SpectraSuite Data File
++++++++++++++++++++++++++++++++++++
Date: Thu May 05 12:35:33 CEST 2016
User: root
Dark Spectrum Present: No
Reference Spectrum Present: No
Number of Sampled Component Spectra: 1
Spectrometers: USB4C02835
Integration Time (usec): 100000 (USB4C02835)
Spectra Averaged: 1 (USB4C02835)
Boxcar Smoothing: 0 (USB4C02835)
Correct for Electrical Dark: No (USB4C02835)
Strobe/Lamp Enabled: No (USB4C02835)
Correct for Detector Non-linearity: No (USB4C02835)
Correct for Stray Light: No (USB4C02835)
Number of Pixels in Processed Spectrum: 3648
>>>>>Begin Processed Spectral Data<<<<<
177.47	1802.21
177.69	1802.21
177.91	1802.21
178.13	1777.64
178.36	1769.44
178.58	2064.35
178.80	2162.66
179.02	2015.20
179.24	2072.54
179.46	2058.21
179.68	2170.85
179.90	2140.13
180.13	2211.81
180.35	2086.88
180.57	2138.08
180.79	2299.87
181.01	2101.22
181.23	2183.13
181.45	2244.57
181.67	2174.94
181.90	2240.48
182.12	2088.93
182.34	2009.06
182.56	2277.34
182.78	2203.61
183.00	2070.50
183.22	2183.13
183.44	1990.63
183.66	2424.80
183.89	2267.10
184.11	2144.22
184.33	2287.58
184.55	2361.31
184.77	2197.47
184.99	2119.65
185.21	2150.37
185.43	2508.76
185.65	2146.27
185.87	2136.03
186.10	2365.40
186.32	2381.79
186.54	2203.61
186.76	2170.85
186.98	2275.29
187.20	2250.72
187.42	2133.98
187.64	2090.98
187.86	2174.94
188.08	2267.10
188.30	2095.07
188.52	2121.70
188.75	2258.91
188.97	2265.05
189.19	2160.61
189.41	2066.40
189.63	2277.34
189.85	2144.22
190.07	2052.06
190.29	2047.97
190.51	2211.81
190.73	2056.16
190.95	2275.29
191.17	2183.13
191.39	2068.45
191.61	2226.14
191.84	2052.06
192.06	2232.29
192.28	2105.31
192.50	2486.23
192.72	2228.19
192.94	2195.42
193.16	2301.92
193.38	2179.04
193.60	2078.69
193.82	2152.42
194.04	2359.26
194.26	2220.00
194.48	2099.17
194.70	2074.59
194.92	2146.27
195.14	2236.38
195.36	2189.28
195.58	2117.60
195.80	2207.71
196.02	2133.98
196.24	2004.96
196.46	2205.66
196.69	2205.66
196.91	2492.38
197.13	2162.66
197.35	2193.37
197.57	2310.11
197.79	2250.72
198.01	2144.22
198.23	2097.12
198.45	2242.53
198.67	2138.08
198.89	2052.06
199.11	2215.90
199.33	2121.70
199.55	1974.24
199.77	2113.50
199.99	2228.19
200.21	2228.19
200.43	2156.51
200.65	2105.31
200.87	2060.26
201.09	2299.87
201.31	2105.31
201.53	2119.65
201.75	2197.47
201.97	2267.10
202.19	2183.13
202.41	2183.13
202.63	2314.20
202.85	2183.13
203.07	2271.20
203.29	2150.37
203.51	2109.41
203.73	2142.18
203.95	2424.80
204.17	2140.13
204.39	2217.95
204.61	2160.61
204.83	2168.80
205.05	2133.98
205.27	2144.22
205.49	2396.12
205.71	2205.66
205.93	2029.54
206.15	2080.74
206.37	2152.42
206.59	2146.27
206.81	1998.82
207.03	2086.88
207.25	2152.42
207.47	2220.00
207.69	2113.50
207.91	2318.30
208.13	2318.30
208.34	2109.41
208.56	2052.06
208.78	2150.37
209.00	2103.26
209.22	2150.37
209.44	2179.04
209.66	2062.30
209.88	2187.23
210.10	2148.32
210.32	2168.80
210.54	2342.88
210.76	2138.08
210.98	2244.57
211.20	2023.39
211.42	2133.98
211.64	2269.15
211.86	2267.10
212.08	2156.51
212.30	2058.21
212.52	2228.19
212.74	2201.57
212.96	2168.80
213.17	2189.28
213.39	2238.43
213.61	2359.26
213.83	2265.05
214.05	2170.85
214.27	2256.86
214.49	2084.83
214.71	2056.16
214.93	2209.76
215.15	2201.57
215.37	2252.77
215.59	1937.38
215.81	2187.23
216.03	2263.01
216.24	2156.51
216.46	2166.75
216.68	2150.37
216.90	2265.05
217.12	2314.20
217.34	2222.05
217.56	2162.66
217.78	2365.40
218.00	2203.61
218.22	2203.61
218.44	2203.61
218.66	2195.42
218.87	2385.88
219.09	2076.64
219.31	2170.85
219.53	2228.19
219.75	2133.98
219.97	2146.27
220.19	2240.48
220.41	2187.23
220.63	2349.02
220.85	2144.22
221.06	2058.21
221.28	2344.92
221.50	2248.67
221.72	2176.99
221.94	2150.37
222.16	2170.85
222.38	2277.34
222.60	2140.13
222.82	2154.46
223.03	2293.72
223.25	2115.55
223.47	2195.42
223.69	2342.88
223.91	2252.77
224.13	2244.57
224.35	1998.82
224.57	2285.53
224.78	2103.26
225.00	2117.60
225.22	2125.79
225.44	2127.84
225.66	2283.49
225.88	2142.18
226.10	2252.77
226.32	2187.23
226.53	2383.84
226.75	2127.84
226.97	2193.37
227.19	2185.18
227.41	2121.70
227.63	2138.08
227.85	1994.72
228.06	2146.27
228.28	2105.31
228.50	2389.98
228.72	2043.87
228.94	2125.79
229.16	2045.92
229.37	2080.74
229.59	2099.17
229.81	2230.24
230.03	2072.54
230.25	2133.98
230.47	2041.82
230.69	2109.41
230.90	2211.81
231.12	2105.31
231.34	2193.37
231.56	2179.04
231.78	2080.74
232.00	2242.53
232.21	2086.88
232.43	2109.41
232.65	1976.29
232.87	2275.29
233.09	2078.69
233.30	2105.31
233.52	2277.34
233.74	2189.28
233.96	2066.40
234.18	2170.85
234.40	2189.28
234.61	2355.16
234.83	2150.37
235.05	2066.40
235.27	2416.60
235.49	2297.82
235.70	2179.04
235.92	2260.96
236.14	2176.99
236.36	2439.13
236.58	2054.11
236.79	2164.70
237.01	2172.89
237.23	2142.18
237.45	2240.48
237.67	2158.56
237.88	2242.53
238.10	2353.12
238.32	2039.78
238.54	2136.03
238.76	2166.75
238.97	2150.37
239.19	2136.03
239.41	2197.47
239.63	2326.49
239.85	2095.07
240.06	2133.98
240.28	2121.70
240.50	2402.27
240.72	2136.03
240.93	2070.50
241.15	2289.63
241.37	2211.81
241.59	2357.21
241.81	2119.65
242.02	2158.56
242.24	2185.18
242.46	2301.92
242.68	1982.43
242.89	2199.52
243.11	2291.68
243.33	2220.00
243.55	2127.84
243.76	2166.75
243.98	2117.60
244.20	2191.33
244.42	2142.18
244.64	2136.03
244.85	2117.60
245.07	2146.27
245.29	2187.23
245.51	2113.50
245.72	2256.86
245.94	2232.29
246.16	2211.81
246.38	2199.52
246.59	2168.80
246.81	2146.27
247.03	2076.64
247.24	1984.48
247.46	2103.26
247.68	2215.90
247.90	2029.54
248.11	2062.30
248.33	2269.15
248.55	2179.04
248.77	2107.36
248.98	2236.38
249.20	2334.68
249.42	2228.19
249.64	2154.46
249.85	2150.37
250.07	2129.89
250.29	2328.54
250.50	2271.20
250.72	2035.68
250.94	2187.23
251.16	2351.07
251.37	2195.42
251.59	2185.18
251.81	2252.77
252.02	2392.03
252.24	2076.64
252.46	2193.37
252.68	2127.84
252.89	2170.85
253.11	1988.58
253.33	2275.29
253.54	2287.58
253.76	2031.58
253.98	2097.12
254.20	2183.13
254.41	2105.31
254.63	2158.56
254.85	2045.92
255.06	2158.56
255.28	2273.25
255.50	2291.68
255.71	2064.35
255.93	2039.78
256.15	2197.47
256.36	2211.81
256.58	2125.79
256.80	2146.27
257.02	2166.75
257.23	2179.04
257.45	2078.69
257.67	2246.62
257.88	2138.08
258.10	2224.09
258.32	2138.08
258.53	2123.74
258.75	2361.31
258.97	2136.03
259.18	2146.27
259.40	2146.27
259.62	2308.06
259.83	2258.91
260.05	2170.85
260.27	2566.10
260.48	2295.77
260.70	2140.13
260.92	2113.50
261.13	2187.23
261.35	2242.53
261.57	2234.33
261.78	2004.96
262.00	2093.02
262.22	2199.52
262.43	2115.55
262.65	2037.73
262.86	2136.03
263.08	2306.01
263.30	2222.05
263.51	1988.58
263.73	2129.89
263.95	2320.35
264.16	2172.89
264.38	2101.22
264.60	2133.98
264.81	2201.57
265.03	2291.68
265.25	2254.81
265.46	2174.94
265.68	2236.38
265.89	2285.53
266.11	2017.25
266.33	2146.27
266.54	2195.42
266.76	2183.13
266.98	2148.32
267.19	2256.86
267.41	2263.01
267.62	2220.00
267.84	2027.49
268.06	2211.81
268.27	2242.53
268.49	2195.42
268.70	2181.09
268.92	2117.60
269.14	2115.55
269.35	2017.25
269.57	2234.33
269.79	2224.09
270.00	2095.07
270.22	2373.60
270.43	2023.39
270.65	1988.58
270.87	2211.81
271.08	2269.15
271.30	2152.42
271.51	2052.06
271.73	2183.13
271.95	2381.79
272.16	2133.98
272.38	2164.70
272.59	2150.37
272.81	2265.05
273.02	2148.32
273.24	2103.26
273.46	2230.24
273.67	2133.98
273.89	2031.58
274.10	2097.12
274.32	2324.44
274.54	2172.89
274.75	2183.13
274.97	2133.98
275.18	2269.15
275.40	2246.62
275.61	2162.66
275.83	2244.57
276.05	2164.70
276.26	2181.09
276.48	2144.22
276.69	2129.89
276.91	2144.22
277.12	2349.02
277.34	2220.00
277.55	2295.77
277.77	2150.37
277.99	2117.60
278.20	2093.02
278.42	2035.68
278.63	2103.26
278.85	2226.14
279.06	2060.26
279.28	2267.10
279.49	2269.15
279.71	2232.29
279.93	2146.27
280.14	2187.23
280.36	2131.94
280.57	2271.20
280.79	2285.53
281.00	2064.35
281.22	2154.46
281.43	2318.30
281.65	1941.47
281.86	2062.30
282.08	2191.33
282.29	2371.55
282.51	2035.68
282.73	2121.70
282.94	2058.21
283.16	2295.77
283.37	2332.64
283.59	2154.46
283.80	2158.56
284.02	2150.37
284.23	2187.23
284.45	2179.04
284.66	2131.94
284.88	2131.94
285.09	2111.46
285.31	2187.23
285.52	2211.81
285.74	2013.15
285.95	2195.42
286.17	2213.85
286.38	2301.92
286.60	2131.94
286.81	2152.42
287.03	2066.40
287.24	2267.10
287.46	2269.15
287.67	2232.29
287.89	2371.55
288.10	2176.99
288.32	2213.85
288.53	2318.30
288.75	2185.18
288.96	2269.15
289.18	2121.70
289.39	2174.94
289.61	2199.52
289.82	2418.65
290.04	2428.89
290.25	2113.50
290.47	2150.37
290.68	2123.74
290.90	2242.53
291.11	2095.07
291.33	2234.33
291.54	2121.70
291.76	2086.88
291.97	2275.29
292.18	2154.46
292.40	2195.42
292.61	2138.08
292.83	2422.75
293.04	2252.77
293.26	2244.57
293.47	2230.24
293.69	2095.07
293.90	2224.09
294.12	2342.88
294.33	2220.00
294.55	2220.00
294.76	2283.49
294.97	2322.40
295.19	2406.36
295.40	2181.09
295.62	2183.13
295.83	2340.83
296.05	2144.22
296.26	2314.20
296.48	2117.60
296.69	2154.46
296.90	2174.94
297.12	2152.42
297.33	2260.96
297.55	2226.14
297.76	2306.01
297.98	2189.28
298.19	2166.75
298.41	2244.57
298.62	2113.50
298.83	2256.86
299.05	2220.00
299.26	2111.46
299.48	2084.83
299.69	2142.18
299.90	2193.37
300.12	2097.12
300.33	2297.82
300.55	2205.66
300.76	2207.71
300.98	2117.60
301.19	2215.90
301.40	2146.27
301.62	2123.74
301.83	2267.10
302.05	2205.66
302.26	2162.66
302.47	2166.75
302.69	2136.03
302.90	2201.57
303.12	1933.28
303.33	2203.61
303.54	2375.64
303.76	2185.18
303.97	2297.82
304.19	2306.01
304.40	2146.27
304.61	2191.33
304.83	2293.72
305.04	2232.29
305.26	2193.37
305.47	2176.99
305.68	2144.22
305.90	2058.21
306.11	2351.07
306.33	2185.18
306.54	2105.31
306.75	2072.54
306.97	2054.11
307.18	2086.88
307.39	2127.84
307.61	2211.81
307.82	2158.56
308.04	2310.11
308.25	2097.12
308.46	2181.09
308.68	2138.08
308.89	2201.57
309.10	2244.57
309.32	2205.66
309.53	2187.23
309.74	2252.77
309.96	2199.52
310.17	2240.48
310.39	2113.50
310.60	2242.53
310.81	2160.61
311.03	2097.12
311.24	2273.25
311.45	2228.19
311.67	2336.73
311.88	2113.50
312.09	2127.84
312.31	2222.05
312.52	2152.42
312.73	2162.66
312.95	2125.79
313.16	2115.55
313.37	2236.38
313.59	2166.75
313.80	2183.13
314.01	2316.25
314.23	2097.12
314.44	2133.98
314.65	2070.50
314.87	2072.54
315.08	2142.18
315.29	2195.42
315.51	2043.87
315.72	2050.02
315.93	2273.25
316.15	2191.33
316.36	2172.89
316.57	2203.61
316.79	2191.33
317.00	2101.22
317.21	2277.34
317.43	2119.65
317.64	2203.61
317.85	2121.70
318.07	2099.17
318.28	2201.57
318.49	2240.48
318.70	2406.36
318.92	2299.87
319.13	2287.58
319.34	2377.69
319.56	2295.77
319.77	2351.07
319.98	2349.02
320.20	2263.01
320.41	2269.15
320.62	2320.35
320.83	2189.28
321.05	2324.44
321.26	2183.13
321.47	2242.53
321.69	2260.96
321.90	2031.58
322.11	2123.74
322.32	2338.78
322.54	2310.11
322.75	2121.70
322.96	2459.61
323.18	1955.81
323.39	2076.64
323.60	2105.31
323.81	2250.72
324.03	2144.22
324.24	2205.66
324.45	2222.05
324.66	2136.03
324.88	2351.07
325.09	2377.69
325.30	2119.65
325.52	2187.23
325.73	2267.10
325.94	2103.26
326.15	2017.25
326.37	2068.45
326.58	2361.31
326.79	2365.40
327.00	2035.68
327.22	2146.27
327.43	2095.07
327.64	2142.18
327.85	2242.53
328.07	2181.09
328.28	2463.71
328.49	2207.71
328.70	2224.09
328.92	2133.98
329.13	2228.19
329.34	2234.33
329.55	2254.81
329.76	2246.62
329.98	2197.47
330.19	2314.20
330.40	2187.23
330.61	2150.37
330.83	2314.20
331.04	2095.07
331.25	2207.71
331.46	2105.31
331.68	2058.21
331.89	2242.53
332.10	2170.85
332.31	2127.84
332.52	2162.66
332.74	2279.39
332.95	2002.91
333.16	2115.55
333.37	2277.34
333.58	2111.46
333.80	2203.61
334.01	2088.93
334.22	2232.29
334.43	2129.89
334.64	2088.93
334.86	2033.63
335.07	2131.94
335.28	2363.36
335.49	2056.16
335.70	2258.91
335.92	2252.77
336.13	2389.98
336.34	2232.29
336.55	2174.94
336.76	2209.76
336.98	2041.82
337.19	2138.08
337.40	2303.96
337.61	2432.99
337.82	2144.22
338.04	2238.43
338.25	2101.22
338.46	2183.13
338.67	2236.38
338.88	2117.60
339.09	2095.07
339.31	2070.50
339.52	2052.06
339.73	2080.74
339.94	2211.81
340.15	2226.14
340.36	2109.41
340.58	2244.57
340.79	2187.23
341.00	2258.91
341.21	2138.08
341.42	2273.25
341.63	2093.02
341.85	2275.29
342.06	2228.19
342.27	2088.93
342.48	2205.66
342.69	1959.91
342.90	2246.62
343.12	2267.10
343.33	2074.59
343.54	2299.87
343.75	2310.11
343.96	2156.51
344.17	2158.56
344.38	2179.04
344.60	2170.85
344.81	2121.70
345.02	2127.84
345.23	2273.25
345.44	2424.80
345.65	2160.61
345.86	2191.33
346.07	2197.47
346.29	2074.59
346.50	2187.23
346.71	2265.05
346.92	2306.01
347.13	2396.12
347.34	2136.03
347.55	2072.54
347.76	2281.44
347.98	2041.82
348.19	2166.75
348.40	2185.18
348.61	2129.89
348.82	2387.93
349.03	2267.10
349.24	2047.97
349.45	2367.45
349.66	2060.26
349.88	2209.76
350.09	2107.36
350.30	2334.68
350.51	2299.87
350.72	2166.75
350.93	2205.66
351.14	2144.22
351.35	2273.25
351.56	2193.37
351.77	2166.75
351.99	2289.63
352.20	2297.82
352.41	2308.06
352.62	2002.91
352.83	2250.72
353.04	2226.14
353.25	2117.60
353.46	2306.01
353.67	2289.63
353.88	2013.15
354.09	2189.28
354.30	2244.57
354.52	2256.86
354.73	2244.57
354.94	2215.90
355.15	2209.76
355.36	2306.01
355.57	2146.27
355.78	2197.47
355.99	2101.22
356.20	2160.61
356.41	2265.05
356.62	2232.29
356.83	2172.89
357.04	2371.55
357.25	2076.64
357.46	2172.89
357.68	2035.68
357.89	2093.02
358.10	2197.47
358.31	2240.48
358.52	2174.94
358.73	2142.18
358.94	2105.31
359.15	2129.89
359.36	2250.72
359.57	2084.83
359.78	2179.04
359.99	2217.95
360.20	2078.69
360.41	2179.04
360.62	2297.82
360.83	2154.46
361.04	2168.80
361.25	2211.81
361.46	2312.16
361.67	2230.24
361.88	2234.33
362.09	2248.67
362.30	2220.00
362.51	2086.88
362.72	2203.61
362.93	2254.81
363.14	2215.90
363.35	2254.81
363.56	2084.83
363.78	2289.63
363.99	2246.62
364.20	2121.70
364.41	2156.51
364.62	2367.45
364.83	2269.15
365.04	2181.09
365.25	2162.66
365.46	2355.16
365.67	2170.85
365.88	2164.70
366.09	2111.46
366.30	2150.37
366.51	2203.61
366.72	2060.26
366.93	2097.12
367.14	2211.81
367.35	2289.63
367.56	2246.62
367.77	2301.92
367.98	2168.80
368.18	2201.57
368.39	2199.52
368.60	2142.18
368.81	2215.90
369.02	2215.90
369.23	2193.37
369.44	2064.35
369.65	2215.90
369.86	2220.00
370.07	2242.53
370.28	2099.17
370.49	2267.10
370.70	2283.49
370.91	2148.32
371.12	2054.11
371.33	2330.59
371.54	2152.42
371.75	2336.73
371.96	1992.67
372.17	2138.08
372.38	2115.55
372.59	2209.76
372.80	2185.18
373.01	2084.83
373.22	2203.61
373.43	2240.48
373.64	2007.01
373.85	2289.63
374.06	2312.16
374.26	2297.82
374.47	2172.89
374.68	2269.15
374.89	2174.94
375.10	2187.23
375.31	2181.09
375.52	2205.66
375.73	2236.38
375.94	2066.40
376.15	2336.73
376.36	2121.70
376.57	2090.98
376.78	2160.61
376.99	2170.85
377.20	2301.92
377.40	2195.42
377.61	2293.72
377.82	2131.94
378.03	2365.40
378.24	2205.66
378.45	2176.99
378.66	2213.85
378.87	2035.68
379.08	2035.68
379.29	2127.84
379.50	2289.63
379.71	2230.24
379.91	2297.82
380.12	2187.23
380.33	2234.33
380.54	2220.00
380.75	2234.33
380.96	2119.65
381.17	2303.96
381.38	2185.18
381.59	2205.66
381.80	2170.85
382.00	2514.91
382.21	2185.18
382.42	2389.98
382.63	2420.70
382.84	2228.19
383.05	2351.07
383.26	2373.60
383.47	2269.15
383.68	2222.05
383.88	2265.05
384.09	2224.09
384.30	2303.96
384.51	2242.53
384.72	2138.08
384.93	2115.55
385.14	2201.57
385.35	2258.91
385.55	2068.45
385.76	2351.07
385.97	2176.99
386.18	2088.93
386.39	2215.90
386.60	2160.61
386.81	2152.42
387.02	2113.50
387.22	2156.51
387.43	2273.25
387.64	2256.86
387.85	2367.45
388.06	2410.46
388.27	4003.78
388.48	8630.14
388.68	11982.67
388.89	14454.56
389.10	15865.61
389.31	14505.76
389.52	11255.64
389.73	9838.44
389.93	8806.27
390.14	8126.34
390.35	7268.24
390.56	6533.02
390.77	5289.90
390.98	4030.40
391.18	3350.48
391.39	2719.70
391.60	2312.16
391.81	2385.88
392.02	2097.12
392.23	2367.45
392.43	2285.53
392.64	2308.06
392.85	2224.09
393.06	2361.31
393.27	2166.75
393.47	2209.76
393.68	2203.61
393.89	2203.61
394.10	2299.87
394.31	2121.70
394.52	2136.03
394.72	2119.65
394.93	2346.97
395.14	2107.36
395.35	2258.91
395.56	2160.61
395.76	2215.90
395.97	2338.78
396.18	2306.01
396.39	2306.01
396.60	2666.46
396.80	2359.26
397.01	2314.20
397.22	2301.92
397.43	2353.12
397.64	2207.71
397.84	2289.63
398.05	2420.70
398.26	2238.43
398.47	2293.72
398.67	2291.68
398.88	2129.89
399.09	2179.04
399.30	2107.36
399.51	2240.48
399.71	2174.94
399.92	2203.61
400.13	2211.81
400.34	2183.13
400.54	2140.13
400.75	2449.37
400.96	2293.72
401.17	2342.88
401.37	2260.96
401.58	2240.48
401.79	2166.75
402.00	2334.68
402.21	2523.10
402.41	2602.97
402.62	2635.74
402.83	2693.08
403.04	2576.34
403.24	2729.94
403.45	2389.98
403.66	2441.18
403.87	2432.99
404.07	2490.33
404.28	2570.20
404.49	2381.79
404.70	2285.53
404.90	2306.01
405.11	2273.25
405.32	2271.20
405.52	2168.80
405.73	2099.17
405.94	2195.42
406.15	2199.52
406.35	2228.19
406.56	2226.14
406.77	2152.42
406.98	2230.24
407.18	2162.66
407.39	2287.58
407.60	2179.04
407.80	2232.29
408.01	2166.75
408.22	2265.05
408.43	2136.03
408.63	2201.57
408.84	2260.96
409.05	2303.96
409.25	2068.45
409.46	2148.32
409.67	2209.76
409.88	2144.22
410.08	2156.51
410.29	2072.54
410.50	2271.20
410.70	2226.14
410.91	2088.93
411.12	2217.95
411.32	2187.23
411.53	2146.27
411.74	2295.77
411.95	2285.53
412.15	2318.30
412.36	2330.59
412.57	2310.11
412.77	2269.15
412.98	2297.82
413.19	2203.61
413.39	2201.57
413.60	2232.29
413.81	2340.83
414.01	2107.36
414.22	2254.81
414.43	2256.86
414.63	2183.13
414.84	2318.30
415.05	2189.28
415.25	2095.07
415.46	2260.96
415.67	2133.98
415.87	2187.23
416.08	2207.71
416.29	2105.31
416.49	2293.72
416.70	2136.03
416.91	2228.19
417.11	2140.13
417.32	2357.21
417.53	2258.91
417.73	2242.53
417.94	2201.57
418.15	2250.72
418.35	2267.10
418.56	2240.48
418.77	2494.43
418.97	2176.99
419.18	2195.42
419.38	1980.39
419.59	2205.66
419.80	2281.44
420.00	2185.18
420.21	2183.13
420.42	2346.97
420.62	2226.14
420.83	2168.80
421.04	2138.08
421.24	2160.61
421.45	2232.29
421.65	2176.99
421.86	2156.51
422.07	2240.48
422.27	2260.96
422.48	2260.96
422.69	2074.59
422.89	2207.71
423.10	2162.66
423.30	2050.02
423.51	2252.77
423.72	2187.23
423.92	2303.96
424.13	2113.50
424.33	2156.51
424.54	2332.64
424.75	2150.37
424.95	2342.88
425.16	2162.66
425.36	2199.52
425.57	2359.26
425.78	2355.16
425.98	2289.63
426.19	2176.99
426.39	2176.99
426.60	2213.85
426.81	2340.83
427.01	2228.19
427.22	2127.84
427.42	2111.46
427.63	2191.33
427.83	2299.87
428.04	2371.55
428.25	2242.53
428.45	2306.01
428.66	2291.68
428.86	2166.75
429.07	2203.61
429.28	2220.00
429.48	2146.27
429.69	2119.65
429.89	2246.62
430.10	2068.45
430.30	2269.15
430.51	2224.09
430.71	2152.42
430.92	2144.22
431.13	2111.46
431.33	2244.57
431.54	2211.81
431.74	2308.06
431.95	2461.66
432.15	2101.22
432.36	2146.27
432.56	2275.29
432.77	2306.01
432.98	2422.75
433.18	2201.57
433.39	2119.65
433.59	2174.94
433.80	2396.12
434.00	2459.61
434.21	2160.61
434.41	2162.66
434.62	2422.75
434.82	2123.74
435.03	2105.31
435.23	2162.66
435.44	1927.14
435.64	2162.66
435.85	2168.80
436.06	2258.91
436.26	2295.77
436.47	2146.27
436.67	2099.17
436.88	2136.03
437.08	2260.96
437.29	2265.05
437.49	2209.76
437.70	2373.60
437.90	2191.33
438.11	2365.40
438.31	2256.86
438.52	2381.79
438.72	2398.17
438.93	2457.56
439.13	2306.01
439.34	2293.72
439.54	2240.48
439.75	2301.92
439.95	2244.57
440.16	2185.18
440.36	2240.48
440.57	2256.86
440.77	2248.67
440.98	2197.47
441.18	2254.81
441.39	2195.42
441.59	2064.35
441.80	2432.99
442.00	2129.89
442.21	2279.39
442.41	2093.02
442.62	2340.83
442.82	2107.36
443.02	2127.84
443.23	2240.48
443.43	2152.42
443.64	2301.92
443.84	2146.27
444.05	2334.68
444.25	2146.27
444.46	2224.09
444.66	2265.05
444.87	2375.64
445.07	2105.31
445.28	2203.61
445.48	2332.64
445.69	2318.30
445.89	2371.55
446.09	2172.89
446.30	2441.18
446.50	2846.68
446.71	4460.48
446.91	5552.04
447.12	6381.47
447.32	6750.10
447.53	6111.14
447.73	5197.74
447.93	4552.63
448.14	4278.21
448.34	4169.66
448.55	3569.61
448.75	3534.79
448.96	3297.23
449.16	3018.71
449.36	2848.72
449.57	2457.56
449.77	2297.82
449.98	2242.53
450.18	2318.30
450.39	2330.59
450.59	2289.63
450.79	2179.04
451.00	2158.56
451.20	2310.11
451.41	2166.75
451.61	2275.29
451.81	2215.90
452.02	2228.19
452.22	2191.33
452.43	2211.81
452.63	2189.28
452.84	2254.81
453.04	2164.70
453.24	2162.66
453.45	2183.13
453.65	2220.00
453.86	2256.86
454.06	2199.52
454.26	2277.34
454.47	2150.37
454.67	2322.40
454.87	2207.71
455.08	2246.62
455.28	2340.83
455.49	2209.76
455.69	2136.03
455.89	2379.74
456.10	2293.72
456.30	2162.66
456.51	2301.92
456.71	2232.29
456.91	2201.57
457.12	2226.14
457.32	2174.94
457.52	2107.36
457.73	2256.86
457.93	2328.54
458.14	2152.42
458.34	2021.35
458.54	2242.53
458.75	2097.12
458.95	2324.44
459.15	2220.00
459.36	2113.50
459.56	2244.57
459.76	2498.52
459.97	2213.85
460.17	2201.57
460.37	2283.49
460.58	2220.00
460.78	2371.55
460.99	2170.85
461.19	2224.09
461.39	2166.75
461.60	2215.90
461.80	2291.68
462.00	2105.31
462.21	2244.57
462.41	2082.78
462.61	2072.54
462.82	2076.64
463.02	2252.77
463.22	2170.85
463.43	2244.57
463.63	2314.20
463.83	2383.84
464.04	2244.57
464.24	2232.29
464.44	2146.27
464.64	2193.37
464.85	2334.68
465.05	2301.92
465.25	2199.52
465.46	2129.89
465.66	2220.00
465.86	2238.43
466.07	2193.37
466.27	2131.94
466.47	2052.06
466.68	2086.88
466.88	2377.69
467.08	2344.92
467.29	2297.82
467.49	2228.19
467.69	2150.37
467.89	2205.66
468.10	2138.08
468.30	2211.81
468.50	2318.30
468.71	2265.05
468.91	2086.88
469.11	2408.41
469.31	2217.95
469.52	2080.74
469.72	2432.99
469.92	2379.74
470.13	2240.48
470.33	2201.57
470.53	2269.15
470.73	2602.97
470.94	3035.09
471.14	3319.76
471.34	3520.46
471.54	3504.07
471.75	3114.96
471.95	2793.43
472.15	2760.66
472.36	2805.72
472.56	2731.99
472.76	2662.36
472.96	2682.84
473.17	2586.58
473.37	2500.57
473.57	2406.36
473.77	2287.58
473.98	2322.40
474.18	2131.94
474.38	2422.75
474.58	2164.70
474.79	2064.35
474.99	2326.49
475.19	2308.06
475.39	2144.22
475.60	2256.86
475.80	2199.52
476.00	2326.49
476.20	2170.85
476.41	2197.47
476.61	2308.06
476.81	2242.53
477.01	2150.37
477.21	2400.22
477.42	2232.29
477.62	2127.84
477.82	2308.06
478.02	2185.18
478.23	2207.71
478.43	2084.83
478.63	2207.71
478.83	2187.23
479.03	2152.42
479.24	2342.88
479.44	2457.56
479.64	2197.47
479.84	2078.69
480.04	2211.81
480.25	2369.50
480.45	2209.76
480.65	2123.74
480.85	2312.16
481.06	2211.81
481.26	2277.34
481.46	2228.19
481.66	2242.53
481.86	2162.66
482.06	2285.53
482.27	2197.47
482.47	2158.56
482.67	2316.25
482.87	2256.86
483.07	2250.72
483.28	2076.64
483.48	2070.50
483.68	2269.15
483.88	2166.75
484.08	2103.26
484.29	2115.55
484.49	2160.61
484.69	2029.54
484.89	2349.02
485.09	2269.15
485.29	2236.38
485.50	2277.34
485.70	2152.42
485.90	2326.49
486.10	2299.87
486.30	2213.85
486.50	2281.44
486.71	2260.96
486.91	2250.72
487.11	2334.68
487.31	2011.11
487.51	2250.72
487.71	2181.09
487.91	2078.69
488.12	2172.89
488.32	2031.58
488.52	2160.61
488.72	2050.02
488.92	2281.44
489.12	2289.63
489.32	2299.87
489.53	2277.34
489.73	2119.65
489.93	2342.88
490.13	2152.42
490.33	2156.51
490.53	2250.72
490.73	2203.61
490.94	2052.06
491.14	2226.14
491.34	2332.64
491.54	2459.61
491.74	3127.25
491.94	3733.45
492.14	4114.37
492.34	4040.64
492.54	3745.73
492.75	3215.31
492.95	3243.98
493.15	2971.60
493.35	2865.11
493.55	2834.39
493.75	2709.46
493.95	2748.37
494.15	2523.10
494.35	2437.08
494.56	2263.01
494.76	2228.19
494.96	2267.10
495.16	2215.90
495.36	2170.85
495.56	2189.28
495.76	2283.49
495.96	2136.03
496.16	2119.65
496.36	2410.46
496.56	2226.14
496.77	2322.40
496.97	2160.61
497.17	2400.22
497.37	2037.73
497.57	2217.95
497.77	2236.38
497.97	2074.59
498.17	2189.28
498.37	2179.04
498.57	2211.81
498.77	2193.37
498.97	2256.86
499.17	2367.45
499.38	2306.01
499.58	2301.92
499.78	2308.06
499.98	2295.77
500.18	2174.94
500.38	2172.89
500.58	2387.93
500.78	2881.49
500.98	5261.23
501.18	7241.62
501.38	9058.17
501.58	9805.67
501.78	9707.37
501.98	7688.07
502.18	6524.83
502.38	5539.76
502.58	5218.22
502.78	4632.51
502.98	4478.91
503.18	4284.35
503.38	3852.23
503.59	3528.65
503.79	3203.02
503.99	3043.28
504.19	2818.00
504.39	2809.81
504.59	2846.68
504.79	2865.11
504.99	2766.81
505.19	2555.86
505.39	2574.30
505.59	2523.10
505.79	2605.02
505.99	2428.89
506.19	2332.64
506.39	2408.41
506.59	2318.30
506.79	2254.81
506.99	2359.26
507.19	2236.38
507.39	2215.90
507.59	2068.45
507.79	2146.27
507.99	2195.42
508.19	2232.29
508.39	2166.75
508.59	2162.66
508.79	2332.64
508.99	2392.03
509.19	2119.65
509.39	2301.92
509.59	2076.64
509.79	2179.04
509.99	2172.89
510.19	2265.05
510.39	2267.10
510.59	2166.75
510.79	2152.42
510.99	2133.98
511.19	2133.98
511.39	2291.68
511.59	2269.15
511.79	2322.40
511.99	2312.16
512.19	2375.64
512.38	2160.61
512.58	2176.99
512.78	2222.05
512.98	2256.86
513.18	2265.05
513.38	2127.84
513.58	2338.78
513.78	2207.71
513.98	2185.18
514.18	2236.38
514.38	2127.84
514.58	2334.68
514.78	2060.26
514.98	2148.32
515.18	2203.61
515.38	2086.88
515.58	2400.22
515.78	2203.61
515.98	2246.62
516.18	2250.72
516.38	2183.13
516.57	2209.76
516.77	2138.08
516.97	2248.67
517.17	2150.37
517.37	2039.78
517.57	2281.44
517.77	2146.27
517.97	2185.18
518.17	2328.54
518.37	2121.70
518.57	2093.02
518.77	2256.86
518.97	2195.42
519.16	2269.15
519.36	2355.16
519.56	2152.42
519.76	2164.70
519.96	2197.47
520.16	2389.98
520.36	2170.85
520.56	2318.30
520.76	2138.08
520.96	2127.84
521.16	2344.92
521.35	2392.03
521.55	2332.64
521.75	2263.01
521.95	2115.55
522.15	2105.31
522.35	2158.56
522.55	2160.61
522.75	2426.84
522.95	2154.46
523.14	2189.28
523.34	2236.38
523.54	2084.83
523.74	2355.16
523.94	2238.43
524.14	2105.31
524.34	2271.20
524.54	2289.63
524.73	2170.85
524.93	2265.05
525.13	2166.75
525.33	2115.55
525.53	2432.99
525.73	2205.66
525.93	2217.95
526.13	2101.22
526.32	2187.23
526.52	2260.96
526.72	2275.29
526.92	2154.46
527.12	2133.98
527.32	2056.16
527.52	2287.58
527.71	2283.49
527.91	2197.47
528.11	2158.56
528.31	2187.23
528.51	2164.70
528.71	2291.68
528.90	2318.30
529.10	2316.25
529.30	2301.92
529.50	1990.63
529.70	2228.19
529.90	2187.23
530.09	2265.05
530.29	2189.28
530.49	2129.89
530.69	2471.90
530.89	2273.25
531.09	2271.20
531.28	2193.37
531.48	2359.26
531.68	2228.19
531.88	2160.61
532.08	2217.95
532.28	2248.67
532.47	2277.34
532.67	2277.34
532.87	2250.72
533.07	2228.19
533.27	2283.49
533.46	2285.53
533.66	2164.70
533.86	2269.15
534.06	2205.66
534.26	2242.53
534.45	2156.51
534.65	2281.44
534.85	2301.92
535.05	2230.24
535.25	2324.44
535.44	2056.16
535.64	2217.95
535.84	2211.81
536.04	2232.29
536.24	2179.04
536.43	2172.89
536.63	2228.19
536.83	2185.18
537.03	2174.94
537.22	2009.06
537.42	2076.64
537.62	2158.56
537.82	2127.84
538.02	2316.25
538.21	2318.30
538.41	2473.95
538.61	2285.53
538.81	2211.81
539.00	2375.64
539.20	2031.58
539.40	2277.34
539.60	2224.09
539.79	2258.91
539.99	2148.32
540.19	2152.42
540.39	2156.51
540.58	2191.33
540.78	2332.64
540.98	2236.38
541.18	2330.59
541.37	2260.96
541.57	2217.95
541.77	2248.67
541.97	2070.50
542.16	2045.92
542.36	2119.65
542.56	2138.08
542.76	2375.64
542.95	2195.42
543.15	2250.72
543.35	2275.29
543.54	2121.70
543.74	2121.70
543.94	2306.01
544.14	2162.66
544.33	2244.57
544.53	2201.57
544.73	2203.61
544.93	2203.61
545.12	2228.19
545.32	2224.09
545.52	2195.42
545.71	2101.22
545.91	2117.60
546.11	2242.53
546.30	2109.41
546.50	2205.66
546.70	2285.53
546.90	2246.62
547.09	2072.54
547.29	2222.05
547.49	2240.48
547.68	2258.91
547.88	2119.65
548.08	2205.66
548.27	2740.18
548.47	2113.50
548.67	2164.70
548.87	2310.11
549.06	2211.81
549.26	2176.99
549.46	2236.38
549.65	2090.98
549.85	2332.64
550.05	2277.34
550.24	2146.27
550.44	2271.20
550.64	2213.85
550.83	2199.52
551.03	2256.86
551.23	2357.21
551.42	2260.96
551.62	2191.33
551.82	2146.27
552.01	2170.85
552.21	2338.78
552.41	2189.28
552.60	2344.92
552.80	2158.56
553.00	2125.79
553.19	2215.90
553.39	2361.31
553.59	2037.73
553.78	2213.85
553.98	2150.37
554.17	2076.64
554.37	2211.81
554.57	2211.81
554.76	2111.46
554.96	2121.70
555.16	2252.77
555.35	2291.68
555.55	2228.19
555.75	2256.86
555.94	2254.81
556.14	2113.50
556.33	2211.81
556.53	2160.61
556.73	2256.86
556.92	2224.09
557.12	2338.78
557.32	2361.31
557.51	2404.32
557.71	2252.77
557.90	2437.08
558.10	2392.03
558.30	2185.18
558.49	2127.84
558.69	2215.90
558.88	2250.72
559.08	2195.42
559.28	2119.65
559.47	2254.81
559.67	2248.67
559.86	2355.16
560.06	2228.19
560.26	2226.14
560.45	2215.90
560.65	2232.29
560.84	2318.30
561.04	2131.94
561.24	2277.34
561.43	2113.50
561.63	2332.64
561.82	2273.25
562.02	2318.30
562.22	2097.12
562.41	2070.50
562.61	2164.70
562.80	2164.70
563.00	2387.93
563.19	2234.33
563.39	2197.47
563.59	2220.00
563.78	2129.89
563.98	2062.30
564.17	2168.80
564.37	2007.01
564.56	2240.48
564.76	2027.49
564.96	2310.11
565.15	2260.96
565.35	2439.13
565.54	2195.42
565.74	2306.01
565.93	2215.90
566.13	2146.27
566.32	2316.25
566.52	2260.96
566.71	2291.68
566.91	2287.58
567.11	2234.33
567.30	2103.26
567.50	2299.87
567.69	2252.77
567.89	2265.05
568.08	2156.51
568.28	2306.01
568.47	2162.66
568.67	2289.63
568.86	2166.75
569.06	2275.29
569.25	2211.81
569.45	2146.27
569.64	2150.37
569.84	2183.13
570.04	2281.44
570.23	2144.22
570.43	2170.85
570.62	2205.66
570.82	2369.50
571.01	2144.22
571.21	2211.81
571.40	2117.60
571.60	2283.49
571.79	2236.38
571.99	2183.13
572.18	2205.66
572.38	2265.05
572.57	2160.61
572.77	2181.09
572.96	2465.75
573.16	2342.88
573.35	2207.71
573.55	2363.36
573.74	2285.53
573.94	2176.99
574.13	2209.76
574.33	2285.53
574.52	2340.83
574.71	2191.33
574.91	2220.00
575.10	2105.31
575.30	2209.76
575.49	2062.30
575.69	2228.19
575.88	2230.24
576.08	2285.53
576.27	2349.02
576.47	2217.95
576.66	2416.60
576.86	2463.71
577.05	2275.29
577.25	2238.43
577.44	2482.14
577.64	2205.66
577.83	2330.59
578.02	2217.95
578.22	2324.44
578.41	2408.41
578.61	2185.18
578.80	2052.06
579.00	2222.05
579.19	2217.95
579.39	2242.53
579.58	2263.01
579.77	2236.38
579.97	2357.21
580.16	2369.50
580.36	2375.64
580.55	2375.64
580.75	2250.72
580.94	2265.05
581.13	2357.21
581.33	2428.89
581.52	2195.42
581.72	2406.36
581.91	2400.22
582.11	2244.57
582.30	2291.68
582.49	2310.11
582.69	2383.84
582.88	2301.92
583.08	2195.42
583.27	2297.82
583.47	2236.38
583.66	2252.77
583.85	2113.50
584.05	2234.33
584.24	2236.38
584.44	2293.72
584.63	2373.60
584.82	2420.70
585.02	2375.64
585.21	2287.58
585.41	2379.74
585.60	2279.39
585.79	2539.48
585.99	2453.47
586.18	2349.02
586.37	2873.30
586.57	4411.32
586.76	13160.25
586.96	32202.26
587.15	45974.85
587.34	55096.50
587.54	60564.58
587.73	55884.97
587.93	39015.85
588.12	29711.93
588.31	23621.27
588.51	21106.37
588.70	18988.77
588.89	17174.27
589.09	14808.86
589.28	12828.48
589.47	10590.05
589.67	8286.08
589.86	6285.22
590.06	4769.72
590.25	3889.09
590.44	3162.06
590.64	2836.44
590.83	2627.54
591.02	2557.91
591.22	2287.58
591.41	2338.78
591.60	2299.87
591.80	2498.52
591.99	2224.09
592.18	2234.33
592.38	2273.25
592.57	2191.33
592.76	2236.38
592.96	2303.96
593.15	2207.71
593.34	2322.40
593.54	2183.13
593.73	2287.58
593.92	2248.67
594.12	2306.01
594.31	2256.86
594.50	2359.26
594.70	2355.16
594.89	2473.95
595.08	2199.52
595.28	2322.40
595.47	2572.25
595.66	2312.16
595.86	2179.04
596.05	2170.85
596.24	2195.42
596.43	2371.55
596.63	2271.20
596.82	2236.38
597.01	2385.88
597.21	2461.66
597.40	2355.16
597.59	2289.63
597.79	2281.44
597.98	2289.63
598.17	2240.48
598.36	2226.14
598.56	2371.55
598.75	2197.47
598.94	2232.29
599.14	2248.67
599.33	2199.52
599.52	2301.92
599.71	2250.72
599.91	2308.06
600.10	2285.53
600.29	2232.29
600.48	2357.21
600.68	2222.05
600.87	2277.34
601.06	2197.47
601.26	2267.10
601.45	2211.81
601.64	2164.70
601.83	2379.74
602.03	2203.61
602.22	2127.84
602.41	2334.68
602.60	2504.67
602.80	2279.39
602.99	2267.10
603.18	2217.95
603.37	2183.13
603.57	2203.61
603.76	2281.44
603.95	2396.12
604.14	2111.46
604.34	2131.94
604.53	2236.38
604.72	2201.57
604.91	2344.92
605.10	2244.57
605.30	2125.79
605.49	2404.32
605.68	2254.81
605.87	2191.33
606.07	2140.13
606.26	2217.95
606.45	2265.05
606.64	2248.67
606.84	2174.94
607.03	2279.39
607.22	2357.21
607.41	2193.37
607.60	2168.80
607.80	2318.30
607.99	2138.08
608.18	2195.42
608.37	2222.05
608.56	2125.79
608.76	2426.84
608.95	2357.21
609.14	2267.10
609.33	2316.25
609.52	2494.43
609.72	2453.47
609.91	2377.69
610.10	2240.48
610.29	2418.65
610.48	2295.77
610.68	2248.67
610.87	2127.84
611.06	2244.57
611.25	2234.33
611.44	2396.12
611.63	2226.14
611.83	2312.16
612.02	2125.79
612.21	2301.92
612.40	2080.74
612.59	2056.16
612.79	2160.61
612.98	2162.66
613.17	2334.68
613.36	2211.81
613.55	2346.97
613.74	2326.49
613.93	2359.26
614.13	2455.51
614.32	2557.91
614.51	2392.03
614.70	2330.59
614.89	2314.20
615.08	2373.60
615.28	2744.28
615.47	2224.09
615.66	2379.74
615.85	2338.78
616.04	2392.03
616.23	2349.02
616.42	2308.06
616.62	2351.07
616.81	2215.90
617.00	2301.92
617.19	2295.77
617.38	2197.47
617.57	2271.20
617.76	2332.64
617.95	2283.49
618.15	2228.19
618.34	2342.88
618.53	2076.64
618.72	2246.62
618.91	2328.54
619.10	2320.35
619.29	2244.57
619.48	2185.18
619.68	2170.85
619.87	2213.85
620.06	2121.70
620.25	2258.91
620.44	2080.74
620.63	2228.19
620.82	2269.15
621.01	2226.14
621.20	2183.13
621.39	2273.25
621.59	2228.19
621.78	2320.35
621.97	2297.82
622.16	2326.49
622.35	2277.34
622.54	2322.40
622.73	2303.96
622.92	2127.84
623.11	2310.11
623.30	2166.75
623.49	2318.30
623.68	2228.19
623.88	2299.87
624.07	2232.29
624.26	2228.19
624.45	2299.87
624.64	2248.67
624.83	2201.57
625.02	2129.89
625.21	2197.47
625.40	2322.40
625.59	2373.60
625.78	2228.19
625.97	2389.98
626.16	2303.96
626.35	2269.15
626.54	2209.76
626.74	2392.03
626.93	2267.10
627.12	2127.84
627.31	2310.11
627.50	2277.34
627.69	2324.44
627.88	2187.23
628.07	2144.22
628.26	2113.50
628.45	2150.37
628.64	2179.04
628.83	2154.46
629.02	2146.27
629.21	2291.68
629.40	2213.85
629.59	2097.12
629.78	2209.76
629.97	2254.81
630.16	2252.77
630.35	2258.91
630.54	2258.91
630.73	2176.99
630.92	2299.87
631.11	2183.13
631.30	2224.09
631.49	2359.26
631.68	2265.05
631.87	2271.20
632.06	2086.88
632.25	2428.89
632.44	2199.52
632.63	2314.20
632.82	2283.49
633.01	2228.19
633.20	2330.59
633.39	2301.92
633.58	2133.98
633.77	2250.72
633.96	2314.20
634.15	2314.20
634.34	2375.64
634.53	2250.72
634.72	2109.41
634.91	2105.31
635.10	2172.89
635.29	2330.59
635.48	2318.30
635.67	2160.61
635.86	2127.84
636.05	2346.97
636.24	2203.61
636.43	2244.57
636.62	2217.95
636.81	1966.05
637.00	2267.10
637.19	2195.42
637.38	2187.23
637.57	2142.18
637.76	2308.06
637.95	2318.30
638.14	2291.68
638.33	2316.25
638.52	2351.07
638.71	2117.60
638.89	2129.89
639.08	2400.22
639.27	2338.78
639.46	2457.56
639.65	2842.58
639.84	2914.26
640.03	3121.10
640.22	2981.84
640.41	2961.36
640.60	2545.63
640.79	2576.34
640.98	2408.41
641.17	2512.86
641.36	2473.95
641.55	2531.29
641.74	2215.90
641.92	2191.33
642.11	2207.71
642.30	2156.51
642.49	2156.51
642.68	2174.94
642.87	2230.24
643.06	2271.20
643.25	2117.60
643.44	2146.27
643.63	2217.95
643.82	2248.67
644.00	2179.04
644.19	2199.52
644.38	2023.39
644.57	2226.14
644.76	2236.38
644.95	2226.14
645.14	2207.71
645.33	2228.19
645.52	2211.81
645.71	2160.61
645.89	2125.79
646.08	2275.29
646.27	2150.37
646.46	2422.75
646.65	2111.46
646.84	2228.19
647.03	2150.37
647.22	2328.54
647.40	2217.95
647.59	2201.57
647.78	2111.46
647.97	2097.12
648.16	2113.50
648.35	2349.02
648.54	2316.25
648.73	2172.89
648.91	2267.10
649.10	2226.14
649.29	2109.41
649.48	2154.46
649.67	2205.66
649.86	2220.00
650.05	2308.06
650.23	2416.60
650.42	2318.30
650.61	2432.99
650.80	2381.79
650.99	2555.86
651.18	2349.02
651.36	2414.56
651.55	2209.76
651.74	2303.96
651.93	2246.62
652.12	2191.33
652.31	2217.95
652.49	2205.66
652.68	2242.53
652.87	2473.95
653.06	2318.30
653.25	2392.03
653.44	2297.82
653.62	2342.88
653.81	2146.27
654.00	2197.47
654.19	2260.96
654.38	2523.10
654.56	2195.42
654.75	2166.75
654.94	2332.64
655.13	2224.09
655.32	2230.24
655.51	2279.39
655.69	2142.18
655.88	2236.38
656.07	2072.54
656.26	2258.91
656.45	1992.67
656.63	2256.86
656.82	2267.10
657.01	2314.20
657.20	2174.94
657.38	2269.15
657.57	2252.77
657.76	2068.45
657.95	2299.87
658.14	2265.05
658.32	2201.57
658.51	2111.46
658.70	2275.29
658.89	2242.53
659.08	2254.81
659.26	2346.97
659.45	2121.70
659.64	2295.77
659.83	2213.85
660.01	2584.54
660.20	2275.29
660.39	2387.93
660.58	2056.16
660.76	2260.96
660.95	2078.69
661.14	2187.23
661.33	2131.94
661.51	2140.13
661.70	2193.37
661.89	2308.06
662.08	2152.42
662.26	2103.26
662.45	2117.60
662.64	2437.08
662.83	2222.05
663.01	2138.08
663.20	2129.89
663.39	2346.97
663.58	2144.22
663.76	2213.85
663.95	2285.53
664.14	2158.56
664.32	2119.65
664.51	2099.17
664.70	1968.10
664.89	2152.42
665.07	2064.35
665.26	2322.40
665.45	2111.46
665.64	2215.90
665.82	2174.94
666.01	2318.30
666.20	2125.79
666.38	2269.15
666.57	2383.84
666.76	3313.61
666.95	8265.60
667.13	16307.98
667.32	21864.11
667.51	25251.45
667.69	27432.54
667.88	25390.72
668.07	18175.72
668.25	14346.02
668.44	11933.51
668.63	10272.61
668.81	8939.38
669.00	7888.78
669.19	7004.05
669.38	6127.52
669.56	5240.75
669.75	4341.69
669.94	3651.53
670.12	3149.78
670.31	2822.10
670.50	2531.29
670.68	2373.60
670.87	2326.49
671.06	2392.03
671.24	2228.19
671.43	2410.46
671.62	2281.44
671.80	2205.66
671.99	2220.00
672.18	2295.77
672.36	2332.64
672.55	2195.42
672.74	2246.62
672.92	2256.86
673.11	2232.29
673.29	2056.16
673.48	2236.38
673.67	2103.26
673.85	2322.40
674.04	2140.13
674.23	2176.99
674.41	2330.59
674.60	2109.41
674.79	2015.20
674.97	2127.84
675.16	2199.52
675.34	2312.16
675.53	2101.22
675.72	2230.24
675.90	2338.78
676.09	2179.04
676.28	2154.46
676.46	2060.26
676.65	2260.96
676.83	2086.88
677.02	2193.37
677.21	2246.62
677.39	2166.75
677.58	2131.94
677.77	2080.74
677.95	2201.57
678.14	2154.46
678.32	2129.89
678.51	2146.27
678.70	2330.59
678.88	2211.81
679.07	2199.52
679.25	2191.33
679.44	2125.79
679.63	2107.36
679.81	2301.92
680.00	2326.49
680.18	2260.96
680.37	2295.77
680.55	2170.85
680.74	2080.74
680.93	2070.50
681.11	2269.15
681.30	2318.30
681.48	2232.29
681.67	2123.74
681.85	2179.04
682.04	2099.17
682.23	2324.44
682.41	2246.62
682.60	2166.75
682.78	2209.76
682.97	2037.73
683.15	2242.53
683.34	2170.85
683.53	2338.78
683.71	2148.32
683.90	2215.90
684.08	2301.92
684.27	2211.81
684.45	2179.04
684.64	2293.72
684.82	2205.66
685.01	2228.19
685.19	2217.95
685.38	2396.12
685.57	2215.90
685.75	2117.60
685.94	2133.98
686.12	2220.00
686.31	2146.27
686.49	2363.36
686.68	2019.30
686.86	2123.74
687.05	2193.37
687.23	2287.58
687.42	2168.80
687.60	2099.17
687.79	2312.16
687.97	2312.16
688.16	2355.16
688.34	2338.78
688.53	2002.91
688.71	2277.34
688.90	2269.15
689.08	2160.61
689.27	2074.59
689.45	2285.53
689.64	2246.62
689.82	2265.05
690.01	2217.95
690.19	2205.66
690.38	2254.81
690.56	2281.44
690.75	2136.03
690.93	2162.66
691.12	2152.42
691.30	2176.99
691.49	2179.04
691.67	2148.32
691.86	2371.55
692.04	2174.94
692.23	2162.66
692.41	2254.81
692.60	2553.82
692.78	2400.22
692.97	2334.68
693.15	2363.36
693.34	2428.89
693.52	2287.58
693.71	2172.89
693.89	2254.81
694.08	2109.41
694.26	2248.67
694.44	2316.25
694.63	2342.88
694.81	2168.80
695.00	2181.09
695.18	2283.49
695.37	2400.22
695.55	2256.86
695.74	2232.29
695.92	2138.08
696.10	2275.29
696.29	2090.98
696.47	2082.78
696.66	2082.78
696.84	2115.55
697.03	2301.92
697.21	2396.12
697.40	3241.93
697.58	2301.92
697.76	2154.46
697.95	2146.27
698.13	2025.44
698.32	2152.42
698.50	2209.76
698.68	2289.63
698.87	2279.39
699.05	2322.40
699.24	2183.13
699.42	2093.02
699.61	2183.13
699.79	2246.62
699.97	2174.94
700.16	2133.98
700.34	2154.46
700.53	2269.15
700.71	2377.69
700.89	2248.67
701.08	2199.52
701.26	2191.33
701.45	2711.51
701.63	2107.36
701.81	2133.98
702.00	2148.32
702.18	2258.91
702.37	2176.99
702.55	2463.71
702.73	2412.51
702.92	2293.72
703.10	2588.63
703.28	2504.67
703.47	2355.16
703.65	2322.40
703.84	2392.03
704.02	2242.53
704.20	2463.71
704.39	2269.15
704.57	2269.15
704.75	2283.49
704.94	2230.24
705.12	2375.64
705.30	2539.48
705.49	4505.53
705.67	10866.52
705.86	19881.68
706.04	24229.52
706.22	27637.34
706.41	29187.65
706.59	24952.45
706.77	17698.55
706.96	14427.94
707.14	12721.98
707.32	11003.74
707.51	9666.41
707.69	8112.00
707.87	6395.81
708.06	5148.59
708.24	4104.13
708.42	3213.26
708.61	3076.05
708.79	2482.14
708.97	2406.36
709.16	2375.64
709.34	2306.01
709.52	2193.37
709.71	2189.28
709.89	2285.53
710.07	2201.57
710.26	2152.42
710.44	2220.00
710.62	2285.53
710.80	2158.56
710.99	2269.15
711.17	2238.43
711.35	2236.38
711.54	2156.51
711.72	2324.44
711.90	2326.49
712.09	2197.47
712.27	2084.83
712.45	2230.24
712.63	2187.23
712.82	2217.95
713.00	2154.46
713.18	2256.86
713.37	2287.58
713.55	2371.55
713.73	2248.67
713.91	2295.77
714.10	2138.08
714.28	2117.60
714.46	2281.44
714.65	2230.24
714.83	2244.57
715.01	2244.57
715.19	2236.38
715.38	2045.92
715.56	2220.00
715.74	2113.50
715.92	2146.27
716.11	2359.26
716.29	2004.96
716.47	2203.61
716.65	2154.46
716.84	2004.96
717.02	2299.87
717.20	2068.45
717.38	2105.31
717.57	2293.72
717.75	2256.86
717.93	2138.08
718.11	2258.91
718.30	2093.02
718.48	2240.48
718.66	2334.68
718.84	2349.02
719.03	2205.66
719.21	2097.12
719.39	2387.93
719.57	2254.81
719.75	2256.86
719.94	2105.31
720.12	2185.18
720.30	2181.09
720.48	2293.72
720.67	2086.88
720.85	2127.84
721.03	2129.89
721.21	2131.94
721.39	2328.54
721.58	2193.37
721.76	2174.94
721.94	2226.14
722.12	2191.33
722.30	2342.88
722.49	2168.80
722.67	2209.76
722.85	2254.81
723.03	2035.68
723.21	2154.46
723.40	2203.61
723.58	2297.82
723.76	2275.29
723.94	2420.70
724.12	2287.58
724.30	2365.40
724.49	2402.27
724.67	2142.18
724.85	2363.36
725.03	2017.25
725.21	2236.38
725.40	2351.07
725.58	2142.18
725.76	2328.54
725.94	2293.72
726.12	2072.54
726.30	2211.81
726.49	2211.81
726.67	2117.60
726.85	2301.92
727.03	2578.39
727.21	3676.10
727.39	5273.52
727.57	6307.74
727.76	7110.55
727.94	7649.16
728.12	7176.08
728.30	5789.61
728.48	5031.86
728.66	4528.06
728.84	4014.02
729.03	3438.54
729.21	3149.78
729.39	2832.34
729.57	2531.29
729.75	2475.99
729.93	2334.68
730.11	2150.37
730.30	2205.66
730.48	2217.95
730.66	2256.86
730.84	2310.11
731.02	2234.33
731.20	2152.42
731.38	2291.68
731.56	2111.46
731.74	2109.41
731.93	2263.01
732.11	2199.52
732.29	2185.18
732.47	2263.01
732.65	2197.47
732.83	2334.68
733.01	2234.33
733.19	2097.12
733.37	2191.33
733.56	2232.29
733.74	2158.56
733.92	2297.82
734.10	2131.94
734.28	2211.81
734.46	2023.39
734.64	2265.05
734.82	2101.22
735.00	2215.90
735.18	2113.50
735.36	2252.77
735.54	2207.71
735.73	2260.96
735.91	2181.09
736.09	2295.77
736.27	2203.61
736.45	2203.61
736.63	1976.29
736.81	2168.80
736.99	2336.73
737.17	2326.49
737.35	2185.18
737.53	2310.11
737.71	2170.85
737.89	2279.39
738.07	2217.95
738.25	2103.26
738.43	1970.15
738.61	2121.70
738.80	2088.93
738.98	2064.35
739.16	2201.57
739.34	2174.94
739.52	2320.35
739.70	2246.62
739.88	2308.06
740.06	2209.76
740.24	2013.15
740.42	2408.41
740.60	2133.98
740.78	2170.85
740.96	1970.15
741.14	2158.56
741.32	2226.14
741.50	2021.35
741.68	2318.30
741.86	2336.73
742.04	2078.69
742.22	2129.89
742.40	2211.81
742.58	2252.77
742.76	2133.98
742.94	2197.47
743.12	2033.63
743.30	2291.68
743.48	2193.37
743.66	2070.50
743.84	2244.57
744.02	2136.03
744.20	2131.94
744.38	2131.94
744.56	2152.42
744.74	2404.32
744.92	2285.53
745.10	2330.59
745.28	2201.57
745.46	2318.30
745.64	2220.00
745.82	2228.19
746.00	2246.62
746.18	2240.48
746.36	2103.26
746.54	2273.25
746.72	2185.18
746.90	2062.30
747.08	2250.72
747.26	2154.46
747.44	2375.64
747.62	2260.96
747.80	2273.25
747.98	2220.00
748.15	2146.27
748.33	2365.40
748.51	2222.05
748.69	2289.63
748.87	2174.94
749.05	2228.19
749.23	2224.09
749.41	2263.01
749.59	2168.80
749.77	2232.29
749.95	2164.70
750.13	2146.27
750.31	2240.48
750.49	2146.27
750.67	2301.92
750.85	2318.30
751.03	2193.37
751.20	2377.69
751.38	2240.48
751.56	2142.18
751.74	2176.99
751.92	2148.32
752.10	2179.04
752.28	2334.68
752.46	2080.74
752.64	2103.26
752.82	2238.43
753.00	2263.01
753.18	2125.79
753.35	2222.05
753.53	2244.57
753.71	2152.42
753.89	2240.48
754.07	2152.42
754.25	2252.77
754.43	2195.42
754.61	2107.36
754.79	2209.76
754.97	2236.38
755.14	2228.19
755.32	2109.41
755.50	2230.24
755.68	2293.72
755.86	2101.22
756.04	2105.31
756.22	2007.01
756.40	2269.15
756.57	2363.36
756.75	2187.23
756.93	2406.36
757.11	2242.53
757.29	2156.51
757.47	2035.68
757.65	2146.27
757.82	1961.95
758.00	2093.02
758.18	2105.31
758.36	2097.12
758.54	2392.03
758.72	2066.40
758.90	2324.44
759.07	2195.42
759.25	2133.98
759.43	2277.34
759.61	2160.61
759.79	3063.76
759.97	2289.63
760.15	2129.89
760.32	2172.89
760.50	2244.57
760.68	2373.60
760.86	2097.12
761.04	2265.05
761.22	2312.16
761.39	2242.53
761.57	2240.48
761.75	2228.19
761.93	2254.81
762.11	2146.27
762.28	2152.42
762.46	2193.37
762.64	2269.15
762.82	2082.78
763.00	2203.61
763.18	2363.36
763.35	2105.31
763.53	2258.91
763.71	2154.46
763.89	2250.72
764.07	2224.09
764.24	2211.81
764.42	2240.48
764.60	2078.69
764.78	2277.34
764.96	2273.25
765.13	2236.38
765.31	2181.09
765.49	2215.90
765.67	2060.26
765.84	2095.07
766.02	2152.42
766.20	2050.02
766.38	2242.53
766.56	2269.15
766.73	2297.82
766.91	2160.61
767.09	2217.95
767.27	2258.91
767.44	2109.41
767.62	2244.57
767.80	2193.37
767.98	2179.04
768.15	2119.65
768.33	2207.71
768.51	2301.92
768.69	2228.19
768.87	2187.23
769.04	2330.59
769.22	2342.88
769.40	2363.36
769.58	2416.60
769.75	2240.48
769.93	2353.12
770.11	2129.89
770.28	2113.50
770.46	2281.44
770.64	2238.43
770.82	2121.70
770.99	2176.99
771.17	2238.43
771.35	2164.70
771.53	2097.12
771.70	2101.22
771.88	2220.00
772.06	2129.89
772.23	2140.13
772.41	2228.19
772.59	2138.08
772.77	2068.45
772.94	2056.16
773.12	2269.15
773.30	2238.43
773.47	2203.61
773.65	2131.94
773.83	2326.49
774.01	2183.13
774.18	1955.81
774.36	2203.61
774.54	2060.26
774.71	2144.22
774.89	2058.21
775.07	2072.54
775.24	2115.55
775.42	2160.61
775.60	2330.59
775.78	2146.27
775.95	2107.36
776.13	2078.69
776.31	2080.74
776.48	2179.04
776.66	2267.10
776.84	2166.75
777.01	2121.70
777.19	2076.64
777.37	2086.88
777.54	2213.85
777.72	2385.88
777.90	2201.57
778.07	2154.46
778.25	2523.10
778.43	2211.81
778.60	2070.50
778.78	2312.16
778.96	2328.54
779.13	2072.54
779.31	2273.25
779.49	2181.09
779.66	2160.61
779.84	2181.09
780.01	2193.37
780.19	2156.51
780.37	2301.92
780.54	2222.05
780.72	2082.78
780.90	2176.99
781.07	2138.08
781.25	2099.17
781.43	2254.81
781.60	2125.79
781.78	2232.29
781.95	2209.76
782.13	2121.70
782.31	2154.46
782.48	1998.82
782.66	2164.70
782.83	2381.79
783.01	2148.32
783.19	2277.34
783.36	2158.56
783.54	2136.03
783.72	2281.44
783.89	2070.50
784.07	2273.25
784.24	2191.33
784.42	2355.16
784.60	2185.18
784.77	2271.20
784.95	2050.02
785.12	2150.37
785.30	2252.77
785.47	2066.40
785.65	2070.50
785.83	2263.01
786.00	2156.51
786.18	2195.42
786.35	2117.60
786.53	2084.83
786.71	2162.66
786.88	2277.34
787.06	2228.19
787.23	2074.59
787.41	2060.26
787.58	2150.37
787.76	2072.54
787.94	2150.37
788.11	2254.81
788.29	2013.15
788.46	2117.60
788.64	2068.45
788.81	2220.00
788.99	2179.04
789.16	2136.03
789.34	2154.46
789.52	2170.85
789.69	2136.03
789.87	2035.68
790.04	2080.74
790.22	2185.18
790.39	2344.92
790.57	2013.15
790.74	2121.70
790.92	2236.38
791.09	2031.58
791.27	2158.56
791.44	2367.45
791.62	2101.22
791.79	2287.58
791.97	2217.95
792.15	2389.98
792.32	2291.68
792.50	2334.68
792.67	2283.49
792.85	2349.02
793.02	2211.81
793.20	2162.66
793.37	2080.74
793.55	2093.02
793.72	2113.50
793.90	2250.72
794.07	2101.22
794.25	2041.82
794.42	2285.53
794.60	2174.94
794.77	2187.23
794.95	2271.20
795.12	2281.44
795.30	2213.85
795.47	1984.48
795.65	2430.94
795.82	2197.47
796.00	2119.65
796.17	2185.18
796.34	2121.70
796.52	2211.81
796.69	2232.29
796.87	2351.07
797.04	2248.67
797.22	2252.77
797.39	2205.66
797.57	2342.88
797.74	2224.09
797.92	2166.75
798.09	2154.46
798.27	2293.72
798.44	2164.70
798.62	2123.74
798.79	2207.71
798.96	2234.33
799.14	2142.18
799.31	2435.03
799.49	2160.61
799.66	2142.18
799.84	2109.41
800.01	2056.16
800.19	2242.53
800.36	1951.71
800.53	2191.33
800.71	2260.96
800.88	2375.64
801.06	2150.37
801.23	2148.32
801.41	2127.84
801.58	2174.94
801.75	2142.18
801.93	2168.80
802.10	2234.33
802.28	2164.70
802.45	2103.26
802.63	2162.66
802.80	2346.97
802.97	2080.74
803.15	2170.85
803.32	2197.47
803.50	2127.84
803.67	2166.75
803.84	2093.02
804.02	2193.37
804.19	2236.38
804.37	2047.97
804.54	2168.80
804.71	2078.69
804.89	2211.81
805.06	2129.89
805.24	2033.63
805.41	2064.35
805.58	2086.88
805.76	2387.93
805.93	2185.18
806.10	2269.15
806.28	2160.61
806.45	2203.61
806.63	2183.13
806.80	2174.94
806.97	2236.38
807.15	2183.13
807.32	2207.71
807.49	2133.98
807.67	2047.97
807.84	2224.09
808.01	2013.15
808.19	2377.69
808.36	2385.88
808.54	2162.66
808.71	2129.89
808.88	2203.61
809.06	2306.01
809.23	2351.07
809.40	2144.22
809.58	2295.77
809.75	2144.22
809.92	2107.36
810.10	2480.09
810.27	2166.75
810.44	2236.38
810.62	2232.29
810.79	2207.71
810.96	2117.60
811.14	2234.33
811.31	2273.25
811.48	2246.62
811.66	2174.94
811.83	2283.49
812.00	2250.72
812.18	2195.42
812.35	2346.97
812.52	2113.50
812.69	2111.46
812.87	2105.31
813.04	2162.66
813.21	2197.47
813.39	2187.23
813.56	2068.45
813.73	2209.76
813.91	2144.22
814.08	2209.76
814.25	2211.81
814.42	2062.30
814.60	2097.12
814.77	2156.51
814.94	2220.00
815.12	2230.24
815.29	2295.77
815.46	2099.17
815.63	2279.39
815.81	2162.66
815.98	2168.80
816.15	2158.56
816.33	2152.42
816.50	2166.75
816.67	2199.52
816.84	2172.89
817.02	2133.98
817.19	2162.66
817.36	2287.58
817.53	2287.58
817.71	2232.29
817.88	2252.77
818.05	2193.37
818.22	2107.36
818.40	2338.78
818.57	2138.08
818.74	2297.82
818.91	2207.71
819.09	2187.23
819.26	2248.67
819.43	2119.65
819.60	2142.18
819.78	2213.85
819.95	2228.19
820.12	2076.64
820.29	2334.68
820.47	2275.29
820.64	2099.17
820.81	2039.78
820.98	2127.84
821.15	2244.57
821.33	2238.43
821.50	2072.54
821.67	2277.34
821.84	2203.61
822.02	2191.33
822.19	2269.15
822.36	2154.46
822.53	2154.46
822.70	2050.02
822.88	2113.50
823.05	2344.92
823.22	2166.75
823.39	2299.87
823.56	2224.09
823.74	2392.03
823.91	2144.22
824.08	2084.83
824.25	2105.31
824.42	2463.71
824.60	2027.49
824.77	2170.85
824.94	2185.18
825.11	2226.14
825.28	2039.78
825.45	2160.61
825.63	2162.66
825.80	2047.97
825.97	2168.80
826.14	2215.90
826.31	2011.11
826.48	2203.61
826.66	2179.04
826.83	2183.13
827.00	2185.18
827.17	2127.84
827.34	2179.04
827.51	2170.85
827.69	2211.81
827.86	2140.13
828.03	2150.37
828.20	2226.14
828.37	2242.53
828.54	2265.05
828.71	2140.13
828.89	2326.49
829.06	2222.05
829.23	2375.64
829.40	2203.61
829.57	2146.27
829.74	2260.96
829.91	2144.22
830.09	2105.31
830.26	2271.20
830.43	2303.96
830.60	2236.38
830.77	2291.68
830.94	2310.11
831.11	2242.53
831.28	2185.18
831.46	2351.07
831.63	2097.12
831.80	2279.39
831.97	2187.23
832.14	2117.60
832.31	2238.43
832.48	2146.27
832.65	2351.07
832.82	2242.53
832.99	2291.68
833.17	2113.50
833.34	2316.25
833.51	2269.15
833.68	2023.39
833.85	2291.68
834.02	2031.58
834.19	2166.75
834.36	2070.50
834.53	2199.52
834.70	2236.38
834.87	2195.42
835.04	2086.88
835.22	2035.68
835.39	2138.08
835.56	2146.27
835.73	2113.50
835.90	2211.81
836.07	2082.78
836.24	2234.33
836.41	2072.54
836.58	2056.16
836.75	2336.73
836.92	2179.04
837.09	2101.22
837.26	2236.38
837.43	2220.00
837.60	2207.71
837.77	2146.27
837.94	2242.53
838.12	2306.01
838.29	2228.19
838.46	2099.17
838.63	2068.45
838.80	2375.64
838.97	2195.42
839.14	2140.13
839.31	2236.38
839.48	2203.61
839.65	2015.20
839.82	2205.66
839.99	2201.57
840.16	2248.67
840.33	2160.61
840.50	2127.84
840.67	2195.42
840.84	1959.91
841.01	2158.56
841.18	2068.45
841.35	2131.94
841.52	2230.24
841.69	2346.97
841.86	2193.37
842.03	2154.46
842.20	2269.15
842.37	2209.76
842.54	2111.46
842.71	2093.02
842.88	1970.15
843.05	2215.90
843.22	2097.12
843.39	2308.06
843.56	2148.32
843.73	2117.60
843.90	2144.22
844.07	2185.18
844.24	2265.05
844.41	2322.40
844.58	2101.22
844.75	2205.66
844.92	2187.23
845.09	2187.23
845.26	2099.17
845.43	2228.19
845.60	2195.42
845.77	2201.57
845.94	2228.19
846.10	2265.05
846.27	2011.11
846.44	2037.73
846.61	2123.74
846.78	2224.09
846.95	2256.86
847.12	2113.50
847.29	2166.75
847.46	2172.89
847.63	2211.81
847.80	2076.64
847.97	2144.22
848.14	2322.40
848.31	2105.31
848.48	2078.69
848.65	2191.33
848.82	2133.98
848.98	2418.65
849.15	2217.95
849.32	2244.57
849.49	2316.25
849.66	2125.79
849.83	2170.85
850.00	2121.70
850.17	2242.53
850.34	2166.75
850.51	2107.36
850.68	2111.46
850.85	2408.41
851.01	2185.18
851.18	2197.47
851.35	2111.46
851.52	2224.09
851.69	2281.44
851.86	2125.79
852.03	2084.83
852.20	2179.04
852.37	2179.04
852.53	2037.73
852.70	2160.61
852.87	2162.66
853.04	2228.19
853.21	2119.65
853.38	2226.14
853.55	2326.49
853.72	2322.40
853.89	2115.55
854.05	2131.94
854.22	2121.70
854.39	2179.04
854.56	2191.33
854.73	2248.67
854.90	2088.93
855.07	2129.89
855.23	2070.50
855.40	2166.75
855.57	2256.86
855.74	2021.35
855.91	2330.59
856.08	2086.88
856.25	2068.45
856.41	2142.18
856.58	2117.60
856.75	2150.37
856.92	2103.26
857.09	2291.68
857.26	2064.35
857.42	2158.56
857.59	2258.91
857.76	2183.13
857.93	2168.80
858.10	2146.27
858.27	2097.12
858.43	2226.14
858.60	2045.92
858.77	2035.68
858.94	2174.94
859.11	2320.35
859.27	2103.26
859.44	2150.37
859.61	2316.25
859.78	2277.34
859.95	2129.89
860.12	2060.26
860.28	2432.99
860.45	2375.64
860.62	2142.18
860.79	2183.13
860.95	2179.04
861.12	2078.69
861.29	2115.55
861.46	2101.22
861.63	2185.18
861.79	2119.65
861.96	2119.65
862.13	2105.31
862.30	2312.16
862.47	2088.93
862.63	2058.21
862.80	2244.57
862.97	2254.81
863.14	2265.05
863.30	2138.08
863.47	2133.98
863.64	2334.68
863.81	2197.47
863.97	1996.77
864.14	2189.28
864.31	2217.95
864.48	2199.52
864.65	2220.00
864.81	2283.49
864.98	2267.10
865.15	2250.72
865.32	2258.91
865.48	2211.81
865.65	2355.16
865.82	2156.51
865.98	2193.37
866.15	2170.85
866.32	2220.00
866.49	2133.98
866.65	2273.25
866.82	2072.54
866.99	2129.89
867.16	2095.07
867.32	2097.12
867.49	2043.87
867.66	2103.26
867.83	2117.60
867.99	2076.64
868.16	2158.56
868.33	2105.31
868.49	2193.37
868.66	2189.28
868.83	2226.14
868.99	2199.52
869.16	2209.76
869.33	2211.81
869.50	2127.84
869.66	2062.30
869.83	2113.50
870.00	1990.63
870.16	2263.01
870.33	2109.41
870.50	2344.92
870.66	2158.56
870.83	2224.09
871.00	2187.23
871.17	2189.28
871.33	2201.57
871.50	2121.70
871.67	2191.33
871.83	2105.31
872.00	2228.19
872.17	2185.18
872.33	2285.53
872.50	2281.44
872.67	2144.22
872.83	2086.88
873.00	2263.01
873.17	2230.24
873.33	2183.13
873.50	2160.61
873.67	2170.85
873.83	2064.35
874.00	2129.89
874.16	2228.19
874.33	2191.33
874.50	2129.89
874.66	2174.94
874.83	2144.22
875.00	2242.53
875.16	2326.49
875.33	2267.10
875.50	2000.87
875.66	2103.26
875.83	2201.57
875.99	2215.90
876.16	2097.12
876.33	2076.64
876.49	2105.31
876.66	2203.61
876.83	2164.70
876.99	2070.50
877.16	2150.37
877.32	2113.50
877.49	2158.56
877.66	2168.80
877.82	2283.49
877.99	2152.42
878.15	2285.53
878.32	2217.95
878.49	2203.61
878.65	2131.94
878.82	2285.53
878.98	2117.60
879.15	2324.44
879.32	2215.90
879.48	2267.10
879.65	2103.26
879.81	2095.07
879.98	2095.07
880.15	2097.12
880.31	2250.72
880.48	2170.85
880.64	2224.09
880.81	2191.33
880.97	2359.26
881.14	2336.73
881.31	2088.93
881.47	2355.16
881.64	2121.70
881.80	2058.21
881.97	2150.37
882.13	2265.05
882.30	2086.88
882.47	2133.98
882.63	2097.12
882.80	2105.31
882.96	2047.97
883.13	2332.64
883.29	2129.89
883.46	2174.94
883.62	2381.79
883.79	2215.90
883.95	2217.95
884.12	2152.42
884.29	2314.20
884.45	2191.33
884.62	2158.56
884.78	2119.65
884.95	2301.92
885.11	2140.13
885.28	2138.08
885.44	2174.94
885.61	2187.23
885.77	2297.82
885.94	2154.46
886.10	2183.13
886.27	2179.04
886.43	2312.16
886.60	2291.68
886.76	2111.46
886.93	2127.84
887.09	2189.28
887.26	2064.35
887.42	2150.37
887.59	2244.57
887.75	2392.03
887.92	2295.77
888.08	2236.38
888.25	2381.79
888.41	2312.16
888.58	2136.03
888.74	2054.11
888.91	2191.33
>>>>>End Processed Spectral Data<<<<<
