SpectraSuite Data File
++++++++++++++++++++++++++++++++++++
Date: Thu May 05 12:35:28 CEST 2016
User: root
Dark Spectrum Present: No
Reference Spectrum Present: No
Number of Sampled Component Spectra: 1
Spectrometers: USB4C02835
Integration Time (usec): 100000 (USB4C02835)
Spectra Averaged: 1 (USB4C02835)
Boxcar Smoothing: 0 (USB4C02835)
Correct for Electrical Dark: No (USB4C02835)
Strobe/Lamp Enabled: No (USB4C02835)
Correct for Detector Non-linearity: No (USB4C02835)
Correct for Stray Light: No (USB4C02835)
Number of Pixels in Processed Spectrum: 3648
>>>>>Begin Processed Spectral Data<<<<<
177.47	1740.77
177.69	1740.77
177.91	1740.77
178.13	1751.01
178.36	1740.77
178.58	2080.74
178.80	2244.57
179.02	2058.21
179.24	2133.98
179.46	2095.07
179.68	2213.85
179.90	2103.26
180.13	2240.48
180.35	2029.54
180.57	2183.13
180.79	2236.38
181.01	2176.99
181.23	2160.61
181.45	2121.70
181.67	2283.49
181.90	2217.95
182.12	2017.25
182.34	2078.69
182.56	2277.34
182.78	2226.14
183.00	2109.41
183.22	2045.92
183.44	2072.54
183.66	2398.17
183.89	2158.56
184.11	2095.07
184.33	2252.77
184.55	2332.64
184.77	2129.89
184.99	2150.37
185.21	2170.85
185.43	2416.60
185.65	2144.22
185.87	2127.84
186.10	2324.44
186.32	2373.60
186.54	2164.70
186.76	2250.72
186.98	2275.29
187.20	2162.66
187.42	2101.22
187.64	2117.60
187.86	2162.66
188.08	2349.02
188.30	2144.22
188.52	2105.31
188.75	2301.92
188.97	2291.68
189.19	2099.17
189.41	2111.46
189.63	2301.92
189.85	2160.61
190.07	2025.44
190.29	2011.11
190.51	2230.24
190.73	2101.22
190.95	2242.53
191.17	2138.08
191.39	2095.07
191.61	2166.75
191.84	2181.09
192.06	2148.32
192.28	2039.78
192.50	2463.71
192.72	2179.04
192.94	2170.85
193.16	2318.30
193.38	2279.39
193.60	2078.69
193.82	2146.27
194.04	2297.82
194.26	2269.15
194.48	2054.11
194.70	2138.08
194.92	2121.70
195.14	2258.91
195.36	2119.65
195.58	2107.36
195.80	2103.26
196.02	2127.84
196.24	2078.69
196.46	2195.42
196.69	2168.80
196.91	2379.74
197.13	2129.89
197.35	2123.74
197.57	2338.78
197.79	2222.05
198.01	2133.98
198.23	2146.27
198.45	2244.57
198.67	2107.36
198.89	2070.50
199.11	2246.62
199.33	2084.83
199.55	1966.05
199.77	2170.85
199.99	2230.24
200.21	2232.29
200.43	2306.01
200.65	2088.93
200.87	1935.33
201.09	2168.80
201.31	2099.17
201.53	2191.33
201.75	2179.04
201.97	2301.92
202.19	2226.14
202.41	2136.03
202.63	2275.29
202.85	2226.14
203.07	2299.87
203.29	2162.66
203.51	2035.68
203.73	2127.84
203.95	2494.43
204.17	2131.94
204.39	2228.19
204.61	2138.08
204.83	2168.80
205.05	2207.71
205.27	2207.71
205.49	2326.49
205.71	2168.80
205.93	2002.91
206.15	2095.07
206.37	2207.71
206.59	2111.46
206.81	2064.35
207.03	2056.16
207.25	2123.74
207.47	2275.29
207.69	2144.22
207.91	2299.87
208.13	2400.22
208.34	2095.07
208.56	2119.65
208.78	2191.33
209.00	2170.85
209.22	2189.28
209.44	2107.36
209.66	2113.50
209.88	2176.99
210.10	2125.79
210.32	2121.70
210.54	2289.63
210.76	2185.18
210.98	2283.49
211.20	1968.10
211.42	2117.60
211.64	2314.20
211.86	2283.49
212.08	2183.13
212.30	2158.56
212.52	2181.09
212.74	2224.09
212.96	2168.80
213.17	2238.43
213.39	2254.81
213.61	2310.11
213.83	2234.33
214.05	2205.66
214.27	2285.53
214.49	2101.22
214.71	2152.42
214.93	2209.76
215.15	2158.56
215.37	2349.02
215.59	1996.77
215.81	2129.89
216.03	2346.97
216.24	2244.57
216.46	2168.80
216.68	2211.81
216.90	2285.53
217.12	2297.82
217.34	2142.18
217.56	2183.13
217.78	2357.21
218.00	2248.67
218.22	2199.52
218.44	2203.61
218.66	2166.75
218.87	2379.74
219.09	2117.60
219.31	2105.31
219.53	2203.61
219.75	2176.99
219.97	2093.02
220.19	2211.81
220.41	2146.27
220.63	2367.45
220.85	2131.94
221.06	2131.94
221.28	2371.55
221.50	2215.90
221.72	2103.26
221.94	2070.50
222.16	2195.42
222.38	2238.43
222.60	2103.26
222.82	2119.65
223.03	2269.15
223.25	2088.93
223.47	2080.74
223.69	2346.97
223.91	2293.72
224.13	2205.66
224.35	2097.12
224.57	2215.90
224.78	2160.61
225.00	2088.93
225.22	2107.36
225.44	2156.51
225.66	2244.57
225.88	2111.46
226.10	2144.22
226.32	2176.99
226.53	2340.83
226.75	2121.70
226.97	2158.56
227.19	2144.22
227.41	2133.98
227.63	2185.18
227.85	1943.52
228.06	2138.08
228.28	2215.90
228.50	2293.72
228.72	2039.78
228.94	2093.02
229.16	2027.49
229.37	2072.54
229.59	2086.88
229.81	2271.20
230.03	2172.89
230.25	2131.94
230.47	2068.45
230.69	2013.15
230.90	2269.15
231.12	2170.85
231.34	2222.05
231.56	2232.29
231.78	2080.74
232.00	2230.24
232.21	2129.89
232.43	2080.74
232.65	2004.96
232.87	2283.49
233.09	2031.58
233.30	2131.94
233.52	2328.54
233.74	2127.84
233.96	2060.26
234.18	2146.27
234.40	2187.23
234.61	2389.98
234.83	2002.91
235.05	2029.54
235.27	2420.70
235.49	2199.52
235.70	2080.74
235.92	2265.05
236.14	2224.09
236.36	2498.52
236.58	2023.39
236.79	2240.48
237.01	2207.71
237.23	2246.62
237.45	2338.78
237.67	2117.60
237.88	2228.19
238.10	2367.45
238.32	2080.74
238.54	2125.79
238.76	2234.33
238.97	2101.22
239.19	2076.64
239.41	2179.04
239.63	2363.36
239.85	2078.69
240.06	2095.07
240.28	2129.89
240.50	2228.19
240.72	2189.28
240.93	2111.46
241.15	2207.71
241.37	2156.51
241.59	2242.53
241.81	2117.60
242.02	2109.41
242.24	2254.81
242.46	2281.44
242.68	2047.97
242.89	2031.58
243.11	2394.08
243.33	2193.37
243.55	2140.13
243.76	2138.08
243.98	2162.66
244.20	2199.52
244.42	2136.03
244.64	2111.46
244.85	2078.69
245.07	2088.93
245.29	2187.23
245.51	2123.74
245.72	2160.61
245.94	2275.29
246.16	2181.09
246.38	2246.62
246.59	2136.03
246.81	2084.83
247.03	2123.74
247.24	1978.34
247.46	2127.84
247.68	2154.46
247.90	2111.46
248.11	2060.26
248.33	2351.07
248.55	2174.94
248.77	2133.98
248.98	2181.09
249.20	2330.59
249.42	2293.72
249.64	2191.33
249.85	2119.65
250.07	2195.42
250.29	2211.81
250.50	2228.19
250.72	2021.35
250.94	2213.85
251.16	2461.66
251.37	2119.65
251.59	2201.57
251.81	2269.15
252.02	2297.82
252.24	2113.50
252.46	2240.48
252.68	2095.07
252.89	2121.70
253.11	1933.28
253.33	2207.71
253.54	2324.44
253.76	2037.73
253.98	2066.40
254.20	2039.78
254.41	2035.68
254.63	2133.98
254.85	2015.20
255.06	2121.70
255.28	2203.61
255.50	2144.22
255.71	2099.17
255.93	2074.59
256.15	2181.09
256.36	2254.81
256.58	2045.92
256.80	2179.04
257.02	2109.41
257.23	2070.50
257.45	2142.18
257.67	2213.85
257.88	2045.92
258.10	2226.14
258.32	2133.98
258.53	2207.71
258.75	2365.40
258.97	2129.89
259.18	2158.56
259.40	2050.02
259.62	2396.12
259.83	2308.06
260.05	2154.46
260.27	2510.81
260.48	2318.30
260.70	2133.98
260.92	2138.08
261.13	2154.46
261.35	2187.23
261.57	2228.19
261.78	2039.78
262.00	2076.64
262.22	2351.07
262.43	2021.35
262.65	2138.08
262.86	2121.70
263.08	2430.94
263.30	2236.38
263.51	1994.72
263.73	2097.12
263.95	2283.49
264.16	2088.93
264.38	2056.16
264.60	2111.46
264.81	2158.56
265.03	2285.53
265.25	2338.78
265.46	2179.04
265.68	2344.92
265.89	2275.29
266.11	2035.68
266.33	2156.51
266.54	2326.49
266.76	2297.82
266.98	2193.37
267.19	2158.56
267.41	2310.11
267.62	2263.01
267.84	2047.97
268.06	2166.75
268.27	2228.19
268.49	2310.11
268.70	2197.47
268.92	2125.79
269.14	2111.46
269.35	2113.50
269.57	2103.26
269.79	2260.96
270.00	2111.46
270.22	2375.64
270.43	2072.54
270.65	1955.81
270.87	2275.29
271.08	2285.53
271.30	2293.72
271.51	2146.27
271.73	2275.29
271.95	2277.34
272.16	2183.13
272.38	2230.24
272.59	2113.50
272.81	2314.20
273.02	2228.19
273.24	2199.52
273.46	2269.15
273.67	2037.73
273.89	2047.97
274.10	2019.30
274.32	2349.02
274.54	2312.16
274.75	2088.93
274.97	2039.78
275.18	2310.11
275.40	2277.34
275.61	2150.37
275.83	2123.74
276.05	2064.35
276.26	2211.81
276.48	2164.70
276.69	2168.80
276.91	2129.89
277.12	2314.20
277.34	2226.14
277.55	2228.19
277.77	2209.76
277.99	2154.46
278.20	2047.97
278.42	2031.58
278.63	2029.54
278.85	2138.08
279.06	2103.26
279.28	2195.42
279.49	2248.67
279.71	2291.68
279.93	2195.42
280.14	2129.89
280.36	2113.50
280.57	2324.44
280.79	2211.81
281.00	2093.02
281.22	2162.66
281.43	2283.49
281.65	2019.30
281.86	2129.89
282.08	2217.95
282.29	2330.59
282.51	2066.40
282.73	2021.35
282.94	2019.30
283.16	2283.49
283.37	2293.72
283.59	2164.70
283.80	2275.29
284.02	2230.24
284.23	2181.09
284.45	2160.61
284.66	2129.89
284.88	2131.94
285.09	2121.70
285.31	2269.15
285.52	2203.61
285.74	2060.26
285.95	2289.63
286.17	2131.94
286.38	2306.01
286.60	2037.73
286.81	2047.97
287.03	2199.52
287.24	2183.13
287.46	2209.76
287.67	2150.37
287.89	2406.36
288.10	2209.76
288.32	2162.66
288.53	2371.55
288.75	2215.90
288.96	2312.16
289.18	2144.22
289.39	2109.41
289.61	2254.81
289.82	2426.84
290.04	2316.25
290.25	2054.11
290.47	2226.14
290.68	2140.13
290.90	2299.87
291.11	2066.40
291.33	2236.38
291.54	2068.45
291.76	2121.70
291.97	2185.18
292.18	2150.37
292.40	2129.89
292.61	2172.89
292.83	2385.88
293.04	2220.00
293.26	2279.39
293.47	2170.85
293.69	2047.97
293.90	2166.75
294.12	2334.68
294.33	2189.28
294.55	2191.33
294.76	2226.14
294.97	2359.26
295.19	2349.02
295.40	2121.70
295.62	2211.81
295.83	2260.96
296.05	2170.85
296.26	2228.19
296.48	2080.74
296.69	2088.93
296.90	2215.90
297.12	2172.89
297.33	2236.38
297.55	2273.25
297.76	2318.30
297.98	2346.97
298.19	2230.24
298.41	2133.98
298.62	2101.22
298.83	2291.68
299.05	2252.77
299.26	2121.70
299.48	2093.02
299.69	2217.95
299.90	2154.46
300.12	2097.12
300.33	2250.72
300.55	2220.00
300.76	2281.44
300.98	2144.22
301.19	2279.39
301.40	2195.42
301.62	2191.33
301.83	2211.81
302.05	2256.86
302.26	2103.26
302.47	2211.81
302.69	2047.97
302.90	2213.85
303.12	2039.78
303.33	2252.77
303.54	2342.88
303.76	2113.50
303.97	2248.67
304.19	2250.72
304.40	2084.83
304.61	2152.42
304.83	2301.92
305.04	2265.05
305.26	2236.38
305.47	2166.75
305.68	2129.89
305.90	2072.54
306.11	2277.34
306.33	2166.75
306.54	2197.47
306.75	2086.88
306.97	2090.98
307.18	2133.98
307.39	2162.66
307.61	2230.24
307.82	2125.79
308.04	2203.61
308.25	2119.65
308.46	2183.13
308.68	2152.42
308.89	2183.13
309.10	2299.87
309.32	2193.37
309.53	2144.22
309.74	2256.86
309.96	2158.56
310.17	2301.92
310.39	2170.85
310.60	2275.29
310.81	2240.48
311.03	2080.74
311.24	2269.15
311.45	2127.84
311.67	2375.64
311.88	2260.96
312.09	2113.50
312.31	2152.42
312.52	2195.42
312.73	2213.85
312.95	2095.07
313.16	2166.75
313.37	2293.72
313.59	2228.19
313.80	2238.43
314.01	2396.12
314.23	2166.75
314.44	2136.03
314.65	2090.98
314.87	2136.03
315.08	2166.75
315.29	2187.23
315.51	2127.84
315.72	2029.54
315.93	2365.40
316.15	2342.88
316.36	2121.70
316.57	2256.86
316.79	2226.14
317.00	2097.12
317.21	2277.34
317.43	2152.42
317.64	2172.89
317.85	2093.02
318.07	2166.75
318.28	2226.14
318.49	2303.96
318.70	2402.27
318.92	2359.26
319.13	2367.45
319.34	2396.12
319.56	2230.24
319.77	2365.40
319.98	2283.49
320.20	2297.82
320.41	2238.43
320.62	2281.44
320.83	2093.02
321.05	2334.68
321.26	2222.05
321.47	2258.91
321.69	2277.34
321.90	2097.12
322.11	2174.94
322.32	2168.80
322.54	2291.68
322.75	2088.93
322.96	2514.91
323.18	2035.68
323.39	2070.50
323.60	2154.46
323.81	2242.53
324.03	2172.89
324.24	2179.04
324.45	2211.81
324.66	2138.08
324.88	2248.67
325.09	2412.51
325.30	2217.95
325.52	2230.24
325.73	2265.05
325.94	2144.22
326.15	1972.19
326.37	2107.36
326.58	2211.81
326.79	2332.64
327.00	2062.30
327.22	2193.37
327.43	2201.57
327.64	2162.66
327.85	2232.29
328.07	2127.84
328.28	2357.21
328.49	2136.03
328.70	2220.00
328.92	2138.08
329.13	2174.94
329.34	2183.13
329.55	2287.58
329.76	2275.29
329.98	2146.27
330.19	2408.41
330.40	2248.67
330.61	2199.52
330.83	2183.13
331.04	2072.54
331.25	2203.61
331.46	2125.79
331.68	2129.89
331.89	2314.20
332.10	2164.70
332.31	2086.88
332.52	2105.31
332.74	2306.01
332.95	2070.50
333.16	2127.84
333.37	2236.38
333.58	2164.70
333.80	2185.18
334.01	2179.04
334.22	2146.27
334.43	2138.08
334.64	2101.22
334.86	2007.01
335.07	2019.30
335.28	2215.90
335.49	2113.50
335.70	2287.58
335.92	2283.49
336.13	2478.04
336.34	2187.23
336.55	2176.99
336.76	2240.48
336.98	2041.82
337.19	2195.42
337.40	2318.30
337.61	2465.75
337.82	2185.18
338.04	2256.86
338.25	2060.26
338.46	2162.66
338.67	2117.60
338.88	2125.79
339.09	2133.98
339.31	2179.04
339.52	2090.98
339.73	2127.84
339.94	2133.98
340.15	2326.49
340.36	2154.46
340.58	2195.42
340.79	2158.56
341.00	2260.96
341.21	2140.13
341.42	2336.73
341.63	2160.61
341.85	2273.25
342.06	2252.77
342.27	2125.79
342.48	2211.81
342.69	2031.58
342.90	2217.95
343.12	2287.58
343.33	2099.17
343.54	2314.20
343.75	2330.59
343.96	2154.46
344.17	2142.18
344.38	2285.53
344.60	2127.84
344.81	2072.54
345.02	2146.27
345.23	2291.68
345.44	2471.90
345.65	2203.61
345.86	2179.04
346.07	2258.91
346.29	2105.31
346.50	2250.72
346.71	2254.81
346.92	2361.31
347.13	2461.66
347.34	2099.17
347.55	2154.46
347.76	2234.33
347.98	2093.02
348.19	2095.07
348.40	2265.05
348.61	2154.46
348.82	2316.25
349.03	2242.53
349.24	2086.88
349.45	2428.89
349.66	1945.57
349.88	2228.19
350.09	2080.74
350.30	2365.40
350.51	2369.50
350.72	2217.95
350.93	2203.61
351.14	2203.61
351.35	2236.38
351.56	2203.61
351.77	2168.80
351.99	2220.00
352.20	2406.36
352.41	2277.34
352.62	2041.82
352.83	2152.42
353.04	2310.11
353.25	2131.94
353.46	2228.19
353.67	2310.11
353.88	2072.54
354.09	2138.08
354.30	2236.38
354.52	2275.29
354.73	2203.61
354.94	2109.41
355.15	2203.61
355.36	2322.40
355.57	2211.81
355.78	2154.46
355.99	2084.83
356.20	2191.33
356.41	2289.63
356.62	2201.57
356.83	2152.42
357.04	2322.40
357.25	2017.25
357.46	2119.65
357.68	2074.59
357.89	2117.60
358.10	2168.80
358.31	2176.99
358.52	2119.65
358.73	2045.92
358.94	2115.55
359.15	2121.70
359.36	2236.38
359.57	2230.24
359.78	2152.42
359.99	2258.91
360.20	2129.89
360.41	2244.57
360.62	2316.25
360.83	2191.33
361.04	2172.89
361.25	2152.42
361.46	2314.20
361.67	2213.85
361.88	2318.30
362.09	2250.72
362.30	2193.37
362.51	2172.89
362.72	2152.42
362.93	2314.20
363.14	2176.99
363.35	2162.66
363.56	2054.11
363.78	2275.29
363.99	2267.10
364.20	2144.22
364.41	2213.85
364.62	2349.02
364.83	2242.53
365.04	2236.38
365.25	2146.27
365.46	2383.84
365.67	2097.12
365.88	2125.79
366.09	2066.40
366.30	2119.65
366.51	2242.53
366.72	2097.12
366.93	2197.47
367.14	2228.19
367.35	2340.83
367.56	2170.85
367.77	2250.72
367.98	2203.61
368.18	2207.71
368.39	2174.94
368.60	2113.50
368.81	2308.06
369.02	2248.67
369.23	2113.50
369.44	2138.08
369.65	2213.85
369.86	2191.33
370.07	2269.15
370.28	2088.93
370.49	2283.49
370.70	2318.30
370.91	2080.74
371.12	2107.36
371.33	2332.64
371.54	2205.66
371.75	2369.50
371.96	1957.86
372.17	2236.38
372.38	2113.50
372.59	2297.82
372.80	2105.31
373.01	2162.66
373.22	2195.42
373.43	2168.80
373.64	2093.02
373.85	2310.11
374.06	2400.22
374.26	2283.49
374.47	2187.23
374.68	2314.20
374.89	2193.37
375.10	2185.18
375.31	2269.15
375.52	2265.05
375.73	2191.33
375.94	2088.93
376.15	2375.64
376.36	2095.07
376.57	2121.70
376.78	2142.18
376.99	2140.13
377.20	2414.56
377.40	2127.84
377.61	2381.79
377.82	2080.74
378.03	2308.06
378.24	2295.77
378.45	2166.75
378.66	2217.95
378.87	2017.25
379.08	2074.59
379.29	2176.99
379.50	2258.91
379.71	2160.61
379.91	2244.57
380.12	2170.85
380.33	2183.13
380.54	2211.81
380.75	2162.66
380.96	2105.31
381.17	2226.14
381.38	2131.94
381.59	2193.37
381.80	2138.08
382.00	2392.03
382.21	2265.05
382.42	2392.03
382.63	2398.17
382.84	2310.11
383.05	2291.68
383.26	2289.63
383.47	2172.89
383.68	2275.29
383.88	2281.44
384.09	2271.20
384.30	2318.30
384.51	2211.81
384.72	2220.00
384.93	2031.58
385.14	2258.91
385.35	2324.44
385.55	2129.89
385.76	2344.92
385.97	2125.79
386.18	2064.35
386.39	2203.61
386.60	2166.75
386.81	2193.37
387.02	2090.98
387.22	2117.60
387.43	2250.72
387.64	2289.63
387.85	2387.93
388.06	2408.41
388.27	4069.31
388.48	8570.75
388.68	12365.64
388.89	14634.78
389.10	15955.72
389.31	14370.60
389.52	11296.60
389.73	9830.25
389.93	8904.57
390.14	8099.72
390.35	7356.30
390.56	6473.63
390.77	5498.80
390.98	4046.79
391.18	3252.17
391.39	2699.22
391.60	2342.88
391.81	2334.68
392.02	2168.80
392.23	2349.02
392.43	2176.99
392.64	2299.87
392.85	2265.05
393.06	2351.07
393.27	2232.29
393.47	2148.32
393.68	2224.09
393.89	2154.46
394.10	2371.55
394.31	2115.55
394.52	2140.13
394.72	2105.31
394.93	2285.53
395.14	2070.50
395.35	2209.76
395.56	2160.61
395.76	2215.90
395.97	2172.89
396.18	2414.56
396.39	2289.63
396.60	2678.74
396.80	2506.71
397.01	2373.60
397.22	2357.21
397.43	2473.95
397.64	2136.03
397.84	2277.34
398.05	2426.84
398.26	2316.25
398.47	2265.05
398.67	2342.88
398.88	2271.20
399.09	2230.24
399.30	2181.09
399.51	2215.90
399.71	2125.79
399.92	2136.03
400.13	2215.90
400.34	2103.26
400.54	2283.49
400.75	2308.06
400.96	2152.42
401.17	2373.60
401.37	2242.53
401.58	2193.37
401.79	2136.03
402.00	2295.77
402.21	2629.59
402.41	2484.19
402.62	2623.45
402.83	2574.30
403.04	2717.65
403.24	2760.66
403.45	2328.54
403.66	2381.79
403.87	2383.84
404.07	2387.93
404.28	2424.80
404.49	2408.41
404.70	2236.38
404.90	2314.20
405.11	2293.72
405.32	2252.77
405.52	2117.60
405.73	2117.60
405.94	2142.18
406.15	2201.57
406.35	2172.89
406.56	2222.05
406.77	2203.61
406.98	2222.05
407.18	2150.37
407.39	2320.35
407.60	2176.99
407.80	2291.68
408.01	2232.29
408.22	2285.53
408.43	2045.92
408.63	2222.05
408.84	2306.01
409.05	2320.35
409.25	2146.27
409.46	2150.37
409.67	2203.61
409.88	2156.51
410.08	2138.08
410.29	2176.99
410.50	2289.63
410.70	2258.91
410.91	2136.03
411.12	2254.81
411.32	2170.85
411.53	2021.35
411.74	2260.96
411.95	2263.01
412.15	2267.10
412.36	2326.49
412.57	2297.82
412.77	2263.01
412.98	2226.14
413.19	2267.10
413.39	2187.23
413.60	2297.82
413.81	2398.17
414.01	2125.79
414.22	2209.76
414.43	2328.54
414.63	2174.94
414.84	2291.68
415.05	2150.37
415.25	2056.16
415.46	2179.04
415.67	2164.70
415.87	2254.81
416.08	2166.75
416.29	2107.36
416.49	2299.87
416.70	2129.89
416.91	2166.75
417.11	2117.60
417.32	2281.44
417.53	2326.49
417.73	2201.57
417.94	2156.51
418.15	2265.05
418.35	2242.53
418.56	2222.05
418.77	2475.99
418.97	2174.94
419.18	2168.80
419.38	1970.15
419.59	2150.37
419.80	2416.60
420.00	2179.04
420.21	2090.98
420.42	2306.01
420.62	2254.81
420.83	2154.46
421.04	2166.75
421.24	2222.05
421.45	2273.25
421.65	2211.81
421.86	2164.70
422.07	2222.05
422.27	2179.04
422.48	2199.52
422.69	2117.60
422.89	2197.47
423.10	2236.38
423.30	2050.02
423.51	2299.87
423.72	2244.57
423.92	2314.20
424.13	2099.17
424.33	2224.09
424.54	2285.53
424.75	2271.20
424.95	2336.73
425.16	2234.33
425.36	2185.18
425.57	2275.29
425.78	2193.37
425.98	2334.68
426.19	2117.60
426.39	2117.60
426.60	2269.15
426.81	2226.14
427.01	2236.38
427.22	2105.31
427.42	2062.30
427.63	2133.98
427.83	2267.10
428.04	2357.21
428.25	2297.82
428.45	2314.20
428.66	2285.53
428.86	2199.52
429.07	2224.09
429.28	2105.31
429.48	2185.18
429.69	2195.42
429.89	2201.57
430.10	2050.02
430.30	2215.90
430.51	2215.90
430.71	2129.89
430.92	2176.99
431.13	2121.70
431.33	2222.05
431.54	2179.04
431.74	2361.31
431.95	2463.71
432.15	2166.75
432.36	2170.85
432.56	2234.33
432.77	2346.97
432.98	2289.63
433.18	2258.91
433.39	2203.61
433.59	2160.61
433.80	2424.80
434.00	2308.06
434.21	2185.18
434.41	2183.13
434.62	2400.22
434.82	2082.78
435.03	2078.69
435.23	2258.91
435.44	2056.16
435.64	2168.80
435.85	2217.95
436.06	2226.14
436.26	2252.77
436.47	2209.76
436.67	2144.22
436.88	2129.89
437.08	2301.92
437.29	2301.92
437.49	2152.42
437.70	2277.34
437.90	2222.05
438.11	2422.75
438.31	2263.01
438.52	2404.32
438.72	2426.84
438.93	2498.52
439.13	2357.21
439.34	2326.49
439.54	2215.90
439.75	2342.88
439.95	2228.19
440.16	2154.46
440.36	2236.38
440.57	2256.86
440.77	2297.82
440.98	2179.04
441.18	2267.10
441.39	2152.42
441.59	2019.30
441.80	2412.51
442.00	2232.29
442.21	2291.68
442.41	2105.31
442.62	2254.81
442.82	2156.51
443.02	2185.18
443.23	2232.29
443.43	2207.71
443.64	2316.25
443.84	2236.38
444.05	2334.68
444.25	2224.09
444.46	2193.37
444.66	2160.61
444.87	2389.98
445.07	2097.12
445.28	2125.79
445.48	2330.59
445.69	2310.11
445.89	2525.15
446.09	2254.81
446.30	2494.43
446.50	2852.82
446.71	4319.17
446.91	5699.50
447.12	6434.72
447.32	6668.19
447.53	6207.39
447.73	5152.69
447.93	4526.01
448.14	4229.06
448.34	4046.79
448.55	3416.01
448.75	3585.99
448.96	3323.85
449.16	2987.99
449.36	2840.53
449.57	2492.38
449.77	2281.44
449.98	2260.96
450.18	2197.47
450.39	2209.76
450.59	2308.06
450.79	2197.47
451.00	2179.04
451.20	2224.09
451.41	2191.33
451.61	2246.62
451.81	2160.61
452.02	2199.52
452.22	2154.46
452.43	2150.37
452.63	2142.18
452.84	2174.94
453.04	2144.22
453.24	2181.09
453.45	2101.22
453.65	2164.70
453.86	2217.95
454.06	2260.96
454.26	2258.91
454.47	2058.21
454.67	2353.12
454.87	2269.15
455.08	2189.28
455.28	2355.16
455.49	2248.67
455.69	2113.50
455.89	2467.80
456.10	2326.49
456.30	2170.85
456.51	2203.61
456.71	2310.11
456.91	2224.09
457.12	2152.42
457.32	2291.68
457.52	2021.35
457.73	2260.96
457.93	2252.77
458.14	2121.70
458.34	2088.93
458.54	2146.27
458.75	2162.66
458.95	2263.01
459.15	2207.71
459.36	2201.57
459.56	2252.77
459.76	2416.60
459.97	2189.28
460.17	2199.52
460.37	2314.20
460.58	2199.52
460.78	2349.02
460.99	2107.36
461.19	2099.17
461.39	2131.94
461.60	2232.29
461.80	2228.19
462.00	2152.42
462.21	2258.91
462.41	2088.93
462.61	2101.22
462.82	2023.39
463.02	2256.86
463.22	2170.85
463.43	2228.19
463.63	2148.32
463.83	2289.63
464.04	2189.28
464.24	2181.09
464.44	2019.30
464.64	2252.77
464.85	2215.90
465.05	2195.42
465.25	2224.09
465.46	2154.46
465.66	2211.81
465.86	2332.64
466.07	2189.28
466.27	2275.29
466.47	2068.45
466.68	1980.39
466.88	2365.40
467.08	2301.92
467.29	2289.63
467.49	2258.91
467.69	2195.42
467.89	2236.38
468.10	2150.37
468.30	2226.14
468.50	2306.01
468.71	2318.30
468.91	2121.70
469.11	2344.92
469.31	2205.66
469.52	2144.22
469.72	2359.26
469.92	2455.51
470.13	2213.85
470.33	2211.81
470.53	2314.20
470.73	2658.26
470.94	3059.67
471.14	3237.84
471.34	3653.58
471.54	3401.68
471.75	3086.29
471.95	2856.92
472.15	2801.62
472.36	2736.09
472.56	2672.60
472.76	2654.17
472.96	2682.84
473.17	2570.20
473.37	2478.04
473.57	2303.96
473.77	2314.20
473.98	2269.15
474.18	2189.28
474.38	2578.39
474.58	2074.59
474.79	2156.51
474.99	2260.96
475.19	2312.16
475.39	2113.50
475.60	2187.23
475.80	2181.09
476.00	2211.81
476.20	2127.84
476.41	2191.33
476.61	2310.11
476.81	2424.80
477.01	2097.12
477.21	2465.75
477.42	2238.43
477.62	2203.61
477.82	2228.19
478.02	2183.13
478.23	2183.13
478.43	2160.61
478.63	2113.50
478.83	2244.57
479.03	2176.99
479.24	2408.41
479.44	2428.89
479.64	2236.38
479.84	2041.82
480.04	2072.54
480.25	2283.49
480.45	2088.93
480.65	2220.00
480.85	2301.92
481.06	2105.31
481.26	2226.14
481.46	2254.81
481.66	2234.33
481.86	2144.22
482.06	2301.92
482.27	2224.09
482.47	2168.80
482.67	2209.76
482.87	2226.14
483.07	2281.44
483.28	2203.61
483.48	2082.78
483.68	2232.29
483.88	2109.41
484.08	2002.91
484.29	2045.92
484.49	2189.28
484.69	2099.17
484.89	2351.07
485.09	2248.67
485.29	2174.94
485.50	2269.15
485.70	2256.86
485.90	2379.74
486.10	2226.14
486.30	2183.13
486.50	2269.15
486.71	2310.11
486.91	2318.30
487.11	2318.30
487.31	2136.03
487.51	2322.40
487.71	2148.32
487.91	2121.70
488.12	2101.22
488.32	1929.19
488.52	2148.32
488.72	2027.49
488.92	2293.72
489.12	2301.92
489.32	2342.88
489.53	2150.37
489.73	2068.45
489.93	2306.01
490.13	2152.42
490.33	2076.64
490.53	2207.71
490.73	2310.11
490.94	2023.39
491.14	2279.39
491.34	2324.44
491.54	2553.82
491.74	3235.79
491.94	3725.26
492.14	4083.65
492.34	4057.03
492.54	3792.84
492.75	3188.69
492.95	3190.74
493.15	2871.25
493.35	2844.63
493.55	2756.57
493.75	2775.00
493.95	2777.05
494.15	2529.24
494.35	2394.08
494.56	2367.45
494.76	2275.29
494.96	2287.58
495.16	2250.72
495.36	2238.43
495.56	2244.57
495.76	2220.00
495.96	2121.70
496.16	2158.56
496.36	2488.28
496.56	2211.81
496.77	2213.85
496.97	2166.75
497.17	2355.16
497.37	2004.96
497.57	2222.05
497.77	2252.77
497.97	2170.85
498.17	2187.23
498.37	2183.13
498.57	2201.57
498.77	2138.08
498.97	2312.16
499.17	2420.70
499.38	2179.04
499.58	2215.90
499.78	2252.77
499.98	2283.49
500.18	2211.81
500.38	2127.84
500.58	2308.06
500.78	2848.72
500.98	5224.37
501.18	7407.50
501.38	8998.77
501.58	9881.45
501.78	9785.19
501.98	7798.66
502.18	6447.01
502.38	5517.23
502.58	5130.16
502.78	4634.55
502.98	4433.85
503.18	4249.54
503.38	3807.17
503.59	3397.58
503.79	3213.26
503.99	3065.81
504.19	2811.86
504.39	2832.34
504.59	2844.63
504.79	2901.97
504.99	2852.82
505.19	2607.06
505.39	2557.91
505.59	2643.93
505.79	2490.33
505.99	2498.52
506.19	2310.11
506.39	2457.56
506.59	2271.20
506.79	2303.96
506.99	2351.07
507.19	2281.44
507.39	2195.42
507.59	2158.56
507.79	2172.89
507.99	2176.99
508.19	2236.38
508.39	2242.53
508.59	2209.76
508.79	2316.25
508.99	2340.83
509.19	2080.74
509.39	2179.04
509.59	2127.84
509.79	2152.42
509.99	2248.67
510.19	2224.09
510.39	2254.81
510.59	2217.95
510.79	2129.89
510.99	2103.26
511.19	2256.86
511.39	2371.55
511.59	2295.77
511.79	2346.97
511.99	2248.67
512.19	2312.16
512.38	2199.52
512.58	2113.50
512.78	2156.51
512.98	2244.57
513.18	2381.79
513.38	2078.69
513.58	2244.57
513.78	2160.61
513.98	2203.61
514.18	2103.26
514.38	2162.66
514.58	2299.87
514.78	2082.78
514.98	2113.50
515.18	2185.18
515.38	2113.50
515.58	2357.21
515.78	2179.04
515.98	2154.46
516.18	2236.38
516.38	2193.37
516.57	2183.13
516.77	2074.59
516.97	2269.15
517.17	2125.79
517.37	1996.77
517.57	2217.95
517.77	2193.37
517.97	2121.70
518.17	2236.38
518.37	2211.81
518.57	2170.85
518.77	2226.14
518.97	2193.37
519.16	2283.49
519.36	2392.03
519.56	2230.24
519.76	2217.95
519.96	2213.85
520.16	2369.50
520.36	2168.80
520.56	2308.06
520.76	2185.18
520.96	2181.09
521.16	2293.72
521.35	2326.49
521.55	2326.49
521.75	2263.01
521.95	2248.67
522.15	2121.70
522.35	2125.79
522.55	2076.64
522.75	2320.35
522.95	2113.50
523.14	2056.16
523.34	2291.68
523.54	2199.52
523.74	2281.44
523.94	2203.61
524.14	2127.84
524.34	2250.72
524.54	2308.06
524.73	2179.04
524.93	2263.01
525.13	2125.79
525.33	2156.51
525.53	2355.16
525.73	2310.11
525.93	2269.15
526.13	2107.36
526.32	2234.33
526.52	2336.73
526.72	2318.30
526.92	2154.46
527.12	2138.08
527.32	2080.74
527.52	2263.01
527.71	2236.38
527.91	2176.99
528.11	2203.61
528.31	2179.04
528.51	2125.79
528.71	2273.25
528.90	2297.82
529.10	2318.30
529.30	2283.49
529.50	2021.35
529.70	2236.38
529.90	2240.48
530.09	2240.48
530.29	2136.03
530.49	2107.36
530.69	2527.19
530.89	2148.32
531.09	2314.20
531.28	2168.80
531.48	2344.92
531.68	2228.19
531.88	2226.14
532.08	2293.72
532.28	2250.72
532.47	2217.95
532.67	2342.88
532.87	2291.68
533.07	2195.42
533.27	2324.44
533.46	2228.19
533.66	2392.03
533.86	2185.18
534.06	2244.57
534.26	2303.96
534.45	2203.61
534.65	2443.23
534.85	2220.00
535.05	2187.23
535.25	2349.02
535.44	2068.45
535.64	2289.63
535.84	2150.37
536.04	2217.95
536.24	2203.61
536.43	2138.08
536.63	2217.95
536.83	2215.90
537.03	2170.85
537.22	2115.55
537.42	2070.50
537.62	2195.42
537.82	2136.03
538.02	2260.96
538.21	2248.67
538.41	2447.32
538.61	2244.57
538.81	2166.75
539.00	2283.49
539.20	2054.11
539.40	2162.66
539.60	2232.29
539.79	2295.77
539.99	2205.66
540.19	2109.41
540.39	2197.47
540.58	2252.77
540.78	2338.78
540.98	2322.40
541.18	2351.07
541.37	2211.81
541.57	2187.23
541.77	2236.38
541.97	2123.74
542.16	2084.83
542.36	2170.85
542.56	2222.05
542.76	2379.74
542.95	2340.83
543.15	2277.34
543.35	2355.16
543.54	2162.66
543.74	2115.55
543.94	2373.60
544.14	2133.98
544.33	2205.66
544.53	2240.48
544.73	2097.12
544.93	2199.52
545.12	2277.34
545.32	2281.44
545.52	2222.05
545.71	2105.31
545.91	2191.33
546.11	2222.05
546.30	2187.23
546.50	2213.85
546.70	2269.15
546.90	2234.33
547.09	2054.11
547.29	2267.10
547.49	2322.40
547.68	2224.09
547.88	2160.61
548.08	2260.96
548.27	2719.70
548.47	2090.98
548.67	2179.04
548.87	2283.49
549.06	2146.27
549.26	2187.23
549.46	2238.43
549.65	2146.27
549.85	2209.76
550.05	2228.19
550.24	2144.22
550.44	2230.24
550.64	2209.76
550.83	2224.09
551.03	2400.22
551.23	2236.38
551.42	2220.00
551.62	2168.80
551.82	2260.96
552.01	2220.00
552.21	2308.06
552.41	2226.14
552.60	2381.79
552.80	2185.18
553.00	2154.46
553.19	2242.53
553.39	2381.79
553.59	2174.94
553.78	2277.34
553.98	2195.42
554.17	2088.93
554.37	2326.49
554.57	2252.77
554.76	2179.04
554.96	2127.84
555.16	2172.89
555.35	2168.80
555.55	2260.96
555.75	2283.49
555.94	2297.82
556.14	2142.18
556.33	2246.62
556.53	2117.60
556.73	2187.23
556.92	2269.15
557.12	2289.63
557.32	2412.51
557.51	2340.83
557.71	2234.33
557.90	2410.46
558.10	2244.57
558.30	2105.31
558.49	2236.38
558.69	2265.05
558.88	2244.57
559.08	2250.72
559.28	2187.23
559.47	2236.38
559.67	2351.07
559.86	2349.02
560.06	2207.71
560.26	2176.99
560.45	2303.96
560.65	2228.19
560.84	2293.72
561.04	2162.66
561.24	2310.11
561.43	2154.46
561.63	2328.54
561.82	2213.85
562.02	2224.09
562.22	2113.50
562.41	2107.36
562.61	2097.12
562.80	2129.89
563.00	2410.46
563.19	2195.42
563.39	2238.43
563.59	2289.63
563.78	2101.22
563.98	2062.30
564.17	2162.66
564.37	2037.73
564.56	2213.85
564.76	2072.54
564.96	2310.11
565.15	2279.39
565.35	2467.80
565.54	2213.85
565.74	2299.87
565.93	2263.01
566.13	2228.19
566.32	2205.66
566.52	2318.30
566.71	2248.67
566.91	2310.11
567.11	2322.40
567.30	2154.46
567.50	2250.72
567.69	2193.37
567.89	2207.71
568.08	2160.61
568.28	2238.43
568.47	2142.18
568.67	2226.14
568.86	2099.17
569.06	2324.44
569.25	2172.89
569.45	2127.84
569.64	2146.27
569.84	2230.24
570.04	2275.29
570.23	2152.42
570.43	2170.85
570.62	2176.99
570.82	2281.44
571.01	2119.65
571.21	2125.79
571.40	2140.13
571.60	2263.01
571.79	2252.77
571.99	2263.01
572.18	2174.94
572.38	2248.67
572.57	2220.00
572.77	2285.53
572.96	2469.85
573.16	2277.34
573.35	2154.46
573.55	2392.03
573.74	2232.29
573.94	2174.94
574.13	2129.89
574.33	2279.39
574.52	2371.55
574.71	2236.38
574.91	2320.35
575.10	2133.98
575.30	2156.51
575.49	2133.98
575.69	2197.47
575.88	2269.15
576.08	2265.05
576.27	2363.36
576.47	2260.96
576.66	2404.32
576.86	2375.64
577.05	2285.53
577.25	2301.92
577.44	2424.80
577.64	2166.75
577.83	2277.34
578.02	2236.38
578.22	2383.84
578.41	2389.98
578.61	2234.33
578.80	2103.26
579.00	2240.48
579.19	2275.29
579.39	2318.30
579.58	2326.49
579.77	2215.90
579.97	2349.02
580.16	2346.97
580.36	2303.96
580.55	2320.35
580.75	2228.19
580.94	2269.15
581.13	2344.92
581.33	2414.56
581.52	2215.90
581.72	2422.75
581.91	2371.55
582.11	2224.09
582.30	2308.06
582.49	2349.02
582.69	2449.37
582.88	2299.87
583.08	2217.95
583.27	2396.12
583.47	2267.10
583.66	2172.89
583.85	2105.31
584.05	2306.01
584.24	2277.34
584.44	2273.25
584.63	2459.61
584.82	2381.79
585.02	2480.09
585.21	2432.99
585.41	2375.64
585.60	2285.53
585.79	2412.51
585.99	2500.57
586.18	2430.94
586.37	2887.64
586.57	4399.04
586.76	13223.73
586.96	32136.73
587.15	45997.38
587.34	55135.41
587.54	60388.45
587.73	55940.27
587.93	38720.95
588.12	29799.99
588.31	23912.08
588.51	20758.21
588.70	18902.75
588.89	17250.04
589.09	14929.69
589.28	12955.45
589.47	10432.35
589.67	8413.06
589.86	6313.89
590.06	4636.60
590.25	3870.66
590.44	3200.98
590.64	2818.00
590.83	2541.53
591.02	2588.63
591.22	2355.16
591.41	2295.77
591.60	2351.07
591.80	2541.53
591.99	2156.51
592.18	2244.57
592.38	2346.97
592.57	2277.34
592.76	2228.19
592.96	2213.85
593.15	2242.53
593.34	2357.21
593.54	2203.61
593.73	2306.01
593.92	2258.91
594.12	2316.25
594.31	2334.68
594.50	2387.93
594.70	2332.64
594.89	2568.15
595.08	2144.22
595.28	2252.77
595.47	2519.00
595.66	2295.77
595.86	2117.60
596.05	2226.14
596.24	2258.91
596.43	2457.56
596.63	2351.07
596.82	2263.01
597.01	2301.92
597.21	2414.56
597.40	2252.77
597.59	2220.00
597.79	2277.34
597.98	2373.60
598.17	2263.01
598.36	2191.33
598.56	2351.07
598.75	2236.38
598.94	2289.63
599.14	2312.16
599.33	2242.53
599.52	2273.25
599.71	2246.62
599.91	2314.20
600.10	2263.01
600.29	2228.19
600.48	2289.63
600.68	2252.77
600.87	2234.33
601.06	2103.26
601.26	2211.81
601.45	2213.85
601.64	2217.95
601.83	2400.22
602.03	2244.57
602.22	2086.88
602.41	2316.25
602.60	2379.74
602.80	2349.02
602.99	2273.25
603.18	2152.42
603.37	2211.81
603.57	2265.05
603.76	2254.81
603.95	2277.34
604.14	2193.37
604.34	2138.08
604.53	2291.68
604.72	2271.20
604.91	2260.96
605.10	2250.72
605.30	2168.80
605.49	2303.96
605.68	2301.92
605.87	2269.15
606.07	2199.52
606.26	2170.85
606.45	2316.25
606.64	2250.72
606.84	2209.76
607.03	2328.54
607.22	2340.83
607.41	2297.82
607.60	2220.00
607.80	2318.30
607.99	2260.96
608.18	2220.00
608.37	2244.57
608.56	2164.70
608.76	2322.40
608.95	2412.51
609.14	2232.29
609.33	2469.85
609.52	2396.12
609.72	2308.06
609.91	2353.12
610.10	2297.82
610.29	2424.80
610.48	2396.12
610.68	2281.44
610.87	2267.10
611.06	2215.90
611.25	2228.19
611.44	2324.44
611.63	2113.50
611.83	2338.78
612.02	2076.64
612.21	2291.68
612.40	2031.58
612.59	2142.18
612.79	2109.41
612.98	2105.31
613.17	2422.75
613.36	2217.95
613.55	2424.80
613.74	2301.92
613.93	2398.17
614.13	2387.93
614.32	2422.75
614.51	2443.23
614.70	2291.68
614.89	2240.48
615.08	2301.92
615.28	2703.32
615.47	2205.66
615.66	2351.07
615.85	2338.78
616.04	2400.22
616.23	2269.15
616.42	2232.29
616.62	2279.39
616.81	2273.25
617.00	2211.81
617.19	2207.71
617.38	2152.42
617.57	2303.96
617.76	2299.87
617.95	2293.72
618.15	2267.10
618.34	2324.44
618.53	2068.45
618.72	2301.92
618.91	2306.01
619.10	2314.20
619.29	2172.89
619.48	2236.38
619.68	2156.51
619.87	2174.94
620.06	2086.88
620.25	2224.09
620.44	2129.89
620.63	2195.42
620.82	2179.04
621.01	2228.19
621.20	2301.92
621.39	2279.39
621.59	2287.58
621.78	2211.81
621.97	2263.01
622.16	2301.92
622.35	2273.25
622.54	2263.01
622.73	2289.63
622.92	2056.16
623.11	2234.33
623.30	2174.94
623.49	2271.20
623.68	2158.56
623.88	2346.97
624.07	2244.57
624.26	2291.68
624.45	2164.70
624.64	2162.66
624.83	2330.59
625.02	2099.17
625.21	2162.66
625.40	2138.08
625.59	2351.07
625.78	2185.18
625.97	2330.59
626.16	2455.51
626.35	2383.84
626.54	2238.43
626.74	2457.56
626.93	2187.23
627.12	2220.00
627.31	2383.84
627.50	2289.63
627.69	2377.69
627.88	2127.84
628.07	2174.94
628.26	2136.03
628.45	2133.98
628.64	2133.98
628.83	2217.95
629.02	2056.16
629.21	2283.49
629.40	2310.11
629.59	2201.57
629.78	2234.33
629.97	2291.68
630.16	2195.42
630.35	2170.85
630.54	2156.51
630.73	2127.84
630.92	2228.19
631.11	2095.07
631.30	2162.66
631.49	2316.25
631.68	2252.77
631.87	2236.38
632.06	2080.74
632.25	2430.94
632.44	2275.29
632.63	2211.81
632.82	2236.38
633.01	2205.66
633.20	2324.44
633.39	2287.58
633.58	2179.04
633.77	2260.96
633.96	2357.21
634.15	2293.72
634.34	2265.05
634.53	2230.24
634.72	2258.91
634.91	2062.30
635.10	2242.53
635.29	2250.72
635.48	2144.22
635.67	2242.53
635.86	2068.45
636.05	2357.21
636.24	2185.18
636.43	2226.14
636.62	2222.05
636.81	1949.67
637.00	2117.60
637.19	2267.10
637.38	2172.89
637.57	2185.18
637.76	2316.25
637.95	2400.22
638.14	2269.15
638.33	2346.97
638.52	2295.77
638.71	2170.85
638.89	2131.94
639.08	2490.33
639.27	2346.97
639.46	2447.32
639.65	2850.77
639.84	2910.16
640.03	3153.87
640.22	2897.88
640.41	3035.09
640.60	2553.82
640.79	2619.35
640.98	2367.45
641.17	2414.56
641.36	2418.65
641.55	2451.42
641.74	2209.76
641.92	2250.72
642.11	2222.05
642.30	2209.76
642.49	2129.89
642.68	2113.50
642.87	2232.29
643.06	2226.14
643.25	2152.42
643.44	2291.68
643.63	2195.42
643.82	2283.49
644.00	2068.45
644.19	2187.23
644.38	2105.31
644.57	2271.20
644.76	2195.42
644.95	2215.90
645.14	2263.01
645.33	2172.89
645.52	2109.41
645.71	2093.02
645.89	2095.07
646.08	2191.33
646.27	2148.32
646.46	2316.25
646.65	2127.84
646.84	2183.13
647.03	2113.50
647.22	2310.11
647.40	2308.06
647.59	2125.79
647.78	2013.15
647.97	2105.31
648.16	2080.74
648.35	2359.26
648.54	2291.68
648.73	2193.37
648.91	2326.49
649.10	2252.77
649.29	2088.93
649.48	2140.13
649.67	2183.13
649.86	2238.43
650.05	2226.14
650.23	2496.47
650.42	2377.69
650.61	2510.81
650.80	2357.21
650.99	2484.19
651.18	2383.84
651.36	2373.60
651.55	2240.48
651.74	2367.45
651.93	2238.43
652.12	2179.04
652.31	2246.62
652.49	2209.76
652.68	2269.15
652.87	2320.35
653.06	2217.95
653.25	2406.36
653.44	2217.95
653.62	2455.51
653.81	2197.47
654.00	2295.77
654.19	2283.49
654.38	2498.52
654.56	2263.01
654.75	2176.99
654.94	2279.39
655.13	2201.57
655.32	2174.94
655.51	2263.01
655.69	2133.98
655.88	2246.62
656.07	2093.02
656.26	2213.85
656.45	2115.55
656.63	2269.15
656.82	2256.86
657.01	2273.25
657.20	2119.65
657.38	2332.64
657.57	2117.60
657.76	2125.79
657.95	2293.72
658.14	2197.47
658.32	2187.23
658.51	2090.98
658.70	2234.33
658.89	2277.34
659.08	2224.09
659.26	2371.55
659.45	2174.94
659.64	2398.17
659.83	2267.10
660.01	2496.47
660.20	2217.95
660.39	2367.45
660.58	2035.68
660.76	2291.68
660.95	2113.50
661.14	2131.94
661.33	2144.22
661.51	2181.09
661.70	2047.97
661.89	2301.92
662.08	2209.76
662.26	2033.63
662.45	2033.63
662.64	2310.11
662.83	2318.30
663.01	2156.51
663.20	2031.58
663.39	2310.11
663.58	2060.26
663.76	2207.71
663.95	2242.53
664.14	2138.08
664.32	2058.21
664.51	2072.54
664.70	2072.54
664.89	2252.77
665.07	2125.79
665.26	2357.21
665.45	2152.42
665.64	2250.72
665.82	2187.23
666.01	2279.39
666.20	2109.41
666.38	2365.40
666.57	2406.36
666.76	3350.48
666.95	7993.22
667.13	16381.70
667.32	22021.81
667.51	25458.30
667.69	27428.45
667.88	25321.09
668.07	17970.93
668.25	14599.97
668.44	11876.17
668.63	10116.97
668.81	8902.52
669.00	7872.39
669.19	6897.56
669.38	6082.47
669.56	5298.10
669.75	4401.08
669.94	3743.69
670.12	3071.95
670.31	2783.19
670.50	2617.30
670.68	2461.66
670.87	2400.22
671.06	2250.72
671.24	2314.20
671.43	2357.21
671.62	2318.30
671.80	2275.29
671.99	2318.30
672.18	2099.17
672.36	2299.87
672.55	2287.58
672.74	2197.47
672.92	2160.61
673.11	2283.49
673.29	2086.88
673.48	2236.38
673.67	2203.61
673.85	2301.92
674.04	2131.94
674.23	2158.56
674.41	2371.55
674.60	2054.11
674.79	2088.93
674.97	2185.18
675.16	2209.76
675.34	2228.19
675.53	2109.41
675.72	2185.18
675.90	2301.92
676.09	2226.14
676.28	2244.57
676.46	2037.73
676.65	2209.76
676.83	2107.36
677.02	2224.09
677.21	2179.04
677.39	2197.47
677.58	2127.84
677.77	2166.75
677.95	2072.54
678.14	2119.65
678.32	2213.85
678.51	2121.70
678.70	2359.26
678.88	2052.06
679.07	2279.39
679.25	2185.18
679.44	2146.27
679.63	2105.31
679.81	2228.19
680.00	2277.34
680.18	2346.97
680.37	2322.40
680.55	2195.42
680.74	2103.26
680.93	2045.92
681.11	2240.48
681.30	2240.48
681.48	2215.90
681.67	2146.27
681.85	2211.81
682.04	2109.41
682.23	2260.96
682.41	2226.14
682.60	2185.18
682.78	2183.13
682.97	2121.70
683.15	2203.61
683.34	2207.71
683.53	2406.36
683.71	2113.50
683.90	2301.92
684.08	2338.78
684.27	2162.66
684.45	2277.34
684.64	2332.64
684.82	2211.81
685.01	2295.77
685.19	2144.22
685.38	2289.63
685.57	2150.37
685.75	2123.74
685.94	2146.27
686.12	2045.92
686.31	2154.46
686.49	2318.30
686.68	2115.55
686.86	2240.48
687.05	2146.27
687.23	2338.78
687.42	2138.08
687.60	2070.50
687.79	2285.53
687.97	2281.44
688.16	2355.16
688.34	2318.30
688.53	2023.39
688.71	2226.14
688.90	2312.16
689.08	2187.23
689.27	1982.43
689.45	2346.97
689.64	2258.91
689.82	2215.90
690.01	2271.20
690.19	2244.57
690.38	2162.66
690.56	2318.30
690.75	2113.50
690.93	2136.03
691.12	2133.98
691.30	2215.90
691.49	2150.37
691.67	2242.53
691.86	2363.36
692.04	2154.46
692.23	2197.47
692.41	2279.39
692.60	2428.89
692.78	2459.61
692.97	2324.44
693.15	2381.79
693.34	2373.60
693.52	2381.79
693.71	2181.09
693.89	2146.27
694.08	2002.91
694.26	2291.68
694.44	2201.57
694.63	2289.63
694.81	2131.94
695.00	2119.65
695.18	2293.72
695.37	2424.80
695.55	2224.09
695.74	2160.61
695.92	2146.27
696.10	2340.83
696.29	2064.35
696.47	2158.56
696.66	2140.13
696.84	2101.22
697.03	2215.90
697.21	2365.40
697.40	3229.65
697.58	2320.35
697.76	2197.47
697.95	2189.28
698.13	2158.56
698.32	2138.08
698.50	2162.66
698.68	2256.86
698.87	2162.66
699.05	2318.30
699.24	2220.00
699.42	2050.02
699.61	2236.38
699.79	2244.57
699.97	2146.27
700.16	2054.11
700.34	2037.73
700.53	2228.19
700.71	2326.49
700.89	2254.81
701.08	2215.90
701.26	2236.38
701.45	2775.00
701.63	2109.41
701.81	2183.13
702.00	2174.94
702.18	2244.57
702.37	2236.38
702.55	2500.57
702.73	2447.32
702.92	2371.55
703.10	2598.87
703.28	2564.06
703.47	2228.19
703.65	2443.23
703.84	2389.98
704.02	2265.05
704.20	2396.12
704.39	2222.05
704.57	2285.53
704.75	2316.25
704.94	2359.26
705.12	2244.57
705.30	2551.77
705.49	4487.10
705.67	11048.79
705.86	20014.80
706.04	24462.99
706.22	28124.75
706.41	29158.98
706.59	25190.02
706.77	17590.00
706.96	14585.63
707.14	12660.54
707.32	11089.75
707.51	9711.47
707.69	8234.88
707.87	6547.36
708.06	5142.45
708.24	4177.86
708.42	3295.18
708.61	3071.95
708.79	2529.24
708.97	2398.17
709.16	2326.49
709.34	2217.95
709.52	2199.52
709.71	2183.13
709.89	2265.05
710.07	2146.27
710.26	2070.50
710.44	2183.13
710.62	2291.68
710.80	2256.86
710.99	2252.77
711.17	2252.77
711.35	2103.26
711.54	2095.07
711.72	2328.54
711.90	2160.61
712.09	2224.09
712.27	2078.69
712.45	2297.82
712.63	2142.18
712.82	2201.57
713.00	2248.67
713.18	2260.96
713.37	2310.11
713.55	2322.40
713.73	2361.31
713.91	2193.37
714.10	2076.64
714.28	2170.85
714.46	2174.94
714.65	2195.42
714.83	2164.70
715.01	2181.09
715.19	2203.61
715.38	2090.98
715.56	2271.20
715.74	2160.61
715.92	2146.27
716.11	2285.53
716.29	1972.19
716.47	2195.42
716.65	2129.89
716.84	2136.03
717.02	2226.14
717.20	2064.35
717.38	2154.46
717.57	2248.67
717.75	2226.14
717.93	2125.79
718.11	2215.90
718.30	2209.76
718.48	2205.66
718.66	2293.72
718.84	2365.40
719.03	2115.55
719.21	2052.06
719.39	2306.01
719.57	2281.44
719.75	2277.34
719.94	2090.98
720.12	2152.42
720.30	2232.29
720.48	2222.05
720.67	2111.46
720.85	2054.11
721.03	2158.56
721.21	2084.83
721.39	2310.11
721.58	2260.96
721.76	2168.80
721.94	2170.85
722.12	2252.77
722.30	2353.12
722.49	2107.36
722.67	2201.57
722.85	2183.13
723.03	2142.18
723.21	2113.50
723.40	2146.27
723.58	2252.77
723.76	2267.10
723.94	2306.01
724.12	2269.15
724.30	2396.12
724.49	2373.60
724.67	2121.70
724.85	2295.77
725.03	2154.46
725.21	2357.21
725.40	2349.02
725.58	2203.61
725.76	2381.79
725.94	2211.81
726.12	2150.37
726.30	2224.09
726.49	2277.34
726.67	2174.94
726.85	2267.10
727.03	2506.71
727.21	3655.62
727.39	5439.40
727.57	6565.79
727.76	7241.62
727.94	7726.99
728.12	7364.50
728.30	5943.21
728.48	4872.12
728.66	4419.52
728.84	4022.21
729.03	3608.52
729.21	3182.54
729.39	2772.95
729.57	2504.67
729.75	2406.36
729.93	2355.16
730.11	2205.66
730.30	2179.04
730.48	2248.67
730.66	2303.96
730.84	2273.25
731.02	2162.66
731.20	2183.13
731.38	2242.53
731.56	2068.45
731.74	2140.13
731.93	2215.90
732.11	2244.57
732.29	2119.65
732.47	2260.96
732.65	2220.00
732.83	2428.89
733.01	2220.00
733.19	2154.46
733.37	2220.00
733.56	2232.29
733.74	2154.46
733.92	2383.84
734.10	2168.80
734.28	2293.72
734.46	2060.26
734.64	2146.27
734.82	2179.04
735.00	2133.98
735.18	2152.42
735.36	2199.52
735.54	2199.52
735.73	2234.33
735.91	2285.53
736.09	2238.43
736.27	2242.53
736.45	2289.63
736.63	2066.40
736.81	2256.86
736.99	2287.58
737.17	2289.63
737.35	2119.65
737.53	2234.33
737.71	2252.77
737.89	2318.30
738.07	2176.99
738.25	2144.22
738.43	2050.02
738.61	2191.33
738.80	2113.50
738.98	2095.07
739.16	2181.09
739.34	2138.08
739.52	2334.68
739.70	2197.47
739.88	2250.72
740.06	2201.57
740.24	2035.68
740.42	2322.40
740.60	2002.91
740.78	2082.78
740.96	2060.26
741.14	2121.70
741.32	2271.20
741.50	2037.73
741.68	2404.32
741.86	2242.53
742.04	2111.46
742.22	2172.89
742.40	2176.99
742.58	2176.99
742.76	2129.89
742.94	2293.72
743.12	2097.12
743.30	2234.33
743.48	2244.57
743.66	2203.61
743.84	2197.47
744.02	2205.66
744.20	2103.26
744.38	2154.46
744.56	2076.64
744.74	2404.32
744.92	2267.10
745.10	2244.57
745.28	2205.66
745.46	2340.83
745.64	2156.51
745.82	2213.85
746.00	2179.04
746.18	2252.77
746.36	2011.11
746.54	2256.86
746.72	2250.72
746.90	2133.98
747.08	2406.36
747.26	2195.42
747.44	2285.53
747.62	2240.48
747.80	2283.49
747.98	2330.59
748.15	2170.85
748.33	2349.02
748.51	2220.00
748.69	2281.44
748.87	2183.13
749.05	2170.85
749.23	2164.70
749.41	2174.94
749.59	2170.85
749.77	2211.81
749.95	2185.18
750.13	2150.37
750.31	2250.72
750.49	2217.95
750.67	2363.36
750.85	2324.44
751.03	2201.57
751.20	2346.97
751.38	2267.10
751.56	2111.46
751.74	2217.95
751.92	2191.33
752.10	2078.69
752.28	2353.12
752.46	2082.78
752.64	2234.33
752.82	2238.43
753.00	2283.49
753.18	2131.94
753.35	2172.89
753.53	2254.81
753.71	2152.42
753.89	2142.18
754.07	2248.67
754.25	2281.44
754.43	2301.92
754.61	2103.26
754.79	2203.61
754.97	2168.80
755.14	2351.07
755.32	2125.79
755.50	2232.29
755.68	2242.53
755.86	2105.31
756.04	2109.41
756.22	2027.49
756.40	2295.77
756.57	2412.51
756.75	2174.94
756.93	2273.25
757.11	2301.92
757.29	2086.88
757.47	2142.18
757.65	2031.58
757.82	2037.73
758.00	2113.50
758.18	2158.56
758.36	2054.11
758.54	2377.69
758.72	2007.01
758.90	2158.56
759.07	2197.47
759.25	2121.70
759.43	2217.95
759.61	2125.79
759.79	3035.09
759.97	2344.92
760.15	2154.46
760.32	2133.98
760.50	2312.16
760.68	2367.45
760.86	2039.78
761.04	2271.20
761.22	2230.24
761.39	2203.61
761.57	2181.09
761.75	2101.22
761.93	2260.96
762.11	2160.61
762.28	2226.14
762.46	2160.61
762.64	2242.53
762.82	2158.56
763.00	2193.37
763.18	2324.44
763.35	2088.93
763.53	2197.47
763.71	2101.22
763.89	2129.89
764.07	2183.13
764.24	2215.90
764.42	2308.06
764.60	2154.46
764.78	2267.10
764.96	2301.92
765.13	2281.44
765.31	2123.74
765.49	2306.01
765.67	2093.02
765.84	2136.03
766.02	2185.18
766.20	2062.30
766.38	2195.42
766.56	2236.38
766.73	2248.67
766.91	2187.23
767.09	2172.89
767.27	2299.87
767.44	2131.94
767.62	2324.44
767.80	2246.62
767.98	2129.89
768.15	2187.23
768.33	2187.23
768.51	2228.19
768.69	2170.85
768.87	2215.90
769.04	2185.18
769.22	2482.14
769.40	2293.72
769.58	2471.90
769.75	2195.42
769.93	2330.59
770.11	2201.57
770.28	2105.31
770.46	2224.09
770.64	2244.57
770.82	2170.85
770.99	2095.07
771.17	2238.43
771.35	2179.04
771.53	2146.27
771.70	2220.00
771.88	2195.42
772.06	2158.56
772.23	2228.19
772.41	2250.72
772.59	2125.79
772.77	2136.03
772.94	2179.04
773.12	2181.09
773.30	2185.18
773.47	2236.38
773.65	2154.46
773.83	2273.25
774.01	2207.71
774.18	2093.02
774.36	2201.57
774.54	2013.15
774.71	2260.96
774.89	2113.50
775.07	2158.56
775.24	2121.70
775.42	2150.37
775.60	2385.88
775.78	2105.31
775.95	2072.54
776.13	2064.35
776.31	1990.63
776.48	2179.04
776.66	2256.86
776.84	2179.04
777.01	2015.20
777.19	2144.22
777.37	2127.84
777.54	2222.05
777.72	2322.40
777.90	2215.90
778.07	2144.22
778.25	2510.81
778.43	2205.66
778.60	2117.60
778.78	2273.25
778.96	2367.45
779.13	2045.92
779.31	2248.67
779.49	2172.89
779.66	2244.57
779.84	2166.75
780.01	2086.88
780.19	2119.65
780.37	2265.05
780.54	2250.72
780.72	2146.27
780.90	2142.18
781.07	2150.37
781.25	2133.98
781.43	2154.46
781.60	2146.27
781.78	2308.06
781.95	2199.52
782.13	2105.31
782.31	2158.56
782.48	1955.81
782.66	2146.27
782.83	2277.34
783.01	2197.47
783.19	2299.87
783.36	2154.46
783.54	2111.46
783.72	2285.53
783.89	2187.23
784.07	2232.29
784.24	2195.42
784.42	2340.83
784.60	2084.83
784.77	2226.14
784.95	1968.10
785.12	2217.95
785.30	2226.14
785.47	2090.98
785.65	2105.31
785.83	2179.04
786.00	2150.37
786.18	2142.18
786.35	2105.31
786.53	2080.74
786.71	2267.10
786.88	2281.44
787.06	2179.04
787.23	2191.33
787.41	2115.55
787.58	2107.36
787.76	2113.50
787.94	2273.25
788.11	2248.67
788.29	2142.18
788.46	2123.74
788.64	2099.17
788.81	2138.08
788.99	2095.07
789.16	2162.66
789.34	2152.42
789.52	2133.98
789.69	2097.12
789.87	1992.67
790.04	2209.76
790.22	2203.61
790.39	2398.17
790.57	2074.59
790.74	2078.69
790.92	2260.96
791.09	2019.30
791.27	2133.98
791.44	2285.53
791.62	2191.33
791.79	2293.72
791.97	2199.52
792.15	2469.85
792.32	2260.96
792.50	2291.68
792.67	2336.73
792.85	2344.92
793.02	2240.48
793.20	2140.13
793.37	2119.65
793.55	2248.67
793.72	2099.17
793.90	2260.96
794.07	2174.94
794.25	2117.60
794.42	2242.53
794.60	2115.55
794.77	2236.38
794.95	2185.18
795.12	2269.15
795.30	2127.84
795.47	1970.15
795.65	2484.19
795.82	2203.61
796.00	2117.60
796.17	2162.66
796.34	2170.85
796.52	2195.42
796.69	2281.44
796.87	2228.19
797.04	2185.18
797.22	2228.19
797.39	2197.47
797.57	2285.53
797.74	2230.24
797.92	2256.86
798.09	2179.04
798.27	2258.91
798.44	2144.22
798.62	2117.60
798.79	2230.24
798.96	2162.66
799.14	2217.95
799.31	2443.23
799.49	2213.85
799.66	2119.65
799.84	2279.39
800.01	2084.83
800.19	2158.56
800.36	2076.64
800.53	2179.04
800.71	2293.72
800.88	2349.02
801.06	2166.75
801.23	2142.18
801.41	2203.61
801.58	2160.61
801.75	2156.51
801.93	2213.85
802.10	2267.10
802.28	2187.23
802.45	2140.13
802.63	2228.19
802.80	2342.88
802.97	2176.99
803.15	2183.13
803.32	2174.94
803.50	2127.84
803.67	2080.74
803.84	2068.45
804.02	2138.08
804.19	2113.50
804.37	1976.29
804.54	2129.89
804.71	2158.56
804.89	2152.42
805.06	2183.13
805.24	2109.41
805.41	2123.74
805.58	2146.27
805.76	2480.09
805.93	2211.81
806.10	2314.20
806.28	2222.05
806.45	2234.33
806.63	2271.20
806.80	2220.00
806.97	2236.38
807.15	2301.92
807.32	2166.75
807.49	2248.67
807.67	2115.55
807.84	2224.09
808.01	2050.02
808.19	2369.50
808.36	2437.08
808.54	2129.89
808.71	2152.42
808.88	2220.00
809.06	2408.41
809.23	2322.40
809.40	2183.13
809.58	2201.57
809.75	2215.90
809.92	2043.87
810.10	2371.55
810.27	2160.61
810.44	2234.33
810.62	2203.61
810.79	2179.04
810.96	2170.85
811.14	2148.32
811.31	2228.19
811.48	2125.79
811.66	2238.43
811.83	2256.86
812.00	2265.05
812.18	2158.56
812.35	2408.41
812.52	2123.74
812.69	2176.99
812.87	2162.66
813.04	2090.98
813.21	2201.57
813.39	2093.02
813.56	2195.42
813.73	2328.54
813.91	2052.06
814.08	2144.22
814.25	2179.04
814.42	2039.78
814.60	2170.85
814.77	2248.67
814.94	2119.65
815.12	2125.79
815.29	2269.15
815.46	2156.51
815.63	2217.95
815.81	2158.56
815.98	2197.47
816.15	2195.42
816.33	2121.70
816.50	2181.09
816.67	2228.19
816.84	2138.08
817.02	2136.03
817.19	2176.99
817.36	2263.01
817.53	2234.33
817.71	2099.17
817.88	2250.72
818.05	2176.99
818.22	2193.37
818.40	2342.88
818.57	2164.70
818.74	2217.95
818.91	2199.52
819.09	2281.44
819.26	2232.29
819.43	2105.31
819.60	2086.88
819.78	2248.67
819.95	2230.24
820.12	2070.50
820.29	2265.05
820.47	2291.68
820.64	2101.22
820.81	2095.07
820.98	2041.82
821.15	2113.50
821.33	2299.87
821.50	2021.35
821.67	2191.33
821.84	2117.60
822.02	2273.25
822.19	2211.81
822.36	2064.35
822.53	2174.94
822.70	2047.97
822.88	2160.61
823.05	2306.01
823.22	2179.04
823.39	2226.14
823.56	2205.66
823.74	2369.50
823.91	2078.69
824.08	2088.93
824.25	2168.80
824.42	2312.16
824.60	2064.35
824.77	2127.84
824.94	2093.02
825.11	2230.24
825.28	2095.07
825.45	2207.71
825.63	2207.71
825.80	2119.65
825.97	2240.48
826.14	2170.85
826.31	2144.22
826.48	2215.90
826.66	2125.79
826.83	2154.46
827.00	2127.84
827.17	2072.54
827.34	2127.84
827.51	2166.75
827.69	2193.37
827.86	2138.08
828.03	2111.46
828.20	2084.83
828.37	2113.50
828.54	2260.96
828.71	2183.13
828.89	2351.07
829.06	2252.77
829.23	2344.92
829.40	2109.41
829.57	2131.94
829.74	2250.72
829.91	2160.61
830.09	2152.42
830.26	2250.72
830.43	2404.32
830.60	2230.24
830.77	2179.04
830.94	2285.53
831.11	2263.01
831.28	2166.75
831.46	2273.25
831.63	2144.22
831.80	2263.01
831.97	2123.74
832.14	2129.89
832.31	2207.71
832.48	2158.56
832.65	2256.86
832.82	2131.94
832.99	2301.92
833.17	2041.82
833.34	2285.53
833.51	2172.89
833.68	1929.19
833.85	2322.40
834.02	2105.31
834.19	2041.82
834.36	2129.89
834.53	2232.29
834.70	2271.20
834.87	2250.72
835.04	2121.70
835.22	2111.46
835.39	2160.61
835.56	2019.30
835.73	2095.07
835.90	2265.05
836.07	2066.40
836.24	2236.38
836.41	2138.08
836.58	2105.31
836.75	2269.15
836.92	2228.19
837.09	2103.26
837.26	2301.92
837.43	2185.18
837.60	2213.85
837.77	2115.55
837.94	2217.95
838.12	2285.53
838.29	2170.85
838.46	2076.64
838.63	2113.50
838.80	2297.82
838.97	2224.09
839.14	2039.78
839.31	2207.71
839.48	2234.33
839.65	2168.80
839.82	2129.89
839.99	2209.76
840.16	2162.66
840.33	2207.71
840.50	2152.42
840.67	2054.11
840.84	1978.34
841.01	2133.98
841.18	2119.65
841.35	2133.98
841.52	2236.38
841.69	2359.26
841.86	2136.03
842.03	2154.46
842.20	2273.25
842.37	2140.13
842.54	2183.13
842.71	2142.18
842.88	2021.35
843.05	2232.29
843.22	2111.46
843.39	2271.20
843.56	2117.60
843.73	2133.98
843.90	2179.04
844.07	2181.09
844.24	2228.19
844.41	2209.76
844.58	2211.81
844.75	2107.36
844.92	2258.91
845.09	2176.99
845.26	2127.84
845.43	2275.29
845.60	2197.47
845.77	2252.77
845.94	2222.05
846.10	2297.82
846.27	2086.88
846.44	2111.46
846.61	2066.40
846.78	2254.81
846.95	2246.62
847.12	2179.04
847.29	2215.90
847.46	2148.32
847.63	2252.77
847.80	2170.85
847.97	2121.70
848.14	2269.15
848.31	2174.94
848.48	1990.63
848.65	2136.03
848.82	2062.30
848.98	2340.83
849.15	2191.33
849.32	2252.77
849.49	2291.68
849.66	2211.81
849.83	2236.38
850.00	2037.73
850.17	2244.57
850.34	2185.18
850.51	2072.54
850.68	2052.06
850.85	2316.25
851.01	2162.66
851.18	2133.98
851.35	2076.64
851.52	2252.77
851.69	2330.59
851.86	2062.30
852.03	2170.85
852.20	2275.29
852.37	2191.33
852.53	2004.96
852.70	2148.32
852.87	2183.13
853.04	2271.20
853.21	2144.22
853.38	2297.82
853.55	2308.06
853.72	2224.09
853.89	2056.16
854.05	2115.55
854.22	2103.26
854.39	2113.50
854.56	2140.13
854.73	2246.62
854.90	2047.97
855.07	2176.99
855.23	2052.06
855.40	2088.93
855.57	2121.70
855.74	1998.82
855.91	2346.97
856.08	2023.39
856.25	2021.35
856.41	2193.37
856.58	2123.74
856.75	2170.85
856.92	2138.08
857.09	2295.77
857.26	2043.87
857.42	2185.18
857.59	2265.05
857.76	2156.51
857.93	2205.66
858.10	2146.27
858.27	2117.60
858.43	2207.71
858.60	2133.98
858.77	1957.86
858.94	2131.94
859.11	2306.01
859.27	2158.56
859.44	2133.98
859.61	2349.02
859.78	2234.33
859.95	2117.60
860.12	2125.79
860.28	2367.45
860.45	2420.70
860.62	2146.27
860.79	2170.85
860.95	2174.94
861.12	2074.59
861.29	2027.49
861.46	2158.56
861.63	2127.84
861.79	2154.46
861.96	2125.79
862.13	2117.60
862.30	2336.73
862.47	2080.74
862.63	2121.70
862.80	2271.20
862.97	2213.85
863.14	2209.76
863.30	2176.99
863.47	2129.89
863.64	2334.68
863.81	2193.37
863.97	2064.35
864.14	2207.71
864.31	2160.61
864.48	2142.18
864.65	2220.00
864.81	2267.10
864.98	2244.57
865.15	2273.25
865.32	2193.37
865.48	2191.33
865.65	2359.26
865.82	2109.41
865.98	2166.75
866.15	2220.00
866.32	2160.61
866.49	2129.89
866.65	2236.38
866.82	2054.11
866.99	2193.37
867.16	2168.80
867.32	2086.88
867.49	2074.59
867.66	2179.04
867.83	2142.18
867.99	1982.43
868.16	2125.79
868.33	2103.26
868.49	2160.61
868.66	2105.31
868.83	2226.14
868.99	2179.04
869.16	2156.51
869.33	2308.06
869.50	2209.76
869.66	2162.66
869.83	2133.98
870.00	2162.66
870.16	2236.38
870.33	2168.80
870.50	2236.38
870.66	2138.08
870.83	2179.04
871.00	2234.33
871.17	2230.24
871.33	2213.85
871.50	2093.02
871.67	2213.85
871.83	2097.12
872.00	2277.34
872.17	2187.23
872.33	2349.02
872.50	2328.54
872.67	2146.27
872.83	2195.42
873.00	2217.95
873.17	2109.41
873.33	2195.42
873.50	2238.43
873.67	2152.42
873.83	2072.54
874.00	2078.69
874.16	2199.52
874.33	2195.42
874.50	2060.26
874.66	2220.00
874.83	2162.66
875.00	2207.71
875.16	2312.16
875.33	2234.33
875.50	1941.47
875.66	2050.02
875.83	2158.56
875.99	2213.85
876.16	2158.56
876.33	2027.49
876.49	2172.89
876.66	2189.28
876.83	2193.37
876.99	2107.36
877.16	2174.94
877.32	2095.07
877.49	2117.60
877.66	2150.37
877.82	2320.35
877.99	2201.57
878.15	2289.63
878.32	2269.15
878.49	2203.61
878.65	2129.89
878.82	2238.43
878.98	2123.74
879.15	2258.91
879.32	2232.29
879.48	2181.09
879.65	2191.33
879.81	2099.17
879.98	2185.18
880.15	2265.05
880.31	2201.57
880.48	2113.50
880.64	2291.68
880.81	2195.42
880.97	2359.26
881.14	2377.69
881.31	2136.03
881.47	2320.35
881.64	2203.61
881.80	2047.97
881.97	2224.09
882.13	2244.57
882.30	2072.54
882.47	2127.84
882.63	2142.18
882.80	2119.65
882.96	2150.37
883.13	2240.48
883.29	2168.80
883.46	2121.70
883.62	2371.55
883.79	2131.94
883.95	2301.92
884.12	2105.31
884.29	2297.82
884.45	2209.76
884.62	2162.66
884.78	2170.85
884.95	2349.02
885.11	2080.74
885.28	2230.24
885.44	2146.27
885.61	2256.86
885.77	2310.11
885.94	2176.99
886.10	2228.19
886.27	2103.26
886.43	2320.35
886.60	2250.72
886.76	2156.51
886.93	2156.51
887.09	2136.03
887.26	2025.44
887.42	2131.94
887.59	2258.91
887.75	2308.06
887.92	2199.52
888.08	2203.61
888.25	2412.51
888.41	2209.76
888.58	2146.27
888.74	2140.13
888.91	2179.04
>>>>>End Processed Spectral Data<<<<<
