SpectraSuite Data File
++++++++++++++++++++++++++++++++++++
Date: Thu May 05 12:35:34 CEST 2016
User: root
Dark Spectrum Present: No
Reference Spectrum Present: No
Number of Sampled Component Spectra: 1
Spectrometers: USB4C02835
Integration Time (usec): 100000 (USB4C02835)
Spectra Averaged: 1 (USB4C02835)
Boxcar Smoothing: 0 (USB4C02835)
Correct for Electrical Dark: No (USB4C02835)
Strobe/Lamp Enabled: No (USB4C02835)
Correct for Detector Non-linearity: No (USB4C02835)
Correct for Stray Light: No (USB4C02835)
Number of Pixels in Processed Spectrum: 3648
>>>>>Begin Processed Spectral Data<<<<<
177.47	1857.51
177.69	1857.51
177.91	1857.51
178.13	1748.97
178.36	1826.79
178.58	2105.31
178.80	2230.24
179.02	2082.78
179.24	2121.70
179.46	2138.08
179.68	2179.04
179.90	2203.61
180.13	2230.24
180.35	1996.77
180.57	2179.04
180.79	2256.86
181.01	2187.23
181.23	2217.95
181.45	2256.86
181.67	2226.14
181.90	2318.30
182.12	2111.46
182.34	1980.39
182.56	2260.96
182.78	2254.81
183.00	2111.46
183.22	2109.41
183.44	2043.87
183.66	2443.23
183.89	2285.53
184.11	2140.13
184.33	2228.19
184.55	2269.15
184.77	2154.46
184.99	2158.56
185.21	2195.42
185.43	2465.75
185.65	2093.02
185.87	2107.36
186.10	2445.27
186.32	2392.03
186.54	2152.42
186.76	2142.18
186.98	2185.18
187.20	2176.99
187.42	2066.40
187.64	2080.74
187.86	2244.57
188.08	2340.83
188.30	2113.50
188.52	2146.27
188.75	2293.72
188.97	2392.03
189.19	2082.78
189.41	2066.40
189.63	2271.20
189.85	2111.46
190.07	2078.69
190.29	2007.01
190.51	2183.13
190.73	2047.97
190.95	2301.92
191.17	2129.89
191.39	2074.59
191.61	2162.66
191.84	2082.78
192.06	2158.56
192.28	2052.06
192.50	2455.51
192.72	2191.33
192.94	2162.66
193.16	2344.92
193.38	2254.81
193.60	2074.59
193.82	2197.47
194.04	2375.64
194.26	2244.57
194.48	2195.42
194.70	2097.12
194.92	2111.46
195.14	2232.29
195.36	2072.54
195.58	2138.08
195.80	2250.72
196.02	2170.85
196.24	2039.78
196.46	2232.29
196.69	2099.17
196.91	2439.13
197.13	2109.41
197.35	2125.79
197.57	2326.49
197.79	2285.53
198.01	2179.04
198.23	2146.27
198.45	2187.23
198.67	2109.41
198.89	2025.44
199.11	2154.46
199.33	2187.23
199.55	1964.00
199.77	2054.11
199.99	2203.61
200.21	2074.59
200.43	2250.72
200.65	2058.21
200.87	2074.59
201.09	2160.61
201.31	2164.70
201.53	2244.57
201.75	2158.56
201.97	2121.70
202.19	2156.51
202.41	2142.18
202.63	2314.20
202.85	2232.29
203.07	2207.71
203.29	2160.61
203.51	2074.59
203.73	2146.27
203.95	2445.27
204.17	2228.19
204.39	2226.14
204.61	2121.70
204.83	2121.70
205.05	2252.77
205.27	2215.90
205.49	2353.12
205.71	2125.79
205.93	2039.78
206.15	2080.74
206.37	2197.47
206.59	2146.27
206.81	2052.06
207.03	2043.87
207.25	2117.60
207.47	2281.44
207.69	2105.31
207.91	2365.40
208.13	2332.64
208.34	2154.46
208.56	2068.45
208.78	2205.66
209.00	2162.66
209.22	2086.88
209.44	2195.42
209.66	2121.70
209.88	2203.61
210.10	2207.71
210.32	2070.50
210.54	2232.29
210.76	2197.47
210.98	2232.29
211.20	1980.39
211.42	2138.08
211.64	2369.50
211.86	2152.42
212.08	2162.66
212.30	2181.09
212.52	2162.66
212.74	2310.11
212.96	2142.18
213.17	2166.75
213.39	2303.96
213.61	2275.29
213.83	2156.51
214.05	2226.14
214.27	2318.30
214.49	2058.21
214.71	2062.30
214.93	2256.86
215.15	2217.95
215.37	2297.82
215.59	2023.39
215.81	2238.43
216.03	2330.59
216.24	2260.96
216.46	2090.98
216.68	2146.27
216.90	2295.77
217.12	2281.44
217.34	2172.89
217.56	2242.53
217.78	2324.44
218.00	2289.63
218.22	2142.18
218.44	2142.18
218.66	2207.71
218.87	2447.32
219.09	2209.76
219.31	2183.13
219.53	2215.90
219.75	2138.08
219.97	2127.84
220.19	2150.37
220.41	2207.71
220.63	2412.51
220.85	2125.79
221.06	2084.83
221.28	2258.91
221.50	2260.96
221.72	2136.03
221.94	2023.39
222.16	2220.00
222.38	2281.44
222.60	2150.37
222.82	2152.42
223.03	2269.15
223.25	2113.50
223.47	2166.75
223.69	2306.01
223.91	2260.96
224.13	2172.89
224.35	2099.17
224.57	2162.66
224.78	2248.67
225.00	1982.43
225.22	2203.61
225.44	2187.23
225.66	2211.81
225.88	2174.94
226.10	2121.70
226.32	2193.37
226.53	2318.30
226.75	2146.27
226.97	2088.93
227.19	2162.66
227.41	2103.26
227.63	2097.12
227.85	2060.26
228.06	2183.13
228.28	2234.33
228.50	2297.82
228.72	2045.92
228.94	2080.74
229.16	2062.30
229.37	2148.32
229.59	2047.97
229.81	2254.81
230.03	2121.70
230.25	2070.50
230.47	2047.97
230.69	2093.02
230.90	2332.64
231.12	2133.98
231.34	2158.56
231.56	2269.15
231.78	2035.68
232.00	2226.14
232.21	2076.64
232.43	2084.83
232.65	2007.01
232.87	2293.72
233.09	2146.27
233.30	2047.97
233.52	2281.44
233.74	2158.56
233.96	2060.26
234.18	2185.18
234.40	2166.75
234.61	2441.18
234.83	2047.97
235.05	2082.78
235.27	2443.23
235.49	2355.16
235.70	2047.97
235.92	2181.09
236.14	2215.90
236.36	2416.60
236.58	2017.25
236.79	2230.24
237.01	2179.04
237.23	2211.81
237.45	2269.15
237.67	2133.98
237.88	2240.48
238.10	2363.36
238.32	2072.54
238.54	2117.60
238.76	2174.94
238.97	2080.74
239.19	2056.16
239.41	2187.23
239.63	2299.87
239.85	2179.04
240.06	2207.71
240.28	2109.41
240.50	2373.60
240.72	2213.85
240.93	2160.61
241.15	2222.05
241.37	2199.52
241.59	2277.34
241.81	2105.31
242.02	2222.05
242.24	2236.38
242.46	2144.22
242.68	2023.39
242.89	2189.28
243.11	2306.01
243.33	2115.55
243.55	2220.00
243.76	2146.27
243.98	2185.18
244.20	2240.48
244.42	2086.88
244.64	2109.41
244.85	2072.54
245.07	2125.79
245.29	2146.27
245.51	2150.37
245.72	2220.00
245.94	2314.20
246.16	2109.41
246.38	2166.75
246.59	2097.12
246.81	2109.41
247.03	2084.83
247.24	2080.74
247.46	2131.94
247.68	2181.09
247.90	2088.93
248.11	2121.70
248.33	2301.92
248.55	2144.22
248.77	2166.75
248.98	2187.23
249.20	2303.96
249.42	2201.57
249.64	2144.22
249.85	2164.70
250.07	2138.08
250.29	2191.33
250.50	2170.85
250.72	2066.40
250.94	2291.68
251.16	2428.89
251.37	2228.19
251.59	2217.95
251.81	2258.91
252.02	2291.68
252.24	2080.74
252.46	2232.29
252.68	2164.70
252.89	2146.27
253.11	2041.82
253.33	2291.68
253.54	2330.59
253.76	2009.06
253.98	2064.35
254.20	2052.06
254.41	2123.74
254.63	2226.14
254.85	2166.75
255.06	2174.94
255.28	2205.66
255.50	2256.86
255.71	2107.36
255.93	2056.16
256.15	2152.42
256.36	2267.10
256.58	2097.12
256.80	2080.74
257.02	2082.78
257.23	2193.37
257.45	2185.18
257.67	2187.23
257.88	2138.08
258.10	2232.29
258.32	2138.08
258.53	2154.46
258.75	2367.45
258.97	2144.22
259.18	2131.94
259.40	2107.36
259.62	2375.64
259.83	2351.07
260.05	2195.42
260.27	2496.47
260.48	2232.29
260.70	2101.22
260.92	2074.59
261.13	2193.37
261.35	2220.00
261.57	2215.90
261.78	2037.73
262.00	2107.36
262.22	2181.09
262.43	2097.12
262.65	2084.83
262.86	2060.26
263.08	2463.71
263.30	2185.18
263.51	2056.16
263.73	2080.74
263.95	2365.40
264.16	2150.37
264.38	2084.83
264.60	2185.18
264.81	2115.55
265.03	2224.09
265.25	2308.06
265.46	2146.27
265.68	2326.49
265.89	2263.01
266.11	1994.72
266.33	2113.50
266.54	2260.96
266.76	2209.76
266.98	2199.52
267.19	2176.99
267.41	2269.15
267.62	2179.04
267.84	2045.92
268.06	2068.45
268.27	2228.19
268.49	2273.25
268.70	2195.42
268.92	2142.18
269.14	2070.50
269.35	2090.98
269.57	2199.52
269.79	2199.52
270.00	2254.81
270.22	2277.34
270.43	2066.40
270.65	1990.63
270.87	2174.94
271.08	2291.68
271.30	2211.81
271.51	2146.27
271.73	2201.57
271.95	2326.49
272.16	2076.64
272.38	2187.23
272.59	2099.17
272.81	2312.16
273.02	2158.56
273.24	2213.85
273.46	2332.64
273.67	2070.50
273.89	2007.01
274.10	2133.98
274.32	2277.34
274.54	2269.15
274.75	2226.14
274.97	2176.99
275.18	2236.38
275.40	2283.49
275.61	2154.46
275.83	2207.71
276.05	2113.50
276.26	2179.04
276.48	2203.61
276.69	2129.89
276.91	2101.22
277.12	2342.88
277.34	2277.34
277.55	2254.81
277.77	2195.42
277.99	2148.32
278.20	2076.64
278.42	2070.50
278.63	2105.31
278.85	2109.41
279.06	2101.22
279.28	2258.91
279.49	2258.91
279.71	2252.77
279.93	2248.67
280.14	2209.76
280.36	2148.32
280.57	2306.01
280.79	2246.62
281.00	2056.16
281.22	2144.22
281.43	2295.77
281.65	1996.77
281.86	2123.74
282.08	2189.28
282.29	2400.22
282.51	2084.83
282.73	2054.11
282.94	2047.97
283.16	2248.67
283.37	2357.21
283.59	2207.71
283.80	2215.90
284.02	2146.27
284.23	2183.13
284.45	2082.78
284.66	2080.74
284.88	2121.70
285.09	2207.71
285.31	2217.95
285.52	2260.96
285.74	1988.58
285.95	2260.96
286.17	2111.46
286.38	2320.35
286.60	2148.32
286.81	2191.33
287.03	2154.46
287.24	2162.66
287.46	2234.33
287.67	2244.57
287.89	2308.06
288.10	2185.18
288.32	2246.62
288.53	2252.77
288.75	2189.28
288.96	2226.14
289.18	2074.59
289.39	2176.99
289.61	2232.29
289.82	2371.55
290.04	2373.60
290.25	2119.65
290.47	2162.66
290.68	2172.89
290.90	2260.96
291.11	2013.15
291.33	2295.77
291.54	2035.68
291.76	2185.18
291.97	2146.27
292.18	2211.81
292.40	2191.33
292.61	2121.70
292.83	2453.47
293.04	2199.52
293.26	2267.10
293.47	2154.46
293.69	2088.93
293.90	2121.70
294.12	2303.96
294.33	2156.51
294.55	2101.22
294.76	2320.35
294.97	2260.96
295.19	2365.40
295.40	2103.26
295.62	2181.09
295.83	2238.43
296.05	2084.83
296.26	2342.88
296.48	2093.02
296.69	2179.04
296.90	2131.94
297.12	2254.81
297.33	2203.61
297.55	2244.57
297.76	2220.00
297.98	2258.91
298.19	2164.70
298.41	2187.23
298.62	2150.37
298.83	2322.40
299.05	2170.85
299.26	2152.42
299.48	2142.18
299.69	2230.24
299.90	2176.99
300.12	2109.41
300.33	2271.20
300.55	2170.85
300.76	2197.47
300.98	2019.30
301.19	2252.77
301.40	2179.04
301.62	2131.94
301.83	2279.39
302.05	2189.28
302.26	2181.09
302.47	2203.61
302.69	2011.11
302.90	2238.43
303.12	1949.67
303.33	2228.19
303.54	2371.55
303.76	2105.31
303.97	2129.89
304.19	2318.30
304.40	2174.94
304.61	2195.42
304.83	2334.68
305.04	2275.29
305.26	2320.35
305.47	2193.37
305.68	2191.33
305.90	2103.26
306.11	2265.05
306.33	2289.63
306.54	2217.95
306.75	2117.60
306.97	2058.21
307.18	2082.78
307.39	2144.22
307.61	2248.67
307.82	2138.08
308.04	2275.29
308.25	2076.64
308.46	2156.51
308.68	2228.19
308.89	2234.33
309.10	2246.62
309.32	2230.24
309.53	2160.61
309.74	2228.19
309.96	2168.80
310.17	2295.77
310.39	2129.89
310.60	2213.85
310.81	2148.32
311.03	2066.40
311.24	2236.38
311.45	2191.33
311.67	2342.88
311.88	2222.05
312.09	2170.85
312.31	2181.09
312.52	2172.89
312.73	2064.35
312.95	2097.12
313.16	2097.12
313.37	2232.29
313.59	2215.90
313.80	2256.86
314.01	2299.87
314.23	2164.70
314.44	2174.94
314.65	2111.46
314.87	2156.51
315.08	2154.46
315.29	2117.60
315.51	2105.31
315.72	2064.35
315.93	2330.59
316.15	2117.60
316.36	2172.89
316.57	2125.79
316.79	2240.48
317.00	2203.61
317.21	2301.92
317.43	2162.66
317.64	2203.61
317.85	2154.46
318.07	2101.22
318.28	2209.76
318.49	2291.68
318.70	2484.19
318.92	2320.35
319.13	2381.79
319.34	2365.40
319.56	2260.96
319.77	2332.64
319.98	2265.05
320.20	2394.08
320.41	2242.53
320.62	2394.08
320.83	2129.89
321.05	2334.68
321.26	2230.24
321.47	2185.18
321.69	2359.26
321.90	2033.63
322.11	2142.18
322.32	2224.09
322.54	2371.55
322.75	2123.74
322.96	2519.00
323.18	2070.50
323.39	2050.02
323.60	2174.94
323.81	2191.33
324.03	2185.18
324.24	2224.09
324.45	2234.33
324.66	2168.80
324.88	2279.39
325.09	2400.22
325.30	2146.27
325.52	2320.35
325.73	2209.76
325.94	1980.39
326.15	2103.26
326.37	2166.75
326.58	2308.06
326.79	2285.53
327.00	2136.03
327.22	2232.29
327.43	2142.18
327.64	2084.83
327.85	2224.09
328.07	2146.27
328.28	2359.26
328.49	2166.75
328.70	2195.42
328.92	2121.70
329.13	2199.52
329.34	2215.90
329.55	2308.06
329.76	2269.15
329.98	2185.18
330.19	2402.27
330.40	2215.90
330.61	2189.28
330.83	2299.87
331.04	2148.32
331.25	2220.00
331.46	2176.99
331.68	2047.97
331.89	2293.72
332.10	2125.79
332.31	2090.98
332.52	2113.50
332.74	2295.77
332.95	2072.54
333.16	2232.29
333.37	2332.64
333.58	2230.24
333.80	2168.80
334.01	2113.50
334.22	2142.18
334.43	2105.31
334.64	2195.42
334.86	2031.58
335.07	2117.60
335.28	2383.84
335.49	2068.45
335.70	2191.33
335.92	2396.12
336.13	2439.13
336.34	2236.38
336.55	2201.57
336.76	2258.91
336.98	1996.77
337.19	2172.89
337.40	2377.69
337.61	2402.27
337.82	2150.37
338.04	2267.10
338.25	2064.35
338.46	2195.42
338.67	2154.46
338.88	2084.83
339.09	2109.41
339.31	2150.37
339.52	2138.08
339.73	2105.31
339.94	2146.27
340.15	2254.81
340.36	2097.12
340.58	2117.60
340.79	2078.69
341.00	2220.00
341.21	2107.36
341.42	2355.16
341.63	2152.42
341.85	2269.15
342.06	2228.19
342.27	2045.92
342.48	2242.53
342.69	2080.74
342.90	2232.29
343.12	2363.36
343.33	2174.94
343.54	2285.53
343.75	2297.82
343.96	2170.85
344.17	2076.64
344.38	2187.23
344.60	2154.46
344.81	2045.92
345.02	2187.23
345.23	2381.79
345.44	2428.89
345.65	2162.66
345.86	2242.53
346.07	2166.75
346.29	2179.04
346.50	2297.82
346.71	2195.42
346.92	2326.49
347.13	2402.27
347.34	2183.13
347.55	2164.70
347.76	2246.62
347.98	2062.30
348.19	2195.42
348.40	2265.05
348.61	2174.94
348.82	2375.64
349.03	2295.77
349.24	2099.17
349.45	2293.72
349.66	2031.58
349.88	2152.42
350.09	2093.02
350.30	2410.46
350.51	2273.25
350.72	2213.85
350.93	2213.85
351.14	2168.80
351.35	2201.57
351.56	2203.61
351.77	2158.56
351.99	2258.91
352.20	2389.98
352.41	2310.11
352.62	2047.97
352.83	2152.42
353.04	2181.09
353.25	2152.42
353.46	2283.49
353.67	2318.30
353.88	2045.92
354.09	2230.24
354.30	2162.66
354.52	2211.81
354.73	2260.96
354.94	2056.16
355.15	2154.46
355.36	2406.36
355.57	2220.00
355.78	2170.85
355.99	2183.13
356.20	2127.84
356.41	2334.68
356.62	2179.04
356.83	2187.23
357.04	2357.21
357.25	2080.74
357.46	2193.37
357.68	2045.92
357.89	2117.60
358.10	2197.47
358.31	2228.19
358.52	2113.50
358.73	2115.55
358.94	2156.51
359.15	2076.64
359.36	2267.10
359.57	2170.85
359.78	2158.56
359.99	2273.25
360.20	2129.89
360.41	2160.61
360.62	2287.58
360.83	2146.27
361.04	2207.71
361.25	2230.24
361.46	2310.11
361.67	2244.57
361.88	2189.28
362.09	2238.43
362.30	2256.86
362.51	2127.84
362.72	2213.85
362.93	2326.49
363.14	2285.53
363.35	2193.37
363.56	2158.56
363.78	2293.72
363.99	2301.92
364.20	2197.47
364.41	2185.18
364.62	2420.70
364.83	2230.24
365.04	2133.98
365.25	2179.04
365.46	2344.92
365.67	2068.45
365.88	2146.27
366.09	2217.95
366.30	2129.89
366.51	2191.33
366.72	2097.12
366.93	2228.19
367.14	2234.33
367.35	2256.86
367.56	2197.47
367.77	2283.49
367.98	2142.18
368.18	2256.86
368.39	2234.33
368.60	2109.41
368.81	2277.34
369.02	2209.76
369.23	2156.51
369.44	2074.59
369.65	2197.47
369.86	2232.29
370.07	2176.99
370.28	2146.27
370.49	2240.48
370.70	2209.76
370.91	2131.94
371.12	2115.55
371.33	2322.40
371.54	2080.74
371.75	2310.11
371.96	2021.35
372.17	2179.04
372.38	2144.22
372.59	2222.05
372.80	2113.50
373.01	2170.85
373.22	2244.57
373.43	2248.67
373.64	2097.12
373.85	2326.49
374.06	2340.83
374.26	2205.66
374.47	2250.72
374.68	2357.21
374.89	2224.09
375.10	2209.76
375.31	2242.53
375.52	2234.33
375.73	2230.24
375.94	2062.30
376.15	2346.97
376.36	2103.26
376.57	2162.66
376.78	2084.83
376.99	2121.70
377.20	2267.10
377.40	2146.27
377.61	2389.98
377.82	2068.45
378.03	2363.36
378.24	2371.55
378.45	2154.46
378.66	2267.10
378.87	2062.30
379.08	2054.11
379.29	2191.33
379.50	2346.97
379.71	2176.99
379.91	2310.11
380.12	2138.08
380.33	2133.98
380.54	2166.75
380.75	2125.79
380.96	2174.94
381.17	2242.53
381.38	2179.04
381.59	2256.86
381.80	2179.04
382.00	2338.78
382.21	2222.05
382.42	2502.62
382.63	2432.99
382.84	2224.09
383.05	2326.49
383.26	2258.91
383.47	2258.91
383.68	2273.25
383.88	2248.67
384.09	2195.42
384.30	2310.11
384.51	2254.81
384.72	2168.80
384.93	2193.37
385.14	2203.61
385.35	2195.42
385.55	2119.65
385.76	2326.49
385.97	2150.37
386.18	2000.87
386.39	2220.00
386.60	2140.13
386.81	2146.27
387.02	2185.18
387.22	2023.39
387.43	2324.44
387.64	2217.95
387.85	2306.01
388.06	2430.94
388.27	4114.37
388.48	8759.16
388.68	12312.39
388.89	14675.74
389.10	15785.74
389.31	14587.68
389.52	11312.98
389.73	9838.44
389.93	9054.07
390.14	8296.32
390.35	7296.91
390.56	6625.18
390.77	5314.48
390.98	4247.49
391.18	3235.79
391.39	2793.43
391.60	2275.29
391.81	2316.25
392.02	2203.61
392.23	2459.61
392.43	2293.72
392.64	2328.54
392.85	2244.57
393.06	2396.12
393.27	2211.81
393.47	2080.74
393.68	2252.77
393.89	2148.32
394.10	2295.77
394.31	2111.46
394.52	2150.37
394.72	2148.32
394.93	2398.17
395.14	2101.22
395.35	2244.57
395.56	2166.75
395.76	2236.38
395.97	2246.62
396.18	2318.30
396.39	2351.07
396.60	2541.53
396.80	2486.23
397.01	2398.17
397.22	2398.17
397.43	2428.89
397.64	2310.11
397.84	2392.03
398.05	2459.61
398.26	2193.37
398.47	2359.26
398.67	2293.72
398.88	2213.85
399.09	2277.34
399.30	2056.16
399.51	2226.14
399.71	2168.80
399.92	2164.70
400.13	2244.57
400.34	2084.83
400.54	2203.61
400.75	2367.45
400.96	2299.87
401.17	2400.22
401.37	2260.96
401.58	2113.50
401.79	2213.85
402.00	2287.58
402.21	2605.02
402.41	2533.34
402.62	2570.20
402.83	2664.41
403.04	2641.88
403.24	2723.80
403.45	2285.53
403.66	2490.33
403.87	2430.94
404.07	2453.47
404.28	2447.32
404.49	2500.57
404.70	2314.20
404.90	2324.44
405.11	2185.18
405.32	2310.11
405.52	2095.07
405.73	2115.55
405.94	2093.02
406.15	2121.70
406.35	2263.01
406.56	2314.20
406.77	2183.13
406.98	2254.81
407.18	2170.85
407.39	2338.78
407.60	2146.27
407.80	2220.00
408.01	2138.08
408.22	2220.00
408.43	2160.61
408.63	2191.33
408.84	2299.87
409.05	2193.37
409.25	2074.59
409.46	2103.26
409.67	2133.98
409.88	2203.61
410.08	2242.53
410.29	2183.13
410.50	2260.96
410.70	2256.86
410.91	2138.08
411.12	2215.90
411.32	2220.00
411.53	2119.65
411.74	2342.88
411.95	2250.72
412.15	2246.62
412.36	2359.26
412.57	2299.87
412.77	2361.31
412.98	2138.08
413.19	2215.90
413.39	2269.15
413.60	2297.82
413.81	2400.22
414.01	2195.42
414.22	2248.67
414.43	2303.96
414.63	2207.71
414.84	2357.21
415.05	2199.52
415.25	2072.54
415.46	2273.25
415.67	2220.00
415.87	2250.72
416.08	2201.57
416.29	2170.85
416.49	2293.72
416.70	2136.03
416.91	2146.27
417.11	2142.18
417.32	2252.77
417.53	2295.77
417.73	2250.72
417.94	2179.04
418.15	2224.09
418.35	2183.13
418.56	2131.94
418.77	2424.80
418.97	2260.96
419.18	2160.61
419.38	1941.47
419.59	2156.51
419.80	2324.44
420.00	2222.05
420.21	2144.22
420.42	2338.78
420.62	2209.76
420.83	2090.98
421.04	2185.18
421.24	2162.66
421.45	2238.43
421.65	2201.57
421.86	2185.18
422.07	2281.44
422.27	2238.43
422.48	2256.86
422.69	2148.32
422.89	2199.52
423.10	2201.57
423.30	2037.73
423.51	2217.95
423.72	2217.95
423.92	2332.64
424.13	2109.41
424.33	2199.52
424.54	2258.91
424.75	2146.27
424.95	2377.69
425.16	2189.28
425.36	2226.14
425.57	2312.16
425.78	2215.90
425.98	2230.24
426.19	2220.00
426.39	2154.46
426.60	2301.92
426.81	2258.91
427.01	2222.05
427.22	2138.08
427.42	2064.35
427.63	2029.54
427.83	2220.00
428.04	2322.40
428.25	2283.49
428.45	2301.92
428.66	2293.72
428.86	2189.28
429.07	2250.72
429.28	2162.66
429.48	2129.89
429.69	2197.47
429.89	2164.70
430.10	2099.17
430.30	2236.38
430.51	2359.26
430.71	2064.35
430.92	2142.18
431.13	2072.54
431.33	2299.87
431.54	2168.80
431.74	2349.02
431.95	2338.78
432.15	2095.07
432.36	2138.08
432.56	2269.15
432.77	2392.03
432.98	2308.06
433.18	2263.01
433.39	2121.70
433.59	2267.10
433.80	2406.36
434.00	2365.40
434.21	2113.50
434.41	2195.42
434.62	2455.51
434.82	2117.60
435.03	2045.92
435.23	2230.24
435.44	2070.50
435.64	2174.94
435.85	2220.00
436.06	2265.05
436.26	2295.77
436.47	2174.94
436.67	2023.39
436.88	2183.13
437.08	2183.13
437.29	2320.35
437.49	2191.33
437.70	2306.01
437.90	2215.90
438.11	2400.22
438.31	2267.10
438.52	2353.12
438.72	2432.99
438.93	2471.90
439.13	2269.15
439.34	2377.69
439.54	2232.29
439.75	2314.20
439.95	2340.83
440.16	2199.52
440.36	2236.38
440.57	2244.57
440.77	2170.85
440.98	2193.37
441.18	2248.67
441.39	2193.37
441.59	2082.78
441.80	2334.68
442.00	2121.70
442.21	2312.16
442.41	2103.26
442.62	2342.88
442.82	2129.89
443.02	2176.99
443.23	2172.89
443.43	2267.10
443.64	2385.88
443.84	2199.52
444.05	2316.25
444.25	2301.92
444.46	2140.13
444.66	2217.95
444.87	2314.20
445.07	2072.54
445.28	2193.37
445.48	2353.12
445.69	2252.77
445.89	2465.75
446.09	2301.92
446.30	2441.18
446.50	2820.05
446.71	4462.52
446.91	5656.49
447.12	6414.24
447.32	6848.41
447.53	6231.97
447.73	5230.51
447.93	4569.02
448.14	4202.43
448.34	4048.83
448.55	3610.57
448.75	3504.07
448.96	3399.63
449.16	3110.86
449.36	2779.09
449.57	2473.95
449.77	2330.59
449.98	2291.68
450.18	2275.29
450.39	2293.72
450.59	2238.43
450.79	2246.62
451.00	2129.89
451.20	2209.76
451.41	2234.33
451.61	2283.49
451.81	2164.70
452.02	2217.95
452.22	2187.23
452.43	2158.56
452.63	2117.60
452.84	2140.13
453.04	2195.42
453.24	2252.77
453.45	2086.88
453.65	2152.42
453.86	2228.19
454.06	2316.25
454.26	2254.81
454.47	2121.70
454.67	2246.62
454.87	2240.48
455.08	2158.56
455.28	2289.63
455.49	2187.23
455.69	2162.66
455.89	2412.51
456.10	2291.68
456.30	2129.89
456.51	2263.01
456.71	2209.76
456.91	2236.38
457.12	2158.56
457.32	2273.25
457.52	2144.22
457.73	2211.81
457.93	2285.53
458.14	2215.90
458.34	2109.41
458.54	2152.42
458.75	2185.18
458.95	2299.87
459.15	2207.71
459.36	2236.38
459.56	2240.48
459.76	2381.79
459.97	2179.04
460.17	2201.57
460.37	2236.38
460.58	2281.44
460.78	2224.09
460.99	2189.28
461.19	2213.85
461.39	2133.98
461.60	2168.80
461.80	2215.90
462.00	2150.37
462.21	2146.27
462.41	2107.36
462.61	2185.18
462.82	2039.78
463.02	2310.11
463.22	2250.72
463.43	2230.24
463.63	2142.18
463.83	2297.82
464.04	2244.57
464.24	2256.86
464.44	2189.28
464.64	2189.28
464.85	2222.05
465.05	2265.05
465.25	2258.91
465.46	2203.61
465.66	2271.20
465.86	2265.05
466.07	2146.27
466.27	2228.19
466.47	2107.36
466.68	2033.63
466.88	2269.15
467.08	2285.53
467.29	2318.30
467.49	2285.53
467.69	2193.37
467.89	2248.67
468.10	2158.56
468.30	2168.80
468.50	2285.53
468.71	2320.35
468.91	2105.31
469.11	2346.97
469.31	2176.99
469.52	2060.26
469.72	2379.74
469.92	2392.03
470.13	2222.05
470.33	2222.05
470.53	2349.02
470.73	2686.94
470.94	3096.53
471.14	3227.60
471.34	3686.34
471.54	3518.41
471.75	3133.39
471.95	2881.49
472.15	2832.34
472.36	2723.80
472.56	2715.61
472.76	2725.85
472.96	2588.63
473.17	2551.77
473.37	2459.61
473.57	2265.05
473.77	2318.30
473.98	2166.75
474.18	2107.36
474.38	2430.94
474.58	2156.51
474.79	2164.70
474.99	2209.76
475.19	2330.59
475.39	2086.88
475.60	2269.15
475.80	2195.42
476.00	2269.15
476.20	2148.32
476.41	2258.91
476.61	2283.49
476.81	2252.77
477.01	2172.89
477.21	2318.30
477.42	2377.69
477.62	2045.92
477.82	2217.95
478.02	2220.00
478.23	2263.01
478.43	2181.09
478.63	2168.80
478.83	2215.90
479.03	2213.85
479.24	2422.75
479.44	2512.86
479.64	2121.70
479.84	2017.25
480.04	2146.27
480.25	2260.96
480.45	2109.41
480.65	2207.71
480.85	2394.08
481.06	2162.66
481.26	2226.14
481.46	2244.57
481.66	2220.00
481.86	2142.18
482.06	2363.36
482.27	2138.08
482.47	2113.50
482.67	2271.20
482.87	2224.09
483.07	2310.11
483.28	2107.36
483.48	2154.46
483.68	2170.85
483.88	2160.61
484.08	2043.87
484.29	2056.16
484.49	2222.05
484.69	2060.26
484.89	2373.60
485.09	2287.58
485.29	2185.18
485.50	2222.05
485.70	2146.27
485.90	2371.55
486.10	2168.80
486.30	2240.48
486.50	2306.01
486.71	2226.14
486.91	2334.68
487.11	2275.29
487.31	2076.64
487.51	2199.52
487.71	2066.40
487.91	2097.12
488.12	2150.37
488.32	2000.87
488.52	2138.08
488.72	1957.86
488.92	2211.81
489.12	2342.88
489.32	2291.68
489.53	2211.81
489.73	2064.35
489.93	2334.68
490.13	2150.37
490.33	2037.73
490.53	2254.81
490.73	2265.05
490.94	2033.63
491.14	2351.07
491.34	2301.92
491.54	2480.09
491.74	3149.78
491.94	3772.36
492.14	4054.98
492.34	4063.17
492.54	3776.45
492.75	3229.65
492.95	3137.49
493.15	2977.75
493.35	2893.78
493.55	2746.33
493.75	2672.60
493.95	2656.22
494.15	2539.48
494.35	2342.88
494.56	2330.59
494.76	2199.52
494.96	2285.53
495.16	2215.90
495.36	2162.66
495.56	2242.53
495.76	2138.08
495.96	2127.84
496.16	2123.74
496.36	2457.56
496.56	2199.52
496.77	2265.05
496.97	2222.05
497.17	2340.83
497.37	2088.93
497.57	2289.63
497.77	2170.85
497.97	2172.89
498.17	2193.37
498.37	2164.70
498.57	2301.92
498.77	2117.60
498.97	2258.91
499.17	2377.69
499.38	2162.66
499.58	2281.44
499.78	2244.57
499.98	2312.16
500.18	2267.10
500.38	2162.66
500.58	2342.88
500.78	2830.29
500.98	5103.54
501.18	7372.69
501.38	9097.08
501.58	10033.00
501.78	9836.39
501.98	7804.81
502.18	6682.52
502.38	5605.29
502.58	5259.18
502.78	4775.86
502.98	4468.67
503.18	4296.64
503.38	3944.39
503.59	3395.53
503.79	3178.45
503.99	2938.84
504.19	2832.34
504.39	2844.63
504.59	2840.53
504.79	2838.48
504.99	2787.29
505.19	2576.34
505.39	2498.52
505.59	2596.82
505.79	2447.32
505.99	2443.23
506.19	2349.02
506.39	2359.26
506.59	2256.86
506.79	2199.52
506.99	2359.26
507.19	2240.48
507.39	2242.53
507.59	2088.93
507.79	2154.46
507.99	2138.08
508.19	2203.61
508.39	2146.27
508.59	2332.64
508.79	2449.37
508.99	2351.07
509.19	2179.04
509.39	2281.44
509.59	2064.35
509.79	2166.75
509.99	2285.53
510.19	2318.30
510.39	2303.96
510.59	2248.67
510.79	2140.13
510.99	2095.07
511.19	2199.52
511.39	2418.65
511.59	2340.83
511.79	2256.86
511.99	2211.81
512.19	2410.46
512.38	2160.61
512.58	2201.57
512.78	2220.00
512.98	2277.34
513.18	2396.12
513.38	2109.41
513.58	2238.43
513.78	2164.70
513.98	2238.43
514.18	2156.51
514.38	2195.42
514.58	2254.81
514.78	2236.38
514.98	2093.02
515.18	2201.57
515.38	2093.02
515.58	2475.99
515.78	2234.33
515.98	2265.05
516.18	2293.72
516.38	2213.85
516.57	2176.99
516.77	2136.03
516.97	2357.21
517.17	2150.37
517.37	2078.69
517.57	2252.77
517.77	2217.95
517.97	2252.77
518.17	2293.72
518.37	2086.88
518.57	2154.46
518.77	2183.13
518.97	2215.90
519.16	2269.15
519.36	2336.73
519.56	2209.76
519.76	2244.57
519.96	2138.08
520.16	2357.21
520.36	2146.27
520.56	2379.74
520.76	2176.99
520.96	2205.66
521.16	2265.05
521.35	2267.10
521.55	2344.92
521.75	2226.14
521.95	2174.94
522.15	2121.70
522.35	2125.79
522.55	2072.54
522.75	2256.86
522.95	2209.76
523.14	2099.17
523.34	2150.37
523.54	2133.98
523.74	2293.72
523.94	2164.70
524.14	2078.69
524.34	2258.91
524.54	2242.53
524.73	2174.94
524.93	2213.85
525.13	2201.57
525.33	2101.22
525.53	2484.19
525.73	2275.29
525.93	2215.90
526.13	2168.80
526.32	2170.85
526.52	2355.16
526.72	2289.63
526.92	2189.28
527.12	2162.66
527.32	2097.12
527.52	2238.43
527.71	2244.57
527.91	2224.09
528.11	2164.70
528.31	2260.96
528.51	2121.70
528.71	2234.33
528.90	2187.23
529.10	2289.63
529.30	2291.68
529.50	2045.92
529.70	2238.43
529.90	2170.85
530.09	2129.89
530.29	2113.50
530.49	2179.04
530.69	2457.56
530.89	2244.57
531.09	2281.44
531.28	2111.46
531.48	2381.79
531.68	2140.13
531.88	2228.19
532.08	2326.49
532.28	2246.62
532.47	2316.25
532.67	2336.73
532.87	2258.91
533.07	2170.85
533.27	2312.16
533.46	2293.72
533.66	2297.82
533.86	2183.13
534.06	2117.60
534.26	2260.96
534.45	2254.81
534.65	2295.77
534.85	2263.01
535.05	2095.07
535.25	2322.40
535.44	1986.53
535.64	2258.91
535.84	2312.16
536.04	2172.89
536.24	2156.51
536.43	2158.56
536.63	2281.44
536.83	2162.66
537.03	2197.47
537.22	2070.50
537.42	2000.87
537.62	2181.09
537.82	2156.51
538.02	2340.83
538.21	2263.01
538.41	2453.47
538.61	2269.15
538.81	2117.60
539.00	2367.45
539.20	2054.11
539.40	2195.42
539.60	2238.43
539.79	2254.81
539.99	2232.29
540.19	2207.71
540.39	2230.24
540.58	2189.28
540.78	2265.05
540.98	2152.42
541.18	2318.30
541.37	2248.67
541.57	2232.29
541.77	2285.53
541.97	2168.80
542.16	2146.27
542.36	2144.22
542.56	2138.08
542.76	2326.49
542.95	2250.72
543.15	2283.49
543.35	2285.53
543.54	2090.98
543.74	2109.41
543.94	2373.60
544.14	2176.99
544.33	2281.44
544.53	2234.33
544.73	2222.05
544.93	2197.47
545.12	2201.57
545.32	2238.43
545.52	2129.89
545.71	2025.44
545.91	2195.42
546.11	2164.70
546.30	2095.07
546.50	2199.52
546.70	2228.19
546.90	2201.57
547.09	2101.22
547.29	2213.85
547.49	2205.66
547.68	2238.43
547.88	2131.94
548.08	2203.61
548.27	2770.90
548.47	2129.89
548.67	2129.89
548.87	2310.11
549.06	2152.42
549.26	2240.48
549.46	2215.90
549.65	2119.65
549.85	2189.28
550.05	2230.24
550.24	2136.03
550.44	2222.05
550.64	2181.09
550.83	2191.33
551.03	2344.92
551.23	2265.05
551.42	2236.38
551.62	2101.22
551.82	2164.70
552.01	2174.94
552.21	2330.59
552.41	2144.22
552.60	2342.88
552.80	2238.43
553.00	2162.66
553.19	2146.27
553.39	2371.55
553.59	2099.17
553.78	2342.88
553.98	2250.72
554.17	2142.18
554.37	2193.37
554.57	2320.35
554.76	2078.69
554.96	2070.50
555.16	2254.81
555.35	2301.92
555.55	2209.76
555.75	2248.67
555.94	2265.05
556.14	2144.22
556.33	2236.38
556.53	2242.53
556.73	2308.06
556.92	2252.77
557.12	2322.40
557.32	2394.08
557.51	2400.22
557.71	2228.19
557.90	2287.58
558.10	2293.72
558.30	2164.70
558.49	2193.37
558.69	2146.27
558.88	2260.96
559.08	2256.86
559.28	2209.76
559.47	2195.42
559.67	2293.72
559.86	2510.81
560.06	2234.33
560.26	2148.32
560.45	2297.82
560.65	2240.48
560.84	2375.64
561.04	2172.89
561.24	2283.49
561.43	2097.12
561.63	2342.88
561.82	2232.29
562.02	2242.53
562.22	2170.85
562.41	2121.70
562.61	2152.42
562.80	2127.84
563.00	2508.76
563.19	2295.77
563.39	2205.66
563.59	2344.92
563.78	2054.11
563.98	2086.88
564.17	2133.98
564.37	2011.11
564.56	2213.85
564.76	2129.89
564.96	2310.11
565.15	2242.53
565.35	2432.99
565.54	2201.57
565.74	2328.54
565.93	2242.53
566.13	2271.20
566.32	2209.76
566.52	2240.48
566.71	2260.96
566.91	2297.82
567.11	2238.43
567.30	2142.18
567.50	2176.99
567.69	2176.99
567.89	2215.90
568.08	2111.46
568.28	2240.48
568.47	2150.37
568.67	2287.58
568.86	2160.61
569.06	2312.16
569.25	2303.96
569.45	2060.26
569.64	2187.23
569.84	2162.66
570.04	2230.24
570.23	2121.70
570.43	2195.42
570.62	2271.20
570.82	2336.73
571.01	2084.83
571.21	2115.55
571.40	2072.54
571.60	2271.20
571.79	2310.11
571.99	2260.96
572.18	2113.50
572.38	2258.91
572.57	2164.70
572.77	2248.67
572.96	2498.52
573.16	2295.77
573.35	2176.99
573.55	2287.58
573.74	2285.53
573.94	2095.07
574.13	2166.75
574.33	2297.82
574.52	2322.40
574.71	2295.77
574.91	2269.15
575.10	2111.46
575.30	2162.66
575.49	2185.18
575.69	2207.71
575.88	2250.72
576.08	2260.96
576.27	2357.21
576.47	2238.43
576.66	2447.32
576.86	2430.94
577.05	2275.29
577.25	2301.92
577.44	2389.98
577.64	2168.80
577.83	2383.84
578.02	2226.14
578.22	2285.53
578.41	2416.60
578.61	2234.33
578.80	2109.41
579.00	2213.85
579.19	2240.48
579.39	2308.06
579.58	2273.25
579.77	2314.20
579.97	2416.60
580.16	2375.64
580.36	2322.40
580.55	2367.45
580.75	2281.44
580.94	2349.02
581.13	2441.18
581.33	2441.18
581.52	2256.86
581.72	2377.69
581.91	2414.56
582.11	2295.77
582.30	2349.02
582.49	2230.24
582.69	2338.78
582.88	2252.77
583.08	2273.25
583.27	2342.88
583.47	2281.44
583.66	2170.85
583.85	2172.89
584.05	2220.00
584.24	2367.45
584.44	2252.77
584.63	2400.22
584.82	2381.79
585.02	2414.56
585.21	2416.60
585.41	2371.55
585.60	2346.97
585.79	2486.23
585.99	2521.05
586.18	2422.75
586.37	2838.48
586.57	4407.23
586.76	13336.37
586.96	33015.30
587.15	46337.34
587.34	55903.40
587.54	60978.27
587.73	56188.07
587.93	39982.49
588.12	30303.79
588.31	24006.29
588.51	21204.67
588.70	19111.64
588.89	17383.16
589.09	15218.46
589.28	13182.77
589.47	10776.41
589.67	8462.21
589.86	6412.19
590.06	4868.02
590.25	3907.52
590.44	3162.06
590.64	2775.00
590.83	2594.78
591.02	2480.09
591.22	2377.69
591.41	2404.32
591.60	2248.67
591.80	2519.00
591.99	2201.57
592.18	2236.38
592.38	2250.72
592.57	2248.67
592.76	2254.81
592.96	2265.05
593.15	2226.14
593.34	2361.31
593.54	2199.52
593.73	2285.53
593.92	2310.11
594.12	2365.40
594.31	2250.72
594.50	2441.18
594.70	2346.97
594.89	2490.33
595.08	2260.96
595.28	2285.53
595.47	2611.16
595.66	2310.11
595.86	2131.94
596.05	2156.51
596.24	2193.37
596.43	2400.22
596.63	2371.55
596.82	2256.86
597.01	2246.62
597.21	2443.23
597.40	2293.72
597.59	2287.58
597.79	2252.77
597.98	2312.16
598.17	2301.92
598.36	2263.01
598.56	2351.07
598.75	2176.99
598.94	2220.00
599.14	2258.91
599.33	2158.56
599.52	2244.57
599.71	2256.86
599.91	2271.20
600.10	2256.86
600.29	2205.66
600.48	2269.15
600.68	2359.26
600.87	2224.09
601.06	2193.37
601.26	2203.61
601.45	2267.10
601.64	2166.75
601.83	2377.69
602.03	2215.90
602.22	2144.22
602.41	2273.25
602.60	2379.74
602.80	2363.36
602.99	2260.96
603.18	2154.46
603.37	2183.13
603.57	2232.29
603.76	2236.38
603.95	2260.96
604.14	2154.46
604.34	2160.61
604.53	2228.19
604.72	2187.23
604.91	2291.68
605.10	2320.35
605.30	2111.46
605.49	2465.75
605.68	2336.73
605.87	2275.29
606.07	2176.99
606.26	2170.85
606.45	2273.25
606.64	2138.08
606.84	2138.08
607.03	2183.13
607.22	2480.09
607.41	2228.19
607.60	2176.99
607.80	2430.94
607.99	2195.42
608.18	2271.20
608.37	2260.96
608.56	2156.51
608.76	2416.60
608.95	2410.46
609.14	2281.44
609.33	2326.49
609.52	2430.94
609.72	2236.38
609.91	2355.16
610.10	2297.82
610.29	2412.51
610.48	2299.87
610.68	2293.72
610.87	2220.00
611.06	2361.31
611.25	2168.80
611.44	2250.72
611.63	2207.71
611.83	2342.88
612.02	2050.02
612.21	2328.54
612.40	2015.20
612.59	2062.30
612.79	2086.88
612.98	2160.61
613.17	2418.65
613.36	2183.13
613.55	2361.31
613.74	2324.44
613.93	2373.60
614.13	2467.80
614.32	2432.99
614.51	2400.22
614.70	2381.79
614.89	2277.34
615.08	2402.27
615.28	2801.62
615.47	2226.14
615.66	2213.85
615.85	2330.59
616.04	2385.88
616.23	2271.20
616.42	2256.86
616.62	2260.96
616.81	2344.92
617.00	2252.77
617.19	2260.96
617.38	2154.46
617.57	2263.01
617.76	2308.06
617.95	2281.44
618.15	2312.16
618.34	2435.03
618.53	2181.09
618.72	2314.20
618.91	2314.20
619.10	2314.20
619.29	2242.53
619.48	2230.24
619.68	2158.56
619.87	2144.22
620.06	2193.37
620.25	2330.59
620.44	2107.36
620.63	2217.95
620.82	2312.16
621.01	2287.58
621.20	2211.81
621.39	2211.81
621.59	2285.53
621.78	2250.72
621.97	2273.25
622.16	2312.16
622.35	2215.90
622.54	2291.68
622.73	2267.10
622.92	2047.97
623.11	2369.50
623.30	2152.42
623.49	2252.77
623.68	2158.56
623.88	2371.55
624.07	2236.38
624.26	2172.89
624.45	2273.25
624.64	2119.65
624.83	2222.05
625.02	2164.70
625.21	2176.99
625.40	2267.10
625.59	2299.87
625.78	2211.81
625.97	2324.44
626.16	2301.92
626.35	2338.78
626.54	2267.10
626.74	2500.57
626.93	2283.49
627.12	2195.42
627.31	2299.87
627.50	2269.15
627.69	2389.98
627.88	2088.93
628.07	2158.56
628.26	2109.41
628.45	2187.23
628.64	2133.98
628.83	2213.85
629.02	2103.26
629.21	2252.77
629.40	2217.95
629.59	2162.66
629.78	2148.32
629.97	2213.85
630.16	2252.77
630.35	2224.09
630.54	2234.33
630.73	2168.80
630.92	2185.18
631.11	2109.41
631.30	2146.27
631.49	2258.91
631.68	2168.80
631.87	2248.67
632.06	2068.45
632.25	2408.41
632.44	2187.23
632.63	2318.30
632.82	2205.66
633.01	2160.61
633.20	2340.83
633.39	2244.57
633.58	2172.89
633.77	2334.68
633.96	2301.92
634.15	2316.25
634.34	2322.40
634.53	2244.57
634.72	2209.76
634.91	2113.50
635.10	2263.01
635.29	2367.45
635.48	2220.00
635.67	2133.98
635.86	2007.01
636.05	2328.54
636.24	2174.94
636.43	2258.91
636.62	2258.91
636.81	1998.82
637.00	2152.42
637.19	2168.80
637.38	2168.80
637.57	2217.95
637.76	2260.96
637.95	2369.50
638.14	2283.49
638.33	2359.26
638.52	2301.92
638.71	2150.37
638.89	2152.42
639.08	2525.15
639.27	2363.36
639.46	2504.67
639.65	2844.63
639.84	2891.73
640.03	3004.37
640.22	2947.03
640.41	3026.90
640.60	2588.63
640.79	2627.54
640.98	2408.41
641.17	2537.43
641.36	2449.37
641.55	2410.46
641.74	2256.86
641.92	2213.85
642.11	2215.90
642.30	2209.76
642.49	2191.33
642.68	2103.26
642.87	2293.72
643.06	2207.71
643.25	2142.18
643.44	2166.75
643.63	2228.19
643.82	2267.10
644.00	2103.26
644.19	2207.71
644.38	2078.69
644.57	2281.44
644.76	2326.49
644.95	2140.13
645.14	2174.94
645.33	2181.09
645.52	2162.66
645.71	2150.37
645.89	2154.46
646.08	2215.90
646.27	2150.37
646.46	2363.36
646.65	2111.46
646.84	2127.84
647.03	2031.58
647.22	2293.72
647.40	2220.00
647.59	2117.60
647.78	2113.50
647.97	2101.22
648.16	2129.89
648.35	2252.77
648.54	2318.30
648.73	2174.94
648.91	2234.33
649.10	2168.80
649.29	2142.18
649.48	2289.63
649.67	2242.53
649.86	2265.05
650.05	2277.34
650.23	2445.27
650.42	2277.34
650.61	2586.58
650.80	2371.55
650.99	2521.05
651.18	2338.78
651.36	2398.17
651.55	2240.48
651.74	2328.54
651.93	2146.27
652.12	2211.81
652.31	2197.47
652.49	2185.18
652.68	2226.14
652.87	2389.98
653.06	2322.40
653.25	2396.12
653.44	2238.43
653.62	2326.49
653.81	2195.42
654.00	2240.48
654.19	2299.87
654.38	2416.60
654.56	2228.19
654.75	2172.89
654.94	2316.25
655.13	2244.57
655.32	2146.27
655.51	2189.28
655.69	2113.50
655.88	2183.13
656.07	2111.46
656.26	2138.08
656.45	2105.31
656.63	2224.09
656.82	2234.33
657.01	2273.25
657.20	2138.08
657.38	2342.88
657.57	2242.53
657.76	2166.75
657.95	2248.67
658.14	2144.22
658.32	2260.96
658.51	2121.70
658.70	2269.15
658.89	2199.52
659.08	2230.24
659.26	2379.74
659.45	2131.94
659.64	2373.60
659.83	2213.85
660.01	2592.73
660.20	2285.53
660.39	2408.41
660.58	1998.82
660.76	2326.49
660.95	2082.78
661.14	2158.56
661.33	2072.54
661.51	2158.56
661.70	2166.75
661.89	2222.05
662.08	2250.72
662.26	2064.35
662.45	2095.07
662.64	2428.89
662.83	2242.53
663.01	2129.89
663.20	2166.75
663.39	2394.08
663.58	2115.55
663.76	2215.90
663.95	2217.95
664.14	2109.41
664.32	2205.66
664.51	2074.59
664.70	2015.20
664.89	2242.53
665.07	2127.84
665.26	2232.29
665.45	2154.46
665.64	2283.49
665.82	2244.57
666.01	2273.25
666.20	2136.03
666.38	2316.25
666.57	2265.05
666.76	3254.22
666.95	7993.22
667.13	16748.29
667.32	22193.84
667.51	25783.93
667.69	28036.69
667.88	25851.51
668.07	18267.88
668.25	14792.48
668.44	12136.26
668.63	10133.35
668.81	9025.40
669.00	8124.29
669.19	7114.64
669.38	6270.88
669.56	5160.88
669.75	4435.90
669.94	3819.46
670.12	3110.86
670.31	2906.07
670.50	2602.97
670.68	2461.66
670.87	2318.30
671.06	2301.92
671.24	2295.77
671.43	2455.51
671.62	2273.25
671.80	2248.67
671.99	2281.44
672.18	2277.34
672.36	2330.59
672.55	2269.15
672.74	2244.57
672.92	2146.27
673.11	2260.96
673.29	2142.18
673.48	2299.87
673.67	2127.84
673.85	2336.73
674.04	2129.89
674.23	2248.67
674.41	2416.60
674.60	2138.08
674.79	2060.26
674.97	2029.54
675.16	2256.86
675.34	2293.72
675.53	2154.46
675.72	2265.05
675.90	2277.34
676.09	2123.74
676.28	2236.38
676.46	2017.25
676.65	2314.20
676.83	2062.30
677.02	2205.66
677.21	2174.94
677.39	2232.29
677.58	2127.84
677.77	2168.80
677.95	2113.50
678.14	2211.81
678.32	2131.94
678.51	2086.88
678.70	2275.29
678.88	2187.23
679.07	2213.85
679.25	2181.09
679.44	2205.66
679.63	2101.22
679.81	2195.42
680.00	2285.53
680.18	2242.53
680.37	2258.91
680.55	2273.25
680.74	2066.40
680.93	2050.02
681.11	2250.72
681.30	2172.89
681.48	2226.14
681.67	2084.83
681.85	2230.24
682.04	2164.70
682.23	2277.34
682.41	2193.37
682.60	2095.07
682.78	2189.28
682.97	2035.68
683.15	2115.55
683.34	2152.42
683.53	2340.83
683.71	2144.22
683.90	2301.92
684.08	2314.20
684.27	2199.52
684.45	2215.90
684.64	2291.68
684.82	2224.09
685.01	2236.38
685.19	2277.34
685.38	2369.50
685.57	2193.37
685.75	2080.74
685.94	2140.13
686.12	2129.89
686.31	2263.01
686.49	2344.92
686.68	2027.49
686.86	2275.29
687.05	2256.86
687.23	2369.50
687.42	2146.27
687.60	1996.77
687.79	2234.33
687.97	2260.96
688.16	2310.11
688.34	2277.34
688.53	1990.63
688.71	2293.72
688.90	2308.06
689.08	2189.28
689.27	2090.98
689.45	2303.96
689.64	2205.66
689.82	2244.57
690.01	2291.68
690.19	2215.90
690.38	2195.42
690.56	2332.64
690.75	2136.03
690.93	2119.65
691.12	2103.26
691.30	2203.61
691.49	2185.18
691.67	2160.61
691.86	2471.90
692.04	2170.85
692.23	2232.29
692.41	2303.96
692.60	2424.80
692.78	2432.99
692.97	2285.53
693.15	2346.97
693.34	2428.89
693.52	2320.35
693.71	2205.66
693.89	2222.05
694.08	2068.45
694.26	2310.11
694.44	2334.68
694.63	2236.38
694.81	2047.97
695.00	2162.66
695.18	2295.77
695.37	2496.47
695.55	2252.77
695.74	2224.09
695.92	2166.75
696.10	2363.36
696.29	2052.06
696.47	2109.41
696.66	2101.22
696.84	2181.09
697.03	2193.37
697.21	2396.12
697.40	3121.10
697.58	2299.87
697.76	2174.94
697.95	2121.70
698.13	2072.54
698.32	2152.42
698.50	2150.37
698.68	2258.91
698.87	2281.44
699.05	2283.49
699.24	2207.71
699.42	2078.69
699.61	2205.66
699.79	2179.04
699.97	2201.57
700.16	2078.69
700.34	2123.74
700.53	2162.66
700.71	2377.69
700.89	2355.16
701.08	2228.19
701.26	2199.52
701.45	2783.19
701.63	2205.66
701.81	2187.23
702.00	2193.37
702.18	2174.94
702.37	2191.33
702.55	2494.43
702.73	2432.99
702.92	2410.46
703.10	2594.78
703.28	2543.58
703.47	2306.01
703.65	2457.56
703.84	2330.59
704.02	2154.46
704.20	2404.32
704.39	2201.57
704.57	2201.57
704.75	2412.51
704.94	2254.81
705.12	2254.81
705.30	2494.43
705.49	4394.94
705.67	11013.98
705.86	19990.22
706.04	24706.70
706.22	28036.69
706.41	29335.10
706.59	24997.51
706.77	17788.66
706.96	15071.00
707.14	12736.32
707.32	11030.36
707.51	9822.06
707.69	8208.26
707.87	6535.07
708.06	5210.03
708.24	4147.14
708.42	3338.19
708.61	3024.85
708.79	2480.09
708.97	2373.60
709.16	2402.27
709.34	2224.09
709.52	2248.67
709.71	2332.64
709.89	2252.77
710.07	2105.31
710.26	2146.27
710.44	2217.95
710.62	2297.82
710.80	2260.96
710.99	2295.77
711.17	2299.87
711.35	2082.78
711.54	2179.04
711.72	2338.78
711.90	2226.14
712.09	2246.62
712.27	2148.32
712.45	2240.48
712.63	2170.85
712.82	2174.94
713.00	2150.37
713.18	2232.29
713.37	2250.72
713.55	2297.82
713.73	2342.88
713.91	2260.96
714.10	2142.18
714.28	2172.89
714.46	2166.75
714.65	2205.66
714.83	2260.96
715.01	2195.42
715.19	2129.89
715.38	2111.46
715.56	2166.75
715.74	2154.46
715.92	2076.64
716.11	2363.36
716.29	2093.02
716.47	2193.37
716.65	2146.27
716.84	2088.93
717.02	2285.53
717.20	2097.12
717.38	2123.74
717.57	2228.19
717.75	2166.75
717.93	2176.99
718.11	2220.00
718.30	2029.54
718.48	2295.77
718.66	2316.25
718.84	2246.62
719.03	2228.19
719.21	2064.35
719.39	2416.60
719.57	2281.44
719.75	2244.57
719.94	2158.56
720.12	2109.41
720.30	2246.62
720.48	2260.96
720.67	2119.65
720.85	2152.42
721.03	2215.90
721.21	2146.27
721.39	2275.29
721.58	2217.95
721.76	2215.90
721.94	2244.57
722.12	2164.70
722.30	2363.36
722.49	2176.99
722.67	2187.23
722.85	2238.43
723.03	1988.58
723.21	2201.57
723.40	2189.28
723.58	2301.92
723.76	2281.44
723.94	2320.35
724.12	2314.20
724.30	2367.45
724.49	2406.36
724.67	2133.98
724.85	2379.74
725.03	2068.45
725.21	2312.16
725.40	2398.17
725.58	2187.23
725.76	2236.38
725.94	2201.57
726.12	2152.42
726.30	2187.23
726.49	2181.09
726.67	2236.38
726.85	2240.48
727.03	2531.29
727.21	3702.73
727.39	5523.37
727.57	6623.13
727.76	7331.73
727.94	7593.87
728.12	7315.34
728.30	5853.09
728.48	4890.55
728.66	4532.15
728.84	4067.27
729.03	3536.84
729.21	3168.21
729.39	2844.63
729.57	2394.08
729.75	2416.60
729.93	2322.40
730.11	2267.10
730.30	2228.19
730.48	2158.56
730.66	2338.78
730.84	2265.05
731.02	2162.66
731.20	2226.14
731.38	2217.95
731.56	2074.59
731.74	2144.22
731.93	2232.29
732.11	2203.61
732.29	2179.04
732.47	2179.04
732.65	2172.89
732.83	2306.01
733.01	2258.91
733.19	2121.70
733.37	2209.76
733.56	2260.96
733.74	2150.37
733.92	2375.64
734.10	2162.66
734.28	2250.72
734.46	2029.54
734.64	2133.98
734.82	2199.52
735.00	2082.78
735.18	2148.32
735.36	2133.98
735.54	2234.33
735.73	2160.61
735.91	2283.49
736.09	2322.40
736.27	2226.14
736.45	2238.43
736.63	2136.03
736.81	2050.02
736.99	2281.44
737.17	2330.59
737.35	2164.70
737.53	2209.76
737.71	2146.27
737.89	2301.92
738.07	2183.13
738.25	2140.13
738.43	2047.97
738.61	2162.66
738.80	2181.09
738.98	2150.37
739.16	2158.56
739.34	2176.99
739.52	2371.55
739.70	2146.27
739.88	2375.64
740.06	2250.72
740.24	2097.12
740.42	2203.61
740.60	2025.44
740.78	2119.65
740.96	2007.01
741.14	2199.52
741.32	2217.95
741.50	2033.63
741.68	2383.84
741.86	2324.44
742.04	2054.11
742.22	2076.64
742.40	2179.04
742.58	2299.87
742.76	2187.23
742.94	2293.72
743.12	2029.54
743.30	2168.80
743.48	2285.53
743.66	2238.43
743.84	2275.29
744.02	2285.53
744.20	2228.19
744.38	2136.03
744.56	2086.88
744.74	2258.91
744.92	2207.71
745.10	2301.92
745.28	2240.48
745.46	2359.26
745.64	2271.20
745.82	2242.53
746.00	2207.71
746.18	2181.09
746.36	2084.83
746.54	2215.90
746.72	2250.72
746.90	2160.61
747.08	2303.96
747.26	2179.04
747.44	2226.14
747.62	2244.57
747.80	2197.47
747.98	2279.39
748.15	2148.32
748.33	2373.60
748.51	2207.71
748.69	2244.57
748.87	2052.06
749.05	2138.08
749.23	2123.74
749.41	2228.19
749.59	2103.26
749.77	2299.87
749.95	2160.61
750.13	2146.27
750.31	2234.33
750.49	2172.89
750.67	2267.10
750.85	2334.68
751.03	2113.50
751.20	2406.36
751.38	2172.89
751.56	2185.18
751.74	2142.18
751.92	2164.70
752.10	2072.54
752.28	2310.11
752.46	2183.13
752.64	2209.76
752.82	2138.08
753.00	2299.87
753.18	2101.22
753.35	2193.37
753.53	2215.90
753.71	2168.80
753.89	2314.20
754.07	2211.81
754.25	2277.34
754.43	2201.57
754.61	2045.92
754.79	2228.19
754.97	2195.42
755.14	2267.10
755.32	2064.35
755.50	2226.14
755.68	2222.05
755.86	2099.17
756.04	2166.75
756.22	1998.82
756.40	2271.20
756.57	2416.60
756.75	2111.46
756.93	2226.14
757.11	2285.53
757.29	2076.64
757.47	2037.73
757.65	2078.69
757.82	1986.53
758.00	2142.18
758.18	2090.98
758.36	2105.31
758.54	2318.30
758.72	2127.84
758.90	2318.30
759.07	2346.97
759.25	2019.30
759.43	2260.96
759.61	2058.21
759.79	2994.13
759.97	2271.20
760.15	2119.65
760.32	2174.94
760.50	2242.53
760.68	2340.83
760.86	2021.35
761.04	2338.78
761.22	2265.05
761.39	2203.61
761.57	2312.16
761.75	2263.01
761.93	2217.95
762.11	2131.94
762.28	2244.57
762.46	2105.31
762.64	2217.95
762.82	2113.50
763.00	2191.33
763.18	2361.31
763.35	2084.83
763.53	2285.53
763.71	2183.13
763.89	2162.66
764.07	2185.18
764.24	2195.42
764.42	2293.72
764.60	2185.18
764.78	2250.72
764.96	2320.35
765.13	2287.58
765.31	2170.85
765.49	2279.39
765.67	2066.40
765.84	2105.31
766.02	2080.74
766.20	2080.74
766.38	2140.13
766.56	2236.38
766.73	2209.76
766.91	2125.79
767.09	2152.42
767.27	2234.33
767.44	2078.69
767.62	2260.96
767.80	2246.62
767.98	2109.41
768.15	2213.85
768.33	2224.09
768.51	2228.19
768.69	2318.30
768.87	2275.29
769.04	2185.18
769.22	2461.66
769.40	2398.17
769.58	2414.56
769.75	2213.85
769.93	2287.58
770.11	2158.56
770.28	2150.37
770.46	2154.46
770.64	2242.53
770.82	2054.11
770.99	2082.78
771.17	2174.94
771.35	2174.94
771.53	2158.56
771.70	2158.56
771.88	2234.33
772.06	2230.24
772.23	2097.12
772.41	2246.62
772.59	2267.10
772.77	2121.70
772.94	2109.41
773.12	2232.29
773.30	2293.72
773.47	2220.00
773.65	2133.98
773.83	2230.24
774.01	2213.85
774.18	2041.82
774.36	2127.84
774.54	2140.13
774.71	2131.94
774.89	2037.73
775.07	2174.94
775.24	2125.79
775.42	2142.18
775.60	2389.98
775.78	2152.42
775.95	2105.31
776.13	2148.32
776.31	2027.49
776.48	2193.37
776.66	2363.36
776.84	2228.19
777.01	2121.70
777.19	2133.98
777.37	2125.79
777.54	2172.89
777.72	2363.36
777.90	2295.77
778.07	2111.46
778.25	2504.67
778.43	2283.49
778.60	2179.04
778.78	2281.44
778.96	2330.59
779.13	2074.59
779.31	2211.81
779.49	2162.66
779.66	2244.57
779.84	2232.29
780.01	2179.04
780.19	2072.54
780.37	2283.49
780.54	2303.96
780.72	2097.12
780.90	2043.87
781.07	2166.75
781.25	2144.22
781.43	2168.80
781.60	2101.22
781.78	2316.25
781.95	2236.38
782.13	2072.54
782.31	2217.95
782.48	2054.11
782.66	2176.99
782.83	2371.55
783.01	2260.96
783.19	2230.24
783.36	2215.90
783.54	2097.12
783.72	2336.73
783.89	2133.98
784.07	2213.85
784.24	2197.47
784.42	2336.73
784.60	2324.44
784.77	2179.04
784.95	2109.41
785.12	2158.56
785.30	2187.23
785.47	2066.40
785.65	2133.98
785.83	2105.31
786.00	2176.99
786.18	2166.75
786.35	2097.12
786.53	2158.56
786.71	2293.72
786.88	2230.24
787.06	2263.01
787.23	2111.46
787.41	2095.07
787.58	2213.85
787.76	2109.41
787.94	2160.61
788.11	2254.81
788.29	2170.85
788.46	2144.22
788.64	2103.26
788.81	2277.34
788.99	2054.11
789.16	2086.88
789.34	2181.09
789.52	2088.93
789.69	2103.26
789.87	2078.69
790.04	2125.79
790.22	2226.14
790.39	2383.84
790.57	2084.83
790.74	2129.89
790.92	2285.53
791.09	1996.77
791.27	2260.96
791.44	2238.43
791.62	2154.46
791.79	2293.72
791.97	2248.67
792.15	2430.94
792.32	2269.15
792.50	2316.25
792.67	2363.36
792.85	2289.63
793.02	2148.32
793.20	2127.84
793.37	2138.08
793.55	2199.52
793.72	2109.41
793.90	2250.72
794.07	2082.78
794.25	2105.31
794.42	2170.85
794.60	2183.13
794.77	2252.77
794.95	2293.72
795.12	2340.83
795.30	2146.27
795.47	2037.73
795.65	2441.18
795.82	2203.61
796.00	2064.35
796.17	2146.27
796.34	2158.56
796.52	2205.66
796.69	2265.05
796.87	2301.92
797.04	2213.85
797.22	2265.05
797.39	2240.48
797.57	2244.57
797.74	2150.37
797.92	2267.10
798.09	2156.51
798.27	2359.26
798.44	2176.99
798.62	2125.79
798.79	2232.29
798.96	2201.57
799.14	2162.66
799.31	2422.75
799.49	2209.76
799.66	2093.02
799.84	2168.80
800.01	2086.88
800.19	2189.28
800.36	2037.73
800.53	2258.91
800.71	2193.37
800.88	2295.77
801.06	2140.13
801.23	2138.08
801.41	2133.98
801.58	2148.32
801.75	2162.66
801.93	2248.67
802.10	2244.57
802.28	2224.09
802.45	2158.56
802.63	2228.19
802.80	2240.48
802.97	2117.60
803.15	2146.27
803.32	2136.03
803.50	2191.33
803.67	2117.60
803.84	2136.03
804.02	2209.76
804.19	2234.33
804.37	2023.39
804.54	2050.02
804.71	2158.56
804.89	2172.89
805.06	2060.26
805.24	2131.94
805.41	2074.59
805.58	2125.79
805.76	2359.26
805.93	2195.42
806.10	2299.87
806.28	2252.77
806.45	2201.57
806.63	2176.99
806.80	2183.13
806.97	2242.53
807.15	2238.43
807.32	2129.89
807.49	2090.98
807.67	2129.89
807.84	2224.09
808.01	1986.53
808.19	2435.03
808.36	2400.22
808.54	2086.88
808.71	2095.07
808.88	2191.33
809.06	2283.49
809.23	2340.83
809.40	2176.99
809.58	2230.24
809.75	2230.24
809.92	2117.60
810.10	2412.51
810.27	2242.53
810.44	2267.10
810.62	2217.95
810.79	2172.89
810.96	2084.83
811.14	2236.38
811.31	2260.96
811.48	2193.37
811.66	2179.04
811.83	2291.68
812.00	2250.72
812.18	2226.14
812.35	2340.83
812.52	2181.09
812.69	2136.03
812.87	2154.46
813.04	2117.60
813.21	2244.57
813.39	2213.85
813.56	2152.42
813.73	2289.63
813.91	2037.73
814.08	2205.66
814.25	2166.75
814.42	2041.82
814.60	2144.22
814.77	2125.79
814.94	2174.94
815.12	2211.81
815.29	2342.88
815.46	2183.13
815.63	2195.42
815.81	2125.79
815.98	2211.81
816.15	2127.84
816.33	2207.71
816.50	2195.42
816.67	2207.71
816.84	2148.32
817.02	2080.74
817.19	2117.60
817.36	2158.56
817.53	2215.90
817.71	2144.22
817.88	2269.15
818.05	2199.52
818.22	2181.09
818.40	2351.07
818.57	2105.31
818.74	2162.66
818.91	2203.61
819.09	2269.15
819.26	2215.90
819.43	2088.93
819.60	2133.98
819.78	2207.71
819.95	2248.67
820.12	2095.07
820.29	2320.35
820.47	2254.81
820.64	2133.98
820.81	2066.40
820.98	2113.50
821.15	2193.37
821.33	2244.57
821.50	2086.88
821.67	2289.63
821.84	2080.74
822.02	2168.80
822.19	2301.92
822.36	2156.51
822.53	2127.84
822.70	2113.50
822.88	2154.46
823.05	2314.20
823.22	2142.18
823.39	2234.33
823.56	2250.72
823.74	2349.02
823.91	2144.22
824.08	2068.45
824.25	2086.88
824.42	2336.73
824.60	2070.50
824.77	2181.09
824.94	2162.66
825.11	2224.09
825.28	1988.58
825.45	2176.99
825.63	2203.61
825.80	2176.99
825.97	2207.71
826.14	2244.57
826.31	2025.44
826.48	2260.96
826.66	2121.70
826.83	2170.85
827.00	2045.92
827.17	2189.28
827.34	2138.08
827.51	2158.56
827.69	2217.95
827.86	2043.87
828.03	2109.41
828.20	2152.42
828.37	2162.66
828.54	2289.63
828.71	2064.35
828.89	2248.67
829.06	2220.00
829.23	2285.53
829.40	2095.07
829.57	2166.75
829.74	2228.19
829.91	2115.55
830.09	2121.70
830.26	2197.47
830.43	2361.31
830.60	2148.32
830.77	2232.29
830.94	2344.92
831.11	2324.44
831.28	2105.31
831.46	2242.53
831.63	2117.60
831.80	2252.77
831.97	2121.70
832.14	2129.89
832.31	2209.76
832.48	2240.48
832.65	2244.57
832.82	2205.66
832.99	2211.81
833.17	2084.83
833.34	2334.68
833.51	2211.81
833.68	2029.54
833.85	2203.61
834.02	2119.65
834.19	2164.70
834.36	2123.74
834.53	2201.57
834.70	2285.53
834.87	2250.72
835.04	2160.61
835.22	2166.75
835.39	2162.66
835.56	2084.83
835.73	2090.98
835.90	2279.39
836.07	2150.37
836.24	2281.44
836.41	2076.64
836.58	2197.47
836.75	2254.81
836.92	2197.47
837.09	2127.84
837.26	2289.63
837.43	2236.38
837.60	2269.15
837.77	2109.41
837.94	2285.53
838.12	2361.31
838.29	2215.90
838.46	1976.29
838.63	2121.70
838.80	2402.27
838.97	2187.23
839.14	2181.09
839.31	2224.09
839.48	2312.16
839.65	2154.46
839.82	2256.86
839.99	2197.47
840.16	2205.66
840.33	2154.46
840.50	2152.42
840.67	2113.50
840.84	1953.76
841.01	2201.57
841.18	2066.40
841.35	2213.85
841.52	2254.81
841.69	2318.30
841.86	2174.94
842.03	2152.42
842.20	2275.29
842.37	2107.36
842.54	2220.00
842.71	2123.74
842.88	2070.50
843.05	2226.14
843.22	2121.70
843.39	2289.63
843.56	2162.66
843.73	2111.46
843.90	2181.09
844.07	2217.95
844.24	2199.52
844.41	2256.86
844.58	2224.09
844.75	2170.85
844.92	2187.23
845.09	2170.85
845.26	2084.83
845.43	2312.16
845.60	2179.04
845.77	2152.42
845.94	2164.70
846.10	2240.48
846.27	2084.83
846.44	2058.21
846.61	2062.30
846.78	2166.75
846.95	2258.91
847.12	2050.02
847.29	2109.41
847.46	2111.46
847.63	2258.91
847.80	2072.54
847.97	2045.92
848.14	2279.39
848.31	2138.08
848.48	2041.82
848.65	2209.76
848.82	2076.64
848.98	2398.17
849.15	2189.28
849.32	2144.22
849.49	2263.01
849.66	2176.99
849.83	2136.03
850.00	2170.85
850.17	2252.77
850.34	2209.76
850.51	2078.69
850.68	2086.88
850.85	2449.37
851.01	2248.67
851.18	2191.33
851.35	2176.99
851.52	2287.58
851.69	2256.86
851.86	2068.45
852.03	2119.65
852.20	2265.05
852.37	2211.81
852.53	2074.59
852.70	2197.47
852.87	2136.03
853.04	2267.10
853.21	2185.18
853.38	2211.81
853.55	2265.05
853.72	2260.96
853.89	2113.50
854.05	2043.87
854.22	2146.27
854.39	2211.81
854.56	2252.77
854.73	2340.83
854.90	2187.23
855.07	2148.32
855.23	2041.82
855.40	2131.94
855.57	2103.26
855.74	2125.79
855.91	2293.72
856.08	2037.73
856.25	1970.15
856.41	2140.13
856.58	2138.08
856.75	2232.29
856.92	2090.98
857.09	2293.72
857.26	2043.87
857.42	2197.47
857.59	2217.95
857.76	2181.09
857.93	2222.05
858.10	2193.37
858.27	2138.08
858.43	2168.80
858.60	2013.15
858.77	2062.30
858.94	2136.03
859.11	2299.87
859.27	2160.61
859.44	2183.13
859.61	2351.07
859.78	2326.49
859.95	2185.18
860.12	2111.46
860.28	2289.63
860.45	2389.98
860.62	2113.50
860.79	2240.48
860.95	2176.99
861.12	2162.66
861.29	2097.12
861.46	2142.18
861.63	2131.94
861.79	2205.66
861.96	2121.70
862.13	2093.02
862.30	2273.25
862.47	2160.61
862.63	2080.74
862.80	2181.09
862.97	2342.88
863.14	2215.90
863.30	2195.42
863.47	2078.69
863.64	2301.92
863.81	2211.81
863.97	2183.13
864.14	2131.94
864.31	2211.81
864.48	2199.52
864.65	2072.54
864.81	2191.33
864.98	2303.96
865.15	2240.48
865.32	2179.04
865.48	2260.96
865.65	2379.74
865.82	2199.52
865.98	2236.38
866.15	2258.91
866.32	2160.61
866.49	2168.80
866.65	2310.11
866.82	2099.17
866.99	2121.70
867.16	2166.75
867.32	2133.98
867.49	2107.36
867.66	2174.94
867.83	2201.57
867.99	2127.84
868.16	2191.33
868.33	2086.88
868.49	2215.90
868.66	2076.64
868.83	2287.58
868.99	2187.23
869.16	2170.85
869.33	2293.72
869.50	2220.00
869.66	2207.71
869.83	2158.56
870.00	2080.74
870.16	2234.33
870.33	2224.09
870.50	2291.68
870.66	2121.70
870.83	2236.38
871.00	2088.93
871.17	2164.70
871.33	2211.81
871.50	2101.22
871.67	2203.61
871.83	1982.43
872.00	2340.83
872.17	2260.96
872.33	2328.54
872.50	2203.61
872.67	2076.64
872.83	2156.51
873.00	2220.00
873.17	2195.42
873.33	2213.85
873.50	2236.38
873.67	2107.36
873.83	2093.02
874.00	2080.74
874.16	2217.95
874.33	2185.18
874.50	2066.40
874.66	2203.61
874.83	2148.32
875.00	2242.53
875.16	2318.30
875.33	2256.86
875.50	1990.63
875.66	2162.66
875.83	2205.66
875.99	2277.34
876.16	2195.42
876.33	2154.46
876.49	2224.09
876.66	2199.52
876.83	2185.18
876.99	2072.54
877.16	2181.09
877.32	2109.41
877.49	2105.31
877.66	2215.90
877.82	2297.82
877.99	2224.09
878.15	2121.70
878.32	2154.46
878.49	2293.72
878.65	2097.12
878.82	2357.21
878.98	2183.13
879.15	2269.15
879.32	2187.23
879.48	2244.57
879.65	2146.27
879.81	2123.74
879.98	2111.46
880.15	2125.79
880.31	2277.34
880.48	2078.69
880.64	2199.52
880.81	2236.38
880.97	2283.49
881.14	2299.87
881.31	2082.78
881.47	2330.59
881.64	2140.13
881.80	2101.22
881.97	2248.67
882.13	2246.62
882.30	2093.02
882.47	2248.67
882.63	2084.83
882.80	2127.84
882.96	2086.88
883.13	2322.40
883.29	2150.37
883.46	2070.50
883.62	2371.55
883.79	2176.99
883.95	2277.34
884.12	2199.52
884.29	2314.20
884.45	2152.42
884.62	2201.57
884.78	2056.16
884.95	2346.97
885.11	2064.35
885.28	2203.61
885.44	2203.61
885.61	2287.58
885.77	2377.69
885.94	2191.33
886.10	2060.26
886.27	2248.67
886.43	2277.34
886.60	2277.34
886.76	2162.66
886.93	2072.54
887.09	2156.51
887.26	2095.07
887.42	2138.08
887.59	2281.44
887.75	2396.12
887.92	2289.63
888.08	2211.81
888.25	2342.88
888.41	2195.42
888.58	2162.66
888.74	2058.21
888.91	2146.27
>>>>>End Processed Spectral Data<<<<<
