SpectraSuite Data File
++++++++++++++++++++++++++++++++++++
Date: Thu May 05 12:35:29 CEST 2016
User: root
Dark Spectrum Present: No
Reference Spectrum Present: No
Number of Sampled Component Spectra: 1
Spectrometers: USB4C02835
Integration Time (usec): 100000 (USB4C02835)
Spectra Averaged: 1 (USB4C02835)
Boxcar Smoothing: 0 (USB4C02835)
Correct for Electrical Dark: No (USB4C02835)
Strobe/Lamp Enabled: No (USB4C02835)
Correct for Detector Non-linearity: No (USB4C02835)
Correct for Stray Light: No (USB4C02835)
Number of Pixels in Processed Spectrum: 3648
>>>>>Begin Processed Spectral Data<<<<<
177.47	1808.36
177.69	1808.36
177.91	1808.36
178.13	1769.44
178.36	1767.40
178.58	2113.50
178.80	2252.77
179.02	2084.83
179.24	2097.12
179.46	2070.50
179.68	2248.67
179.90	2133.98
180.13	2226.14
180.35	2062.30
180.57	2146.27
180.79	2240.48
181.01	2211.81
181.23	2144.22
181.45	2244.57
181.67	2185.18
181.90	2209.76
182.12	2105.31
182.34	2004.96
182.56	2260.96
182.78	2236.38
183.00	2101.22
183.22	2117.60
183.44	2021.35
183.66	2445.27
183.89	2232.29
184.11	2109.41
184.33	2301.92
184.55	2226.14
184.77	2119.65
184.99	2113.50
185.21	2133.98
185.43	2353.12
185.65	2111.46
185.87	2125.79
186.10	2324.44
186.32	2465.75
186.54	2205.66
186.76	2191.33
186.98	2351.07
187.20	2195.42
187.42	2123.74
187.64	2125.79
187.86	2228.19
188.08	2314.20
188.30	2115.55
188.52	2123.74
188.75	2297.82
188.97	2398.17
189.19	2162.66
189.41	2084.83
189.63	2240.48
189.85	2211.81
190.07	2017.25
190.29	1920.99
190.51	2207.71
190.73	2146.27
190.95	2263.01
191.17	2093.02
191.39	1968.10
191.61	2176.99
191.84	2103.26
192.06	2119.65
192.28	2076.64
192.50	2465.75
192.72	2162.66
192.94	2144.22
193.16	2310.11
193.38	2236.38
193.60	2129.89
193.82	2152.42
194.04	2260.96
194.26	2095.07
194.48	2170.85
194.70	2088.93
194.92	2176.99
195.14	2209.76
195.36	2144.22
195.58	2172.89
195.80	2101.22
196.02	2111.46
196.24	2129.89
196.46	2191.33
196.69	2121.70
196.91	2328.54
197.13	2162.66
197.35	2097.12
197.57	2408.41
197.79	2271.20
198.01	2142.18
198.23	2160.61
198.45	2303.96
198.67	2095.07
198.89	2101.22
199.11	2142.18
199.33	2133.98
199.55	1966.05
199.77	2189.28
199.99	2244.57
200.21	2131.94
200.43	2258.91
200.65	1988.58
200.87	1998.82
201.09	2185.18
201.31	2185.18
201.53	2205.66
201.75	2142.18
201.97	2283.49
202.19	2170.85
202.41	2115.55
202.63	2340.83
202.85	2220.00
203.07	2267.10
203.29	2156.51
203.51	2043.87
203.73	2088.93
203.95	2488.28
204.17	2142.18
204.39	2260.96
204.61	2162.66
204.83	2224.09
205.05	2324.44
205.27	2187.23
205.49	2396.12
205.71	2217.95
205.93	2088.93
206.15	2146.27
206.37	2217.95
206.59	2150.37
206.81	2004.96
207.03	2066.40
207.25	2088.93
207.47	2283.49
207.69	2129.89
207.91	2320.35
208.13	2316.25
208.34	2179.04
208.56	2127.84
208.78	2129.89
209.00	2121.70
209.22	2152.42
209.44	2121.70
209.66	2056.16
209.88	2138.08
210.10	2115.55
210.32	2086.88
210.54	2250.72
210.76	2146.27
210.98	2267.10
211.20	2031.58
211.42	2174.94
211.64	2326.49
211.86	2244.57
212.08	2166.75
212.30	2133.98
212.52	2213.85
212.74	2258.91
212.96	2056.16
213.17	2179.04
213.39	2265.05
213.61	2338.78
213.83	2209.76
214.05	2093.02
214.27	2285.53
214.49	2105.31
214.71	2103.26
214.93	2273.25
215.15	2236.38
215.37	2258.91
215.59	1996.77
215.81	2222.05
216.03	2326.49
216.24	2248.67
216.46	2160.61
216.68	2160.61
216.90	2265.05
217.12	2226.14
217.34	2121.70
217.56	2201.57
217.78	2353.12
218.00	2222.05
218.22	2166.75
218.44	2170.85
218.66	2217.95
218.87	2377.69
219.09	2109.41
219.31	2154.46
219.53	2191.33
219.75	2140.13
219.97	2090.98
220.19	2176.99
220.41	2193.37
220.63	2396.12
220.85	2156.51
221.06	2060.26
221.28	2301.92
221.50	2256.86
221.72	2144.22
221.94	2080.74
222.16	2209.76
222.38	2248.67
222.60	2129.89
222.82	2136.03
223.03	2295.77
223.25	2072.54
223.47	2115.55
223.69	2314.20
223.91	2191.33
224.13	2172.89
224.35	2068.45
224.57	2238.43
224.78	2275.29
225.00	2113.50
225.22	2166.75
225.44	2152.42
225.66	2224.09
225.88	2101.22
226.10	2179.04
226.32	2254.81
226.53	2392.03
226.75	2164.70
226.97	2127.84
227.19	2152.42
227.41	2045.92
227.63	2185.18
227.85	1990.63
228.06	2113.50
228.28	2197.47
228.50	2277.34
228.72	2023.39
228.94	2142.18
229.16	2027.49
229.37	2097.12
229.59	2115.55
229.81	2318.30
230.03	2179.04
230.25	2056.16
230.47	2011.11
230.69	2064.35
230.90	2203.61
231.12	2113.50
231.34	2129.89
231.56	2197.47
231.78	2121.70
232.00	2201.57
232.21	2269.15
232.43	2054.11
232.65	2109.41
232.87	2234.33
233.09	2060.26
233.30	2078.69
233.52	2258.91
233.74	2185.18
233.96	2068.45
234.18	2250.72
234.40	2232.29
234.61	2437.08
234.83	2117.60
235.05	2023.39
235.27	2441.18
235.49	2291.68
235.70	2125.79
235.92	2220.00
236.14	2248.67
236.36	2500.57
236.58	2023.39
236.79	2179.04
237.01	2148.32
237.23	2142.18
237.45	2269.15
237.67	2019.30
237.88	2228.19
238.10	2363.36
238.32	2115.55
238.54	2103.26
238.76	2234.33
238.97	2121.70
239.19	2125.79
239.41	2289.63
239.63	2281.44
239.85	2105.31
240.06	2088.93
240.28	2199.52
240.50	2303.96
240.72	2187.23
240.93	2121.70
241.15	2203.61
241.37	2152.42
241.59	2287.58
241.81	2097.12
242.02	2152.42
242.24	2172.89
242.46	2269.15
242.68	2107.36
242.89	2144.22
243.11	2351.07
243.33	2203.61
243.55	2154.46
243.76	2138.08
243.98	2127.84
244.20	2232.29
244.42	2080.74
244.64	2158.56
244.85	2084.83
245.07	2140.13
245.29	2142.18
245.51	2146.27
245.72	2213.85
245.94	2279.39
246.16	2131.94
246.38	2105.31
246.59	2215.90
246.81	2105.31
247.03	2107.36
247.24	1953.76
247.46	2207.71
247.68	2215.90
247.90	2035.68
248.11	2152.42
248.33	2293.72
248.55	2183.13
248.77	2240.48
248.98	2156.51
249.20	2387.93
249.42	2166.75
249.64	2138.08
249.85	2224.09
250.07	2123.74
250.29	2226.14
250.50	2195.42
250.72	2035.68
250.94	2236.38
251.16	2385.88
251.37	2238.43
251.59	2156.51
251.81	2269.15
252.02	2271.20
252.24	2039.78
252.46	2254.81
252.68	2185.18
252.89	2148.32
253.11	2017.25
253.33	2205.66
253.54	2295.77
253.76	2056.16
253.98	2119.65
254.20	2142.18
254.41	2119.65
254.63	2170.85
254.85	2072.54
255.06	2174.94
255.28	2222.05
255.50	2170.85
255.71	2105.31
255.93	2037.73
256.15	2166.75
256.36	2267.10
256.58	2119.65
256.80	2162.66
257.02	2224.09
257.23	2113.50
257.45	2074.59
257.67	2144.22
257.88	2115.55
258.10	2166.75
258.32	2109.41
258.53	2179.04
258.75	2371.55
258.97	2244.57
259.18	2072.54
259.40	2082.78
259.62	2238.43
259.83	2326.49
260.05	2205.66
260.27	2572.25
260.48	2299.87
260.70	2062.30
260.92	2043.87
261.13	2193.37
261.35	2160.61
261.57	2197.47
261.78	2045.92
262.00	2043.87
262.22	2232.29
262.43	2095.07
262.65	2121.70
262.86	2193.37
263.08	2451.42
263.30	2217.95
263.51	2029.54
263.73	2099.17
263.95	2330.59
264.16	2121.70
264.38	1978.34
264.60	2168.80
264.81	2293.72
265.03	2314.20
265.25	2297.82
265.46	2152.42
265.68	2334.68
265.89	2265.05
266.11	2015.20
266.33	2199.52
266.54	2285.53
266.76	2160.61
266.98	2181.09
267.19	2170.85
267.41	2318.30
267.62	2129.89
267.84	2000.87
268.06	2170.85
268.27	2273.25
268.49	2265.05
268.70	2189.28
268.92	2140.13
269.14	2080.74
269.35	2121.70
269.57	2088.93
269.79	2217.95
270.00	2185.18
270.22	2435.03
270.43	2056.16
270.65	2021.35
270.87	2205.66
271.08	2244.57
271.30	2230.24
271.51	2183.13
271.73	2228.19
271.95	2324.44
272.16	2146.27
272.38	2215.90
272.59	2086.88
272.81	2271.20
273.02	2119.65
273.24	2220.00
273.46	2320.35
273.67	2093.02
273.89	2025.44
274.10	2203.61
274.32	2283.49
274.54	2215.90
274.75	2097.12
274.97	2150.37
275.18	2197.47
275.40	2211.81
275.61	2201.57
275.83	2181.09
276.05	2095.07
276.26	2140.13
276.48	2234.33
276.69	2158.56
276.91	2215.90
277.12	2396.12
277.34	2263.01
277.55	2291.68
277.77	2269.15
277.99	2203.61
278.20	2093.02
278.42	2088.93
278.63	2144.22
278.85	2125.79
279.06	1998.82
279.28	2195.42
279.49	2267.10
279.71	2258.91
279.93	2152.42
280.14	2207.71
280.36	2142.18
280.57	2301.92
280.79	2160.61
281.00	2105.31
281.22	2093.02
281.43	2254.81
281.65	1974.24
281.86	2095.07
282.08	2195.42
282.29	2312.16
282.51	2031.58
282.73	2131.94
282.94	1982.43
283.16	2250.72
283.37	2285.53
283.59	2138.08
283.80	2220.00
284.02	2158.56
284.23	2136.03
284.45	2183.13
284.66	2047.97
284.88	2107.36
285.09	2244.57
285.31	2166.75
285.52	2301.92
285.74	1972.19
285.95	2289.63
286.17	2168.80
286.38	2318.30
286.60	2152.42
286.81	2088.93
287.03	2129.89
287.24	2250.72
287.46	2246.62
287.67	2269.15
287.89	2326.49
288.10	2166.75
288.32	2138.08
288.53	2392.03
288.75	2226.14
288.96	2326.49
289.18	2025.44
289.39	2226.14
289.61	2242.53
289.82	2424.80
290.04	2326.49
290.25	2099.17
290.47	2213.85
290.68	2136.03
290.90	2232.29
291.11	1988.58
291.33	2207.71
291.54	2113.50
291.76	2123.74
291.97	2162.66
292.18	2144.22
292.40	2158.56
292.61	2064.35
292.83	2367.45
293.04	2207.71
293.26	2222.05
293.47	2185.18
293.69	2129.89
293.90	2154.46
294.12	2273.25
294.33	2154.46
294.55	2140.13
294.76	2246.62
294.97	2269.15
295.19	2267.10
295.40	2029.54
295.62	2234.33
295.83	2303.96
296.05	2121.70
296.26	2256.86
296.48	2142.18
296.69	2107.36
296.90	2176.99
297.12	2242.53
297.33	2246.62
297.55	2213.85
297.76	2199.52
297.98	2260.96
298.19	2191.33
298.41	2174.94
298.62	2181.09
298.83	2308.06
299.05	2260.96
299.26	2115.55
299.48	2138.08
299.69	2215.90
299.90	2133.98
300.12	2127.84
300.33	2199.52
300.55	2179.04
300.76	2133.98
300.98	2078.69
301.19	2275.29
301.40	2138.08
301.62	2150.37
301.83	2222.05
302.05	2162.66
302.26	2095.07
302.47	2211.81
302.69	2103.26
302.90	2242.53
303.12	1982.43
303.33	2220.00
303.54	2396.12
303.76	2170.85
303.97	2148.32
304.19	2314.20
304.40	2080.74
304.61	2267.10
304.83	2281.44
305.04	2332.64
305.26	2187.23
305.47	2179.04
305.68	2138.08
305.90	2121.70
306.11	2301.92
306.33	2201.57
306.54	2090.98
306.75	2111.46
306.97	2070.50
307.18	2207.71
307.39	2113.50
307.61	2252.77
307.82	2181.09
308.04	2285.53
308.25	2105.31
308.46	2246.62
308.68	2168.80
308.89	2217.95
309.10	2267.10
309.32	2232.29
309.53	2183.13
309.74	2172.89
309.96	2138.08
310.17	2256.86
310.39	2203.61
310.60	2359.26
310.81	2228.19
311.03	2064.35
311.24	2285.53
311.45	2174.94
311.67	2316.25
311.88	2105.31
312.09	2138.08
312.31	2164.70
312.52	2105.31
312.73	2185.18
312.95	2064.35
313.16	2125.79
313.37	2205.66
313.59	2236.38
313.80	2303.96
314.01	2332.64
314.23	2099.17
314.44	2125.79
314.65	2047.97
314.87	2185.18
315.08	2131.94
315.29	2172.89
315.51	2105.31
315.72	2113.50
315.93	2234.33
316.15	2324.44
316.36	2168.80
316.57	2236.38
316.79	2185.18
317.00	2093.02
317.21	2203.61
317.43	2093.02
317.64	2236.38
317.85	2115.55
318.07	2074.59
318.28	2263.01
318.49	2291.68
318.70	2422.75
318.92	2406.36
319.13	2383.84
319.34	2453.47
319.56	2369.50
319.77	2383.84
319.98	2336.73
320.20	2299.87
320.41	2303.96
320.62	2346.97
320.83	2115.55
321.05	2408.41
321.26	2172.89
321.47	2179.04
321.69	2365.40
321.90	2035.68
322.11	2156.51
322.32	2252.77
322.54	2326.49
322.75	2158.56
322.96	2449.37
323.18	2097.12
323.39	2031.58
323.60	2099.17
323.81	2164.70
324.03	2117.60
324.24	2170.85
324.45	2185.18
324.66	2158.56
324.88	2367.45
325.09	2383.84
325.30	2117.60
325.52	2158.56
325.73	2193.37
325.94	2099.17
326.15	2062.30
326.37	2123.74
326.58	2283.49
326.79	2326.49
327.00	2121.70
327.22	2115.55
327.43	2103.26
327.64	2142.18
327.85	2217.95
328.07	2252.77
328.28	2367.45
328.49	2166.75
328.70	2088.93
328.92	2109.41
329.13	2187.23
329.34	2252.77
329.55	2236.38
329.76	2277.34
329.98	2195.42
330.19	2400.22
330.40	2220.00
330.61	2150.37
330.83	2211.81
331.04	2093.02
331.25	2146.27
331.46	2179.04
331.68	2043.87
331.89	2326.49
332.10	2183.13
332.31	2019.30
332.52	2191.33
332.74	2406.36
332.95	2054.11
333.16	2146.27
333.37	2236.38
333.58	2131.94
333.80	2187.23
334.01	2121.70
334.22	2224.09
334.43	2154.46
334.64	2187.23
334.86	2068.45
335.07	2009.06
335.28	2334.68
335.49	2072.54
335.70	2181.09
335.92	2322.40
336.13	2461.66
336.34	2250.72
336.55	2197.47
336.76	2275.29
336.98	1982.43
337.19	2213.85
337.40	2267.10
337.61	2426.84
337.82	2125.79
338.04	2238.43
338.25	2060.26
338.46	2195.42
338.67	2183.13
338.88	2095.07
339.09	2117.60
339.31	2138.08
339.52	2064.35
339.73	2123.74
339.94	2158.56
340.15	2228.19
340.36	2125.79
340.58	2164.70
340.79	2156.51
341.00	2228.19
341.21	1968.10
341.42	2265.05
341.63	2185.18
341.85	2240.48
342.06	2168.80
342.27	2179.04
342.48	2263.01
342.69	2078.69
342.90	2260.96
343.12	2265.05
343.33	2154.46
343.54	2289.63
343.75	2363.36
343.96	2220.00
344.17	2080.74
344.38	2138.08
344.60	2119.65
344.81	2109.41
345.02	2164.70
345.23	2310.11
345.44	2412.51
345.65	2203.61
345.86	2220.00
346.07	2217.95
346.29	2174.94
346.50	2203.61
346.71	2281.44
346.92	2318.30
347.13	2459.61
347.34	2152.42
347.55	2191.33
347.76	2203.61
347.98	2017.25
348.19	2158.56
348.40	2273.25
348.61	2187.23
348.82	2389.98
349.03	2260.96
349.24	2076.64
349.45	2428.89
349.66	1998.82
349.88	2115.55
350.09	2117.60
350.30	2342.88
350.51	2310.11
350.72	2183.13
350.93	2211.81
351.14	2140.13
351.35	2267.10
351.56	2142.18
351.77	2215.90
351.99	2281.44
352.20	2367.45
352.41	2295.77
352.62	1998.82
352.83	2238.43
353.04	2226.14
353.25	2211.81
353.46	2203.61
353.67	2441.18
353.88	1945.57
354.09	2179.04
354.30	2203.61
354.52	2260.96
354.73	2121.70
354.94	2162.66
355.15	2211.81
355.36	2445.27
355.57	2062.30
355.78	2185.18
355.99	2142.18
356.20	2158.56
356.41	2314.20
356.62	2168.80
356.83	2248.67
357.04	2367.45
357.25	2119.65
357.46	2088.93
357.68	2074.59
357.89	2095.07
358.10	2133.98
358.31	2162.66
358.52	2187.23
358.73	2129.89
358.94	2093.02
359.15	2170.85
359.36	2252.77
359.57	2185.18
359.78	2154.46
359.99	2187.23
360.20	2113.50
360.41	2152.42
360.62	2195.42
360.83	2203.61
361.04	2193.37
361.25	2220.00
361.46	2318.30
361.67	2174.94
361.88	2131.94
362.09	2240.48
362.30	2234.33
362.51	2127.84
362.72	2222.05
362.93	2228.19
363.14	2197.47
363.35	2228.19
363.56	2076.64
363.78	2297.82
363.99	2326.49
364.20	2058.21
364.41	2226.14
364.62	2299.87
364.83	2146.27
365.04	2183.13
365.25	2129.89
365.46	2475.99
365.67	2131.94
365.88	2220.00
366.09	2035.68
366.30	2193.37
366.51	2269.15
366.72	2086.88
366.93	2170.85
367.14	2183.13
367.35	2326.49
367.56	2162.66
367.77	2310.11
367.98	2107.36
368.18	2207.71
368.39	2195.42
368.60	2140.13
368.81	2279.39
369.02	2197.47
369.23	2164.70
369.44	2047.97
369.65	2162.66
369.86	2211.81
370.07	2228.19
370.28	2158.56
370.49	2269.15
370.70	2209.76
370.91	2123.74
371.12	2058.21
371.33	2260.96
371.54	2183.13
371.75	2324.44
371.96	2058.21
372.17	2260.96
372.38	2244.57
372.59	2269.15
372.80	2166.75
373.01	2174.94
373.22	2176.99
373.43	2232.29
373.64	2062.30
373.85	2299.87
374.06	2422.75
374.26	2283.49
374.47	2131.94
374.68	2306.01
374.89	2203.61
375.10	2220.00
375.31	2224.09
375.52	2213.85
375.73	2166.75
375.94	2105.31
376.15	2310.11
376.36	2115.55
376.57	2129.89
376.78	2121.70
376.99	2168.80
377.20	2322.40
377.40	2189.28
377.61	2340.83
377.82	2097.12
378.03	2301.92
378.24	2201.57
378.45	2228.19
378.66	2273.25
378.87	2088.93
379.08	2033.63
379.29	2176.99
379.50	2269.15
379.71	2119.65
379.91	2310.11
380.12	2101.22
380.33	2176.99
380.54	2146.27
380.75	2185.18
380.96	2252.77
381.17	2336.73
381.38	2236.38
381.59	2179.04
381.80	2265.05
382.00	2435.03
382.21	2301.92
382.42	2418.65
382.63	2475.99
382.84	2252.77
383.05	2252.77
383.26	2326.49
383.47	2220.00
383.68	2209.76
383.88	2289.63
384.09	2152.42
384.30	2373.60
384.51	2287.58
384.72	2199.52
384.93	2107.36
385.14	2205.66
385.35	2267.10
385.55	2002.91
385.76	2281.44
385.97	2183.13
386.18	2066.40
386.39	2170.85
386.60	2152.42
386.81	2109.41
387.02	2158.56
387.22	2111.46
387.43	2326.49
387.64	2340.83
387.85	2369.50
388.06	2394.08
388.27	4085.70
388.48	8544.13
388.68	12253.00
388.89	14501.67
389.10	15634.19
389.31	14331.69
389.52	11306.84
389.73	9922.41
389.93	8841.08
390.14	8150.92
390.35	7217.04
390.56	6543.26
390.77	5470.12
390.98	4136.90
391.18	3248.08
391.39	2717.65
391.60	2297.82
391.81	2334.68
392.02	2166.75
392.23	2439.13
392.43	2271.20
392.64	2269.15
392.85	2238.43
393.06	2291.68
393.27	2211.81
393.47	2138.08
393.68	2263.01
393.89	2105.31
394.10	2381.79
394.31	2121.70
394.52	2047.97
394.72	2129.89
394.93	2367.45
395.14	2133.98
395.35	2201.57
395.56	2158.56
395.76	2203.61
395.97	2244.57
396.18	2367.45
396.39	2285.53
396.60	2635.74
396.80	2365.40
397.01	2418.65
397.22	2389.98
397.43	2330.59
397.64	2217.95
397.84	2250.72
398.05	2504.67
398.26	2209.76
398.47	2342.88
398.67	2312.16
398.88	2203.61
399.09	2224.09
399.30	2113.50
399.51	2195.42
399.71	2154.46
399.92	2238.43
400.13	2230.24
400.34	2109.41
400.54	2174.94
400.75	2297.82
400.96	2224.09
401.17	2389.98
401.37	2220.00
401.58	2123.74
401.79	2156.51
402.00	2289.63
402.21	2633.69
402.41	2488.28
402.62	2645.98
402.83	2629.59
403.04	2701.27
403.24	2695.13
403.45	2385.88
403.66	2529.24
403.87	2488.28
404.07	2543.58
404.28	2418.65
404.49	2420.70
404.70	2181.09
404.90	2293.72
405.11	2277.34
405.32	2246.62
405.52	2170.85
405.73	2176.99
405.94	2164.70
406.15	2203.61
406.35	2297.82
406.56	2306.01
406.77	2193.37
406.98	2248.67
407.18	2078.69
407.39	2353.12
407.60	2162.66
407.80	2246.62
408.01	2148.32
408.22	2275.29
408.43	2140.13
408.63	2215.90
408.84	2269.15
409.05	2373.60
409.25	2211.81
409.46	2138.08
409.67	2213.85
409.88	2170.85
410.08	2187.23
410.29	2187.23
410.50	2250.72
410.70	2316.25
410.91	2138.08
411.12	2207.71
411.32	2170.85
411.53	2082.78
411.74	2322.40
411.95	2207.71
412.15	2310.11
412.36	2346.97
412.57	2318.30
412.77	2293.72
412.98	2154.46
413.19	2254.81
413.39	2269.15
413.60	2285.53
413.81	2359.26
414.01	2129.89
414.22	2324.44
414.43	2301.92
414.63	2211.81
414.84	2375.64
415.05	2220.00
415.25	2125.79
415.46	2248.67
415.67	2152.42
415.87	2242.53
416.08	2146.27
416.29	2064.35
416.49	2189.28
416.70	2183.13
416.91	2164.70
417.11	2121.70
417.32	2381.79
417.53	2332.64
417.73	2195.42
417.94	2234.33
418.15	2314.20
418.35	2207.71
418.56	2222.05
418.77	2414.56
418.97	2174.94
419.18	2265.05
419.38	1961.95
419.59	2179.04
419.80	2312.16
420.00	2160.61
420.21	2254.81
420.42	2273.25
420.62	2314.20
420.83	2140.13
421.04	2148.32
421.24	2144.22
421.45	2293.72
421.65	2295.77
421.86	2111.46
422.07	2267.10
422.27	2283.49
422.48	2105.31
422.69	2205.66
422.89	2203.61
423.10	2228.19
423.30	2060.26
423.51	2213.85
423.72	2285.53
423.92	2273.25
424.13	2076.64
424.33	2113.50
424.54	2310.11
424.75	2174.94
424.95	2334.68
425.16	2250.72
425.36	2197.47
425.57	2215.90
425.78	2250.72
425.98	2211.81
426.19	2197.47
426.39	2138.08
426.60	2234.33
426.81	2334.68
427.01	2162.66
427.22	2117.60
427.42	2082.78
427.63	2095.07
427.83	2285.53
428.04	2377.69
428.25	2265.05
428.45	2293.72
428.66	2355.16
428.86	2189.28
429.07	2121.70
429.28	2209.76
429.48	2107.36
429.69	2158.56
429.89	2228.19
430.10	2111.46
430.30	2242.53
430.51	2324.44
430.71	2072.54
430.92	2170.85
431.13	2154.46
431.33	2260.96
431.54	2246.62
431.74	2369.50
431.95	2396.12
432.15	2090.98
432.36	2189.28
432.56	2232.29
432.77	2408.41
432.98	2432.99
433.18	2250.72
433.39	2107.36
433.59	2142.18
433.80	2424.80
434.00	2428.89
434.21	2123.74
434.41	2195.42
434.62	2414.56
434.82	2115.55
435.03	2076.64
435.23	2256.86
435.44	1945.57
435.64	2185.18
435.85	2250.72
436.06	2308.06
436.26	2256.86
436.47	2150.37
436.67	2111.46
436.88	2162.66
437.08	2303.96
437.29	2336.73
437.49	2201.57
437.70	2232.29
437.90	2209.76
438.11	2314.20
438.31	2252.77
438.52	2463.71
438.72	2478.04
438.93	2521.05
439.13	2271.20
439.34	2398.17
439.54	2256.86
439.75	2318.30
439.95	2273.25
440.16	2097.12
440.36	2242.53
440.57	2258.91
440.77	2199.52
440.98	2185.18
441.18	2250.72
441.39	2127.84
441.59	2162.66
441.80	2400.22
442.00	2158.56
442.21	2312.16
442.41	2103.26
442.62	2430.94
442.82	2146.27
443.02	2154.46
443.23	2203.61
443.43	2150.37
443.64	2277.34
443.84	2156.51
444.05	2344.92
444.25	2201.57
444.46	2289.63
444.66	2162.66
444.87	2396.12
445.07	2068.45
445.28	2201.57
445.48	2324.44
445.69	2220.00
445.89	2432.99
446.09	2244.57
446.30	2514.91
446.50	2901.97
446.71	4339.65
446.91	5609.39
447.12	6324.13
447.32	6748.06
447.53	6369.18
447.73	5246.90
447.93	4505.53
448.14	4153.28
448.34	4091.84
448.55	3481.55
448.75	3626.95
448.96	3299.28
449.16	3088.34
449.36	2854.87
449.57	2605.02
449.77	2383.84
449.98	2258.91
450.18	2281.44
450.39	2326.49
450.59	2312.16
450.79	2174.94
451.00	2238.43
451.20	2297.82
451.41	2170.85
451.61	2260.96
451.81	2148.32
452.02	2144.22
452.22	2164.70
452.43	2213.85
452.63	2222.05
452.84	2181.09
453.04	2166.75
453.24	2244.57
453.45	2121.70
453.65	2195.42
453.86	2222.05
454.06	2217.95
454.26	2183.13
454.47	2138.08
454.67	2371.55
454.87	2250.72
455.08	2215.90
455.28	2373.60
455.49	2224.09
455.69	2168.80
455.89	2416.60
456.10	2250.72
456.30	2191.33
456.51	2287.58
456.71	2181.09
456.91	2203.61
457.12	2162.66
457.32	2211.81
457.52	2131.94
457.73	2318.30
457.93	2281.44
458.14	2209.76
458.34	2080.74
458.54	2203.61
458.75	2129.89
458.95	2332.64
459.15	2236.38
459.36	2162.66
459.56	2234.33
459.76	2363.36
459.97	2265.05
460.17	2205.66
460.37	2306.01
460.58	2244.57
460.78	2293.72
460.99	2160.61
461.19	2154.46
461.39	2152.42
461.60	2170.85
461.80	2297.82
462.00	2062.30
462.21	2195.42
462.41	2113.50
462.61	2080.74
462.82	2013.15
463.02	2242.53
463.22	2224.09
463.43	2269.15
463.63	2197.47
463.83	2355.16
464.04	2152.42
464.24	2267.10
464.44	2160.61
464.64	2301.92
464.85	2299.87
465.05	2260.96
465.25	2162.66
465.46	2174.94
465.66	2238.43
465.86	2248.67
466.07	2172.89
466.27	2187.23
466.47	2158.56
466.68	2039.78
466.88	2281.44
467.08	2226.14
467.29	2351.07
467.49	2197.47
467.69	2201.57
467.89	2260.96
468.10	2127.84
468.30	2183.13
468.50	2256.86
468.71	2293.72
468.91	2078.69
469.11	2346.97
469.31	2246.62
469.52	2144.22
469.72	2381.79
469.92	2430.94
470.13	2185.18
470.33	2244.57
470.53	2308.06
470.73	2621.40
470.94	3047.38
471.14	3301.33
471.34	3649.48
471.54	3493.83
471.75	3108.82
471.95	2830.29
472.15	2793.43
472.36	2746.33
472.56	2686.94
472.76	2695.13
472.96	2600.92
473.17	2545.63
473.37	2490.33
473.57	2289.63
473.77	2387.93
473.98	2240.48
474.18	2097.12
474.38	2521.05
474.58	2164.70
474.79	2217.95
474.99	2267.10
475.19	2322.40
475.39	2088.93
475.60	2220.00
475.80	2234.33
476.00	2191.33
476.20	2211.81
476.41	2179.04
476.61	2265.05
476.81	2441.18
477.01	2107.36
477.21	2410.46
477.42	2277.34
477.62	2109.41
477.82	2326.49
478.02	2158.56
478.23	2238.43
478.43	2113.50
478.63	2191.33
478.83	2138.08
479.03	2193.37
479.24	2383.84
479.44	2463.71
479.64	2152.42
479.84	2031.58
480.04	2207.71
480.25	2230.24
480.45	2101.22
480.65	2191.33
480.85	2334.68
481.06	2109.41
481.26	2250.72
481.46	2195.42
481.66	2199.52
481.86	2144.22
482.06	2285.53
482.27	2197.47
482.47	2222.05
482.67	2230.24
482.87	2129.89
483.07	2285.53
483.28	2119.65
483.48	2109.41
483.68	2203.61
483.88	2064.35
484.08	2043.87
484.29	2060.26
484.49	2240.48
484.69	2088.93
484.89	2340.83
485.09	2371.55
485.29	2322.40
485.50	2258.91
485.70	2195.42
485.90	2248.67
486.10	2303.96
486.30	2207.71
486.50	2328.54
486.71	2152.42
486.91	2330.59
487.11	2328.54
487.31	2140.13
487.51	2230.24
487.71	2146.27
487.91	2148.32
488.12	2105.31
488.32	1980.39
488.52	2129.89
488.72	1994.72
488.92	2224.09
489.12	2303.96
489.32	2295.77
489.53	2283.49
489.73	2119.65
489.93	2271.20
490.13	2207.71
490.33	2103.26
490.53	2211.81
490.73	2306.01
490.94	2076.64
491.14	2217.95
491.34	2283.49
491.54	2578.39
491.74	3100.62
491.94	3702.73
492.14	4071.36
492.34	4079.55
492.54	3833.80
492.75	3207.12
492.95	3143.63
493.15	2949.08
493.35	2961.36
493.55	2850.77
493.75	2623.45
493.95	2731.99
494.15	2465.75
494.35	2306.01
494.56	2301.92
494.76	2174.94
494.96	2301.92
495.16	2207.71
495.36	2211.81
495.56	2195.42
495.76	2213.85
495.96	2117.60
496.16	2105.31
496.36	2383.84
496.56	2101.22
496.77	2265.05
496.97	2217.95
497.17	2363.36
497.37	2113.50
497.57	2312.16
497.77	2234.33
497.97	2121.70
498.17	2269.15
498.37	2103.26
498.57	2209.76
498.77	2250.72
498.97	2211.81
499.17	2338.78
499.38	2162.66
499.58	2293.72
499.78	2293.72
499.98	2326.49
500.18	2244.57
500.38	2129.89
500.58	2340.83
500.78	2850.77
500.98	5273.52
501.18	7255.95
501.38	8972.15
501.58	10102.63
501.78	9590.64
501.98	7647.12
502.18	6496.16
502.38	5638.06
502.58	5150.64
502.78	4573.11
502.98	4554.68
503.18	4231.10
503.38	3913.67
503.59	3495.88
503.79	3231.69
503.99	3016.66
504.19	2762.71
504.39	2877.40
504.59	2934.74
504.79	2891.73
504.99	2873.30
505.19	2467.80
505.39	2441.18
505.59	2641.88
505.79	2465.75
505.99	2426.84
506.19	2271.20
506.39	2422.75
506.59	2185.18
506.79	2283.49
506.99	2322.40
507.19	2310.11
507.39	2260.96
507.59	2019.30
507.79	2119.65
507.99	2129.89
508.19	2244.57
508.39	2111.46
508.59	2258.91
508.79	2269.15
508.99	2465.75
509.19	2199.52
509.39	2314.20
509.59	2095.07
509.79	2168.80
509.99	2281.44
510.19	2283.49
510.39	2236.38
510.59	2176.99
510.79	2162.66
510.99	2066.40
511.19	2166.75
511.39	2381.79
511.59	2342.88
511.79	2351.07
511.99	2248.67
512.19	2318.30
512.38	2234.33
512.58	2191.33
512.78	2154.46
512.98	2297.82
513.18	2355.16
513.38	2166.75
513.58	2258.91
513.78	2207.71
513.98	2209.76
514.18	2215.90
514.38	2185.18
514.58	2228.19
514.78	2127.84
514.98	2113.50
515.18	2129.89
515.38	2099.17
515.58	2383.84
515.78	2207.71
515.98	2209.76
516.18	2222.05
516.38	2152.42
516.57	2185.18
516.77	2097.12
516.97	2254.81
517.17	2183.13
517.37	2078.69
517.57	2334.68
517.77	2201.57
517.97	2187.23
518.17	2299.87
518.37	2138.08
518.57	2113.50
518.77	2179.04
518.97	2197.47
519.16	2224.09
519.36	2326.49
519.56	2150.37
519.76	2138.08
519.96	2156.51
520.16	2357.21
520.36	2140.13
520.56	2322.40
520.76	2164.70
520.96	2205.66
521.16	2248.67
521.35	2316.25
521.55	2291.68
521.75	2217.95
521.95	2088.93
522.15	2136.03
522.35	1964.00
522.55	2140.13
522.75	2232.29
522.95	2193.37
523.14	2131.94
523.34	2207.71
523.54	2191.33
523.74	2211.81
523.94	2211.81
524.14	2095.07
524.34	2256.86
524.54	2322.40
524.73	2166.75
524.93	2252.77
525.13	2189.28
525.33	2129.89
525.53	2435.03
525.73	2344.92
525.93	2213.85
526.13	2203.61
526.32	2187.23
526.52	2267.10
526.72	2306.01
526.92	2121.70
527.12	2136.03
527.32	2127.84
527.52	2301.92
527.71	2273.25
527.91	2125.79
528.11	2150.37
528.31	2191.33
528.51	2097.12
528.71	2172.89
528.90	2275.29
529.10	2361.31
529.30	2285.53
529.50	2002.91
529.70	2228.19
529.90	2166.75
530.09	2195.42
530.29	2050.02
530.49	2142.18
530.69	2510.81
530.89	2156.51
531.09	2226.14
531.28	2127.84
531.48	2316.25
531.68	2170.85
531.88	2240.48
532.08	2349.02
532.28	2207.71
532.47	2224.09
532.67	2289.63
532.87	2250.72
533.07	2107.36
533.27	2349.02
533.46	2252.77
533.66	2271.20
533.86	2199.52
534.06	2220.00
534.26	2201.57
534.45	2179.04
534.65	2308.06
534.85	2230.24
535.05	2142.18
535.25	2256.86
535.44	2121.70
535.64	2242.53
535.84	2193.37
536.04	2150.37
536.24	2189.28
536.43	2136.03
536.63	2240.48
536.83	2195.42
537.03	2152.42
537.22	2027.49
537.42	2088.93
537.62	2293.72
537.82	2140.13
538.02	2293.72
538.21	2342.88
538.41	2510.81
538.61	2310.11
538.81	2150.37
539.00	2312.16
539.20	2072.54
539.40	2162.66
539.60	2154.46
539.79	2215.90
539.99	2228.19
540.19	2133.98
540.39	2174.94
540.58	2291.68
540.78	2351.07
540.98	2166.75
541.18	2258.91
541.37	2318.30
541.57	2164.70
541.77	2281.44
541.97	2043.87
542.16	2058.21
542.36	2125.79
542.56	2121.70
542.76	2418.65
542.95	2232.29
543.15	2275.29
543.35	2308.06
543.54	2119.65
543.74	2170.85
543.94	2349.02
544.14	2154.46
544.33	2318.30
544.53	2230.24
544.73	2183.13
544.93	2232.29
545.12	2230.24
545.32	2164.70
545.52	2129.89
545.71	2144.22
545.91	2052.06
546.11	2117.60
546.30	2119.65
546.50	2258.91
546.70	2234.33
546.90	2230.24
547.09	2029.54
547.29	2185.18
547.49	2250.72
547.68	2213.85
547.88	2080.74
548.08	2252.77
548.27	2703.32
548.47	2080.74
548.67	2195.42
548.87	2238.43
549.06	2230.24
549.26	2187.23
549.46	2242.53
549.65	2215.90
549.85	2236.38
550.05	2291.68
550.24	2148.32
550.44	2191.33
550.64	2232.29
550.83	2279.39
551.03	2269.15
551.23	2408.41
551.42	2281.44
551.62	2215.90
551.82	2246.62
552.01	2146.27
552.21	2308.06
552.41	2168.80
552.60	2400.22
552.80	2232.29
553.00	2082.78
553.19	2189.28
553.39	2340.83
553.59	2113.50
553.78	2207.71
553.98	2127.84
554.17	2095.07
554.37	2299.87
554.57	2230.24
554.76	2123.74
554.96	2232.29
555.16	2242.53
555.35	2222.05
555.55	2201.57
555.75	2275.29
555.94	2310.11
556.14	2111.46
556.33	2273.25
556.53	2228.19
556.73	2238.43
556.92	2191.33
557.12	2349.02
557.32	2402.27
557.51	2408.41
557.71	2250.72
557.90	2334.68
558.10	2332.64
558.30	2152.42
558.49	2148.32
558.69	2248.67
558.88	2269.15
559.08	2197.47
559.28	2203.61
559.47	2244.57
559.67	2293.72
559.86	2455.51
560.06	2244.57
560.26	2142.18
560.45	2226.14
560.65	2222.05
560.84	2322.40
561.04	2170.85
561.24	2232.29
561.43	2088.93
561.63	2308.06
561.82	2205.66
562.02	2316.25
562.22	2103.26
562.41	2142.18
562.61	2254.81
562.80	2078.69
563.00	2439.13
563.19	2142.18
563.39	2224.09
563.59	2267.10
563.78	2111.46
563.98	2047.97
564.17	2121.70
564.37	2058.21
564.56	2146.27
564.76	2045.92
564.96	2310.11
565.15	2291.68
565.35	2381.79
565.54	2125.79
565.74	2187.23
565.93	2285.53
566.13	2156.51
566.32	2248.67
566.52	2244.57
566.71	2260.96
566.91	2281.44
567.11	2332.64
567.30	2156.51
567.50	2242.53
567.69	2281.44
567.89	2131.94
568.08	2035.68
568.28	2242.53
568.47	2013.15
568.67	2172.89
568.86	2195.42
569.06	2285.53
569.25	2197.47
569.45	2056.16
569.64	2181.09
569.84	2199.52
570.04	2142.18
570.23	2125.79
570.43	2199.52
570.62	2265.05
570.82	2394.08
571.01	2062.30
571.21	2138.08
571.40	2123.74
571.60	2273.25
571.79	2285.53
571.99	2232.29
572.18	2150.37
572.38	2279.39
572.57	2168.80
572.77	2193.37
572.96	2389.98
573.16	2338.78
573.35	2162.66
573.55	2283.49
573.74	2176.99
573.94	2174.94
574.13	2179.04
574.33	2246.62
574.52	2344.92
574.71	2158.56
574.91	2252.77
575.10	2142.18
575.30	2183.13
575.49	2146.27
575.69	2191.33
575.88	2310.11
576.08	2220.00
576.27	2318.30
576.47	2285.53
576.66	2428.89
576.86	2469.85
577.05	2318.30
577.25	2330.59
577.44	2420.70
577.64	2156.51
577.83	2367.45
578.02	2199.52
578.22	2314.20
578.41	2357.21
578.61	2273.25
578.80	2084.83
579.00	2234.33
579.19	2168.80
579.39	2277.34
579.58	2312.16
579.77	2254.81
579.97	2322.40
580.16	2371.55
580.36	2297.82
580.55	2310.11
580.75	2252.77
580.94	2324.44
581.13	2392.03
581.33	2445.27
581.52	2215.90
581.72	2445.27
581.91	2349.02
582.11	2277.34
582.30	2308.06
582.49	2172.89
582.69	2449.37
582.88	2285.53
583.08	2252.77
583.27	2353.12
583.47	2277.34
583.66	2236.38
583.85	2154.46
584.05	2254.81
584.24	2365.40
584.44	2258.91
584.63	2340.83
584.82	2387.93
585.02	2471.90
585.21	2373.60
585.41	2351.07
585.60	2387.93
585.79	2492.38
585.99	2570.20
586.18	2375.64
586.37	2836.44
586.57	4491.20
586.76	13141.82
586.96	32118.29
587.15	46118.21
587.34	55243.96
587.54	60355.69
587.73	55545.01
587.93	39046.57
588.12	29730.36
588.31	23682.71
588.51	20598.47
588.70	19240.67
588.89	17133.31
589.09	15077.15
589.28	12953.40
589.47	10604.38
589.67	8324.99
589.86	6244.26
590.06	4757.43
590.25	3829.70
590.44	3157.97
590.64	2867.16
590.83	2643.93
591.02	2441.18
591.22	2293.72
591.41	2342.88
591.60	2258.91
591.80	2502.62
591.99	2172.89
592.18	2252.77
592.38	2389.98
592.57	2203.61
592.76	2310.11
592.96	2226.14
593.15	2269.15
593.34	2320.35
593.54	2207.71
593.73	2301.92
593.92	2301.92
594.12	2269.15
594.31	2351.07
594.50	2408.41
594.70	2334.68
594.89	2559.96
595.08	2164.70
595.28	2308.06
595.47	2580.44
595.66	2324.44
595.86	2125.79
596.05	2193.37
596.24	2211.81
596.43	2428.89
596.63	2342.88
596.82	2336.73
597.01	2271.20
597.21	2406.36
597.40	2342.88
597.59	2226.14
597.79	2324.44
597.98	2271.20
598.17	2258.91
598.36	2248.67
598.56	2308.06
598.75	2217.95
598.94	2226.14
599.14	2297.82
599.33	2220.00
599.52	2246.62
599.71	2258.91
599.91	2279.39
600.10	2285.53
600.29	2236.38
600.48	2326.49
600.68	2299.87
600.87	2215.90
601.06	2164.70
601.26	2285.53
601.45	2238.43
601.64	2164.70
601.83	2322.40
602.03	2133.98
602.22	2095.07
602.41	2355.16
602.60	2482.14
602.80	2246.62
602.99	2301.92
603.18	2195.42
603.37	2179.04
603.57	2242.53
603.76	2291.68
603.95	2306.01
604.14	2131.94
604.34	2115.55
604.53	2166.75
604.72	2258.91
604.91	2316.25
605.10	2308.06
605.30	2146.27
605.49	2414.56
605.68	2336.73
605.87	2265.05
606.07	2154.46
606.26	2136.03
606.45	2322.40
606.64	2269.15
606.84	2197.47
607.03	2228.19
607.22	2430.94
607.41	2244.57
607.60	2209.76
607.80	2283.49
607.99	2189.28
608.18	2222.05
608.37	2291.68
608.56	2129.89
608.76	2346.97
608.95	2369.50
609.14	2306.01
609.33	2381.79
609.52	2453.47
609.72	2318.30
609.91	2326.49
610.10	2349.02
610.29	2373.60
610.48	2316.25
610.68	2217.95
610.87	2236.38
611.06	2273.25
611.25	2172.89
611.44	2330.59
611.63	2232.29
611.83	2346.97
612.02	2136.03
612.21	2238.43
612.40	2097.12
612.59	2093.02
612.79	2136.03
612.98	2183.13
613.17	2402.27
613.36	2215.90
613.55	2453.47
613.74	2230.24
613.93	2353.12
614.13	2414.56
614.32	2490.33
614.51	2480.09
614.70	2322.40
614.89	2316.25
615.08	2351.07
615.28	2709.46
615.47	2170.85
615.66	2324.44
615.85	2271.20
616.04	2471.90
616.23	2367.45
616.42	2291.68
616.62	2334.68
616.81	2260.96
617.00	2174.94
617.19	2330.59
617.38	2250.72
617.57	2203.61
617.76	2326.49
617.95	2289.63
618.15	2207.71
618.34	2355.16
618.53	2047.97
618.72	2330.59
618.91	2254.81
619.10	2299.87
619.29	2205.66
619.48	2289.63
619.68	2115.55
619.87	2170.85
620.06	2185.18
620.25	2205.66
620.44	2201.57
620.63	2174.94
620.82	2248.67
621.01	2228.19
621.20	2244.57
621.39	2269.15
621.59	2232.29
621.78	2160.61
621.97	2154.46
622.16	2250.72
622.35	2232.29
622.54	2213.85
622.73	2289.63
622.92	2097.12
623.11	2351.07
623.30	2244.57
623.49	2179.04
623.68	2086.88
623.88	2334.68
624.07	2246.62
624.26	2201.57
624.45	2156.51
624.64	2125.79
624.83	2224.09
625.02	2152.42
625.21	2209.76
625.40	2254.81
625.59	2375.64
625.78	2230.24
625.97	2306.01
626.16	2355.16
626.35	2377.69
626.54	2281.44
626.74	2396.12
626.93	2236.38
627.12	2252.77
627.31	2306.01
627.50	2211.81
627.69	2254.81
627.88	2095.07
628.07	2244.57
628.26	2052.06
628.45	2152.42
628.64	2103.26
628.83	2191.33
629.02	2103.26
629.21	2291.68
629.40	2275.29
629.59	2228.19
629.78	2166.75
629.97	2260.96
630.16	2291.68
630.35	2158.56
630.54	2240.48
630.73	2097.12
630.92	2199.52
631.11	2156.51
631.30	2228.19
631.49	2326.49
631.68	2256.86
631.87	2176.99
632.06	2086.88
632.25	2465.75
632.44	2213.85
632.63	2211.81
632.82	2267.10
633.01	2289.63
633.20	2353.12
633.39	2316.25
633.58	2119.65
633.77	2291.68
633.96	2316.25
634.15	2328.54
634.34	2269.15
634.53	2383.84
634.72	2217.95
634.91	2084.83
635.10	2207.71
635.29	2308.06
635.48	2209.76
635.67	2164.70
635.86	2080.74
636.05	2318.30
636.24	2174.94
636.43	2240.48
636.62	2215.90
636.81	2015.20
637.00	2111.46
637.19	2256.86
637.38	2193.37
637.57	2166.75
637.76	2314.20
637.95	2396.12
638.14	2338.78
638.33	2328.54
638.52	2275.29
638.71	2185.18
638.89	2103.26
639.08	2531.29
639.27	2473.95
639.46	2455.51
639.65	2863.06
639.84	2932.69
640.03	3076.05
640.22	2947.03
640.41	2934.74
640.60	2621.40
640.79	2555.86
640.98	2367.45
641.17	2402.27
641.36	2428.89
641.55	2408.41
641.74	2273.25
641.92	2316.25
642.11	2252.77
642.30	2293.72
642.49	2199.52
642.68	2187.23
642.87	2203.61
643.06	2267.10
643.25	2125.79
643.44	2138.08
643.63	2269.15
643.82	2236.38
644.00	2033.63
644.19	2166.75
644.38	2136.03
644.57	2267.10
644.76	2248.67
644.95	2154.46
645.14	2158.56
645.33	2195.42
645.52	2234.33
645.71	2109.41
645.89	2105.31
646.08	2162.66
646.27	2170.85
646.46	2308.06
646.65	2084.83
646.84	2164.70
647.03	2062.30
647.22	2303.96
647.40	2230.24
647.59	2203.61
647.78	2070.50
647.97	2105.31
648.16	2146.27
648.35	2385.88
648.54	2242.53
648.73	2146.27
648.91	2299.87
649.10	2203.61
649.29	2117.60
649.48	2193.37
649.67	2252.77
649.86	2230.24
650.05	2283.49
650.23	2457.56
650.42	2273.25
650.61	2609.11
650.80	2408.41
650.99	2547.67
651.18	2383.84
651.36	2332.64
651.55	2250.72
651.74	2277.34
651.93	2172.89
652.12	2230.24
652.31	2277.34
652.49	2140.13
652.68	2232.29
652.87	2303.96
653.06	2279.39
653.25	2375.64
653.44	2199.52
653.62	2361.31
653.81	2203.61
654.00	2267.10
654.19	2387.93
654.38	2475.99
654.56	2230.24
654.75	2181.09
654.94	2258.91
655.13	2203.61
655.32	2246.62
655.51	2293.72
655.69	2039.78
655.88	2271.20
656.07	2103.26
656.26	2269.15
656.45	2086.88
656.63	2197.47
656.82	2234.33
657.01	2340.83
657.20	2115.55
657.38	2371.55
657.57	2127.84
657.76	2093.02
657.95	2176.99
658.14	2170.85
658.32	2301.92
658.51	2072.54
658.70	2297.82
658.89	2265.05
659.08	2220.00
659.26	2416.60
659.45	2111.46
659.64	2306.01
659.83	2195.42
660.01	2594.78
660.20	2263.01
660.39	2416.60
660.58	2105.31
660.76	2220.00
660.95	2103.26
661.14	2254.81
661.33	2101.22
661.51	2136.03
661.70	2164.70
661.89	2256.86
662.08	2191.33
662.26	2068.45
662.45	2154.46
662.64	2381.79
662.83	2236.38
663.01	2027.49
663.20	2162.66
663.39	2383.84
663.58	2183.13
663.76	2105.31
663.95	2322.40
664.14	2113.50
664.32	2101.22
664.51	1996.77
664.70	2088.93
664.89	2244.57
665.07	2050.02
665.26	2275.29
665.45	2146.27
665.64	2293.72
665.82	2277.34
666.01	2260.96
666.20	2099.17
666.38	2332.64
666.57	2357.21
666.76	3373.00
666.95	7993.22
667.13	16256.78
667.32	21708.47
667.51	25640.57
667.69	27559.52
667.88	25341.57
668.07	18302.70
668.25	14642.98
668.44	11935.56
668.63	10295.14
668.81	9107.32
669.00	7995.27
669.19	7077.78
669.38	6123.43
669.56	5355.44
669.75	4462.52
669.94	3784.65
670.12	3219.41
670.31	2746.33
670.50	2598.87
670.68	2453.47
670.87	2353.12
671.06	2267.10
671.24	2342.88
671.43	2424.80
671.62	2346.97
671.80	2228.19
671.99	2346.97
672.18	2326.49
672.36	2281.44
672.55	2232.29
672.74	2236.38
672.92	2189.28
673.11	2289.63
673.29	2156.51
673.48	2269.15
673.67	2142.18
673.85	2236.38
674.04	2148.32
674.23	2283.49
674.41	2375.64
674.60	2113.50
674.79	2111.46
674.97	2146.27
675.16	2258.91
675.34	2254.81
675.53	2121.70
675.72	2232.29
675.90	2404.32
676.09	2166.75
676.28	2162.66
676.46	2090.98
676.65	2215.90
676.83	2047.97
677.02	2220.00
677.21	2232.29
677.39	2217.95
677.58	2133.98
677.77	2166.75
677.95	2152.42
678.14	2183.13
678.32	2078.69
678.51	2174.94
678.70	2349.02
678.88	2095.07
679.07	2275.29
679.25	2222.05
679.44	2160.61
679.63	2158.56
679.81	2230.24
680.00	2293.72
680.18	2254.81
680.37	2381.79
680.55	2205.66
680.74	2101.22
680.93	2072.54
681.11	2193.37
681.30	2191.33
681.48	2172.89
681.67	2209.76
681.85	2181.09
682.04	2168.80
682.23	2308.06
682.41	2275.29
682.60	2060.26
682.78	2127.84
682.97	2123.74
683.15	2215.90
683.34	2199.52
683.53	2357.21
683.71	2060.26
683.90	2340.83
684.08	2459.61
684.27	2060.26
684.45	2265.05
684.64	2297.82
684.82	2222.05
685.01	2285.53
685.19	2234.33
685.38	2385.88
685.57	2252.77
685.75	2109.41
685.94	2154.46
686.12	2078.69
686.31	2162.66
686.49	2303.96
686.68	2140.13
686.86	2301.92
687.05	2181.09
687.23	2310.11
687.42	2107.36
687.60	2056.16
687.79	2342.88
687.97	2285.53
688.16	2222.05
688.34	2301.92
688.53	2031.58
688.71	2254.81
688.90	2314.20
689.08	2207.71
689.27	2093.02
689.45	2246.62
689.64	2222.05
689.82	2293.72
690.01	2275.29
690.19	2299.87
690.38	2148.32
690.56	2334.68
690.75	2066.40
690.93	2197.47
691.12	2183.13
691.30	2226.14
691.49	2238.43
691.67	2207.71
691.86	2398.17
692.04	2127.84
692.23	2209.76
692.41	2316.25
692.60	2469.85
692.78	2363.36
692.97	2201.57
693.15	2394.08
693.34	2459.61
693.52	2373.60
693.71	2101.22
693.89	2246.62
694.08	2088.93
694.26	2211.81
694.44	2332.64
694.63	2172.89
694.81	2154.46
695.00	2103.26
695.18	2238.43
695.37	2457.56
695.55	2224.09
695.74	2170.85
695.92	2086.88
696.10	2351.07
696.29	2109.41
696.47	2209.76
696.66	2101.22
696.84	2080.74
697.03	2211.81
697.21	2385.88
697.40	3237.84
697.58	2365.40
697.76	2170.85
697.95	2162.66
698.13	2111.46
698.32	2207.71
698.50	2222.05
698.68	2209.76
698.87	2242.53
699.05	2332.64
699.24	2181.09
699.42	2133.98
699.61	2246.62
699.79	2267.10
699.97	2181.09
700.16	2154.46
700.34	2045.92
700.53	2232.29
700.71	2301.92
700.89	2263.01
701.08	2199.52
701.26	2195.42
701.45	2791.38
701.63	2109.41
701.81	2129.89
702.00	2101.22
702.18	2248.67
702.37	2203.61
702.55	2535.39
702.73	2447.32
702.92	2381.79
703.10	2572.25
703.28	2521.05
703.47	2355.16
703.65	2412.51
703.84	2432.99
704.02	2236.38
704.20	2447.32
704.39	2217.95
704.57	2185.18
704.75	2326.49
704.94	2355.16
705.12	2246.62
705.30	2545.63
705.49	4489.15
705.67	11059.03
705.86	20131.53
706.04	24454.79
706.22	27678.30
706.41	28790.34
706.59	24872.58
706.77	17487.61
706.96	14630.69
707.14	12730.17
707.32	10729.31
707.51	9668.46
707.69	7987.08
707.87	6545.31
708.06	5093.30
708.24	4140.99
708.42	3319.76
708.61	3133.39
708.79	2465.75
708.97	2404.32
709.16	2396.12
709.34	2316.25
709.52	2215.90
709.71	2222.05
709.89	2306.01
710.07	2187.23
710.26	2133.98
710.44	2121.70
710.62	2301.92
710.80	2224.09
710.99	2308.06
711.17	2265.05
711.35	2154.46
711.54	2189.28
711.72	2269.15
711.90	2240.48
712.09	2176.99
712.27	2187.23
712.45	2269.15
712.63	2179.04
712.82	2224.09
713.00	2248.67
713.18	2238.43
713.37	2248.67
713.55	2260.96
713.73	2187.23
713.91	2234.33
714.10	2158.56
714.28	2129.89
714.46	2242.53
714.65	2252.77
714.83	2228.19
715.01	2209.76
715.19	2242.53
715.38	2084.83
715.56	2244.57
715.74	2103.26
715.92	2158.56
716.11	2355.16
716.29	2023.39
716.47	2187.23
716.65	2170.85
716.84	2019.30
717.02	2338.78
717.20	2011.11
717.38	2125.79
717.57	2236.38
717.75	2246.62
717.93	2185.18
718.11	2273.25
718.30	2031.58
718.48	2248.67
718.66	2291.68
718.84	2228.19
719.03	2209.76
719.21	2095.07
719.39	2365.40
719.57	2236.38
719.75	2346.97
719.94	2115.55
720.12	2181.09
720.30	2224.09
720.48	2267.10
720.67	2111.46
720.85	2070.50
721.03	2242.53
721.21	2138.08
721.39	2291.68
721.58	2260.96
721.76	2129.89
721.94	2263.01
722.12	2258.91
722.30	2314.20
722.49	2166.75
722.67	2205.66
722.85	2193.37
723.03	2080.74
723.21	2148.32
723.40	2187.23
723.58	2293.72
723.76	2301.92
723.94	2275.29
724.12	2277.34
724.30	2318.30
724.49	2357.21
724.67	2133.98
724.85	2359.26
725.03	2121.70
725.21	2174.94
725.40	2277.34
725.58	2213.85
725.76	2322.40
725.94	2250.72
726.12	2142.18
726.30	2207.71
726.49	2156.51
726.67	2195.42
726.85	2203.61
727.03	2615.26
727.21	3594.19
727.39	5451.69
727.57	6567.84
727.76	7131.03
727.94	7737.23
728.12	7278.48
728.30	5771.18
728.48	5003.19
728.66	4394.94
728.84	4091.84
729.03	3475.40
729.21	3241.93
729.39	2781.14
729.57	2465.75
729.75	2383.84
729.93	2349.02
730.11	2195.42
730.30	2121.70
730.48	2203.61
730.66	2273.25
730.84	2316.25
731.02	2256.86
731.20	2193.37
731.38	2238.43
731.56	2105.31
731.74	2121.70
731.93	2179.04
732.11	2215.90
732.29	2103.26
732.47	2228.19
732.65	2306.01
732.83	2301.92
733.01	2275.29
733.19	2125.79
733.37	2156.51
733.56	2226.14
733.74	2142.18
733.92	2332.64
734.10	2205.66
734.28	2244.57
734.46	2062.30
734.64	2183.13
734.82	2183.13
735.00	2217.95
735.18	2121.70
735.36	2201.57
735.54	2172.89
735.73	2199.52
735.91	2195.42
736.09	2301.92
736.27	2191.33
736.45	2256.86
736.63	2084.83
736.81	2101.22
736.99	2254.81
737.17	2320.35
737.35	2146.27
737.53	2117.60
737.71	2203.61
737.89	2332.64
738.07	2109.41
738.25	2140.13
738.43	2078.69
738.61	2252.77
738.80	2138.08
738.98	2113.50
739.16	2150.37
739.34	2101.22
739.52	2289.63
739.70	2172.89
739.88	2260.96
740.06	2236.38
740.24	2082.78
740.42	2291.68
740.60	2097.12
740.78	2076.64
740.96	2029.54
741.14	2101.22
741.32	2246.62
741.50	2086.88
741.68	2367.45
741.86	2367.45
742.04	2062.30
742.22	2072.54
742.40	2109.41
742.58	2176.99
742.76	2080.74
742.94	2316.25
743.12	2074.59
743.30	2154.46
743.48	2283.49
743.66	2095.07
743.84	2250.72
744.02	2209.76
744.20	2228.19
744.38	2146.27
744.56	2097.12
744.74	2340.83
744.92	2248.67
745.10	2330.59
745.28	2256.86
745.46	2412.51
745.64	2273.25
745.82	2228.19
746.00	2220.00
746.18	2207.71
746.36	2174.94
746.54	2297.82
746.72	2242.53
746.90	2078.69
747.08	2293.72
747.26	2179.04
747.44	2244.57
747.62	2277.34
747.80	2281.44
747.98	2355.16
748.15	2232.29
748.33	2398.17
748.51	2197.47
748.69	2275.29
748.87	2064.35
749.05	2170.85
749.23	2220.00
749.41	2189.28
749.59	2146.27
749.77	2330.59
749.95	2170.85
750.13	2060.26
750.31	2236.38
750.49	2162.66
750.67	2281.44
750.85	2267.10
751.03	2217.95
751.20	2420.70
751.38	2226.14
751.56	2113.50
751.74	2232.29
751.92	2185.18
752.10	2015.20
752.28	2344.92
752.46	2160.61
752.64	2133.98
752.82	2252.77
753.00	2285.53
753.18	2211.81
753.35	2158.56
753.53	2248.67
753.71	2146.27
753.89	2256.86
754.07	2287.58
754.25	2314.20
754.43	2228.19
754.61	2146.27
754.79	2252.77
754.97	2201.57
755.14	2273.25
755.32	2144.22
755.50	2250.72
755.68	2236.38
755.86	2121.70
756.04	2133.98
756.22	1929.19
756.40	2226.14
756.57	2363.36
756.75	2125.79
756.93	2306.01
757.11	2207.71
757.29	2054.11
757.47	2144.22
757.65	2072.54
757.82	2013.15
758.00	2088.93
758.18	2123.74
758.36	2129.89
758.54	2322.40
758.72	2035.68
758.90	2314.20
759.07	2220.00
759.25	2070.50
759.43	2226.14
759.61	2078.69
759.79	3018.71
759.97	2310.11
760.15	2154.46
760.32	2201.57
760.50	2242.53
760.68	2316.25
760.86	2127.84
761.04	2277.34
761.22	2258.91
761.39	2217.95
761.57	2201.57
761.75	2129.89
761.93	2271.20
762.11	2197.47
762.28	2242.53
762.46	2154.46
762.64	2340.83
762.82	2142.18
763.00	2152.42
763.18	2275.29
763.35	2107.36
763.53	2289.63
763.71	2254.81
763.89	2197.47
764.07	2236.38
764.24	2185.18
764.42	2279.39
764.60	2176.99
764.78	2224.09
764.96	2279.39
765.13	2250.72
765.31	2199.52
765.49	2279.39
765.67	2084.83
765.84	2107.36
766.02	2133.98
766.20	2037.73
766.38	2150.37
766.56	2230.24
766.73	2289.63
766.91	2203.61
767.09	2236.38
767.27	2197.47
767.44	2105.31
767.62	2269.15
767.80	2199.52
767.98	2052.06
768.15	2217.95
768.33	2293.72
768.51	2222.05
768.69	2213.85
768.87	2234.33
769.04	2252.77
769.22	2432.99
769.40	2324.44
769.58	2418.65
769.75	2281.44
769.93	2375.64
770.11	2185.18
770.28	2133.98
770.46	2285.53
770.64	2203.61
770.82	2265.05
770.99	2138.08
771.17	2213.85
771.35	2256.86
771.53	2179.04
771.70	2195.42
771.88	2226.14
772.06	2097.12
772.23	2133.98
772.41	2209.76
772.59	2138.08
772.77	2133.98
772.94	2258.91
773.12	2176.99
773.30	2162.66
773.47	2205.66
773.65	2050.02
773.83	2359.26
774.01	2213.85
774.18	2052.06
774.36	2146.27
774.54	2125.79
774.71	2203.61
774.89	2119.65
775.07	2068.45
775.24	2138.08
775.42	2183.13
775.60	2303.96
775.78	2074.59
775.95	2058.21
776.13	1966.05
776.31	2033.63
776.48	2213.85
776.66	2375.64
776.84	2226.14
777.01	2105.31
777.19	2054.11
777.37	2211.81
777.54	2254.81
777.72	2447.32
777.90	2193.37
778.07	2074.59
778.25	2541.53
778.43	2308.06
778.60	2080.74
778.78	2222.05
778.96	2322.40
779.13	2088.93
779.31	2269.15
779.49	2174.94
779.66	2209.76
779.84	2133.98
780.01	2185.18
780.19	2088.93
780.37	2285.53
780.54	2234.33
780.72	2084.83
780.90	2152.42
781.07	2101.22
781.25	2111.46
781.43	2256.86
781.60	2131.94
781.78	2220.00
781.95	2111.46
782.13	2127.84
782.31	2246.62
782.48	2007.01
782.66	2260.96
782.83	2416.60
783.01	2232.29
783.19	2291.68
783.36	2125.79
783.54	2027.49
783.72	2269.15
783.89	2154.46
784.07	2148.32
784.24	2258.91
784.42	2318.30
784.60	2150.37
784.77	2201.57
784.95	2029.54
785.12	2095.07
785.30	2254.81
785.47	2060.26
785.65	2066.40
785.83	2133.98
786.00	2144.22
786.18	2226.14
786.35	2146.27
786.53	2209.76
786.71	2271.20
786.88	2232.29
787.06	2146.27
787.23	2199.52
787.41	2101.22
787.58	2207.71
787.76	2097.12
787.94	2148.32
788.11	2183.13
788.29	2086.88
788.46	2185.18
788.64	2058.21
788.81	2105.31
788.99	2076.64
789.16	2097.12
789.34	2224.09
789.52	2127.84
789.69	2154.46
789.87	2027.49
790.04	2121.70
790.22	2217.95
790.39	2299.87
790.57	2074.59
790.74	2125.79
790.92	2244.57
791.09	2039.78
791.27	2203.61
791.44	2332.64
791.62	2168.80
791.79	2273.25
791.97	2123.74
792.15	2420.70
792.32	2293.72
792.50	2258.91
792.67	2322.40
792.85	2371.55
793.02	2267.10
793.20	2144.22
793.37	2113.50
793.55	2187.23
793.72	2025.44
793.90	2267.10
794.07	2136.03
794.25	2129.89
794.42	2158.56
794.60	2160.61
794.77	2133.98
794.95	2250.72
795.12	2228.19
795.30	2260.96
795.47	2054.11
795.65	2461.66
795.82	2254.81
796.00	2187.23
796.17	2199.52
796.34	2129.89
796.52	2238.43
796.69	2316.25
796.87	2236.38
797.04	2320.35
797.22	2295.77
797.39	2154.46
797.57	2326.49
797.74	2258.91
797.92	2193.37
798.09	2150.37
798.27	2228.19
798.44	2168.80
798.62	2099.17
798.79	2236.38
798.96	2260.96
799.14	2148.32
799.31	2375.64
799.49	2174.94
799.66	2250.72
799.84	2164.70
800.01	2031.58
800.19	2209.76
800.36	2080.74
800.53	2199.52
800.71	2240.48
800.88	2408.41
801.06	2174.94
801.23	2093.02
801.41	2080.74
801.58	2164.70
801.75	2150.37
801.93	2254.81
802.10	2197.47
802.28	2199.52
802.45	2187.23
802.63	2236.38
802.80	2320.35
802.97	2144.22
803.15	2252.77
803.32	2168.80
803.50	2101.22
803.67	2093.02
803.84	2072.54
804.02	2146.27
804.19	2146.27
804.37	2002.91
804.54	2027.49
804.71	2185.18
804.89	2187.23
805.06	2113.50
805.24	2041.82
805.41	2072.54
805.58	2142.18
805.76	2439.13
805.93	2179.04
806.10	2291.68
806.28	2228.19
806.45	2187.23
806.63	2199.52
806.80	2117.60
806.97	2220.00
807.15	2158.56
807.32	2228.19
807.49	2242.53
807.67	1964.00
807.84	2236.38
808.01	1961.95
808.19	2353.12
808.36	2379.74
808.54	2109.41
808.71	2080.74
808.88	2205.66
809.06	2201.57
809.23	2381.79
809.40	2113.50
809.58	2230.24
809.75	2201.57
809.92	2045.92
810.10	2363.36
810.27	2121.70
810.44	2195.42
810.62	2228.19
810.79	2195.42
810.96	2047.97
811.14	2224.09
811.31	2185.18
811.48	2291.68
811.66	2166.75
811.83	2265.05
812.00	2277.34
812.18	2277.34
812.35	2334.68
812.52	2125.79
812.69	2148.32
812.87	2152.42
813.04	2090.98
813.21	2174.94
813.39	2138.08
813.56	2183.13
813.73	2299.87
813.91	2080.74
814.08	2197.47
814.25	2201.57
814.42	2076.64
814.60	2084.83
814.77	2146.27
814.94	2195.42
815.12	2226.14
815.29	2371.55
815.46	2166.75
815.63	2144.22
815.81	2191.33
815.98	2168.80
816.15	2138.08
816.33	2236.38
816.50	2148.32
816.67	2260.96
816.84	2127.84
817.02	2070.50
817.19	2107.36
817.36	2209.76
817.53	2252.77
817.71	2144.22
817.88	2289.63
818.05	2152.42
818.22	2181.09
818.40	2299.87
818.57	2125.79
818.74	2181.09
818.91	2123.74
819.09	2236.38
819.26	2252.77
819.43	2115.55
819.60	2093.02
819.78	2146.27
819.95	2254.81
820.12	2127.84
820.29	2318.30
820.47	2271.20
820.64	2140.13
820.81	2127.84
820.98	2144.22
821.15	2179.04
821.33	2228.19
821.50	1998.82
821.67	2283.49
821.84	2217.95
822.02	2203.61
822.19	2238.43
822.36	2205.66
822.53	2111.46
822.70	2140.13
822.88	2160.61
823.05	2263.01
823.22	2301.92
823.39	2267.10
823.56	2287.58
823.74	2340.83
823.91	2142.18
824.08	2039.78
824.25	2113.50
824.42	2365.40
824.60	2090.98
824.77	2150.37
824.94	2215.90
825.11	2273.25
825.28	2185.18
825.45	2154.46
825.63	2144.22
825.80	2084.83
825.97	2217.95
826.14	2238.43
826.31	2039.78
826.48	2314.20
826.66	2068.45
826.83	2191.33
827.00	2183.13
827.17	2068.45
827.34	2166.75
827.51	2109.41
827.69	2158.56
827.86	2090.98
828.03	2121.70
828.20	2152.42
828.37	2162.66
828.54	2140.13
828.71	2144.22
828.89	2373.60
829.06	2232.29
829.23	2306.01
829.40	2039.78
829.57	2052.06
829.74	2248.67
829.91	2160.61
830.09	2129.89
830.26	2199.52
830.43	2320.35
830.60	2150.37
830.77	2222.05
830.94	2314.20
831.11	2301.92
831.28	2123.74
831.46	2283.49
831.63	2152.42
831.80	2316.25
831.97	2144.22
832.14	2189.28
832.31	2207.71
832.48	2211.81
832.65	2351.07
832.82	2136.03
832.99	2248.67
833.17	2076.64
833.34	2318.30
833.51	2179.04
833.68	2064.35
833.85	2236.38
834.02	2133.98
834.19	2111.46
834.36	2025.44
834.53	2217.95
834.70	2308.06
834.87	2181.09
835.04	2105.31
835.22	2095.07
835.39	2187.23
835.56	2121.70
835.73	2160.61
835.90	2299.87
836.07	2037.73
836.24	2207.71
836.41	2150.37
836.58	2131.94
836.75	2285.53
836.92	2193.37
837.09	2140.13
837.26	2207.71
837.43	2215.90
837.60	2183.13
837.77	2133.98
837.94	2215.90
838.12	2254.81
838.29	2176.99
838.46	2111.46
838.63	2076.64
838.80	2375.64
838.97	2248.67
839.14	2209.76
839.31	2193.37
839.48	2295.77
839.65	2242.53
839.82	2183.13
839.99	2228.19
840.16	2201.57
840.33	2105.31
840.50	2205.66
840.67	2072.54
840.84	2004.96
841.01	2191.33
841.18	2109.41
841.35	2179.04
841.52	2289.63
841.69	2389.98
841.86	2185.18
842.03	2172.89
842.20	2197.47
842.37	2123.74
842.54	2236.38
842.71	2142.18
842.88	2054.11
843.05	2217.95
843.22	2158.56
843.39	2183.13
843.56	2093.02
843.73	2168.80
843.90	2222.05
844.07	2172.89
844.24	2242.53
844.41	2228.19
844.58	2250.72
844.75	2209.76
844.92	2209.76
845.09	2125.79
845.26	2129.89
845.43	2240.48
845.60	2142.18
845.77	2183.13
845.94	2203.61
846.10	2244.57
846.27	2027.49
846.44	2050.02
846.61	2123.74
846.78	2260.96
846.95	2275.29
847.12	2197.47
847.29	2117.60
847.46	2138.08
847.63	2258.91
847.80	2076.64
847.97	2093.02
848.14	2389.98
848.31	2193.37
848.48	2097.12
848.65	2174.94
848.82	2146.27
848.98	2318.30
849.15	2131.94
849.32	2242.53
849.49	2265.05
849.66	2168.80
849.83	2217.95
850.00	2138.08
850.17	2310.11
850.34	2111.46
850.51	2121.70
850.68	2113.50
850.85	2351.07
851.01	2285.53
851.18	2127.84
851.35	2162.66
851.52	2220.00
851.69	2381.79
851.86	2062.30
852.03	2131.94
852.20	2185.18
852.37	2185.18
852.53	2068.45
852.70	2127.84
852.87	2299.87
853.04	2269.15
853.21	2099.17
853.38	2297.82
853.55	2256.86
853.72	2269.15
853.89	2095.07
854.05	2179.04
854.22	2154.46
854.39	2152.42
854.56	2152.42
854.73	2230.24
854.90	2162.66
855.07	2197.47
855.23	2142.18
855.40	2125.79
855.57	2086.88
855.74	2072.54
855.91	2353.12
856.08	2029.54
856.25	2054.11
856.41	2117.60
856.58	2140.13
856.75	2136.03
856.92	2000.87
857.09	2285.53
857.26	2029.54
857.42	2179.04
857.59	2279.39
857.76	2078.69
857.93	2195.42
858.10	2146.27
858.27	2105.31
858.43	2291.68
858.60	2084.83
858.77	2019.30
858.94	2156.51
859.11	2252.77
859.27	2162.66
859.44	2142.18
859.61	2338.78
859.78	2207.71
859.95	2162.66
860.12	2156.51
860.28	2410.46
860.45	2357.21
860.62	2086.88
860.79	2242.53
860.95	2107.36
861.12	2197.47
861.29	2158.56
861.46	2082.78
861.63	2170.85
861.79	2189.28
861.96	2121.70
862.13	2097.12
862.30	2224.09
862.47	2090.98
862.63	2080.74
862.80	2217.95
862.97	2228.19
863.14	2236.38
863.30	2162.66
863.47	2086.88
863.64	2287.58
863.81	2207.71
863.97	2121.70
864.14	2201.57
864.31	2193.37
864.48	2220.00
864.65	2097.12
864.81	2238.43
864.98	2217.95
865.15	2267.10
865.32	2199.52
865.48	2226.14
865.65	2324.44
865.82	2115.55
865.98	2195.42
866.15	2232.29
866.32	2181.09
866.49	2185.18
866.65	2230.24
866.82	2166.75
866.99	2203.61
867.16	2131.94
867.32	2090.98
867.49	2117.60
867.66	2117.60
867.83	2142.18
867.99	2154.46
868.16	2072.54
868.33	2082.78
868.49	2226.14
868.66	2195.42
868.83	2250.72
868.99	2254.81
869.16	2181.09
869.33	2199.52
869.50	2263.01
869.66	2138.08
869.83	2158.56
870.00	2103.26
870.16	2277.34
870.33	2203.61
870.50	2197.47
870.66	2201.57
870.83	2269.15
871.00	2162.66
871.17	2232.29
871.33	2146.27
871.50	2121.70
871.67	2138.08
871.83	2037.73
872.00	2301.92
872.17	2176.99
872.33	2424.80
872.50	2263.01
872.67	2140.13
872.83	2103.26
873.00	2240.48
873.17	2113.50
873.33	2142.18
873.50	2166.75
873.67	2156.51
873.83	2179.04
874.00	2144.22
874.16	2293.72
874.33	2119.65
874.50	2039.78
874.66	2140.13
874.83	2213.85
875.00	2234.33
875.16	2256.86
875.33	2248.67
875.50	2047.97
875.66	2174.94
875.83	2144.22
875.99	2121.70
876.16	2142.18
876.33	2123.74
876.49	2242.53
876.66	2156.51
876.83	2183.13
876.99	2082.78
877.16	2111.46
877.32	2113.50
877.49	2179.04
877.66	2207.71
877.82	2402.27
877.99	2193.37
878.15	2263.01
878.32	2236.38
878.49	2213.85
878.65	2152.42
878.82	2285.53
878.98	2107.36
879.15	2258.91
879.32	2183.13
879.48	2160.61
879.65	2140.13
879.81	2148.32
879.98	2144.22
880.15	2162.66
880.31	2224.09
880.48	2121.70
880.64	2246.62
880.81	2213.85
880.97	2416.60
881.14	2295.77
881.31	2113.50
881.47	2295.77
881.64	2220.00
881.80	2060.26
881.97	2203.61
882.13	2201.57
882.30	2150.37
882.47	2101.22
882.63	2082.78
882.80	2166.75
882.96	2189.28
883.13	2375.64
883.29	2203.61
883.46	2203.61
883.62	2379.74
883.79	2197.47
883.95	2240.48
884.12	2086.88
884.29	2297.82
884.45	2236.38
884.62	2207.71
884.78	2068.45
884.95	2297.82
885.11	2107.36
885.28	2265.05
885.44	2084.83
885.61	2209.76
885.77	2291.68
885.94	2224.09
886.10	2197.47
886.27	2228.19
886.43	2404.32
886.60	2250.72
886.76	2088.93
886.93	2111.46
887.09	2156.51
887.26	2031.58
887.42	2213.85
887.59	2316.25
887.75	2367.45
887.92	2211.81
888.08	2312.16
888.25	2414.56
888.41	2283.49
888.58	2201.57
888.74	2097.12
888.91	2197.47
>>>>>End Processed Spectral Data<<<<<
