SpectraSuite Data File
++++++++++++++++++++++++++++++++++++
Date: Thu May 05 12:35:30 CEST 2016
User: root
Dark Spectrum Present: No
Reference Spectrum Present: No
Number of Sampled Component Spectra: 1
Spectrometers: USB4C02835
Integration Time (usec): 100000 (USB4C02835)
Spectra Averaged: 1 (USB4C02835)
Boxcar Smoothing: 0 (USB4C02835)
Correct for Electrical Dark: No (USB4C02835)
Strobe/Lamp Enabled: No (USB4C02835)
Correct for Detector Non-linearity: No (USB4C02835)
Correct for Stray Light: No (USB4C02835)
Number of Pixels in Processed Spectrum: 3648
>>>>>Begin Processed Spectral Data<<<<<
177.47	1794.02
177.69	1794.02
177.91	1794.02
178.13	1863.65
178.36	1740.77
178.58	2113.50
178.80	2297.82
179.02	2086.88
179.24	2066.40
179.46	2113.50
179.68	2174.94
179.90	2164.70
180.13	2217.95
180.35	2095.07
180.57	2154.46
180.79	2230.24
181.01	2162.66
181.23	2154.46
181.45	2205.66
181.67	2299.87
181.90	2263.01
182.12	2119.65
182.34	1968.10
182.56	2181.09
182.78	2224.09
183.00	2060.26
183.22	2203.61
183.44	2031.58
183.66	2449.37
183.89	2306.01
184.11	2142.18
184.33	2236.38
184.55	2256.86
184.77	2185.18
184.99	2181.09
185.21	2127.84
185.43	2488.28
185.65	2064.35
185.87	2199.52
186.10	2432.99
186.32	2430.94
186.54	2129.89
186.76	2168.80
186.98	2252.77
187.20	2058.21
187.42	2109.41
187.64	2097.12
187.86	2179.04
188.08	2301.92
188.30	2047.97
188.52	2226.14
188.75	2297.82
188.97	2318.30
189.19	2072.54
189.41	2117.60
189.63	2234.33
189.85	2093.02
190.07	2021.35
190.29	2043.87
190.51	2203.61
190.73	2070.50
190.95	2203.61
191.17	2226.14
191.39	2082.78
191.61	2138.08
191.84	2129.89
192.06	2209.76
192.28	2078.69
192.50	2504.67
192.72	2172.89
192.94	2183.13
193.16	2236.38
193.38	2246.62
193.60	2056.16
193.82	2109.41
194.04	2316.25
194.26	2170.85
194.48	2123.74
194.70	2066.40
194.92	2136.03
195.14	2236.38
195.36	2146.27
195.58	2172.89
195.80	2201.57
196.02	2088.93
196.24	2043.87
196.46	2070.50
196.69	2203.61
196.91	2365.40
197.13	2097.12
197.35	2121.70
197.57	2285.53
197.79	2338.78
198.01	2181.09
198.23	2211.81
198.45	2318.30
198.67	2025.44
198.89	2119.65
199.11	2193.37
199.33	2152.42
199.55	1951.71
199.77	2174.94
199.99	2185.18
200.21	2127.84
200.43	2170.85
200.65	1998.82
200.87	1970.15
201.09	2148.32
201.31	2133.98
201.53	2211.81
201.75	2193.37
201.97	2275.29
202.19	2193.37
202.41	2160.61
202.63	2283.49
202.85	2277.34
203.07	2258.91
203.29	2129.89
203.51	2078.69
203.73	2080.74
203.95	2428.89
204.17	2162.66
204.39	2234.33
204.61	2222.05
204.83	2176.99
205.05	2222.05
205.27	2164.70
205.49	2371.55
205.71	2250.72
205.93	2117.60
206.15	2097.12
206.37	2205.66
206.59	2236.38
206.81	2070.50
207.03	2070.50
207.25	2056.16
207.47	2193.37
207.69	2107.36
207.91	2289.63
208.13	2418.65
208.34	2170.85
208.56	2117.60
208.78	2121.70
209.00	2133.98
209.22	2146.27
209.44	2187.23
209.66	2029.54
209.88	2242.53
210.10	2168.80
210.32	2097.12
210.54	2217.95
210.76	2209.76
210.98	2248.67
211.20	1945.57
211.42	2168.80
211.64	2410.46
211.86	2228.19
212.08	2211.81
212.30	2113.50
212.52	2226.14
212.74	2211.81
212.96	2129.89
213.17	2207.71
213.39	2230.24
213.61	2306.01
213.83	2133.98
214.05	2187.23
214.27	2299.87
214.49	2084.83
214.71	2117.60
214.93	2168.80
215.15	2176.99
215.37	2242.53
215.59	2068.45
215.81	2138.08
216.03	2273.25
216.24	2113.50
216.46	2095.07
216.68	2105.31
216.90	2252.77
217.12	2246.62
217.34	2146.27
217.56	2242.53
217.78	2365.40
218.00	2281.44
218.22	2201.57
218.44	2142.18
218.66	2240.48
218.87	2338.78
219.09	2099.17
219.31	2183.13
219.53	2246.62
219.75	2076.64
219.97	2111.46
220.19	2144.22
220.41	2281.44
220.63	2326.49
220.85	2160.61
221.06	2111.46
221.28	2275.29
221.50	2222.05
221.72	2193.37
221.94	2047.97
222.16	2131.94
222.38	2275.29
222.60	2244.57
222.82	2105.31
223.03	2271.20
223.25	2064.35
223.47	2076.64
223.69	2281.44
223.91	2248.67
224.13	2217.95
224.35	2021.35
224.57	2224.09
224.78	2240.48
225.00	2105.31
225.22	2154.46
225.44	2222.05
225.66	2232.29
225.88	2162.66
226.10	2187.23
226.32	2168.80
226.53	2322.40
226.75	2154.46
226.97	2056.16
227.19	2154.46
227.41	2090.98
227.63	2215.90
227.85	1982.43
228.06	2187.23
228.28	2275.29
228.50	2283.49
228.72	2078.69
228.94	2099.17
229.16	2029.54
229.37	2156.51
229.59	2095.07
229.81	2205.66
230.03	2248.67
230.25	2095.07
230.47	1974.24
230.69	2097.12
230.90	2301.92
231.12	2117.60
231.34	2113.50
231.56	2256.86
231.78	2019.30
232.00	2170.85
232.21	2146.27
232.43	2174.94
232.65	1945.57
232.87	2258.91
233.09	2041.82
233.30	2179.04
233.52	2320.35
233.74	2191.33
233.96	2127.84
234.18	2191.33
234.40	2185.18
234.61	2398.17
234.83	2050.02
235.05	2078.69
235.27	2408.41
235.49	2271.20
235.70	2125.79
235.92	2234.33
236.14	2330.59
236.36	2465.75
236.58	2062.30
236.79	2242.53
237.01	2228.19
237.23	2152.42
237.45	2312.16
237.67	2115.55
237.88	2258.91
238.10	2322.40
238.32	2037.73
238.54	2056.16
238.76	2170.85
238.97	2140.13
239.19	2037.73
239.41	2265.05
239.63	2332.64
239.85	2101.22
240.06	2230.24
240.28	2115.55
240.50	2246.62
240.72	2144.22
240.93	2131.94
241.15	2273.25
241.37	2209.76
241.59	2271.20
241.81	2088.93
242.02	2103.26
242.24	2189.28
242.46	2289.63
242.68	2011.11
242.89	2076.64
243.11	2248.67
243.33	2203.61
243.55	2117.60
243.76	2170.85
243.98	2152.42
244.20	2324.44
244.42	2097.12
244.64	2127.84
244.85	2101.22
245.07	2029.54
245.29	2150.37
245.51	2095.07
245.72	2195.42
245.94	2297.82
246.16	2152.42
246.38	2269.15
246.59	2129.89
246.81	2179.04
247.03	2105.31
247.24	2064.35
247.46	2263.01
247.68	2152.42
247.90	2070.50
248.11	2021.35
248.33	2224.09
248.55	2160.61
248.77	2185.18
248.98	2211.81
249.20	2373.60
249.42	2248.67
249.64	2146.27
249.85	2123.74
250.07	2115.55
250.29	2308.06
250.50	2201.57
250.72	2043.87
250.94	2205.66
251.16	2351.07
251.37	2213.85
251.59	2195.42
251.81	2246.62
252.02	2367.45
252.24	1953.76
252.46	2232.29
252.68	2062.30
252.89	2146.27
253.11	2035.68
253.33	2260.96
253.54	2308.06
253.76	2138.08
253.98	2099.17
254.20	2070.50
254.41	2088.93
254.63	2224.09
254.85	2056.16
255.06	2068.45
255.28	2252.77
255.50	2121.70
255.71	2146.27
255.93	2023.39
256.15	2156.51
256.36	2283.49
256.58	2072.54
256.80	2187.23
257.02	2115.55
257.23	2113.50
257.45	2107.36
257.67	2230.24
257.88	2103.26
258.10	2244.57
258.32	2136.03
258.53	2179.04
258.75	2281.44
258.97	2158.56
259.18	2095.07
259.40	2174.94
259.62	2297.82
259.83	2297.82
260.05	2162.66
260.27	2572.25
260.48	2328.54
260.70	2138.08
260.92	2127.84
261.13	2107.36
261.35	2197.47
261.57	2250.72
261.78	2050.02
262.00	2060.26
262.22	2197.47
262.43	2121.70
262.65	2172.89
262.86	2197.47
263.08	2359.26
263.30	2183.13
263.51	1920.99
263.73	2109.41
263.95	2338.78
264.16	2080.74
264.38	2054.11
264.60	2191.33
264.81	2154.46
265.03	2285.53
265.25	2273.25
265.46	2099.17
265.68	2267.10
265.89	2256.86
266.11	1986.53
266.33	2158.56
266.54	2271.20
266.76	2193.37
266.98	2242.53
267.19	2252.77
267.41	2316.25
267.62	2236.38
267.84	1974.24
268.06	2193.37
268.27	2133.98
268.49	2306.01
268.70	2136.03
268.92	2215.90
269.14	2140.13
269.35	2086.88
269.57	2181.09
269.79	2222.05
270.00	2101.22
270.22	2363.36
270.43	2095.07
270.65	2054.11
270.87	2277.34
271.08	2213.85
271.30	2176.99
271.51	2070.50
271.73	2228.19
271.95	2301.92
272.16	2113.50
272.38	2193.37
272.59	2136.03
272.81	2256.86
273.02	2095.07
273.24	2207.71
273.46	2269.15
273.67	2086.88
273.89	2037.73
274.10	2125.79
274.32	2269.15
274.54	2215.90
274.75	2125.79
274.97	2150.37
275.18	2324.44
275.40	2226.14
275.61	2213.85
275.83	2273.25
276.05	2117.60
276.26	2129.89
276.48	2193.37
276.69	2080.74
276.91	2195.42
277.12	2269.15
277.34	2252.77
277.55	2193.37
277.77	2174.94
277.99	2181.09
278.20	2084.83
278.42	2138.08
278.63	2136.03
278.85	2181.09
279.06	2121.70
279.28	2269.15
279.49	2234.33
279.71	2250.72
279.93	2101.22
280.14	2228.19
280.36	2209.76
280.57	2213.85
280.79	2242.53
281.00	2025.44
281.22	2136.03
281.43	2254.81
281.65	1990.63
281.86	2023.39
282.08	2211.81
282.29	2365.40
282.51	2097.12
282.73	2066.40
282.94	1986.53
283.16	2265.05
283.37	2273.25
283.59	2133.98
283.80	2275.29
284.02	2244.57
284.23	2244.57
284.45	2236.38
284.66	2138.08
284.88	2111.46
285.09	2176.99
285.31	2250.72
285.52	2297.82
285.74	2039.78
285.95	2215.90
286.17	2260.96
286.38	2332.64
286.60	2144.22
286.81	2131.94
287.03	2154.46
287.24	2215.90
287.46	2224.09
287.67	2146.27
287.89	2326.49
288.10	2217.95
288.32	2166.75
288.53	2228.19
288.75	2199.52
288.96	2256.86
289.18	2125.79
289.39	2234.33
289.61	2326.49
289.82	2441.18
290.04	2326.49
290.25	2125.79
290.47	2203.61
290.68	2099.17
290.90	2234.33
291.11	2037.73
291.33	2293.72
291.54	2115.55
291.76	2195.42
291.97	2211.81
292.18	2187.23
292.40	2140.13
292.61	2138.08
292.83	2312.16
293.04	2197.47
293.26	2217.95
293.47	2207.71
293.69	2052.06
293.90	2125.79
294.12	2389.98
294.33	2176.99
294.55	2193.37
294.76	2230.24
294.97	2432.99
295.19	2488.28
295.40	2072.54
295.62	2152.42
295.83	2291.68
296.05	2160.61
296.26	2273.25
296.48	2109.41
296.69	2228.19
296.90	2166.75
297.12	2199.52
297.33	2256.86
297.55	2197.47
297.76	2340.83
297.98	2244.57
298.19	2197.47
298.41	2181.09
298.62	2109.41
298.83	2267.10
299.05	2197.47
299.26	2144.22
299.48	2129.89
299.69	2215.90
299.90	2097.12
300.12	2136.03
300.33	2285.53
300.55	2170.85
300.76	2244.57
300.98	2154.46
301.19	2185.18
301.40	2097.12
301.62	2129.89
301.83	2318.30
302.05	2220.00
302.26	2197.47
302.47	2230.24
302.69	2056.16
302.90	2240.48
303.12	1996.77
303.33	2220.00
303.54	2320.35
303.76	2146.27
303.97	2213.85
304.19	2379.74
304.40	2119.65
304.61	2248.67
304.83	2318.30
305.04	2299.87
305.26	2306.01
305.47	2181.09
305.68	2162.66
305.90	2093.02
306.11	2267.10
306.33	2166.75
306.54	2056.16
306.75	2164.70
306.97	2052.06
307.18	2078.69
307.39	2166.75
307.61	2215.90
307.82	2123.74
308.04	2283.49
308.25	2105.31
308.46	2215.90
308.68	2150.37
308.89	2240.48
309.10	2215.90
309.32	2199.52
309.53	2148.32
309.74	2252.77
309.96	2086.88
310.17	2248.67
310.39	2117.60
310.60	2252.77
310.81	2203.61
311.03	2105.31
311.24	2265.05
311.45	2105.31
311.67	2332.64
311.88	2176.99
312.09	2105.31
312.31	2121.70
312.52	2142.18
312.73	2121.70
312.95	2095.07
313.16	2189.28
313.37	2242.53
313.59	2193.37
313.80	2181.09
314.01	2340.83
314.23	2174.94
314.44	2121.70
314.65	2062.30
314.87	2195.42
315.08	2123.74
315.29	2203.61
315.51	2111.46
315.72	2054.11
315.93	2320.35
316.15	2217.95
316.36	2166.75
316.57	2220.00
316.79	2164.70
317.00	2148.32
317.21	2269.15
317.43	2084.83
317.64	2168.80
317.85	2144.22
318.07	2148.32
318.28	2220.00
318.49	2344.92
318.70	2457.56
318.92	2349.02
319.13	2383.84
319.34	2420.70
319.56	2320.35
319.77	2299.87
319.98	2230.24
320.20	2330.59
320.41	2273.25
320.62	2273.25
320.83	2125.79
321.05	2340.83
321.26	2209.76
321.47	2232.29
321.69	2293.72
321.90	2037.73
322.11	2095.07
322.32	2273.25
322.54	2293.72
322.75	2209.76
322.96	2523.10
323.18	2131.94
323.39	2017.25
323.60	2195.42
323.81	2287.58
324.03	2111.46
324.24	2105.31
324.45	2162.66
324.66	2220.00
324.88	2293.72
325.09	2324.44
325.30	2140.13
325.52	2191.33
325.73	2162.66
325.94	2045.92
326.15	2031.58
326.37	2019.30
326.58	2308.06
326.79	2283.49
327.00	2146.27
327.22	2273.25
327.43	2203.61
327.64	2088.93
327.85	2195.42
328.07	2244.57
328.28	2443.23
328.49	2154.46
328.70	2189.28
328.92	2179.04
329.13	2166.75
329.34	2254.81
329.55	2338.78
329.76	2281.44
329.98	2211.81
330.19	2359.26
330.40	2185.18
330.61	2168.80
330.83	2301.92
331.04	2181.09
331.25	2197.47
331.46	2119.65
331.68	1996.77
331.89	2320.35
332.10	2127.84
332.31	2047.97
332.52	2244.57
332.74	2326.49
332.95	1957.86
333.16	2154.46
333.37	2269.15
333.58	2152.42
333.80	2260.96
334.01	2060.26
334.22	2211.81
334.43	2136.03
334.64	2164.70
334.86	2101.22
335.07	2068.45
335.28	2363.36
335.49	2076.64
335.70	2211.81
335.92	2263.01
336.13	2357.21
336.34	2244.57
336.55	2201.57
336.76	2203.61
336.98	2033.63
337.19	2152.42
337.40	2328.54
337.61	2422.75
337.82	2183.13
338.04	2287.58
338.25	2041.82
338.46	2140.13
338.67	2158.56
338.88	2064.35
339.09	2088.93
339.31	2113.50
339.52	2047.97
339.73	2088.93
339.94	2150.37
340.15	2320.35
340.36	2133.98
340.58	2242.53
340.79	2174.94
341.00	2330.59
341.21	2162.66
341.42	2267.10
341.63	2244.57
341.85	2318.30
342.06	2187.23
342.27	2136.03
342.48	2236.38
342.69	2037.73
342.90	2293.72
343.12	2277.34
343.33	2170.85
343.54	2269.15
343.75	2322.40
343.96	2185.18
344.17	2064.35
344.38	2193.37
344.60	2176.99
344.81	2117.60
345.02	2158.56
345.23	2258.91
345.44	2336.73
345.65	2213.85
345.86	2273.25
346.07	2172.89
346.29	2097.12
346.50	2146.27
346.71	2244.57
346.92	2291.68
347.13	2430.94
347.34	2162.66
347.55	2197.47
347.76	2260.96
347.98	2047.97
348.19	2181.09
348.40	2297.82
348.61	2142.18
348.82	2351.07
349.03	2226.14
349.24	2086.88
349.45	2359.26
349.66	1961.95
349.88	2236.38
350.09	2144.22
350.30	2334.68
350.51	2340.83
350.72	2230.24
350.93	2228.19
351.14	2170.85
351.35	2228.19
351.56	2211.81
351.77	2179.04
351.99	2285.53
352.20	2357.21
352.41	2265.05
352.62	1947.62
352.83	2174.94
353.04	2133.98
353.25	2133.98
353.46	2236.38
353.67	2293.72
353.88	2025.44
354.09	2293.72
354.30	2256.86
354.52	2244.57
354.73	2203.61
354.94	2113.50
355.15	2172.89
355.36	2416.60
355.57	2162.66
355.78	2279.39
355.99	2109.41
356.20	2097.12
356.41	2324.44
356.62	2287.58
356.83	2183.13
357.04	2312.16
357.25	2035.68
357.46	2109.41
357.68	2043.87
357.89	2095.07
358.10	2150.37
358.31	2228.19
358.52	2166.75
358.73	2047.97
358.94	1970.15
359.15	2084.83
359.36	2275.29
359.57	2138.08
359.78	2199.52
359.99	2234.33
360.20	2062.30
360.41	2127.84
360.62	2275.29
360.83	2275.29
361.04	2228.19
361.25	2334.68
361.46	2330.59
361.67	2195.42
361.88	2244.57
362.09	2291.68
362.30	2185.18
362.51	2082.78
362.72	2176.99
362.93	2273.25
363.14	2301.92
363.35	2117.60
363.56	2086.88
363.78	2279.39
363.99	2224.09
364.20	2170.85
364.41	2174.94
364.62	2447.32
364.83	2213.85
365.04	2148.32
365.25	2201.57
365.46	2510.81
365.67	2164.70
365.88	2095.07
366.09	2185.18
366.30	2205.66
366.51	2160.61
366.72	2031.58
366.93	2150.37
367.14	2158.56
367.35	2359.26
367.56	2172.89
367.77	2230.24
367.98	2207.71
368.18	2181.09
368.39	2234.33
368.60	2076.64
368.81	2252.77
369.02	2197.47
369.23	2113.50
369.44	2041.82
369.65	2041.82
369.86	2242.53
370.07	2228.19
370.28	2164.70
370.49	2240.48
370.70	2346.97
370.91	2170.85
371.12	2052.06
371.33	2252.77
371.54	2220.00
371.75	2404.32
371.96	1949.67
372.17	2263.01
372.38	2228.19
372.59	2275.29
372.80	2109.41
373.01	2269.15
373.22	2244.57
373.43	2183.13
373.64	2123.74
373.85	2308.06
374.06	2359.26
374.26	2277.34
374.47	2148.32
374.68	2332.64
374.89	2265.05
375.10	2191.33
375.31	2250.72
375.52	2172.89
375.73	2121.70
375.94	2138.08
376.15	2310.11
376.36	2150.37
376.57	2187.23
376.78	2201.57
376.99	2131.94
377.20	2299.87
377.40	2148.32
377.61	2287.58
377.82	2131.94
378.03	2351.07
378.24	2260.96
378.45	2250.72
378.66	2189.28
378.87	2011.11
379.08	2156.51
379.29	2121.70
379.50	2349.02
379.71	2234.33
379.91	2287.58
380.12	2232.29
380.33	2230.24
380.54	2217.95
380.75	2213.85
380.96	2236.38
381.17	2293.72
381.38	2150.37
381.59	2215.90
381.80	2263.01
382.00	2346.97
382.21	2287.58
382.42	2432.99
382.63	2449.37
382.84	2269.15
383.05	2271.20
383.26	2346.97
383.47	2220.00
383.68	2215.90
383.88	2211.81
384.09	2199.52
384.30	2422.75
384.51	2234.33
384.72	2103.26
384.93	2060.26
385.14	2263.01
385.35	2236.38
385.55	2111.46
385.76	2322.40
385.97	2097.12
386.18	2064.35
386.39	2187.23
386.60	2179.04
386.81	2146.27
387.02	2113.50
387.22	2105.31
387.43	2271.20
387.64	2320.35
387.85	2379.74
388.06	2420.70
388.27	3981.25
388.48	8605.56
388.68	12080.97
388.89	14462.76
389.10	15785.74
389.31	14194.47
389.52	11374.42
389.73	9949.03
389.93	8884.09
390.14	8140.68
390.35	7319.44
390.56	6516.64
390.77	5332.91
390.98	4085.70
391.18	3264.46
391.39	2695.13
391.60	2340.83
391.81	2451.42
392.02	2174.94
392.23	2422.75
392.43	2295.77
392.64	2308.06
392.85	2166.75
393.06	2310.11
393.27	2203.61
393.47	2166.75
393.68	2203.61
393.89	2191.33
394.10	2316.25
394.31	2138.08
394.52	2156.51
394.72	2129.89
394.93	2355.16
395.14	2115.55
395.35	2228.19
395.56	2113.50
395.76	2240.48
395.97	2217.95
396.18	2365.40
396.39	2308.06
396.60	2688.98
396.80	2371.55
397.01	2392.03
397.22	2359.26
397.43	2357.21
397.64	2152.42
397.84	2310.11
398.05	2465.75
398.26	2281.44
398.47	2277.34
398.67	2344.92
398.88	2244.57
399.09	2297.82
399.30	2201.57
399.51	2252.77
399.71	2211.81
399.92	2176.99
400.13	2228.19
400.34	2142.18
400.54	2232.29
400.75	2408.41
400.96	2211.81
401.17	2316.25
401.37	2256.86
401.58	2123.74
401.79	2211.81
402.00	2385.88
402.21	2594.78
402.41	2615.26
402.62	2588.63
402.83	2678.74
403.04	2625.50
403.24	2779.09
403.45	2392.03
403.66	2418.65
403.87	2357.21
404.07	2484.19
404.28	2486.23
404.49	2465.75
404.70	2248.67
404.90	2224.09
405.11	2199.52
405.32	2201.57
405.52	2129.89
405.73	2123.74
405.94	2084.83
406.15	2185.18
406.35	2232.29
406.56	2346.97
406.77	2215.90
406.98	2220.00
407.18	2160.61
407.39	2326.49
407.60	2265.05
407.80	2248.67
408.01	2129.89
408.22	2207.71
408.43	2127.84
408.63	2228.19
408.84	2201.57
409.05	2248.67
409.25	2142.18
409.46	2133.98
409.67	2162.66
409.88	2066.40
410.08	2269.15
410.29	2299.87
410.50	2330.59
410.70	2258.91
410.91	2021.35
411.12	2277.34
411.32	2187.23
411.53	2086.88
411.74	2260.96
411.95	2365.40
412.15	2297.82
412.36	2373.60
412.57	2242.53
412.77	2363.36
412.98	2248.67
413.19	2224.09
413.39	2244.57
413.60	2306.01
413.81	2334.68
414.01	2115.55
414.22	2201.57
414.43	2308.06
414.63	2236.38
414.84	2232.29
415.05	2133.98
415.25	2101.22
415.46	2287.58
415.67	2133.98
415.87	2244.57
416.08	2230.24
416.29	2187.23
416.49	2281.44
416.70	2150.37
416.91	2138.08
417.11	2164.70
417.32	2250.72
417.53	2334.68
417.73	2179.04
417.94	2150.37
418.15	2267.10
418.35	2242.53
418.56	2162.66
418.77	2480.09
418.97	2162.66
419.18	2306.01
419.38	2007.01
419.59	2217.95
419.80	2371.55
420.00	2162.66
420.21	2185.18
420.42	2334.68
420.62	2156.51
420.83	2105.31
421.04	2144.22
421.24	2220.00
421.45	2281.44
421.65	2211.81
421.86	2199.52
422.07	2324.44
422.27	2248.67
422.48	2199.52
422.69	2164.70
422.89	2199.52
423.10	2125.79
423.30	2076.64
423.51	2160.61
423.72	2244.57
423.92	2279.39
424.13	2031.58
424.33	2193.37
424.54	2326.49
424.75	2238.43
424.95	2299.87
425.16	2250.72
425.36	2187.23
425.57	2332.64
425.78	2181.09
425.98	2332.64
426.19	2238.43
426.39	2080.74
426.60	2201.57
426.81	2312.16
427.01	2191.33
427.22	2185.18
427.42	2054.11
427.63	2133.98
427.83	2252.77
428.04	2332.64
428.25	2320.35
428.45	2301.92
428.66	2238.43
428.86	2185.18
429.07	2131.94
429.28	2176.99
429.48	2183.13
429.69	2129.89
429.89	2224.09
430.10	2068.45
430.30	2258.91
430.51	2277.34
430.71	2168.80
430.92	2154.46
431.13	2179.04
431.33	2318.30
431.54	2172.89
431.74	2328.54
431.95	2355.16
432.15	2179.04
432.36	2217.95
432.56	2168.80
432.77	2389.98
432.98	2387.93
433.18	2230.24
433.39	2144.22
433.59	2119.65
433.80	2424.80
434.00	2455.51
434.21	2238.43
434.41	2115.55
434.62	2416.60
434.82	2090.98
435.03	2076.64
435.23	2271.20
435.44	2039.78
435.64	2244.57
435.85	2189.28
436.06	2252.77
436.26	2199.52
436.47	2187.23
436.67	2123.74
436.88	2181.09
437.08	2324.44
437.29	2301.92
437.49	2240.48
437.70	2301.92
437.90	2181.09
438.11	2363.36
438.31	2275.29
438.52	2375.64
438.72	2361.31
438.93	2408.41
439.13	2328.54
439.34	2355.16
439.54	2267.10
439.75	2256.86
439.95	2306.01
440.16	2176.99
440.36	2234.33
440.57	2334.68
440.77	2228.19
440.98	2168.80
441.18	2252.77
441.39	2080.74
441.59	2099.17
441.80	2381.79
442.00	2187.23
442.21	2314.20
442.41	2070.50
442.62	2295.77
442.82	2150.37
443.02	2168.80
443.23	2269.15
443.43	2088.93
443.64	2412.51
443.84	2189.28
444.05	2295.77
444.25	2248.67
444.46	2183.13
444.66	2220.00
444.87	2369.50
445.07	2072.54
445.28	2232.29
445.48	2258.91
445.69	2230.24
445.89	2475.99
446.09	2238.43
446.30	2578.39
446.50	2781.14
446.71	4364.22
446.91	5394.35
447.12	6487.96
447.32	6592.41
447.53	6191.01
447.73	5078.96
447.93	4607.93
448.14	4179.90
448.34	4157.38
448.55	3487.69
448.75	3514.31
448.96	3403.72
449.16	2990.03
449.36	2760.66
449.57	2535.39
449.77	2289.63
449.98	2170.85
450.18	2334.68
450.39	2301.92
450.59	2310.11
450.79	2156.51
451.00	2170.85
451.20	2308.06
451.41	2101.22
451.61	2316.25
451.81	2189.28
452.02	2152.42
452.22	2209.76
452.43	2193.37
452.63	2170.85
452.84	2166.75
453.04	2181.09
453.24	2199.52
453.45	2189.28
453.65	2195.42
453.86	2209.76
454.06	2250.72
454.26	2273.25
454.47	2097.12
454.67	2381.79
454.87	2207.71
455.08	2209.76
455.28	2389.98
455.49	2220.00
455.69	2156.51
455.89	2418.65
456.10	2303.96
456.30	2203.61
456.51	2215.90
456.71	2252.77
456.91	2250.72
457.12	2295.77
457.32	2248.67
457.52	2111.46
457.73	2195.42
457.93	2355.16
458.14	2111.46
458.34	2078.69
458.54	2195.42
458.75	2199.52
458.95	2353.12
459.15	2217.95
459.36	2271.20
459.56	2164.70
459.76	2512.86
459.97	2181.09
460.17	2203.61
460.37	2265.05
460.58	2152.42
460.78	2254.81
460.99	2119.65
461.19	2224.09
461.39	2127.84
461.60	2187.23
461.80	2242.53
462.00	2105.31
462.21	2211.81
462.41	2136.03
462.61	2113.50
462.82	2045.92
463.02	2183.13
463.22	2213.85
463.43	2193.37
463.63	2244.57
463.83	2334.68
464.04	2285.53
464.24	2160.61
464.44	2136.03
464.64	2226.14
464.85	2316.25
465.05	2273.25
465.25	2172.89
465.46	2168.80
465.66	2250.72
465.86	2314.20
466.07	2205.66
466.27	2207.71
466.47	2056.16
466.68	2101.22
466.88	2308.06
467.08	2199.52
467.29	2340.83
467.49	2258.91
467.69	2187.23
467.89	2326.49
468.10	2256.86
468.30	2273.25
468.50	2250.72
468.71	2285.53
468.91	2117.60
469.11	2435.03
469.31	2191.33
469.52	2133.98
469.72	2308.06
469.92	2412.51
470.13	2179.04
470.33	2228.19
470.53	2269.15
470.73	2660.31
470.94	3039.19
471.14	3221.45
471.34	3612.62
471.54	3577.80
471.75	3270.61
471.95	2887.64
472.15	2803.67
472.36	2701.27
472.56	2740.18
472.76	2744.28
472.96	2682.84
473.17	2531.29
473.37	2467.80
473.57	2328.54
473.77	2318.30
473.98	2224.09
474.18	2125.79
474.38	2451.42
474.58	2127.84
474.79	2138.08
474.99	2334.68
475.19	2316.25
475.39	2111.46
475.60	2224.09
475.80	2187.23
476.00	2283.49
476.20	2123.74
476.41	2236.38
476.61	2254.81
476.81	2369.50
477.01	2193.37
477.21	2351.07
477.42	2389.98
477.62	2138.08
477.82	2269.15
478.02	2127.84
478.23	2283.49
478.43	2111.46
478.63	2172.89
478.83	2197.47
479.03	2158.56
479.24	2326.49
479.44	2381.79
479.64	2129.89
479.84	2041.82
480.04	2162.66
480.25	2242.53
480.45	2041.82
480.65	2176.99
480.85	2346.97
481.06	2140.13
481.26	2234.33
481.46	2252.77
481.66	2293.72
481.86	2183.13
482.06	2324.44
482.27	2119.65
482.47	2242.53
482.67	2316.25
482.87	2054.11
483.07	2346.97
483.28	2174.94
483.48	2121.70
483.68	2228.19
483.88	2052.06
484.08	2056.16
484.29	2140.13
484.49	2117.60
484.69	2033.63
484.89	2375.64
485.09	2301.92
485.29	2310.11
485.50	2224.09
485.70	2215.90
485.90	2312.16
486.10	2195.42
486.30	2230.24
486.50	2267.10
486.71	2195.42
486.91	2316.25
487.11	2220.00
487.31	2052.06
487.51	2273.25
487.71	2121.70
487.91	2123.74
488.12	2150.37
488.32	1972.19
488.52	2154.46
488.72	2015.20
488.92	2240.48
489.12	2334.68
489.32	2310.11
489.53	2236.38
489.73	2062.30
489.93	2310.11
490.13	2156.51
490.33	2050.02
490.53	2224.09
490.73	2230.24
490.94	2088.93
491.14	2283.49
491.34	2232.29
491.54	2494.43
491.74	3209.17
491.94	3776.45
492.14	3923.91
492.34	4095.94
492.54	3723.21
492.75	3229.65
492.95	3155.92
493.15	2930.64
493.35	2912.21
493.55	2729.94
493.75	2713.56
493.95	2715.61
494.15	2471.90
494.35	2332.64
494.56	2308.06
494.76	2228.19
494.96	2295.77
495.16	2275.29
495.36	2168.80
495.56	2232.29
495.76	2129.89
495.96	2152.42
496.16	2109.41
496.36	2332.64
496.56	2168.80
496.77	2205.66
496.97	2168.80
497.17	2297.82
497.37	2117.60
497.57	2308.06
497.77	2258.91
497.97	2084.83
498.17	2183.13
498.37	2195.42
498.57	2236.38
498.77	2109.41
498.97	2310.11
499.17	2346.97
499.38	2129.89
499.58	2283.49
499.78	2328.54
499.98	2295.77
500.18	2211.81
500.38	2168.80
500.58	2473.95
500.78	2912.21
500.98	5140.40
501.18	7270.29
501.38	8816.51
501.58	9877.35
501.78	9840.49
501.98	7716.75
502.18	6406.05
502.38	5719.98
502.58	5144.50
502.78	4544.44
502.98	4448.19
503.18	4222.91
503.38	3921.86
503.59	3524.55
503.79	3207.12
503.99	2908.12
504.19	2805.72
504.39	2858.96
504.59	2916.31
504.79	2762.71
504.99	2897.88
505.19	2523.10
505.39	2498.52
505.59	2572.25
505.79	2555.86
505.99	2453.47
506.19	2260.96
506.39	2469.85
506.59	2166.75
506.79	2113.50
506.99	2361.31
507.19	2269.15
507.39	2248.67
507.59	2150.37
507.79	2119.65
507.99	2166.75
508.19	2205.66
508.39	2205.66
508.59	2152.42
508.79	2342.88
508.99	2406.36
509.19	2179.04
509.39	2289.63
509.59	2189.28
509.79	2107.36
509.99	2183.13
510.19	2330.59
510.39	2232.29
510.59	2234.33
510.79	2203.61
510.99	2187.23
511.19	2230.24
511.39	2351.07
511.59	2293.72
511.79	2322.40
511.99	2199.52
512.19	2465.75
512.38	2107.36
512.58	2170.85
512.78	2170.85
512.98	2299.87
513.18	2357.21
513.38	2047.97
513.58	2211.81
513.78	2187.23
513.98	2209.76
514.18	2252.77
514.38	2142.18
514.58	2318.30
514.78	2127.84
514.98	2119.65
515.18	2093.02
515.38	2072.54
515.58	2457.56
515.78	2076.64
515.98	2199.52
516.18	2312.16
516.38	2113.50
516.57	2078.69
516.77	2220.00
516.97	2275.29
517.17	2121.70
517.37	2035.68
517.57	2240.48
517.77	2226.14
517.97	2152.42
518.17	2326.49
518.37	2181.09
518.57	2176.99
518.77	2176.99
518.97	2236.38
519.16	2228.19
519.36	2301.92
519.56	2156.51
519.76	2281.44
519.96	2242.53
520.16	2355.16
520.36	2129.89
520.56	2215.90
520.76	2193.37
520.96	2185.18
521.16	2267.10
521.35	2357.21
521.55	2306.01
521.75	2176.99
521.95	2164.70
522.15	2152.42
522.35	2043.87
522.55	2119.65
522.75	2228.19
522.95	2176.99
523.14	2131.94
523.34	2234.33
523.54	2168.80
523.74	2269.15
523.94	2273.25
524.14	2088.93
524.34	2146.27
524.54	2365.40
524.73	2168.80
524.93	2260.96
525.13	2168.80
525.33	2056.16
525.53	2441.18
525.73	2244.57
525.93	2289.63
526.13	2152.42
526.32	2146.27
526.52	2273.25
526.72	2267.10
526.92	2293.72
527.12	2185.18
527.32	2146.27
527.52	2357.21
527.71	2265.05
527.91	2232.29
528.11	2260.96
528.31	2222.05
528.51	2088.93
528.71	2281.44
528.90	2275.29
529.10	2320.35
529.30	2291.68
529.50	2047.97
529.70	2228.19
529.90	2168.80
530.09	2242.53
530.29	2138.08
530.49	2160.61
530.69	2514.91
530.89	2250.72
531.09	2310.11
531.28	2193.37
531.48	2349.02
531.68	2256.86
531.88	2283.49
532.08	2310.11
532.28	2158.56
532.47	2320.35
532.67	2301.92
532.87	2299.87
533.07	2131.94
533.27	2285.53
533.46	2281.44
533.66	2244.57
533.86	2254.81
534.06	2240.48
534.26	2226.14
534.45	2226.14
534.65	2318.30
534.85	2326.49
535.05	2176.99
535.25	2346.97
535.44	2097.12
535.64	2299.87
535.84	2170.85
536.04	2129.89
536.24	2244.57
536.43	2125.79
536.63	2285.53
536.83	2191.33
537.03	2185.18
537.22	2076.64
537.42	2107.36
537.62	2351.07
537.82	2195.42
538.02	2236.38
538.21	2326.49
538.41	2488.28
538.61	2260.96
538.81	2185.18
539.00	2355.16
539.20	2088.93
539.40	2181.09
539.60	2277.34
539.79	2320.35
539.99	2168.80
540.19	2101.22
540.39	2105.31
540.58	2220.00
540.78	2271.20
540.98	2121.70
541.18	2373.60
541.37	2297.82
541.57	2277.34
541.77	2211.81
541.97	2093.02
542.16	2123.74
542.36	2226.14
542.56	2109.41
542.76	2363.36
542.95	2314.20
543.15	2359.26
543.35	2267.10
543.54	2088.93
543.74	2109.41
543.94	2363.36
544.14	2148.32
544.33	2291.68
544.53	2183.13
544.73	2179.04
544.93	2271.20
545.12	2277.34
545.32	2265.05
545.52	2162.66
545.71	2144.22
545.91	2185.18
546.11	2160.61
546.30	2084.83
546.50	2252.77
546.70	2226.14
546.90	2207.71
547.09	1998.82
547.29	2222.05
547.49	2291.68
547.68	2222.05
547.88	2127.84
548.08	2238.43
548.27	2717.65
548.47	2111.46
548.67	2103.26
548.87	2279.39
549.06	2142.18
549.26	2234.33
549.46	2150.37
549.65	2189.28
549.85	2230.24
550.05	2158.56
550.24	2070.50
550.44	2236.38
550.64	2263.01
550.83	2154.46
551.03	2244.57
551.23	2314.20
551.42	2220.00
551.62	2248.67
551.82	2162.66
552.01	2232.29
552.21	2322.40
552.41	2240.48
552.60	2338.78
552.80	2185.18
553.00	2127.84
553.19	2238.43
553.39	2359.26
553.59	2154.46
553.78	2269.15
553.98	2258.91
554.17	2056.16
554.37	2199.52
554.57	2232.29
554.76	2043.87
554.96	2162.66
555.16	2232.29
555.35	2222.05
555.55	2252.77
555.75	2197.47
555.94	2318.30
556.14	2074.59
556.33	2279.39
556.53	2185.18
556.73	2156.51
556.92	2207.71
557.12	2252.77
557.32	2412.51
557.51	2344.92
557.71	2275.29
557.90	2322.40
558.10	2338.78
558.30	2164.70
558.49	2136.03
558.69	2207.71
558.88	2283.49
559.08	2269.15
559.28	2158.56
559.47	2189.28
559.67	2258.91
559.86	2445.27
560.06	2277.34
560.26	2185.18
560.45	2260.96
560.65	2199.52
560.84	2299.87
561.04	2093.02
561.24	2199.52
561.43	2146.27
561.63	2338.78
561.82	2201.57
562.02	2265.05
562.22	2150.37
562.41	2039.78
562.61	2111.46
562.80	2119.65
563.00	2447.32
563.19	2273.25
563.39	2230.24
563.59	2310.11
563.78	2127.84
563.98	2011.11
564.17	2199.52
564.37	2029.54
564.56	2197.47
564.76	2088.93
564.96	2322.40
565.15	2217.95
565.35	2406.36
565.54	2105.31
565.74	2301.92
565.93	2306.01
566.13	2256.86
566.32	2269.15
566.52	2248.67
566.71	2269.15
566.91	2269.15
567.11	2260.96
567.30	2146.27
567.50	2273.25
567.69	2185.18
567.89	2138.08
568.08	2117.60
568.28	2242.53
568.47	2086.88
568.67	2228.19
568.86	2213.85
569.06	2312.16
569.25	2152.42
569.45	2107.36
569.64	2166.75
569.84	2207.71
570.04	2281.44
570.23	2101.22
570.43	2156.51
570.62	2244.57
570.82	2336.73
571.01	2170.85
571.21	2064.35
571.40	2154.46
571.60	2344.92
571.79	2156.51
571.99	2197.47
572.18	2148.32
572.38	2220.00
572.57	2174.94
572.77	2293.72
572.96	2555.86
573.16	2299.87
573.35	2201.57
573.55	2324.44
573.74	2240.48
573.94	2224.09
574.13	2162.66
574.33	2359.26
574.52	2306.01
574.71	2201.57
574.91	2222.05
575.10	2113.50
575.30	2220.00
575.49	2148.32
575.69	2146.27
575.88	2250.72
576.08	2265.05
576.27	2334.68
576.47	2346.97
576.66	2385.88
576.86	2375.64
577.05	2228.19
577.25	2340.83
577.44	2523.10
577.64	2179.04
577.83	2275.29
578.02	2224.09
578.22	2342.88
578.41	2383.84
578.61	2211.81
578.80	2164.70
579.00	2283.49
579.19	2295.77
579.39	2279.39
579.58	2240.48
579.77	2142.18
579.97	2349.02
580.16	2320.35
580.36	2396.12
580.55	2342.88
580.75	2334.68
580.94	2260.96
581.13	2357.21
581.33	2301.92
581.52	2242.53
581.72	2441.18
581.91	2383.84
582.11	2230.24
582.30	2256.86
582.49	2277.34
582.69	2432.99
582.88	2316.25
583.08	2217.95
583.27	2424.80
583.47	2303.96
583.66	2185.18
583.85	2193.37
584.05	2154.46
584.24	2318.30
584.44	2224.09
584.63	2299.87
584.82	2377.69
585.02	2473.95
585.21	2398.17
585.41	2402.27
585.60	2422.75
585.79	2455.51
585.99	2523.10
586.18	2332.64
586.37	2899.92
586.57	4476.86
586.76	13246.26
586.96	32386.58
587.15	45956.42
587.34	54617.28
587.54	60245.10
587.73	55641.26
587.93	38964.65
588.12	29601.34
588.31	23940.75
588.51	20940.48
588.70	19097.31
588.89	17233.66
589.09	14933.79
589.28	12828.48
589.47	10649.44
589.67	8302.47
589.86	6387.61
590.06	4853.69
590.25	3850.18
590.44	3178.45
590.64	2750.42
590.83	2539.48
591.02	2506.71
591.22	2328.54
591.41	2375.64
591.60	2346.97
591.80	2478.04
591.99	2088.93
592.18	2236.38
592.38	2334.68
592.57	2176.99
592.76	2234.33
592.96	2336.73
593.15	2238.43
593.34	2410.46
593.54	2244.57
593.73	2316.25
593.92	2299.87
594.12	2289.63
594.31	2287.58
594.50	2400.22
594.70	2367.45
594.89	2596.82
595.08	2142.18
595.28	2314.20
595.47	2516.95
595.66	2289.63
595.86	2168.80
596.05	2170.85
596.24	2228.19
596.43	2428.89
596.63	2295.77
596.82	2263.01
597.01	2252.77
597.21	2471.90
597.40	2252.77
597.59	2263.01
597.79	2334.68
597.98	2306.01
598.17	2275.29
598.36	2258.91
598.56	2320.35
598.75	2158.56
598.94	2289.63
599.14	2283.49
599.33	2193.37
599.52	2326.49
599.71	2269.15
599.91	2342.88
600.10	2236.38
600.29	2226.14
600.48	2242.53
600.68	2195.42
600.87	2297.82
601.06	2154.46
601.26	2166.75
601.45	2236.38
601.64	2066.40
601.83	2383.84
602.03	2179.04
602.22	2228.19
602.41	2248.67
602.60	2519.00
602.80	2310.11
602.99	2301.92
603.18	2183.13
603.37	2267.10
603.57	2201.57
603.76	2285.53
603.95	2340.83
604.14	2256.86
604.34	2068.45
604.53	2166.75
604.72	2220.00
604.91	2260.96
605.10	2267.10
605.30	2101.22
605.49	2338.78
605.68	2301.92
605.87	2252.77
606.07	2185.18
606.26	2207.71
606.45	2267.10
606.64	2269.15
606.84	2244.57
607.03	2269.15
607.22	2357.21
607.41	2215.90
607.60	2207.71
607.80	2322.40
607.99	2131.94
608.18	2269.15
608.37	2207.71
608.56	2170.85
608.76	2459.61
608.95	2394.08
609.14	2203.61
609.33	2441.18
609.52	2412.51
609.72	2283.49
609.91	2306.01
610.10	2256.86
610.29	2441.18
610.48	2295.77
610.68	2291.68
610.87	2203.61
611.06	2254.81
611.25	2277.34
611.44	2351.07
611.63	2252.77
611.83	2353.12
612.02	2097.12
612.21	2312.16
612.40	2133.98
612.59	2097.12
612.79	2084.83
612.98	2215.90
613.17	2326.49
613.36	2297.82
613.55	2418.65
613.74	2310.11
613.93	2349.02
614.13	2537.43
614.32	2533.34
614.51	2461.66
614.70	2299.87
614.89	2338.78
615.08	2357.21
615.28	2754.52
615.47	2136.03
615.66	2373.60
615.85	2357.21
616.04	2432.99
616.23	2365.40
616.42	2273.25
616.62	2306.01
616.81	2258.91
617.00	2244.57
617.19	2326.49
617.38	2121.70
617.57	2260.96
617.76	2240.48
617.95	2258.91
618.15	2287.58
618.34	2344.92
618.53	2133.98
618.72	2359.26
618.91	2342.88
619.10	2369.50
619.29	2308.06
619.48	2224.09
619.68	2088.93
619.87	2256.86
620.06	2082.78
620.25	2316.25
620.44	2252.77
620.63	2133.98
620.82	2295.77
621.01	2226.14
621.20	2209.76
621.39	2312.16
621.59	2238.43
621.78	2181.09
621.97	2162.66
622.16	2281.44
622.35	2273.25
622.54	2326.49
622.73	2332.64
622.92	2064.35
623.11	2283.49
623.30	2179.04
623.49	2310.11
623.68	2090.98
623.88	2361.31
624.07	2174.94
624.26	2174.94
624.45	2263.01
624.64	2119.65
624.83	2148.32
625.02	2170.85
625.21	2263.01
625.40	2185.18
625.59	2361.31
625.78	2234.33
625.97	2373.60
626.16	2332.64
626.35	2367.45
626.54	2291.68
626.74	2408.41
626.93	2349.02
627.12	2277.34
627.31	2349.02
627.50	2236.38
627.69	2318.30
627.88	2086.88
628.07	2183.13
628.26	2109.41
628.45	2125.79
628.64	2105.31
628.83	2250.72
629.02	2103.26
629.21	2230.24
629.40	2269.15
629.59	2113.50
629.78	2220.00
629.97	2273.25
630.16	2295.77
630.35	2240.48
630.54	2250.72
630.73	2181.09
630.92	2203.61
631.11	2146.27
631.30	2236.38
631.49	2220.00
631.68	2215.90
631.87	2246.62
632.06	2105.31
632.25	2461.66
632.44	2236.38
632.63	2301.92
632.82	2195.42
633.01	2195.42
633.20	2383.84
633.39	2285.53
633.58	2170.85
633.77	2248.67
633.96	2318.30
634.15	2351.07
634.34	2310.11
634.53	2265.05
634.72	2170.85
634.91	2099.17
635.10	2322.40
635.29	2232.29
635.48	2187.23
635.67	2164.70
635.86	2113.50
636.05	2324.44
636.24	2185.18
636.43	2179.04
636.62	2316.25
636.81	1953.76
637.00	2220.00
637.19	2156.51
637.38	2174.94
637.57	2244.57
637.76	2275.29
637.95	2420.70
638.14	2406.36
638.33	2404.32
638.52	2328.54
638.71	2146.27
638.89	2168.80
639.08	2574.30
639.27	2428.89
639.46	2387.93
639.65	2883.54
639.84	2875.35
640.03	3162.06
640.22	2971.60
640.41	3000.27
640.60	2557.91
640.79	2537.43
640.98	2455.51
641.17	2465.75
641.36	2449.37
641.55	2439.13
641.74	2127.84
641.92	2250.72
642.11	2222.05
642.30	2322.40
642.49	2207.71
642.68	2209.76
642.87	2242.53
643.06	2256.86
643.25	2109.41
643.44	2131.94
643.63	2158.56
643.82	2273.25
644.00	2095.07
644.19	2203.61
644.38	2088.93
644.57	2285.53
644.76	2320.35
644.95	2170.85
645.14	2152.42
645.33	2162.66
645.52	2144.22
645.71	2076.64
645.89	2146.27
646.08	2158.56
646.27	2113.50
646.46	2428.89
646.65	2072.54
646.84	2179.04
647.03	2142.18
647.22	2322.40
647.40	2203.61
647.59	2244.57
647.78	2031.58
647.97	2179.04
648.16	2127.84
648.35	2295.77
648.54	2351.07
648.73	2154.46
648.91	2211.81
649.10	2170.85
649.29	2162.66
649.48	2203.61
649.67	2168.80
649.86	2258.91
650.05	2328.54
650.23	2414.56
650.42	2404.32
650.61	2516.95
650.80	2336.73
650.99	2533.34
651.18	2281.44
651.36	2389.98
651.55	2195.42
651.74	2310.11
651.93	2189.28
652.12	2234.33
652.31	2260.96
652.49	2230.24
652.68	2217.95
652.87	2404.32
653.06	2265.05
653.25	2432.99
653.44	2277.34
653.62	2346.97
653.81	2228.19
654.00	2197.47
654.19	2277.34
654.38	2562.01
654.56	2248.67
654.75	2138.08
654.94	2275.29
655.13	2260.96
655.32	2185.18
655.51	2310.11
655.69	2105.31
655.88	2277.34
656.07	2103.26
656.26	2164.70
656.45	2111.46
656.63	2146.27
656.82	2170.85
657.01	2232.29
657.20	2166.75
657.38	2324.44
657.57	2201.57
657.76	2084.83
657.95	2277.34
658.14	2066.40
658.32	2281.44
658.51	2121.70
658.70	2183.13
658.89	2230.24
659.08	2217.95
659.26	2435.03
659.45	2301.92
659.64	2289.63
659.83	2138.08
660.01	2545.63
660.20	2197.47
660.39	2396.12
660.58	2039.78
660.76	2201.57
660.95	1990.63
661.14	2258.91
661.33	2121.70
661.51	2228.19
661.70	2183.13
661.89	2240.48
662.08	2232.29
662.26	2064.35
662.45	2111.46
662.64	2416.60
662.83	2267.10
663.01	2099.17
663.20	2220.00
663.39	2283.49
663.58	2097.12
663.76	2150.37
663.95	2308.06
664.14	2113.50
664.32	2179.04
664.51	2088.93
664.70	2052.06
664.89	2254.81
665.07	2080.74
665.26	2260.96
665.45	2113.50
665.64	2240.48
665.82	2146.27
666.01	2310.11
666.20	2117.60
666.38	2254.81
666.57	2346.97
666.76	3340.24
666.95	7942.02
667.13	16244.49
667.32	21835.44
667.51	25357.95
667.69	27041.38
667.88	25044.61
668.07	18001.65
668.25	14200.62
668.44	11769.68
668.63	10065.77
668.81	8931.19
669.00	7903.11
669.19	6913.94
669.38	6152.10
669.56	5289.90
669.75	4394.94
669.94	3645.38
670.12	3203.02
670.31	2787.29
670.50	2605.02
670.68	2512.86
670.87	2412.51
671.06	2291.68
671.24	2353.12
671.43	2459.61
671.62	2293.72
671.80	2215.90
671.99	2285.53
672.18	2320.35
672.36	2344.92
672.55	2269.15
672.74	2203.61
672.92	2248.67
673.11	2213.85
673.29	2129.89
673.48	2252.77
673.67	2138.08
673.85	2375.64
674.04	2211.81
674.23	2234.33
674.41	2363.36
674.60	2047.97
674.79	2080.74
674.97	2070.50
675.16	2310.11
675.34	2238.43
675.53	2101.22
675.72	2299.87
675.90	2359.26
676.09	2205.66
676.28	2195.42
676.46	2099.17
676.65	2346.97
676.83	2131.94
677.02	2197.47
677.21	2154.46
677.39	2238.43
677.58	2086.88
677.77	2236.38
677.95	2095.07
678.14	2109.41
678.32	2220.00
678.51	2146.27
678.70	2379.74
678.88	2088.93
679.07	2240.48
679.25	2187.23
679.44	2273.25
679.63	2119.65
679.81	2232.29
680.00	2310.11
680.18	2226.14
680.37	2357.21
680.55	2242.53
680.74	2103.26
680.93	2004.96
681.11	2195.42
681.30	2220.00
681.48	2154.46
681.67	2199.52
681.85	2199.52
682.04	2095.07
682.23	2201.57
682.41	2248.67
682.60	2103.26
682.78	2230.24
682.97	2093.02
683.15	2205.66
683.34	2240.48
683.53	2351.07
683.71	2068.45
683.90	2326.49
684.08	2330.59
684.27	2203.61
684.45	2174.94
684.64	2287.58
684.82	2179.04
685.01	2306.01
685.19	2199.52
685.38	2373.60
685.57	2160.61
685.75	2101.22
685.94	2154.46
686.12	2125.79
686.31	2179.04
686.49	2322.40
686.68	2015.20
686.86	2152.42
687.05	2220.00
687.23	2340.83
687.42	2162.66
687.60	2021.35
687.79	2297.82
687.97	2414.56
688.16	2248.67
688.34	2349.02
688.53	2004.96
688.71	2297.82
688.90	2299.87
689.08	2164.70
689.27	2117.60
689.45	2265.05
689.64	2283.49
689.82	2209.76
690.01	2299.87
690.19	2254.81
690.38	2150.37
690.56	2318.30
690.75	2101.22
690.93	2156.51
691.12	2150.37
691.30	2240.48
691.49	2242.53
691.67	2228.19
691.86	2389.98
692.04	2154.46
692.23	2271.20
692.41	2220.00
692.60	2545.63
692.78	2400.22
692.97	2283.49
693.15	2344.92
693.34	2389.98
693.52	2365.40
693.71	2207.71
693.89	2183.13
694.08	2086.88
694.26	2287.58
694.44	2222.05
694.63	2220.00
694.81	2121.70
695.00	2152.42
695.18	2312.16
695.37	2496.47
695.55	2242.53
695.74	2121.70
695.92	2142.18
696.10	2308.06
696.29	2076.64
696.47	2179.04
696.66	1990.63
696.84	2086.88
697.03	2285.53
697.21	2312.16
697.40	3219.41
697.58	2285.53
697.76	2170.85
697.95	2170.85
698.13	2187.23
698.32	2146.27
698.50	2168.80
698.68	2281.44
698.87	2269.15
699.05	2422.75
699.24	2203.61
699.42	2033.63
699.61	2158.56
699.79	2209.76
699.97	2222.05
700.16	2066.40
700.34	2162.66
700.53	2209.76
700.71	2412.51
700.89	2320.35
701.08	2138.08
701.26	2209.76
701.45	2734.04
701.63	2082.78
701.81	2121.70
702.00	2168.80
702.18	2174.94
702.37	2238.43
702.55	2416.60
702.73	2496.47
702.92	2396.12
703.10	2535.39
703.28	2500.57
703.47	2238.43
703.65	2457.56
703.84	2334.68
704.02	2267.10
704.20	2398.17
704.39	2228.19
704.57	2275.29
704.75	2408.41
704.94	2396.12
705.12	2234.33
705.30	2539.48
705.49	4487.10
705.67	10954.58
705.86	19732.18
706.04	24252.05
706.22	27518.56
706.41	29183.55
706.59	24637.06
706.77	17538.80
706.96	14634.78
707.14	12537.66
707.32	10850.14
707.51	9652.08
707.69	8095.62
707.87	6453.15
708.06	5158.83
708.24	4220.86
708.42	3305.42
708.61	3014.61
708.79	2432.99
708.97	2400.22
709.16	2373.60
709.34	2359.26
709.52	2217.95
709.71	2213.85
709.89	2306.01
710.07	2146.27
710.26	2160.61
710.44	2271.20
710.62	2293.72
710.80	2144.22
710.99	2342.88
711.17	2207.71
711.35	2207.71
711.54	2123.74
711.72	2222.05
711.90	2254.81
712.09	2285.53
712.27	2172.89
712.45	2314.20
712.63	2148.32
712.82	2211.81
713.00	2164.70
713.18	2293.72
713.37	2310.11
713.55	2240.48
713.73	2199.52
713.91	2258.91
714.10	2142.18
714.28	2144.22
714.46	2201.57
714.65	2228.19
714.83	2244.57
715.01	2226.14
715.19	2230.24
715.38	2176.99
715.56	2285.53
715.74	2150.37
715.92	2123.74
716.11	2293.72
716.29	2011.11
716.47	2191.33
716.65	2258.91
716.84	2086.88
717.02	2269.15
717.20	2072.54
717.38	2136.03
717.57	2187.23
717.75	2185.18
717.93	2160.61
718.11	2273.25
718.30	1996.77
718.48	2269.15
718.66	2269.15
718.84	2344.92
719.03	2220.00
719.21	2158.56
719.39	2428.89
719.57	2246.62
719.75	2285.53
719.94	2119.65
720.12	2199.52
720.30	2248.67
720.48	2328.54
720.67	2023.39
720.85	2146.27
721.03	2119.65
721.21	2150.37
721.39	2320.35
721.58	2244.57
721.76	2242.53
721.94	2195.42
722.12	2285.53
722.30	2363.36
722.49	2164.70
722.67	2203.61
722.85	2211.81
723.03	2064.35
723.21	2093.02
723.40	2234.33
723.58	2326.49
723.76	2244.57
723.94	2398.17
724.12	2291.68
724.30	2490.33
724.49	2318.30
724.67	2123.74
724.85	2346.97
725.03	2078.69
725.21	2222.05
725.40	2301.92
725.58	2181.09
725.76	2359.26
725.94	2256.86
726.12	2103.26
726.30	2226.14
726.49	2260.96
726.67	2144.22
726.85	2232.29
727.03	2539.48
727.21	3667.91
727.39	5361.58
727.57	6594.46
727.76	7167.89
727.94	7776.14
728.12	7268.24
728.30	5752.74
728.48	4902.84
728.66	4573.11
728.84	4120.51
729.03	3442.64
729.21	3227.60
729.39	2783.19
729.57	2451.42
729.75	2396.12
729.93	2346.97
730.11	2181.09
730.30	2189.28
730.48	2201.57
730.66	2338.78
730.84	2244.57
731.02	2260.96
731.20	2220.00
731.38	2195.42
731.56	2181.09
731.74	2054.11
731.93	2217.95
732.11	2207.71
732.29	2086.88
732.47	2275.29
732.65	2191.33
732.83	2426.84
733.01	2201.57
733.19	2168.80
733.37	2179.04
733.56	2283.49
733.74	2170.85
733.92	2301.92
734.10	2179.04
734.28	2207.71
734.46	2033.63
734.64	2117.60
734.82	2168.80
735.00	2138.08
735.18	2131.94
735.36	2246.62
735.54	2156.51
735.73	2271.20
735.91	2215.90
736.09	2301.92
736.27	2181.09
736.45	2248.67
736.63	2025.44
736.81	2105.31
736.99	2269.15
737.17	2306.01
737.35	2127.84
737.53	2211.81
737.71	2187.23
737.89	2301.92
738.07	2170.85
738.25	2197.47
738.43	2107.36
738.61	2154.46
738.80	2068.45
738.98	2172.89
739.16	2187.23
739.34	2154.46
739.52	2365.40
739.70	2232.29
739.88	2316.25
740.06	2314.20
740.24	1957.86
740.42	2287.58
740.60	2086.88
740.78	2074.59
740.96	2019.30
741.14	2195.42
741.32	2193.37
741.50	2117.60
741.68	2432.99
741.86	2244.57
742.04	2154.46
742.22	2154.46
742.40	2183.13
742.58	2260.96
742.76	2054.11
742.94	2193.37
743.12	2004.96
743.30	2121.70
743.48	2267.10
743.66	2131.94
743.84	2224.09
744.02	2179.04
744.20	2176.99
744.38	2025.44
744.56	2115.55
744.74	2336.73
744.92	2205.66
745.10	2291.68
745.28	2291.68
745.46	2342.88
745.64	2176.99
745.82	2248.67
746.00	2183.13
746.18	2213.85
746.36	2064.35
746.54	2220.00
746.72	2166.75
746.90	2123.74
747.08	2373.60
747.26	2179.04
747.44	2295.77
747.62	2314.20
747.80	2203.61
747.98	2174.94
748.15	2174.94
748.33	2439.13
748.51	2252.77
748.69	2256.86
748.87	2066.40
749.05	2240.48
749.23	2189.28
749.41	2187.23
749.59	2154.46
749.77	2277.34
749.95	2226.14
750.13	2129.89
750.31	2197.47
750.49	2160.61
750.67	2240.48
750.85	2322.40
751.03	2189.28
751.20	2404.32
751.38	2158.56
751.56	2164.70
751.74	2162.66
751.92	2195.42
752.10	2041.82
752.28	2301.92
752.46	2160.61
752.64	2187.23
752.82	2140.13
753.00	2283.49
753.18	2060.26
753.35	2220.00
753.53	2146.27
753.71	2174.94
753.89	2189.28
754.07	2234.33
754.25	2297.82
754.43	2234.33
754.61	2074.59
754.79	2203.61
754.97	2170.85
755.14	2285.53
755.32	2041.82
755.50	2228.19
755.68	2209.76
755.86	2113.50
756.04	2136.03
756.22	2025.44
756.40	2183.13
756.57	2367.45
756.75	2121.70
756.93	2301.92
757.11	2277.34
757.29	2088.93
757.47	2154.46
757.65	2103.26
757.82	2031.58
758.00	2125.79
758.18	2201.57
758.36	2060.26
758.54	2359.26
758.72	2047.97
758.90	2195.42
759.07	2217.95
759.25	2095.07
759.43	2244.57
759.61	2088.93
759.79	3080.14
759.97	2256.86
760.15	2152.42
760.32	2162.66
760.50	2209.76
760.68	2381.79
760.86	2095.07
761.04	2334.68
761.22	2220.00
761.39	2158.56
761.57	2140.13
761.75	2113.50
761.93	2203.61
762.11	2109.41
762.28	2138.08
762.46	2093.02
762.64	2197.47
762.82	2080.74
763.00	2179.04
763.18	2355.16
763.35	2097.12
763.53	2340.83
763.71	2236.38
763.89	2240.48
764.07	2267.10
764.24	2170.85
764.42	2297.82
764.60	2148.32
764.78	2242.53
764.96	2316.25
765.13	2308.06
765.31	2185.18
765.49	2299.87
765.67	2111.46
765.84	2093.02
766.02	2154.46
766.20	1992.67
766.38	2228.19
766.56	2260.96
766.73	2254.81
766.91	2131.94
767.09	2160.61
767.27	2244.57
767.44	2084.83
767.62	2260.96
767.80	2142.18
767.98	2160.61
768.15	2068.45
768.33	2295.77
768.51	2254.81
768.69	2314.20
768.87	2252.77
769.04	2232.29
769.22	2443.23
769.40	2224.09
769.58	2326.49
769.75	2232.29
769.93	2322.40
770.11	2183.13
770.28	2080.74
770.46	2232.29
770.64	2258.91
770.82	2228.19
770.99	2058.21
771.17	2217.95
771.35	2166.75
771.53	2158.56
771.70	2121.70
771.88	2222.05
772.06	2238.43
772.23	2146.27
772.41	2191.33
772.59	2168.80
772.77	2174.94
772.94	2183.13
773.12	2248.67
773.30	2179.04
773.47	2191.33
773.65	2154.46
773.83	2338.78
774.01	2273.25
774.18	1992.67
774.36	2166.75
774.54	2084.83
774.71	2260.96
774.89	2019.30
775.07	2017.25
775.24	2144.22
775.42	2113.50
775.60	2297.82
775.78	2107.36
775.95	2025.44
776.13	2019.30
776.31	2000.87
776.48	2260.96
776.66	2283.49
776.84	2279.39
777.01	2099.17
777.19	2117.60
777.37	2117.60
777.54	2250.72
777.72	2340.83
777.90	2183.13
778.07	2107.36
778.25	2469.85
778.43	2234.33
778.60	2133.98
778.78	2320.35
778.96	2308.06
779.13	2068.45
779.31	2267.10
779.49	2205.66
779.66	2211.81
779.84	2164.70
780.01	2127.84
780.19	2115.55
780.37	2293.72
780.54	2254.81
780.72	2121.70
780.90	2166.75
781.07	2047.97
781.25	2113.50
781.43	2273.25
781.60	2097.12
781.78	2279.39
781.95	2201.57
782.13	2107.36
782.31	2170.85
782.48	1961.95
782.66	2293.72
782.83	2420.70
783.01	2226.14
783.19	2351.07
783.36	2095.07
783.54	2142.18
783.72	2312.16
783.89	2160.61
784.07	2144.22
784.24	2228.19
784.42	2273.25
784.60	2220.00
784.77	2228.19
784.95	2103.26
785.12	2117.60
785.30	2285.53
785.47	2090.98
785.65	2052.06
785.83	2181.09
786.00	2101.22
786.18	2195.42
786.35	2072.54
786.53	2181.09
786.71	2287.58
786.88	2234.33
787.06	2252.77
787.23	2179.04
787.41	2078.69
787.58	2144.22
787.76	2047.97
787.94	2154.46
788.11	2201.57
788.29	2109.41
788.46	2138.08
788.64	2050.02
788.81	2076.64
788.99	2099.17
789.16	2131.94
789.34	2154.46
789.52	2064.35
789.69	2176.99
789.87	1986.53
790.04	2179.04
790.22	2162.66
790.39	2326.49
790.57	2123.74
790.74	2074.59
790.92	2301.92
791.09	1990.63
791.27	2144.22
791.44	2287.58
791.62	2209.76
791.79	2230.24
791.97	2203.61
792.15	2410.46
792.32	2273.25
792.50	2240.48
792.67	2252.77
792.85	2363.36
793.02	2129.89
793.20	2136.03
793.37	2070.50
793.55	2193.37
793.72	2000.87
793.90	2205.66
794.07	2160.61
794.25	2140.13
794.42	2160.61
794.60	2222.05
794.77	2250.72
794.95	2213.85
795.12	2334.68
795.30	2183.13
795.47	2007.01
795.65	2471.90
795.82	2224.09
796.00	2099.17
796.17	2176.99
796.34	2170.85
796.52	2277.34
796.69	2293.72
796.87	2236.38
797.04	2179.04
797.22	2207.71
797.39	2172.89
797.57	2232.29
797.74	2162.66
797.92	2154.46
798.09	2148.32
798.27	2256.86
798.44	2146.27
798.62	2162.66
798.79	2181.09
798.96	2207.71
799.14	2174.94
799.31	2467.80
799.49	2211.81
799.66	2121.70
799.84	2197.47
800.01	2041.82
800.19	2203.61
800.36	1974.24
800.53	2187.23
800.71	2232.29
800.88	2392.03
801.06	2176.99
801.23	2170.85
801.41	2174.94
801.58	2164.70
801.75	2209.76
801.93	2209.76
802.10	2289.63
802.28	2213.85
802.45	2156.51
802.63	2244.57
802.80	2320.35
802.97	2211.81
803.15	2166.75
803.32	2158.56
803.50	2062.30
803.67	2035.68
803.84	2050.02
804.02	2152.42
804.19	2168.80
804.37	2004.96
804.54	2103.26
804.71	2197.47
804.89	2086.88
805.06	2109.41
805.24	2078.69
805.41	2088.93
805.58	2105.31
805.76	2482.14
805.93	2131.94
806.10	2314.20
806.28	2271.20
806.45	2185.18
806.63	2211.81
806.80	2260.96
806.97	2140.13
807.15	2252.77
807.32	2191.33
807.49	2252.77
807.67	2072.54
807.84	2170.85
808.01	2052.06
808.19	2322.40
808.36	2469.85
808.54	2125.79
808.71	2234.33
808.88	2193.37
809.06	2295.77
809.23	2310.11
809.40	2222.05
809.58	2287.58
809.75	2140.13
809.92	2076.64
810.10	2451.42
810.27	2191.33
810.44	2187.23
810.62	2287.58
810.79	2281.44
810.96	2144.22
811.14	2176.99
811.31	2260.96
811.48	2320.35
811.66	2232.29
811.83	2326.49
812.00	2234.33
812.18	2234.33
812.35	2332.64
812.52	2082.78
812.69	2133.98
812.87	2138.08
813.04	2086.88
813.21	2205.66
813.39	2150.37
813.56	2066.40
813.73	2283.49
813.91	2060.26
814.08	2129.89
814.25	2226.14
814.42	1992.67
814.60	2203.61
814.77	2222.05
814.94	2117.60
815.12	2236.38
815.29	2310.11
815.46	2109.41
815.63	2195.42
815.81	2152.42
815.98	2164.70
816.15	2181.09
816.33	2158.56
816.50	2123.74
816.67	2095.07
816.84	2226.14
817.02	2052.06
817.19	2166.75
817.36	2213.85
817.53	2154.46
817.71	2072.54
817.88	2281.44
818.05	2179.04
818.22	2187.23
818.40	2383.84
818.57	2097.12
818.74	2168.80
818.91	2179.04
819.09	2187.23
819.26	2306.01
819.43	2125.79
819.60	2119.65
819.78	2256.86
819.95	2340.83
820.12	2121.70
820.29	2365.40
820.47	2301.92
820.64	2117.60
820.81	2146.27
820.98	2064.35
821.15	2183.13
821.33	2230.24
821.50	2029.54
821.67	2232.29
821.84	2064.35
822.02	2174.94
822.19	2326.49
822.36	2234.33
822.53	2207.71
822.70	2095.07
822.88	2088.93
823.05	2369.50
823.22	2203.61
823.39	2185.18
823.56	2238.43
823.74	2326.49
823.91	2150.37
824.08	2138.08
824.25	2027.49
824.42	2385.88
824.60	2088.93
824.77	2209.76
824.94	2185.18
825.11	2252.77
825.28	2007.01
825.45	2215.90
825.63	2156.51
825.80	2133.98
825.97	2228.19
826.14	2121.70
826.31	2066.40
826.48	2289.63
826.66	2166.75
826.83	2138.08
827.00	2138.08
827.17	2154.46
827.34	2111.46
827.51	2136.03
827.69	2162.66
827.86	2060.26
828.03	2131.94
828.20	2138.08
828.37	2082.78
828.54	2199.52
828.71	2138.08
828.89	2254.81
829.06	2209.76
829.23	2381.79
829.40	2191.33
829.57	2131.94
829.74	2228.19
829.91	2136.03
830.09	2052.06
830.26	2228.19
830.43	2291.68
830.60	2156.51
830.77	2164.70
830.94	2250.72
831.11	2211.81
831.28	2254.81
831.46	2377.69
831.63	2168.80
831.80	2293.72
831.97	2162.66
832.14	2107.36
832.31	2224.09
832.48	2228.19
832.65	2387.93
832.82	2226.14
832.99	2164.70
833.17	2103.26
833.34	2379.74
833.51	2181.09
833.68	2013.15
833.85	2260.96
834.02	2160.61
834.19	2125.79
834.36	2129.89
834.53	2170.85
834.70	2220.00
834.87	2236.38
835.04	2179.04
835.22	2105.31
835.39	2217.95
835.56	2084.83
835.73	2103.26
835.90	2342.88
836.07	2129.89
836.24	2222.05
836.41	2011.11
836.58	2101.22
836.75	2285.53
836.92	2199.52
837.09	2127.84
837.26	2318.30
837.43	2201.57
837.60	2236.38
837.77	2125.79
837.94	2275.29
838.12	2275.29
838.29	2158.56
838.46	2062.30
838.63	2109.41
838.80	2432.99
838.97	2228.19
839.14	2142.18
839.31	2244.57
839.48	2293.72
839.65	2187.23
839.82	2185.18
839.99	2263.01
840.16	2187.23
840.33	2082.78
840.50	2158.56
840.67	2054.11
840.84	2019.30
841.01	2154.46
841.18	2072.54
841.35	2207.71
841.52	2236.38
841.69	2256.86
841.86	2201.57
842.03	2166.75
842.20	2242.53
842.37	2160.61
842.54	2203.61
842.71	2189.28
842.88	2123.74
843.05	2172.89
843.22	2228.19
843.39	2201.57
843.56	2185.18
843.73	2170.85
843.90	2158.56
844.07	2303.96
844.24	2236.38
844.41	2197.47
844.58	2109.41
844.75	2176.99
844.92	2162.66
845.09	2168.80
845.26	2125.79
845.43	2324.44
845.60	2127.84
845.77	2176.99
845.94	2140.13
846.10	2252.77
846.27	2074.59
846.44	2129.89
846.61	2140.13
846.78	2232.29
846.95	2271.20
847.12	2111.46
847.29	2176.99
847.46	2080.74
847.63	2293.72
847.80	2107.36
847.97	2136.03
848.14	2447.32
848.31	2166.75
848.48	2039.78
848.65	2166.75
848.82	2062.30
848.98	2457.56
849.15	2234.33
849.32	2244.57
849.49	2203.61
849.66	2170.85
849.83	2172.89
850.00	2084.83
850.17	2220.00
850.34	2183.13
850.51	2097.12
850.68	2176.99
850.85	2389.98
851.01	2187.23
851.18	2234.33
851.35	2172.89
851.52	2179.04
851.69	2258.91
851.86	2086.88
852.03	2101.22
852.20	2269.15
852.37	2215.90
852.53	2058.21
852.70	2127.84
852.87	2093.02
853.04	2260.96
853.21	2119.65
853.38	2275.29
853.55	2332.64
853.72	2351.07
853.89	2078.69
854.05	2076.64
854.22	2162.66
854.39	2148.32
854.56	2181.09
854.73	2162.66
854.90	2150.37
855.07	2136.03
855.23	2136.03
855.40	2185.18
855.57	2203.61
855.74	2037.73
855.91	2385.88
856.08	2068.45
856.25	2009.06
856.41	2179.04
856.58	2150.37
856.75	2228.19
856.92	2086.88
857.09	2242.53
857.26	2064.35
857.42	2166.75
857.59	2295.77
857.76	2187.23
857.93	2179.04
858.10	2189.28
858.27	2095.07
858.43	2191.33
858.60	2156.51
858.77	2037.73
858.94	2162.66
859.11	2314.20
859.27	2125.79
859.44	2185.18
859.61	2344.92
859.78	2260.96
859.95	2170.85
860.12	2097.12
860.28	2430.94
860.45	2297.82
860.62	2050.02
860.79	2176.99
860.95	2125.79
861.12	2125.79
861.29	2062.30
861.46	2103.26
861.63	2138.08
861.79	2269.15
861.96	2074.59
862.13	2101.22
862.30	2316.25
862.47	2162.66
862.63	2074.59
862.80	2258.91
862.97	2166.75
863.14	2174.94
863.30	2240.48
863.47	2037.73
863.64	2359.26
863.81	2183.13
863.97	2113.50
864.14	2176.99
864.31	2138.08
864.48	2236.38
864.65	2097.12
864.81	2236.38
864.98	2269.15
865.15	2254.81
865.32	2201.57
865.48	2322.40
865.65	2314.20
865.82	2201.57
865.98	2207.71
866.15	2226.14
866.32	2121.70
866.49	2260.96
866.65	2248.67
866.82	2064.35
866.99	2172.89
867.16	2078.69
867.32	2080.74
867.49	2113.50
867.66	2127.84
867.83	2228.19
867.99	2002.91
868.16	2179.04
868.33	2047.97
868.49	2191.33
868.66	2162.66
868.83	2252.77
868.99	2187.23
869.16	2228.19
869.33	2240.48
869.50	2244.57
869.66	2176.99
869.83	2097.12
870.00	2105.31
870.16	2170.85
870.33	2113.50
870.50	2308.06
870.66	2113.50
870.83	2263.01
871.00	2240.48
871.17	2195.42
871.33	2181.09
871.50	2176.99
871.67	2152.42
871.83	2070.50
872.00	2373.60
872.17	2093.02
872.33	2385.88
872.50	2179.04
872.67	2146.27
872.83	2084.83
873.00	2256.86
873.17	2203.61
873.33	2283.49
873.50	2234.33
873.67	2088.93
873.83	2117.60
874.00	2115.55
874.16	2203.61
874.33	2162.66
874.50	2072.54
874.66	2154.46
874.83	2168.80
875.00	2265.05
875.16	2314.20
875.33	2199.52
875.50	2027.49
875.66	2099.17
875.83	2156.51
875.99	2301.92
876.16	2162.66
876.33	2146.27
876.49	2211.81
876.66	2203.61
876.83	2166.75
876.99	2086.88
877.16	2160.61
877.32	2142.18
877.49	2154.46
877.66	2170.85
877.82	2306.01
877.99	2248.67
878.15	2224.09
878.32	2117.60
878.49	2215.90
878.65	2162.66
878.82	2277.34
878.98	2174.94
879.15	2252.77
879.32	2244.57
879.48	2244.57
879.65	2131.94
879.81	2154.46
879.98	2166.75
880.15	2158.56
880.31	2291.68
880.48	2121.70
880.64	2267.10
880.81	2176.99
880.97	2371.55
881.14	2349.02
881.31	2088.93
881.47	2277.34
881.64	2076.64
881.80	1970.15
881.97	2267.10
882.13	2209.76
882.30	2088.93
882.47	2146.27
882.63	2105.31
882.80	2066.40
882.96	2095.07
883.13	2201.57
883.29	2185.18
883.46	2179.04
883.62	2416.60
883.79	2160.61
883.95	2172.89
884.12	2183.13
884.29	2269.15
884.45	2162.66
884.62	2217.95
884.78	2117.60
884.95	2326.49
885.11	2183.13
885.28	2160.61
885.44	2168.80
885.61	2209.76
885.77	2379.74
885.94	2213.85
886.10	2150.37
886.27	2230.24
886.43	2357.21
886.60	2236.38
886.76	2152.42
886.93	2119.65
887.09	2222.05
887.26	2013.15
887.42	2117.60
887.59	2260.96
887.75	2424.80
887.92	2297.82
888.08	2240.48
888.25	2310.11
888.41	2224.09
888.58	2215.90
888.74	2056.16
888.91	2084.83
>>>>>End Processed Spectral Data<<<<<
