SpectraSuite Data File
++++++++++++++++++++++++++++++++++++
Date: Thu May 05 12:35:43 CEST 2016
User: root
Dark Spectrum Present: No
Reference Spectrum Present: No
Number of Sampled Component Spectra: 1
Spectrometers: USB4C02835
Integration Time (usec): 100000 (USB4C02835)
Spectra Averaged: 1 (USB4C02835)
Boxcar Smoothing: 0 (USB4C02835)
Correct for Electrical Dark: No (USB4C02835)
Strobe/Lamp Enabled: No (USB4C02835)
Correct for Detector Non-linearity: No (USB4C02835)
Correct for Stray Light: No (USB4C02835)
Number of Pixels in Processed Spectrum: 3648
>>>>>Begin Processed Spectral Data<<<<<
177.47	1818.60
177.69	1818.60
177.91	1818.60
178.13	1796.07
178.36	1800.16
178.58	2050.02
178.80	2154.46
179.02	2056.16
179.24	2093.02
179.46	2154.46
179.68	2168.80
179.90	2140.13
180.13	2166.75
180.35	2047.97
180.57	2097.12
180.79	2176.99
181.01	2123.74
181.23	2095.07
181.45	2291.68
181.67	2234.33
181.90	2205.66
182.12	2113.50
182.34	2011.11
182.56	2254.81
182.78	2174.94
183.00	2099.17
183.22	2111.46
183.44	2007.01
183.66	2424.80
183.89	2189.28
184.11	2117.60
184.33	2242.53
184.55	2359.26
184.77	2150.37
184.99	2172.89
185.21	2189.28
185.43	2519.00
185.65	2166.75
185.87	2164.70
186.10	2365.40
186.32	2349.02
186.54	2199.52
186.76	2205.66
186.98	2297.82
187.20	2111.46
187.42	2072.54
187.64	2187.23
187.86	2228.19
188.08	2314.20
188.30	2146.27
188.52	2138.08
188.75	2277.34
188.97	2375.64
189.19	2088.93
189.41	2183.13
189.63	2127.84
189.85	2185.18
190.07	2021.35
190.29	2015.20
190.51	2248.67
190.73	2064.35
190.95	2320.35
191.17	2099.17
191.39	2105.31
191.61	2193.37
191.84	2084.83
192.06	2183.13
192.28	1980.39
192.50	2486.23
192.72	2256.86
192.94	2172.89
193.16	2318.30
193.38	2195.42
193.60	2068.45
193.82	2215.90
194.04	2322.40
194.26	2215.90
194.48	2129.89
194.70	2105.31
194.92	2203.61
195.14	2170.85
195.36	2086.88
195.58	2129.89
195.80	2179.04
196.02	2113.50
196.24	2181.09
196.46	2199.52
196.69	2082.78
196.91	2342.88
197.13	2103.26
197.35	2097.12
197.57	2375.64
197.79	2287.58
198.01	2142.18
198.23	2107.36
198.45	2240.48
198.67	2099.17
198.89	2101.22
199.11	2195.42
199.33	2076.64
199.55	1988.58
199.77	2166.75
199.99	2250.72
200.21	2146.27
200.43	2193.37
200.65	2062.30
200.87	1966.05
201.09	2201.57
201.31	2144.22
201.53	2148.32
201.75	2246.62
201.97	2146.27
202.19	2211.81
202.41	2232.29
202.63	2318.30
202.85	2138.08
203.07	2242.53
203.29	2154.46
203.51	1982.43
203.73	2185.18
203.95	2422.75
204.17	2183.13
204.39	2187.23
204.61	2236.38
204.83	2064.35
205.05	2238.43
205.27	2152.42
205.49	2373.60
205.71	2146.27
205.93	2047.97
206.15	2133.98
206.37	2252.77
206.59	2176.99
206.81	2070.50
207.03	2154.46
207.25	2070.50
207.47	2301.92
207.69	2146.27
207.91	2271.20
208.13	2291.68
208.34	2119.65
208.56	2080.74
208.78	2248.67
209.00	2150.37
209.22	2117.60
209.44	2076.64
209.66	2090.98
209.88	2179.04
210.10	2164.70
210.32	2125.79
210.54	2232.29
210.76	2183.13
210.98	2279.39
211.20	1972.19
211.42	2150.37
211.64	2301.92
211.86	2213.85
212.08	2146.27
212.30	2170.85
212.52	2170.85
212.74	2289.63
212.96	2170.85
213.17	2209.76
213.39	2228.19
213.61	2353.12
213.83	2152.42
214.05	2168.80
214.27	2250.72
214.49	2125.79
214.71	2105.31
214.93	2246.62
215.15	2217.95
215.37	2277.34
215.59	1966.05
215.81	2205.66
216.03	2250.72
216.24	2199.52
216.46	2115.55
216.68	2166.75
216.90	2222.05
217.12	2344.92
217.34	2172.89
217.56	2228.19
217.78	2373.60
218.00	2195.42
218.22	2170.85
218.44	2129.89
218.66	2269.15
218.87	2344.92
219.09	2129.89
219.31	2193.37
219.53	2197.47
219.75	2176.99
219.97	2142.18
220.19	2144.22
220.41	2170.85
220.63	2379.74
220.85	2160.61
221.06	2099.17
221.28	2281.44
221.50	2189.28
221.72	2119.65
221.94	2181.09
222.16	2228.19
222.38	2320.35
222.60	2174.94
222.82	2129.89
223.03	2201.57
223.25	2090.98
223.47	2129.89
223.69	2203.61
223.91	2217.95
224.13	2117.60
224.35	2070.50
224.57	2222.05
224.78	2289.63
225.00	2152.42
225.22	2160.61
225.44	2078.69
225.66	2230.24
225.88	2146.27
226.10	2228.19
226.32	2146.27
226.53	2408.41
226.75	2215.90
226.97	2193.37
227.19	2056.16
227.41	2199.52
227.63	2156.51
227.85	2072.54
228.06	2154.46
228.28	2222.05
228.50	2281.44
228.72	2015.20
228.94	2129.89
229.16	2002.91
229.37	2179.04
229.59	2129.89
229.81	2197.47
230.03	2220.00
230.25	2093.02
230.47	2095.07
230.69	1964.00
230.90	2240.48
231.12	2154.46
231.34	2129.89
231.56	2185.18
231.78	2088.93
232.00	2244.57
232.21	2084.83
232.43	2136.03
232.65	2007.01
232.87	2220.00
233.09	2107.36
233.30	2011.11
233.52	2338.78
233.74	2252.77
233.96	2154.46
234.18	2179.04
234.40	2144.22
234.61	2422.75
234.83	2084.83
235.05	2015.20
235.27	2392.03
235.49	2277.34
235.70	2109.41
235.92	2183.13
236.14	2232.29
236.36	2439.13
236.58	2021.35
236.79	2258.91
237.01	2162.66
237.23	2215.90
237.45	2242.53
237.67	2131.94
237.88	2220.00
238.10	2338.78
238.32	2064.35
238.54	2088.93
238.76	2267.10
238.97	2074.59
239.19	2074.59
239.41	2211.81
239.63	2293.72
239.85	2146.27
240.06	2170.85
240.28	2080.74
240.50	2289.63
240.72	2093.02
240.93	2080.74
241.15	2142.18
241.37	2260.96
241.59	2265.05
241.81	2131.94
242.02	2138.08
242.24	2203.61
242.46	2207.71
242.68	1980.39
242.89	2148.32
243.11	2359.26
243.33	2183.13
243.55	2170.85
243.76	2248.67
243.98	2090.98
244.20	2144.22
244.42	2144.22
244.64	2183.13
244.85	1990.63
245.07	2228.19
245.29	2146.27
245.51	2082.78
245.72	2201.57
245.94	2342.88
246.16	2207.71
246.38	2183.13
246.59	2133.98
246.81	2080.74
247.03	2133.98
247.24	2070.50
247.46	2154.46
247.68	2209.76
247.90	2072.54
248.11	2121.70
248.33	2256.86
248.55	2156.51
248.77	2189.28
248.98	2269.15
249.20	2351.07
249.42	2174.94
249.64	2097.12
249.85	2090.98
250.07	2121.70
250.29	2293.72
250.50	2101.22
250.72	2086.88
250.94	2179.04
251.16	2263.01
251.37	2152.42
251.59	2238.43
251.81	2160.61
252.02	2289.63
252.24	2121.70
252.46	2246.62
252.68	2197.47
252.89	2090.98
253.11	2011.11
253.33	2244.57
253.54	2369.50
253.76	2066.40
253.98	2095.07
254.20	2148.32
254.41	2043.87
254.63	2142.18
254.85	2019.30
255.06	2146.27
255.28	2211.81
255.50	2164.70
255.71	2121.70
255.93	1998.82
256.15	2179.04
256.36	2232.29
256.58	2121.70
256.80	2138.08
257.02	2150.37
257.23	2107.36
257.45	2146.27
257.67	2189.28
257.88	2117.60
258.10	2232.29
258.32	2144.22
258.53	2179.04
258.75	2279.39
258.97	2133.98
259.18	2097.12
259.40	2179.04
259.62	2322.40
259.83	2336.73
260.05	2191.33
260.27	2504.67
260.48	2277.34
260.70	2064.35
260.92	2080.74
261.13	2176.99
261.35	2170.85
261.57	2228.19
261.78	2072.54
262.00	2113.50
262.22	2256.86
262.43	2193.37
262.65	2127.84
262.86	2097.12
263.08	2385.88
263.30	2232.29
263.51	2043.87
263.73	2093.02
263.95	2269.15
264.16	2158.56
264.38	2062.30
264.60	2236.38
264.81	2170.85
265.03	2295.77
265.25	2351.07
265.46	2088.93
265.68	2263.01
265.89	2316.25
266.11	2007.01
266.33	2181.09
266.54	2326.49
266.76	2279.39
266.98	2232.29
267.19	2201.57
267.41	2283.49
267.62	2166.75
267.84	1972.19
268.06	2193.37
268.27	2269.15
268.49	2279.39
268.70	2211.81
268.92	2197.47
269.14	2060.26
269.35	2035.68
269.57	2076.64
269.79	2185.18
270.00	2164.70
270.22	2334.68
270.43	2172.89
270.65	1957.86
270.87	2131.94
271.08	2258.91
271.30	2172.89
271.51	2125.79
271.73	2230.24
271.95	2326.49
272.16	2125.79
272.38	2201.57
272.59	2228.19
272.81	2312.16
273.02	2113.50
273.24	2158.56
273.46	2252.77
273.67	2027.49
273.89	2041.82
274.10	2131.94
274.32	2260.96
274.54	2236.38
274.75	2195.42
274.97	2070.50
275.18	2281.44
275.40	2176.99
275.61	2125.79
275.83	2181.09
276.05	2138.08
276.26	2228.19
276.48	2195.42
276.69	2185.18
276.91	2129.89
277.12	2267.10
277.34	2267.10
277.55	2316.25
277.77	2267.10
277.99	2140.13
278.20	2058.21
278.42	2152.42
278.63	2162.66
278.85	2121.70
279.06	2043.87
279.28	2236.38
279.49	2260.96
279.71	2324.44
279.93	2138.08
280.14	2168.80
280.36	2123.74
280.57	2250.72
280.79	2203.61
281.00	2101.22
281.22	2127.84
281.43	2312.16
281.65	2033.63
281.86	2050.02
282.08	2193.37
282.29	2396.12
282.51	2064.35
282.73	2025.44
282.94	2113.50
283.16	2207.71
283.37	2267.10
283.59	2234.33
283.80	2136.03
284.02	2170.85
284.23	2236.38
284.45	2105.31
284.66	2107.36
284.88	2131.94
285.09	2174.94
285.31	2230.24
285.52	2191.33
285.74	2054.11
285.95	2211.81
286.17	2154.46
286.38	2308.06
286.60	2095.07
286.81	2146.27
287.03	2146.27
287.24	2211.81
287.46	2267.10
287.67	2144.22
287.89	2330.59
288.10	2189.28
288.32	2220.00
288.53	2277.34
288.75	2146.27
288.96	2324.44
289.18	2152.42
289.39	2164.70
289.61	2260.96
289.82	2408.41
290.04	2379.74
290.25	2111.46
290.47	2170.85
290.68	2187.23
290.90	2324.44
291.11	1982.43
291.33	2283.49
291.54	2076.64
291.76	2176.99
291.97	2201.57
292.18	2170.85
292.40	2095.07
292.61	2146.27
292.83	2349.02
293.04	2215.90
293.26	2254.81
293.47	2250.72
293.69	2078.69
293.90	2101.22
294.12	2318.30
294.33	2203.61
294.55	2093.02
294.76	2256.86
294.97	2375.64
295.19	2273.25
295.40	2207.71
295.62	2191.33
295.83	2269.15
296.05	2150.37
296.26	2328.54
296.48	2189.28
296.69	2248.67
296.90	2162.66
297.12	2160.61
297.33	2236.38
297.55	2154.46
297.76	2271.20
297.98	2242.53
298.19	2140.13
298.41	2254.81
298.62	2115.55
298.83	2271.20
299.05	2195.42
299.26	2127.84
299.48	2119.65
299.69	2267.10
299.90	2250.72
300.12	2109.41
300.33	2295.77
300.55	2170.85
300.76	2197.47
300.98	2105.31
301.19	2267.10
301.40	2156.51
301.62	2168.80
301.83	2281.44
302.05	2230.24
302.26	2123.74
302.47	2150.37
302.69	2060.26
302.90	2263.01
303.12	1978.34
303.33	2275.29
303.54	2344.92
303.76	2119.65
303.97	2179.04
304.19	2242.53
304.40	2076.64
304.61	2240.48
304.83	2293.72
305.04	2144.22
305.26	2234.33
305.47	2185.18
305.68	2213.85
305.90	2099.17
306.11	2275.29
306.33	2152.42
306.54	2093.02
306.75	2095.07
306.97	2088.93
307.18	2101.22
307.39	2160.61
307.61	2232.29
307.82	2129.89
308.04	2332.64
308.25	2121.70
308.46	2279.39
308.68	2176.99
308.89	2160.61
309.10	2226.14
309.32	2295.77
309.53	2127.84
309.74	2246.62
309.96	2136.03
310.17	2195.42
310.39	2187.23
310.60	2308.06
310.81	2207.71
311.03	2084.83
311.24	2242.53
311.45	2197.47
311.67	2316.25
311.88	2205.66
312.09	2199.52
312.31	2158.56
312.52	2179.04
312.73	2070.50
312.95	2097.12
313.16	2115.55
313.37	2258.91
313.59	2187.23
313.80	2312.16
314.01	2359.26
314.23	2172.89
314.44	2160.61
314.65	2148.32
314.87	2117.60
315.08	2176.99
315.29	2129.89
315.51	2113.50
315.72	2004.96
315.93	2310.11
316.15	2299.87
316.36	2185.18
316.57	2199.52
316.79	2213.85
317.00	2133.98
317.21	2310.11
317.43	2172.89
317.64	2154.46
317.85	2117.60
318.07	2105.31
318.28	2193.37
318.49	2392.03
318.70	2432.99
318.92	2340.83
319.13	2349.02
319.34	2400.22
319.56	2349.02
319.77	2340.83
319.98	2351.07
320.20	2326.49
320.41	2269.15
320.62	2258.91
320.83	2140.13
321.05	2306.01
321.26	2279.39
321.47	2217.95
321.69	2320.35
321.90	2144.22
322.11	2080.74
322.32	2297.82
322.54	2346.97
322.75	2220.00
322.96	2398.17
323.18	2066.40
323.39	2078.69
323.60	2111.46
323.81	2322.40
324.03	2181.09
324.24	2201.57
324.45	2215.90
324.66	2060.26
324.88	2306.01
325.09	2326.49
325.30	2220.00
325.52	2207.71
325.73	2269.15
325.94	2093.02
326.15	2103.26
326.37	2043.87
326.58	2273.25
326.79	2267.10
327.00	2140.13
327.22	2183.13
327.43	2211.81
327.64	2109.41
327.85	2217.95
328.07	2191.33
328.28	2375.64
328.49	2070.50
328.70	2148.32
328.92	2160.61
329.13	2160.61
329.34	2211.81
329.55	2303.96
329.76	2236.38
329.98	2170.85
330.19	2287.58
330.40	2265.05
330.61	2176.99
330.83	2281.44
331.04	2078.69
331.25	2199.52
331.46	2158.56
331.68	2060.26
331.89	2260.96
332.10	2260.96
332.31	2052.06
332.52	2144.22
332.74	2258.91
332.95	2039.78
333.16	2174.94
333.37	2252.77
333.58	2199.52
333.80	2119.65
334.01	2064.35
334.22	2160.61
334.43	2144.22
334.64	2125.79
334.86	2013.15
335.07	2054.11
335.28	2295.77
335.49	2074.59
335.70	2183.13
335.92	2301.92
336.13	2449.37
336.34	2248.67
336.55	2187.23
336.76	2265.05
336.98	2060.26
337.19	2166.75
337.40	2281.44
337.61	2482.14
337.82	2113.50
338.04	2252.77
338.25	2033.63
338.46	2158.56
338.67	2209.76
338.88	2097.12
339.09	2070.50
339.31	2138.08
339.52	2142.18
339.73	2047.97
339.94	2201.57
340.15	2277.34
340.36	2215.90
340.58	2207.71
340.79	2119.65
341.00	2256.86
341.21	2033.63
341.42	2359.26
341.63	2125.79
341.85	2318.30
342.06	2232.29
342.27	2138.08
342.48	2195.42
342.69	2054.11
342.90	2211.81
343.12	2215.90
343.33	2129.89
343.54	2291.68
343.75	2289.63
343.96	2133.98
344.17	2101.22
344.38	2166.75
344.60	2148.32
344.81	2084.83
345.02	2199.52
345.23	2265.05
345.44	2406.36
345.65	2232.29
345.86	2224.09
346.07	2211.81
346.29	2136.03
346.50	2201.57
346.71	2162.66
346.92	2287.58
347.13	2414.56
347.34	2170.85
347.55	2111.46
347.76	2279.39
347.98	2070.50
348.19	2129.89
348.40	2314.20
348.61	2136.03
348.82	2324.44
349.03	2191.33
349.24	2117.60
349.45	2328.54
349.66	2068.45
349.88	2156.51
350.09	2074.59
350.30	2318.30
350.51	2336.73
350.72	2176.99
350.93	2154.46
351.14	2166.75
351.35	2152.42
351.56	2154.46
351.77	2195.42
351.99	2254.81
352.20	2410.46
352.41	2258.91
352.62	1957.86
352.83	2150.37
353.04	2228.19
353.25	2029.54
353.46	2289.63
353.67	2310.11
353.88	1974.24
354.09	2201.57
354.30	2133.98
354.52	2277.34
354.73	2240.48
354.94	2138.08
355.15	2179.04
355.36	2441.18
355.57	2140.13
355.78	2215.90
355.99	2086.88
356.20	2176.99
356.41	2271.20
356.62	2250.72
356.83	2142.18
357.04	2308.06
357.25	2033.63
357.46	2146.27
357.68	2009.06
357.89	2185.18
358.10	2170.85
358.31	2164.70
358.52	2220.00
358.73	2136.03
358.94	2029.54
359.15	2117.60
359.36	2207.71
359.57	2162.66
359.78	2234.33
359.99	2271.20
360.20	2162.66
360.41	2187.23
360.62	2217.95
360.83	2195.42
361.04	2195.42
361.25	2271.20
361.46	2375.64
361.67	2303.96
361.88	2179.04
362.09	2236.38
362.30	2256.86
362.51	2086.88
362.72	2162.66
362.93	2269.15
363.14	2301.92
363.35	2156.51
363.56	2093.02
363.78	2340.83
363.99	2301.92
364.20	2205.66
364.41	2217.95
364.62	2324.44
364.83	2211.81
365.04	2166.75
365.25	2226.14
365.46	2424.80
365.67	2146.27
365.88	2222.05
366.09	2152.42
366.30	2136.03
366.51	2170.85
366.72	2072.54
366.93	2170.85
367.14	2248.67
367.35	2314.20
367.56	2236.38
367.77	2306.01
367.98	2205.66
368.18	2162.66
368.39	2195.42
368.60	2113.50
368.81	2252.77
369.02	2211.81
369.23	2181.09
369.44	2064.35
369.65	2138.08
369.86	2258.91
370.07	2224.09
370.28	2191.33
370.49	2207.71
370.70	2267.10
370.91	2070.50
371.12	2029.54
371.33	2346.97
371.54	2199.52
371.75	2322.40
371.96	2031.58
372.17	2158.56
372.38	2174.94
372.59	2234.33
372.80	2152.42
373.01	2168.80
373.22	2303.96
373.43	2103.26
373.64	2041.82
373.85	2291.68
374.06	2334.68
374.26	2226.14
374.47	2242.53
374.68	2416.60
374.89	2189.28
375.10	2142.18
375.31	2240.48
375.52	2244.57
375.73	2215.90
375.94	2050.02
376.15	2279.39
376.36	2125.79
376.57	2113.50
376.78	2168.80
376.99	2220.00
377.20	2351.07
377.40	2174.94
377.61	2336.73
377.82	2154.46
378.03	2230.24
378.24	2291.68
378.45	2267.10
378.66	2164.70
378.87	2082.78
379.08	2152.42
379.29	2164.70
379.50	2316.25
379.71	2150.37
379.91	2220.00
380.12	2125.79
380.33	2133.98
380.54	2220.00
380.75	2152.42
380.96	2162.66
381.17	2250.72
381.38	2265.05
381.59	2248.67
381.80	2236.38
382.00	2379.74
382.21	2275.29
382.42	2469.85
382.63	2449.37
382.84	2191.33
383.05	2373.60
383.26	2359.26
383.47	2281.44
383.68	2183.13
383.88	2277.34
384.09	2226.14
384.30	2396.12
384.51	2320.35
384.72	2129.89
384.93	2074.59
385.14	2209.76
385.35	2256.86
385.55	2097.12
385.76	2328.54
385.97	2090.98
386.18	2064.35
386.39	2097.12
386.60	2125.79
386.81	2203.61
387.02	2050.02
387.22	2037.73
387.43	2279.39
387.64	2236.38
387.85	2330.59
388.06	2469.85
388.27	4024.26
388.48	8669.05
388.68	12302.15
388.89	14692.13
389.10	15556.37
389.31	14450.47
389.52	11511.63
389.73	9893.74
389.93	8871.80
390.14	8112.00
390.35	7413.65
390.56	6600.60
390.77	5545.90
390.98	4016.07
391.18	3334.09
391.39	2678.74
391.60	2400.22
391.81	2277.34
392.02	2121.70
392.23	2430.94
392.43	2238.43
392.64	2367.45
392.85	2295.77
393.06	2367.45
393.27	2203.61
393.47	2123.74
393.68	2195.42
393.89	2158.56
394.10	2318.30
394.31	2193.37
394.52	2211.81
394.72	2095.07
394.93	2379.74
395.14	2052.06
395.35	2183.13
395.56	2121.70
395.76	2181.09
395.97	2228.19
396.18	2365.40
396.39	2324.44
396.60	2631.64
396.80	2496.47
397.01	2394.08
397.22	2396.12
397.43	2312.16
397.64	2244.57
397.84	2338.78
398.05	2400.22
398.26	2256.86
398.47	2295.77
398.67	2312.16
398.88	2201.57
399.09	2291.68
399.30	2160.61
399.51	2230.24
399.71	2103.26
399.92	2226.14
400.13	2297.82
400.34	2117.60
400.54	2226.14
400.75	2316.25
400.96	2228.19
401.17	2475.99
401.37	2285.53
401.58	2170.85
401.79	2181.09
402.00	2320.35
402.21	2623.45
402.41	2535.39
402.62	2584.54
402.83	2658.26
403.04	2662.36
403.24	2740.18
403.45	2412.51
403.66	2496.47
403.87	2414.56
404.07	2439.13
404.28	2562.01
404.49	2455.51
404.70	2340.83
404.90	2295.77
405.11	2312.16
405.32	2318.30
405.52	2291.68
405.73	2121.70
405.94	2187.23
406.15	2179.04
406.35	2389.98
406.56	2148.32
406.77	2197.47
406.98	2187.23
407.18	2105.31
407.39	2314.20
407.60	2179.04
407.80	2285.53
408.01	2107.36
408.22	2269.15
408.43	2160.61
408.63	2160.61
408.84	2310.11
409.05	2191.33
409.25	2152.42
409.46	2181.09
409.67	2215.90
409.88	2117.60
410.08	2285.53
410.29	2162.66
410.50	2267.10
410.70	2244.57
410.91	2136.03
411.12	2228.19
411.32	2283.49
411.53	2185.18
411.74	2207.71
411.95	2258.91
412.15	2310.11
412.36	2254.81
412.57	2301.92
412.77	2326.49
412.98	2187.23
413.19	2220.00
413.39	2246.62
413.60	2273.25
413.81	2318.30
414.01	2195.42
414.22	2207.71
414.43	2297.82
414.63	2228.19
414.84	2349.02
415.05	2207.71
415.25	2031.58
415.46	2318.30
415.67	2146.27
415.87	2322.40
416.08	2211.81
416.29	2176.99
416.49	2332.64
416.70	2107.36
416.91	2205.66
417.11	2146.27
417.32	2234.33
417.53	2265.05
417.73	2289.63
417.94	2185.18
418.15	2199.52
418.35	2263.01
418.56	2224.09
418.77	2359.26
418.97	2242.53
419.18	2136.03
419.38	1984.48
419.59	2068.45
419.80	2314.20
420.00	2158.56
420.21	2107.36
420.42	2330.59
420.62	2310.11
420.83	2113.50
421.04	2162.66
421.24	2117.60
421.45	2258.91
421.65	2238.43
421.86	2121.70
422.07	2271.20
422.27	2222.05
422.48	2299.87
422.69	2086.88
422.89	2176.99
423.10	2203.61
423.30	2103.26
423.51	2215.90
423.72	2224.09
423.92	2258.91
424.13	2025.44
424.33	2176.99
424.54	2332.64
424.75	2187.23
424.95	2306.01
425.16	2195.42
425.36	2220.00
425.57	2295.77
425.78	2207.71
425.98	2238.43
426.19	2248.67
426.39	2078.69
426.60	2185.18
426.81	2316.25
427.01	2207.71
427.22	2119.65
427.42	2107.36
427.63	2129.89
427.83	2260.96
428.04	2428.89
428.25	2338.78
428.45	2334.68
428.66	2310.11
428.86	2133.98
429.07	2224.09
429.28	2232.29
429.48	2220.00
429.69	2181.09
429.89	2242.53
430.10	2025.44
430.30	2285.53
430.51	2285.53
430.71	2039.78
430.92	2158.56
431.13	2162.66
431.33	2228.19
431.54	2277.34
431.74	2275.29
431.95	2326.49
432.15	2121.70
432.36	2160.61
432.56	2195.42
432.77	2432.99
432.98	2295.77
433.18	2207.71
433.39	2123.74
433.59	2136.03
433.80	2445.27
434.00	2412.51
434.21	2166.75
434.41	2103.26
434.62	2502.62
434.82	2105.31
435.03	2066.40
435.23	2240.48
435.44	2027.49
435.64	2103.26
435.85	2168.80
436.06	2260.96
436.26	2297.82
436.47	2211.81
436.67	2127.84
436.88	2193.37
437.08	2269.15
437.29	2281.44
437.49	2234.33
437.70	2332.64
437.90	2164.70
438.11	2389.98
438.31	2312.16
438.52	2428.89
438.72	2420.70
438.93	2492.38
439.13	2373.60
439.34	2412.51
439.54	2228.19
439.75	2295.77
439.95	2224.09
440.16	2140.13
440.36	2220.00
440.57	2211.81
440.77	2215.90
440.98	2133.98
441.18	2338.78
441.39	2121.70
441.59	2131.94
441.80	2416.60
442.00	2154.46
442.21	2295.77
442.41	2111.46
442.62	2375.64
442.82	2117.60
443.02	2240.48
443.23	2242.53
443.43	2228.19
443.64	2373.60
443.84	2154.46
444.05	2396.12
444.25	2226.14
444.46	2234.33
444.66	2238.43
444.87	2330.59
445.07	2097.12
445.28	2166.75
445.48	2283.49
445.69	2269.15
445.89	2527.19
446.09	2258.91
446.30	2449.37
446.50	2731.99
446.71	4472.76
446.91	5511.08
447.12	6352.80
447.32	6764.44
447.53	6195.11
447.73	5158.83
447.93	4587.45
448.14	4237.25
448.34	4159.42
448.55	3536.84
448.75	3663.82
448.96	3469.26
449.16	3053.52
449.36	2863.06
449.57	2562.01
449.77	2365.40
449.98	2176.99
450.18	2338.78
450.39	2269.15
450.59	2281.44
450.79	2183.13
451.00	2113.50
451.20	2256.86
451.41	2172.89
451.61	2250.72
451.81	2142.18
452.02	2121.70
452.22	2123.74
452.43	2160.61
452.63	2121.70
452.84	2252.77
453.04	2228.19
453.24	2215.90
453.45	2148.32
453.65	2176.99
453.86	2269.15
454.06	2217.95
454.26	2269.15
454.47	2127.84
454.67	2226.14
454.87	2244.57
455.08	2150.37
455.28	2383.84
455.49	2322.40
455.69	2121.70
455.89	2351.07
456.10	2269.15
456.30	2170.85
456.51	2263.01
456.71	2160.61
456.91	2265.05
457.12	2234.33
457.32	2199.52
457.52	2142.18
457.73	2318.30
457.93	2252.77
458.14	2148.32
458.34	2127.84
458.54	2228.19
458.75	2172.89
458.95	2320.35
459.15	2260.96
459.36	2228.19
459.56	2260.96
459.76	2400.22
459.97	2232.29
460.17	2281.44
460.37	2330.59
460.58	2258.91
460.78	2258.91
460.99	2148.32
461.19	2222.05
461.39	2179.04
461.60	2226.14
461.80	2353.12
462.00	2095.07
462.21	2236.38
462.41	2136.03
462.61	2062.30
462.82	2107.36
463.02	2297.82
463.22	2181.09
463.43	2285.53
463.63	2191.33
463.83	2363.36
464.04	2236.38
464.24	2160.61
464.44	2119.65
464.64	2269.15
464.85	2185.18
465.05	2195.42
465.25	2146.27
465.46	2095.07
465.66	2203.61
465.86	2193.37
466.07	2271.20
466.27	2199.52
466.47	2088.93
466.68	2011.11
466.88	2285.53
467.08	2275.29
467.29	2369.50
467.49	2244.57
467.69	2232.29
467.89	2217.95
468.10	2115.55
468.30	2207.71
468.50	2281.44
468.71	2269.15
468.91	2072.54
469.11	2371.55
469.31	2152.42
469.52	2166.75
469.72	2379.74
469.92	2295.77
470.13	2156.51
470.33	2193.37
470.53	2312.16
470.73	2678.74
470.94	3041.23
471.14	3239.89
471.34	3629.00
471.54	3370.96
471.75	3051.47
471.95	2809.81
472.15	2695.13
472.36	2815.96
472.56	2658.26
472.76	2674.65
472.96	2629.59
473.17	2559.96
473.37	2461.66
473.57	2310.11
473.77	2398.17
473.98	2228.19
474.18	2101.22
474.38	2502.62
474.58	2168.80
474.79	2093.02
474.99	2256.86
475.19	2265.05
475.39	2111.46
475.60	2228.19
475.80	2240.48
476.00	2248.67
476.20	2209.76
476.41	2203.61
476.61	2291.68
476.81	2301.92
477.01	2105.31
477.21	2312.16
477.42	2349.02
477.62	2133.98
477.82	2279.39
478.02	2156.51
478.23	2277.34
478.43	2119.65
478.63	2203.61
478.83	2203.61
479.03	2211.81
479.24	2383.84
479.44	2439.13
479.64	2179.04
479.84	2088.93
480.04	2088.93
480.25	2224.09
480.45	2123.74
480.65	2181.09
480.85	2281.44
481.06	2207.71
481.26	2308.06
481.46	2252.77
481.66	2324.44
481.86	2166.75
482.06	2324.44
482.27	2129.89
482.47	2158.56
482.67	2240.48
482.87	2127.84
483.07	2265.05
483.28	2136.03
483.48	2074.59
483.68	2154.46
483.88	2080.74
484.08	2054.11
484.29	2084.83
484.49	2133.98
484.69	2041.82
484.89	2273.25
485.09	2275.29
485.29	2211.81
485.50	2203.61
485.70	2273.25
485.90	2381.79
486.10	2174.94
486.30	2203.61
486.50	2342.88
486.71	2269.15
486.91	2285.53
487.11	2252.77
487.31	2144.22
487.51	2217.95
487.71	2097.12
487.91	2131.94
488.12	2029.54
488.32	2023.39
488.52	2090.98
488.72	2011.11
488.92	2256.86
489.12	2295.77
489.32	2334.68
489.53	2224.09
489.73	2109.41
489.93	2377.69
490.13	2146.27
490.33	2115.55
490.53	2228.19
490.73	2377.69
490.94	2078.69
491.14	2275.29
491.34	2338.78
491.54	2600.92
491.74	3141.58
491.94	3751.88
492.14	4016.07
492.34	4134.85
492.54	3735.50
492.75	3145.68
492.95	3092.43
493.15	2990.03
493.35	2932.69
493.55	2799.57
493.75	2723.80
493.95	2697.17
494.15	2564.06
494.35	2385.88
494.56	2359.26
494.76	2271.20
494.96	2224.09
495.16	2248.67
495.36	2217.95
495.56	2193.37
495.76	2181.09
495.96	2174.94
496.16	2224.09
496.36	2525.15
496.56	2199.52
496.77	2279.39
496.97	2183.13
497.17	2332.64
497.37	2103.26
497.57	2232.29
497.77	2183.13
497.97	2113.50
498.17	2179.04
498.37	2193.37
498.57	2283.49
498.77	2144.22
498.97	2297.82
499.17	2351.07
499.38	2174.94
499.58	2287.58
499.78	2310.11
499.98	2318.30
500.18	2215.90
500.38	2168.80
500.58	2351.07
500.78	2844.63
500.98	5341.10
501.18	7292.82
501.38	8990.58
501.58	9897.83
501.78	9787.24
501.98	7669.64
502.18	6553.50
502.38	5449.64
502.58	5181.36
502.78	4560.83
502.98	4462.52
503.18	4276.16
503.38	3878.85
503.59	3452.88
503.79	3160.02
503.99	2996.18
504.19	2805.72
504.39	2805.72
504.59	2832.34
504.79	2779.09
504.99	2842.58
505.19	2594.78
505.39	2490.33
505.59	2559.96
505.79	2492.38
505.99	2459.61
506.19	2293.72
506.39	2406.36
506.59	2217.95
506.79	2265.05
506.99	2381.79
507.19	2234.33
507.39	2285.53
507.59	2086.88
507.79	2203.61
507.99	2166.75
508.19	2203.61
508.39	2220.00
508.59	2213.85
508.79	2320.35
508.99	2418.65
509.19	2150.37
509.39	2254.81
509.59	2115.55
509.79	2115.55
509.99	2308.06
510.19	2332.64
510.39	2242.53
510.59	2254.81
510.79	2148.32
510.99	2154.46
511.19	2199.52
511.39	2416.60
511.59	2367.45
511.79	2340.83
511.99	2246.62
512.19	2381.79
512.38	2293.72
512.58	2127.84
512.78	2224.09
512.98	2357.21
513.18	2367.45
513.38	2138.08
513.58	2310.11
513.78	2224.09
513.98	2220.00
514.18	2195.42
514.38	2166.75
514.58	2299.87
514.78	2164.70
514.98	2142.18
515.18	2197.47
515.38	2086.88
515.58	2349.02
515.78	2144.22
515.98	2201.57
516.18	2275.29
516.38	2140.13
516.57	2062.30
516.77	2146.27
516.97	2209.76
517.17	2123.74
517.37	2023.39
517.57	2322.40
517.77	2217.95
517.97	2146.27
518.17	2293.72
518.37	2103.26
518.57	2172.89
518.77	2215.90
518.97	2162.66
519.16	2240.48
519.36	2373.60
519.56	2154.46
519.76	2187.23
519.96	2232.29
520.16	2297.82
520.36	2127.84
520.56	2336.73
520.76	2115.55
520.96	2250.72
521.16	2232.29
521.35	2265.05
521.55	2320.35
521.75	2207.71
521.95	2170.85
522.15	2109.41
522.35	2068.45
522.55	2168.80
522.75	2297.82
522.95	2174.94
523.14	2103.26
523.34	2211.81
523.54	2240.48
523.74	2162.66
523.94	2226.14
524.14	2113.50
524.34	2201.57
524.54	2310.11
524.73	2168.80
524.93	2320.35
525.13	2246.62
525.33	2060.26
525.53	2500.57
525.73	2269.15
525.93	2265.05
526.13	2244.57
526.32	2256.86
526.52	2310.11
526.72	2310.11
526.92	2232.29
527.12	2203.61
527.32	2060.26
527.52	2265.05
527.71	2275.29
527.91	2189.28
528.11	2146.27
528.31	2211.81
528.51	2054.11
528.71	2250.72
528.90	2287.58
529.10	2336.73
529.30	2334.68
529.50	1992.67
529.70	2238.43
529.90	2172.89
530.09	2152.42
530.29	2082.78
530.49	1992.67
530.69	2521.05
530.89	2222.05
531.09	2283.49
531.28	2146.27
531.48	2287.58
531.68	2211.81
531.88	2207.71
532.08	2349.02
532.28	2183.13
532.47	2185.18
532.67	2303.96
532.87	2322.40
533.07	2166.75
533.27	2303.96
533.46	2244.57
533.66	2187.23
533.86	2211.81
534.06	2234.33
534.26	2324.44
534.45	2187.23
534.65	2371.55
534.85	2220.00
535.05	2226.14
535.25	2365.40
535.44	2125.79
535.64	2281.44
535.84	2207.71
536.04	2211.81
536.24	2209.76
536.43	2088.93
536.63	2252.77
536.83	2207.71
537.03	2148.32
537.22	2007.01
537.42	2017.25
537.62	2244.57
537.82	2170.85
538.02	2371.55
538.21	2344.92
538.41	2508.76
538.61	2250.72
538.81	2236.38
539.00	2351.07
539.20	2095.07
539.40	2189.28
539.60	2295.77
539.79	2373.60
539.99	2125.79
540.19	2131.94
540.39	2191.33
540.58	2140.13
540.78	2320.35
540.98	2228.19
541.18	2322.40
541.37	2328.54
541.57	2234.33
541.77	2224.09
541.97	2088.93
542.16	2060.26
542.36	2176.99
542.56	2162.66
542.76	2334.68
542.95	2336.73
543.15	2295.77
543.35	2260.96
543.54	2136.03
543.74	2138.08
543.94	2285.53
544.14	2129.89
544.33	2273.25
544.53	2176.99
544.73	2179.04
544.93	2195.42
545.12	2146.27
545.32	2185.18
545.52	2215.90
545.71	2152.42
545.91	2152.42
546.11	2164.70
546.30	2125.79
546.50	2160.61
546.70	2273.25
546.90	2252.77
547.09	2023.39
547.29	2230.24
547.49	2283.49
547.68	2183.13
547.88	2054.11
548.08	2303.96
548.27	2666.46
548.47	2170.85
548.67	2146.27
548.87	2293.72
549.06	2148.32
549.26	2260.96
549.46	2230.24
549.65	2191.33
549.85	2236.38
550.05	2224.09
550.24	2136.03
550.44	2252.77
550.64	2176.99
550.83	2215.90
551.03	2338.78
551.23	2336.73
551.42	2201.57
551.62	2199.52
551.82	2240.48
552.01	2166.75
552.21	2314.20
552.41	2166.75
552.60	2271.20
552.80	2242.53
553.00	2156.51
553.19	2246.62
553.39	2377.69
553.59	2105.31
553.78	2265.05
553.98	2203.61
554.17	2097.12
554.37	2269.15
554.57	2271.20
554.76	2054.11
554.96	2211.81
555.16	2160.61
555.35	2244.57
555.55	2252.77
555.75	2244.57
555.94	2240.48
556.14	2064.35
556.33	2166.75
556.53	2179.04
556.73	2199.52
556.92	2230.24
557.12	2332.64
557.32	2420.70
557.51	2357.21
557.71	2176.99
557.90	2320.35
558.10	2400.22
558.30	2109.41
558.49	2193.37
558.69	2179.04
558.88	2301.92
559.08	2265.05
559.28	2179.04
559.47	2117.60
559.67	2265.05
559.86	2424.80
560.06	2258.91
560.26	2136.03
560.45	2263.01
560.65	2209.76
560.84	2267.10
561.04	2119.65
561.24	2314.20
561.43	2125.79
561.63	2336.73
561.82	2129.89
562.02	2256.86
562.22	2138.08
562.41	2127.84
562.61	2236.38
562.80	2187.23
563.00	2430.94
563.19	2234.33
563.39	2252.77
563.59	2324.44
563.78	2150.37
563.98	2037.73
564.17	2082.78
564.37	2084.83
564.56	2193.37
564.76	2062.30
564.96	2330.59
565.15	2250.72
565.35	2408.41
565.54	2176.99
565.74	2232.29
565.93	2306.01
566.13	2193.37
566.32	2316.25
566.52	2185.18
566.71	2269.15
566.91	2318.30
567.11	2277.34
567.30	2150.37
567.50	2299.87
567.69	2181.09
567.89	2133.98
568.08	2121.70
568.28	2277.34
568.47	2056.16
568.67	2213.85
568.86	2068.45
569.06	2383.84
569.25	2234.33
569.45	2097.12
569.64	2172.89
569.84	2144.22
570.04	2293.72
570.23	2142.18
570.43	2224.09
570.62	2312.16
570.82	2332.64
571.01	2138.08
571.21	2189.28
571.40	2103.26
571.60	2326.49
571.79	2263.01
571.99	2179.04
572.18	2140.13
572.38	2283.49
572.57	2138.08
572.77	2320.35
572.96	2408.41
573.16	2226.14
573.35	2191.33
573.55	2328.54
573.74	2326.49
573.94	2187.23
574.13	2217.95
574.33	2267.10
574.52	2269.15
574.71	2230.24
574.91	2211.81
575.10	2176.99
575.30	2101.22
575.49	2138.08
575.69	2211.81
575.88	2252.77
576.08	2326.49
576.27	2471.90
576.47	2301.92
576.66	2353.12
576.86	2428.89
577.05	2342.88
577.25	2271.20
577.44	2385.88
577.64	2228.19
577.83	2353.12
578.02	2240.48
578.22	2392.03
578.41	2416.60
578.61	2203.61
578.80	2119.65
579.00	2224.09
579.19	2314.20
579.39	2283.49
579.58	2332.64
579.77	2211.81
579.97	2363.36
580.16	2336.73
580.36	2306.01
580.55	2340.83
580.75	2256.86
580.94	2265.05
581.13	2394.08
581.33	2361.31
581.52	2248.67
581.72	2428.89
581.91	2410.46
582.11	2228.19
582.30	2312.16
582.49	2230.24
582.69	2406.36
582.88	2314.20
583.08	2191.33
583.27	2336.73
583.47	2248.67
583.66	2140.13
583.85	2174.94
584.05	2293.72
584.24	2295.77
584.44	2303.96
584.63	2402.27
584.82	2426.84
585.02	2447.32
585.21	2381.79
585.41	2402.27
585.60	2269.15
585.79	2506.71
585.99	2490.33
586.18	2338.78
586.37	2852.82
586.57	4480.96
586.76	13563.70
586.96	32296.47
587.15	46351.68
587.34	55542.96
587.54	60540.00
587.73	56050.86
587.93	39200.17
588.12	29830.71
588.31	23936.66
588.51	20983.49
588.70	19193.56
588.89	17407.73
589.09	15157.02
589.28	13268.79
589.47	10467.17
589.67	8284.03
589.86	6457.25
590.06	4769.72
590.25	3727.30
590.44	3280.85
590.64	2807.77
590.83	2529.24
591.02	2414.56
591.22	2414.56
591.41	2342.88
591.60	2260.96
591.80	2455.51
591.99	2201.57
592.18	2217.95
592.38	2373.60
592.57	2203.61
592.76	2293.72
592.96	2174.94
593.15	2195.42
593.34	2336.73
593.54	2289.63
593.73	2344.92
593.92	2379.74
594.12	2279.39
594.31	2248.67
594.50	2441.18
594.70	2349.02
594.89	2551.77
595.08	2119.65
595.28	2318.30
595.47	2488.28
595.66	2291.68
595.86	2201.57
596.05	2199.52
596.24	2191.33
596.43	2478.04
596.63	2330.59
596.82	2293.72
597.01	2326.49
597.21	2392.03
597.40	2285.53
597.59	2273.25
597.79	2269.15
597.98	2332.64
598.17	2252.77
598.36	2240.48
598.56	2387.93
598.75	2220.00
598.94	2285.53
599.14	2242.53
599.33	2201.57
599.52	2269.15
599.71	2340.83
599.91	2232.29
600.10	2244.57
600.29	2195.42
600.48	2293.72
600.68	2258.91
600.87	2271.20
601.06	2195.42
601.26	2260.96
601.45	2236.38
601.64	2201.57
601.83	2326.49
602.03	2187.23
602.22	2101.22
602.41	2406.36
602.60	2445.27
602.80	2314.20
602.99	2228.19
603.18	2269.15
603.37	2256.86
603.57	2326.49
603.76	2240.48
603.95	2306.01
604.14	2136.03
604.34	2160.61
604.53	2217.95
604.72	2205.66
604.91	2342.88
605.10	2260.96
605.30	2072.54
605.49	2453.47
605.68	2232.29
605.87	2193.37
606.07	2115.55
606.26	2273.25
606.45	2277.34
606.64	2220.00
606.84	2209.76
607.03	2299.87
607.22	2332.64
607.41	2228.19
607.60	2185.18
607.80	2359.26
607.99	2183.13
608.18	2211.81
608.37	2246.62
608.56	2224.09
608.76	2324.44
608.95	2441.18
609.14	2340.83
609.33	2402.27
609.52	2457.56
609.72	2275.29
609.91	2355.16
610.10	2285.53
610.29	2344.92
610.48	2322.40
610.68	2314.20
610.87	2242.53
611.06	2306.01
611.25	2181.09
611.44	2283.49
611.63	2207.71
611.83	2328.54
612.02	2056.16
612.21	2301.92
612.40	2074.59
612.59	2158.56
612.79	2140.13
612.98	2263.01
613.17	2389.98
613.36	2351.07
613.55	2402.27
613.74	2355.16
613.93	2400.22
614.13	2432.99
614.32	2553.82
614.51	2402.27
614.70	2265.05
614.89	2279.39
615.08	2412.51
615.28	2815.96
615.47	2193.37
615.66	2332.64
615.85	2269.15
616.04	2416.60
616.23	2289.63
616.42	2228.19
616.62	2269.15
616.81	2293.72
617.00	2209.76
617.19	2379.74
617.38	2185.18
617.57	2181.09
617.76	2299.87
617.95	2269.15
618.15	2277.34
618.34	2408.41
618.53	2105.31
618.72	2285.53
618.91	2402.27
619.10	2351.07
619.29	2299.87
619.48	2160.61
619.68	2195.42
619.87	2283.49
620.06	2101.22
620.25	2201.57
620.44	2113.50
620.63	2185.18
620.82	2181.09
621.01	2211.81
621.20	2197.47
621.39	2324.44
621.59	2287.58
621.78	2256.86
621.97	2217.95
622.16	2256.86
622.35	2224.09
622.54	2355.16
622.73	2363.36
622.92	2050.02
623.11	2344.92
623.30	2203.61
623.49	2340.83
623.68	2164.70
623.88	2334.68
624.07	2136.03
624.26	2080.74
624.45	2275.29
624.64	2144.22
624.83	2205.66
625.02	2250.72
625.21	2244.57
625.40	2240.48
625.59	2295.77
625.78	2242.53
625.97	2318.30
626.16	2404.32
626.35	2330.59
626.54	2310.11
626.74	2361.31
626.93	2220.00
627.12	2181.09
627.31	2369.50
627.50	2260.96
627.69	2297.82
627.88	2213.85
628.07	2136.03
628.26	2103.26
628.45	2136.03
628.64	2144.22
628.83	2228.19
629.02	2088.93
629.21	2263.01
629.40	2203.61
629.59	2160.61
629.78	2146.27
629.97	2211.81
630.16	2185.18
630.35	2220.00
630.54	2265.05
630.73	2138.08
630.92	2207.71
631.11	2088.93
631.30	2217.95
631.49	2324.44
631.68	2101.22
631.87	2203.61
632.06	2125.79
632.25	2392.03
632.44	2318.30
632.63	2260.96
632.82	2246.62
633.01	2240.48
633.20	2326.49
633.39	2279.39
633.58	2084.83
633.77	2310.11
633.96	2306.01
634.15	2306.01
634.34	2308.06
634.53	2273.25
634.72	2199.52
634.91	2043.87
635.10	2224.09
635.29	2293.72
635.48	2209.76
635.67	2088.93
635.86	2054.11
636.05	2236.38
636.24	2174.94
636.43	2203.61
636.62	2306.01
636.81	2000.87
637.00	2256.86
637.19	2217.95
637.38	2215.90
637.57	2185.18
637.76	2263.01
637.95	2389.98
638.14	2330.59
638.33	2328.54
638.52	2312.16
638.71	2154.46
638.89	2148.32
639.08	2471.90
639.27	2453.47
639.46	2469.85
639.65	2775.00
639.84	2949.08
640.03	3137.49
640.22	2916.31
640.41	2996.18
640.60	2529.24
640.79	2580.44
640.98	2451.42
641.17	2422.75
641.36	2494.43
641.55	2443.23
641.74	2256.86
641.92	2152.42
642.11	2209.76
642.30	2260.96
642.49	2062.30
642.68	2174.94
642.87	2193.37
643.06	2248.67
643.25	2160.61
643.44	2152.42
643.63	2236.38
643.82	2263.01
644.00	2093.02
644.19	2170.85
644.38	2039.78
644.57	2271.20
644.76	2242.53
644.95	2183.13
645.14	2207.71
645.33	2289.63
645.52	2215.90
645.71	2148.32
645.89	2127.84
646.08	2176.99
646.27	2138.08
646.46	2314.20
646.65	2133.98
646.84	2250.72
647.03	2107.36
647.22	2301.92
647.40	2256.86
647.59	2176.99
647.78	2031.58
647.97	2170.85
648.16	2195.42
648.35	2340.83
648.54	2379.74
648.73	2140.13
648.91	2256.86
649.10	2283.49
649.29	2119.65
649.48	2166.75
649.67	2187.23
649.86	2222.05
650.05	2267.10
650.23	2447.32
650.42	2228.19
650.61	2455.51
650.80	2471.90
650.99	2514.91
651.18	2367.45
651.36	2361.31
651.55	2283.49
651.74	2308.06
651.93	2179.04
652.12	2250.72
652.31	2203.61
652.49	2277.34
652.68	2256.86
652.87	2355.16
653.06	2240.48
653.25	2363.36
653.44	2232.29
653.62	2377.69
653.81	2195.42
654.00	2168.80
654.19	2357.21
654.38	2424.80
654.56	2258.91
654.75	2244.57
654.94	2289.63
655.13	2189.28
655.32	2174.94
655.51	2314.20
655.69	2179.04
655.88	2244.57
656.07	2105.31
656.26	2238.43
656.45	2113.50
656.63	2179.04
656.82	2174.94
657.01	2232.29
657.20	2142.18
657.38	2318.30
657.57	2170.85
657.76	2019.30
657.95	2248.67
658.14	2019.30
658.32	2260.96
658.51	1998.82
658.70	2205.66
658.89	2205.66
659.08	2203.61
659.26	2363.36
659.45	2136.03
659.64	2283.49
659.83	2185.18
660.01	2584.54
660.20	2226.14
660.39	2459.61
660.58	2035.68
660.76	2275.29
660.95	2080.74
661.14	2254.81
661.33	2093.02
661.51	2019.30
661.70	2121.70
661.89	2250.72
662.08	2199.52
662.26	2111.46
662.45	2086.88
662.64	2359.26
662.83	2318.30
663.01	2074.59
663.20	2176.99
663.39	2285.53
663.58	2140.13
663.76	2205.66
663.95	2314.20
664.14	2127.84
664.32	2152.42
664.51	2121.70
664.70	2078.69
664.89	2193.37
665.07	1998.82
665.26	2252.77
665.45	2047.97
665.64	2312.16
665.82	2217.95
666.01	2367.45
666.20	2090.98
666.38	2291.68
666.57	2293.72
666.76	3313.61
666.95	7999.37
667.13	16226.06
667.32	21833.39
667.51	25685.62
667.69	27559.52
667.88	25165.44
668.07	18196.20
668.25	14436.13
668.44	11960.14
668.63	10301.28
668.81	8869.75
669.00	7630.73
669.19	7147.41
669.38	6209.44
669.56	5341.10
669.75	4417.47
669.94	3719.11
670.12	3203.02
670.31	2815.96
670.50	2539.48
670.68	2410.46
670.87	2394.08
671.06	2357.21
671.24	2275.29
671.43	2422.75
671.62	2263.01
671.80	2238.43
671.99	2277.34
672.18	2256.86
672.36	2383.84
672.55	2168.80
672.74	2275.29
672.92	2211.81
673.11	2273.25
673.29	2207.71
673.48	2213.85
673.67	2195.42
673.85	2349.02
674.04	2168.80
674.23	2185.18
674.41	2398.17
674.60	2125.79
674.79	2076.64
674.97	2078.69
675.16	2154.46
675.34	2328.54
675.53	2166.75
675.72	2183.13
675.90	2351.07
676.09	2203.61
676.28	2193.37
676.46	2056.16
676.65	2285.53
676.83	2160.61
677.02	2236.38
677.21	2166.75
677.39	2226.14
677.58	2105.31
677.77	2195.42
677.95	2199.52
678.14	2213.85
678.32	2103.26
678.51	2193.37
678.70	2355.16
678.88	2144.22
679.07	2213.85
679.25	2179.04
679.44	2158.56
679.63	2037.73
679.81	2281.44
680.00	2383.84
680.18	2260.96
680.37	2340.83
680.55	2213.85
680.74	2066.40
680.93	2068.45
681.11	2193.37
681.30	2152.42
681.48	2220.00
681.67	2125.79
681.85	2250.72
682.04	2136.03
682.23	2217.95
682.41	2199.52
682.60	2158.56
682.78	2209.76
682.97	2064.35
683.15	2168.80
683.34	2174.94
683.53	2338.78
683.71	2119.65
683.90	2289.63
684.08	2359.26
684.27	2152.42
684.45	2211.81
684.64	2340.83
684.82	2242.53
685.01	2248.67
685.19	2152.42
685.38	2336.73
685.57	2172.89
685.75	2115.55
685.94	2160.61
686.12	2185.18
686.31	2170.85
686.49	2387.93
686.68	2107.36
686.86	2263.01
687.05	2168.80
687.23	2344.92
687.42	2172.89
687.60	2047.97
687.79	2310.11
687.97	2344.92
688.16	2254.81
688.34	2306.01
688.53	2062.30
688.71	2193.37
688.90	2277.34
689.08	2111.46
689.27	2021.35
689.45	2293.72
689.64	2273.25
689.82	2240.48
690.01	2185.18
690.19	2207.71
690.38	2197.47
690.56	2322.40
690.75	2045.92
690.93	2205.66
691.12	2088.93
691.30	2209.76
691.49	2140.13
691.67	2187.23
691.86	2359.26
692.04	2154.46
692.23	2170.85
692.41	2193.37
692.60	2496.47
692.78	2340.83
692.97	2269.15
693.15	2299.87
693.34	2404.32
693.52	2351.07
693.71	2220.00
693.89	2156.51
694.08	2119.65
694.26	2385.88
694.44	2238.43
694.63	2308.06
694.81	2170.85
695.00	2142.18
695.18	2355.16
695.37	2387.93
695.55	2260.96
695.74	2125.79
695.92	2080.74
696.10	2355.16
696.29	2084.83
696.47	2164.70
696.66	2113.50
696.84	2142.18
697.03	2168.80
697.21	2435.03
697.40	3100.62
697.58	2283.49
697.76	2156.51
697.95	2113.50
698.13	2121.70
698.32	2187.23
698.50	2166.75
698.68	2166.75
698.87	2189.28
699.05	2260.96
699.24	2179.04
699.42	2148.32
699.61	2191.33
699.79	2103.26
699.97	2170.85
700.16	2146.27
700.34	2070.50
700.53	2148.32
700.71	2357.21
700.89	2263.01
701.08	2086.88
701.26	2187.23
701.45	2715.61
701.63	2148.32
701.81	2174.94
702.00	2209.76
702.18	2199.52
702.37	2170.85
702.55	2570.20
702.73	2387.93
702.92	2324.44
703.10	2602.97
703.28	2500.57
703.47	2228.19
703.65	2359.26
703.84	2461.66
704.02	2220.00
704.20	2404.32
704.39	2115.55
704.57	2199.52
704.75	2420.70
704.94	2310.11
705.12	2318.30
705.30	2527.19
705.49	4503.48
705.67	11026.26
705.86	19801.81
706.04	23946.90
706.22	27690.59
706.41	28999.24
706.59	24778.37
706.77	17487.61
706.96	14556.96
707.14	12625.73
707.32	10864.47
707.51	9779.05
707.69	8157.06
707.87	6594.46
708.06	5085.11
708.24	4243.39
708.42	3164.11
708.61	3033.04
708.79	2488.28
708.97	2385.88
709.16	2383.84
709.34	2232.29
709.52	2220.00
709.71	2226.14
709.89	2263.01
710.07	2078.69
710.26	2152.42
710.44	2193.37
710.62	2326.49
710.80	2260.96
710.99	2326.49
711.17	2287.58
711.35	2195.42
711.54	2181.09
711.72	2265.05
711.90	2275.29
712.09	2209.76
712.27	2140.13
712.45	2260.96
712.63	2238.43
712.82	2195.42
713.00	2267.10
713.18	2203.61
713.37	2224.09
713.55	2340.83
713.73	2332.64
713.91	2263.01
714.10	2150.37
714.28	2207.71
714.46	2299.87
714.65	2209.76
714.83	2289.63
715.01	2187.23
715.19	2242.53
715.38	2176.99
715.56	2314.20
715.74	2170.85
715.92	2109.41
716.11	2289.63
716.29	2062.30
716.47	2205.66
716.65	2189.28
716.84	2088.93
717.02	2301.92
717.20	2080.74
717.38	2203.61
717.57	2244.57
717.75	2172.89
717.93	2080.74
718.11	2230.24
718.30	2068.45
718.48	2228.19
718.66	2332.64
718.84	2285.53
719.03	2232.29
719.21	2138.08
719.39	2308.06
719.57	2179.04
719.75	2187.23
719.94	2023.39
720.12	2209.76
720.30	2277.34
720.48	2336.73
720.67	2220.00
720.85	2062.30
721.03	2179.04
721.21	2039.78
721.39	2281.44
721.58	2191.33
721.76	2195.42
721.94	2203.61
722.12	2226.14
722.30	2299.87
722.49	2164.70
722.67	2215.90
722.85	2263.01
723.03	2039.78
723.21	2187.23
723.40	2228.19
723.58	2338.78
723.76	2293.72
723.94	2396.12
724.12	2316.25
724.30	2375.64
724.49	2428.89
724.67	2150.37
724.85	2314.20
725.03	2133.98
725.21	2254.81
725.40	2281.44
725.58	2144.22
725.76	2314.20
725.94	2252.77
726.12	2207.71
726.30	2252.77
726.49	2183.13
726.67	2226.14
726.85	2250.72
727.03	2510.81
727.21	3641.29
727.39	5377.97
727.57	6422.43
727.76	7094.16
727.94	7620.49
728.12	7239.57
728.30	5867.43
728.48	4902.84
728.66	4548.54
728.84	4065.22
729.03	3547.08
729.21	3131.34
729.39	2748.37
729.57	2475.99
729.75	2400.22
729.93	2400.22
730.11	2152.42
730.30	2217.95
730.48	2176.99
730.66	2371.55
730.84	2246.62
731.02	2195.42
731.20	2187.23
731.38	2183.13
731.56	2074.59
731.74	2039.78
731.93	2170.85
732.11	2211.81
732.29	2199.52
732.47	2238.43
732.65	2256.86
732.83	2252.77
733.01	2267.10
733.19	2080.74
733.37	2279.39
733.56	2273.25
733.74	2183.13
733.92	2273.25
734.10	2144.22
734.28	2174.94
734.46	2015.20
734.64	2160.61
734.82	2129.89
735.00	2138.08
735.18	2179.04
735.36	2277.34
735.54	2168.80
735.73	2226.14
735.91	2215.90
736.09	2310.11
736.27	2150.37
736.45	2234.33
736.63	2031.58
736.81	2133.98
736.99	2340.83
737.17	2297.82
737.35	2191.33
737.53	2217.95
737.71	2115.55
737.89	2310.11
738.07	2140.13
738.25	2140.13
738.43	2125.79
738.61	2168.80
738.80	2148.32
738.98	2156.51
739.16	2088.93
739.34	2088.93
739.52	2361.31
739.70	2209.76
739.88	2220.00
740.06	2320.35
740.24	2023.39
740.42	2316.25
740.60	2039.78
740.78	2144.22
740.96	2031.58
741.14	2168.80
741.32	2121.70
741.50	2047.97
741.68	2404.32
741.86	2303.96
742.04	2154.46
742.22	2080.74
742.40	2269.15
742.58	2199.52
742.76	2148.32
742.94	2240.48
743.12	2004.96
743.30	2232.29
743.48	2199.52
743.66	2074.59
743.84	2275.29
744.02	2191.33
744.20	2203.61
744.38	2103.26
744.56	2170.85
744.74	2301.92
744.92	2240.48
745.10	2293.72
745.28	2258.91
745.46	2324.44
745.64	2154.46
745.82	2267.10
746.00	2162.66
746.18	2213.85
746.36	2217.95
746.54	2215.90
746.72	2146.27
746.90	2117.60
747.08	2303.96
747.26	2150.37
747.44	2187.23
747.62	2205.66
747.80	2222.05
747.98	2299.87
748.15	2101.22
748.33	2375.64
748.51	2205.66
748.69	2181.09
748.87	2142.18
749.05	2211.81
749.23	2217.95
749.41	2158.56
749.59	2199.52
749.77	2287.58
749.95	2162.66
750.13	2107.36
750.31	2281.44
750.49	2197.47
750.67	2289.63
750.85	2310.11
751.03	2111.46
751.20	2385.88
751.38	2269.15
751.56	2240.48
751.74	2142.18
751.92	2170.85
752.10	2062.30
752.28	2244.57
752.46	2156.51
752.64	2183.13
752.82	2172.89
753.00	2314.20
753.18	2207.71
753.35	2211.81
753.53	2189.28
753.71	2174.94
753.89	2306.01
754.07	2240.48
754.25	2312.16
754.43	2211.81
754.61	2045.92
754.79	2217.95
754.97	2146.27
755.14	2285.53
755.32	2029.54
755.50	2236.38
755.68	2183.13
755.86	2039.78
756.04	2140.13
756.22	1957.86
756.40	2203.61
756.57	2334.68
756.75	2209.76
756.93	2310.11
757.11	2234.33
757.29	2146.27
757.47	2090.98
757.65	2041.82
757.82	2004.96
758.00	2095.07
758.18	2129.89
758.36	2103.26
758.54	2420.70
758.72	2076.64
758.90	2252.77
759.07	2203.61
759.25	2176.99
759.43	2244.57
759.61	2138.08
759.79	3076.05
759.97	2246.62
760.15	2162.66
760.32	2142.18
760.50	2131.94
760.68	2414.56
760.86	2136.03
761.04	2351.07
761.22	2258.91
761.39	2207.71
761.57	2174.94
761.75	2111.46
761.93	2240.48
762.11	2158.56
762.28	2234.33
762.46	2158.56
762.64	2256.86
762.82	2176.99
763.00	2115.55
763.18	2252.77
763.35	2103.26
763.53	2244.57
763.71	2170.85
763.89	2191.33
764.07	2232.29
764.24	2142.18
764.42	2269.15
764.60	2195.42
764.78	2242.53
764.96	2258.91
765.13	2224.09
765.31	2234.33
765.49	2248.67
765.67	2039.78
765.84	2127.84
766.02	2185.18
766.20	2095.07
766.38	2199.52
766.56	2277.34
766.73	2230.24
766.91	2181.09
767.09	2162.66
767.27	2260.96
767.44	2113.50
767.62	2310.11
767.80	2209.76
767.98	2086.88
768.15	2168.80
768.33	2258.91
768.51	2240.48
768.69	2289.63
768.87	2211.81
769.04	2203.61
769.22	2432.99
769.40	2312.16
769.58	2363.36
769.75	2201.57
769.93	2303.96
770.11	2187.23
770.28	2129.89
770.46	2205.66
770.64	2289.63
770.82	2195.42
770.99	2179.04
771.17	2207.71
771.35	2129.89
771.53	2101.22
771.70	2158.56
771.88	2273.25
772.06	2197.47
772.23	2140.13
772.41	2238.43
772.59	2129.89
772.77	2115.55
772.94	2138.08
773.12	2144.22
773.30	2168.80
773.47	2248.67
773.65	2084.83
773.83	2289.63
774.01	2138.08
774.18	2064.35
774.36	2179.04
774.54	2039.78
774.71	2213.85
774.89	2136.03
775.07	2113.50
775.24	2170.85
775.42	2119.65
775.60	2332.64
775.78	2191.33
775.95	2045.92
776.13	2027.49
776.31	2002.91
776.48	2205.66
776.66	2271.20
776.84	2088.93
777.01	2066.40
777.19	2138.08
777.37	2213.85
777.54	2189.28
777.72	2289.63
777.90	2201.57
778.07	2052.06
778.25	2437.08
778.43	2299.87
778.60	2117.60
778.78	2336.73
778.96	2346.97
779.13	2138.08
779.31	2260.96
779.49	2228.19
779.66	2201.57
779.84	2199.52
780.01	2228.19
780.19	2166.75
780.37	2322.40
780.54	2125.79
780.72	2070.50
780.90	2195.42
781.07	2224.09
781.25	2138.08
781.43	2291.68
781.60	2183.13
781.78	2283.49
781.95	2170.85
782.13	2123.74
782.31	2129.89
782.48	2013.15
782.66	2201.57
782.83	2240.48
783.01	2109.41
783.19	2244.57
783.36	2181.09
783.54	2060.26
783.72	2273.25
783.89	2172.89
784.07	2189.28
784.24	2234.33
784.42	2287.58
784.60	2203.61
784.77	2213.85
784.95	2031.58
785.12	2162.66
785.30	2215.90
785.47	2080.74
785.65	2105.31
785.83	2185.18
786.00	2090.98
786.18	2207.71
786.35	2099.17
786.53	2054.11
786.71	2209.76
786.88	2193.37
787.06	2246.62
787.23	2127.84
787.41	2101.22
787.58	2191.33
787.76	2111.46
787.94	2248.67
788.11	2220.00
788.29	2054.11
788.46	2062.30
788.64	2068.45
788.81	2105.31
788.99	2172.89
789.16	2121.70
789.34	2123.74
789.52	2181.09
789.69	2183.13
789.87	2000.87
790.04	2172.89
790.22	2220.00
790.39	2365.40
790.57	2078.69
790.74	2119.65
790.92	2250.72
791.09	1996.77
791.27	2189.28
791.44	2291.68
791.62	2187.23
791.79	2291.68
791.97	2162.66
792.15	2453.47
792.32	2275.29
792.50	2256.86
792.67	2330.59
792.85	2295.77
793.02	2181.09
793.20	2138.08
793.37	2066.40
793.55	2148.32
793.72	2050.02
793.90	2248.67
794.07	2136.03
794.25	2088.93
794.42	2195.42
794.60	2246.62
794.77	2185.18
794.95	2267.10
795.12	2213.85
795.30	2215.90
795.47	1990.63
795.65	2473.95
795.82	2228.19
796.00	2062.30
796.17	2111.46
796.34	2154.46
796.52	2263.01
796.69	2213.85
796.87	2295.77
797.04	2242.53
797.22	2228.19
797.39	2154.46
797.57	2293.72
797.74	2242.53
797.92	2228.19
798.09	2123.74
798.27	2306.01
798.44	2146.27
798.62	2111.46
798.79	2168.80
798.96	2263.01
799.14	2201.57
799.31	2359.26
799.49	2189.28
799.66	2084.83
799.84	2213.85
800.01	2070.50
800.19	2242.53
800.36	2060.26
800.53	2140.13
800.71	2252.77
800.88	2367.45
801.06	2097.12
801.23	2217.95
801.41	2220.00
801.58	2131.94
801.75	2129.89
801.93	2256.86
802.10	2197.47
802.28	2138.08
802.45	2133.98
802.63	2172.89
802.80	2375.64
802.97	2170.85
803.15	2195.42
803.32	2217.95
803.50	2084.83
803.67	2146.27
803.84	2056.16
804.02	2140.13
804.19	2207.71
804.37	2072.54
804.54	2138.08
804.71	2193.37
804.89	2183.13
805.06	2187.23
805.24	2041.82
805.41	2031.58
805.58	2170.85
805.76	2402.27
805.93	2158.56
806.10	2369.50
806.28	2252.77
806.45	2299.87
806.63	2246.62
806.80	2252.77
806.97	2291.68
807.15	2240.48
807.32	2103.26
807.49	2154.46
807.67	2142.18
807.84	2273.25
808.01	2090.98
808.19	2332.64
808.36	2371.55
808.54	2097.12
808.71	2140.13
808.88	2176.99
809.06	2258.91
809.23	2385.88
809.40	2187.23
809.58	2279.39
809.75	2168.80
809.92	2121.70
810.10	2455.51
810.27	2238.43
810.44	2258.91
810.62	2254.81
810.79	2168.80
810.96	2080.74
811.14	2211.81
811.31	2179.04
811.48	2228.19
811.66	2207.71
811.83	2260.96
812.00	2263.01
812.18	2140.13
812.35	2420.70
812.52	2144.22
812.69	2109.41
812.87	2146.27
813.04	2115.55
813.21	2191.33
813.39	2162.66
813.56	2140.13
813.73	2277.34
813.91	2041.82
814.08	2146.27
814.25	2224.09
814.42	2066.40
814.60	2211.81
814.77	2150.37
814.94	2119.65
815.12	2228.19
815.29	2344.92
815.46	2105.31
815.63	2230.24
815.81	2285.53
815.98	2127.84
816.15	2101.22
816.33	2195.42
816.50	2138.08
816.67	2211.81
816.84	2197.47
817.02	2070.50
817.19	2129.89
817.36	2176.99
817.53	2205.66
817.71	2138.08
817.88	2238.43
818.05	2211.81
818.22	2170.85
818.40	2269.15
818.57	2133.98
818.74	2244.57
818.91	2133.98
819.09	2263.01
819.26	2201.57
819.43	2170.85
819.60	2215.90
819.78	2176.99
819.95	2334.68
820.12	2095.07
820.29	2250.72
820.47	2287.58
820.64	2185.18
820.81	2060.26
820.98	2133.98
821.15	2170.85
821.33	2248.67
821.50	2080.74
821.67	2256.86
821.84	2185.18
822.02	2207.71
822.19	2283.49
822.36	2066.40
822.53	2119.65
822.70	2086.88
822.88	2099.17
823.05	2316.25
823.22	2070.50
823.39	2226.14
823.56	2179.04
823.74	2299.87
823.91	2043.87
824.08	2074.59
824.25	2125.79
824.42	2408.41
824.60	2070.50
824.77	2213.85
824.94	2242.53
825.11	2332.64
825.28	2050.02
825.45	2160.61
825.63	2265.05
825.80	2148.32
825.97	2187.23
826.14	2136.03
826.31	2064.35
826.48	2209.76
826.66	2099.17
826.83	2117.60
827.00	2181.09
827.17	2039.78
827.34	2166.75
827.51	2109.41
827.69	2129.89
827.86	2039.78
828.03	2142.18
828.20	2158.56
828.37	2127.84
828.54	2279.39
828.71	2078.69
828.89	2291.68
829.06	2168.80
829.23	2310.11
829.40	2082.78
829.57	2125.79
829.74	2242.53
829.91	2099.17
830.09	2097.12
830.26	2179.04
830.43	2279.39
830.60	2097.12
830.77	2258.91
830.94	2246.62
831.11	2224.09
831.28	2097.12
831.46	2326.49
831.63	2115.55
831.80	2258.91
831.97	2136.03
832.14	2095.07
832.31	2244.57
832.48	2242.53
832.65	2336.73
832.82	2181.09
832.99	2226.14
833.17	2033.63
833.34	2328.54
833.51	2162.66
833.68	2002.91
833.85	2236.38
834.02	2072.54
834.19	2080.74
834.36	2056.16
834.53	2232.29
834.70	2277.34
834.87	2213.85
835.04	2146.27
835.22	2181.09
835.39	2072.54
835.56	2080.74
835.73	2121.70
835.90	2306.01
836.07	2088.93
836.24	2310.11
836.41	2115.55
836.58	2150.37
836.75	2289.63
836.92	2201.57
837.09	2131.94
837.26	2314.20
837.43	2252.77
837.60	2236.38
837.77	2244.57
837.94	2287.58
838.12	2291.68
838.29	2115.55
838.46	2068.45
838.63	2045.92
838.80	2322.40
838.97	2187.23
839.14	2146.27
839.31	2146.27
839.48	2217.95
839.65	2088.93
839.82	2246.62
839.99	2209.76
840.16	2193.37
840.33	2074.59
840.50	2185.18
840.67	2150.37
840.84	2068.45
841.01	2185.18
841.18	2039.78
841.35	2174.94
841.52	2267.10
841.69	2236.38
841.86	2127.84
842.03	2213.85
842.20	2250.72
842.37	2154.46
842.54	2160.61
842.71	2140.13
842.88	2166.75
843.05	2168.80
843.22	2183.13
843.39	2256.86
843.56	2113.50
843.73	2199.52
843.90	2138.08
844.07	2162.66
844.24	2271.20
844.41	2136.03
844.58	2148.32
844.75	2123.74
844.92	2277.34
845.09	2205.66
845.26	2150.37
845.43	2330.59
845.60	2115.55
845.77	2293.72
845.94	2240.48
846.10	2211.81
846.27	2023.39
846.44	2076.64
846.61	2041.82
846.78	2224.09
846.95	2308.06
847.12	2152.42
847.29	2138.08
847.46	2068.45
847.63	2310.11
847.80	2111.46
847.97	2191.33
848.14	2416.60
848.31	2117.60
848.48	2101.22
848.65	2168.80
848.82	2099.17
848.98	2394.08
849.15	2101.22
849.32	2205.66
849.49	2244.57
849.66	2222.05
849.83	2185.18
850.00	2064.35
850.17	2275.29
850.34	2168.80
850.51	1996.77
850.68	2121.70
850.85	2424.80
851.01	2217.95
851.18	2220.00
851.35	2226.14
851.52	2228.19
851.69	2240.48
851.86	2031.58
852.03	2179.04
852.20	2273.25
852.37	2121.70
852.53	2072.54
852.70	2191.33
852.87	2226.14
853.04	2207.71
853.21	2209.76
853.38	2205.66
853.55	2260.96
853.72	2283.49
853.89	2047.97
854.05	2119.65
854.22	2197.47
854.39	2252.77
854.56	2203.61
854.73	2275.29
854.90	2105.31
855.07	2197.47
855.23	2095.07
855.40	2121.70
855.57	2105.31
855.74	1941.47
855.91	2295.77
856.08	2056.16
856.25	2037.73
856.41	2162.66
856.58	2168.80
856.75	2189.28
856.92	2072.54
857.09	2254.81
857.26	2076.64
857.42	2156.51
857.59	2236.38
857.76	2158.56
857.93	2168.80
858.10	2146.27
858.27	2127.84
858.43	2121.70
858.60	2115.55
858.77	2095.07
858.94	2148.32
859.11	2260.96
859.27	2138.08
859.44	2154.46
859.61	2387.93
859.78	2267.10
859.95	2170.85
860.12	2156.51
860.28	2389.98
860.45	2303.96
860.62	2072.54
860.79	2156.51
860.95	2133.98
861.12	2133.98
861.29	2066.40
861.46	2086.88
861.63	2150.37
861.79	2215.90
861.96	2056.16
862.13	2176.99
862.30	2289.63
862.47	2136.03
862.63	2195.42
862.80	2244.57
862.97	2299.87
863.14	2297.82
863.30	2215.90
863.47	2113.50
863.64	2273.25
863.81	2170.85
863.97	2105.31
864.14	2113.50
864.31	2138.08
864.48	2166.75
864.65	2234.33
864.81	2209.76
864.98	2238.43
865.15	2203.61
865.32	2166.75
865.48	2162.66
865.65	2383.84
865.82	2119.65
865.98	2129.89
866.15	2248.67
866.32	2256.86
866.49	2156.51
866.65	2230.24
866.82	2070.50
866.99	2228.19
867.16	2148.32
867.32	2115.55
867.49	2109.41
867.66	2152.42
867.83	2195.42
867.99	2084.83
868.16	2138.08
868.33	2174.94
868.49	2133.98
868.66	2148.32
868.83	2244.57
868.99	2166.75
869.16	2160.61
869.33	2248.67
869.50	2246.62
869.66	2199.52
869.83	2199.52
870.00	2058.21
870.16	2193.37
870.33	2138.08
870.50	2285.53
870.66	2172.89
870.83	2220.00
871.00	2197.47
871.17	2318.30
871.33	2181.09
871.50	2172.89
871.67	2138.08
871.83	2074.59
872.00	2250.72
872.17	2131.94
872.33	2359.26
872.50	2254.81
872.67	2160.61
872.83	2078.69
873.00	2260.96
873.17	2193.37
873.33	2248.67
873.50	2260.96
873.67	2168.80
873.83	2183.13
874.00	2140.13
874.16	2236.38
874.33	2152.42
874.50	2045.92
874.66	2150.37
874.83	2150.37
875.00	2285.53
875.16	2269.15
875.33	2203.61
875.50	1955.81
875.66	2117.60
875.83	2179.04
875.99	2217.95
876.16	2156.51
876.33	2119.65
876.49	2209.76
876.66	2217.95
876.83	2136.03
876.99	2078.69
877.16	2187.23
877.32	2170.85
877.49	2097.12
877.66	2207.71
877.82	2324.44
877.99	2174.94
878.15	2217.95
878.32	2226.14
878.49	2260.96
878.65	2136.03
878.82	2285.53
878.98	2117.60
879.15	2232.29
879.32	2252.77
879.48	2224.09
879.65	2127.84
879.81	2140.13
879.98	2193.37
880.15	2197.47
880.31	2277.34
880.48	2090.98
880.64	2232.29
880.81	2232.29
880.97	2342.88
881.14	2299.87
881.31	2088.93
881.47	2322.40
881.64	2185.18
881.80	2062.30
881.97	2146.27
882.13	2113.50
882.30	2152.42
882.47	2220.00
882.63	2125.79
882.80	2033.63
882.96	2076.64
883.13	2252.77
883.29	2170.85
883.46	2228.19
883.62	2381.79
883.79	2176.99
883.95	2174.94
884.12	2228.19
884.29	2267.10
884.45	2144.22
884.62	2211.81
884.78	2095.07
884.95	2295.77
885.11	2156.51
885.28	2197.47
885.44	2109.41
885.61	2346.97
885.77	2295.77
885.94	2234.33
886.10	2183.13
886.27	2150.37
886.43	2318.30
886.60	2256.86
886.76	2113.50
886.93	2138.08
887.09	2156.51
887.26	2084.83
887.42	2172.89
887.59	2246.62
887.75	2441.18
887.92	2242.53
888.08	2195.42
888.25	2342.88
888.41	2248.67
888.58	2144.22
888.74	2101.22
888.91	2107.36
>>>>>End Processed Spectral Data<<<<<
