SpectraSuite Data File
++++++++++++++++++++++++++++++++++++
Date: Thu May 05 12:35:41 CEST 2016
User: root
Dark Spectrum Present: No
Reference Spectrum Present: No
Number of Sampled Component Spectra: 1
Spectrometers: USB4C02835
Integration Time (usec): 100000 (USB4C02835)
Spectra Averaged: 1 (USB4C02835)
Boxcar Smoothing: 0 (USB4C02835)
Correct for Electrical Dark: No (USB4C02835)
Strobe/Lamp Enabled: No (USB4C02835)
Correct for Detector Non-linearity: No (USB4C02835)
Correct for Stray Light: No (USB4C02835)
Number of Pixels in Processed Spectrum: 3648
>>>>>Begin Processed Spectral Data<<<<<
177.47	1716.20
177.69	1716.20
177.91	1716.20
178.13	1767.40
178.36	1785.83
178.58	2172.89
178.80	2250.72
179.02	2056.16
179.24	2129.89
179.46	2119.65
179.68	2136.03
179.90	2138.08
180.13	2193.37
180.35	2093.02
180.57	2103.26
180.79	2275.29
181.01	2146.27
181.23	2252.77
181.45	2240.48
181.67	2207.71
181.90	2281.44
182.12	2105.31
182.34	2144.22
182.56	2240.48
182.78	2217.95
183.00	2097.12
183.22	2084.83
183.44	2017.25
183.66	2473.95
183.89	2224.09
184.11	2162.66
184.33	2252.77
184.55	2293.72
184.77	2109.41
184.99	2072.54
185.21	2109.41
185.43	2463.71
185.65	2072.54
185.87	2133.98
186.10	2389.98
186.32	2447.32
186.54	2240.48
186.76	2150.37
186.98	2260.96
187.20	2183.13
187.42	2136.03
187.64	2074.59
187.86	2273.25
188.08	2297.82
188.30	2142.18
188.52	2142.18
188.75	2258.91
188.97	2301.92
189.19	2088.93
189.41	2105.31
189.63	2236.38
189.85	2131.94
190.07	1957.86
190.29	2015.20
190.51	2252.77
190.73	2125.79
190.95	2269.15
191.17	2181.09
191.39	2060.26
191.61	2193.37
191.84	2086.88
192.06	2140.13
192.28	2095.07
192.50	2590.68
192.72	2183.13
192.94	2176.99
193.16	2283.49
193.38	2285.53
193.60	2070.50
193.82	2191.33
194.04	2256.86
194.26	2277.34
194.48	2160.61
194.70	2035.68
194.92	2101.22
195.14	2269.15
195.36	2090.98
195.58	2265.05
195.80	2189.28
196.02	2144.22
196.24	2097.12
196.46	2199.52
196.69	2138.08
196.91	2336.73
197.13	2080.74
197.35	2101.22
197.57	2312.16
197.79	2256.86
198.01	2150.37
198.23	2224.09
198.45	2211.81
198.67	2117.60
198.89	2072.54
199.11	2205.66
199.33	2103.26
199.55	1982.43
199.77	2150.37
199.99	2226.14
200.21	2154.46
200.43	2271.20
200.65	1974.24
200.87	2009.06
201.09	2199.52
201.31	2183.13
201.53	2176.99
201.75	2183.13
201.97	2203.61
202.19	2183.13
202.41	2207.71
202.63	2269.15
202.85	2201.57
203.07	2269.15
203.29	2068.45
203.51	2056.16
203.73	2111.46
203.95	2545.63
204.17	2142.18
204.39	2179.04
204.61	2129.89
204.83	2199.52
205.05	2142.18
205.27	2271.20
205.49	2410.46
205.71	2154.46
205.93	2011.11
206.15	2082.78
206.37	2207.71
206.59	2133.98
206.81	2088.93
207.03	2086.88
207.25	2095.07
207.47	2297.82
207.69	2027.49
207.91	2193.37
208.13	2430.94
208.34	2213.85
208.56	2125.79
208.78	2174.94
209.00	2109.41
209.22	2111.46
209.44	2176.99
209.66	2146.27
209.88	2209.76
210.10	2152.42
210.32	2105.31
210.54	2242.53
210.76	2154.46
210.98	2201.57
211.20	1933.28
211.42	2209.76
211.64	2277.34
211.86	2252.77
212.08	2238.43
212.30	2074.59
212.52	2283.49
212.74	2236.38
212.96	2160.61
213.17	2236.38
213.39	2201.57
213.61	2265.05
213.83	2176.99
214.05	2154.46
214.27	2273.25
214.49	2121.70
214.71	2029.54
214.93	2275.29
215.15	2142.18
215.37	2320.35
215.59	2025.44
215.81	2176.99
216.03	2285.53
216.24	2244.57
216.46	2093.02
216.68	2176.99
216.90	2283.49
217.12	2351.07
217.34	2129.89
217.56	2179.04
217.78	2293.72
218.00	2254.81
218.22	2162.66
218.44	2250.72
218.66	2201.57
218.87	2392.03
219.09	2093.02
219.31	2246.62
219.53	2205.66
219.75	2109.41
219.97	2191.33
220.19	2097.12
220.41	2170.85
220.63	2342.88
220.85	2174.94
221.06	2093.02
221.28	2277.34
221.50	2322.40
221.72	2129.89
221.94	2076.64
222.16	2170.85
222.38	2232.29
222.60	2138.08
222.82	2107.36
223.03	2281.44
223.25	2072.54
223.47	2070.50
223.69	2275.29
223.91	2275.29
224.13	2201.57
224.35	2027.49
224.57	2256.86
224.78	2248.67
225.00	2107.36
225.22	2162.66
225.44	2101.22
225.66	2279.39
225.88	2201.57
226.10	2230.24
226.32	2158.56
226.53	2330.59
226.75	2109.41
226.97	2101.22
227.19	2138.08
227.41	2111.46
227.63	2150.37
227.85	2039.78
228.06	2185.18
228.28	2142.18
228.50	2230.24
228.72	2013.15
228.94	2148.32
229.16	2101.22
229.37	2050.02
229.59	2068.45
229.81	2199.52
230.03	2125.79
230.25	2064.35
230.47	2037.73
230.69	2064.35
230.90	2240.48
231.12	2162.66
231.34	2121.70
231.56	2254.81
231.78	2150.37
232.00	2084.83
232.21	2076.64
232.43	2138.08
232.65	2035.68
232.87	2252.77
233.09	2070.50
233.30	2113.50
233.52	2314.20
233.74	2125.79
233.96	2041.82
234.18	2183.13
234.40	2176.99
234.61	2412.51
234.83	2084.83
235.05	2107.36
235.27	2459.61
235.49	2422.75
235.70	2136.03
235.92	2220.00
236.14	2299.87
236.36	2406.36
236.58	2039.78
236.79	2179.04
237.01	2275.29
237.23	2260.96
237.45	2236.38
237.67	2084.83
237.88	2318.30
238.10	2379.74
238.32	1990.63
238.54	2181.09
238.76	2164.70
238.97	2125.79
239.19	2056.16
239.41	2156.51
239.63	2355.16
239.85	2088.93
240.06	2138.08
240.28	2078.69
240.50	2265.05
240.72	2224.09
240.93	2064.35
241.15	2201.57
241.37	2193.37
241.59	2349.02
241.81	2060.26
242.02	2179.04
242.24	2326.49
242.46	2256.86
242.68	2105.31
242.89	2101.22
243.11	2269.15
243.33	2095.07
243.55	2168.80
243.76	2109.41
243.98	2123.74
244.20	2209.76
244.42	2113.50
244.64	2162.66
244.85	2072.54
245.07	2047.97
245.29	2160.61
245.51	2203.61
245.72	2254.81
245.94	2365.40
246.16	2072.54
246.38	2203.61
246.59	2125.79
246.81	2170.85
247.03	2056.16
247.24	2054.11
247.46	2181.09
247.68	2213.85
247.90	2084.83
248.11	2058.21
248.33	2340.83
248.55	2174.94
248.77	2117.60
248.98	2142.18
249.20	2283.49
249.42	2281.44
249.64	2174.94
249.85	2129.89
250.07	2084.83
250.29	2326.49
250.50	2138.08
250.72	2029.54
250.94	2199.52
251.16	2416.60
251.37	2105.31
251.59	2162.66
251.81	2205.66
252.02	2306.01
252.24	2074.59
252.46	2215.90
252.68	2097.12
252.89	2093.02
253.11	2004.96
253.33	2211.81
253.54	2392.03
253.76	2095.07
253.98	2080.74
254.20	2082.78
254.41	2058.21
254.63	2174.94
254.85	2052.06
255.06	2166.75
255.28	2248.67
255.50	2220.00
255.71	2103.26
255.93	1980.39
256.15	2226.14
256.36	2269.15
256.58	2099.17
256.80	2156.51
257.02	2162.66
257.23	2236.38
257.45	2166.75
257.67	2162.66
257.88	2129.89
258.10	2234.33
258.32	2148.32
258.53	2121.70
258.75	2301.92
258.97	2154.46
259.18	2121.70
259.40	2097.12
259.62	2389.98
259.83	2367.45
260.05	2121.70
260.27	2541.53
260.48	2322.40
260.70	2113.50
260.92	2121.70
261.13	2222.05
261.35	2248.67
261.57	2205.66
261.78	2007.01
262.00	2045.92
262.22	2185.18
262.43	2144.22
262.65	2136.03
262.86	2140.13
263.08	2445.27
263.30	2166.75
263.51	2015.20
263.73	2099.17
263.95	2336.73
264.16	2162.66
264.38	2166.75
264.60	2068.45
264.81	2209.76
265.03	2275.29
265.25	2258.91
265.46	2103.26
265.68	2365.40
265.89	2275.29
266.11	2035.68
266.33	2205.66
266.54	2308.06
266.76	2244.57
266.98	2152.42
267.19	2269.15
267.41	2285.53
267.62	2193.37
267.84	2035.68
268.06	2246.62
268.27	2146.27
268.49	2355.16
268.70	2185.18
268.92	2185.18
269.14	2099.17
269.35	2088.93
269.57	2228.19
269.79	2174.94
270.00	2138.08
270.22	2308.06
270.43	2072.54
270.65	2029.54
270.87	2191.33
271.08	2322.40
271.30	2181.09
271.51	2136.03
271.73	2252.77
271.95	2398.17
272.16	2154.46
272.38	2119.65
272.59	2185.18
272.81	2277.34
273.02	2207.71
273.24	2160.61
273.46	2340.83
273.67	2080.74
273.89	2031.58
274.10	2113.50
274.32	2215.90
274.54	2193.37
274.75	2207.71
274.97	2125.79
275.18	2236.38
275.40	2277.34
275.61	2127.84
275.83	2193.37
276.05	2047.97
276.26	2228.19
276.48	2226.14
276.69	2152.42
276.91	2154.46
277.12	2232.29
277.34	2289.63
277.55	2283.49
277.77	2179.04
277.99	2148.32
278.20	2050.02
278.42	2105.31
278.63	2099.17
278.85	2133.98
279.06	2054.11
279.28	2199.52
279.49	2248.67
279.71	2256.86
279.93	2215.90
280.14	2269.15
280.36	2105.31
280.57	2279.39
280.79	2236.38
281.00	2066.40
281.22	2131.94
281.43	2297.82
281.65	2064.35
281.86	2138.08
282.08	2240.48
282.29	2392.03
282.51	2088.93
282.73	2103.26
282.94	2023.39
283.16	2207.71
283.37	2351.07
283.59	2211.81
283.80	2256.86
284.02	2191.33
284.23	2256.86
284.45	2201.57
284.66	2197.47
284.88	2115.55
285.09	2131.94
285.31	2267.10
285.52	2267.10
285.74	1996.77
285.95	2205.66
286.17	2176.99
286.38	2281.44
286.60	2203.61
286.81	2111.46
287.03	2113.50
287.24	2217.95
287.46	2258.91
287.67	2160.61
287.89	2344.92
288.10	2207.71
288.32	2203.61
288.53	2342.88
288.75	2211.81
288.96	2242.53
289.18	2162.66
289.39	2121.70
289.61	2168.80
289.82	2430.94
290.04	2353.12
290.25	2080.74
290.47	2248.67
290.68	2084.83
290.90	2359.26
291.11	2068.45
291.33	2220.00
291.54	2084.83
291.76	2133.98
291.97	2263.01
292.18	2220.00
292.40	2127.84
292.61	2109.41
292.83	2334.68
293.04	2232.29
293.26	2256.86
293.47	2172.89
293.69	2058.21
293.90	2154.46
294.12	2314.20
294.33	2244.57
294.55	2183.13
294.76	2228.19
294.97	2301.92
295.19	2400.22
295.40	2095.07
295.62	2179.04
295.83	2318.30
296.05	2170.85
296.26	2334.68
296.48	2129.89
296.69	2220.00
296.90	2215.90
297.12	2232.29
297.33	2332.64
297.55	2181.09
297.76	2203.61
297.98	2224.09
298.19	2211.81
298.41	2209.76
298.62	2117.60
298.83	2342.88
299.05	2271.20
299.26	2150.37
299.48	2162.66
299.69	2172.89
299.90	2195.42
300.12	2144.22
300.33	2236.38
300.55	2136.03
300.76	2193.37
300.98	2047.97
301.19	2295.77
301.40	2154.46
301.62	2160.61
301.83	2228.19
302.05	2193.37
302.26	2203.61
302.47	2170.85
302.69	2117.60
302.90	2232.29
303.12	2050.02
303.33	2220.00
303.54	2371.55
303.76	2170.85
303.97	2129.89
304.19	2291.68
304.40	2107.36
304.61	2244.57
304.83	2318.30
305.04	2283.49
305.26	2299.87
305.47	2252.77
305.68	2174.94
305.90	2154.46
306.11	2318.30
306.33	2121.70
306.54	2097.12
306.75	2113.50
306.97	2070.50
307.18	2158.56
307.39	2117.60
307.61	2252.77
307.82	2211.81
308.04	2195.42
308.25	2047.97
308.46	2236.38
308.68	2220.00
308.89	2209.76
309.10	2254.81
309.32	2312.16
309.53	2181.09
309.74	2136.03
309.96	2209.76
310.17	2342.88
310.39	2168.80
310.60	2252.77
310.81	2164.70
311.03	2121.70
311.24	2267.10
311.45	2195.42
311.67	2365.40
311.88	2162.66
312.09	2086.88
312.31	2123.74
312.52	2099.17
312.73	2222.05
312.95	2099.17
313.16	2125.79
313.37	2291.68
313.59	2267.10
313.80	2293.72
314.01	2344.92
314.23	2119.65
314.44	2123.74
314.65	2070.50
314.87	2121.70
315.08	2164.70
315.29	2113.50
315.51	2056.16
315.72	2070.50
315.93	2289.63
316.15	2236.38
316.36	2150.37
316.57	2181.09
316.79	2258.91
317.00	2183.13
317.21	2217.95
317.43	2111.46
317.64	2273.25
317.85	2117.60
318.07	2074.59
318.28	2176.99
318.49	2406.36
318.70	2482.14
318.92	2340.83
319.13	2371.55
319.34	2441.18
319.56	2244.57
319.77	2346.97
319.98	2330.59
320.20	2267.10
320.41	2301.92
320.62	2250.72
320.83	2136.03
321.05	2392.03
321.26	2242.53
321.47	2299.87
321.69	2365.40
321.90	2103.26
322.11	2074.59
322.32	2183.13
322.54	2381.79
322.75	2160.61
322.96	2463.71
323.18	2090.98
323.39	2097.12
323.60	2131.94
323.81	2289.63
324.03	2076.64
324.24	2275.29
324.45	2220.00
324.66	2193.37
324.88	2201.57
325.09	2310.11
325.30	2138.08
325.52	2183.13
325.73	2248.67
325.94	2066.40
326.15	2037.73
326.37	2111.46
326.58	2338.78
326.79	2396.12
327.00	2154.46
327.22	2179.04
327.43	2164.70
327.64	2179.04
327.85	2215.90
328.07	2201.57
328.28	2346.97
328.49	2052.06
328.70	2133.98
328.92	2146.27
329.13	2183.13
329.34	2291.68
329.55	2277.34
329.76	2252.77
329.98	2236.38
330.19	2273.25
330.40	2187.23
330.61	2193.37
330.83	2277.34
331.04	2158.56
331.25	2265.05
331.46	2174.94
331.68	2052.06
331.89	2209.76
332.10	2181.09
332.31	2070.50
332.52	2146.27
332.74	2267.10
332.95	2088.93
333.16	2133.98
333.37	2271.20
333.58	2191.33
333.80	2140.13
334.01	2105.31
334.22	2271.20
334.43	2095.07
334.64	2123.74
334.86	2029.54
335.07	2076.64
335.28	2332.64
335.49	2070.50
335.70	2215.90
335.92	2277.34
336.13	2428.89
336.34	2168.80
336.55	2220.00
336.76	2256.86
336.98	2033.63
337.19	2084.83
337.40	2265.05
337.61	2414.56
337.82	2170.85
338.04	2334.68
338.25	2047.97
338.46	2209.76
338.67	2105.31
338.88	2088.93
339.09	2111.46
339.31	2088.93
339.52	2078.69
339.73	2121.70
339.94	2156.51
340.15	2299.87
340.36	2189.28
340.58	2160.61
340.79	2064.35
341.00	2269.15
341.21	2050.02
341.42	2269.15
341.63	2263.01
341.85	2236.38
342.06	2244.57
342.27	2117.60
342.48	2258.91
342.69	2105.31
342.90	2228.19
343.12	2269.15
343.33	2125.79
343.54	2281.44
343.75	2314.20
343.96	2086.88
344.17	2146.27
344.38	2158.56
344.60	2105.31
344.81	2152.42
345.02	2101.22
345.23	2220.00
345.44	2445.27
345.65	2299.87
345.86	2226.14
346.07	2144.22
346.29	2199.52
346.50	2207.71
346.71	2234.33
346.92	2377.69
347.13	2435.03
347.34	2154.46
347.55	2187.23
347.76	2258.91
347.98	2033.63
348.19	2185.18
348.40	2265.05
348.61	2224.09
348.82	2326.49
349.03	2238.43
349.24	2140.13
349.45	2402.27
349.66	1992.67
349.88	2148.32
350.09	2113.50
350.30	2322.40
350.51	2297.82
350.72	2158.56
350.93	2174.94
351.14	2121.70
351.35	2236.38
351.56	2144.22
351.77	2203.61
351.99	2181.09
352.20	2297.82
352.41	2279.39
352.62	2064.35
352.83	2187.23
353.04	2193.37
353.25	2136.03
353.46	2220.00
353.67	2310.11
353.88	2007.01
354.09	2244.57
354.30	2207.71
354.52	2260.96
354.73	2217.95
354.94	2136.03
355.15	2193.37
355.36	2414.56
355.57	2047.97
355.78	2158.56
355.99	2158.56
356.20	2174.94
356.41	2365.40
356.62	2217.95
356.83	2209.76
357.04	2299.87
357.25	2037.73
357.46	2170.85
357.68	2054.11
357.89	2179.04
358.10	2230.24
358.31	2140.13
358.52	2154.46
358.73	2129.89
358.94	2121.70
359.15	2121.70
359.36	2308.06
359.57	2189.28
359.78	2095.07
359.99	2310.11
360.20	2080.74
360.41	2080.74
360.62	2242.53
360.83	2236.38
361.04	2244.57
361.25	2228.19
361.46	2418.65
361.67	2240.48
361.88	2236.38
362.09	2232.29
362.30	2207.71
362.51	2101.22
362.72	2160.61
362.93	2336.73
363.14	2281.44
363.35	2201.57
363.56	2082.78
363.78	2301.92
363.99	2332.64
364.20	2103.26
364.41	2176.99
364.62	2285.53
364.83	2209.76
365.04	2097.12
365.25	2199.52
365.46	2340.83
365.67	2158.56
365.88	2113.50
366.09	2068.45
366.30	2140.13
366.51	2174.94
366.72	2121.70
366.93	2187.23
367.14	2269.15
367.35	2291.68
367.56	2115.55
367.77	2303.96
367.98	2164.70
368.18	2209.76
368.39	2170.85
368.60	2115.55
368.81	2314.20
369.02	2203.61
369.23	2176.99
369.44	2125.79
369.65	2183.13
369.86	2226.14
370.07	2275.29
370.28	2105.31
370.49	2258.91
370.70	2312.16
370.91	2099.17
371.12	2113.50
371.33	2289.63
371.54	2199.52
371.75	2301.92
371.96	2027.49
372.17	2222.05
372.38	2133.98
372.59	2265.05
372.80	2140.13
373.01	2172.89
373.22	2183.13
373.43	2205.66
373.64	2068.45
373.85	2330.59
374.06	2373.60
374.26	2232.29
374.47	2252.77
374.68	2338.78
374.89	2215.90
375.10	2131.94
375.31	2238.43
375.52	2187.23
375.73	2228.19
375.94	2123.74
376.15	2285.53
376.36	2150.37
376.57	2191.33
376.78	2138.08
376.99	2160.61
377.20	2371.55
377.40	2050.02
377.61	2324.44
377.82	2220.00
378.03	2308.06
378.24	2203.61
378.45	2142.18
378.66	2215.90
378.87	2054.11
379.08	2136.03
379.29	2113.50
379.50	2340.83
379.71	2129.89
379.91	2254.81
380.12	2187.23
380.33	2211.81
380.54	2224.09
380.75	2228.19
380.96	2166.75
381.17	2256.86
381.38	2269.15
381.59	2236.38
381.80	2209.76
382.00	2365.40
382.21	2265.05
382.42	2334.68
382.63	2432.99
382.84	2279.39
383.05	2398.17
383.26	2346.97
383.47	2174.94
383.68	2263.01
383.88	2228.19
384.09	2170.85
384.30	2367.45
384.51	2236.38
384.72	2174.94
384.93	2099.17
385.14	2121.70
385.35	2248.67
385.55	2070.50
385.76	2287.58
385.97	2160.61
386.18	2144.22
386.39	2150.37
386.60	2170.85
386.81	2195.42
387.02	2109.41
387.22	2162.66
387.43	2267.10
387.64	2291.68
387.85	2279.39
388.06	2404.32
388.27	4052.93
388.48	8599.42
388.68	12265.28
388.89	14616.35
389.10	16002.83
389.31	14642.98
389.52	11224.92
389.73	9994.09
389.93	8890.23
390.14	8226.69
390.35	7296.91
390.56	6616.99
390.77	5328.81
390.98	4087.75
391.18	3266.51
391.39	2731.99
391.60	2340.83
391.81	2394.08
392.02	2166.75
392.23	2439.13
392.43	2252.77
392.64	2330.59
392.85	2211.81
393.06	2316.25
393.27	2199.52
393.47	2160.61
393.68	2193.37
393.89	2113.50
394.10	2232.29
394.31	2197.47
394.52	2113.50
394.72	2201.57
394.93	2346.97
395.14	2084.83
395.35	2303.96
395.56	2078.69
395.76	2179.04
395.97	2199.52
396.18	2306.01
396.39	2297.82
396.60	2654.17
396.80	2357.21
397.01	2367.45
397.22	2373.60
397.43	2398.17
397.64	2220.00
397.84	2351.07
398.05	2504.67
398.26	2232.29
398.47	2293.72
398.67	2265.05
398.88	2242.53
399.09	2287.58
399.30	2093.02
399.51	2267.10
399.71	2158.56
399.92	2127.84
400.13	2199.52
400.34	2256.86
400.54	2240.48
400.75	2389.98
400.96	2195.42
401.17	2324.44
401.37	2308.06
401.58	2193.37
401.79	2209.76
402.00	2273.25
402.21	2541.53
402.41	2531.29
402.62	2535.39
402.83	2766.81
403.04	2672.60
403.24	2766.81
403.45	2416.60
403.66	2555.86
403.87	2449.37
404.07	2459.61
404.28	2459.61
404.49	2363.36
404.70	2238.43
404.90	2308.06
405.11	2220.00
405.32	2217.95
405.52	2125.79
405.73	2103.26
405.94	2101.22
406.15	2220.00
406.35	2258.91
406.56	2295.77
406.77	2271.20
406.98	2213.85
407.18	2039.78
407.39	2310.11
407.60	2156.51
407.80	2312.16
408.01	2097.12
408.22	2250.72
408.43	2117.60
408.63	2217.95
408.84	2220.00
409.05	2244.57
409.25	2105.31
409.46	2088.93
409.67	2160.61
409.88	2179.04
410.08	2220.00
410.29	2156.51
410.50	2240.48
410.70	2215.90
410.91	2138.08
411.12	2203.61
411.32	2170.85
411.53	2203.61
411.74	2273.25
411.95	2283.49
412.15	2308.06
412.36	2365.40
412.57	2283.49
412.77	2338.78
412.98	2248.67
413.19	2217.95
413.39	2310.11
413.60	2279.39
413.81	2365.40
414.01	2172.89
414.22	2187.23
414.43	2234.33
414.63	2158.56
414.84	2367.45
415.05	2183.13
415.25	2052.06
415.46	2252.77
415.67	2101.22
415.87	2170.85
416.08	2150.37
416.29	2111.46
416.49	2183.13
416.70	2131.94
416.91	2174.94
417.11	2301.92
417.32	2316.25
417.53	2224.09
417.73	2273.25
417.94	2162.66
418.15	2220.00
418.35	2162.66
418.56	2174.94
418.77	2377.69
418.97	2301.92
419.18	2152.42
419.38	2047.97
419.59	2209.76
419.80	2428.89
420.00	2185.18
420.21	2162.66
420.42	2359.26
420.62	2301.92
420.83	2115.55
421.04	2160.61
421.24	2095.07
421.45	2260.96
421.65	2226.14
421.86	2113.50
422.07	2258.91
422.27	2199.52
422.48	2228.19
422.69	2125.79
422.89	2129.89
423.10	2150.37
423.30	2052.06
423.51	2314.20
423.72	2193.37
423.92	2176.99
424.13	2043.87
424.33	2226.14
424.54	2342.88
424.75	2148.32
424.95	2398.17
425.16	2189.28
425.36	2142.18
425.57	2306.01
425.78	2168.80
425.98	2260.96
426.19	2154.46
426.39	2121.70
426.60	2129.89
426.81	2328.54
427.01	2250.72
427.22	2095.07
427.42	2072.54
427.63	2111.46
427.83	2240.48
428.04	2291.68
428.25	2252.77
428.45	2297.82
428.66	2383.84
428.86	2199.52
429.07	2232.29
429.28	2183.13
429.48	2293.72
429.69	2144.22
429.89	2201.57
430.10	2136.03
430.30	2211.81
430.51	2375.64
430.71	2162.66
430.92	2254.81
431.13	2136.03
431.33	2267.10
431.54	2131.94
431.74	2316.25
431.95	2502.62
432.15	2072.54
432.36	2195.42
432.56	2224.09
432.77	2342.88
432.98	2336.73
433.18	2170.85
433.39	2207.71
433.59	2162.66
433.80	2283.49
434.00	2400.22
434.21	2250.72
434.41	2150.37
434.62	2465.75
434.82	2093.02
435.03	2187.23
435.23	2187.23
435.44	2084.83
435.64	2174.94
435.85	2215.90
436.06	2342.88
436.26	2220.00
436.47	2228.19
436.67	2205.66
436.88	2234.33
437.08	2258.91
437.29	2340.83
437.49	2240.48
437.70	2342.88
437.90	2176.99
438.11	2342.88
438.31	2277.34
438.52	2408.41
438.72	2387.93
438.93	2471.90
439.13	2193.37
439.34	2365.40
439.54	2281.44
439.75	2279.39
439.95	2312.16
440.16	2181.09
440.36	2281.44
440.57	2226.14
440.77	2236.38
440.98	2187.23
441.18	2285.53
441.39	2187.23
441.59	2101.22
441.80	2392.03
442.00	2224.09
442.21	2297.82
442.41	2115.55
442.62	2260.96
442.82	2213.85
443.02	2207.71
443.23	2183.13
443.43	2260.96
443.64	2310.11
443.84	2125.79
444.05	2310.11
444.25	2297.82
444.46	2211.81
444.66	2113.50
444.87	2381.79
445.07	2060.26
445.28	2185.18
445.48	2381.79
445.69	2281.44
445.89	2424.80
446.09	2222.05
446.30	2439.13
446.50	2883.54
446.71	4476.86
446.91	5550.00
447.12	6645.66
447.32	6836.12
447.53	6428.57
447.73	5240.75
447.93	4581.31
448.14	4220.86
448.34	4087.75
448.55	3653.58
448.75	3590.09
448.96	3502.03
449.16	3053.52
449.36	2885.59
449.57	2486.23
449.77	2332.64
449.98	2211.81
450.18	2260.96
450.39	2293.72
450.59	2361.31
450.79	2244.57
451.00	2123.74
451.20	2265.05
451.41	2197.47
451.61	2293.72
451.81	2187.23
452.02	2224.09
452.22	2228.19
452.43	2185.18
452.63	2127.84
452.84	2224.09
453.04	2217.95
453.24	2205.66
453.45	2095.07
453.65	2152.42
453.86	2252.77
454.06	2209.76
454.26	2142.18
454.47	2138.08
454.67	2371.55
454.87	2281.44
455.08	2176.99
455.28	2412.51
455.49	2252.77
455.69	2146.27
455.89	2424.80
456.10	2260.96
456.30	2185.18
456.51	2236.38
456.71	2287.58
456.91	2195.42
457.12	2293.72
457.32	2310.11
457.52	2117.60
457.73	2291.68
457.93	2283.49
458.14	2142.18
458.34	2004.96
458.54	2136.03
458.75	2148.32
458.95	2389.98
459.15	2181.09
459.36	2240.48
459.56	2277.34
459.76	2459.61
459.97	2209.76
460.17	2250.72
460.37	2340.83
460.58	2152.42
460.78	2324.44
460.99	2203.61
461.19	2203.61
461.39	2193.37
461.60	2211.81
461.80	2185.18
462.00	2160.61
462.21	2301.92
462.41	2158.56
462.61	2144.22
462.82	2111.46
463.02	2265.05
463.22	2191.33
463.43	2344.92
463.63	2209.76
463.83	2392.03
464.04	2279.39
464.24	2185.18
464.44	2142.18
464.64	2269.15
464.85	2283.49
465.05	2301.92
465.25	2187.23
465.46	2191.33
465.66	2273.25
465.86	2215.90
466.07	2267.10
466.27	2181.09
466.47	2174.94
466.68	2101.22
466.88	2435.03
467.08	2203.61
467.29	2287.58
467.49	2289.63
467.69	2189.28
467.89	2197.47
468.10	2154.46
468.30	2234.33
468.50	2267.10
468.71	2250.72
468.91	2107.36
469.11	2342.88
469.31	2187.23
469.52	2078.69
469.72	2367.45
469.92	2422.75
470.13	2258.91
470.33	2205.66
470.53	2299.87
470.73	2707.41
470.94	3086.29
471.14	3182.54
471.34	3575.75
471.54	3592.14
471.75	3225.55
471.95	2973.65
472.15	2881.49
472.36	2820.05
472.56	2693.08
472.76	2764.76
472.96	2688.98
473.17	2461.66
473.37	2475.99
473.57	2260.96
473.77	2334.68
473.98	2203.61
474.18	2144.22
474.38	2521.05
474.58	2201.57
474.79	2164.70
474.99	2236.38
475.19	2316.25
475.39	2117.60
475.60	2281.44
475.80	2170.85
476.00	2226.14
476.20	2148.32
476.41	2228.19
476.61	2254.81
476.81	2361.31
477.01	2138.08
477.21	2363.36
477.42	2344.92
477.62	2097.12
477.82	2314.20
478.02	2197.47
478.23	2172.89
478.43	2127.84
478.63	2191.33
478.83	2168.80
479.03	2220.00
479.24	2408.41
479.44	2443.23
479.64	2138.08
479.84	2064.35
480.04	2080.74
480.25	2291.68
480.45	2117.60
480.65	2156.51
480.85	2326.49
481.06	2107.36
481.26	2213.85
481.46	2228.19
481.66	2185.18
481.86	2162.66
482.06	2297.82
482.27	2152.42
482.47	2174.94
482.67	2252.77
482.87	2191.33
483.07	2344.92
483.28	2121.70
483.48	2084.83
483.68	2183.13
483.88	2168.80
484.08	2033.63
484.29	2078.69
484.49	2138.08
484.69	2076.64
484.89	2353.12
485.09	2361.31
485.29	2293.72
485.50	2258.91
485.70	2217.95
485.90	2277.34
486.10	2285.53
486.30	2303.96
486.50	2316.25
486.71	2322.40
486.91	2299.87
487.11	2273.25
487.31	2105.31
487.51	2271.20
487.71	2127.84
487.91	2076.64
488.12	2172.89
488.32	1947.62
488.52	2129.89
488.72	2068.45
488.92	2224.09
489.12	2314.20
489.32	2314.20
489.53	2187.23
489.73	2066.40
489.93	2295.77
490.13	2103.26
490.33	2125.79
490.53	2265.05
490.73	2383.84
490.94	2080.74
491.14	2244.57
491.34	2318.30
491.54	2590.68
491.74	3198.93
491.94	3745.73
492.14	4095.94
492.34	3975.11
492.54	3891.14
492.75	3168.21
492.95	3137.49
493.15	2932.69
493.35	2842.58
493.55	2731.99
493.75	2621.40
493.95	2738.13
494.15	2514.91
494.35	2416.60
494.56	2244.57
494.76	2201.57
494.96	2220.00
495.16	2291.68
495.36	2211.81
495.56	2199.52
495.76	2187.23
495.96	2211.81
496.16	2140.13
496.36	2355.16
496.56	2236.38
496.77	2203.61
496.97	2193.37
497.17	2310.11
497.37	2054.11
497.57	2265.05
497.77	2236.38
497.97	2117.60
498.17	2162.66
498.37	2142.18
498.57	2297.82
498.77	2111.46
498.97	2359.26
499.17	2355.16
499.38	2213.85
499.58	2291.68
499.78	2322.40
499.98	2336.73
500.18	2244.57
500.38	2121.70
500.58	2412.51
500.78	2924.50
500.98	5150.64
501.18	7266.19
501.38	9140.08
501.58	10184.55
501.78	9803.63
501.98	7796.62
502.18	6549.40
502.38	5644.20
502.58	5382.06
502.78	4605.88
502.98	4609.98
503.18	4331.45
503.38	3968.96
503.59	3514.31
503.79	3102.67
503.99	2981.84
504.19	2867.16
504.39	2781.14
504.59	2895.83
504.79	2965.46
504.99	2789.33
505.19	2609.11
505.39	2451.42
505.59	2609.11
505.79	2543.58
505.99	2426.84
506.19	2336.73
506.39	2432.99
506.59	2240.48
506.79	2254.81
506.99	2375.64
507.19	2242.53
507.39	2232.29
507.59	2133.98
507.79	2068.45
507.99	2117.60
508.19	2279.39
508.39	2156.51
508.59	2183.13
508.79	2373.60
508.99	2379.74
509.19	2144.22
509.39	2209.76
509.59	2176.99
509.79	2203.61
509.99	2183.13
510.19	2254.81
510.39	2316.25
510.59	2240.48
510.79	2152.42
510.99	2119.65
511.19	2256.86
511.39	2351.07
511.59	2359.26
511.79	2316.25
511.99	2258.91
512.19	2398.17
512.38	2209.76
512.58	2166.75
512.78	2101.22
512.98	2285.53
513.18	2351.07
513.38	2013.15
513.58	2291.68
513.78	2176.99
513.98	2183.13
514.18	2248.67
514.38	2183.13
514.58	2213.85
514.78	2176.99
514.98	2084.83
515.18	2222.05
515.38	2056.16
515.58	2293.72
515.78	2181.09
515.98	2260.96
516.18	2291.68
516.38	2199.52
516.57	2136.03
516.77	2187.23
516.97	2203.61
517.17	2142.18
517.37	2045.92
517.57	2308.06
517.77	2207.71
517.97	2146.27
518.17	2224.09
518.37	2133.98
518.57	2082.78
518.77	2181.09
518.97	2187.23
519.16	2226.14
519.36	2377.69
519.56	2158.56
519.76	2234.33
519.96	2199.52
520.16	2412.51
520.36	2072.54
520.56	2383.84
520.76	2154.46
520.96	2195.42
521.16	2281.44
521.35	2306.01
521.55	2306.01
521.75	2277.34
521.95	2125.79
522.15	2154.46
522.35	2144.22
522.55	2170.85
522.75	2303.96
522.95	2193.37
523.14	2078.69
523.34	2176.99
523.54	2162.66
523.74	2273.25
523.94	2209.76
524.14	2056.16
524.34	2285.53
524.54	2400.22
524.73	2146.27
524.93	2236.38
525.13	2320.35
525.33	2078.69
525.53	2498.52
525.73	2306.01
525.93	2250.72
526.13	2136.03
526.32	2154.46
526.52	2220.00
526.72	2314.20
526.92	2176.99
527.12	2197.47
527.32	2105.31
527.52	2322.40
527.71	2238.43
527.91	2242.53
528.11	2166.75
528.31	2199.52
528.51	2148.32
528.71	2287.58
528.90	2273.25
529.10	2230.24
529.30	2299.87
529.50	2093.02
529.70	2340.83
529.90	2168.80
530.09	2230.24
530.29	2138.08
530.49	2123.74
530.69	2469.85
530.89	2242.53
531.09	2242.53
531.28	2197.47
531.48	2271.20
531.68	2289.63
531.88	2256.86
532.08	2318.30
532.28	2234.33
532.47	2351.07
532.67	2230.24
532.87	2275.29
533.07	2121.70
533.27	2330.59
533.46	2203.61
533.66	2215.90
533.86	2181.09
534.06	2197.47
534.26	2293.72
534.45	2252.77
534.65	2224.09
534.85	2232.29
535.05	2162.66
535.25	2277.34
535.44	2136.03
535.64	2357.21
535.84	2172.89
536.04	2220.00
536.24	2172.89
536.43	2154.46
536.63	2172.89
536.83	2189.28
537.03	2125.79
537.22	2152.42
537.42	2080.74
537.62	2138.08
537.82	2138.08
538.02	2260.96
538.21	2289.63
538.41	2525.15
538.61	2306.01
538.81	2146.27
539.00	2303.96
539.20	2090.98
539.40	2195.42
539.60	2240.48
539.79	2363.36
539.99	2306.01
540.19	2136.03
540.39	2258.91
540.58	2197.47
540.78	2332.64
540.98	2215.90
541.18	2353.12
541.37	2246.62
541.57	2326.49
541.77	2281.44
541.97	2121.70
542.16	2150.37
542.36	2303.96
542.56	2181.09
542.76	2375.64
542.95	2232.29
543.15	2271.20
543.35	2365.40
543.54	2107.36
543.74	2213.85
543.94	2428.89
544.14	2123.74
544.33	2285.53
544.53	2170.85
544.73	2158.56
544.93	2205.66
545.12	2187.23
545.32	2185.18
545.52	2168.80
545.71	2136.03
545.91	2203.61
546.11	2170.85
546.30	2187.23
546.50	2181.09
546.70	2303.96
546.90	2260.96
547.09	2162.66
547.29	2195.42
547.49	2201.57
547.68	2158.56
547.88	2148.32
548.08	2240.48
548.27	2670.55
548.47	2168.80
548.67	2170.85
548.87	2254.81
549.06	2242.53
549.26	2250.72
549.46	2271.20
549.65	2148.32
549.85	2295.77
550.05	2279.39
550.24	2107.36
550.44	2193.37
550.64	2162.66
550.83	2174.94
551.03	2310.11
551.23	2273.25
551.42	2213.85
551.62	2199.52
551.82	2236.38
552.01	2127.84
552.21	2363.36
552.41	2111.46
552.60	2314.20
552.80	2224.09
553.00	2152.42
553.19	2232.29
553.39	2367.45
553.59	2068.45
553.78	2310.11
553.98	2263.01
554.17	2113.50
554.37	2275.29
554.57	2293.72
554.76	2084.83
554.96	2195.42
555.16	2240.48
555.35	2263.01
555.55	2250.72
555.75	2275.29
555.94	2334.68
556.14	2035.68
556.33	2338.78
556.53	2226.14
556.73	2191.33
556.92	2320.35
557.12	2277.34
557.32	2379.74
557.51	2269.15
557.71	2217.95
557.90	2361.31
558.10	2349.02
558.30	2232.29
558.49	2160.61
558.69	2170.85
558.88	2244.57
559.08	2193.37
559.28	2269.15
559.47	2201.57
559.67	2277.34
559.86	2473.95
560.06	2179.04
560.26	2146.27
560.45	2224.09
560.65	2230.24
560.84	2310.11
561.04	2199.52
561.24	2254.81
561.43	2197.47
561.63	2340.83
561.82	2213.85
562.02	2226.14
562.22	2154.46
562.41	2187.23
562.61	2205.66
562.80	2111.46
563.00	2478.04
563.19	2250.72
563.39	2230.24
563.59	2271.20
563.78	2090.98
563.98	2086.88
564.17	2150.37
564.37	2080.74
564.56	2217.95
564.76	2080.74
564.96	2363.36
565.15	2279.39
565.35	2461.66
565.54	2136.03
565.74	2301.92
565.93	2252.77
566.13	2170.85
566.32	2222.05
566.52	2250.72
566.71	2269.15
566.91	2385.88
567.11	2236.38
567.30	2170.85
567.50	2334.68
567.69	2283.49
567.89	2232.29
568.08	2101.22
568.28	2197.47
568.47	2156.51
568.67	2220.00
568.86	2172.89
569.06	2275.29
569.25	2162.66
569.45	2095.07
569.64	2168.80
569.84	2275.29
570.04	2195.42
570.23	2095.07
570.43	2179.04
570.62	2281.44
570.82	2389.98
571.01	2080.74
571.21	2176.99
571.40	2115.55
571.60	2322.40
571.79	2260.96
571.99	2250.72
572.18	2072.54
572.38	2265.05
572.57	2123.74
572.77	2256.86
572.96	2484.19
573.16	2244.57
573.35	2138.08
573.55	2381.79
573.74	2228.19
573.94	2181.09
574.13	2203.61
574.33	2224.09
574.52	2330.59
574.71	2226.14
574.91	2240.48
575.10	2084.83
575.30	2154.46
575.49	2125.79
575.69	2144.22
575.88	2279.39
576.08	2301.92
576.27	2361.31
576.47	2275.29
576.66	2416.60
576.86	2373.60
577.05	2334.68
577.25	2312.16
577.44	2375.64
577.64	2197.47
577.83	2318.30
578.02	2199.52
578.22	2301.92
578.41	2410.46
578.61	2248.67
578.80	2117.60
579.00	2228.19
579.19	2252.77
579.39	2250.72
579.58	2297.82
579.77	2176.99
579.97	2326.49
580.16	2353.12
580.36	2355.16
580.55	2371.55
580.75	2244.57
580.94	2320.35
581.13	2324.44
581.33	2387.93
581.52	2248.67
581.72	2412.51
581.91	2445.27
582.11	2179.04
582.30	2371.55
582.49	2256.86
582.69	2402.27
582.88	2281.44
583.08	2303.96
583.27	2340.83
583.47	2334.68
583.66	2174.94
583.85	2160.61
584.05	2287.58
584.24	2306.01
584.44	2277.34
584.63	2371.55
584.82	2392.03
585.02	2428.89
585.21	2328.54
585.41	2459.61
585.60	2396.12
585.79	2465.75
585.99	2549.72
586.18	2363.36
586.37	2863.06
586.57	4341.69
586.76	13365.04
586.96	32644.62
587.15	46392.64
587.34	55465.14
587.54	60740.71
587.73	56179.88
587.93	39607.72
588.12	30099.00
588.31	23971.47
588.51	20731.59
588.70	19117.79
588.89	17594.10
589.09	15122.20
589.28	12967.74
589.47	10516.32
589.67	8337.28
589.86	6387.61
590.06	4724.66
590.25	3788.74
590.44	3153.87
590.64	2830.29
590.83	2572.25
591.02	2455.51
591.22	2279.39
591.41	2351.07
591.60	2275.29
591.80	2519.00
591.99	2166.75
592.18	2289.63
592.38	2326.49
592.57	2252.77
592.76	2234.33
592.96	2254.81
593.15	2285.53
593.34	2279.39
593.54	2205.66
593.73	2293.72
593.92	2326.49
594.12	2367.45
594.31	2301.92
594.50	2340.83
594.70	2301.92
594.89	2426.84
595.08	2170.85
595.28	2320.35
595.47	2562.01
595.66	2303.96
595.86	2138.08
596.05	2265.05
596.24	2250.72
596.43	2410.46
596.63	2392.03
596.82	2297.82
597.01	2289.63
597.21	2437.08
597.40	2357.21
597.59	2250.72
597.79	2254.81
597.98	2295.77
598.17	2289.63
598.36	2254.81
598.56	2314.20
598.75	2168.80
598.94	2263.01
599.14	2226.14
599.33	2133.98
599.52	2334.68
599.71	2230.24
599.91	2228.19
600.10	2242.53
600.29	2242.53
600.48	2285.53
600.68	2318.30
600.87	2179.04
601.06	2170.85
601.26	2246.62
601.45	2224.09
601.64	2133.98
601.83	2330.59
602.03	2185.18
602.22	2131.94
602.41	2363.36
602.60	2521.05
602.80	2324.44
602.99	2232.29
603.18	2242.53
603.37	2306.01
603.57	2301.92
603.76	2332.64
603.95	2273.25
604.14	2119.65
604.34	2162.66
604.53	2179.04
604.72	2283.49
604.91	2334.68
605.10	2209.76
605.30	2052.06
605.49	2398.17
605.68	2256.86
605.87	2234.33
606.07	2154.46
606.26	2166.75
606.45	2281.44
606.64	2242.53
606.84	2207.71
607.03	2224.09
607.22	2369.50
607.41	2217.95
607.60	2254.81
607.80	2287.58
607.99	2205.66
608.18	2250.72
608.37	2228.19
608.56	2185.18
608.76	2359.26
608.95	2369.50
609.14	2306.01
609.33	2400.22
609.52	2385.88
609.72	2346.97
609.91	2338.78
610.10	2336.73
610.29	2389.98
610.48	2363.36
610.68	2287.58
610.87	2260.96
611.06	2293.72
611.25	2191.33
611.44	2293.72
611.63	2203.61
611.83	2332.64
612.02	2070.50
612.21	2297.82
612.40	2066.40
612.59	2121.70
612.79	2144.22
612.98	2201.57
613.17	2394.08
613.36	2238.43
613.55	2359.26
613.74	2342.88
613.93	2353.12
614.13	2428.89
614.32	2480.09
614.51	2469.85
614.70	2383.84
614.89	2244.57
615.08	2392.03
615.28	2772.95
615.47	2224.09
615.66	2373.60
615.85	2250.72
616.04	2404.32
616.23	2273.25
616.42	2260.96
616.62	2275.29
616.81	2267.10
617.00	2265.05
617.19	2265.05
617.38	2158.56
617.57	2252.77
617.76	2316.25
617.95	2373.60
618.15	2285.53
618.34	2367.45
618.53	2107.36
618.72	2387.93
618.91	2269.15
619.10	2383.84
619.29	2205.66
619.48	2199.52
619.68	2062.30
619.87	2146.27
620.06	2148.32
620.25	2228.19
620.44	2189.28
620.63	2215.90
620.82	2258.91
621.01	2195.42
621.20	2220.00
621.39	2269.15
621.59	2267.10
621.78	2211.81
621.97	2285.53
622.16	2215.90
622.35	2217.95
622.54	2224.09
622.73	2279.39
622.92	2144.22
623.11	2318.30
623.30	2195.42
623.49	2232.29
623.68	2133.98
623.88	2359.26
624.07	2150.37
624.26	2154.46
624.45	2150.37
624.64	2174.94
624.83	2273.25
625.02	2201.57
625.21	2164.70
625.40	2250.72
625.59	2252.77
625.78	2277.34
625.97	2299.87
626.16	2381.79
626.35	2396.12
626.54	2269.15
626.74	2439.13
626.93	2293.72
627.12	2310.11
627.31	2396.12
627.50	2301.92
627.69	2236.38
627.88	2236.38
628.07	2166.75
628.26	2099.17
628.45	2146.27
628.64	2133.98
628.83	2240.48
629.02	2090.98
629.21	2265.05
629.40	2199.52
629.59	2176.99
629.78	2183.13
629.97	2183.13
630.16	2263.01
630.35	2185.18
630.54	2244.57
630.73	2076.64
630.92	2086.88
631.11	2078.69
631.30	2179.04
631.49	2310.11
631.68	2203.61
631.87	2269.15
632.06	2113.50
632.25	2402.27
632.44	2260.96
632.63	2265.05
632.82	2250.72
633.01	2220.00
633.20	2312.16
633.39	2205.66
633.58	2172.89
633.77	2301.92
633.96	2244.57
634.15	2295.77
634.34	2306.01
634.53	2203.61
634.72	2183.13
634.91	2058.21
635.10	2195.42
635.29	2308.06
635.48	2168.80
635.67	2054.11
635.86	2187.23
636.05	2426.84
636.24	2187.23
636.43	2230.24
636.62	2291.68
636.81	2074.59
637.00	2228.19
637.19	2308.06
637.38	2248.67
637.57	2185.18
637.76	2308.06
637.95	2293.72
638.14	2277.34
638.33	2359.26
638.52	2359.26
638.71	2211.81
638.89	2168.80
639.08	2531.29
639.27	2310.11
639.46	2416.60
639.65	2961.36
639.84	2891.73
640.03	3123.15
640.22	2985.94
640.41	2981.84
640.60	2557.91
640.79	2471.90
640.98	2443.23
641.17	2441.18
641.36	2412.51
641.55	2373.60
641.74	2328.54
641.92	2240.48
642.11	2179.04
642.30	2209.76
642.49	2099.17
642.68	2197.47
642.87	2215.90
643.06	2252.77
643.25	2224.09
643.44	2097.12
643.63	2162.66
643.82	2242.53
644.00	2097.12
644.19	2217.95
644.38	2113.50
644.57	2254.81
644.76	2230.24
644.95	2248.67
645.14	2156.51
645.33	2090.98
645.52	2213.85
645.71	2123.74
645.89	2117.60
646.08	2164.70
646.27	2086.88
646.46	2363.36
646.65	2129.89
646.84	2174.94
647.03	2187.23
647.22	2236.38
647.40	2230.24
647.59	2158.56
647.78	2093.02
647.97	2105.31
648.16	2129.89
648.35	2310.11
648.54	2258.91
648.73	2140.13
648.91	2252.77
649.10	2207.71
649.29	2162.66
649.48	2215.90
649.67	2217.95
649.86	2183.13
650.05	2295.77
650.23	2531.29
650.42	2281.44
650.61	2510.81
650.80	2455.51
650.99	2473.95
651.18	2422.75
651.36	2340.83
651.55	2240.48
651.74	2383.84
651.93	2193.37
652.12	2142.18
652.31	2244.57
652.49	2185.18
652.68	2172.89
652.87	2301.92
653.06	2207.71
653.25	2326.49
653.44	2271.20
653.62	2396.12
653.81	2150.37
654.00	2201.57
654.19	2240.48
654.38	2449.37
654.56	2248.67
654.75	2117.60
654.94	2357.21
655.13	2220.00
655.32	2222.05
655.51	2271.20
655.69	2074.59
655.88	2248.67
656.07	2123.74
656.26	2269.15
656.45	2119.65
656.63	2236.38
656.82	2179.04
657.01	2277.34
657.20	2183.13
657.38	2330.59
657.57	2209.76
657.76	2088.93
657.95	2324.44
658.14	2142.18
658.32	2252.77
658.51	2146.27
658.70	2248.67
658.89	2273.25
659.08	2193.37
659.26	2400.22
659.45	2170.85
659.64	2269.15
659.83	2226.14
660.01	2582.49
660.20	2291.68
660.39	2392.03
660.58	2023.39
660.76	2254.81
660.95	2136.03
661.14	2291.68
661.33	2062.30
661.51	2230.24
661.70	2127.84
661.89	2330.59
662.08	2183.13
662.26	2097.12
662.45	2140.13
662.64	2396.12
662.83	2248.67
663.01	2074.59
663.20	2191.33
663.39	2383.84
663.58	2217.95
663.76	2310.11
663.95	2254.81
664.14	2129.89
664.32	2123.74
664.51	2097.12
664.70	2039.78
664.89	2291.68
665.07	2080.74
665.26	2242.53
665.45	2076.64
665.64	2291.68
665.82	2127.84
666.01	2260.96
666.20	2213.85
666.38	2330.59
666.57	2506.71
666.76	3209.17
666.95	8032.13
667.13	16520.96
667.32	22181.55
667.51	25757.30
667.69	27838.04
667.88	25798.26
668.07	18218.73
668.25	14638.88
668.44	12066.63
668.63	10276.71
668.81	8992.63
669.00	7980.93
669.19	7112.60
669.38	6223.78
669.56	5363.63
669.75	4431.80
669.94	3776.45
670.12	3160.02
670.31	2699.22
670.50	2697.17
670.68	2523.10
670.87	2344.92
671.06	2283.49
671.24	2342.88
671.43	2441.18
671.62	2338.78
671.80	2217.95
671.99	2256.86
672.18	2195.42
672.36	2295.77
672.55	2295.77
672.74	2236.38
672.92	2209.76
673.11	2217.95
673.29	2054.11
673.48	2303.96
673.67	2174.94
673.85	2301.92
674.04	2176.99
674.23	2220.00
674.41	2373.60
674.60	2154.46
674.79	2121.70
674.97	2129.89
675.16	2281.44
675.34	2265.05
675.53	2119.65
675.72	2213.85
675.90	2459.61
676.09	2254.81
676.28	2179.04
676.46	2064.35
676.65	2281.44
676.83	2088.93
677.02	2265.05
677.21	2238.43
677.39	2242.53
677.58	2131.94
677.77	2203.61
677.95	2107.36
678.14	2158.56
678.32	2146.27
678.51	2187.23
678.70	2392.03
678.88	2146.27
679.07	2176.99
679.25	2244.57
679.44	2162.66
679.63	2088.93
679.81	2209.76
680.00	2338.78
680.18	2260.96
680.37	2344.92
680.55	2228.19
680.74	2074.59
680.93	2070.50
681.11	2220.00
681.30	2179.04
681.48	2226.14
681.67	2133.98
681.85	2197.47
682.04	2166.75
682.23	2301.92
682.41	2275.29
682.60	2154.46
682.78	2136.03
682.97	2125.79
683.15	2230.24
683.34	2334.68
683.53	2353.12
683.71	2084.83
683.90	2320.35
684.08	2342.88
684.27	2170.85
684.45	2220.00
684.64	2349.02
684.82	2232.29
685.01	2242.53
685.19	2174.94
685.38	2373.60
685.57	2240.48
685.75	2170.85
685.94	2129.89
686.12	2000.87
686.31	2103.26
686.49	2361.31
686.68	2031.58
686.86	2201.57
687.05	2193.37
687.23	2332.64
687.42	2203.61
687.60	2058.21
687.79	2308.06
687.97	2312.16
688.16	2306.01
688.34	2367.45
688.53	2047.97
688.71	2222.05
688.90	2353.12
689.08	2150.37
689.27	1996.77
689.45	2189.28
689.64	2297.82
689.82	2142.18
690.01	2324.44
690.19	2220.00
690.38	2179.04
690.56	2256.86
690.75	2142.18
690.93	2187.23
691.12	2152.42
691.30	2170.85
691.49	2211.81
691.67	2088.93
691.86	2326.49
692.04	2146.27
692.23	2226.14
692.41	2338.78
692.60	2445.27
692.78	2402.27
692.97	2269.15
693.15	2363.36
693.34	2473.95
693.52	2320.35
693.71	2166.75
693.89	2228.19
694.08	2080.74
694.26	2273.25
694.44	2369.50
694.63	2170.85
694.81	2119.65
695.00	2138.08
695.18	2271.20
695.37	2414.56
695.55	2201.57
695.74	2220.00
695.92	2088.93
696.10	2320.35
696.29	2086.88
696.47	2179.04
696.66	2121.70
696.84	2117.60
697.03	2193.37
697.21	2373.60
697.40	3213.26
697.58	2265.05
697.76	2207.71
697.95	2152.42
698.13	2181.09
698.32	2121.70
698.50	2314.20
698.68	2334.68
698.87	2146.27
699.05	2418.65
699.24	2152.42
699.42	2185.18
699.61	2195.42
699.79	2258.91
699.97	2254.81
700.16	2113.50
700.34	2080.74
700.53	2185.18
700.71	2328.54
700.89	2230.24
701.08	2195.42
701.26	2252.77
701.45	2736.09
701.63	2131.94
701.81	2136.03
702.00	2166.75
702.18	2246.62
702.37	2224.09
702.55	2463.71
702.73	2498.52
702.92	2297.82
703.10	2508.76
703.28	2525.15
703.47	2308.06
703.65	2457.56
703.84	2445.27
704.02	2242.53
704.20	2404.32
704.39	2127.84
704.57	2217.95
704.75	2334.68
704.94	2293.72
705.12	2277.34
705.30	2471.90
705.49	4431.80
705.67	10872.67
705.86	20215.50
706.04	24434.32
706.22	27930.20
706.41	29347.39
706.59	24872.58
706.77	17846.00
706.96	14720.80
707.14	12635.97
707.32	10833.75
707.51	9756.52
707.69	8103.81
707.87	6424.48
708.06	5308.34
708.24	4075.46
708.42	3332.05
708.61	3047.38
708.79	2379.74
708.97	2365.40
709.16	2357.21
709.34	2281.44
709.52	2168.80
709.71	2191.33
709.89	2281.44
710.07	2109.41
710.26	2123.74
710.44	2127.84
710.62	2285.53
710.80	2146.27
710.99	2207.71
711.17	2312.16
711.35	2156.51
711.54	2084.83
711.72	2301.92
711.90	2226.14
712.09	2211.81
712.27	2158.56
712.45	2226.14
712.63	2207.71
712.82	2193.37
713.00	2201.57
713.18	2260.96
713.37	2291.68
713.55	2277.34
713.73	2236.38
713.91	2295.77
714.10	2121.70
714.28	2217.95
714.46	2271.20
714.65	2299.87
714.83	2189.28
715.01	2232.29
715.19	2207.71
715.38	2117.60
715.56	2246.62
715.74	2166.75
715.92	2138.08
716.11	2277.34
716.29	2084.83
716.47	2209.76
716.65	2193.37
716.84	2084.83
717.02	2324.44
717.20	2129.89
717.38	2111.46
717.57	2205.66
717.75	2195.42
717.93	2121.70
718.11	2220.00
718.30	2068.45
718.48	2244.57
718.66	2355.16
718.84	2242.53
719.03	2228.19
719.21	2099.17
719.39	2297.82
719.57	2310.11
719.75	2267.10
719.94	2115.55
720.12	2174.94
720.30	2293.72
720.48	2234.33
720.67	2068.45
720.85	2086.88
721.03	2146.27
721.21	2170.85
721.39	2211.81
721.58	2236.38
721.76	2193.37
721.94	2220.00
722.12	2226.14
722.30	2308.06
722.49	2168.80
722.67	2234.33
722.85	2267.10
723.03	2037.73
723.21	2117.60
723.40	2232.29
723.58	2256.86
723.76	2289.63
723.94	2363.36
724.12	2281.44
724.30	2387.93
724.49	2377.69
724.67	2172.89
724.85	2402.27
725.03	2113.50
725.21	2330.59
725.40	2236.38
725.58	2176.99
725.76	2263.01
725.94	2187.23
726.12	2162.66
726.30	2197.47
726.49	2058.21
726.67	2127.84
726.85	2240.48
727.03	2564.06
727.21	3702.73
727.39	5500.84
727.57	6584.22
727.76	7272.34
727.94	7747.47
728.12	7339.92
728.30	5855.14
728.48	4913.08
728.66	4431.80
728.84	4118.47
729.03	3465.16
729.21	3094.48
729.39	2781.14
729.57	2449.37
729.75	2398.17
729.93	2328.54
730.11	2246.62
730.30	2260.96
730.48	2281.44
730.66	2365.40
730.84	2263.01
731.02	2115.55
731.20	2144.22
731.38	2228.19
731.56	2095.07
731.74	2138.08
731.93	2209.76
732.11	2189.28
732.29	2095.07
732.47	2226.14
732.65	2174.94
732.83	2398.17
733.01	2185.18
733.19	2142.18
733.37	2285.53
733.56	2295.77
733.74	2211.81
733.92	2293.72
734.10	2144.22
734.28	2162.66
734.46	2023.39
734.64	2144.22
734.82	2199.52
735.00	2166.75
735.18	2123.74
735.36	2162.66
735.54	2136.03
735.73	2162.66
735.91	2127.84
736.09	2258.91
736.27	2181.09
736.45	2220.00
736.63	2060.26
736.81	2097.12
736.99	2275.29
737.17	2277.34
737.35	2138.08
737.53	2187.23
737.71	2152.42
737.89	2318.30
738.07	2127.84
738.25	2119.65
738.43	2097.12
738.61	2199.52
738.80	2111.46
738.98	2103.26
739.16	2176.99
739.34	2162.66
739.52	2306.01
739.70	2199.52
739.88	2252.77
740.06	2351.07
740.24	2043.87
740.42	2289.63
740.60	2039.78
740.78	2117.60
740.96	2052.06
741.14	2136.03
741.32	2129.89
741.50	2019.30
741.68	2389.98
741.86	2324.44
742.04	2090.98
742.22	2121.70
742.40	2244.57
742.58	2070.50
742.76	2060.26
742.94	2324.44
743.12	2144.22
743.30	2220.00
743.48	2326.49
743.66	2189.28
743.84	2211.81
744.02	2203.61
744.20	2224.09
744.38	2097.12
744.56	2138.08
744.74	2389.98
744.92	2224.09
745.10	2283.49
745.28	2293.72
745.46	2336.73
745.64	2117.60
745.82	2306.01
746.00	2144.22
746.18	2324.44
746.36	2168.80
746.54	2191.33
746.72	2303.96
746.90	2056.16
747.08	2324.44
747.26	2154.46
747.44	2334.68
747.62	2254.81
747.80	2207.71
747.98	2295.77
748.15	2181.09
748.33	2394.08
748.51	2244.57
748.69	2312.16
748.87	2160.61
749.05	2172.89
749.23	2215.90
749.41	2310.11
749.59	2148.32
749.77	2269.15
749.95	2164.70
750.13	2105.31
750.31	2279.39
750.49	2193.37
750.67	2199.52
750.85	2344.92
751.03	2195.42
751.20	2381.79
751.38	2236.38
751.56	2111.46
751.74	2256.86
751.92	2156.51
752.10	2047.97
752.28	2346.97
752.46	2183.13
752.64	2162.66
752.82	2150.37
753.00	2412.51
753.18	2199.52
753.35	2224.09
753.53	2189.28
753.71	2174.94
753.89	2256.86
754.07	2236.38
754.25	2310.11
754.43	2240.48
754.61	2121.70
754.79	2340.83
754.97	2260.96
755.14	2320.35
755.32	2119.65
755.50	2176.99
755.68	2209.76
755.86	2136.03
756.04	2088.93
756.22	2041.82
756.40	2267.10
756.57	2392.03
756.75	2191.33
756.93	2234.33
757.11	2220.00
757.29	2050.02
757.47	2070.50
757.65	2052.06
757.82	2011.11
758.00	2150.37
758.18	2133.98
758.36	2129.89
758.54	2308.06
758.72	2054.11
758.90	2283.49
759.07	2181.09
759.25	2168.80
759.43	2207.71
759.61	2129.89
759.79	2965.46
759.97	2250.72
760.15	2111.46
760.32	2093.02
760.50	2181.09
760.68	2359.26
760.86	2062.30
761.04	2269.15
761.22	2193.37
761.39	2215.90
761.57	2248.67
761.75	2203.61
761.93	2252.77
762.11	2179.04
762.28	2211.81
762.46	2068.45
762.64	2256.86
762.82	2113.50
763.00	2138.08
763.18	2330.59
763.35	2121.70
763.53	2287.58
763.71	2279.39
763.89	2150.37
764.07	2201.57
764.24	2271.20
764.42	2287.58
764.60	2150.37
764.78	2248.67
764.96	2273.25
765.13	2330.59
765.31	2174.94
765.49	2179.04
765.67	2203.61
765.84	2142.18
766.02	2150.37
766.20	2011.11
766.38	2211.81
766.56	2207.71
766.73	2254.81
766.91	2162.66
767.09	2191.33
767.27	2248.67
767.44	2086.88
767.62	2248.67
767.80	2232.29
767.98	2168.80
768.15	2205.66
768.33	2228.19
768.51	2236.38
768.69	2248.67
768.87	2232.29
769.04	2197.47
769.22	2406.36
769.40	2408.41
769.58	2383.84
769.75	2220.00
769.93	2363.36
770.11	2154.46
770.28	2095.07
770.46	2236.38
770.64	2133.98
770.82	2144.22
770.99	2224.09
771.17	2191.33
771.35	2160.61
771.53	2242.53
771.70	2142.18
771.88	2222.05
772.06	2148.32
772.23	2148.32
772.41	2275.29
772.59	2148.32
772.77	2152.42
772.94	2174.94
773.12	2211.81
773.30	2158.56
773.47	2260.96
773.65	2109.41
773.83	2297.82
774.01	2111.46
774.18	2011.11
774.36	2158.56
774.54	2090.98
774.71	2185.18
774.89	2002.91
775.07	2142.18
775.24	2140.13
775.42	2136.03
775.60	2365.40
775.78	2133.98
775.95	2113.50
776.13	2095.07
776.31	1972.19
776.48	2183.13
776.66	2322.40
776.84	2162.66
777.01	2136.03
777.19	2131.94
777.37	2017.25
777.54	2299.87
777.72	2387.93
777.90	2279.39
778.07	2152.42
778.25	2527.19
778.43	2201.57
778.60	2174.94
778.78	2176.99
778.96	2297.82
779.13	2101.22
779.31	2222.05
779.49	2082.78
779.66	2164.70
779.84	2146.27
780.01	2105.31
780.19	2047.97
780.37	2258.91
780.54	2220.00
780.72	2117.60
780.90	2107.36
781.07	2283.49
781.25	2160.61
781.43	2277.34
781.60	2131.94
781.78	2291.68
781.95	2281.44
782.13	2142.18
782.31	2191.33
782.48	2035.68
782.66	2174.94
782.83	2340.83
783.01	2181.09
783.19	2277.34
783.36	2131.94
783.54	2101.22
783.72	2332.64
783.89	2099.17
784.07	2209.76
784.24	2252.77
784.42	2283.49
784.60	2201.57
784.77	2236.38
784.95	2076.64
785.12	2162.66
785.30	2172.89
785.47	2197.47
785.65	2095.07
785.83	2125.79
786.00	2195.42
786.18	2236.38
786.35	2090.98
786.53	2127.84
786.71	2224.09
786.88	2283.49
787.06	2267.10
787.23	2203.61
787.41	2086.88
787.58	2142.18
787.76	2105.31
787.94	2224.09
788.11	2252.77
788.29	2099.17
788.46	2099.17
788.64	2027.49
788.81	2103.26
788.99	2181.09
789.16	2093.02
789.34	2244.57
789.52	2117.60
789.69	2170.85
789.87	2054.11
790.04	2226.14
790.22	2201.57
790.39	2359.26
790.57	2113.50
790.74	2052.06
790.92	2271.20
791.09	2039.78
791.27	2205.66
791.44	2254.81
791.62	2195.42
791.79	2228.19
791.97	2191.33
792.15	2488.28
792.32	2273.25
792.50	2252.77
792.67	2367.45
792.85	2265.05
793.02	2138.08
793.20	2109.41
793.37	2109.41
793.55	2117.60
793.72	2037.73
793.90	2242.53
794.07	2158.56
794.25	2101.22
794.42	2197.47
794.60	2115.55
794.77	2224.09
794.95	2330.59
795.12	2193.37
795.30	2170.85
795.47	1953.76
795.65	2467.80
795.82	2174.94
796.00	2156.51
796.17	2131.94
796.34	2185.18
796.52	2150.37
796.69	2344.92
796.87	2289.63
797.04	2281.44
797.22	2301.92
797.39	2174.94
797.57	2258.91
797.74	2170.85
797.92	2154.46
798.09	2121.70
798.27	2281.44
798.44	2189.28
798.62	2107.36
798.79	2246.62
798.96	2246.62
799.14	2273.25
799.31	2420.70
799.49	2215.90
799.66	2189.28
799.84	2234.33
800.01	2084.83
800.19	2238.43
800.36	2021.35
800.53	2140.13
800.71	2242.53
800.88	2373.60
801.06	2138.08
801.23	2152.42
801.41	2203.61
801.58	2088.93
801.75	2195.42
801.93	2217.95
802.10	2289.63
802.28	2088.93
802.45	2209.76
802.63	2220.00
802.80	2250.72
802.97	2199.52
803.15	2226.14
803.32	2197.47
803.50	2119.65
803.67	2154.46
803.84	2035.68
804.02	2113.50
804.19	2172.89
804.37	1943.52
804.54	2021.35
804.71	2148.32
804.89	2252.77
805.06	2095.07
805.24	2176.99
805.41	2066.40
805.58	2056.16
805.76	2486.23
805.93	2187.23
806.10	2330.59
806.28	2269.15
806.45	2193.37
806.63	2183.13
806.80	2226.14
806.97	2236.38
807.15	2189.28
807.32	2187.23
807.49	2121.70
807.67	2109.41
807.84	2176.99
808.01	2054.11
808.19	2385.88
808.36	2463.71
808.54	2179.04
808.71	2152.42
808.88	2181.09
809.06	2275.29
809.23	2375.64
809.40	2105.31
809.58	2277.34
809.75	2144.22
809.92	2199.52
810.10	2375.64
810.27	2162.66
810.44	2168.80
810.62	2281.44
810.79	2162.66
810.96	2244.57
811.14	2164.70
811.31	2240.48
811.48	2265.05
811.66	2189.28
811.83	2277.34
812.00	2213.85
812.18	2224.09
812.35	2349.02
812.52	2168.80
812.69	2125.79
812.87	2174.94
813.04	2136.03
813.21	2150.37
813.39	2136.03
813.56	2117.60
813.73	2273.25
813.91	2095.07
814.08	2166.75
814.25	2217.95
814.42	2088.93
814.60	2152.42
814.77	2209.76
814.94	2205.66
815.12	2224.09
815.29	2414.56
815.46	2203.61
815.63	2166.75
815.81	2201.57
815.98	2156.51
816.15	2162.66
816.33	2160.61
816.50	2170.85
816.67	2197.47
816.84	2166.75
817.02	2136.03
817.19	2148.32
817.36	2263.01
817.53	2324.44
817.71	2076.64
817.88	2277.34
818.05	2179.04
818.22	2125.79
818.40	2336.73
818.57	2117.60
818.74	2232.29
818.91	2179.04
819.09	2244.57
819.26	2222.05
819.43	2090.98
819.60	2191.33
819.78	2236.38
819.95	2308.06
820.12	2121.70
820.29	2344.92
820.47	2318.30
820.64	2109.41
820.81	2043.87
820.98	2080.74
821.15	2093.02
821.33	2301.92
821.50	1998.82
821.67	2215.90
821.84	2080.74
822.02	2140.13
822.19	2303.96
822.36	2160.61
822.53	2148.32
822.70	2052.06
822.88	2129.89
823.05	2363.36
823.22	2168.80
823.39	2256.86
823.56	2123.74
823.74	2310.11
823.91	2029.54
824.08	2056.16
824.25	2058.21
824.42	2283.49
824.60	2029.54
824.77	2189.28
824.94	2129.89
825.11	2193.37
825.28	2041.82
825.45	2271.20
825.63	2236.38
825.80	2095.07
825.97	2228.19
826.14	2154.46
826.31	2088.93
826.48	2203.61
826.66	2144.22
826.83	2164.70
827.00	2174.94
827.17	2045.92
827.34	2228.19
827.51	2111.46
827.69	2174.94
827.86	2064.35
828.03	2170.85
828.20	2138.08
828.37	2111.46
828.54	2236.38
828.71	2125.79
828.89	2340.83
829.06	2174.94
829.23	2336.73
829.40	2119.65
829.57	2027.49
829.74	2254.81
829.91	2140.13
830.09	2138.08
830.26	2191.33
830.43	2359.26
830.60	2183.13
830.77	2217.95
830.94	2258.91
831.11	2269.15
831.28	2144.22
831.46	2273.25
831.63	2129.89
831.80	2322.40
831.97	2142.18
832.14	2176.99
832.31	2207.71
832.48	2240.48
832.65	2338.78
832.82	2160.61
832.99	2209.76
833.17	2088.93
833.34	2273.25
833.51	2148.32
833.68	2072.54
833.85	2238.43
834.02	2035.68
834.19	2140.13
834.36	2142.18
834.53	2217.95
834.70	2250.72
834.87	2238.43
835.04	2101.22
835.22	2076.64
835.39	2185.18
835.56	2121.70
835.73	2226.14
835.90	2287.58
836.07	2158.56
836.24	2277.34
836.41	2056.16
836.58	2072.54
836.75	2220.00
836.92	2211.81
837.09	2131.94
837.26	2244.57
837.43	2205.66
837.60	2191.33
837.77	2179.04
837.94	2244.57
838.12	2291.68
838.29	2068.45
838.46	2056.16
838.63	2111.46
838.80	2349.02
838.97	2162.66
839.14	2068.45
839.31	2209.76
839.48	2265.05
839.65	2148.32
839.82	2220.00
839.99	2226.14
840.16	2285.53
840.33	2166.75
840.50	2152.42
840.67	2097.12
840.84	1957.86
841.01	2263.01
841.18	2070.50
841.35	2205.66
841.52	2220.00
841.69	2340.83
841.86	2129.89
842.03	2172.89
842.20	2236.38
842.37	2154.46
842.54	2156.51
842.71	2133.98
842.88	2058.21
843.05	2246.62
843.22	2197.47
843.39	2349.02
843.56	2158.56
843.73	2176.99
843.90	2205.66
844.07	2203.61
844.24	2195.42
844.41	2267.10
844.58	2230.24
844.75	2222.05
844.92	2203.61
845.09	2105.31
845.26	2084.83
845.43	2263.01
845.60	2209.76
845.77	2308.06
845.94	2146.27
846.10	2283.49
846.27	2056.16
846.44	2031.58
846.61	2129.89
846.78	2260.96
846.95	2215.90
847.12	2136.03
847.29	2097.12
847.46	2111.46
847.63	2256.86
847.80	2103.26
847.97	2150.37
848.14	2375.64
848.31	2129.89
848.48	2056.16
848.65	2195.42
848.82	2084.83
848.98	2441.18
849.15	2291.68
849.32	2299.87
849.49	2244.57
849.66	2234.33
849.83	2054.11
850.00	2019.30
850.17	2217.95
850.34	2138.08
850.51	2142.18
850.68	2105.31
850.85	2424.80
851.01	2191.33
851.18	2117.60
851.35	2052.06
851.52	2215.90
851.69	2383.84
851.86	2015.20
852.03	2166.75
852.20	2277.34
852.37	2205.66
852.53	1982.43
852.70	2226.14
852.87	2230.24
853.04	2234.33
853.21	2158.56
853.38	2228.19
853.55	2344.92
853.72	2306.01
853.89	2127.84
854.05	2146.27
854.22	2113.50
854.39	2125.79
854.56	2162.66
854.73	2224.09
854.90	2084.83
855.07	2170.85
855.23	2072.54
855.40	2158.56
855.57	2246.62
855.74	2000.87
855.91	2377.69
856.08	2119.65
856.25	2070.50
856.41	2166.75
856.58	2109.41
856.75	2133.98
856.92	2093.02
857.09	2228.19
857.26	2113.50
857.42	2154.46
857.59	2281.44
857.76	2117.60
857.93	2101.22
858.10	2244.57
858.27	2133.98
858.43	2226.14
858.60	2127.84
858.77	2090.98
858.94	2215.90
859.11	2252.77
859.27	2121.70
859.44	2093.02
859.61	2410.46
859.78	2269.15
859.95	2142.18
860.12	2072.54
860.28	2430.94
860.45	2349.02
860.62	2111.46
860.79	2226.14
860.95	2224.09
861.12	2197.47
861.29	2080.74
861.46	2095.07
861.63	2185.18
861.79	2207.71
861.96	2035.68
862.13	2062.30
862.30	2330.59
862.47	2101.22
862.63	2103.26
862.80	2209.76
862.97	2232.29
863.14	2189.28
863.30	2199.52
863.47	2121.70
863.64	2330.59
863.81	2222.05
863.97	2082.78
864.14	2220.00
864.31	2170.85
864.48	2254.81
864.65	2109.41
864.81	2238.43
864.98	2275.29
865.15	2338.78
865.32	2252.77
865.48	2220.00
865.65	2299.87
865.82	2140.13
865.98	2211.81
866.15	2205.66
866.32	2136.03
866.49	2136.03
866.65	2279.39
866.82	2062.30
866.99	2240.48
867.16	2068.45
867.32	2170.85
867.49	2138.08
867.66	2156.51
867.83	2101.22
867.99	2060.26
868.16	2088.93
868.33	2086.88
868.49	2179.04
868.66	2172.89
868.83	2213.85
868.99	2211.81
869.16	2195.42
869.33	2228.19
869.50	2263.01
869.66	2183.13
869.83	2201.57
870.00	2109.41
870.16	2240.48
870.33	2154.46
870.50	2260.96
870.66	2154.46
870.83	2275.29
871.00	2125.79
871.17	2254.81
871.33	2176.99
871.50	2170.85
871.67	2129.89
871.83	2054.11
872.00	2258.91
872.17	2133.98
872.33	2375.64
872.50	2293.72
872.67	2226.14
872.83	2123.74
873.00	2152.42
873.17	2090.98
873.33	2228.19
873.50	2193.37
873.67	2088.93
873.83	2140.13
874.00	2174.94
874.16	2293.72
874.33	2174.94
874.50	2129.89
874.66	2176.99
874.83	2138.08
875.00	2303.96
875.16	2281.44
875.33	2185.18
875.50	2029.54
875.66	2209.76
875.83	2224.09
875.99	2238.43
876.16	2123.74
876.33	2168.80
876.49	2248.67
876.66	2146.27
876.83	2060.26
876.99	2031.58
877.16	2199.52
877.32	2176.99
877.49	2215.90
877.66	2189.28
877.82	2346.97
877.99	2146.27
878.15	2269.15
878.32	2213.85
878.49	2064.35
878.65	2103.26
878.82	2277.34
878.98	2146.27
879.15	2363.36
879.32	2199.52
879.48	2220.00
879.65	2078.69
879.81	2170.85
879.98	2158.56
880.15	2088.93
880.31	2211.81
880.48	2070.50
880.64	2211.81
880.81	2207.71
880.97	2344.92
881.14	2299.87
881.31	2076.64
881.47	2326.49
881.64	2117.60
881.80	2058.21
881.97	2156.51
882.13	2170.85
882.30	2101.22
882.47	2109.41
882.63	2111.46
882.80	2172.89
882.96	2129.89
883.13	2310.11
883.29	2093.02
883.46	2074.59
883.62	2389.98
883.79	2224.09
883.95	2220.00
884.12	2174.94
884.29	2365.40
884.45	2195.42
884.62	2179.04
884.78	2185.18
884.95	2359.26
885.11	2185.18
885.28	2185.18
885.44	2142.18
885.61	2244.57
885.77	2295.77
885.94	2215.90
886.10	2131.94
886.27	2193.37
886.43	2349.02
886.60	2277.34
886.76	2119.65
886.93	2152.42
887.09	2205.66
887.26	2047.97
887.42	2162.66
887.59	2254.81
887.75	2455.51
887.92	2269.15
888.08	2207.71
888.25	2324.44
888.41	2191.33
888.58	2205.66
888.74	2099.17
888.91	2199.52
>>>>>End Processed Spectral Data<<<<<
