SpectraSuite Data File
++++++++++++++++++++++++++++++++++++
Date: Thu May 05 12:35:44 CEST 2016
User: root
Dark Spectrum Present: No
Reference Spectrum Present: No
Number of Sampled Component Spectra: 1
Spectrometers: USB4C02835
Integration Time (usec): 100000 (USB4C02835)
Spectra Averaged: 1 (USB4C02835)
Boxcar Smoothing: 0 (USB4C02835)
Correct for Electrical Dark: No (USB4C02835)
Strobe/Lamp Enabled: No (USB4C02835)
Correct for Detector Non-linearity: No (USB4C02835)
Correct for Stray Light: No (USB4C02835)
Number of Pixels in Processed Spectrum: 3648
>>>>>Begin Processed Spectral Data<<<<<
177.47	1781.73
177.69	1781.73
177.91	1781.73
178.13	1777.64
178.36	1806.31
178.58	2119.65
178.80	2199.52
179.02	2078.69
179.24	2119.65
179.46	2115.55
179.68	2084.83
179.90	2244.57
180.13	2168.80
180.35	2007.01
180.57	2101.22
180.79	2236.38
181.01	2146.27
181.23	2197.47
181.45	2258.91
181.67	2215.90
181.90	2254.81
182.12	2138.08
182.34	2050.02
182.56	2203.61
182.78	2232.29
183.00	2093.02
183.22	2195.42
183.44	2002.91
183.66	2412.51
183.89	2287.58
184.11	2144.22
184.33	2240.48
184.55	2306.01
184.77	2217.95
184.99	2109.41
185.21	2093.02
185.43	2439.13
185.65	2133.98
185.87	2158.56
186.10	2381.79
186.32	2432.99
186.54	2162.66
186.76	2228.19
186.98	2334.68
187.20	2088.93
187.42	2101.22
187.64	2101.22
187.86	2334.68
188.08	2260.96
188.30	2058.21
188.52	2144.22
188.75	2314.20
188.97	2326.49
189.19	2121.70
189.41	2136.03
189.63	2316.25
189.85	2168.80
190.07	2113.50
190.29	2023.39
190.51	2306.01
190.73	2109.41
190.95	2232.29
191.17	2138.08
191.39	2103.26
191.61	2164.70
191.84	2140.13
192.06	2195.42
192.28	2062.30
192.50	2539.48
192.72	2179.04
192.94	2172.89
193.16	2383.84
193.38	2238.43
193.60	2060.26
193.82	2099.17
194.04	2265.05
194.26	2256.86
194.48	2082.78
194.70	2125.79
194.92	2174.94
195.14	2224.09
195.36	2113.50
195.58	2142.18
195.80	2179.04
196.02	2146.27
196.24	2250.72
196.46	2150.37
196.69	2086.88
196.91	2449.37
197.13	2052.06
197.35	2136.03
197.57	2269.15
197.79	2234.33
198.01	2154.46
198.23	2125.79
198.45	2291.68
198.67	2070.50
198.89	2093.02
199.11	2160.61
199.33	2125.79
199.55	2027.49
199.77	2129.89
199.99	2287.58
200.21	2095.07
200.43	2195.42
200.65	2043.87
200.87	2019.30
201.09	2236.38
201.31	2226.14
201.53	2101.22
201.75	2179.04
201.97	2240.48
202.19	2217.95
202.41	2193.37
202.63	2301.92
202.85	2281.44
203.07	2240.48
203.29	2138.08
203.51	2078.69
203.73	2127.84
203.95	2449.37
204.17	2133.98
204.39	2152.42
204.61	2109.41
204.83	2140.13
205.05	2215.90
205.27	2220.00
205.49	2383.84
205.71	2201.57
205.93	2052.06
206.15	2072.54
206.37	2168.80
206.59	2260.96
206.81	2062.30
207.03	2039.78
207.25	2220.00
207.47	2248.67
207.69	2168.80
207.91	2332.64
208.13	2398.17
208.34	2179.04
208.56	2027.49
208.78	2158.56
209.00	2199.52
209.22	2146.27
209.44	2148.32
209.66	2088.93
209.88	2193.37
210.10	2195.42
210.32	2068.45
210.54	2234.33
210.76	2193.37
210.98	2293.72
211.20	1916.90
211.42	2191.33
211.64	2306.01
211.86	2226.14
212.08	2211.81
212.30	2183.13
212.52	2168.80
212.74	2211.81
212.96	2170.85
213.17	2203.61
213.39	2375.64
213.61	2439.13
213.83	2179.04
214.05	2150.37
214.27	2265.05
214.49	2054.11
214.71	2056.16
214.93	2226.14
215.15	2228.19
215.37	2389.98
215.59	2031.58
215.81	2213.85
216.03	2297.82
216.24	2183.13
216.46	2138.08
216.68	2121.70
216.90	2238.43
217.12	2275.29
217.34	2109.41
217.56	2199.52
217.78	2318.30
218.00	2232.29
218.22	2150.37
218.44	2236.38
218.66	2168.80
218.87	2400.22
219.09	2138.08
219.31	2230.24
219.53	2263.01
219.75	2148.32
219.97	2138.08
220.19	2144.22
220.41	2154.46
220.63	2322.40
220.85	2162.66
221.06	2093.02
221.28	2273.25
221.50	2293.72
221.72	2160.61
221.94	2080.74
222.16	2236.38
222.38	2281.44
222.60	2136.03
222.82	2201.57
223.03	2295.77
223.25	2162.66
223.47	2156.51
223.69	2260.96
223.91	2275.29
224.13	2252.77
224.35	2154.46
224.57	2275.29
224.78	2277.34
225.00	2103.26
225.22	2185.18
225.44	2088.93
225.66	2295.77
225.88	2166.75
226.10	2162.66
226.32	2197.47
226.53	2340.83
226.75	2146.27
226.97	2066.40
227.19	2162.66
227.41	2097.12
227.63	2156.51
227.85	2029.54
228.06	2176.99
228.28	2224.09
228.50	2220.00
228.72	2068.45
228.94	2054.11
229.16	2023.39
229.37	2060.26
229.59	2039.78
229.81	2267.10
230.03	2144.22
230.25	2054.11
230.47	1966.05
230.69	2127.84
230.90	2191.33
231.12	2097.12
231.34	2140.13
231.56	2236.38
231.78	2011.11
232.00	2185.18
232.21	2162.66
232.43	2082.78
232.65	2043.87
232.87	2168.80
233.09	2027.49
233.30	2099.17
233.52	2306.01
233.74	2250.72
233.96	2111.46
234.18	2191.33
234.40	2183.13
234.61	2387.93
234.83	2029.54
235.05	2058.21
235.27	2439.13
235.49	2275.29
235.70	2060.26
235.92	2172.89
236.14	2250.72
236.36	2461.66
236.58	2056.16
236.79	2217.95
237.01	2260.96
237.23	2148.32
237.45	2322.40
237.67	2101.22
237.88	2283.49
238.10	2375.64
238.32	2086.88
238.54	2146.27
238.76	2232.29
238.97	2062.30
239.19	2045.92
239.41	2179.04
239.63	2318.30
239.85	2088.93
240.06	2138.08
240.28	2007.01
240.50	2318.30
240.72	2217.95
240.93	2144.22
241.15	2230.24
241.37	2244.57
241.59	2293.72
241.81	2211.81
242.02	2066.40
242.24	2234.33
242.46	2240.48
242.68	2142.18
242.89	2168.80
243.11	2248.67
243.33	2129.89
243.55	2140.13
243.76	2109.41
243.98	2074.59
244.20	2166.75
244.42	2078.69
244.64	2166.75
244.85	2095.07
245.07	2052.06
245.29	2123.74
245.51	2160.61
245.72	2215.90
245.94	2254.81
246.16	2117.60
246.38	2174.94
246.59	2170.85
246.81	2093.02
247.03	2060.26
247.24	2039.78
247.46	2121.70
247.68	2172.89
247.90	2054.11
248.11	2050.02
248.33	2281.44
248.55	2228.19
248.77	2170.85
248.98	2176.99
249.20	2269.15
249.42	2176.99
249.64	2166.75
249.85	2142.18
250.07	2127.84
250.29	2228.19
250.50	2185.18
250.72	2109.41
250.94	2252.77
251.16	2308.06
251.37	2144.22
251.59	2232.29
251.81	2275.29
252.02	2379.74
252.24	2084.83
252.46	2201.57
252.68	2138.08
252.89	2109.41
253.11	1990.63
253.33	2244.57
253.54	2324.44
253.76	2086.88
253.98	2062.30
254.20	2160.61
254.41	2070.50
254.63	2265.05
254.85	1996.77
255.06	2183.13
255.28	2170.85
255.50	2154.46
255.71	2142.18
255.93	2072.54
256.15	2127.84
256.36	2297.82
256.58	2119.65
256.80	2103.26
257.02	2187.23
257.23	2103.26
257.45	2140.13
257.67	2191.33
257.88	2230.24
258.10	2242.53
258.32	2179.04
258.53	2140.13
258.75	2324.44
258.97	2103.26
259.18	2133.98
259.40	2148.32
259.62	2349.02
259.83	2242.53
260.05	2131.94
260.27	2619.35
260.48	2285.53
260.70	2107.36
260.92	2131.94
261.13	2201.57
261.35	2176.99
261.57	2148.32
261.78	2029.54
262.00	2088.93
262.22	2236.38
262.43	2144.22
262.65	2103.26
262.86	2150.37
263.08	2385.88
263.30	2256.86
263.51	1992.67
263.73	2105.31
263.95	2308.06
264.16	2086.88
264.38	2035.68
264.60	2217.95
264.81	2174.94
265.03	2297.82
265.25	2258.91
265.46	2146.27
265.68	2334.68
265.89	2285.53
266.11	2090.98
266.33	2078.69
266.54	2310.11
266.76	2195.42
266.98	2248.67
267.19	2232.29
267.41	2308.06
267.62	2164.70
267.84	1992.67
268.06	2254.81
268.27	2215.90
268.49	2301.92
268.70	2189.28
268.92	2133.98
269.14	2133.98
269.35	2084.83
269.57	2222.05
269.79	2099.17
270.00	2045.92
270.22	2316.25
270.43	2097.12
270.65	2056.16
270.87	2232.29
271.08	2220.00
271.30	2201.57
271.51	2146.27
271.73	2220.00
271.95	2332.64
272.16	2197.47
272.38	2113.50
272.59	2127.84
272.81	2273.25
273.02	2152.42
273.24	2156.51
273.46	2183.13
273.67	2109.41
273.89	2047.97
274.10	2117.60
274.32	2332.64
274.54	2160.61
274.75	2217.95
274.97	2136.03
275.18	2314.20
275.40	2224.09
275.61	2187.23
275.83	2258.91
276.05	2074.59
276.26	2168.80
276.48	2195.42
276.69	2113.50
276.91	2103.26
277.12	2297.82
277.34	2279.39
277.55	2226.14
277.77	2228.19
277.99	2105.31
278.20	2072.54
278.42	2068.45
278.63	2172.89
278.85	2099.17
279.06	2133.98
279.28	2248.67
279.49	2230.24
279.71	2283.49
279.93	2228.19
280.14	2127.84
280.36	2156.51
280.57	2197.47
280.79	2344.92
281.00	2117.60
281.22	2101.22
281.43	2322.40
281.65	2000.87
281.86	2105.31
282.08	2258.91
282.29	2336.73
282.51	1974.24
282.73	2078.69
282.94	2045.92
283.16	2250.72
283.37	2367.45
283.59	2088.93
283.80	2195.42
284.02	2217.95
284.23	2213.85
284.45	2142.18
284.66	2162.66
284.88	2039.78
285.09	2224.09
285.31	2285.53
285.52	2172.89
285.74	2093.02
285.95	2226.14
286.17	2150.37
286.38	2250.72
286.60	2127.84
286.81	2136.03
287.03	2170.85
287.24	2222.05
287.46	2248.67
287.67	2179.04
287.89	2310.11
288.10	2150.37
288.32	2199.52
288.53	2312.16
288.75	2156.51
288.96	2322.40
289.18	2166.75
289.39	2101.22
289.61	2205.66
289.82	2439.13
290.04	2363.36
290.25	2052.06
290.47	2144.22
290.68	2209.76
290.90	2232.29
291.11	2039.78
291.33	2277.34
291.54	2144.22
291.76	2199.52
291.97	2248.67
292.18	2209.76
292.40	2174.94
292.61	2093.02
292.83	2371.55
293.04	2234.33
293.26	2242.53
293.47	2133.98
293.69	2119.65
293.90	2111.46
294.12	2293.72
294.33	2123.74
294.55	2136.03
294.76	2316.25
294.97	2308.06
295.19	2428.89
295.40	2054.11
295.62	2201.57
295.83	2265.05
296.05	2150.37
296.26	2236.38
296.48	2138.08
296.69	2117.60
296.90	2162.66
297.12	2179.04
297.33	2269.15
297.55	2244.57
297.76	2326.49
297.98	2228.19
298.19	2162.66
298.41	2230.24
298.62	2144.22
298.83	2324.44
299.05	2125.79
299.26	2088.93
299.48	2070.50
299.69	2195.42
299.90	2179.04
300.12	2125.79
300.33	2254.81
300.55	2197.47
300.76	2199.52
300.98	2084.83
301.19	2269.15
301.40	2213.85
301.62	2125.79
301.83	2201.57
302.05	2256.86
302.26	2146.27
302.47	2164.70
302.69	2131.94
302.90	2203.61
303.12	1957.86
303.33	2211.81
303.54	2355.16
303.76	2172.89
303.97	2138.08
304.19	2252.77
304.40	2086.88
304.61	2250.72
304.83	2355.16
305.04	2244.57
305.26	2301.92
305.47	2105.31
305.68	2166.75
305.90	1998.82
306.11	2340.83
306.33	2203.61
306.54	2119.65
306.75	2103.26
306.97	2125.79
307.18	2113.50
307.39	2095.07
307.61	2306.01
307.82	2209.76
308.04	2228.19
308.25	2107.36
308.46	2211.81
308.68	2162.66
308.89	2215.90
309.10	2303.96
309.32	2226.14
309.53	2215.90
309.74	2265.05
309.96	2111.46
310.17	2283.49
310.39	2269.15
310.60	2236.38
310.81	2201.57
311.03	2088.93
311.24	2238.43
311.45	2154.46
311.67	2367.45
311.88	2226.14
312.09	2105.31
312.31	2158.56
312.52	2224.09
312.73	2197.47
312.95	2109.41
313.16	2052.06
313.37	2310.11
313.59	2273.25
313.80	2369.50
314.01	2361.31
314.23	2176.99
314.44	2162.66
314.65	2013.15
314.87	2105.31
315.08	2129.89
315.29	2107.36
315.51	2080.74
315.72	2056.16
315.93	2349.02
316.15	2220.00
316.36	2142.18
316.57	2220.00
316.79	2170.85
317.00	2111.46
317.21	2232.29
317.43	2105.31
317.64	2224.09
317.85	2078.69
318.07	2129.89
318.28	2187.23
318.49	2283.49
318.70	2457.56
318.92	2379.74
319.13	2363.36
319.34	2428.89
319.56	2340.83
319.77	2291.68
319.98	2371.55
320.20	2338.78
320.41	2258.91
320.62	2299.87
320.83	2142.18
321.05	2355.16
321.26	2220.00
321.47	2185.18
321.69	2342.88
321.90	2095.07
322.11	2213.85
322.32	2226.14
322.54	2351.07
322.75	2152.42
322.96	2439.13
323.18	2103.26
323.39	1974.24
323.60	2121.70
323.81	2236.38
324.03	2156.51
324.24	2209.76
324.45	2203.61
324.66	2078.69
324.88	2318.30
325.09	2295.77
325.30	2220.00
325.52	2127.84
325.73	2263.01
325.94	2142.18
326.15	2041.82
326.37	2158.56
326.58	2281.44
326.79	2414.56
327.00	2080.74
327.22	2156.51
327.43	2203.61
327.64	2080.74
327.85	2193.37
328.07	2213.85
328.28	2414.56
328.49	2162.66
328.70	2138.08
328.92	2199.52
329.13	2226.14
329.34	2217.95
329.55	2303.96
329.76	2244.57
329.98	2185.18
330.19	2375.64
330.40	2154.46
330.61	2195.42
330.83	2260.96
331.04	2156.51
331.25	2189.28
331.46	2140.13
331.68	2113.50
331.89	2326.49
332.10	2176.99
332.31	2011.11
332.52	2244.57
332.74	2269.15
332.95	2039.78
333.16	2187.23
333.37	2316.25
333.58	2170.85
333.80	2193.37
334.01	1933.28
334.22	2170.85
334.43	2168.80
334.64	2095.07
334.86	2103.26
335.07	2084.83
335.28	2301.92
335.49	2004.96
335.70	2193.37
335.92	2291.68
336.13	2416.60
336.34	2238.43
336.55	2209.76
336.76	2170.85
336.98	2064.35
337.19	2179.04
337.40	2250.72
337.61	2430.94
337.82	2146.27
338.04	2260.96
338.25	2013.15
338.46	2232.29
338.67	2179.04
338.88	2105.31
339.09	2090.98
339.31	2166.75
339.52	2160.61
339.73	2162.66
339.94	2176.99
340.15	2242.53
340.36	2172.89
340.58	2189.28
340.79	2109.41
341.00	2277.34
341.21	2142.18
341.42	2363.36
341.63	2111.46
341.85	2244.57
342.06	2185.18
342.27	2164.70
342.48	2201.57
342.69	2086.88
342.90	2277.34
343.12	2230.24
343.33	2150.37
343.54	2330.59
343.75	2308.06
343.96	2234.33
344.17	2144.22
344.38	2246.62
344.60	2086.88
344.81	2127.84
345.02	2109.41
345.23	2273.25
345.44	2478.04
345.65	2205.66
345.86	2203.61
346.07	2220.00
346.29	2129.89
346.50	2271.20
346.71	2138.08
346.92	2310.11
347.13	2385.88
347.34	2136.03
347.55	2148.32
347.76	2291.68
347.98	2080.74
348.19	2082.78
348.40	2299.87
348.61	2146.27
348.82	2265.05
349.03	2285.53
349.24	2119.65
349.45	2342.88
349.66	1945.57
349.88	2217.95
350.09	2119.65
350.30	2389.98
350.51	2379.74
350.72	2258.91
350.93	2205.66
351.14	2103.26
351.35	2176.99
351.56	2133.98
351.77	2189.28
351.99	2265.05
352.20	2389.98
352.41	2281.44
352.62	1986.53
352.83	2154.46
353.04	2170.85
353.25	2162.66
353.46	2242.53
353.67	2293.72
353.88	2043.87
354.09	2162.66
354.30	2158.56
354.52	2277.34
354.73	2154.46
354.94	2179.04
355.15	2232.29
355.36	2402.27
355.57	2095.07
355.78	2195.42
355.99	2127.84
356.20	2170.85
356.41	2316.25
356.62	2271.20
356.83	2205.66
357.04	2301.92
357.25	2105.31
357.46	2160.61
357.68	2007.01
357.89	2127.84
358.10	2150.37
358.31	2170.85
358.52	2144.22
358.73	2088.93
358.94	2111.46
359.15	2168.80
359.36	2236.38
359.57	2277.34
359.78	2203.61
359.99	2222.05
360.20	2099.17
360.41	2279.39
360.62	2199.52
360.83	2095.07
361.04	2209.76
361.25	2236.38
361.46	2361.31
361.67	2283.49
361.88	2240.48
362.09	2291.68
362.30	2230.24
362.51	2166.75
362.72	2136.03
362.93	2320.35
363.14	2279.39
363.35	2168.80
363.56	2103.26
363.78	2389.98
363.99	2293.72
364.20	2113.50
364.41	2193.37
364.62	2338.78
364.83	2213.85
365.04	2140.13
365.25	2170.85
365.46	2398.17
365.67	2174.94
365.88	2220.00
366.09	2086.88
366.30	2113.50
366.51	2222.05
366.72	2084.83
366.93	2127.84
367.14	2250.72
367.35	2295.77
367.56	2125.79
367.77	2332.64
367.98	2195.42
368.18	2236.38
368.39	2215.90
368.60	2041.82
368.81	2277.34
369.02	2183.13
369.23	2220.00
369.44	2127.84
369.65	2195.42
369.86	2297.82
370.07	2263.01
370.28	2129.89
370.49	2330.59
370.70	2260.96
370.91	2097.12
371.12	2129.89
371.33	2267.10
371.54	2195.42
371.75	2260.96
371.96	1957.86
372.17	2205.66
372.38	2228.19
372.59	2133.98
372.80	2162.66
373.01	2211.81
373.22	2181.09
373.43	2113.50
373.64	2170.85
373.85	2322.40
374.06	2326.49
374.26	2273.25
374.47	2242.53
374.68	2379.74
374.89	2295.77
375.10	2207.71
375.31	2226.14
375.52	2273.25
375.73	2226.14
375.94	2052.06
376.15	2375.64
376.36	2136.03
376.57	2150.37
376.78	2176.99
376.99	2250.72
377.20	2344.92
377.40	2138.08
377.61	2365.40
377.82	1996.77
378.03	2443.23
378.24	2324.44
378.45	2172.89
378.66	2121.70
378.87	2095.07
379.08	2070.50
379.29	2150.37
379.50	2312.16
379.71	2117.60
379.91	2273.25
380.12	2195.42
380.33	2146.27
380.54	2174.94
380.75	2133.98
380.96	2160.61
381.17	2252.77
381.38	2181.09
381.59	2232.29
381.80	2228.19
382.00	2406.36
382.21	2297.82
382.42	2330.59
382.63	2408.41
382.84	2285.53
383.05	2371.55
383.26	2424.80
383.47	2244.57
383.68	2232.29
383.88	2224.09
384.09	2148.32
384.30	2377.69
384.51	2199.52
384.72	2099.17
384.93	2084.83
385.14	2191.33
385.35	2314.20
385.55	2107.36
385.76	2312.16
385.97	2179.04
386.18	2052.06
386.39	2146.27
386.60	2170.85
386.81	2152.42
387.02	2099.17
387.22	2101.22
387.43	2379.74
387.64	2269.15
387.85	2385.88
388.06	2435.03
388.27	3962.82
388.48	8628.09
388.68	11941.71
388.89	14343.97
389.10	15615.76
389.31	14292.77
389.52	11198.29
389.73	9840.49
389.93	8822.65
390.14	8030.09
390.35	7303.06
390.56	6504.35
390.77	5289.90
390.98	4204.48
391.18	3276.75
391.39	2699.22
391.60	2279.39
391.81	2336.73
392.02	2213.85
392.23	2439.13
392.43	2250.72
392.64	2267.10
392.85	2168.80
393.06	2322.40
393.27	2117.60
393.47	2109.41
393.68	2164.70
393.89	2181.09
394.10	2301.92
394.31	2101.22
394.52	2142.18
394.72	2060.26
394.93	2392.03
395.14	2029.54
395.35	2201.57
395.56	2187.23
395.76	2201.57
395.97	2172.89
396.18	2385.88
396.39	2318.30
396.60	2750.42
396.80	2494.43
397.01	2326.49
397.22	2379.74
397.43	2381.79
397.64	2179.04
397.84	2344.92
398.05	2441.18
398.26	2236.38
398.47	2326.49
398.67	2273.25
398.88	2250.72
399.09	2281.44
399.30	2187.23
399.51	2260.96
399.71	2146.27
399.92	2144.22
400.13	2246.62
400.34	2121.70
400.54	2162.66
400.75	2383.84
400.96	2252.77
401.17	2291.68
401.37	2242.53
401.58	2166.75
401.79	2166.75
402.00	2357.21
402.21	2633.69
402.41	2473.95
402.62	2574.30
402.83	2611.16
403.04	2678.74
403.24	2754.52
403.45	2301.92
403.66	2475.99
403.87	2439.13
404.07	2508.76
404.28	2502.62
404.49	2402.27
404.70	2236.38
404.90	2275.29
405.11	2236.38
405.32	2281.44
405.52	2080.74
405.73	2166.75
405.94	2146.27
406.15	2154.46
406.35	2236.38
406.56	2269.15
406.77	2228.19
406.98	2187.23
407.18	2101.22
407.39	2383.84
407.60	2193.37
407.80	2185.18
408.01	2127.84
408.22	2260.96
408.43	2129.89
408.63	2267.10
408.84	2291.68
409.05	2289.63
409.25	2062.30
409.46	2121.70
409.67	2195.42
409.88	2078.69
410.08	2203.61
410.29	2160.61
410.50	2271.20
410.70	2285.53
410.91	2115.55
411.12	2222.05
411.32	2250.72
411.53	2109.41
411.74	2326.49
411.95	2332.64
412.15	2295.77
412.36	2301.92
412.57	2308.06
412.77	2346.97
412.98	2277.34
413.19	2185.18
413.39	2217.95
413.60	2191.33
413.81	2267.10
414.01	2179.04
414.22	2224.09
414.43	2252.77
414.63	2146.27
414.84	2404.32
415.05	2158.56
415.25	2154.46
415.46	2310.11
415.67	2174.94
415.87	2215.90
416.08	2179.04
416.29	2191.33
416.49	2283.49
416.70	2158.56
416.91	2119.65
417.11	2195.42
417.32	2291.68
417.53	2318.30
417.73	2203.61
417.94	2193.37
418.15	2211.81
418.35	2258.91
418.56	2148.32
418.77	2471.90
418.97	2176.99
419.18	2150.37
419.38	1996.77
419.59	2275.29
419.80	2414.56
420.00	2154.46
420.21	2185.18
420.42	2291.68
420.62	2246.62
420.83	2119.65
421.04	2205.66
421.24	2203.61
421.45	2260.96
421.65	2269.15
421.86	2133.98
422.07	2332.64
422.27	2205.66
422.48	2174.94
422.69	2144.22
422.89	2152.42
423.10	2195.42
423.30	2072.54
423.51	2271.20
423.72	2334.68
423.92	2283.49
424.13	2080.74
424.33	2187.23
424.54	2312.16
424.75	2138.08
424.95	2373.60
425.16	2191.33
425.36	2211.81
425.57	2357.21
425.78	2234.33
425.98	2260.96
426.19	2207.71
426.39	2176.99
426.60	2238.43
426.81	2230.24
427.01	2189.28
427.22	2037.73
427.42	2113.50
427.63	2150.37
427.83	2299.87
428.04	2365.40
428.25	2224.09
428.45	2291.68
428.66	2308.06
428.86	2207.71
429.07	2211.81
429.28	2246.62
429.48	2191.33
429.69	2131.94
429.89	2260.96
430.10	2093.02
430.30	2174.94
430.51	2353.12
430.71	2150.37
430.92	2205.66
431.13	2158.56
431.33	2263.01
431.54	2168.80
431.74	2314.20
431.95	2443.23
432.15	2152.42
432.36	2220.00
432.56	2252.77
432.77	2392.03
432.98	2375.64
433.18	2318.30
433.39	2176.99
433.59	2179.04
433.80	2314.20
434.00	2396.12
434.21	2138.08
434.41	2148.32
434.62	2494.43
434.82	2170.85
435.03	2105.31
435.23	2258.91
435.44	2009.06
435.64	2217.95
435.85	2176.99
436.06	2299.87
436.26	2287.58
436.47	2158.56
436.67	2199.52
436.88	2217.95
437.08	2363.36
437.29	2336.73
437.49	2236.38
437.70	2267.10
437.90	2207.71
438.11	2306.01
438.31	2232.29
438.52	2461.66
438.72	2432.99
438.93	2482.14
439.13	2351.07
439.34	2404.32
439.54	2187.23
439.75	2295.77
439.95	2289.63
440.16	2158.56
440.36	2269.15
440.57	2211.81
440.77	2205.66
440.98	2226.14
441.18	2275.29
441.39	2176.99
441.59	2115.55
441.80	2467.80
442.00	2170.85
442.21	2320.35
442.41	2123.74
442.62	2250.72
442.82	2170.85
443.02	2152.42
443.23	2191.33
443.43	2215.90
443.64	2336.73
443.84	2029.54
444.05	2279.39
444.25	2250.72
444.46	2191.33
444.66	2187.23
444.87	2385.88
445.07	2160.61
445.28	2150.37
445.48	2308.06
445.69	2355.16
445.89	2402.27
446.09	2277.34
446.30	2451.42
446.50	2850.77
446.71	4337.60
446.91	5478.32
447.12	6430.62
447.32	6641.56
447.53	6111.14
447.73	5185.46
447.93	4491.20
448.14	4229.06
448.34	3985.35
448.55	3579.85
448.75	3592.14
448.96	3342.28
449.16	3047.38
449.36	2836.44
449.57	2525.15
449.77	2289.63
449.98	2209.76
450.18	2334.68
450.39	2287.58
450.59	2197.47
450.79	2181.09
451.00	2123.74
451.20	2351.07
451.41	2226.14
451.61	2254.81
451.81	2283.49
452.02	2146.27
452.22	2138.08
452.43	2193.37
452.63	2287.58
452.84	2207.71
453.04	2121.70
453.24	2228.19
453.45	2103.26
453.65	2176.99
453.86	2187.23
454.06	2236.38
454.26	2248.67
454.47	2146.27
454.67	2340.83
454.87	2242.53
455.08	2201.57
455.28	2373.60
455.49	2213.85
455.69	2119.65
455.89	2457.56
456.10	2250.72
456.30	2220.00
456.51	2228.19
456.71	2246.62
456.91	2246.62
457.12	2220.00
457.32	2295.77
457.52	2119.65
457.73	2228.19
457.93	2336.73
458.14	2156.51
458.34	2113.50
458.54	2164.70
458.75	2148.32
458.95	2326.49
459.15	2310.11
459.36	2179.04
459.56	2248.67
459.76	2457.56
459.97	2224.09
460.17	2199.52
460.37	2293.72
460.58	2162.66
460.78	2328.54
460.99	2070.50
461.19	2199.52
461.39	2240.48
461.60	2252.77
461.80	2195.42
462.00	2074.59
462.21	2176.99
462.41	2127.84
462.61	2154.46
462.82	1996.77
463.02	2252.77
463.22	2277.34
463.43	2275.29
463.63	2211.81
463.83	2299.87
464.04	2211.81
464.24	2191.33
464.44	2084.83
464.64	2172.89
464.85	2299.87
465.05	2283.49
465.25	2234.33
465.46	2170.85
465.66	2242.53
465.86	2244.57
466.07	2273.25
466.27	2144.22
466.47	2080.74
466.68	2158.56
466.88	2281.44
467.08	2258.91
467.29	2299.87
467.49	2158.56
467.69	2224.09
467.89	2240.48
468.10	2191.33
468.30	2187.23
468.50	2389.98
468.71	2375.64
468.91	2095.07
469.11	2277.34
469.31	2226.14
469.52	2097.12
469.72	2439.13
469.92	2504.67
470.13	2222.05
470.33	2242.53
470.53	2277.34
470.73	2658.26
470.94	3037.14
471.14	3143.63
471.34	3575.75
471.54	3469.26
471.75	3104.72
471.95	2820.05
472.15	2793.43
472.36	2750.42
472.56	2670.55
472.76	2785.24
472.96	2662.36
473.17	2494.43
473.37	2453.47
473.57	2191.33
473.77	2375.64
473.98	2232.29
474.18	2127.84
474.38	2467.80
474.58	2179.04
474.79	2105.31
474.99	2283.49
475.19	2310.11
475.39	2031.58
475.60	2228.19
475.80	2209.76
476.00	2242.53
476.20	2195.42
476.41	2191.33
476.61	2279.39
476.81	2320.35
477.01	2174.94
477.21	2377.69
477.42	2342.88
477.62	2211.81
477.82	2250.72
478.02	2168.80
478.23	2211.81
478.43	2070.50
478.63	2172.89
478.83	2168.80
479.03	2168.80
479.24	2392.03
479.44	2414.56
479.64	2090.98
479.84	2004.96
480.04	2207.71
480.25	2191.33
480.45	2166.75
480.65	2148.32
480.85	2330.59
481.06	2119.65
481.26	2217.95
481.46	2242.53
481.66	2193.37
481.86	2160.61
482.06	2211.81
482.27	2205.66
482.47	2146.27
482.67	2275.29
482.87	2168.80
483.07	2400.22
483.28	2195.42
483.48	2148.32
483.68	2181.09
483.88	2113.50
484.08	2109.41
484.29	2127.84
484.49	2191.33
484.69	2084.83
484.89	2328.54
485.09	2236.38
485.29	2293.72
485.50	2273.25
485.70	2189.28
485.90	2381.79
486.10	2220.00
486.30	2209.76
486.50	2310.11
486.71	2193.37
486.91	2332.64
487.11	2301.92
487.31	2062.30
487.51	2217.95
487.71	2105.31
487.91	2220.00
488.12	2183.13
488.32	2013.15
488.52	2115.55
488.72	1990.63
488.92	2193.37
489.12	2389.98
489.32	2318.30
489.53	2224.09
489.73	2076.64
489.93	2310.11
490.13	2107.36
490.33	2015.20
490.53	2265.05
490.73	2283.49
490.94	2121.70
491.14	2263.01
491.34	2293.72
491.54	2457.56
491.74	3198.93
491.94	3678.15
492.14	3966.92
492.34	4040.64
492.54	3729.35
492.75	3196.88
492.95	3094.48
493.15	2920.40
493.35	2807.77
493.55	2691.03
493.75	2713.56
493.95	2709.46
494.15	2498.52
494.35	2336.73
494.56	2306.01
494.76	2179.04
494.96	2283.49
495.16	2297.82
495.36	2318.30
495.56	2248.67
495.76	2209.76
495.96	2215.90
496.16	2201.57
496.36	2408.41
496.56	2179.04
496.77	2234.33
496.97	2170.85
497.17	2349.02
497.37	2060.26
497.57	2316.25
497.77	2127.84
497.97	2183.13
498.17	2226.14
498.37	2277.34
498.57	2318.30
498.77	2199.52
498.97	2267.10
499.17	2420.70
499.38	2207.71
499.58	2310.11
499.78	2312.16
499.98	2287.58
500.18	2213.85
500.38	2193.37
500.58	2389.98
500.78	2811.86
500.98	5109.68
501.18	7217.04
501.38	8941.43
501.58	9979.75
501.78	9828.20
501.98	7536.52
502.18	6516.64
502.38	5539.76
502.58	5058.48
502.78	4677.56
502.98	4394.94
503.18	4302.78
503.38	3846.09
503.59	3510.22
503.79	3254.22
503.99	2936.79
504.19	2846.68
504.39	2850.77
504.59	2854.87
504.79	2854.87
504.99	2826.20
505.19	2607.06
505.39	2506.71
505.59	2545.63
505.79	2531.29
505.99	2363.36
506.19	2267.10
506.39	2414.56
506.59	2230.24
506.79	2248.67
506.99	2373.60
507.19	2203.61
507.39	2220.00
507.59	2041.82
507.79	2133.98
507.99	2164.70
508.19	2199.52
508.39	2183.13
508.59	2293.72
508.79	2332.64
508.99	2416.60
509.19	2095.07
509.39	2326.49
509.59	2170.85
509.79	2146.27
509.99	2269.15
510.19	2283.49
510.39	2232.29
510.59	2181.09
510.79	2166.75
510.99	2066.40
511.19	2256.86
511.39	2342.88
511.59	2318.30
511.79	2271.20
511.99	2252.77
512.19	2301.92
512.38	2234.33
512.58	2203.61
512.78	2185.18
512.98	2324.44
513.18	2375.64
513.38	2109.41
513.58	2277.34
513.78	2234.33
513.98	2154.46
514.18	2154.46
514.38	2199.52
514.58	2265.05
514.78	2148.32
514.98	2172.89
515.18	2240.48
515.38	2086.88
515.58	2383.84
515.78	2103.26
515.98	2119.65
516.18	2269.15
516.38	2260.96
516.57	2146.27
516.77	2125.79
516.97	2310.11
517.17	2179.04
517.37	2086.88
517.57	2254.81
517.77	2207.71
517.97	2205.66
518.17	2265.05
518.37	2144.22
518.57	2146.27
518.77	2166.75
518.97	2209.76
519.16	2166.75
519.36	2314.20
519.56	2172.89
519.76	2289.63
519.96	2215.90
520.16	2361.31
520.36	2119.65
520.56	2392.03
520.76	2191.33
520.96	2232.29
521.16	2373.60
521.35	2349.02
521.55	2453.47
521.75	2248.67
521.95	2199.52
522.15	2226.14
522.35	2013.15
522.55	2170.85
522.75	2316.25
522.95	2129.89
523.14	2179.04
523.34	2213.85
523.54	2213.85
523.74	2246.62
523.94	2220.00
524.14	2107.36
524.34	2238.43
524.54	2314.20
524.73	2183.13
524.93	2308.06
525.13	2236.38
525.33	2072.54
525.53	2484.19
525.73	2252.77
525.93	2232.29
526.13	2222.05
526.32	2162.66
526.52	2310.11
526.72	2265.05
526.92	2174.94
527.12	2168.80
527.32	2088.93
527.52	2285.53
527.71	2226.14
527.91	2248.67
528.11	2111.46
528.31	2244.57
528.51	2084.83
528.71	2316.25
528.90	2203.61
529.10	2244.57
529.30	2289.63
529.50	2033.63
529.70	2236.38
529.90	2179.04
530.09	2260.96
530.29	2117.60
530.49	2146.27
530.69	2430.94
530.89	2279.39
531.09	2301.92
531.28	2187.23
531.48	2322.40
531.68	2226.14
531.88	2258.91
532.08	2287.58
532.28	2166.75
532.47	2248.67
532.67	2265.05
532.87	2310.11
533.07	2150.37
533.27	2324.44
533.46	2363.36
533.66	2297.82
533.86	2246.62
534.06	2232.29
534.26	2314.20
534.45	2226.14
534.65	2387.93
534.85	2281.44
535.05	2203.61
535.25	2281.44
535.44	2138.08
535.64	2236.38
535.84	2232.29
536.04	2156.51
536.24	2252.77
536.43	2113.50
536.63	2260.96
536.83	2228.19
537.03	2181.09
537.22	2058.21
537.42	2074.59
537.62	2191.33
537.82	2138.08
538.02	2363.36
538.21	2328.54
538.41	2529.24
538.61	2258.91
538.81	2176.99
539.00	2295.77
539.20	2113.50
539.40	2220.00
539.60	2244.57
539.79	2250.72
539.99	2138.08
540.19	2129.89
540.39	2144.22
540.58	2187.23
540.78	2324.44
540.98	2154.46
541.18	2242.53
541.37	2250.72
541.57	2158.56
541.77	2271.20
541.97	2154.46
542.16	2045.92
542.36	2232.29
542.56	2199.52
542.76	2371.55
542.95	2346.97
543.15	2310.11
543.35	2236.38
543.54	2103.26
543.74	2084.83
543.94	2351.07
544.14	2228.19
544.33	2295.77
544.53	2191.33
544.73	2162.66
544.93	2152.42
545.12	2140.13
545.32	2138.08
545.52	2254.81
545.71	2054.11
545.91	2211.81
546.11	2154.46
546.30	2103.26
546.50	2187.23
546.70	2301.92
546.90	2232.29
547.09	2052.06
547.29	2244.57
547.49	2242.53
547.68	2220.00
547.88	2125.79
548.08	2252.77
548.27	2729.94
548.47	2121.70
548.67	2183.13
548.87	2260.96
549.06	2267.10
549.26	2256.86
549.46	2232.29
549.65	2179.04
549.85	2226.14
550.05	2213.85
550.24	2093.02
550.44	2275.29
550.64	2174.94
550.83	2176.99
551.03	2306.01
551.23	2287.58
551.42	2283.49
551.62	2275.29
551.82	2308.06
552.01	2236.38
552.21	2258.91
552.41	2179.04
552.60	2338.78
552.80	2236.38
553.00	2172.89
553.19	2269.15
553.39	2351.07
553.59	2101.22
553.78	2308.06
553.98	2256.86
554.17	2088.93
554.37	2226.14
554.57	2244.57
554.76	2076.64
554.96	2152.42
555.16	2199.52
555.35	2228.19
555.55	2240.48
555.75	2230.24
555.94	2246.62
556.14	2050.02
556.33	2295.77
556.53	2203.61
556.73	2220.00
556.92	2199.52
557.12	2238.43
557.32	2379.74
557.51	2330.59
557.71	2211.81
557.90	2314.20
558.10	2377.69
558.30	2133.98
558.49	2170.85
558.69	2248.67
558.88	2234.33
559.08	2240.48
559.28	2211.81
559.47	2248.67
559.67	2291.68
559.86	2404.32
560.06	2121.70
560.26	2207.71
560.45	2351.07
560.65	2236.38
560.84	2310.11
561.04	2146.27
561.24	2363.36
561.43	2144.22
561.63	2412.51
561.82	2244.57
562.02	2318.30
562.22	2113.50
562.41	2115.55
562.61	2146.27
562.80	2170.85
563.00	2463.71
563.19	2267.10
563.39	2172.89
563.59	2314.20
563.78	2070.50
563.98	2015.20
564.17	2176.99
564.37	2117.60
564.56	2103.26
564.76	2133.98
564.96	2328.54
565.15	2252.77
565.35	2453.47
565.54	2183.13
565.74	2269.15
565.93	2213.85
566.13	2232.29
566.32	2234.33
566.52	2256.86
566.71	2199.52
566.91	2222.05
567.11	2252.77
567.30	2154.46
567.50	2287.58
567.69	2293.72
567.89	2168.80
568.08	2146.27
568.28	2160.61
568.47	2115.55
568.67	2283.49
568.86	2144.22
569.06	2295.77
569.25	2160.61
569.45	2152.42
569.64	2179.04
569.84	2162.66
570.04	2252.77
570.23	2166.75
570.43	2234.33
570.62	2297.82
570.82	2306.01
571.01	2043.87
571.21	2078.69
571.40	2138.08
571.60	2318.30
571.79	2285.53
571.99	2224.09
572.18	2095.07
572.38	2275.29
572.57	2170.85
572.77	2240.48
572.96	2455.51
573.16	2291.68
573.35	2138.08
573.55	2351.07
573.74	2316.25
573.94	2283.49
574.13	2236.38
574.33	2338.78
574.52	2398.17
574.71	2164.70
574.91	2238.43
575.10	2144.22
575.30	2273.25
575.49	2099.17
575.69	2166.75
575.88	2224.09
576.08	2267.10
576.27	2357.21
576.47	2285.53
576.66	2445.27
576.86	2400.22
577.05	2273.25
577.25	2303.96
577.44	2402.27
577.64	2220.00
577.83	2277.34
578.02	2254.81
578.22	2396.12
578.41	2351.07
578.61	2244.57
578.80	2052.06
579.00	2179.04
579.19	2254.81
579.39	2248.67
579.58	2310.11
579.77	2236.38
579.97	2297.82
580.16	2394.08
580.36	2291.68
580.55	2310.11
580.75	2312.16
580.94	2217.95
581.13	2430.94
581.33	2400.22
581.52	2136.03
581.72	2430.94
581.91	2312.16
582.11	2203.61
582.30	2336.73
582.49	2295.77
582.69	2381.79
582.88	2310.11
583.08	2248.67
583.27	2361.31
583.47	2199.52
583.66	2136.03
583.85	2240.48
584.05	2215.90
584.24	2332.64
584.44	2287.58
584.63	2363.36
584.82	2449.37
585.02	2408.41
585.21	2353.12
585.41	2361.31
585.60	2369.50
585.79	2424.80
585.99	2557.91
586.18	2381.79
586.37	2883.54
586.57	4497.34
586.76	13195.06
586.96	32149.01
587.15	45495.63
587.34	54844.60
587.54	60028.01
587.73	55305.40
587.93	38995.37
588.12	29392.45
588.31	23615.13
588.51	20463.30
588.70	18925.28
588.89	17280.76
589.09	15107.87
589.28	12932.92
589.47	10450.78
589.67	8271.75
589.86	6354.85
590.06	4661.18
590.25	3798.98
590.44	3100.62
590.64	2775.00
590.83	2484.19
591.02	2539.48
591.22	2369.50
591.41	2361.31
591.60	2256.86
591.80	2508.76
591.99	2086.88
592.18	2269.15
592.38	2295.77
592.57	2269.15
592.76	2303.96
592.96	2250.72
593.15	2222.05
593.34	2269.15
593.54	2166.75
593.73	2355.16
593.92	2312.16
594.12	2265.05
594.31	2330.59
594.50	2516.95
594.70	2340.83
594.89	2461.66
595.08	2199.52
595.28	2318.30
595.47	2549.72
595.66	2334.68
595.86	2097.12
596.05	2267.10
596.24	2164.70
596.43	2375.64
596.63	2322.40
596.82	2277.34
597.01	2338.78
597.21	2426.84
597.40	2240.48
597.59	2303.96
597.79	2291.68
597.98	2303.96
598.17	2338.78
598.36	2189.28
598.56	2254.81
598.75	2263.01
598.94	2340.83
599.14	2222.05
599.33	2172.89
599.52	2275.29
599.71	2246.62
599.91	2281.44
600.10	2267.10
600.29	2232.29
600.48	2271.20
600.68	2297.82
600.87	2211.81
601.06	2121.70
601.26	2220.00
601.45	2273.25
601.64	2187.23
601.83	2351.07
602.03	2133.98
602.22	2154.46
602.41	2314.20
602.60	2543.58
602.80	2281.44
602.99	2232.29
603.18	2113.50
603.37	2277.34
603.57	2236.38
603.76	2281.44
603.95	2406.36
604.14	2164.70
604.34	2119.65
604.53	2140.13
604.72	2254.81
604.91	2234.33
605.10	2199.52
605.30	2174.94
605.49	2471.90
605.68	2220.00
605.87	2285.53
606.07	2176.99
606.26	2160.61
606.45	2285.53
606.64	2258.91
606.84	2170.85
607.03	2248.67
607.22	2394.08
607.41	2310.11
607.60	2285.53
607.80	2424.80
607.99	2144.22
608.18	2197.47
608.37	2183.13
608.56	2162.66
608.76	2424.80
608.95	2408.41
609.14	2308.06
609.33	2394.08
609.52	2414.56
609.72	2310.11
609.91	2385.88
610.10	2199.52
610.29	2432.99
610.48	2318.30
610.68	2308.06
610.87	2191.33
611.06	2344.92
611.25	2172.89
611.44	2301.92
611.63	2174.94
611.83	2322.40
612.02	2088.93
612.21	2324.44
612.40	2035.68
612.59	2107.36
612.79	2168.80
612.98	2179.04
613.17	2365.40
613.36	2222.05
613.55	2383.84
613.74	2375.64
613.93	2389.98
614.13	2455.51
614.32	2531.29
614.51	2367.45
614.70	2301.92
614.89	2213.85
615.08	2359.26
615.28	2756.57
615.47	2140.13
615.66	2355.16
615.85	2191.33
616.04	2389.98
616.23	2293.72
616.42	2277.34
616.62	2373.60
616.81	2260.96
617.00	2242.53
617.19	2291.68
617.38	2203.61
617.57	2332.64
617.76	2244.57
617.95	2330.59
618.15	2217.95
618.34	2473.95
618.53	2078.69
618.72	2349.02
618.91	2283.49
619.10	2277.34
619.29	2277.34
619.48	2209.76
619.68	2045.92
619.87	2168.80
620.06	2125.79
620.25	2242.53
620.44	2125.79
620.63	2250.72
620.82	2252.77
621.01	2228.19
621.20	2160.61
621.39	2224.09
621.59	2312.16
621.78	2308.06
621.97	2250.72
622.16	2254.81
622.35	2267.10
622.54	2293.72
622.73	2340.83
622.92	2129.89
623.11	2283.49
623.30	2152.42
623.49	2248.67
623.68	2203.61
623.88	2295.77
624.07	2281.44
624.26	2242.53
624.45	2236.38
624.64	2195.42
624.83	2252.77
625.02	2207.71
625.21	2179.04
625.40	2195.42
625.59	2375.64
625.78	2224.09
625.97	2312.16
626.16	2420.70
626.35	2353.12
626.54	2334.68
626.74	2392.03
626.93	2207.71
627.12	2242.53
627.31	2334.68
627.50	2269.15
627.69	2342.88
627.88	2168.80
628.07	2201.57
628.26	2191.33
628.45	2215.90
628.64	2101.22
628.83	2138.08
629.02	2088.93
629.21	2312.16
629.40	2267.10
629.59	2156.51
629.78	2146.27
629.97	2207.71
630.16	2209.76
630.35	2117.60
630.54	2224.09
630.73	2111.46
630.92	2193.37
631.11	2127.84
631.30	2170.85
631.49	2269.15
631.68	2179.04
631.87	2246.62
632.06	2125.79
632.25	2482.14
632.44	2236.38
632.63	2263.01
632.82	2279.39
633.01	2322.40
633.20	2344.92
633.39	2293.72
633.58	2185.18
633.77	2258.91
633.96	2287.58
634.15	2312.16
634.34	2250.72
634.53	2271.20
634.72	2181.09
634.91	2136.03
635.10	2260.96
635.29	2267.10
635.48	2316.25
635.67	2142.18
635.86	2138.08
636.05	2228.19
636.24	2209.76
636.43	2250.72
636.62	2281.44
636.81	1974.24
637.00	2148.32
637.19	2324.44
637.38	2183.13
637.57	2179.04
637.76	2248.67
637.95	2406.36
638.14	2332.64
638.33	2346.97
638.52	2260.96
638.71	2248.67
638.89	2152.42
639.08	2461.66
639.27	2371.55
639.46	2512.86
639.65	2940.88
639.84	2895.83
640.03	3014.61
640.22	2908.12
640.41	2936.79
640.60	2590.68
640.79	2521.05
640.98	2371.55
641.17	2516.95
641.36	2445.27
641.55	2355.16
641.74	2156.51
641.92	2322.40
642.11	2150.37
642.30	2265.05
642.49	2234.33
642.68	2146.27
642.87	2267.10
643.06	2342.88
643.25	2232.29
643.44	2168.80
643.63	2211.81
643.82	2203.61
644.00	2103.26
644.19	2179.04
644.38	2125.79
644.57	2234.33
644.76	2248.67
644.95	2136.03
645.14	2183.13
645.33	2258.91
645.52	2258.91
645.71	2088.93
645.89	2158.56
646.08	2138.08
646.27	2129.89
646.46	2338.78
646.65	2080.74
646.84	2246.62
647.03	2068.45
647.22	2359.26
647.40	2220.00
647.59	2213.85
647.78	2129.89
647.97	2086.88
648.16	2142.18
648.35	2265.05
648.54	2263.01
648.73	2228.19
648.91	2303.96
649.10	2168.80
649.29	2197.47
649.48	2162.66
649.67	2283.49
649.86	2148.32
650.05	2277.34
650.23	2457.56
650.42	2326.49
650.61	2551.77
650.80	2447.32
650.99	2490.33
651.18	2373.60
651.36	2445.27
651.55	2170.85
651.74	2326.49
651.93	2203.61
652.12	2217.95
652.31	2172.89
652.49	2209.76
652.68	2277.34
652.87	2365.40
653.06	2263.01
653.25	2383.84
653.44	2244.57
653.62	2377.69
653.81	2168.80
654.00	2162.66
654.19	2326.49
654.38	2535.39
654.56	2260.96
654.75	2181.09
654.94	2285.53
655.13	2103.26
655.32	2185.18
655.51	2263.01
655.69	2121.70
655.88	2308.06
656.07	2150.37
656.26	2201.57
656.45	2088.93
656.63	2289.63
656.82	2222.05
657.01	2301.92
657.20	2146.27
657.38	2316.25
657.57	2183.13
657.76	2074.59
657.95	2273.25
658.14	2172.89
658.32	2187.23
658.51	2076.64
658.70	2109.41
658.89	2269.15
659.08	2207.71
659.26	2416.60
659.45	2191.33
659.64	2326.49
659.83	2195.42
660.01	2502.62
660.20	2318.30
660.39	2441.18
660.58	2045.92
660.76	2285.53
660.95	2103.26
661.14	2228.19
661.33	2138.08
661.51	2199.52
661.70	2185.18
661.89	2226.14
662.08	2183.13
662.26	2097.12
662.45	2002.91
662.64	2346.97
662.83	2226.14
663.01	2109.41
663.20	2101.22
663.39	2357.21
663.58	2164.70
663.76	2217.95
663.95	2322.40
664.14	2166.75
664.32	2211.81
664.51	2078.69
664.70	2101.22
664.89	2209.76
665.07	2101.22
665.26	2248.67
665.45	2133.98
665.64	2158.56
665.82	2207.71
666.01	2263.01
666.20	2199.52
666.38	2334.68
666.57	2326.49
666.76	3235.79
666.95	7978.89
667.13	16318.22
667.32	21653.17
667.51	25454.20
667.69	27375.20
667.88	25538.17
668.07	18009.84
668.25	14128.94
668.44	11849.55
668.63	10133.35
668.81	8830.84
669.00	7706.51
669.19	7051.16
669.38	6178.72
669.56	5283.76
669.75	4310.97
669.94	3624.90
670.12	3166.16
670.31	2775.00
670.50	2555.86
670.68	2471.90
670.87	2275.29
671.06	2281.44
671.24	2260.96
671.43	2461.66
671.62	2328.54
671.80	2316.25
671.99	2324.44
672.18	2273.25
672.36	2263.01
672.55	2291.68
672.74	2142.18
672.92	2217.95
673.11	2260.96
673.29	2082.78
673.48	2316.25
673.67	2203.61
673.85	2316.25
674.04	2179.04
674.23	2187.23
674.41	2361.31
674.60	2064.35
674.79	2093.02
674.97	2150.37
675.16	2287.58
675.34	2287.58
675.53	2142.18
675.72	2224.09
675.90	2357.21
676.09	2117.60
676.28	2179.04
676.46	2131.94
676.65	2258.91
676.83	2107.36
677.02	2293.72
677.21	2220.00
677.39	2279.39
677.58	2103.26
677.77	2095.07
677.95	2109.41
678.14	2142.18
678.32	2129.89
678.51	2101.22
678.70	2428.89
678.88	2195.42
679.07	2191.33
679.25	2244.57
679.44	2187.23
679.63	2076.64
679.81	2113.50
680.00	2318.30
680.18	2234.33
680.37	2316.25
680.55	2246.62
680.74	2056.16
680.93	1982.43
681.11	2205.66
681.30	2183.13
681.48	2174.94
681.67	2267.10
681.85	2179.04
682.04	2129.89
682.23	2226.14
682.41	2228.19
682.60	2103.26
682.78	2203.61
682.97	2162.66
683.15	2242.53
683.34	2166.75
683.53	2314.20
683.71	2068.45
683.90	2326.49
684.08	2441.18
684.27	2252.77
684.45	2183.13
684.64	2367.45
684.82	2238.43
685.01	2297.82
685.19	2197.47
685.38	2322.40
685.57	2183.13
685.75	2183.13
685.94	2183.13
686.12	2105.31
686.31	2152.42
686.49	2338.78
686.68	2107.36
686.86	2220.00
687.05	2203.61
687.23	2353.12
687.42	2117.60
687.60	1990.63
687.79	2285.53
687.97	2301.92
688.16	2236.38
688.34	2316.25
688.53	1990.63
688.71	2226.14
688.90	2359.26
689.08	2160.61
689.27	2011.11
689.45	2346.97
689.64	2295.77
689.82	2242.53
690.01	2228.19
690.19	2236.38
690.38	2187.23
690.56	2291.68
690.75	2125.79
690.93	2148.32
691.12	2082.78
691.30	2183.13
691.49	2189.28
691.67	2179.04
691.86	2402.27
692.04	2160.61
692.23	2236.38
692.41	2289.63
692.60	2473.95
692.78	2365.40
692.97	2220.00
693.15	2279.39
693.34	2361.31
693.52	2330.59
693.71	2207.71
693.89	2129.89
694.08	2052.06
694.26	2258.91
694.44	2308.06
694.63	2332.64
694.81	2125.79
695.00	2158.56
695.18	2260.96
695.37	2402.27
695.55	2189.28
695.74	2187.23
695.92	2176.99
696.10	2363.36
696.29	2099.17
696.47	2136.03
696.66	2052.06
696.84	2093.02
697.03	2160.61
697.21	2377.69
697.40	3071.95
697.58	2375.64
697.76	2138.08
697.95	2166.75
698.13	2170.85
698.32	2172.89
698.50	2164.70
698.68	2220.00
698.87	2246.62
699.05	2326.49
699.24	2260.96
699.42	2097.12
699.61	2238.43
699.79	2127.84
699.97	2209.76
700.16	2080.74
700.34	2101.22
700.53	2215.90
700.71	2324.44
700.89	2314.20
701.08	2197.47
701.26	2224.09
701.45	2719.70
701.63	2138.08
701.81	2156.51
702.00	2150.37
702.18	2297.82
702.37	2224.09
702.55	2449.37
702.73	2432.99
702.92	2363.36
703.10	2543.58
703.28	2523.10
703.47	2236.38
703.65	2394.08
703.84	2455.51
704.02	2359.26
704.20	2400.22
704.39	2191.33
704.57	2195.42
704.75	2314.20
704.94	2312.16
705.12	2236.38
705.30	2510.81
705.49	4489.15
705.67	10839.90
705.86	19871.44
706.04	24071.82
706.22	27453.02
706.41	28745.29
706.59	24778.37
706.77	17358.58
706.96	14569.25
707.14	12529.47
707.32	10833.75
707.51	9566.06
707.69	7907.21
707.87	6543.26
708.06	5017.52
708.24	4167.62
708.42	3307.47
708.61	3043.28
708.79	2490.33
708.97	2344.92
709.16	2359.26
709.34	2236.38
709.52	2213.85
709.71	2265.05
709.89	2236.38
710.07	2138.08
710.26	2226.14
710.44	2162.66
710.62	2330.59
710.80	2310.11
710.99	2224.09
711.17	2310.11
711.35	2156.51
711.54	2164.70
711.72	2299.87
711.90	2191.33
712.09	2211.81
712.27	2211.81
712.45	2336.73
712.63	2131.94
712.82	2164.70
713.00	2099.17
713.18	2250.72
713.37	2222.05
713.55	2297.82
713.73	2220.00
713.91	2250.72
714.10	2146.27
714.28	2226.14
714.46	2213.85
714.65	2179.04
714.83	2220.00
715.01	2234.33
715.19	2242.53
715.38	2119.65
715.56	2256.86
715.74	2093.02
715.92	2123.74
716.11	2375.64
716.29	2025.44
716.47	2166.75
716.65	2207.71
716.84	2066.40
717.02	2277.34
717.20	2068.45
717.38	2140.13
717.57	2226.14
717.75	2187.23
717.93	2209.76
718.11	2213.85
718.30	2084.83
718.48	2226.14
718.66	2334.68
718.84	2330.59
719.03	2154.46
719.21	2037.73
719.39	2392.03
719.57	2277.34
719.75	2334.68
719.94	2158.56
720.12	2156.51
720.30	2158.56
720.48	2275.29
720.67	2047.97
720.85	2105.31
721.03	2164.70
721.21	2127.84
721.39	2220.00
721.58	2234.33
721.76	2199.52
721.94	2199.52
722.12	2191.33
722.30	2271.20
722.49	2140.13
722.67	2248.67
722.85	2207.71
723.03	2062.30
723.21	2148.32
723.40	2273.25
723.58	2338.78
723.76	2191.33
723.94	2361.31
724.12	2342.88
724.30	2406.36
724.49	2398.17
724.67	2179.04
724.85	2375.64
725.03	2090.98
725.21	2189.28
725.40	2330.59
725.58	2146.27
725.76	2355.16
725.94	2291.68
726.12	2125.79
726.30	2146.27
726.49	2146.27
726.67	2146.27
726.85	2240.48
727.03	2523.10
727.21	3733.45
727.39	5349.29
727.57	6555.55
727.76	7192.47
727.94	7557.00
728.12	7212.95
728.30	5832.62
728.48	5035.96
728.66	4505.53
728.84	4079.55
729.03	3446.73
729.21	3192.78
729.39	2813.91
729.57	2566.10
729.75	2406.36
729.93	2281.44
730.11	2236.38
730.30	2136.03
730.48	2150.37
730.66	2365.40
730.84	2346.97
731.02	2232.29
731.20	2179.04
731.38	2207.71
731.56	2074.59
731.74	2105.31
731.93	2187.23
732.11	2160.61
732.29	2203.61
732.47	2226.14
732.65	2189.28
732.83	2299.87
733.01	2269.15
733.19	2138.08
733.37	2306.01
733.56	2238.43
733.74	2074.59
733.92	2357.21
734.10	2207.71
734.28	2217.95
734.46	2054.11
734.64	2150.37
734.82	2205.66
735.00	2199.52
735.18	2191.33
735.36	2146.27
735.54	2097.12
735.73	2187.23
735.91	2205.66
736.09	2285.53
736.27	2162.66
736.45	2195.42
736.63	1988.58
736.81	2160.61
736.99	2369.50
737.17	2340.83
737.35	2158.56
737.53	2211.81
737.71	2142.18
737.89	2260.96
738.07	2131.94
738.25	2119.65
738.43	2027.49
738.61	2113.50
738.80	2084.83
738.98	2215.90
739.16	2136.03
739.34	2099.17
739.52	2316.25
739.70	2273.25
739.88	2209.76
740.06	2303.96
740.24	1990.63
740.42	2269.15
740.60	2105.31
740.78	2138.08
740.96	2080.74
741.14	2164.70
741.32	2275.29
741.50	2101.22
741.68	2363.36
741.86	2340.83
742.04	2111.46
742.22	2101.22
742.40	2158.56
742.58	2197.47
742.76	2179.04
742.94	2250.72
743.12	2099.17
743.30	2174.94
743.48	2297.82
743.66	2154.46
743.84	2217.95
744.02	2193.37
744.20	2191.33
744.38	2220.00
744.56	2082.78
744.74	2398.17
744.92	2260.96
745.10	2334.68
745.28	2295.77
745.46	2306.01
745.64	2109.41
745.82	2232.29
746.00	2267.10
746.18	2291.68
746.36	2066.40
746.54	2293.72
746.72	2136.03
746.90	2095.07
747.08	2351.07
747.26	2133.98
747.44	2297.82
747.62	2176.99
747.80	2179.04
747.98	2238.43
748.15	2168.80
748.33	2293.72
748.51	2215.90
748.69	2289.63
748.87	2172.89
749.05	2168.80
749.23	2187.23
749.41	2234.33
749.59	2150.37
749.77	2275.29
749.95	2201.57
750.13	2121.70
750.31	2215.90
750.49	2195.42
750.67	2244.57
750.85	2267.10
751.03	2224.09
751.20	2414.56
751.38	2203.61
751.56	2107.36
751.74	2160.61
751.92	2119.65
752.10	2127.84
752.28	2293.72
752.46	2133.98
752.64	2213.85
752.82	2224.09
753.00	2258.91
753.18	2121.70
753.35	2199.52
753.53	2209.76
753.71	2211.81
753.89	2199.52
754.07	2277.34
754.25	2289.63
754.43	2183.13
754.61	2068.45
754.79	2236.38
754.97	2232.29
755.14	2252.77
755.32	2088.93
755.50	2136.03
755.68	2297.82
755.86	2062.30
756.04	2199.52
756.22	2013.15
756.40	2197.47
756.57	2414.56
756.75	2168.80
756.93	2277.34
757.11	2291.68
757.29	2047.97
757.47	2111.46
757.65	2043.87
757.82	2033.63
758.00	2078.69
758.18	2074.59
758.36	2109.41
758.54	2289.63
758.72	2088.93
758.90	2293.72
759.07	2252.77
759.25	2138.08
759.43	2207.71
759.61	2148.32
759.79	3002.32
759.97	2314.20
760.15	2127.84
760.32	2211.81
760.50	2211.81
760.68	2404.32
760.86	2097.12
761.04	2322.40
761.22	2236.38
761.39	2146.27
761.57	2199.52
761.75	2240.48
761.93	2211.81
762.11	2131.94
762.28	2207.71
762.46	2123.74
762.64	2230.24
762.82	2035.68
763.00	2197.47
763.18	2359.26
763.35	2062.30
763.53	2293.72
763.71	2195.42
763.89	2179.04
764.07	2201.57
764.24	2201.57
764.42	2244.57
764.60	2187.23
764.78	2250.72
764.96	2263.01
765.13	2326.49
765.31	2154.46
765.49	2263.01
765.67	2095.07
765.84	2111.46
766.02	2146.27
766.20	2047.97
766.38	2349.02
766.56	2217.95
766.73	2226.14
766.91	2181.09
767.09	2222.05
767.27	2265.05
767.44	2168.80
767.62	2336.73
767.80	2142.18
767.98	2131.94
768.15	2113.50
768.33	2252.77
768.51	2287.58
768.69	2314.20
768.87	2187.23
769.04	2176.99
769.22	2486.23
769.40	2330.59
769.58	2404.32
769.75	2244.57
769.93	2355.16
770.11	2179.04
770.28	2082.78
770.46	2252.77
770.64	2226.14
770.82	2189.28
770.99	2187.23
771.17	2258.91
771.35	2203.61
771.53	2193.37
771.70	2138.08
771.88	2193.37
772.06	2156.51
772.23	2170.85
772.41	2246.62
772.59	2228.19
772.77	2090.98
772.94	2193.37
773.12	2230.24
773.30	2150.37
773.47	2158.56
773.65	2168.80
773.83	2281.44
774.01	2232.29
774.18	2033.63
774.36	2179.04
774.54	2074.59
774.71	2203.61
774.89	2029.54
775.07	2099.17
775.24	2156.51
775.42	2093.02
775.60	2332.64
775.78	2179.04
775.95	2039.78
776.13	1998.82
776.31	2015.20
776.48	2174.94
776.66	2320.35
776.84	2162.66
777.01	2185.18
777.19	2080.74
777.37	2164.70
777.54	2295.77
777.72	2379.74
777.90	2209.76
778.07	2152.42
778.25	2514.91
778.43	2361.31
778.60	2086.88
778.78	2283.49
778.96	2263.01
779.13	2144.22
779.31	2209.76
779.49	2209.76
779.66	2232.29
779.84	2172.89
780.01	2179.04
780.19	2050.02
780.37	2334.68
780.54	2242.53
780.72	2136.03
780.90	2199.52
781.07	2154.46
781.25	2123.74
781.43	2273.25
781.60	2228.19
781.78	2310.11
781.95	2232.29
782.13	2105.31
782.31	2150.37
782.48	2119.65
782.66	2234.33
782.83	2373.60
783.01	2199.52
783.19	2279.39
783.36	2142.18
783.54	2060.26
783.72	2250.72
783.89	2174.94
784.07	2240.48
784.24	2217.95
784.42	2392.03
784.60	2164.70
784.77	2265.05
784.95	1982.43
785.12	2035.68
785.30	2203.61
785.47	2129.89
785.65	2097.12
785.83	2117.60
786.00	2119.65
786.18	2176.99
786.35	2080.74
786.53	2127.84
786.71	2267.10
786.88	2187.23
787.06	2195.42
787.23	2185.18
787.41	1994.72
787.58	2152.42
787.76	2117.60
787.94	2152.42
788.11	2273.25
788.29	2031.58
788.46	2133.98
788.64	2072.54
788.81	2136.03
788.99	2152.42
789.16	2131.94
789.34	2179.04
789.52	2133.98
789.69	2158.56
789.87	2015.20
790.04	2158.56
790.22	2156.51
790.39	2383.84
790.57	2082.78
790.74	2064.35
790.92	2297.82
791.09	2060.26
791.27	2199.52
791.44	2236.38
791.62	2191.33
791.79	2318.30
791.97	2238.43
792.15	2422.75
792.32	2279.39
792.50	2336.73
792.67	2346.97
792.85	2293.72
793.02	2166.75
793.20	2201.57
793.37	2031.58
793.55	2138.08
793.72	2103.26
793.90	2273.25
794.07	2070.50
794.25	2084.83
794.42	2236.38
794.60	2203.61
794.77	2240.48
794.95	2142.18
795.12	2207.71
795.30	2234.33
795.47	1949.67
795.65	2478.04
795.82	2187.23
796.00	2119.65
796.17	2238.43
796.34	2113.50
796.52	2234.33
796.69	2240.48
796.87	2291.68
797.04	2281.44
797.22	2195.42
797.39	2189.28
797.57	2258.91
797.74	2213.85
797.92	2207.71
798.09	2209.76
798.27	2220.00
798.44	2088.93
798.62	2136.03
798.79	2183.13
798.96	2189.28
799.14	2158.56
799.31	2383.84
799.49	2232.29
799.66	2107.36
799.84	2246.62
800.01	2029.54
800.19	2113.50
800.36	2007.01
800.53	2189.28
800.71	2248.67
800.88	2297.82
801.06	2160.61
801.23	2105.31
801.41	2195.42
801.58	2078.69
801.75	2136.03
801.93	2213.85
802.10	2295.77
802.28	2193.37
802.45	2162.66
802.63	2256.86
802.80	2285.53
802.97	2226.14
803.15	2158.56
803.32	2154.46
803.50	2158.56
803.67	2199.52
803.84	2201.57
804.02	2142.18
804.19	2176.99
804.37	2007.01
804.54	2068.45
804.71	2199.52
804.89	2170.85
805.06	2142.18
805.24	1966.05
805.41	2086.88
805.58	2056.16
805.76	2449.37
805.93	2220.00
806.10	2312.16
806.28	2211.81
806.45	2199.52
806.63	2220.00
806.80	2234.33
806.97	2207.71
807.15	2234.33
807.32	2191.33
807.49	2150.37
807.67	2029.54
807.84	2256.86
808.01	2023.39
808.19	2336.73
808.36	2424.80
808.54	2228.19
808.71	2152.42
808.88	2129.89
809.06	2269.15
809.23	2346.97
809.40	2146.27
809.58	2273.25
809.75	2166.75
809.92	2037.73
810.10	2375.64
810.27	2076.64
810.44	2215.90
810.62	2263.01
810.79	2199.52
810.96	2101.22
811.14	2154.46
811.31	2293.72
811.48	2166.75
811.66	2220.00
811.83	2228.19
812.00	2228.19
812.18	2191.33
812.35	2416.60
812.52	2154.46
812.69	2111.46
812.87	2179.04
813.04	2099.17
813.21	2226.14
813.39	2041.82
813.56	2133.98
813.73	2289.63
813.91	2000.87
814.08	2250.72
814.25	2168.80
814.42	2047.97
814.60	2127.84
814.77	2228.19
814.94	2148.32
815.12	2168.80
815.29	2389.98
815.46	2142.18
815.63	2144.22
815.81	2183.13
815.98	2138.08
816.15	2162.66
816.33	2097.12
816.50	2166.75
816.67	2226.14
816.84	2209.76
817.02	2162.66
817.19	2201.57
817.36	2215.90
817.53	2220.00
817.71	2064.35
817.88	2158.56
818.05	2195.42
818.22	2168.80
818.40	2267.10
818.57	2070.50
818.74	2277.34
818.91	2162.66
819.09	2234.33
819.26	2250.72
819.43	2095.07
819.60	2111.46
819.78	2174.94
819.95	2306.01
820.12	2084.83
820.29	2308.06
820.47	2351.07
820.64	2109.41
820.81	1982.43
820.98	2054.11
821.15	2119.65
821.33	2209.76
821.50	2021.35
821.67	2275.29
821.84	2187.23
822.02	2203.61
822.19	2244.57
822.36	2176.99
822.53	2207.71
822.70	2080.74
822.88	2080.74
823.05	2314.20
823.22	2162.66
823.39	2179.04
823.56	2238.43
823.74	2365.40
823.91	2088.93
824.08	2056.16
824.25	1996.77
824.42	2359.26
824.60	2064.35
824.77	2230.24
824.94	2160.61
825.11	2203.61
825.28	2070.50
825.45	2195.42
825.63	2160.61
825.80	2131.94
825.97	2252.77
826.14	2154.46
826.31	2082.78
826.48	2265.05
826.66	2154.46
826.83	2129.89
827.00	2224.09
827.17	2072.54
827.34	2113.50
827.51	2164.70
827.69	2176.99
827.86	2031.58
828.03	2213.85
828.20	2176.99
828.37	2129.89
828.54	2250.72
828.71	2101.22
828.89	2301.92
829.06	2252.77
829.23	2371.55
829.40	2105.31
829.57	2224.09
829.74	2338.78
829.91	2138.08
830.09	2158.56
830.26	2244.57
830.43	2291.68
830.60	2199.52
830.77	2205.66
830.94	2297.82
831.11	2207.71
831.28	2195.42
831.46	2299.87
831.63	2160.61
831.80	2211.81
831.97	2129.89
832.14	2121.70
832.31	2269.15
832.48	2211.81
832.65	2295.77
832.82	2226.14
832.99	2277.34
833.17	2103.26
833.34	2281.44
833.51	2168.80
833.68	2037.73
833.85	2279.39
834.02	2136.03
834.19	2039.78
834.36	2123.74
834.53	2248.67
834.70	2246.62
834.87	2234.33
835.04	2164.70
835.22	2140.13
835.39	2119.65
835.56	2078.69
835.73	2107.36
835.90	2336.73
836.07	2144.22
836.24	2230.24
836.41	2133.98
836.58	2027.49
836.75	2267.10
836.92	2172.89
837.09	2074.59
837.26	2312.16
837.43	2244.57
837.60	2226.14
837.77	2181.09
837.94	2226.14
838.12	2310.11
838.29	2234.33
838.46	2023.39
838.63	2146.27
838.80	2394.08
838.97	2293.72
839.14	2172.89
839.31	2166.75
839.48	2301.92
839.65	2201.57
839.82	2265.05
839.99	2207.71
840.16	2125.79
840.33	2103.26
840.50	2176.99
840.67	2127.84
840.84	2035.68
841.01	2082.78
841.18	2150.37
841.35	2179.04
841.52	2209.76
841.69	2398.17
841.86	2158.56
842.03	2156.51
842.20	2322.40
842.37	2176.99
842.54	2107.36
842.71	2125.79
842.88	2066.40
843.05	2207.71
843.22	2090.98
843.39	2285.53
843.56	2060.26
843.73	2138.08
843.90	2097.12
844.07	2193.37
844.24	2240.48
844.41	2154.46
844.58	2230.24
844.75	2168.80
844.92	2201.57
845.09	2185.18
845.26	2037.73
845.43	2199.52
845.60	2187.23
845.77	2252.77
845.94	2203.61
846.10	2269.15
846.27	2004.96
846.44	2052.06
846.61	2093.02
846.78	2220.00
846.95	2281.44
847.12	2093.02
847.29	2074.59
847.46	2115.55
847.63	2252.77
847.80	2064.35
847.97	2078.69
848.14	2447.32
848.31	2158.56
848.48	2052.06
848.65	2158.56
848.82	2086.88
848.98	2344.92
849.15	2236.38
849.32	2320.35
849.49	2252.77
849.66	2213.85
849.83	2113.50
850.00	2078.69
850.17	2238.43
850.34	2166.75
850.51	2136.03
850.68	2162.66
850.85	2400.22
851.01	2152.42
851.18	2119.65
851.35	2099.17
851.52	2273.25
851.69	2226.14
851.86	2033.63
852.03	2011.11
852.20	2277.34
852.37	2154.46
852.53	2004.96
852.70	2099.17
852.87	2244.57
853.04	2295.77
853.21	2187.23
853.38	2246.62
853.55	2269.15
853.72	2220.00
853.89	2121.70
854.05	2113.50
854.22	2150.37
854.39	2127.84
854.56	2146.27
854.73	2211.81
854.90	2117.60
855.07	2158.56
855.23	2144.22
855.40	2181.09
855.57	2133.98
855.74	1896.42
855.91	2365.40
856.08	2121.70
856.25	2029.54
856.41	2111.46
856.58	2150.37
856.75	2146.27
856.92	2033.63
857.09	2326.49
857.26	2056.16
857.42	2197.47
857.59	2222.05
857.76	2179.04
857.93	2197.47
858.10	2226.14
858.27	2111.46
858.43	2189.28
858.60	2117.60
858.77	2023.39
858.94	2172.89
859.11	2297.82
859.27	2125.79
859.44	2105.31
859.61	2357.21
859.78	2179.04
859.95	2080.74
860.12	2099.17
860.28	2312.16
860.45	2349.02
860.62	2115.55
860.79	2209.76
860.95	2187.23
861.12	2064.35
861.29	2136.03
861.46	2064.35
861.63	2217.95
861.79	2250.72
861.96	2111.46
862.13	2133.98
862.30	2277.34
862.47	2150.37
862.63	2095.07
862.80	2211.81
862.97	2252.77
863.14	2197.47
863.30	2156.51
863.47	2052.06
863.64	2377.69
863.81	2164.70
863.97	2101.22
864.14	2207.71
864.31	2265.05
864.48	2232.29
864.65	2211.81
864.81	2140.13
864.98	2242.53
865.15	2287.58
865.32	2172.89
865.48	2240.48
865.65	2258.91
865.82	2146.27
865.98	2179.04
866.15	2285.53
866.32	2176.99
866.49	2123.74
866.65	2232.29
866.82	2133.98
866.99	2211.81
867.16	2174.94
867.32	2152.42
867.49	2109.41
867.66	2191.33
867.83	2146.27
867.99	2062.30
868.16	2158.56
868.33	2068.45
868.49	2140.13
868.66	2113.50
868.83	2236.38
868.99	2213.85
869.16	2244.57
869.33	2285.53
869.50	2209.76
869.66	2207.71
869.83	2193.37
870.00	2064.35
870.16	2236.38
870.33	2121.70
870.50	2310.11
870.66	2189.28
870.83	2279.39
871.00	2183.13
871.17	2201.57
871.33	2162.66
871.50	2154.46
871.67	2209.76
871.83	2113.50
872.00	2248.67
872.17	2138.08
872.33	2398.17
872.50	2228.19
872.67	2117.60
872.83	2187.23
873.00	2174.94
873.17	2121.70
873.33	2197.47
873.50	2260.96
873.67	2111.46
873.83	2127.84
874.00	2076.64
874.16	2232.29
874.33	2170.85
874.50	2064.35
874.66	2121.70
874.83	2230.24
875.00	2258.91
875.16	2248.67
875.33	2244.57
875.50	2039.78
875.66	2185.18
875.83	2260.96
875.99	2228.19
876.16	2152.42
876.33	2017.25
876.49	2080.74
876.66	2160.61
876.83	2191.33
876.99	2062.30
877.16	2101.22
877.32	2131.94
877.49	2156.51
877.66	2209.76
877.82	2297.82
877.99	2193.37
878.15	2281.44
878.32	2242.53
878.49	2222.05
878.65	2144.22
878.82	2359.26
878.98	2185.18
879.15	2252.77
879.32	2291.68
879.48	2242.53
879.65	2138.08
879.81	2131.94
879.98	2127.84
880.15	2113.50
880.31	2203.61
880.48	2074.59
880.64	2252.77
880.81	2203.61
880.97	2363.36
881.14	2293.72
881.31	2080.74
881.47	2363.36
881.64	2170.85
881.80	2062.30
881.97	2172.89
882.13	2170.85
882.30	2117.60
882.47	2129.89
882.63	2076.64
882.80	2170.85
882.96	2111.46
883.13	2318.30
883.29	2228.19
883.46	2109.41
883.62	2439.13
883.79	2154.46
883.95	2277.34
884.12	2172.89
884.29	2306.01
884.45	2189.28
884.62	2187.23
884.78	2050.02
884.95	2351.07
885.11	2068.45
885.28	2211.81
885.44	2160.61
885.61	2256.86
885.77	2371.55
885.94	2244.57
886.10	2199.52
886.27	2150.37
886.43	2326.49
886.60	2263.01
886.76	2150.37
886.93	2045.92
887.09	2228.19
887.26	2009.06
887.42	2191.33
887.59	2291.68
887.75	2363.36
887.92	2250.72
888.08	2252.77
888.25	2437.08
888.41	2301.92
888.58	2248.67
888.74	2082.78
888.91	2228.19
>>>>>End Processed Spectral Data<<<<<
