SpectraSuite Data File
++++++++++++++++++++++++++++++++++++
Date: Thu May 05 12:35:37 CEST 2016
User: root
Dark Spectrum Present: No
Reference Spectrum Present: No
Number of Sampled Component Spectra: 1
Spectrometers: USB4C02835
Integration Time (usec): 100000 (USB4C02835)
Spectra Averaged: 1 (USB4C02835)
Boxcar Smoothing: 0 (USB4C02835)
Correct for Electrical Dark: No (USB4C02835)
Strobe/Lamp Enabled: No (USB4C02835)
Correct for Detector Non-linearity: No (USB4C02835)
Correct for Stray Light: No (USB4C02835)
Number of Pixels in Processed Spectrum: 3648
>>>>>Begin Processed Spectral Data<<<<<
177.47	1753.06
177.69	1753.06
177.91	1753.06
178.13	1703.91
178.36	1806.31
178.58	2095.07
178.80	2246.62
179.02	2107.36
179.24	2154.46
179.46	2117.60
179.68	2162.66
179.90	2176.99
180.13	2242.53
180.35	2058.21
180.57	2086.88
180.79	2260.96
181.01	2138.08
181.23	2093.02
181.45	2256.86
181.67	2179.04
181.90	2224.09
182.12	2107.36
182.34	2035.68
182.56	2199.52
182.78	2246.62
183.00	2072.54
183.22	2127.84
183.44	2058.21
183.66	2473.95
183.89	2191.33
184.11	2109.41
184.33	2193.37
184.55	2265.05
184.77	2146.27
184.99	2187.23
185.21	2093.02
185.43	2379.74
185.65	2138.08
185.87	2056.16
186.10	2385.88
186.32	2392.03
186.54	2127.84
186.76	2220.00
186.98	2377.69
187.20	2193.37
187.42	2084.83
187.64	2111.46
187.86	2244.57
188.08	2281.44
188.30	2082.78
188.52	2086.88
188.75	2349.02
188.97	2281.44
189.19	2056.16
189.41	2119.65
189.63	2355.16
189.85	2156.51
190.07	1935.33
190.29	2039.78
190.51	2215.90
190.73	2084.83
190.95	2162.66
191.17	2127.84
191.39	2109.41
191.61	2215.90
191.84	2119.65
192.06	2256.86
192.28	1974.24
192.50	2461.66
192.72	2205.66
192.94	2150.37
193.16	2297.82
193.38	2250.72
193.60	2111.46
193.82	2179.04
194.04	2314.20
194.26	2185.18
194.48	2127.84
194.70	2119.65
194.92	2138.08
195.14	2265.05
195.36	2064.35
195.58	2125.79
195.80	2209.76
196.02	2152.42
196.24	2101.22
196.46	2105.31
196.69	2140.13
196.91	2453.47
197.13	2111.46
197.35	2080.74
197.57	2344.92
197.79	2189.28
198.01	2226.14
198.23	2179.04
198.45	2258.91
198.67	2072.54
198.89	2041.82
199.11	2144.22
199.33	2172.89
199.55	1998.82
199.77	2103.26
199.99	2248.67
200.21	2129.89
200.43	2242.53
200.65	2023.39
200.87	1957.86
201.09	2125.79
201.31	2189.28
201.53	2201.57
201.75	2144.22
201.97	2154.46
202.19	2187.23
202.41	2226.14
202.63	2277.34
202.85	2179.04
203.07	2176.99
203.29	2078.69
203.51	2047.97
203.73	2138.08
203.95	2455.51
204.17	2093.02
204.39	2150.37
204.61	2127.84
204.83	2136.03
205.05	2273.25
205.27	2240.48
205.49	2529.24
205.71	2224.09
205.93	2105.31
206.15	2072.54
206.37	2224.09
206.59	2201.57
206.81	2060.26
207.03	2035.68
207.25	2136.03
207.47	2293.72
207.69	2144.22
207.91	2301.92
208.13	2306.01
208.34	2138.08
208.56	2045.92
208.78	2140.13
209.00	2162.66
209.22	2199.52
209.44	2111.46
209.66	2127.84
209.88	2131.94
210.10	2248.67
210.32	2140.13
210.54	2279.39
210.76	2121.70
210.98	2273.25
211.20	2021.35
211.42	2162.66
211.64	2295.77
211.86	2248.67
212.08	2164.70
212.30	2191.33
212.52	2179.04
212.74	2162.66
212.96	2148.32
213.17	2199.52
213.39	2166.75
213.61	2312.16
213.83	2199.52
214.05	2195.42
214.27	2271.20
214.49	2095.07
214.71	2136.03
214.93	2242.53
215.15	2138.08
215.37	2310.11
215.59	2078.69
215.81	2211.81
216.03	2254.81
216.24	2195.42
216.46	2125.79
216.68	2166.75
216.90	2181.09
217.12	2269.15
217.34	2086.88
217.56	2185.18
217.78	2351.07
218.00	2258.91
218.22	2248.67
218.44	2248.67
218.66	2199.52
218.87	2389.98
219.09	2105.31
219.31	2129.89
219.53	2213.85
219.75	2109.41
219.97	2103.26
220.19	2174.94
220.41	2203.61
220.63	2412.51
220.85	2154.46
221.06	2060.26
221.28	2342.88
221.50	2230.24
221.72	2084.83
221.94	2064.35
222.16	2226.14
222.38	2287.58
222.60	2127.84
222.82	2136.03
223.03	2359.26
223.25	2072.54
223.47	2146.27
223.69	2314.20
223.91	2244.57
224.13	2207.71
224.35	2054.11
224.57	2303.96
224.78	2238.43
225.00	2101.22
225.22	2191.33
225.44	2236.38
225.66	2205.66
225.88	2084.83
226.10	2207.71
226.32	2220.00
226.53	2353.12
226.75	2174.94
226.97	2138.08
227.19	2129.89
227.41	2152.42
227.63	2129.89
227.85	2013.15
228.06	2148.32
228.28	2263.01
228.50	2275.29
228.72	2058.21
228.94	2168.80
229.16	2047.97
229.37	2101.22
229.59	2021.35
229.81	2320.35
230.03	2133.98
230.25	2113.50
230.47	2070.50
230.69	2138.08
230.90	2320.35
231.12	2199.52
231.34	2185.18
231.56	2246.62
231.78	2136.03
232.00	2209.76
232.21	2129.89
232.43	2099.17
232.65	1949.67
232.87	2220.00
233.09	2076.64
233.30	2148.32
233.52	2256.86
233.74	2215.90
233.96	2084.83
234.18	2146.27
234.40	2127.84
234.61	2414.56
234.83	2070.50
235.05	2021.35
235.27	2467.80
235.49	2297.82
235.70	2144.22
235.92	2193.37
236.14	2287.58
236.36	2441.18
236.58	2064.35
236.79	2301.92
237.01	2228.19
237.23	2166.75
237.45	2295.77
237.67	2019.30
237.88	2228.19
238.10	2351.07
238.32	2027.49
238.54	2150.37
238.76	2170.85
238.97	2090.98
239.19	1996.77
239.41	2205.66
239.63	2318.30
239.85	2111.46
240.06	2154.46
240.28	2113.50
240.50	2256.86
240.72	2244.57
240.93	2158.56
241.15	2203.61
241.37	2203.61
241.59	2322.40
241.81	2131.94
242.02	2060.26
242.24	2170.85
242.46	2232.29
242.68	2023.39
242.89	2068.45
243.11	2242.53
243.33	2195.42
243.55	2168.80
243.76	2248.67
243.98	2119.65
244.20	2199.52
244.42	2117.60
244.64	2207.71
244.85	2029.54
245.07	2093.02
245.29	2138.08
245.51	2078.69
245.72	2185.18
245.94	2297.82
246.16	2097.12
246.38	2146.27
246.59	2125.79
246.81	2070.50
247.03	2150.37
247.24	2025.44
247.46	2154.46
247.68	2160.61
247.90	2154.46
248.11	2117.60
248.33	2273.25
248.55	2176.99
248.77	2170.85
248.98	2220.00
249.20	2351.07
249.42	2185.18
249.64	2084.83
249.85	2078.69
250.07	2226.14
250.29	2285.53
250.50	2168.80
250.72	1966.05
250.94	2185.18
251.16	2357.21
251.37	2254.81
251.59	2207.71
251.81	2285.53
252.02	2265.05
252.24	2054.11
252.46	2234.33
252.68	2072.54
252.89	2156.51
253.11	1982.43
253.33	2273.25
253.54	2320.35
253.76	2033.63
253.98	2164.70
254.20	2117.60
254.41	2136.03
254.63	2164.70
254.85	2035.68
255.06	2121.70
255.28	2226.14
255.50	2179.04
255.71	2123.74
255.93	1970.15
256.15	2148.32
256.36	2273.25
256.58	2082.78
256.80	2172.89
257.02	2144.22
257.23	2146.27
257.45	2176.99
257.67	2195.42
257.88	2131.94
258.10	2242.53
258.32	2039.78
258.53	2123.74
258.75	2346.97
258.97	2121.70
259.18	2142.18
259.40	2121.70
259.62	2355.16
259.83	2314.20
260.05	2201.57
260.27	2496.47
260.48	2295.77
260.70	2127.84
260.92	2099.17
261.13	2146.27
261.35	2285.53
261.57	2258.91
261.78	2045.92
262.00	2097.12
262.22	2217.95
262.43	2133.98
262.65	2131.94
262.86	2140.13
263.08	2455.51
263.30	2222.05
263.51	1978.34
263.73	2103.26
263.95	2220.00
264.16	2150.37
264.38	2097.12
264.60	2193.37
264.81	2213.85
265.03	2355.16
265.25	2310.11
265.46	2183.13
265.68	2271.20
265.89	2226.14
266.11	1990.63
266.33	2160.61
266.54	2275.29
266.76	2310.11
266.98	2185.18
267.19	2228.19
267.41	2285.53
267.62	2162.66
267.84	2004.96
268.06	2217.95
268.27	2220.00
268.49	2234.33
268.70	2140.13
268.92	2111.46
269.14	2125.79
269.35	2095.07
269.57	2097.12
269.79	2183.13
270.00	2072.54
270.22	2373.60
270.43	2103.26
270.65	1943.52
270.87	2220.00
271.08	2299.87
271.30	2164.70
271.51	2117.60
271.73	2244.57
271.95	2244.57
272.16	2109.41
272.38	2152.42
272.59	2193.37
272.81	2265.05
273.02	2152.42
273.24	2211.81
273.46	2228.19
273.67	2090.98
273.89	2088.93
274.10	2150.37
274.32	2359.26
274.54	2213.85
274.75	2170.85
274.97	2072.54
275.18	2215.90
275.40	2275.29
275.61	2131.94
275.83	2127.84
276.05	2125.79
276.26	2248.67
276.48	2197.47
276.69	2160.61
276.91	2127.84
277.12	2359.26
277.34	2162.66
277.55	2279.39
277.77	2213.85
277.99	2181.09
278.20	2070.50
278.42	2033.63
278.63	2176.99
278.85	2088.93
279.06	2107.36
279.28	2191.33
279.49	2310.11
279.71	2230.24
279.93	2179.04
280.14	2101.22
280.36	2187.23
280.57	2252.77
280.79	2183.13
281.00	2056.16
281.22	2121.70
281.43	2326.49
281.65	2047.97
281.86	2023.39
282.08	2275.29
282.29	2338.78
282.51	2041.82
282.73	2056.16
282.94	2064.35
283.16	2258.91
283.37	2226.14
283.59	2170.85
283.80	2166.75
284.02	2234.33
284.23	2209.76
284.45	2138.08
284.66	2201.57
284.88	2078.69
285.09	2148.32
285.31	2230.24
285.52	2215.90
285.74	2045.92
285.95	2201.57
286.17	2207.71
286.38	2314.20
286.60	2129.89
286.81	2074.59
287.03	2170.85
287.24	2107.36
287.46	2236.38
287.67	2203.61
287.89	2383.84
288.10	2183.13
288.32	2193.37
288.53	2289.63
288.75	2158.56
288.96	2242.53
289.18	2136.03
289.39	2097.12
289.61	2209.76
289.82	2377.69
290.04	2416.60
290.25	2113.50
290.47	2166.75
290.68	2152.42
290.90	2349.02
291.11	2039.78
291.33	2338.78
291.54	2086.88
291.76	2109.41
291.97	2197.47
292.18	2166.75
292.40	2174.94
292.61	2099.17
292.83	2385.88
293.04	2220.00
293.26	2174.94
293.47	2105.31
293.69	2127.84
293.90	2158.56
294.12	2250.72
294.33	2138.08
294.55	2062.30
294.76	2328.54
294.97	2283.49
295.19	2394.08
295.40	2117.60
295.62	2215.90
295.83	2248.67
296.05	2082.78
296.26	2299.87
296.48	2121.70
296.69	2220.00
296.90	2240.48
297.12	2265.05
297.33	2248.67
297.55	2205.66
297.76	2199.52
297.98	2217.95
298.19	2197.47
298.41	2217.95
298.62	2074.59
298.83	2330.59
299.05	2252.77
299.26	2162.66
299.48	2058.21
299.69	2224.09
299.90	2164.70
300.12	2125.79
300.33	2256.86
300.55	2232.29
300.76	2181.09
300.98	2154.46
301.19	2224.09
301.40	2097.12
301.62	2090.98
301.83	2260.96
302.05	2195.42
302.26	2211.81
302.47	2211.81
302.69	2086.88
302.90	2174.94
303.12	1933.28
303.33	2238.43
303.54	2265.05
303.76	2168.80
303.97	2160.61
304.19	2371.55
304.40	2099.17
304.61	2215.90
304.83	2385.88
305.04	2236.38
305.26	2242.53
305.47	2209.76
305.68	2215.90
305.90	2109.41
306.11	2283.49
306.33	2154.46
306.54	2136.03
306.75	2152.42
306.97	2015.20
307.18	2068.45
307.39	2166.75
307.61	2183.13
307.82	2127.84
308.04	2226.14
308.25	2185.18
308.46	2211.81
308.68	2084.83
308.89	2146.27
309.10	2215.90
309.32	2170.85
309.53	2174.94
309.74	2254.81
309.96	2172.89
310.17	2248.67
310.39	2156.51
310.60	2240.48
310.81	2240.48
311.03	2113.50
311.24	2269.15
311.45	2195.42
311.67	2256.86
311.88	2168.80
312.09	2146.27
312.31	2150.37
312.52	2086.88
312.73	2168.80
312.95	2019.30
313.16	2039.78
313.37	2242.53
313.59	2248.67
313.80	2260.96
314.01	2424.80
314.23	2148.32
314.44	2189.28
314.65	2078.69
314.87	2097.12
315.08	2152.42
315.29	2127.84
315.51	2101.22
315.72	2125.79
315.93	2314.20
316.15	2240.48
316.36	2146.27
316.57	2213.85
316.79	2277.34
317.00	2152.42
317.21	2285.53
317.43	2052.06
317.64	2207.71
317.85	2209.76
318.07	2154.46
318.28	2236.38
318.49	2301.92
318.70	2422.75
318.92	2400.22
319.13	2367.45
319.34	2463.71
319.56	2340.83
319.77	2322.40
319.98	2310.11
320.20	2324.44
320.41	2340.83
320.62	2224.09
320.83	2078.69
321.05	2361.31
321.26	2162.66
321.47	2181.09
321.69	2363.36
321.90	2121.70
322.11	2209.76
322.32	2226.14
322.54	2254.81
322.75	2181.09
322.96	2453.47
323.18	2066.40
323.39	2084.83
323.60	2045.92
323.81	2211.81
324.03	2238.43
324.24	2252.77
324.45	2220.00
324.66	2125.79
324.88	2220.00
325.09	2320.35
325.30	2166.75
325.52	2183.13
325.73	2334.68
325.94	2060.26
326.15	2050.02
326.37	2131.94
326.58	2287.58
326.79	2430.94
327.00	2025.44
327.22	2131.94
327.43	2125.79
327.64	2084.83
327.85	2283.49
328.07	2152.42
328.28	2402.27
328.49	2220.00
328.70	2088.93
328.92	2181.09
329.13	2187.23
329.34	2242.53
329.55	2363.36
329.76	2232.29
329.98	2234.33
330.19	2318.30
330.40	2242.53
330.61	2203.61
330.83	2240.48
331.04	2117.60
331.25	2156.51
331.46	2154.46
331.68	2070.50
331.89	2310.11
332.10	2240.48
332.31	1959.91
332.52	2086.88
332.74	2256.86
332.95	2101.22
333.16	2133.98
333.37	2256.86
333.58	2131.94
333.80	2140.13
334.01	2107.36
334.22	2226.14
334.43	2250.72
334.64	2097.12
334.86	2113.50
335.07	2054.11
335.28	2324.44
335.49	2025.44
335.70	2201.57
335.92	2326.49
336.13	2420.70
336.34	2291.68
336.55	2111.46
336.76	2258.91
336.98	2121.70
337.19	2068.45
337.40	2238.43
337.61	2471.90
337.82	2105.31
338.04	2269.15
338.25	2115.55
338.46	2162.66
338.67	2179.04
338.88	2136.03
339.09	2082.78
339.31	2174.94
339.52	2050.02
339.73	2056.16
339.94	2181.09
340.15	2205.66
340.36	2117.60
340.58	2131.94
340.79	2101.22
341.00	2250.72
341.21	2168.80
341.42	2324.44
341.63	2142.18
341.85	2220.00
342.06	2187.23
342.27	2168.80
342.48	2281.44
342.69	2066.40
342.90	2215.90
343.12	2346.97
343.33	2117.60
343.54	2279.39
343.75	2269.15
343.96	2230.24
344.17	2172.89
344.38	2176.99
344.60	2070.50
344.81	2156.51
345.02	2138.08
345.23	2308.06
345.44	2420.70
345.65	2211.81
345.86	2191.33
346.07	2220.00
346.29	2209.76
346.50	2152.42
346.71	2183.13
346.92	2351.07
347.13	2394.08
347.34	2166.75
347.55	2119.65
347.76	2244.57
347.98	2107.36
348.19	2160.61
348.40	2342.88
348.61	2176.99
348.82	2424.80
349.03	2277.34
349.24	2099.17
349.45	2344.92
349.66	2029.54
349.88	2179.04
350.09	2066.40
350.30	2318.30
350.51	2310.11
350.72	2203.61
350.93	2203.61
351.14	2140.13
351.35	2308.06
351.56	2211.81
351.77	2131.94
351.99	2332.64
352.20	2312.16
352.41	2228.19
352.62	1992.67
352.83	2250.72
353.04	2164.70
353.25	2172.89
353.46	2195.42
353.67	2316.25
353.88	2058.21
354.09	2164.70
354.30	2144.22
354.52	2226.14
354.73	2103.26
354.94	2154.46
355.15	2211.81
355.36	2363.36
355.57	2193.37
355.78	2199.52
355.99	2056.16
356.20	2125.79
356.41	2312.16
356.62	2207.71
356.83	2224.09
357.04	2285.53
357.25	2078.69
357.46	2162.66
357.68	2021.35
357.89	2148.32
358.10	2199.52
358.31	2170.85
358.52	2123.74
358.73	2142.18
358.94	2074.59
359.15	2129.89
359.36	2256.86
359.57	2199.52
359.78	2193.37
359.99	2242.53
360.20	2052.06
360.41	2172.89
360.62	2265.05
360.83	2191.33
361.04	2117.60
361.25	2244.57
361.46	2318.30
361.67	2301.92
361.88	2256.86
362.09	2199.52
362.30	2160.61
362.51	2199.52
362.72	2191.33
362.93	2287.58
363.14	2246.62
363.35	2148.32
363.56	2054.11
363.78	2285.53
363.99	2293.72
364.20	2101.22
364.41	2248.67
364.62	2289.63
364.83	2254.81
365.04	2234.33
365.25	2164.70
365.46	2467.80
365.67	2119.65
365.88	2314.20
366.09	2236.38
366.30	2093.02
366.51	2195.42
366.72	2056.16
366.93	2158.56
367.14	2209.76
367.35	2316.25
367.56	2179.04
367.77	2265.05
367.98	2185.18
368.18	2203.61
368.39	2203.61
368.60	2072.54
368.81	2279.39
369.02	2232.29
369.23	2138.08
369.44	2066.40
369.65	2129.89
369.86	2258.91
370.07	2189.28
370.28	2095.07
370.49	2205.66
370.70	2260.96
370.91	2056.16
371.12	2144.22
371.33	2285.53
371.54	2189.28
371.75	2297.82
371.96	1980.39
372.17	2230.24
372.38	2162.66
372.59	2183.13
372.80	2101.22
373.01	2148.32
373.22	2213.85
373.43	2138.08
373.64	2064.35
373.85	2306.01
374.06	2375.64
374.26	2228.19
374.47	2273.25
374.68	2291.68
374.89	2185.18
375.10	2185.18
375.31	2187.23
375.52	2260.96
375.73	2211.81
375.94	2127.84
376.15	2326.49
376.36	2174.94
376.57	2066.40
376.78	2138.08
376.99	2252.77
377.20	2349.02
377.40	2195.42
377.61	2330.59
377.82	2183.13
378.03	2277.34
378.24	2289.63
378.45	2222.05
378.66	2213.85
378.87	2101.22
379.08	2043.87
379.29	2140.13
379.50	2273.25
379.71	2154.46
379.91	2201.57
380.12	2211.81
380.33	2127.84
380.54	2158.56
380.75	2181.09
380.96	2131.94
381.17	2269.15
381.38	2058.21
381.59	2289.63
381.80	2138.08
382.00	2351.07
382.21	2279.39
382.42	2398.17
382.63	2355.16
382.84	2279.39
383.05	2416.60
383.26	2310.11
383.47	2170.85
383.68	2269.15
383.88	2205.66
384.09	2236.38
384.30	2318.30
384.51	2287.58
384.72	2170.85
384.93	2097.12
385.14	2176.99
385.35	2334.68
385.55	2107.36
385.76	2351.07
385.97	2226.14
386.18	2058.21
386.39	2140.13
386.60	2174.94
386.81	2201.57
387.02	2080.74
387.22	2097.12
387.43	2256.86
387.64	2287.58
387.85	2359.26
388.06	2430.94
388.27	4112.32
388.48	8650.62
388.68	12201.80
388.89	14642.98
389.10	15638.29
389.31	14548.77
389.52	11321.17
389.73	9838.44
389.93	8894.33
390.14	8222.59
390.35	7440.27
390.56	6557.60
390.77	5337.01
390.98	4093.89
391.18	3207.12
391.39	2717.65
391.60	2295.77
391.81	2389.98
392.02	2162.66
392.23	2428.89
392.43	2273.25
392.64	2334.68
392.85	2224.09
393.06	2392.03
393.27	2222.05
393.47	2066.40
393.68	2297.82
393.89	2121.70
394.10	2318.30
394.31	2166.75
394.52	2113.50
394.72	2121.70
394.93	2371.55
395.14	2002.91
395.35	2207.71
395.56	2148.32
395.76	2172.89
395.97	2222.05
396.18	2334.68
396.39	2330.59
396.60	2613.21
396.80	2455.51
397.01	2383.84
397.22	2412.51
397.43	2312.16
397.64	2211.81
397.84	2332.64
398.05	2357.21
398.26	2236.38
398.47	2312.16
398.67	2293.72
398.88	2179.04
399.09	2172.89
399.30	2187.23
399.51	2281.44
399.71	2097.12
399.92	2090.98
400.13	2291.68
400.34	2187.23
400.54	2138.08
400.75	2328.54
400.96	2273.25
401.17	2369.50
401.37	2258.91
401.58	2150.37
401.79	2176.99
402.00	2365.40
402.21	2566.10
402.41	2498.52
402.62	2629.59
402.83	2744.28
403.04	2641.88
403.24	2723.80
403.45	2383.84
403.66	2349.02
403.87	2457.56
404.07	2527.19
404.28	2504.67
404.49	2447.32
404.70	2220.00
404.90	2303.96
405.11	2207.71
405.32	2269.15
405.52	2187.23
405.73	2117.60
405.94	2133.98
406.15	2187.23
406.35	2260.96
406.56	2267.10
406.77	2203.61
406.98	2215.90
407.18	2226.14
407.39	2371.55
407.60	2095.07
407.80	2269.15
408.01	2168.80
408.22	2162.66
408.43	2125.79
408.63	2176.99
408.84	2258.91
409.05	2240.48
409.25	2113.50
409.46	2101.22
409.67	2146.27
409.88	2062.30
410.08	2220.00
410.29	2154.46
410.50	2289.63
410.70	2281.44
410.91	2052.06
411.12	2207.71
411.32	2174.94
411.53	2136.03
411.74	2312.16
411.95	2326.49
412.15	2334.68
412.36	2303.96
412.57	2330.59
412.77	2271.20
412.98	2260.96
413.19	2066.40
413.39	2230.24
413.60	2228.19
413.81	2314.20
414.01	2107.36
414.22	2215.90
414.43	2299.87
414.63	2213.85
414.84	2357.21
415.05	2168.80
415.25	2047.97
415.46	2269.15
415.67	2123.74
415.87	2256.86
416.08	2156.51
416.29	2197.47
416.49	2222.05
416.70	2097.12
416.91	2174.94
417.11	2166.75
417.32	2299.87
417.53	2299.87
417.73	2209.76
417.94	2113.50
418.15	2191.33
418.35	2172.89
418.56	2142.18
418.77	2478.04
418.97	2140.13
419.18	2209.76
419.38	1998.82
419.59	2179.04
419.80	2344.92
420.00	2156.51
420.21	2181.09
420.42	2281.44
420.62	2244.57
420.83	2109.41
421.04	2217.95
421.24	2148.32
421.45	2256.86
421.65	2230.24
421.86	2211.81
422.07	2254.81
422.27	2232.29
422.48	2193.37
422.69	2101.22
422.89	2160.61
423.10	2150.37
423.30	2115.55
423.51	2189.28
423.72	2203.61
423.92	2260.96
424.13	2074.59
424.33	2211.81
424.54	2334.68
424.75	2150.37
424.95	2357.21
425.16	2185.18
425.36	2111.46
425.57	2258.91
425.78	2195.42
425.98	2291.68
426.19	2193.37
426.39	2064.35
426.60	2258.91
426.81	2338.78
427.01	2242.53
427.22	2224.09
427.42	2105.31
427.63	2156.51
427.83	2281.44
428.04	2373.60
428.25	2232.29
428.45	2301.92
428.66	2267.10
428.86	2150.37
429.07	2183.13
429.28	2246.62
429.48	2209.76
429.69	2125.79
429.89	2275.29
430.10	2158.56
430.30	2258.91
430.51	2306.01
430.71	2101.22
430.92	2250.72
431.13	2123.74
431.33	2228.19
431.54	2277.34
431.74	2389.98
431.95	2437.08
432.15	2146.27
432.36	2133.98
432.56	2269.15
432.77	2371.55
432.98	2328.54
433.18	2271.20
433.39	2160.61
433.59	2193.37
433.80	2381.79
434.00	2349.02
434.21	2144.22
434.41	2152.42
434.62	2412.51
434.82	2129.89
435.03	2193.37
435.23	2183.13
435.44	1964.00
435.64	2179.04
435.85	2236.38
436.06	2252.77
436.26	2312.16
436.47	2203.61
436.67	2078.69
436.88	2160.61
437.08	2355.16
437.29	2301.92
437.49	2207.71
437.70	2250.72
437.90	2183.13
438.11	2324.44
438.31	2303.96
438.52	2416.60
438.72	2377.69
438.93	2402.27
439.13	2367.45
439.34	2424.80
439.54	2209.76
439.75	2281.44
439.95	2293.72
440.16	2093.02
440.36	2191.33
440.57	2285.53
440.77	2279.39
440.98	2279.39
441.18	2242.53
441.39	2117.60
441.59	2150.37
441.80	2275.29
442.00	2248.67
442.21	2295.77
442.41	2045.92
442.62	2330.59
442.82	2183.13
443.02	2279.39
443.23	2265.05
443.43	2144.22
443.64	2336.73
443.84	2156.51
444.05	2387.93
444.25	2252.77
444.46	2181.09
444.66	2119.65
444.87	2340.83
445.07	2105.31
445.28	2199.52
445.48	2301.92
445.69	2226.14
445.89	2439.13
446.09	2285.53
446.30	2488.28
446.50	2863.06
446.71	4440.00
446.91	5603.24
447.12	6504.35
447.32	6668.19
447.53	6234.02
447.73	5162.93
447.93	4585.40
448.14	4163.52
448.34	4138.94
448.55	3579.85
448.75	3530.70
448.96	3401.68
449.16	3082.19
449.36	2885.59
449.57	2580.44
449.77	2371.55
449.98	2197.47
450.18	2230.24
450.39	2211.81
450.59	2365.40
450.79	2250.72
451.00	2183.13
451.20	2252.77
451.41	2199.52
451.61	2252.77
451.81	2176.99
452.02	2146.27
452.22	2195.42
452.43	2138.08
452.63	2152.42
452.84	2205.66
453.04	2215.90
453.24	2220.00
453.45	2172.89
453.65	2287.58
453.86	2234.33
454.06	2244.57
454.26	2271.20
454.47	1998.82
454.67	2324.44
454.87	2232.29
455.08	2246.62
455.28	2322.40
455.49	2344.92
455.69	2150.37
455.89	2451.42
456.10	2355.16
456.30	2154.46
456.51	2187.23
456.71	2256.86
456.91	2197.47
457.12	2209.76
457.32	2183.13
457.52	2156.51
457.73	2338.78
457.93	2224.09
458.14	2140.13
458.34	2142.18
458.54	2203.61
458.75	2224.09
458.95	2312.16
459.15	2226.14
459.36	2267.10
459.56	2203.61
459.76	2324.44
459.97	2230.24
460.17	2170.85
460.37	2265.05
460.58	2201.57
460.78	2316.25
460.99	2256.86
461.19	2254.81
461.39	2127.84
461.60	2183.13
461.80	2293.72
462.00	2027.49
462.21	2205.66
462.41	2150.37
462.61	2140.13
462.82	2013.15
463.02	2193.37
463.22	2166.75
463.43	2306.01
463.63	2244.57
463.83	2371.55
464.04	2203.61
464.24	2203.61
464.44	2138.08
464.64	2193.37
464.85	2269.15
465.05	2273.25
465.25	2199.52
465.46	2140.13
465.66	2265.05
465.86	2240.48
466.07	2269.15
466.27	2187.23
466.47	2052.06
466.68	2119.65
466.88	2260.96
467.08	2232.29
467.29	2299.87
467.49	2338.78
467.69	2265.05
467.89	2226.14
468.10	2148.32
468.30	2285.53
468.50	2324.44
468.71	2285.53
468.91	2119.65
469.11	2363.36
469.31	2228.19
469.52	2103.26
469.72	2342.88
469.92	2344.92
470.13	2162.66
470.33	2211.81
470.53	2295.77
470.73	2619.35
470.94	3106.77
471.14	3254.22
471.34	3508.17
471.54	3512.27
471.75	3090.38
471.95	2873.30
472.15	2787.29
472.36	2744.28
472.56	2793.43
472.76	2678.74
472.96	2605.02
473.17	2496.47
473.37	2529.24
473.57	2344.92
473.77	2228.19
473.98	2281.44
474.18	2119.65
474.38	2455.51
474.58	2224.09
474.79	2222.05
474.99	2226.14
475.19	2250.72
475.39	2064.35
475.60	2328.54
475.80	2256.86
476.00	2170.85
476.20	2189.28
476.41	2267.10
476.61	2342.88
476.81	2387.93
477.01	2082.78
477.21	2392.03
477.42	2299.87
477.62	2111.46
477.82	2269.15
478.02	2095.07
478.23	2226.14
478.43	2080.74
478.63	2191.33
478.83	2217.95
479.03	2158.56
479.24	2287.58
479.44	2392.03
479.64	2113.50
479.84	2041.82
480.04	2152.42
480.25	2293.72
480.45	2125.79
480.65	2136.03
480.85	2400.22
481.06	2201.57
481.26	2121.70
481.46	2191.33
481.66	2260.96
481.86	2170.85
482.06	2297.82
482.27	2131.94
482.47	2148.32
482.67	2170.85
482.87	2185.18
483.07	2293.72
483.28	2148.32
483.48	2146.27
483.68	2146.27
483.88	2125.79
484.08	2066.40
484.29	1996.77
484.49	2236.38
484.69	2142.18
484.89	2342.88
485.09	2213.85
485.29	2209.76
485.50	2179.04
485.70	2248.67
485.90	2346.97
486.10	2240.48
486.30	2230.24
486.50	2277.34
486.71	2242.53
486.91	2234.33
487.11	2289.63
487.31	2136.03
487.51	2203.61
487.71	2113.50
487.91	2095.07
488.12	2103.26
488.32	1974.24
488.52	2176.99
488.72	2027.49
488.92	2246.62
489.12	2234.33
489.32	2308.06
489.53	2242.53
489.73	2138.08
489.93	2334.68
490.13	2220.00
490.33	2054.11
490.53	2222.05
490.73	2258.91
490.94	2052.06
491.14	2252.77
491.34	2242.53
491.54	2553.82
491.74	3080.14
491.94	3665.86
492.14	4048.83
492.34	4167.62
492.54	3790.79
492.75	3227.60
492.95	3149.78
493.15	3022.80
493.35	2869.20
493.55	2916.31
493.75	2666.46
493.95	2731.99
494.15	2521.05
494.35	2375.64
494.56	2256.86
494.76	2181.09
494.96	2293.72
495.16	2187.23
495.36	2236.38
495.56	2265.05
495.76	2181.09
495.96	2258.91
496.16	2138.08
496.36	2351.07
496.56	2154.46
496.77	2232.29
496.97	2277.34
497.17	2404.32
497.37	2084.83
497.57	2271.20
497.77	2197.47
497.97	2140.13
498.17	2232.29
498.37	2142.18
498.57	2330.59
498.77	2146.27
498.97	2318.30
499.17	2340.83
499.38	2158.56
499.58	2236.38
499.78	2285.53
499.98	2316.25
500.18	2211.81
500.38	2142.18
500.58	2359.26
500.78	2877.40
500.98	5128.11
501.18	7255.95
501.38	9013.11
501.58	10014.57
501.78	9711.47
501.98	7817.10
502.18	6588.32
502.38	5662.63
502.58	5177.26
502.78	4689.85
502.98	4448.19
503.18	4200.38
503.38	3887.04
503.59	3506.12
503.79	3268.56
503.99	3057.62
504.19	2781.14
504.39	2828.24
504.59	2873.30
504.79	2885.59
504.99	2838.48
505.19	2660.31
505.39	2539.48
505.59	2654.17
505.79	2484.19
505.99	2418.65
506.19	2389.98
506.39	2441.18
506.59	2158.56
506.79	2291.68
506.99	2402.27
507.19	2207.71
507.39	2271.20
507.59	2115.55
507.79	2176.99
507.99	2113.50
508.19	2236.38
508.39	2220.00
508.59	2181.09
508.79	2375.64
508.99	2387.93
509.19	2228.19
509.39	2197.47
509.59	2150.37
509.79	2078.69
509.99	2213.85
510.19	2277.34
510.39	2269.15
510.59	2252.77
510.79	2127.84
510.99	2105.31
511.19	2275.29
511.39	2332.64
511.59	2226.14
511.79	2234.33
511.99	2232.29
512.19	2332.64
512.38	2228.19
512.58	2158.56
512.78	2234.33
512.98	2295.77
513.18	2342.88
513.38	2025.44
513.58	2242.53
513.78	2217.95
513.98	2203.61
514.18	2228.19
514.38	2160.61
514.58	2191.33
514.78	2148.32
514.98	2113.50
515.18	2185.18
515.38	2056.16
515.58	2422.75
515.78	2107.36
515.98	2158.56
516.18	2205.66
516.38	2129.89
516.57	2195.42
516.77	2205.66
516.97	2242.53
517.17	2183.13
517.37	2023.39
517.57	2277.34
517.77	2277.34
517.97	2172.89
518.17	2334.68
518.37	2150.37
518.57	2150.37
518.77	2195.42
518.97	2183.13
519.16	2166.75
519.36	2297.82
519.56	2199.52
519.76	2242.53
519.96	2195.42
520.16	2336.73
520.36	2138.08
520.56	2287.58
520.76	2084.83
520.96	2174.94
521.16	2301.92
521.35	2310.11
521.55	2437.08
521.75	2217.95
521.95	2203.61
522.15	2150.37
522.35	2084.83
522.55	2115.55
522.75	2252.77
522.95	2164.70
523.14	2078.69
523.34	2195.42
523.54	2127.84
523.74	2289.63
523.94	2154.46
524.14	2183.13
524.34	2176.99
524.54	2301.92
524.73	2105.31
524.93	2316.25
525.13	2252.77
525.33	2039.78
525.53	2512.86
525.73	2185.18
525.93	2242.53
526.13	2191.33
526.32	2199.52
526.52	2332.64
526.72	2310.11
526.92	2166.75
527.12	2187.23
527.32	2150.37
527.52	2222.05
527.71	2195.42
527.91	2254.81
528.11	2084.83
528.31	2211.81
528.51	2095.07
528.71	2283.49
528.90	2244.57
529.10	2314.20
529.30	2316.25
529.50	1988.58
529.70	2185.18
529.90	2174.94
530.09	2205.66
530.29	2093.02
530.49	2129.89
530.69	2400.22
530.89	2228.19
531.09	2236.38
531.28	2088.93
531.48	2336.73
531.68	2215.90
531.88	2263.01
532.08	2301.92
532.28	2236.38
532.47	2201.57
532.67	2310.11
532.87	2269.15
533.07	2144.22
533.27	2275.29
533.46	2265.05
533.66	2267.10
533.86	2269.15
534.06	2260.96
534.26	2248.67
534.45	2183.13
534.65	2340.83
534.85	2174.94
535.05	2211.81
535.25	2310.11
535.44	2080.74
535.64	2258.91
535.84	2256.86
536.04	2207.71
536.24	2115.55
536.43	2146.27
536.63	2283.49
536.83	2176.99
537.03	2152.42
537.22	2080.74
537.42	2021.35
537.62	2232.29
537.82	2078.69
538.02	2396.12
538.21	2355.16
538.41	2512.86
538.61	2260.96
538.81	2158.56
539.00	2316.25
539.20	2043.87
539.40	2154.46
539.60	2199.52
539.79	2322.40
539.99	2152.42
540.19	2045.92
540.39	2107.36
540.58	2234.33
540.78	2299.87
540.98	2183.13
541.18	2367.45
541.37	2318.30
541.57	2285.53
541.77	2254.81
541.97	2142.18
542.16	2117.60
542.36	2166.75
542.56	2158.56
542.76	2381.79
542.95	2322.40
543.15	2283.49
543.35	2297.82
543.54	2125.79
543.74	2121.70
543.94	2318.30
544.14	2207.71
544.33	2187.23
544.53	2158.56
544.73	2193.37
544.93	2215.90
545.12	2068.45
545.32	2154.46
545.52	2150.37
545.71	2103.26
545.91	2133.98
546.11	2201.57
546.30	2133.98
546.50	2168.80
546.70	2316.25
546.90	2213.85
547.09	2113.50
547.29	2232.29
547.49	2349.02
547.68	2246.62
547.88	2107.36
548.08	2330.59
548.27	2697.17
548.47	2146.27
548.67	2170.85
548.87	2232.29
549.06	2125.79
549.26	2209.76
549.46	2234.33
549.65	2109.41
549.85	2254.81
550.05	2252.77
550.24	2076.64
550.44	2181.09
550.64	2099.17
550.83	2215.90
551.03	2359.26
551.23	2353.12
551.42	2256.86
551.62	2217.95
551.82	2236.38
552.01	2236.38
552.21	2277.34
552.41	2199.52
552.60	2449.37
552.80	2232.29
553.00	2226.14
553.19	2201.57
553.39	2377.69
553.59	2052.06
553.78	2291.68
553.98	2164.70
554.17	2195.42
554.37	2273.25
554.57	2263.01
554.76	2150.37
554.96	2158.56
555.16	2195.42
555.35	2236.38
555.55	2297.82
555.75	2224.09
555.94	2279.39
556.14	2113.50
556.33	2168.80
556.53	2301.92
556.73	2242.53
556.92	2258.91
557.12	2281.44
557.32	2445.27
557.51	2260.96
557.71	2179.04
557.90	2291.68
558.10	2381.79
558.30	2256.86
558.49	2193.37
558.69	2183.13
558.88	2324.44
559.08	2234.33
559.28	2193.37
559.47	2123.74
559.67	2228.19
559.86	2469.85
560.06	2236.38
560.26	2228.19
560.45	2265.05
560.65	2172.89
560.84	2306.01
561.04	2119.65
561.24	2275.29
561.43	2115.55
561.63	2306.01
561.82	2265.05
562.02	2244.57
562.22	2166.75
562.41	2164.70
562.61	2136.03
562.80	2183.13
563.00	2596.82
563.19	2273.25
563.39	2232.29
563.59	2269.15
563.78	2076.64
563.98	2023.39
564.17	2111.46
564.37	2066.40
564.56	2181.09
564.76	2037.73
564.96	2273.25
565.15	2326.49
565.35	2439.13
565.54	2195.42
565.74	2308.06
565.93	2183.13
566.13	2269.15
566.32	2265.05
566.52	2215.90
566.71	2236.38
566.91	2363.36
567.11	2267.10
567.30	2185.18
567.50	2314.20
567.69	2277.34
567.89	2193.37
568.08	2168.80
568.28	2234.33
568.47	2138.08
568.67	2203.61
568.86	2129.89
569.06	2273.25
569.25	2162.66
569.45	2113.50
569.64	2144.22
569.84	2097.12
570.04	2267.10
570.23	2121.70
570.43	2144.22
570.62	2283.49
570.82	2375.64
571.01	2113.50
571.21	2174.94
571.40	2111.46
571.60	2357.21
571.79	2211.81
571.99	2220.00
572.18	2187.23
572.38	2279.39
572.57	2183.13
572.77	2189.28
572.96	2447.32
573.16	2254.81
573.35	2152.42
573.55	2355.16
573.74	2238.43
573.94	2273.25
574.13	2256.86
574.33	2424.80
574.52	2258.91
574.71	2230.24
574.91	2285.53
575.10	2105.31
575.30	2195.42
575.49	2125.79
575.69	2154.46
575.88	2267.10
576.08	2217.95
576.27	2359.26
576.47	2330.59
576.66	2379.74
576.86	2392.03
577.05	2273.25
577.25	2336.73
577.44	2332.64
577.64	2230.24
577.83	2301.92
578.02	2269.15
578.22	2375.64
578.41	2357.21
578.61	2224.09
578.80	2129.89
579.00	2254.81
579.19	2316.25
579.39	2260.96
579.58	2338.78
579.77	2213.85
579.97	2344.92
580.16	2334.68
580.36	2338.78
580.55	2342.88
580.75	2254.81
580.94	2256.86
581.13	2334.68
581.33	2316.25
581.52	2308.06
581.72	2453.47
581.91	2351.07
582.11	2176.99
582.30	2252.77
582.49	2199.52
582.69	2430.94
582.88	2260.96
583.08	2234.33
583.27	2355.16
583.47	2213.85
583.66	2152.42
583.85	2121.70
584.05	2242.53
584.24	2289.63
584.44	2297.82
584.63	2430.94
584.82	2451.42
585.02	2381.79
585.21	2400.22
585.41	2432.99
585.60	2332.64
585.79	2449.37
585.99	2486.23
586.18	2404.32
586.37	2904.02
586.57	4394.94
586.76	13352.76
586.96	32525.84
587.15	46224.70
587.34	55545.01
587.54	60949.60
587.73	56022.19
587.93	39617.96
588.12	29920.82
588.31	23940.75
588.51	20905.66
588.70	19226.33
588.89	17368.82
589.09	15138.58
589.28	13063.99
589.47	10520.42
589.67	8458.11
589.86	6389.66
590.06	4759.48
590.25	3813.32
590.44	3205.07
590.64	2813.91
590.83	2564.06
591.02	2426.84
591.22	2326.49
591.41	2375.64
591.60	2289.63
591.80	2498.52
591.99	2148.32
592.18	2201.57
592.38	2359.26
592.57	2275.29
592.76	2267.10
592.96	2232.29
593.15	2187.23
593.34	2357.21
593.54	2193.37
593.73	2316.25
593.92	2326.49
594.12	2293.72
594.31	2293.72
594.50	2330.59
594.70	2424.80
594.89	2539.48
595.08	2183.13
595.28	2363.36
595.47	2527.19
595.66	2301.92
595.86	2191.33
596.05	2217.95
596.24	2217.95
596.43	2422.75
596.63	2385.88
596.82	2195.42
597.01	2310.11
597.21	2449.37
597.40	2256.86
597.59	2310.11
597.79	2131.94
597.98	2283.49
598.17	2303.96
598.36	2228.19
598.56	2351.07
598.75	2252.77
598.94	2285.53
599.14	2211.81
599.33	2217.95
599.52	2234.33
599.71	2222.05
599.91	2250.72
600.10	2281.44
600.29	2236.38
600.48	2287.58
600.68	2226.14
600.87	2318.30
601.06	2113.50
601.26	2217.95
601.45	2232.29
601.64	2168.80
601.83	2344.92
602.03	2189.28
602.22	2101.22
602.41	2351.07
602.60	2443.23
602.80	2308.06
602.99	2242.53
603.18	2220.00
603.37	2242.53
603.57	2252.77
603.76	2277.34
603.95	2334.68
604.14	2166.75
604.34	2148.32
604.53	2193.37
604.72	2254.81
604.91	2228.19
605.10	2260.96
605.30	2152.42
605.49	2437.08
605.68	2314.20
605.87	2244.57
606.07	2181.09
606.26	2228.19
606.45	2269.15
606.64	2289.63
606.84	2211.81
607.03	2258.91
607.22	2336.73
607.41	2183.13
607.60	2172.89
607.80	2287.58
607.99	2144.22
608.18	2285.53
608.37	2205.66
608.56	2187.23
608.76	2392.03
608.95	2392.03
609.14	2387.93
609.33	2346.97
609.52	2437.08
609.72	2344.92
609.91	2355.16
610.10	2320.35
610.29	2375.64
610.48	2365.40
610.68	2330.59
610.87	2236.38
611.06	2256.86
611.25	2187.23
611.44	2310.11
611.63	2205.66
611.83	2379.74
612.02	2154.46
612.21	2312.16
612.40	2138.08
612.59	2086.88
612.79	2107.36
612.98	2185.18
613.17	2263.01
613.36	2220.00
613.55	2353.12
613.74	2295.77
613.93	2447.32
614.13	2463.71
614.32	2482.14
614.51	2447.32
614.70	2342.88
614.89	2256.86
615.08	2328.54
615.28	2785.24
615.47	2199.52
615.66	2308.06
615.85	2269.15
616.04	2453.47
616.23	2344.92
616.42	2285.53
616.62	2220.00
616.81	2295.77
617.00	2195.42
617.19	2287.58
617.38	2117.60
617.57	2285.53
617.76	2306.01
617.95	2199.52
618.15	2367.45
618.34	2375.64
618.53	2154.46
618.72	2303.96
618.91	2340.83
619.10	2379.74
619.29	2205.66
619.48	2207.71
619.68	2146.27
619.87	2176.99
620.06	2115.55
620.25	2250.72
620.44	2201.57
620.63	2207.71
620.82	2293.72
621.01	2258.91
621.20	2197.47
621.39	2226.14
621.59	2267.10
621.78	2256.86
621.97	2220.00
622.16	2285.53
622.35	2265.05
622.54	2314.20
622.73	2269.15
622.92	2080.74
623.11	2383.84
623.30	2240.48
623.49	2246.62
623.68	2172.89
623.88	2279.39
624.07	2238.43
624.26	2226.14
624.45	2230.24
624.64	2209.76
624.83	2303.96
625.02	2193.37
625.21	2189.28
625.40	2228.19
625.59	2297.82
625.78	2207.71
625.97	2342.88
626.16	2422.75
626.35	2373.60
626.54	2355.16
626.74	2426.84
626.93	2187.23
627.12	2211.81
627.31	2387.93
627.50	2310.11
627.69	2297.82
627.88	2213.85
628.07	2226.14
628.26	2080.74
628.45	2148.32
628.64	2156.51
628.83	2197.47
629.02	2084.83
629.21	2269.15
629.40	2211.81
629.59	2179.04
629.78	2303.96
629.97	2258.91
630.16	2213.85
630.35	2199.52
630.54	2246.62
630.73	2174.94
630.92	2244.57
631.11	2176.99
631.30	2228.19
631.49	2314.20
631.68	2275.29
631.87	2211.81
632.06	2197.47
632.25	2447.32
632.44	2260.96
632.63	2256.86
632.82	2242.53
633.01	2248.67
633.20	2301.92
633.39	2318.30
633.58	2160.61
633.77	2267.10
633.96	2349.02
634.15	2236.38
634.34	2273.25
634.53	2306.01
634.72	2121.70
634.91	2168.80
635.10	2234.33
635.29	2207.71
635.48	2308.06
635.67	2107.36
635.86	2000.87
636.05	2295.77
636.24	2230.24
636.43	2166.75
636.62	2236.38
636.81	2037.73
637.00	2209.76
637.19	2250.72
637.38	2183.13
637.57	2230.24
637.76	2199.52
637.95	2336.73
638.14	2299.87
638.33	2346.97
638.52	2349.02
638.71	2144.22
638.89	2170.85
639.08	2566.10
639.27	2451.42
639.46	2426.84
639.65	2914.26
639.84	2928.60
640.03	3082.19
640.22	2957.27
640.41	2996.18
640.60	2553.82
640.79	2596.82
640.98	2385.88
641.17	2451.42
641.36	2406.36
641.55	2435.03
641.74	2209.76
641.92	2162.66
642.11	2226.14
642.30	2330.59
642.49	2187.23
642.68	2172.89
642.87	2260.96
643.06	2260.96
643.25	2133.98
643.44	2144.22
643.63	2158.56
643.82	2263.01
644.00	2082.78
644.19	2228.19
644.38	2125.79
644.57	2187.23
644.76	2207.71
644.95	2187.23
645.14	2191.33
645.33	2185.18
645.52	2209.76
645.71	2029.54
645.89	2072.54
646.08	2176.99
646.27	2205.66
646.46	2330.59
646.65	2136.03
646.84	2269.15
647.03	2109.41
647.22	2234.33
647.40	2250.72
647.59	2148.32
647.78	2050.02
647.97	2097.12
648.16	2146.27
648.35	2334.68
648.54	2361.31
648.73	2197.47
648.91	2289.63
649.10	2224.09
649.29	2068.45
649.48	2176.99
649.67	2258.91
649.86	2209.76
650.05	2258.91
650.23	2469.85
650.42	2269.15
650.61	2400.22
650.80	2504.67
650.99	2480.09
651.18	2351.07
651.36	2312.16
651.55	2138.08
651.74	2252.77
651.93	2238.43
652.12	2185.18
652.31	2230.24
652.49	2222.05
652.68	2127.84
652.87	2412.51
653.06	2271.20
653.25	2355.16
653.44	2248.67
653.62	2394.08
653.81	2238.43
654.00	2176.99
654.19	2269.15
654.38	2486.23
654.56	2215.90
654.75	2203.61
654.94	2256.86
655.13	2154.46
655.32	2168.80
655.51	2248.67
655.69	2197.47
655.88	2281.44
656.07	2138.08
656.26	2201.57
656.45	2121.70
656.63	2220.00
656.82	2226.14
657.01	2289.63
657.20	2113.50
657.38	2381.79
657.57	2224.09
657.76	2080.74
657.95	2293.72
658.14	2158.56
658.32	2197.47
658.51	2121.70
658.70	2222.05
658.89	2189.28
659.08	2195.42
659.26	2314.20
659.45	2174.94
659.64	2306.01
659.83	2215.90
660.01	2580.44
660.20	2283.49
660.39	2408.41
660.58	2050.02
660.76	2314.20
660.95	2154.46
661.14	2146.27
661.33	2121.70
661.51	2179.04
661.70	2256.86
661.89	2299.87
662.08	2162.66
662.26	2084.83
662.45	2144.22
662.64	2369.50
662.83	2277.34
663.01	2115.55
663.20	2162.66
663.39	2406.36
663.58	2205.66
663.76	2144.22
663.95	2269.15
664.14	2158.56
664.32	2232.29
664.51	2140.13
664.70	2037.73
664.89	2185.18
665.07	2088.93
665.26	2217.95
665.45	2154.46
665.64	2308.06
665.82	2176.99
666.01	2263.01
666.20	2082.78
666.38	2263.01
666.57	2402.27
666.76	3352.52
666.95	8017.80
667.13	16432.90
667.32	21776.05
667.51	25775.73
667.69	27600.47
667.88	25431.68
668.07	18083.56
668.25	14634.78
668.44	12001.10
668.63	10248.04
668.81	9334.64
669.00	8009.61
669.19	6969.24
669.38	6148.00
669.56	5341.10
669.75	4374.46
669.94	3702.73
670.12	3170.26
670.31	2758.61
670.50	2596.82
670.68	2457.56
670.87	2330.59
671.06	2285.53
671.24	2295.77
671.43	2449.37
671.62	2285.53
671.80	2193.37
671.99	2232.29
672.18	2338.78
672.36	2238.43
672.55	2252.77
672.74	2252.77
672.92	2150.37
673.11	2314.20
673.29	2119.65
673.48	2207.71
673.67	2150.37
673.85	2293.72
674.04	2148.32
674.23	2260.96
674.41	2369.50
674.60	2121.70
674.79	2146.27
674.97	2123.74
675.16	2349.02
675.34	2252.77
675.53	2146.27
675.72	2209.76
675.90	2359.26
676.09	2166.75
676.28	2252.77
676.46	2115.55
676.65	2336.73
676.83	2152.42
677.02	2203.61
677.21	2162.66
677.39	2209.76
677.58	2158.56
677.77	2146.27
677.95	2142.18
678.14	2150.37
678.32	2236.38
678.51	2133.98
678.70	2353.12
678.88	2103.26
679.07	2236.38
679.25	2258.91
679.44	2226.14
679.63	2148.32
679.81	2201.57
680.00	2344.92
680.18	2265.05
680.37	2344.92
680.55	2248.67
680.74	2013.15
680.93	2074.59
681.11	2240.48
681.30	2205.66
681.48	2164.70
681.67	2101.22
681.85	2222.05
682.04	2119.65
682.23	2330.59
682.41	2310.11
682.60	2203.61
682.78	2232.29
682.97	2160.61
683.15	2226.14
683.34	2209.76
683.53	2310.11
683.71	2076.64
683.90	2256.86
684.08	2375.64
684.27	2205.66
684.45	2228.19
684.64	2275.29
684.82	2160.61
685.01	2183.13
685.19	2244.57
685.38	2367.45
685.57	2199.52
685.75	2084.83
685.94	2209.76
686.12	2101.22
686.31	2234.33
686.49	2414.56
686.68	2105.31
686.86	2238.43
687.05	2138.08
687.23	2373.60
687.42	2172.89
687.60	2064.35
687.79	2318.30
687.97	2351.07
688.16	2254.81
688.34	2295.77
688.53	2064.35
688.71	2242.53
688.90	2293.72
689.08	2189.28
689.27	2015.20
689.45	2254.81
689.64	2224.09
689.82	2199.52
690.01	2203.61
690.19	2244.57
690.38	2242.53
690.56	2351.07
690.75	2195.42
690.93	2146.27
691.12	2164.70
691.30	2166.75
691.49	2203.61
691.67	2203.61
691.86	2392.03
692.04	2191.33
692.23	2162.66
692.41	2271.20
692.60	2449.37
692.78	2340.83
692.97	2222.05
693.15	2310.11
693.34	2439.13
693.52	2277.34
693.71	2129.89
693.89	2224.09
694.08	2045.92
694.26	2306.01
694.44	2246.62
694.63	2308.06
694.81	2111.46
695.00	2088.93
695.18	2293.72
695.37	2510.81
695.55	2265.05
695.74	2213.85
695.92	2090.98
696.10	2320.35
696.29	2154.46
696.47	2111.46
696.66	2103.26
696.84	2154.46
697.03	2213.85
697.21	2367.45
697.40	3112.91
697.58	2310.11
697.76	2170.85
697.95	2095.07
698.13	2113.50
698.32	2172.89
698.50	2267.10
698.68	2271.20
698.87	2244.57
699.05	2291.68
699.24	2154.46
699.42	2158.56
699.61	2201.57
699.79	2215.90
699.97	2215.90
700.16	2056.16
700.34	2095.07
700.53	2293.72
700.71	2332.64
700.89	2265.05
701.08	2193.37
701.26	2187.23
701.45	2719.70
701.63	2070.50
701.81	2228.19
702.00	2246.62
702.18	2232.29
702.37	2248.67
702.55	2469.85
702.73	2373.60
702.92	2396.12
703.10	2484.19
703.28	2545.63
703.47	2242.53
703.65	2449.37
703.84	2396.12
704.02	2226.14
704.20	2445.27
704.39	2158.56
704.57	2209.76
704.75	2355.16
704.94	2263.01
705.12	2248.67
705.30	2478.04
705.49	4609.98
705.67	10958.68
705.86	20215.50
706.04	24352.40
706.22	27756.12
706.41	29402.69
706.59	24929.92
706.77	17729.27
706.96	14661.41
707.14	12693.31
707.32	11038.55
707.51	9717.61
707.69	7972.74
707.87	6479.77
708.06	5138.35
708.24	4214.72
708.42	3274.70
708.61	3104.72
708.79	2459.61
708.97	2367.45
709.16	2340.83
709.34	2322.40
709.52	2203.61
709.71	2205.66
709.89	2291.68
710.07	2133.98
710.26	2228.19
710.44	2144.22
710.62	2281.44
710.80	2234.33
710.99	2269.15
711.17	2267.10
711.35	2099.17
711.54	2146.27
711.72	2318.30
711.90	2248.67
712.09	2193.37
712.27	2162.66
712.45	2277.34
712.63	2133.98
712.82	2260.96
713.00	2226.14
713.18	2252.77
713.37	2291.68
713.55	2373.60
713.73	2248.67
713.91	2281.44
714.10	2215.90
714.28	2207.71
714.46	2207.71
714.65	2228.19
714.83	2209.76
715.01	2160.61
715.19	2133.98
715.38	2195.42
715.56	2265.05
715.74	2113.50
715.92	2095.07
716.11	2226.14
716.29	2056.16
716.47	2299.87
716.65	2277.34
716.84	2084.83
717.02	2293.72
717.20	2101.22
717.38	2131.94
717.57	2277.34
717.75	2222.05
717.93	2209.76
718.11	2328.54
718.30	2129.89
718.48	2207.71
718.66	2256.86
718.84	2295.77
719.03	2162.66
719.21	2093.02
719.39	2392.03
719.57	2267.10
719.75	2244.57
719.94	2115.55
720.12	2121.70
720.30	2244.57
720.48	2244.57
720.67	2117.60
720.85	2127.84
721.03	2176.99
721.21	2138.08
721.39	2283.49
721.58	2279.39
721.76	2193.37
721.94	2191.33
722.12	2193.37
722.30	2314.20
722.49	2189.28
722.67	2220.00
722.85	2205.66
723.03	2072.54
723.21	2244.57
723.40	2224.09
723.58	2299.87
723.76	2326.49
723.94	2332.64
724.12	2220.00
724.30	2291.68
724.49	2351.07
724.67	2154.46
724.85	2392.03
725.03	2099.17
725.21	2287.58
725.40	2340.83
725.58	2181.09
725.76	2312.16
725.94	2306.01
726.12	2080.74
726.30	2291.68
726.49	2248.67
726.67	2228.19
726.85	2172.89
727.03	2484.19
727.21	3717.06
727.39	5470.12
727.57	6578.08
727.76	7362.45
727.94	7602.06
728.12	7212.95
728.30	5722.02
728.48	4951.99
728.66	4442.04
728.84	4122.56
729.03	3497.93
729.21	3235.79
729.39	2777.05
729.57	2471.90
729.75	2357.21
729.93	2312.16
730.11	2222.05
730.30	2244.57
730.48	2172.89
730.66	2398.17
730.84	2265.05
731.02	2236.38
731.20	2138.08
731.38	2183.13
731.56	2109.41
731.74	2084.83
731.93	2234.33
732.11	2121.70
732.29	2176.99
732.47	2246.62
732.65	2224.09
732.83	2224.09
733.01	2258.91
733.19	2187.23
733.37	2191.33
733.56	2199.52
733.74	2201.57
733.92	2338.78
734.10	2174.94
734.28	2152.42
734.46	2088.93
734.64	2113.50
734.82	2150.37
735.00	2127.84
735.18	2105.31
735.36	2256.86
735.54	2273.25
735.73	2220.00
735.91	2246.62
736.09	2236.38
736.27	2133.98
736.45	2228.19
736.63	2039.78
736.81	2195.42
736.99	2379.74
737.17	2328.54
737.35	2166.75
737.53	2195.42
737.71	2209.76
737.89	2236.38
738.07	2113.50
738.25	2121.70
738.43	2050.02
738.61	2193.37
738.80	2113.50
738.98	2070.50
739.16	2185.18
739.34	2160.61
739.52	2373.60
739.70	2183.13
739.88	2293.72
740.06	2242.53
740.24	2062.30
740.42	2299.87
740.60	2019.30
740.78	2170.85
740.96	2072.54
741.14	2162.66
741.32	2277.34
741.50	2113.50
741.68	2445.27
741.86	2435.03
742.04	2193.37
742.22	2090.98
742.40	2195.42
742.58	2191.33
742.76	2131.94
742.94	2258.91
743.12	2107.36
743.30	2152.42
743.48	2256.86
743.66	2160.61
743.84	2240.48
744.02	2158.56
744.20	2133.98
744.38	2129.89
744.56	2144.22
744.74	2338.78
744.92	2199.52
745.10	2316.25
745.28	2228.19
745.46	2437.08
745.64	2174.94
745.82	2250.72
746.00	2156.51
746.18	2181.09
746.36	2103.26
746.54	2238.43
746.72	2133.98
746.90	2119.65
747.08	2324.44
747.26	2189.28
747.44	2238.43
747.62	2201.57
747.80	2273.25
747.98	2244.57
748.15	2176.99
748.33	2392.03
748.51	2293.72
748.69	2275.29
748.87	2170.85
749.05	2150.37
749.23	2205.66
749.41	2185.18
749.59	2254.81
749.77	2244.57
749.95	2234.33
750.13	2127.84
750.31	2191.33
750.49	2152.42
750.67	2306.01
750.85	2334.68
751.03	2111.46
751.20	2418.65
751.38	2170.85
751.56	2113.50
751.74	2205.66
751.92	2095.07
752.10	2056.16
752.28	2306.01
752.46	2142.18
752.64	2158.56
752.82	2189.28
753.00	2351.07
753.18	2199.52
753.35	2146.27
753.53	2170.85
753.71	2172.89
753.89	2248.67
754.07	2166.75
754.25	2301.92
754.43	2183.13
754.61	2170.85
754.79	2238.43
754.97	2152.42
755.14	2310.11
755.32	2170.85
755.50	2197.47
755.68	2265.05
755.86	2129.89
756.04	2164.70
756.22	1970.15
756.40	2258.91
756.57	2381.79
756.75	2215.90
756.93	2377.69
757.11	2301.92
757.29	2088.93
757.47	2080.74
757.65	2029.54
757.82	1998.82
758.00	2037.73
758.18	2170.85
758.36	2109.41
758.54	2373.60
758.72	2023.39
758.90	2283.49
759.07	2205.66
759.25	2129.89
759.43	2209.76
759.61	2088.93
759.79	3088.34
759.97	2279.39
760.15	2119.65
760.32	2232.29
760.50	2226.14
760.68	2322.40
760.86	2056.16
761.04	2244.57
761.22	2252.77
761.39	2226.14
761.57	2252.77
761.75	2162.66
761.93	2230.24
762.11	2230.24
762.28	2201.57
762.46	2105.31
762.64	2320.35
762.82	2072.54
763.00	2191.33
763.18	2283.49
763.35	2131.94
763.53	2252.77
763.71	2293.72
763.89	2172.89
764.07	2346.97
764.24	2099.17
764.42	2252.77
764.60	2136.03
764.78	2193.37
764.96	2342.88
765.13	2224.09
765.31	2242.53
765.49	2230.24
765.67	2097.12
765.84	2138.08
766.02	2080.74
766.20	2076.64
766.38	2199.52
766.56	2301.92
766.73	2254.81
766.91	2205.66
767.09	2195.42
767.27	2207.71
767.44	2072.54
767.62	2275.29
767.80	2240.48
767.98	2142.18
768.15	2097.12
768.33	2285.53
768.51	2353.12
768.69	2244.57
768.87	2224.09
769.04	2306.01
769.22	2406.36
769.40	2285.53
769.58	2412.51
769.75	2232.29
769.93	2256.86
770.11	2240.48
770.28	2076.64
770.46	2260.96
770.64	2215.90
770.82	2179.04
770.99	2113.50
771.17	2260.96
771.35	2152.42
771.53	2183.13
771.70	2191.33
771.88	2252.77
772.06	2138.08
772.23	2179.04
772.41	2256.86
772.59	2164.70
772.77	2099.17
772.94	2170.85
773.12	2193.37
773.30	2150.37
773.47	2203.61
773.65	2207.71
773.83	2346.97
774.01	2136.03
774.18	2033.63
774.36	2136.03
774.54	2099.17
774.71	2213.85
774.89	2086.88
775.07	2113.50
775.24	2148.32
775.42	2136.03
775.60	2310.11
775.78	2201.57
775.95	2023.39
776.13	2047.97
776.31	2041.82
776.48	2199.52
776.66	2324.44
776.84	2146.27
777.01	2138.08
777.19	2107.36
777.37	2166.75
777.54	2252.77
777.72	2398.17
777.90	2193.37
778.07	2086.88
778.25	2512.86
778.43	2308.06
778.60	2041.82
778.78	2256.86
778.96	2398.17
779.13	2015.20
779.31	2303.96
779.49	2150.37
779.66	2166.75
779.84	2220.00
780.01	2179.04
780.19	2127.84
780.37	2308.06
780.54	2254.81
780.72	2101.22
780.90	2136.03
781.07	2238.43
781.25	2207.71
781.43	2318.30
781.60	2142.18
781.78	2228.19
781.95	2213.85
782.13	2121.70
782.31	2127.84
782.48	2078.69
782.66	2076.64
782.83	2422.75
783.01	2232.29
783.19	2336.73
783.36	2215.90
783.54	2082.78
783.72	2279.39
783.89	2187.23
784.07	2176.99
784.24	2138.08
784.42	2326.49
784.60	2189.28
784.77	2199.52
784.95	1992.67
785.12	2105.31
785.30	2211.81
785.47	2088.93
785.65	2211.81
785.83	2047.97
786.00	2113.50
786.18	2213.85
786.35	2009.06
786.53	2052.06
786.71	2355.16
786.88	2242.53
787.06	2152.42
787.23	2154.46
787.41	2144.22
787.58	2207.71
787.76	2101.22
787.94	2217.95
788.11	2129.89
788.29	2211.81
788.46	2179.04
788.64	2068.45
788.81	2174.94
788.99	2156.51
789.16	2140.13
789.34	2121.70
789.52	2195.42
789.69	2133.98
789.87	1992.67
790.04	2148.32
790.22	2170.85
790.39	2432.99
790.57	2140.13
790.74	2125.79
790.92	2291.68
791.09	2084.83
791.27	2226.14
791.44	2254.81
791.62	2189.28
791.79	2260.96
791.97	2242.53
792.15	2478.04
792.32	2258.91
792.50	2314.20
792.67	2281.44
792.85	2293.72
793.02	2226.14
793.20	2117.60
793.37	2093.02
793.55	2162.66
793.72	2066.40
793.90	2168.80
794.07	2150.37
794.25	2154.46
794.42	2144.22
794.60	2113.50
794.77	2254.81
794.95	2240.48
795.12	2326.49
795.30	2111.46
795.47	2095.07
795.65	2408.41
795.82	2226.14
796.00	2097.12
796.17	2076.64
796.34	2133.98
796.52	2234.33
796.69	2279.39
796.87	2199.52
797.04	2230.24
797.22	2213.85
797.39	2154.46
797.57	2193.37
797.74	2179.04
797.92	2195.42
798.09	2162.66
798.27	2287.58
798.44	2127.84
798.62	2088.93
798.79	2197.47
798.96	2269.15
799.14	2201.57
799.31	2398.17
799.49	2179.04
799.66	2187.23
799.84	2203.61
800.01	2031.58
800.19	2207.71
800.36	2045.92
800.53	2187.23
800.71	2224.09
800.88	2273.25
801.06	2097.12
801.23	2152.42
801.41	2166.75
801.58	2138.08
801.75	2101.22
801.93	2164.70
802.10	2234.33
802.28	2172.89
802.45	2146.27
802.63	2222.05
802.80	2383.84
802.97	2138.08
803.15	2215.90
803.32	2117.60
803.50	2121.70
803.67	2117.60
803.84	2037.73
804.02	2140.13
804.19	2232.29
804.37	2058.21
804.54	2066.40
804.71	2244.57
804.89	2248.67
805.06	2125.79
805.24	2054.11
805.41	1986.53
805.58	2105.31
805.76	2422.75
805.93	2111.46
806.10	2336.73
806.28	2209.76
806.45	2258.91
806.63	2166.75
806.80	2203.61
806.97	2269.15
807.15	2273.25
807.32	2170.85
807.49	2215.90
807.67	2119.65
807.84	2215.90
808.01	2031.58
808.19	2365.40
808.36	2498.52
808.54	2131.94
808.71	2086.88
808.88	2189.28
809.06	2303.96
809.23	2230.24
809.40	2191.33
809.58	2273.25
809.75	2113.50
809.92	2131.94
810.10	2383.84
810.27	2179.04
810.44	2195.42
810.62	2299.87
810.79	2136.03
810.96	2170.85
811.14	2129.89
811.31	2226.14
811.48	2283.49
811.66	2117.60
811.83	2285.53
812.00	2252.77
812.18	2234.33
812.35	2336.73
812.52	2156.51
812.69	2166.75
812.87	2138.08
813.04	2086.88
813.21	2176.99
813.39	2129.89
813.56	2121.70
813.73	2385.88
813.91	2035.68
814.08	2260.96
814.25	2113.50
814.42	2062.30
814.60	2187.23
814.77	2162.66
814.94	2168.80
815.12	2136.03
815.29	2334.68
815.46	2074.59
815.63	2250.72
815.81	2166.75
815.98	2127.84
816.15	2158.56
816.33	2170.85
816.50	2119.65
816.67	2228.19
816.84	2209.76
817.02	2117.60
817.19	2168.80
817.36	2179.04
817.53	2230.24
817.71	2156.51
817.88	2220.00
818.05	2179.04
818.22	2043.87
818.40	2312.16
818.57	2062.30
818.74	2240.48
818.91	2183.13
819.09	2277.34
819.26	2279.39
819.43	2095.07
819.60	2115.55
819.78	2295.77
819.95	2334.68
820.12	2121.70
820.29	2269.15
820.47	2338.78
820.64	2115.55
820.81	2146.27
820.98	2062.30
821.15	2207.71
821.33	2260.96
821.50	2070.50
821.67	2211.81
821.84	2113.50
822.02	2220.00
822.19	2260.96
822.36	2101.22
822.53	2144.22
822.70	2121.70
822.88	2109.41
823.05	2258.91
823.22	2174.94
823.39	2281.44
823.56	2189.28
823.74	2394.08
823.91	2084.83
824.08	2072.54
824.25	2035.68
824.42	2424.80
824.60	2082.78
824.77	2226.14
824.94	2133.98
825.11	2230.24
825.28	2023.39
825.45	2281.44
825.63	2201.57
825.80	2064.35
825.97	2220.00
826.14	2150.37
826.31	2007.01
826.48	2238.43
826.66	2078.69
826.83	2125.79
827.00	2183.13
827.17	2076.64
827.34	2162.66
827.51	2131.94
827.69	2109.41
827.86	2015.20
828.03	2160.61
828.20	2148.32
828.37	2109.41
828.54	2199.52
828.71	2097.12
828.89	2242.53
829.06	2201.57
829.23	2293.72
829.40	2136.03
829.57	2195.42
829.74	2301.92
829.91	2129.89
830.09	2158.56
830.26	2189.28
830.43	2314.20
830.60	2138.08
830.77	2170.85
830.94	2326.49
831.11	2226.14
831.28	2203.61
831.46	2387.93
831.63	2197.47
831.80	2281.44
831.97	2115.55
832.14	2150.37
832.31	2269.15
832.48	2234.33
832.65	2279.39
832.82	2217.95
832.99	2226.14
833.17	2101.22
833.34	2332.64
833.51	2203.61
833.68	2070.50
833.85	2324.44
834.02	2062.30
834.19	2113.50
834.36	2154.46
834.53	2160.61
834.70	2281.44
834.87	2162.66
835.04	2103.26
835.22	2129.89
835.39	2150.37
835.56	2113.50
835.73	2142.18
835.90	2324.44
836.07	2119.65
836.24	2289.63
836.41	2070.50
836.58	2117.60
836.75	2281.44
836.92	2230.24
837.09	2138.08
837.26	2220.00
837.43	2230.24
837.60	2189.28
837.77	2117.60
837.94	2285.53
838.12	2312.16
838.29	2236.38
838.46	2162.66
838.63	2064.35
838.80	2367.45
838.97	2256.86
839.14	2209.76
839.31	2181.09
839.48	2256.86
839.65	2136.03
839.82	2244.57
839.99	2185.18
840.16	2166.75
840.33	2160.61
840.50	2230.24
840.67	2099.17
840.84	2000.87
841.01	2179.04
841.18	2129.89
841.35	2127.84
841.52	2213.85
841.69	2326.49
841.86	2185.18
842.03	2136.03
842.20	2330.59
842.37	2205.66
842.54	2138.08
842.71	2125.79
842.88	2121.70
843.05	2154.46
843.22	2117.60
843.39	2242.53
843.56	2119.65
843.73	2146.27
843.90	2252.77
844.07	2181.09
844.24	2256.86
844.41	2275.29
844.58	2191.33
844.75	2164.70
844.92	2246.62
845.09	2183.13
845.26	2058.21
845.43	2179.04
845.60	2088.93
845.77	2250.72
845.94	2142.18
846.10	2269.15
846.27	2068.45
846.44	2154.46
846.61	2084.83
846.78	2201.57
846.95	2267.10
847.12	2144.22
847.29	2111.46
847.46	2162.66
847.63	2244.57
847.80	2045.92
847.97	2119.65
848.14	2398.17
848.31	2150.37
848.48	2017.25
848.65	2211.81
848.82	2187.23
848.98	2349.02
849.15	2209.76
849.32	2283.49
849.49	2279.39
849.66	2142.18
849.83	2205.66
850.00	2045.92
850.17	2217.95
850.34	2242.53
850.51	2115.55
850.68	2142.18
850.85	2469.85
851.01	2285.53
851.18	2179.04
851.35	2072.54
851.52	2220.00
851.69	2291.68
851.86	2066.40
852.03	2097.12
852.20	2293.72
852.37	2232.29
852.53	2039.78
852.70	2140.13
852.87	2220.00
853.04	2334.68
853.21	2115.55
853.38	2224.09
853.55	2312.16
853.72	2252.77
853.89	2109.41
854.05	2103.26
854.22	2146.27
854.39	2209.76
854.56	2252.77
854.73	2291.68
854.90	2136.03
855.07	2176.99
855.23	2097.12
855.40	2133.98
855.57	2215.90
855.74	2027.49
855.91	2344.92
856.08	2090.98
856.25	2084.83
856.41	2158.56
856.58	2154.46
856.75	2105.31
856.92	2093.02
857.09	2279.39
857.26	2015.20
857.42	2156.51
857.59	2306.01
857.76	2179.04
857.93	2211.81
858.10	2152.42
858.27	2142.18
858.43	2215.90
858.60	2113.50
858.77	2047.97
858.94	2080.74
859.11	2211.81
859.27	2056.16
859.44	2185.18
859.61	2363.36
859.78	2211.81
859.95	2095.07
860.12	2056.16
860.28	2392.03
860.45	2342.88
860.62	2185.18
860.79	2185.18
860.95	2158.56
861.12	2115.55
861.29	2152.42
861.46	2058.21
861.63	2207.71
861.79	2158.56
861.96	2088.93
862.13	2121.70
862.30	2289.63
862.47	2187.23
862.63	2029.54
862.80	2183.13
862.97	2291.68
863.14	2224.09
863.30	2236.38
863.47	2121.70
863.64	2318.30
863.81	2217.95
863.97	2062.30
864.14	2138.08
864.31	2088.93
864.48	2174.94
864.65	2060.26
864.81	2236.38
864.98	2332.64
865.15	2207.71
865.32	2285.53
865.48	2265.05
865.65	2349.02
865.82	2146.27
865.98	2179.04
866.15	2179.04
866.32	2179.04
866.49	2129.89
866.65	2242.53
866.82	2056.16
866.99	2195.42
867.16	2105.31
867.32	2111.46
867.49	2127.84
867.66	2125.79
867.83	2084.83
867.99	2127.84
868.16	2136.03
868.33	1992.67
868.49	2297.82
868.66	2125.79
868.83	2207.71
868.99	2179.04
869.16	2201.57
869.33	2152.42
869.50	2185.18
869.66	2252.77
869.83	2224.09
870.00	2121.70
870.16	2209.76
870.33	2125.79
870.50	2248.67
870.66	2258.91
870.83	2195.42
871.00	2144.22
871.17	2211.81
871.33	2258.91
871.50	2150.37
871.67	2144.22
871.83	2052.06
872.00	2252.77
872.17	2109.41
872.33	2375.64
872.50	2295.77
872.67	2138.08
872.83	2144.22
873.00	2220.00
873.17	2131.94
873.33	2179.04
873.50	2236.38
873.67	2136.03
873.83	2148.32
874.00	2158.56
874.16	2228.19
874.33	2162.66
874.50	2136.03
874.66	2131.94
874.83	2209.76
875.00	2326.49
875.16	2308.06
875.33	2277.34
875.50	1990.63
875.66	2150.37
875.83	2164.70
875.99	2133.98
876.16	2191.33
876.33	2209.76
876.49	2209.76
876.66	2176.99
876.83	2131.94
876.99	2080.74
877.16	2138.08
877.32	2095.07
877.49	2185.18
877.66	2191.33
877.82	2310.11
877.99	2162.66
878.15	2203.61
878.32	2273.25
878.49	2119.65
878.65	2140.13
878.82	2285.53
878.98	2136.03
879.15	2258.91
879.32	2158.56
879.48	2260.96
879.65	2187.23
879.81	2172.89
879.98	2072.54
880.15	2166.75
880.31	2299.87
880.48	2093.02
880.64	2228.19
880.81	2203.61
880.97	2326.49
881.14	2369.50
881.31	2068.45
881.47	2322.40
881.64	2174.94
881.80	2043.87
881.97	2213.85
882.13	2236.38
882.30	2113.50
882.47	2148.32
882.63	2107.36
882.80	2007.01
882.96	2146.27
883.13	2260.96
883.29	2193.37
883.46	2154.46
883.62	2467.80
883.79	2142.18
883.95	2318.30
884.12	2156.51
884.29	2322.40
884.45	2162.66
884.62	2236.38
884.78	2047.97
884.95	2351.07
885.11	2064.35
885.28	2209.76
885.44	2080.74
885.61	2176.99
885.77	2303.96
885.94	2176.99
886.10	2103.26
886.27	2195.42
886.43	2340.83
886.60	2287.58
886.76	2164.70
886.93	2078.69
887.09	2213.85
887.26	2023.39
887.42	2101.22
887.59	2281.44
887.75	2363.36
887.92	2240.48
888.08	2252.77
888.25	2377.69
888.41	2250.72
888.58	2168.80
888.74	2131.94
888.91	2076.64
>>>>>End Processed Spectral Data<<<<<
