SpectraSuite Data File
++++++++++++++++++++++++++++++++++++
Date: Thu May 05 12:35:42 CEST 2016
User: root
Dark Spectrum Present: No
Reference Spectrum Present: No
Number of Sampled Component Spectra: 1
Spectrometers: USB4C02835
Integration Time (usec): 100000 (USB4C02835)
Spectra Averaged: 1 (USB4C02835)
Boxcar Smoothing: 0 (USB4C02835)
Correct for Electrical Dark: No (USB4C02835)
Strobe/Lamp Enabled: No (USB4C02835)
Correct for Detector Non-linearity: No (USB4C02835)
Correct for Stray Light: No (USB4C02835)
Number of Pixels in Processed Spectrum: 3648
>>>>>Begin Processed Spectral Data<<<<<
177.47	1769.44
177.69	1769.44
177.91	1769.44
178.13	1755.11
178.36	1783.78
178.58	2066.40
178.80	2199.52
179.02	2111.46
179.24	2103.26
179.46	2144.22
179.68	2256.86
179.90	2119.65
180.13	2193.37
180.35	2109.41
180.57	2086.88
180.79	2187.23
181.01	2211.81
181.23	2232.29
181.45	2191.33
181.67	2207.71
181.90	2273.25
182.12	2080.74
182.34	2064.35
182.56	2242.53
182.78	2236.38
183.00	2117.60
183.22	2152.42
183.44	2043.87
183.66	2510.81
183.89	2295.77
184.11	2127.84
184.33	2187.23
184.55	2355.16
184.77	2140.13
184.99	2217.95
185.21	2107.36
185.43	2488.28
185.65	2105.31
185.87	2170.85
186.10	2404.32
186.32	2398.17
186.54	2228.19
186.76	2172.89
186.98	2312.16
187.20	2133.98
187.42	2189.28
187.64	2023.39
187.86	2244.57
188.08	2340.83
188.30	2093.02
188.52	2107.36
188.75	2293.72
188.97	2291.68
189.19	2113.50
189.41	2101.22
189.63	2244.57
189.85	2125.79
190.07	2027.49
190.29	2121.70
190.51	2189.28
190.73	2041.82
190.95	2222.05
191.17	2146.27
191.39	2068.45
191.61	2136.03
191.84	2070.50
192.06	2148.32
192.28	2103.26
192.50	2414.56
192.72	2193.37
192.94	2138.08
193.16	2308.06
193.38	2222.05
193.60	2054.11
193.82	2105.31
194.04	2211.81
194.26	2236.38
194.48	2088.93
194.70	2172.89
194.92	2140.13
195.14	2207.71
195.36	2082.78
195.58	2105.31
195.80	2189.28
196.02	2138.08
196.24	2088.93
196.46	2154.46
196.69	2158.56
196.91	2416.60
197.13	2086.88
197.35	2172.89
197.57	2369.50
197.79	2277.34
198.01	2199.52
198.23	2199.52
198.45	2273.25
198.67	2113.50
198.89	2088.93
199.11	2152.42
199.33	2082.78
199.55	2000.87
199.77	2109.41
199.99	2260.96
200.21	2144.22
200.43	2263.01
200.65	2023.39
200.87	2015.20
201.09	2248.67
201.31	2119.65
201.53	2197.47
201.75	2187.23
201.97	2269.15
202.19	2170.85
202.41	2183.13
202.63	2299.87
202.85	2230.24
203.07	2254.81
203.29	2129.89
203.51	2097.12
203.73	2064.35
203.95	2455.51
204.17	2103.26
204.39	2215.90
204.61	2133.98
204.83	2086.88
205.05	2148.32
205.27	2193.37
205.49	2361.31
205.71	2082.78
205.93	2039.78
206.15	2121.70
206.37	2201.57
206.59	2176.99
206.81	2035.68
207.03	2068.45
207.25	2082.78
207.47	2252.77
207.69	2119.65
207.91	2269.15
208.13	2338.78
208.34	2176.99
208.56	2119.65
208.78	2191.33
209.00	2150.37
209.22	2090.98
209.44	2236.38
209.66	2097.12
209.88	2185.18
210.10	2170.85
210.32	2109.41
210.54	2258.91
210.76	2103.26
210.98	2295.77
211.20	1939.43
211.42	2199.52
211.64	2369.50
211.86	2279.39
212.08	2197.47
212.30	2154.46
212.52	2185.18
212.74	2142.18
212.96	2103.26
213.17	2213.85
213.39	2226.14
213.61	2291.68
213.83	2207.71
214.05	2119.65
214.27	2279.39
214.49	2158.56
214.71	2103.26
214.93	2205.66
215.15	2162.66
215.37	2242.53
215.59	2043.87
215.81	2090.98
216.03	2312.16
216.24	2168.80
216.46	2209.76
216.68	2146.27
216.90	2291.68
217.12	2346.97
217.34	2103.26
217.56	2193.37
217.78	2349.02
218.00	2213.85
218.22	2146.27
218.44	2146.27
218.66	2189.28
218.87	2340.83
219.09	2097.12
219.31	2107.36
219.53	2203.61
219.75	2138.08
219.97	2097.12
220.19	2136.03
220.41	2181.09
220.63	2389.98
220.85	2142.18
221.06	2144.22
221.28	2260.96
221.50	2205.66
221.72	2168.80
221.94	2093.02
222.16	2209.76
222.38	2258.91
222.60	2162.66
222.82	2123.74
223.03	2338.78
223.25	2019.30
223.47	2160.61
223.69	2346.97
223.91	2308.06
224.13	2162.66
224.35	2074.59
224.57	2248.67
224.78	2224.09
225.00	2140.13
225.22	2170.85
225.44	2146.27
225.66	2279.39
225.88	2160.61
226.10	2203.61
226.32	2232.29
226.53	2289.63
226.75	2176.99
226.97	2084.83
227.19	2093.02
227.41	2230.24
227.63	2093.02
227.85	2052.06
228.06	2162.66
228.28	2201.57
228.50	2263.01
228.72	2056.16
228.94	2099.17
229.16	2031.58
229.37	2095.07
229.59	2050.02
229.81	2273.25
230.03	2121.70
230.25	2097.12
230.47	2088.93
230.69	2052.06
230.90	2289.63
231.12	2162.66
231.34	2136.03
231.56	2211.81
231.78	2138.08
232.00	2209.76
232.21	2156.51
232.43	2146.27
232.65	2007.01
232.87	2193.37
233.09	2039.78
233.30	2113.50
233.52	2334.68
233.74	2242.53
233.96	2123.74
234.18	2203.61
234.40	2191.33
234.61	2385.88
234.83	2052.06
235.05	2078.69
235.27	2453.47
235.49	2365.40
235.70	2097.12
235.92	2287.58
236.14	2207.71
236.36	2453.47
236.58	2031.58
236.79	2201.57
237.01	2252.77
237.23	2203.61
237.45	2334.68
237.67	2076.64
237.88	2236.38
238.10	2297.82
238.32	2054.11
238.54	2082.78
238.76	2166.75
238.97	2179.04
239.19	2099.17
239.41	2181.09
239.63	2271.20
239.85	2127.84
240.06	2191.33
240.28	2029.54
240.50	2314.20
240.72	2170.85
240.93	2078.69
241.15	2217.95
241.37	2203.61
241.59	2369.50
241.81	2160.61
242.02	2160.61
242.24	2103.26
242.46	2265.05
242.68	2011.11
242.89	2129.89
243.11	2283.49
243.33	2187.23
243.55	2195.42
243.76	2199.52
243.98	2109.41
244.20	2246.62
244.42	2183.13
244.64	2176.99
244.85	2062.30
245.07	2115.55
245.29	2170.85
245.51	2162.66
245.72	2170.85
245.94	2310.11
246.16	2154.46
246.38	2222.05
246.59	2138.08
246.81	2162.66
247.03	2154.46
247.24	2099.17
247.46	2099.17
247.68	2220.00
247.90	2080.74
248.11	2113.50
248.33	2193.37
248.55	2136.03
248.77	2138.08
248.98	2232.29
249.20	2383.84
249.42	2179.04
249.64	2168.80
249.85	2131.94
250.07	2138.08
250.29	2256.86
250.50	2236.38
250.72	2047.97
250.94	2267.10
251.16	2398.17
251.37	2205.66
251.59	2220.00
251.81	2230.24
252.02	2250.72
252.24	2097.12
252.46	2222.05
252.68	2115.55
252.89	2095.07
253.11	2002.91
253.33	2303.96
253.54	2353.12
253.76	2131.94
253.98	2113.50
254.20	2090.98
254.41	2146.27
254.63	2166.75
254.85	2133.98
255.06	2088.93
255.28	2324.44
255.50	2228.19
255.71	2142.18
255.93	2021.35
256.15	2256.86
256.36	2168.80
256.58	2080.74
256.80	2136.03
257.02	2166.75
257.23	2148.32
257.45	2228.19
257.67	2293.72
257.88	2119.65
258.10	2160.61
258.32	2121.70
258.53	2164.70
258.75	2279.39
258.97	2121.70
259.18	2025.44
259.40	2152.42
259.62	2439.13
259.83	2316.25
260.05	2133.98
260.27	2596.82
260.48	2318.30
260.70	2111.46
260.92	2117.60
261.13	2195.42
261.35	2240.48
261.57	2260.96
261.78	2021.35
262.00	2072.54
262.22	2246.62
262.43	2074.59
262.65	2129.89
262.86	2133.98
263.08	2422.75
263.30	2138.08
263.51	2019.30
263.73	2076.64
263.95	2260.96
264.16	2133.98
264.38	2060.26
264.60	2172.89
264.81	2119.65
265.03	2258.91
265.25	2318.30
265.46	2138.08
265.68	2244.57
265.89	2226.14
266.11	2007.01
266.33	2191.33
266.54	2357.21
266.76	2176.99
266.98	2252.77
267.19	2269.15
267.41	2330.59
267.62	2265.05
267.84	2015.20
268.06	2127.84
268.27	2156.51
268.49	2297.82
268.70	2162.66
268.92	2187.23
269.14	2031.58
269.35	2088.93
269.57	2152.42
269.79	2203.61
270.00	2187.23
270.22	2338.78
270.43	2031.58
270.65	2029.54
270.87	2129.89
271.08	2226.14
271.30	2248.67
271.51	2211.81
271.73	2258.91
271.95	2312.16
272.16	2136.03
272.38	2201.57
272.59	2166.75
272.81	2318.30
273.02	2207.71
273.24	2201.57
273.46	2293.72
273.67	2129.89
273.89	2031.58
274.10	2070.50
274.32	2308.06
274.54	2179.04
274.75	2158.56
274.97	2217.95
275.18	2226.14
275.40	2250.72
275.61	2129.89
275.83	2189.28
276.05	2013.15
276.26	2273.25
276.48	2162.66
276.69	2144.22
276.91	2226.14
277.12	2412.51
277.34	2199.52
277.55	2244.57
277.77	2195.42
277.99	2144.22
278.20	2084.83
278.42	2043.87
278.63	2105.31
278.85	2076.64
279.06	2074.59
279.28	2215.90
279.49	2283.49
279.71	2162.66
279.93	2215.90
280.14	2248.67
280.36	2090.98
280.57	2228.19
280.79	2195.42
281.00	2183.13
281.22	2129.89
281.43	2316.25
281.65	1923.04
281.86	2007.01
282.08	2258.91
282.29	2328.54
282.51	2086.88
282.73	2103.26
282.94	2056.16
283.16	2256.86
283.37	2351.07
283.59	2072.54
283.80	2246.62
284.02	2138.08
284.23	2193.37
284.45	2148.32
284.66	2154.46
284.88	2070.50
285.09	2179.04
285.31	2283.49
285.52	2234.33
285.74	2086.88
285.95	2215.90
286.17	2228.19
286.38	2293.72
286.60	2199.52
286.81	2039.78
287.03	2207.71
287.24	2183.13
287.46	2209.76
287.67	2211.81
287.89	2334.68
288.10	2242.53
288.32	2224.09
288.53	2297.82
288.75	2191.33
288.96	2260.96
289.18	2050.02
289.39	2115.55
289.61	2215.90
289.82	2428.89
290.04	2263.01
290.25	2117.60
290.47	2123.74
290.68	2246.62
290.90	2234.33
291.11	2068.45
291.33	2242.53
291.54	2131.94
291.76	2097.12
291.97	2168.80
292.18	2244.57
292.40	2101.22
292.61	2080.74
292.83	2408.41
293.04	2232.29
293.26	2193.37
293.47	2234.33
293.69	2066.40
293.90	2131.94
294.12	2277.34
294.33	2201.57
294.55	2236.38
294.76	2269.15
294.97	2293.72
295.19	2400.22
295.40	2156.51
295.62	2170.85
295.83	2301.92
296.05	2113.50
296.26	2267.10
296.48	2113.50
296.69	2117.60
296.90	2148.32
297.12	2258.91
297.33	2236.38
297.55	2308.06
297.76	2234.33
297.98	2252.77
298.19	2160.61
298.41	2281.44
298.62	2037.73
298.83	2287.58
299.05	2174.94
299.26	2168.80
299.48	2088.93
299.69	2269.15
299.90	2187.23
300.12	2076.64
300.33	2125.79
300.55	2086.88
300.76	2201.57
300.98	2121.70
301.19	2281.44
301.40	2195.42
301.62	2140.13
301.83	2244.57
302.05	2209.76
302.26	2187.23
302.47	2203.61
302.69	2052.06
302.90	2211.81
303.12	1996.77
303.33	2226.14
303.54	2359.26
303.76	2213.85
303.97	2269.15
304.19	2326.49
304.40	2113.50
304.61	2267.10
304.83	2318.30
305.04	2203.61
305.26	2293.72
305.47	2230.24
305.68	2183.13
305.90	2181.09
306.11	2269.15
306.33	2197.47
306.54	2095.07
306.75	2113.50
306.97	2011.11
307.18	2050.02
307.39	2011.11
307.61	2236.38
307.82	2123.74
308.04	2236.38
308.25	2002.91
308.46	2181.09
308.68	2240.48
308.89	2131.94
309.10	2228.19
309.32	2162.66
309.53	2164.70
309.74	2254.81
309.96	2162.66
310.17	2289.63
310.39	2082.78
310.60	2236.38
310.81	2244.57
311.03	2060.26
311.24	2236.38
311.45	2152.42
311.67	2357.21
311.88	2207.71
312.09	2160.61
312.31	2152.42
312.52	2232.29
312.73	2148.32
312.95	1976.29
313.16	2047.97
313.37	2226.14
313.59	2301.92
313.80	2275.29
314.01	2242.53
314.23	2154.46
314.44	2146.27
314.65	2088.93
314.87	2103.26
315.08	2220.00
315.29	2109.41
315.51	2158.56
315.72	2086.88
315.93	2287.58
316.15	2168.80
316.36	2158.56
316.57	2228.19
316.79	2230.24
317.00	2111.46
317.21	2238.43
317.43	2138.08
317.64	2234.33
317.85	2152.42
318.07	2111.46
318.28	2162.66
318.49	2355.16
318.70	2570.20
318.92	2346.97
319.13	2443.23
319.34	2441.18
319.56	2334.68
319.77	2279.39
319.98	2312.16
320.20	2322.40
320.41	2295.77
320.62	2252.77
320.83	2129.89
321.05	2402.27
321.26	2201.57
321.47	2215.90
321.69	2363.36
321.90	2029.54
322.11	2168.80
322.32	2213.85
322.54	2334.68
322.75	2195.42
322.96	2455.51
323.18	2090.98
323.39	2007.01
323.60	2133.98
323.81	2277.34
324.03	2142.18
324.24	2217.95
324.45	2263.01
324.66	2146.27
324.88	2334.68
325.09	2404.32
325.30	2166.75
325.52	2260.96
325.73	2150.37
325.94	2131.94
326.15	2017.25
326.37	2111.46
326.58	2377.69
326.79	2387.93
327.00	2099.17
327.22	2209.76
327.43	2170.85
327.64	2131.94
327.85	2269.15
328.07	2197.47
328.28	2324.44
328.49	2090.98
328.70	2195.42
328.92	2160.61
329.13	2150.37
329.34	2246.62
329.55	2330.59
329.76	2203.61
329.98	2119.65
330.19	2301.92
330.40	2271.20
330.61	2236.38
330.83	2316.25
331.04	2066.40
331.25	2236.38
331.46	2156.51
331.68	2090.98
331.89	2308.06
332.10	2172.89
332.31	2076.64
332.52	2193.37
332.74	2375.64
332.95	2076.64
333.16	2148.32
333.37	2164.70
333.58	2131.94
333.80	2189.28
334.01	2056.16
334.22	2189.28
334.43	2115.55
334.64	2090.98
334.86	2086.88
335.07	2052.06
335.28	2361.31
335.49	2027.49
335.70	2170.85
335.92	2330.59
336.13	2373.60
336.34	2308.06
336.55	2230.24
336.76	2283.49
336.98	2041.82
337.19	2144.22
337.40	2346.97
337.61	2432.99
337.82	2187.23
338.04	2306.01
338.25	1982.43
338.46	2234.33
338.67	2160.61
338.88	2129.89
339.09	2039.78
339.31	2244.57
339.52	2109.41
339.73	2121.70
339.94	2146.27
340.15	2271.20
340.36	2142.18
340.58	2191.33
340.79	2127.84
341.00	2220.00
341.21	2088.93
341.42	2432.99
341.63	2146.27
341.85	2316.25
342.06	2293.72
342.27	2129.89
342.48	2295.77
342.69	1964.00
342.90	2232.29
343.12	2248.67
343.33	2097.12
343.54	2303.96
343.75	2308.06
343.96	2174.94
344.17	2121.70
344.38	2176.99
344.60	2133.98
344.81	2080.74
345.02	2103.26
345.23	2299.87
345.44	2500.57
345.65	2324.44
345.86	2215.90
346.07	2207.71
346.29	2099.17
346.50	2217.95
346.71	2215.90
346.92	2334.68
347.13	2383.84
347.34	2236.38
347.55	2076.64
347.76	2220.00
347.98	2058.21
348.19	2121.70
348.40	2342.88
348.61	2201.57
348.82	2383.84
349.03	2238.43
349.24	2117.60
349.45	2346.97
349.66	2068.45
349.88	2187.23
350.09	2111.46
350.30	2441.18
350.51	2344.92
350.72	2220.00
350.93	2244.57
351.14	2119.65
351.35	2283.49
351.56	2189.28
351.77	2125.79
351.99	2222.05
352.20	2306.01
352.41	2252.77
352.62	2047.97
352.83	2258.91
353.04	2146.27
353.25	2088.93
353.46	2256.86
353.67	2342.88
353.88	2021.35
354.09	2203.61
354.30	2199.52
354.52	2256.86
354.73	2158.56
354.94	2172.89
355.15	2164.70
355.36	2373.60
355.57	2084.83
355.78	2160.61
355.99	2107.36
356.20	2207.71
356.41	2338.78
356.62	2265.05
356.83	2183.13
357.04	2351.07
357.25	2131.94
357.46	2133.98
357.68	2027.49
357.89	2154.46
358.10	2189.28
358.31	2152.42
358.52	2203.61
358.73	2131.94
358.94	2031.58
359.15	2146.27
359.36	2277.34
359.57	2189.28
359.78	2168.80
359.99	2267.10
360.20	2076.64
360.41	2154.46
360.62	2275.29
360.83	2176.99
361.04	2246.62
361.25	2232.29
361.46	2326.49
361.67	2201.57
361.88	2244.57
362.09	2277.34
362.30	2273.25
362.51	2119.65
362.72	2222.05
362.93	2318.30
363.14	2209.76
363.35	2273.25
363.56	2047.97
363.78	2365.40
363.99	2310.11
364.20	2117.60
364.41	2144.22
364.62	2375.64
364.83	2215.90
365.04	2164.70
365.25	2111.46
365.46	2367.45
365.67	2187.23
365.88	2242.53
366.09	2213.85
366.30	2140.13
366.51	2197.47
366.72	2150.37
366.93	2152.42
367.14	2187.23
367.35	2244.57
367.56	2183.13
367.77	2299.87
367.98	2185.18
368.18	2197.47
368.39	2174.94
368.60	2078.69
368.81	2244.57
369.02	2209.76
369.23	2185.18
369.44	2031.58
369.65	2205.66
369.86	2248.67
370.07	2201.57
370.28	2138.08
370.49	2224.09
370.70	2281.44
370.91	2097.12
371.12	2123.74
371.33	2312.16
371.54	2146.27
371.75	2273.25
371.96	1996.77
372.17	2291.68
372.38	2209.76
372.59	2250.72
372.80	2056.16
373.01	2138.08
373.22	2185.18
373.43	2117.60
373.64	2009.06
373.85	2330.59
374.06	2385.88
374.26	2193.37
374.47	2226.14
374.68	2361.31
374.89	2197.47
375.10	2176.99
375.31	2236.38
375.52	2152.42
375.73	2154.46
375.94	2095.07
376.15	2303.96
376.36	2195.42
376.57	2138.08
376.78	2146.27
376.99	2183.13
377.20	2308.06
377.40	2121.70
377.61	2318.30
377.82	2072.54
378.03	2351.07
378.24	2310.11
378.45	2213.85
378.66	2164.70
378.87	2056.16
379.08	2080.74
379.29	2142.18
379.50	2342.88
379.71	2121.70
379.91	2260.96
380.12	2199.52
380.33	2195.42
380.54	2076.64
380.75	2156.51
380.96	2097.12
381.17	2299.87
381.38	2203.61
381.59	2254.81
381.80	2203.61
382.00	2455.51
382.21	2301.92
382.42	2320.35
382.63	2451.42
382.84	2203.61
383.05	2367.45
383.26	2414.56
383.47	2265.05
383.68	2189.28
383.88	2230.24
384.09	2244.57
384.30	2408.41
384.51	2297.82
384.72	2181.09
384.93	2090.98
385.14	2234.33
385.35	2359.26
385.55	2062.30
385.76	2363.36
385.97	2185.18
386.18	2041.82
386.39	2076.64
386.60	2113.50
386.81	2144.22
387.02	2097.12
387.22	2064.35
387.43	2258.91
387.64	2355.16
387.85	2392.03
388.06	2430.94
388.27	4009.92
388.48	8583.04
388.68	12287.81
388.89	14505.76
389.10	15570.71
389.31	14489.38
389.52	11442.00
389.73	9793.39
389.93	8875.90
390.14	8173.44
390.35	7288.72
390.56	6483.87
390.77	5337.01
390.98	4054.98
391.18	3268.56
391.39	2772.95
391.60	2324.44
391.81	2342.88
392.02	2148.32
392.23	2465.75
392.43	2215.90
392.64	2342.88
392.85	2230.24
393.06	2346.97
393.27	2277.34
393.47	2121.70
393.68	2185.18
393.89	2217.95
394.10	2277.34
394.31	2107.36
394.52	2162.66
394.72	2187.23
394.93	2428.89
395.14	2121.70
395.35	2170.85
395.56	2193.37
395.76	2154.46
395.97	2244.57
396.18	2406.36
396.39	2326.49
396.60	2643.93
396.80	2492.38
397.01	2406.36
397.22	2351.07
397.43	2414.56
397.64	2191.33
397.84	2275.29
398.05	2439.13
398.26	2224.09
398.47	2334.68
398.67	2301.92
398.88	2222.05
399.09	2314.20
399.30	2023.39
399.51	2185.18
399.71	2119.65
399.92	2199.52
400.13	2277.34
400.34	2162.66
400.54	2224.09
400.75	2396.12
400.96	2234.33
401.17	2351.07
401.37	2254.81
401.58	2209.76
401.79	2215.90
402.00	2322.40
402.21	2555.86
402.41	2637.78
402.62	2555.86
402.83	2609.11
403.04	2676.70
403.24	2838.48
403.45	2326.49
403.66	2447.32
403.87	2412.51
404.07	2475.99
404.28	2486.23
404.49	2408.41
404.70	2263.01
404.90	2279.39
405.11	2267.10
405.32	2275.29
405.52	2156.51
405.73	2125.79
405.94	2107.36
406.15	2228.19
406.35	2256.86
406.56	2271.20
406.77	2217.95
406.98	2314.20
407.18	2121.70
407.39	2301.92
407.60	2152.42
407.80	2258.91
408.01	2187.23
408.22	2236.38
408.43	2078.69
408.63	2250.72
408.84	2334.68
409.05	2285.53
409.25	2133.98
409.46	2129.89
409.67	2170.85
409.88	2031.58
410.08	2258.91
410.29	2117.60
410.50	2281.44
410.70	2224.09
410.91	2133.98
411.12	2236.38
411.32	2174.94
411.53	2107.36
411.74	2263.01
411.95	2367.45
412.15	2340.83
412.36	2281.44
412.57	2387.93
412.77	2306.01
412.98	2244.57
413.19	2158.56
413.39	2244.57
413.60	2207.71
413.81	2322.40
414.01	2133.98
414.22	2207.71
414.43	2326.49
414.63	2176.99
414.84	2349.02
415.05	2144.22
415.25	2097.12
415.46	2256.86
415.67	2031.58
415.87	2179.04
416.08	2248.67
416.29	2211.81
416.49	2248.67
416.70	2133.98
416.91	2129.89
417.11	2215.90
417.32	2283.49
417.53	2244.57
417.73	2263.01
417.94	2207.71
418.15	2256.86
418.35	2244.57
418.56	2236.38
418.77	2357.21
418.97	2244.57
419.18	2152.42
419.38	1953.76
419.59	2179.04
419.80	2392.03
420.00	2162.66
420.21	2179.04
420.42	2346.97
420.62	2238.43
420.83	2146.27
421.04	2170.85
421.24	2088.93
421.45	2271.20
421.65	2240.48
421.86	2146.27
422.07	2287.58
422.27	2289.63
422.48	2164.70
422.69	2119.65
422.89	2080.74
423.10	2191.33
423.30	2121.70
423.51	2152.42
423.72	2209.76
423.92	2254.81
424.13	2189.28
424.33	2222.05
424.54	2246.62
424.75	2183.13
424.95	2312.16
425.16	2240.48
425.36	2183.13
425.57	2242.53
425.78	2265.05
425.98	2226.14
426.19	2203.61
426.39	2162.66
426.60	2197.47
426.81	2318.30
427.01	2250.72
427.22	2088.93
427.42	2009.06
427.63	1998.82
427.83	2281.44
428.04	2392.03
428.25	2301.92
428.45	2326.49
428.66	2346.97
428.86	2179.04
429.07	2179.04
429.28	2217.95
429.48	2207.71
429.69	2158.56
429.89	2193.37
430.10	2072.54
430.30	2297.82
430.51	2293.72
430.71	2121.70
430.92	2189.28
431.13	2174.94
431.33	2306.01
431.54	2172.89
431.74	2285.53
431.95	2385.88
432.15	2127.84
432.36	2189.28
432.56	2269.15
432.77	2369.50
432.98	2381.79
433.18	2240.48
433.39	2191.33
433.59	2189.28
433.80	2346.97
434.00	2392.03
434.21	2129.89
434.41	2125.79
434.62	2406.36
434.82	2072.54
435.03	2129.89
435.23	2236.38
435.44	2056.16
435.64	2152.42
435.85	2267.10
436.06	2306.01
436.26	2301.92
436.47	2164.70
436.67	2117.60
436.88	2185.18
437.08	2340.83
437.29	2342.88
437.49	2181.09
437.70	2318.30
437.90	2220.00
438.11	2295.77
438.31	2336.73
438.52	2422.75
438.72	2453.47
438.93	2424.80
439.13	2299.87
439.34	2445.27
439.54	2295.77
439.75	2285.53
439.95	2346.97
440.16	2203.61
440.36	2240.48
440.57	2277.34
440.77	2193.37
440.98	2240.48
441.18	2281.44
441.39	2095.07
441.59	2152.42
441.80	2410.46
442.00	2138.08
442.21	2342.88
442.41	2097.12
442.62	2252.77
442.82	2246.62
443.02	2314.20
443.23	2238.43
443.43	2185.18
443.64	2369.50
443.84	2103.26
444.05	2308.06
444.25	2162.66
444.46	2207.71
444.66	2195.42
444.87	2332.64
445.07	2095.07
445.28	2168.80
445.48	2338.78
445.69	2240.48
445.89	2471.90
446.09	2260.96
446.30	2437.08
446.50	2775.00
446.71	4370.37
446.91	5601.19
447.12	6252.45
447.32	6737.82
447.53	6274.98
447.73	5210.03
447.93	4601.79
448.14	4300.73
448.34	4059.07
448.55	3575.75
448.75	3542.99
448.96	3358.67
449.16	2998.23
449.36	2854.87
449.57	2568.15
449.77	2340.83
449.98	2183.13
450.18	2244.57
450.39	2312.16
450.59	2260.96
450.79	2201.57
451.00	2146.27
451.20	2277.34
451.41	2164.70
451.61	2289.63
451.81	2207.71
452.02	2160.61
452.22	2187.23
452.43	2174.94
452.63	2125.79
452.84	2193.37
453.04	2140.13
453.24	2230.24
453.45	2047.97
453.65	2205.66
453.86	2232.29
454.06	2316.25
454.26	2148.32
454.47	2117.60
454.67	2338.78
454.87	2273.25
455.08	2195.42
455.28	2365.40
455.49	2246.62
455.69	2148.32
455.89	2435.03
456.10	2260.96
456.30	2226.14
456.51	2287.58
456.71	2211.81
456.91	2273.25
457.12	2232.29
457.32	2269.15
457.52	2052.06
457.73	2306.01
457.93	2254.81
458.14	2228.19
458.34	2054.11
458.54	2166.75
458.75	2142.18
458.95	2263.01
459.15	2236.38
459.36	2179.04
459.56	2197.47
459.76	2457.56
459.97	2240.48
460.17	2193.37
460.37	2312.16
460.58	2195.42
460.78	2230.24
460.99	2113.50
461.19	2174.94
461.39	2154.46
461.60	2131.94
461.80	2207.71
462.00	2144.22
462.21	2267.10
462.41	2125.79
462.61	2131.94
462.82	2017.25
463.02	2295.77
463.22	2224.09
463.43	2326.49
463.63	2258.91
463.83	2324.44
464.04	2260.96
464.24	2271.20
464.44	2090.98
464.64	2267.10
464.85	2273.25
465.05	2301.92
465.25	2140.13
465.46	2164.70
465.66	2260.96
465.86	2293.72
466.07	2224.09
466.27	2220.00
466.47	2217.95
466.68	2103.26
466.88	2289.63
467.08	2336.73
467.29	2283.49
467.49	2189.28
467.69	2238.43
467.89	2228.19
468.10	2256.86
468.30	2228.19
468.50	2342.88
468.71	2291.68
468.91	2111.46
469.11	2367.45
469.31	2248.67
469.52	2121.70
469.72	2318.30
469.92	2371.55
470.13	2113.50
470.33	2240.48
470.53	2236.38
470.73	2691.03
470.94	3104.72
471.14	3284.94
471.34	3602.38
471.54	3467.21
471.75	3198.93
471.95	2889.68
472.15	2758.61
472.36	2801.62
472.56	2639.83
472.76	2783.19
472.96	2701.27
473.17	2594.78
473.37	2521.05
473.57	2308.06
473.77	2301.92
473.98	2226.14
474.18	2119.65
474.38	2510.81
474.58	2199.52
474.79	2162.66
474.99	2240.48
475.19	2363.36
475.39	2113.50
475.60	2238.43
475.80	2201.57
476.00	2310.11
476.20	2115.55
476.41	2170.85
476.61	2224.09
476.81	2306.01
477.01	2113.50
477.21	2330.59
477.42	2332.64
477.62	2086.88
477.82	2295.77
478.02	2119.65
478.23	2293.72
478.43	2068.45
478.63	2228.19
478.83	2207.71
479.03	2254.81
479.24	2291.68
479.44	2324.44
479.64	2097.12
479.84	2037.73
480.04	2160.61
480.25	2265.05
480.45	2148.32
480.65	2224.09
480.85	2351.07
481.06	2170.85
481.26	2232.29
481.46	2260.96
481.66	2228.19
481.86	2043.87
482.06	2279.39
482.27	2131.94
482.47	2123.74
482.67	2176.99
482.87	2119.65
483.07	2355.16
483.28	2109.41
483.48	2086.88
483.68	2201.57
483.88	2166.75
484.08	2045.92
484.29	2093.02
484.49	2176.99
484.69	2113.50
484.89	2355.16
485.09	2263.01
485.29	2185.18
485.50	2248.67
485.70	2195.42
485.90	2318.30
486.10	2230.24
486.30	2301.92
486.50	2369.50
486.71	2252.77
486.91	2271.20
487.11	2295.77
487.31	2131.94
487.51	2228.19
487.71	2109.41
487.91	2136.03
488.12	2133.98
488.32	1990.63
488.52	2172.89
488.72	2015.20
488.92	2201.57
489.12	2252.77
489.32	2277.34
489.53	2228.19
489.73	2084.83
489.93	2385.88
490.13	2131.94
490.33	2072.54
490.53	2215.90
490.73	2293.72
490.94	2029.54
491.14	2310.11
491.34	2299.87
491.54	2525.15
491.74	3131.34
491.94	3741.64
492.14	4147.14
492.34	4028.35
492.54	3633.10
492.75	3112.91
492.95	3235.79
493.15	2944.98
493.35	2818.00
493.55	2834.39
493.75	2713.56
493.95	2742.23
494.15	2516.95
494.35	2373.60
494.56	2357.21
494.76	2189.28
494.96	2252.77
495.16	2279.39
495.36	2228.19
495.56	2254.81
495.76	2189.28
495.96	2193.37
496.16	2176.99
496.36	2422.75
496.56	2203.61
496.77	2220.00
496.97	2228.19
497.17	2306.01
497.37	2121.70
497.57	2244.57
497.77	2103.26
497.97	2103.26
498.17	2265.05
498.37	2193.37
498.57	2318.30
498.77	2136.03
498.97	2260.96
499.17	2412.51
499.38	2179.04
499.58	2281.44
499.78	2285.53
499.98	2310.11
500.18	2185.18
500.38	2187.23
500.58	2312.16
500.78	2867.16
500.98	5191.60
501.18	7368.59
501.38	8959.86
501.58	9871.21
501.78	9789.29
501.98	7690.12
502.18	6442.91
502.38	5556.14
502.58	5191.60
502.78	4538.30
502.98	4648.89
503.18	4339.65
503.38	3948.48
503.59	3407.82
503.79	3209.17
503.99	2930.64
504.19	2818.00
504.39	2871.25
504.59	2955.22
504.79	2883.54
504.99	2850.77
505.19	2527.19
505.39	2410.46
505.59	2625.50
505.79	2584.54
505.99	2392.03
506.19	2369.50
506.39	2432.99
506.59	2224.09
506.79	2222.05
506.99	2379.74
507.19	2236.38
507.39	2228.19
507.59	2086.88
507.79	2111.46
507.99	2230.24
508.19	2228.19
508.39	2101.22
508.59	2205.66
508.79	2357.21
508.99	2414.56
509.19	2201.57
509.39	2246.62
509.59	2146.27
509.79	2121.70
509.99	2236.38
510.19	2310.11
510.39	2303.96
510.59	2250.72
510.79	2129.89
510.99	2160.61
511.19	2236.38
511.39	2394.08
511.59	2281.44
511.79	2392.03
511.99	2236.38
512.19	2336.73
512.38	2293.72
512.58	2160.61
512.78	2193.37
512.98	2332.64
513.18	2322.40
513.38	2062.30
513.58	2252.77
513.78	2201.57
513.98	2240.48
514.18	2191.33
514.38	2195.42
514.58	2265.05
514.78	2095.07
514.98	2136.03
515.18	2179.04
515.38	2095.07
515.58	2412.51
515.78	2191.33
515.98	2277.34
516.18	2220.00
516.38	2146.27
516.57	2125.79
516.77	2119.65
516.97	2269.15
517.17	2193.37
517.37	2125.79
517.57	2281.44
517.77	2226.14
517.97	2193.37
518.17	2248.67
518.37	2121.70
518.57	2160.61
518.77	2121.70
518.97	2293.72
519.16	2240.48
519.36	2332.64
519.56	2232.29
519.76	2222.05
519.96	2154.46
520.16	2437.08
520.36	2160.61
520.56	2334.68
520.76	2144.22
520.96	2170.85
521.16	2297.82
521.35	2215.90
521.55	2365.40
521.75	2234.33
521.95	2209.76
522.15	2121.70
522.35	2035.68
522.55	2117.60
522.75	2330.59
522.95	2078.69
523.14	2062.30
523.34	2215.90
523.54	2201.57
523.74	2269.15
523.94	2213.85
524.14	2162.66
524.34	2281.44
524.54	2303.96
524.73	2131.94
524.93	2303.96
525.13	2252.77
525.33	2103.26
525.53	2389.98
525.73	2291.68
525.93	2269.15
526.13	2185.18
526.32	2220.00
526.52	2303.96
526.72	2351.07
526.92	2220.00
527.12	2183.13
527.32	2146.27
527.52	2273.25
527.71	2226.14
527.91	2148.32
528.11	2162.66
528.31	2228.19
528.51	2123.74
528.71	2240.48
528.90	2269.15
529.10	2357.21
529.30	2375.64
529.50	1984.48
529.70	2252.77
529.90	2172.89
530.09	2228.19
530.29	2138.08
530.49	2154.46
530.69	2451.42
530.89	2226.14
531.09	2273.25
531.28	2164.70
531.48	2324.44
531.68	2203.61
531.88	2179.04
532.08	2306.01
532.28	2117.60
532.47	2228.19
532.67	2211.81
532.87	2252.77
533.07	2174.94
533.27	2228.19
533.46	2242.53
533.66	2273.25
533.86	2269.15
534.06	2236.38
534.26	2244.57
534.45	2234.33
534.65	2379.74
534.85	2203.61
535.05	2146.27
535.25	2375.64
535.44	2144.22
535.64	2310.11
535.84	2195.42
536.04	2195.42
536.24	2154.46
536.43	2133.98
536.63	2199.52
536.83	2168.80
537.03	2215.90
537.22	2078.69
537.42	2074.59
537.62	2205.66
537.82	2129.89
538.02	2326.49
538.21	2230.24
538.41	2449.37
538.61	2289.63
538.81	2215.90
539.00	2320.35
539.20	2068.45
539.40	2166.75
539.60	2199.52
539.79	2281.44
539.99	2258.91
540.19	2142.18
540.39	2185.18
540.58	2197.47
540.78	2332.64
540.98	2293.72
541.18	2285.53
541.37	2336.73
541.57	2170.85
541.77	2197.47
541.97	2203.61
542.16	2090.98
542.36	2166.75
542.56	2172.89
542.76	2293.72
542.95	2265.05
543.15	2310.11
543.35	2334.68
543.54	2117.60
543.74	2148.32
543.94	2320.35
544.14	2140.13
544.33	2238.43
544.53	2176.99
544.73	2117.60
544.93	2140.13
545.12	2138.08
545.32	2226.14
545.52	2207.71
545.71	2160.61
545.91	2185.18
546.11	2170.85
546.30	2142.18
546.50	2176.99
546.70	2256.86
546.90	2248.67
547.09	2017.25
547.29	2275.29
547.49	2293.72
547.68	2193.37
547.88	2105.31
548.08	2252.77
548.27	2740.18
548.47	2111.46
548.67	2080.74
548.87	2215.90
549.06	2185.18
549.26	2209.76
549.46	2267.10
549.65	2185.18
549.85	2267.10
550.05	2205.66
550.24	2121.70
550.44	2191.33
550.64	2230.24
550.83	2215.90
551.03	2310.11
551.23	2267.10
551.42	2320.35
551.62	2131.94
551.82	2211.81
552.01	2191.33
552.21	2316.25
552.41	2260.96
552.60	2346.97
552.80	2158.56
553.00	2160.61
553.19	2222.05
553.39	2371.55
553.59	2082.78
553.78	2289.63
553.98	2148.32
554.17	2103.26
554.37	2314.20
554.57	2416.60
554.76	2138.08
554.96	2199.52
555.16	2232.29
555.35	2271.20
555.55	2269.15
555.75	2287.58
555.94	2308.06
556.14	2052.06
556.33	2250.72
556.53	2213.85
556.73	2176.99
556.92	2248.67
557.12	2332.64
557.32	2314.20
557.51	2308.06
557.71	2320.35
557.90	2328.54
558.10	2328.54
558.30	2170.85
558.49	2187.23
558.69	2160.61
558.88	2205.66
559.08	2283.49
559.28	2170.85
559.47	2254.81
559.67	2283.49
559.86	2410.46
560.06	2203.61
560.26	2209.76
560.45	2228.19
560.65	2201.57
560.84	2355.16
561.04	2144.22
561.24	2252.77
561.43	2162.66
561.63	2330.59
561.82	2187.23
562.02	2316.25
562.22	2093.02
562.41	2170.85
562.61	2244.57
562.80	2119.65
563.00	2525.15
563.19	2240.48
563.39	2273.25
563.59	2338.78
563.78	2052.06
563.98	2070.50
564.17	2101.22
564.37	2045.92
564.56	2199.52
564.76	2064.35
564.96	2385.88
565.15	2256.86
565.35	2488.28
565.54	2127.84
565.74	2289.63
565.93	2316.25
566.13	2217.95
566.32	2277.34
566.52	2269.15
566.71	2234.33
566.91	2230.24
567.11	2281.44
567.30	2121.70
567.50	2301.92
567.69	2183.13
567.89	2170.85
568.08	2236.38
568.28	2199.52
568.47	2136.03
568.67	2293.72
568.86	2123.74
569.06	2273.25
569.25	2271.20
569.45	2174.94
569.64	2148.32
569.84	2150.37
570.04	2285.53
570.23	2154.46
570.43	2240.48
570.62	2234.33
570.82	2449.37
571.01	2017.25
571.21	2193.37
571.40	2101.22
571.60	2271.20
571.79	2283.49
571.99	2207.71
572.18	2187.23
572.38	2271.20
572.57	2189.28
572.77	2205.66
572.96	2463.71
573.16	2289.63
573.35	2168.80
573.55	2289.63
573.74	2269.15
573.94	2265.05
574.13	2138.08
574.33	2310.11
574.52	2392.03
574.71	2258.91
574.91	2248.67
575.10	2058.21
575.30	2195.42
575.49	2125.79
575.69	2156.51
575.88	2205.66
576.08	2240.48
576.27	2363.36
576.47	2238.43
576.66	2387.93
576.86	2383.84
577.05	2308.06
577.25	2244.57
577.44	2424.80
577.64	2193.37
577.83	2301.92
578.02	2258.91
578.22	2357.21
578.41	2373.60
578.61	2113.50
578.80	2095.07
579.00	2199.52
579.19	2160.61
579.39	2271.20
579.58	2287.58
579.77	2207.71
579.97	2318.30
580.16	2322.40
580.36	2365.40
580.55	2342.88
580.75	2318.30
580.94	2242.53
581.13	2439.13
581.33	2373.60
581.52	2281.44
581.72	2459.61
581.91	2424.80
582.11	2179.04
582.30	2373.60
582.49	2353.12
582.69	2392.03
582.88	2299.87
583.08	2285.53
583.27	2379.74
583.47	2195.42
583.66	2123.74
583.85	2224.09
584.05	2201.57
584.24	2316.25
584.44	2275.29
584.63	2308.06
584.82	2355.16
585.02	2461.66
585.21	2451.42
585.41	2394.08
585.60	2338.78
585.79	2488.28
585.99	2447.32
586.18	2392.03
586.37	2865.11
586.57	4501.44
586.76	13025.08
586.96	32292.37
587.15	45995.33
587.34	55116.98
587.54	60408.93
587.73	55598.26
587.93	39142.83
588.12	29670.97
588.31	23680.66
588.51	20848.32
588.70	19025.63
588.89	17028.86
589.09	14876.44
589.28	13020.99
589.47	10565.47
589.67	8234.88
589.86	6430.62
590.06	4679.61
590.25	3823.56
590.44	3090.38
590.64	2807.77
590.83	2609.11
591.02	2533.34
591.22	2400.22
591.41	2406.36
591.60	2240.48
591.80	2574.30
591.99	2168.80
592.18	2269.15
592.38	2308.06
592.57	2269.15
592.76	2260.96
592.96	2273.25
593.15	2215.90
593.34	2349.02
593.54	2234.33
593.73	2351.07
593.92	2269.15
594.12	2244.57
594.31	2342.88
594.50	2371.55
594.70	2287.58
594.89	2498.52
595.08	2131.94
595.28	2248.67
595.47	2512.86
595.66	2371.55
595.86	2090.98
596.05	2285.53
596.24	2197.47
596.43	2404.32
596.63	2340.83
596.82	2260.96
597.01	2265.05
597.21	2412.51
597.40	2334.68
597.59	2277.34
597.79	2144.22
597.98	2295.77
598.17	2353.12
598.36	2191.33
598.56	2308.06
598.75	2158.56
598.94	2209.76
599.14	2236.38
599.33	2107.36
599.52	2297.82
599.71	2220.00
599.91	2211.81
600.10	2275.29
600.29	2228.19
600.48	2277.34
600.68	2269.15
600.87	2324.44
601.06	2170.85
601.26	2174.94
601.45	2211.81
601.64	2217.95
601.83	2359.26
602.03	2136.03
602.22	2088.93
602.41	2346.97
602.60	2461.66
602.80	2369.50
602.99	2303.96
603.18	2226.14
603.37	2252.77
603.57	2228.19
603.76	2310.11
603.95	2301.92
604.14	2166.75
604.34	2170.85
604.53	2238.43
604.72	2205.66
604.91	2252.77
605.10	2285.53
605.30	2025.44
605.49	2349.02
605.68	2256.86
605.87	2256.86
606.07	2254.81
606.26	2187.23
606.45	2297.82
606.64	2283.49
606.84	2144.22
607.03	2303.96
607.22	2346.97
607.41	2160.61
607.60	2156.51
607.80	2375.64
607.99	2222.05
608.18	2254.81
608.37	2207.71
608.56	2174.94
608.76	2414.56
608.95	2406.36
609.14	2332.64
609.33	2461.66
609.52	2475.99
609.72	2408.41
609.91	2389.98
610.10	2291.68
610.29	2377.69
610.48	2291.68
610.68	2367.45
610.87	2183.13
611.06	2244.57
611.25	2220.00
611.44	2322.40
611.63	2240.48
611.83	2297.82
612.02	2113.50
612.21	2308.06
612.40	2070.50
612.59	2078.69
612.79	2101.22
612.98	2191.33
613.17	2389.98
613.36	2205.66
613.55	2334.68
613.74	2291.68
613.93	2420.70
614.13	2414.56
614.32	2492.38
614.51	2453.47
614.70	2306.01
614.89	2310.11
615.08	2332.64
615.28	2772.95
615.47	2215.90
615.66	2303.96
615.85	2295.77
616.04	2346.97
616.23	2267.10
616.42	2312.16
616.62	2316.25
616.81	2291.68
617.00	2260.96
617.19	2322.40
617.38	2170.85
617.57	2240.48
617.76	2250.72
617.95	2359.26
618.15	2308.06
618.34	2363.36
618.53	2129.89
618.72	2316.25
618.91	2353.12
619.10	2297.82
619.29	2240.48
619.48	2246.62
619.68	2174.94
619.87	2220.00
620.06	2172.89
620.25	2183.13
620.44	2193.37
620.63	2129.89
620.82	2220.00
621.01	2152.42
621.20	2244.57
621.39	2279.39
621.59	2338.78
621.78	2074.59
621.97	2230.24
622.16	2256.86
622.35	2258.91
622.54	2267.10
622.73	2269.15
622.92	2119.65
623.11	2291.68
623.30	2197.47
623.49	2236.38
623.68	2250.72
623.88	2232.29
624.07	2170.85
624.26	2129.89
624.45	2293.72
624.64	2174.94
624.83	2215.90
625.02	2166.75
625.21	2197.47
625.40	2273.25
625.59	2330.59
625.78	2213.85
625.97	2365.40
626.16	2330.59
626.35	2394.08
626.54	2299.87
626.74	2346.97
626.93	2267.10
627.12	2187.23
627.31	2242.53
627.50	2318.30
627.69	2279.39
627.88	2117.60
628.07	2127.84
628.26	2154.46
628.45	2095.07
628.64	2088.93
628.83	2176.99
629.02	2099.17
629.21	2217.95
629.40	2228.19
629.59	2117.60
629.78	2279.39
629.97	2179.04
630.16	2260.96
630.35	2250.72
630.54	2265.05
630.73	2215.90
630.92	2326.49
631.11	2174.94
631.30	2234.33
631.49	2287.58
631.68	2291.68
631.87	2260.96
632.06	2093.02
632.25	2488.28
632.44	2230.24
632.63	2303.96
632.82	2224.09
633.01	2203.61
633.20	2361.31
633.39	2306.01
633.58	2119.65
633.77	2324.44
633.96	2279.39
634.15	2353.12
634.34	2310.11
634.53	2287.58
634.72	2136.03
634.91	2013.15
635.10	2269.15
635.29	2224.09
635.48	2193.37
635.67	2203.61
635.86	2187.23
636.05	2316.25
636.24	2140.13
636.43	2220.00
636.62	2258.91
636.81	2031.58
637.00	2199.52
637.19	2174.94
637.38	2230.24
637.57	2176.99
637.76	2318.30
637.95	2303.96
638.14	2232.29
638.33	2324.44
638.52	2367.45
638.71	2160.61
638.89	2236.38
639.08	2551.77
639.27	2381.79
639.46	2449.37
639.65	2867.16
639.84	3022.80
640.03	3035.09
640.22	3000.27
640.41	2938.84
640.60	2566.10
640.79	2545.63
640.98	2316.25
641.17	2471.90
641.36	2432.99
641.55	2394.08
641.74	2260.96
641.92	2209.76
642.11	2220.00
642.30	2238.43
642.49	2121.70
642.68	2160.61
642.87	2248.67
643.06	2316.25
643.25	2121.70
643.44	2109.41
643.63	2256.86
643.82	2256.86
644.00	2105.31
644.19	2166.75
644.38	2144.22
644.57	2220.00
644.76	2187.23
644.95	2119.65
645.14	2179.04
645.33	2222.05
645.52	2179.04
645.71	2129.89
645.89	2170.85
646.08	2164.70
646.27	2205.66
646.46	2312.16
646.65	2070.50
646.84	2234.33
647.03	2146.27
647.22	2289.63
647.40	2193.37
647.59	2142.18
647.78	2080.74
647.97	2097.12
648.16	2125.79
648.35	2349.02
648.54	2320.35
648.73	2105.31
648.91	2271.20
649.10	2185.18
649.29	2189.28
649.48	2220.00
649.67	2256.86
649.86	2238.43
650.05	2297.82
650.23	2404.32
650.42	2222.05
650.61	2465.75
650.80	2457.56
650.99	2435.03
651.18	2349.02
651.36	2396.12
651.55	2158.56
651.74	2310.11
651.93	2187.23
652.12	2236.38
652.31	2291.68
652.49	2260.96
652.68	2168.80
652.87	2357.21
653.06	2187.23
653.25	2430.94
653.44	2207.71
653.62	2361.31
653.81	2258.91
654.00	2230.24
654.19	2301.92
654.38	2459.61
654.56	2283.49
654.75	2121.70
654.94	2254.81
655.13	2242.53
655.32	2238.43
655.51	2230.24
655.69	2160.61
655.88	2244.57
656.07	2062.30
656.26	2267.10
656.45	2131.94
656.63	2230.24
656.82	2250.72
657.01	2279.39
657.20	2187.23
657.38	2359.26
657.57	2162.66
657.76	1998.82
657.95	2283.49
658.14	2191.33
658.32	2189.28
658.51	2088.93
658.70	2207.71
658.89	2115.55
659.08	2211.81
659.26	2410.46
659.45	2211.81
659.64	2224.09
659.83	2240.48
660.01	2590.68
660.20	2197.47
660.39	2357.21
660.58	2021.35
660.76	2224.09
660.95	2093.02
661.14	2209.76
661.33	2047.97
661.51	2146.27
661.70	2158.56
661.89	2220.00
662.08	2252.77
662.26	2129.89
662.45	2103.26
662.64	2398.17
662.83	2277.34
663.01	2002.91
663.20	2144.22
663.39	2349.02
663.58	2168.80
663.76	2211.81
663.95	2314.20
664.14	2133.98
664.32	2062.30
664.51	2045.92
664.70	2035.68
664.89	2226.14
665.07	2052.06
665.26	2293.72
665.45	2041.82
665.64	2258.91
665.82	2162.66
666.01	2242.53
666.20	2197.47
666.38	2293.72
666.57	2426.84
666.76	3219.41
666.95	7921.54
667.13	16396.04
667.32	21829.30
667.51	25560.70
667.69	27416.16
667.88	25286.27
668.07	18034.41
668.25	14386.98
668.44	11663.18
668.63	10153.83
668.81	9025.40
669.00	7991.17
669.19	7047.06
669.38	6152.10
669.56	5257.14
669.75	4454.33
669.94	3731.40
670.12	3143.63
670.31	2775.00
670.50	2625.50
670.68	2500.57
670.87	2320.35
671.06	2299.87
671.24	2293.72
671.43	2385.88
671.62	2277.34
671.80	2181.09
671.99	2279.39
672.18	2269.15
672.36	2375.64
672.55	2258.91
672.74	2191.33
672.92	2234.33
673.11	2250.72
673.29	2138.08
673.48	2310.11
673.67	2211.81
673.85	2308.06
674.04	2119.65
674.23	2222.05
674.41	2340.83
674.60	2152.42
674.79	2105.31
674.97	2084.83
675.16	2236.38
675.34	2332.64
675.53	2054.11
675.72	2220.00
675.90	2408.41
676.09	2138.08
676.28	2226.14
676.46	2045.92
676.65	2275.29
676.83	2095.07
677.02	2226.14
677.21	2228.19
677.39	2217.95
677.58	2140.13
677.77	2236.38
677.95	2064.35
678.14	2152.42
678.32	2183.13
678.51	2152.42
678.70	2432.99
678.88	2119.65
679.07	2230.24
679.25	2187.23
679.44	2166.75
679.63	2095.07
679.81	2185.18
680.00	2346.97
680.18	2187.23
680.37	2349.02
680.55	2185.18
680.74	2056.16
680.93	2047.97
681.11	2201.57
681.30	2195.42
681.48	2224.09
681.67	2123.74
681.85	2258.91
682.04	2093.02
682.23	2213.85
682.41	2133.98
682.60	2230.24
682.78	2176.99
682.97	2109.41
683.15	2230.24
683.34	2181.09
683.53	2357.21
683.71	2033.63
683.90	2318.30
684.08	2351.07
684.27	2170.85
684.45	2242.53
684.64	2334.68
684.82	2203.61
685.01	2299.87
685.19	2228.19
685.38	2389.98
685.57	2213.85
685.75	2160.61
685.94	2209.76
686.12	2066.40
686.31	2097.12
686.49	2437.08
686.68	2138.08
686.86	2230.24
687.05	2246.62
687.23	2389.98
687.42	2107.36
687.60	2105.31
687.79	2312.16
687.97	2338.78
688.16	2275.29
688.34	2256.86
688.53	2080.74
688.71	2250.72
688.90	2346.97
689.08	2162.66
689.27	2064.35
689.45	2297.82
689.64	2211.81
689.82	2269.15
690.01	2242.53
690.19	2228.19
690.38	2183.13
690.56	2338.78
690.75	2170.85
690.93	2148.32
691.12	2142.18
691.30	2138.08
691.49	2105.31
691.67	2281.44
691.86	2320.35
692.04	2199.52
692.23	2220.00
692.41	2222.05
692.60	2432.99
692.78	2432.99
692.97	2332.64
693.15	2303.96
693.34	2445.27
693.52	2328.54
693.71	2215.90
693.89	2187.23
694.08	2070.50
694.26	2279.39
694.44	2230.24
694.63	2232.29
694.81	2103.26
695.00	2133.98
695.18	2381.79
695.37	2416.60
695.55	2236.38
695.74	2185.18
695.92	2121.70
696.10	2392.03
696.29	2107.36
696.47	2185.18
696.66	2052.06
696.84	2144.22
697.03	2195.42
697.21	2400.22
697.40	3102.67
697.58	2326.49
697.76	2162.66
697.95	2154.46
698.13	2133.98
698.32	2125.79
698.50	2226.14
698.68	2308.06
698.87	2209.76
699.05	2336.73
699.24	2144.22
699.42	2162.66
699.61	2220.00
699.79	2211.81
699.97	2217.95
700.16	2023.39
700.34	2101.22
700.53	2217.95
700.71	2306.01
700.89	2260.96
701.08	2168.80
701.26	2260.96
701.45	2691.03
701.63	2086.88
701.81	2152.42
702.00	2152.42
702.18	2158.56
702.37	2207.71
702.55	2412.51
702.73	2461.66
702.92	2344.92
703.10	2500.57
703.28	2482.14
703.47	2365.40
703.65	2418.65
703.84	2453.47
704.02	2254.81
704.20	2455.51
704.39	2158.56
704.57	2267.10
704.75	2310.11
704.94	2316.25
705.12	2273.25
705.30	2475.99
705.49	4454.33
705.67	11016.02
705.86	19959.50
706.04	24231.57
706.22	27795.03
706.41	28941.89
706.59	24673.93
706.77	17553.14
706.96	14507.81
707.14	12824.38
707.32	10964.82
707.51	9717.61
707.69	8009.61
707.87	6487.96
708.06	5130.16
708.24	4317.12
708.42	3309.52
708.61	2998.23
708.79	2543.58
708.97	2394.08
709.16	2328.54
709.34	2254.81
709.52	2185.18
709.71	2256.86
709.89	2260.96
710.07	2187.23
710.26	2113.50
710.44	2207.71
710.62	2269.15
710.80	2187.23
710.99	2179.04
711.17	2252.77
711.35	2179.04
711.54	2109.41
711.72	2328.54
711.90	2273.25
712.09	2301.92
712.27	2168.80
712.45	2301.92
712.63	2176.99
712.82	2220.00
713.00	2220.00
713.18	2224.09
713.37	2220.00
713.55	2369.50
713.73	2224.09
713.91	2215.90
714.10	2119.65
714.28	2201.57
714.46	2211.81
714.65	2318.30
714.83	2195.42
715.01	2199.52
715.19	2199.52
715.38	2129.89
715.56	2199.52
715.74	2121.70
715.92	2099.17
716.11	2351.07
716.29	2033.63
716.47	2187.23
716.65	2211.81
716.84	1970.15
717.02	2211.81
717.20	2074.59
717.38	2164.70
717.57	2226.14
717.75	2166.75
717.93	2138.08
718.11	2269.15
718.30	2115.55
718.48	2250.72
718.66	2306.01
718.84	2271.20
719.03	2203.61
719.21	2146.27
719.39	2420.70
719.57	2244.57
719.75	2195.42
719.94	2179.04
720.12	2148.32
720.30	2279.39
720.48	2260.96
720.67	2095.07
720.85	2174.94
721.03	2111.46
721.21	2136.03
721.39	2285.53
721.58	2215.90
721.76	2189.28
721.94	2287.58
722.12	2240.48
722.30	2342.88
722.49	2148.32
722.67	2162.66
722.85	2189.28
723.03	2080.74
723.21	2211.81
723.40	2140.13
723.58	2250.72
723.76	2328.54
723.94	2355.16
724.12	2293.72
724.30	2478.04
724.49	2379.74
724.67	2189.28
724.85	2342.88
725.03	2082.78
725.21	2291.68
725.40	2375.64
725.58	2129.89
725.76	2273.25
725.94	2176.99
726.12	2144.22
726.30	2267.10
726.49	2125.79
726.67	2166.75
726.85	2220.00
727.03	2512.86
727.21	3502.03
727.39	5474.22
727.57	6432.67
727.76	7155.60
727.94	7667.60
728.12	7284.62
728.30	5801.90
728.48	5009.33
728.66	4530.11
728.84	3975.11
729.03	3399.63
729.21	3076.05
729.39	2748.37
729.57	2508.76
729.75	2367.45
729.93	2394.08
730.11	2244.57
730.30	2150.37
730.48	2250.72
730.66	2334.68
730.84	2285.53
731.02	2181.09
731.20	2211.81
731.38	2156.51
731.56	2045.92
731.74	2160.61
731.93	2146.27
732.11	2150.37
732.29	2179.04
732.47	2228.19
732.65	2234.33
732.83	2367.45
733.01	2242.53
733.19	2088.93
733.37	2242.53
733.56	2230.24
733.74	2152.42
733.92	2310.11
734.10	2095.07
734.28	2220.00
734.46	2045.92
734.64	2230.24
734.82	2111.46
735.00	2148.32
735.18	2136.03
735.36	2146.27
735.54	2158.56
735.73	2172.89
735.91	2121.70
736.09	2273.25
736.27	2195.42
736.45	2181.09
736.63	2007.01
736.81	2154.46
736.99	2293.72
737.17	2318.30
737.35	2129.89
737.53	2209.76
737.71	2207.71
737.89	2318.30
738.07	2076.64
738.25	2060.26
738.43	2045.92
738.61	2162.66
738.80	2107.36
738.98	2103.26
739.16	2133.98
739.34	2058.21
739.52	2367.45
739.70	2179.04
739.88	2260.96
740.06	2303.96
740.24	2080.74
740.42	2281.44
740.60	2056.16
740.78	2176.99
740.96	2029.54
741.14	2131.94
741.32	2240.48
741.50	2076.64
741.68	2449.37
741.86	2338.78
742.04	2123.74
742.22	2121.70
742.40	2232.29
742.58	2197.47
742.76	2119.65
742.94	2324.44
743.12	2019.30
743.30	2183.13
743.48	2217.95
743.66	2195.42
743.84	2226.14
744.02	2217.95
744.20	2183.13
744.38	2195.42
744.56	2117.60
744.74	2416.60
744.92	2238.43
745.10	2396.12
745.28	2228.19
745.46	2432.99
745.64	2109.41
745.82	2289.63
746.00	2095.07
746.18	2195.42
746.36	2166.75
746.54	2279.39
746.72	2129.89
746.90	2093.02
747.08	2334.68
747.26	2189.28
747.44	2213.85
747.62	2275.29
747.80	2191.33
747.98	2244.57
748.15	2179.04
748.33	2412.51
748.51	2236.38
748.69	2277.34
748.87	2131.94
749.05	2181.09
749.23	2207.71
749.41	2209.76
749.59	2195.42
749.77	2283.49
749.95	2166.75
750.13	2111.46
750.31	2265.05
750.49	2152.42
750.67	2254.81
750.85	2260.96
751.03	2250.72
751.20	2424.80
751.38	2242.53
751.56	2146.27
751.74	2179.04
751.92	2154.46
752.10	2101.22
752.28	2281.44
752.46	2111.46
752.64	2183.13
752.82	2248.67
753.00	2357.21
753.18	2174.94
753.35	2133.98
753.53	2199.52
753.71	2162.66
753.89	2230.24
754.07	2244.57
754.25	2314.20
754.43	2189.28
754.61	2144.22
754.79	2203.61
754.97	2078.69
755.14	2349.02
755.32	2031.58
755.50	2209.76
755.68	2152.42
755.86	2066.40
756.04	2160.61
756.22	2072.54
756.40	2254.81
756.57	2349.02
756.75	2183.13
756.93	2299.87
757.11	2205.66
757.29	2023.39
757.47	2109.41
757.65	2105.31
757.82	2023.39
758.00	2129.89
758.18	2082.78
758.36	2154.46
758.54	2373.60
758.72	2123.74
758.90	2260.96
759.07	2322.40
759.25	2146.27
759.43	2228.19
759.61	2076.64
759.79	3028.95
759.97	2308.06
760.15	2099.17
760.32	2131.94
760.50	2154.46
760.68	2318.30
760.86	2054.11
761.04	2240.48
761.22	2199.52
761.39	2209.76
761.57	2295.77
761.75	2220.00
761.93	2242.53
762.11	2113.50
762.28	2138.08
762.46	2095.07
762.64	2277.34
762.82	2047.97
763.00	2097.12
763.18	2324.44
763.35	2004.96
763.53	2275.29
763.71	2195.42
763.89	2176.99
764.07	2258.91
764.24	2158.56
764.42	2203.61
764.60	2164.70
764.78	2203.61
764.96	2349.02
765.13	2269.15
765.31	2193.37
765.49	2310.11
765.67	2088.93
765.84	2105.31
766.02	2103.26
766.20	2023.39
766.38	2263.01
766.56	2252.77
766.73	2260.96
766.91	2179.04
767.09	2199.52
767.27	2230.24
767.44	2072.54
767.62	2308.06
767.80	2234.33
767.98	2131.94
768.15	2183.13
768.33	2234.33
768.51	2269.15
768.69	2201.57
768.87	2211.81
769.04	2238.43
769.22	2420.70
769.40	2324.44
769.58	2383.84
769.75	2275.29
769.93	2256.86
770.11	2176.99
770.28	2082.78
770.46	2363.36
770.64	2246.62
770.82	2195.42
770.99	2076.64
771.17	2248.67
771.35	2156.51
771.53	2109.41
771.70	2152.42
771.88	2168.80
772.06	2220.00
772.23	2099.17
772.41	2269.15
772.59	2174.94
772.77	2072.54
772.94	2105.31
773.12	2207.71
773.30	2158.56
773.47	2213.85
773.65	2074.59
773.83	2351.07
774.01	2181.09
774.18	2060.26
774.36	2234.33
774.54	2062.30
774.71	2234.33
774.89	2099.17
775.07	2160.61
775.24	2129.89
775.42	2156.51
775.60	2289.63
775.78	2187.23
775.95	2090.98
776.13	2047.97
776.31	1974.24
776.48	2193.37
776.66	2324.44
776.84	2152.42
777.01	2115.55
777.19	2080.74
777.37	2131.94
777.54	2250.72
777.72	2367.45
777.90	2236.38
778.07	2174.94
778.25	2531.29
778.43	2357.21
778.60	2070.50
778.78	2269.15
778.96	2226.14
779.13	2103.26
779.31	2174.94
779.49	2187.23
779.66	2209.76
779.84	2086.88
780.01	2207.71
780.19	2103.26
780.37	2283.49
780.54	2201.57
780.72	2172.89
780.90	2097.12
781.07	2289.63
781.25	2176.99
781.43	2250.72
781.60	2150.37
781.78	2263.01
781.95	2269.15
782.13	2170.85
782.31	2224.09
782.48	1943.52
782.66	2170.85
782.83	2332.64
783.01	2191.33
783.19	2252.77
783.36	2187.23
783.54	2127.84
783.72	2314.20
783.89	2179.04
784.07	2207.71
784.24	2263.01
784.42	2320.35
784.60	2220.00
784.77	2179.04
784.95	2037.73
785.12	2146.27
785.30	2281.44
785.47	2097.12
785.65	2113.50
785.83	2195.42
786.00	2131.94
786.18	2244.57
786.35	2047.97
786.53	2103.26
786.71	2228.19
786.88	2201.57
787.06	2211.81
787.23	2111.46
787.41	2068.45
787.58	2166.75
787.76	2117.60
787.94	2154.46
788.11	2213.85
788.29	2144.22
788.46	2078.69
788.64	2082.78
788.81	2121.70
788.99	2111.46
789.16	2088.93
789.34	2185.18
789.52	2152.42
789.69	2144.22
789.87	2031.58
790.04	2174.94
790.22	2230.24
790.39	2355.16
790.57	2041.82
790.74	2099.17
790.92	2246.62
791.09	2082.78
791.27	2123.74
791.44	2248.67
791.62	2236.38
791.79	2312.16
791.97	2185.18
792.15	2439.13
792.32	2269.15
792.50	2256.86
792.67	2357.21
792.85	2396.12
793.02	2277.34
793.20	2170.85
793.37	2103.26
793.55	2203.61
793.72	2070.50
793.90	2207.71
794.07	2152.42
794.25	2093.02
794.42	2224.09
794.60	2170.85
794.77	2265.05
794.95	2246.62
795.12	2273.25
795.30	2179.04
795.47	2025.44
795.65	2523.10
795.82	2260.96
796.00	2064.35
796.17	2107.36
796.34	2068.45
796.52	2207.71
796.69	2283.49
796.87	2201.57
797.04	2205.66
797.22	2271.20
797.39	2287.58
797.57	2242.53
797.74	2211.81
797.92	2220.00
798.09	2226.14
798.27	2326.49
798.44	2205.66
798.62	2097.12
798.79	2226.14
798.96	2258.91
799.14	2166.75
799.31	2430.94
799.49	2168.80
799.66	2121.70
799.84	2152.42
800.01	2119.65
800.19	2220.00
800.36	2029.54
800.53	2121.70
800.71	2271.20
800.88	2342.88
801.06	2068.45
801.23	2082.78
801.41	2187.23
801.58	2097.12
801.75	2129.89
801.93	2191.33
802.10	2256.86
802.28	2234.33
802.45	2150.37
802.63	2195.42
802.80	2306.01
802.97	2207.71
803.15	2213.85
803.32	2131.94
803.50	2109.41
803.67	2088.93
803.84	2111.46
804.02	2164.70
804.19	2144.22
804.37	1986.53
804.54	2076.64
804.71	2117.60
804.89	2207.71
805.06	2105.31
805.24	2144.22
805.41	2050.02
805.58	2056.16
805.76	2387.93
805.93	2197.47
806.10	2303.96
806.28	2217.95
806.45	2179.04
806.63	2121.70
806.80	2146.27
806.97	2207.71
807.15	2236.38
807.32	2211.81
807.49	2117.60
807.67	2060.26
807.84	2267.10
808.01	2056.16
808.19	2357.21
808.36	2473.95
808.54	2148.32
808.71	2056.16
808.88	2179.04
809.06	2254.81
809.23	2361.31
809.40	2123.74
809.58	2236.38
809.75	2160.61
809.92	2086.88
810.10	2418.65
810.27	2201.57
810.44	2162.66
810.62	2289.63
810.79	2275.29
810.96	2058.21
811.14	2064.35
811.31	2215.90
811.48	2197.47
811.66	2125.79
811.83	2355.16
812.00	2195.42
812.18	2234.33
812.35	2355.16
812.52	2260.96
812.69	2148.32
812.87	2095.07
813.04	2117.60
813.21	2195.42
813.39	2185.18
813.56	2068.45
813.73	2269.15
813.91	2103.26
814.08	2201.57
814.25	2236.38
814.42	2037.73
814.60	2078.69
814.77	2215.90
814.94	2166.75
815.12	2179.04
815.29	2308.06
815.46	2113.50
815.63	2213.85
815.81	2166.75
815.98	2150.37
816.15	2191.33
816.33	2189.28
816.50	2142.18
816.67	2228.19
816.84	2111.46
817.02	2152.42
817.19	2176.99
817.36	2201.57
817.53	2215.90
817.71	2062.30
817.88	2240.48
818.05	2144.22
818.22	2119.65
818.40	2326.49
818.57	2150.37
818.74	2222.05
818.91	2201.57
819.09	2201.57
819.26	2236.38
819.43	2125.79
819.60	2217.95
819.78	2248.67
819.95	2330.59
820.12	2111.46
820.29	2267.10
820.47	2318.30
820.64	2084.83
820.81	2047.97
820.98	2107.36
821.15	2217.95
821.33	2193.37
821.50	2045.92
821.67	2129.89
821.84	2123.74
822.02	2263.01
822.19	2332.64
822.36	2144.22
822.53	2105.31
822.70	1974.24
822.88	2119.65
823.05	2308.06
823.22	2121.70
823.39	2250.72
823.56	2197.47
823.74	2349.02
823.91	2084.83
824.08	2072.54
824.25	2062.30
824.42	2351.07
824.60	2097.12
824.77	2176.99
824.94	2152.42
825.11	2199.52
825.28	2013.15
825.45	2201.57
825.63	2246.62
825.80	2093.02
825.97	2314.20
826.14	2105.31
826.31	2154.46
826.48	2187.23
826.66	2062.30
826.83	2168.80
827.00	2121.70
827.17	2086.88
827.34	2238.43
827.51	2088.93
827.69	2179.04
827.86	2056.16
828.03	2201.57
828.20	2238.43
828.37	2176.99
828.54	2220.00
828.71	2086.88
828.89	2416.60
829.06	2195.42
829.23	2367.45
829.40	2107.36
829.57	2084.83
829.74	2226.14
829.91	2142.18
830.09	2168.80
830.26	2252.77
830.43	2318.30
830.60	2129.89
830.77	2240.48
830.94	2355.16
831.11	2226.14
831.28	2199.52
831.46	2258.91
831.63	2152.42
831.80	2283.49
831.97	2160.61
832.14	2113.50
832.31	2236.38
832.48	2242.53
832.65	2297.82
832.82	2146.27
832.99	2244.57
833.17	2138.08
833.34	2361.31
833.51	2193.37
833.68	2023.39
833.85	2346.97
834.02	2078.69
834.19	2052.06
834.36	2086.88
834.53	2228.19
834.70	2312.16
834.87	2260.96
835.04	2121.70
835.22	2215.90
835.39	2213.85
835.56	2121.70
835.73	2136.03
835.90	2338.78
836.07	2088.93
836.24	2283.49
836.41	2035.68
836.58	2031.58
836.75	2306.01
836.92	2191.33
837.09	2138.08
837.26	2213.85
837.43	2197.47
837.60	2197.47
837.77	2172.89
837.94	2316.25
838.12	2338.78
838.29	2115.55
838.46	2029.54
838.63	2029.54
838.80	2326.49
838.97	2226.14
839.14	2246.62
839.31	2162.66
839.48	2275.29
839.65	2113.50
839.82	2168.80
839.99	2146.27
840.16	2220.00
840.33	2133.98
840.50	2168.80
840.67	2062.30
840.84	2002.91
841.01	2095.07
841.18	2154.46
841.35	2170.85
841.52	2242.53
841.69	2367.45
841.86	2156.51
842.03	2220.00
842.20	2320.35
842.37	2158.56
842.54	2136.03
842.71	2193.37
842.88	2052.06
843.05	2125.79
843.22	2078.69
843.39	2279.39
843.56	2052.06
843.73	2150.37
843.90	2234.33
844.07	2095.07
844.24	2320.35
844.41	2185.18
844.58	2187.23
844.75	2232.29
844.92	2291.68
845.09	2181.09
845.26	2150.37
845.43	2330.59
845.60	2160.61
845.77	2187.23
845.94	2105.31
846.10	2265.05
846.27	2039.78
846.44	2084.83
846.61	2060.26
846.78	2199.52
846.95	2318.30
847.12	2076.64
847.29	2021.35
847.46	2113.50
847.63	2326.49
847.80	2097.12
847.97	2174.94
848.14	2351.07
848.31	2142.18
848.48	2076.64
848.65	2162.66
848.82	2162.66
848.98	2457.56
849.15	2185.18
849.32	2207.71
849.49	2301.92
849.66	2236.38
849.83	2187.23
850.00	2064.35
850.17	2181.09
850.34	2131.94
850.51	2170.85
850.68	2136.03
850.85	2385.88
851.01	2176.99
851.18	2244.57
851.35	2172.89
851.52	2220.00
851.69	2422.75
851.86	2002.91
852.03	2174.94
852.20	2185.18
852.37	2242.53
852.53	2054.11
852.70	2086.88
852.87	2115.55
853.04	2179.04
853.21	2176.99
853.38	2263.01
853.55	2258.91
853.72	2330.59
853.89	2007.01
854.05	2111.46
854.22	2078.69
854.39	2211.81
854.56	2123.74
854.73	2263.01
854.90	2039.78
855.07	2154.46
855.23	2138.08
855.40	2019.30
855.57	2174.94
855.74	2029.54
855.91	2389.98
856.08	2004.96
856.25	2054.11
856.41	2156.51
856.58	2138.08
856.75	2185.18
856.92	2045.92
857.09	2299.87
857.26	2103.26
857.42	2179.04
857.59	2263.01
857.76	2154.46
857.93	2224.09
858.10	2174.94
858.27	2142.18
858.43	2234.33
858.60	2148.32
858.77	2029.54
858.94	2095.07
859.11	2273.25
859.27	2127.84
859.44	2105.31
859.61	2432.99
859.78	2138.08
859.95	2138.08
860.12	2088.93
860.28	2504.67
860.45	2367.45
860.62	2117.60
860.79	2129.89
860.95	2248.67
861.12	2099.17
861.29	2078.69
861.46	2123.74
861.63	2203.61
861.79	2213.85
861.96	2052.06
862.13	2086.88
862.30	2363.36
862.47	2162.66
862.63	2086.88
862.80	2183.13
862.97	2303.96
863.14	2195.42
863.30	2152.42
863.47	2101.22
863.64	2289.63
863.81	2209.76
863.97	2074.59
864.14	2183.13
864.31	2191.33
864.48	2244.57
864.65	2220.00
864.81	2162.66
864.98	2357.21
865.15	2189.28
865.32	2187.23
865.48	2322.40
865.65	2351.07
865.82	2121.70
865.98	2236.38
866.15	2256.86
866.32	2152.42
866.49	2187.23
866.65	2289.63
866.82	2154.46
866.99	2209.76
867.16	2164.70
867.32	2109.41
867.49	2136.03
867.66	2119.65
867.83	2166.75
867.99	2052.06
868.16	2166.75
868.33	2111.46
868.49	2209.76
868.66	2133.98
868.83	2222.05
868.99	2232.29
869.16	2269.15
869.33	2193.37
869.50	2226.14
869.66	2152.42
869.83	2160.61
870.00	2138.08
870.16	2215.90
870.33	2152.42
870.50	2265.05
870.66	2232.29
870.83	2301.92
871.00	2209.76
871.17	2160.61
871.33	2181.09
871.50	2138.08
871.67	2174.94
871.83	2047.97
872.00	2269.15
872.17	2129.89
872.33	2353.12
872.50	2322.40
872.67	2088.93
872.83	2138.08
873.00	2209.76
873.17	2179.04
873.33	2228.19
873.50	2193.37
873.67	2099.17
873.83	2090.98
874.00	2138.08
874.16	2310.11
874.33	2189.28
874.50	2050.02
874.66	2193.37
874.83	2072.54
875.00	2371.55
875.16	2295.77
875.33	2220.00
875.50	1929.19
875.66	2129.89
875.83	2193.37
875.99	2289.63
876.16	2162.66
876.33	2121.70
876.49	2201.57
876.66	2154.46
876.83	2160.61
876.99	2125.79
877.16	2109.41
877.32	2123.74
877.49	2123.74
877.66	2260.96
877.82	2263.01
877.99	2207.71
878.15	2291.68
878.32	2172.89
878.49	2232.29
878.65	2181.09
878.82	2285.53
878.98	2117.60
879.15	2271.20
879.32	2283.49
879.48	2217.95
879.65	2160.61
879.81	2203.61
879.98	2154.46
880.15	2086.88
880.31	2316.25
880.48	2095.07
880.64	2205.66
880.81	2303.96
880.97	2303.96
881.14	2310.11
881.31	2103.26
881.47	2373.60
881.64	2107.36
881.80	2031.58
881.97	2185.18
882.13	2236.38
882.30	2082.78
882.47	2129.89
882.63	2121.70
882.80	2105.31
882.96	2127.84
883.13	2385.88
883.29	2162.66
883.46	2113.50
883.62	2430.94
883.79	2199.52
883.95	2220.00
884.12	2146.27
884.29	2265.05
884.45	2256.86
884.62	2222.05
884.78	2095.07
884.95	2373.60
885.11	2142.18
885.28	2199.52
885.44	2138.08
885.61	2277.34
885.77	2314.20
885.94	2242.53
886.10	2185.18
886.27	2252.77
886.43	2385.88
886.60	2285.53
886.76	2099.17
886.93	2213.85
887.09	2199.52
887.26	1986.53
887.42	2176.99
887.59	2332.64
887.75	2375.64
887.92	2250.72
888.08	2230.24
888.25	2332.64
888.41	2226.14
888.58	2174.94
888.74	2119.65
888.91	2121.70
>>>>>End Processed Spectral Data<<<<<
