SpectraSuite Data File
++++++++++++++++++++++++++++++++++++
Date: Thu May 05 12:35:45 CEST 2016
User: root
Dark Spectrum Present: No
Reference Spectrum Present: No
Number of Sampled Component Spectra: 1
Spectrometers: USB4C02835
Integration Time (usec): 100000 (USB4C02835)
Spectra Averaged: 1 (USB4C02835)
Boxcar Smoothing: 0 (USB4C02835)
Correct for Electrical Dark: No (USB4C02835)
Strobe/Lamp Enabled: No (USB4C02835)
Correct for Detector Non-linearity: No (USB4C02835)
Correct for Stray Light: No (USB4C02835)
Number of Pixels in Processed Spectrum: 3648
>>>>>Begin Processed Spectral Data<<<<<
177.47	1773.54
177.69	1773.54
177.91	1773.54
178.13	1748.97
178.36	1755.11
178.58	2064.35
178.80	2156.51
179.02	2054.11
179.24	2045.92
179.46	2105.31
179.68	2179.04
179.90	2162.66
180.13	2123.74
180.35	2097.12
180.57	2119.65
180.79	2146.27
181.01	2209.76
181.23	2191.33
181.45	2193.37
181.67	2236.38
181.90	2383.84
182.12	2080.74
182.34	2025.44
182.56	2277.34
182.78	2297.82
183.00	2088.93
183.22	2170.85
183.44	2047.97
183.66	2502.62
183.89	2170.85
184.11	2183.13
184.33	2254.81
184.55	2273.25
184.77	2154.46
184.99	2152.42
185.21	2189.28
185.43	2449.37
185.65	2017.25
185.87	2133.98
186.10	2424.80
186.32	2406.36
186.54	2129.89
186.76	2236.38
186.98	2256.86
187.20	2164.70
187.42	2095.07
187.64	2078.69
187.86	2287.58
188.08	2330.59
188.30	2027.49
188.52	2140.13
188.75	2303.96
188.97	2326.49
189.19	2043.87
189.41	2035.68
189.63	2232.29
189.85	2209.76
190.07	2039.78
190.29	1964.00
190.51	2123.74
190.73	2113.50
190.95	2244.57
191.17	2060.26
191.39	2054.11
191.61	2101.22
191.84	2080.74
192.06	2160.61
192.28	2060.26
192.50	2535.39
192.72	2166.75
192.94	2162.66
193.16	2328.54
193.38	2213.85
193.60	2088.93
193.82	2136.03
194.04	2330.59
194.26	2228.19
194.48	2129.89
194.70	2133.98
194.92	2140.13
195.14	2258.91
195.36	2074.59
195.58	2140.13
195.80	2168.80
196.02	2119.65
196.24	2064.35
196.46	2158.56
196.69	2160.61
196.91	2406.36
197.13	2072.54
197.35	2154.46
197.57	2326.49
197.79	2133.98
198.01	2183.13
198.23	2146.27
198.45	2201.57
198.67	2093.02
198.89	2162.66
199.11	2224.09
199.33	2121.70
199.55	2002.91
199.77	2142.18
199.99	2263.01
200.21	2162.66
200.43	2256.86
200.65	2054.11
200.87	2009.06
201.09	2181.09
201.31	2115.55
201.53	2179.04
201.75	2158.56
201.97	2275.29
202.19	2230.24
202.41	2228.19
202.63	2318.30
202.85	2299.87
203.07	2201.57
203.29	2056.16
203.51	2009.06
203.73	2105.31
203.95	2537.43
204.17	2176.99
204.39	2164.70
204.61	2136.03
204.83	2056.16
205.05	2215.90
205.27	2164.70
205.49	2428.89
205.71	2181.09
205.93	2074.59
206.15	2076.64
206.37	2166.75
206.59	2158.56
206.81	2093.02
207.03	2103.26
207.25	2123.74
207.47	2244.57
207.69	2095.07
207.91	2299.87
208.13	2342.88
208.34	2179.04
208.56	2064.35
208.78	2154.46
209.00	2187.23
209.22	2146.27
209.44	2193.37
209.66	2011.11
209.88	2252.77
210.10	2107.36
210.32	2017.25
210.54	2236.38
210.76	2222.05
210.98	2371.55
211.20	1978.34
211.42	2183.13
211.64	2277.34
211.86	2215.90
212.08	2160.61
212.30	2095.07
212.52	2189.28
212.74	2201.57
212.96	2164.70
213.17	2176.99
213.39	2258.91
213.61	2387.93
213.83	2166.75
214.05	2101.22
214.27	2344.92
214.49	2138.08
214.71	2193.37
214.93	2228.19
215.15	2127.84
215.37	2303.96
215.59	1968.10
215.81	2183.13
216.03	2416.60
216.24	2258.91
216.46	2146.27
216.68	2158.56
216.90	2277.34
217.12	2310.11
217.34	2154.46
217.56	2109.41
217.78	2283.49
218.00	2287.58
218.22	2222.05
218.44	2086.88
218.66	2197.47
218.87	2357.21
219.09	2097.12
219.31	2211.81
219.53	2127.84
219.75	2166.75
219.97	2125.79
220.19	2131.94
220.41	2187.23
220.63	2367.45
220.85	2152.42
221.06	2144.22
221.28	2359.26
221.50	2236.38
221.72	2226.14
221.94	2095.07
222.16	2138.08
222.38	2297.82
222.60	2187.23
222.82	2111.46
223.03	2283.49
223.25	2062.30
223.47	2152.42
223.69	2269.15
223.91	2226.14
224.13	2267.10
224.35	2084.83
224.57	2244.57
224.78	2250.72
225.00	2113.50
225.22	2215.90
225.44	2084.83
225.66	2342.88
225.88	2131.94
226.10	2195.42
226.32	2158.56
226.53	2357.21
226.75	2158.56
226.97	2136.03
227.19	2170.85
227.41	2097.12
227.63	2162.66
227.85	1972.19
228.06	2138.08
228.28	2256.86
228.50	2297.82
228.72	2031.58
228.94	2121.70
229.16	2066.40
229.37	2039.78
229.59	2088.93
229.81	2314.20
230.03	2138.08
230.25	2054.11
230.47	1982.43
230.69	2045.92
230.90	2189.28
231.12	2097.12
231.34	2195.42
231.56	2260.96
231.78	2088.93
232.00	2133.98
232.21	2084.83
232.43	2131.94
232.65	2050.02
232.87	2275.29
233.09	2029.54
233.30	2097.12
233.52	2291.68
233.74	2172.89
233.96	2115.55
234.18	2224.09
234.40	2150.37
234.61	2389.98
234.83	2011.11
235.05	2080.74
235.27	2455.51
235.49	2277.34
235.70	2107.36
235.92	2222.05
236.14	2306.01
236.36	2365.40
236.58	2025.44
236.79	2258.91
237.01	2193.37
237.23	2174.94
237.45	2287.58
237.67	2107.36
237.88	2136.03
238.10	2392.03
238.32	2066.40
238.54	2105.31
238.76	2254.81
238.97	2185.18
239.19	2095.07
239.41	2260.96
239.63	2281.44
239.85	2052.06
240.06	2211.81
240.28	2179.04
240.50	2234.33
240.72	2168.80
240.93	2121.70
241.15	2138.08
241.37	2248.67
241.59	2342.88
241.81	2052.06
242.02	2156.51
242.24	2232.29
242.46	2252.77
242.68	2076.64
242.89	2168.80
243.11	2330.59
243.33	2238.43
243.55	2099.17
243.76	2136.03
243.98	2033.63
244.20	2183.13
244.42	2144.22
244.64	2088.93
244.85	2125.79
245.07	2105.31
245.29	2138.08
245.51	2131.94
245.72	2203.61
245.94	2273.25
246.16	2191.33
246.38	2111.46
246.59	2037.73
246.81	2097.12
247.03	2095.07
247.24	2009.06
247.46	2133.98
247.68	2254.81
247.90	2068.45
248.11	2172.89
248.33	2248.67
248.55	2146.27
248.77	2127.84
248.98	2211.81
249.20	2326.49
249.42	2260.96
249.64	2136.03
249.85	2158.56
250.07	2191.33
250.29	2166.75
250.50	2230.24
250.72	2070.50
250.94	2232.29
251.16	2412.51
251.37	2150.37
251.59	2215.90
251.81	2224.09
252.02	2316.25
252.24	2017.25
252.46	2220.00
252.68	2095.07
252.89	2064.35
253.11	2009.06
253.33	2277.34
253.54	2295.77
253.76	2039.78
253.98	2050.02
254.20	2086.88
254.41	1961.95
254.63	2140.13
254.85	2056.16
255.06	2166.75
255.28	2197.47
255.50	2201.57
255.71	2162.66
255.93	2050.02
256.15	2152.42
256.36	2295.77
256.58	2127.84
256.80	2117.60
257.02	2222.05
257.23	2166.75
257.45	2150.37
257.67	2158.56
257.88	2129.89
258.10	2164.70
258.32	2129.89
258.53	2152.42
258.75	2373.60
258.97	2125.79
259.18	2045.92
259.40	2095.07
259.62	2396.12
259.83	2277.34
260.05	2142.18
260.27	2607.06
260.48	2295.77
260.70	2050.02
260.92	2095.07
261.13	2138.08
261.35	2191.33
261.57	2252.77
261.78	1976.29
262.00	2074.59
262.22	2236.38
262.43	2109.41
262.65	2052.06
262.86	2150.37
263.08	2453.47
263.30	2183.13
263.51	2033.63
263.73	2080.74
263.95	2326.49
264.16	2113.50
264.38	2088.93
264.60	2193.37
264.81	2211.81
265.03	2248.67
265.25	2277.34
265.46	2144.22
265.68	2312.16
265.89	2242.53
266.11	2031.58
266.33	2187.23
266.54	2222.05
266.76	2265.05
266.98	2234.33
267.19	2195.42
267.41	2295.77
267.62	2195.42
267.84	2058.21
268.06	2191.33
268.27	2209.76
268.49	2295.77
268.70	2220.00
268.92	2131.94
269.14	2129.89
269.35	2039.78
269.57	2070.50
269.79	2166.75
270.00	2095.07
270.22	2377.69
270.43	2078.69
270.65	1955.81
270.87	2220.00
271.08	2320.35
271.30	2176.99
271.51	2174.94
271.73	2273.25
271.95	2385.88
272.16	2105.31
272.38	2101.22
272.59	2119.65
272.81	2209.76
273.02	2140.13
273.24	2166.75
273.46	2240.48
273.67	2105.31
273.89	2043.87
274.10	2052.06
274.32	2318.30
274.54	2224.09
274.75	2144.22
274.97	2133.98
275.18	2244.57
275.40	2230.24
275.61	2111.46
275.83	2168.80
276.05	2023.39
276.26	2158.56
276.48	2193.37
276.69	2187.23
276.91	2168.80
277.12	2252.77
277.34	2213.85
277.55	2326.49
277.77	2242.53
277.99	2170.85
278.20	2136.03
278.42	2050.02
278.63	2101.22
278.85	2164.70
279.06	2084.83
279.28	2314.20
279.49	2322.40
279.71	2267.10
279.93	2172.89
280.14	2117.60
280.36	2095.07
280.57	2258.91
280.79	2291.68
281.00	2097.12
281.22	2097.12
281.43	2322.40
281.65	2009.06
281.86	2070.50
282.08	2283.49
282.29	2392.03
282.51	2095.07
282.73	2097.12
282.94	2090.98
283.16	2277.34
283.37	2277.34
283.59	2183.13
283.80	2242.53
284.02	2101.22
284.23	2123.74
284.45	2187.23
284.66	2045.92
284.88	2111.46
285.09	2140.13
285.31	2332.64
285.52	2306.01
285.74	1992.67
285.95	2252.77
286.17	2236.38
286.38	2287.58
286.60	2154.46
286.81	2125.79
287.03	2047.97
287.24	2215.90
287.46	2164.70
287.67	2168.80
287.89	2353.12
288.10	2160.61
288.32	2252.77
288.53	2359.26
288.75	2148.32
288.96	2269.15
289.18	2162.66
289.39	2193.37
289.61	2226.14
289.82	2342.88
290.04	2406.36
290.25	2084.83
290.47	2213.85
290.68	2142.18
290.90	2289.63
291.11	2023.39
291.33	2168.80
291.54	2113.50
291.76	2183.13
291.97	2220.00
292.18	2220.00
292.40	2142.18
292.61	2133.98
292.83	2330.59
293.04	2308.06
293.26	2258.91
293.47	2242.53
293.69	2160.61
293.90	2146.27
294.12	2381.79
294.33	2199.52
294.55	2179.04
294.76	2248.67
294.97	2328.54
295.19	2320.35
295.40	2039.78
295.62	2234.33
295.83	2269.15
296.05	2150.37
296.26	2226.14
296.48	2152.42
296.69	2138.08
296.90	2238.43
297.12	2236.38
297.33	2242.53
297.55	2228.19
297.76	2215.90
297.98	2271.20
298.19	2248.67
298.41	2142.18
298.62	2084.83
298.83	2258.91
299.05	2228.19
299.26	2146.27
299.48	2152.42
299.69	2250.72
299.90	2220.00
300.12	2164.70
300.33	2217.95
300.55	2150.37
300.76	2154.46
300.98	2103.26
301.19	2316.25
301.40	2156.51
301.62	2148.32
301.83	2273.25
302.05	2174.94
302.26	2174.94
302.47	2183.13
302.69	2127.84
302.90	2146.27
303.12	1990.63
303.33	2267.10
303.54	2359.26
303.76	2207.71
303.97	2226.14
304.19	2334.68
304.40	2047.97
304.61	2179.04
304.83	2355.16
305.04	2283.49
305.26	2287.58
305.47	2133.98
305.68	2215.90
305.90	2109.41
306.11	2275.29
306.33	2220.00
306.54	2170.85
306.75	2111.46
306.97	2039.78
307.18	2133.98
307.39	2158.56
307.61	2207.71
307.82	2215.90
308.04	2232.29
308.25	2133.98
308.46	2193.37
308.68	2211.81
308.89	2156.51
309.10	2289.63
309.32	2191.33
309.53	2158.56
309.74	2250.72
309.96	2109.41
310.17	2260.96
310.39	2179.04
310.60	2183.13
310.81	2172.89
311.03	2052.06
311.24	2267.10
311.45	2234.33
311.67	2349.02
311.88	2234.33
312.09	2179.04
312.31	2121.70
312.52	2123.74
312.73	2162.66
312.95	2066.40
313.16	2125.79
313.37	2187.23
313.59	2181.09
313.80	2301.92
314.01	2416.60
314.23	2154.46
314.44	2156.51
314.65	1990.63
314.87	2211.81
315.08	2150.37
315.29	2133.98
315.51	2195.42
315.72	2052.06
315.93	2275.29
316.15	2129.89
316.36	2142.18
316.57	2299.87
316.79	2164.70
317.00	2113.50
317.21	2230.24
317.43	2117.60
317.64	2193.37
317.85	2056.16
318.07	2131.94
318.28	2150.37
318.49	2320.35
318.70	2457.56
318.92	2414.56
319.13	2389.98
319.34	2404.32
319.56	2338.78
319.77	2332.64
319.98	2334.68
320.20	2297.82
320.41	2349.02
320.62	2314.20
320.83	2107.36
321.05	2377.69
321.26	2191.33
321.47	2211.81
321.69	2277.34
321.90	2078.69
322.11	2166.75
322.32	2215.90
322.54	2254.81
322.75	2162.66
322.96	2551.77
323.18	2074.59
323.39	2035.68
323.60	2144.22
323.81	2217.95
324.03	2179.04
324.24	2172.89
324.45	2185.18
324.66	2176.99
324.88	2340.83
325.09	2287.58
325.30	2179.04
325.52	2152.42
325.73	2240.48
325.94	2097.12
326.15	2031.58
326.37	2099.17
326.58	2326.49
326.79	2334.68
327.00	2095.07
327.22	2140.13
327.43	2201.57
327.64	2109.41
327.85	2244.57
328.07	2136.03
328.28	2332.64
328.49	2176.99
328.70	2201.57
328.92	2236.38
329.13	2234.33
329.34	2181.09
329.55	2355.16
329.76	2277.34
329.98	2146.27
330.19	2291.68
330.40	2187.23
330.61	2168.80
330.83	2209.76
331.04	2072.54
331.25	2215.90
331.46	2160.61
331.68	2115.55
331.89	2238.43
332.10	2146.27
332.31	2068.45
332.52	2283.49
332.74	2314.20
332.95	2111.46
333.16	2236.38
333.37	2306.01
333.58	2154.46
333.80	2199.52
334.01	2119.65
334.22	2146.27
334.43	2203.61
334.64	2162.66
334.86	2101.22
335.07	2099.17
335.28	2326.49
335.49	2093.02
335.70	2170.85
335.92	2355.16
336.13	2449.37
336.34	2181.09
336.55	2160.61
336.76	2260.96
336.98	2029.54
337.19	2199.52
337.40	2330.59
337.61	2457.56
337.82	2119.65
338.04	2170.85
338.25	1996.77
338.46	2168.80
338.67	2121.70
338.88	2179.04
339.09	2095.07
339.31	2103.26
339.52	2086.88
339.73	2060.26
339.94	2209.76
340.15	2301.92
340.36	2142.18
340.58	2252.77
340.79	2136.03
341.00	2293.72
341.21	2164.70
341.42	2385.88
341.63	2125.79
341.85	2250.72
342.06	2234.33
342.27	2113.50
342.48	2297.82
342.69	2086.88
342.90	2244.57
343.12	2250.72
343.33	2144.22
343.54	2326.49
343.75	2246.62
343.96	2217.95
344.17	2050.02
344.38	2244.57
344.60	2101.22
344.81	2107.36
345.02	2148.32
345.23	2369.50
345.44	2437.08
345.65	2256.86
345.86	2199.52
346.07	2211.81
346.29	2209.76
346.50	2228.19
346.71	2301.92
346.92	2322.40
347.13	2369.50
347.34	2193.37
347.55	2129.89
347.76	2267.10
347.98	2009.06
348.19	2142.18
348.40	2234.33
348.61	2205.66
348.82	2326.49
349.03	2256.86
349.24	2076.64
349.45	2408.41
349.66	2074.59
349.88	2220.00
350.09	2062.30
350.30	2267.10
350.51	2269.15
350.72	2244.57
350.93	2203.61
351.14	2236.38
351.35	2207.71
351.56	2162.66
351.77	2213.85
351.99	2320.35
352.20	2332.64
352.41	2283.49
352.62	1996.77
352.83	2162.66
353.04	2246.62
353.25	2150.37
353.46	2285.53
353.67	2242.53
353.88	1984.48
354.09	2148.32
354.30	2215.90
354.52	2281.44
354.73	2236.38
354.94	2146.27
355.15	2215.90
355.36	2353.12
355.57	2152.42
355.78	2191.33
355.99	2164.70
356.20	2154.46
356.41	2277.34
356.62	2166.75
356.83	2179.04
357.04	2303.96
357.25	2054.11
357.46	2144.22
357.68	2068.45
357.89	2121.70
358.10	2129.89
358.31	2162.66
358.52	2125.79
358.73	2133.98
358.94	2060.26
359.15	2119.65
359.36	2222.05
359.57	2211.81
359.78	2222.05
359.99	2256.86
360.20	2115.55
360.41	2236.38
360.62	2254.81
360.83	2248.67
361.04	2140.13
361.25	2160.61
361.46	2306.01
361.67	2326.49
361.88	2299.87
362.09	2314.20
362.30	2308.06
362.51	2179.04
362.72	2230.24
362.93	2291.68
363.14	2256.86
363.35	2193.37
363.56	2150.37
363.78	2260.96
363.99	2273.25
364.20	2142.18
364.41	2150.37
364.62	2293.72
364.83	2228.19
365.04	2168.80
365.25	2181.09
365.46	2383.84
365.67	2140.13
365.88	2240.48
366.09	2146.27
366.30	2195.42
366.51	2281.44
366.72	2103.26
366.93	2121.70
367.14	2217.95
367.35	2312.16
367.56	2189.28
367.77	2191.33
367.98	2211.81
368.18	2230.24
368.39	2193.37
368.60	2133.98
368.81	2267.10
369.02	2256.86
369.23	2205.66
369.44	2072.54
369.65	2097.12
369.86	2215.90
370.07	2279.39
370.28	2103.26
370.49	2201.57
370.70	2203.61
370.91	2052.06
371.12	2093.02
371.33	2238.43
371.54	2164.70
371.75	2291.68
371.96	2007.01
372.17	2207.71
372.38	2119.65
372.59	2240.48
372.80	2183.13
373.01	2170.85
373.22	2238.43
373.43	2121.70
373.64	2127.84
373.85	2369.50
374.06	2402.27
374.26	2318.30
374.47	2256.86
374.68	2342.88
374.89	2156.51
375.10	2152.42
375.31	2228.19
375.52	2217.95
375.73	2187.23
375.94	2056.16
376.15	2293.72
376.36	2127.84
376.57	2115.55
376.78	2121.70
376.99	2211.81
377.20	2383.84
377.40	2105.31
377.61	2338.78
377.82	2115.55
378.03	2310.11
378.24	2195.42
378.45	2176.99
378.66	2174.94
378.87	2097.12
379.08	2088.93
379.29	2121.70
379.50	2273.25
379.71	2176.99
379.91	2236.38
380.12	2174.94
380.33	2162.66
380.54	2242.53
380.75	2207.71
380.96	2150.37
381.17	2215.90
381.38	2195.42
381.59	2267.10
381.80	2146.27
382.00	2357.21
382.21	2248.67
382.42	2308.06
382.63	2467.80
382.84	2226.14
383.05	2260.96
383.26	2334.68
383.47	2258.91
383.68	2232.29
383.88	2275.29
384.09	2203.61
384.30	2383.84
384.51	2252.77
384.72	2133.98
384.93	2076.64
385.14	2260.96
385.35	2254.81
385.55	2064.35
385.76	2367.45
385.97	2195.42
386.18	2019.30
386.39	2144.22
386.60	2168.80
386.81	2176.99
387.02	2138.08
387.22	2086.88
387.43	2269.15
387.64	2322.40
387.85	2416.60
388.06	2469.85
388.27	4063.17
388.48	8462.21
388.68	12134.21
388.89	14409.51
389.10	15466.26
389.31	14694.18
389.52	11231.06
389.73	9770.86
389.93	8726.39
390.14	8091.52
390.35	7325.58
390.56	6578.08
390.77	5418.93
390.98	3971.01
391.18	3260.37
391.39	2768.85
391.60	2308.06
391.81	2336.73
392.02	2125.79
392.23	2443.23
392.43	2265.05
392.64	2285.53
392.85	2160.61
393.06	2363.36
393.27	2183.13
393.47	2162.66
393.68	2142.18
393.89	2150.37
394.10	2346.97
394.31	2138.08
394.52	2133.98
394.72	2154.46
394.93	2320.35
395.14	2025.44
395.35	2252.77
395.56	2121.70
395.76	2254.81
395.97	2310.11
396.18	2265.05
396.39	2306.01
396.60	2652.12
396.80	2486.23
397.01	2473.95
397.22	2342.88
397.43	2330.59
397.64	2228.19
397.84	2273.25
398.05	2424.80
398.26	2230.24
398.47	2381.79
398.67	2383.84
398.88	2195.42
399.09	2185.18
399.30	2136.03
399.51	2222.05
399.71	2088.93
399.92	2236.38
400.13	2189.28
400.34	2138.08
400.54	2156.51
400.75	2430.94
400.96	2246.62
401.17	2303.96
401.37	2277.34
401.58	2164.70
401.79	2179.04
402.00	2314.20
402.21	2602.97
402.41	2574.30
402.62	2568.15
402.83	2705.37
403.04	2707.41
403.24	2791.38
403.45	2342.88
403.66	2531.29
403.87	2361.31
404.07	2482.14
404.28	2414.56
404.49	2435.03
404.70	2289.63
404.90	2281.44
405.11	2189.28
405.32	2338.78
405.52	2115.55
405.73	2105.31
405.94	2127.84
406.15	2201.57
406.35	2220.00
406.56	2338.78
406.77	2236.38
406.98	2195.42
407.18	2176.99
407.39	2392.03
407.60	2138.08
407.80	2215.90
408.01	2179.04
408.22	2326.49
408.43	2150.37
408.63	2265.05
408.84	2291.68
409.05	2320.35
409.25	2166.75
409.46	2207.71
409.67	2185.18
409.88	2164.70
410.08	2203.61
410.29	2154.46
410.50	2217.95
410.70	2250.72
410.91	2037.73
411.12	2211.81
411.32	2146.27
411.53	2115.55
411.74	2277.34
411.95	2291.68
412.15	2240.48
412.36	2400.22
412.57	2318.30
412.77	2363.36
412.98	2211.81
413.19	2176.99
413.39	2267.10
413.60	2154.46
413.81	2432.99
414.01	2113.50
414.22	2299.87
414.43	2244.57
414.63	2179.04
414.84	2303.96
415.05	2232.29
415.25	2060.26
415.46	2289.63
415.67	2179.04
415.87	2228.19
416.08	2133.98
416.29	2185.18
416.49	2297.82
416.70	2088.93
416.91	2150.37
417.11	2131.94
417.32	2320.35
417.53	2355.16
417.73	2215.90
417.94	2138.08
418.15	2330.59
418.35	2209.76
418.56	2207.71
418.77	2418.65
418.97	2189.28
419.18	2205.66
419.38	1929.19
419.59	2226.14
419.80	2363.36
420.00	2185.18
420.21	2220.00
420.42	2293.72
420.62	2320.35
420.83	2078.69
421.04	2166.75
421.24	2224.09
421.45	2285.53
421.65	2201.57
421.86	2252.77
422.07	2234.33
422.27	2191.33
422.48	2252.77
422.69	2086.88
422.89	2252.77
423.10	2109.41
423.30	2047.97
423.51	2170.85
423.72	2158.56
423.92	2279.39
424.13	2088.93
424.33	2154.46
424.54	2232.29
424.75	2224.09
424.95	2357.21
425.16	2230.24
425.36	2215.90
425.57	2279.39
425.78	2285.53
425.98	2287.58
426.19	2113.50
426.39	2125.79
426.60	2203.61
426.81	2404.32
427.01	2148.32
427.22	2131.94
427.42	2047.97
427.63	2148.32
427.83	2267.10
428.04	2281.44
428.25	2277.34
428.45	2295.77
428.66	2232.29
428.86	2191.33
429.07	2142.18
429.28	2179.04
429.48	2185.18
429.69	2156.51
429.89	2277.34
430.10	2146.27
430.30	2240.48
430.51	2324.44
430.71	2129.89
430.92	2183.13
431.13	2154.46
431.33	2222.05
431.54	2306.01
431.74	2394.08
431.95	2418.65
432.15	2095.07
432.36	2172.89
432.56	2318.30
432.77	2349.02
432.98	2381.79
433.18	2226.14
433.39	2156.51
433.59	2176.99
433.80	2359.26
434.00	2303.96
434.21	2160.61
434.41	2136.03
434.62	2375.64
434.82	2097.12
435.03	2078.69
435.23	2148.32
435.44	1968.10
435.64	2205.66
435.85	2213.85
436.06	2269.15
436.26	2365.40
436.47	2146.27
436.67	2101.22
436.88	2201.57
437.08	2256.86
437.29	2351.07
437.49	2260.96
437.70	2355.16
437.90	2199.52
438.11	2359.26
438.31	2232.29
438.52	2437.08
438.72	2400.22
438.93	2484.19
439.13	2203.61
439.34	2340.83
439.54	2226.14
439.75	2244.57
439.95	2238.43
440.16	2209.76
440.36	2211.81
440.57	2215.90
440.77	2226.14
440.98	2133.98
441.18	2160.61
441.39	2140.13
441.59	2080.74
441.80	2367.45
442.00	2222.05
442.21	2308.06
442.41	2047.97
442.62	2328.54
442.82	2093.02
443.02	2203.61
443.23	2213.85
443.43	2267.10
443.64	2379.74
443.84	2191.33
444.05	2353.12
444.25	2215.90
444.46	2232.29
444.66	2238.43
444.87	2342.88
445.07	2074.59
445.28	2273.25
445.48	2367.45
445.69	2273.25
445.89	2465.75
446.09	2232.29
446.30	2408.41
446.50	2766.81
446.71	4364.22
446.91	5509.04
447.12	6553.50
447.32	6782.87
447.53	6199.20
447.73	5066.67
447.93	4423.61
448.14	4300.73
448.34	4104.13
448.55	3585.99
448.75	3526.60
448.96	3356.62
449.16	3045.33
449.36	2832.34
449.57	2490.33
449.77	2326.49
449.98	2172.89
450.18	2228.19
450.39	2271.20
450.59	2310.11
450.79	2209.76
451.00	2158.56
451.20	2252.77
451.41	2228.19
451.61	2275.29
451.81	2121.70
452.02	2203.61
452.22	2185.18
452.43	2197.47
452.63	2080.74
452.84	2236.38
453.04	2117.60
453.24	2220.00
453.45	2101.22
453.65	2193.37
453.86	2226.14
454.06	2193.37
454.26	2258.91
454.47	2156.51
454.67	2244.57
454.87	2269.15
455.08	2236.38
455.28	2349.02
455.49	2236.38
455.69	2119.65
455.89	2430.94
456.10	2220.00
456.30	2160.61
456.51	2357.21
456.71	2242.53
456.91	2254.81
457.12	2174.94
457.32	2283.49
457.52	2047.97
457.73	2271.20
457.93	2240.48
458.14	2136.03
458.34	2037.73
458.54	2138.08
458.75	2146.27
458.95	2281.44
459.15	2236.38
459.36	2269.15
459.56	2191.33
459.76	2480.09
459.97	2211.81
460.17	2244.57
460.37	2289.63
460.58	2125.79
460.78	2228.19
460.99	2158.56
461.19	2093.02
461.39	2228.19
461.60	2133.98
461.80	2301.92
462.00	2158.56
462.21	2201.57
462.41	2166.75
462.61	2187.23
462.82	2097.12
463.02	2152.42
463.22	2252.77
463.43	2320.35
463.63	2191.33
463.83	2320.35
464.04	2275.29
464.24	2185.18
464.44	2117.60
464.64	2256.86
464.85	2297.82
465.05	2226.14
465.25	2207.71
465.46	2142.18
465.66	2232.29
465.86	2222.05
466.07	2185.18
466.27	2150.37
466.47	2103.26
466.68	2072.54
466.88	2351.07
467.08	2291.68
467.29	2260.96
467.49	2195.42
467.69	2199.52
467.89	2291.68
468.10	2172.89
468.30	2191.33
468.50	2260.96
468.71	2277.34
468.91	2131.94
469.11	2293.72
469.31	2269.15
469.52	2142.18
469.72	2340.83
469.92	2473.95
470.13	2113.50
470.33	2263.01
470.53	2285.53
470.73	2639.83
470.94	3094.48
471.14	3274.70
471.34	3579.85
471.54	3538.89
471.75	3084.24
471.95	2899.92
472.15	2742.23
472.36	2734.04
472.56	2703.32
472.76	2772.95
472.96	2611.16
473.17	2512.86
473.37	2492.38
473.57	2263.01
473.77	2293.72
473.98	2242.53
474.18	2129.89
474.38	2557.91
474.58	2152.42
474.79	2084.83
474.99	2189.28
475.19	2334.68
475.39	2068.45
475.60	2287.58
475.80	2205.66
476.00	2213.85
476.20	2170.85
476.41	2242.53
476.61	2310.11
476.81	2365.40
477.01	2170.85
477.21	2344.92
477.42	2342.88
477.62	2105.31
477.82	2291.68
478.02	2138.08
478.23	2215.90
478.43	2138.08
478.63	2148.32
478.83	2320.35
479.03	2199.52
479.24	2369.50
479.44	2430.94
479.64	2047.97
479.84	2029.54
480.04	2226.14
480.25	2246.62
480.45	2084.83
480.65	2142.18
480.85	2308.06
481.06	2199.52
481.26	2244.57
481.46	2256.86
481.66	2244.57
481.86	2070.50
482.06	2330.59
482.27	2152.42
482.47	2152.42
482.67	2289.63
482.87	2146.27
483.07	2254.81
483.28	2170.85
483.48	2117.60
483.68	2142.18
483.88	2095.07
484.08	2113.50
484.29	2127.84
484.49	2176.99
484.69	2088.93
484.89	2383.84
485.09	2308.06
485.29	2260.96
485.50	2211.81
485.70	2203.61
485.90	2369.50
486.10	2207.71
486.30	2232.29
486.50	2359.26
486.71	2207.71
486.91	2211.81
487.11	2285.53
487.31	2121.70
487.51	2252.77
487.71	2154.46
487.91	2093.02
488.12	2131.94
488.32	1976.29
488.52	2150.37
488.72	2093.02
488.92	2244.57
489.12	2359.26
489.32	2256.86
489.53	2281.44
489.73	2101.22
489.93	2371.55
490.13	2088.93
490.33	2060.26
490.53	2172.89
490.73	2396.12
490.94	2054.11
491.14	2260.96
491.34	2379.74
491.54	2521.05
491.74	3182.54
491.94	3805.13
492.14	3993.54
492.34	4138.94
492.54	3753.93
492.75	3235.79
492.95	3213.26
493.15	2973.65
493.35	2899.92
493.55	2770.90
493.75	2666.46
493.95	2695.13
494.15	2537.43
494.35	2387.93
494.56	2306.01
494.76	2328.54
494.96	2277.34
495.16	2158.56
495.36	2213.85
495.56	2236.38
495.76	2215.90
495.96	2136.03
496.16	2084.83
496.36	2301.92
496.56	2197.47
496.77	2189.28
496.97	2203.61
497.17	2314.20
497.37	2129.89
497.57	2265.05
497.77	2220.00
497.97	2127.84
498.17	2252.77
498.37	2179.04
498.57	2318.30
498.77	2240.48
498.97	2287.58
499.17	2375.64
499.38	2209.76
499.58	2287.58
499.78	2248.67
499.98	2322.40
500.18	2195.42
500.38	2179.04
500.58	2324.44
500.78	2867.16
500.98	5164.98
501.18	7231.38
501.38	8888.18
501.58	9969.51
501.78	9795.43
501.98	7802.76
502.18	6414.24
502.38	5599.15
502.58	5076.91
502.78	4599.74
502.98	4405.18
503.18	4302.78
503.38	3913.67
503.59	3446.73
503.79	3286.99
503.99	2899.92
504.19	2717.65
504.39	2842.58
504.59	2818.00
504.79	2891.73
504.99	2758.61
505.19	2617.30
505.39	2453.47
505.59	2598.87
505.79	2500.57
505.99	2449.37
506.19	2326.49
506.39	2457.56
506.59	2217.95
506.79	2234.33
506.99	2361.31
507.19	2211.81
507.39	2289.63
507.59	2185.18
507.79	2193.37
507.99	2152.42
508.19	2273.25
508.39	2084.83
508.59	2191.33
508.79	2310.11
508.99	2437.08
509.19	2211.81
509.39	2242.53
509.59	2191.33
509.79	2148.32
509.99	2260.96
510.19	2326.49
510.39	2236.38
510.59	2254.81
510.79	2242.53
510.99	2123.74
511.19	2230.24
511.39	2344.92
511.59	2306.01
511.79	2330.59
511.99	2240.48
512.19	2361.31
512.38	2226.14
512.58	2101.22
512.78	2088.93
512.98	2295.77
513.18	2408.41
513.38	2039.78
513.58	2215.90
513.78	2250.72
513.98	2179.04
514.18	2162.66
514.38	2179.04
514.58	2267.10
514.78	2256.86
514.98	2076.64
515.18	2205.66
515.38	2095.07
515.58	2412.51
515.78	2148.32
515.98	2256.86
516.18	2265.05
516.38	2217.95
516.57	2197.47
516.77	2158.56
516.97	2256.86
517.17	2191.33
517.37	2002.91
517.57	2332.64
517.77	2193.37
517.97	2144.22
518.17	2244.57
518.37	2121.70
518.57	2146.27
518.77	2187.23
518.97	2248.67
519.16	2252.77
519.36	2340.83
519.56	2156.51
519.76	2160.61
519.96	2281.44
520.16	2303.96
520.36	2121.70
520.56	2301.92
520.76	2269.15
520.96	2246.62
521.16	2320.35
521.35	2260.96
521.55	2402.27
521.75	2240.48
521.95	2170.85
522.15	2197.47
522.35	2090.98
522.55	2088.93
522.75	2207.71
522.95	2185.18
523.14	2050.02
523.34	2256.86
523.54	2109.41
523.74	2314.20
523.94	2197.47
524.14	2062.30
524.34	2301.92
524.54	2230.24
524.73	2131.94
524.93	2211.81
525.13	2293.72
525.33	2093.02
525.53	2396.12
525.73	2222.05
525.93	2226.14
526.13	2193.37
526.32	2187.23
526.52	2277.34
526.72	2310.11
526.92	2176.99
527.12	2168.80
527.32	2037.73
527.52	2281.44
527.71	2252.77
527.91	2222.05
528.11	2170.85
528.31	2181.09
528.51	2105.31
528.71	2289.63
528.90	2244.57
529.10	2226.14
529.30	2299.87
529.50	1988.58
529.70	2306.01
529.90	2158.56
530.09	2303.96
530.29	2099.17
530.49	2064.35
530.69	2533.34
530.89	2211.81
531.09	2289.63
531.28	2127.84
531.48	2359.26
531.68	2203.61
531.88	2265.05
532.08	2336.73
532.28	2265.05
532.47	2138.08
532.67	2361.31
532.87	2340.83
533.07	2168.80
533.27	2279.39
533.46	2279.39
533.66	2265.05
533.86	2238.43
534.06	2301.92
534.26	2207.71
534.45	2318.30
534.65	2256.86
534.85	2267.10
535.05	2127.84
535.25	2318.30
535.44	2093.02
535.64	2289.63
535.84	2146.27
536.04	2217.95
536.24	2238.43
536.43	2195.42
536.63	2211.81
536.83	2201.57
537.03	2158.56
537.22	2056.16
537.42	2060.26
537.62	2293.72
537.82	2109.41
538.02	2314.20
538.21	2308.06
538.41	2510.81
538.61	2322.40
538.81	2236.38
539.00	2332.64
539.20	2050.02
539.40	2127.84
539.60	2285.53
539.79	2195.42
539.99	2138.08
540.19	2179.04
540.39	2129.89
540.58	2248.67
540.78	2334.68
540.98	2228.19
541.18	2260.96
541.37	2273.25
541.57	2258.91
541.77	2230.24
541.97	2088.93
542.16	2013.15
542.36	2226.14
542.56	2168.80
542.76	2381.79
542.95	2187.23
543.15	2201.57
543.35	2238.43
543.54	2107.36
543.74	2117.60
543.94	2324.44
544.14	2162.66
544.33	2238.43
544.53	2207.71
544.73	2230.24
544.93	2172.89
545.12	2133.98
545.32	2205.66
545.52	2103.26
545.71	2074.59
545.91	2156.51
546.11	2160.61
546.30	2144.22
546.50	2256.86
546.70	2236.38
546.90	2263.01
547.09	2056.16
547.29	2195.42
547.49	2269.15
547.68	2136.03
547.88	2138.08
548.08	2359.26
548.27	2777.05
548.47	2185.18
548.67	2142.18
548.87	2273.25
549.06	2156.51
549.26	2285.53
549.46	2291.68
549.65	2160.61
549.85	2189.28
550.05	2228.19
550.24	2080.74
550.44	2166.75
550.64	2189.28
550.83	2105.31
551.03	2281.44
551.23	2301.92
551.42	2209.76
551.62	2148.32
551.82	2226.14
552.01	2183.13
552.21	2285.53
552.41	2181.09
552.60	2361.31
552.80	2187.23
553.00	2105.31
553.19	2209.76
553.39	2279.39
553.59	2101.22
553.78	2185.18
553.98	2244.57
554.17	2105.31
554.37	2285.53
554.57	2285.53
554.76	2121.70
554.96	2181.09
555.16	2150.37
555.35	2226.14
555.55	2258.91
555.75	2330.59
555.94	2279.39
556.14	2136.03
556.33	2291.68
556.53	2193.37
556.73	2244.57
556.92	2267.10
557.12	2318.30
557.32	2432.99
557.51	2326.49
557.71	2273.25
557.90	2363.36
558.10	2340.83
558.30	2129.89
558.49	2228.19
558.69	2123.74
558.88	2338.78
559.08	2156.51
559.28	2119.65
559.47	2197.47
559.67	2217.95
559.86	2406.36
560.06	2203.61
560.26	2164.70
560.45	2320.35
560.65	2250.72
560.84	2357.21
561.04	2111.46
561.24	2297.82
561.43	2084.83
561.63	2342.88
561.82	2226.14
562.02	2293.72
562.22	2193.37
562.41	2047.97
562.61	2123.74
562.80	2095.07
563.00	2492.38
563.19	2193.37
563.39	2197.47
563.59	2252.77
563.78	2072.54
563.98	2072.54
564.17	2228.19
564.37	2088.93
564.56	2199.52
564.76	2136.03
564.96	2303.96
565.15	2269.15
565.35	2578.39
565.54	2195.42
565.74	2295.77
565.93	2346.97
566.13	2164.70
566.32	2283.49
566.52	2260.96
566.71	2166.75
566.91	2275.29
567.11	2306.01
567.30	2070.50
567.50	2291.68
567.69	2232.29
567.89	2187.23
568.08	2193.37
568.28	2244.57
568.47	2113.50
568.67	2258.91
568.86	2183.13
569.06	2297.82
569.25	2195.42
569.45	2125.79
569.64	2170.85
569.84	2158.56
570.04	2213.85
570.23	2201.57
570.43	2183.13
570.62	2244.57
570.82	2293.72
571.01	2101.22
571.21	2133.98
571.40	2138.08
571.60	2275.29
571.79	2269.15
571.99	2203.61
572.18	2099.17
572.38	2263.01
572.57	2133.98
572.77	2185.18
572.96	2519.00
573.16	2240.48
573.35	2154.46
573.55	2432.99
573.74	2379.74
573.94	2168.80
574.13	2154.46
574.33	2334.68
574.52	2351.07
574.71	2222.05
574.91	2310.11
575.10	2080.74
575.30	2125.79
575.49	2205.66
575.69	2215.90
575.88	2220.00
576.08	2271.20
576.27	2367.45
576.47	2217.95
576.66	2449.37
576.86	2353.12
577.05	2197.47
577.25	2318.30
577.44	2432.99
577.64	2095.07
577.83	2334.68
578.02	2209.76
578.22	2424.80
578.41	2422.75
578.61	2256.86
578.80	2015.20
579.00	2293.72
579.19	2230.24
579.39	2252.77
579.58	2265.05
579.77	2228.19
579.97	2414.56
580.16	2357.21
580.36	2355.16
580.55	2365.40
580.75	2326.49
580.94	2254.81
581.13	2402.27
581.33	2379.74
581.52	2232.29
581.72	2523.10
581.91	2414.56
582.11	2236.38
582.30	2273.25
582.49	2283.49
582.69	2371.55
582.88	2273.25
583.08	2234.33
583.27	2328.54
583.47	2252.77
583.66	2211.81
583.85	2131.94
584.05	2326.49
584.24	2224.09
584.44	2275.29
584.63	2439.13
584.82	2357.21
585.02	2371.55
585.21	2420.70
585.41	2400.22
585.60	2301.92
585.79	2521.05
585.99	2469.85
586.18	2373.60
586.37	2832.34
586.57	4497.34
586.76	13369.14
586.96	32290.32
587.15	46015.81
587.34	55178.42
587.54	60646.50
587.73	55624.88
587.93	38847.92
588.12	29664.83
588.31	23776.92
588.51	20750.02
588.70	18841.31
588.89	17241.85
589.09	15120.15
589.28	12859.20
589.47	10487.65
589.67	8204.16
589.86	6340.51
590.06	4569.02
590.25	3885.00
590.44	3114.96
590.64	2820.05
590.83	2592.73
591.02	2461.66
591.22	2377.69
591.41	2381.79
591.60	2226.14
591.80	2486.23
591.99	2166.75
592.18	2236.38
592.38	2306.01
592.57	2256.86
592.76	2281.44
592.96	2281.44
593.15	2244.57
593.34	2281.44
593.54	2277.34
593.73	2297.82
593.92	2312.16
594.12	2285.53
594.31	2334.68
594.50	2367.45
594.70	2250.72
594.89	2506.71
595.08	2117.60
595.28	2246.62
595.47	2504.67
595.66	2310.11
595.86	2148.32
596.05	2283.49
596.24	2215.90
596.43	2373.60
596.63	2291.68
596.82	2299.87
597.01	2363.36
597.21	2426.84
597.40	2283.49
597.59	2285.53
597.79	2299.87
597.98	2320.35
598.17	2244.57
598.36	2283.49
598.56	2328.54
598.75	2189.28
598.94	2265.05
599.14	2265.05
599.33	2160.61
599.52	2295.77
599.71	2297.82
599.91	2320.35
600.10	2211.81
600.29	2158.56
600.48	2338.78
600.68	2197.47
600.87	2246.62
601.06	2224.09
601.26	2152.42
601.45	2211.81
601.64	2224.09
601.83	2400.22
602.03	2181.09
602.22	2047.97
602.41	2357.21
602.60	2453.47
602.80	2375.64
602.99	2228.19
603.18	2193.37
603.37	2250.72
603.57	2279.39
603.76	2267.10
603.95	2338.78
604.14	2248.67
604.34	2152.42
604.53	2146.27
604.72	2224.09
604.91	2271.20
605.10	2191.33
605.30	2170.85
605.49	2408.41
605.68	2258.91
605.87	2326.49
606.07	2185.18
606.26	2207.71
606.45	2265.05
606.64	2271.20
606.84	2230.24
607.03	2271.20
607.22	2379.74
607.41	2156.51
607.60	2187.23
607.80	2324.44
607.99	2224.09
608.18	2260.96
608.37	2258.91
608.56	2193.37
608.76	2299.87
608.95	2357.21
609.14	2297.82
609.33	2369.50
609.52	2400.22
609.72	2357.21
609.91	2394.08
610.10	2342.88
610.29	2334.68
610.48	2367.45
610.68	2283.49
610.87	2236.38
611.06	2357.21
611.25	2222.05
611.44	2342.88
611.63	2236.38
611.83	2285.53
612.02	2133.98
612.21	2367.45
612.40	2090.98
612.59	2105.31
612.79	2129.89
612.98	2209.76
613.17	2412.51
613.36	2230.24
613.55	2398.17
613.74	2285.53
613.93	2310.11
614.13	2541.53
614.32	2512.86
614.51	2455.51
614.70	2361.31
614.89	2293.72
615.08	2402.27
615.28	2746.33
615.47	2191.33
615.66	2336.73
615.85	2256.86
616.04	2453.47
616.23	2224.09
616.42	2154.46
616.62	2351.07
616.81	2256.86
617.00	2172.89
617.19	2322.40
617.38	2185.18
617.57	2275.29
617.76	2265.05
617.95	2420.70
618.15	2263.01
618.34	2346.97
618.53	2097.12
618.72	2357.21
618.91	2363.36
619.10	2287.58
619.29	2222.05
619.48	2166.75
619.68	2176.99
619.87	2289.63
620.06	2086.88
620.25	2250.72
620.44	2191.33
620.63	2217.95
620.82	2211.81
621.01	2285.53
621.20	2154.46
621.39	2265.05
621.59	2342.88
621.78	2191.33
621.97	2265.05
622.16	2273.25
622.35	2283.49
622.54	2285.53
622.73	2248.67
622.92	2080.74
623.11	2306.01
623.30	2097.12
623.49	2277.34
623.68	2121.70
623.88	2285.53
624.07	2228.19
624.26	2220.00
624.45	2252.77
624.64	2136.03
624.83	2269.15
625.02	2183.13
625.21	2336.73
625.40	2203.61
625.59	2340.83
625.78	2213.85
625.97	2398.17
626.16	2455.51
626.35	2336.73
626.54	2260.96
626.74	2377.69
626.93	2252.77
627.12	2236.38
627.31	2318.30
627.50	2312.16
627.69	2334.68
627.88	2119.65
628.07	2154.46
628.26	2047.97
628.45	2154.46
628.64	2121.70
628.83	2193.37
629.02	2105.31
629.21	2238.43
629.40	2260.96
629.59	2072.54
629.78	2166.75
629.97	2252.77
630.16	2187.23
630.35	2160.61
630.54	2324.44
630.73	2154.46
630.92	2240.48
631.11	2068.45
631.30	2281.44
631.49	2344.92
631.68	2199.52
631.87	2269.15
632.06	2029.54
632.25	2510.81
632.44	2285.53
632.63	2334.68
632.82	2215.90
633.01	2260.96
633.20	2381.79
633.39	2273.25
633.58	2166.75
633.77	2334.68
633.96	2330.59
634.15	2318.30
634.34	2346.97
634.53	2213.85
634.72	2244.57
634.91	2078.69
635.10	2183.13
635.29	2297.82
635.48	2220.00
635.67	2176.99
635.86	2074.59
636.05	2269.15
636.24	2228.19
636.43	2301.92
636.62	2217.95
636.81	2031.58
637.00	2244.57
637.19	2207.71
637.38	2197.47
637.57	2162.66
637.76	2234.33
637.95	2371.55
638.14	2291.68
638.33	2373.60
638.52	2242.53
638.71	2215.90
638.89	2136.03
639.08	2459.61
639.27	2369.50
639.46	2539.48
639.65	2863.06
639.84	2897.88
640.03	3059.67
640.22	2998.23
640.41	2947.03
640.60	2576.34
640.79	2527.19
640.98	2437.08
641.17	2562.01
641.36	2432.99
641.55	2400.22
641.74	2195.42
641.92	2240.48
642.11	2150.37
642.30	2189.28
642.49	2220.00
642.68	2199.52
642.87	2271.20
643.06	2242.53
643.25	2170.85
643.44	2119.65
643.63	2220.00
643.82	2228.19
644.00	2133.98
644.19	2222.05
644.38	2123.74
644.57	2197.47
644.76	2220.00
644.95	2199.52
645.14	2195.42
645.33	2197.47
645.52	2187.23
645.71	2019.30
645.89	2062.30
646.08	2138.08
646.27	2129.89
646.46	2285.53
646.65	2074.59
646.84	2199.52
647.03	2117.60
647.22	2269.15
647.40	2125.79
647.59	2119.65
647.78	2045.92
647.97	2095.07
648.16	2097.12
648.35	2299.87
648.54	2308.06
648.73	2146.27
648.91	2297.82
649.10	2209.76
649.29	2170.85
649.48	2199.52
649.67	2326.49
649.86	2211.81
650.05	2277.34
650.23	2443.23
650.42	2281.44
650.61	2482.14
650.80	2353.12
650.99	2492.38
651.18	2371.55
651.36	2406.36
651.55	2179.04
651.74	2312.16
651.93	2207.71
652.12	2172.89
652.31	2287.58
652.49	2226.14
652.68	2140.13
652.87	2459.61
653.06	2285.53
653.25	2410.46
653.44	2260.96
653.62	2342.88
653.81	2209.76
654.00	2152.42
654.19	2258.91
654.38	2473.95
654.56	2291.68
654.75	2252.77
654.94	2250.72
655.13	2267.10
655.32	2256.86
655.51	2316.25
655.69	2181.09
655.88	2220.00
656.07	2156.51
656.26	2236.38
656.45	2129.89
656.63	2195.42
656.82	2232.29
657.01	2353.12
657.20	2127.84
657.38	2402.27
657.57	2228.19
657.76	2093.02
657.95	2254.81
658.14	2164.70
658.32	2179.04
658.51	2088.93
658.70	2318.30
658.89	2197.47
659.08	2275.29
659.26	2334.68
659.45	2197.47
659.64	2357.21
659.83	2138.08
660.01	2582.49
660.20	2260.96
660.39	2342.88
660.58	2054.11
660.76	2265.05
660.95	2154.46
661.14	2256.86
661.33	2076.64
661.51	2158.56
661.70	2158.56
661.89	2228.19
662.08	2162.66
662.26	2050.02
662.45	2078.69
662.64	2392.03
662.83	2365.40
663.01	2054.11
663.20	2119.65
663.39	2398.17
663.58	2133.98
663.76	2215.90
663.95	2260.96
664.14	2148.32
664.32	2162.66
664.51	2097.12
664.70	2015.20
664.89	2254.81
665.07	2013.15
665.26	2224.09
665.45	2105.31
665.64	2293.72
665.82	2226.14
666.01	2310.11
666.20	2097.12
666.38	2314.20
666.57	2359.26
666.76	3299.28
666.95	8003.46
667.13	16455.43
667.32	21751.48
667.51	25661.05
667.69	27424.35
667.88	25355.90
668.07	18077.42
668.25	14423.84
668.44	11958.09
668.63	10153.83
668.81	9191.28
669.00	7892.87
669.19	6985.62
669.38	6158.24
669.56	5210.03
669.75	4351.93
669.94	3659.72
670.12	3067.86
670.31	2727.89
670.50	2576.34
670.68	2555.86
670.87	2428.89
671.06	2285.53
671.24	2320.35
671.43	2461.66
671.62	2289.63
671.80	2193.37
671.99	2303.96
672.18	2234.33
672.36	2357.21
672.55	2301.92
672.74	2207.71
672.92	2168.80
673.11	2308.06
673.29	2121.70
673.48	2252.77
673.67	2220.00
673.85	2353.12
674.04	2187.23
674.23	2158.56
674.41	2351.07
674.60	2050.02
674.79	2152.42
674.97	2150.37
675.16	2248.67
675.34	2281.44
675.53	2185.18
675.72	2246.62
675.90	2334.68
676.09	2263.01
676.28	2365.40
676.46	2119.65
676.65	2232.29
676.83	2121.70
677.02	2146.27
677.21	2086.88
677.39	2220.00
677.58	2174.94
677.77	2179.04
677.95	2090.98
678.14	2183.13
678.32	2133.98
678.51	2133.98
678.70	2371.55
678.88	2113.50
679.07	2220.00
679.25	2230.24
679.44	2244.57
679.63	2080.74
679.81	2228.19
680.00	2324.44
680.18	2213.85
680.37	2381.79
680.55	2150.37
680.74	2076.64
680.93	2031.58
681.11	2179.04
681.30	2220.00
681.48	2170.85
681.67	2136.03
681.85	2215.90
682.04	2144.22
682.23	2205.66
682.41	2318.30
682.60	2193.37
682.78	2174.94
682.97	2015.20
683.15	2183.13
683.34	2217.95
683.53	2355.16
683.71	2047.97
683.90	2334.68
684.08	2365.40
684.27	2232.29
684.45	2277.34
684.64	2340.83
684.82	2211.81
685.01	2277.34
685.19	2189.28
685.38	2359.26
685.57	2240.48
685.75	2183.13
685.94	2150.37
686.12	2125.79
686.31	2234.33
686.49	2392.03
686.68	2080.74
686.86	2211.81
687.05	2252.77
687.23	2375.64
687.42	2148.32
687.60	2041.82
687.79	2277.34
687.97	2365.40
688.16	2318.30
688.34	2209.76
688.53	1990.63
688.71	2234.33
688.90	2293.72
689.08	2199.52
689.27	2039.78
689.45	2295.77
689.64	2183.13
689.82	2170.85
690.01	2217.95
690.19	2172.89
690.38	2185.18
690.56	2297.82
690.75	2119.65
690.93	2158.56
691.12	2195.42
691.30	2242.53
691.49	2179.04
691.67	2138.08
691.86	2447.32
692.04	2160.61
692.23	2170.85
692.41	2230.24
692.60	2463.71
692.78	2406.36
692.97	2277.34
693.15	2289.63
693.34	2416.60
693.52	2297.82
693.71	2193.37
693.89	2154.46
694.08	1980.39
694.26	2271.20
694.44	2275.29
694.63	2265.05
694.81	2148.32
695.00	2133.98
695.18	2258.91
695.37	2547.67
695.55	2209.76
695.74	2191.33
695.92	2107.36
696.10	2285.53
696.29	2088.93
696.47	2170.85
696.66	2068.45
696.84	2109.41
697.03	2234.33
697.21	2416.60
697.40	3143.63
697.58	2308.06
697.76	2105.31
697.95	2133.98
698.13	2060.26
698.32	2156.51
698.50	2242.53
698.68	2232.29
698.87	2273.25
699.05	2334.68
699.24	2125.79
699.42	2068.45
699.61	2211.81
699.79	2211.81
699.97	2142.18
700.16	2115.55
700.34	2097.12
700.53	2181.09
700.71	2287.58
700.89	2256.86
701.08	2254.81
701.26	2195.42
701.45	2705.37
701.63	2080.74
701.81	2144.22
702.00	2168.80
702.18	2189.28
702.37	2244.57
702.55	2428.89
702.73	2340.83
702.92	2418.65
703.10	2541.53
703.28	2451.42
703.47	2326.49
703.65	2428.89
703.84	2367.45
704.02	2230.24
704.20	2387.93
704.39	2228.19
704.57	2226.14
704.75	2363.36
704.94	2344.92
705.12	2377.69
705.30	2519.00
705.49	4595.64
705.67	10946.39
705.86	19982.03
706.04	24129.17
706.22	27504.22
706.41	28939.85
706.59	24964.74
706.77	17501.94
706.96	14429.99
707.14	12521.28
707.32	10809.18
707.51	9789.29
707.69	7964.55
707.87	6408.09
708.06	5269.42
708.24	4134.85
708.42	3289.04
708.61	3037.14
708.79	2488.28
708.97	2461.66
709.16	2389.98
709.34	2314.20
709.52	2224.09
709.71	2238.43
709.89	2295.77
710.07	2113.50
710.26	2107.36
710.44	2211.81
710.62	2293.72
710.80	2213.85
710.99	2250.72
711.17	2303.96
711.35	2170.85
711.54	2203.61
711.72	2289.63
711.90	2275.29
712.09	2220.00
712.27	2232.29
712.45	2260.96
712.63	2129.89
712.82	2232.29
713.00	2187.23
713.18	2267.10
713.37	2258.91
713.55	2267.10
713.73	2263.01
713.91	2209.76
714.10	2170.85
714.28	2170.85
714.46	2199.52
714.65	2193.37
714.83	2181.09
715.01	2236.38
715.19	2203.61
715.38	2138.08
715.56	2314.20
715.74	2117.60
715.92	2125.79
716.11	2291.68
716.29	2002.91
716.47	2162.66
716.65	2138.08
716.84	2101.22
717.02	2263.01
717.20	2080.74
717.38	2080.74
717.57	2289.63
717.75	2127.84
717.93	2172.89
718.11	2271.20
718.30	2043.87
718.48	2207.71
718.66	2260.96
718.84	2353.12
719.03	2172.89
719.21	2113.50
719.39	2316.25
719.57	2279.39
719.75	2230.24
719.94	2119.65
720.12	2174.94
720.30	2232.29
720.48	2281.44
720.67	2129.89
720.85	2109.41
721.03	2258.91
721.21	2052.06
721.39	2265.05
721.58	2228.19
721.76	2220.00
721.94	2217.95
722.12	2269.15
722.30	2277.34
722.49	2254.81
722.67	2265.05
722.85	2189.28
723.03	2043.87
723.21	2185.18
723.40	2263.01
723.58	2367.45
723.76	2252.77
723.94	2351.07
724.12	2234.33
724.30	2389.98
724.49	2353.12
724.67	2252.77
724.85	2359.26
725.03	2144.22
725.21	2252.77
725.40	2277.34
725.58	2129.89
725.76	2299.87
725.94	2277.34
726.12	2121.70
726.30	2187.23
726.49	2101.22
726.67	2146.27
726.85	2244.57
727.03	2504.67
727.21	3596.23
727.39	5339.05
727.57	6569.88
727.76	7200.66
727.94	7647.12
728.12	7298.96
728.30	5857.19
728.48	5019.57
728.66	4448.19
728.84	4005.83
729.03	3620.81
729.21	3123.15
729.39	2781.14
729.57	2439.13
729.75	2271.20
729.93	2375.64
730.11	2187.23
730.30	2162.66
730.48	2189.28
730.66	2275.29
730.84	2340.83
731.02	2238.43
731.20	2181.09
731.38	2220.00
731.56	2113.50
731.74	2047.97
731.93	2183.13
732.11	2185.18
732.29	2088.93
732.47	2222.05
732.65	2263.01
732.83	2285.53
733.01	2250.72
733.19	2095.07
733.37	2250.72
733.56	2166.75
733.74	2170.85
733.92	2244.57
734.10	2146.27
734.28	2228.19
734.46	2039.78
734.64	2119.65
734.82	2232.29
735.00	2142.18
735.18	2138.08
735.36	2234.33
735.54	2224.09
735.73	2185.18
735.91	2248.67
736.09	2334.68
736.27	2242.53
736.45	2281.44
736.63	1976.29
736.81	2154.46
736.99	2248.67
737.17	2293.72
737.35	2170.85
737.53	2215.90
737.71	2203.61
737.89	2377.69
738.07	2160.61
738.25	2133.98
738.43	2056.16
738.61	2115.55
738.80	2133.98
738.98	2144.22
739.16	2117.60
739.34	2109.41
739.52	2324.44
739.70	2164.70
739.88	2289.63
740.06	2211.81
740.24	2043.87
740.42	2389.98
740.60	2056.16
740.78	2127.84
740.96	2070.50
741.14	2187.23
741.32	2226.14
741.50	2076.64
741.68	2363.36
741.86	2375.64
742.04	2062.30
742.22	2099.17
742.40	2228.19
742.58	2162.66
742.76	2101.22
742.94	2334.68
743.12	2064.35
743.30	2203.61
743.48	2318.30
743.66	2084.83
743.84	2174.94
744.02	2193.37
744.20	2211.81
744.38	2105.31
744.56	2140.13
744.74	2367.45
744.92	2215.90
745.10	2351.07
745.28	2205.66
745.46	2310.11
745.64	2150.37
745.82	2283.49
746.00	2240.48
746.18	2289.63
746.36	2068.45
746.54	2215.90
746.72	2314.20
746.90	2039.78
747.08	2195.42
747.26	2176.99
747.44	2250.72
747.62	2277.34
747.80	2267.10
747.98	2244.57
748.15	2224.09
748.33	2408.41
748.51	2144.22
748.69	2246.62
748.87	2113.50
749.05	2088.93
749.23	2179.04
749.41	2215.90
749.59	2131.94
749.77	2293.72
749.95	2121.70
750.13	2179.04
750.31	2242.53
750.49	2179.04
750.67	2297.82
750.85	2342.88
751.03	2148.32
751.20	2482.14
751.38	2279.39
751.56	2080.74
751.74	2142.18
751.92	2201.57
752.10	2115.55
752.28	2289.63
752.46	2119.65
752.64	2154.46
752.82	2226.14
753.00	2369.50
753.18	2158.56
753.35	2195.42
753.53	2097.12
753.71	2211.81
753.89	2162.66
754.07	2142.18
754.25	2293.72
754.43	2172.89
754.61	2064.35
754.79	2207.71
754.97	2146.27
755.14	2322.40
755.32	2064.35
755.50	2164.70
755.68	2236.38
755.86	2123.74
756.04	2140.13
756.22	2093.02
756.40	2248.67
756.57	2369.50
756.75	2179.04
756.93	2301.92
757.11	2285.53
757.29	2095.07
757.47	2174.94
757.65	1998.82
757.82	2031.58
758.00	2043.87
758.18	2129.89
758.36	2152.42
758.54	2375.64
758.72	2101.22
758.90	2308.06
759.07	2246.62
759.25	2113.50
759.43	2166.75
759.61	2045.92
759.79	3067.86
759.97	2267.10
760.15	2203.61
760.32	2215.90
760.50	2258.91
760.68	2383.84
760.86	2095.07
761.04	2334.68
761.22	2301.92
761.39	2232.29
761.57	2226.14
761.75	2144.22
761.93	2242.53
762.11	2234.33
762.28	2166.75
762.46	2154.46
762.64	2351.07
762.82	2000.87
763.00	2207.71
763.18	2281.44
763.35	2103.26
763.53	2328.54
763.71	2183.13
763.89	2154.46
764.07	2203.61
764.24	2244.57
764.42	2179.04
764.60	2148.32
764.78	2168.80
764.96	2293.72
765.13	2260.96
765.31	2199.52
765.49	2209.76
765.67	2070.50
765.84	2199.52
766.02	2131.94
766.20	2037.73
766.38	2199.52
766.56	2162.66
766.73	2207.71
766.91	2199.52
767.09	2213.85
767.27	2236.38
767.44	2150.37
767.62	2287.58
767.80	2244.57
767.98	2119.65
768.15	2172.89
768.33	2289.63
768.51	2269.15
768.69	2185.18
768.87	2248.67
769.04	2312.16
769.22	2432.99
769.40	2363.36
769.58	2424.80
769.75	2234.33
769.93	2283.49
770.11	2109.41
770.28	2129.89
770.46	2146.27
770.64	2244.57
770.82	2119.65
770.99	2131.94
771.17	2185.18
771.35	2150.37
771.53	2181.09
771.70	2144.22
771.88	2271.20
772.06	2209.76
772.23	2162.66
772.41	2217.95
772.59	2148.32
772.77	2080.74
772.94	2133.98
773.12	2252.77
773.30	2197.47
773.47	2160.61
773.65	2226.14
773.83	2293.72
774.01	2113.50
774.18	1937.38
774.36	2160.61
774.54	2043.87
774.71	2189.28
774.89	2088.93
775.07	2129.89
775.24	2144.22
775.42	2162.66
775.60	2355.16
775.78	2193.37
775.95	2037.73
776.13	2031.58
776.31	2009.06
776.48	2176.99
776.66	2338.78
776.84	2144.22
777.01	2119.65
777.19	2062.30
777.37	2115.55
777.54	2207.71
777.72	2320.35
777.90	2209.76
778.07	2156.51
778.25	2516.95
778.43	2267.10
778.60	2113.50
778.78	2211.81
778.96	2324.44
779.13	2088.93
779.31	2224.09
779.49	2240.48
779.66	2203.61
779.84	2170.85
780.01	2140.13
780.19	2088.93
780.37	2281.44
780.54	2267.10
780.72	2138.08
780.90	2136.03
781.07	2088.93
781.25	2121.70
781.43	2310.11
781.60	2140.13
781.78	2299.87
781.95	2220.00
782.13	2031.58
782.31	2166.75
782.48	2023.39
782.66	2160.61
782.83	2379.74
783.01	2277.34
783.19	2260.96
783.36	2099.17
783.54	2070.50
783.72	2260.96
783.89	2127.84
784.07	2228.19
784.24	2248.67
784.42	2346.97
784.60	2193.37
784.77	2240.48
784.95	2021.35
785.12	2176.99
785.30	2248.67
785.47	2127.84
785.65	2103.26
785.83	2133.98
786.00	2129.89
786.18	2203.61
786.35	2076.64
786.53	2121.70
786.71	2267.10
786.88	2220.00
787.06	2228.19
787.23	2154.46
787.41	2095.07
787.58	2115.55
787.76	2136.03
787.94	2234.33
788.11	2226.14
788.29	2125.79
788.46	2131.94
788.64	2007.01
788.81	2203.61
788.99	2148.32
789.16	2138.08
789.34	2183.13
789.52	2072.54
789.69	2131.94
789.87	2015.20
790.04	2154.46
790.22	2097.12
790.39	2428.89
790.57	2111.46
790.74	2142.18
790.92	2236.38
791.09	2002.91
791.27	2162.66
791.44	2299.87
791.62	2176.99
791.79	2248.67
791.97	2150.37
792.15	2473.95
792.32	2310.11
792.50	2222.05
792.67	2283.49
792.85	2209.76
793.02	2269.15
793.20	2158.56
793.37	2095.07
793.55	2224.09
793.72	2056.16
793.90	2248.67
794.07	2093.02
794.25	2164.70
794.42	2220.00
794.60	2166.75
794.77	2236.38
794.95	2197.47
795.12	2242.53
795.30	2246.62
795.47	2000.87
795.65	2404.32
795.82	2217.95
796.00	2156.51
796.17	2258.91
796.34	2158.56
796.52	2291.68
796.69	2281.44
796.87	2260.96
797.04	2191.33
797.22	2252.77
797.39	2283.49
797.57	2303.96
797.74	2209.76
797.92	2236.38
798.09	2187.23
798.27	2269.15
798.44	2113.50
798.62	2144.22
798.79	2203.61
798.96	2195.42
799.14	2170.85
799.31	2430.94
799.49	2168.80
799.66	2160.61
799.84	2250.72
800.01	2090.98
800.19	2232.29
800.36	2023.39
800.53	2209.76
800.71	2258.91
800.88	2263.01
801.06	2156.51
801.23	2140.13
801.41	2189.28
801.58	2197.47
801.75	2197.47
801.93	2250.72
802.10	2252.77
802.28	2140.13
802.45	2039.78
802.63	2283.49
802.80	2297.82
802.97	2205.66
803.15	2211.81
803.32	2195.42
803.50	2097.12
803.67	2039.78
803.84	2056.16
804.02	2201.57
804.19	2213.85
804.37	1994.72
804.54	2029.54
804.71	2158.56
804.89	2140.13
805.06	2068.45
805.24	2084.83
805.41	2039.78
805.58	2115.55
805.76	2375.64
805.93	2224.09
806.10	2256.86
806.28	2289.63
806.45	2220.00
806.63	2222.05
806.80	2213.85
806.97	2228.19
807.15	2263.01
807.32	2187.23
807.49	2209.76
807.67	2015.20
807.84	2166.75
808.01	1990.63
808.19	2418.65
808.36	2375.64
808.54	2185.18
808.71	2127.84
808.88	2232.29
809.06	2260.96
809.23	2308.06
809.40	2093.02
809.58	2207.71
809.75	2125.79
809.92	2117.60
810.10	2383.84
810.27	2170.85
810.44	2185.18
810.62	2244.57
810.79	2160.61
810.96	2074.59
811.14	2095.07
811.31	2260.96
811.48	2244.57
811.66	2113.50
811.83	2324.44
812.00	2168.80
812.18	2228.19
812.35	2326.49
812.52	2109.41
812.69	2146.27
812.87	2136.03
813.04	2185.18
813.21	2215.90
813.39	2162.66
813.56	2033.63
813.73	2303.96
813.91	2113.50
814.08	2172.89
814.25	2172.89
814.42	2080.74
814.60	2125.79
814.77	2156.51
814.94	2160.61
815.12	2170.85
815.29	2392.03
815.46	2129.89
815.63	2213.85
815.81	2236.38
815.98	2115.55
816.15	2140.13
816.33	2179.04
816.50	2086.88
816.67	2140.13
816.84	2252.77
817.02	2166.75
817.19	2187.23
817.36	2203.61
817.53	2228.19
817.71	2119.65
817.88	2222.05
818.05	2168.80
818.22	2211.81
818.40	2342.88
818.57	2056.16
818.74	2220.00
818.91	2181.09
819.09	2265.05
819.26	2179.04
819.43	2123.74
819.60	2095.07
819.78	2215.90
819.95	2289.63
820.12	2056.16
820.29	2314.20
820.47	2326.49
820.64	2086.88
820.81	2127.84
820.98	2142.18
821.15	2160.61
821.33	2234.33
821.50	2023.39
821.67	2283.49
821.84	2211.81
822.02	2201.57
822.19	2314.20
822.36	2179.04
822.53	2088.93
822.70	2047.97
822.88	2170.85
823.05	2316.25
823.22	2166.75
823.39	2170.85
823.56	2195.42
823.74	2314.20
823.91	2162.66
824.08	2107.36
824.25	2084.83
824.42	2373.60
824.60	2103.26
824.77	2185.18
824.94	2117.60
825.11	2228.19
825.28	1986.53
825.45	2191.33
825.63	2232.29
825.80	1984.48
825.97	2213.85
826.14	2193.37
826.31	2047.97
826.48	2273.25
826.66	2076.64
826.83	2205.66
827.00	2136.03
827.17	2090.98
827.34	2224.09
827.51	2088.93
827.69	2220.00
827.86	2076.64
828.03	2125.79
828.20	2220.00
828.37	2070.50
828.54	2283.49
828.71	2099.17
828.89	2322.40
829.06	2220.00
829.23	2299.87
829.40	2123.74
829.57	2133.98
829.74	2236.38
829.91	2166.75
830.09	2113.50
830.26	2187.23
830.43	2326.49
830.60	2170.85
830.77	2269.15
830.94	2232.29
831.11	2285.53
831.28	2121.70
831.46	2254.81
831.63	2099.17
831.80	2285.53
831.97	2105.31
832.14	2119.65
832.31	2197.47
832.48	2187.23
832.65	2340.83
832.82	2176.99
832.99	2236.38
833.17	2136.03
833.34	2289.63
833.51	2256.86
833.68	2000.87
833.85	2349.02
834.02	2127.84
834.19	2080.74
834.36	2095.07
834.53	2197.47
834.70	2236.38
834.87	2203.61
835.04	2109.41
835.22	2107.36
835.39	2162.66
835.56	2084.83
835.73	2133.98
835.90	2377.69
836.07	2076.64
836.24	2248.67
836.41	2133.98
836.58	2123.74
836.75	2207.71
836.92	2160.61
837.09	2090.98
837.26	2228.19
837.43	2230.24
837.60	2220.00
837.77	2123.74
837.94	2183.13
838.12	2303.96
838.29	2084.83
838.46	1986.53
838.63	2129.89
838.80	2344.92
838.97	2226.14
839.14	2146.27
839.31	2127.84
839.48	2291.68
839.65	2195.42
839.82	2228.19
839.99	2250.72
840.16	2220.00
840.33	2111.46
840.50	2170.85
840.67	2058.21
840.84	1974.24
841.01	2062.30
841.18	2093.02
841.35	2242.53
841.52	2258.91
841.69	2330.59
841.86	2119.65
842.03	2215.90
842.20	2281.44
842.37	2158.56
842.54	2154.46
842.71	2224.09
842.88	2052.06
843.05	2211.81
843.22	2099.17
843.39	2254.81
843.56	2080.74
843.73	2246.62
843.90	2117.60
844.07	2162.66
844.24	2267.10
844.41	2234.33
844.58	2211.81
844.75	2191.33
844.92	2236.38
845.09	2097.12
845.26	2078.69
845.43	2275.29
845.60	2136.03
845.77	2211.81
845.94	2093.02
846.10	2183.13
846.27	2056.16
846.44	2080.74
846.61	2107.36
846.78	2236.38
846.95	2230.24
847.12	2113.50
847.29	2209.76
847.46	2138.08
847.63	2334.68
847.80	2082.78
847.97	2144.22
848.14	2441.18
848.31	2234.33
848.48	2127.84
848.65	2256.86
848.82	2039.78
848.98	2349.02
849.15	2183.13
849.32	2203.61
849.49	2265.05
849.66	2125.79
849.83	2170.85
850.00	2136.03
850.17	2275.29
850.34	2199.52
850.51	2099.17
850.68	2146.27
850.85	2318.30
851.01	2258.91
851.18	2162.66
851.35	2148.32
851.52	2228.19
851.69	2297.82
851.86	2013.15
852.03	2082.78
852.20	2258.91
852.37	2215.90
852.53	2007.01
852.70	2103.26
852.87	2170.85
853.04	2203.61
853.21	2187.23
853.38	2213.85
853.55	2369.50
853.72	2316.25
853.89	2105.31
854.05	2125.79
854.22	2099.17
854.39	2125.79
854.56	2236.38
854.73	2291.68
854.90	2117.60
855.07	2183.13
855.23	2140.13
855.40	2256.86
855.57	2136.03
855.74	2056.16
855.91	2375.64
856.08	2041.82
856.25	2119.65
856.41	2152.42
856.58	2146.27
856.75	2133.98
856.92	2080.74
857.09	2318.30
857.26	2088.93
857.42	2174.94
857.59	2293.72
857.76	2105.31
857.93	2176.99
858.10	2138.08
858.27	2056.16
858.43	2150.37
858.60	2080.74
858.77	2050.02
858.94	2144.22
859.11	2203.61
859.27	2129.89
859.44	2164.70
859.61	2392.03
859.78	2252.77
859.95	2152.42
860.12	2138.08
860.28	2400.22
860.45	2400.22
860.62	2111.46
860.79	2189.28
860.95	2179.04
861.12	2203.61
861.29	2133.98
861.46	2088.93
861.63	2179.04
861.79	2201.57
861.96	2033.63
862.13	2080.74
862.30	2342.88
862.47	2080.74
862.63	2115.55
862.80	2217.95
862.97	2283.49
863.14	2226.14
863.30	2162.66
863.47	2103.26
863.64	2373.60
863.81	2236.38
863.97	2056.16
864.14	2230.24
864.31	2121.70
864.48	2215.90
864.65	2170.85
864.81	2195.42
864.98	2201.57
865.15	2357.21
865.32	2160.61
865.48	2199.52
865.65	2334.68
865.82	2105.31
865.98	2193.37
866.15	2185.18
866.32	2258.91
866.49	2224.09
866.65	2265.05
866.82	2074.59
866.99	2129.89
867.16	2131.94
867.32	2103.26
867.49	2138.08
867.66	2176.99
867.83	2107.36
867.99	2023.39
868.16	2242.53
868.33	2056.16
868.49	2172.89
868.66	2129.89
868.83	2215.90
868.99	2240.48
869.16	2297.82
869.33	2260.96
869.50	2205.66
869.66	2086.88
869.83	2136.03
870.00	2117.60
870.16	2281.44
870.33	2201.57
870.50	2236.38
870.66	2152.42
870.83	2207.71
871.00	2191.33
871.17	2195.42
871.33	2164.70
871.50	2078.69
871.67	2193.37
871.83	2062.30
872.00	2205.66
872.17	2191.33
872.33	2445.27
872.50	2318.30
872.67	2158.56
872.83	2103.26
873.00	2297.82
873.17	2193.37
873.33	2246.62
873.50	2211.81
873.67	2144.22
873.83	2138.08
874.00	2187.23
874.16	2174.94
874.33	2207.71
874.50	2058.21
874.66	2136.03
874.83	2140.13
875.00	2291.68
875.16	2293.72
875.33	2150.37
875.50	1978.34
875.66	2136.03
875.83	2197.47
875.99	2234.33
876.16	2179.04
876.33	2050.02
876.49	2222.05
876.66	2199.52
876.83	2168.80
876.99	2064.35
877.16	2150.37
877.32	2072.54
877.49	2123.74
877.66	2195.42
877.82	2367.45
877.99	2189.28
878.15	2230.24
878.32	2220.00
878.49	2252.77
878.65	2176.99
878.82	2318.30
878.98	2144.22
879.15	2236.38
879.32	2179.04
879.48	2103.26
879.65	2191.33
879.81	2164.70
879.98	2138.08
880.15	2107.36
880.31	2236.38
880.48	2064.35
880.64	2310.11
880.81	2131.94
880.97	2371.55
881.14	2316.25
881.31	2060.26
881.47	2371.55
881.64	2162.66
881.80	2019.30
881.97	2217.95
882.13	2181.09
882.30	2156.51
882.47	2121.70
882.63	2068.45
882.80	2088.93
882.96	2068.45
883.13	2271.20
883.29	2146.27
883.46	2211.81
883.62	2389.98
883.79	2150.37
883.95	2207.71
884.12	2082.78
884.29	2351.07
884.45	2156.51
884.62	2240.48
884.78	2093.02
884.95	2320.35
885.11	2168.80
885.28	2199.52
885.44	2121.70
885.61	2275.29
885.77	2297.82
885.94	2203.61
886.10	2103.26
886.27	2166.75
886.43	2338.78
886.60	2312.16
886.76	2105.31
886.93	2113.50
887.09	2199.52
887.26	2082.78
887.42	2195.42
887.59	2346.97
887.75	2400.22
887.92	2260.96
888.08	2293.72
888.25	2367.45
888.41	2297.82
888.58	2152.42
888.74	2101.22
888.91	2140.13
>>>>>End Processed Spectral Data<<<<<
