SpectraSuite Data File
++++++++++++++++++++++++++++++++++++
Date: Thu May 05 12:35:40 CEST 2016
User: root
Dark Spectrum Present: No
Reference Spectrum Present: No
Number of Sampled Component Spectra: 1
Spectrometers: USB4C02835
Integration Time (usec): 100000 (USB4C02835)
Spectra Averaged: 1 (USB4C02835)
Boxcar Smoothing: 0 (USB4C02835)
Correct for Electrical Dark: No (USB4C02835)
Strobe/Lamp Enabled: No (USB4C02835)
Correct for Detector Non-linearity: No (USB4C02835)
Correct for Stray Light: No (USB4C02835)
Number of Pixels in Processed Spectrum: 3648
>>>>>Begin Processed Spectral Data<<<<<
177.47	1769.44
177.69	1769.44
177.91	1769.44
178.13	1765.35
178.36	1775.59
178.58	2117.60
178.80	2258.91
179.02	2064.35
179.24	2111.46
179.46	2154.46
179.68	2195.42
179.90	2174.94
180.13	2215.90
180.35	2082.78
180.57	2136.03
180.79	2211.81
181.01	2234.33
181.23	2146.27
181.45	2168.80
181.67	2254.81
181.90	2289.63
182.12	2086.88
182.34	2099.17
182.56	2281.44
182.78	2183.13
183.00	2133.98
183.22	2125.79
183.44	2023.39
183.66	2414.56
183.89	2197.47
184.11	2203.61
184.33	2310.11
184.55	2281.44
184.77	2146.27
184.99	2150.37
185.21	2119.65
185.43	2420.70
185.65	2070.50
185.87	2158.56
186.10	2371.55
186.32	2340.83
186.54	2193.37
186.76	2256.86
186.98	2342.88
187.20	2187.23
187.42	2193.37
187.64	2199.52
187.86	2189.28
188.08	2258.91
188.30	2111.46
188.52	2138.08
188.75	2322.40
188.97	2271.20
189.19	2111.46
189.41	2152.42
189.63	2209.76
189.85	2189.28
190.07	1970.15
190.29	2002.91
190.51	2293.72
190.73	2101.22
190.95	2238.43
191.17	2121.70
191.39	2013.15
191.61	2252.77
191.84	2062.30
192.06	2131.94
192.28	1980.39
192.50	2473.95
192.72	2224.09
192.94	2082.78
193.16	2256.86
193.38	2222.05
193.60	2054.11
193.82	2093.02
194.04	2267.10
194.26	2189.28
194.48	2088.93
194.70	2191.33
194.92	2152.42
195.14	2250.72
195.36	2127.84
195.58	2152.42
195.80	2162.66
196.02	2193.37
196.24	2164.70
196.46	2209.76
196.69	2152.42
196.91	2437.08
197.13	2011.11
197.35	2080.74
197.57	2246.62
197.79	2244.57
198.01	2285.53
198.23	2236.38
198.45	2203.61
198.67	2084.83
198.89	2160.61
199.11	2176.99
199.33	2170.85
199.55	1992.67
199.77	2076.64
199.99	2289.63
200.21	2080.74
200.43	2213.85
200.65	2103.26
200.87	2007.01
201.09	2187.23
201.31	2129.89
201.53	2174.94
201.75	2119.65
201.97	2301.92
202.19	2152.42
202.41	2201.57
202.63	2281.44
202.85	2238.43
203.07	2203.61
203.29	2070.50
203.51	2072.54
203.73	2109.41
203.95	2539.48
204.17	2162.66
204.39	2176.99
204.61	2207.71
204.83	2086.88
205.05	2195.42
205.27	2240.48
205.49	2465.75
205.71	2179.04
205.93	2095.07
206.15	2162.66
206.37	2193.37
206.59	2074.59
206.81	1988.58
207.03	2080.74
207.25	2015.20
207.47	2248.67
207.69	2131.94
207.91	2346.97
208.13	2326.49
208.34	2111.46
208.56	2011.11
208.78	2076.64
209.00	2129.89
209.22	2172.89
209.44	2086.88
209.66	2064.35
209.88	2123.74
210.10	2142.18
210.32	2084.83
210.54	2133.98
210.76	2201.57
210.98	2191.33
211.20	2007.01
211.42	2070.50
211.64	2322.40
211.86	2215.90
212.08	2246.62
212.30	2236.38
212.52	2181.09
212.74	2285.53
212.96	2179.04
213.17	2166.75
213.39	2301.92
213.61	2326.49
213.83	2097.12
214.05	2152.42
214.27	2275.29
214.49	2076.64
214.71	2072.54
214.93	2250.72
215.15	2150.37
215.37	2293.72
215.59	1990.63
215.81	2222.05
216.03	2379.74
216.24	2199.52
216.46	2183.13
216.68	2158.56
216.90	2162.66
217.12	2265.05
217.34	2099.17
217.56	2191.33
217.78	2297.82
218.00	2324.44
218.22	2129.89
218.44	2211.81
218.66	2211.81
218.87	2355.16
219.09	2146.27
219.31	2119.65
219.53	2193.37
219.75	2191.33
219.97	2129.89
220.19	2103.26
220.41	2185.18
220.63	2351.07
220.85	2164.70
221.06	2125.79
221.28	2375.64
221.50	2242.53
221.72	2193.37
221.94	2136.03
222.16	2133.98
222.38	2238.43
222.60	2160.61
222.82	2084.83
223.03	2277.34
223.25	2023.39
223.47	2215.90
223.69	2279.39
223.91	2211.81
224.13	2248.67
224.35	2056.16
224.57	2248.67
224.78	2181.09
225.00	2072.54
225.22	2127.84
225.44	2131.94
225.66	2283.49
225.88	2086.88
226.10	2211.81
226.32	2121.70
226.53	2387.93
226.75	2162.66
226.97	2070.50
227.19	2172.89
227.41	2209.76
227.63	2152.42
227.85	2021.35
228.06	2144.22
228.28	2242.53
228.50	2256.86
228.72	2021.35
228.94	2142.18
229.16	2062.30
229.37	2109.41
229.59	2105.31
229.81	2220.00
230.03	2150.37
230.25	2101.22
230.47	2023.39
230.69	2123.74
230.90	2293.72
231.12	2199.52
231.34	2187.23
231.56	2281.44
231.78	2052.06
232.00	2220.00
232.21	2179.04
232.43	2113.50
232.65	2004.96
232.87	2152.42
233.09	2070.50
233.30	2183.13
233.52	2320.35
233.74	2168.80
233.96	2117.60
234.18	2138.08
234.40	2127.84
234.61	2422.75
234.83	2054.11
235.05	2054.11
235.27	2490.33
235.49	2267.10
235.70	2101.22
235.92	2256.86
236.14	2224.09
236.36	2367.45
236.58	2023.39
236.79	2244.57
237.01	2078.69
237.23	2113.50
237.45	2283.49
237.67	2127.84
237.88	2258.91
238.10	2400.22
238.32	1998.82
238.54	2146.27
238.76	2203.61
238.97	2078.69
239.19	2086.88
239.41	2168.80
239.63	2310.11
239.85	2088.93
240.06	2195.42
240.28	2158.56
240.50	2299.87
240.72	2213.85
240.93	2179.04
241.15	2291.68
241.37	2183.13
241.59	2283.49
241.81	2154.46
242.02	2129.89
242.24	2226.14
242.46	2254.81
242.68	2078.69
242.89	2138.08
243.11	2193.37
243.33	2142.18
243.55	2183.13
243.76	2260.96
243.98	2121.70
244.20	2183.13
244.42	2191.33
244.64	2150.37
244.85	2062.30
245.07	2047.97
245.29	2201.57
245.51	2168.80
245.72	2256.86
245.94	2293.72
246.16	2041.82
246.38	2133.98
246.59	2078.69
246.81	2117.60
247.03	2162.66
247.24	2068.45
247.46	2123.74
247.68	2187.23
247.90	2084.83
248.11	2133.98
248.33	2267.10
248.55	2267.10
248.77	2168.80
248.98	2164.70
249.20	2324.44
249.42	2176.99
249.64	2152.42
249.85	2080.74
250.07	2187.23
250.29	2279.39
250.50	2142.18
250.72	2039.78
250.94	2195.42
251.16	2432.99
251.37	2199.52
251.59	2234.33
251.81	2263.01
252.02	2279.39
252.24	2007.01
252.46	2248.67
252.68	2101.22
252.89	2070.50
253.11	2052.06
253.33	2295.77
253.54	2326.49
253.76	2103.26
253.98	2121.70
254.20	2150.37
254.41	2099.17
254.63	2183.13
254.85	1959.91
255.06	2240.48
255.28	2138.08
255.50	2162.66
255.71	2150.37
255.93	1988.58
256.15	2209.76
256.36	2201.57
256.58	2140.13
256.80	2154.46
257.02	2226.14
257.23	2207.71
257.45	2119.65
257.67	2201.57
257.88	2174.94
258.10	2234.33
258.32	2146.27
258.53	2203.61
258.75	2379.74
258.97	2148.32
259.18	2105.31
259.40	2162.66
259.62	2336.73
259.83	2263.01
260.05	2183.13
260.27	2574.30
260.48	2318.30
260.70	1992.67
260.92	2133.98
261.13	2179.04
261.35	2203.61
261.57	2238.43
261.78	2090.98
262.00	2144.22
262.22	2279.39
262.43	2162.66
262.65	2088.93
262.86	2068.45
263.08	2369.50
263.30	2289.63
263.51	2035.68
263.73	2127.84
263.95	2285.53
264.16	2136.03
264.38	2088.93
264.60	2109.41
264.81	2080.74
265.03	2285.53
265.25	2285.53
265.46	2072.54
265.68	2334.68
265.89	2211.81
266.11	2031.58
266.33	2203.61
266.54	2324.44
266.76	2199.52
266.98	2146.27
267.19	2207.71
267.41	2236.38
267.62	2207.71
267.84	2033.63
268.06	2176.99
268.27	2195.42
268.49	2322.40
268.70	2170.85
268.92	2138.08
269.14	2129.89
269.35	2107.36
269.57	2097.12
269.79	2168.80
270.00	2082.78
270.22	2258.91
270.43	2031.58
270.65	2045.92
270.87	2189.28
271.08	2238.43
271.30	2203.61
271.51	2166.75
271.73	2224.09
271.95	2293.72
272.16	2103.26
272.38	2166.75
272.59	2095.07
272.81	2146.27
273.02	2093.02
273.24	2197.47
273.46	2291.68
273.67	2117.60
273.89	2074.59
274.10	2107.36
274.32	2310.11
274.54	2289.63
274.75	2236.38
274.97	2103.26
275.18	2306.01
275.40	2240.48
275.61	2213.85
275.83	2246.62
276.05	2037.73
276.26	2220.00
276.48	2181.09
276.69	2109.41
276.91	2166.75
277.12	2301.92
277.34	2193.37
277.55	2310.11
277.77	2185.18
277.99	2164.70
278.20	2138.08
278.42	2029.54
278.63	2064.35
278.85	2099.17
279.06	2019.30
279.28	2244.57
279.49	2285.53
279.71	2226.14
279.93	2203.61
280.14	2207.71
280.36	2076.64
280.57	2287.58
280.79	2226.14
281.00	2045.92
281.22	2138.08
281.43	2285.53
281.65	1959.91
281.86	2113.50
282.08	2232.29
282.29	2375.64
282.51	2045.92
282.73	2093.02
282.94	2037.73
283.16	2224.09
283.37	2340.83
283.59	2183.13
283.80	2195.42
284.02	2138.08
284.23	2293.72
284.45	2162.66
284.66	2045.92
284.88	2164.70
285.09	2174.94
285.31	2254.81
285.52	2299.87
285.74	2011.11
285.95	2291.68
286.17	2164.70
286.38	2283.49
286.60	2187.23
286.81	2136.03
287.03	2174.94
287.24	2185.18
287.46	2240.48
287.67	2189.28
287.89	2267.10
288.10	2205.66
288.32	2179.04
288.53	2228.19
288.75	2150.37
288.96	2295.77
289.18	2152.42
289.39	2138.08
289.61	2267.10
289.82	2412.51
290.04	2359.26
290.25	2121.70
290.47	2181.09
290.68	2166.75
290.90	2279.39
291.11	2031.58
291.33	2275.29
291.54	2111.46
291.76	2127.84
291.97	2244.57
292.18	2183.13
292.40	2193.37
292.61	2142.18
292.83	2285.53
293.04	2211.81
293.26	2228.19
293.47	2148.32
293.69	2056.16
293.90	2150.37
294.12	2306.01
294.33	2179.04
294.55	2142.18
294.76	2234.33
294.97	2277.34
295.19	2367.45
295.40	2199.52
295.62	2267.10
295.83	2277.34
296.05	2162.66
296.26	2265.05
296.48	2105.31
296.69	2201.57
296.90	2146.27
297.12	2224.09
297.33	2244.57
297.55	2150.37
297.76	2228.19
297.98	2199.52
298.19	2228.19
298.41	2226.14
298.62	2107.36
298.83	2314.20
299.05	2172.89
299.26	2127.84
299.48	2062.30
299.69	2193.37
299.90	2179.04
300.12	2045.92
300.33	2189.28
300.55	2168.80
300.76	2236.38
300.98	2146.27
301.19	2246.62
301.40	2170.85
301.62	2199.52
301.83	2226.14
302.05	2179.04
302.26	2166.75
302.47	2176.99
302.69	2076.64
302.90	2211.81
303.12	2070.50
303.33	2148.32
303.54	2295.77
303.76	2185.18
303.97	2228.19
304.19	2277.34
304.40	2074.59
304.61	2232.29
304.83	2379.74
305.04	2232.29
305.26	2297.82
305.47	2191.33
305.68	2082.78
305.90	1918.95
306.11	2318.30
306.33	2162.66
306.54	2111.46
306.75	2119.65
306.97	2185.18
307.18	2084.83
307.39	2142.18
307.61	2312.16
307.82	2142.18
308.04	2269.15
308.25	2060.26
308.46	2209.76
308.68	2170.85
308.89	2156.51
309.10	2322.40
309.32	2156.51
309.53	2306.01
309.74	2246.62
309.96	2123.74
310.17	2254.81
310.39	2129.89
310.60	2322.40
310.81	2129.89
311.03	2129.89
311.24	2234.33
311.45	2187.23
311.67	2275.29
311.88	2215.90
312.09	2226.14
312.31	2103.26
312.52	2193.37
312.73	2119.65
312.95	2152.42
313.16	2129.89
313.37	2246.62
313.59	2263.01
313.80	2250.72
314.01	2373.60
314.23	2164.70
314.44	2054.11
314.65	2047.97
314.87	2113.50
315.08	2146.27
315.29	2150.37
315.51	2093.02
315.72	2052.06
315.93	2271.20
316.15	2301.92
316.36	2097.12
316.57	2199.52
316.79	2234.33
317.00	2117.60
317.21	2355.16
317.43	2133.98
317.64	2160.61
317.85	2138.08
318.07	2162.66
318.28	2201.57
318.49	2314.20
318.70	2428.89
318.92	2445.27
319.13	2414.56
319.34	2418.65
319.56	2324.44
319.77	2279.39
319.98	2340.83
320.20	2342.88
320.41	2217.95
320.62	2228.19
320.83	2160.61
321.05	2389.98
321.26	2193.37
321.47	2127.84
321.69	2432.99
321.90	2101.22
322.11	2138.08
322.32	2293.72
322.54	2334.68
322.75	2136.03
322.96	2494.43
323.18	2031.58
323.39	2007.01
323.60	2129.89
323.81	2265.05
324.03	2117.60
324.24	2205.66
324.45	2172.89
324.66	2086.88
324.88	2277.34
325.09	2322.40
325.30	2187.23
325.52	2211.81
325.73	2187.23
325.94	2080.74
326.15	2070.50
326.37	2117.60
326.58	2265.05
326.79	2326.49
327.00	2095.07
327.22	2162.66
327.43	2086.88
327.64	2076.64
327.85	2172.89
328.07	2189.28
328.28	2369.50
328.49	2146.27
328.70	2195.42
328.92	2197.47
329.13	2158.56
329.34	2133.98
329.55	2459.61
329.76	2187.23
329.98	2185.18
330.19	2322.40
330.40	2258.91
330.61	2166.75
330.83	2269.15
331.04	2129.89
331.25	2220.00
331.46	2224.09
331.68	1984.48
331.89	2332.64
332.10	2187.23
332.31	2041.82
332.52	2166.75
332.74	2316.25
332.95	2066.40
333.16	2162.66
333.37	2277.34
333.58	2179.04
333.80	2209.76
334.01	1994.72
334.22	2176.99
334.43	2138.08
334.64	2195.42
334.86	2152.42
335.07	2068.45
335.28	2369.50
335.49	2054.11
335.70	2183.13
335.92	2336.73
336.13	2432.99
336.34	2246.62
336.55	2215.90
336.76	2222.05
336.98	2052.06
337.19	2111.46
337.40	2316.25
337.61	2381.79
337.82	2168.80
338.04	2283.49
338.25	2068.45
338.46	2217.95
338.67	2166.75
338.88	2129.89
339.09	2127.84
339.31	2240.48
339.52	2115.55
339.73	2154.46
339.94	2183.13
340.15	2267.10
340.36	2133.98
340.58	2179.04
340.79	2101.22
341.00	2234.33
341.21	2107.36
341.42	2291.68
341.63	2170.85
341.85	2263.01
342.06	2244.57
342.27	2095.07
342.48	2179.04
342.69	2136.03
342.90	2226.14
343.12	2242.53
343.33	2144.22
343.54	2258.91
343.75	2340.83
343.96	2133.98
344.17	2084.83
344.38	2164.70
344.60	2082.78
344.81	2088.93
345.02	2291.68
345.23	2267.10
345.44	2502.62
345.65	2252.77
345.86	2265.05
346.07	2209.76
346.29	2273.25
346.50	2203.61
346.71	2228.19
346.92	2244.57
347.13	2400.22
347.34	2224.09
347.55	2211.81
347.76	2146.27
347.98	2095.07
348.19	2119.65
348.40	2314.20
348.61	2131.94
348.82	2334.68
349.03	2220.00
349.24	2060.26
349.45	2416.60
349.66	2072.54
349.88	2191.33
350.09	2170.85
350.30	2314.20
350.51	2310.11
350.72	2230.24
350.93	2215.90
351.14	2082.78
351.35	2238.43
351.56	2152.42
351.77	2168.80
351.99	2236.38
352.20	2277.34
352.41	2234.33
352.62	2009.06
352.83	2195.42
353.04	2220.00
353.25	2097.12
353.46	2236.38
353.67	2314.20
353.88	2031.58
354.09	2156.51
354.30	2183.13
354.52	2279.39
354.73	2236.38
354.94	2097.12
355.15	2228.19
355.36	2424.80
355.57	2160.61
355.78	2160.61
355.99	2193.37
356.20	2217.95
356.41	2346.97
356.62	2195.42
356.83	2154.46
357.04	2351.07
357.25	1980.39
357.46	2146.27
357.68	2041.82
357.89	2113.50
358.10	2183.13
358.31	2211.81
358.52	2131.94
358.73	2170.85
358.94	2045.92
359.15	2047.97
359.36	2318.30
359.57	2125.79
359.78	2103.26
359.99	2224.09
360.20	2101.22
360.41	2187.23
360.62	2234.33
360.83	2250.72
361.04	2205.66
361.25	2234.33
361.46	2367.45
361.67	2310.11
361.88	2293.72
362.09	2285.53
362.30	2252.77
362.51	2101.22
362.72	2213.85
362.93	2273.25
363.14	2271.20
363.35	2185.18
363.56	2117.60
363.78	2299.87
363.99	2295.77
364.20	2144.22
364.41	2127.84
364.62	2418.65
364.83	2246.62
365.04	2187.23
365.25	2234.33
365.46	2365.40
365.67	2166.75
365.88	2195.42
366.09	2129.89
366.30	2099.17
366.51	2152.42
366.72	2070.50
366.93	2187.23
367.14	2217.95
367.35	2402.27
367.56	2162.66
367.77	2312.16
367.98	2230.24
368.18	2162.66
368.39	2185.18
368.60	2136.03
368.81	2260.96
369.02	2260.96
369.23	2101.22
369.44	2133.98
369.65	2121.70
369.86	2238.43
370.07	2213.85
370.28	2129.89
370.49	2193.37
370.70	2236.38
370.91	2056.16
371.12	2080.74
371.33	2318.30
371.54	2193.37
371.75	2326.49
371.96	2002.91
372.17	2191.33
372.38	2240.48
372.59	2181.09
372.80	2176.99
373.01	2205.66
373.22	2154.46
373.43	2242.53
373.64	2117.60
373.85	2318.30
374.06	2330.59
374.26	2285.53
374.47	2222.05
374.68	2299.87
374.89	2215.90
375.10	2121.70
375.31	2281.44
375.52	2138.08
375.73	2211.81
375.94	2080.74
376.15	2310.11
376.36	2154.46
376.57	2170.85
376.78	2062.30
376.99	2158.56
377.20	2361.31
377.40	2121.70
377.61	2334.68
377.82	2031.58
378.03	2252.77
378.24	2191.33
378.45	2113.50
378.66	2205.66
378.87	2068.45
379.08	2162.66
379.29	2111.46
379.50	2273.25
379.71	2181.09
379.91	2250.72
380.12	2168.80
380.33	2164.70
380.54	2185.18
380.75	2113.50
380.96	2170.85
381.17	2199.52
381.38	2234.33
381.59	2236.38
381.80	2271.20
382.00	2340.83
382.21	2306.01
382.42	2383.84
382.63	2430.94
382.84	2265.05
383.05	2297.82
383.26	2359.26
383.47	2172.89
383.68	2260.96
383.88	2248.67
384.09	2197.47
384.30	2346.97
384.51	2203.61
384.72	2131.94
384.93	2004.96
385.14	2152.42
385.35	2326.49
385.55	2056.16
385.76	2260.96
385.97	2240.48
386.18	2088.93
386.39	2123.74
386.60	2136.03
386.81	2117.60
387.02	2146.27
387.22	2080.74
387.43	2322.40
387.64	2306.01
387.85	2367.45
388.06	2447.32
388.27	4026.31
388.48	8470.40
388.68	12042.06
388.89	14505.76
389.10	15501.08
389.31	14253.86
389.52	11249.49
389.73	10016.62
389.93	8968.06
390.14	8060.80
390.35	7294.86
390.56	6479.77
390.77	5265.33
390.98	4122.56
391.18	3198.93
391.39	2684.89
391.60	2346.97
391.81	2375.64
392.02	2160.61
392.23	2420.70
392.43	2275.29
392.64	2363.36
392.85	2310.11
393.06	2455.51
393.27	2220.00
393.47	2142.18
393.68	2191.33
393.89	2246.62
394.10	2310.11
394.31	2189.28
394.52	2107.36
394.72	2166.75
394.93	2263.01
395.14	2138.08
395.35	2209.76
395.56	2179.04
395.76	2201.57
395.97	2330.59
396.18	2297.82
396.39	2342.88
396.60	2625.50
396.80	2555.86
397.01	2437.08
397.22	2502.62
397.43	2369.50
397.64	2168.80
397.84	2263.01
398.05	2486.23
398.26	2224.09
398.47	2256.86
398.67	2267.10
398.88	2230.24
399.09	2279.39
399.30	2215.90
399.51	2263.01
399.71	2086.88
399.92	2133.98
400.13	2236.38
400.34	2191.33
400.54	2244.57
400.75	2371.55
400.96	2232.29
401.17	2330.59
401.37	2220.00
401.58	2162.66
401.79	2172.89
402.00	2361.31
402.21	2547.67
402.41	2533.34
402.62	2582.49
402.83	2725.85
403.04	2580.44
403.24	2783.19
403.45	2326.49
403.66	2529.24
403.87	2439.13
404.07	2441.18
404.28	2422.75
404.49	2373.60
404.70	2258.91
404.90	2301.92
405.11	2234.33
405.32	2187.23
405.52	2238.43
405.73	2168.80
405.94	2113.50
406.15	2195.42
406.35	2326.49
406.56	2281.44
406.77	2250.72
406.98	2222.05
407.18	2154.46
407.39	2355.16
407.60	2179.04
407.80	2291.68
408.01	2211.81
408.22	2217.95
408.43	2090.98
408.63	2281.44
408.84	2314.20
409.05	2275.29
409.25	2129.89
409.46	2146.27
409.67	2166.75
409.88	2183.13
410.08	2217.95
410.29	2142.18
410.50	2324.44
410.70	2199.52
410.91	2136.03
411.12	2254.81
411.32	2193.37
411.53	2195.42
411.74	2277.34
411.95	2301.92
412.15	2318.30
412.36	2357.21
412.57	2291.68
412.77	2342.88
412.98	2236.38
413.19	2152.42
413.39	2195.42
413.60	2254.81
413.81	2299.87
414.01	2150.37
414.22	2256.86
414.43	2250.72
414.63	2152.42
414.84	2187.23
415.05	2220.00
415.25	2109.41
415.46	2334.68
415.67	2146.27
415.87	2203.61
416.08	2166.75
416.29	2125.79
416.49	2271.20
416.70	2189.28
416.91	2121.70
417.11	2217.95
417.32	2236.38
417.53	2287.58
417.73	2254.81
417.94	2211.81
418.15	2191.33
418.35	2179.04
418.56	2168.80
418.77	2383.84
418.97	2187.23
419.18	2164.70
419.38	1957.86
419.59	2160.61
419.80	2256.86
420.00	2193.37
420.21	2316.25
420.42	2326.49
420.62	2207.71
420.83	2133.98
421.04	2191.33
421.24	2164.70
421.45	2267.10
421.65	2252.77
421.86	2138.08
422.07	2295.77
422.27	2271.20
422.48	2258.91
422.69	2121.70
422.89	2197.47
423.10	2146.27
423.30	2076.64
423.51	2230.24
423.72	2265.05
423.92	2215.90
424.13	2052.06
424.33	2267.10
424.54	2281.44
424.75	2252.77
424.95	2375.64
425.16	2224.09
425.36	2101.22
425.57	2314.20
425.78	2236.38
425.98	2246.62
426.19	2193.37
426.39	2064.35
426.60	2201.57
426.81	2340.83
427.01	2220.00
427.22	2109.41
427.42	2000.87
427.63	2082.78
427.83	2287.58
428.04	2291.68
428.25	2398.17
428.45	2283.49
428.66	2326.49
428.86	2123.74
429.07	2162.66
429.28	2203.61
429.48	2172.89
429.69	2074.59
429.89	2228.19
430.10	2084.83
430.30	2244.57
430.51	2320.35
430.71	2101.22
430.92	2174.94
431.13	2162.66
431.33	2248.67
431.54	2265.05
431.74	2316.25
431.95	2428.89
432.15	2119.65
432.36	2203.61
432.56	2258.91
432.77	2357.21
432.98	2328.54
433.18	2211.81
433.39	2160.61
433.59	2181.09
433.80	2308.06
434.00	2414.56
434.21	2158.56
434.41	2138.08
434.62	2426.84
434.82	2115.55
435.03	2142.18
435.23	2277.34
435.44	2002.91
435.64	2220.00
435.85	2265.05
436.06	2324.44
436.26	2244.57
436.47	2146.27
436.67	2199.52
436.88	2189.28
437.08	2342.88
437.29	2281.44
437.49	2211.81
437.70	2267.10
437.90	2115.55
438.11	2371.55
438.31	2254.81
438.52	2381.79
438.72	2422.75
438.93	2543.58
439.13	2256.86
439.34	2244.57
439.54	2181.09
439.75	2301.92
439.95	2222.05
440.16	2119.65
440.36	2170.85
440.57	2279.39
440.77	2250.72
440.98	2195.42
441.18	2273.25
441.39	2136.03
441.59	2072.54
441.80	2484.19
442.00	2213.85
442.21	2299.87
442.41	2119.65
442.62	2379.74
442.82	2140.13
443.02	2136.03
443.23	2232.29
443.43	2203.61
443.64	2320.35
443.84	2160.61
444.05	2385.88
444.25	2236.38
444.46	2166.75
444.66	2148.32
444.87	2383.84
445.07	2136.03
445.28	2228.19
445.48	2287.58
445.69	2269.15
445.89	2424.80
446.09	2252.77
446.30	2496.47
446.50	2822.10
446.71	4464.57
446.91	5517.23
447.12	6418.33
447.32	6668.19
447.53	6229.92
447.73	5048.24
447.93	4648.89
448.14	4214.72
448.34	4061.12
448.55	3555.27
448.75	3481.55
448.96	3313.61
449.16	3039.19
449.36	2836.44
449.57	2557.91
449.77	2273.25
449.98	2299.87
450.18	2299.87
450.39	2224.09
450.59	2285.53
450.79	2205.66
451.00	2162.66
451.20	2230.24
451.41	2195.42
451.61	2260.96
451.81	2283.49
452.02	2224.09
452.22	2199.52
452.43	2217.95
452.63	2152.42
452.84	2248.67
453.04	2136.03
453.24	2211.81
453.45	2099.17
453.65	2246.62
453.86	2260.96
454.06	2238.43
454.26	2238.43
454.47	2103.26
454.67	2334.68
454.87	2242.53
455.08	2148.32
455.28	2269.15
455.49	2217.95
455.69	2101.22
455.89	2377.69
456.10	2281.44
456.30	2260.96
456.51	2250.72
456.71	2162.66
456.91	2215.90
457.12	2203.61
457.32	2213.85
457.52	2119.65
457.73	2299.87
457.93	2234.33
458.14	2201.57
458.34	1982.43
458.54	2256.86
458.75	2129.89
458.95	2234.33
459.15	2222.05
459.36	2185.18
459.56	2174.94
459.76	2424.80
459.97	2203.61
460.17	2072.54
460.37	2260.96
460.58	2209.76
460.78	2310.11
460.99	2129.89
461.19	2193.37
461.39	2095.07
461.60	2215.90
461.80	2258.91
462.00	2093.02
462.21	2226.14
462.41	2082.78
462.61	2088.93
462.82	2023.39
463.02	2320.35
463.22	2211.81
463.43	2291.68
463.63	2176.99
463.83	2297.82
464.04	2201.57
464.24	2166.75
464.44	2111.46
464.64	2260.96
464.85	2240.48
465.05	2242.53
465.25	2142.18
465.46	2111.46
465.66	2242.53
465.86	2242.53
466.07	2152.42
466.27	2187.23
466.47	2002.91
466.68	2084.83
466.88	2314.20
467.08	2340.83
467.29	2246.62
467.49	2195.42
467.69	2193.37
467.89	2203.61
468.10	2154.46
468.30	2193.37
468.50	2275.29
468.71	2332.64
468.91	2154.46
469.11	2367.45
469.31	2164.70
469.52	2152.42
469.72	2389.98
469.92	2379.74
470.13	2207.71
470.33	2244.57
470.53	2267.10
470.73	2656.22
470.94	3092.43
471.14	3203.02
471.34	3629.00
471.54	3493.83
471.75	3133.39
471.95	2926.55
472.15	2760.66
472.36	2742.23
472.56	2672.60
472.76	2768.85
472.96	2684.89
473.17	2594.78
473.37	2455.51
473.57	2252.77
473.77	2316.25
473.98	2203.61
474.18	2170.85
474.38	2555.86
474.58	2215.90
474.79	2211.81
474.99	2263.01
475.19	2301.92
475.39	2138.08
475.60	2273.25
475.80	2162.66
476.00	2215.90
476.20	2179.04
476.41	2205.66
476.61	2334.68
476.81	2357.21
477.01	2142.18
477.21	2383.84
477.42	2322.40
477.62	2166.75
477.82	2271.20
478.02	2160.61
478.23	2232.29
478.43	2148.32
478.63	2197.47
478.83	2291.68
479.03	2252.77
479.24	2295.77
479.44	2426.84
479.64	2031.58
479.84	2052.06
480.04	2162.66
480.25	2301.92
480.45	2133.98
480.65	2201.57
480.85	2342.88
481.06	2103.26
481.26	2220.00
481.46	2314.20
481.66	2207.71
481.86	2084.83
482.06	2342.88
482.27	2244.57
482.47	2256.86
482.67	2252.77
482.87	2228.19
483.07	2301.92
483.28	2086.88
483.48	2154.46
483.68	2150.37
483.88	2093.02
484.08	1978.34
484.29	2148.32
484.49	2160.61
484.69	2125.79
484.89	2265.05
485.09	2269.15
485.29	2195.42
485.50	2301.92
485.70	2152.42
485.90	2293.72
486.10	2174.94
486.30	2275.29
486.50	2314.20
486.71	2289.63
486.91	2295.77
487.11	2318.30
487.31	2109.41
487.51	2199.52
487.71	2111.46
487.91	2174.94
488.12	2127.84
488.32	2000.87
488.52	2142.18
488.72	2029.54
488.92	2228.19
489.12	2301.92
489.32	2308.06
489.53	2146.27
489.73	2062.30
489.93	2392.03
490.13	2125.79
490.33	2119.65
490.53	2215.90
490.73	2250.72
490.94	2056.16
491.14	2297.82
491.34	2275.29
491.54	2473.95
491.74	3153.87
491.94	3764.17
492.14	3948.48
492.34	4061.12
492.54	3723.21
492.75	3250.13
492.95	3219.41
493.15	2906.07
493.35	2932.69
493.55	2770.90
493.75	2727.89
493.95	2717.65
494.15	2510.81
494.35	2334.68
494.56	2351.07
494.76	2205.66
494.96	2283.49
495.16	2220.00
495.36	2240.48
495.56	2172.89
495.76	2197.47
495.96	2250.72
496.16	2168.80
496.36	2398.17
496.56	2129.89
496.77	2254.81
496.97	2213.85
497.17	2279.39
497.37	2101.22
497.57	2328.54
497.77	2263.01
497.97	2136.03
498.17	2129.89
498.37	2193.37
498.57	2295.77
498.77	2193.37
498.97	2279.39
499.17	2351.07
499.38	2236.38
499.58	2252.77
499.78	2271.20
499.98	2389.98
500.18	2297.82
500.38	2197.47
500.58	2435.03
500.78	2990.03
500.98	5207.98
501.18	7178.13
501.38	8896.38
501.58	9834.35
501.78	9723.76
501.98	7622.54
502.18	6469.53
502.38	5562.28
502.58	5128.11
502.78	4636.60
502.98	4427.71
503.18	4276.16
503.38	3839.94
503.59	3389.39
503.79	3198.93
503.99	3030.99
504.19	2863.06
504.39	2938.84
504.59	2947.03
504.79	2891.73
504.99	2807.77
505.19	2605.02
505.39	2580.44
505.59	2611.16
505.79	2496.47
505.99	2379.74
506.19	2283.49
506.39	2439.13
506.59	2263.01
506.79	2316.25
506.99	2340.83
507.19	2285.53
507.39	2191.33
507.59	2103.26
507.79	2154.46
507.99	2103.26
508.19	2176.99
508.39	2226.14
508.59	2209.76
508.79	2381.79
508.99	2357.21
509.19	2119.65
509.39	2246.62
509.59	2131.94
509.79	2121.70
509.99	2234.33
510.19	2328.54
510.39	2340.83
510.59	2209.76
510.79	2256.86
510.99	2039.78
511.19	2197.47
511.39	2406.36
511.59	2277.34
511.79	2275.29
511.99	2265.05
512.19	2447.32
512.38	2183.13
512.58	2131.94
512.78	2230.24
512.98	2355.16
513.18	2398.17
513.38	2129.89
513.58	2299.87
513.78	2156.51
513.98	2228.19
514.18	2232.29
514.38	2215.90
514.58	2269.15
514.78	2201.57
514.98	2131.94
515.18	2136.03
515.38	2125.79
515.58	2342.88
515.78	2150.37
515.98	2226.14
516.18	2254.81
516.38	2226.14
516.57	2080.74
516.77	2146.27
516.97	2330.59
517.17	2050.02
517.37	2021.35
517.57	2252.77
517.77	2224.09
517.97	2191.33
518.17	2269.15
518.37	2097.12
518.57	2187.23
518.77	2203.61
518.97	2187.23
519.16	2242.53
519.36	2240.48
519.56	2138.08
519.76	2248.67
519.96	2181.09
520.16	2316.25
520.36	2136.03
520.56	2244.57
520.76	2179.04
520.96	2236.38
521.16	2252.77
521.35	2285.53
521.55	2371.55
521.75	2250.72
521.95	2209.76
522.15	2146.27
522.35	2101.22
522.55	2056.16
522.75	2297.82
522.95	2148.32
523.14	2103.26
523.34	2252.77
523.54	2215.90
523.74	2256.86
523.94	2224.09
524.14	2133.98
524.34	2285.53
524.54	2314.20
524.73	2146.27
524.93	2316.25
525.13	2195.42
525.33	2076.64
525.53	2379.74
525.73	2349.02
525.93	2224.09
526.13	2199.52
526.32	2232.29
526.52	2357.21
526.72	2267.10
526.92	2146.27
527.12	2217.95
527.32	2023.39
527.52	2230.24
527.71	2174.94
527.91	2226.14
528.11	2093.02
528.31	2273.25
528.51	2191.33
528.71	2281.44
528.90	2265.05
529.10	2355.16
529.30	2281.44
529.50	1978.34
529.70	2211.81
529.90	2105.31
530.09	2187.23
530.29	2076.64
530.49	2187.23
530.69	2514.91
530.89	2277.34
531.09	2246.62
531.28	2187.23
531.48	2303.96
531.68	2174.94
531.88	2207.71
532.08	2273.25
532.28	2203.61
532.47	2271.20
532.67	2299.87
532.87	2265.05
533.07	2164.70
533.27	2269.15
533.46	2254.81
533.66	2275.29
533.86	2195.42
534.06	2236.38
534.26	2236.38
534.45	2185.18
534.65	2250.72
534.85	2244.57
535.05	2217.95
535.25	2359.26
535.44	2127.84
535.64	2279.39
535.84	2191.33
536.04	2166.75
536.24	2101.22
536.43	2164.70
536.63	2230.24
536.83	2226.14
537.03	2252.77
537.22	2123.74
537.42	2086.88
537.62	2232.29
537.82	2207.71
538.02	2318.30
538.21	2256.86
538.41	2496.47
538.61	2217.95
538.81	2211.81
539.00	2287.58
539.20	2029.54
539.40	2097.12
539.60	2234.33
539.79	2234.33
539.99	2189.28
540.19	2095.07
540.39	2168.80
540.58	2285.53
540.78	2238.43
540.98	2181.09
541.18	2318.30
541.37	2220.00
541.57	2232.29
541.77	2254.81
541.97	2078.69
542.16	2033.63
542.36	2209.76
542.56	2263.01
542.76	2412.51
542.95	2260.96
543.15	2310.11
543.35	2246.62
543.54	2119.65
543.74	2172.89
543.94	2383.84
544.14	2193.37
544.33	2297.82
544.53	2176.99
544.73	2158.56
544.93	2195.42
545.12	2170.85
545.32	2201.57
545.52	2166.75
545.71	2127.84
545.91	2170.85
546.11	2158.56
546.30	2115.55
546.50	2209.76
546.70	2242.53
546.90	2189.28
547.09	2052.06
547.29	2168.80
547.49	2277.34
547.68	2195.42
547.88	2160.61
548.08	2299.87
548.27	2645.98
548.47	2162.66
548.67	2185.18
548.87	2281.44
549.06	2162.66
549.26	2199.52
549.46	2234.33
549.65	2230.24
549.85	2260.96
550.05	2199.52
550.24	2160.61
550.44	2209.76
550.64	2230.24
550.83	2185.18
551.03	2322.40
551.23	2258.91
551.42	2246.62
551.62	2117.60
551.82	2215.90
552.01	2205.66
552.21	2332.64
552.41	2232.29
552.60	2373.60
552.80	2242.53
553.00	2215.90
553.19	2232.29
553.39	2346.97
553.59	2017.25
553.78	2242.53
553.98	2265.05
554.17	2115.55
554.37	2234.33
554.57	2211.81
554.76	2154.46
554.96	2133.98
555.16	2205.66
555.35	2179.04
555.55	2260.96
555.75	2207.71
555.94	2299.87
556.14	2113.50
556.33	2260.96
556.53	2179.04
556.73	2203.61
556.92	2220.00
557.12	2291.68
557.32	2326.49
557.51	2416.60
557.71	2279.39
557.90	2258.91
558.10	2293.72
558.30	2252.77
558.49	2121.70
558.69	2220.00
558.88	2217.95
559.08	2195.42
559.28	2191.33
559.47	2244.57
559.67	2316.25
559.86	2359.26
560.06	2275.29
560.26	2166.75
560.45	2291.68
560.65	2185.18
560.84	2308.06
561.04	2140.13
561.24	2291.68
561.43	2115.55
561.63	2383.84
561.82	2199.52
562.02	2170.85
562.22	2236.38
562.41	2041.82
562.61	2168.80
562.80	2115.55
563.00	2488.28
563.19	2263.01
563.39	2201.57
563.59	2258.91
563.78	2160.61
563.98	1978.34
564.17	2105.31
564.37	2078.69
564.56	2240.48
564.76	1994.72
564.96	2318.30
565.15	2244.57
565.35	2408.41
565.54	2166.75
565.74	2244.57
565.93	2179.04
566.13	2195.42
566.32	2244.57
566.52	2297.82
566.71	2195.42
566.91	2297.82
567.11	2308.06
567.30	2250.72
567.50	2342.88
567.69	2195.42
567.89	2244.57
568.08	2156.51
568.28	2254.81
568.47	2119.65
568.67	2254.81
568.86	2117.60
569.06	2293.72
569.25	2150.37
569.45	2170.85
569.64	2140.13
569.84	2162.66
570.04	2299.87
570.23	2150.37
570.43	2162.66
570.62	2295.77
570.82	2375.64
571.01	2099.17
571.21	2146.27
571.40	2160.61
571.60	2277.34
571.79	2291.68
571.99	2160.61
572.18	2107.36
572.38	2258.91
572.57	2201.57
572.77	2226.14
572.96	2523.10
573.16	2252.77
573.35	2226.14
573.55	2355.16
573.74	2267.10
573.94	2217.95
574.13	2152.42
574.33	2279.39
574.52	2326.49
574.71	2207.71
574.91	2269.15
575.10	2056.16
575.30	2140.13
575.49	2148.32
575.69	2101.22
575.88	2314.20
576.08	2267.10
576.27	2430.94
576.47	2301.92
576.66	2389.98
576.86	2367.45
577.05	2275.29
577.25	2379.74
577.44	2387.93
577.64	2236.38
577.83	2295.77
578.02	2236.38
578.22	2342.88
578.41	2383.84
578.61	2199.52
578.80	2052.06
579.00	2265.05
579.19	2187.23
579.39	2211.81
579.58	2211.81
579.77	2346.97
579.97	2412.51
580.16	2445.27
580.36	2279.39
580.55	2254.81
580.75	2269.15
580.94	2252.77
581.13	2342.88
581.33	2414.56
581.52	2199.52
581.72	2396.12
581.91	2426.84
582.11	2244.57
582.30	2306.01
582.49	2318.30
582.69	2435.03
582.88	2240.48
583.08	2248.67
583.27	2351.07
583.47	2250.72
583.66	2187.23
583.85	2197.47
584.05	2195.42
584.24	2310.11
584.44	2299.87
584.63	2383.84
584.82	2443.23
585.02	2418.65
585.21	2402.27
585.41	2392.03
585.60	2396.12
585.79	2441.18
585.99	2510.81
586.18	2312.16
586.37	2830.29
586.57	4480.96
586.76	13414.20
586.96	32118.29
587.15	45851.97
587.34	55399.60
587.54	59991.15
587.73	55346.36
587.93	39183.79
588.12	29517.37
588.31	23729.81
588.51	20717.25
588.70	18822.88
588.89	17100.54
589.09	15048.47
589.28	12715.84
589.47	10577.76
589.67	8281.99
589.86	6383.52
590.06	4708.28
590.25	3792.84
590.44	3151.82
590.64	2834.39
590.83	2607.06
591.02	2498.52
591.22	2342.88
591.41	2363.36
591.60	2297.82
591.80	2420.70
591.99	2201.57
592.18	2222.05
592.38	2410.46
592.57	2242.53
592.76	2334.68
592.96	2336.73
593.15	2244.57
593.34	2299.87
593.54	2197.47
593.73	2367.45
593.92	2303.96
594.12	2240.48
594.31	2252.77
594.50	2328.54
594.70	2398.17
594.89	2500.57
595.08	2193.37
595.28	2377.69
595.47	2596.82
595.66	2324.44
595.86	2117.60
596.05	2226.14
596.24	2246.62
596.43	2414.56
596.63	2357.21
596.82	2308.06
597.01	2285.53
597.21	2336.73
597.40	2279.39
597.59	2207.71
597.79	2258.91
597.98	2400.22
598.17	2281.44
598.36	2256.86
598.56	2330.59
598.75	2207.71
598.94	2269.15
599.14	2238.43
599.33	2236.38
599.52	2310.11
599.71	2281.44
599.91	2330.59
600.10	2269.15
600.29	2154.46
600.48	2269.15
600.68	2277.34
600.87	2240.48
601.06	2195.42
601.26	2240.48
601.45	2222.05
601.64	2226.14
601.83	2310.11
602.03	2140.13
602.22	2152.42
602.41	2297.82
602.60	2424.80
602.80	2312.16
602.99	2256.86
603.18	2236.38
603.37	2238.43
603.57	2242.53
603.76	2293.72
603.95	2334.68
604.14	2189.28
604.34	2090.98
604.53	2144.22
604.72	2277.34
604.91	2263.01
605.10	2330.59
605.30	2119.65
605.49	2441.18
605.68	2236.38
605.87	2279.39
606.07	2164.70
606.26	2154.46
606.45	2301.92
606.64	2250.72
606.84	2107.36
607.03	2303.96
607.22	2326.49
607.41	2179.04
607.60	2224.09
607.80	2322.40
607.99	2263.01
608.18	2269.15
608.37	2228.19
608.56	2260.96
608.76	2318.30
608.95	2437.08
609.14	2316.25
609.33	2463.71
609.52	2455.51
609.72	2254.81
609.91	2416.60
610.10	2269.15
610.29	2363.36
610.48	2310.11
610.68	2199.52
610.87	2127.84
611.06	2275.29
611.25	2181.09
611.44	2318.30
611.63	2160.61
611.83	2426.84
612.02	2168.80
612.21	2289.63
612.40	2121.70
612.59	2076.64
612.79	2121.70
612.98	2336.73
613.17	2363.36
613.36	2232.29
613.55	2457.56
613.74	2406.36
613.93	2301.92
614.13	2545.63
614.32	2461.66
614.51	2375.64
614.70	2342.88
614.89	2232.29
615.08	2291.68
615.28	2799.57
615.47	2136.03
615.66	2240.48
615.85	2301.92
616.04	2424.80
616.23	2220.00
616.42	2297.82
616.62	2361.31
616.81	2220.00
617.00	2248.67
617.19	2353.12
617.38	2215.90
617.57	2215.90
617.76	2326.49
617.95	2293.72
618.15	2281.44
618.34	2336.73
618.53	2133.98
618.72	2318.30
618.91	2318.30
619.10	2326.49
619.29	2285.53
619.48	2283.49
619.68	2129.89
619.87	2256.86
620.06	2082.78
620.25	2236.38
620.44	2187.23
620.63	2189.28
620.82	2258.91
621.01	2244.57
621.20	2164.70
621.39	2220.00
621.59	2338.78
621.78	2162.66
621.97	2201.57
622.16	2228.19
622.35	2244.57
622.54	2320.35
622.73	2258.91
622.92	2074.59
623.11	2400.22
623.30	2256.86
623.49	2220.00
623.68	2127.84
623.88	2289.63
624.07	2150.37
624.26	2215.90
624.45	2254.81
624.64	2088.93
624.83	2308.06
625.02	2234.33
625.21	2201.57
625.40	2209.76
625.59	2279.39
625.78	2252.77
625.97	2355.16
626.16	2408.41
626.35	2383.84
626.54	2303.96
626.74	2488.28
626.93	2234.33
627.12	2215.90
627.31	2371.55
627.50	2242.53
627.69	2346.97
627.88	2162.66
628.07	2121.70
628.26	2131.94
628.45	2176.99
628.64	2131.94
628.83	2355.16
629.02	2170.85
629.21	2291.68
629.40	2138.08
629.59	2181.09
629.78	2162.66
629.97	2244.57
630.16	2248.67
630.35	2160.61
630.54	2244.57
630.73	2103.26
630.92	2248.67
631.11	2129.89
631.30	2252.77
631.49	2367.45
631.68	2205.66
631.87	2342.88
632.06	2080.74
632.25	2439.13
632.44	2252.77
632.63	2318.30
632.82	2260.96
633.01	2293.72
633.20	2353.12
633.39	2273.25
633.58	2224.09
633.77	2324.44
633.96	2285.53
634.15	2367.45
634.34	2248.67
634.53	2351.07
634.72	2127.84
634.91	2021.35
635.10	2136.03
635.29	2318.30
635.48	2258.91
635.67	2168.80
635.86	2068.45
636.05	2379.74
636.24	2144.22
636.43	2236.38
636.62	2232.29
636.81	2045.92
637.00	2258.91
637.19	2291.68
637.38	2172.89
637.57	2158.56
637.76	2273.25
637.95	2314.20
638.14	2312.16
638.33	2336.73
638.52	2301.92
638.71	2154.46
638.89	2176.99
639.08	2512.86
639.27	2400.22
639.46	2486.23
639.65	2809.81
639.84	2926.55
640.03	3133.39
640.22	3045.33
640.41	2975.70
640.60	2559.96
640.79	2652.12
640.98	2424.80
641.17	2486.23
641.36	2465.75
641.55	2367.45
641.74	2242.53
641.92	2162.66
642.11	2185.18
642.30	2220.00
642.49	2191.33
642.68	2164.70
642.87	2211.81
643.06	2279.39
643.25	2140.13
643.44	2111.46
643.63	2258.91
643.82	2250.72
644.00	2084.83
644.19	2211.81
644.38	2088.93
644.57	2230.24
644.76	2170.85
644.95	2179.04
645.14	2195.42
645.33	2195.42
645.52	2183.13
645.71	2093.02
645.89	2105.31
646.08	2179.04
646.27	2146.27
646.46	2359.26
646.65	2074.59
646.84	2193.37
647.03	2183.13
647.22	2289.63
647.40	2179.04
647.59	2123.74
647.78	2039.78
647.97	2117.60
648.16	2187.23
648.35	2355.16
648.54	2344.92
648.73	2050.02
648.91	2283.49
649.10	2150.37
649.29	2125.79
649.48	2240.48
649.67	2238.43
649.86	2242.53
650.05	2256.86
650.23	2482.14
650.42	2252.77
650.61	2547.67
650.80	2371.55
650.99	2441.18
651.18	2367.45
651.36	2392.03
651.55	2308.06
651.74	2306.01
651.93	2230.24
652.12	2246.62
652.31	2244.57
652.49	2191.33
652.68	2189.28
652.87	2387.93
653.06	2269.15
653.25	2353.12
653.44	2269.15
653.62	2301.92
653.81	2179.04
654.00	2195.42
654.19	2310.11
654.38	2445.27
654.56	2273.25
654.75	2179.04
654.94	2203.61
655.13	2308.06
655.32	2234.33
655.51	2256.86
655.69	2187.23
655.88	2308.06
656.07	2131.94
656.26	2179.04
656.45	2099.17
656.63	2203.61
656.82	2293.72
657.01	2267.10
657.20	2123.74
657.38	2396.12
657.57	2193.37
657.76	2158.56
657.95	2263.01
658.14	2144.22
658.32	2158.56
658.51	2097.12
658.70	2271.20
658.89	2260.96
659.08	2176.99
659.26	2322.40
659.45	2228.19
659.64	2289.63
659.83	2172.89
660.01	2592.73
660.20	2254.81
660.39	2357.21
660.58	2103.26
660.76	2295.77
660.95	2101.22
661.14	2236.38
661.33	2117.60
661.51	2090.98
661.70	2179.04
661.89	2254.81
662.08	2226.14
662.26	2097.12
662.45	2170.85
662.64	2387.93
662.83	2310.11
663.01	2039.78
663.20	2082.78
663.39	2318.30
663.58	2138.08
663.76	2160.61
663.95	2312.16
664.14	2027.49
664.32	2080.74
664.51	2158.56
664.70	2101.22
664.89	2242.53
665.07	2115.55
665.26	2254.81
665.45	2088.93
665.64	2260.96
665.82	2152.42
666.01	2258.91
666.20	2152.42
666.38	2285.53
666.57	2392.03
666.76	3340.24
666.95	8042.37
667.13	16518.92
667.32	21960.37
667.51	25112.19
667.69	27115.11
667.88	25347.71
668.07	17964.78
668.25	14364.45
668.44	11835.21
668.63	10172.26
668.81	9002.87
669.00	7923.59
669.19	7016.34
669.38	5978.02
669.56	5167.03
669.75	4335.55
669.94	3786.69
670.12	3135.44
670.31	2795.48
670.50	2650.07
670.68	2451.42
670.87	2371.55
671.06	2328.54
671.24	2363.36
671.43	2394.08
671.62	2271.20
671.80	2234.33
671.99	2252.77
672.18	2299.87
672.36	2250.72
672.55	2230.24
672.74	2205.66
672.92	2183.13
673.11	2312.16
673.29	2056.16
673.48	2279.39
673.67	2140.13
673.85	2289.63
674.04	2187.23
674.23	2199.52
674.41	2383.84
674.60	2187.23
674.79	2088.93
674.97	2090.98
675.16	2285.53
675.34	2334.68
675.53	2265.05
675.72	2211.81
675.90	2396.12
676.09	2144.22
676.28	2207.71
676.46	1984.48
676.65	2248.67
676.83	2111.46
677.02	2138.08
677.21	2230.24
677.39	2275.29
677.58	2152.42
677.77	2146.27
677.95	2136.03
678.14	2142.18
678.32	2133.98
678.51	2207.71
678.70	2365.40
678.88	2084.83
679.07	2191.33
679.25	2248.67
679.44	2197.47
679.63	2097.12
679.81	2193.37
680.00	2314.20
680.18	2211.81
680.37	2344.92
680.55	2213.85
680.74	2037.73
680.93	2129.89
681.11	2205.66
681.30	2127.84
681.48	2195.42
681.67	2146.27
681.85	2217.95
682.04	2195.42
682.23	2217.95
682.41	2162.66
682.60	2193.37
682.78	2138.08
682.97	2090.98
683.15	2185.18
683.34	2209.76
683.53	2338.78
683.71	2050.02
683.90	2248.67
684.08	2322.40
684.27	2164.70
684.45	2138.08
684.64	2281.44
684.82	2248.67
685.01	2228.19
685.19	2158.56
685.38	2342.88
685.57	2220.00
685.75	2080.74
685.94	2154.46
686.12	2121.70
686.31	2138.08
686.49	2410.46
686.68	2052.06
686.86	2209.76
687.05	2271.20
687.23	2332.64
687.42	2170.85
687.60	2074.59
687.79	2310.11
687.97	2310.11
688.16	2324.44
688.34	2285.53
688.53	2045.92
688.71	2242.53
688.90	2424.80
689.08	2179.04
689.27	2031.58
689.45	2222.05
689.64	2240.48
689.82	2193.37
690.01	2211.81
690.19	2226.14
690.38	2234.33
690.56	2355.16
690.75	2082.78
690.93	2111.46
691.12	2162.66
691.30	2277.34
691.49	2181.09
691.67	2222.05
691.86	2342.88
692.04	2158.56
692.23	2179.04
692.41	2242.53
692.60	2439.13
692.78	2410.46
692.97	2267.10
693.15	2291.68
693.34	2371.55
693.52	2355.16
693.71	2164.70
693.89	2189.28
694.08	2136.03
694.26	2336.73
694.44	2277.34
694.63	2279.39
694.81	2095.07
695.00	2170.85
695.18	2318.30
695.37	2457.56
695.55	2197.47
695.74	2238.43
695.92	2093.02
696.10	2334.68
696.29	2058.21
696.47	2142.18
696.66	2084.83
696.84	2168.80
697.03	2252.77
697.21	2349.02
697.40	3243.98
697.58	2287.58
697.76	2158.56
697.95	2211.81
698.13	2066.40
698.32	2136.03
698.50	2207.71
698.68	2256.86
698.87	2260.96
699.05	2351.07
699.24	2209.76
699.42	2131.94
699.61	2246.62
699.79	2230.24
699.97	2197.47
700.16	2070.50
700.34	2070.50
700.53	2201.57
700.71	2295.77
700.89	2291.68
701.08	2246.62
701.26	2193.37
701.45	2650.07
701.63	2156.51
701.81	2199.52
702.00	2105.31
702.18	2279.39
702.37	2201.57
702.55	2424.80
702.73	2346.97
702.92	2381.79
703.10	2580.44
703.28	2486.23
703.47	2346.97
703.65	2404.32
703.84	2416.60
704.02	2234.33
704.20	2375.64
704.39	2181.09
704.57	2211.81
704.75	2389.98
704.94	2412.51
705.12	2297.82
705.30	2514.91
705.49	4423.61
705.67	10788.70
705.86	19672.79
706.04	24145.55
706.22	27473.50
706.41	28587.60
706.59	24514.19
706.77	17481.46
706.96	14360.36
707.14	12537.66
707.32	10977.11
707.51	9609.07
707.69	7952.26
707.87	6590.36
708.06	5136.31
708.24	4161.47
708.42	3268.56
708.61	3063.76
708.79	2537.43
708.97	2424.80
709.16	2371.55
709.34	2359.26
709.52	2230.24
709.71	2236.38
709.89	2271.20
710.07	2181.09
710.26	2185.18
710.44	2154.46
710.62	2260.96
710.80	2207.71
710.99	2265.05
711.17	2256.86
711.35	2217.95
711.54	2088.93
711.72	2310.11
711.90	2310.11
712.09	2207.71
712.27	2166.75
712.45	2242.53
712.63	2189.28
712.82	2154.46
713.00	2283.49
713.18	2250.72
713.37	2234.33
713.55	2363.36
713.73	2228.19
713.91	2285.53
714.10	2121.70
714.28	2220.00
714.46	2273.25
714.65	2189.28
714.83	2213.85
715.01	2176.99
715.19	2236.38
715.38	2119.65
715.56	2224.09
715.74	2142.18
715.92	2125.79
716.11	2365.40
716.29	2021.35
716.47	2138.08
716.65	2146.27
716.84	2066.40
717.02	2308.06
717.20	2084.83
717.38	2131.94
717.57	2191.33
717.75	2209.76
717.93	2193.37
718.11	2287.58
718.30	2084.83
718.48	2267.10
718.66	2275.29
718.84	2263.01
719.03	2136.03
719.21	2080.74
719.39	2445.27
719.57	2275.29
719.75	2267.10
719.94	2142.18
720.12	2195.42
720.30	2191.33
720.48	2314.20
720.67	2129.89
720.85	2109.41
721.03	2269.15
721.21	2133.98
721.39	2289.63
721.58	2265.05
721.76	2263.01
721.94	2240.48
722.12	2252.77
722.30	2357.21
722.49	2148.32
722.67	2228.19
722.85	2174.94
723.03	2084.83
723.21	2183.13
723.40	2232.29
723.58	2273.25
723.76	2330.59
723.94	2340.83
724.12	2299.87
724.30	2416.60
724.49	2377.69
724.67	2146.27
724.85	2367.45
725.03	2119.65
725.21	2297.82
725.40	2273.25
725.58	2138.08
725.76	2344.92
725.94	2246.62
726.12	2109.41
726.30	2121.70
726.49	2154.46
726.67	2072.54
726.85	2187.23
727.03	2469.85
727.21	3702.73
727.39	5380.01
727.57	6506.40
727.76	7290.77
727.94	7569.29
728.12	7253.91
728.30	5863.33
728.48	4962.23
728.66	4464.57
728.84	4005.83
729.03	3489.74
729.21	3260.37
729.39	2766.81
729.57	2494.43
729.75	2449.37
729.93	2383.84
730.11	2236.38
730.30	2267.10
730.48	2197.47
730.66	2389.98
730.84	2273.25
731.02	2213.85
731.20	2187.23
731.38	2183.13
731.56	2045.92
731.74	2117.60
731.93	2263.01
732.11	2168.80
732.29	2199.52
732.47	2285.53
732.65	2193.37
732.83	2342.88
733.01	2291.68
733.19	2162.66
733.37	2236.38
733.56	2230.24
733.74	2070.50
733.92	2316.25
734.10	2107.36
734.28	2203.61
734.46	2076.64
734.64	2195.42
734.82	2166.75
735.00	2156.51
735.18	2140.13
735.36	2142.18
735.54	2129.89
735.73	2179.04
735.91	2211.81
736.09	2285.53
736.27	2222.05
736.45	2269.15
736.63	2052.06
736.81	2195.42
736.99	2316.25
737.17	2385.88
737.35	2119.65
737.53	2166.75
737.71	2109.41
737.89	2273.25
738.07	2125.79
738.25	2097.12
738.43	2119.65
738.61	2179.04
738.80	2025.44
738.98	2172.89
739.16	2115.55
739.34	2146.27
739.52	2367.45
739.70	2095.07
739.88	2224.09
740.06	2271.20
740.24	2015.20
740.42	2293.72
740.60	2060.26
740.78	2127.84
740.96	2041.82
741.14	2199.52
741.32	2252.77
741.50	2070.50
741.68	2349.02
741.86	2314.20
742.04	2105.31
742.22	2144.22
742.40	2113.50
742.58	2267.10
742.76	2162.66
742.94	2224.09
743.12	2021.35
743.30	2213.85
743.48	2181.09
743.66	2144.22
743.84	2179.04
744.02	2176.99
744.20	2215.90
744.38	2154.46
744.56	2136.03
744.74	2283.49
744.92	2224.09
745.10	2330.59
745.28	2217.95
745.46	2281.44
745.64	2154.46
745.82	2293.72
746.00	2166.75
746.18	2260.96
746.36	2160.61
746.54	2240.48
746.72	2090.98
746.90	2150.37
747.08	2314.20
747.26	2220.00
747.44	2220.00
747.62	2217.95
747.80	2277.34
747.98	2267.10
748.15	2254.81
748.33	2447.32
748.51	2215.90
748.69	2248.67
748.87	2097.12
749.05	2228.19
749.23	2166.75
749.41	2254.81
749.59	2119.65
749.77	2318.30
749.95	2246.62
750.13	2158.56
750.31	2258.91
750.49	2199.52
750.67	2224.09
750.85	2310.11
751.03	2236.38
751.20	2361.31
751.38	2144.22
751.56	2129.89
751.74	2220.00
751.92	2195.42
752.10	2060.26
752.28	2293.72
752.46	2129.89
752.64	2172.89
752.82	2185.18
753.00	2328.54
753.18	2164.70
753.35	2093.02
753.53	2203.61
753.71	2152.42
753.89	2256.86
754.07	2201.57
754.25	2215.90
754.43	2222.05
754.61	2039.78
754.79	2222.05
754.97	2162.66
755.14	2291.68
755.32	2062.30
755.50	2187.23
755.68	2295.77
755.86	2119.65
756.04	2148.32
756.22	2076.64
756.40	2260.96
756.57	2318.30
756.75	2140.13
756.93	2318.30
757.11	2281.44
757.29	2093.02
757.47	2080.74
757.65	2031.58
757.82	2019.30
758.00	2174.94
758.18	2154.46
758.36	2127.84
758.54	2371.55
758.72	2050.02
758.90	2324.44
759.07	2197.47
759.25	2183.13
759.43	2152.42
759.61	2045.92
759.79	3014.61
759.97	2377.69
760.15	2183.13
760.32	2209.76
760.50	2217.95
760.68	2449.37
760.86	2144.22
761.04	2316.25
761.22	2289.63
761.39	2215.90
761.57	2240.48
761.75	2144.22
761.93	2252.77
762.11	2181.09
762.28	2201.57
762.46	2187.23
762.64	2246.62
762.82	2058.21
763.00	2187.23
763.18	2334.68
763.35	2080.74
763.53	2260.96
763.71	2217.95
763.89	2179.04
764.07	2207.71
764.24	2127.84
764.42	2172.89
764.60	2240.48
764.78	2174.94
764.96	2265.05
765.13	2248.67
765.31	2193.37
765.49	2252.77
765.67	2090.98
765.84	2111.46
766.02	2109.41
766.20	2105.31
766.38	2138.08
766.56	2242.53
766.73	2316.25
766.91	2242.53
767.09	2179.04
767.27	2285.53
767.44	2086.88
767.62	2265.05
767.80	2150.37
767.98	2193.37
768.15	2105.31
768.33	2256.86
768.51	2215.90
768.69	2220.00
768.87	2250.72
769.04	2220.00
769.22	2408.41
769.40	2349.02
769.58	2439.13
769.75	2234.33
769.93	2322.40
770.11	2154.46
770.28	2144.22
770.46	2283.49
770.64	2240.48
770.82	2179.04
770.99	2220.00
771.17	2244.57
771.35	2199.52
771.53	2168.80
771.70	2232.29
771.88	2183.13
772.06	2193.37
772.23	2133.98
772.41	2293.72
772.59	2152.42
772.77	2056.16
772.94	2187.23
773.12	2308.06
773.30	2088.93
773.47	2207.71
773.65	2095.07
773.83	2324.44
774.01	2176.99
774.18	2045.92
774.36	2213.85
774.54	2121.70
774.71	2318.30
774.89	2074.59
775.07	2109.41
775.24	2181.09
775.42	2248.67
775.60	2310.11
775.78	2150.37
775.95	2054.11
776.13	2064.35
776.31	1986.53
776.48	2140.13
776.66	2256.86
776.84	2144.22
777.01	2158.56
777.19	2107.36
777.37	2105.31
777.54	2269.15
777.72	2324.44
777.90	2203.61
778.07	2060.26
778.25	2539.48
778.43	2308.06
778.60	2168.80
778.78	2277.34
778.96	2322.40
779.13	2062.30
779.31	2158.56
779.49	2170.85
779.66	2285.53
779.84	2240.48
780.01	2166.75
780.19	2113.50
780.37	2306.01
780.54	2289.63
780.72	2209.76
780.90	2183.13
781.07	2185.18
781.25	2136.03
781.43	2318.30
781.60	2131.94
781.78	2275.29
781.95	2183.13
782.13	2080.74
782.31	2160.61
782.48	2033.63
782.66	2148.32
782.83	2357.21
783.01	2150.37
783.19	2265.05
783.36	2154.46
783.54	2127.84
783.72	2314.20
783.89	2142.18
784.07	2209.76
784.24	2193.37
784.42	2301.92
784.60	2211.81
784.77	2312.16
784.95	1998.82
785.12	2062.30
785.30	2260.96
785.47	2162.66
785.65	2154.46
785.83	2093.02
786.00	2158.56
786.18	2199.52
786.35	2072.54
786.53	2148.32
786.71	2244.57
786.88	2240.48
787.06	2260.96
787.23	2258.91
787.41	2105.31
787.58	2172.89
787.76	2103.26
787.94	2246.62
788.11	2220.00
788.29	2078.69
788.46	2166.75
788.64	2025.44
788.81	2181.09
788.99	2115.55
789.16	2131.94
789.34	2201.57
789.52	2138.08
789.69	2168.80
789.87	2033.63
790.04	2164.70
790.22	2287.58
790.39	2383.84
790.57	2099.17
790.74	2115.55
790.92	2242.53
791.09	2064.35
791.27	2152.42
791.44	2326.49
791.62	2203.61
791.79	2285.53
791.97	2181.09
792.15	2400.22
792.32	2273.25
792.50	2275.29
792.67	2365.40
792.85	2310.11
793.02	2111.46
793.20	2148.32
793.37	2029.54
793.55	2228.19
793.72	2035.68
793.90	2215.90
794.07	2082.78
794.25	2039.78
794.42	2125.79
794.60	2119.65
794.77	2228.19
794.95	2283.49
795.12	2258.91
795.30	2215.90
795.47	2066.40
795.65	2457.56
795.82	2160.61
796.00	2170.85
796.17	2191.33
796.34	2220.00
796.52	2244.57
796.69	2230.24
796.87	2265.05
797.04	2310.11
797.22	2303.96
797.39	2250.72
797.57	2238.43
797.74	2240.48
797.92	2279.39
798.09	2121.70
798.27	2234.33
798.44	2162.66
798.62	2168.80
798.79	2187.23
798.96	2228.19
799.14	2078.69
799.31	2424.80
799.49	2158.56
799.66	2162.66
799.84	2230.24
800.01	2093.02
800.19	2197.47
800.36	1994.72
800.53	2199.52
800.71	2273.25
800.88	2361.31
801.06	2187.23
801.23	2086.88
801.41	2056.16
801.58	2142.18
801.75	2105.31
801.93	2189.28
802.10	2220.00
802.28	2068.45
802.45	2142.18
802.63	2314.20
802.80	2340.83
802.97	2170.85
803.15	2220.00
803.32	2224.09
803.50	2068.45
803.67	2162.66
803.84	2035.68
804.02	2166.75
804.19	2213.85
804.37	1984.48
804.54	2068.45
804.71	2179.04
804.89	2250.72
805.06	2004.96
805.24	2133.98
805.41	2099.17
805.58	2136.03
805.76	2453.47
805.93	2211.81
806.10	2318.30
806.28	2252.77
806.45	2093.02
806.63	2179.04
806.80	2191.33
806.97	2342.88
807.15	2187.23
807.32	2111.46
807.49	2111.46
807.67	2072.54
807.84	2252.77
808.01	2072.54
808.19	2324.44
808.36	2424.80
808.54	2228.19
808.71	2070.50
808.88	2133.98
809.06	2232.29
809.23	2312.16
809.40	2156.51
809.58	2281.44
809.75	2230.24
809.92	2121.70
810.10	2402.27
810.27	2215.90
810.44	2224.09
810.62	2310.11
810.79	2269.15
810.96	2113.50
811.14	2138.08
811.31	2258.91
811.48	2256.86
811.66	2176.99
811.83	2230.24
812.00	2256.86
812.18	2164.70
812.35	2318.30
812.52	2138.08
812.69	2170.85
812.87	2138.08
813.04	2107.36
813.21	2273.25
813.39	2191.33
813.56	2109.41
813.73	2342.88
813.91	2050.02
814.08	2193.37
814.25	2224.09
814.42	2052.06
814.60	2189.28
814.77	2125.79
814.94	2136.03
815.12	2244.57
815.29	2385.88
815.46	2191.33
815.63	2179.04
815.81	2277.34
815.98	2113.50
816.15	2146.27
816.33	2160.61
816.50	2189.28
816.67	2176.99
816.84	2117.60
817.02	2111.46
817.19	2158.56
817.36	2226.14
817.53	2250.72
817.71	2099.17
817.88	2242.53
818.05	2179.04
818.22	2119.65
818.40	2406.36
818.57	2136.03
818.74	2236.38
818.91	2162.66
819.09	2256.86
819.26	2238.43
819.43	2156.51
819.60	2039.78
819.78	2168.80
819.95	2336.73
820.12	2133.98
820.29	2297.82
820.47	2252.77
820.64	2103.26
820.81	2019.30
820.98	2170.85
821.15	2199.52
821.33	2256.86
821.50	2031.58
821.67	2297.82
821.84	2168.80
822.02	2263.01
822.19	2314.20
822.36	2205.66
822.53	2170.85
822.70	2140.13
822.88	2117.60
823.05	2271.20
823.22	2142.18
823.39	2260.96
823.56	2269.15
823.74	2330.59
823.91	2080.74
824.08	2107.36
824.25	2111.46
824.42	2336.73
824.60	2117.60
824.77	2158.56
824.94	2217.95
825.11	2211.81
825.28	2025.44
825.45	2232.29
825.63	2248.67
825.80	2156.51
825.97	2277.34
826.14	2217.95
826.31	2029.54
826.48	2283.49
826.66	2152.42
826.83	2164.70
827.00	2168.80
827.17	2129.89
827.34	2136.03
827.51	2123.74
827.69	2158.56
827.86	2138.08
828.03	2127.84
828.20	2193.37
828.37	2156.51
828.54	2281.44
828.71	2127.84
828.89	2340.83
829.06	2238.43
829.23	2324.44
829.40	2033.63
829.57	2080.74
829.74	2293.72
829.91	2097.12
830.09	2168.80
830.26	2213.85
830.43	2422.75
830.60	2111.46
830.77	2211.81
830.94	2248.67
831.11	2228.19
831.28	2150.37
831.46	2342.88
831.63	2084.83
831.80	2289.63
831.97	2090.98
832.14	2154.46
832.31	2230.24
832.48	2215.90
832.65	2299.87
832.82	2111.46
832.99	2166.75
833.17	2050.02
833.34	2432.99
833.51	2146.27
833.68	2052.06
833.85	2295.77
834.02	2088.93
834.19	2043.87
834.36	2088.93
834.53	2185.18
834.70	2185.18
834.87	2185.18
835.04	2101.22
835.22	2127.84
835.39	2146.27
835.56	2103.26
835.73	2207.71
835.90	2234.33
836.07	2152.42
836.24	2258.91
836.41	2127.84
836.58	2076.64
836.75	2260.96
836.92	2252.77
837.09	2058.21
837.26	2275.29
837.43	2211.81
837.60	2144.22
837.77	2168.80
837.94	2236.38
838.12	2375.64
838.29	2166.75
838.46	2019.30
838.63	2088.93
838.80	2367.45
838.97	2207.71
839.14	2234.33
839.31	2205.66
839.48	2256.86
839.65	2131.94
839.82	2195.42
839.99	2156.51
840.16	2142.18
840.33	2129.89
840.50	2256.86
840.67	2068.45
840.84	2021.35
841.01	2172.89
841.18	2021.35
841.35	2209.76
841.52	2238.43
841.69	2342.88
841.86	2191.33
842.03	2168.80
842.20	2183.13
842.37	2160.61
842.54	2133.98
842.71	2170.85
842.88	2035.68
843.05	2189.28
843.22	2142.18
843.39	2293.72
843.56	2107.36
843.73	2142.18
843.90	2179.04
844.07	2199.52
844.24	2258.91
844.41	2179.04
844.58	2115.55
844.75	2273.25
844.92	2240.48
845.09	2138.08
845.26	2095.07
845.43	2236.38
845.60	2183.13
845.77	2254.81
845.94	2193.37
846.10	2267.10
846.27	2099.17
846.44	2150.37
846.61	2111.46
846.78	2236.38
846.95	2283.49
847.12	2146.27
847.29	2246.62
847.46	2129.89
847.63	2275.29
847.80	2123.74
847.97	2176.99
848.14	2406.36
848.31	2191.33
848.48	2029.54
848.65	2193.37
848.82	2119.65
848.98	2406.36
849.15	2238.43
849.32	2326.49
849.49	2273.25
849.66	2267.10
849.83	2136.03
850.00	2058.21
850.17	2263.01
850.34	2187.23
850.51	2076.64
850.68	2097.12
850.85	2334.68
851.01	2183.13
851.18	2125.79
851.35	2248.67
851.52	2207.71
851.69	2297.82
851.86	2002.91
852.03	2097.12
852.20	2252.77
852.37	2187.23
852.53	2045.92
852.70	2095.07
852.87	2215.90
853.04	2242.53
853.21	2076.64
853.38	2238.43
853.55	2340.83
853.72	2316.25
853.89	2062.30
854.05	2031.58
854.22	2152.42
854.39	2138.08
854.56	2152.42
854.73	2260.96
854.90	2129.89
855.07	2142.18
855.23	2082.78
855.40	2133.98
855.57	2181.09
855.74	1984.48
855.91	2310.11
856.08	2043.87
856.25	1982.43
856.41	2187.23
856.58	2080.74
856.75	2154.46
856.92	2146.27
857.09	2269.15
857.26	2013.15
857.42	2074.59
857.59	2244.57
857.76	2133.98
857.93	2193.37
858.10	2258.91
858.27	2203.61
858.43	2150.37
858.60	2105.31
858.77	2099.17
858.94	2131.94
859.11	2271.20
859.27	2191.33
859.44	2156.51
859.61	2379.74
859.78	2119.65
859.95	2189.28
860.12	2127.84
860.28	2389.98
860.45	2291.68
860.62	2160.61
860.79	2125.79
860.95	2179.04
861.12	2099.17
861.29	1988.58
861.46	2107.36
861.63	2242.53
861.79	2232.29
861.96	2090.98
862.13	2174.94
862.30	2363.36
862.47	2062.30
862.63	2140.13
862.80	2220.00
862.97	2310.11
863.14	2232.29
863.30	2220.00
863.47	2076.64
863.64	2316.25
863.81	2197.47
863.97	2076.64
864.14	2217.95
864.31	2174.94
864.48	2220.00
864.65	2078.69
864.81	2254.81
864.98	2146.27
865.15	2285.53
865.32	2162.66
865.48	2220.00
865.65	2332.64
865.82	2146.27
865.98	2234.33
866.15	2275.29
866.32	2148.32
866.49	2109.41
866.65	2336.73
866.82	2103.26
866.99	2154.46
867.16	2183.13
867.32	2109.41
867.49	2113.50
867.66	2248.67
867.83	2060.26
867.99	2060.26
868.16	2113.50
868.33	2078.69
868.49	2211.81
868.66	2140.13
868.83	2224.09
868.99	2187.23
869.16	2154.46
869.33	2197.47
869.50	2234.33
869.66	2228.19
869.83	2234.33
870.00	2099.17
870.16	2248.67
870.33	2207.71
870.50	2320.35
870.66	2138.08
870.83	2275.29
871.00	2203.61
871.17	2179.04
871.33	2162.66
871.50	2103.26
871.67	2136.03
871.83	2121.70
872.00	2285.53
872.17	2146.27
872.33	2349.02
872.50	2260.96
872.67	2136.03
872.83	2138.08
873.00	2129.89
873.17	2195.42
873.33	2279.39
873.50	2109.41
873.67	2086.88
873.83	2047.97
874.00	2207.71
874.16	2209.76
874.33	2193.37
874.50	2060.26
874.66	2146.27
874.83	2162.66
875.00	2301.92
875.16	2244.57
875.33	2236.38
875.50	2013.15
875.66	2121.70
875.83	2256.86
875.99	2209.76
876.16	2129.89
876.33	2138.08
876.49	2176.99
876.66	2207.71
876.83	2170.85
876.99	2080.74
877.16	2127.84
877.32	2162.66
877.49	2088.93
877.66	2230.24
877.82	2342.88
877.99	2193.37
878.15	2283.49
878.32	2242.53
878.49	2197.47
878.65	2144.22
878.82	2269.15
878.98	2154.46
879.15	2267.10
879.32	2265.05
879.48	2176.99
879.65	2228.19
879.81	2146.27
879.98	2076.64
880.15	2195.42
880.31	2279.39
880.48	2097.12
880.64	2195.42
880.81	2176.99
880.97	2359.26
881.14	2342.88
881.31	2082.78
881.47	2324.44
881.64	2162.66
881.80	2066.40
881.97	2199.52
882.13	2273.25
882.30	2035.68
882.47	2088.93
882.63	2068.45
882.80	2109.41
882.96	2133.98
883.13	2297.82
883.29	2142.18
883.46	2133.98
883.62	2396.12
883.79	2209.76
883.95	2273.25
884.12	2138.08
884.29	2236.38
884.45	2236.38
884.62	2203.61
884.78	2095.07
884.95	2260.96
885.11	2146.27
885.28	2209.76
885.44	2142.18
885.61	2232.29
885.77	2291.68
885.94	2244.57
886.10	2142.18
886.27	2269.15
886.43	2287.58
886.60	2263.01
886.76	2138.08
886.93	2099.17
887.09	2158.56
887.26	2095.07
887.42	2226.14
887.59	2269.15
887.75	2385.88
887.92	2308.06
888.08	2183.13
888.25	2322.40
888.41	2260.96
888.58	2168.80
888.74	2131.94
888.91	2072.54
>>>>>End Processed Spectral Data<<<<<
