SpectraSuite Data File
++++++++++++++++++++++++++++++++++++
Date: Thu May 05 12:35:36 CEST 2016
User: root
Dark Spectrum Present: No
Reference Spectrum Present: No
Number of Sampled Component Spectra: 1
Spectrometers: USB4C02835
Integration Time (usec): 100000 (USB4C02835)
Spectra Averaged: 1 (USB4C02835)
Boxcar Smoothing: 0 (USB4C02835)
Correct for Electrical Dark: No (USB4C02835)
Strobe/Lamp Enabled: No (USB4C02835)
Correct for Detector Non-linearity: No (USB4C02835)
Correct for Stray Light: No (USB4C02835)
Number of Pixels in Processed Spectrum: 3648
>>>>>Begin Processed Spectral Data<<<<<
177.47	1806.31
177.69	1806.31
177.91	1806.31
178.13	1753.06
178.36	1728.49
178.58	2090.98
178.80	2195.42
179.02	2121.70
179.24	2146.27
179.46	2037.73
179.68	2172.89
179.90	2170.85
180.13	2226.14
180.35	2056.16
180.57	2078.69
180.79	2244.57
181.01	2189.28
181.23	2187.23
181.45	2246.62
181.67	2242.53
181.90	2297.82
182.12	2144.22
182.34	2170.85
182.56	2265.05
182.78	2258.91
183.00	2117.60
183.22	2093.02
183.44	2039.78
183.66	2420.70
183.89	2228.19
184.11	2101.22
184.33	2285.53
184.55	2281.44
184.77	2142.18
184.99	2193.37
185.21	2170.85
185.43	2375.64
185.65	2142.18
185.87	2156.51
186.10	2457.56
186.32	2424.80
186.54	2185.18
186.76	2103.26
186.98	2281.44
187.20	2181.09
187.42	2070.50
187.64	2166.75
187.86	2203.61
188.08	2242.53
188.30	2113.50
188.52	2088.93
188.75	2344.92
188.97	2250.72
189.19	2043.87
189.41	2117.60
189.63	2285.53
189.85	2170.85
190.07	2086.88
190.29	2019.30
190.51	2217.95
190.73	2047.97
190.95	2312.16
191.17	2172.89
191.39	2113.50
191.61	2193.37
191.84	2207.71
192.06	2215.90
192.28	2103.26
192.50	2441.18
192.72	2220.00
192.94	2097.12
193.16	2275.29
193.38	2260.96
193.60	2072.54
193.82	2107.36
194.04	2258.91
194.26	2258.91
194.48	2136.03
194.70	2107.36
194.92	2109.41
195.14	2197.47
195.36	2101.22
195.58	2125.79
195.80	2166.75
196.02	2168.80
196.24	2078.69
196.46	2150.37
196.69	2111.46
196.91	2412.51
197.13	2131.94
197.35	2144.22
197.57	2299.87
197.79	2265.05
198.01	2176.99
198.23	2158.56
198.45	2263.01
198.67	2111.46
198.89	2025.44
199.11	2146.27
199.33	2131.94
199.55	2023.39
199.77	2101.22
199.99	2324.44
200.21	2164.70
200.43	2269.15
200.65	2113.50
200.87	1916.90
201.09	2164.70
201.31	2103.26
201.53	2144.22
201.75	2211.81
201.97	2260.96
202.19	2127.84
202.41	2183.13
202.63	2293.72
202.85	2150.37
203.07	2246.62
203.29	2144.22
203.51	2076.64
203.73	2086.88
203.95	2482.14
204.17	2156.51
204.39	2181.09
204.61	2144.22
204.83	2156.51
205.05	2248.67
205.27	2209.76
205.49	2367.45
205.71	2154.46
205.93	2007.01
206.15	2088.93
206.37	2203.61
206.59	2172.89
206.81	2088.93
207.03	2023.39
207.25	2107.36
207.47	2215.90
207.69	2152.42
207.91	2328.54
208.13	2385.88
208.34	2103.26
208.56	2103.26
208.78	2174.94
209.00	2164.70
209.22	2154.46
209.44	2101.22
209.66	2127.84
209.88	2213.85
210.10	2146.27
210.32	2070.50
210.54	2222.05
210.76	2195.42
210.98	2340.83
211.20	1970.15
211.42	2142.18
211.64	2322.40
211.86	2209.76
212.08	2179.04
212.30	2111.46
212.52	2127.84
212.74	2172.89
212.96	2205.66
213.17	2176.99
213.39	2269.15
213.61	2340.83
213.83	2144.22
214.05	2129.89
214.27	2324.44
214.49	2101.22
214.71	2039.78
214.93	2189.28
215.15	2267.10
215.37	2209.76
215.59	1982.43
215.81	2220.00
216.03	2330.59
216.24	2144.22
216.46	2144.22
216.68	2117.60
216.90	2269.15
217.12	2308.06
217.34	2121.70
217.56	2119.65
217.78	2293.72
218.00	2322.40
218.22	2176.99
218.44	2176.99
218.66	2260.96
218.87	2373.60
219.09	2113.50
219.31	2136.03
219.53	2195.42
219.75	2170.85
219.97	2170.85
220.19	2222.05
220.41	2201.57
220.63	2324.44
220.85	2164.70
221.06	2084.83
221.28	2334.68
221.50	2277.34
221.72	2138.08
221.94	2103.26
222.16	2234.33
222.38	2289.63
222.60	2193.37
222.82	2086.88
223.03	2220.00
223.25	2107.36
223.47	2125.79
223.69	2201.57
223.91	2265.05
224.13	2195.42
224.35	2062.30
224.57	2209.76
224.78	2115.55
225.00	2082.78
225.22	2213.85
225.44	2185.18
225.66	2205.66
225.88	2168.80
226.10	2179.04
226.32	2115.55
226.53	2293.72
226.75	2121.70
226.97	2111.46
227.19	2199.52
227.41	2121.70
227.63	2189.28
227.85	1970.15
228.06	2158.56
228.28	2133.98
228.50	2318.30
228.72	2027.49
228.94	2133.98
229.16	1998.82
229.37	2068.45
229.59	2021.35
229.81	2232.29
230.03	2109.41
230.25	2009.06
230.47	2007.01
230.69	2047.97
230.90	2236.38
231.12	2197.47
231.34	2185.18
231.56	2213.85
231.78	2097.12
232.00	2181.09
232.21	2129.89
232.43	2125.79
232.65	2015.20
232.87	2281.44
233.09	2088.93
233.30	2101.22
233.52	2277.34
233.74	2154.46
233.96	2113.50
234.18	2191.33
234.40	2201.57
234.61	2422.75
234.83	2037.73
235.05	2017.25
235.27	2463.71
235.49	2275.29
235.70	2078.69
235.92	2179.04
236.14	2215.90
236.36	2355.16
236.58	2068.45
236.79	2293.72
237.01	2146.27
237.23	2199.52
237.45	2277.34
237.67	1998.82
237.88	2152.42
238.10	2400.22
238.32	2039.78
238.54	2117.60
238.76	2232.29
238.97	2019.30
239.19	2058.21
239.41	2154.46
239.63	2295.77
239.85	2080.74
240.06	2238.43
240.28	2068.45
240.50	2340.83
240.72	2220.00
240.93	2080.74
241.15	2267.10
241.37	2187.23
241.59	2277.34
241.81	2121.70
242.02	2138.08
242.24	2275.29
242.46	2273.25
242.68	2009.06
242.89	2068.45
243.11	2244.57
243.33	2207.71
243.55	2140.13
243.76	2179.04
243.98	2103.26
244.20	2275.29
244.42	2123.74
244.64	2195.42
244.85	2074.59
245.07	2131.94
245.29	2117.60
245.51	2201.57
245.72	2191.33
245.94	2396.12
246.16	2144.22
246.38	2201.57
246.59	2133.98
246.81	2056.16
247.03	2062.30
247.24	2125.79
247.46	2150.37
247.68	2283.49
247.90	2082.78
248.11	2129.89
248.33	2265.05
248.55	2242.53
248.77	2160.61
248.98	2234.33
249.20	2301.92
249.42	2170.85
249.64	2129.89
249.85	2111.46
250.07	2185.18
250.29	2271.20
250.50	2113.50
250.72	2088.93
250.94	2240.48
251.16	2398.17
251.37	2228.19
251.59	2201.57
251.81	2224.09
252.02	2271.20
252.24	1998.82
252.46	2121.70
252.68	2078.69
252.89	2168.80
253.11	2056.16
253.33	2228.19
253.54	2371.55
253.76	2072.54
253.98	2056.16
254.20	2164.70
254.41	2041.82
254.63	2211.81
254.85	2074.59
255.06	2174.94
255.28	2222.05
255.50	2168.80
255.71	2160.61
255.93	2068.45
256.15	2144.22
256.36	2283.49
256.58	2107.36
256.80	2140.13
257.02	2097.12
257.23	2154.46
257.45	2152.42
257.67	2164.70
257.88	2150.37
258.10	2260.96
258.32	2176.99
258.53	2160.61
258.75	2310.11
258.97	2133.98
259.18	2084.83
259.40	2136.03
259.62	2398.17
259.83	2375.64
260.05	2185.18
260.27	2582.49
260.48	2346.97
260.70	2125.79
260.92	2129.89
261.13	2162.66
261.35	2258.91
261.57	2224.09
261.78	1984.48
262.00	2052.06
262.22	2250.72
262.43	2109.41
262.65	2131.94
262.86	2140.13
263.08	2469.85
263.30	2187.23
263.51	2021.35
263.73	2080.74
263.95	2314.20
264.16	2154.46
264.38	2062.30
264.60	2084.83
264.81	2209.76
265.03	2324.44
265.25	2283.49
265.46	2119.65
265.68	2293.72
265.89	2197.47
266.11	2117.60
266.33	2119.65
266.54	2263.01
266.76	2220.00
266.98	2193.37
267.19	2250.72
267.41	2252.77
267.62	2121.70
267.84	2017.25
268.06	2150.37
268.27	2197.47
268.49	2308.06
268.70	2242.53
268.92	2101.22
269.14	2047.97
269.35	2074.59
269.57	2109.41
269.79	2181.09
270.00	2146.27
270.22	2353.12
270.43	2099.17
270.65	1955.81
270.87	2127.84
271.08	2256.86
271.30	2199.52
271.51	2152.42
271.73	2232.29
271.95	2283.49
272.16	2185.18
272.38	2158.56
272.59	2109.41
272.81	2271.20
273.02	2174.94
273.24	2162.66
273.46	2336.73
273.67	2076.64
273.89	2054.11
274.10	2105.31
274.32	2285.53
274.54	2164.70
274.75	2185.18
274.97	2154.46
275.18	2215.90
275.40	2267.10
275.61	2217.95
275.83	2203.61
276.05	2121.70
276.26	2191.33
276.48	2232.29
276.69	2174.94
276.91	2121.70
277.12	2318.30
277.34	2269.15
277.55	2271.20
277.77	2142.18
277.99	2213.85
278.20	2115.55
278.42	2095.07
278.63	2113.50
278.85	2111.46
279.06	2062.30
279.28	2301.92
279.49	2273.25
279.71	2306.01
279.93	2166.75
280.14	2125.79
280.36	2146.27
280.57	2252.77
280.79	2263.01
281.00	2109.41
281.22	2162.66
281.43	2293.72
281.65	1990.63
281.86	2117.60
282.08	2228.19
282.29	2351.07
282.51	2076.64
282.73	2033.63
282.94	2009.06
283.16	2269.15
283.37	2297.82
283.59	2111.46
283.80	2217.95
284.02	2195.42
284.23	2189.28
284.45	2146.27
284.66	2015.20
284.88	2095.07
285.09	2138.08
285.31	2230.24
285.52	2162.66
285.74	2074.59
285.95	2248.67
286.17	2252.77
286.38	2277.34
286.60	2152.42
286.81	2099.17
287.03	2129.89
287.24	2238.43
287.46	2308.06
287.67	2232.29
287.89	2373.60
288.10	2205.66
288.32	2154.46
288.53	2334.68
288.75	2234.33
288.96	2254.81
289.18	2250.72
289.39	2113.50
289.61	2293.72
289.82	2394.08
290.04	2351.07
290.25	2052.06
290.47	2215.90
290.68	2140.13
290.90	2301.92
291.11	2007.01
291.33	2224.09
291.54	2058.21
291.76	2179.04
291.97	2121.70
292.18	2201.57
292.40	2160.61
292.61	2164.70
292.83	2373.60
293.04	2138.08
293.26	2279.39
293.47	2174.94
293.69	2125.79
293.90	2222.05
294.12	2267.10
294.33	2191.33
294.55	2144.22
294.76	2265.05
294.97	2301.92
295.19	2355.16
295.40	2119.65
295.62	2234.33
295.83	2303.96
296.05	2072.54
296.26	2301.92
296.48	2101.22
296.69	2260.96
296.90	2154.46
297.12	2244.57
297.33	2318.30
297.55	2187.23
297.76	2351.07
297.98	2308.06
298.19	2209.76
298.41	2236.38
298.62	2007.01
298.83	2306.01
299.05	2203.61
299.26	2150.37
299.48	2125.79
299.69	2209.76
299.90	2131.94
300.12	2109.41
300.33	2375.64
300.55	2260.96
300.76	2258.91
300.98	2105.31
301.19	2197.47
301.40	2179.04
301.62	2144.22
301.83	2195.42
302.05	2291.68
302.26	2179.04
302.47	2199.52
302.69	2148.32
302.90	2179.04
303.12	2039.78
303.33	2179.04
303.54	2367.45
303.76	2185.18
303.97	2164.70
304.19	2346.97
304.40	2144.22
304.61	2263.01
304.83	2301.92
305.04	2226.14
305.26	2250.72
305.47	2187.23
305.68	2162.66
305.90	2099.17
306.11	2312.16
306.33	2072.54
306.54	2121.70
306.75	2193.37
306.97	2027.49
307.18	2105.31
307.39	2152.42
307.61	2281.44
307.82	2224.09
308.04	2240.48
308.25	2150.37
308.46	2252.77
308.68	2168.80
308.89	2176.99
309.10	2279.39
309.32	2183.13
309.53	2142.18
309.74	2314.20
309.96	2133.98
310.17	2293.72
310.39	2070.50
310.60	2179.04
310.81	2230.24
311.03	2015.20
311.24	2359.26
311.45	2156.51
311.67	2322.40
311.88	2181.09
312.09	2150.37
312.31	2156.51
312.52	2146.27
312.73	2195.42
312.95	2043.87
313.16	2181.09
313.37	2310.11
313.59	2179.04
313.80	2248.67
314.01	2416.60
314.23	2101.22
314.44	2136.03
314.65	2105.31
314.87	2121.70
315.08	2111.46
315.29	2107.36
315.51	2117.60
315.72	2160.61
315.93	2269.15
316.15	2252.77
316.36	2119.65
316.57	2154.46
316.79	2203.61
317.00	2209.76
317.21	2275.29
317.43	2156.51
317.64	2203.61
317.85	2093.02
318.07	2148.32
318.28	2127.84
318.49	2342.88
318.70	2455.51
318.92	2349.02
319.13	2351.07
319.34	2318.30
319.56	2224.09
319.77	2367.45
319.98	2369.50
320.20	2312.16
320.41	2287.58
320.62	2265.05
320.83	2138.08
321.05	2414.56
321.26	2211.81
321.47	2222.05
321.69	2273.25
321.90	2088.93
322.11	2215.90
322.32	2234.33
322.54	2392.03
322.75	2172.89
322.96	2570.20
323.18	2047.97
323.39	2015.20
323.60	2121.70
323.81	2279.39
324.03	2215.90
324.24	2129.89
324.45	2207.71
324.66	2136.03
324.88	2336.73
325.09	2297.82
325.30	2265.05
325.52	2195.42
325.73	2154.46
325.94	2080.74
326.15	2035.68
326.37	2160.61
326.58	2291.68
326.79	2435.03
327.00	2129.89
327.22	2154.46
327.43	2138.08
327.64	2152.42
327.85	2144.22
328.07	2181.09
328.28	2363.36
328.49	2152.42
328.70	2174.94
328.92	2193.37
329.13	2183.13
329.34	2179.04
329.55	2359.26
329.76	2312.16
329.98	2179.04
330.19	2269.15
330.40	2176.99
330.61	2191.33
330.83	2248.67
331.04	2111.46
331.25	2203.61
331.46	2136.03
331.68	2064.35
331.89	2385.88
332.10	2203.61
332.31	2093.02
332.52	2179.04
332.74	2326.49
332.95	2058.21
333.16	2187.23
333.37	2316.25
333.58	2193.37
333.80	2246.62
334.01	2084.83
334.22	2224.09
334.43	2136.03
334.64	2107.36
334.86	2064.35
335.07	2086.88
335.28	2369.50
335.49	2070.50
335.70	2301.92
335.92	2287.58
336.13	2437.08
336.34	2246.62
336.55	2170.85
336.76	2195.42
336.98	2103.26
337.19	2129.89
337.40	2322.40
337.61	2414.56
337.82	2170.85
338.04	2275.29
338.25	2015.20
338.46	2150.37
338.67	2179.04
338.88	2125.79
339.09	2078.69
339.31	2154.46
339.52	2080.74
339.73	2023.39
339.94	2142.18
340.15	2238.43
340.36	2097.12
340.58	2291.68
340.79	1994.72
341.00	2215.90
341.21	2166.75
341.42	2295.77
341.63	2138.08
341.85	2301.92
342.06	2191.33
342.27	2078.69
342.48	2193.37
342.69	2176.99
342.90	2220.00
343.12	2316.25
343.33	2136.03
343.54	2258.91
343.75	2357.21
343.96	2160.61
344.17	2127.84
344.38	2252.77
344.60	2162.66
344.81	2125.79
345.02	2109.41
345.23	2330.59
345.44	2465.75
345.65	2258.91
345.86	2265.05
346.07	2148.32
346.29	2154.46
346.50	2174.94
346.71	2285.53
346.92	2414.56
347.13	2318.30
347.34	2084.83
347.55	2168.80
347.76	2246.62
347.98	2019.30
348.19	2209.76
348.40	2224.09
348.61	2176.99
348.82	2279.39
349.03	2244.57
349.24	2172.89
349.45	2303.96
349.66	1943.52
349.88	2248.67
350.09	2150.37
350.30	2275.29
350.51	2240.48
350.72	2201.57
350.93	2224.09
351.14	2154.46
351.35	2203.61
351.56	2211.81
351.77	2211.81
351.99	2293.72
352.20	2402.27
352.41	2303.96
352.62	2029.54
352.83	2281.44
353.04	2138.08
353.25	2217.95
353.46	2248.67
353.67	2277.34
353.88	2045.92
354.09	2222.05
354.30	2101.22
354.52	2193.37
354.73	2209.76
354.94	2131.94
355.15	2166.75
355.36	2283.49
355.57	2176.99
355.78	2131.94
355.99	2148.32
356.20	2105.31
356.41	2326.49
356.62	2246.62
356.83	2215.90
357.04	2326.49
357.25	2064.35
357.46	2152.42
357.68	2068.45
357.89	2109.41
358.10	2258.91
358.31	2138.08
358.52	2172.89
358.73	2113.50
358.94	2195.42
359.15	2060.26
359.36	2271.20
359.57	2244.57
359.78	2215.90
359.99	2220.00
360.20	2056.16
360.41	2189.28
360.62	2240.48
360.83	2187.23
361.04	2199.52
361.25	2187.23
361.46	2326.49
361.67	2203.61
361.88	2220.00
362.09	2297.82
362.30	2260.96
362.51	2160.61
362.72	2215.90
362.93	2254.81
363.14	2242.53
363.35	2277.34
363.56	2133.98
363.78	2293.72
363.99	2295.77
364.20	2187.23
364.41	2129.89
364.62	2373.60
364.83	2197.47
365.04	2162.66
365.25	2191.33
365.46	2408.41
365.67	2068.45
365.88	2267.10
366.09	2205.66
366.30	2154.46
366.51	2234.33
366.72	2078.69
366.93	2136.03
367.14	2170.85
367.35	2328.54
367.56	2154.46
367.77	2291.68
367.98	2260.96
368.18	2361.31
368.39	2209.76
368.60	2117.60
368.81	2250.72
369.02	2199.52
369.23	2222.05
369.44	2084.83
369.65	2226.14
369.86	2205.66
370.07	2230.24
370.28	2095.07
370.49	2273.25
370.70	2187.23
370.91	2086.88
371.12	2101.22
371.33	2252.77
371.54	2211.81
371.75	2291.68
371.96	1998.82
372.17	2228.19
372.38	2185.18
372.59	2258.91
372.80	2129.89
373.01	2201.57
373.22	2297.82
373.43	2185.18
373.64	2060.26
373.85	2351.07
374.06	2314.20
374.26	2271.20
374.47	2176.99
374.68	2301.92
374.89	2220.00
375.10	2176.99
375.31	2256.86
375.52	2226.14
375.73	2209.76
375.94	2058.21
376.15	2375.64
376.36	2146.27
376.57	2121.70
376.78	2185.18
376.99	2265.05
377.20	2310.11
377.40	2107.36
377.61	2326.49
377.82	2072.54
378.03	2377.69
378.24	2400.22
378.45	2154.46
378.66	2234.33
378.87	2068.45
379.08	2070.50
379.29	2080.74
379.50	2297.82
379.71	2144.22
379.91	2123.74
380.12	2105.31
380.33	2230.24
380.54	2201.57
380.75	2125.79
380.96	2185.18
381.17	2234.33
381.38	2232.29
381.59	2207.71
381.80	2220.00
382.00	2346.97
382.21	2349.02
382.42	2320.35
382.63	2430.94
382.84	2183.13
383.05	2375.64
383.26	2365.40
383.47	2201.57
383.68	2187.23
383.88	2230.24
384.09	2197.47
384.30	2371.55
384.51	2170.85
384.72	2158.56
384.93	2150.37
385.14	2189.28
385.35	2334.68
385.55	2027.49
385.76	2273.25
385.97	2131.94
386.18	2025.44
386.39	2080.74
386.60	2181.09
386.81	2146.27
387.02	2103.26
387.22	2025.44
387.43	2308.06
387.64	2303.96
387.85	2342.88
388.06	2490.33
388.27	4065.22
388.48	8490.88
388.68	12132.17
388.89	14440.23
389.10	15488.79
389.31	14575.39
389.52	11226.96
389.73	9770.86
389.93	8863.61
390.14	8128.39
390.35	7333.78
390.56	6469.53
390.77	5167.03
390.98	4097.99
391.18	3225.55
391.39	2639.83
391.60	2357.21
391.81	2334.68
392.02	2121.70
392.23	2424.80
392.43	2179.04
392.64	2400.22
392.85	2170.85
393.06	2383.84
393.27	2258.91
393.47	2197.47
393.68	2209.76
393.89	2166.75
394.10	2250.72
394.31	2168.80
394.52	2121.70
394.72	2193.37
394.93	2357.21
395.14	2105.31
395.35	2355.16
395.56	2172.89
395.76	2211.81
395.97	2213.85
396.18	2256.86
396.39	2342.88
396.60	2684.89
396.80	2375.64
397.01	2437.08
397.22	2381.79
397.43	2291.68
397.64	2115.55
397.84	2324.44
398.05	2490.33
398.26	2275.29
398.47	2342.88
398.67	2289.63
398.88	2252.77
399.09	2236.38
399.30	2187.23
399.51	2269.15
399.71	2172.89
399.92	2226.14
400.13	2246.62
400.34	2160.61
400.54	2256.86
400.75	2406.36
400.96	2310.11
401.17	2359.26
401.37	2244.57
401.58	2170.85
401.79	2220.00
402.00	2324.44
402.21	2602.97
402.41	2539.48
402.62	2588.63
402.83	2674.65
403.04	2650.07
403.24	2801.62
403.45	2387.93
403.66	2465.75
403.87	2424.80
404.07	2408.41
404.28	2428.89
404.49	2467.80
404.70	2308.06
404.90	2254.81
405.11	2232.29
405.32	2224.09
405.52	2160.61
405.73	2093.02
405.94	2086.88
406.15	2197.47
406.35	2291.68
406.56	2236.38
406.77	2267.10
406.98	2095.07
407.18	2115.55
407.39	2379.74
407.60	2187.23
407.80	2228.19
408.01	2197.47
408.22	2187.23
408.43	2117.60
408.63	2312.16
408.84	2277.34
409.05	2322.40
409.25	2170.85
409.46	2072.54
409.67	2117.60
409.88	2113.50
410.08	2220.00
410.29	2162.66
410.50	2277.34
410.70	2201.57
410.91	2113.50
411.12	2197.47
411.32	2199.52
411.53	2084.83
411.74	2289.63
411.95	2252.77
412.15	2275.29
412.36	2267.10
412.57	2287.58
412.77	2363.36
412.98	2252.77
413.19	2220.00
413.39	2293.72
413.60	2230.24
413.81	2310.11
414.01	2086.88
414.22	2215.90
414.43	2295.77
414.63	2113.50
414.84	2303.96
415.05	2248.67
415.25	2107.36
415.46	2250.72
415.67	2197.47
415.87	2195.42
416.08	2215.90
416.29	2138.08
416.49	2195.42
416.70	2187.23
416.91	2174.94
417.11	2217.95
417.32	2310.11
417.53	2285.53
417.73	2172.89
417.94	2154.46
418.15	2314.20
418.35	2144.22
418.56	2207.71
418.77	2480.09
418.97	2170.85
419.18	2193.37
419.38	1966.05
419.59	2201.57
419.80	2301.92
420.00	2183.13
420.21	2242.53
420.42	2287.58
420.62	2283.49
420.83	2187.23
421.04	2166.75
421.24	2113.50
421.45	2248.67
421.65	2303.96
421.86	2162.66
422.07	2263.01
422.27	2306.01
422.48	2203.61
422.69	2084.83
422.89	2256.86
423.10	2189.28
423.30	2078.69
423.51	2207.71
423.72	2267.10
423.92	2324.44
424.13	2095.07
424.33	2236.38
424.54	2326.49
424.75	2226.14
424.95	2318.30
425.16	2181.09
425.36	2170.85
425.57	2256.86
425.78	2252.77
425.98	2293.72
426.19	2176.99
426.39	2039.78
426.60	2160.61
426.81	2363.36
427.01	2232.29
427.22	2105.31
427.42	2054.11
427.63	2160.61
427.83	2252.77
428.04	2428.89
428.25	2416.60
428.45	2310.11
428.66	2260.96
428.86	2164.70
429.07	2127.84
429.28	2244.57
429.48	2150.37
429.69	2090.98
429.89	2217.95
430.10	2027.49
430.30	2265.05
430.51	2338.78
430.71	2170.85
430.92	2125.79
431.13	2138.08
431.33	2248.67
431.54	2234.33
431.74	2351.07
431.95	2418.65
432.15	2090.98
432.36	2152.42
432.56	2369.50
432.77	2322.40
432.98	2342.88
433.18	2240.48
433.39	2125.79
433.59	2179.04
433.80	2281.44
434.00	2428.89
434.21	2160.61
434.41	2093.02
434.62	2461.66
434.82	2074.59
435.03	2054.11
435.23	2242.53
435.44	1978.34
435.64	2211.81
435.85	2193.37
436.06	2291.68
436.26	2285.53
436.47	2228.19
436.67	2078.69
436.88	2168.80
437.08	2314.20
437.29	2256.86
437.49	2310.11
437.70	2322.40
437.90	2236.38
438.11	2398.17
438.31	2271.20
438.52	2342.88
438.72	2398.17
438.93	2447.32
439.13	2357.21
439.34	2340.83
439.54	2244.57
439.75	2234.33
439.95	2277.34
440.16	2209.76
440.36	2269.15
440.57	2236.38
440.77	2166.75
440.98	2263.01
441.18	2209.76
441.39	2068.45
441.59	2029.54
441.80	2492.38
442.00	2199.52
442.21	2265.05
442.41	2084.83
442.62	2271.20
442.82	2119.65
443.02	2150.37
443.23	2246.62
443.43	2228.19
443.64	2344.92
443.84	2086.88
444.05	2346.97
444.25	2269.15
444.46	2166.75
444.66	2183.13
444.87	2324.44
445.07	2138.08
445.28	2144.22
445.48	2355.16
445.69	2224.09
445.89	2459.61
446.09	2246.62
446.30	2480.09
446.50	2901.97
446.71	4485.05
446.91	5603.24
447.12	6295.46
447.32	6649.75
447.53	6156.19
447.73	5107.63
447.93	4415.42
448.14	4274.11
448.34	4050.88
448.55	3577.80
448.75	3434.44
448.96	3407.82
449.16	2924.50
449.36	2838.48
449.57	2490.33
449.77	2363.36
449.98	2244.57
450.18	2293.72
450.39	2277.34
450.59	2263.01
450.79	2176.99
451.00	2176.99
451.20	2285.53
451.41	2244.57
451.61	2260.96
451.81	2254.81
452.02	2195.42
452.22	2179.04
452.43	2138.08
452.63	2181.09
452.84	2242.53
453.04	2162.66
453.24	2205.66
453.45	2158.56
453.65	2220.00
453.86	2232.29
454.06	2238.43
454.26	2244.57
454.47	2170.85
454.67	2338.78
454.87	2228.19
455.08	2154.46
455.28	2301.92
455.49	2224.09
455.69	2172.89
455.89	2375.64
456.10	2316.25
456.30	2174.94
456.51	2310.11
456.71	2220.00
456.91	2228.19
457.12	2136.03
457.32	2185.18
457.52	2109.41
457.73	2113.50
457.93	2240.48
458.14	2119.65
458.34	2076.64
458.54	2187.23
458.75	2152.42
458.95	2244.57
459.15	2275.29
459.36	2242.53
459.56	2260.96
459.76	2392.03
459.97	2183.13
460.17	2152.42
460.37	2301.92
460.58	2236.38
460.78	2263.01
460.99	2113.50
461.19	2193.37
461.39	2158.56
461.60	2136.03
461.80	2289.63
462.00	2125.79
462.21	2199.52
462.41	2095.07
462.61	2000.87
462.82	2090.98
463.02	2314.20
463.22	2244.57
463.43	2273.25
463.63	2234.33
463.83	2285.53
464.04	2217.95
464.24	2207.71
464.44	2093.02
464.64	2265.05
464.85	2326.49
465.05	2267.10
465.25	2215.90
465.46	2170.85
465.66	2312.16
465.86	2252.77
466.07	2267.10
466.27	2269.15
466.47	2062.30
466.68	2047.97
466.88	2351.07
467.08	2236.38
467.29	2269.15
467.49	2277.34
467.69	2158.56
467.89	2293.72
468.10	2162.66
468.30	2236.38
468.50	2351.07
468.71	2250.72
468.91	2133.98
469.11	2310.11
469.31	2250.72
469.52	2076.64
469.72	2392.03
469.92	2400.22
470.13	2197.47
470.33	2320.35
470.53	2340.83
470.73	2570.20
470.94	3053.52
471.14	3149.78
471.34	3594.19
471.54	3405.77
471.75	3098.58
471.95	2840.53
472.15	2770.90
472.36	2783.19
472.56	2652.12
472.76	2768.85
472.96	2631.64
473.17	2498.52
473.37	2420.70
473.57	2332.64
473.77	2254.81
473.98	2281.44
474.18	2195.42
474.38	2469.85
474.58	2170.85
474.79	2193.37
474.99	2230.24
475.19	2293.72
475.39	2148.32
475.60	2289.63
475.80	2242.53
476.00	2254.81
476.20	2084.83
476.41	2168.80
476.61	2326.49
476.81	2310.11
477.01	2107.36
477.21	2359.26
477.42	2377.69
477.62	2097.12
477.82	2351.07
478.02	2181.09
478.23	2254.81
478.43	2136.03
478.63	2166.75
478.83	2201.57
479.03	2142.18
479.24	2310.11
479.44	2392.03
479.64	2103.26
479.84	2013.15
480.04	2162.66
480.25	2277.34
480.45	2136.03
480.65	2111.46
480.85	2308.06
481.06	2148.32
481.26	2228.19
481.46	2242.53
481.66	2269.15
481.86	2181.09
482.06	2240.48
482.27	2168.80
482.47	2129.89
482.67	2269.15
482.87	2152.42
483.07	2357.21
483.28	2129.89
483.48	2056.16
483.68	2197.47
483.88	2097.12
484.08	2019.30
484.29	2113.50
484.49	2260.96
484.69	2129.89
484.89	2349.02
485.09	2324.44
485.29	2287.58
485.50	2312.16
485.70	2144.22
485.90	2291.68
486.10	2220.00
486.30	2195.42
486.50	2271.20
486.71	2228.19
486.91	2256.86
487.11	2279.39
487.31	2066.40
487.51	2179.04
487.71	2131.94
487.91	2162.66
488.12	2113.50
488.32	1964.00
488.52	2109.41
488.72	1968.10
488.92	2240.48
489.12	2269.15
489.32	2322.40
489.53	2258.91
489.73	2045.92
489.93	2412.51
490.13	2258.91
490.33	2000.87
490.53	2195.42
490.73	2289.63
490.94	2113.50
491.14	2281.44
491.34	2342.88
491.54	2506.71
491.74	3082.19
491.94	3719.11
492.14	4026.31
492.34	4014.02
492.54	3715.02
492.75	3268.56
492.95	3190.74
493.15	2990.03
493.35	2867.16
493.55	2805.72
493.75	2686.94
493.95	2746.33
494.15	2553.82
494.35	2396.12
494.56	2269.15
494.76	2193.37
494.96	2277.34
495.16	2240.48
495.36	2232.29
495.56	2187.23
495.76	2166.75
495.96	2183.13
496.16	2195.42
496.36	2389.98
496.56	2183.13
496.77	2193.37
496.97	2277.34
497.17	2279.39
497.37	2109.41
497.57	2256.86
497.77	2203.61
497.97	2101.22
498.17	2224.09
498.37	2125.79
498.57	2357.21
498.77	2164.70
498.97	2293.72
499.17	2402.27
499.38	2224.09
499.58	2183.13
499.78	2334.68
499.98	2312.16
500.18	2152.42
500.38	2148.32
500.58	2400.22
500.78	2834.39
500.98	5087.15
501.18	7278.48
501.38	8912.76
501.58	9789.29
501.78	9506.67
501.98	7700.36
502.18	6451.10
502.38	5402.54
502.58	5132.21
502.78	4644.79
502.98	4507.58
503.18	4208.58
503.38	3987.40
503.59	3436.49
503.79	3248.08
503.99	2932.69
504.19	2801.62
504.39	2834.39
504.59	2858.96
504.79	2791.38
504.99	2809.81
505.19	2600.92
505.39	2437.08
505.59	2680.79
505.79	2547.67
505.99	2412.51
506.19	2326.49
506.39	2453.47
506.59	2236.38
506.79	2250.72
506.99	2334.68
507.19	2242.53
507.39	2254.81
507.59	2109.41
507.79	2185.18
507.99	2111.46
508.19	2174.94
508.39	2236.38
508.59	2211.81
508.79	2396.12
508.99	2459.61
509.19	2064.35
509.39	2299.87
509.59	2058.21
509.79	2191.33
509.99	2211.81
510.19	2303.96
510.39	2263.01
510.59	2254.81
510.79	2133.98
510.99	2088.93
511.19	2250.72
511.39	2353.12
511.59	2301.92
511.79	2301.92
511.99	2334.68
512.19	2430.94
512.38	2189.28
512.58	2140.13
512.78	2193.37
512.98	2267.10
513.18	2383.84
513.38	2058.21
513.58	2265.05
513.78	2164.70
513.98	2179.04
514.18	2142.18
514.38	2209.76
514.58	2273.25
514.78	2056.16
514.98	2082.78
515.18	2244.57
515.38	2215.90
515.58	2426.84
515.78	2109.41
515.98	2203.61
516.18	2330.59
516.38	2148.32
516.57	2168.80
516.77	2144.22
516.97	2275.29
517.17	2201.57
517.37	2013.15
517.57	2263.01
517.77	2201.57
517.97	2090.98
518.17	2232.29
518.37	2127.84
518.57	2109.41
518.77	2242.53
518.97	2209.76
519.16	2215.90
519.36	2242.53
519.56	2156.51
519.76	2234.33
519.96	2215.90
520.16	2394.08
520.36	2222.05
520.56	2277.34
520.76	2195.42
520.96	2205.66
521.16	2258.91
521.35	2281.44
521.55	2359.26
521.75	2250.72
521.95	2170.85
522.15	2140.13
522.35	2125.79
522.55	2140.13
522.75	2275.29
522.95	2160.61
523.14	2179.04
523.34	2252.77
523.54	2207.71
523.74	2320.35
523.94	2234.33
524.14	2056.16
524.34	2234.33
524.54	2430.94
524.73	2154.46
524.93	2334.68
525.13	2158.56
525.33	2117.60
525.53	2428.89
525.73	2359.26
525.93	2267.10
526.13	2211.81
526.32	2176.99
526.52	2344.92
526.72	2289.63
526.92	2105.31
527.12	2150.37
527.32	2097.12
527.52	2265.05
527.71	2189.28
527.91	2199.52
528.11	2220.00
528.31	2199.52
528.51	2101.22
528.71	2209.76
528.90	2224.09
529.10	2322.40
529.30	2328.54
529.50	2007.01
529.70	2160.61
529.90	2254.81
530.09	2209.76
530.29	2080.74
530.49	2113.50
530.69	2428.89
530.89	2265.05
531.09	2258.91
531.28	2176.99
531.48	2306.01
531.68	2201.57
531.88	2238.43
532.08	2281.44
532.28	2123.74
532.47	2293.72
532.67	2273.25
532.87	2316.25
533.07	2101.22
533.27	2334.68
533.46	2197.47
533.66	2297.82
533.86	2310.11
534.06	2252.77
534.26	2133.98
534.45	2156.51
534.65	2285.53
534.85	2299.87
535.05	2105.31
535.25	2320.35
535.44	2113.50
535.64	2232.29
535.84	2150.37
536.04	2170.85
536.24	2260.96
536.43	2193.37
536.63	2222.05
536.83	2168.80
537.03	2162.66
537.22	2127.84
537.42	2144.22
537.62	2179.04
537.82	2150.37
538.02	2269.15
538.21	2346.97
538.41	2455.51
538.61	2273.25
538.81	2146.27
539.00	2234.33
539.20	2107.36
539.40	2187.23
539.60	2185.18
539.79	2295.77
539.99	2203.61
540.19	2201.57
540.39	2238.43
540.58	2281.44
540.78	2246.62
540.98	2205.66
541.18	2244.57
541.37	2248.67
541.57	2240.48
541.77	2230.24
541.97	2187.23
542.16	2052.06
542.36	2160.61
542.56	2144.22
542.76	2383.84
542.95	2226.14
543.15	2260.96
543.35	2295.77
543.54	2060.26
543.74	2072.54
543.94	2389.98
544.14	2150.37
544.33	2295.77
544.53	2215.90
544.73	2213.85
544.93	2162.66
545.12	2097.12
545.32	2220.00
545.52	2199.52
545.71	2011.11
545.91	2127.84
546.11	2197.47
546.30	2105.31
546.50	2111.46
546.70	2234.33
546.90	2252.77
547.09	2099.17
547.29	2205.66
547.49	2176.99
547.68	2236.38
547.88	2220.00
548.08	2236.38
548.27	2760.66
548.47	2170.85
548.67	2121.70
548.87	2267.10
549.06	2138.08
549.26	2201.57
549.46	2189.28
549.65	2148.32
549.85	2211.81
550.05	2174.94
550.24	2117.60
550.44	2224.09
550.64	2220.00
550.83	2183.13
551.03	2213.85
551.23	2285.53
551.42	2244.57
551.62	2136.03
551.82	2234.33
552.01	2207.71
552.21	2217.95
552.41	2250.72
552.60	2301.92
552.80	2133.98
553.00	2222.05
553.19	2156.51
553.39	2383.84
553.59	2066.40
553.78	2318.30
553.98	2306.01
554.17	2115.55
554.37	2248.67
554.57	2260.96
554.76	2068.45
554.96	2150.37
555.16	2220.00
555.35	2265.05
555.55	2265.05
555.75	2248.67
555.94	2203.61
556.14	2131.94
556.33	2232.29
556.53	2226.14
556.73	2205.66
556.92	2336.73
557.12	2236.38
557.32	2408.41
557.51	2340.83
557.71	2193.37
557.90	2256.86
558.10	2324.44
558.30	2154.46
558.49	2168.80
558.69	2205.66
558.88	2340.83
559.08	2211.81
559.28	2244.57
559.47	2150.37
559.67	2289.63
559.86	2402.27
560.06	2162.66
560.26	2097.12
560.45	2258.91
560.65	2234.33
560.84	2351.07
561.04	2133.98
561.24	2234.33
561.43	2136.03
561.63	2334.68
561.82	2150.37
562.02	2224.09
562.22	2189.28
562.41	2099.17
562.61	2181.09
562.80	2125.79
563.00	2447.32
563.19	2275.29
563.39	2187.23
563.59	2252.77
563.78	2185.18
563.98	2072.54
564.17	2138.08
564.37	2138.08
564.56	2162.66
564.76	2154.46
564.96	2412.51
565.15	2179.04
565.35	2512.86
565.54	2154.46
565.74	2308.06
565.93	2291.68
566.13	2164.70
566.32	2246.62
566.52	2252.77
566.71	2252.77
566.91	2273.25
567.11	2289.63
567.30	2164.70
567.50	2293.72
567.69	2293.72
567.89	2236.38
568.08	2164.70
568.28	2201.57
568.47	2047.97
568.67	2252.77
568.86	2176.99
569.06	2252.77
569.25	2260.96
569.45	2148.32
569.64	2176.99
569.84	2209.76
570.04	2211.81
570.23	2131.94
570.43	2111.46
570.62	2269.15
570.82	2301.92
571.01	2060.26
571.21	2144.22
571.40	2095.07
571.60	2334.68
571.79	2211.81
571.99	2187.23
572.18	2142.18
572.38	2246.62
572.57	2156.51
572.77	2250.72
572.96	2351.07
573.16	2176.99
573.35	2226.14
573.55	2402.27
573.74	2334.68
573.94	2271.20
574.13	2150.37
574.33	2338.78
574.52	2271.20
574.71	2195.42
574.91	2334.68
575.10	2160.61
575.30	2213.85
575.49	2129.89
575.69	2170.85
575.88	2234.33
576.08	2246.62
576.27	2289.63
576.47	2258.91
576.66	2355.16
576.86	2406.36
577.05	2297.82
577.25	2281.44
577.44	2400.22
577.64	2146.27
577.83	2359.26
578.02	2203.61
578.22	2389.98
578.41	2379.74
578.61	2209.76
578.80	2138.08
579.00	2230.24
579.19	2234.33
579.39	2252.77
579.58	2252.77
579.77	2236.38
579.97	2357.21
580.16	2361.31
580.36	2326.49
580.55	2338.78
580.75	2176.99
580.94	2297.82
581.13	2416.60
581.33	2447.32
581.52	2273.25
581.72	2449.37
581.91	2371.55
582.11	2148.32
582.30	2291.68
582.49	2291.68
582.69	2365.40
582.88	2230.24
583.08	2271.20
583.27	2361.31
583.47	2336.73
583.66	2140.13
583.85	2267.10
584.05	2226.14
584.24	2260.96
584.44	2338.78
584.63	2328.54
584.82	2422.75
585.02	2488.28
585.21	2314.20
585.41	2408.41
585.60	2406.36
585.79	2463.71
585.99	2504.67
586.18	2396.12
586.37	2867.16
586.57	4360.13
586.76	13254.45
586.96	31690.27
587.15	45641.03
587.34	55246.00
587.54	59188.34
587.73	55080.12
587.93	38888.88
588.12	29558.33
588.31	23574.17
588.51	20512.46
588.70	18753.25
588.89	17268.47
589.09	14806.81
589.28	12736.32
589.47	10258.28
589.67	8222.59
589.86	6418.33
590.06	4816.82
590.25	3766.21
590.44	3117.01
590.64	2746.33
590.83	2621.40
591.02	2459.61
591.22	2338.78
591.41	2369.50
591.60	2285.53
591.80	2547.67
591.99	2154.46
592.18	2199.52
592.38	2287.58
592.57	2172.89
592.76	2306.01
592.96	2152.42
593.15	2234.33
593.34	2283.49
593.54	2185.18
593.73	2287.58
593.92	2248.67
594.12	2367.45
594.31	2271.20
594.50	2441.18
594.70	2346.97
594.89	2557.91
595.08	2160.61
595.28	2256.86
595.47	2531.29
595.66	2340.83
595.86	2080.74
596.05	2238.43
596.24	2146.27
596.43	2424.80
596.63	2396.12
596.82	2340.83
597.01	2265.05
597.21	2404.32
597.40	2342.88
597.59	2303.96
597.79	2201.57
597.98	2316.25
598.17	2267.10
598.36	2265.05
598.56	2394.08
598.75	2197.47
598.94	2316.25
599.14	2289.63
599.33	2195.42
599.52	2236.38
599.71	2250.72
599.91	2256.86
600.10	2316.25
600.29	2183.13
600.48	2269.15
600.68	2277.34
600.87	2293.72
601.06	2123.74
601.26	2146.27
601.45	2263.01
601.64	2093.02
601.83	2383.84
602.03	2207.71
602.22	2078.69
602.41	2277.34
602.60	2492.38
602.80	2269.15
602.99	2283.49
603.18	2199.52
603.37	2295.77
603.57	2220.00
603.76	2328.54
603.95	2400.22
604.14	2205.66
604.34	2205.66
604.53	2250.72
604.72	2226.14
604.91	2308.06
605.10	2322.40
605.30	2117.60
605.49	2445.27
605.68	2295.77
605.87	2377.69
606.07	2158.56
606.26	2234.33
606.45	2281.44
606.64	2289.63
606.84	2170.85
607.03	2207.71
607.22	2322.40
607.41	2242.53
607.60	2170.85
607.80	2306.01
607.99	2211.81
608.18	2187.23
608.37	2230.24
608.56	2152.42
608.76	2250.72
608.95	2465.75
609.14	2277.34
609.33	2441.18
609.52	2332.64
609.72	2326.49
609.91	2330.59
610.10	2289.63
610.29	2414.56
610.48	2250.72
610.68	2260.96
610.87	2234.33
611.06	2269.15
611.25	2265.05
611.44	2373.60
611.63	2170.85
611.83	2260.96
612.02	2103.26
612.21	2342.88
612.40	2088.93
612.59	2070.50
612.79	2148.32
612.98	2201.57
613.17	2367.45
613.36	2150.37
613.55	2422.75
613.74	2316.25
613.93	2392.03
614.13	2453.47
614.32	2514.91
614.51	2398.17
614.70	2265.05
614.89	2256.86
615.08	2273.25
615.28	2770.90
615.47	2174.94
615.66	2265.05
615.85	2308.06
616.04	2424.80
616.23	2234.33
616.42	2275.29
616.62	2172.89
616.81	2254.81
617.00	2179.04
617.19	2318.30
617.38	2236.38
617.57	2232.29
617.76	2275.29
617.95	2242.53
618.15	2283.49
618.34	2316.25
618.53	2068.45
618.72	2379.74
618.91	2310.11
619.10	2310.11
619.29	2222.05
619.48	2269.15
619.68	2133.98
619.87	2193.37
620.06	2162.66
620.25	2234.33
620.44	2179.04
620.63	2211.81
620.82	2285.53
621.01	2312.16
621.20	2203.61
621.39	2242.53
621.59	2256.86
621.78	2269.15
621.97	2260.96
622.16	2279.39
622.35	2209.76
622.54	2342.88
622.73	2299.87
622.92	2050.02
623.11	2310.11
623.30	2152.42
623.49	2209.76
623.68	2199.52
623.88	2340.83
624.07	2156.51
624.26	2129.89
624.45	2170.85
624.64	2187.23
624.83	2271.20
625.02	2220.00
625.21	2242.53
625.40	2181.09
625.59	2416.60
625.78	2176.99
625.97	2349.02
626.16	2342.88
626.35	2367.45
626.54	2236.38
626.74	2375.64
626.93	2215.90
627.12	2226.14
627.31	2338.78
627.50	2254.81
627.69	2310.11
627.88	2154.46
628.07	2172.89
628.26	2111.46
628.45	2248.67
628.64	2160.61
628.83	2205.66
629.02	2097.12
629.21	2359.26
629.40	2174.94
629.59	2136.03
629.78	2168.80
629.97	2217.95
630.16	2244.57
630.35	2248.67
630.54	2228.19
630.73	2203.61
630.92	2228.19
631.11	2136.03
631.30	2142.18
631.49	2263.01
631.68	2211.81
631.87	2220.00
632.06	2119.65
632.25	2531.29
632.44	2279.39
632.63	2256.86
632.82	2265.05
633.01	2287.58
633.20	2324.44
633.39	2250.72
633.58	2183.13
633.77	2283.49
633.96	2308.06
634.15	2316.25
634.34	2295.77
634.53	2303.96
634.72	2152.42
634.91	2015.20
635.10	2293.72
635.29	2267.10
635.48	2301.92
635.67	2191.33
635.86	2033.63
636.05	2330.59
636.24	2217.95
636.43	2252.77
636.62	2152.42
636.81	1978.34
637.00	2228.19
637.19	2244.57
637.38	2197.47
637.57	2207.71
637.76	2258.91
637.95	2324.44
638.14	2273.25
638.33	2291.68
638.52	2263.01
638.71	2199.52
638.89	2068.45
639.08	2467.80
639.27	2320.35
639.46	2621.40
639.65	2779.09
639.84	2836.44
640.03	3035.09
640.22	2977.75
640.41	2930.64
640.60	2482.14
640.79	2512.86
640.98	2478.04
641.17	2492.38
641.36	2418.65
641.55	2416.60
641.74	2242.53
641.92	2193.37
642.11	2215.90
642.30	2234.33
642.49	2222.05
642.68	2181.09
642.87	2263.01
643.06	2246.62
643.25	2168.80
643.44	2107.36
643.63	2187.23
643.82	2306.01
644.00	2095.07
644.19	2172.89
644.38	2121.70
644.57	2256.86
644.76	2281.44
644.95	2222.05
645.14	2217.95
645.33	2183.13
645.52	2289.63
645.71	2068.45
645.89	2156.51
646.08	2232.29
646.27	2203.61
646.46	2389.98
646.65	2148.32
646.84	2234.33
647.03	2084.83
647.22	2295.77
647.40	2168.80
647.59	2211.81
647.78	2021.35
647.97	2058.21
648.16	2058.21
648.35	2293.72
648.54	2351.07
648.73	2127.84
648.91	2334.68
649.10	2213.85
649.29	2150.37
649.48	2193.37
649.67	2277.34
649.86	2273.25
650.05	2236.38
650.23	2473.95
650.42	2228.19
650.61	2488.28
650.80	2439.13
650.99	2523.10
651.18	2346.97
651.36	2385.88
651.55	2289.63
651.74	2404.32
651.93	2179.04
652.12	2248.67
652.31	2162.66
652.49	2256.86
652.68	2213.85
652.87	2426.84
653.06	2246.62
653.25	2344.92
653.44	2273.25
653.62	2359.26
653.81	2205.66
654.00	2203.61
654.19	2226.14
654.38	2539.48
654.56	2301.92
654.75	2170.85
654.94	2236.38
655.13	2252.77
655.32	2152.42
655.51	2244.57
655.69	2158.56
655.88	2250.72
656.07	2045.92
656.26	2217.95
656.45	2168.80
656.63	2248.67
656.82	2183.13
657.01	2211.81
657.20	2148.32
657.38	2301.92
657.57	2103.26
657.76	2138.08
657.95	2316.25
658.14	2117.60
658.32	2195.42
658.51	2082.78
658.70	2260.96
658.89	2295.77
659.08	2258.91
659.26	2369.50
659.45	2193.37
659.64	2248.67
659.83	2205.66
660.01	2557.91
660.20	2228.19
660.39	2367.45
660.58	2052.06
660.76	2269.15
660.95	2039.78
661.14	2162.66
661.33	2039.78
661.51	2193.37
661.70	2189.28
661.89	2205.66
662.08	2174.94
662.26	2035.68
662.45	2129.89
662.64	2402.27
662.83	2285.53
663.01	2078.69
663.20	2179.04
663.39	2406.36
663.58	2144.22
663.76	2256.86
663.95	2119.65
664.14	2023.39
664.32	2187.23
664.51	2074.59
664.70	2050.02
664.89	2232.29
665.07	2062.30
665.26	2303.96
665.45	2019.30
665.64	2236.38
665.82	2162.66
666.01	2283.49
666.20	2201.57
666.38	2310.11
666.57	2402.27
666.76	3297.23
666.95	8003.46
667.13	16314.12
667.32	21591.73
667.51	25202.30
667.69	27174.50
667.88	25298.56
668.07	17831.66
668.25	14421.80
668.44	11820.88
668.63	10250.08
668.81	9082.74
669.00	7851.91
669.19	7159.70
669.38	6156.19
669.56	5136.31
669.75	4360.13
669.94	3774.41
670.12	3182.54
670.31	2869.20
670.50	2592.73
670.68	2502.62
670.87	2359.26
671.06	2322.40
671.24	2353.12
671.43	2492.38
671.62	2277.34
671.80	2269.15
671.99	2332.64
672.18	2187.23
672.36	2303.96
672.55	2351.07
672.74	2185.18
672.92	2213.85
673.11	2301.92
673.29	2162.66
673.48	2267.10
673.67	2179.04
673.85	2293.72
674.04	2113.50
674.23	2332.64
674.41	2340.83
674.60	2172.89
674.79	1996.77
674.97	2119.65
675.16	2269.15
675.34	2369.50
675.53	2189.28
675.72	2291.68
675.90	2310.11
676.09	2183.13
676.28	2265.05
676.46	2054.11
676.65	2277.34
676.83	2099.17
677.02	2207.71
677.21	2187.23
677.39	2195.42
677.58	2148.32
677.77	2097.12
677.95	2093.02
678.14	2228.19
678.32	2129.89
678.51	2152.42
678.70	2387.93
678.88	2328.54
679.07	2224.09
679.25	2166.75
679.44	2166.75
679.63	2088.93
679.81	2260.96
680.00	2273.25
680.18	2230.24
680.37	2349.02
680.55	2224.09
680.74	2052.06
680.93	2009.06
681.11	2220.00
681.30	2242.53
681.48	2152.42
681.67	2170.85
681.85	2207.71
682.04	2074.59
682.23	2203.61
682.41	2232.29
682.60	2207.71
682.78	2248.67
682.97	2068.45
683.15	2224.09
683.34	2181.09
683.53	2316.25
683.71	2117.60
683.90	2322.40
684.08	2326.49
684.27	2170.85
684.45	2236.38
684.64	2330.59
684.82	2176.99
685.01	2179.04
685.19	2234.33
685.38	2383.84
685.57	2244.57
685.75	2156.51
685.94	2197.47
686.12	2125.79
686.31	2144.22
686.49	2365.40
686.68	2052.06
686.86	2211.81
687.05	2203.61
687.23	2303.96
687.42	2117.60
687.60	2090.98
687.79	2293.72
687.97	2361.31
688.16	2314.20
688.34	2277.34
688.53	1990.63
688.71	2220.00
688.90	2379.74
689.08	2129.89
689.27	2052.06
689.45	2236.38
689.64	2263.01
689.82	2228.19
690.01	2238.43
690.19	2269.15
690.38	2176.99
690.56	2228.19
690.75	1990.63
690.93	2174.94
691.12	2123.74
691.30	2168.80
691.49	2113.50
691.67	2174.94
691.86	2308.06
692.04	2090.98
692.23	2228.19
692.41	2222.05
692.60	2414.56
692.78	2451.42
692.97	2291.68
693.15	2275.29
693.34	2424.80
693.52	2349.02
693.71	2215.90
693.89	2187.23
694.08	2056.16
694.26	2260.96
694.44	2283.49
694.63	2293.72
694.81	2115.55
695.00	2093.02
695.18	2312.16
695.37	2529.24
695.55	2234.33
695.74	2195.42
695.92	2109.41
696.10	2346.97
696.29	2146.27
696.47	2146.27
696.66	2123.74
696.84	2115.55
697.03	2201.57
697.21	2414.56
697.40	3217.36
697.58	2314.20
697.76	2179.04
697.95	2191.33
698.13	2097.12
698.32	2152.42
698.50	2144.22
698.68	2299.87
698.87	2236.38
699.05	2428.89
699.24	2187.23
699.42	2080.74
699.61	2203.61
699.79	2215.90
699.97	2281.44
700.16	2138.08
700.34	2103.26
700.53	2211.81
700.71	2324.44
700.89	2273.25
701.08	2248.67
701.26	2207.71
701.45	2797.53
701.63	2115.55
701.81	2117.60
702.00	2176.99
702.18	2197.47
702.37	2213.85
702.55	2471.90
702.73	2445.27
702.92	2328.54
703.10	2572.25
703.28	2461.66
703.47	2299.87
703.65	2424.80
703.84	2330.59
704.02	2244.57
704.20	2414.56
704.39	2275.29
704.57	2230.24
704.75	2328.54
704.94	2289.63
705.12	2330.59
705.30	2504.67
705.49	4503.48
705.67	10690.40
705.86	20041.42
706.04	24145.55
706.22	27369.05
706.41	28806.73
706.59	24778.37
706.77	17483.51
706.96	14724.90
707.14	12543.81
707.32	10973.02
707.51	9580.40
707.69	7964.55
707.87	6406.05
708.06	5119.92
708.24	4124.61
708.42	3274.70
708.61	3096.53
708.79	2482.14
708.97	2353.12
709.16	2400.22
709.34	2338.78
709.52	2281.44
709.71	2205.66
709.89	2271.20
710.07	2187.23
710.26	2115.55
710.44	2224.09
710.62	2324.44
710.80	2195.42
710.99	2314.20
711.17	2291.68
711.35	2088.93
711.54	2117.60
711.72	2277.34
711.90	2209.76
712.09	2199.52
712.27	2205.66
712.45	2260.96
712.63	2164.70
712.82	2158.56
713.00	2174.94
713.18	2240.48
713.37	2254.81
713.55	2263.01
713.73	2209.76
713.91	2316.25
714.10	2187.23
714.28	2072.54
714.46	2154.46
714.65	2183.13
714.83	2287.58
715.01	2207.71
715.19	2166.75
715.38	2150.37
715.56	2240.48
715.74	2181.09
715.92	2105.31
716.11	2367.45
716.29	2017.25
716.47	2187.23
716.65	2207.71
716.84	2015.20
717.02	2271.20
717.20	2101.22
717.38	2129.89
717.57	2242.53
717.75	2256.86
717.93	2166.75
718.11	2359.26
718.30	2074.59
718.48	2121.70
718.66	2330.59
718.84	2303.96
719.03	2172.89
719.21	2127.84
719.39	2406.36
719.57	2226.14
719.75	2365.40
719.94	2127.84
720.12	2127.84
720.30	2197.47
720.48	2367.45
720.67	2111.46
720.85	2121.70
721.03	2125.79
721.21	2113.50
721.39	2222.05
721.58	2322.40
721.76	2174.94
721.94	2234.33
722.12	2199.52
722.30	2287.58
722.49	2158.56
722.67	2244.57
722.85	2187.23
723.03	2070.50
723.21	2152.42
723.40	2291.68
723.58	2224.09
723.76	2293.72
723.94	2273.25
724.12	2324.44
724.30	2394.08
724.49	2359.26
724.67	2197.47
724.85	2318.30
725.03	2113.50
725.21	2301.92
725.40	2297.82
725.58	2144.22
725.76	2281.44
725.94	2295.77
726.12	2123.74
726.30	2203.61
726.49	2197.47
726.67	2119.65
726.85	2234.33
727.03	2588.63
727.21	3575.75
727.39	5463.98
727.57	6393.76
727.76	7253.91
727.94	7602.06
728.12	7128.98
728.30	5822.38
728.48	4814.77
728.66	4472.76
728.84	3977.16
729.03	3487.69
729.21	3160.02
729.39	2834.39
729.57	2545.63
729.75	2428.89
729.93	2359.26
730.11	2185.18
730.30	2287.58
730.48	2211.81
730.66	2342.88
730.84	2279.39
731.02	2199.52
731.20	2179.04
731.38	2236.38
731.56	2093.02
731.74	2054.11
731.93	2150.37
732.11	2203.61
732.29	2189.28
732.47	2267.10
732.65	2349.02
732.83	2326.49
733.01	2260.96
733.19	2136.03
733.37	2133.98
733.56	2220.00
733.74	2168.80
733.92	2410.46
734.10	2162.66
734.28	2220.00
734.46	2125.79
734.64	2201.57
734.82	2185.18
735.00	2152.42
735.18	2220.00
735.36	2234.33
735.54	2250.72
735.73	2154.46
735.91	2197.47
736.09	2246.62
736.27	2256.86
736.45	2310.11
736.63	2056.16
736.81	2197.47
736.99	2291.68
737.17	2308.06
737.35	2144.22
737.53	2238.43
737.71	2170.85
737.89	2316.25
738.07	2162.66
738.25	2033.63
738.43	2074.59
738.61	2115.55
738.80	2037.73
738.98	2181.09
739.16	2072.54
739.34	2103.26
739.52	2318.30
739.70	2226.14
739.88	2222.05
740.06	2260.96
740.24	2011.11
740.42	2340.83
740.60	2035.68
740.78	2160.61
740.96	2023.39
741.14	2211.81
741.32	2121.70
741.50	2076.64
741.68	2381.79
741.86	2299.87
742.04	2174.94
742.22	2070.50
742.40	2211.81
742.58	2205.66
742.76	2176.99
742.94	2279.39
743.12	2035.68
743.30	2168.80
743.48	2199.52
743.66	2117.60
743.84	2207.71
744.02	2160.61
744.20	2213.85
744.38	2095.07
744.56	2148.32
744.74	2365.40
744.92	2326.49
745.10	2381.79
745.28	2226.14
745.46	2334.68
745.64	2123.74
745.82	2254.81
746.00	2217.95
746.18	2254.81
746.36	2162.66
746.54	2256.86
746.72	2279.39
746.90	2133.98
747.08	2289.63
747.26	2172.89
747.44	2244.57
747.62	2170.85
747.80	2228.19
747.98	2263.01
748.15	2160.61
748.33	2379.74
748.51	2152.42
748.69	2283.49
748.87	2152.42
749.05	2224.09
749.23	2207.71
749.41	2244.57
749.59	2195.42
749.77	2299.87
749.95	2103.26
750.13	2166.75
750.31	2205.66
750.49	2154.46
750.67	2215.90
750.85	2351.07
751.03	2252.77
751.20	2414.56
751.38	2172.89
751.56	2193.37
751.74	2199.52
751.92	2154.46
752.10	2111.46
752.28	2250.72
752.46	2133.98
752.64	2195.42
752.82	2158.56
753.00	2258.91
753.18	2131.94
753.35	2232.29
753.53	2205.66
753.71	2217.95
753.89	2269.15
754.07	2215.90
754.25	2291.68
754.43	2152.42
754.61	2113.50
754.79	2152.42
754.97	2123.74
755.14	2326.49
755.32	2115.55
755.50	2168.80
755.68	2179.04
755.86	2088.93
756.04	2138.08
756.22	2054.11
756.40	2310.11
756.57	2330.59
756.75	2127.84
756.93	2230.24
757.11	2236.38
757.29	2119.65
757.47	2086.88
757.65	2066.40
757.82	2013.15
758.00	2084.83
758.18	2154.46
758.36	2174.94
758.54	2322.40
758.72	2076.64
758.90	2252.77
759.07	2203.61
759.25	2088.93
759.43	2267.10
759.61	2113.50
759.79	3016.66
759.97	2242.53
760.15	2127.84
760.32	2117.60
760.50	2181.09
760.68	2316.25
760.86	2072.54
761.04	2191.33
761.22	2260.96
761.39	2185.18
761.57	2283.49
761.75	2162.66
761.93	2176.99
762.11	2113.50
762.28	2260.96
762.46	2115.55
762.64	2207.71
762.82	2156.51
763.00	2193.37
763.18	2269.15
763.35	2097.12
763.53	2199.52
763.71	2191.33
763.89	2211.81
764.07	2185.18
764.24	2172.89
764.42	2293.72
764.60	2224.09
764.78	2254.81
764.96	2316.25
765.13	2273.25
765.31	2148.32
765.49	2279.39
765.67	2105.31
765.84	2086.88
766.02	2174.94
766.20	2050.02
766.38	2240.48
766.56	2195.42
766.73	2250.72
766.91	2222.05
767.09	2179.04
767.27	2260.96
767.44	2060.26
767.62	2258.91
767.80	2244.57
767.98	2095.07
768.15	2193.37
768.33	2252.77
768.51	2289.63
768.69	2242.53
768.87	2168.80
769.04	2211.81
769.22	2349.02
769.40	2318.30
769.58	2412.51
769.75	2238.43
769.93	2332.64
770.11	2162.66
770.28	2095.07
770.46	2277.34
770.64	2228.19
770.82	2113.50
770.99	2119.65
771.17	2297.82
771.35	2201.57
771.53	2187.23
771.70	2181.09
771.88	2289.63
772.06	2172.89
772.23	2230.24
772.41	2144.22
772.59	2105.31
772.77	2148.32
772.94	2187.23
773.12	2195.42
773.30	2207.71
773.47	2213.85
773.65	2123.74
773.83	2349.02
774.01	2240.48
774.18	2041.82
774.36	2109.41
774.54	2027.49
774.71	2150.37
774.89	2074.59
775.07	2109.41
775.24	2193.37
775.42	2133.98
775.60	2355.16
775.78	2146.27
775.95	2109.41
776.13	2074.59
776.31	1951.71
776.48	2201.57
776.66	2344.92
776.84	2174.94
777.01	2078.69
777.19	2029.54
777.37	2084.83
777.54	2277.34
777.72	2414.56
777.90	2232.29
778.07	2160.61
778.25	2494.43
778.43	2281.44
778.60	2099.17
778.78	2244.57
778.96	2363.36
779.13	2127.84
779.31	2328.54
779.49	2168.80
779.66	2189.28
779.84	2185.18
780.01	2244.57
780.19	2066.40
780.37	2281.44
780.54	2211.81
780.72	2054.11
780.90	2172.89
781.07	2142.18
781.25	2181.09
781.43	2285.53
781.60	2099.17
781.78	2357.21
781.95	2142.18
782.13	2101.22
782.31	2125.79
782.48	1996.77
782.66	2260.96
782.83	2346.97
783.01	2213.85
783.19	2220.00
783.36	2097.12
783.54	2023.39
783.72	2312.16
783.89	2201.57
784.07	2217.95
784.24	2349.02
784.42	2263.01
784.60	2097.12
784.77	2234.33
784.95	2004.96
785.12	2181.09
785.30	2193.37
785.47	2035.68
785.65	2103.26
785.83	2187.23
786.00	2119.65
786.18	2209.76
786.35	2047.97
786.53	2148.32
786.71	2285.53
786.88	2179.04
787.06	2256.86
787.23	2146.27
787.41	2097.12
787.58	2195.42
787.76	2064.35
787.94	2295.77
788.11	2252.77
788.29	2056.16
788.46	2080.74
788.64	2129.89
788.81	2099.17
788.99	2129.89
789.16	2068.45
789.34	2193.37
789.52	2127.84
789.69	2107.36
789.87	2072.54
790.04	2179.04
790.22	2244.57
790.39	2420.70
790.57	2119.65
790.74	2123.74
790.92	2217.95
791.09	2054.11
791.27	2283.49
791.44	2246.62
791.62	2174.94
791.79	2256.86
791.97	2129.89
792.15	2486.23
792.32	2207.71
792.50	2322.40
792.67	2359.26
792.85	2389.98
793.02	2174.94
793.20	2199.52
793.37	2037.73
793.55	2131.94
793.72	2080.74
793.90	2179.04
794.07	2076.64
794.25	2205.66
794.42	2267.10
794.60	2119.65
794.77	2256.86
794.95	2240.48
795.12	2260.96
795.30	2232.29
795.47	2029.54
795.65	2342.88
795.82	2306.01
796.00	2097.12
796.17	2123.74
796.34	2101.22
796.52	2183.13
796.69	2256.86
796.87	2281.44
797.04	2224.09
797.22	2301.92
797.39	2133.98
797.57	2346.97
797.74	2242.53
797.92	2193.37
798.09	2152.42
798.27	2244.57
798.44	2203.61
798.62	2142.18
798.79	2267.10
798.96	2203.61
799.14	2136.03
799.31	2422.75
799.49	2093.02
799.66	2176.99
799.84	2195.42
800.01	2076.64
800.19	2117.60
800.36	2015.20
800.53	2209.76
800.71	2250.72
800.88	2353.12
801.06	2078.69
801.23	2183.13
801.41	2164.70
801.58	2215.90
801.75	2119.65
801.93	2162.66
802.10	2174.94
802.28	2162.66
802.45	2250.72
802.63	2254.81
802.80	2355.16
802.97	2129.89
803.15	2170.85
803.32	2142.18
803.50	2070.50
803.67	2060.26
803.84	2054.11
804.02	2154.46
804.19	2197.47
804.37	2013.15
804.54	2052.06
804.71	2152.42
804.89	2209.76
805.06	2023.39
805.24	2146.27
805.41	2154.46
805.58	2234.33
805.76	2398.17
805.93	2105.31
806.10	2322.40
806.28	2164.70
806.45	2174.94
806.63	2277.34
806.80	2203.61
806.97	2146.27
807.15	2164.70
807.32	2176.99
807.49	2146.27
807.67	2078.69
807.84	2217.95
808.01	2113.50
808.19	2394.08
808.36	2383.84
808.54	2217.95
808.71	2117.60
808.88	2205.66
809.06	2285.53
809.23	2244.57
809.40	2133.98
809.58	2260.96
809.75	2142.18
809.92	2029.54
810.10	2340.83
810.27	2193.37
810.44	2322.40
810.62	2232.29
810.79	2244.57
810.96	2144.22
811.14	2168.80
811.31	2252.77
811.48	2230.24
811.66	2136.03
811.83	2332.64
812.00	2193.37
812.18	2252.77
812.35	2375.64
812.52	2170.85
812.69	2193.37
812.87	2123.74
813.04	2050.02
813.21	2127.84
813.39	2189.28
813.56	2144.22
813.73	2174.94
813.91	2117.60
814.08	2193.37
814.25	2168.80
814.42	2121.70
814.60	2236.38
814.77	2191.33
814.94	2201.57
815.12	2195.42
815.29	2209.76
815.46	2140.13
815.63	2189.28
815.81	2205.66
815.98	2160.61
816.15	2195.42
816.33	2152.42
816.50	2127.84
816.67	2199.52
816.84	2213.85
817.02	2127.84
817.19	2158.56
817.36	2168.80
817.53	2176.99
817.71	2164.70
817.88	2277.34
818.05	2086.88
818.22	2101.22
818.40	2326.49
818.57	2150.37
818.74	2234.33
818.91	2232.29
819.09	2217.95
819.26	2230.24
819.43	2136.03
819.60	2183.13
819.78	2144.22
819.95	2215.90
820.12	2117.60
820.29	2312.16
820.47	2342.88
820.64	2125.79
820.81	1984.48
820.98	2113.50
821.15	2113.50
821.33	2230.24
821.50	2084.83
821.67	2246.62
821.84	2152.42
822.02	2174.94
822.19	2252.77
822.36	2160.61
822.53	2152.42
822.70	2043.87
822.88	2187.23
823.05	2334.68
823.22	2146.27
823.39	2211.81
823.56	2240.48
823.74	2340.83
823.91	2144.22
824.08	2068.45
824.25	2064.35
824.42	2326.49
824.60	2090.98
824.77	2226.14
824.94	2129.89
825.11	2215.90
825.28	2062.30
825.45	2312.16
825.63	2174.94
825.80	2101.22
825.97	2158.56
826.14	2224.09
826.31	2037.73
826.48	2244.57
826.66	2162.66
826.83	2129.89
827.00	2217.95
827.17	2062.30
827.34	2158.56
827.51	2133.98
827.69	2062.30
827.86	2136.03
828.03	2133.98
828.20	2217.95
828.37	2146.27
828.54	2256.86
828.71	2043.87
828.89	2326.49
829.06	2220.00
829.23	2330.59
829.40	2131.94
829.57	2144.22
829.74	2248.67
829.91	2197.47
830.09	2119.65
830.26	2195.42
830.43	2361.31
830.60	2142.18
830.77	2252.77
830.94	2252.77
831.11	2240.48
831.28	2129.89
831.46	2291.68
831.63	2111.46
831.80	2238.43
831.97	2119.65
832.14	2187.23
832.31	2267.10
832.48	2217.95
832.65	2285.53
832.82	2136.03
832.99	2226.14
833.17	2154.46
833.34	2351.07
833.51	2265.05
833.68	2041.82
833.85	2271.20
834.02	2138.08
834.19	2158.56
834.36	2152.42
834.53	2199.52
834.70	2338.78
834.87	2299.87
835.04	2080.74
835.22	2111.46
835.39	2236.38
835.56	2066.40
835.73	2152.42
835.90	2222.05
836.07	2187.23
836.24	2191.33
836.41	2074.59
836.58	2074.59
836.75	2183.13
836.92	2187.23
837.09	2086.88
837.26	2275.29
837.43	2254.81
837.60	2183.13
837.77	2148.32
837.94	2273.25
838.12	2406.36
838.29	2158.56
838.46	2056.16
838.63	2103.26
838.80	2361.31
838.97	2146.27
839.14	2193.37
839.31	2113.50
839.48	2293.72
839.65	2191.33
839.82	2263.01
839.99	2201.57
840.16	2244.57
840.33	2095.07
840.50	2174.94
840.67	2064.35
840.84	1978.34
841.01	2193.37
841.18	2144.22
841.35	2154.46
841.52	2195.42
841.69	2408.41
841.86	2185.18
842.03	2148.32
842.20	2306.01
842.37	2138.08
842.54	2181.09
842.71	2191.33
842.88	2088.93
843.05	2168.80
843.22	2115.55
843.39	2236.38
843.56	2105.31
843.73	2115.55
843.90	2211.81
844.07	2236.38
844.24	2201.57
844.41	2209.76
844.58	2183.13
844.75	2201.57
844.92	2244.57
845.09	2138.08
845.26	2060.26
845.43	2263.01
845.60	2170.85
845.77	2244.57
845.94	2168.80
846.10	2285.53
846.27	2101.22
846.44	2105.31
846.61	2113.50
846.78	2226.14
846.95	2314.20
847.12	2144.22
847.29	2093.02
847.46	2119.65
847.63	2209.76
847.80	2088.93
847.97	2181.09
848.14	2359.26
848.31	2201.57
848.48	2088.93
848.65	2211.81
848.82	2109.41
848.98	2422.75
849.15	2220.00
849.32	2232.29
849.49	2281.44
849.66	2213.85
849.83	2179.04
850.00	2103.26
850.17	2254.81
850.34	2080.74
850.51	2095.07
850.68	2111.46
850.85	2410.46
851.01	2250.72
851.18	2146.27
851.35	2097.12
851.52	2244.57
851.69	2232.29
851.86	2031.58
852.03	2097.12
852.20	2291.68
852.37	2174.94
852.53	2050.02
852.70	2095.07
852.87	2179.04
853.04	2252.77
853.21	2154.46
853.38	2232.29
853.55	2273.25
853.72	2287.58
853.89	2015.20
854.05	2105.31
854.22	2127.84
854.39	2164.70
854.56	2183.13
854.73	2299.87
854.90	2187.23
855.07	2179.04
855.23	2052.06
855.40	2121.70
855.57	2230.24
855.74	2004.96
855.91	2314.20
856.08	2109.41
856.25	2023.39
856.41	2060.26
856.58	2103.26
856.75	2211.81
856.92	2142.18
857.09	2289.63
857.26	2052.06
857.42	2090.98
857.59	2260.96
857.76	2086.88
857.93	2119.65
858.10	2187.23
858.27	2082.78
858.43	2230.24
858.60	2129.89
858.77	2017.25
858.94	2164.70
859.11	2295.77
859.27	2090.98
859.44	2070.50
859.61	2322.40
859.78	2195.42
859.95	2144.22
860.12	2086.88
860.28	2402.27
860.45	2385.88
860.62	2146.27
860.79	2226.14
860.95	2215.90
861.12	2080.74
861.29	2168.80
861.46	2056.16
861.63	2240.48
861.79	2144.22
861.96	2060.26
862.13	2121.70
862.30	2338.78
862.47	2097.12
862.63	2056.16
862.80	2260.96
862.97	2187.23
863.14	2215.90
863.30	2179.04
863.47	2119.65
863.64	2318.30
863.81	2207.71
863.97	2138.08
864.14	2146.27
864.31	2211.81
864.48	2172.89
864.65	2111.46
864.81	2228.19
864.98	2211.81
865.15	2277.34
865.32	2226.14
865.48	2246.62
865.65	2371.55
865.82	2035.68
865.98	2133.98
866.15	2162.66
866.32	2176.99
866.49	2176.99
866.65	2279.39
866.82	2121.70
866.99	2199.52
867.16	2224.09
867.32	2105.31
867.49	2140.13
867.66	2209.76
867.83	2168.80
867.99	1994.72
868.16	2107.36
868.33	2013.15
868.49	2121.70
868.66	2160.61
868.83	2228.19
868.99	2199.52
869.16	2203.61
869.33	2234.33
869.50	2146.27
869.66	2222.05
869.83	2144.22
870.00	2101.22
870.16	2222.05
870.33	2129.89
870.50	2242.53
870.66	2160.61
870.83	2279.39
871.00	2172.89
871.17	2197.47
871.33	2267.10
871.50	2136.03
871.67	2174.94
871.83	2084.83
872.00	2226.14
872.17	2146.27
872.33	2258.91
872.50	2267.10
872.67	2150.37
872.83	2078.69
873.00	2195.42
873.17	2193.37
873.33	2162.66
873.50	2152.42
873.67	2099.17
873.83	2107.36
874.00	2136.03
874.16	2209.76
874.33	2183.13
874.50	2084.83
874.66	2197.47
874.83	2191.33
875.00	2326.49
875.16	2346.97
875.33	2271.20
875.50	2011.11
875.66	2093.02
875.83	2228.19
875.99	2277.34
876.16	2199.52
876.33	2064.35
876.49	2183.13
876.66	2222.05
876.83	2162.66
876.99	2076.64
877.16	2191.33
877.32	2138.08
877.49	2076.64
877.66	2205.66
877.82	2324.44
877.99	2176.99
878.15	2263.01
878.32	2156.51
878.49	2256.86
878.65	2174.94
878.82	2246.62
878.98	2152.42
879.15	2322.40
879.32	2258.91
879.48	2201.57
879.65	2203.61
879.81	2195.42
879.98	2181.09
880.15	2105.31
880.31	2220.00
880.48	2086.88
880.64	2256.86
880.81	2203.61
880.97	2402.27
881.14	2326.49
881.31	2056.16
881.47	2244.57
881.64	2160.61
881.80	2072.54
881.97	2166.75
882.13	2146.27
882.30	2138.08
882.47	2142.18
882.63	2062.30
882.80	2146.27
882.96	2101.22
883.13	2267.10
883.29	2179.04
883.46	2150.37
883.62	2375.64
883.79	2181.09
883.95	2267.10
884.12	2093.02
884.29	2334.68
884.45	2131.94
884.62	2256.86
884.78	2076.64
884.95	2316.25
885.11	2131.94
885.28	2211.81
885.44	2158.56
885.61	2211.81
885.77	2303.96
885.94	2185.18
886.10	2117.60
886.27	2246.62
886.43	2355.16
886.60	2246.62
886.76	2150.37
886.93	2142.18
887.09	2142.18
887.26	2105.31
887.42	2162.66
887.59	2252.77
887.75	2424.80
887.92	2277.34
888.08	2265.05
888.25	2289.63
888.41	2334.68
888.58	2123.74
888.74	2131.94
888.91	2111.46
>>>>>End Processed Spectral Data<<<<<
