SpectraSuite Data File
++++++++++++++++++++++++++++++++++++
Date: Thu May 05 12:35:39 CEST 2016
User: root
Dark Spectrum Present: No
Reference Spectrum Present: No
Number of Sampled Component Spectra: 1
Spectrometers: USB4C02835
Integration Time (usec): 100000 (USB4C02835)
Spectra Averaged: 1 (USB4C02835)
Boxcar Smoothing: 0 (USB4C02835)
Correct for Electrical Dark: No (USB4C02835)
Strobe/Lamp Enabled: No (USB4C02835)
Correct for Detector Non-linearity: No (USB4C02835)
Correct for Stray Light: No (USB4C02835)
Number of Pixels in Processed Spectrum: 3648
>>>>>Begin Processed Spectral Data<<<<<
177.47	1765.35
177.69	1765.35
177.91	1765.35
178.13	1828.84
178.36	1867.75
178.58	2187.23
178.80	2250.72
179.02	2052.06
179.24	2090.98
179.46	2179.04
179.68	2213.85
179.90	2121.70
180.13	2160.61
180.35	2047.97
180.57	2074.59
180.79	2263.01
181.01	2213.85
181.23	2254.81
181.45	2170.85
181.67	2193.37
181.90	2236.38
182.12	2047.97
182.34	2050.02
182.56	2279.39
182.78	2228.19
183.00	2127.84
183.22	2093.02
183.44	1974.24
183.66	2379.74
183.89	2269.15
184.11	2097.12
184.33	2254.81
184.55	2244.57
184.77	2213.85
184.99	2107.36
185.21	2220.00
185.43	2480.09
185.65	2160.61
185.87	2148.32
186.10	2398.17
186.32	2398.17
186.54	2228.19
186.76	2113.50
186.98	2293.72
187.20	2213.85
187.42	2037.73
187.64	2093.02
187.86	2277.34
188.08	2285.53
188.30	2095.07
188.52	2133.98
188.75	2277.34
188.97	2344.92
189.19	2090.98
189.41	2105.31
189.63	2273.25
189.85	2105.31
190.07	2052.06
190.29	2131.94
190.51	2220.00
190.73	2084.83
190.95	2232.29
191.17	2162.66
191.39	2097.12
191.61	2156.51
191.84	2084.83
192.06	2234.33
192.28	2062.30
192.50	2465.75
192.72	2144.22
192.94	2181.09
193.16	2260.96
193.38	2185.18
193.60	2074.59
193.82	2164.70
194.04	2383.84
194.26	2207.71
194.48	2136.03
194.70	2054.11
194.92	2162.66
195.14	2228.19
195.36	2084.83
195.58	2088.93
195.80	2174.94
196.02	2093.02
196.24	2027.49
196.46	2232.29
196.69	2136.03
196.91	2406.36
197.13	2113.50
197.35	2088.93
197.57	2281.44
197.79	2226.14
198.01	2121.70
198.23	2168.80
198.45	2281.44
198.67	2086.88
198.89	2136.03
199.11	2199.52
199.33	2097.12
199.55	2035.68
199.77	2080.74
199.99	2144.22
200.21	2144.22
200.43	2215.90
200.65	2150.37
200.87	2019.30
201.09	2166.75
201.31	2170.85
201.53	2150.37
201.75	2260.96
201.97	2281.44
202.19	2203.61
202.41	2211.81
202.63	2285.53
202.85	2185.18
203.07	2127.84
203.29	2170.85
203.51	2099.17
203.73	2162.66
203.95	2471.90
204.17	2138.08
204.39	2224.09
204.61	2224.09
204.83	2187.23
205.05	2207.71
205.27	2164.70
205.49	2424.80
205.71	2179.04
205.93	2015.20
206.15	2136.03
206.37	2209.76
206.59	2146.27
206.81	2054.11
207.03	2056.16
207.25	2181.09
207.47	2281.44
207.69	2199.52
207.91	2351.07
208.13	2295.77
208.34	2154.46
208.56	2074.59
208.78	2213.85
209.00	2103.26
209.22	2074.59
209.44	2152.42
209.66	2086.88
209.88	2254.81
210.10	2133.98
210.32	2037.73
210.54	2230.24
210.76	2226.14
210.98	2187.23
211.20	1941.47
211.42	2131.94
211.64	2297.82
211.86	2215.90
212.08	2162.66
212.30	2097.12
212.52	2162.66
212.74	2281.44
212.96	2064.35
213.17	2176.99
213.39	2318.30
213.61	2392.03
213.83	2093.02
214.05	2226.14
214.27	2260.96
214.49	2076.64
214.71	2039.78
214.93	2226.14
215.15	2160.61
215.37	2303.96
215.59	2082.78
215.81	2260.96
216.03	2306.01
216.24	2148.32
216.46	2072.54
216.68	2136.03
216.90	2201.57
217.12	2353.12
217.34	2146.27
217.56	2142.18
217.78	2267.10
218.00	2283.49
218.22	2152.42
218.44	2205.66
218.66	2146.27
218.87	2308.06
219.09	2107.36
219.31	2103.26
219.53	2224.09
219.75	2146.27
219.97	2099.17
220.19	2156.51
220.41	2140.13
220.63	2381.79
220.85	2205.66
221.06	2097.12
221.28	2349.02
221.50	2224.09
221.72	2152.42
221.94	2113.50
222.16	2215.90
222.38	2334.68
222.60	2168.80
222.82	2097.12
223.03	2289.63
223.25	2068.45
223.47	2166.75
223.69	2383.84
223.91	2222.05
224.13	2176.99
224.35	2021.35
224.57	2244.57
224.78	2220.00
225.00	2195.42
225.22	2156.51
225.44	2101.22
225.66	2303.96
225.88	2109.41
226.10	2226.14
226.32	2164.70
226.53	2299.87
226.75	2133.98
226.97	2185.18
227.19	2133.98
227.41	2150.37
227.63	2179.04
227.85	1961.95
228.06	2103.26
228.28	2238.43
228.50	2277.34
228.72	2035.68
228.94	2076.64
229.16	2058.21
229.37	2056.16
229.59	2062.30
229.81	2195.42
230.03	2170.85
230.25	2068.45
230.47	2027.49
230.69	2023.39
230.90	2226.14
231.12	2133.98
231.34	2162.66
231.56	2248.67
231.78	2127.84
232.00	2160.61
232.21	2152.42
232.43	2156.51
232.65	1953.76
232.87	2232.29
233.09	2125.79
233.30	2140.13
233.52	2248.67
233.74	2162.66
233.96	2088.93
234.18	2217.95
234.40	2195.42
234.61	2373.60
234.83	2023.39
235.05	2039.78
235.27	2373.60
235.49	2236.38
235.70	2144.22
235.92	2248.67
236.14	2285.53
236.36	2400.22
236.58	1943.52
236.79	2246.62
237.01	2162.66
237.23	2125.79
237.45	2318.30
237.67	2115.55
237.88	2242.53
238.10	2394.08
238.32	2047.97
238.54	2045.92
238.76	2113.50
238.97	2113.50
239.19	2117.60
239.41	2248.67
239.63	2340.83
239.85	2064.35
240.06	2140.13
240.28	2052.06
240.50	2322.40
240.72	2201.57
240.93	2084.83
241.15	2232.29
241.37	2181.09
241.59	2318.30
241.81	2125.79
242.02	2133.98
242.24	2187.23
242.46	2238.43
242.68	2088.93
242.89	2123.74
243.11	2330.59
243.33	2236.38
243.55	2129.89
243.76	2172.89
243.98	2088.93
244.20	2170.85
244.42	2127.84
244.64	2215.90
244.85	2121.70
245.07	2027.49
245.29	2209.76
245.51	2058.21
245.72	2170.85
245.94	2334.68
246.16	2121.70
246.38	2185.18
246.59	2076.64
246.81	2125.79
247.03	2133.98
247.24	1941.47
247.46	2123.74
247.68	2211.81
247.90	2047.97
248.11	2095.07
248.33	2269.15
248.55	2142.18
248.77	2150.37
248.98	2256.86
249.20	2338.78
249.42	2170.85
249.64	2138.08
249.85	2090.98
250.07	2185.18
250.29	2330.59
250.50	2220.00
250.72	2076.64
250.94	2152.42
251.16	2402.27
251.37	2166.75
251.59	2164.70
251.81	2310.11
252.02	2373.60
252.24	2070.50
252.46	2197.47
252.68	2041.82
252.89	2164.70
253.11	2021.35
253.33	2289.63
253.54	2326.49
253.76	2101.22
253.98	2179.04
254.20	2121.70
254.41	2017.25
254.63	2142.18
254.85	2052.06
255.06	2123.74
255.28	2240.48
255.50	2168.80
255.71	2111.46
255.93	2021.35
256.15	2162.66
256.36	2174.94
256.58	2101.22
256.80	2154.46
257.02	2209.76
257.23	2191.33
257.45	2176.99
257.67	2142.18
257.88	2146.27
258.10	2152.42
258.32	2086.88
258.53	2105.31
258.75	2355.16
258.97	2140.13
259.18	2127.84
259.40	2090.98
259.62	2285.53
259.83	2408.41
260.05	2133.98
260.27	2504.67
260.48	2269.15
260.70	2111.46
260.92	2129.89
261.13	2115.55
261.35	2205.66
261.57	2195.42
261.78	2068.45
262.00	2109.41
262.22	2273.25
262.43	2095.07
262.65	2113.50
262.86	2129.89
263.08	2379.74
263.30	2199.52
263.51	1966.05
263.73	2031.58
263.95	2244.57
264.16	2133.98
264.38	2095.07
264.60	2058.21
264.81	2244.57
265.03	2383.84
265.25	2238.43
265.46	2117.60
265.68	2392.03
265.89	2217.95
266.11	2109.41
266.33	2160.61
266.54	2318.30
266.76	2201.57
266.98	2144.22
267.19	2166.75
267.41	2297.82
267.62	2082.78
267.84	2004.96
268.06	2144.22
268.27	2197.47
268.49	2207.71
268.70	2211.81
268.92	2170.85
269.14	2133.98
269.35	2103.26
269.57	2176.99
269.79	2183.13
270.00	2127.84
270.22	2414.56
270.43	2113.50
270.65	1927.14
270.87	2258.91
271.08	2246.62
271.30	2252.77
271.51	2197.47
271.73	2193.37
271.95	2328.54
272.16	2133.98
272.38	2205.66
272.59	2080.74
272.81	2301.92
273.02	2136.03
273.24	2226.14
273.46	2306.01
273.67	2127.84
273.89	2047.97
274.10	2097.12
274.32	2281.44
274.54	2242.53
274.75	2179.04
274.97	2150.37
275.18	2252.77
275.40	2181.09
275.61	2189.28
275.83	2193.37
276.05	2050.02
276.26	2187.23
276.48	2131.94
276.69	2082.78
276.91	2187.23
277.12	2375.64
277.34	2185.18
277.55	2248.67
277.77	2258.91
277.99	2183.13
278.20	2074.59
278.42	2004.96
278.63	2107.36
278.85	2125.79
279.06	2064.35
279.28	2242.53
279.49	2338.78
279.71	2330.59
279.93	2240.48
280.14	2193.37
280.36	2156.51
280.57	2291.68
280.79	2334.68
281.00	2023.39
281.22	2109.41
281.43	2334.68
281.65	1964.00
281.86	2039.78
282.08	2248.67
282.29	2342.88
282.51	2029.54
282.73	2117.60
282.94	2039.78
283.16	2232.29
283.37	2279.39
283.59	2185.18
283.80	2201.57
284.02	2242.53
284.23	2154.46
284.45	2105.31
284.66	2080.74
284.88	2203.61
285.09	2168.80
285.31	2199.52
285.52	2179.04
285.74	2060.26
285.95	2267.10
286.17	2199.52
286.38	2369.50
286.60	2119.65
286.81	2121.70
287.03	2146.27
287.24	2166.75
287.46	2269.15
287.67	2103.26
287.89	2334.68
288.10	2168.80
288.32	2215.90
288.53	2291.68
288.75	2113.50
288.96	2203.61
289.18	2170.85
289.39	2176.99
289.61	2289.63
289.82	2400.22
290.04	2310.11
290.25	2105.31
290.47	2115.55
290.68	2121.70
290.90	2213.85
291.11	2062.30
291.33	2232.29
291.54	2093.02
291.76	2131.94
291.97	2234.33
292.18	2220.00
292.40	2176.99
292.61	2156.51
292.83	2306.01
293.04	2170.85
293.26	2222.05
293.47	2207.71
293.69	2070.50
293.90	2170.85
294.12	2320.35
294.33	2201.57
294.55	2238.43
294.76	2254.81
294.97	2371.55
295.19	2355.16
295.40	2144.22
295.62	2166.75
295.83	2260.96
296.05	2187.23
296.26	2271.20
296.48	2072.54
296.69	2183.13
296.90	2199.52
297.12	2234.33
297.33	2316.25
297.55	2203.61
297.76	2240.48
297.98	2236.38
298.19	2164.70
298.41	2211.81
298.62	2078.69
298.83	2244.57
299.05	2224.09
299.26	2121.70
299.48	2111.46
299.69	2226.14
299.90	2164.70
300.12	2074.59
300.33	2179.04
300.55	2215.90
300.76	2215.90
300.98	2052.06
301.19	2217.95
301.40	2125.79
301.62	2189.28
301.83	2283.49
302.05	2197.47
302.26	2176.99
302.47	2138.08
302.69	2111.46
302.90	2119.65
303.12	2058.21
303.33	2193.37
303.54	2412.51
303.76	2176.99
303.97	2179.04
304.19	2312.16
304.40	2101.22
304.61	2176.99
304.83	2357.21
305.04	2279.39
305.26	2211.81
305.47	2183.13
305.68	2093.02
305.90	2103.26
306.11	2375.64
306.33	2181.09
306.54	2105.31
306.75	2146.27
306.97	2095.07
307.18	2095.07
307.39	2127.84
307.61	2152.42
307.82	2150.37
308.04	2248.67
308.25	2086.88
308.46	2234.33
308.68	2213.85
308.89	2273.25
309.10	2326.49
309.32	2318.30
309.53	2183.13
309.74	2260.96
309.96	2191.33
310.17	2250.72
310.39	2160.61
310.60	2224.09
310.81	2230.24
311.03	2060.26
311.24	2195.42
311.45	2205.66
311.67	2383.84
311.88	2189.28
312.09	2158.56
312.31	2181.09
312.52	2162.66
312.73	2183.13
312.95	2140.13
313.16	2117.60
313.37	2301.92
313.59	2191.33
313.80	2273.25
314.01	2310.11
314.23	2181.09
314.44	2131.94
314.65	2074.59
314.87	2097.12
315.08	2244.57
315.29	2174.94
315.51	2082.78
315.72	2086.88
315.93	2306.01
316.15	2209.76
316.36	2148.32
316.57	2228.19
316.79	2185.18
317.00	2195.42
317.21	2265.05
317.43	2136.03
317.64	2205.66
317.85	2103.26
318.07	2168.80
318.28	2152.42
318.49	2375.64
318.70	2445.27
318.92	2365.40
319.13	2394.08
319.34	2441.18
319.56	2242.53
319.77	2344.92
319.98	2330.59
320.20	2349.02
320.41	2265.05
320.62	2187.23
320.83	2052.06
321.05	2301.92
321.26	2174.94
321.47	2209.76
321.69	2334.68
321.90	2054.11
322.11	2142.18
322.32	2185.18
322.54	2369.50
322.75	2158.56
322.96	2381.79
323.18	2101.22
323.39	2009.06
323.60	2070.50
323.81	2275.29
324.03	2195.42
324.24	2101.22
324.45	2133.98
324.66	2127.84
324.88	2299.87
325.09	2248.67
325.30	2164.70
325.52	2207.71
325.73	2246.62
325.94	2127.84
326.15	2050.02
326.37	2109.41
326.58	2275.29
326.79	2375.64
327.00	2025.44
327.22	2125.79
327.43	2191.33
327.64	2101.22
327.85	2228.19
328.07	2242.53
328.28	2394.08
328.49	2107.36
328.70	2152.42
328.92	2158.56
329.13	2172.89
329.34	2187.23
329.55	2408.41
329.76	2230.24
329.98	2203.61
330.19	2244.57
330.40	2179.04
330.61	2197.47
330.83	2211.81
331.04	2031.58
331.25	2154.46
331.46	2193.37
331.68	2160.61
331.89	2416.60
332.10	2195.42
332.31	2021.35
332.52	2197.47
332.74	2269.15
332.95	2074.59
333.16	2170.85
333.37	2336.73
333.58	2068.45
333.80	2263.01
334.01	2064.35
334.22	2183.13
334.43	2099.17
334.64	2107.36
334.86	2131.94
335.07	2086.88
335.28	2310.11
335.49	2060.26
335.70	2260.96
335.92	2291.68
336.13	2471.90
336.34	2230.24
336.55	2260.96
336.76	2267.10
336.98	2041.82
337.19	2162.66
337.40	2289.63
337.61	2445.27
337.82	2189.28
338.04	2236.38
338.25	1996.77
338.46	2103.26
338.67	2222.05
338.88	2136.03
339.09	2086.88
339.31	2140.13
339.52	2121.70
339.73	2047.97
339.94	2129.89
340.15	2310.11
340.36	2115.55
340.58	2242.53
340.79	2093.02
341.00	2254.81
341.21	2154.46
341.42	2291.68
341.63	2129.89
341.85	2295.77
342.06	2162.66
342.27	2101.22
342.48	2195.42
342.69	2101.22
342.90	2273.25
343.12	2301.92
343.33	2142.18
343.54	2213.85
343.75	2228.19
343.96	2093.02
344.17	2072.54
344.38	2185.18
344.60	2111.46
344.81	2031.58
345.02	2144.22
345.23	2209.76
345.44	2443.23
345.65	2265.05
345.86	2183.13
346.07	2207.71
346.29	2193.37
346.50	2240.48
346.71	2228.19
346.92	2297.82
347.13	2387.93
347.34	2127.84
347.55	2121.70
347.76	2162.66
347.98	2060.26
348.19	2129.89
348.40	2238.43
348.61	2174.94
348.82	2324.44
349.03	2195.42
349.24	2195.42
349.45	2398.17
349.66	1988.58
349.88	2185.18
350.09	2084.83
350.30	2324.44
350.51	2326.49
350.72	2238.43
350.93	2203.61
351.14	2125.79
351.35	2164.70
351.56	2191.33
351.77	2154.46
351.99	2213.85
352.20	2385.88
352.41	2324.44
352.62	1988.58
352.83	2183.13
353.04	2187.23
353.25	2133.98
353.46	2172.89
353.67	2387.93
353.88	2113.50
354.09	2129.89
354.30	2142.18
354.52	2326.49
354.73	2111.46
354.94	2164.70
355.15	2158.56
355.36	2463.71
355.57	2172.89
355.78	2205.66
355.99	2084.83
356.20	2183.13
356.41	2275.29
356.62	2217.95
356.83	2236.38
357.04	2361.31
357.25	2113.50
357.46	2179.04
357.68	2095.07
357.89	2068.45
358.10	2220.00
358.31	2277.34
358.52	2097.12
358.73	2082.78
358.94	2105.31
359.15	2129.89
359.36	2195.42
359.57	2181.09
359.78	2154.46
359.99	2179.04
360.20	2045.92
360.41	2215.90
360.62	2293.72
360.83	2133.98
361.04	2195.42
361.25	2217.95
361.46	2344.92
361.67	2105.31
361.88	2236.38
362.09	2209.76
362.30	2195.42
362.51	2140.13
362.72	2211.81
362.93	2287.58
363.14	2211.81
363.35	2201.57
363.56	2127.84
363.78	2316.25
363.99	2238.43
364.20	2168.80
364.41	2107.36
364.62	2457.56
364.83	2215.90
365.04	2160.61
365.25	2127.84
365.46	2410.46
365.67	2191.33
365.88	2170.85
366.09	2185.18
366.30	2146.27
366.51	2232.29
366.72	2064.35
366.93	2152.42
367.14	2119.65
367.35	2306.01
367.56	2152.42
367.77	2349.02
367.98	2168.80
368.18	2273.25
368.39	2187.23
368.60	2146.27
368.81	2265.05
369.02	2224.09
369.23	2224.09
369.44	2144.22
369.65	2074.59
369.86	2236.38
370.07	2260.96
370.28	2119.65
370.49	2269.15
370.70	2191.33
370.91	2119.65
371.12	2021.35
371.33	2297.82
371.54	2144.22
371.75	2211.81
371.96	1996.77
372.17	2287.58
372.38	2176.99
372.59	2220.00
372.80	2127.84
373.01	2191.33
373.22	2228.19
373.43	2154.46
373.64	2080.74
373.85	2285.53
374.06	2363.36
374.26	2252.77
374.47	2252.77
374.68	2342.88
374.89	2273.25
375.10	2183.13
375.31	2263.01
375.52	2183.13
375.73	2195.42
375.94	1984.48
376.15	2254.81
376.36	2080.74
376.57	2123.74
376.78	2133.98
376.99	2174.94
377.20	2306.01
377.40	2152.42
377.61	2338.78
377.82	2060.26
378.03	2310.11
378.24	2234.33
378.45	2228.19
378.66	2224.09
378.87	2105.31
379.08	2125.79
379.29	2187.23
379.50	2217.95
379.71	2211.81
379.91	2220.00
380.12	2174.94
380.33	2166.75
380.54	2170.85
380.75	2146.27
380.96	2252.77
381.17	2203.61
381.38	2172.89
381.59	2187.23
381.80	2170.85
382.00	2361.31
382.21	2203.61
382.42	2449.37
382.63	2435.03
382.84	2275.29
383.05	2299.87
383.26	2310.11
383.47	2228.19
383.68	2213.85
383.88	2314.20
384.09	2195.42
384.30	2371.55
384.51	2252.77
384.72	2099.17
384.93	2045.92
385.14	2199.52
385.35	2275.29
385.55	2023.39
385.76	2324.44
385.97	2138.08
386.18	2029.54
386.39	2193.37
386.60	2125.79
386.81	2162.66
387.02	2142.18
387.22	2029.54
387.43	2314.20
387.64	2279.39
387.85	2379.74
388.06	2416.60
388.27	3981.25
388.48	8580.99
388.68	12140.36
388.89	14370.60
389.10	15750.93
389.31	14704.42
389.52	11233.11
389.73	9822.06
389.93	8898.42
390.14	8126.34
390.35	7280.53
390.56	6524.83
390.77	5431.21
390.98	4267.97
391.18	3325.90
391.39	2807.77
391.60	2308.06
391.81	2310.11
392.02	2138.08
392.23	2416.60
392.43	2217.95
392.64	2265.05
392.85	2152.42
393.06	2355.16
393.27	2226.14
393.47	2125.79
393.68	2193.37
393.89	2119.65
394.10	2291.68
394.31	2058.21
394.52	2164.70
394.72	2074.59
394.93	2342.88
395.14	2154.46
395.35	2203.61
395.56	2109.41
395.76	2185.18
395.97	2250.72
396.18	2260.96
396.39	2394.08
396.60	2674.65
396.80	2512.86
397.01	2392.03
397.22	2363.36
397.43	2303.96
397.64	2217.95
397.84	2285.53
398.05	2500.57
398.26	2203.61
398.47	2342.88
398.67	2297.82
398.88	2232.29
399.09	2263.01
399.30	2127.84
399.51	2299.87
399.71	2119.65
399.92	2174.94
400.13	2226.14
400.34	2166.75
400.54	2258.91
400.75	2338.78
400.96	2228.19
401.17	2330.59
401.37	2179.04
401.58	2176.99
401.79	2211.81
402.00	2338.78
402.21	2562.01
402.41	2625.50
402.62	2553.82
402.83	2674.65
403.04	2637.78
403.24	2846.68
403.45	2324.44
403.66	2457.56
403.87	2439.13
404.07	2516.95
404.28	2488.28
404.49	2342.88
404.70	2295.77
404.90	2359.26
405.11	2164.70
405.32	2289.63
405.52	2166.75
405.73	2158.56
405.94	2095.07
406.15	2211.81
406.35	2170.85
406.56	2322.40
406.77	2316.25
406.98	2226.14
407.18	2199.52
407.39	2318.30
407.60	2244.57
407.80	2254.81
408.01	2172.89
408.22	2263.01
408.43	2154.46
408.63	2250.72
408.84	2201.57
409.05	2332.64
409.25	2150.37
409.46	2179.04
409.67	2179.04
409.88	2138.08
410.08	2191.33
410.29	2084.83
410.50	2236.38
410.70	2195.42
410.91	2084.83
411.12	2240.48
411.32	2295.77
411.53	2154.46
411.74	2318.30
411.95	2320.35
412.15	2293.72
412.36	2344.92
412.57	2260.96
412.77	2361.31
412.98	2217.95
413.19	2121.70
413.39	2320.35
413.60	2277.34
413.81	2293.72
414.01	2064.35
414.22	2242.53
414.43	2238.43
414.63	2220.00
414.84	2293.72
415.05	2146.27
415.25	2088.93
415.46	2306.01
415.67	2183.13
415.87	2187.23
416.08	2213.85
416.29	2230.24
416.49	2258.91
416.70	2154.46
416.91	2162.66
417.11	2220.00
417.32	2312.16
417.53	2187.23
417.73	2193.37
417.94	2187.23
418.15	2252.77
418.35	2242.53
418.56	2170.85
418.77	2383.84
418.97	2265.05
419.18	2093.02
419.38	2019.30
419.59	2109.41
419.80	2383.84
420.00	2138.08
420.21	2172.89
420.42	2269.15
420.62	2238.43
420.83	2176.99
421.04	2140.13
421.24	2176.99
421.45	2267.10
421.65	2228.19
421.86	2199.52
422.07	2244.57
422.27	2179.04
422.48	2168.80
422.69	2072.54
422.89	2220.00
423.10	2170.85
423.30	2133.98
423.51	2158.56
423.72	2203.61
423.92	2277.34
424.13	2084.83
424.33	2166.75
424.54	2295.77
424.75	2289.63
424.95	2373.60
425.16	2205.66
425.36	2170.85
425.57	2289.63
425.78	2220.00
425.98	2244.57
426.19	2187.23
426.39	2127.84
426.60	2213.85
426.81	2291.68
427.01	2199.52
427.22	2074.59
427.42	2072.54
427.63	2033.63
427.83	2301.92
428.04	2359.26
428.25	2310.11
428.45	2220.00
428.66	2308.06
428.86	2174.94
429.07	2174.94
429.28	2166.75
429.48	2199.52
429.69	2179.04
429.89	2244.57
430.10	2050.02
430.30	2222.05
430.51	2301.92
430.71	2117.60
430.92	2174.94
431.13	2146.27
431.33	2250.72
431.54	2248.67
431.74	2328.54
431.95	2432.99
432.15	2109.41
432.36	2164.70
432.56	2215.90
432.77	2342.88
432.98	2406.36
433.18	2172.89
433.39	2127.84
433.59	2220.00
433.80	2363.36
434.00	2269.15
434.21	2150.37
434.41	2107.36
434.62	2453.47
434.82	2062.30
435.03	2111.46
435.23	2164.70
435.44	2045.92
435.64	2250.72
435.85	2236.38
436.06	2271.20
436.26	2285.53
436.47	2201.57
436.67	2095.07
436.88	2226.14
437.08	2244.57
437.29	2351.07
437.49	2248.67
437.70	2293.72
437.90	2244.57
438.11	2463.71
438.31	2295.77
438.52	2400.22
438.72	2412.51
438.93	2496.47
439.13	2279.39
439.34	2392.03
439.54	2158.56
439.75	2363.36
439.95	2379.74
440.16	2148.32
440.36	2228.19
440.57	2250.72
440.77	2191.33
440.98	2281.44
441.18	2322.40
441.39	2103.26
441.59	2119.65
441.80	2353.12
442.00	2254.81
442.21	2379.74
442.41	2039.78
442.62	2240.48
442.82	2154.46
443.02	2211.81
443.23	2215.90
443.43	2193.37
443.64	2373.60
443.84	2125.79
444.05	2369.50
444.25	2189.28
444.46	2224.09
444.66	2232.29
444.87	2381.79
445.07	2047.97
445.28	2213.85
445.48	2322.40
445.69	2326.49
445.89	2424.80
446.09	2217.95
446.30	2555.86
446.50	2811.86
446.71	4333.50
446.91	5576.62
447.12	6442.91
447.32	6688.67
447.53	6256.54
447.73	5185.46
447.93	4663.22
448.14	4284.35
448.34	4052.93
448.55	3653.58
448.75	3506.12
448.96	3373.00
449.16	3176.40
449.36	2779.09
449.57	2525.15
449.77	2316.25
449.98	2195.42
450.18	2332.64
450.39	2314.20
450.59	2256.86
450.79	2228.19
451.00	2133.98
451.20	2250.72
451.41	2125.79
451.61	2252.77
451.81	2340.83
452.02	2168.80
452.22	2154.46
452.43	2142.18
452.63	2160.61
452.84	2187.23
453.04	2191.33
453.24	2193.37
453.45	2131.94
453.65	2146.27
453.86	2195.42
454.06	2246.62
454.26	2230.24
454.47	2136.03
454.67	2353.12
454.87	2281.44
455.08	2097.12
455.28	2400.22
455.49	2217.95
455.69	2146.27
455.89	2437.08
456.10	2349.02
456.30	2183.13
456.51	2234.33
456.71	2244.57
456.91	2330.59
457.12	2213.85
457.32	2189.28
457.52	2129.89
457.73	2179.04
457.93	2236.38
458.14	2172.89
458.34	2074.59
458.54	2209.76
458.75	2201.57
458.95	2277.34
459.15	2199.52
459.36	2236.38
459.56	2228.19
459.76	2441.18
459.97	2185.18
460.17	2209.76
460.37	2248.67
460.58	2224.09
460.78	2258.91
460.99	2136.03
461.19	2168.80
461.39	2164.70
461.60	2195.42
461.80	2267.10
462.00	2109.41
462.21	2232.29
462.41	2138.08
462.61	2168.80
462.82	2062.30
463.02	2303.96
463.22	2289.63
463.43	2365.40
463.63	2117.60
463.83	2295.77
464.04	2236.38
464.24	2193.37
464.44	2133.98
464.64	2220.00
464.85	2234.33
465.05	2297.82
465.25	2215.90
465.46	2090.98
465.66	2246.62
465.86	2160.61
466.07	2158.56
466.27	2209.76
466.47	2095.07
466.68	2119.65
466.88	2357.21
467.08	2201.57
467.29	2246.62
467.49	2185.18
467.69	2187.23
467.89	2250.72
468.10	2217.95
468.30	2314.20
468.50	2377.69
468.71	2318.30
468.91	2072.54
469.11	2252.77
469.31	2191.33
469.52	2082.78
469.72	2346.97
469.92	2355.16
470.13	2193.37
470.33	2230.24
470.53	2293.72
470.73	2637.78
470.94	3024.85
471.14	3299.28
471.34	3645.38
471.54	3489.74
471.75	3141.58
471.95	2789.33
472.15	2754.52
472.36	2754.52
472.56	2750.42
472.76	2709.46
472.96	2645.98
473.17	2559.96
473.37	2478.04
473.57	2285.53
473.77	2398.17
473.98	2265.05
474.18	2148.32
474.38	2557.91
474.58	2156.51
474.79	2166.75
474.99	2215.90
475.19	2297.82
475.39	2170.85
475.60	2236.38
475.80	2172.89
476.00	2222.05
476.20	2191.33
476.41	2240.48
476.61	2367.45
476.81	2338.78
477.01	2105.31
477.21	2355.16
477.42	2357.21
477.62	2164.70
477.82	2322.40
478.02	2121.70
478.23	2267.10
478.43	2015.20
478.63	2181.09
478.83	2226.14
479.03	2203.61
479.24	2400.22
479.44	2396.12
479.64	2064.35
479.84	2074.59
480.04	2152.42
480.25	2275.29
480.45	2148.32
480.65	2121.70
480.85	2334.68
481.06	2148.32
481.26	2273.25
481.46	2244.57
481.66	2199.52
481.86	2121.70
482.06	2338.78
482.27	2133.98
482.47	2154.46
482.67	2179.04
482.87	2150.37
483.07	2291.68
483.28	2140.13
483.48	2090.98
483.68	2162.66
483.88	2133.98
484.08	2031.58
484.29	2127.84
484.49	2265.05
484.69	2129.89
484.89	2326.49
485.09	2295.77
485.29	2263.01
485.50	2238.43
485.70	2230.24
485.90	2256.86
486.10	2220.00
486.30	2242.53
486.50	2334.68
486.71	2277.34
486.91	2265.05
487.11	2279.39
487.31	2103.26
487.51	2248.67
487.71	2015.20
487.91	2189.28
488.12	2015.20
488.32	2045.92
488.52	2148.32
488.72	2068.45
488.92	2156.51
489.12	2322.40
489.32	2355.16
489.53	2260.96
489.73	2152.42
489.93	2310.11
490.13	2211.81
490.33	2088.93
490.53	2203.61
490.73	2301.92
490.94	2013.15
491.14	2273.25
491.34	2316.25
491.54	2498.52
491.74	3129.30
491.94	3766.21
492.14	4104.13
492.34	4118.47
492.54	3768.26
492.75	3209.17
492.95	3121.10
493.15	2965.46
493.35	2906.07
493.55	2756.57
493.75	2650.07
493.95	2768.85
494.15	2549.72
494.35	2363.36
494.56	2301.92
494.76	2191.33
494.96	2260.96
495.16	2258.91
495.36	2205.66
495.56	2201.57
495.76	2213.85
495.96	2168.80
496.16	2144.22
496.36	2369.50
496.56	2162.66
496.77	2193.37
496.97	2205.66
497.17	2220.00
497.37	2080.74
497.57	2156.51
497.77	2220.00
497.97	2119.65
498.17	2191.33
498.37	2195.42
498.57	2232.29
498.77	2240.48
498.97	2314.20
499.17	2310.11
499.38	2260.96
499.58	2226.14
499.78	2301.92
499.98	2291.68
500.18	2195.42
500.38	2209.76
500.58	2359.26
500.78	2842.58
500.98	5177.26
501.18	7487.37
501.38	8988.53
501.58	10016.62
501.78	9838.44
501.98	7667.60
502.18	6502.30
502.38	5650.35
502.58	5095.35
502.78	4671.42
502.98	4511.68
503.18	4364.22
503.38	3901.38
503.59	3368.91
503.79	3338.19
503.99	2992.08
504.19	2758.61
504.39	2834.39
504.59	2846.68
504.79	2807.77
504.99	2858.96
505.19	2590.68
505.39	2475.99
505.59	2684.89
505.79	2488.28
505.99	2375.64
506.19	2250.72
506.39	2467.80
506.59	2234.33
506.79	2299.87
506.99	2285.53
507.19	2176.99
507.39	2267.10
507.59	2072.54
507.79	2133.98
507.99	2176.99
508.19	2220.00
508.39	2103.26
508.59	2279.39
508.79	2353.12
508.99	2406.36
509.19	2146.27
509.39	2277.34
509.59	2164.70
509.79	2115.55
509.99	2230.24
510.19	2277.34
510.39	2260.96
510.59	2138.08
510.79	2172.89
510.99	2068.45
511.19	2158.56
511.39	2428.89
511.59	2236.38
511.79	2330.59
511.99	2209.76
512.19	2475.99
512.38	2217.95
512.58	2113.50
512.78	2170.85
512.98	2324.44
513.18	2326.49
513.38	2035.68
513.58	2394.08
513.78	2146.27
513.98	2222.05
514.18	2154.46
514.38	2154.46
514.58	2174.94
514.78	2068.45
514.98	2166.75
515.18	2191.33
515.38	2101.22
515.58	2379.74
515.78	2084.83
515.98	2211.81
516.18	2156.51
516.38	2201.57
516.57	2168.80
516.77	2195.42
516.97	2265.05
517.17	2138.08
517.37	2060.26
517.57	2226.14
517.77	2168.80
517.97	2191.33
518.17	2287.58
518.37	2093.02
518.57	2146.27
518.77	2179.04
518.97	2222.05
519.16	2291.68
519.36	2328.54
519.56	2113.50
519.76	2138.08
519.96	2191.33
520.16	2340.83
520.36	2129.89
520.56	2338.78
520.76	2136.03
520.96	2168.80
521.16	2275.29
521.35	2310.11
521.55	2320.35
521.75	2267.10
521.95	2217.95
522.15	2176.99
522.35	2007.01
522.55	2105.31
522.75	2244.57
522.95	2174.94
523.14	2123.74
523.34	2166.75
523.54	2181.09
523.74	2291.68
523.94	2181.09
524.14	2047.97
524.34	2283.49
524.54	2375.64
524.73	2164.70
524.93	2228.19
525.13	2213.85
525.33	2056.16
525.53	2334.68
525.73	2252.77
525.93	2209.76
526.13	2138.08
526.32	2185.18
526.52	2279.39
526.72	2340.83
526.92	2187.23
527.12	2211.81
527.32	2064.35
527.52	2176.99
527.71	2267.10
527.91	2215.90
528.11	2164.70
528.31	2252.77
528.51	2056.16
528.71	2299.87
528.90	2273.25
529.10	2275.29
529.30	2414.56
529.50	2013.15
529.70	2248.67
529.90	2215.90
530.09	2224.09
530.29	2146.27
530.49	2117.60
530.69	2535.39
530.89	2195.42
531.09	2275.29
531.28	2105.31
531.48	2285.53
531.68	2242.53
531.88	2228.19
532.08	2314.20
532.28	2154.46
532.47	2306.01
532.67	2322.40
532.87	2351.07
533.07	2232.29
533.27	2310.11
533.46	2275.29
533.66	2252.77
533.86	2285.53
534.06	2201.57
534.26	2244.57
534.45	2191.33
534.65	2404.32
534.85	2297.82
535.05	2185.18
535.25	2273.25
535.44	2002.91
535.64	2324.44
535.84	2252.77
536.04	2164.70
536.24	2185.18
536.43	2146.27
536.63	2252.77
536.83	2168.80
537.03	2185.18
537.22	2056.16
537.42	2093.02
537.62	2203.61
537.82	2138.08
538.02	2303.96
538.21	2258.91
538.41	2502.62
538.61	2236.38
538.81	2195.42
539.00	2299.87
539.20	2047.97
539.40	2195.42
539.60	2129.89
539.79	2209.76
539.99	2115.55
540.19	2158.56
540.39	2226.14
540.58	2228.19
540.78	2248.67
540.98	2125.79
541.18	2215.90
541.37	2349.02
541.57	2265.05
541.77	2228.19
541.97	2125.79
542.16	2117.60
542.36	2123.74
542.56	2230.24
542.76	2420.70
542.95	2271.20
543.15	2252.77
543.35	2289.63
543.54	2166.75
543.74	2160.61
543.94	2396.12
544.14	2105.31
544.33	2236.38
544.53	2291.68
544.73	2226.14
544.93	2220.00
545.12	2232.29
545.32	2123.74
545.52	2152.42
545.71	2197.47
545.91	2131.94
546.11	2215.90
546.30	2136.03
546.50	2162.66
546.70	2293.72
546.90	2224.09
547.09	2076.64
547.29	2195.42
547.49	2349.02
547.68	2226.14
547.88	2121.70
548.08	2324.44
548.27	2744.28
548.47	2183.13
548.67	2215.90
548.87	2230.24
549.06	2170.85
549.26	2289.63
549.46	2248.67
549.65	2168.80
549.85	2181.09
550.05	2246.62
550.24	2086.88
550.44	2152.42
550.64	2191.33
550.83	2238.43
551.03	2289.63
551.23	2330.59
551.42	2269.15
551.62	2226.14
551.82	2265.05
552.01	2154.46
552.21	2351.07
552.41	2232.29
552.60	2275.29
552.80	2236.38
553.00	2170.85
553.19	2160.61
553.39	2373.60
553.59	2150.37
553.78	2236.38
553.98	2211.81
554.17	2136.03
554.37	2211.81
554.57	2234.33
554.76	2103.26
554.96	2150.37
555.16	2213.85
555.35	2244.57
555.55	2316.25
555.75	2174.94
555.94	2320.35
556.14	2109.41
556.33	2265.05
556.53	2158.56
556.73	2154.46
556.92	2203.61
557.12	2371.55
557.32	2428.89
557.51	2330.59
557.71	2252.77
557.90	2371.55
558.10	2291.68
558.30	2252.77
558.49	2160.61
558.69	2170.85
558.88	2326.49
559.08	2224.09
559.28	2105.31
559.47	2267.10
559.67	2328.54
559.86	2371.55
560.06	2250.72
560.26	2205.66
560.45	2273.25
560.65	2152.42
560.84	2301.92
561.04	2148.32
561.24	2273.25
561.43	2123.74
561.63	2369.50
561.82	2226.14
562.02	2220.00
562.22	2105.31
562.41	2166.75
562.61	2179.04
562.80	2099.17
563.00	2512.86
563.19	2275.29
563.39	2207.71
563.59	2289.63
563.78	2084.83
563.98	2066.40
564.17	2131.94
564.37	1982.43
564.56	2193.37
564.76	2111.46
564.96	2248.67
565.15	2248.67
565.35	2408.41
565.54	2154.46
565.74	2291.68
565.93	2228.19
566.13	2095.07
566.32	2267.10
566.52	2291.68
566.71	2244.57
566.91	2332.64
567.11	2244.57
567.30	2166.75
567.50	2213.85
567.69	2222.05
567.89	2052.06
568.08	2191.33
568.28	2238.43
568.47	2203.61
568.67	2144.22
568.86	2154.46
569.06	2326.49
569.25	2195.42
569.45	2129.89
569.64	2154.46
569.84	2129.89
570.04	2201.57
570.23	2162.66
570.43	2136.03
570.62	2187.23
570.82	2373.60
571.01	2101.22
571.21	2101.22
571.40	2164.70
571.60	2289.63
571.79	2226.14
571.99	2193.37
572.18	2086.88
572.38	2228.19
572.57	2220.00
572.77	2246.62
572.96	2502.62
573.16	2228.19
573.35	2144.22
573.55	2310.11
573.74	2289.63
573.94	2215.90
574.13	2172.89
574.33	2326.49
574.52	2371.55
574.71	2215.90
574.91	2310.11
575.10	2080.74
575.30	2211.81
575.49	2193.37
575.69	2185.18
575.88	2324.44
576.08	2301.92
576.27	2359.26
576.47	2308.06
576.66	2484.19
576.86	2441.18
577.05	2232.29
577.25	2326.49
577.44	2392.03
577.64	2170.85
577.83	2314.20
578.02	2168.80
578.22	2383.84
578.41	2310.11
578.61	2217.95
578.80	2097.12
579.00	2236.38
579.19	2152.42
579.39	2236.38
579.58	2265.05
579.77	2168.80
579.97	2400.22
580.16	2344.92
580.36	2254.81
580.55	2285.53
580.75	2283.49
580.94	2236.38
581.13	2332.64
581.33	2398.17
581.52	2295.77
581.72	2451.42
581.91	2396.12
582.11	2252.77
582.30	2379.74
582.49	2269.15
582.69	2359.26
582.88	2283.49
583.08	2246.62
583.27	2367.45
583.47	2226.14
583.66	2181.09
583.85	2160.61
584.05	2318.30
584.24	2265.05
584.44	2338.78
584.63	2328.54
584.82	2371.55
585.02	2392.03
585.21	2424.80
585.41	2398.17
585.60	2363.36
585.79	2539.48
585.99	2471.90
586.18	2357.21
586.37	2971.60
586.57	4429.76
586.76	13201.21
586.96	32560.66
587.15	45958.47
587.34	55579.82
587.54	60953.69
587.73	55717.04
587.93	39456.17
588.12	29873.72
588.31	23760.53
588.51	20797.12
588.70	19035.87
588.89	17465.08
589.09	15290.13
589.28	13156.15
589.47	10608.48
589.67	8343.42
589.86	6369.18
590.06	4775.86
590.25	3878.85
590.44	3205.07
590.64	2824.15
590.83	2615.26
591.02	2506.71
591.22	2318.30
591.41	2314.20
591.60	2293.72
591.80	2463.71
591.99	2195.42
592.18	2209.76
592.38	2414.56
592.57	2162.66
592.76	2224.09
592.96	2349.02
593.15	2308.06
593.34	2361.31
593.54	2275.29
593.73	2301.92
593.92	2334.68
594.12	2320.35
594.31	2281.44
594.50	2379.74
594.70	2379.74
594.89	2475.99
595.08	2113.50
595.28	2287.58
595.47	2619.35
595.66	2396.12
595.86	2088.93
596.05	2217.95
596.24	2217.95
596.43	2486.23
596.63	2324.44
596.82	2265.05
597.01	2303.96
597.21	2396.12
597.40	2256.86
597.59	2308.06
597.79	2265.05
597.98	2322.40
598.17	2301.92
598.36	2232.29
598.56	2283.49
598.75	2150.37
598.94	2265.05
599.14	2269.15
599.33	2191.33
599.52	2295.77
599.71	2254.81
599.91	2306.01
600.10	2334.68
600.29	2176.99
600.48	2277.34
600.68	2375.64
600.87	2252.77
601.06	2191.33
601.26	2256.86
601.45	2238.43
601.64	2195.42
601.83	2297.82
602.03	2248.67
602.22	2045.92
602.41	2301.92
602.60	2408.41
602.80	2217.95
602.99	2281.44
603.18	2144.22
603.37	2244.57
603.57	2203.61
603.76	2265.05
603.95	2361.31
604.14	2244.57
604.34	2097.12
604.53	2176.99
604.72	2228.19
604.91	2246.62
605.10	2279.39
605.30	2060.26
605.49	2367.45
605.68	2338.78
605.87	2224.09
606.07	2154.46
606.26	2195.42
606.45	2277.34
606.64	2232.29
606.84	2138.08
607.03	2191.33
607.22	2359.26
607.41	2275.29
607.60	2240.48
607.80	2256.86
607.99	2191.33
608.18	2164.70
608.37	2258.91
608.56	2168.80
608.76	2359.26
608.95	2430.94
609.14	2349.02
609.33	2381.79
609.52	2457.56
609.72	2344.92
609.91	2357.21
610.10	2293.72
610.29	2400.22
610.48	2310.11
610.68	2238.43
610.87	2201.57
611.06	2215.90
611.25	2226.14
611.44	2396.12
611.63	2179.04
611.83	2351.07
612.02	2164.70
612.21	2326.49
612.40	1978.34
612.59	2105.31
612.79	2117.60
612.98	2117.60
613.17	2381.79
613.36	2207.71
613.55	2459.61
613.74	2277.34
613.93	2453.47
614.13	2484.19
614.32	2555.86
614.51	2406.36
614.70	2330.59
614.89	2291.68
615.08	2310.11
615.28	2770.90
615.47	2115.55
615.66	2299.87
615.85	2226.14
616.04	2314.20
616.23	2297.82
616.42	2267.10
616.62	2293.72
616.81	2256.86
617.00	2267.10
617.19	2265.05
617.38	2170.85
617.57	2209.76
617.76	2308.06
617.95	2346.97
618.15	2291.68
618.34	2338.78
618.53	2113.50
618.72	2349.02
618.91	2310.11
619.10	2336.73
619.29	2258.91
619.48	2246.62
619.68	2121.70
619.87	2154.46
620.06	2166.75
620.25	2244.57
620.44	2093.02
620.63	2129.89
620.82	2256.86
621.01	2220.00
621.20	2146.27
621.39	2283.49
621.59	2187.23
621.78	2228.19
621.97	2234.33
622.16	2342.88
622.35	2322.40
622.54	2273.25
622.73	2338.78
622.92	2129.89
623.11	2306.01
623.30	2148.32
623.49	2250.72
623.68	2133.98
623.88	2324.44
624.07	2162.66
624.26	2138.08
624.45	2275.29
624.64	2148.32
624.83	2263.01
625.02	2242.53
625.21	2220.00
625.40	2236.38
625.59	2316.25
625.78	2228.19
625.97	2351.07
626.16	2373.60
626.35	2303.96
626.54	2332.64
626.74	2469.85
626.93	2246.62
627.12	2209.76
627.31	2396.12
627.50	2260.96
627.69	2326.49
627.88	2162.66
628.07	2152.42
628.26	2037.73
628.45	2113.50
628.64	2146.27
628.83	2162.66
629.02	2072.54
629.21	2342.88
629.40	2201.57
629.59	2154.46
629.78	2133.98
629.97	2260.96
630.16	2244.57
630.35	2228.19
630.54	2248.67
630.73	2158.56
630.92	2209.76
631.11	2181.09
631.30	2260.96
631.49	2287.58
631.68	2224.09
631.87	2207.71
632.06	2179.04
632.25	2463.71
632.44	2308.06
632.63	2244.57
632.82	2166.75
633.01	2236.38
633.20	2342.88
633.39	2308.06
633.58	2205.66
633.77	2310.11
633.96	2248.67
634.15	2293.72
634.34	2217.95
634.53	2357.21
634.72	2172.89
634.91	2119.65
635.10	2250.72
635.29	2367.45
635.48	2213.85
635.67	2068.45
635.86	2138.08
636.05	2324.44
636.24	2236.38
636.43	2179.04
636.62	2260.96
636.81	1980.39
637.00	2170.85
637.19	2281.44
637.38	2185.18
637.57	2195.42
637.76	2342.88
637.95	2359.26
638.14	2238.43
638.33	2385.88
638.52	2306.01
638.71	2158.56
638.89	2273.25
639.08	2547.67
639.27	2365.40
639.46	2430.94
639.65	2967.51
639.84	3004.37
640.03	3059.67
640.22	2906.07
640.41	2994.13
640.60	2584.54
640.79	2486.23
640.98	2389.98
641.17	2512.86
641.36	2408.41
641.55	2482.14
641.74	2267.10
641.92	2250.72
642.11	2224.09
642.30	2238.43
642.49	2181.09
642.68	2131.94
642.87	2258.91
643.06	2215.90
643.25	2195.42
643.44	2150.37
643.63	2238.43
643.82	2279.39
644.00	2115.55
644.19	2250.72
644.38	2152.42
644.57	2174.94
644.76	2306.01
644.95	2277.34
645.14	2217.95
645.33	2125.79
645.52	2260.96
645.71	2105.31
645.89	2084.83
646.08	2203.61
646.27	2236.38
646.46	2299.87
646.65	2088.93
646.84	2246.62
647.03	2115.55
647.22	2254.81
647.40	2314.20
647.59	2181.09
647.78	2039.78
647.97	2117.60
648.16	2072.54
648.35	2308.06
648.54	2308.06
648.73	2138.08
648.91	2357.21
649.10	2250.72
649.29	2162.66
649.48	2205.66
649.67	2250.72
649.86	2215.90
650.05	2222.05
650.23	2475.99
650.42	2314.20
650.61	2529.24
650.80	2383.84
650.99	2475.99
651.18	2357.21
651.36	2357.21
651.55	2213.85
651.74	2324.44
651.93	2152.42
652.12	2199.52
652.31	2269.15
652.49	2232.29
652.68	2162.66
652.87	2398.17
653.06	2275.29
653.25	2383.84
653.44	2260.96
653.62	2326.49
653.81	2162.66
654.00	2129.89
654.19	2349.02
654.38	2506.71
654.56	2275.29
654.75	2191.33
654.94	2273.25
655.13	2252.77
655.32	2230.24
655.51	2291.68
655.69	2174.94
655.88	2281.44
656.07	2093.02
656.26	2260.96
656.45	2121.70
656.63	2230.24
656.82	2203.61
657.01	2287.58
657.20	2160.61
657.38	2375.64
657.57	2170.85
657.76	2127.84
657.95	2226.14
658.14	2224.09
658.32	2199.52
658.51	2084.83
658.70	2201.57
658.89	2207.71
659.08	2279.39
659.26	2373.60
659.45	2183.13
659.64	2291.68
659.83	2179.04
660.01	2553.82
660.20	2250.72
660.39	2371.55
660.58	2086.88
660.76	2269.15
660.95	2097.12
661.14	2220.00
661.33	2172.89
661.51	2105.31
661.70	2199.52
661.89	2301.92
662.08	2187.23
662.26	2041.82
662.45	2082.78
662.64	2402.27
662.83	2187.23
663.01	2078.69
663.20	2187.23
663.39	2277.34
663.58	2131.94
663.76	2187.23
663.95	2375.64
664.14	2090.98
664.32	2097.12
664.51	2150.37
664.70	1996.77
664.89	2260.96
665.07	2037.73
665.26	2287.58
665.45	2086.88
665.64	2254.81
665.82	2269.15
666.01	2195.42
666.20	2054.11
666.38	2334.68
666.57	2322.40
666.76	3268.56
666.95	7878.54
667.13	16473.86
667.32	22060.72
667.51	25955.96
667.69	27547.23
667.88	25513.59
668.07	18167.53
668.25	14477.09
668.44	11894.60
668.63	10301.28
668.81	9105.27
669.00	8069.00
669.19	7092.12
669.38	6117.28
669.56	5240.75
669.75	4515.77
669.94	3760.07
670.12	3096.53
670.31	2842.58
670.50	2559.96
670.68	2389.98
670.87	2334.68
671.06	2254.81
671.24	2324.44
671.43	2457.56
671.62	2310.11
671.80	2189.28
671.99	2240.48
672.18	2228.19
672.36	2359.26
672.55	2301.92
672.74	2285.53
672.92	2121.70
673.11	2316.25
673.29	2056.16
673.48	2234.33
673.67	2158.56
673.85	2263.01
674.04	2105.31
674.23	2172.89
674.41	2353.12
674.60	2166.75
674.79	2029.54
674.97	2113.50
675.16	2215.90
675.34	2240.48
675.53	2170.85
675.72	2306.01
675.90	2387.93
676.09	2133.98
676.28	2162.66
676.46	2080.74
676.65	2254.81
676.83	2144.22
677.02	2285.53
677.21	2195.42
677.39	2187.23
677.58	2193.37
677.77	2156.51
677.95	2084.83
678.14	2095.07
678.32	2236.38
678.51	2176.99
678.70	2351.07
678.88	2179.04
679.07	2197.47
679.25	2136.03
679.44	2158.56
679.63	2115.55
679.81	2293.72
680.00	2349.02
680.18	2240.48
680.37	2410.46
680.55	2209.76
680.74	2136.03
680.93	2023.39
681.11	2263.01
681.30	2230.24
681.48	2248.67
681.67	2228.19
681.85	2183.13
682.04	2172.89
682.23	2301.92
682.41	2224.09
682.60	2119.65
682.78	2162.66
682.97	2062.30
683.15	2232.29
683.34	2238.43
683.53	2340.83
683.71	2097.12
683.90	2367.45
684.08	2291.68
684.27	2093.02
684.45	2199.52
684.64	2295.77
684.82	2176.99
685.01	2213.85
685.19	2107.36
685.38	2338.78
685.57	2211.81
685.75	2129.89
685.94	2187.23
686.12	2107.36
686.31	2252.77
686.49	2363.36
686.68	2103.26
686.86	2150.37
687.05	2195.42
687.23	2389.98
687.42	2131.94
687.60	2103.26
687.79	2269.15
687.97	2375.64
688.16	2314.20
688.34	2306.01
688.53	2109.41
688.71	2193.37
688.90	2306.01
689.08	2189.28
689.27	2007.01
689.45	2295.77
689.64	2244.57
689.82	2283.49
690.01	2256.86
690.19	2162.66
690.38	2240.48
690.56	2293.72
690.75	2160.61
690.93	2154.46
691.12	2074.59
691.30	2111.46
691.49	2217.95
691.67	2160.61
691.86	2351.07
692.04	2144.22
692.23	2191.33
692.41	2222.05
692.60	2514.91
692.78	2430.94
692.97	2201.57
693.15	2252.77
693.34	2465.75
693.52	2340.83
693.71	2162.66
693.89	2269.15
694.08	2074.59
694.26	2301.92
694.44	2267.10
694.63	2166.75
694.81	2160.61
695.00	2045.92
695.18	2232.29
695.37	2392.03
695.55	2242.53
695.74	2154.46
695.92	2129.89
696.10	2379.74
696.29	2111.46
696.47	2156.51
696.66	2090.98
696.84	2099.17
697.03	2248.67
697.21	2398.17
697.40	3227.60
697.58	2310.11
697.76	2158.56
697.95	2070.50
698.13	2156.51
698.32	2148.32
698.50	2236.38
698.68	2220.00
698.87	2244.57
699.05	2369.50
699.24	2234.33
699.42	2097.12
699.61	2244.57
699.79	2121.70
699.97	2230.24
700.16	2093.02
700.34	2088.93
700.53	2211.81
700.71	2316.25
700.89	2279.39
701.08	2176.99
701.26	2232.29
701.45	2715.61
701.63	2119.65
701.81	2174.94
702.00	2088.93
702.18	2129.89
702.37	2193.37
702.55	2545.63
702.73	2445.27
702.92	2322.40
703.10	2568.15
703.28	2496.47
703.47	2244.57
703.65	2482.14
703.84	2392.03
704.02	2248.67
704.20	2406.36
704.39	2234.33
704.57	2160.61
704.75	2351.07
704.94	2320.35
705.12	2281.44
705.30	2533.34
705.49	4579.26
705.67	11214.68
705.86	20043.47
706.04	24313.48
706.22	27987.54
706.41	29142.60
706.59	25009.79
706.77	17764.08
706.96	14757.66
707.14	12584.77
707.32	10880.86
707.51	9711.47
707.69	8097.67
707.87	6563.74
708.06	5242.80
708.24	4165.57
708.42	3250.13
708.61	3022.80
708.79	2404.32
708.97	2355.16
709.16	2377.69
709.34	2355.16
709.52	2152.42
709.71	2226.14
709.89	2220.00
710.07	2117.60
710.26	2142.18
710.44	2211.81
710.62	2293.72
710.80	2211.81
710.99	2316.25
711.17	2232.29
711.35	2121.70
711.54	2166.75
711.72	2349.02
711.90	2299.87
712.09	2271.20
712.27	2115.55
712.45	2199.52
712.63	2193.37
712.82	2265.05
713.00	2195.42
713.18	2248.67
713.37	2248.67
713.55	2277.34
713.73	2226.14
713.91	2279.39
714.10	2142.18
714.28	2181.09
714.46	2203.61
714.65	2244.57
714.83	2271.20
715.01	2287.58
715.19	2224.09
715.38	2068.45
715.56	2289.63
715.74	2168.80
715.92	2084.83
716.11	2314.20
716.29	2021.35
716.47	2226.14
716.65	2242.53
716.84	2002.91
717.02	2316.25
717.20	2076.64
717.38	2179.04
717.57	2318.30
717.75	2195.42
717.93	2228.19
718.11	2258.91
718.30	2074.59
718.48	2156.51
718.66	2248.67
718.84	2340.83
719.03	2230.24
719.21	2133.98
719.39	2396.12
719.57	2246.62
719.75	2244.57
719.94	2142.18
720.12	2203.61
720.30	2258.91
720.48	2199.52
720.67	2148.32
720.85	2125.79
721.03	2109.41
721.21	2113.50
721.39	2281.44
721.58	2263.01
721.76	2187.23
721.94	2234.33
722.12	2244.57
722.30	2330.59
722.49	2183.13
722.67	2258.91
722.85	2195.42
723.03	2047.97
723.21	2181.09
723.40	2244.57
723.58	2260.96
723.76	2285.53
723.94	2318.30
724.12	2283.49
724.30	2349.02
724.49	2324.44
724.67	2224.09
724.85	2320.35
725.03	2123.74
725.21	2273.25
725.40	2318.30
725.58	2133.98
725.76	2322.40
725.94	2166.75
726.12	2060.26
726.30	2187.23
726.49	2207.71
726.67	2199.52
726.85	2148.32
727.03	2506.71
727.21	3657.67
727.39	5529.52
727.57	6535.07
727.76	7194.51
727.94	7667.60
728.12	7155.60
728.30	5801.90
728.48	4945.84
728.66	4536.25
728.84	4034.50
729.03	3481.55
729.21	3162.06
729.39	2805.72
729.57	2490.33
729.75	2435.03
729.93	2330.59
730.11	2217.95
730.30	2195.42
730.48	2226.14
730.66	2324.44
730.84	2312.16
731.02	2158.56
731.20	2195.42
731.38	2207.71
731.56	2045.92
731.74	2105.31
731.93	2213.85
732.11	2234.33
732.29	2199.52
732.47	2260.96
732.65	2195.42
732.83	2355.16
733.01	2279.39
733.19	2162.66
733.37	2308.06
733.56	2209.76
733.74	2119.65
733.92	2375.64
734.10	2236.38
734.28	2228.19
734.46	1959.91
734.64	2144.22
734.82	2138.08
735.00	2152.42
735.18	2152.42
735.36	2207.71
735.54	2226.14
735.73	2230.24
735.91	2230.24
736.09	2281.44
736.27	2197.47
736.45	2299.87
736.63	2105.31
736.81	2179.04
736.99	2308.06
737.17	2326.49
737.35	2176.99
737.53	2197.47
737.71	2166.75
737.89	2279.39
738.07	2179.04
738.25	2138.08
738.43	2088.93
738.61	2166.75
738.80	2117.60
738.98	2084.83
739.16	2150.37
739.34	2133.98
739.52	2394.08
739.70	2170.85
739.88	2185.18
740.06	2314.20
740.24	2021.35
740.42	2299.87
740.60	2068.45
740.78	2111.46
740.96	2076.64
741.14	2187.23
741.32	2207.71
741.50	2043.87
741.68	2342.88
741.86	2236.38
742.04	2054.11
742.22	2097.12
742.40	2205.66
742.58	2265.05
742.76	2133.98
742.94	2226.14
743.12	2068.45
743.30	2154.46
743.48	2287.58
743.66	2109.41
743.84	2242.53
744.02	2183.13
744.20	2197.47
744.38	2072.54
744.56	2205.66
744.74	2365.40
744.92	2224.09
745.10	2306.01
745.28	2299.87
745.46	2422.75
745.64	2193.37
745.82	2256.86
746.00	2105.31
746.18	2211.81
746.36	2029.54
746.54	2217.95
746.72	2144.22
746.90	2129.89
747.08	2381.79
747.26	2162.66
747.44	2289.63
747.62	2250.72
747.80	2240.48
747.98	2373.60
748.15	2181.09
748.33	2383.84
748.51	2189.28
748.69	2375.64
748.87	2095.07
749.05	2146.27
749.23	2224.09
749.41	2191.33
749.59	2183.13
749.77	2236.38
749.95	2176.99
750.13	2037.73
750.31	2236.38
750.49	2203.61
750.67	2326.49
750.85	2283.49
751.03	2242.53
751.20	2443.23
751.38	2203.61
751.56	2166.75
751.74	2203.61
751.92	2187.23
752.10	2119.65
752.28	2226.14
752.46	2088.93
752.64	2209.76
752.82	2164.70
753.00	2244.57
753.18	2095.07
753.35	2187.23
753.53	2217.95
753.71	2068.45
753.89	2250.72
754.07	2273.25
754.25	2306.01
754.43	2220.00
754.61	2068.45
754.79	2263.01
754.97	2111.46
755.14	2273.25
755.32	2213.85
755.50	2152.42
755.68	2201.57
755.86	2123.74
756.04	2129.89
756.22	2037.73
756.40	2285.53
756.57	2375.64
756.75	2160.61
756.93	2416.60
757.11	2324.44
757.29	2136.03
757.47	2127.84
757.65	2105.31
757.82	2004.96
758.00	2088.93
758.18	2123.74
758.36	2088.93
758.54	2353.12
758.72	2082.78
758.90	2287.58
759.07	2324.44
759.25	2060.26
759.43	2222.05
759.61	2103.26
759.79	2975.70
759.97	2232.29
760.15	2097.12
760.32	2199.52
760.50	2152.42
760.68	2379.74
760.86	2013.15
761.04	2334.68
761.22	2242.53
761.39	2242.53
761.57	2217.95
761.75	2142.18
761.93	2324.44
762.11	2115.55
762.28	2205.66
762.46	2111.46
762.64	2285.53
762.82	2056.16
763.00	2146.27
763.18	2310.11
763.35	2133.98
763.53	2260.96
763.71	2121.70
763.89	2224.09
764.07	2205.66
764.24	2220.00
764.42	2260.96
764.60	2133.98
764.78	2248.67
764.96	2244.57
765.13	2318.30
765.31	2176.99
765.49	2232.29
765.67	2152.42
765.84	2172.89
766.02	2095.07
766.20	1986.53
766.38	2162.66
766.56	2273.25
766.73	2244.57
766.91	2246.62
767.09	2215.90
767.27	2207.71
767.44	2129.89
767.62	2281.44
767.80	2195.42
767.98	2129.89
768.15	2201.57
768.33	2301.92
768.51	2308.06
768.69	2260.96
768.87	2269.15
769.04	2127.84
769.22	2443.23
769.40	2402.27
769.58	2314.20
769.75	2234.33
769.93	2242.53
770.11	2195.42
770.28	2027.49
770.46	2267.10
770.64	2199.52
770.82	2136.03
770.99	2183.13
771.17	2265.05
771.35	2176.99
771.53	2050.02
771.70	2146.27
771.88	2242.53
772.06	2230.24
772.23	2119.65
772.41	2203.61
772.59	2056.16
772.77	2041.82
772.94	2174.94
773.12	2230.24
773.30	2168.80
773.47	2256.86
773.65	2080.74
773.83	2346.97
774.01	2164.70
774.18	2007.01
774.36	2211.81
774.54	2054.11
774.71	2187.23
774.89	2082.78
775.07	2150.37
775.24	2162.66
775.42	2109.41
775.60	2332.64
775.78	2093.02
775.95	2113.50
776.13	2105.31
776.31	2013.15
776.48	2207.71
776.66	2322.40
776.84	2160.61
777.01	2101.22
777.19	2105.31
777.37	2060.26
777.54	2250.72
777.72	2349.02
777.90	2138.08
778.07	2099.17
778.25	2465.75
778.43	2285.53
778.60	2226.14
778.78	2256.86
778.96	2310.11
779.13	2013.15
779.31	2222.05
779.49	2222.05
779.66	2144.22
779.84	2195.42
780.01	2156.51
780.19	2076.64
780.37	2346.97
780.54	2322.40
780.72	2176.99
780.90	2142.18
781.07	2170.85
781.25	2207.71
781.43	2281.44
781.60	2176.99
781.78	2291.68
781.95	2234.33
782.13	2113.50
782.31	2166.75
782.48	2056.16
782.66	2242.53
782.83	2400.22
783.01	2277.34
783.19	2228.19
783.36	2090.98
783.54	2062.30
783.72	2297.82
783.89	2093.02
784.07	2207.71
784.24	2187.23
784.42	2301.92
784.60	2246.62
784.77	2191.33
784.95	1984.48
785.12	2176.99
785.30	2215.90
785.47	2095.07
785.65	2062.30
785.83	2242.53
786.00	2176.99
786.18	2121.70
786.35	2099.17
786.53	2062.30
786.71	2228.19
786.88	2232.29
787.06	2181.09
787.23	2189.28
787.41	2105.31
787.58	2187.23
787.76	2129.89
787.94	2236.38
788.11	2230.24
788.29	2148.32
788.46	2117.60
788.64	2080.74
788.81	2176.99
788.99	2015.20
789.16	2133.98
789.34	2267.10
789.52	2185.18
789.69	2125.79
789.87	2031.58
790.04	2160.61
790.22	2176.99
790.39	2406.36
790.57	2103.26
790.74	2119.65
790.92	2275.29
791.09	2072.54
791.27	2156.51
791.44	2240.48
791.62	2154.46
791.79	2183.13
791.97	2248.67
792.15	2392.03
792.32	2211.81
792.50	2252.77
792.67	2308.06
792.85	2267.10
793.02	2211.81
793.20	2148.32
793.37	2068.45
793.55	2211.81
793.72	2064.35
793.90	2260.96
794.07	2054.11
794.25	2076.64
794.42	2244.57
794.60	2179.04
794.77	2211.81
794.95	2234.33
795.12	2310.11
795.30	2068.45
795.47	2076.64
795.65	2406.36
795.82	2267.10
796.00	2205.66
796.17	2156.51
796.34	2152.42
796.52	2222.05
796.69	2248.67
796.87	2318.30
797.04	2273.25
797.22	2289.63
797.39	2146.27
797.57	2240.48
797.74	2242.53
797.92	2240.48
798.09	2209.76
798.27	2252.77
798.44	2150.37
798.62	2117.60
798.79	2158.56
798.96	2172.89
799.14	2189.28
799.31	2387.93
799.49	2121.70
799.66	2168.80
799.84	2191.33
800.01	2019.30
800.19	2217.95
800.36	2031.58
800.53	2158.56
800.71	2185.18
800.88	2371.55
801.06	2078.69
801.23	2179.04
801.41	2156.51
801.58	2174.94
801.75	2093.02
801.93	2154.46
802.10	2226.14
802.28	2121.70
802.45	2191.33
802.63	2217.95
802.80	2301.92
802.97	2220.00
803.15	2101.22
803.32	2097.12
803.50	2189.28
803.67	2123.74
803.84	2050.02
804.02	2207.71
804.19	2099.17
804.37	1968.10
804.54	2144.22
804.71	2125.79
804.89	2164.70
805.06	2103.26
805.24	2099.17
805.41	2078.69
805.58	2119.65
805.76	2422.75
805.93	2195.42
806.10	2258.91
806.28	2234.33
806.45	2203.61
806.63	2199.52
806.80	2195.42
806.97	2209.76
807.15	2228.19
807.32	2150.37
807.49	2244.57
807.67	2119.65
807.84	2244.57
808.01	2064.35
808.19	2346.97
808.36	2406.36
808.54	2181.09
808.71	2138.08
808.88	2215.90
809.06	2287.58
809.23	2357.21
809.40	2162.66
809.58	2187.23
809.75	2242.53
809.92	2117.60
810.10	2400.22
810.27	2146.27
810.44	2170.85
810.62	2299.87
810.79	2283.49
810.96	2099.17
811.14	2125.79
811.31	2199.52
811.48	2228.19
811.66	2156.51
811.83	2248.67
812.00	2222.05
812.18	2234.33
812.35	2340.83
812.52	2150.37
812.69	2060.26
812.87	2228.19
813.04	2160.61
813.21	2136.03
813.39	2133.98
813.56	2133.98
813.73	2316.25
813.91	2011.11
814.08	2203.61
814.25	2240.48
814.42	2088.93
814.60	2136.03
814.77	2162.66
814.94	2127.84
815.12	2183.13
815.29	2357.21
815.46	2074.59
815.63	2187.23
815.81	2187.23
815.98	2154.46
816.15	2162.66
816.33	2166.75
816.50	2111.46
816.67	2142.18
816.84	2115.55
817.02	2113.50
817.19	2148.32
817.36	2148.32
817.53	2238.43
817.71	2129.89
817.88	2254.81
818.05	2117.60
818.22	2158.56
818.40	2275.29
818.57	2220.00
818.74	2234.33
818.91	2123.74
819.09	2215.90
819.26	2256.86
819.43	2162.66
819.60	2176.99
819.78	2162.66
819.95	2271.20
820.12	2002.91
820.29	2283.49
820.47	2277.34
820.64	2050.02
820.81	2078.69
820.98	2058.21
821.15	2119.65
821.33	2260.96
821.50	2078.69
821.67	2242.53
821.84	2133.98
822.02	2269.15
822.19	2328.54
822.36	2170.85
822.53	2166.75
822.70	2090.98
822.88	2228.19
823.05	2387.93
823.22	2140.13
823.39	2129.89
823.56	2244.57
823.74	2273.25
823.91	2052.06
824.08	2109.41
824.25	2109.41
824.42	2299.87
824.60	2082.78
824.77	2170.85
824.94	2123.74
825.11	2224.09
825.28	2039.78
825.45	2179.04
825.63	2203.61
825.80	2150.37
825.97	2174.94
826.14	2152.42
826.31	2144.22
826.48	2250.72
826.66	2056.16
826.83	2181.09
827.00	2129.89
827.17	2068.45
827.34	2166.75
827.51	2086.88
827.69	2207.71
827.86	2082.78
828.03	2203.61
828.20	2191.33
828.37	2088.93
828.54	2213.85
828.71	2150.37
828.89	2351.07
829.06	2179.04
829.23	2303.96
829.40	2074.59
829.57	2086.88
829.74	2295.77
829.91	2199.52
830.09	2113.50
830.26	2228.19
830.43	2353.12
830.60	2109.41
830.77	2228.19
830.94	2412.51
831.11	2252.77
831.28	2183.13
831.46	2308.06
831.63	2037.73
831.80	2254.81
831.97	2166.75
832.14	2152.42
832.31	2226.14
832.48	2226.14
832.65	2250.72
832.82	2154.46
832.99	2170.85
833.17	2088.93
833.34	2267.10
833.51	2234.33
833.68	2021.35
833.85	2340.83
834.02	2105.31
834.19	2127.84
834.36	2160.61
834.53	2148.32
834.70	2236.38
834.87	2224.09
835.04	2119.65
835.22	2103.26
835.39	2140.13
835.56	2113.50
835.73	2133.98
835.90	2351.07
836.07	2138.08
836.24	2199.52
836.41	2066.40
836.58	2138.08
836.75	2230.24
836.92	2193.37
837.09	2101.22
837.26	2320.35
837.43	2172.89
837.60	2203.61
837.77	2144.22
837.94	2279.39
838.12	2320.35
838.29	2111.46
838.46	2019.30
838.63	2084.83
838.80	2355.16
838.97	2236.38
839.14	2187.23
839.31	2199.52
839.48	2353.12
839.65	2138.08
839.82	2138.08
839.99	2258.91
840.16	2187.23
840.33	2064.35
840.50	2138.08
840.67	2099.17
840.84	2043.87
841.01	2140.13
841.18	2103.26
841.35	2131.94
841.52	2205.66
841.69	2371.55
841.86	2170.85
842.03	2226.14
842.20	2228.19
842.37	2113.50
842.54	2125.79
842.71	2172.89
842.88	2082.78
843.05	2195.42
843.22	2148.32
843.39	2228.19
843.56	2078.69
843.73	2142.18
843.90	2183.13
844.07	2234.33
844.24	2236.38
844.41	2238.43
844.58	2148.32
844.75	2156.51
844.92	2154.46
845.09	2154.46
845.26	2183.13
845.43	2246.62
845.60	2140.13
845.77	2299.87
845.94	2205.66
846.10	2291.68
846.27	2093.02
846.44	2099.17
846.61	2097.12
846.78	2240.48
846.95	2273.25
847.12	2152.42
847.29	2170.85
847.46	2078.69
847.63	2289.63
847.80	2146.27
847.97	2158.56
848.14	2332.64
848.31	2211.81
848.48	2097.12
848.65	2170.85
848.82	2095.07
848.98	2447.32
849.15	2248.67
849.32	2287.58
849.49	2332.64
849.66	2140.13
849.83	2099.17
850.00	2082.78
850.17	2303.96
850.34	2195.42
850.51	2146.27
850.68	2150.37
850.85	2398.17
851.01	2121.70
851.18	2226.14
851.35	2097.12
851.52	2250.72
851.69	2320.35
851.86	2080.74
852.03	2138.08
852.20	2308.06
852.37	2224.09
852.53	2084.83
852.70	2176.99
852.87	2176.99
853.04	2226.14
853.21	2093.02
853.38	2238.43
853.55	2314.20
853.72	2326.49
853.89	2072.54
854.05	2095.07
854.22	2191.33
854.39	2201.57
854.56	2220.00
854.73	2256.86
854.90	2115.55
855.07	2187.23
855.23	2074.59
855.40	2095.07
855.57	2121.70
855.74	1980.39
855.91	2355.16
856.08	2037.73
856.25	2097.12
856.41	2119.65
856.58	2150.37
856.75	2211.81
856.92	2111.46
857.09	2260.96
857.26	2072.54
857.42	2179.04
857.59	2203.61
857.76	2133.98
857.93	2170.85
858.10	2226.14
858.27	2062.30
858.43	2179.04
858.60	2113.50
858.77	2090.98
858.94	2236.38
859.11	2269.15
859.27	2152.42
859.44	2127.84
859.61	2402.27
859.78	2187.23
859.95	2101.22
860.12	2129.89
860.28	2306.01
860.45	2373.60
860.62	2127.84
860.79	2195.42
860.95	2168.80
861.12	2099.17
861.29	2154.46
861.46	2138.08
861.63	2203.61
861.79	2228.19
861.96	2072.54
862.13	2076.64
862.30	2340.83
862.47	2158.56
862.63	2013.15
862.80	2201.57
862.97	2318.30
863.14	2213.85
863.30	2179.04
863.47	2125.79
863.64	2355.16
863.81	2140.13
863.97	2111.46
864.14	2232.29
864.31	2240.48
864.48	2189.28
864.65	2097.12
864.81	2209.76
864.98	2254.81
865.15	2289.63
865.32	2269.15
865.48	2260.96
865.65	2279.39
865.82	2086.88
865.98	2146.27
866.15	2166.75
866.32	2144.22
866.49	2150.37
866.65	2277.34
866.82	2045.92
866.99	2131.94
867.16	2101.22
867.32	2136.03
867.49	2191.33
867.66	2154.46
867.83	2068.45
867.99	2076.64
868.16	2086.88
868.33	2031.58
868.49	2187.23
868.66	2150.37
868.83	2220.00
868.99	2107.36
869.16	2166.75
869.33	2269.15
869.50	2236.38
869.66	2156.51
869.83	2127.84
870.00	2062.30
870.16	2154.46
870.33	2174.94
870.50	2230.24
870.66	2185.18
870.83	2277.34
871.00	2138.08
871.17	2136.03
871.33	2199.52
871.50	2133.98
871.67	2176.99
871.83	2121.70
872.00	2334.68
872.17	2144.22
872.33	2363.36
872.50	2217.95
872.67	2127.84
872.83	2138.08
873.00	2234.33
873.17	2166.75
873.33	2254.81
873.50	2217.95
873.67	2156.51
873.83	2064.35
874.00	2179.04
874.16	2320.35
874.33	2187.23
874.50	2060.26
874.66	2199.52
874.83	2176.99
875.00	2269.15
875.16	2226.14
875.33	2226.14
875.50	2015.20
875.66	2154.46
875.83	2164.70
875.99	2203.61
876.16	2133.98
876.33	2121.70
876.49	2140.13
876.66	2201.57
876.83	2146.27
876.99	2078.69
877.16	2066.40
877.32	2168.80
877.49	2133.98
877.66	2162.66
877.82	2336.73
877.99	2271.20
878.15	2258.91
878.32	2199.52
878.49	2185.18
878.65	2150.37
878.82	2260.96
878.98	2127.84
879.15	2306.01
879.32	2281.44
879.48	2236.38
879.65	2172.89
879.81	2129.89
879.98	2168.80
880.15	2146.27
880.31	2250.72
880.48	2197.47
880.64	2148.32
880.81	2197.47
880.97	2295.77
881.14	2291.68
881.31	2084.83
881.47	2248.67
881.64	2144.22
881.80	2031.58
881.97	2191.33
882.13	2152.42
882.30	2074.59
882.47	2150.37
882.63	2084.83
882.80	2154.46
882.96	2209.76
883.13	2310.11
883.29	2152.42
883.46	2119.65
883.62	2367.45
883.79	2236.38
883.95	2291.68
884.12	2121.70
884.29	2201.57
884.45	2250.72
884.62	2174.94
884.78	2105.31
884.95	2308.06
885.11	2168.80
885.28	2164.70
885.44	2138.08
885.61	2287.58
885.77	2322.40
885.94	2123.74
886.10	2168.80
886.27	2146.27
886.43	2396.12
886.60	2285.53
886.76	2136.03
886.93	2064.35
887.09	2244.57
887.26	2078.69
887.42	2148.32
887.59	2211.81
887.75	2430.94
887.92	2267.10
888.08	2187.23
888.25	2381.79
888.41	2322.40
888.58	2144.22
888.74	2097.12
888.91	2154.46
>>>>>End Processed Spectral Data<<<<<
