SpectraSuite Data File
++++++++++++++++++++++++++++++++++++
Date: Thu May 05 12:35:38 CEST 2016
User: root
Dark Spectrum Present: No
Reference Spectrum Present: No
Number of Sampled Component Spectra: 1
Spectrometers: USB4C02835
Integration Time (usec): 100000 (USB4C02835)
Spectra Averaged: 1 (USB4C02835)
Boxcar Smoothing: 0 (USB4C02835)
Correct for Electrical Dark: No (USB4C02835)
Strobe/Lamp Enabled: No (USB4C02835)
Correct for Detector Non-linearity: No (USB4C02835)
Correct for Stray Light: No (USB4C02835)
Number of Pixels in Processed Spectrum: 3648
>>>>>Begin Processed Spectral Data<<<<<
177.47	1779.68
177.69	1779.68
177.91	1779.68
178.13	1847.27
178.36	1783.78
178.58	2119.65
178.80	2170.85
179.02	2105.31
179.24	2109.41
179.46	2090.98
179.68	2256.86
179.90	2176.99
180.13	2181.09
180.35	2037.73
180.57	2107.36
180.79	2293.72
181.01	2183.13
181.23	2230.24
181.45	2201.57
181.67	2195.42
181.90	2267.10
182.12	2047.97
182.34	2009.06
182.56	2195.42
182.78	2260.96
183.00	2174.94
183.22	2129.89
183.44	2064.35
183.66	2414.56
183.89	2285.53
184.11	2105.31
184.33	2258.91
184.55	2242.53
184.77	2162.66
184.99	2213.85
185.21	2105.31
185.43	2465.75
185.65	2070.50
185.87	2158.56
186.10	2430.94
186.32	2379.74
186.54	2099.17
186.76	2236.38
186.98	2336.73
187.20	2127.84
187.42	2117.60
187.64	2140.13
187.86	2193.37
188.08	2306.01
188.30	2129.89
188.52	2199.52
188.75	2383.84
188.97	2301.92
189.19	2095.07
189.41	2195.42
189.63	2285.53
189.85	2176.99
190.07	2043.87
190.29	2062.30
190.51	2271.20
190.73	2011.11
190.95	2222.05
191.17	2146.27
191.39	2074.59
191.61	2185.18
191.84	2129.89
192.06	2267.10
192.28	2031.58
192.50	2406.36
192.72	2174.94
192.94	2109.41
193.16	2279.39
193.38	2228.19
193.60	2062.30
193.82	2138.08
194.04	2236.38
194.26	2252.77
194.48	2138.08
194.70	2066.40
194.92	2113.50
195.14	2244.57
195.36	2080.74
195.58	2142.18
195.80	2248.67
196.02	2123.74
196.24	2099.17
196.46	2131.94
196.69	2154.46
196.91	2412.51
197.13	2101.22
197.35	2140.13
197.57	2287.58
197.79	2242.53
198.01	2209.76
198.23	2172.89
198.45	2240.48
198.67	2142.18
198.89	2041.82
199.11	2121.70
199.33	2140.13
199.55	1957.86
199.77	2127.84
199.99	2240.48
200.21	2097.12
200.43	2215.90
200.65	2039.78
200.87	1990.63
201.09	2154.46
201.31	2127.84
201.53	2193.37
201.75	2250.72
201.97	2207.71
202.19	2199.52
202.41	2195.42
202.63	2310.11
202.85	2273.25
203.07	2240.48
203.29	2111.46
203.51	2170.85
203.73	2123.74
203.95	2437.08
204.17	2138.08
204.39	2191.33
204.61	2133.98
204.83	2129.89
205.05	2310.11
205.27	2209.76
205.49	2332.64
205.71	2099.17
205.93	2086.88
206.15	2111.46
206.37	2215.90
206.59	2166.75
206.81	1998.82
207.03	2056.16
207.25	2170.85
207.47	2310.11
207.69	2150.37
207.91	2336.73
208.13	2381.79
208.34	2148.32
208.56	2109.41
208.78	2166.75
209.00	2191.33
209.22	2113.50
209.44	2138.08
209.66	2066.40
209.88	2258.91
210.10	2168.80
210.32	2127.84
210.54	2269.15
210.76	2107.36
210.98	2308.06
211.20	1988.58
211.42	2166.75
211.64	2301.92
211.86	2246.62
212.08	2142.18
212.30	2136.03
212.52	2185.18
212.74	2154.46
212.96	2097.12
213.17	2224.09
213.39	2273.25
213.61	2265.05
213.83	2203.61
214.05	2242.53
214.27	2342.88
214.49	2076.64
214.71	2097.12
214.93	2232.29
215.15	2146.27
215.37	2222.05
215.59	2068.45
215.81	2162.66
216.03	2316.25
216.24	2140.13
216.46	2068.45
216.68	2183.13
216.90	2236.38
217.12	2330.59
217.34	2152.42
217.56	2191.33
217.78	2381.79
218.00	2195.42
218.22	2234.33
218.44	2283.49
218.66	2201.57
218.87	2342.88
219.09	2183.13
219.31	2256.86
219.53	2193.37
219.75	2082.78
219.97	2150.37
220.19	2115.55
220.41	2162.66
220.63	2392.03
220.85	2162.66
221.06	2082.78
221.28	2334.68
221.50	2203.61
221.72	2148.32
221.94	1998.82
222.16	2187.23
222.38	2371.55
222.60	2152.42
222.82	2127.84
223.03	2287.58
223.25	2066.40
223.47	2176.99
223.69	2224.09
223.91	2232.29
224.13	2170.85
224.35	2113.50
224.57	2273.25
224.78	2240.48
225.00	2138.08
225.22	2152.42
225.44	2166.75
225.66	2324.44
225.88	2176.99
226.10	2197.47
226.32	2123.74
226.53	2330.59
226.75	2097.12
226.97	2164.70
227.19	2080.74
227.41	2113.50
227.63	2121.70
227.85	2021.35
228.06	2127.84
228.28	2211.81
228.50	2289.63
228.72	2086.88
228.94	2090.98
229.16	2080.74
229.37	2093.02
229.59	2103.26
229.81	2191.33
230.03	2064.35
230.25	2058.21
230.47	1957.86
230.69	2066.40
230.90	2263.01
231.12	2140.13
231.34	2129.89
231.56	2220.00
231.78	2107.36
232.00	2258.91
232.21	2121.70
232.43	2203.61
232.65	1918.95
232.87	2193.37
233.09	2021.35
233.30	2101.22
233.52	2260.96
233.74	2144.22
233.96	2093.02
234.18	2228.19
234.40	2107.36
234.61	2441.18
234.83	2004.96
235.05	2086.88
235.27	2422.75
235.49	2314.20
235.70	2088.93
235.92	2179.04
236.14	2226.14
236.36	2392.03
236.58	2105.31
236.79	2220.00
237.01	2252.77
237.23	2252.77
237.45	2281.44
237.67	2105.31
237.88	2197.47
238.10	2310.11
238.32	2056.16
238.54	2103.26
238.76	2119.65
238.97	2097.12
239.19	2097.12
239.41	2174.94
239.63	2260.96
239.85	2117.60
240.06	2160.61
240.28	2086.88
240.50	2336.73
240.72	2207.71
240.93	2031.58
241.15	2246.62
241.37	2228.19
241.59	2322.40
241.81	2154.46
242.02	2144.22
242.24	2179.04
242.46	2236.38
242.68	2103.26
242.89	2097.12
243.11	2285.53
243.33	2197.47
243.55	2179.04
243.76	2183.13
243.98	2170.85
244.20	2187.23
244.42	2107.36
244.64	2209.76
244.85	2138.08
245.07	2093.02
245.29	2170.85
245.51	2131.94
245.72	2238.43
245.94	2191.33
246.16	2099.17
246.38	2234.33
246.59	2127.84
246.81	2133.98
247.03	2070.50
247.24	2066.40
247.46	2179.04
247.68	2230.24
247.90	2090.98
248.11	2176.99
248.33	2267.10
248.55	2129.89
248.77	2195.42
248.98	2291.68
249.20	2277.34
249.42	2224.09
249.64	2187.23
249.85	2123.74
250.07	2197.47
250.29	2273.25
250.50	2121.70
250.72	2045.92
250.94	2256.86
251.16	2359.26
251.37	2150.37
251.59	2160.61
251.81	2220.00
252.02	2318.30
252.24	2070.50
252.46	2195.42
252.68	2152.42
252.89	2138.08
253.11	1994.72
253.33	2279.39
253.54	2383.84
253.76	2150.37
253.98	2213.85
254.20	2086.88
254.41	2080.74
254.63	2160.61
254.85	2009.06
255.06	2133.98
255.28	2197.47
255.50	2123.74
255.71	2121.70
255.93	2133.98
256.15	2258.91
256.36	2256.86
256.58	2033.63
256.80	2154.46
257.02	2244.57
257.23	2105.31
257.45	2162.66
257.67	2226.14
257.88	2172.89
258.10	2244.57
258.32	2105.31
258.53	2183.13
258.75	2334.68
258.97	2166.75
259.18	2146.27
259.40	2099.17
259.62	2359.26
259.83	2381.79
260.05	2191.33
260.27	2535.39
260.48	2301.92
260.70	2164.70
260.92	2062.30
261.13	2107.36
261.35	2113.50
261.57	2244.57
261.78	2031.58
262.00	2076.64
262.22	2273.25
262.43	2064.35
262.65	2197.47
262.86	2105.31
263.08	2435.03
263.30	2217.95
263.51	2056.16
263.73	2101.22
263.95	2308.06
264.16	2068.45
264.38	2031.58
264.60	2158.56
264.81	2201.57
265.03	2254.81
265.25	2252.77
265.46	2197.47
265.68	2312.16
265.89	2306.01
266.11	2027.49
266.33	2193.37
266.54	2330.59
266.76	2281.44
266.98	2183.13
267.19	2228.19
267.41	2250.72
267.62	2203.61
267.84	2021.35
268.06	2199.52
268.27	2101.22
268.49	2283.49
268.70	2281.44
268.92	2129.89
269.14	2148.32
269.35	2086.88
269.57	2121.70
269.79	2207.71
270.00	2144.22
270.22	2332.64
270.43	2097.12
270.65	1980.39
270.87	2144.22
271.08	2176.99
271.30	2213.85
271.51	2084.83
271.73	2228.19
271.95	2244.57
272.16	2193.37
272.38	2166.75
272.59	2119.65
272.81	2224.09
273.02	2080.74
273.24	2308.06
273.46	2285.53
273.67	2035.68
273.89	2113.50
274.10	2080.74
274.32	2375.64
274.54	2170.85
274.75	2203.61
274.97	2138.08
275.18	2129.89
275.40	2240.48
275.61	2166.75
275.83	2146.27
276.05	2029.54
276.26	2187.23
276.48	2211.81
276.69	2138.08
276.91	2117.60
277.12	2383.84
277.34	2234.33
277.55	2252.77
277.77	2170.85
277.99	2226.14
278.20	2144.22
278.42	2072.54
278.63	2082.78
278.85	2150.37
279.06	2062.30
279.28	2254.81
279.49	2293.72
279.71	2246.62
279.93	2242.53
280.14	2207.71
280.36	2168.80
280.57	2215.90
280.79	2293.72
281.00	2054.11
281.22	2156.51
281.43	2387.93
281.65	2019.30
281.86	2039.78
282.08	2244.57
282.29	2326.49
282.51	2101.22
282.73	2047.97
282.94	1970.15
283.16	2289.63
283.37	2301.92
283.59	2181.09
283.80	2260.96
284.02	2217.95
284.23	2240.48
284.45	2121.70
284.66	2107.36
284.88	2125.79
285.09	2191.33
285.31	2281.44
285.52	2234.33
285.74	2035.68
285.95	2193.37
286.17	2244.57
286.38	2328.54
286.60	2119.65
286.81	2176.99
287.03	2133.98
287.24	2166.75
287.46	2222.05
287.67	2158.56
287.89	2295.77
288.10	2121.70
288.32	2207.71
288.53	2363.36
288.75	2172.89
288.96	2265.05
289.18	2154.46
289.39	2154.46
289.61	2318.30
289.82	2422.75
290.04	2349.02
290.25	2011.11
290.47	2228.19
290.68	2131.94
290.90	2349.02
291.11	2062.30
291.33	2252.77
291.54	2084.83
291.76	2105.31
291.97	2254.81
292.18	2207.71
292.40	2133.98
292.61	2174.94
292.83	2371.55
293.04	2185.18
293.26	2176.99
293.47	2144.22
293.69	2121.70
293.90	2195.42
294.12	2293.72
294.33	2205.66
294.55	2205.66
294.76	2142.18
294.97	2295.77
295.19	2408.41
295.40	2174.94
295.62	2265.05
295.83	2299.87
296.05	2072.54
296.26	2230.24
296.48	2107.36
296.69	2158.56
296.90	2158.56
297.12	2269.15
297.33	2260.96
297.55	2252.77
297.76	2256.86
297.98	2211.81
298.19	2189.28
298.41	2144.22
298.62	2103.26
298.83	2269.15
299.05	2201.57
299.26	2203.61
299.48	2162.66
299.69	2189.28
299.90	2203.61
300.12	2095.07
300.33	2240.48
300.55	2228.19
300.76	2220.00
300.98	2056.16
301.19	2299.87
301.40	2105.31
301.62	2154.46
301.83	2211.81
302.05	2191.33
302.26	2179.04
302.47	2191.33
302.69	2133.98
302.90	2187.23
303.12	2004.96
303.33	2228.19
303.54	2359.26
303.76	2121.70
303.97	2187.23
304.19	2322.40
304.40	2115.55
304.61	2258.91
304.83	2314.20
305.04	2226.14
305.26	2242.53
305.47	2156.51
305.68	2127.84
305.90	2136.03
306.11	2301.92
306.33	2232.29
306.54	2179.04
306.75	2105.31
306.97	2047.97
307.18	2125.79
307.39	2103.26
307.61	2269.15
307.82	2156.51
308.04	2220.00
308.25	2082.78
308.46	2226.14
308.68	2215.90
308.89	2095.07
309.10	2285.53
309.32	2160.61
309.53	2172.89
309.74	2234.33
309.96	2226.14
310.17	2252.77
310.39	2150.37
310.60	2310.11
310.81	2162.66
311.03	2107.36
311.24	2215.90
311.45	2209.76
311.67	2379.74
311.88	2183.13
312.09	2121.70
312.31	2162.66
312.52	2228.19
312.73	2244.57
312.95	2052.06
313.16	2146.27
313.37	2299.87
313.59	2246.62
313.80	2281.44
314.01	2316.25
314.23	2113.50
314.44	2154.46
314.65	2168.80
314.87	2123.74
315.08	2152.42
315.29	2123.74
315.51	2095.07
315.72	2045.92
315.93	2291.68
316.15	2193.37
316.36	2176.99
316.57	2211.81
316.79	2156.51
317.00	2105.31
317.21	2232.29
317.43	2142.18
317.64	2234.33
317.85	2140.13
318.07	2060.26
318.28	2172.89
318.49	2287.58
318.70	2480.09
318.92	2295.77
319.13	2369.50
319.34	2457.56
319.56	2297.82
319.77	2291.68
319.98	2299.87
320.20	2351.07
320.41	2306.01
320.62	2258.91
320.83	2105.31
321.05	2324.44
321.26	2187.23
321.47	2236.38
321.69	2297.82
321.90	2062.30
322.11	2138.08
322.32	2199.52
322.54	2322.40
322.75	2144.22
322.96	2416.60
323.18	2101.22
323.39	2027.49
323.60	2142.18
323.81	2215.90
324.03	2080.74
324.24	2166.75
324.45	2222.05
324.66	2133.98
324.88	2281.44
325.09	2320.35
325.30	2205.66
325.52	2154.46
325.73	2308.06
325.94	2066.40
326.15	2027.49
326.37	2117.60
326.58	2299.87
326.79	2246.62
327.00	2068.45
327.22	2254.81
327.43	2154.46
327.64	2060.26
327.85	2195.42
328.07	2187.23
328.28	2316.25
328.49	2144.22
328.70	2154.46
328.92	2201.57
329.13	2113.50
329.34	2254.81
329.55	2320.35
329.76	2275.29
329.98	2252.77
330.19	2293.72
330.40	2260.96
330.61	2199.52
330.83	2269.15
331.04	2105.31
331.25	2267.10
331.46	2199.52
331.68	2021.35
331.89	2293.72
332.10	2160.61
332.31	2033.63
332.52	2209.76
332.74	2252.77
332.95	2015.20
333.16	2144.22
333.37	2256.86
333.58	2160.61
333.80	2222.05
334.01	1984.48
334.22	2199.52
334.43	2093.02
334.64	2236.38
334.86	2166.75
335.07	2097.12
335.28	2310.11
335.49	2023.39
335.70	2191.33
335.92	2252.77
336.13	2361.31
336.34	2260.96
336.55	2152.42
336.76	2187.23
336.98	2033.63
337.19	2125.79
337.40	2332.64
337.61	2400.22
337.82	2138.08
338.04	2252.77
338.25	2037.73
338.46	2211.81
338.67	2144.22
338.88	2086.88
339.09	2068.45
339.31	2080.74
339.52	2072.54
339.73	2164.70
339.94	2146.27
340.15	2248.67
340.36	2152.42
340.58	2277.34
340.79	2115.55
341.00	2277.34
341.21	2129.89
341.42	2453.47
341.63	2121.70
341.85	2301.92
342.06	2248.67
342.27	2170.85
342.48	2248.67
342.69	2062.30
342.90	2209.76
343.12	2303.96
343.33	2146.27
343.54	2291.68
343.75	2342.88
343.96	2207.71
344.17	2050.02
344.38	2129.89
344.60	2099.17
344.81	2138.08
345.02	2162.66
345.23	2349.02
345.44	2475.99
345.65	2228.19
345.86	2254.81
346.07	2242.53
346.29	2121.70
346.50	2246.62
346.71	2176.99
346.92	2326.49
347.13	2398.17
347.34	2199.52
347.55	2133.98
347.76	2183.13
347.98	2054.11
348.19	2127.84
348.40	2312.16
348.61	2123.74
348.82	2240.48
349.03	2179.04
349.24	2129.89
349.45	2375.64
349.66	2019.30
349.88	2168.80
350.09	2127.84
350.30	2250.72
350.51	2377.69
350.72	2260.96
350.93	2193.37
351.14	2146.27
351.35	2168.80
351.56	2125.79
351.77	2230.24
351.99	2183.13
352.20	2392.03
352.41	2236.38
352.62	2060.26
352.83	2097.12
353.04	2176.99
353.25	2093.02
353.46	2269.15
353.67	2232.29
353.88	2011.11
354.09	2183.13
354.30	2228.19
354.52	2283.49
354.73	2234.33
354.94	2242.53
355.15	2191.33
355.36	2387.93
355.57	2168.80
355.78	2201.57
355.99	2133.98
356.20	2154.46
356.41	2342.88
356.62	2226.14
356.83	2187.23
357.04	2318.30
357.25	2113.50
357.46	2220.00
357.68	2045.92
357.89	2164.70
358.10	2150.37
358.31	2170.85
358.52	2138.08
358.73	2084.83
358.94	2136.03
359.15	2103.26
359.36	2215.90
359.57	2236.38
359.78	2146.27
359.99	2217.95
360.20	2086.88
360.41	2170.85
360.62	2248.67
360.83	2289.63
361.04	2213.85
361.25	2174.94
361.46	2367.45
361.67	2273.25
361.88	2215.90
362.09	2244.57
362.30	2271.20
362.51	2199.52
362.72	2174.94
362.93	2289.63
363.14	2252.77
363.35	2133.98
363.56	2097.12
363.78	2392.03
363.99	2303.96
364.20	2142.18
364.41	2209.76
364.62	2367.45
364.83	2228.19
365.04	2121.70
365.25	2133.98
365.46	2412.51
365.67	2191.33
365.88	2121.70
366.09	2224.09
366.30	2179.04
366.51	2220.00
366.72	2058.21
366.93	2174.94
367.14	2232.29
367.35	2316.25
367.56	2236.38
367.77	2217.95
367.98	2160.61
368.18	2232.29
368.39	2168.80
368.60	2056.16
368.81	2303.96
369.02	2195.42
369.23	2164.70
369.44	2121.70
369.65	2152.42
369.86	2299.87
370.07	2185.18
370.28	2119.65
370.49	2287.58
370.70	2265.05
370.91	2041.82
371.12	2011.11
371.33	2258.91
371.54	2152.42
371.75	2293.72
371.96	1974.24
372.17	2265.05
372.38	2187.23
372.59	2283.49
372.80	2121.70
373.01	2193.37
373.22	2242.53
373.43	2185.18
373.64	2068.45
373.85	2332.64
374.06	2293.72
374.26	2250.72
374.47	2146.27
374.68	2310.11
374.89	2176.99
375.10	2172.89
375.31	2222.05
375.52	2310.11
375.73	2105.31
375.94	2103.26
376.15	2316.25
376.36	2133.98
376.57	2117.60
376.78	2146.27
376.99	2191.33
377.20	2359.26
377.40	2146.27
377.61	2342.88
377.82	2117.60
378.03	2265.05
378.24	2342.88
378.45	2217.95
378.66	2195.42
378.87	2052.06
379.08	2084.83
379.29	2162.66
379.50	2254.81
379.71	2174.94
379.91	2240.48
380.12	2152.42
380.33	2152.42
380.54	2129.89
380.75	2187.23
380.96	2129.89
381.17	2211.81
381.38	2154.46
381.59	2269.15
381.80	2152.42
382.00	2369.50
382.21	2195.42
382.42	2402.27
382.63	2510.81
382.84	2260.96
383.05	2365.40
383.26	2355.16
383.47	2234.33
383.68	2248.67
383.88	2263.01
384.09	2207.71
384.30	2357.21
384.51	2244.57
384.72	2152.42
384.93	2039.78
385.14	2267.10
385.35	2252.77
385.55	2146.27
385.76	2334.68
385.97	2150.37
386.18	2117.60
386.39	2115.55
386.60	2197.47
386.81	2228.19
387.02	2146.27
387.22	2090.98
387.43	2338.78
387.64	2248.67
387.85	2392.03
388.06	2432.99
388.27	4050.88
388.48	8499.07
388.68	12271.43
388.89	14796.57
389.10	15767.31
389.31	14636.83
389.52	11618.13
389.73	9865.07
389.93	8939.38
390.14	8238.98
390.35	7389.07
390.56	6573.98
390.77	5402.54
390.98	4091.84
391.18	3223.50
391.39	2762.71
391.60	2447.32
391.81	2398.17
392.02	2109.41
392.23	2465.75
392.43	2236.38
392.64	2334.68
392.85	2156.51
393.06	2291.68
393.27	2195.42
393.47	2156.51
393.68	2156.51
393.89	2140.13
394.10	2297.82
394.31	2228.19
394.52	2119.65
394.72	2064.35
394.93	2361.31
395.14	2160.61
395.35	2217.95
395.56	2185.18
395.76	2226.14
395.97	2232.29
396.18	2295.77
396.39	2316.25
396.60	2695.13
396.80	2463.71
397.01	2459.61
397.22	2404.32
397.43	2396.12
397.64	2281.44
397.84	2203.61
398.05	2455.51
398.26	2168.80
398.47	2306.01
398.67	2293.72
398.88	2228.19
399.09	2301.92
399.30	2179.04
399.51	2295.77
399.71	2070.50
399.92	2252.77
400.13	2236.38
400.34	2181.09
400.54	2213.85
400.75	2400.22
400.96	2146.27
401.17	2326.49
401.37	2236.38
401.58	2209.76
401.79	2140.13
402.00	2310.11
402.21	2609.11
402.41	2570.20
402.62	2566.10
402.83	2703.32
403.04	2633.69
403.24	2766.81
403.45	2351.07
403.66	2512.86
403.87	2420.70
404.07	2475.99
404.28	2435.03
404.49	2414.56
404.70	2254.81
404.90	2349.02
405.11	2256.86
405.32	2238.43
405.52	2181.09
405.73	2166.75
405.94	2170.85
406.15	2193.37
406.35	2267.10
406.56	2154.46
406.77	2248.67
406.98	2213.85
407.18	2174.94
407.39	2336.73
407.60	2111.46
407.80	2211.81
408.01	2158.56
408.22	2256.86
408.43	2144.22
408.63	2240.48
408.84	2256.86
409.05	2332.64
409.25	2107.36
409.46	2146.27
409.67	2187.23
409.88	2236.38
410.08	2224.09
410.29	2111.46
410.50	2201.57
410.70	2220.00
410.91	2107.36
411.12	2228.19
411.32	2187.23
411.53	2158.56
411.74	2326.49
411.95	2265.05
412.15	2244.57
412.36	2344.92
412.57	2328.54
412.77	2349.02
412.98	2238.43
413.19	2179.04
413.39	2211.81
413.60	2215.90
413.81	2260.96
414.01	2097.12
414.22	2240.48
414.43	2281.44
414.63	2183.13
414.84	2246.62
415.05	2220.00
415.25	2138.08
415.46	2291.68
415.67	2154.46
415.87	2236.38
416.08	2146.27
416.29	2146.27
416.49	2187.23
416.70	2174.94
416.91	2183.13
417.11	2174.94
417.32	2277.34
417.53	2328.54
417.73	2176.99
417.94	2144.22
418.15	2291.68
418.35	2189.28
418.56	2201.57
418.77	2475.99
418.97	2127.84
419.18	2138.08
419.38	2031.58
419.59	2228.19
419.80	2398.17
420.00	2119.65
420.21	2211.81
420.42	2256.86
420.62	2195.42
420.83	2123.74
421.04	2160.61
421.24	2152.42
421.45	2236.38
421.65	2252.77
421.86	2238.43
422.07	2314.20
422.27	2232.29
422.48	2154.46
422.69	2129.89
422.89	2220.00
423.10	2191.33
423.30	2080.74
423.51	2250.72
423.72	2260.96
423.92	2314.20
424.13	2133.98
424.33	2146.27
424.54	2301.92
424.75	2217.95
424.95	2387.93
425.16	2211.81
425.36	2181.09
425.57	2355.16
425.78	2176.99
425.98	2285.53
426.19	2203.61
426.39	2064.35
426.60	2154.46
426.81	2254.81
427.01	2230.24
427.22	2158.56
427.42	2021.35
427.63	2156.51
427.83	2269.15
428.04	2375.64
428.25	2310.11
428.45	2158.56
428.66	2258.91
428.86	2193.37
429.07	2187.23
429.28	2322.40
429.48	2160.61
429.69	2052.06
429.89	2213.85
430.10	2035.68
430.30	2273.25
430.51	2289.63
430.71	2093.02
430.92	2187.23
431.13	2136.03
431.33	2283.49
431.54	2226.14
431.74	2314.20
431.95	2398.17
432.15	2148.32
432.36	2203.61
432.56	2240.48
432.77	2404.32
432.98	2404.32
433.18	2240.48
433.39	2187.23
433.59	2191.33
433.80	2310.11
434.00	2408.41
434.21	2168.80
434.41	2111.46
434.62	2424.80
434.82	2129.89
435.03	2072.54
435.23	2281.44
435.44	2015.20
435.64	2187.23
435.85	2168.80
436.06	2232.29
436.26	2297.82
436.47	2154.46
436.67	2072.54
436.88	2203.61
437.08	2289.63
437.29	2308.06
437.49	2205.66
437.70	2260.96
437.90	2156.51
438.11	2363.36
438.31	2222.05
438.52	2398.17
438.72	2424.80
438.93	2404.32
439.13	2230.24
439.34	2310.11
439.54	2232.29
439.75	2312.16
439.95	2273.25
440.16	2183.13
440.36	2248.67
440.57	2254.81
440.77	2244.57
440.98	2256.86
441.18	2176.99
441.39	2111.46
441.59	2109.41
441.80	2424.80
442.00	2189.28
442.21	2336.73
442.41	2086.88
442.62	2301.92
442.82	2125.79
443.02	2203.61
443.23	2271.20
443.43	2166.75
443.64	2322.40
443.84	2193.37
444.05	2336.73
444.25	2285.53
444.46	2150.37
444.66	2228.19
444.87	2320.35
445.07	2080.74
445.28	2250.72
445.48	2342.88
445.69	2263.01
445.89	2494.43
446.09	2273.25
446.30	2594.78
446.50	2797.53
446.71	4446.14
446.91	5449.64
447.12	6530.97
447.32	6991.77
447.53	6440.86
447.73	5228.46
447.93	4566.97
448.14	4306.88
448.34	3983.30
448.55	3588.04
448.75	3579.85
448.96	3407.82
449.16	3004.37
449.36	2850.77
449.57	2566.10
449.77	2404.32
449.98	2195.42
450.18	2285.53
450.39	2303.96
450.59	2277.34
450.79	2258.91
451.00	2170.85
451.20	2324.44
451.41	2220.00
451.61	2240.48
451.81	2191.33
452.02	2203.61
452.22	2097.12
452.43	2201.57
452.63	2201.57
452.84	2176.99
453.04	2193.37
453.24	2193.37
453.45	2133.98
453.65	2199.52
453.86	2263.01
454.06	2224.09
454.26	2240.48
454.47	2035.68
454.67	2314.20
454.87	2265.05
455.08	2187.23
455.28	2291.68
455.49	2252.77
455.69	2072.54
455.89	2426.84
456.10	2351.07
456.30	2234.33
456.51	2346.97
456.71	2203.61
456.91	2222.05
457.12	2260.96
457.32	2267.10
457.52	2103.26
457.73	2269.15
457.93	2301.92
458.14	2138.08
458.34	2029.54
458.54	2140.13
458.75	2230.24
458.95	2332.64
459.15	2244.57
459.36	2220.00
459.56	2242.53
459.76	2471.90
459.97	2213.85
460.17	2242.53
460.37	2279.39
460.58	2224.09
460.78	2328.54
460.99	2154.46
461.19	2131.94
461.39	2123.74
461.60	2228.19
461.80	2232.29
462.00	2076.64
462.21	2183.13
462.41	2111.46
462.61	2162.66
462.82	2084.83
463.02	2271.20
463.22	2150.37
463.43	2301.92
463.63	2185.18
463.83	2363.36
464.04	2248.67
464.24	2205.66
464.44	2107.36
464.64	2285.53
464.85	2326.49
465.05	2301.92
465.25	2195.42
465.46	2189.28
465.66	2275.29
465.86	2308.06
466.07	2230.24
466.27	2168.80
466.47	2107.36
466.68	2023.39
466.88	2377.69
467.08	2291.68
467.29	2281.44
467.49	2248.67
467.69	2217.95
467.89	2220.00
468.10	2195.42
468.30	2303.96
468.50	2277.34
468.71	2301.92
468.91	2144.22
469.11	2324.44
469.31	2263.01
469.52	2183.13
469.72	2346.97
469.92	2428.89
470.13	2195.42
470.33	2275.29
470.53	2277.34
470.73	2637.78
470.94	3108.82
471.14	3233.74
471.34	3631.05
471.54	3551.18
471.75	3104.72
471.95	2820.05
472.15	2809.81
472.36	2838.48
472.56	2744.28
472.76	2695.13
472.96	2605.02
473.17	2564.06
473.37	2514.91
473.57	2236.38
473.77	2330.59
473.98	2226.14
474.18	2121.70
474.38	2475.99
474.58	2176.99
474.79	2099.17
474.99	2308.06
475.19	2271.20
475.39	2117.60
475.60	2234.33
475.80	2222.05
476.00	2238.43
476.20	2209.76
476.41	2195.42
476.61	2244.57
476.81	2283.49
477.01	2072.54
477.21	2412.51
477.42	2316.25
477.62	2113.50
477.82	2250.72
478.02	2150.37
478.23	2150.37
478.43	2103.26
478.63	2121.70
478.83	2146.27
479.03	2232.29
479.24	2291.68
479.44	2490.33
479.64	2187.23
479.84	2031.58
480.04	2179.04
480.25	2291.68
480.45	2039.78
480.65	2142.18
480.85	2324.44
481.06	2111.46
481.26	2179.04
481.46	2238.43
481.66	2258.91
481.86	2170.85
482.06	2359.26
482.27	2144.22
482.47	2183.13
482.67	2203.61
482.87	2187.23
483.07	2289.63
483.28	2047.97
483.48	2140.13
483.68	2242.53
483.88	2103.26
484.08	2078.69
484.29	2035.68
484.49	2201.57
484.69	2117.60
484.89	2381.79
485.09	2297.82
485.29	2232.29
485.50	2250.72
485.70	2176.99
485.90	2367.45
486.10	2285.53
486.30	2306.01
486.50	2342.88
486.71	2279.39
486.91	2310.11
487.11	2379.74
487.31	2095.07
487.51	2187.23
487.71	2215.90
487.91	2179.04
488.12	2170.85
488.32	2023.39
488.52	2156.51
488.72	2047.97
488.92	2119.65
489.12	2322.40
489.32	2289.63
489.53	2310.11
489.73	2052.06
489.93	2381.79
490.13	2170.85
490.33	2117.60
490.53	2176.99
490.73	2303.96
490.94	2080.74
491.14	2226.14
491.34	2277.34
491.54	2510.81
491.74	3110.86
491.94	3831.75
492.14	4147.14
492.34	4143.04
492.54	3766.21
492.75	3254.22
492.95	3280.85
493.15	2932.69
493.35	2850.77
493.55	2795.48
493.75	2744.28
493.95	2717.65
494.15	2594.78
494.35	2330.59
494.56	2244.57
494.76	2183.13
494.96	2238.43
495.16	2271.20
495.36	2236.38
495.56	2209.76
495.76	2181.09
495.96	2191.33
496.16	2109.41
496.36	2449.37
496.56	2230.24
496.77	2205.66
496.97	2209.76
497.17	2285.53
497.37	2066.40
497.57	2301.92
497.77	2242.53
497.97	2176.99
498.17	2228.19
498.37	2103.26
498.57	2340.83
498.77	2136.03
498.97	2277.34
499.17	2355.16
499.38	2187.23
499.58	2195.42
499.78	2322.40
499.98	2373.60
500.18	2220.00
500.38	2152.42
500.58	2400.22
500.78	2869.20
500.98	5226.42
501.18	7409.55
501.38	9187.19
501.58	9965.42
501.78	9627.50
501.98	7860.10
502.18	6504.35
502.38	5576.62
502.58	5142.45
502.78	4728.76
502.98	4478.91
503.18	4337.60
503.38	3954.63
503.59	3397.58
503.79	3182.54
503.99	3026.90
504.19	2879.44
504.39	2772.95
504.59	2881.49
504.79	2842.58
504.99	2815.96
505.19	2537.43
505.39	2490.33
505.59	2557.91
505.79	2512.86
505.99	2402.27
506.19	2318.30
506.39	2482.14
506.59	2230.24
506.79	2242.53
506.99	2338.78
507.19	2170.85
507.39	2176.99
507.59	2095.07
507.79	2201.57
507.99	2162.66
508.19	2256.86
508.39	2138.08
508.59	2152.42
508.79	2344.92
508.99	2338.78
509.19	2131.94
509.39	2306.01
509.59	2197.47
509.79	2144.22
509.99	2291.68
510.19	2361.31
510.39	2324.44
510.59	2240.48
510.79	2142.18
510.99	2054.11
511.19	2267.10
511.39	2389.98
511.59	2258.91
511.79	2254.81
511.99	2209.76
512.19	2326.49
512.38	2183.13
512.58	2183.13
512.78	2187.23
512.98	2330.59
513.18	2217.95
513.38	2082.78
513.58	2260.96
513.78	2236.38
513.98	2215.90
514.18	2195.42
514.38	2125.79
514.58	2291.68
514.78	2170.85
514.98	2119.65
515.18	2164.70
515.38	2109.41
515.58	2324.44
515.78	2144.22
515.98	2269.15
516.18	2301.92
516.38	2244.57
516.57	2144.22
516.77	2179.04
516.97	2285.53
517.17	2183.13
517.37	2062.30
517.57	2342.88
517.77	2232.29
517.97	2121.70
518.17	2244.57
518.37	2097.12
518.57	2144.22
518.77	2242.53
518.97	2176.99
519.16	2234.33
519.36	2299.87
519.56	2166.75
519.76	2174.94
519.96	2213.85
520.16	2439.13
520.36	2158.56
520.56	2353.12
520.76	2170.85
520.96	2154.46
521.16	2322.40
521.35	2318.30
521.55	2318.30
521.75	2222.05
521.95	2109.41
522.15	2166.75
522.35	2086.88
522.55	2103.26
522.75	2326.49
522.95	2181.09
523.14	2166.75
523.34	2203.61
523.54	2246.62
523.74	2236.38
523.94	2265.05
524.14	2025.44
524.34	2289.63
524.54	2289.63
524.73	2146.27
524.93	2265.05
525.13	2185.18
525.33	2050.02
525.53	2482.14
525.73	2228.19
525.93	2252.77
526.13	2121.70
526.32	2123.74
526.52	2271.20
526.72	2275.29
526.92	2166.75
527.12	2209.76
527.32	2113.50
527.52	2211.81
527.71	2273.25
527.91	2211.81
528.11	2150.37
528.31	2127.84
528.51	2086.88
528.71	2199.52
528.90	2203.61
529.10	2330.59
529.30	2301.92
529.50	1978.34
529.70	2281.44
529.90	2187.23
530.09	2211.81
530.29	2160.61
530.49	2121.70
530.69	2375.64
530.89	2197.47
531.09	2291.68
531.28	2129.89
531.48	2355.16
531.68	2201.57
531.88	2203.61
532.08	2295.77
532.28	2162.66
532.47	2273.25
532.67	2267.10
532.87	2336.73
533.07	2183.13
533.27	2283.49
533.46	2250.72
533.66	2293.72
533.86	2258.91
534.06	2260.96
534.26	2316.25
534.45	2240.48
534.65	2371.55
534.85	2275.29
535.05	2158.56
535.25	2324.44
535.44	2029.54
535.64	2299.87
535.84	2119.65
536.04	2185.18
536.24	2179.04
536.43	2138.08
536.63	2179.04
536.83	2187.23
537.03	2234.33
537.22	1982.43
537.42	2097.12
537.62	2248.67
537.82	2142.18
538.02	2293.72
538.21	2316.25
538.41	2594.78
538.61	2326.49
538.81	2195.42
539.00	2295.77
539.20	2125.79
539.40	2220.00
539.60	2228.19
539.79	2306.01
539.99	2183.13
540.19	2154.46
540.39	2162.66
540.58	2344.92
540.78	2297.82
540.98	2209.76
541.18	2314.20
541.37	2326.49
541.57	2306.01
541.77	2234.33
541.97	2144.22
542.16	2060.26
542.36	2166.75
542.56	2199.52
542.76	2375.64
542.95	2310.11
543.15	2269.15
543.35	2269.15
543.54	2117.60
543.74	2152.42
543.94	2303.96
544.14	2236.38
544.33	2254.81
544.53	2158.56
544.73	2242.53
544.93	2158.56
545.12	2140.13
545.32	2201.57
545.52	2150.37
545.71	2123.74
545.91	2215.90
546.11	2174.94
546.30	2136.03
546.50	2197.47
546.70	2308.06
546.90	2252.77
547.09	2043.87
547.29	2207.71
547.49	2295.77
547.68	2220.00
547.88	2154.46
548.08	2271.20
548.27	2693.08
548.47	2197.47
548.67	2146.27
548.87	2220.00
549.06	2228.19
549.26	2211.81
549.46	2283.49
549.65	2144.22
549.85	2220.00
550.05	2220.00
550.24	2097.12
550.44	2250.72
550.64	2205.66
550.83	2215.90
551.03	2303.96
551.23	2338.78
551.42	2254.81
551.62	2162.66
551.82	2193.37
552.01	2121.70
552.21	2326.49
552.41	2203.61
552.60	2389.98
552.80	2254.81
553.00	2119.65
553.19	2176.99
553.39	2336.73
553.59	2158.56
553.78	2267.10
553.98	2256.86
554.17	2039.78
554.37	2291.68
554.57	2166.75
554.76	2090.98
554.96	2193.37
555.16	2236.38
555.35	2136.03
555.55	2246.62
555.75	2252.77
555.94	2322.40
556.14	2072.54
556.33	2263.01
556.53	2168.80
556.73	2160.61
556.92	2185.18
557.12	2283.49
557.32	2375.64
557.51	2346.97
557.71	2191.33
557.90	2355.16
558.10	2326.49
558.30	2162.66
558.49	2150.37
558.69	2201.57
558.88	2248.67
559.08	2236.38
559.28	2195.42
559.47	2254.81
559.67	2324.44
559.86	2314.20
560.06	2195.42
560.26	2181.09
560.45	2211.81
560.65	2183.13
560.84	2301.92
561.04	2097.12
561.24	2301.92
561.43	2144.22
561.63	2371.55
561.82	2158.56
562.02	2267.10
562.22	2154.46
562.41	2101.22
562.61	2129.89
562.80	2093.02
563.00	2441.18
563.19	2248.67
563.39	2183.13
563.59	2232.29
563.78	2111.46
563.98	2080.74
564.17	2146.27
564.37	2054.11
564.56	2236.38
564.76	2113.50
564.96	2283.49
565.15	2277.34
565.35	2490.33
565.54	2162.66
565.74	2297.82
565.93	2265.05
566.13	2209.76
566.32	2267.10
566.52	2301.92
566.71	2250.72
566.91	2273.25
567.11	2277.34
567.30	2144.22
567.50	2256.86
567.69	2260.96
567.89	2172.89
568.08	2150.37
568.28	2260.96
568.47	2193.37
568.67	2260.96
568.86	2176.99
569.06	2344.92
569.25	2244.57
569.45	2136.03
569.64	2136.03
569.84	2179.04
570.04	2275.29
570.23	2189.28
570.43	2183.13
570.62	2230.24
570.82	2359.26
571.01	2039.78
571.21	2207.71
571.40	2191.33
571.60	2355.16
571.79	2250.72
571.99	2275.29
572.18	2168.80
572.38	2244.57
572.57	2158.56
572.77	2275.29
572.96	2537.43
573.16	2232.29
573.35	2123.74
573.55	2308.06
573.74	2133.98
573.94	2205.66
574.13	2234.33
574.33	2283.49
574.52	2269.15
574.71	2260.96
574.91	2248.67
575.10	2074.59
575.30	2209.76
575.49	2146.27
575.69	2133.98
575.88	2191.33
576.08	2277.34
576.27	2402.27
576.47	2258.91
576.66	2414.56
576.86	2457.56
577.05	2349.02
577.25	2299.87
577.44	2361.31
577.64	2154.46
577.83	2203.61
578.02	2113.50
578.22	2332.64
578.41	2359.26
578.61	2183.13
578.80	2123.74
579.00	2170.85
579.19	2252.77
579.39	2176.99
579.58	2244.57
579.77	2197.47
579.97	2441.18
580.16	2361.31
580.36	2361.31
580.55	2308.06
580.75	2248.67
580.94	2312.16
581.13	2342.88
581.33	2400.22
581.52	2236.38
581.72	2471.90
581.91	2457.56
582.11	2252.77
582.30	2383.84
582.49	2353.12
582.69	2412.51
582.88	2285.53
583.08	2281.44
583.27	2248.67
583.47	2297.82
583.66	2207.71
583.85	2138.08
584.05	2254.81
584.24	2326.49
584.44	2326.49
584.63	2351.07
584.82	2439.13
585.02	2449.37
585.21	2308.06
585.41	2346.97
585.60	2357.21
585.79	2449.37
585.99	2457.56
586.18	2381.79
586.37	2947.03
586.57	4534.20
586.76	13551.41
586.96	32394.77
587.15	46599.48
587.34	55911.59
587.54	61080.67
587.73	56304.80
587.93	39769.51
588.12	30262.83
588.31	23856.79
588.51	21132.99
588.70	19205.85
588.89	17465.08
589.09	15134.49
589.28	13188.92
589.47	10825.56
589.67	8392.58
589.86	6504.35
590.06	4736.95
590.25	3792.84
590.44	3157.97
590.64	2813.91
590.83	2609.11
591.02	2478.04
591.22	2375.64
591.41	2363.36
591.60	2277.34
591.80	2514.91
591.99	2179.04
592.18	2154.46
592.38	2342.88
592.57	2230.24
592.76	2297.82
592.96	2277.34
593.15	2263.01
593.34	2359.26
593.54	2265.05
593.73	2265.05
593.92	2301.92
594.12	2355.16
594.31	2258.91
594.50	2367.45
594.70	2314.20
594.89	2453.47
595.08	2172.89
595.28	2275.29
595.47	2588.63
595.66	2340.83
595.86	2105.31
596.05	2228.19
596.24	2187.23
596.43	2371.55
596.63	2404.32
596.82	2293.72
597.01	2338.78
597.21	2473.95
597.40	2332.64
597.59	2248.67
597.79	2179.04
597.98	2263.01
598.17	2375.64
598.36	2310.11
598.56	2285.53
598.75	2187.23
598.94	2281.44
599.14	2346.97
599.33	2107.36
599.52	2303.96
599.71	2211.81
599.91	2301.92
600.10	2273.25
600.29	2277.34
600.48	2306.01
600.68	2246.62
600.87	2256.86
601.06	2131.94
601.26	2174.94
601.45	2250.72
601.64	2109.41
601.83	2293.72
602.03	2174.94
602.22	2129.89
602.41	2312.16
602.60	2467.80
602.80	2297.82
602.99	2318.30
603.18	2269.15
603.37	2170.85
603.57	2222.05
603.76	2310.11
603.95	2392.03
604.14	2164.70
604.34	2138.08
604.53	2133.98
604.72	2215.90
604.91	2258.91
605.10	2201.57
605.30	2088.93
605.49	2449.37
605.68	2355.16
605.87	2246.62
606.07	2113.50
606.26	2250.72
606.45	2297.82
606.64	2293.72
606.84	2170.85
607.03	2314.20
607.22	2324.44
607.41	2224.09
607.60	2215.90
607.80	2375.64
607.99	2301.92
608.18	2244.57
608.37	2295.77
608.56	2109.41
608.76	2379.74
608.95	2381.79
609.14	2238.43
609.33	2349.02
609.52	2394.08
609.72	2398.17
609.91	2381.79
610.10	2232.29
610.29	2420.70
610.48	2320.35
610.68	2303.96
610.87	2240.48
611.06	2265.05
611.25	2250.72
611.44	2308.06
611.63	2154.46
611.83	2381.79
612.02	2119.65
612.21	2299.87
612.40	2068.45
612.59	2097.12
612.79	2105.31
612.98	2267.10
613.17	2306.01
613.36	2232.29
613.55	2344.92
613.74	2260.96
613.93	2377.69
614.13	2457.56
614.32	2562.01
614.51	2478.04
614.70	2320.35
614.89	2332.64
615.08	2357.21
615.28	2686.94
615.47	2195.42
615.66	2277.34
615.85	2250.72
616.04	2414.56
616.23	2281.44
616.42	2244.57
616.62	2326.49
616.81	2346.97
617.00	2217.95
617.19	2346.97
617.38	2275.29
617.57	2226.14
617.76	2357.21
617.95	2385.88
618.15	2291.68
618.34	2344.92
618.53	2105.31
618.72	2269.15
618.91	2326.49
619.10	2306.01
619.29	2232.29
619.48	2234.33
619.68	2148.32
619.87	2211.81
620.06	2060.26
620.25	2277.34
620.44	2217.95
620.63	2183.13
620.82	2203.61
621.01	2234.33
621.20	2203.61
621.39	2187.23
621.59	2238.43
621.78	2230.24
621.97	2234.33
622.16	2242.53
622.35	2293.72
622.54	2277.34
622.73	2252.77
622.92	2002.91
623.11	2301.92
623.30	2185.18
623.49	2342.88
623.68	2170.85
623.88	2340.83
624.07	2271.20
624.26	2176.99
624.45	2203.61
624.64	2187.23
624.83	2222.05
625.02	2162.66
625.21	2199.52
625.40	2281.44
625.59	2375.64
625.78	2226.14
625.97	2375.64
626.16	2283.49
626.35	2375.64
626.54	2365.40
626.74	2447.32
626.93	2293.72
627.12	2252.77
627.31	2260.96
627.50	2238.43
627.69	2326.49
627.88	2187.23
628.07	2203.61
628.26	2111.46
628.45	2183.13
628.64	2097.12
628.83	2185.18
629.02	2050.02
629.21	2269.15
629.40	2287.58
629.59	2148.32
629.78	2203.61
629.97	2162.66
630.16	2174.94
630.35	2166.75
630.54	2240.48
630.73	2166.75
630.92	2195.42
631.11	2082.78
631.30	2244.57
631.49	2260.96
631.68	2277.34
631.87	2267.10
632.06	2047.97
632.25	2357.21
632.44	2279.39
632.63	2201.57
632.82	2236.38
633.01	2256.86
633.20	2432.99
633.39	2334.68
633.58	2183.13
633.77	2244.57
633.96	2375.64
634.15	2334.68
634.34	2332.64
634.53	2269.15
634.72	2191.33
634.91	2088.93
635.10	2297.82
635.29	2351.07
635.48	2213.85
635.67	2176.99
635.86	2101.22
636.05	2316.25
636.24	2211.81
636.43	2334.68
636.62	2273.25
636.81	1996.77
637.00	2209.76
637.19	2258.91
637.38	2260.96
637.57	2195.42
637.76	2248.67
637.95	2308.06
638.14	2283.49
638.33	2375.64
638.52	2301.92
638.71	2127.84
638.89	2158.56
639.08	2457.56
639.27	2336.73
639.46	2539.48
639.65	2858.96
639.84	3059.67
640.03	3061.71
640.22	2971.60
640.41	2981.84
640.60	2537.43
640.79	2621.40
640.98	2426.84
641.17	2418.65
641.36	2463.71
641.55	2379.74
641.74	2226.14
641.92	2207.71
642.11	2205.66
642.30	2289.63
642.49	2146.27
642.68	2162.66
642.87	2250.72
643.06	2244.57
643.25	2179.04
643.44	2230.24
643.63	2310.11
643.82	2303.96
644.00	2105.31
644.19	2125.79
644.38	2062.30
644.57	2217.95
644.76	2256.86
644.95	2138.08
645.14	2287.58
645.33	2176.99
645.52	2136.03
645.71	2133.98
645.89	2154.46
646.08	2275.29
646.27	2133.98
646.46	2461.66
646.65	2060.26
646.84	2138.08
647.03	2170.85
647.22	2228.19
647.40	2228.19
647.59	2215.90
647.78	2056.16
647.97	2131.94
648.16	2127.84
648.35	2326.49
648.54	2287.58
648.73	2156.51
648.91	2291.68
649.10	2158.56
649.29	2121.70
649.48	2162.66
649.67	2248.67
649.86	2297.82
650.05	2230.24
650.23	2369.50
650.42	2392.03
650.61	2519.00
650.80	2484.19
650.99	2500.57
651.18	2389.98
651.36	2351.07
651.55	2252.77
651.74	2285.53
651.93	2254.81
652.12	2236.38
652.31	2258.91
652.49	2209.76
652.68	2172.89
652.87	2394.08
653.06	2275.29
653.25	2295.77
653.44	2287.58
653.62	2373.60
653.81	2174.94
654.00	2164.70
654.19	2271.20
654.38	2435.03
654.56	2226.14
654.75	2144.22
654.94	2267.10
655.13	2232.29
655.32	2252.77
655.51	2236.38
655.69	2097.12
655.88	2318.30
656.07	2047.97
656.26	2277.34
656.45	2146.27
656.63	2256.86
656.82	2179.04
657.01	2324.44
657.20	2215.90
657.38	2310.11
657.57	2215.90
657.76	1990.63
657.95	2267.10
658.14	2097.12
658.32	2127.84
658.51	2109.41
658.70	2265.05
658.89	2263.01
659.08	2187.23
659.26	2439.13
659.45	2183.13
659.64	2338.78
659.83	2246.62
660.01	2557.91
660.20	2293.72
660.39	2377.69
660.58	2035.68
660.76	2193.37
660.95	2013.15
661.14	2217.95
661.33	2123.74
661.51	2168.80
661.70	2209.76
661.89	2181.09
662.08	2162.66
662.26	2113.50
662.45	2095.07
662.64	2424.80
662.83	2244.57
663.01	2113.50
663.20	2215.90
663.39	2346.97
663.58	2129.89
663.76	2168.80
663.95	2306.01
664.14	2183.13
664.32	2195.42
664.51	2093.02
664.70	2054.11
664.89	2244.57
665.07	2072.54
665.26	2293.72
665.45	2113.50
665.64	2256.86
665.82	2217.95
666.01	2267.10
666.20	2072.54
666.38	2338.78
666.57	2387.93
666.76	3340.24
666.95	8048.52
667.13	16649.99
667.32	22195.89
667.51	25837.17
667.69	27790.94
667.88	25882.23
668.07	18345.70
668.25	14468.90
668.44	12095.30
668.63	10375.01
668.81	9127.80
669.00	8044.42
669.19	7073.68
669.38	6270.88
669.56	5255.09
669.75	4372.41
669.94	3651.53
670.12	3129.30
670.31	2828.24
670.50	2637.78
670.68	2463.71
670.87	2381.79
671.06	2306.01
671.24	2273.25
671.43	2430.94
671.62	2314.20
671.80	2209.76
671.99	2316.25
672.18	2244.57
672.36	2336.73
672.55	2295.77
672.74	2242.53
672.92	2138.08
673.11	2318.30
673.29	2150.37
673.48	2258.91
673.67	2156.51
673.85	2248.67
674.04	2195.42
674.23	2187.23
674.41	2428.89
674.60	2037.73
674.79	2064.35
674.97	2095.07
675.16	2285.53
675.34	2318.30
675.53	2168.80
675.72	2191.33
675.90	2402.27
676.09	2195.42
676.28	2207.71
676.46	2050.02
676.65	2226.14
676.83	2185.18
677.02	2195.42
677.21	2220.00
677.39	2203.61
677.58	2037.73
677.77	2179.04
677.95	2068.45
678.14	2109.41
678.32	2179.04
678.51	2160.61
678.70	2461.66
678.88	2197.47
679.07	2222.05
679.25	2174.94
679.44	2181.09
679.63	2170.85
679.81	2217.95
680.00	2260.96
680.18	2211.81
680.37	2273.25
680.55	2269.15
680.74	2080.74
680.93	2078.69
681.11	2240.48
681.30	2129.89
681.48	2187.23
681.67	2189.28
681.85	2250.72
682.04	2072.54
682.23	2314.20
682.41	2170.85
682.60	2162.66
682.78	2129.89
682.97	2072.54
683.15	2250.72
683.34	2232.29
683.53	2338.78
683.71	2158.56
683.90	2308.06
684.08	2398.17
684.27	2127.84
684.45	2207.71
684.64	2334.68
684.82	2195.42
685.01	2289.63
685.19	2244.57
685.38	2314.20
685.57	2217.95
685.75	2088.93
685.94	2090.98
686.12	2133.98
686.31	2172.89
686.49	2355.16
686.68	2023.39
686.86	2228.19
687.05	2195.42
687.23	2326.49
687.42	2148.32
687.60	2045.92
687.79	2244.57
687.97	2363.36
688.16	2246.62
688.34	2326.49
688.53	1996.77
688.71	2256.86
688.90	2303.96
689.08	2156.51
689.27	2117.60
689.45	2285.53
689.64	2265.05
689.82	2269.15
690.01	2185.18
690.19	2195.42
690.38	2238.43
690.56	2349.02
690.75	2045.92
690.93	2168.80
691.12	2168.80
691.30	2207.71
691.49	2213.85
691.67	2222.05
691.86	2424.80
692.04	2080.74
692.23	2220.00
692.41	2230.24
692.60	2432.99
692.78	2375.64
692.97	2318.30
693.15	2279.39
693.34	2424.80
693.52	2385.88
693.71	2187.23
693.89	2138.08
694.08	2093.02
694.26	2258.91
694.44	2287.58
694.63	2314.20
694.81	2086.88
695.00	2156.51
695.18	2346.97
695.37	2426.84
695.55	2209.76
695.74	2113.50
695.92	2125.79
696.10	2373.60
696.29	2064.35
696.47	2179.04
696.66	2072.54
696.84	2121.70
697.03	2211.81
697.21	2334.68
697.40	3164.11
697.58	2301.92
697.76	2095.07
697.95	2140.13
698.13	2074.59
698.32	2074.59
698.50	2220.00
698.68	2246.62
698.87	2291.68
699.05	2412.51
699.24	2121.70
699.42	2090.98
699.61	2179.04
699.79	2224.09
699.97	2144.22
700.16	2142.18
700.34	2023.39
700.53	2271.20
700.71	2310.11
700.89	2265.05
701.08	2207.71
701.26	2162.66
701.45	2750.42
701.63	2080.74
701.81	2195.42
702.00	2220.00
702.18	2224.09
702.37	2207.71
702.55	2435.03
702.73	2428.89
702.92	2359.26
703.10	2572.25
703.28	2521.05
703.47	2326.49
703.65	2488.28
703.84	2299.87
704.02	2238.43
704.20	2465.75
704.39	2160.61
704.57	2220.00
704.75	2396.12
704.94	2353.12
705.12	2256.86
705.30	2572.25
705.49	4497.34
705.67	10968.92
705.86	20205.26
706.04	24473.23
706.22	28038.74
706.41	29283.91
706.59	25214.59
706.77	17671.92
706.96	14827.29
707.14	12787.52
707.32	11030.36
707.51	10039.14
707.69	8136.58
707.87	6518.68
708.06	5291.95
708.24	4126.66
708.42	3264.46
708.61	3106.77
708.79	2519.00
708.97	2459.61
709.16	2363.36
709.34	2295.77
709.52	2211.81
709.71	2176.99
709.89	2277.34
710.07	2152.42
710.26	2162.66
710.44	2217.95
710.62	2334.68
710.80	2260.96
710.99	2234.33
711.17	2349.02
711.35	2084.83
711.54	2105.31
711.72	2254.81
711.90	2267.10
712.09	2213.85
712.27	2176.99
712.45	2275.29
712.63	2131.94
712.82	2138.08
713.00	2250.72
713.18	2215.90
713.37	2256.86
713.55	2269.15
713.73	2170.85
713.91	2232.29
714.10	2127.84
714.28	2195.42
714.46	2301.92
714.65	2185.18
714.83	2213.85
715.01	2170.85
715.19	2170.85
715.38	2125.79
715.56	2179.04
715.74	2162.66
715.92	2064.35
716.11	2254.81
716.29	2060.26
716.47	2234.33
716.65	2146.27
716.84	2084.83
717.02	2297.82
717.20	2086.88
717.38	2144.22
717.57	2281.44
717.75	2199.52
717.93	2193.37
718.11	2215.90
718.30	2007.01
718.48	2205.66
718.66	2328.54
718.84	2242.53
719.03	2158.56
719.21	2109.41
719.39	2314.20
719.57	2310.11
719.75	2359.26
719.94	2097.12
720.12	2211.81
720.30	2220.00
720.48	2318.30
720.67	2176.99
720.85	2125.79
721.03	2193.37
721.21	2138.08
721.39	2293.72
721.58	2281.44
721.76	2226.14
721.94	2283.49
722.12	2260.96
722.30	2389.98
722.49	2187.23
722.67	2226.14
722.85	2351.07
723.03	2068.45
723.21	2064.35
723.40	2205.66
723.58	2330.59
723.76	2365.40
723.94	2412.51
724.12	2359.26
724.30	2459.61
724.49	2367.45
724.67	2191.33
724.85	2367.45
725.03	2129.89
725.21	2283.49
725.40	2303.96
725.58	2115.55
725.76	2342.88
725.94	2293.72
726.12	2189.28
726.30	2260.96
726.49	2142.18
726.67	2220.00
726.85	2256.86
727.03	2539.48
727.21	3768.26
727.39	5396.40
727.57	6733.72
727.76	7247.76
727.94	7710.60
728.12	7245.71
728.30	5846.95
728.48	5146.55
728.66	4376.51
728.84	4030.40
729.03	3551.18
729.21	3137.49
729.39	2930.64
729.57	2494.43
729.75	2441.18
729.93	2392.03
730.11	2281.44
730.30	2195.42
730.48	2232.29
730.66	2252.77
730.84	2310.11
731.02	2162.66
731.20	2166.75
731.38	2113.50
731.56	2148.32
731.74	2127.84
731.93	2224.09
732.11	2197.47
732.29	2181.09
732.47	2238.43
732.65	2263.01
732.83	2285.53
733.01	2269.15
733.19	2033.63
733.37	2265.05
733.56	2199.52
733.74	2127.84
733.92	2412.51
734.10	2222.05
734.28	2271.20
734.46	2146.27
734.64	2172.89
734.82	2136.03
735.00	2220.00
735.18	2154.46
735.36	2254.81
735.54	2232.29
735.73	2127.84
735.91	2265.05
736.09	2334.68
736.27	2197.47
736.45	2269.15
736.63	2088.93
736.81	2138.08
736.99	2244.57
737.17	2330.59
737.35	2138.08
737.53	2195.42
737.71	2166.75
737.89	2310.11
738.07	2103.26
738.25	2144.22
738.43	2066.40
738.61	2140.13
738.80	2140.13
738.98	2160.61
739.16	2133.98
739.34	2144.22
739.52	2283.49
739.70	2158.56
739.88	2269.15
740.06	2330.59
740.24	2043.87
740.42	2332.64
740.60	2011.11
740.78	2150.37
740.96	2054.11
741.14	2252.77
741.32	2129.89
741.50	2074.59
741.68	2338.78
741.86	2316.25
742.04	2105.31
742.22	2033.63
742.40	2138.08
742.58	2248.67
742.76	2111.46
742.94	2291.68
743.12	2050.02
743.30	2195.42
743.48	2269.15
743.66	2127.84
743.84	2207.71
744.02	2148.32
744.20	2271.20
744.38	2119.65
744.56	2109.41
744.74	2392.03
744.92	2279.39
745.10	2371.55
745.28	2269.15
745.46	2340.83
745.64	2273.25
745.82	2306.01
746.00	2211.81
746.18	2250.72
746.36	2162.66
746.54	2181.09
746.72	2183.13
746.90	2131.94
747.08	2293.72
747.26	2193.37
747.44	2246.62
747.62	2269.15
747.80	2195.42
747.98	2234.33
748.15	2170.85
748.33	2414.56
748.51	2252.77
748.69	2228.19
748.87	2113.50
749.05	2121.70
749.23	2152.42
749.41	2258.91
749.59	2170.85
749.77	2248.67
749.95	2133.98
750.13	2217.95
750.31	2193.37
750.49	2179.04
750.67	2289.63
750.85	2369.50
751.03	2207.71
751.20	2437.08
751.38	2193.37
751.56	2174.94
751.74	2217.95
751.92	2215.90
752.10	2029.54
752.28	2322.40
752.46	2154.46
752.64	2195.42
752.82	2187.23
753.00	2301.92
753.18	2140.13
753.35	2162.66
753.53	2260.96
753.71	2185.18
753.89	2256.86
754.07	2285.53
754.25	2291.68
754.43	2203.61
754.61	2133.98
754.79	2238.43
754.97	2115.55
755.14	2301.92
755.32	2011.11
755.50	2158.56
755.68	2211.81
755.86	2068.45
756.04	2121.70
756.22	2086.88
756.40	2273.25
756.57	2383.84
756.75	2166.75
756.93	2287.58
757.11	2244.57
757.29	2105.31
757.47	2064.35
757.65	2004.96
757.82	2019.30
758.00	2095.07
758.18	2093.02
758.36	2121.70
758.54	2381.79
758.72	1984.48
758.90	2236.38
759.07	2166.75
759.25	2068.45
759.43	2242.53
759.61	2129.89
759.79	3039.19
759.97	2250.72
760.15	2142.18
760.32	2148.32
760.50	2217.95
760.68	2383.84
760.86	2060.26
761.04	2254.81
761.22	2228.19
761.39	2129.89
761.57	2238.43
761.75	2144.22
761.93	2187.23
762.11	2230.24
762.28	2207.71
762.46	2113.50
762.64	2291.68
762.82	2097.12
763.00	2187.23
763.18	2260.96
763.35	2127.84
763.53	2220.00
763.71	2222.05
763.89	2164.70
764.07	2199.52
764.24	2187.23
764.42	2273.25
764.60	2107.36
764.78	2238.43
764.96	2222.05
765.13	2226.14
765.31	2142.18
765.49	2203.61
765.67	2103.26
765.84	2183.13
766.02	2131.94
766.20	2054.11
766.38	2226.14
766.56	2291.68
766.73	2226.14
766.91	2203.61
767.09	2234.33
767.27	2244.57
767.44	2154.46
767.62	2217.95
767.80	2205.66
767.98	2121.70
768.15	2129.89
768.33	2285.53
768.51	2236.38
768.69	2265.05
768.87	2217.95
769.04	2078.69
769.22	2414.56
769.40	2277.34
769.58	2385.88
769.75	2281.44
769.93	2322.40
770.11	2117.60
770.28	2105.31
770.46	2269.15
770.64	2326.49
770.82	2195.42
770.99	2127.84
771.17	2213.85
771.35	2107.36
771.53	2109.41
771.70	2209.76
771.88	2232.29
772.06	2111.46
772.23	2144.22
772.41	2244.57
772.59	2172.89
772.77	2072.54
772.94	2152.42
773.12	2213.85
773.30	2170.85
773.47	2224.09
773.65	2203.61
773.83	2289.63
774.01	2156.51
774.18	2031.58
774.36	2187.23
774.54	2056.16
774.71	2254.81
774.89	2029.54
775.07	2088.93
775.24	2117.60
775.42	2187.23
775.60	2334.68
775.78	2093.02
775.95	2064.35
776.13	2101.22
776.31	2050.02
776.48	2263.01
776.66	2271.20
776.84	2146.27
777.01	2050.02
777.19	2146.27
777.37	2113.50
777.54	2287.58
777.72	2287.58
777.90	2283.49
778.07	2140.13
778.25	2504.67
778.43	2283.49
778.60	2136.03
778.78	2183.13
778.96	2346.97
779.13	2023.39
779.31	2230.24
779.49	2150.37
779.66	2242.53
779.84	2273.25
780.01	2158.56
780.19	2144.22
780.37	2332.64
780.54	2299.87
780.72	2129.89
780.90	2224.09
781.07	2220.00
781.25	2199.52
781.43	2308.06
781.60	2193.37
781.78	2260.96
781.95	2213.85
782.13	2138.08
782.31	2224.09
782.48	2023.39
782.66	2168.80
782.83	2338.78
783.01	2246.62
783.19	2285.53
783.36	2174.94
783.54	2074.59
783.72	2371.55
783.89	2209.76
784.07	2203.61
784.24	2318.30
784.42	2398.17
784.60	2168.80
784.77	2236.38
784.95	2111.46
785.12	2179.04
785.30	2138.08
785.47	2103.26
785.65	2179.04
785.83	2244.57
786.00	2160.61
786.18	2138.08
786.35	2123.74
786.53	2090.98
786.71	2256.86
786.88	2275.29
787.06	2246.62
787.23	2121.70
787.41	2088.93
787.58	2166.75
787.76	2150.37
787.94	2252.77
788.11	2185.18
788.29	2095.07
788.46	2156.51
788.64	2097.12
788.81	2250.72
788.99	2086.88
789.16	2021.35
789.34	2133.98
789.52	2099.17
789.69	2156.51
789.87	2109.41
790.04	2187.23
790.22	2193.37
790.39	2351.07
790.57	2103.26
790.74	2150.37
790.92	2205.66
791.09	2095.07
791.27	2166.75
791.44	2287.58
791.62	2168.80
791.79	2256.86
791.97	2205.66
792.15	2535.39
792.32	2226.14
792.50	2295.77
792.67	2344.92
792.85	2334.68
793.02	2107.36
793.20	2121.70
793.37	2043.87
793.55	2269.15
793.72	2050.02
793.90	2226.14
794.07	2037.73
794.25	2084.83
794.42	2220.00
794.60	2220.00
794.77	2238.43
794.95	2260.96
795.12	2260.96
795.30	2185.18
795.47	2039.78
795.65	2396.12
795.82	2189.28
796.00	2125.79
796.17	2199.52
796.34	2138.08
796.52	2211.81
796.69	2303.96
796.87	2289.63
797.04	2209.76
797.22	2265.05
797.39	2203.61
797.57	2242.53
797.74	2252.77
797.92	2217.95
798.09	2097.12
798.27	2293.72
798.44	2138.08
798.62	2187.23
798.79	2238.43
798.96	2183.13
799.14	2236.38
799.31	2519.00
799.49	2258.91
799.66	2185.18
799.84	2238.43
800.01	2080.74
800.19	2162.66
800.36	2004.96
800.53	2217.95
800.71	2220.00
800.88	2359.26
801.06	2103.26
801.23	2150.37
801.41	2211.81
801.58	2154.46
801.75	2103.26
801.93	2168.80
802.10	2336.73
802.28	2144.22
802.45	2199.52
802.63	2306.01
802.80	2338.78
802.97	2105.31
803.15	2199.52
803.32	2146.27
803.50	2148.32
803.67	2183.13
803.84	2054.11
804.02	2232.29
804.19	2127.84
804.37	1980.39
804.54	2076.64
804.71	2144.22
804.89	2158.56
805.06	2136.03
805.24	2136.03
805.41	2072.54
805.58	2189.28
805.76	2396.12
805.93	2179.04
806.10	2332.64
806.28	2215.90
806.45	2224.09
806.63	2279.39
806.80	2166.75
806.97	2240.48
807.15	2265.05
807.32	2246.62
807.49	2158.56
807.67	2072.54
807.84	2236.38
808.01	2011.11
808.19	2396.12
808.36	2465.75
808.54	2146.27
808.71	2121.70
808.88	2115.55
809.06	2334.68
809.23	2273.25
809.40	2152.42
809.58	2207.71
809.75	2152.42
809.92	2084.83
810.10	2351.07
810.27	2103.26
810.44	2336.73
810.62	2299.87
810.79	2154.46
810.96	2158.56
811.14	2168.80
811.31	2213.85
811.48	2279.39
811.66	2193.37
811.83	2342.88
812.00	2191.33
812.18	2195.42
812.35	2435.03
812.52	2138.08
812.69	2133.98
812.87	2160.61
813.04	2093.02
813.21	2189.28
813.39	2103.26
813.56	2072.54
813.73	2314.20
813.91	2035.68
814.08	2238.43
814.25	2133.98
814.42	2045.92
814.60	2215.90
814.77	2113.50
814.94	2213.85
815.12	2189.28
815.29	2273.25
815.46	2154.46
815.63	2160.61
815.81	2170.85
815.98	2166.75
816.15	2099.17
816.33	2129.89
816.50	2109.41
816.67	2168.80
816.84	2185.18
817.02	2078.69
817.19	2197.47
817.36	2203.61
817.53	2285.53
817.71	2056.16
817.88	2265.05
818.05	2072.54
818.22	2203.61
818.40	2289.63
818.57	2168.80
818.74	2232.29
818.91	2199.52
819.09	2203.61
819.26	2318.30
819.43	2172.89
819.60	2172.89
819.78	2234.33
819.95	2355.16
820.12	2097.12
820.29	2258.91
820.47	2291.68
820.64	2123.74
820.81	2047.97
820.98	2144.22
821.15	2197.47
821.33	2269.15
821.50	2007.01
821.67	2351.07
821.84	2189.28
822.02	2250.72
822.19	2316.25
822.36	2168.80
822.53	2144.22
822.70	2117.60
822.88	2080.74
823.05	2359.26
823.22	2150.37
823.39	2195.42
823.56	2154.46
823.74	2291.68
823.91	2111.46
824.08	2111.46
824.25	2107.36
824.42	2430.94
824.60	2056.16
824.77	2236.38
824.94	2181.09
825.11	2275.29
825.28	2070.50
825.45	2238.43
825.63	2146.27
825.80	2072.54
825.97	2203.61
826.14	2176.99
826.31	2039.78
826.48	2183.13
826.66	2072.54
826.83	2136.03
827.00	2197.47
827.17	2047.97
827.34	2234.33
827.51	2138.08
827.69	2213.85
827.86	2029.54
828.03	2236.38
828.20	2238.43
828.37	2166.75
828.54	2176.99
828.71	2109.41
828.89	2306.01
829.06	2217.95
829.23	2404.32
829.40	2144.22
829.57	2121.70
829.74	2258.91
829.91	2123.74
830.09	2158.56
830.26	2301.92
830.43	2316.25
830.60	2195.42
830.77	2263.01
830.94	2363.36
831.11	2320.35
831.28	2129.89
831.46	2293.72
831.63	2105.31
831.80	2222.05
831.97	2097.12
832.14	2179.04
832.31	2201.57
832.48	2174.94
832.65	2287.58
832.82	2162.66
832.99	2185.18
833.17	2074.59
833.34	2195.42
833.51	2273.25
833.68	1964.00
833.85	2275.29
834.02	2215.90
834.19	2133.98
834.36	2168.80
834.53	2207.71
834.70	2224.09
834.87	2322.40
835.04	2101.22
835.22	2117.60
835.39	2170.85
835.56	2105.31
835.73	2160.61
835.90	2351.07
836.07	2033.63
836.24	2211.81
836.41	2019.30
836.58	2109.41
836.75	2213.85
836.92	2146.27
837.09	2111.46
837.26	2269.15
837.43	2263.01
837.60	2164.70
837.77	2093.02
837.94	2230.24
838.12	2293.72
838.29	2148.32
838.46	2025.44
838.63	2037.73
838.80	2328.54
838.97	2236.38
839.14	2107.36
839.31	2285.53
839.48	2310.11
839.65	2113.50
839.82	2232.29
839.99	2242.53
840.16	2158.56
840.33	2056.16
840.50	2209.76
840.67	2117.60
840.84	1955.81
841.01	2172.89
841.18	2152.42
841.35	2236.38
841.52	2299.87
841.69	2402.27
841.86	2189.28
842.03	2250.72
842.20	2293.72
842.37	2111.46
842.54	2191.33
842.71	2209.76
842.88	2109.41
843.05	2140.13
843.22	2113.50
843.39	2215.90
843.56	2154.46
843.73	2148.32
843.90	2078.69
844.07	2166.75
844.24	2168.80
844.41	2242.53
844.58	2193.37
844.75	2168.80
844.92	2238.43
845.09	2203.61
845.26	2107.36
845.43	2252.77
845.60	2158.56
845.77	2183.13
845.94	2099.17
846.10	2312.16
846.27	2043.87
846.44	2093.02
846.61	2072.54
846.78	2209.76
846.95	2326.49
847.12	2064.35
847.29	2144.22
847.46	2033.63
847.63	2318.30
847.80	2107.36
847.97	2181.09
848.14	2293.72
848.31	2156.51
848.48	2029.54
848.65	2185.18
848.82	2095.07
848.98	2449.37
849.15	2195.42
849.32	2179.04
849.49	2224.09
849.66	2154.46
849.83	2213.85
850.00	2007.01
850.17	2240.48
850.34	2179.04
850.51	2076.64
850.68	2117.60
850.85	2295.77
851.01	2267.10
851.18	2217.95
851.35	2111.46
851.52	2263.01
851.69	2281.44
851.86	2086.88
852.03	2158.56
852.20	2297.82
852.37	2211.81
852.53	2039.78
852.70	2185.18
852.87	2146.27
853.04	2228.19
853.21	2146.27
853.38	2340.83
853.55	2326.49
853.72	2289.63
853.89	2162.66
854.05	2086.88
854.22	2045.92
854.39	2170.85
854.56	2086.88
854.73	2234.33
854.90	2154.46
855.07	2148.32
855.23	2062.30
855.40	2183.13
855.57	2185.18
855.74	1996.77
855.91	2336.73
856.08	2090.98
856.25	2013.15
856.41	2123.74
856.58	2082.78
856.75	2105.31
856.92	2129.89
857.09	2254.81
857.26	1974.24
857.42	2090.98
857.59	2156.51
857.76	2142.18
857.93	2160.61
858.10	2131.94
858.27	2062.30
858.43	2181.09
858.60	2078.69
858.77	2015.20
858.94	2113.50
859.11	2252.77
859.27	2093.02
859.44	2103.26
859.61	2314.20
859.78	2236.38
859.95	2099.17
860.12	2154.46
860.28	2439.13
860.45	2392.03
860.62	2127.84
860.79	2187.23
860.95	2105.31
861.12	2150.37
861.29	2064.35
861.46	2058.21
861.63	2158.56
861.79	2160.61
861.96	1998.82
862.13	2183.13
862.30	2281.44
862.47	2127.84
862.63	2080.74
862.80	2258.91
862.97	2242.53
863.14	2222.05
863.30	2158.56
863.47	2088.93
863.64	2293.72
863.81	2277.34
863.97	2129.89
864.14	2242.53
864.31	2164.70
864.48	2119.65
864.65	2162.66
864.81	2260.96
864.98	2258.91
865.15	2265.05
865.32	2170.85
865.48	2248.67
865.65	2326.49
865.82	2103.26
865.98	2220.00
866.15	2205.66
866.32	2170.85
866.49	2191.33
866.65	2228.19
866.82	2146.27
866.99	2240.48
867.16	2170.85
867.32	2183.13
867.49	2148.32
867.66	2222.05
867.83	2113.50
867.99	2080.74
868.16	2062.30
868.33	2099.17
868.49	2119.65
868.66	2148.32
868.83	2228.19
868.99	2086.88
869.16	2222.05
869.33	2258.91
869.50	2238.43
869.66	2121.70
869.83	2174.94
870.00	2086.88
870.16	2207.71
870.33	2215.90
870.50	2242.53
870.66	2066.40
870.83	2234.33
871.00	2226.14
871.17	2164.70
871.33	2246.62
871.50	2115.55
871.67	2183.13
871.83	2236.38
872.00	2334.68
872.17	2150.37
872.33	2389.98
872.50	2199.52
872.67	2129.89
872.83	2138.08
873.00	2220.00
873.17	2236.38
873.33	2228.19
873.50	2144.22
873.67	2152.42
873.83	2131.94
874.00	2195.42
874.16	2228.19
874.33	2189.28
874.50	2062.30
874.66	2176.99
874.83	2183.13
875.00	2314.20
875.16	2334.68
875.33	2203.61
875.50	2035.68
875.66	2080.74
875.83	2156.51
875.99	2228.19
876.16	2142.18
876.33	2138.08
876.49	2203.61
876.66	2226.14
876.83	2203.61
876.99	2160.61
877.16	2164.70
877.32	2121.70
877.49	2119.65
877.66	2199.52
877.82	2291.68
877.99	2267.10
878.15	2191.33
878.32	2207.71
878.49	2176.99
878.65	2119.65
878.82	2293.72
878.98	2170.85
879.15	2269.15
879.32	2217.95
879.48	2174.94
879.65	2160.61
879.81	2185.18
879.98	2133.98
880.15	2045.92
880.31	2283.49
880.48	2076.64
880.64	2234.33
880.81	2215.90
880.97	2310.11
881.14	2322.40
881.31	2064.35
881.47	2314.20
881.64	2193.37
881.80	2086.88
881.97	2246.62
882.13	2224.09
882.30	2101.22
882.47	2099.17
882.63	2070.50
882.80	2068.45
882.96	2172.89
883.13	2242.53
883.29	2084.83
883.46	2183.13
883.62	2351.07
883.79	2199.52
883.95	2203.61
884.12	2041.82
884.29	2254.81
884.45	2211.81
884.62	2207.71
884.78	2068.45
884.95	2328.54
885.11	2066.40
885.28	2222.05
885.44	2176.99
885.61	2312.16
885.77	2283.49
885.94	2293.72
886.10	2154.46
886.27	2263.01
886.43	2387.93
886.60	2287.58
886.76	2193.37
886.93	2131.94
887.09	2226.14
887.26	2064.35
887.42	2168.80
887.59	2295.77
887.75	2365.40
887.92	2289.63
888.08	2248.67
888.25	2349.02
888.41	2246.62
888.58	2179.04
888.74	2093.02
888.91	2095.07
>>>>>End Processed Spectral Data<<<<<
