SpectraSuite Data File
++++++++++++++++++++++++++++++++++++
Date: Thu May 05 12:35:51 CEST 2016
User: root
Dark Spectrum Present: No
Reference Spectrum Present: No
Number of Sampled Component Spectra: 1
Spectrometers: USB4C02835
Integration Time (usec): 100000 (USB4C02835)
Spectra Averaged: 1 (USB4C02835)
Boxcar Smoothing: 0 (USB4C02835)
Correct for Electrical Dark: No (USB4C02835)
Strobe/Lamp Enabled: No (USB4C02835)
Correct for Detector Non-linearity: No (USB4C02835)
Correct for Stray Light: No (USB4C02835)
Number of Pixels in Processed Spectrum: 3648
>>>>>Begin Processed Spectral Data<<<<<
177.47	1781.73
177.69	1781.73
177.91	1781.73
178.13	1726.44
178.36	1822.69
178.58	2054.11
178.80	2183.13
179.02	2062.30
179.24	2023.39
179.46	2070.50
179.68	2222.05
179.90	2205.66
180.13	2246.62
180.35	2070.50
180.57	2097.12
180.79	2232.29
181.01	2199.52
181.23	2224.09
181.45	2222.05
181.67	2281.44
181.90	2232.29
182.12	2209.76
182.34	2088.93
182.56	2209.76
182.78	2263.01
183.00	2093.02
183.22	2164.70
183.44	2017.25
183.66	2475.99
183.89	2258.91
184.11	2164.70
184.33	2273.25
184.55	2215.90
184.77	2138.08
184.99	2217.95
185.21	2174.94
185.43	2486.23
185.65	2105.31
185.87	2117.60
186.10	2439.13
186.32	2457.56
186.54	2179.04
186.76	2199.52
186.98	2291.68
187.20	2248.67
187.42	2060.26
187.64	2093.02
187.86	2240.48
188.08	2252.77
188.30	2064.35
188.52	2111.46
188.75	2289.63
188.97	2330.59
189.19	2076.64
189.41	2047.97
189.63	2234.33
189.85	2207.71
190.07	2115.55
190.29	2058.21
190.51	2205.66
190.73	2047.97
190.95	2209.76
191.17	2158.56
191.39	2066.40
191.61	2197.47
191.84	2121.70
192.06	2185.18
192.28	2070.50
192.50	2510.81
192.72	2105.31
192.94	2123.74
193.16	2371.55
193.38	2244.57
193.60	2074.59
193.82	2119.65
194.04	2342.88
194.26	2232.29
194.48	2115.55
194.70	2084.83
194.92	2127.84
195.14	2211.81
195.36	2127.84
195.58	2080.74
195.80	2113.50
196.02	2213.85
196.24	2125.79
196.46	2213.85
196.69	2127.84
196.91	2484.19
197.13	2117.60
197.35	2174.94
197.57	2336.73
197.79	2187.23
198.01	2127.84
198.23	2238.43
198.45	2250.72
198.67	2086.88
198.89	2103.26
199.11	2228.19
199.33	2195.42
199.55	1984.48
199.77	2133.98
199.99	2207.71
200.21	2095.07
200.43	2258.91
200.65	2066.40
200.87	2011.11
201.09	2322.40
201.31	2203.61
201.53	2197.47
201.75	2191.33
201.97	2207.71
202.19	2170.85
202.41	2222.05
202.63	2291.68
202.85	2162.66
203.07	2260.96
203.29	2162.66
203.51	2041.82
203.73	2160.61
203.95	2482.14
204.17	2082.78
204.39	2217.95
204.61	2228.19
204.83	2183.13
205.05	2172.89
205.27	2236.38
205.49	2369.50
205.71	2203.61
205.93	2052.06
206.15	2088.93
206.37	2144.22
206.59	2185.18
206.81	2060.26
207.03	2047.97
207.25	2148.32
207.47	2234.33
207.69	2113.50
207.91	2281.44
208.13	2324.44
208.34	2062.30
208.56	2062.30
208.78	2160.61
209.00	2113.50
209.22	2162.66
209.44	2193.37
209.66	2090.98
209.88	2201.57
210.10	2240.48
210.32	2090.98
210.54	2189.28
210.76	2244.57
210.98	2263.01
211.20	1941.47
211.42	2117.60
211.64	2357.21
211.86	2232.29
212.08	2154.46
212.30	2183.13
212.52	2170.85
212.74	2211.81
212.96	2101.22
213.17	2238.43
213.39	2322.40
213.61	2301.92
213.83	2146.27
214.05	2185.18
214.27	2301.92
214.49	2101.22
214.71	2129.89
214.93	2185.18
215.15	2234.33
215.37	2371.55
215.59	2035.68
215.81	2127.84
216.03	2244.57
216.24	2203.61
216.46	2056.16
216.68	2195.42
216.90	2179.04
217.12	2389.98
217.34	2170.85
217.56	2195.42
217.78	2265.05
218.00	2301.92
218.22	2150.37
218.44	2162.66
218.66	2226.14
218.87	2420.70
219.09	2045.92
219.31	2179.04
219.53	2242.53
219.75	2129.89
219.97	2076.64
220.19	2158.56
220.41	2199.52
220.63	2346.97
220.85	2260.96
221.06	2170.85
221.28	2342.88
221.50	2277.34
221.72	2258.91
221.94	2174.94
222.16	2244.57
222.38	2228.19
222.60	2185.18
222.82	2121.70
223.03	2203.61
223.25	2078.69
223.47	2195.42
223.69	2263.01
223.91	2293.72
224.13	2250.72
224.35	2107.36
224.57	2285.53
224.78	2199.52
225.00	2068.45
225.22	2215.90
225.44	2099.17
225.66	2254.81
225.88	2160.61
226.10	2146.27
226.32	2160.61
226.53	2293.72
226.75	2166.75
226.97	2160.61
227.19	2127.84
227.41	2176.99
227.63	2117.60
227.85	1988.58
228.06	2185.18
228.28	2236.38
228.50	2203.61
228.72	2011.11
228.94	2105.31
229.16	1988.58
229.37	2060.26
229.59	2123.74
229.81	2232.29
230.03	2088.93
230.25	2056.16
230.47	2011.11
230.69	2103.26
230.90	2226.14
231.12	2195.42
231.34	2174.94
231.56	2181.09
231.78	2082.78
232.00	2222.05
232.21	2113.50
232.43	2174.94
232.65	2056.16
232.87	2189.28
233.09	2039.78
233.30	2115.55
233.52	2338.78
233.74	2260.96
233.96	2088.93
234.18	2263.01
234.40	2166.75
234.61	2404.32
234.83	2015.20
235.05	2027.49
235.27	2310.11
235.49	2371.55
235.70	2086.88
235.92	2191.33
236.14	2273.25
236.36	2424.80
236.58	2045.92
236.79	2242.53
237.01	2217.95
237.23	2121.70
237.45	2310.11
237.67	2090.98
237.88	2179.04
238.10	2301.92
238.32	1970.15
238.54	2105.31
238.76	2183.13
238.97	2078.69
239.19	2056.16
239.41	2226.14
239.63	2285.53
239.85	2129.89
240.06	2215.90
240.28	2162.66
240.50	2287.58
240.72	2236.38
240.93	2052.06
241.15	2205.66
241.37	2260.96
241.59	2301.92
241.81	2146.27
242.02	2187.23
242.24	2215.90
242.46	2242.53
242.68	2017.25
242.89	2154.46
243.11	2342.88
243.33	2232.29
243.55	2195.42
243.76	2064.35
243.98	2172.89
244.20	2209.76
244.42	2179.04
244.64	2123.74
244.85	2047.97
245.07	2084.83
245.29	2172.89
245.51	2078.69
245.72	2248.67
245.94	2342.88
246.16	2179.04
246.38	2213.85
246.59	2131.94
246.81	2105.31
247.03	2136.03
247.24	2035.68
247.46	2183.13
247.68	2154.46
247.90	2168.80
248.11	2095.07
248.33	2220.00
248.55	2125.79
248.77	2189.28
248.98	2244.57
249.20	2371.55
249.42	2154.46
249.64	2185.18
249.85	2232.29
250.07	2117.60
250.29	2211.81
250.50	2207.71
250.72	2068.45
250.94	2176.99
251.16	2398.17
251.37	2138.08
251.59	2287.58
251.81	2273.25
252.02	2365.40
252.24	2150.37
252.46	2248.67
252.68	2146.27
252.89	2074.59
253.11	2011.11
253.33	2293.72
253.54	2349.02
253.76	2064.35
253.98	2119.65
254.20	2154.46
254.41	2031.58
254.63	2146.27
254.85	2041.82
255.06	2138.08
255.28	2203.61
255.50	2236.38
255.71	2101.22
255.93	2103.26
256.15	2150.37
256.36	2260.96
256.58	2093.02
256.80	2068.45
257.02	2166.75
257.23	2090.98
257.45	2115.55
257.67	2267.10
257.88	2158.56
258.10	2310.11
258.32	2111.46
258.53	2103.26
258.75	2316.25
258.97	2138.08
259.18	2127.84
259.40	2072.54
259.62	2342.88
259.83	2396.12
260.05	2156.51
260.27	2596.82
260.48	2238.43
260.70	2070.50
260.92	2119.65
261.13	2156.51
261.35	2230.24
261.57	2150.37
261.78	2025.44
262.00	2025.44
262.22	2312.16
262.43	2113.50
262.65	2113.50
262.86	2166.75
263.08	2359.26
263.30	2148.32
263.51	2031.58
263.73	2058.21
263.95	2310.11
264.16	2144.22
264.38	2121.70
264.60	2142.18
264.81	2160.61
265.03	2340.83
265.25	2318.30
265.46	2101.22
265.68	2328.54
265.89	2209.76
266.11	2054.11
266.33	2203.61
266.54	2248.67
266.76	2258.91
266.98	2271.20
267.19	2213.85
267.41	2295.77
267.62	2185.18
267.84	2019.30
268.06	2213.85
268.27	2236.38
268.49	2277.34
268.70	2154.46
268.92	2125.79
269.14	2179.04
269.35	2070.50
269.57	2136.03
269.79	2254.81
270.00	2154.46
270.22	2363.36
270.43	2080.74
270.65	2037.73
270.87	2283.49
271.08	2195.42
271.30	2252.77
271.51	2035.68
271.73	2238.43
271.95	2357.21
272.16	2166.75
272.38	2220.00
272.59	2195.42
272.81	2303.96
273.02	2152.42
273.24	2129.89
273.46	2340.83
273.67	2074.59
273.89	2047.97
274.10	2158.56
274.32	2363.36
274.54	2211.81
274.75	2187.23
274.97	2097.12
275.18	2283.49
275.40	2203.61
275.61	2209.76
275.83	2144.22
276.05	2148.32
276.26	2142.18
276.48	2226.14
276.69	2166.75
276.91	2187.23
277.12	2295.77
277.34	2195.42
277.55	2213.85
277.77	2207.71
277.99	2168.80
278.20	2019.30
278.42	2074.59
278.63	2070.50
278.85	2056.16
279.06	2115.55
279.28	2164.70
279.49	2301.92
279.71	2322.40
279.93	2146.27
280.14	2207.71
280.36	2107.36
280.57	2254.81
280.79	2299.87
281.00	2121.70
281.22	2113.50
281.43	2289.63
281.65	2004.96
281.86	2127.84
282.08	2203.61
282.29	2332.64
282.51	2127.84
282.73	2023.39
282.94	2056.16
283.16	2297.82
283.37	2326.49
283.59	2158.56
283.80	2220.00
284.02	2170.85
284.23	2258.91
284.45	2166.75
284.66	2115.55
284.88	2191.33
285.09	2170.85
285.31	2265.05
285.52	2199.52
285.74	2127.84
285.95	2222.05
286.17	2252.77
286.38	2285.53
286.60	2119.65
286.81	2201.57
287.03	2119.65
287.24	2230.24
287.46	2185.18
287.67	2150.37
287.89	2318.30
288.10	2203.61
288.32	2211.81
288.53	2291.68
288.75	2234.33
288.96	2273.25
289.18	2150.37
289.39	2152.42
289.61	2234.33
289.82	2414.56
290.04	2453.47
290.25	2060.26
290.47	2117.60
290.68	2168.80
290.90	2267.10
291.11	1961.95
291.33	2203.61
291.54	2105.31
291.76	2041.82
291.97	2179.04
292.18	2220.00
292.40	2183.13
292.61	2195.42
292.83	2349.02
293.04	2197.47
293.26	2248.67
293.47	2133.98
293.69	2131.94
293.90	2123.74
294.12	2342.88
294.33	2183.13
294.55	2205.66
294.76	2263.01
294.97	2336.73
295.19	2349.02
295.40	2109.41
295.62	2248.67
295.83	2297.82
296.05	2152.42
296.26	2244.57
296.48	2144.22
296.69	2199.52
296.90	2164.70
297.12	2283.49
297.33	2246.62
297.55	2211.81
297.76	2308.06
297.98	2250.72
298.19	2201.57
298.41	2176.99
298.62	2115.55
298.83	2303.96
299.05	2183.13
299.26	2154.46
299.48	2142.18
299.69	2252.77
299.90	2170.85
300.12	2099.17
300.33	2187.23
300.55	2242.53
300.76	2170.85
300.98	2129.89
301.19	2242.53
301.40	2119.65
301.62	2033.63
301.83	2283.49
302.05	2228.19
302.26	2138.08
302.47	2230.24
302.69	2076.64
302.90	2277.34
303.12	2041.82
303.33	2242.53
303.54	2373.60
303.76	2146.27
303.97	2195.42
304.19	2324.44
304.40	2021.35
304.61	2250.72
304.83	2283.49
305.04	2351.07
305.26	2234.33
305.47	2113.50
305.68	2197.47
305.90	2148.32
306.11	2297.82
306.33	2170.85
306.54	2019.30
306.75	2123.74
306.97	2019.30
307.18	2105.31
307.39	2121.70
307.61	2240.48
307.82	2166.75
308.04	2248.67
308.25	2113.50
308.46	2250.72
308.68	2211.81
308.89	2213.85
309.10	2258.91
309.32	2191.33
309.53	2215.90
309.74	2263.01
309.96	2207.71
310.17	2353.12
310.39	2058.21
310.60	2293.72
310.81	2236.38
311.03	2052.06
311.24	2252.77
311.45	2160.61
311.67	2373.60
311.88	2267.10
312.09	2213.85
312.31	2041.82
312.52	2109.41
312.73	2146.27
312.95	2029.54
313.16	2111.46
313.37	2316.25
313.59	2172.89
313.80	2224.09
314.01	2406.36
314.23	2146.27
314.44	2150.37
314.65	2043.87
314.87	2080.74
315.08	2181.09
315.29	2136.03
315.51	2127.84
315.72	2068.45
315.93	2234.33
316.15	2197.47
316.36	2090.98
316.57	2205.66
316.79	2203.61
317.00	2189.28
317.21	2318.30
317.43	2158.56
317.64	2166.75
317.85	2107.36
318.07	2111.46
318.28	2224.09
318.49	2312.16
318.70	2482.14
318.92	2367.45
319.13	2416.60
319.34	2359.26
319.56	2222.05
319.77	2269.15
319.98	2353.12
320.20	2338.78
320.41	2318.30
320.62	2207.71
320.83	2197.47
321.05	2400.22
321.26	2250.72
321.47	2217.95
321.69	2283.49
321.90	2064.35
322.11	2113.50
322.32	2256.86
322.54	2336.73
322.75	2093.02
322.96	2396.12
323.18	2060.26
323.39	2041.82
323.60	2133.98
323.81	2322.40
324.03	2160.61
324.24	2179.04
324.45	2133.98
324.66	2107.36
324.88	2275.29
325.09	2330.59
325.30	2095.07
325.52	2195.42
325.73	2224.09
325.94	2099.17
326.15	2062.30
326.37	2103.26
326.58	2267.10
326.79	2351.07
327.00	2105.31
327.22	2224.09
327.43	2131.94
327.64	2099.17
327.85	2250.72
328.07	2162.66
328.28	2340.83
328.49	2138.08
328.70	2197.47
328.92	2195.42
329.13	2236.38
329.34	2281.44
329.55	2281.44
329.76	2215.90
329.98	2166.75
330.19	2269.15
330.40	2211.81
330.61	2260.96
330.83	2281.44
331.04	2152.42
331.25	2195.42
331.46	2179.04
331.68	2080.74
331.89	2256.86
332.10	2129.89
332.31	2058.21
332.52	2179.04
332.74	2256.86
332.95	2052.06
333.16	2179.04
333.37	2252.77
333.58	2099.17
333.80	2187.23
334.01	2076.64
334.22	2097.12
334.43	2215.90
334.64	2152.42
334.86	2099.17
335.07	2088.93
335.28	2297.82
335.49	2154.46
335.70	2213.85
335.92	2283.49
336.13	2420.70
336.34	2314.20
336.55	2142.18
336.76	2181.09
336.98	2060.26
337.19	2150.37
337.40	2349.02
337.61	2394.08
337.82	2150.37
338.04	2244.57
338.25	2050.02
338.46	2191.33
338.67	2158.56
338.88	2133.98
339.09	2088.93
339.31	2187.23
339.52	2093.02
339.73	2070.50
339.94	2209.76
340.15	2244.57
340.36	2181.09
340.58	2107.36
340.79	2150.37
341.00	2250.72
341.21	2113.50
341.42	2324.44
341.63	2160.61
341.85	2199.52
342.06	2244.57
342.27	2125.79
342.48	2244.57
342.69	2099.17
342.90	2207.71
343.12	2271.20
343.33	2117.60
343.54	2293.72
343.75	2371.55
343.96	2228.19
344.17	2084.83
344.38	2193.37
344.60	2084.83
344.81	2052.06
345.02	2111.46
345.23	2289.63
345.44	2375.64
345.65	2201.57
345.86	2121.70
346.07	2244.57
346.29	2119.65
346.50	2244.57
346.71	2299.87
346.92	2324.44
347.13	2441.18
347.34	2224.09
347.55	2187.23
347.76	2250.72
347.98	2058.21
348.19	2215.90
348.40	2320.35
348.61	2195.42
348.82	2328.54
349.03	2232.29
349.24	2183.13
349.45	2363.36
349.66	2054.11
349.88	2150.37
350.09	2117.60
350.30	2342.88
350.51	2308.06
350.72	2160.61
350.93	2185.18
351.14	2195.42
351.35	2256.86
351.56	2107.36
351.77	2152.42
351.99	2252.77
352.20	2398.17
352.41	2232.29
352.62	2011.11
352.83	2179.04
353.04	2193.37
353.25	2158.56
353.46	2263.01
353.67	2381.79
353.88	2060.26
354.09	2189.28
354.30	2166.75
354.52	2254.81
354.73	2131.94
354.94	2105.31
355.15	2265.05
355.36	2355.16
355.57	2183.13
355.78	2242.53
355.99	2109.41
356.20	2162.66
356.41	2256.86
356.62	2254.81
356.83	2166.75
357.04	2334.68
357.25	2113.50
357.46	2148.32
357.68	2060.26
357.89	2084.83
358.10	2179.04
358.31	2142.18
358.52	2097.12
358.73	2062.30
358.94	2103.26
359.15	2107.36
359.36	2193.37
359.57	2203.61
359.78	2166.75
359.99	2220.00
360.20	2056.16
360.41	2211.81
360.62	2252.77
360.83	2160.61
361.04	2205.66
361.25	2248.67
361.46	2293.72
361.67	2224.09
361.88	2164.70
362.09	2232.29
362.30	2179.04
362.51	2084.83
362.72	2199.52
362.93	2277.34
363.14	2220.00
363.35	2265.05
363.56	2107.36
363.78	2334.68
363.99	2256.86
364.20	2146.27
364.41	2199.52
364.62	2402.27
364.83	2242.53
365.04	2154.46
365.25	2162.66
365.46	2342.88
365.67	2170.85
365.88	2172.89
366.09	2172.89
366.30	2166.75
366.51	2179.04
366.72	2111.46
366.93	2162.66
367.14	2123.74
367.35	2346.97
367.56	2156.51
367.77	2314.20
367.98	2199.52
368.18	2232.29
368.39	2260.96
368.60	2107.36
368.81	2267.10
369.02	2248.67
369.23	2213.85
369.44	2047.97
369.65	2099.17
369.86	2232.29
370.07	2267.10
370.28	2088.93
370.49	2164.70
370.70	2207.71
370.91	2086.88
371.12	2099.17
371.33	2308.06
371.54	2236.38
371.75	2265.05
371.96	1992.67
372.17	2252.77
372.38	2256.86
372.59	2185.18
372.80	2121.70
373.01	2203.61
373.22	2129.89
373.43	2226.14
373.64	2076.64
373.85	2408.41
374.06	2277.34
374.26	2234.33
374.47	2269.15
374.68	2336.73
374.89	2252.77
375.10	2129.89
375.31	2254.81
375.52	2244.57
375.73	2146.27
375.94	2052.06
376.15	2285.53
376.36	2119.65
376.57	2099.17
376.78	2099.17
376.99	2220.00
377.20	2301.92
377.40	2199.52
377.61	2381.79
377.82	2109.41
378.03	2306.01
378.24	2293.72
378.45	2215.90
378.66	2211.81
378.87	2064.35
379.08	2099.17
379.29	2162.66
379.50	2295.77
379.71	2197.47
379.91	2228.19
380.12	2176.99
380.33	2234.33
380.54	2170.85
380.75	2240.48
380.96	2117.60
381.17	2252.77
381.38	2250.72
381.59	2195.42
381.80	2199.52
382.00	2482.14
382.21	2299.87
382.42	2404.32
382.63	2432.99
382.84	2260.96
383.05	2277.34
383.26	2367.45
383.47	2168.80
383.68	2138.08
383.88	2258.91
384.09	2281.44
384.30	2355.16
384.51	2271.20
384.72	2150.37
384.93	2113.50
385.14	2203.61
385.35	2174.94
385.55	2062.30
385.76	2365.40
385.97	2174.94
386.18	2144.22
386.39	2115.55
386.60	2187.23
386.81	2199.52
387.02	2119.65
387.22	2144.22
387.43	2242.53
387.64	2287.58
387.85	2424.80
388.06	2455.51
388.27	4005.83
388.48	8537.98
388.68	12232.52
388.89	14407.46
389.10	15525.65
389.31	14352.16
389.52	11188.05
389.73	9695.08
389.93	8996.73
390.14	8142.72
390.35	7241.62
390.56	6385.57
390.77	5322.67
390.98	4052.93
391.18	3262.41
391.39	2686.94
391.60	2320.35
391.81	2387.93
392.02	2162.66
392.23	2443.23
392.43	2224.09
392.64	2340.83
392.85	2187.23
393.06	2359.26
393.27	2213.85
393.47	2183.13
393.68	2234.33
393.89	2148.32
394.10	2334.68
394.31	2105.31
394.52	2166.75
394.72	2156.51
394.93	2394.08
395.14	2095.07
395.35	2287.58
395.56	2193.37
395.76	2189.28
395.97	2265.05
396.18	2312.16
396.39	2383.84
396.60	2654.17
396.80	2492.38
397.01	2402.27
397.22	2293.72
397.43	2371.55
397.64	2162.66
397.84	2310.11
398.05	2424.80
398.26	2183.13
398.47	2306.01
398.67	2281.44
398.88	2195.42
399.09	2234.33
399.30	2127.84
399.51	2281.44
399.71	2148.32
399.92	2150.37
400.13	2232.29
400.34	2217.95
400.54	2146.27
400.75	2392.03
400.96	2203.61
401.17	2389.98
401.37	2246.62
401.58	2136.03
401.79	2236.38
402.00	2267.10
402.21	2594.78
402.41	2539.48
402.62	2521.05
402.83	2711.51
403.04	2682.84
403.24	2719.70
403.45	2365.40
403.66	2437.08
403.87	2383.84
404.07	2424.80
404.28	2455.51
404.49	2428.89
404.70	2301.92
404.90	2303.96
405.11	2195.42
405.32	2273.25
405.52	2056.16
405.73	2084.83
405.94	2113.50
406.15	2176.99
406.35	2263.01
406.56	2211.81
406.77	2220.00
406.98	2240.48
407.18	2127.84
407.39	2297.82
407.60	2117.60
407.80	2176.99
408.01	2152.42
408.22	2244.57
408.43	2111.46
408.63	2201.57
408.84	2285.53
409.05	2277.34
409.25	2101.22
409.46	2172.89
409.67	2127.84
409.88	2117.60
410.08	2226.14
410.29	2187.23
410.50	2306.01
410.70	2217.95
410.91	2097.12
411.12	2232.29
411.32	2203.61
411.53	2123.74
411.74	2326.49
411.95	2314.20
412.15	2240.48
412.36	2299.87
412.57	2242.53
412.77	2320.35
412.98	2236.38
413.19	2183.13
413.39	2187.23
413.60	2207.71
413.81	2400.22
414.01	2191.33
414.22	2279.39
414.43	2254.81
414.63	2191.33
414.84	2310.11
415.05	2289.63
415.25	2129.89
415.46	2289.63
415.67	2162.66
415.87	2172.89
416.08	2185.18
416.29	2176.99
416.49	2269.15
416.70	2166.75
416.91	2152.42
417.11	2203.61
417.32	2295.77
417.53	2346.97
417.73	2213.85
417.94	2129.89
418.15	2295.77
418.35	2164.70
418.56	2125.79
418.77	2406.36
418.97	2144.22
419.18	2162.66
419.38	1972.19
419.59	2191.33
419.80	2330.59
420.00	2166.75
420.21	2211.81
420.42	2314.20
420.62	2281.44
420.83	2179.04
421.04	2215.90
421.24	2295.77
421.45	2285.53
421.65	2236.38
421.86	2168.80
422.07	2242.53
422.27	2267.10
422.48	2183.13
422.69	2023.39
422.89	2224.09
423.10	2183.13
423.30	2136.03
423.51	2211.81
423.72	2197.47
423.92	2310.11
424.13	2043.87
424.33	2162.66
424.54	2326.49
424.75	2156.51
424.95	2355.16
425.16	2197.47
425.36	2224.09
425.57	2260.96
425.78	2197.47
425.98	2267.10
426.19	2103.26
426.39	2035.68
426.60	2174.94
426.81	2306.01
427.01	2158.56
427.22	2168.80
427.42	2058.21
427.63	2121.70
427.83	2365.40
428.04	2373.60
428.25	2306.01
428.45	2342.88
428.66	2363.36
428.86	2111.46
429.07	2162.66
429.28	2205.66
429.48	2172.89
429.69	2127.84
429.89	2131.94
430.10	2037.73
430.30	2289.63
430.51	2297.82
430.71	2107.36
430.92	2228.19
431.13	2078.69
431.33	2252.77
431.54	2277.34
431.74	2371.55
431.95	2330.59
432.15	2162.66
432.36	2193.37
432.56	2238.43
432.77	2371.55
432.98	2387.93
433.18	2185.18
433.39	2136.03
433.59	2213.85
433.80	2383.84
434.00	2414.56
434.21	2160.61
434.41	2070.50
434.62	2412.51
434.82	2109.41
435.03	2160.61
435.23	2226.14
435.44	2111.46
435.64	2207.71
435.85	2191.33
436.06	2234.33
436.26	2181.09
436.47	2172.89
436.67	2144.22
436.88	2181.09
437.08	2283.49
437.29	2332.64
437.49	2222.05
437.70	2346.97
437.90	2275.29
438.11	2430.94
438.31	2308.06
438.52	2414.56
438.72	2404.32
438.93	2482.14
439.13	2250.72
439.34	2338.78
439.54	2281.44
439.75	2318.30
439.95	2283.49
440.16	2144.22
440.36	2250.72
440.57	2250.72
440.77	2162.66
440.98	2217.95
441.18	2273.25
441.39	2156.51
441.59	2060.26
441.80	2422.75
442.00	2217.95
442.21	2291.68
442.41	2170.85
442.62	2303.96
442.82	2144.22
443.02	2174.94
443.23	2205.66
443.43	2152.42
443.64	2400.22
443.84	2187.23
444.05	2332.64
444.25	2213.85
444.46	2205.66
444.66	2220.00
444.87	2314.20
445.07	2152.42
445.28	2162.66
445.48	2381.79
445.69	2224.09
445.89	2531.29
446.09	2246.62
446.30	2564.06
446.50	2734.04
446.71	4356.03
446.91	5515.18
447.12	6485.92
447.32	6596.51
447.53	6231.97
447.73	5050.29
447.93	4560.83
448.14	4325.31
448.34	4136.90
448.55	3598.28
448.75	3495.88
448.96	3477.45
449.16	3014.61
449.36	2818.00
449.57	2463.71
449.77	2363.36
449.98	2201.57
450.18	2256.86
450.39	2279.39
450.59	2326.49
450.79	2179.04
451.00	2201.57
451.20	2277.34
451.41	2125.79
451.61	2230.24
451.81	2254.81
452.02	2168.80
452.22	2176.99
452.43	2154.46
452.63	2168.80
452.84	2265.05
453.04	2230.24
453.24	2156.51
453.45	2213.85
453.65	2242.53
453.86	2240.48
454.06	2179.04
454.26	2222.05
454.47	2172.89
454.67	2346.97
454.87	2232.29
455.08	2144.22
455.28	2400.22
455.49	2252.77
455.69	2140.13
455.89	2355.16
456.10	2330.59
456.30	2150.37
456.51	2306.01
456.71	2234.33
456.91	2258.91
457.12	2244.57
457.32	2277.34
457.52	2129.89
457.73	2258.91
457.93	2332.64
458.14	2127.84
458.34	2039.78
458.54	2113.50
458.75	2148.32
458.95	2334.68
459.15	2285.53
459.36	2295.77
459.56	2240.48
459.76	2432.99
459.97	2250.72
460.17	2205.66
460.37	2301.92
460.58	2217.95
460.78	2277.34
460.99	2258.91
461.19	2220.00
461.39	2133.98
461.60	2254.81
461.80	2224.09
462.00	2133.98
462.21	2152.42
462.41	2144.22
462.61	2113.50
462.82	2066.40
463.02	2269.15
463.22	2195.42
463.43	2277.34
463.63	2172.89
463.83	2416.60
464.04	2254.81
464.24	2236.38
464.44	2125.79
464.64	2250.72
464.85	2279.39
465.05	2193.37
465.25	2133.98
465.46	2140.13
465.66	2273.25
465.86	2240.48
466.07	2187.23
466.27	2185.18
466.47	2148.32
466.68	2029.54
466.88	2340.83
467.08	2269.15
467.29	2349.02
467.49	2293.72
467.69	2203.61
467.89	2176.99
468.10	2156.51
468.30	2308.06
468.50	2340.83
468.71	2328.54
468.91	2070.50
469.11	2355.16
469.31	2248.67
469.52	2142.18
469.72	2328.54
469.92	2396.12
470.13	2217.95
470.33	2260.96
470.53	2365.40
470.73	2648.02
470.94	3112.91
471.14	3213.26
471.34	3504.07
471.54	3463.12
471.75	3119.06
471.95	2836.44
472.15	2840.53
472.36	2668.50
472.56	2768.85
472.76	2613.21
472.96	2588.63
473.17	2430.94
473.37	2406.36
473.57	2220.00
473.77	2328.54
473.98	2174.94
474.18	2101.22
474.38	2502.62
474.58	2150.37
474.79	2160.61
474.99	2236.38
475.19	2256.86
475.39	2160.61
475.60	2146.27
475.80	2211.81
476.00	2250.72
476.20	2211.81
476.41	2258.91
476.61	2310.11
476.81	2310.11
477.01	2162.66
477.21	2363.36
477.42	2316.25
477.62	2154.46
477.82	2332.64
478.02	2248.67
478.23	2215.90
478.43	2148.32
478.63	2088.93
478.83	2228.19
479.03	2168.80
479.24	2365.40
479.44	2387.93
479.64	2166.75
479.84	2072.54
480.04	2105.31
480.25	2238.43
480.45	2105.31
480.65	2220.00
480.85	2336.73
481.06	2080.74
481.26	2226.14
481.46	2260.96
481.66	2236.38
481.86	2166.75
482.06	2316.25
482.27	2133.98
482.47	2148.32
482.67	2220.00
482.87	2172.89
483.07	2232.29
483.28	2179.04
483.48	2170.85
483.68	2162.66
483.88	2099.17
484.08	2054.11
484.29	2187.23
484.49	2224.09
484.69	2088.93
484.89	2357.21
485.09	2240.48
485.29	2277.34
485.50	2197.47
485.70	2217.95
485.90	2318.30
486.10	2209.76
486.30	2226.14
486.50	2289.63
486.71	2199.52
486.91	2224.09
487.11	2351.07
487.31	2080.74
487.51	2273.25
487.71	2072.54
487.91	2093.02
488.12	2146.27
488.32	2021.35
488.52	2043.87
488.72	1986.53
488.92	2220.00
489.12	2297.82
489.32	2357.21
489.53	2207.71
489.73	2097.12
489.93	2400.22
490.13	2162.66
490.33	2052.06
490.53	2263.01
490.73	2353.12
490.94	2103.26
491.14	2248.67
491.34	2252.77
491.54	2504.67
491.74	3102.67
491.94	3729.35
492.14	4124.61
492.34	4057.03
492.54	3860.42
492.75	3188.69
492.95	3207.12
493.15	2922.45
493.35	2873.30
493.55	2793.43
493.75	2658.26
493.95	2736.09
494.15	2602.97
494.35	2385.88
494.56	2260.96
494.76	2144.22
494.96	2199.52
495.16	2244.57
495.36	2256.86
495.56	2289.63
495.76	2154.46
495.96	2238.43
496.16	2074.59
496.36	2424.80
496.56	2203.61
496.77	2220.00
496.97	2215.90
497.17	2357.21
497.37	2025.44
497.57	2351.07
497.77	2234.33
497.97	2136.03
498.17	2209.76
498.37	2111.46
498.57	2283.49
498.77	2166.75
498.97	2279.39
499.17	2396.12
499.38	2211.81
499.58	2328.54
499.78	2246.62
499.98	2351.07
500.18	2107.36
500.38	2164.70
500.58	2455.51
500.78	2871.25
500.98	5181.36
501.18	7266.19
501.38	8871.80
501.58	9811.82
501.78	9774.95
501.98	7853.96
502.18	6404.00
502.38	5636.01
502.58	5025.72
502.78	4642.75
502.98	4499.39
503.18	4310.97
503.38	3852.23
503.59	3424.20
503.79	3223.50
503.99	2895.83
504.19	2852.82
504.39	2797.53
504.59	2891.73
504.79	2813.91
504.99	2904.02
505.19	2576.34
505.39	2527.19
505.59	2592.73
505.79	2580.44
505.99	2463.71
506.19	2295.77
506.39	2441.18
506.59	2306.01
506.79	2144.22
506.99	2320.35
507.19	2226.14
507.39	2318.30
507.59	2097.12
507.79	2129.89
507.99	2187.23
508.19	2217.95
508.39	2205.66
508.59	2283.49
508.79	2308.06
508.99	2465.75
509.19	2162.66
509.39	2273.25
509.59	2127.84
509.79	2213.85
509.99	2236.38
510.19	2416.60
510.39	2240.48
510.59	2205.66
510.79	2138.08
510.99	2109.41
511.19	2162.66
511.39	2377.69
511.59	2326.49
511.79	2334.68
511.99	2185.18
512.19	2326.49
512.38	2207.71
512.58	2185.18
512.78	2201.57
512.98	2275.29
513.18	2342.88
513.38	2072.54
513.58	2254.81
513.78	2275.29
513.98	2203.61
514.18	2168.80
514.38	2088.93
514.58	2318.30
514.78	2174.94
514.98	2101.22
515.18	2160.61
515.38	2082.78
515.58	2416.60
515.78	2129.89
515.98	2222.05
516.18	2314.20
516.38	2252.77
516.57	2191.33
516.77	2242.53
516.97	2263.01
517.17	2133.98
517.37	2095.07
517.57	2287.58
517.77	2240.48
517.97	2168.80
518.17	2199.52
518.37	2164.70
518.57	2121.70
518.77	2181.09
518.97	2224.09
519.16	2215.90
519.36	2299.87
519.56	2187.23
519.76	2162.66
519.96	2252.77
520.16	2469.85
520.36	2090.98
520.56	2373.60
520.76	2138.08
520.96	2146.27
521.16	2230.24
521.35	2342.88
521.55	2328.54
521.75	2170.85
521.95	2146.27
522.15	2101.22
522.35	2113.50
522.55	2093.02
522.75	2283.49
522.95	2129.89
523.14	2138.08
523.34	2238.43
523.54	2160.61
523.74	2242.53
523.94	2232.29
524.14	2054.11
524.34	2238.43
524.54	2310.11
524.73	2207.71
524.93	2312.16
525.13	2183.13
525.33	2138.08
525.53	2435.03
525.73	2277.34
525.93	2283.49
526.13	2187.23
526.32	2199.52
526.52	2361.31
526.72	2256.86
526.92	2185.18
527.12	2201.57
527.32	2174.94
527.52	2232.29
527.71	2289.63
527.91	2158.56
528.11	2187.23
528.31	2195.42
528.51	2080.74
528.71	2269.15
528.90	2226.14
529.10	2361.31
529.30	2285.53
529.50	1996.77
529.70	2224.09
529.90	2148.32
530.09	2211.81
530.29	2095.07
530.49	2146.27
530.69	2496.47
530.89	2152.42
531.09	2242.53
531.28	2150.37
531.48	2246.62
531.68	2217.95
531.88	2234.33
532.08	2271.20
532.28	2162.66
532.47	2252.77
532.67	2301.92
532.87	2244.57
533.07	2113.50
533.27	2281.44
533.46	2285.53
533.66	2232.29
533.86	2201.57
534.06	2252.77
534.26	2195.42
534.45	2220.00
534.65	2441.18
534.85	2217.95
535.05	2220.00
535.25	2408.41
535.44	2074.59
535.64	2254.81
535.84	2152.42
536.04	2256.86
536.24	2129.89
536.43	2187.23
536.63	2279.39
536.83	2211.81
537.03	2228.19
537.22	2131.94
537.42	2080.74
537.62	2308.06
537.82	2043.87
538.02	2301.92
538.21	2353.12
538.41	2512.86
538.61	2287.58
538.81	2244.57
539.00	2357.21
539.20	2103.26
539.40	2236.38
539.60	2242.53
539.79	2281.44
539.99	2168.80
540.19	2170.85
540.39	2174.94
540.58	2287.58
540.78	2297.82
540.98	2250.72
541.18	2303.96
541.37	2215.90
541.57	2197.47
541.77	2156.51
541.97	2136.03
542.16	2056.16
542.36	2170.85
542.56	2127.84
542.76	2340.83
542.95	2265.05
543.15	2242.53
543.35	2256.86
543.54	2234.33
543.74	2131.94
543.94	2400.22
544.14	2088.93
544.33	2152.42
544.53	2123.74
544.73	2193.37
544.93	2164.70
545.12	2201.57
545.32	2224.09
545.52	2230.24
545.71	2107.36
545.91	2152.42
546.11	2127.84
546.30	2111.46
546.50	2191.33
546.70	2156.51
546.90	2142.18
547.09	2054.11
547.29	2207.71
547.49	2240.48
547.68	2193.37
547.88	2181.09
548.08	2250.72
548.27	2791.38
548.47	2230.24
548.67	2244.57
548.87	2324.44
549.06	2199.52
549.26	2207.71
549.46	2324.44
549.65	2279.39
549.85	2244.57
550.05	2269.15
550.24	2035.68
550.44	2191.33
550.64	2277.34
550.83	2197.47
551.03	2318.30
551.23	2254.81
551.42	2308.06
551.62	2162.66
551.82	2209.76
552.01	2230.24
552.21	2359.26
552.41	2240.48
552.60	2351.07
552.80	2203.61
553.00	2121.70
553.19	2193.37
553.39	2428.89
553.59	2082.78
553.78	2281.44
553.98	2150.37
554.17	2097.12
554.37	2172.89
554.57	2250.72
554.76	2062.30
554.96	2121.70
555.16	2277.34
555.35	2322.40
555.55	2228.19
555.75	2172.89
555.94	2269.15
556.14	2027.49
556.33	2226.14
556.53	2232.29
556.73	2222.05
556.92	2273.25
557.12	2260.96
557.32	2400.22
557.51	2369.50
557.71	2263.01
557.90	2240.48
558.10	2353.12
558.30	2140.13
558.49	2211.81
558.69	2150.37
558.88	2240.48
559.08	2220.00
559.28	2228.19
559.47	2201.57
559.67	2285.53
559.86	2353.12
560.06	2256.86
560.26	2275.29
560.45	2299.87
560.65	2152.42
560.84	2344.92
561.04	2125.79
561.24	2213.85
561.43	2156.51
561.63	2482.14
561.82	2191.33
562.02	2252.77
562.22	2179.04
562.41	2084.83
562.61	2199.52
562.80	2093.02
563.00	2500.57
563.19	2211.81
563.39	2211.81
563.59	2320.35
563.78	2148.32
563.98	2029.54
564.17	2123.74
564.37	2039.78
564.56	2150.37
564.76	2082.78
564.96	2342.88
565.15	2328.54
565.35	2465.75
565.54	2201.57
565.74	2330.59
565.93	2265.05
566.13	2275.29
566.32	2287.58
566.52	2297.82
566.71	2215.90
566.91	2283.49
567.11	2301.92
567.30	2209.76
567.50	2246.62
567.69	2254.81
567.89	2158.56
568.08	2097.12
568.28	2168.80
568.47	2170.85
568.67	2279.39
568.86	2123.74
569.06	2312.16
569.25	2152.42
569.45	2142.18
569.64	2160.61
569.84	2226.14
570.04	2271.20
570.23	2146.27
570.43	2183.13
570.62	2238.43
570.82	2422.75
571.01	2105.31
571.21	2170.85
571.40	2133.98
571.60	2314.20
571.79	2293.72
571.99	2215.90
572.18	2193.37
572.38	2263.01
572.57	2174.94
572.77	2273.25
572.96	2502.62
573.16	2277.34
573.35	2213.85
573.55	2379.74
573.74	2318.30
573.94	2193.37
574.13	2191.33
574.33	2297.82
574.52	2301.92
574.71	2260.96
574.91	2283.49
575.10	2164.70
575.30	2179.04
575.49	2097.12
575.69	2189.28
575.88	2232.29
576.08	2244.57
576.27	2371.55
576.47	2273.25
576.66	2449.37
576.86	2342.88
577.05	2285.53
577.25	2310.11
577.44	2437.08
577.64	2195.42
577.83	2346.97
578.02	2213.85
578.22	2404.32
578.41	2396.12
578.61	2181.09
578.80	2093.02
579.00	2215.90
579.19	2197.47
579.39	2277.34
579.58	2277.34
579.77	2287.58
579.97	2387.93
580.16	2326.49
580.36	2328.54
580.55	2299.87
580.75	2316.25
580.94	2166.75
581.13	2269.15
581.33	2357.21
581.52	2256.86
581.72	2482.14
581.91	2455.51
582.11	2201.57
582.30	2359.26
582.49	2199.52
582.69	2392.03
582.88	2308.06
583.08	2215.90
583.27	2369.50
583.47	2293.72
583.66	2125.79
583.85	2203.61
584.05	2263.01
584.24	2322.40
584.44	2265.05
584.63	2297.82
584.82	2439.13
585.02	2394.08
585.21	2367.45
585.41	2365.40
585.60	2353.12
585.79	2453.47
585.99	2562.01
586.18	2355.16
586.37	2924.50
586.57	4538.30
586.76	13387.57
586.96	32501.26
587.15	46157.12
587.34	55583.92
587.54	60703.84
587.73	55690.41
587.93	39128.49
588.12	29533.76
588.31	23838.36
588.51	20506.31
588.70	18949.85
588.89	17366.78
589.09	15232.79
589.28	13063.99
589.47	10567.52
589.67	8165.25
589.86	6379.42
590.06	4767.67
590.25	3874.76
590.44	3168.21
590.64	2842.58
590.83	2711.51
591.02	2490.33
591.22	2346.97
591.41	2318.30
591.60	2234.33
591.80	2551.77
591.99	2226.14
592.18	2187.23
592.38	2260.96
592.57	2191.33
592.76	2267.10
592.96	2269.15
593.15	2240.48
593.34	2365.40
593.54	2174.94
593.73	2310.11
593.92	2295.77
594.12	2295.77
594.31	2244.57
594.50	2428.89
594.70	2351.07
594.89	2572.25
595.08	2088.93
595.28	2322.40
595.47	2512.86
595.66	2314.20
595.86	2133.98
596.05	2181.09
596.24	2203.61
596.43	2523.10
596.63	2369.50
596.82	2199.52
597.01	2281.44
597.21	2402.27
597.40	2232.29
597.59	2244.57
597.79	2336.73
597.98	2320.35
598.17	2291.68
598.36	2215.90
598.56	2314.20
598.75	2168.80
598.94	2275.29
599.14	2224.09
599.33	2215.90
599.52	2285.53
599.71	2291.68
599.91	2285.53
600.10	2258.91
600.29	2185.18
600.48	2320.35
600.68	2297.82
600.87	2162.66
601.06	2158.56
601.26	2181.09
601.45	2236.38
601.64	2215.90
601.83	2314.20
602.03	2148.32
602.22	2127.84
602.41	2396.12
602.60	2432.99
602.80	2295.77
602.99	2252.77
603.18	2283.49
603.37	2340.83
603.57	2252.77
603.76	2328.54
603.95	2310.11
604.14	2265.05
604.34	2109.41
604.53	2176.99
604.72	2211.81
604.91	2293.72
605.10	2234.33
605.30	2029.54
605.49	2435.03
605.68	2207.71
605.87	2211.81
606.07	2201.57
606.26	2240.48
606.45	2289.63
606.64	2228.19
606.84	2230.24
607.03	2222.05
607.22	2338.78
607.41	2269.15
607.60	2217.95
607.80	2334.68
607.99	2285.53
608.18	2203.61
608.37	2254.81
608.56	2176.99
608.76	2389.98
608.95	2467.80
609.14	2299.87
609.33	2357.21
609.52	2408.41
609.72	2428.89
609.91	2334.68
610.10	2295.77
610.29	2402.27
610.48	2351.07
610.68	2373.60
610.87	2201.57
611.06	2353.12
611.25	2230.24
611.44	2336.73
611.63	2162.66
611.83	2383.84
612.02	2105.31
612.21	2316.25
612.40	2064.35
612.59	2129.89
612.79	2072.54
612.98	2265.05
613.17	2332.64
613.36	2267.10
613.55	2404.32
613.74	2326.49
613.93	2338.78
614.13	2418.65
614.32	2461.66
614.51	2473.95
614.70	2336.73
614.89	2263.01
615.08	2299.87
615.28	2746.33
615.47	2158.56
615.66	2336.73
615.85	2293.72
616.04	2398.17
616.23	2285.53
616.42	2342.88
616.62	2277.34
616.81	2248.67
617.00	2234.33
617.19	2334.68
617.38	2224.09
617.57	2234.33
617.76	2346.97
617.95	2293.72
618.15	2220.00
618.34	2404.32
618.53	2119.65
618.72	2344.92
618.91	2301.92
619.10	2355.16
619.29	2238.43
619.48	2201.57
619.68	2152.42
619.87	2154.46
620.06	2170.85
620.25	2289.63
620.44	2191.33
620.63	2181.09
620.82	2226.14
621.01	2150.37
621.20	2183.13
621.39	2285.53
621.59	2246.62
621.78	2220.00
621.97	2228.19
622.16	2242.53
622.35	2230.24
622.54	2238.43
622.73	2234.33
622.92	2052.06
623.11	2363.36
623.30	2205.66
623.49	2201.57
623.68	2144.22
623.88	2334.68
624.07	2248.67
624.26	2205.66
624.45	2285.53
624.64	2193.37
624.83	2205.66
625.02	2162.66
625.21	2236.38
625.40	2191.33
625.59	2363.36
625.78	2252.77
625.97	2297.82
626.16	2410.46
626.35	2389.98
626.54	2226.14
626.74	2408.41
626.93	2324.44
627.12	2277.34
627.31	2318.30
627.50	2287.58
627.69	2326.49
627.88	2205.66
628.07	2215.90
628.26	2062.30
628.45	2084.83
628.64	2105.31
628.83	2203.61
629.02	2121.70
629.21	2281.44
629.40	2213.85
629.59	2146.27
629.78	2189.28
629.97	2199.52
630.16	2283.49
630.35	2220.00
630.54	2152.42
630.73	2172.89
630.92	2209.76
631.11	2193.37
631.30	2244.57
631.49	2234.33
631.68	2166.75
631.87	2230.24
632.06	2109.41
632.25	2451.42
632.44	2285.53
632.63	2328.54
632.82	2203.61
633.01	2277.34
633.20	2396.12
633.39	2279.39
633.58	2154.46
633.77	2306.01
633.96	2299.87
634.15	2338.78
634.34	2275.29
634.53	2213.85
634.72	2217.95
634.91	2158.56
635.10	2291.68
635.29	2256.86
635.48	2179.04
635.67	2080.74
635.86	2035.68
636.05	2357.21
636.24	2256.86
636.43	2230.24
636.62	2215.90
636.81	1980.39
637.00	2242.53
637.19	2240.48
637.38	2176.99
637.57	2273.25
637.76	2326.49
637.95	2330.59
638.14	2246.62
638.33	2342.88
638.52	2336.73
638.71	2185.18
638.89	2117.60
639.08	2519.00
639.27	2392.03
639.46	2465.75
639.65	2883.54
639.84	2969.55
640.03	2973.65
640.22	2977.75
640.41	2904.02
640.60	2586.58
640.79	2551.77
640.98	2451.42
641.17	2516.95
641.36	2344.92
641.55	2418.65
641.74	2222.05
641.92	2195.42
642.11	2203.61
642.30	2267.10
642.49	2232.29
642.68	2183.13
642.87	2252.77
643.06	2299.87
643.25	2164.70
643.44	2174.94
643.63	2187.23
643.82	2174.94
644.00	2070.50
644.19	2263.01
644.38	2080.74
644.57	2209.76
644.76	2220.00
644.95	2156.51
645.14	2170.85
645.33	2228.19
645.52	2183.13
645.71	2123.74
645.89	2080.74
646.08	2197.47
646.27	2136.03
646.46	2379.74
646.65	2041.82
646.84	2283.49
647.03	2142.18
647.22	2252.77
647.40	2265.05
647.59	2185.18
647.78	2070.50
647.97	2086.88
648.16	2174.94
648.35	2330.59
648.54	2303.96
648.73	2152.42
648.91	2191.33
649.10	2232.29
649.29	2193.37
649.48	2113.50
649.67	2234.33
649.86	2324.44
650.05	2277.34
650.23	2422.75
650.42	2252.77
650.61	2500.57
650.80	2504.67
650.99	2498.52
651.18	2373.60
651.36	2322.40
651.55	2191.33
651.74	2316.25
651.93	2168.80
652.12	2279.39
652.31	2193.37
652.49	2293.72
652.68	2168.80
652.87	2316.25
653.06	2273.25
653.25	2355.16
653.44	2250.72
653.62	2408.41
653.81	2142.18
654.00	2220.00
654.19	2269.15
654.38	2457.56
654.56	2267.10
654.75	2195.42
654.94	2260.96
655.13	2238.43
655.32	2195.42
655.51	2199.52
655.69	2111.46
655.88	2244.57
656.07	2080.74
656.26	2191.33
656.45	2082.78
656.63	2248.67
656.82	2250.72
657.01	2273.25
657.20	2138.08
657.38	2291.68
657.57	2160.61
657.76	2070.50
657.95	2295.77
658.14	2136.03
658.32	2164.70
658.51	2185.18
658.70	2162.66
658.89	2222.05
659.08	2226.14
659.26	2330.59
659.45	2062.30
659.64	2314.20
659.83	2222.05
660.01	2521.05
660.20	2324.44
660.39	2355.16
660.58	2043.87
660.76	2299.87
660.95	2064.35
661.14	2207.71
661.33	2185.18
661.51	2113.50
661.70	2086.88
661.89	2281.44
662.08	2197.47
662.26	2064.35
662.45	2150.37
662.64	2400.22
662.83	2195.42
663.01	2127.84
663.20	2121.70
663.39	2318.30
663.58	2154.46
663.76	2215.90
663.95	2285.53
664.14	2109.41
664.32	2154.46
664.51	2138.08
664.70	2033.63
664.89	2254.81
665.07	2121.70
665.26	2344.92
665.45	2111.46
665.64	2342.88
665.82	2148.32
666.01	2213.85
666.20	2138.08
666.38	2400.22
666.57	2273.25
666.76	3241.93
666.95	7911.30
667.13	16314.12
667.32	21812.92
667.51	25607.80
667.69	27573.85
667.88	25466.49
668.07	17762.03
668.25	14223.14
668.44	12005.19
668.63	10467.17
668.81	9058.17
669.00	7870.34
669.19	7077.78
669.38	6160.29
669.56	5234.61
669.75	4351.93
669.94	3674.06
670.12	3141.58
670.31	2818.00
670.50	2553.82
670.68	2457.56
670.87	2408.41
671.06	2312.16
671.24	2273.25
671.43	2342.88
671.62	2303.96
671.80	2244.57
671.99	2303.96
672.18	2265.05
672.36	2353.12
672.55	2256.86
672.74	2154.46
672.92	2174.94
673.11	2260.96
673.29	2105.31
673.48	2336.73
673.67	2222.05
673.85	2340.83
674.04	2136.03
674.23	2195.42
674.41	2336.73
674.60	2047.97
674.79	2095.07
674.97	2146.27
675.16	2244.57
675.34	2207.71
675.53	2111.46
675.72	2220.00
675.90	2353.12
676.09	2148.32
676.28	2160.61
676.46	2066.40
676.65	2295.77
676.83	2072.54
677.02	2211.81
677.21	2242.53
677.39	2203.61
677.58	2176.99
677.77	2088.93
677.95	2162.66
678.14	2174.94
678.32	2215.90
678.51	2095.07
678.70	2310.11
678.88	2172.89
679.07	2209.76
679.25	2244.57
679.44	2195.42
679.63	2086.88
679.81	2224.09
680.00	2340.83
680.18	2301.92
680.37	2285.53
680.55	2158.56
680.74	2078.69
680.93	2076.64
681.11	2205.66
681.30	2176.99
681.48	2248.67
681.67	2138.08
681.85	2170.85
682.04	2107.36
682.23	2289.63
682.41	2240.48
682.60	2220.00
682.78	2193.37
682.97	2107.36
683.15	2203.61
683.34	2242.53
683.53	2353.12
683.71	2064.35
683.90	2320.35
684.08	2375.64
684.27	2220.00
684.45	2156.51
684.64	2224.09
684.82	2158.56
685.01	2275.29
685.19	2133.98
685.38	2398.17
685.57	2271.20
685.75	2220.00
685.94	2213.85
686.12	2111.46
686.31	2154.46
686.49	2324.44
686.68	2084.83
686.86	2232.29
687.05	2211.81
687.23	2389.98
687.42	2136.03
687.60	2062.30
687.79	2326.49
687.97	2334.68
688.16	2332.64
688.34	2293.72
688.53	2011.11
688.71	2246.62
688.90	2340.83
689.08	2215.90
689.27	2062.30
689.45	2203.61
689.64	2342.88
689.82	2207.71
690.01	2269.15
690.19	2293.72
690.38	2127.84
690.56	2260.96
690.75	2158.56
690.93	2252.77
691.12	2162.66
691.30	2193.37
691.49	2146.27
691.67	2211.81
691.86	2439.13
692.04	2111.46
692.23	2088.93
692.41	2256.86
692.60	2535.39
692.78	2297.82
692.97	2195.42
693.15	2387.93
693.34	2365.40
693.52	2289.63
693.71	2160.61
693.89	2236.38
694.08	2133.98
694.26	2312.16
694.44	2299.87
694.63	2297.82
694.81	2097.12
695.00	2136.03
695.18	2435.03
695.37	2467.80
695.55	2150.37
695.74	2191.33
695.92	2168.80
696.10	2346.97
696.29	2037.73
696.47	2226.14
696.66	2136.03
696.84	2105.31
697.03	2250.72
697.21	2377.69
697.40	3176.40
697.58	2291.68
697.76	2209.76
697.95	2138.08
698.13	2088.93
698.32	2109.41
698.50	2211.81
698.68	2203.61
698.87	2228.19
699.05	2412.51
699.24	2136.03
699.42	2084.83
699.61	2265.05
699.79	2191.33
699.97	2240.48
700.16	2033.63
700.34	2072.54
700.53	2170.85
700.71	2289.63
700.89	2250.72
701.08	2164.70
701.26	2250.72
701.45	2670.55
701.63	2170.85
701.81	2123.74
702.00	2129.89
702.18	2297.82
702.37	2166.75
702.55	2531.29
702.73	2353.12
702.92	2344.92
703.10	2658.26
703.28	2463.71
703.47	2357.21
703.65	2439.13
703.84	2387.93
704.02	2306.01
704.20	2404.32
704.39	2226.14
704.57	2244.57
704.75	2310.11
704.94	2359.26
705.12	2232.29
705.30	2514.91
705.49	4485.05
705.67	10891.10
705.86	19805.91
706.04	24016.53
706.22	27457.12
706.41	28913.22
706.59	24942.21
706.77	17573.62
706.96	14597.92
707.14	12529.47
707.32	10741.60
707.51	9695.08
707.69	7950.21
707.87	6528.92
708.06	5099.44
708.24	4116.42
708.42	3276.75
708.61	3035.09
708.79	2494.43
708.97	2379.74
709.16	2336.73
709.34	2324.44
709.52	2222.05
709.71	2260.96
709.89	2260.96
710.07	2166.75
710.26	2176.99
710.44	2207.71
710.62	2338.78
710.80	2183.13
710.99	2222.05
711.17	2357.21
711.35	2140.13
711.54	2129.89
711.72	2308.06
711.90	2308.06
712.09	2246.62
712.27	2117.60
712.45	2244.57
712.63	2189.28
712.82	2193.37
713.00	2205.66
713.18	2287.58
713.37	2265.05
713.55	2277.34
713.73	2222.05
713.91	2265.05
714.10	2162.66
714.28	2199.52
714.46	2226.14
714.65	2201.57
714.83	2150.37
715.01	2185.18
715.19	2189.28
715.38	2129.89
715.56	2267.10
715.74	2138.08
715.92	2111.46
716.11	2326.49
716.29	2088.93
716.47	2236.38
716.65	2297.82
716.84	2086.88
717.02	2256.86
717.20	2060.26
717.38	2131.94
717.57	2224.09
717.75	2308.06
717.93	2150.37
718.11	2273.25
718.30	2060.26
718.48	2189.28
718.66	2230.24
718.84	2293.72
719.03	2258.91
719.21	2125.79
719.39	2373.60
719.57	2252.77
719.75	2308.06
719.94	2127.84
720.12	2193.37
720.30	2217.95
720.48	2238.43
720.67	2144.22
720.85	2095.07
721.03	2172.89
721.21	2170.85
721.39	2301.92
721.58	2293.72
721.76	2265.05
721.94	2248.67
722.12	2201.57
722.30	2310.11
722.49	2029.54
722.67	2217.95
722.85	2179.04
723.03	2039.78
723.21	2195.42
723.40	2228.19
723.58	2328.54
723.76	2236.38
723.94	2381.79
724.12	2279.39
724.30	2363.36
724.49	2346.97
724.67	2170.85
724.85	2392.03
725.03	2056.16
725.21	2308.06
725.40	2373.60
725.58	2191.33
725.76	2256.86
725.94	2226.14
726.12	2064.35
726.30	2168.80
726.49	2179.04
726.67	2193.37
726.85	2301.92
727.03	2529.24
727.21	3694.54
727.39	5373.87
727.57	6485.92
727.76	7155.60
727.94	7634.83
728.12	7079.83
728.30	5805.99
728.48	4779.96
728.66	4460.48
728.84	4026.31
729.03	3567.56
729.21	3045.33
729.39	2799.57
729.57	2623.45
729.75	2441.18
729.93	2453.47
730.11	2238.43
730.30	2164.70
730.48	2236.38
730.66	2277.34
730.84	2271.20
731.02	2224.09
731.20	2086.88
731.38	2179.04
731.56	2052.06
731.74	2099.17
731.93	2263.01
732.11	2273.25
732.29	2150.37
732.47	2215.90
732.65	2238.43
732.83	2308.06
733.01	2203.61
733.19	2146.27
733.37	2310.11
733.56	2250.72
733.74	2099.17
733.92	2373.60
734.10	2246.62
734.28	2303.96
734.46	2101.22
734.64	2107.36
734.82	2236.38
735.00	2183.13
735.18	2113.50
735.36	2193.37
735.54	2113.50
735.73	2242.53
735.91	2121.70
736.09	2285.53
736.27	2209.76
736.45	2234.33
736.63	2027.49
736.81	2215.90
736.99	2283.49
737.17	2357.21
737.35	2181.09
737.53	2240.48
737.71	2136.03
737.89	2254.81
738.07	2144.22
738.25	2127.84
738.43	2031.58
738.61	2207.71
738.80	2058.21
738.98	2138.08
739.16	2150.37
739.34	2142.18
739.52	2342.88
739.70	2232.29
739.88	2260.96
740.06	2277.34
740.24	1996.77
740.42	2293.72
740.60	2068.45
740.78	2140.13
740.96	2045.92
741.14	2142.18
741.32	2224.09
741.50	2062.30
741.68	2416.60
741.86	2334.68
742.04	2033.63
742.22	2148.32
742.40	2234.33
742.58	2246.62
742.76	2105.31
742.94	2359.26
743.12	2011.11
743.30	2129.89
743.48	2258.91
743.66	2142.18
743.84	2248.67
744.02	2164.70
744.20	2209.76
744.38	2119.65
744.56	2072.54
744.74	2389.98
744.92	2172.89
745.10	2342.88
745.28	2252.77
745.46	2324.44
745.64	2117.60
745.82	2240.48
746.00	2211.81
746.18	2224.09
746.36	2125.79
746.54	2224.09
746.72	2125.79
746.90	2021.35
747.08	2277.34
747.26	2136.03
747.44	2265.05
747.62	2226.14
747.80	2199.52
747.98	2318.30
748.15	2185.18
748.33	2398.17
748.51	2213.85
748.69	2254.81
748.87	2148.32
749.05	2166.75
749.23	2158.56
749.41	2160.61
749.59	2117.60
749.77	2283.49
749.95	2125.79
750.13	2041.82
750.31	2220.00
750.49	2246.62
750.67	2273.25
750.85	2289.63
751.03	2252.77
751.20	2453.47
751.38	2154.46
751.56	2125.79
751.74	2275.29
751.92	2197.47
752.10	2105.31
752.28	2301.92
752.46	2156.51
752.64	2215.90
752.82	2195.42
753.00	2297.82
753.18	2123.74
753.35	2117.60
753.53	2250.72
753.71	2197.47
753.89	2181.09
754.07	2205.66
754.25	2340.83
754.43	2242.53
754.61	2113.50
754.79	2217.95
754.97	2168.80
755.14	2379.74
755.32	2119.65
755.50	2133.98
755.68	2226.14
755.86	2043.87
756.04	2170.85
756.22	1994.72
756.40	2258.91
756.57	2271.20
756.75	2174.94
756.93	2256.86
757.11	2275.29
757.29	2015.20
757.47	2084.83
757.65	2105.31
757.82	2047.97
758.00	2113.50
758.18	2162.66
758.36	2037.73
758.54	2371.55
758.72	2105.31
758.90	2240.48
759.07	2203.61
759.25	2045.92
759.43	2256.86
759.61	2045.92
759.79	3022.80
759.97	2355.16
760.15	2164.70
760.32	2166.75
760.50	2203.61
760.68	2353.12
760.86	2142.18
761.04	2281.44
761.22	2211.81
761.39	2170.85
761.57	2258.91
761.75	2220.00
761.93	2203.61
762.11	2240.48
762.28	2154.46
762.46	2101.22
762.64	2195.42
762.82	2158.56
763.00	2238.43
763.18	2377.69
763.35	2064.35
763.53	2303.96
763.71	2228.19
763.89	2236.38
764.07	2170.85
764.24	2170.85
764.42	2258.91
764.60	2203.61
764.78	2158.56
764.96	2310.11
765.13	2260.96
765.31	2142.18
765.49	2353.12
765.67	2047.97
765.84	2144.22
766.02	2183.13
766.20	1978.34
766.38	2197.47
766.56	2215.90
766.73	2220.00
766.91	2250.72
767.09	2172.89
767.27	2240.48
767.44	2101.22
767.62	2326.49
767.80	2174.94
767.98	2179.04
768.15	2121.70
768.33	2236.38
768.51	2293.72
768.69	2193.37
768.87	2191.33
769.04	2207.71
769.22	2402.27
769.40	2342.88
769.58	2371.55
769.75	2220.00
769.93	2365.40
770.11	2179.04
770.28	2187.23
770.46	2263.01
770.64	2236.38
770.82	2203.61
770.99	2119.65
771.17	2291.68
771.35	2176.99
771.53	2187.23
771.70	2195.42
771.88	2238.43
772.06	2211.81
772.23	2093.02
772.41	2238.43
772.59	2154.46
772.77	2093.02
772.94	2158.56
773.12	2205.66
773.30	2172.89
773.47	2197.47
773.65	2113.50
773.83	2344.92
774.01	2117.60
774.18	2097.12
774.36	2168.80
774.54	2060.26
774.71	2195.42
774.89	2101.22
775.07	2105.31
775.24	2109.41
775.42	2215.90
775.60	2287.58
775.78	2090.98
775.95	2062.30
776.13	2072.54
776.31	1996.77
776.48	2203.61
776.66	2351.07
776.84	2199.52
777.01	2150.37
777.19	2107.36
777.37	2170.85
777.54	2283.49
777.72	2363.36
777.90	2215.90
778.07	2056.16
778.25	2463.71
778.43	2316.25
778.60	2103.26
778.78	2226.14
778.96	2306.01
779.13	2074.59
779.31	2265.05
779.49	2211.81
779.66	2291.68
779.84	2207.71
780.01	2244.57
780.19	2103.26
780.37	2289.63
780.54	2246.62
780.72	2170.85
780.90	2150.37
781.07	2172.89
781.25	2097.12
781.43	2238.43
781.60	2136.03
781.78	2314.20
781.95	2191.33
782.13	2129.89
782.31	2183.13
782.48	2019.30
782.66	2162.66
782.83	2287.58
783.01	2232.29
783.19	2385.88
783.36	2164.70
783.54	2052.06
783.72	2207.71
783.89	2136.03
784.07	2248.67
784.24	2265.05
784.42	2310.11
784.60	2244.57
784.77	2263.01
784.95	2015.20
785.12	2152.42
785.30	2203.61
785.47	2131.94
785.65	2109.41
785.83	2129.89
786.00	2121.70
786.18	2129.89
786.35	2144.22
786.53	2095.07
786.71	2256.86
786.88	2240.48
787.06	2240.48
787.23	2172.89
787.41	2054.11
787.58	2228.19
787.76	2191.33
787.94	2117.60
788.11	2211.81
788.29	2070.50
788.46	2152.42
788.64	2088.93
788.81	2187.23
788.99	2129.89
789.16	2052.06
789.34	2164.70
789.52	2158.56
789.69	2107.36
789.87	2033.63
790.04	2166.75
790.22	2179.04
790.39	2373.60
790.57	2088.93
790.74	2117.60
790.92	2285.53
791.09	2043.87
791.27	2217.95
791.44	2283.49
791.62	2179.04
791.79	2238.43
791.97	2191.33
792.15	2445.27
792.32	2203.61
792.50	2275.29
792.67	2369.50
792.85	2244.57
793.02	2172.89
793.20	2111.46
793.37	2099.17
793.55	2140.13
793.72	2035.68
793.90	2238.43
794.07	2136.03
794.25	2129.89
794.42	2119.65
794.60	2103.26
794.77	2226.14
794.95	2236.38
795.12	2285.53
795.30	2131.94
795.47	2043.87
795.65	2424.80
795.82	2181.09
796.00	2043.87
796.17	2133.98
796.34	2113.50
796.52	2209.76
796.69	2254.81
796.87	2248.67
797.04	2263.01
797.22	2252.77
797.39	2230.24
797.57	2344.92
797.74	2158.56
797.92	2215.90
798.09	2101.22
798.27	2281.44
798.44	2195.42
798.62	2121.70
798.79	2226.14
798.96	2207.71
799.14	2166.75
799.31	2527.19
799.49	2170.85
799.66	2095.07
799.84	2217.95
800.01	2084.83
800.19	2250.72
800.36	2033.63
800.53	2236.38
800.71	2207.71
800.88	2392.03
801.06	2152.42
801.23	2203.61
801.41	2154.46
801.58	2162.66
801.75	2162.66
801.93	2183.13
802.10	2232.29
802.28	2158.56
802.45	2117.60
802.63	2289.63
802.80	2299.87
802.97	2160.61
803.15	2201.57
803.32	2260.96
803.50	2062.30
803.67	2062.30
803.84	2090.98
804.02	2203.61
804.19	2226.14
804.37	1984.48
804.54	2115.55
804.71	2150.37
804.89	2146.27
805.06	2115.55
805.24	1996.77
805.41	2097.12
805.58	2084.83
805.76	2465.75
805.93	2248.67
806.10	2207.71
806.28	2209.76
806.45	2217.95
806.63	2293.72
806.80	2277.34
806.97	2215.90
807.15	2170.85
807.32	2236.38
807.49	2215.90
807.67	2074.59
807.84	2226.14
808.01	1998.82
808.19	2349.02
808.36	2435.03
808.54	2176.99
808.71	2107.36
808.88	2244.57
809.06	2328.54
809.23	2267.10
809.40	2166.75
809.58	2215.90
809.75	2187.23
809.92	2121.70
810.10	2291.68
810.27	2136.03
810.44	2330.59
810.62	2306.01
810.79	2293.72
810.96	2170.85
811.14	2101.22
811.31	2215.90
811.48	2205.66
811.66	2142.18
811.83	2308.06
812.00	2183.13
812.18	2217.95
812.35	2367.45
812.52	2136.03
812.69	2129.89
812.87	2154.46
813.04	2176.99
813.21	2086.88
813.39	2213.85
813.56	2105.31
813.73	2291.68
813.91	2105.31
814.08	2152.42
814.25	2236.38
814.42	2043.87
814.60	2138.08
814.77	2228.19
814.94	2176.99
815.12	2228.19
815.29	2306.01
815.46	2076.64
815.63	2183.13
815.81	2232.29
815.98	2228.19
816.15	2117.60
816.33	2152.42
816.50	2119.65
816.67	2207.71
816.84	2164.70
817.02	2146.27
817.19	2209.76
817.36	2146.27
817.53	2215.90
817.71	2170.85
817.88	2260.96
818.05	2121.70
818.22	2185.18
818.40	2379.74
818.57	2125.79
818.74	2207.71
818.91	2183.13
819.09	2203.61
819.26	2312.16
819.43	2168.80
819.60	2095.07
819.78	2211.81
819.95	2228.19
820.12	2105.31
820.29	2279.39
820.47	2232.29
820.64	2148.32
820.81	2097.12
820.98	2125.79
821.15	2160.61
821.33	2291.68
821.50	2117.60
821.67	2179.04
821.84	2162.66
822.02	2250.72
822.19	2277.34
822.36	2121.70
822.53	2146.27
822.70	1988.58
822.88	2133.98
823.05	2209.76
823.22	2234.33
823.39	2201.57
823.56	2174.94
823.74	2328.54
823.91	2193.37
824.08	2101.22
824.25	2088.93
824.42	2439.13
824.60	2115.55
824.77	2215.90
824.94	2244.57
825.11	2109.41
825.28	1988.58
825.45	2123.74
825.63	2242.53
825.80	2023.39
825.97	2203.61
826.14	2191.33
826.31	2070.50
826.48	2277.34
826.66	2035.68
826.83	2174.94
827.00	2115.55
827.17	2181.09
827.34	2142.18
827.51	2138.08
827.69	2156.51
827.86	2097.12
828.03	2209.76
828.20	2254.81
828.37	2152.42
828.54	2209.76
828.71	2072.54
828.89	2346.97
829.06	2324.44
829.23	2281.44
829.40	2119.65
829.57	2160.61
829.74	2220.00
829.91	2183.13
830.09	2146.27
830.26	2209.76
830.43	2310.11
830.60	2195.42
830.77	2349.02
830.94	2336.73
831.11	2220.00
831.28	2146.27
831.46	2340.83
831.63	2187.23
831.80	2308.06
831.97	2133.98
832.14	2162.66
832.31	2213.85
832.48	2203.61
832.65	2277.34
832.82	2244.57
832.99	2277.34
833.17	2109.41
833.34	2381.79
833.51	2250.72
833.68	1972.19
833.85	2260.96
834.02	2127.84
834.19	2138.08
834.36	2056.16
834.53	2277.34
834.70	2252.77
834.87	2226.14
835.04	2105.31
835.22	2154.46
835.39	2162.66
835.56	2037.73
835.73	2119.65
835.90	2332.64
836.07	2093.02
836.24	2164.70
836.41	2099.17
836.58	2080.74
836.75	2275.29
836.92	2201.57
837.09	2090.98
837.26	2252.77
837.43	2232.29
837.60	2269.15
837.77	2150.37
837.94	2230.24
838.12	2277.34
838.29	2129.89
838.46	2109.41
838.63	2115.55
838.80	2320.35
838.97	2228.19
839.14	2123.74
839.31	2220.00
839.48	2312.16
839.65	2187.23
839.82	2187.23
839.99	2228.19
840.16	2213.85
840.33	2142.18
840.50	2185.18
840.67	2107.36
840.84	2047.97
841.01	2189.28
841.18	2119.65
841.35	2189.28
841.52	2260.96
841.69	2306.01
841.86	2189.28
842.03	2228.19
842.20	2213.85
842.37	2197.47
842.54	2142.18
842.71	2154.46
842.88	2054.11
843.05	2191.33
843.22	2164.70
843.39	2252.77
843.56	2064.35
843.73	2158.56
843.90	2193.37
844.07	2215.90
844.24	2234.33
844.41	2277.34
844.58	2144.22
844.75	2256.86
844.92	2303.96
845.09	2162.66
845.26	2209.76
845.43	2228.19
845.60	2039.78
845.77	2250.72
845.94	2133.98
846.10	2340.83
846.27	2129.89
846.44	2109.41
846.61	2113.50
846.78	2185.18
846.95	2213.85
847.12	2121.70
847.29	2179.04
847.46	2113.50
847.63	2310.11
847.80	2152.42
847.97	2084.83
848.14	2383.84
848.31	2211.81
848.48	2031.58
848.65	2217.95
848.82	2125.79
848.98	2367.45
849.15	2191.33
849.32	2228.19
849.49	2318.30
849.66	2187.23
849.83	2103.26
850.00	2052.06
850.17	2256.86
850.34	2148.32
850.51	2068.45
850.68	2109.41
850.85	2410.46
851.01	2166.75
851.18	2156.51
851.35	2121.70
851.52	2189.28
851.69	2349.02
851.86	2037.73
852.03	2133.98
852.20	2308.06
852.37	2172.89
852.53	2019.30
852.70	2213.85
852.87	2234.33
853.04	2211.81
853.21	2172.89
853.38	2267.10
853.55	2334.68
853.72	2318.30
853.89	2117.60
854.05	2093.02
854.22	2195.42
854.39	2119.65
854.56	2146.27
854.73	2285.53
854.90	2064.35
855.07	2191.33
855.23	2080.74
855.40	2121.70
855.57	2174.94
855.74	1984.48
855.91	2299.87
856.08	2074.59
856.25	2027.49
856.41	2113.50
856.58	2154.46
856.75	2142.18
856.92	2052.06
857.09	2312.16
857.26	2052.06
857.42	2146.27
857.59	2170.85
857.76	2140.13
857.93	2199.52
858.10	2144.22
858.27	2078.69
858.43	2207.71
858.60	2142.18
858.77	2029.54
858.94	2093.02
859.11	2242.53
859.27	2197.47
859.44	2152.42
859.61	2402.27
859.78	2269.15
859.95	2074.59
860.12	2127.84
860.28	2338.78
860.45	2349.02
860.62	2154.46
860.79	2176.99
860.95	2152.42
861.12	2170.85
861.29	2035.68
861.46	2097.12
861.63	2211.81
861.79	2160.61
861.96	2088.93
862.13	2099.17
862.30	2406.36
862.47	2127.84
862.63	2041.82
862.80	2209.76
862.97	2277.34
863.14	2193.37
863.30	2203.61
863.47	2076.64
863.64	2367.45
863.81	2168.80
863.97	2029.54
864.14	2195.42
864.31	2150.37
864.48	2181.09
864.65	2121.70
864.81	2254.81
864.98	2224.09
865.15	2275.29
865.32	2201.57
865.48	2295.77
865.65	2338.78
865.82	2113.50
865.98	2187.23
866.15	2205.66
866.32	2236.38
866.49	2129.89
866.65	2263.01
866.82	2084.83
866.99	2142.18
867.16	2121.70
867.32	2080.74
867.49	2105.31
867.66	2199.52
867.83	2117.60
867.99	2101.22
868.16	2183.13
868.33	2097.12
868.49	2191.33
868.66	2195.42
868.83	2263.01
868.99	2166.75
869.16	2185.18
869.33	2213.85
869.50	2176.99
869.66	2082.78
869.83	2201.57
870.00	2093.02
870.16	2254.81
870.33	2129.89
870.50	2236.38
870.66	2136.03
870.83	2240.48
871.00	2195.42
871.17	2209.76
871.33	2121.70
871.50	2142.18
871.67	2170.85
871.83	1972.19
872.00	2306.01
872.17	2109.41
872.33	2359.26
872.50	2318.30
872.67	2119.65
872.83	2062.30
873.00	2213.85
873.17	2256.86
873.33	2250.72
873.50	2207.71
873.67	2056.16
873.83	2056.16
874.00	2193.37
874.16	2222.05
874.33	2275.29
874.50	2105.31
874.66	2150.37
874.83	2213.85
875.00	2320.35
875.16	2215.90
875.33	2211.81
875.50	2019.30
875.66	2156.51
875.83	2252.77
875.99	2179.04
876.16	2113.50
876.33	2121.70
876.49	2095.07
876.66	2189.28
876.83	2154.46
876.99	2082.78
877.16	2138.08
877.32	2103.26
877.49	2097.12
877.66	2185.18
877.82	2340.83
877.99	2154.46
878.15	2293.72
878.32	2158.56
878.49	2217.95
878.65	2191.33
878.82	2330.59
878.98	2133.98
879.15	2301.92
879.32	2250.72
879.48	2187.23
879.65	2072.54
879.81	2176.99
879.98	2107.36
880.15	2131.94
880.31	2240.48
880.48	2009.06
880.64	2224.09
880.81	2203.61
880.97	2400.22
881.14	2375.64
881.31	2158.56
881.47	2279.39
881.64	2146.27
881.80	2064.35
881.97	2205.66
882.13	2191.33
882.30	2070.50
882.47	2150.37
882.63	2105.31
882.80	2125.79
882.96	2103.26
883.13	2306.01
883.29	2146.27
883.46	2228.19
883.62	2334.68
883.79	2111.46
883.95	2179.04
884.12	2154.46
884.29	2279.39
884.45	2224.09
884.62	2148.32
884.78	2023.39
884.95	2340.83
885.11	2123.74
885.28	2228.19
885.44	2113.50
885.61	2256.86
885.77	2256.86
885.94	2207.71
886.10	2172.89
886.27	2220.00
886.43	2385.88
886.60	2211.81
886.76	2176.99
886.93	2152.42
887.09	2246.62
887.26	2074.59
887.42	2230.24
887.59	2289.63
887.75	2459.61
887.92	2301.92
888.08	2183.13
888.25	2394.08
888.41	2250.72
888.58	2224.09
888.74	2086.88
888.91	2109.41
>>>>>End Processed Spectral Data<<<<<
