SpectraSuite Data File
++++++++++++++++++++++++++++++++++++
Date: Thu May 05 12:35:46 CEST 2016
User: root
Dark Spectrum Present: No
Reference Spectrum Present: No
Number of Sampled Component Spectra: 1
Spectrometers: USB4C02835
Integration Time (usec): 100000 (USB4C02835)
Spectra Averaged: 1 (USB4C02835)
Boxcar Smoothing: 0 (USB4C02835)
Correct for Electrical Dark: No (USB4C02835)
Strobe/Lamp Enabled: No (USB4C02835)
Correct for Detector Non-linearity: No (USB4C02835)
Correct for Stray Light: No (USB4C02835)
Number of Pixels in Processed Spectrum: 3648
>>>>>Begin Processed Spectral Data<<<<<
177.47	1744.87
177.69	1744.87
177.91	1744.87
178.13	1777.64
178.36	1765.35
178.58	2101.22
178.80	2222.05
179.02	2011.11
179.24	2084.83
179.46	2035.68
179.68	2193.37
179.90	2138.08
180.13	2263.01
180.35	2072.54
180.57	2154.46
180.79	2228.19
181.01	2250.72
181.23	2172.89
181.45	2244.57
181.67	2222.05
181.90	2217.95
182.12	2136.03
182.34	1957.86
182.56	2275.29
182.78	2179.04
183.00	2086.88
183.22	2252.77
183.44	2052.06
183.66	2404.32
183.89	2232.29
184.11	2158.56
184.33	2205.66
184.55	2322.40
184.77	2176.99
184.99	2144.22
185.21	2185.18
185.43	2379.74
185.65	2129.89
185.87	2060.26
186.10	2430.94
186.32	2412.51
186.54	2142.18
186.76	2148.32
186.98	2215.90
187.20	2117.60
187.42	2129.89
187.64	2191.33
187.86	2260.96
188.08	2279.39
188.30	2119.65
188.52	2133.98
188.75	2269.15
188.97	2365.40
189.19	2078.69
189.41	2086.88
189.63	2217.95
189.85	2144.22
190.07	1964.00
190.29	2013.15
190.51	2152.42
190.73	2080.74
190.95	2271.20
191.17	2199.52
191.39	2078.69
191.61	2293.72
191.84	2138.08
192.06	2187.23
192.28	2095.07
192.50	2437.08
192.72	2136.03
192.94	2160.61
193.16	2277.34
193.38	2185.18
193.60	2103.26
193.82	2176.99
194.04	2314.20
194.26	2193.37
194.48	2195.42
194.70	2054.11
194.92	2160.61
195.14	2238.43
195.36	2146.27
195.58	2211.81
195.80	2199.52
196.02	2111.46
196.24	2121.70
196.46	2105.31
196.69	2121.70
196.91	2416.60
197.13	2117.60
197.35	2119.65
197.57	2336.73
197.79	2240.48
198.01	2236.38
198.23	2209.76
198.45	2301.92
198.67	2125.79
198.89	2183.13
199.11	2176.99
199.33	2050.02
199.55	1949.67
199.77	2062.30
199.99	2205.66
200.21	2217.95
200.43	2162.66
200.65	2111.46
200.87	1974.24
201.09	2291.68
201.31	2222.05
201.53	2133.98
201.75	2203.61
201.97	2246.62
202.19	2217.95
202.41	2154.46
202.63	2226.14
202.85	2236.38
203.07	2234.33
203.29	2140.13
203.51	2037.73
203.73	2103.26
203.95	2465.75
204.17	2146.27
204.39	2125.79
204.61	2213.85
204.83	2113.50
205.05	2176.99
205.27	2205.66
205.49	2459.61
205.71	2140.13
205.93	1996.77
206.15	2119.65
206.37	2199.52
206.59	2142.18
206.81	2056.16
207.03	2023.39
207.25	2125.79
207.47	2195.42
207.69	2101.22
207.91	2291.68
208.13	2408.41
208.34	2097.12
208.56	2039.78
208.78	2170.85
209.00	2103.26
209.22	2189.28
209.44	2131.94
209.66	2117.60
209.88	2183.13
210.10	2101.22
210.32	2125.79
210.54	2226.14
210.76	2220.00
210.98	2236.38
211.20	1935.33
211.42	2187.23
211.64	2283.49
211.86	2277.34
212.08	2162.66
212.30	2129.89
212.52	2199.52
212.74	2152.42
212.96	2187.23
213.17	2224.09
213.39	2299.87
213.61	2322.40
213.83	2168.80
214.05	2191.33
214.27	2299.87
214.49	2113.50
214.71	2082.78
214.93	2222.05
215.15	2240.48
215.37	2230.24
215.59	2043.87
215.81	2201.57
216.03	2256.86
216.24	2209.76
216.46	2129.89
216.68	2207.71
216.90	2224.09
217.12	2236.38
217.34	2172.89
217.56	2260.96
217.78	2338.78
218.00	2213.85
218.22	2138.08
218.44	2199.52
218.66	2162.66
218.87	2416.60
219.09	2056.16
219.31	2197.47
219.53	2260.96
219.75	2154.46
219.97	2148.32
220.19	2138.08
220.41	2220.00
220.63	2324.44
220.85	2160.61
221.06	2080.74
221.28	2306.01
221.50	2293.72
221.72	2115.55
221.94	2076.64
222.16	2220.00
222.38	2279.39
222.60	2203.61
222.82	2148.32
223.03	2275.29
223.25	2097.12
223.47	2209.76
223.69	2326.49
223.91	2191.33
224.13	2250.72
224.35	2111.46
224.57	2269.15
224.78	2285.53
225.00	2072.54
225.22	2105.31
225.44	2176.99
225.66	2267.10
225.88	2103.26
226.10	2176.99
226.32	2154.46
226.53	2281.44
226.75	2144.22
226.97	2093.02
227.19	2226.14
227.41	2136.03
227.63	2168.80
227.85	2023.39
228.06	2211.81
228.28	2109.41
228.50	2269.15
228.72	2080.74
228.94	2158.56
229.16	1998.82
229.37	2138.08
229.59	2072.54
229.81	2283.49
230.03	2138.08
230.25	2086.88
230.47	2047.97
230.69	2021.35
230.90	2240.48
231.12	2166.75
231.34	2121.70
231.56	2254.81
231.78	2119.65
232.00	2234.33
232.21	2148.32
232.43	2236.38
232.65	2015.20
232.87	2181.09
233.09	2070.50
233.30	2084.83
233.52	2314.20
233.74	2187.23
233.96	2133.98
234.18	2215.90
234.40	2195.42
234.61	2441.18
234.83	1976.29
235.05	2052.06
235.27	2404.32
235.49	2328.54
235.70	2088.93
235.92	2260.96
236.14	2209.76
236.36	2412.51
236.58	2039.78
236.79	2236.38
237.01	2244.57
237.23	2154.46
237.45	2283.49
237.67	2146.27
237.88	2250.72
238.10	2404.32
238.32	2004.96
238.54	2043.87
238.76	2187.23
238.97	2129.89
239.19	2066.40
239.41	2234.33
239.63	2330.59
239.85	2127.84
240.06	2162.66
240.28	2084.83
240.50	2209.76
240.72	2260.96
240.93	2125.79
241.15	2207.71
241.37	2195.42
241.59	2322.40
241.81	2148.32
242.02	2095.07
242.24	2201.57
242.46	2203.61
242.68	2021.35
242.89	2117.60
243.11	2250.72
243.33	2228.19
243.55	2160.61
243.76	2158.56
243.98	2097.12
244.20	2203.61
244.42	2088.93
244.64	2209.76
244.85	2047.97
245.07	2142.18
245.29	2115.55
245.51	2080.74
245.72	2195.42
245.94	2181.09
246.16	2121.70
246.38	2209.76
246.59	2174.94
246.81	2123.74
247.03	2076.64
247.24	2029.54
247.46	2207.71
247.68	2209.76
247.90	2127.84
248.11	2123.74
248.33	2269.15
248.55	2170.85
248.77	2187.23
248.98	2187.23
249.20	2416.60
249.42	2185.18
249.64	2187.23
249.85	2144.22
250.07	2158.56
250.29	2332.64
250.50	2166.75
250.72	2047.97
250.94	2273.25
251.16	2340.83
251.37	2191.33
251.59	2168.80
251.81	2174.94
252.02	2322.40
252.24	2039.78
252.46	2195.42
252.68	2103.26
252.89	2158.56
253.11	1992.67
253.33	2244.57
253.54	2353.12
253.76	2158.56
253.98	2076.64
254.20	2082.78
254.41	2004.96
254.63	2158.56
254.85	2011.11
255.06	2201.57
255.28	2195.42
255.50	2152.42
255.71	2082.78
255.93	2021.35
256.15	2195.42
256.36	2277.34
256.58	2172.89
256.80	2156.51
257.02	2164.70
257.23	2152.42
257.45	2123.74
257.67	2168.80
257.88	2215.90
258.10	2236.38
258.32	2129.89
258.53	2195.42
258.75	2293.72
258.97	2168.80
259.18	2041.82
259.40	2138.08
259.62	2271.20
259.83	2363.36
260.05	2248.67
260.27	2607.06
260.48	2275.29
260.70	2050.02
260.92	2170.85
261.13	2232.29
261.35	2205.66
261.57	2281.44
261.78	2027.49
262.00	2103.26
262.22	2248.67
262.43	2129.89
262.65	2199.52
262.86	2125.79
263.08	2424.80
263.30	2232.29
263.51	2021.35
263.73	2156.51
263.95	2359.26
264.16	2050.02
264.38	2084.83
264.60	2117.60
264.81	2185.18
265.03	2297.82
265.25	2258.91
265.46	2146.27
265.68	2332.64
265.89	2193.37
266.11	2004.96
266.33	2172.89
266.54	2301.92
266.76	2285.53
266.98	2232.29
267.19	2185.18
267.41	2326.49
267.62	2191.33
267.84	2039.78
268.06	2224.09
268.27	2164.70
268.49	2346.97
268.70	2269.15
268.92	2162.66
269.14	2166.75
269.35	2172.89
269.57	2211.81
269.79	2199.52
270.00	2119.65
270.22	2353.12
270.43	2062.30
270.65	2023.39
270.87	2215.90
271.08	2207.71
271.30	2086.88
271.51	2072.54
271.73	2203.61
271.95	2234.33
272.16	2187.23
272.38	2187.23
272.59	2070.50
272.81	2289.63
273.02	2072.54
273.24	2217.95
273.46	2179.04
273.67	2076.64
273.89	2078.69
274.10	2107.36
274.32	2260.96
274.54	2232.29
274.75	2197.47
274.97	2113.50
275.18	2263.01
275.40	2328.54
275.61	2174.94
275.83	2207.71
276.05	2037.73
276.26	2144.22
276.48	2226.14
276.69	2127.84
276.91	2127.84
277.12	2303.96
277.34	2236.38
277.55	2328.54
277.77	2195.42
277.99	2107.36
278.20	2138.08
278.42	2033.63
278.63	2160.61
278.85	2103.26
279.06	1982.43
279.28	2250.72
279.49	2303.96
279.71	2269.15
279.93	2181.09
280.14	2138.08
280.36	2172.89
280.57	2310.11
280.79	2220.00
281.00	2123.74
281.22	2133.98
281.43	2279.39
281.65	2021.35
281.86	2099.17
282.08	2260.96
282.29	2357.21
282.51	2121.70
282.73	2105.31
282.94	2082.78
283.16	2260.96
283.37	2308.06
283.59	2199.52
283.80	2168.80
284.02	2121.70
284.23	2199.52
284.45	2125.79
284.66	2162.66
284.88	2107.36
285.09	2201.57
285.31	2168.80
285.52	2150.37
285.74	2039.78
285.95	2283.49
286.17	2185.18
286.38	2226.14
286.60	2193.37
286.81	2115.55
287.03	2269.15
287.24	2217.95
287.46	2220.00
287.67	2203.61
287.89	2357.21
288.10	2162.66
288.32	2215.90
288.53	2269.15
288.75	2195.42
288.96	2326.49
289.18	2088.93
289.39	2076.64
289.61	2275.29
289.82	2359.26
290.04	2355.16
290.25	2129.89
290.47	2152.42
290.68	2179.04
290.90	2258.91
291.11	2043.87
291.33	2215.90
291.54	2095.07
291.76	2107.36
291.97	2181.09
292.18	2185.18
292.40	2203.61
292.61	2168.80
292.83	2355.16
293.04	2211.81
293.26	2326.49
293.47	2183.13
293.69	2088.93
293.90	2166.75
294.12	2301.92
294.33	2207.71
294.55	2133.98
294.76	2287.58
294.97	2330.59
295.19	2402.27
295.40	2107.36
295.62	2201.57
295.83	2281.44
296.05	2154.46
296.26	2277.34
296.48	2140.13
296.69	2203.61
296.90	2191.33
297.12	2195.42
297.33	2344.92
297.55	2209.76
297.76	2252.77
297.98	2207.71
298.19	2246.62
298.41	2187.23
298.62	2076.64
298.83	2283.49
299.05	2203.61
299.26	2170.85
299.48	2111.46
299.69	2252.77
299.90	2181.09
300.12	2123.74
300.33	2234.33
300.55	2193.37
300.76	2220.00
300.98	2160.61
301.19	2330.59
301.40	2144.22
301.62	2129.89
301.83	2209.76
302.05	2217.95
302.26	2127.84
302.47	2176.99
302.69	2078.69
302.90	2193.37
303.12	1966.05
303.33	2205.66
303.54	2381.79
303.76	2152.42
303.97	2230.24
304.19	2279.39
304.40	2080.74
304.61	2246.62
304.83	2336.73
305.04	2258.91
305.26	2215.90
305.47	2179.04
305.68	2142.18
305.90	2041.82
306.11	2234.33
306.33	2170.85
306.54	2066.40
306.75	2072.54
306.97	2062.30
307.18	2095.07
307.39	2090.98
307.61	2238.43
307.82	2211.81
308.04	2246.62
308.25	2117.60
308.46	2172.89
308.68	2129.89
308.89	2197.47
309.10	2285.53
309.32	2209.76
309.53	2127.84
309.74	2277.34
309.96	2164.70
310.17	2254.81
310.39	2187.23
310.60	2254.81
310.81	2176.99
311.03	2027.49
311.24	2273.25
311.45	2224.09
311.67	2385.88
311.88	2201.57
312.09	2129.89
312.31	2127.84
312.52	2125.79
312.73	2129.89
312.95	2060.26
313.16	2203.61
313.37	2252.77
313.59	2248.67
313.80	2232.29
314.01	2349.02
314.23	2111.46
314.44	2084.83
314.65	2117.60
314.87	2109.41
315.08	2164.70
315.29	2164.70
315.51	2115.55
315.72	2031.58
315.93	2256.86
316.15	2265.05
316.36	2205.66
316.57	2201.57
316.79	2252.77
317.00	2158.56
317.21	2242.53
317.43	2246.62
317.64	2127.84
317.85	2144.22
318.07	2209.76
318.28	2244.57
318.49	2349.02
318.70	2406.36
318.92	2373.60
319.13	2301.92
319.34	2424.80
319.56	2244.57
319.77	2291.68
319.98	2404.32
320.20	2224.09
320.41	2318.30
320.62	2205.66
320.83	2158.56
321.05	2373.60
321.26	2222.05
321.47	2201.57
321.69	2346.97
321.90	2047.97
322.11	2093.02
322.32	2248.67
322.54	2330.59
322.75	2201.57
322.96	2402.27
323.18	2043.87
323.39	2039.78
323.60	2050.02
323.81	2217.95
324.03	2099.17
324.24	2127.84
324.45	2174.94
324.66	2138.08
324.88	2293.72
325.09	2328.54
325.30	2146.27
325.52	2215.90
325.73	2193.37
325.94	2074.59
326.15	2082.78
326.37	2146.27
326.58	2246.62
326.79	2242.53
327.00	2107.36
327.22	2166.75
327.43	2179.04
327.64	2058.21
327.85	2172.89
328.07	2111.46
328.28	2408.41
328.49	2168.80
328.70	2148.32
328.92	2156.51
329.13	2111.46
329.34	2265.05
329.55	2324.44
329.76	2238.43
329.98	2117.60
330.19	2277.34
330.40	2207.71
330.61	2211.81
330.83	2267.10
331.04	2168.80
331.25	2215.90
331.46	2183.13
331.68	2070.50
331.89	2281.44
332.10	2158.56
332.31	2068.45
332.52	2129.89
332.74	2367.45
332.95	2062.30
333.16	2185.18
333.37	2256.86
333.58	2172.89
333.80	2133.98
334.01	1978.34
334.22	2142.18
334.43	2152.42
334.64	2131.94
334.86	2052.06
335.07	2136.03
335.28	2207.71
335.49	2041.82
335.70	2158.56
335.92	2342.88
336.13	2445.27
336.34	2168.80
336.55	2277.34
336.76	2193.37
336.98	1986.53
337.19	2160.61
337.40	2248.67
337.61	2398.17
337.82	2179.04
338.04	2275.29
338.25	2129.89
338.46	2170.85
338.67	2144.22
338.88	2113.50
339.09	2054.11
339.31	2187.23
339.52	2136.03
339.73	2043.87
339.94	2097.12
340.15	2248.67
340.36	2203.61
340.58	2162.66
340.79	2095.07
341.00	2260.96
341.21	2086.88
341.42	2293.72
341.63	2228.19
341.85	2260.96
342.06	2168.80
342.27	2093.02
342.48	2279.39
342.69	2131.94
342.90	2213.85
343.12	2295.77
343.33	2158.56
343.54	2295.77
343.75	2340.83
343.96	2166.75
344.17	2082.78
344.38	2209.76
344.60	2099.17
344.81	2076.64
345.02	2156.51
345.23	2308.06
345.44	2392.03
345.65	2240.48
345.86	2195.42
346.07	2301.92
346.29	2031.58
346.50	2217.95
346.71	2293.72
346.92	2318.30
347.13	2340.83
347.34	2191.33
347.55	2133.98
347.76	2258.91
347.98	2066.40
348.19	2154.46
348.40	2330.59
348.61	2138.08
348.82	2402.27
349.03	2179.04
349.24	2080.74
349.45	2387.93
349.66	1996.77
349.88	2160.61
350.09	2129.89
350.30	2285.53
350.51	2283.49
350.72	2168.80
350.93	2211.81
351.14	2080.74
351.35	2308.06
351.56	2187.23
351.77	2185.18
351.99	2267.10
352.20	2342.88
352.41	2342.88
352.62	2019.30
352.83	2203.61
353.04	2146.27
353.25	2170.85
353.46	2211.81
353.67	2320.35
353.88	2027.49
354.09	2174.94
354.30	2154.46
354.52	2203.61
354.73	2217.95
354.94	2111.46
355.15	2228.19
355.36	2396.12
355.57	2148.32
355.78	2170.85
355.99	2066.40
356.20	2125.79
356.41	2373.60
356.62	2215.90
356.83	2195.42
357.04	2363.36
357.25	2015.20
357.46	2131.94
357.68	2097.12
357.89	2129.89
358.10	2269.15
358.31	2166.75
358.52	2164.70
358.73	2093.02
358.94	2060.26
359.15	2189.28
359.36	2322.40
359.57	2195.42
359.78	2207.71
359.99	2215.90
360.20	2105.31
360.41	2195.42
360.62	2248.67
360.83	2162.66
361.04	2189.28
361.25	2203.61
361.46	2381.79
361.67	2240.48
361.88	2232.29
362.09	2234.33
362.30	2228.19
362.51	2181.09
362.72	2185.18
362.93	2283.49
363.14	2273.25
363.35	2115.55
363.56	2097.12
363.78	2256.86
363.99	2273.25
364.20	2117.60
364.41	2133.98
364.62	2363.36
364.83	2236.38
365.04	2244.57
365.25	2172.89
365.46	2344.92
365.67	2078.69
365.88	2162.66
366.09	2072.54
366.30	2158.56
366.51	2226.14
366.72	2066.40
366.93	2140.13
367.14	2220.00
367.35	2301.92
367.56	2187.23
367.77	2324.44
367.98	2142.18
368.18	2211.81
368.39	2207.71
368.60	2160.61
368.81	2252.77
369.02	2203.61
369.23	2179.04
369.44	2056.16
369.65	2088.93
369.86	2226.14
370.07	2215.90
370.28	2121.70
370.49	2228.19
370.70	2324.44
370.91	2093.02
371.12	2035.68
371.33	2318.30
371.54	2164.70
371.75	2316.25
371.96	2072.54
372.17	2228.19
372.38	2238.43
372.59	2158.56
372.80	2086.88
373.01	2105.31
373.22	2172.89
373.43	2133.98
373.64	2119.65
373.85	2373.60
374.06	2365.40
374.26	2310.11
374.47	2207.71
374.68	2338.78
374.89	2248.67
375.10	2142.18
375.31	2285.53
375.52	2193.37
375.73	2211.81
375.94	2056.16
376.15	2308.06
376.36	2193.37
376.57	2168.80
376.78	2123.74
376.99	2205.66
377.20	2301.92
377.40	2162.66
377.61	2373.60
377.82	2150.37
378.03	2310.11
378.24	2283.49
378.45	2154.46
378.66	2154.46
378.87	2066.40
379.08	2103.26
379.29	2152.42
379.50	2236.38
379.71	2185.18
379.91	2306.01
380.12	2076.64
380.33	2220.00
380.54	2211.81
380.75	2166.75
380.96	2088.93
381.17	2248.67
381.38	2265.05
381.59	2244.57
381.80	2176.99
382.00	2367.45
382.21	2246.62
382.42	2435.03
382.63	2346.97
382.84	2222.05
383.05	2308.06
383.26	2406.36
383.47	2215.90
383.68	2258.91
383.88	2273.25
384.09	2179.04
384.30	2363.36
384.51	2183.13
384.72	2136.03
384.93	2084.83
385.14	2230.24
385.35	2295.77
385.55	2027.49
385.76	2351.07
385.97	2160.61
386.18	2133.98
386.39	2195.42
386.60	2179.04
386.81	2179.04
387.02	2162.66
387.22	2105.31
387.43	2308.06
387.64	2269.15
387.85	2416.60
388.06	2424.80
388.27	4122.56
388.48	8380.29
388.68	12046.15
388.89	14593.83
389.10	15609.62
389.31	14716.70
389.52	11280.21
389.73	9582.45
389.93	8869.75
390.14	8200.07
390.35	7282.58
390.56	6547.36
390.77	5283.76
390.98	4220.86
391.18	3319.76
391.39	2729.94
391.60	2336.73
391.81	2383.84
392.02	2273.25
392.23	2416.60
392.43	2199.52
392.64	2295.77
392.85	2299.87
393.06	2394.08
393.27	2265.05
393.47	2121.70
393.68	2203.61
393.89	2097.12
394.10	2394.08
394.31	2103.26
394.52	2125.79
394.72	2162.66
394.93	2269.15
395.14	2066.40
395.35	2295.77
395.56	2154.46
395.76	2203.61
395.97	2267.10
396.18	2361.31
396.39	2367.45
396.60	2664.41
396.80	2424.80
397.01	2310.11
397.22	2437.08
397.43	2414.56
397.64	2154.46
397.84	2258.91
398.05	2451.42
398.26	2265.05
398.47	2320.35
398.67	2281.44
398.88	2244.57
399.09	2269.15
399.30	2146.27
399.51	2205.66
399.71	2095.07
399.92	2170.85
400.13	2187.23
400.34	2187.23
400.54	2220.00
400.75	2357.21
400.96	2189.28
401.17	2324.44
401.37	2232.29
401.58	2213.85
401.79	2166.75
402.00	2312.16
402.21	2584.54
402.41	2539.48
402.62	2578.39
402.83	2731.99
403.04	2707.41
403.24	2754.52
403.45	2342.88
403.66	2416.60
403.87	2406.36
404.07	2486.23
404.28	2465.75
404.49	2375.64
404.70	2314.20
404.90	2299.87
405.11	2269.15
405.32	2197.47
405.52	2162.66
405.73	2162.66
405.94	2066.40
406.15	2232.29
406.35	2242.53
406.56	2332.64
406.77	2176.99
406.98	2207.71
407.18	2158.56
407.39	2291.68
407.60	2211.81
407.80	2281.44
408.01	2220.00
408.22	2260.96
408.43	2127.84
408.63	2267.10
408.84	2269.15
409.05	2226.14
409.25	2185.18
409.46	2115.55
409.67	2183.13
409.88	2123.74
410.08	2236.38
410.29	2193.37
410.50	2244.57
410.70	2285.53
410.91	2078.69
411.12	2160.61
411.32	2240.48
411.53	2205.66
411.74	2373.60
411.95	2291.68
412.15	2217.95
412.36	2340.83
412.57	2234.33
412.77	2324.44
412.98	2246.62
413.19	2222.05
413.39	2265.05
413.60	2293.72
413.81	2371.55
414.01	2109.41
414.22	2156.51
414.43	2275.29
414.63	2217.95
414.84	2312.16
415.05	2187.23
415.25	2084.83
415.46	2293.72
415.67	2099.17
415.87	2213.85
416.08	2185.18
416.29	2193.37
416.49	2211.81
416.70	2041.82
416.91	2168.80
417.11	2154.46
417.32	2297.82
417.53	2277.34
417.73	2269.15
417.94	2080.74
418.15	2211.81
418.35	2127.84
418.56	2230.24
418.77	2375.64
418.97	2256.86
419.18	2160.61
419.38	2062.30
419.59	2152.42
419.80	2371.55
420.00	2172.89
420.21	2256.86
420.42	2195.42
420.62	2191.33
420.83	2154.46
421.04	2099.17
421.24	2301.92
421.45	2377.69
421.65	2263.01
421.86	2144.22
422.07	2252.77
422.27	2281.44
422.48	2195.42
422.69	2080.74
422.89	2201.57
423.10	2103.26
423.30	2047.97
423.51	2201.57
423.72	2174.94
423.92	2265.05
424.13	2148.32
424.33	2176.99
424.54	2275.29
424.75	2201.57
424.95	2301.92
425.16	2207.71
425.36	2199.52
425.57	2277.34
425.78	2211.81
425.98	2193.37
426.19	2125.79
426.39	2060.26
426.60	2166.75
426.81	2316.25
427.01	2136.03
427.22	2119.65
427.42	2076.64
427.63	2187.23
427.83	2291.68
428.04	2318.30
428.25	2275.29
428.45	2346.97
428.66	2199.52
428.86	2191.33
429.07	2176.99
429.28	2209.76
429.48	2211.81
429.69	2113.50
429.89	2232.29
430.10	2054.11
430.30	2209.76
430.51	2289.63
430.71	2166.75
430.92	2209.76
431.13	2176.99
431.33	2187.23
431.54	2211.81
431.74	2318.30
431.95	2441.18
432.15	2138.08
432.36	2156.51
432.56	2275.29
432.77	2420.70
432.98	2361.31
433.18	2209.76
433.39	2217.95
433.59	2166.75
433.80	2349.02
434.00	2449.37
434.21	2154.46
434.41	2088.93
434.62	2349.02
434.82	1990.63
435.03	2066.40
435.23	2308.06
435.44	2166.75
435.64	2267.10
435.85	2181.09
436.06	2318.30
436.26	2260.96
436.47	2121.70
436.67	2152.42
436.88	2195.42
437.08	2326.49
437.29	2277.34
437.49	2189.28
437.70	2267.10
437.90	2211.81
438.11	2359.26
438.31	2258.91
438.52	2410.46
438.72	2428.89
438.93	2428.89
439.13	2234.33
439.34	2428.89
439.54	2244.57
439.75	2349.02
439.95	2306.01
440.16	2176.99
440.36	2297.82
440.57	2314.20
440.77	2269.15
440.98	2254.81
441.18	2197.47
441.39	2162.66
441.59	2142.18
441.80	2451.42
442.00	2205.66
442.21	2291.68
442.41	2041.82
442.62	2277.34
442.82	2162.66
443.02	2164.70
443.23	2271.20
443.43	2232.29
443.64	2422.75
443.84	2174.94
444.05	2346.97
444.25	2248.67
444.46	2131.94
444.66	2162.66
444.87	2277.34
445.07	2080.74
445.28	2277.34
445.48	2318.30
445.69	2209.76
445.89	2465.75
446.09	2252.77
446.30	2494.43
446.50	2818.00
446.71	4374.46
446.91	5627.82
447.12	6455.20
447.32	6815.64
447.53	6191.01
447.73	5183.41
447.93	4642.75
448.14	4136.90
448.34	4038.59
448.55	3612.62
448.75	3602.38
448.96	3319.76
449.16	3057.62
449.36	2818.00
449.57	2435.03
449.77	2295.77
449.98	2207.71
450.18	2285.53
450.39	2267.10
450.59	2334.68
450.79	2277.34
451.00	2246.62
451.20	2236.38
451.41	2185.18
451.61	2312.16
451.81	2224.09
452.02	2150.37
452.22	2197.47
452.43	2162.66
452.63	2176.99
452.84	2138.08
453.04	2150.37
453.24	2275.29
453.45	2144.22
453.65	2201.57
453.86	2226.14
454.06	2250.72
454.26	2291.68
454.47	2101.22
454.67	2361.31
454.87	2224.09
455.08	2217.95
455.28	2385.88
455.49	2244.57
455.69	2144.22
455.89	2430.94
456.10	2291.68
456.30	2195.42
456.51	2301.92
456.71	2236.38
456.91	2301.92
457.12	2174.94
457.32	2191.33
457.52	2107.36
457.73	2293.72
457.93	2332.64
458.14	2250.72
458.34	2052.06
458.54	2195.42
458.75	2232.29
458.95	2306.01
459.15	2213.85
459.36	2273.25
459.56	2236.38
459.76	2441.18
459.97	2170.85
460.17	2181.09
460.37	2236.38
460.58	2154.46
460.78	2299.87
460.99	2142.18
461.19	2150.37
461.39	2113.50
461.60	2183.13
461.80	2248.67
462.00	2197.47
462.21	2226.14
462.41	2136.03
462.61	2115.55
462.82	2043.87
463.02	2334.68
463.22	2148.32
463.43	2238.43
463.63	2164.70
463.83	2326.49
464.04	2193.37
464.24	2277.34
464.44	2162.66
464.64	2203.61
464.85	2242.53
465.05	2291.68
465.25	2203.61
465.46	2187.23
465.66	2394.08
465.86	2228.19
466.07	2267.10
466.27	2160.61
466.47	2093.02
466.68	2047.97
466.88	2396.12
467.08	2207.71
467.29	2252.77
467.49	2222.05
467.69	2201.57
467.89	2252.77
468.10	2121.70
468.30	2209.76
468.50	2334.68
468.71	2285.53
468.91	2105.31
469.11	2316.25
469.31	2260.96
469.52	2146.27
469.72	2383.84
469.92	2283.49
470.13	2129.89
470.33	2224.09
470.53	2334.68
470.73	2611.16
470.94	3047.38
471.14	3227.60
471.34	3616.71
471.54	3497.93
471.75	3104.72
471.95	2891.73
472.15	2801.62
472.36	2785.24
472.56	2770.90
472.76	2756.57
472.96	2613.21
473.17	2588.63
473.37	2475.99
473.57	2346.97
473.77	2355.16
473.98	2293.72
474.18	2109.41
474.38	2484.19
474.58	2109.41
474.79	2078.69
474.99	2213.85
475.19	2209.76
475.39	2138.08
475.60	2277.34
475.80	2207.71
476.00	2258.91
476.20	2133.98
476.41	2217.95
476.61	2279.39
476.81	2332.64
477.01	2023.39
477.21	2338.78
477.42	2340.83
477.62	2097.12
477.82	2256.86
478.02	2119.65
478.23	2166.75
478.43	2099.17
478.63	2133.98
478.83	2281.44
479.03	2142.18
479.24	2326.49
479.44	2402.27
479.64	2144.22
479.84	1982.43
480.04	2129.89
480.25	2285.53
480.45	2115.55
480.65	2101.22
480.85	2392.03
481.06	2160.61
481.26	2217.95
481.46	2244.57
481.66	2191.33
481.86	2121.70
482.06	2285.53
482.27	2101.22
482.47	2148.32
482.67	2351.07
482.87	2220.00
483.07	2318.30
483.28	2105.31
483.48	2070.50
483.68	2136.03
483.88	2054.11
484.08	1990.63
484.29	2084.83
484.49	2201.57
484.69	2123.74
484.89	2297.82
485.09	2318.30
485.29	2222.05
485.50	2226.14
485.70	2187.23
485.90	2322.40
486.10	2248.67
486.30	2220.00
486.50	2248.67
486.71	2289.63
486.91	2279.39
487.11	2318.30
487.31	2111.46
487.51	2334.68
487.71	2211.81
487.91	2117.60
488.12	2093.02
488.32	1910.75
488.52	2125.79
488.72	2088.93
488.92	2150.37
489.12	2314.20
489.32	2252.77
489.53	2306.01
489.73	2127.84
489.93	2301.92
490.13	2086.88
490.33	2105.31
490.53	2250.72
490.73	2381.79
490.94	2133.98
491.14	2271.20
491.34	2289.63
491.54	2471.90
491.74	3065.81
491.94	3925.96
492.14	4048.83
492.34	4042.69
492.54	3788.74
492.75	3209.17
492.95	3157.97
493.15	2940.88
493.35	2904.02
493.55	2858.96
493.75	2682.84
493.95	2688.98
494.15	2516.95
494.35	2349.02
494.56	2217.95
494.76	2238.43
494.96	2211.81
495.16	2193.37
495.36	2209.76
495.56	2260.96
495.76	2238.43
495.96	2224.09
496.16	2150.37
496.36	2410.46
496.56	2256.86
496.77	2240.48
496.97	2168.80
497.17	2385.88
497.37	2082.78
497.57	2246.62
497.77	2211.81
497.97	2189.28
498.17	2117.60
498.37	2179.04
498.57	2293.72
498.77	2144.22
498.97	2179.04
499.17	2430.94
499.38	2185.18
499.58	2232.29
499.78	2297.82
499.98	2285.53
500.18	2277.34
500.38	2138.08
500.58	2373.60
500.78	2828.24
500.98	5164.98
501.18	7270.29
501.38	8994.68
501.58	9946.98
501.78	9770.86
501.98	7933.83
502.18	6541.21
502.38	5539.76
502.58	5181.36
502.78	4612.03
502.98	4493.24
503.18	4358.08
503.38	3905.48
503.59	3497.93
503.79	3258.32
503.99	2938.84
504.19	2877.40
504.39	2912.21
504.59	2963.41
504.79	2830.29
504.99	2791.38
505.19	2566.10
505.39	2504.67
505.59	2592.73
505.79	2516.95
505.99	2416.60
506.19	2375.64
506.39	2457.56
506.59	2236.38
506.79	2281.44
506.99	2412.51
507.19	2228.19
507.39	2211.81
507.59	2031.58
507.79	2181.09
507.99	2158.56
508.19	2273.25
508.39	2152.42
508.59	2209.76
508.79	2254.81
508.99	2404.32
509.19	2160.61
509.39	2340.83
509.59	2136.03
509.79	2131.94
509.99	2322.40
510.19	2318.30
510.39	2334.68
510.59	2224.09
510.79	2224.09
510.99	2095.07
511.19	2207.71
511.39	2418.65
511.59	2301.92
511.79	2383.84
511.99	2197.47
512.19	2455.51
512.38	2301.92
512.58	2164.70
512.78	2201.57
512.98	2328.54
513.18	2414.56
513.38	2064.35
513.58	2330.59
513.78	2191.33
513.98	2215.90
514.18	2254.81
514.38	2201.57
514.58	2222.05
514.78	2160.61
514.98	2220.00
515.18	2109.41
515.38	2105.31
515.58	2318.30
515.78	2201.57
515.98	2164.70
516.18	2267.10
516.38	2224.09
516.57	2160.61
516.77	2121.70
516.97	2291.68
517.17	2144.22
517.37	2031.58
517.57	2236.38
517.77	2211.81
517.97	2101.22
518.17	2303.96
518.37	2078.69
518.57	2064.35
518.77	2176.99
518.97	2193.37
519.16	2224.09
519.36	2306.01
519.56	2164.70
519.76	2174.94
519.96	2185.18
520.16	2324.44
520.36	2119.65
520.56	2330.59
520.76	2127.84
520.96	2267.10
521.16	2256.86
521.35	2312.16
521.55	2344.92
521.75	2277.34
521.95	2117.60
522.15	2170.85
522.35	2121.70
522.55	2117.60
522.75	2209.76
522.95	2191.33
523.14	2121.70
523.34	2181.09
523.54	2111.46
523.74	2260.96
523.94	2232.29
524.14	2064.35
524.34	2238.43
524.54	2232.29
524.73	2217.95
524.93	2191.33
525.13	2220.00
525.33	2054.11
525.53	2416.60
525.73	2324.44
525.93	2228.19
526.13	2174.94
526.32	2176.99
526.52	2281.44
526.72	2260.96
526.92	2179.04
527.12	2179.04
527.32	2144.22
527.52	2310.11
527.71	2228.19
527.91	2240.48
528.11	2189.28
528.31	2111.46
528.51	2133.98
528.71	2256.86
528.90	2301.92
529.10	2291.68
529.30	2314.20
529.50	2052.06
529.70	2203.61
529.90	2203.61
530.09	2260.96
530.29	2074.59
530.49	2047.97
530.69	2412.51
530.89	2183.13
531.09	2252.77
531.28	2150.37
531.48	2349.02
531.68	2148.32
531.88	2236.38
532.08	2299.87
532.28	2207.71
532.47	2244.57
532.67	2297.82
532.87	2256.86
533.07	2138.08
533.27	2383.84
533.46	2279.39
533.66	2301.92
533.86	2254.81
534.06	2258.91
534.26	2236.38
534.45	2226.14
534.65	2340.83
534.85	2209.76
535.05	2242.53
535.25	2369.50
535.44	2097.12
535.64	2250.72
535.84	2179.04
536.04	2179.04
536.24	2131.94
536.43	2203.61
536.63	2189.28
536.83	2199.52
537.03	2205.66
537.22	2039.78
537.42	2090.98
537.62	2252.77
537.82	2162.66
538.02	2326.49
538.21	2299.87
538.41	2502.62
538.61	2283.49
538.81	2195.42
539.00	2318.30
539.20	2129.89
539.40	2176.99
539.60	2209.76
539.79	2310.11
539.99	2228.19
540.19	2093.02
540.39	2181.09
540.58	2246.62
540.78	2308.06
540.98	2289.63
541.18	2215.90
541.37	2242.53
541.57	2236.38
541.77	2183.13
541.97	2107.36
542.16	2107.36
542.36	2105.31
542.56	2146.27
542.76	2375.64
542.95	2326.49
543.15	2246.62
543.35	2306.01
543.54	2174.94
543.74	2129.89
543.94	2326.49
544.14	2199.52
544.33	2183.13
544.53	2150.37
544.73	2195.42
544.93	2162.66
545.12	2168.80
545.32	2271.20
545.52	2224.09
545.71	2146.27
545.91	2168.80
546.11	2146.27
546.30	2068.45
546.50	2181.09
546.70	2244.57
546.90	2277.34
547.09	1943.52
547.29	2236.38
547.49	2373.60
547.68	2224.09
547.88	2154.46
548.08	2244.57
548.27	2748.37
548.47	2080.74
548.67	2158.56
548.87	2314.20
549.06	2193.37
549.26	2207.71
549.46	2254.81
549.65	2160.61
549.85	2301.92
550.05	2285.53
550.24	2119.65
550.44	2189.28
550.64	2211.81
550.83	2172.89
551.03	2308.06
551.23	2271.20
551.42	2283.49
551.62	2195.42
551.82	2187.23
552.01	2148.32
552.21	2318.30
552.41	2246.62
552.60	2336.73
552.80	2228.19
553.00	2129.89
553.19	2203.61
553.39	2353.12
553.59	2152.42
553.78	2295.77
553.98	2185.18
554.17	2086.88
554.37	2252.77
554.57	2252.77
554.76	2066.40
554.96	2215.90
555.16	2277.34
555.35	2228.19
555.55	2334.68
555.75	2256.86
555.94	2234.33
556.14	2113.50
556.33	2269.15
556.53	2211.81
556.73	2164.70
556.92	2334.68
557.12	2271.20
557.32	2351.07
557.51	2377.69
557.71	2260.96
557.90	2279.39
558.10	2318.30
558.30	2187.23
558.49	2191.33
558.69	2158.56
558.88	2240.48
559.08	2168.80
559.28	2226.14
559.47	2244.57
559.67	2297.82
559.86	2371.55
560.06	2248.67
560.26	2129.89
560.45	2340.83
560.65	2260.96
560.84	2385.88
561.04	2156.51
561.24	2242.53
561.43	2095.07
561.63	2297.82
561.82	2220.00
562.02	2314.20
562.22	2125.79
562.41	2179.04
562.61	2195.42
562.80	2035.68
563.00	2422.75
563.19	2230.24
563.39	2246.62
563.59	2267.10
563.78	2080.74
563.98	2043.87
564.17	2115.55
564.37	2025.44
564.56	2271.20
564.76	1984.48
564.96	2340.83
565.15	2265.05
565.35	2369.50
565.54	2185.18
565.74	2260.96
565.93	2209.76
566.13	2252.77
566.32	2260.96
566.52	2234.33
566.71	2248.67
566.91	2277.34
567.11	2168.80
567.30	2138.08
567.50	2318.30
567.69	2191.33
567.89	2193.37
568.08	2162.66
568.28	2256.86
568.47	2201.57
568.67	2265.05
568.86	2133.98
569.06	2326.49
569.25	2203.61
569.45	2168.80
569.64	2230.24
569.84	2242.53
570.04	2275.29
570.23	2111.46
570.43	2291.68
570.62	2228.19
570.82	2359.26
571.01	2138.08
571.21	2111.46
571.40	2236.38
571.60	2252.77
571.79	2318.30
571.99	2279.39
572.18	2072.54
572.38	2256.86
572.57	2162.66
572.77	2314.20
572.96	2463.71
573.16	2203.61
573.35	2203.61
573.55	2318.30
573.74	2236.38
573.94	2193.37
574.13	2117.60
574.33	2281.44
574.52	2349.02
574.71	2271.20
574.91	2256.86
575.10	2054.11
575.30	2111.46
575.49	2152.42
575.69	2105.31
575.88	2265.05
576.08	2181.09
576.27	2279.39
576.47	2248.67
576.66	2455.51
576.86	2365.40
577.05	2283.49
577.25	2318.30
577.44	2385.88
577.64	2211.81
577.83	2334.68
578.02	2285.53
578.22	2301.92
578.41	2432.99
578.61	2222.05
578.80	2072.54
579.00	2265.05
579.19	2301.92
579.39	2301.92
579.58	2351.07
579.77	2232.29
579.97	2291.68
580.16	2367.45
580.36	2416.60
580.55	2312.16
580.75	2258.91
580.94	2349.02
581.13	2418.65
581.33	2396.12
581.52	2238.43
581.72	2504.67
581.91	2392.03
582.11	2195.42
582.30	2299.87
582.49	2289.63
582.69	2389.98
582.88	2279.39
583.08	2275.29
583.27	2332.64
583.47	2283.49
583.66	2222.05
583.85	2164.70
584.05	2248.67
584.24	2322.40
584.44	2289.63
584.63	2367.45
584.82	2426.84
585.02	2349.02
585.21	2451.42
585.41	2430.94
585.60	2349.02
585.79	2555.86
585.99	2439.13
586.18	2367.45
586.37	2916.31
586.57	4509.63
586.76	13252.41
586.96	32359.95
587.15	46015.81
587.34	55577.78
587.54	61043.80
587.73	55987.37
587.93	39263.66
588.12	29640.25
588.31	23813.78
588.51	20545.22
588.70	19248.86
588.89	17235.70
589.09	15187.74
589.28	12883.77
589.47	10741.60
589.67	8380.29
589.86	6477.73
590.06	4784.06
590.25	3801.03
590.44	3194.83
590.64	2699.22
590.83	2611.16
591.02	2455.51
591.22	2328.54
591.41	2379.74
591.60	2232.29
591.80	2559.96
591.99	2072.54
592.18	2179.04
592.38	2355.16
592.57	2166.75
592.76	2195.42
592.96	2283.49
593.15	2254.81
593.34	2342.88
593.54	2275.29
593.73	2269.15
593.92	2320.35
594.12	2324.44
594.31	2310.11
594.50	2346.97
594.70	2318.30
594.89	2568.15
595.08	2097.12
595.28	2299.87
595.47	2478.04
595.66	2297.82
595.86	2168.80
596.05	2195.42
596.24	2263.01
596.43	2406.36
596.63	2316.25
596.82	2275.29
597.01	2328.54
597.21	2357.21
597.40	2293.72
597.59	2301.92
597.79	2258.91
597.98	2355.16
598.17	2234.33
598.36	2310.11
598.56	2328.54
598.75	2187.23
598.94	2250.72
599.14	2258.91
599.33	2142.18
599.52	2228.19
599.71	2267.10
599.91	2297.82
600.10	2306.01
600.29	2195.42
600.48	2230.24
600.68	2330.59
600.87	2299.87
601.06	2209.76
601.26	2168.80
601.45	2281.44
601.64	2250.72
601.83	2316.25
602.03	2228.19
602.22	2099.17
602.41	2291.68
602.60	2488.28
602.80	2324.44
602.99	2314.20
603.18	2199.52
603.37	2260.96
603.57	2269.15
603.76	2303.96
603.95	2338.78
604.14	2254.81
604.34	2140.13
604.53	2234.33
604.72	2236.38
604.91	2234.33
605.10	2236.38
605.30	2113.50
605.49	2435.03
605.68	2301.92
605.87	2306.01
606.07	2088.93
606.26	2342.88
606.45	2336.73
606.64	2240.48
606.84	2215.90
607.03	2267.10
607.22	2342.88
607.41	2242.53
607.60	2312.16
607.80	2338.78
607.99	2236.38
608.18	2156.51
608.37	2191.33
608.56	2174.94
608.76	2340.83
608.95	2414.56
609.14	2308.06
609.33	2383.84
609.52	2426.84
609.72	2330.59
609.91	2363.36
610.10	2236.38
610.29	2387.93
610.48	2328.54
610.68	2301.92
610.87	2252.77
611.06	2310.11
611.25	2226.14
611.44	2332.64
611.63	2215.90
611.83	2320.35
612.02	2115.55
612.21	2351.07
612.40	2039.78
612.59	2133.98
612.79	2123.74
612.98	2185.18
613.17	2416.60
613.36	2201.57
613.55	2400.22
613.74	2297.82
613.93	2428.89
614.13	2426.84
614.32	2486.23
614.51	2435.03
614.70	2334.68
614.89	2232.29
615.08	2334.68
615.28	2809.81
615.47	2174.94
615.66	2267.10
615.85	2258.91
616.04	2435.03
616.23	2267.10
616.42	2248.67
616.62	2224.09
616.81	2332.64
617.00	2232.29
617.19	2334.68
617.38	2201.57
617.57	2287.58
617.76	2258.91
617.95	2308.06
618.15	2363.36
618.34	2402.27
618.53	2111.46
618.72	2269.15
618.91	2297.82
619.10	2293.72
619.29	2172.89
619.48	2273.25
619.68	2142.18
619.87	2224.09
620.06	2088.93
620.25	2172.89
620.44	2142.18
620.63	2127.84
620.82	2203.61
621.01	2226.14
621.20	2164.70
621.39	2363.36
621.59	2260.96
621.78	2166.75
621.97	2236.38
622.16	2314.20
622.35	2222.05
622.54	2248.67
622.73	2357.21
622.92	2072.54
623.11	2346.97
623.30	2162.66
623.49	2234.33
623.68	2140.13
623.88	2334.68
624.07	2228.19
624.26	2152.42
624.45	2213.85
624.64	2119.65
624.83	2222.05
625.02	2222.05
625.21	2183.13
625.40	2207.71
625.59	2314.20
625.78	2193.37
625.97	2349.02
626.16	2439.13
626.35	2412.51
626.54	2316.25
626.74	2420.70
626.93	2228.19
627.12	2263.01
627.31	2234.33
627.50	2277.34
627.69	2295.77
627.88	2172.89
628.07	2181.09
628.26	2146.27
628.45	2138.08
628.64	2228.19
628.83	2230.24
629.02	2095.07
629.21	2273.25
629.40	2197.47
629.59	2166.75
629.78	2217.95
629.97	2236.38
630.16	2199.52
630.35	2166.75
630.54	2211.81
630.73	2103.26
630.92	2185.18
631.11	2162.66
631.30	2238.43
631.49	2265.05
631.68	2174.94
631.87	2234.33
632.06	2078.69
632.25	2496.47
632.44	2269.15
632.63	2312.16
632.82	2207.71
633.01	2207.71
633.20	2349.02
633.39	2256.86
633.58	2144.22
633.77	2267.10
633.96	2373.60
634.15	2248.67
634.34	2351.07
634.53	2228.19
634.72	2140.13
634.91	1988.58
635.10	2217.95
635.29	2256.86
635.48	2209.76
635.67	2086.88
635.86	2107.36
636.05	2377.69
636.24	2193.37
636.43	2195.42
636.62	2201.57
636.81	2101.22
637.00	2174.94
637.19	2271.20
637.38	2168.80
637.57	2215.90
637.76	2252.77
637.95	2371.55
638.14	2244.57
638.33	2332.64
638.52	2316.25
638.71	2113.50
638.89	2144.22
639.08	2570.20
639.27	2453.47
639.46	2486.23
639.65	2850.77
639.84	3016.66
640.03	3117.01
640.22	2957.27
640.41	2936.79
640.60	2635.74
640.79	2541.53
640.98	2371.55
641.17	2514.91
641.36	2445.27
641.55	2498.52
641.74	2140.13
641.92	2168.80
642.11	2187.23
642.30	2183.13
642.49	2131.94
642.68	2074.59
642.87	2267.10
643.06	2242.53
643.25	2156.51
643.44	2158.56
643.63	2228.19
643.82	2271.20
644.00	2082.78
644.19	2193.37
644.38	2105.31
644.57	2289.63
644.76	2195.42
644.95	2226.14
645.14	2265.05
645.33	2144.22
645.52	2224.09
645.71	2115.55
645.89	2154.46
646.08	2226.14
646.27	2201.57
646.46	2357.21
646.65	2056.16
646.84	2170.85
647.03	2072.54
647.22	2330.59
647.40	2285.53
647.59	2146.27
647.78	2047.97
647.97	2193.37
648.16	2066.40
648.35	2271.20
648.54	2293.72
648.73	2113.50
648.91	2273.25
649.10	2179.04
649.29	2152.42
649.48	2232.29
649.67	2226.14
649.86	2242.53
650.05	2281.44
650.23	2406.36
650.42	2277.34
650.61	2559.96
650.80	2500.57
650.99	2504.67
651.18	2373.60
651.36	2387.93
651.55	2308.06
651.74	2289.63
651.93	2242.53
652.12	2260.96
652.31	2222.05
652.49	2133.98
652.68	2166.75
652.87	2312.16
653.06	2332.64
653.25	2351.07
653.44	2285.53
653.62	2353.12
653.81	2158.56
654.00	2166.75
654.19	2351.07
654.38	2506.71
654.56	2269.15
654.75	2121.70
654.94	2263.01
655.13	2238.43
655.32	2203.61
655.51	2285.53
655.69	2191.33
655.88	2252.77
656.07	2162.66
656.26	2273.25
656.45	2070.50
656.63	2162.66
656.82	2113.50
657.01	2285.53
657.20	2193.37
657.38	2408.41
657.57	2226.14
657.76	2029.54
657.95	2312.16
658.14	2133.98
658.32	2209.76
658.51	2140.13
658.70	2226.14
658.89	2228.19
659.08	2234.33
659.26	2435.03
659.45	2101.22
659.64	2260.96
659.83	2193.37
660.01	2519.00
660.20	2226.14
660.39	2412.51
660.58	2054.11
660.76	2232.29
660.95	2097.12
661.14	2213.85
661.33	2095.07
661.51	2209.76
661.70	2220.00
661.89	2273.25
662.08	2183.13
662.26	2080.74
662.45	2150.37
662.64	2369.50
662.83	2201.57
663.01	2000.87
663.20	2146.27
663.39	2375.64
663.58	2107.36
663.76	2160.61
663.95	2322.40
664.14	2068.45
664.32	2121.70
664.51	2093.02
664.70	1925.09
664.89	2248.67
665.07	2084.83
665.26	2326.49
665.45	2129.89
665.64	2306.01
665.82	2232.29
666.01	2291.68
666.20	2119.65
666.38	2379.74
666.57	2344.92
666.76	3309.52
666.95	8052.61
667.13	16463.62
667.32	21878.45
667.51	25656.95
667.69	27870.81
667.88	25443.96
668.07	17975.02
668.25	14659.36
668.44	11804.49
668.63	10481.50
668.81	9058.17
669.00	8007.56
669.19	7106.45
669.38	6223.78
669.56	5234.61
669.75	4423.61
669.94	3669.96
670.12	3063.76
670.31	2791.38
670.50	2627.54
670.68	2467.80
670.87	2385.88
671.06	2277.34
671.24	2330.59
671.43	2449.37
671.62	2340.83
671.80	2179.04
671.99	2279.39
672.18	2265.05
672.36	2297.82
672.55	2232.29
672.74	2220.00
672.92	2189.28
673.11	2373.60
673.29	2105.31
673.48	2260.96
673.67	2174.94
673.85	2258.91
674.04	2181.09
674.23	2254.81
674.41	2340.83
674.60	2121.70
674.79	2095.07
674.97	2152.42
675.16	2277.34
675.34	2277.34
675.53	2160.61
675.72	2267.10
675.90	2365.40
676.09	2187.23
676.28	2185.18
676.46	2109.41
676.65	2316.25
676.83	2058.21
677.02	2240.48
677.21	2273.25
677.39	2220.00
677.58	2093.02
677.77	2154.46
677.95	2062.30
678.14	2148.32
678.32	2176.99
678.51	2121.70
678.70	2398.17
678.88	2150.37
679.07	2220.00
679.25	2129.89
679.44	2105.31
679.63	2119.65
679.81	2277.34
680.00	2301.92
680.18	2287.58
680.37	2291.68
680.55	2203.61
680.74	2047.97
680.93	2017.25
681.11	2228.19
681.30	2201.57
681.48	2199.52
681.67	2187.23
681.85	2224.09
682.04	2080.74
682.23	2269.15
682.41	2217.95
682.60	2281.44
682.78	2258.91
682.97	2086.88
683.15	2187.23
683.34	2306.01
683.53	2383.84
683.71	2097.12
683.90	2299.87
684.08	2349.02
684.27	2238.43
684.45	2297.82
684.64	2265.05
684.82	2183.13
685.01	2179.04
685.19	2170.85
685.38	2408.41
685.57	2179.04
685.75	2078.69
685.94	2176.99
686.12	2154.46
686.31	2144.22
686.49	2340.83
686.68	2078.69
686.86	2203.61
687.05	2203.61
687.23	2336.73
687.42	2103.26
687.60	2152.42
687.79	2365.40
687.97	2375.64
688.16	2244.57
688.34	2293.72
688.53	1941.47
688.71	2226.14
688.90	2277.34
689.08	2152.42
689.27	2070.50
689.45	2260.96
689.64	2244.57
689.82	2191.33
690.01	2220.00
690.19	2275.29
690.38	2170.85
690.56	2291.68
690.75	2041.82
690.93	2187.23
691.12	2129.89
691.30	2238.43
691.49	2168.80
691.67	2179.04
691.86	2344.92
692.04	2170.85
692.23	2240.48
692.41	2203.61
692.60	2449.37
692.78	2381.79
692.97	2357.21
693.15	2332.64
693.34	2484.19
693.52	2301.92
693.71	2211.81
693.89	2183.13
694.08	2076.64
694.26	2310.11
694.44	2234.33
694.63	2265.05
694.81	2088.93
695.00	2136.03
695.18	2334.68
695.37	2430.94
695.55	2195.42
695.74	2146.27
695.92	2142.18
696.10	2326.49
696.29	2035.68
696.47	2129.89
696.66	2099.17
696.84	2101.22
697.03	2176.99
697.21	2351.07
697.40	3176.40
697.58	2310.11
697.76	2207.71
697.95	2191.33
698.13	2074.59
698.32	2070.50
698.50	2209.76
698.68	2324.44
698.87	2164.70
699.05	2359.26
699.24	2164.70
699.42	2125.79
699.61	2279.39
699.79	2168.80
699.97	2150.37
700.16	2125.79
700.34	2123.74
700.53	2287.58
700.71	2328.54
700.89	2172.89
701.08	2271.20
701.26	2158.56
701.45	2744.28
701.63	2121.70
701.81	2189.28
702.00	2220.00
702.18	2183.13
702.37	2234.33
702.55	2404.32
702.73	2451.42
702.92	2318.30
703.10	2527.19
703.28	2449.37
703.47	2260.96
703.65	2449.37
703.84	2281.44
704.02	2269.15
704.20	2422.75
704.39	2170.85
704.57	2299.87
704.75	2334.68
704.94	2351.07
705.12	2299.87
705.30	2510.81
705.49	4497.34
705.67	10936.15
705.86	19887.82
706.04	24288.91
706.22	27625.05
706.41	29193.79
706.59	24649.35
706.77	17622.77
706.96	14581.54
707.14	12728.13
707.32	10667.87
707.51	9473.90
707.69	7743.37
707.87	6508.44
708.06	5167.03
708.24	4155.33
708.42	3256.27
708.61	3033.04
708.79	2414.56
708.97	2377.69
709.16	2430.94
709.34	2275.29
709.52	2295.77
709.71	2207.71
709.89	2273.25
710.07	2113.50
710.26	2152.42
710.44	2179.04
710.62	2258.91
710.80	2174.94
710.99	2320.35
711.17	2273.25
711.35	2105.31
711.54	2090.98
711.72	2346.97
711.90	2240.48
712.09	2185.18
712.27	2220.00
712.45	2201.57
712.63	2201.57
712.82	2258.91
713.00	2211.81
713.18	2222.05
713.37	2338.78
713.55	2263.01
713.73	2232.29
713.91	2232.29
714.10	2211.81
714.28	2207.71
714.46	2248.67
714.65	2185.18
714.83	2228.19
715.01	2220.00
715.19	2170.85
715.38	2125.79
715.56	2250.72
715.74	2064.35
715.92	2097.12
716.11	2359.26
716.29	2050.02
716.47	2187.23
716.65	2199.52
716.84	2084.83
717.02	2271.20
717.20	2095.07
717.38	2156.51
717.57	2252.77
717.75	2146.27
717.93	2093.02
718.11	2260.96
718.30	2099.17
718.48	2129.89
718.66	2236.38
718.84	2277.34
719.03	2152.42
719.21	2031.58
719.39	2416.60
719.57	2246.62
719.75	2318.30
719.94	2101.22
720.12	2127.84
720.30	2187.23
720.48	2289.63
720.67	2144.22
720.85	2078.69
721.03	2154.46
721.21	2103.26
721.39	2209.76
721.58	2185.18
721.76	2162.66
721.94	2260.96
722.12	2222.05
722.30	2324.44
722.49	2152.42
722.67	2211.81
722.85	2207.71
723.03	2088.93
723.21	2158.56
723.40	2256.86
723.58	2277.34
723.76	2326.49
723.94	2432.99
724.12	2254.81
724.30	2398.17
724.49	2416.60
724.67	2156.51
724.85	2359.26
725.03	2123.74
725.21	2277.34
725.40	2318.30
725.58	2185.18
725.76	2316.25
725.94	2248.67
726.12	2117.60
726.30	2166.75
726.49	2105.31
726.67	2193.37
726.85	2238.43
727.03	2519.00
727.21	3592.14
727.39	5412.78
727.57	6360.99
727.76	7214.99
727.94	7632.78
728.12	6993.81
728.30	5875.62
728.48	4949.94
728.66	4456.38
728.84	4112.32
729.03	3530.70
729.21	3153.87
729.39	2762.71
729.57	2498.52
729.75	2473.95
729.93	2355.16
730.11	2174.94
730.30	2189.28
730.48	2217.95
730.66	2320.35
730.84	2281.44
731.02	2242.53
731.20	2146.27
731.38	2211.81
731.56	2056.16
731.74	2113.50
731.93	2220.00
732.11	2209.76
732.29	2168.80
732.47	2293.72
732.65	2172.89
732.83	2277.34
733.01	2217.95
733.19	2078.69
733.37	2297.82
733.56	2211.81
733.74	2152.42
733.92	2342.88
734.10	2203.61
734.28	2211.81
734.46	2093.02
734.64	2154.46
734.82	2093.02
735.00	2195.42
735.18	2138.08
735.36	2279.39
735.54	2271.20
735.73	2238.43
735.91	2187.23
736.09	2314.20
736.27	2189.28
736.45	2234.33
736.63	2062.30
736.81	2230.24
736.99	2260.96
737.17	2318.30
737.35	2107.36
737.53	2267.10
737.71	2138.08
737.89	2322.40
738.07	2133.98
738.25	2070.50
738.43	2013.15
738.61	2195.42
738.80	2125.79
738.98	2117.60
739.16	2193.37
739.34	2080.74
739.52	2306.01
739.70	2185.18
739.88	2285.53
740.06	2289.63
740.24	1986.53
740.42	2332.64
740.60	2088.93
740.78	2119.65
740.96	1990.63
741.14	2213.85
741.32	2228.19
741.50	2113.50
741.68	2355.16
741.86	2320.35
742.04	2054.11
742.22	2041.82
742.40	2158.56
742.58	2289.63
742.76	2162.66
742.94	2301.92
743.12	2080.74
743.30	2209.76
743.48	2293.72
743.66	2148.32
743.84	2316.25
744.02	2168.80
744.20	2136.03
744.38	2099.17
744.56	2117.60
744.74	2406.36
744.92	2246.62
745.10	2283.49
745.28	2277.34
745.46	2308.06
745.64	2152.42
745.82	2301.92
746.00	2179.04
746.18	2236.38
746.36	2131.94
746.54	2201.57
746.72	2260.96
746.90	2109.41
747.08	2254.81
747.26	2205.66
747.44	2222.05
747.62	2252.77
747.80	2179.04
747.98	2228.19
748.15	2195.42
748.33	2449.37
748.51	2260.96
748.69	2260.96
748.87	2105.31
749.05	2129.89
749.23	2256.86
749.41	2217.95
749.59	2222.05
749.77	2324.44
749.95	2189.28
750.13	2119.65
750.31	2236.38
750.49	2170.85
750.67	2291.68
750.85	2373.60
751.03	2269.15
751.20	2400.22
751.38	2207.71
751.56	2185.18
751.74	2226.14
751.92	2105.31
752.10	2039.78
752.28	2283.49
752.46	2144.22
752.64	2174.94
752.82	2183.13
753.00	2260.96
753.18	2156.51
753.35	2150.37
753.53	2215.90
753.71	2215.90
753.89	2324.44
754.07	2183.13
754.25	2330.59
754.43	2174.94
754.61	2162.66
754.79	2334.68
754.97	2195.42
755.14	2324.44
755.32	2099.17
755.50	2207.71
755.68	2199.52
755.86	2068.45
756.04	2166.75
756.22	2107.36
756.40	2244.57
756.57	2340.83
756.75	2179.04
756.93	2299.87
757.11	2293.72
757.29	2140.13
757.47	2121.70
757.65	1998.82
757.82	2078.69
758.00	2119.65
758.18	2113.50
758.36	2076.64
758.54	2279.39
758.72	2095.07
758.90	2267.10
759.07	2291.68
759.25	2097.12
759.43	2160.61
759.61	2068.45
759.79	2998.23
759.97	2308.06
760.15	2152.42
760.32	2123.74
760.50	2164.70
760.68	2383.84
760.86	2035.68
761.04	2357.21
761.22	2291.68
761.39	2150.37
761.57	2203.61
761.75	2189.28
761.93	2295.77
762.11	2146.27
762.28	2152.42
762.46	2086.88
762.64	2318.30
762.82	2041.82
763.00	2213.85
763.18	2291.68
763.35	2172.89
763.53	2179.04
763.71	2232.29
763.89	2197.47
764.07	2174.94
764.24	2211.81
764.42	2281.44
764.60	2170.85
764.78	2162.66
764.96	2324.44
765.13	2258.91
765.31	2164.70
765.49	2289.63
765.67	2115.55
765.84	2113.50
766.02	2160.61
766.20	2131.94
766.38	2211.81
766.56	2269.15
766.73	2211.81
766.91	2152.42
767.09	2226.14
767.27	2244.57
767.44	2060.26
767.62	2236.38
767.80	2242.53
767.98	2121.70
768.15	2146.27
768.33	2181.09
768.51	2189.28
768.69	2248.67
768.87	2281.44
769.04	2201.57
769.22	2412.51
769.40	2392.03
769.58	2394.08
769.75	2263.01
769.93	2232.29
770.11	2168.80
770.28	2099.17
770.46	2244.57
770.64	2203.61
770.82	2193.37
770.99	2127.84
771.17	2215.90
771.35	2113.50
771.53	2101.22
771.70	2162.66
771.88	2232.29
772.06	2215.90
772.23	2170.85
772.41	2242.53
772.59	2093.02
772.77	2070.50
772.94	2179.04
773.12	2265.05
773.30	2131.94
773.47	2256.86
773.65	2144.22
773.83	2334.68
774.01	2152.42
774.18	2103.26
774.36	2148.32
774.54	2119.65
774.71	2303.96
774.89	2066.40
775.07	2080.74
775.24	2150.37
775.42	2101.22
775.60	2344.92
775.78	2152.42
775.95	2013.15
776.13	2025.44
776.31	2037.73
776.48	2256.86
776.66	2310.11
776.84	2162.66
777.01	2090.98
777.19	2093.02
777.37	2109.41
777.54	2269.15
777.72	2420.70
777.90	2248.67
778.07	2121.70
778.25	2523.10
778.43	2277.34
778.60	2103.26
778.78	2275.29
778.96	2387.93
779.13	2056.16
779.31	2236.38
779.49	2222.05
779.66	2166.75
779.84	2181.09
780.01	2234.33
780.19	2125.79
780.37	2297.82
780.54	2217.95
780.72	2068.45
780.90	2176.99
781.07	2185.18
781.25	2123.74
781.43	2207.71
781.60	2197.47
781.78	2275.29
781.95	2226.14
782.13	2138.08
782.31	2222.05
782.48	2056.16
782.66	2195.42
782.83	2389.98
783.01	2187.23
783.19	2252.77
783.36	2103.26
783.54	2095.07
783.72	2224.09
783.89	2072.54
784.07	2252.77
784.24	2211.81
784.42	2355.16
784.60	2199.52
784.77	2181.09
784.95	2058.21
785.12	2117.60
785.30	2176.99
785.47	2060.26
785.65	2037.73
785.83	2207.71
786.00	2213.85
786.18	2179.04
786.35	2080.74
786.53	2084.83
786.71	2308.06
786.88	2271.20
787.06	2250.72
787.23	2166.75
787.41	2146.27
787.58	2201.57
787.76	2093.02
787.94	2205.66
788.11	2160.61
788.29	2160.61
788.46	2162.66
788.64	2050.02
788.81	2191.33
788.99	2162.66
789.16	2144.22
789.34	2176.99
789.52	2121.70
789.69	2174.94
789.87	2072.54
790.04	2168.80
790.22	2142.18
790.39	2351.07
790.57	2072.54
790.74	2138.08
790.92	2269.15
791.09	2035.68
791.27	2170.85
791.44	2283.49
791.62	2205.66
791.79	2336.73
791.97	2160.61
792.15	2494.43
792.32	2252.77
792.50	2236.38
792.67	2330.59
792.85	2359.26
793.02	2234.33
793.20	2154.46
793.37	2037.73
793.55	2154.46
793.72	2025.44
793.90	2263.01
794.07	2111.46
794.25	2215.90
794.42	2203.61
794.60	2195.42
794.77	2260.96
794.95	2293.72
795.12	2291.68
795.30	2039.78
795.47	1974.24
795.65	2445.27
795.82	2176.99
796.00	2058.21
796.17	2129.89
796.34	2162.66
796.52	2193.37
796.69	2275.29
796.87	2179.04
797.04	2185.18
797.22	2338.78
797.39	2254.81
797.57	2222.05
797.74	2189.28
797.92	2267.10
798.09	2117.60
798.27	2301.92
798.44	2142.18
798.62	2072.54
798.79	2199.52
798.96	2269.15
799.14	2142.18
799.31	2410.46
799.49	2181.09
799.66	2142.18
799.84	2179.04
800.01	2111.46
800.19	2240.48
800.36	2068.45
800.53	2213.85
800.71	2236.38
800.88	2342.88
801.06	2121.70
801.23	2105.31
801.41	2105.31
801.58	2158.56
801.75	2154.46
801.93	2234.33
802.10	2201.57
802.28	2199.52
802.45	2146.27
802.63	2226.14
802.80	2273.25
802.97	2232.29
803.15	2224.09
803.32	2160.61
803.50	2138.08
803.67	2183.13
803.84	2078.69
804.02	2189.28
804.19	2109.41
804.37	1884.13
804.54	2025.44
804.71	2164.70
804.89	2154.46
805.06	2062.30
805.24	2090.98
805.41	2072.54
805.58	2080.74
805.76	2449.37
805.93	2150.37
806.10	2263.01
806.28	2211.81
806.45	2250.72
806.63	2222.05
806.80	2250.72
806.97	2166.75
807.15	2271.20
807.32	2150.37
807.49	2199.52
807.67	2095.07
807.84	2240.48
808.01	2023.39
808.19	2367.45
808.36	2408.41
808.54	2174.94
808.71	2195.42
808.88	2224.09
809.06	2265.05
809.23	2299.87
809.40	2154.46
809.58	2281.44
809.75	2220.00
809.92	2185.18
810.10	2412.51
810.27	2185.18
810.44	2226.14
810.62	2260.96
810.79	2230.24
810.96	2074.59
811.14	2199.52
811.31	2187.23
811.48	2289.63
811.66	2136.03
811.83	2234.33
812.00	2281.44
812.18	2195.42
812.35	2340.83
812.52	2162.66
812.69	2168.80
812.87	2090.98
813.04	2107.36
813.21	2207.71
813.39	2082.78
813.56	2142.18
813.73	2246.62
813.91	2013.15
814.08	2207.71
814.25	2179.04
814.42	2060.26
814.60	2146.27
814.77	2160.61
814.94	2179.04
815.12	2215.90
815.29	2295.77
815.46	2217.95
815.63	2179.04
815.81	2220.00
815.98	2105.31
816.15	2197.47
816.33	2136.03
816.50	2101.22
816.67	2187.23
816.84	2269.15
817.02	2082.78
817.19	2109.41
817.36	2179.04
817.53	2277.34
817.71	2144.22
817.88	2205.66
818.05	2179.04
818.22	2185.18
818.40	2408.41
818.57	2213.85
818.74	2250.72
818.91	2183.13
819.09	2193.37
819.26	2201.57
819.43	2058.21
819.60	2160.61
819.78	2279.39
819.95	2342.88
820.12	2144.22
820.29	2306.01
820.47	2330.59
820.64	2129.89
820.81	2002.91
820.98	2117.60
821.15	2162.66
821.33	2185.18
821.50	2080.74
821.67	2162.66
821.84	2093.02
822.02	2242.53
822.19	2285.53
822.36	2140.13
822.53	2199.52
822.70	2131.94
822.88	2109.41
823.05	2260.96
823.22	2213.85
823.39	2357.21
823.56	2185.18
823.74	2340.83
823.91	2133.98
824.08	2117.60
824.25	2078.69
824.42	2344.92
824.60	2070.50
824.77	2179.04
824.94	2121.70
825.11	2201.57
825.28	2062.30
825.45	2222.05
825.63	2252.77
825.80	1978.34
825.97	2201.57
826.14	2222.05
826.31	2095.07
826.48	2197.47
826.66	2152.42
826.83	2140.13
827.00	2123.74
827.17	2088.93
827.34	2150.37
827.51	2199.52
827.69	2193.37
827.86	2099.17
828.03	2117.60
828.20	2138.08
828.37	2121.70
828.54	2254.81
828.71	2115.55
828.89	2330.59
829.06	2209.76
829.23	2351.07
829.40	2121.70
829.57	2133.98
829.74	2295.77
829.91	2150.37
830.09	2056.16
830.26	2170.85
830.43	2312.16
830.60	2113.50
830.77	2248.67
830.94	2283.49
831.11	2228.19
831.28	2162.66
831.46	2324.44
831.63	2162.66
831.80	2244.57
831.97	2078.69
832.14	2252.77
832.31	2166.75
832.48	2220.00
832.65	2336.73
832.82	2185.18
832.99	2142.18
833.17	2088.93
833.34	2246.62
833.51	2199.52
833.68	2037.73
833.85	2250.72
834.02	2203.61
834.19	2095.07
834.36	2103.26
834.53	2240.48
834.70	2310.11
834.87	2209.76
835.04	2125.79
835.22	2179.04
835.39	2160.61
835.56	2052.06
835.73	2086.88
835.90	2293.72
836.07	2121.70
836.24	2303.96
836.41	2037.73
836.58	2109.41
836.75	2334.68
836.92	2211.81
837.09	2123.74
837.26	2228.19
837.43	2127.84
837.60	2256.86
837.77	2090.98
837.94	2281.44
838.12	2330.59
838.29	2117.60
838.46	2023.39
838.63	2047.97
838.80	2318.30
838.97	2215.90
839.14	2156.51
839.31	2158.56
839.48	2226.14
839.65	2142.18
839.82	2187.23
839.99	2220.00
840.16	2164.70
840.33	2121.70
840.50	2232.29
840.67	2119.65
840.84	1992.67
841.01	2185.18
841.18	2123.74
841.35	2146.27
841.52	2217.95
841.69	2342.88
841.86	2160.61
842.03	2203.61
842.20	2297.82
842.37	2142.18
842.54	2211.81
842.71	2226.14
842.88	2035.68
843.05	2193.37
843.22	2084.83
843.39	2260.96
843.56	2097.12
843.73	2121.70
843.90	2244.57
844.07	2242.53
844.24	2250.72
844.41	2187.23
844.58	2162.66
844.75	2187.23
844.92	2158.56
845.09	2138.08
845.26	2105.31
845.43	2281.44
845.60	2146.27
845.77	2176.99
845.94	2197.47
846.10	2326.49
846.27	2035.68
846.44	2076.64
846.61	2062.30
846.78	2207.71
846.95	2258.91
847.12	2105.31
847.29	2146.27
847.46	2039.78
847.63	2283.49
847.80	2088.93
847.97	2142.18
848.14	2418.65
848.31	2209.76
848.48	2058.21
848.65	2140.13
848.82	2084.83
848.98	2418.65
849.15	2220.00
849.32	2254.81
849.49	2160.61
849.66	2129.89
849.83	2205.66
850.00	2084.83
850.17	2273.25
850.34	2103.26
850.51	2064.35
850.68	2166.75
850.85	2457.56
851.01	2191.33
851.18	2113.50
851.35	2125.79
851.52	2254.81
851.69	2392.03
851.86	2121.70
852.03	2117.60
852.20	2244.57
852.37	2158.56
852.53	2025.44
852.70	2086.88
852.87	2277.34
853.04	2293.72
853.21	2215.90
853.38	2299.87
853.55	2326.49
853.72	2248.67
853.89	2041.82
854.05	2064.35
854.22	2164.70
854.39	2105.31
854.56	2207.71
854.73	2195.42
854.90	2121.70
855.07	2183.13
855.23	2072.54
855.40	2136.03
855.57	2201.57
855.74	2007.01
855.91	2346.97
856.08	2047.97
856.25	2129.89
856.41	2160.61
856.58	2123.74
856.75	2174.94
856.92	2095.07
857.09	2297.82
857.26	2093.02
857.42	2160.61
857.59	2211.81
857.76	2248.67
857.93	2144.22
858.10	2117.60
858.27	2154.46
858.43	2187.23
858.60	2158.56
858.77	1996.77
858.94	2109.41
859.11	2195.42
859.27	2121.70
859.44	2125.79
859.61	2346.97
859.78	2213.85
859.95	2105.31
860.12	2121.70
860.28	2432.99
860.45	2367.45
860.62	2160.61
860.79	2195.42
860.95	2197.47
861.12	2140.13
861.29	2138.08
861.46	2129.89
861.63	2176.99
861.79	2269.15
861.96	2035.68
862.13	2056.16
862.30	2283.49
862.47	2076.64
862.63	2097.12
862.80	2217.95
862.97	2269.15
863.14	2224.09
863.30	2217.95
863.47	2185.18
863.64	2330.59
863.81	2142.18
863.97	2123.74
864.14	2211.81
864.31	2109.41
864.48	2203.61
864.65	2172.89
864.81	2236.38
864.98	2220.00
865.15	2265.05
865.32	2199.52
865.48	2258.91
865.65	2349.02
865.82	2127.84
865.98	2125.79
866.15	2318.30
866.32	2172.89
866.49	2179.04
866.65	2301.92
866.82	2088.93
866.99	2113.50
867.16	2168.80
867.32	2076.64
867.49	2099.17
867.66	2166.75
867.83	2105.31
867.99	2078.69
868.16	2168.80
868.33	2062.30
868.49	2187.23
868.66	2138.08
868.83	2127.84
868.99	2203.61
869.16	2263.01
869.33	2242.53
869.50	2195.42
869.66	2047.97
869.83	2195.42
870.00	2103.26
870.16	2240.48
870.33	2195.42
870.50	2258.91
870.66	2201.57
870.83	2244.57
871.00	2220.00
871.17	2217.95
871.33	2277.34
871.50	2133.98
871.67	2160.61
871.83	2047.97
872.00	2260.96
872.17	2144.22
872.33	2387.93
872.50	2256.86
872.67	2166.75
872.83	2115.55
873.00	2252.77
873.17	2207.71
873.33	2293.72
873.50	2121.70
873.67	2162.66
873.83	2115.55
874.00	2131.94
874.16	2281.44
874.33	2215.90
874.50	2093.02
874.66	2162.66
874.83	2185.18
875.00	2285.53
875.16	2226.14
875.33	2193.37
875.50	1920.99
875.66	2142.18
875.83	2228.19
875.99	2152.42
876.16	2213.85
876.33	2056.16
876.49	2230.24
876.66	2154.46
876.83	2086.88
876.99	2103.26
877.16	2240.48
877.32	2217.95
877.49	2056.16
877.66	2256.86
877.82	2267.10
877.99	2068.45
878.15	2230.24
878.32	2232.29
878.49	2111.46
878.65	2158.56
878.82	2334.68
878.98	2183.13
879.15	2250.72
879.32	2220.00
879.48	2189.28
879.65	2222.05
879.81	2119.65
879.98	2086.88
880.15	2074.59
880.31	2308.06
880.48	2101.22
880.64	2287.58
880.81	2215.90
880.97	2295.77
881.14	2299.87
881.31	2121.70
881.47	2371.55
881.64	2172.89
881.80	2062.30
881.97	2205.66
882.13	2258.91
882.30	2183.13
882.47	2138.08
882.63	2142.18
882.80	2138.08
882.96	2205.66
883.13	2248.67
883.29	2146.27
883.46	2144.22
883.62	2432.99
883.79	2199.52
883.95	2293.72
884.12	2170.85
884.29	2228.19
884.45	2174.94
884.62	2174.94
884.78	2131.94
884.95	2279.39
885.11	2138.08
885.28	2181.09
885.44	2146.27
885.61	2236.38
885.77	2312.16
885.94	2256.86
886.10	2140.13
886.27	2236.38
886.43	2332.64
886.60	2340.83
886.76	2095.07
886.93	2047.97
887.09	2179.04
887.26	1941.47
887.42	2123.74
887.59	2281.44
887.75	2387.93
887.92	2316.25
888.08	2168.80
888.25	2353.12
888.41	2260.96
888.58	2246.62
888.74	2113.50
888.91	2111.46
>>>>>End Processed Spectral Data<<<<<
