SpectraSuite Data File
++++++++++++++++++++++++++++++++++++
Date: Thu May 05 12:35:54 CEST 2016
User: root
Dark Spectrum Present: No
Reference Spectrum Present: No
Number of Sampled Component Spectra: 1
Spectrometers: USB4C02835
Integration Time (usec): 100000 (USB4C02835)
Spectra Averaged: 1 (USB4C02835)
Boxcar Smoothing: 0 (USB4C02835)
Correct for Electrical Dark: No (USB4C02835)
Strobe/Lamp Enabled: No (USB4C02835)
Correct for Detector Non-linearity: No (USB4C02835)
Correct for Stray Light: No (USB4C02835)
Number of Pixels in Processed Spectrum: 3648
>>>>>Begin Processed Spectral Data<<<<<
177.47	1710.05
177.69	1710.05
177.91	1710.05
178.13	1722.34
178.36	1820.64
178.58	2052.06
178.80	2203.61
179.02	2015.20
179.24	2172.89
179.46	2105.31
179.68	2224.09
179.90	2170.85
180.13	2226.14
180.35	2039.78
180.57	2123.74
180.79	2222.05
181.01	2238.43
181.23	2209.76
181.45	2316.25
181.67	2179.04
181.90	2291.68
182.12	2133.98
182.34	2056.16
182.56	2283.49
182.78	2185.18
183.00	2084.83
183.22	2256.86
183.44	2082.78
183.66	2414.56
183.89	2291.68
184.11	2148.32
184.33	2123.74
184.55	2314.20
184.77	2127.84
184.99	2138.08
185.21	2090.98
185.43	2465.75
185.65	2164.70
185.87	2097.12
186.10	2353.12
186.32	2373.60
186.54	2146.27
186.76	2168.80
186.98	2279.39
187.20	2170.85
187.42	2142.18
187.64	2240.48
187.86	2232.29
188.08	2287.58
188.30	2086.88
188.52	2176.99
188.75	2338.78
188.97	2281.44
189.19	2013.15
189.41	2080.74
189.63	2248.67
189.85	2158.56
190.07	2007.01
190.29	2068.45
190.51	2191.33
190.73	2047.97
190.95	2158.56
191.17	2111.46
191.39	2099.17
191.61	2160.61
191.84	2129.89
192.06	2228.19
192.28	2021.35
192.50	2488.28
192.72	2267.10
192.94	2162.66
193.16	2222.05
193.38	2207.71
193.60	1994.72
193.82	2160.61
194.04	2359.26
194.26	2185.18
194.48	2189.28
194.70	2039.78
194.92	2166.75
195.14	2248.67
195.36	2158.56
195.58	2138.08
195.80	2146.27
196.02	2150.37
196.24	2088.93
196.46	2138.08
196.69	2090.98
196.91	2451.42
197.13	2133.98
197.35	2152.42
197.57	2338.78
197.79	2295.77
198.01	2213.85
198.23	2222.05
198.45	2187.23
198.67	2125.79
198.89	2119.65
199.11	2213.85
199.33	2203.61
199.55	2043.87
199.77	2176.99
199.99	2224.09
200.21	2203.61
200.43	2260.96
200.65	2029.54
200.87	1990.63
201.09	2160.61
201.31	2142.18
201.53	2285.53
201.75	2138.08
201.97	2183.13
202.19	2211.81
202.41	2234.33
202.63	2312.16
202.85	2244.57
203.07	2263.01
203.29	2029.54
203.51	2025.44
203.73	2142.18
203.95	2496.47
204.17	2121.70
204.39	2209.76
204.61	2176.99
204.83	2121.70
205.05	2129.89
205.27	2117.60
205.49	2334.68
205.71	2265.05
205.93	2078.69
206.15	2072.54
206.37	2197.47
206.59	2185.18
206.81	2060.26
207.03	2064.35
207.25	2140.13
207.47	2260.96
207.69	2062.30
207.91	2244.57
208.13	2316.25
208.34	2168.80
208.56	2084.83
208.78	2203.61
209.00	2111.46
209.22	2121.70
209.44	2185.18
209.66	2052.06
209.88	2191.33
210.10	2140.13
210.32	2080.74
210.54	2224.09
210.76	2244.57
210.98	2277.34
211.20	1984.48
211.42	2127.84
211.64	2248.67
211.86	2254.81
212.08	2213.85
212.30	2138.08
212.52	2154.46
212.74	2260.96
212.96	2170.85
213.17	2275.29
213.39	2236.38
213.61	2310.11
213.83	2183.13
214.05	2191.33
214.27	2291.68
214.49	2070.50
214.71	2072.54
214.93	2250.72
215.15	2252.77
215.37	2283.49
215.59	2052.06
215.81	2279.39
216.03	2320.35
216.24	2291.68
216.46	2152.42
216.68	2189.28
216.90	2308.06
217.12	2320.35
217.34	2113.50
217.56	2228.19
217.78	2428.89
218.00	2277.34
218.22	2080.74
218.44	2158.56
218.66	2240.48
218.87	2334.68
219.09	2078.69
219.31	2179.04
219.53	2199.52
219.75	2080.74
219.97	2107.36
220.19	2117.60
220.41	2179.04
220.63	2308.06
220.85	2168.80
221.06	2127.84
221.28	2283.49
221.50	2217.95
221.72	2129.89
221.94	2086.88
222.16	2176.99
222.38	2236.38
222.60	2191.33
222.82	2185.18
223.03	2240.48
223.25	2107.36
223.47	2181.09
223.69	2211.81
223.91	2318.30
224.13	2174.94
224.35	2050.02
224.57	2299.87
224.78	2207.71
225.00	2150.37
225.22	2162.66
225.44	2129.89
225.66	2183.13
225.88	2222.05
226.10	2244.57
226.32	2136.03
226.53	2389.98
226.75	2191.33
226.97	2170.85
227.19	2084.83
227.41	2138.08
227.63	2154.46
227.85	2041.82
228.06	2172.89
228.28	2217.95
228.50	2326.49
228.72	1998.82
228.94	2107.36
229.16	1994.72
229.37	2082.78
229.59	1994.72
229.81	2252.77
230.03	2070.50
230.25	2072.54
230.47	2007.01
230.69	2050.02
230.90	2201.57
231.12	2129.89
231.34	2138.08
231.56	2168.80
231.78	2123.74
232.00	2226.14
232.21	2158.56
232.43	2113.50
232.65	2015.20
232.87	2211.81
233.09	2086.88
233.30	2072.54
233.52	2283.49
233.74	2179.04
233.96	2084.83
234.18	2160.61
234.40	2230.24
234.61	2385.88
234.83	2068.45
235.05	2043.87
235.27	2408.41
235.49	2283.49
235.70	2064.35
235.92	2197.47
236.14	2197.47
236.36	2398.17
236.58	2043.87
236.79	2146.27
237.01	2168.80
237.23	2154.46
237.45	2260.96
237.67	2123.74
237.88	2269.15
238.10	2441.18
238.32	2037.73
238.54	2121.70
238.76	2209.76
238.97	2138.08
239.19	2105.31
239.41	2195.42
239.63	2320.35
239.85	2148.32
240.06	2113.50
240.28	2070.50
240.50	2213.85
240.72	2183.13
240.93	2080.74
241.15	2279.39
241.37	2234.33
241.59	2355.16
241.81	2158.56
242.02	2162.66
242.24	2222.05
242.46	2230.24
242.68	2111.46
242.89	2111.46
243.11	2265.05
243.33	2174.94
243.55	2072.54
243.76	2217.95
243.98	2152.42
244.20	2195.42
244.42	2119.65
244.64	2185.18
244.85	2076.64
245.07	2160.61
245.29	2170.85
245.51	2168.80
245.72	2209.76
245.94	2306.01
246.16	2144.22
246.38	2273.25
246.59	2105.31
246.81	2070.50
247.03	2035.68
247.24	2023.39
247.46	2148.32
247.68	2232.29
247.90	2097.12
248.11	2150.37
248.33	2281.44
248.55	2172.89
248.77	2211.81
248.98	2199.52
249.20	2303.96
249.42	2226.14
249.64	2158.56
249.85	2093.02
250.07	2113.50
250.29	2209.76
250.50	2176.99
250.72	2068.45
250.94	2220.00
251.16	2412.51
251.37	2187.23
251.59	2197.47
251.81	2240.48
252.02	2291.68
252.24	2052.06
252.46	2195.42
252.68	2127.84
252.89	2164.70
253.11	2007.01
253.33	2308.06
253.54	2275.29
253.76	2062.30
253.98	2080.74
254.20	2084.83
254.41	2093.02
254.63	2189.28
254.85	2093.02
255.06	2154.46
255.28	2267.10
255.50	2117.60
255.71	2121.70
255.93	2095.07
256.15	2179.04
256.36	2211.81
256.58	2093.02
256.80	2160.61
257.02	2127.84
257.23	2140.13
257.45	2138.08
257.67	2201.57
257.88	2172.89
258.10	2191.33
258.32	2215.90
258.53	2183.13
258.75	2349.02
258.97	2136.03
259.18	2136.03
259.40	2093.02
259.62	2408.41
259.83	2357.21
260.05	2176.99
260.27	2600.92
260.48	2287.58
260.70	2060.26
260.92	2045.92
261.13	2140.13
261.35	2275.29
261.57	2256.86
261.78	1974.24
262.00	2027.49
262.22	2201.57
262.43	2109.41
262.65	2078.69
262.86	2115.55
263.08	2428.89
263.30	2203.61
263.51	2054.11
263.73	2131.94
263.95	2416.60
264.16	2166.75
264.38	2062.30
264.60	2256.86
264.81	2181.09
265.03	2197.47
265.25	2236.38
265.46	2144.22
265.68	2250.72
265.89	2310.11
266.11	1957.86
266.33	2179.04
266.54	2318.30
266.76	2265.05
266.98	2117.60
267.19	2205.66
267.41	2273.25
267.62	2179.04
267.84	2019.30
268.06	2211.81
268.27	2166.75
268.49	2289.63
268.70	2152.42
268.92	2172.89
269.14	2107.36
269.35	2101.22
269.57	2179.04
269.79	2224.09
270.00	2125.79
270.22	2441.18
270.43	2107.36
270.65	2017.25
270.87	2179.04
271.08	2295.77
271.30	2185.18
271.51	2207.71
271.73	2275.29
271.95	2373.60
272.16	2101.22
272.38	2226.14
272.59	2117.60
272.81	2273.25
273.02	2146.27
273.24	2162.66
273.46	2269.15
273.67	2187.23
273.89	2023.39
274.10	2093.02
274.32	2226.14
274.54	2201.57
274.75	2205.66
274.97	2230.24
275.18	2256.86
275.40	2191.33
275.61	2203.61
275.83	2211.81
276.05	2088.93
276.26	2207.71
276.48	2226.14
276.69	2191.33
276.91	2133.98
277.12	2303.96
277.34	2179.04
277.55	2183.13
277.77	2211.81
277.99	2179.04
278.20	2127.84
278.42	2136.03
278.63	2150.37
278.85	2080.74
279.06	2056.16
279.28	2144.22
279.49	2351.07
279.71	2215.90
279.93	2254.81
280.14	2179.04
280.36	2152.42
280.57	2197.47
280.79	2330.59
281.00	2174.94
281.22	2179.04
281.43	2265.05
281.65	1986.53
281.86	2064.35
282.08	2209.76
282.29	2316.25
282.51	2080.74
282.73	2086.88
282.94	2080.74
283.16	2228.19
283.37	2359.26
283.59	2166.75
283.80	2193.37
284.02	2187.23
284.23	2224.09
284.45	2107.36
284.66	2117.60
284.88	2179.04
285.09	2201.57
285.31	2318.30
285.52	2291.68
285.74	2007.01
285.95	2146.27
286.17	2189.28
286.38	2236.38
286.60	2109.41
286.81	2095.07
287.03	2179.04
287.24	2187.23
287.46	2220.00
287.67	2248.67
287.89	2371.55
288.10	2131.94
288.32	2174.94
288.53	2228.19
288.75	2179.04
288.96	2301.92
289.18	2148.32
289.39	2166.75
289.61	2211.81
289.82	2381.79
290.04	2359.26
290.25	2072.54
290.47	2164.70
290.68	2187.23
290.90	2256.86
291.11	2113.50
291.33	2332.64
291.54	2179.04
291.76	2095.07
291.97	2277.34
292.18	2172.89
292.40	2121.70
292.61	2156.51
292.83	2308.06
293.04	2256.86
293.26	2201.57
293.47	2158.56
293.69	2103.26
293.90	2125.79
294.12	2269.15
294.33	2176.99
294.55	2154.46
294.76	2205.66
294.97	2369.50
295.19	2400.22
295.40	2113.50
295.62	2176.99
295.83	2322.40
296.05	2097.12
296.26	2222.05
296.48	2150.37
296.69	2170.85
296.90	2103.26
297.12	2211.81
297.33	2250.72
297.55	2220.00
297.76	2263.01
297.98	2301.92
298.19	2201.57
298.41	2103.26
298.62	2088.93
298.83	2158.56
299.05	2179.04
299.26	2199.52
299.48	2105.31
299.69	2176.99
299.90	2236.38
300.12	2160.61
300.33	2355.16
300.55	2166.75
300.76	2226.14
300.98	2068.45
301.19	2258.91
301.40	2052.06
301.62	2138.08
301.83	2252.77
302.05	2254.81
302.26	2179.04
302.47	2224.09
302.69	2062.30
302.90	2170.85
303.12	1996.77
303.33	2189.28
303.54	2338.78
303.76	2174.94
303.97	2193.37
304.19	2297.82
304.40	2052.06
304.61	2265.05
304.83	2334.68
305.04	2201.57
305.26	2195.42
305.47	2183.13
305.68	2215.90
305.90	2027.49
306.11	2277.34
306.33	2103.26
306.54	2086.88
306.75	2109.41
306.97	2037.73
307.18	2074.59
307.39	2187.23
307.61	2252.77
307.82	2191.33
308.04	2271.20
308.25	2185.18
308.46	2203.61
308.68	2236.38
308.89	2185.18
309.10	2277.34
309.32	2303.96
309.53	2205.66
309.74	2260.96
309.96	2133.98
310.17	2293.72
310.39	2113.50
310.60	2273.25
310.81	2195.42
311.03	2047.97
311.24	2293.72
311.45	2199.52
311.67	2271.20
311.88	2144.22
312.09	2142.18
312.31	2152.42
312.52	2183.13
312.73	2090.98
312.95	2000.87
313.16	2117.60
313.37	2312.16
313.59	2211.81
313.80	2250.72
314.01	2334.68
314.23	2133.98
314.44	2039.78
314.65	2109.41
314.87	2086.88
315.08	2154.46
315.29	2150.37
315.51	2047.97
315.72	2025.44
315.93	2250.72
316.15	2289.63
316.36	2213.85
316.57	2240.48
316.79	2174.94
317.00	2101.22
317.21	2217.95
317.43	2166.75
317.64	2162.66
317.85	2074.59
318.07	2133.98
318.28	2207.71
318.49	2322.40
318.70	2441.18
318.92	2398.17
319.13	2371.55
319.34	2441.18
319.56	2236.38
319.77	2346.97
319.98	2287.58
320.20	2236.38
320.41	2244.57
320.62	2342.88
320.83	2154.46
321.05	2342.88
321.26	2240.48
321.47	2201.57
321.69	2217.95
321.90	2099.17
322.11	2152.42
322.32	2205.66
322.54	2248.67
322.75	2111.46
322.96	2471.90
323.18	2039.78
323.39	2043.87
323.60	2074.59
323.81	2359.26
324.03	2176.99
324.24	2258.91
324.45	2193.37
324.66	2129.89
324.88	2211.81
325.09	2303.96
325.30	2166.75
325.52	2222.05
325.73	2191.33
325.94	2146.27
326.15	2103.26
326.37	2080.74
326.58	2291.68
326.79	2256.86
327.00	2146.27
327.22	2113.50
327.43	2170.85
327.64	2084.83
327.85	2275.29
328.07	2273.25
328.28	2377.69
328.49	2160.61
328.70	2154.46
328.92	2176.99
329.13	2174.94
329.34	2220.00
329.55	2322.40
329.76	2179.04
329.98	2232.29
330.19	2324.44
330.40	2230.24
330.61	2248.67
330.83	2320.35
331.04	2086.88
331.25	2166.75
331.46	2168.80
331.68	2095.07
331.89	2357.21
332.10	2232.29
332.31	2015.20
332.52	2195.42
332.74	2318.30
332.95	2074.59
333.16	2207.71
333.37	2291.68
333.58	2205.66
333.80	2236.38
334.01	2039.78
334.22	2185.18
334.43	2125.79
334.64	2215.90
334.86	2066.40
335.07	2064.35
335.28	2332.64
335.49	2023.39
335.70	2183.13
335.92	2256.86
336.13	2435.03
336.34	2203.61
336.55	2176.99
336.76	2260.96
336.98	2035.68
337.19	2146.27
337.40	2387.93
337.61	2416.60
337.82	2138.08
338.04	2228.19
338.25	2080.74
338.46	2240.48
338.67	2152.42
338.88	2076.64
339.09	2095.07
339.31	2183.13
339.52	2068.45
339.73	2162.66
339.94	2105.31
340.15	2228.19
340.36	2168.80
340.58	2133.98
340.79	2074.59
341.00	2269.15
341.21	2084.83
341.42	2310.11
341.63	2152.42
341.85	2308.06
342.06	2291.68
342.27	2072.54
342.48	2318.30
342.69	2045.92
342.90	2189.28
343.12	2240.48
343.33	2195.42
343.54	2236.38
343.75	2330.59
343.96	2197.47
344.17	2045.92
344.38	2160.61
344.60	2031.58
344.81	2072.54
345.02	2115.55
345.23	2312.16
345.44	2428.89
345.65	2267.10
345.86	2238.43
346.07	2224.09
346.29	2150.37
346.50	2293.72
346.71	2240.48
346.92	2312.16
347.13	2402.27
347.34	2107.36
347.55	2144.22
347.76	2258.91
347.98	1984.48
348.19	2207.71
348.40	2322.40
348.61	2211.81
348.82	2389.98
349.03	2256.86
349.24	2121.70
349.45	2346.97
349.66	2035.68
349.88	2129.89
350.09	2133.98
350.30	2281.44
350.51	2293.72
350.72	2207.71
350.93	2150.37
351.14	2152.42
351.35	2267.10
351.56	2193.37
351.77	2263.01
351.99	2195.42
352.20	2359.26
352.41	2203.61
352.62	2039.78
352.83	2230.24
353.04	2226.14
353.25	2172.89
353.46	2195.42
353.67	2357.21
353.88	2007.01
354.09	2209.76
354.30	2195.42
354.52	2277.34
354.73	2183.13
354.94	2129.89
355.15	2174.94
355.36	2400.22
355.57	2185.18
355.78	2193.37
355.99	2166.75
356.20	2113.50
356.41	2283.49
356.62	2244.57
356.83	2123.74
357.04	2326.49
357.25	2043.87
357.46	2129.89
357.68	2088.93
357.89	2127.84
358.10	2136.03
358.31	2248.67
358.52	2107.36
358.73	2133.98
358.94	2129.89
359.15	2160.61
359.36	2207.71
359.57	2138.08
359.78	2279.39
359.99	2293.72
360.20	2072.54
360.41	2152.42
360.62	2308.06
360.83	2250.72
361.04	2207.71
361.25	2285.53
361.46	2267.10
361.67	2201.57
361.88	2244.57
362.09	2179.04
362.30	2236.38
362.51	2121.70
362.72	2162.66
362.93	2213.85
363.14	2263.01
363.35	2187.23
363.56	2103.26
363.78	2258.91
363.99	2353.12
364.20	2150.37
364.41	2215.90
364.62	2412.51
364.83	2234.33
365.04	2144.22
365.25	2236.38
365.46	2355.16
365.67	2050.02
365.88	2162.66
366.09	2150.37
366.30	2156.51
366.51	2191.33
366.72	2154.46
366.93	2123.74
367.14	2164.70
367.35	2344.92
367.56	2203.61
367.77	2392.03
367.98	2158.56
368.18	2156.51
368.39	2263.01
368.60	2052.06
368.81	2234.33
369.02	2246.62
369.23	2138.08
369.44	2041.82
369.65	2136.03
369.86	2328.54
370.07	2322.40
370.28	2090.98
370.49	2176.99
370.70	2220.00
370.91	2131.94
371.12	2068.45
371.33	2224.09
371.54	2117.60
371.75	2349.02
371.96	1998.82
372.17	2222.05
372.38	2238.43
372.59	2265.05
372.80	2113.50
373.01	2195.42
373.22	2242.53
373.43	2152.42
373.64	2080.74
373.85	2314.20
374.06	2346.97
374.26	2203.61
374.47	2199.52
374.68	2355.16
374.89	2197.47
375.10	2195.42
375.31	2258.91
375.52	2267.10
375.73	2115.55
375.94	2127.84
376.15	2267.10
376.36	2162.66
376.57	2138.08
376.78	2158.56
376.99	2228.19
377.20	2381.79
377.40	2189.28
377.61	2355.16
377.82	2007.01
378.03	2299.87
378.24	2344.92
378.45	2193.37
378.66	2217.95
378.87	2086.88
379.08	2072.54
379.29	2166.75
379.50	2353.12
379.71	2203.61
379.91	2236.38
380.12	2115.55
380.33	2156.51
380.54	2254.81
380.75	2207.71
380.96	2201.57
381.17	2172.89
381.38	2230.24
381.59	2271.20
381.80	2306.01
382.00	2275.29
382.21	2215.90
382.42	2353.12
382.63	2396.12
382.84	2226.14
383.05	2344.92
383.26	2346.97
383.47	2242.53
383.68	2250.72
383.88	2236.38
384.09	2189.28
384.30	2326.49
384.51	2201.57
384.72	2166.75
384.93	2078.69
385.14	2195.42
385.35	2297.82
385.55	2097.12
385.76	2310.11
385.97	2148.32
386.18	2015.20
386.39	2205.66
386.60	2211.81
386.81	2179.04
387.02	2066.40
387.22	2131.94
387.43	2273.25
387.64	2267.10
387.85	2336.73
388.06	2406.36
388.27	4046.79
388.48	8404.86
388.68	12144.45
388.89	14810.91
389.10	15634.19
389.31	14534.43
389.52	11310.93
389.73	9903.98
389.93	8814.46
390.14	8042.37
390.35	7128.98
390.56	6545.31
390.77	5357.49
390.98	4153.28
391.18	3393.48
391.39	2768.85
391.60	2283.49
391.81	2406.36
392.02	2187.23
392.23	2445.27
392.43	2310.11
392.64	2215.90
392.85	2215.90
393.06	2306.01
393.27	2097.12
393.47	2199.52
393.68	2205.66
393.89	2080.74
394.10	2281.44
394.31	2162.66
394.52	2138.08
394.72	2154.46
394.93	2357.21
395.14	2054.11
395.35	2230.24
395.56	2181.09
395.76	2256.86
395.97	2267.10
396.18	2367.45
396.39	2412.51
396.60	2691.03
396.80	2463.71
397.01	2355.16
397.22	2396.12
397.43	2351.07
397.64	2195.42
397.84	2299.87
398.05	2469.85
398.26	2191.33
398.47	2316.25
398.67	2328.54
398.88	2146.27
399.09	2263.01
399.30	2105.31
399.51	2248.67
399.71	2140.13
399.92	2158.56
400.13	2226.14
400.34	2152.42
400.54	2269.15
400.75	2344.92
400.96	2238.43
401.17	2346.97
401.37	2248.67
401.58	2121.70
401.79	2207.71
402.00	2367.45
402.21	2594.78
402.41	2572.25
402.62	2605.02
402.83	2648.02
403.04	2652.12
403.24	2750.42
403.45	2355.16
403.66	2504.67
403.87	2408.41
404.07	2482.14
404.28	2519.00
404.49	2453.47
404.70	2308.06
404.90	2295.77
405.11	2133.98
405.32	2230.24
405.52	2166.75
405.73	2150.37
405.94	2172.89
406.15	2136.03
406.35	2248.67
406.56	2260.96
406.77	2267.10
406.98	2285.53
407.18	2136.03
407.39	2297.82
407.60	2211.81
407.80	2240.48
408.01	2072.54
408.22	2199.52
408.43	2115.55
408.63	2193.37
408.84	2285.53
409.05	2260.96
409.25	2136.03
409.46	2179.04
409.67	2207.71
409.88	2119.65
410.08	2217.95
410.29	2156.51
410.50	2303.96
410.70	2254.81
410.91	2144.22
411.12	2244.57
411.32	2170.85
411.53	2082.78
411.74	2267.10
411.95	2326.49
412.15	2260.96
412.36	2232.29
412.57	2293.72
412.77	2267.10
412.98	2269.15
413.19	2228.19
413.39	2226.14
413.60	2242.53
413.81	2258.91
414.01	2054.11
414.22	2260.96
414.43	2283.49
414.63	2183.13
414.84	2328.54
415.05	2244.57
415.25	2068.45
415.46	2332.64
415.67	2144.22
415.87	2187.23
416.08	2252.77
416.29	2217.95
416.49	2293.72
416.70	2150.37
416.91	2115.55
417.11	2240.48
417.32	2312.16
417.53	2334.68
417.73	2254.81
417.94	2166.75
418.15	2215.90
418.35	2156.51
418.56	2176.99
418.77	2441.18
418.97	2279.39
419.18	2176.99
419.38	1974.24
419.59	2164.70
419.80	2322.40
420.00	2170.85
420.21	2185.18
420.42	2351.07
420.62	2174.94
420.83	2054.11
421.04	2158.56
421.24	2172.89
421.45	2326.49
421.65	2256.86
421.86	2160.61
422.07	2164.70
422.27	2203.61
422.48	2162.66
422.69	2054.11
422.89	2211.81
423.10	2113.50
423.30	2066.40
423.51	2224.09
423.72	2199.52
423.92	2244.57
424.13	2072.54
424.33	2287.58
424.54	2308.06
424.75	2236.38
424.95	2367.45
425.16	2273.25
425.36	2189.28
425.57	2244.57
425.78	2289.63
425.98	2234.33
426.19	2176.99
426.39	2146.27
426.60	2226.14
426.81	2316.25
427.01	2142.18
427.22	2156.51
427.42	2121.70
427.63	2074.59
427.83	2217.95
428.04	2326.49
428.25	2377.69
428.45	2203.61
428.66	2250.72
428.86	2148.32
429.07	2203.61
429.28	2181.09
429.48	2172.89
429.69	2136.03
429.89	2193.37
430.10	2099.17
430.30	2242.53
430.51	2340.83
430.71	2131.94
430.92	2195.42
431.13	2170.85
431.33	2299.87
431.54	2250.72
431.74	2332.64
431.95	2424.80
432.15	2107.36
432.36	2209.76
432.56	2201.57
432.77	2306.01
432.98	2414.56
433.18	2244.57
433.39	2109.41
433.59	2176.99
433.80	2379.74
434.00	2365.40
434.21	2211.81
434.41	2142.18
434.62	2453.47
434.82	2117.60
435.03	2121.70
435.23	2275.29
435.44	2043.87
435.64	2185.18
435.85	2199.52
436.06	2220.00
436.26	2265.05
436.47	2203.61
436.67	2101.22
436.88	2187.23
437.08	2322.40
437.29	2269.15
437.49	2252.77
437.70	2301.92
437.90	2129.89
438.11	2400.22
438.31	2250.72
438.52	2471.90
438.72	2428.89
438.93	2437.08
439.13	2285.53
439.34	2400.22
439.54	2197.47
439.75	2277.34
439.95	2250.72
440.16	2176.99
440.36	2234.33
440.57	2232.29
440.77	2199.52
440.98	2228.19
441.18	2256.86
441.39	2068.45
441.59	2074.59
441.80	2414.56
442.00	2181.09
442.21	2324.44
442.41	2133.98
442.62	2234.33
442.82	2195.42
443.02	2131.94
443.23	2207.71
443.43	2211.81
443.64	2387.93
443.84	2101.22
444.05	2293.72
444.25	2295.77
444.46	2256.86
444.66	2211.81
444.87	2371.55
445.07	2068.45
445.28	2172.89
445.48	2283.49
445.69	2314.20
445.89	2441.18
446.09	2222.05
446.30	2486.23
446.50	2818.00
446.71	4407.23
446.91	5511.08
447.12	6369.18
447.32	6703.00
447.53	6166.43
447.73	5126.07
447.93	4673.46
448.14	4175.81
448.34	4202.43
448.55	3620.81
448.75	3602.38
448.96	3342.28
449.16	3018.71
449.36	2846.68
449.57	2578.39
449.77	2277.34
449.98	2201.57
450.18	2265.05
450.39	2252.77
450.59	2369.50
450.79	2215.90
451.00	2158.56
451.20	2281.44
451.41	2246.62
451.61	2228.19
451.81	2207.71
452.02	2193.37
452.22	2172.89
452.43	2232.29
452.63	2136.03
452.84	2226.14
453.04	2211.81
453.24	2187.23
453.45	2117.60
453.65	2203.61
453.86	2187.23
454.06	2234.33
454.26	2228.19
454.47	2121.70
454.67	2248.67
454.87	2269.15
455.08	2162.66
455.28	2340.83
455.49	2224.09
455.69	2101.22
455.89	2375.64
456.10	2324.44
456.30	2201.57
456.51	2265.05
456.71	2246.62
456.91	2256.86
457.12	2191.33
457.32	2297.82
457.52	2138.08
457.73	2267.10
457.93	2260.96
458.14	2174.94
458.34	2109.41
458.54	2156.51
458.75	2162.66
458.95	2334.68
459.15	2301.92
459.36	2244.57
459.56	2312.16
459.76	2512.86
459.97	2215.90
460.17	2080.74
460.37	2303.96
460.58	2174.94
460.78	2269.15
460.99	2181.09
461.19	2101.22
461.39	2205.66
461.60	2179.04
461.80	2228.19
462.00	2154.46
462.21	2187.23
462.41	2078.69
462.61	2035.68
462.82	2047.97
463.02	2295.77
463.22	2201.57
463.43	2357.21
463.63	2234.33
463.83	2293.72
464.04	2226.14
464.24	2162.66
464.44	2125.79
464.64	2142.18
464.85	2252.77
465.05	2244.57
465.25	2166.75
465.46	2095.07
465.66	2238.43
465.86	2181.09
466.07	2201.57
466.27	2166.75
466.47	2039.78
466.68	2162.66
466.88	2246.62
467.08	2209.76
467.29	2314.20
467.49	2277.34
467.69	2107.36
467.89	2250.72
468.10	2154.46
468.30	2189.28
468.50	2408.41
468.71	2351.07
468.91	2045.92
469.11	2312.16
469.31	2316.25
469.52	2129.89
469.72	2330.59
469.92	2392.03
470.13	2252.77
470.33	2211.81
470.53	2379.74
470.73	2656.22
470.94	3141.58
471.14	3157.97
471.34	3708.87
471.54	3479.50
471.75	3067.86
471.95	2916.31
472.15	2797.53
472.36	2682.84
472.56	2699.22
472.76	2670.55
472.96	2605.02
473.17	2502.62
473.37	2432.99
473.57	2279.39
473.77	2314.20
473.98	2256.86
474.18	2152.42
474.38	2437.08
474.58	2187.23
474.79	2086.88
474.99	2211.81
475.19	2349.02
475.39	2054.11
475.60	2217.95
475.80	2220.00
476.00	2144.22
476.20	2191.33
476.41	2275.29
476.61	2297.82
476.81	2351.07
477.01	2068.45
477.21	2422.75
477.42	2308.06
477.62	2109.41
477.82	2183.13
478.02	2138.08
478.23	2258.91
478.43	2109.41
478.63	2207.71
478.83	2179.04
479.03	2103.26
479.24	2363.36
479.44	2412.51
479.64	2121.70
479.84	2103.26
480.04	2068.45
480.25	2281.44
480.45	2152.42
480.65	2068.45
480.85	2355.16
481.06	2121.70
481.26	2228.19
481.46	2222.05
481.66	2244.57
481.86	2113.50
482.06	2293.72
482.27	2217.95
482.47	2209.76
482.67	2179.04
482.87	2228.19
483.07	2283.49
483.28	2224.09
483.48	2095.07
483.68	2193.37
483.88	2127.84
484.08	2023.39
484.29	2080.74
484.49	2162.66
484.69	2082.78
484.89	2400.22
485.09	2281.44
485.29	2303.96
485.50	2215.90
485.70	2179.04
485.90	2353.12
486.10	2242.53
486.30	2308.06
486.50	2334.68
486.71	2187.23
486.91	2277.34
487.11	2256.86
487.31	2148.32
487.51	2232.29
487.71	2232.29
487.91	2050.02
488.12	2101.22
488.32	1984.48
488.52	2144.22
488.72	1996.77
488.92	2213.85
489.12	2265.05
489.32	2355.16
489.53	2234.33
489.73	2117.60
489.93	2428.89
490.13	2176.99
490.33	2043.87
490.53	2277.34
490.73	2310.11
490.94	2215.90
491.14	2301.92
491.34	2246.62
491.54	2478.04
491.74	3162.06
491.94	3676.10
492.14	4216.77
492.34	4038.59
492.54	3743.69
492.75	3203.02
492.95	3129.30
493.15	2850.77
493.35	2844.63
493.55	2766.81
493.75	2660.31
493.95	2711.51
494.15	2504.67
494.35	2392.03
494.56	2254.81
494.76	2176.99
494.96	2250.72
495.16	2185.18
495.36	2226.14
495.56	2111.46
495.76	2187.23
495.96	2162.66
496.16	2101.22
496.36	2375.64
496.56	2156.51
496.77	2293.72
496.97	2258.91
497.17	2310.11
497.37	2095.07
497.57	2174.94
497.77	2258.91
497.97	2117.60
498.17	2205.66
498.37	2127.84
498.57	2285.53
498.77	2195.42
498.97	2238.43
499.17	2379.74
499.38	2242.53
499.58	2250.72
499.78	2344.92
499.98	2398.17
500.18	2228.19
500.38	2121.70
500.58	2306.01
500.78	2881.49
500.98	5154.74
501.18	7348.11
501.38	9127.80
501.58	9942.89
501.78	9578.35
501.98	7706.51
502.18	6543.26
502.38	5595.05
502.58	5185.46
502.78	4616.12
502.98	4554.68
503.18	4270.01
503.38	3930.05
503.59	3450.83
503.79	3282.89
503.99	2928.60
504.19	2834.39
504.39	2828.24
504.59	2947.03
504.79	2760.66
504.99	2795.48
505.19	2627.54
505.39	2533.34
505.59	2576.34
505.79	2521.05
505.99	2396.12
506.19	2238.43
506.39	2408.41
506.59	2211.81
506.79	2232.29
506.99	2312.16
507.19	2201.57
507.39	2230.24
507.59	2148.32
507.79	2203.61
507.99	2154.46
508.19	2201.57
508.39	2166.75
508.59	2258.91
508.79	2351.07
508.99	2416.60
509.19	2234.33
509.39	2250.72
509.59	2117.60
509.79	2164.70
509.99	2217.95
510.19	2387.93
510.39	2306.01
510.59	2211.81
510.79	2129.89
510.99	2037.73
511.19	2217.95
511.39	2375.64
511.59	2277.34
511.79	2330.59
511.99	2203.61
512.19	2330.59
512.38	2301.92
512.58	2156.51
512.78	2158.56
512.98	2353.12
513.18	2424.80
513.38	2115.55
513.58	2207.71
513.78	2166.75
513.98	2207.71
514.18	2146.27
514.38	2133.98
514.58	2226.14
514.78	2187.23
514.98	2140.13
515.18	2230.24
515.38	2072.54
515.58	2408.41
515.78	2189.28
515.98	2211.81
516.18	2205.66
516.38	2277.34
516.57	2166.75
516.77	2103.26
516.97	2279.39
517.17	2209.76
517.37	2047.97
517.57	2301.92
517.77	2209.76
517.97	2158.56
518.17	2267.10
518.37	2136.03
518.57	2217.95
518.77	2244.57
518.97	2240.48
519.16	2297.82
519.36	2316.25
519.56	2129.89
519.76	2195.42
519.96	2131.94
520.16	2389.98
520.36	2121.70
520.56	2207.71
520.76	2125.79
520.96	2203.61
521.16	2293.72
521.35	2334.68
521.55	2330.59
521.75	2271.20
521.95	2168.80
522.15	2129.89
522.35	2064.35
522.55	2240.48
522.75	2232.29
522.95	2236.38
523.14	2158.56
523.34	2205.66
523.54	2222.05
523.74	2291.68
523.94	2246.62
524.14	2052.06
524.34	2297.82
524.54	2285.53
524.73	2127.84
524.93	2271.20
525.13	2289.63
525.33	2074.59
525.53	2361.31
525.73	2310.11
525.93	2246.62
526.13	2129.89
526.32	2181.09
526.52	2226.14
526.72	2220.00
526.92	2170.85
527.12	2129.89
527.32	2127.84
527.52	2170.85
527.71	2174.94
527.91	2187.23
528.11	2174.94
528.31	2222.05
528.51	2082.78
528.71	2295.77
528.90	2267.10
529.10	2312.16
529.30	2334.68
529.50	2062.30
529.70	2301.92
529.90	2183.13
530.09	2195.42
530.29	2072.54
530.49	2131.94
530.69	2445.27
530.89	2203.61
531.09	2256.86
531.28	2150.37
531.48	2295.77
531.68	2299.87
531.88	2174.94
532.08	2275.29
532.28	2185.18
532.47	2357.21
532.67	2306.01
532.87	2291.68
533.07	2179.04
533.27	2318.30
533.46	2316.25
533.66	2238.43
533.86	2176.99
534.06	2291.68
534.26	2250.72
534.45	2174.94
534.65	2349.02
534.85	2330.59
535.05	2162.66
535.25	2291.68
535.44	2047.97
535.64	2258.91
535.84	2279.39
536.04	2174.94
536.24	2207.71
536.43	2086.88
536.63	2215.90
536.83	2185.18
537.03	2181.09
537.22	2015.20
537.42	2072.54
537.62	2150.37
537.82	2158.56
538.02	2267.10
538.21	2281.44
538.41	2549.72
538.61	2199.52
538.81	2201.57
539.00	2381.79
539.20	2125.79
539.40	2211.81
539.60	2263.01
539.79	2301.92
539.99	2193.37
540.19	2209.76
540.39	2176.99
540.58	2308.06
540.78	2332.64
540.98	2265.05
541.18	2365.40
541.37	2244.57
541.57	2222.05
541.77	2185.18
541.97	2123.74
542.16	2058.21
542.36	2179.04
542.56	2183.13
542.76	2404.32
542.95	2279.39
543.15	2217.95
543.35	2324.44
543.54	2133.98
543.74	2199.52
543.94	2301.92
544.14	2121.70
544.33	2220.00
544.53	2133.98
544.73	2234.33
544.93	2138.08
545.12	2197.47
545.32	2252.77
545.52	2205.66
545.71	2076.64
545.91	2103.26
546.11	2113.50
546.30	2119.65
546.50	2183.13
546.70	2252.77
546.90	2250.72
547.09	2043.87
547.29	2217.95
547.49	2275.29
547.68	2156.51
547.88	2160.61
548.08	2287.58
548.27	2693.08
548.47	2148.32
548.67	2226.14
548.87	2252.77
549.06	2152.42
549.26	2176.99
549.46	2265.05
549.65	2123.74
549.85	2289.63
550.05	2209.76
550.24	2152.42
550.44	2232.29
550.64	2205.66
550.83	2244.57
551.03	2310.11
551.23	2301.92
551.42	2322.40
551.62	2193.37
551.82	2211.81
552.01	2201.57
552.21	2375.64
552.41	2179.04
552.60	2316.25
552.80	2244.57
553.00	2150.37
553.19	2207.71
553.39	2439.13
553.59	2142.18
553.78	2273.25
553.98	2220.00
554.17	2052.06
554.37	2242.53
554.57	2222.05
554.76	2123.74
554.96	2144.22
555.16	2248.67
555.35	2226.14
555.55	2246.62
555.75	2277.34
555.94	2240.48
556.14	2099.17
556.33	2211.81
556.53	2236.38
556.73	2199.52
556.92	2322.40
557.12	2351.07
557.32	2371.55
557.51	2424.80
557.71	2250.72
557.90	2308.06
558.10	2277.34
558.30	2166.75
558.49	2181.09
558.69	2244.57
558.88	2226.14
559.08	2271.20
559.28	2105.31
559.47	2162.66
559.67	2265.05
559.86	2457.56
560.06	2211.81
560.26	2254.81
560.45	2303.96
560.65	2209.76
560.84	2375.64
561.04	2088.93
561.24	2334.68
561.43	2068.45
561.63	2377.69
561.82	2166.75
562.02	2265.05
562.22	2183.13
562.41	2136.03
562.61	2078.69
562.80	2129.89
563.00	2506.71
563.19	2258.91
563.39	2238.43
563.59	2400.22
563.78	2121.70
563.98	1984.48
564.17	2101.22
564.37	2058.21
564.56	2183.13
564.76	2127.84
564.96	2269.15
565.15	2267.10
565.35	2445.27
565.54	2170.85
565.74	2287.58
565.93	2275.29
566.13	2254.81
566.32	2236.38
566.52	2299.87
566.71	2187.23
566.91	2287.58
567.11	2252.77
567.30	2123.74
567.50	2256.86
567.69	2271.20
567.89	2224.09
568.08	2125.79
568.28	2299.87
568.47	2133.98
568.67	2244.57
568.86	2150.37
569.06	2314.20
569.25	2256.86
569.45	2131.94
569.64	2115.55
569.84	2258.91
570.04	2244.57
570.23	2152.42
570.43	2164.70
570.62	2312.16
570.82	2332.64
571.01	2097.12
571.21	2154.46
571.40	2133.98
571.60	2267.10
571.79	2179.04
571.99	2226.14
572.18	2160.61
572.38	2281.44
572.57	2189.28
572.77	2183.13
572.96	2465.75
573.16	2269.15
573.35	2179.04
573.55	2398.17
573.74	2314.20
573.94	2209.76
574.13	2172.89
574.33	2265.05
574.52	2387.93
574.71	2248.67
574.91	2242.53
575.10	2099.17
575.30	2131.94
575.49	2146.27
575.69	2164.70
575.88	2232.29
576.08	2224.09
576.27	2387.93
576.47	2279.39
576.66	2506.71
576.86	2461.66
577.05	2289.63
577.25	2236.38
577.44	2424.80
577.64	2217.95
577.83	2351.07
578.02	2170.85
578.22	2377.69
578.41	2461.66
578.61	2240.48
578.80	2095.07
579.00	2232.29
579.19	2301.92
579.39	2279.39
579.58	2306.01
579.77	2160.61
579.97	2383.84
580.16	2312.16
580.36	2301.92
580.55	2353.12
580.75	2201.57
580.94	2265.05
581.13	2324.44
581.33	2441.18
581.52	2310.11
581.72	2514.91
581.91	2437.08
582.11	2279.39
582.30	2408.41
582.49	2250.72
582.69	2367.45
582.88	2322.40
583.08	2301.92
583.27	2328.54
583.47	2203.61
583.66	2209.76
583.85	2170.85
584.05	2240.48
584.24	2330.59
584.44	2303.96
584.63	2324.44
584.82	2373.60
585.02	2373.60
585.21	2355.16
585.41	2455.51
585.60	2422.75
585.79	2478.04
585.99	2510.81
586.18	2373.60
586.37	2867.16
586.57	4589.50
586.76	13311.80
586.96	32355.86
587.15	46224.70
587.34	55606.45
587.54	60916.83
587.73	56069.29
587.93	39404.97
588.12	29640.25
588.31	23838.36
588.51	20676.29
588.70	19234.52
588.89	17602.29
589.09	15171.35
589.28	13057.85
589.47	10612.57
589.67	8404.86
589.86	6291.36
590.06	4577.21
590.25	3839.94
590.44	3141.58
590.64	2818.00
590.83	2562.01
591.02	2492.38
591.22	2385.88
591.41	2424.80
591.60	2215.90
591.80	2490.33
591.99	2205.66
592.18	2220.00
592.38	2310.11
592.57	2232.29
592.76	2271.20
592.96	2242.53
593.15	2289.63
593.34	2293.72
593.54	2246.62
593.73	2308.06
593.92	2314.20
594.12	2351.07
594.31	2281.44
594.50	2418.65
594.70	2342.88
594.89	2475.99
595.08	2164.70
595.28	2359.26
595.47	2500.57
595.66	2297.82
595.86	2150.37
596.05	2293.72
596.24	2217.95
596.43	2422.75
596.63	2369.50
596.82	2301.92
597.01	2316.25
597.21	2394.08
597.40	2250.72
597.59	2293.72
597.79	2172.89
597.98	2351.07
598.17	2277.34
598.36	2256.86
598.56	2387.93
598.75	2209.76
598.94	2306.01
599.14	2201.57
599.33	2244.57
599.52	2238.43
599.71	2301.92
599.91	2250.72
600.10	2285.53
600.29	2238.43
600.48	2256.86
600.68	2265.05
600.87	2244.57
601.06	2170.85
601.26	2230.24
601.45	2273.25
601.64	2224.09
601.83	2383.84
602.03	2172.89
602.22	2166.75
602.41	2326.49
602.60	2523.10
602.80	2271.20
602.99	2318.30
603.18	2174.94
603.37	2254.81
603.57	2228.19
603.76	2318.30
603.95	2338.78
604.14	2226.14
604.34	2103.26
604.53	2185.18
604.72	2207.71
604.91	2277.34
605.10	2308.06
605.30	2088.93
605.49	2385.88
605.68	2355.16
605.87	2193.37
606.07	2185.18
606.26	2258.91
606.45	2220.00
606.64	2205.66
606.84	2248.67
607.03	2203.61
607.22	2330.59
607.41	2207.71
607.60	2121.70
607.80	2394.08
607.99	2207.71
608.18	2246.62
608.37	2222.05
608.56	2201.57
608.76	2310.11
608.95	2457.56
609.14	2301.92
609.33	2400.22
609.52	2406.36
609.72	2332.64
609.91	2346.97
610.10	2246.62
610.29	2424.80
610.48	2232.29
610.68	2248.67
610.87	2273.25
611.06	2252.77
611.25	2082.78
611.44	2285.53
611.63	2201.57
611.83	2340.83
612.02	2156.51
612.21	2351.07
612.40	2060.26
612.59	2133.98
612.79	2119.65
612.98	2209.76
613.17	2279.39
613.36	2260.96
613.55	2398.17
613.74	2285.53
613.93	2369.50
614.13	2473.95
614.32	2473.95
614.51	2422.75
614.70	2295.77
614.89	2316.25
615.08	2373.60
615.28	2725.85
615.47	2164.70
615.66	2342.88
615.85	2316.25
616.04	2492.38
616.23	2267.10
616.42	2277.34
616.62	2316.25
616.81	2332.64
617.00	2179.04
617.19	2314.20
617.38	2234.33
617.57	2234.33
617.76	2232.29
617.95	2320.35
618.15	2299.87
618.34	2396.12
618.53	2095.07
618.72	2291.68
618.91	2306.01
619.10	2301.92
619.29	2254.81
619.48	2281.44
619.68	2138.08
619.87	2168.80
620.06	2088.93
620.25	2222.05
620.44	2084.83
620.63	2125.79
620.82	2250.72
621.01	2236.38
621.20	2234.33
621.39	2207.71
621.59	2291.68
621.78	2250.72
621.97	2193.37
622.16	2291.68
622.35	2242.53
622.54	2303.96
622.73	2228.19
622.92	2082.78
623.11	2334.68
623.30	2281.44
623.49	2232.29
623.68	2154.46
623.88	2336.73
624.07	2209.76
624.26	2146.27
624.45	2260.96
624.64	2211.81
624.83	2203.61
625.02	2236.38
625.21	2166.75
625.40	2187.23
625.59	2297.82
625.78	2220.00
625.97	2359.26
626.16	2377.69
626.35	2420.70
626.54	2297.82
626.74	2432.99
626.93	2273.25
627.12	2199.52
627.31	2324.44
627.50	2293.72
627.69	2289.63
627.88	2152.42
628.07	2093.02
628.26	2084.83
628.45	2158.56
628.64	2185.18
628.83	2197.47
629.02	2111.46
629.21	2240.48
629.40	2314.20
629.59	2090.98
629.78	2201.57
629.97	2326.49
630.16	2199.52
630.35	2258.91
630.54	2246.62
630.73	2211.81
630.92	2107.36
631.11	2115.55
631.30	2222.05
631.49	2260.96
631.68	2301.92
631.87	2199.52
632.06	2080.74
632.25	2402.27
632.44	2244.57
632.63	2287.58
632.82	2238.43
633.01	2275.29
633.20	2371.55
633.39	2295.77
633.58	2185.18
633.77	2291.68
633.96	2242.53
634.15	2367.45
634.34	2248.67
634.53	2310.11
634.72	2174.94
634.91	2117.60
635.10	2197.47
635.29	2256.86
635.48	2203.61
635.67	2154.46
635.86	2113.50
636.05	2408.41
636.24	2215.90
636.43	2258.91
636.62	2240.48
636.81	1918.95
637.00	2240.48
637.19	2240.48
637.38	2152.42
637.57	2179.04
637.76	2273.25
637.95	2375.64
638.14	2265.05
638.33	2322.40
638.52	2269.15
638.71	2199.52
638.89	2154.46
639.08	2547.67
639.27	2353.12
639.46	2482.14
639.65	2861.01
639.84	2914.26
640.03	3051.47
640.22	3010.51
640.41	2992.08
640.60	2531.29
640.79	2619.35
640.98	2406.36
641.17	2555.86
641.36	2432.99
641.55	2394.08
641.74	2160.61
641.92	2197.47
642.11	2201.57
642.30	2197.47
642.49	2213.85
642.68	2166.75
642.87	2308.06
643.06	2314.20
643.25	2183.13
643.44	2168.80
643.63	2209.76
643.82	2344.92
644.00	2179.04
644.19	2211.81
644.38	2181.09
644.57	2189.28
644.76	2209.76
644.95	2179.04
645.14	2211.81
645.33	2111.46
645.52	2185.18
645.71	1980.39
645.89	2131.94
646.08	2244.57
646.27	2152.42
646.46	2379.74
646.65	2076.64
646.84	2293.72
647.03	2095.07
647.22	2314.20
647.40	2191.33
647.59	2170.85
647.78	2072.54
647.97	2090.98
648.16	2086.88
648.35	2383.84
648.54	2344.92
648.73	2183.13
648.91	2277.34
649.10	2224.09
649.29	2146.27
649.48	2162.66
649.67	2250.72
649.86	2246.62
650.05	2260.96
650.23	2492.38
650.42	2273.25
650.61	2418.65
650.80	2387.93
650.99	2480.09
651.18	2416.60
651.36	2387.93
651.55	2203.61
651.74	2367.45
651.93	2187.23
652.12	2193.37
652.31	2207.71
652.49	2220.00
652.68	2158.56
652.87	2379.74
653.06	2269.15
653.25	2394.08
653.44	2195.42
653.62	2392.03
653.81	2209.76
654.00	2176.99
654.19	2297.82
654.38	2449.37
654.56	2181.09
654.75	2201.57
654.94	2297.82
655.13	2289.63
655.32	2195.42
655.51	2234.33
655.69	2199.52
655.88	2293.72
656.07	2101.22
656.26	2203.61
656.45	2027.49
656.63	2283.49
656.82	2275.29
657.01	2277.34
657.20	2154.46
657.38	2314.20
657.57	2170.85
657.76	2058.21
657.95	2308.06
658.14	2150.37
658.32	2215.90
658.51	2131.94
658.70	2256.86
658.89	2238.43
659.08	2228.19
659.26	2355.16
659.45	2166.75
659.64	2250.72
659.83	2183.13
660.01	2494.43
660.20	2240.48
660.39	2394.08
660.58	2064.35
660.76	2299.87
660.95	2093.02
661.14	2205.66
661.33	2170.85
661.51	2195.42
661.70	2193.37
661.89	2222.05
662.08	2203.61
662.26	2027.49
662.45	2136.03
662.64	2389.98
662.83	2295.77
663.01	2117.60
663.20	2213.85
663.39	2334.68
663.58	2154.46
663.76	2152.42
663.95	2285.53
664.14	2037.73
664.32	2197.47
664.51	2127.84
664.70	2097.12
664.89	2256.86
665.07	2082.78
665.26	2189.28
665.45	2078.69
665.64	2365.40
665.82	2189.28
666.01	2236.38
666.20	2154.46
666.38	2303.96
666.57	2398.17
666.76	3332.05
666.95	8130.44
667.13	16553.73
667.32	21722.80
667.51	25736.82
667.69	27426.40
667.88	25427.58
668.07	18347.75
668.25	14456.61
668.44	11902.79
668.63	10139.49
668.81	9021.30
669.00	7858.06
669.19	6991.77
669.38	6184.87
669.56	5207.98
669.75	4345.79
669.94	3729.35
670.12	3194.83
670.31	2695.13
670.50	2580.44
670.68	2498.52
670.87	2420.70
671.06	2248.67
671.24	2275.29
671.43	2445.27
671.62	2291.68
671.80	2215.90
671.99	2334.68
672.18	2189.28
672.36	2250.72
672.55	2271.20
672.74	2166.75
672.92	2156.51
673.11	2269.15
673.29	2179.04
673.48	2263.01
673.67	2162.66
673.85	2267.10
674.04	2121.70
674.23	2168.80
674.41	2373.60
674.60	2086.88
674.79	2052.06
674.97	2158.56
675.16	2351.07
675.34	2287.58
675.53	2105.31
675.72	2263.01
675.90	2299.87
676.09	2107.36
676.28	2166.75
676.46	2138.08
676.65	2324.44
676.83	2103.26
677.02	2279.39
677.21	2240.48
677.39	2207.71
677.58	2111.46
677.77	2197.47
677.95	2156.51
678.14	2174.94
678.32	2230.24
678.51	2117.60
678.70	2389.98
678.88	2152.42
679.07	2248.67
679.25	2185.18
679.44	2209.76
679.63	2045.92
679.81	2230.24
680.00	2375.64
680.18	2306.01
680.37	2396.12
680.55	2232.29
680.74	2047.97
680.93	2039.78
681.11	2240.48
681.30	2136.03
681.48	2123.74
681.67	2097.12
681.85	2185.18
682.04	2095.07
682.23	2310.11
682.41	2238.43
682.60	2131.94
682.78	2211.81
682.97	2052.06
683.15	2209.76
683.34	2283.49
683.53	2346.97
683.71	2023.39
683.90	2355.16
684.08	2326.49
684.27	2181.09
684.45	2291.68
684.64	2322.40
684.82	2222.05
685.01	2281.44
685.19	2191.33
685.38	2353.12
685.57	2185.18
685.75	2142.18
685.94	2140.13
686.12	2152.42
686.31	2088.93
686.49	2332.64
686.68	2017.25
686.86	2328.54
687.05	2176.99
687.23	2349.02
687.42	2146.27
687.60	2035.68
687.79	2238.43
687.97	2342.88
688.16	2209.76
688.34	2324.44
688.53	2041.82
688.71	2256.86
688.90	2340.83
689.08	2152.42
689.27	2039.78
689.45	2283.49
689.64	2228.19
689.82	2228.19
690.01	2236.38
690.19	2240.48
690.38	2289.63
690.56	2346.97
690.75	2138.08
690.93	2133.98
691.12	2201.57
691.30	2199.52
691.49	2226.14
691.67	2183.13
691.86	2435.03
692.04	2133.98
692.23	2273.25
692.41	2308.06
692.60	2424.80
692.78	2367.45
692.97	2273.25
693.15	2224.09
693.34	2299.87
693.52	2308.06
693.71	2172.89
693.89	2207.71
694.08	2045.92
694.26	2322.40
694.44	2234.33
694.63	2246.62
694.81	2121.70
695.00	2080.74
695.18	2236.38
695.37	2416.60
695.55	2230.24
695.74	2160.61
695.92	2111.46
696.10	2414.56
696.29	2105.31
696.47	2080.74
696.66	2035.68
696.84	2113.50
697.03	2158.56
697.21	2410.46
697.40	3182.54
697.58	2324.44
697.76	2140.13
697.95	2166.75
698.13	2084.83
698.32	2131.94
698.50	2179.04
698.68	2205.66
698.87	2230.24
699.05	2351.07
699.24	2168.80
699.42	1994.72
699.61	2232.29
699.79	2211.81
699.97	2183.13
700.16	2056.16
700.34	2072.54
700.53	2207.71
700.71	2236.38
700.89	2203.61
701.08	2095.07
701.26	2195.42
701.45	2768.85
701.63	2074.59
701.81	2162.66
702.00	2115.55
702.18	2203.61
702.37	2260.96
702.55	2406.36
702.73	2334.68
702.92	2394.08
703.10	2562.01
703.28	2422.75
703.47	2203.61
703.65	2412.51
703.84	2441.18
704.02	2283.49
704.20	2506.71
704.39	2215.90
704.57	2154.46
704.75	2349.02
704.94	2363.36
705.12	2297.82
705.30	2523.10
705.49	4601.79
705.67	10774.36
705.86	19631.83
706.04	24055.44
706.22	27706.97
706.41	28595.79
706.59	24395.40
706.77	17235.70
706.96	14569.25
707.14	12320.58
707.32	10780.51
707.51	9559.92
707.69	7909.26
707.87	6379.42
708.06	5164.98
708.24	4126.66
708.42	3217.36
708.61	3133.39
708.79	2502.62
708.97	2445.27
709.16	2396.12
709.34	2342.88
709.52	2244.57
709.71	2193.37
709.89	2326.49
710.07	2142.18
710.26	2125.79
710.44	2207.71
710.62	2285.53
710.80	2271.20
710.99	2250.72
711.17	2271.20
711.35	2220.00
711.54	2154.46
711.72	2342.88
711.90	2236.38
712.09	2242.53
712.27	2191.33
712.45	2281.44
712.63	2095.07
712.82	2220.00
713.00	2185.18
713.18	2236.38
713.37	2273.25
713.55	2252.77
713.73	2217.95
713.91	2197.47
714.10	2213.85
714.28	2195.42
714.46	2250.72
714.65	2211.81
714.83	2211.81
715.01	2248.67
715.19	2207.71
715.38	2127.84
715.56	2295.77
715.74	2086.88
715.92	2109.41
716.11	2320.35
716.29	2004.96
716.47	2217.95
716.65	2146.27
716.84	2080.74
717.02	2254.81
717.20	2050.02
717.38	2125.79
717.57	2238.43
717.75	2201.57
717.93	2150.37
718.11	2250.72
718.30	2136.03
718.48	2181.09
718.66	2322.40
718.84	2318.30
719.03	2107.36
719.21	2088.93
719.39	2396.12
719.57	2191.33
719.75	2252.77
719.94	2133.98
720.12	2166.75
720.30	2217.95
720.48	2187.23
720.67	2113.50
720.85	2035.68
721.03	2148.32
721.21	2099.17
721.39	2330.59
721.58	2228.19
721.76	2226.14
721.94	2291.68
722.12	2187.23
722.30	2355.16
722.49	2127.84
722.67	2236.38
722.85	2260.96
723.03	2072.54
723.21	2174.94
723.40	2195.42
723.58	2281.44
723.76	2248.67
723.94	2351.07
724.12	2308.06
724.30	2412.51
724.49	2320.35
724.67	2207.71
724.85	2320.35
725.03	2076.64
725.21	2236.38
725.40	2299.87
725.58	2148.32
725.76	2326.49
725.94	2269.15
726.12	2119.65
726.30	2267.10
726.49	2195.42
726.67	2181.09
726.85	2285.53
727.03	2559.96
727.21	3665.86
727.39	5412.78
727.57	6334.37
727.76	7083.92
727.94	7503.76
728.12	7145.36
728.30	5752.74
728.48	4847.54
728.66	4575.16
728.84	4034.50
729.03	3581.90
729.21	3061.71
729.39	2793.43
729.57	2582.49
729.75	2402.27
729.93	2332.64
730.11	2168.80
730.30	2191.33
730.48	2195.42
730.66	2328.54
730.84	2326.49
731.02	2156.51
731.20	2209.76
731.38	2224.09
731.56	2158.56
731.74	2086.88
731.93	2215.90
732.11	2119.65
732.29	2152.42
732.47	2258.91
732.65	2273.25
732.83	2308.06
733.01	2158.56
733.19	2170.85
733.37	2277.34
733.56	2220.00
733.74	2187.23
733.92	2330.59
734.10	2125.79
734.28	2277.34
734.46	2107.36
734.64	2191.33
734.82	2174.94
735.00	2152.42
735.18	2156.51
735.36	2152.42
735.54	2176.99
735.73	2217.95
735.91	2269.15
736.09	2244.57
736.27	2260.96
736.45	2217.95
736.63	2101.22
736.81	2074.59
736.99	2306.01
737.17	2301.92
737.35	2183.13
737.53	2199.52
737.71	2156.51
737.89	2301.92
738.07	2097.12
738.25	2152.42
738.43	2078.69
738.61	2129.89
738.80	2099.17
738.98	2103.26
739.16	2230.24
739.34	2144.22
739.52	2306.01
739.70	2189.28
739.88	2277.34
740.06	2353.12
740.24	2058.21
740.42	2336.73
740.60	2035.68
740.78	2166.75
740.96	2033.63
741.14	2099.17
741.32	2238.43
741.50	2093.02
741.68	2426.84
741.86	2291.68
742.04	2123.74
742.22	2125.79
742.40	2265.05
742.58	2349.02
742.76	2201.57
742.94	2197.47
743.12	2078.69
743.30	2146.27
743.48	2316.25
743.66	2095.07
743.84	2240.48
744.02	2209.76
744.20	2107.36
744.38	2068.45
744.56	2179.04
744.74	2379.74
744.92	2252.77
745.10	2324.44
745.28	2256.86
745.46	2340.83
745.64	2117.60
745.82	2277.34
746.00	2195.42
746.18	2238.43
746.36	2043.87
746.54	2195.42
746.72	2166.75
746.90	2125.79
747.08	2340.83
747.26	2129.89
747.44	2293.72
747.62	2250.72
747.80	2215.90
747.98	2285.53
748.15	2146.27
748.33	2367.45
748.51	2211.81
748.69	2242.53
748.87	2181.09
749.05	2162.66
749.23	2191.33
749.41	2086.88
749.59	2123.74
749.77	2228.19
749.95	2105.31
750.13	2111.46
750.31	2248.67
750.49	2097.12
750.67	2316.25
750.85	2324.44
751.03	2242.53
751.20	2439.13
751.38	2236.38
751.56	2086.88
751.74	2236.38
751.92	2115.55
752.10	2095.07
752.28	2252.77
752.46	2109.41
752.64	2179.04
752.82	2224.09
753.00	2310.11
753.18	2189.28
753.35	2131.94
753.53	2172.89
753.71	2201.57
753.89	2297.82
754.07	2201.57
754.25	2234.33
754.43	2197.47
754.61	2101.22
754.79	2205.66
754.97	2148.32
755.14	2330.59
755.32	2080.74
755.50	2238.43
755.68	2136.03
755.86	2107.36
756.04	2213.85
756.22	1990.63
756.40	2326.49
756.57	2383.84
756.75	2154.46
756.93	2420.70
757.11	2310.11
757.29	2166.75
757.47	2068.45
757.65	2138.08
757.82	1996.77
758.00	2105.31
758.18	2160.61
758.36	2121.70
758.54	2367.45
758.72	2070.50
758.90	2246.62
759.07	2224.09
759.25	2179.04
759.43	2228.19
759.61	2045.92
759.79	3071.95
759.97	2279.39
760.15	2117.60
760.32	2144.22
760.50	2154.46
760.68	2414.56
760.86	2095.07
761.04	2293.72
761.22	2318.30
761.39	2209.76
761.57	2242.53
761.75	2158.56
761.93	2240.48
762.11	2183.13
762.28	2185.18
762.46	2054.11
762.64	2277.34
762.82	2070.50
763.00	2162.66
763.18	2322.40
763.35	2121.70
763.53	2211.81
763.71	2170.85
763.89	2176.99
764.07	2170.85
764.24	2162.66
764.42	2265.05
764.60	2170.85
764.78	2252.77
764.96	2371.55
765.13	2291.68
765.31	2164.70
765.49	2271.20
765.67	2113.50
765.84	2113.50
766.02	2090.98
766.20	2117.60
766.38	2199.52
766.56	2240.48
766.73	2254.81
766.91	2158.56
767.09	2193.37
767.27	2289.63
767.44	2111.46
767.62	2324.44
767.80	2248.67
767.98	2162.66
768.15	2185.18
768.33	2215.90
768.51	2205.66
768.69	2236.38
768.87	2203.61
769.04	2138.08
769.22	2465.75
769.40	2273.25
769.58	2455.51
769.75	2254.81
769.93	2256.86
770.11	2138.08
770.28	2152.42
770.46	2299.87
770.64	2152.42
770.82	2201.57
770.99	2164.70
771.17	2217.95
771.35	2068.45
771.53	2172.89
771.70	2136.03
771.88	2193.37
772.06	2148.32
772.23	2131.94
772.41	2222.05
772.59	2097.12
772.77	2142.18
772.94	2111.46
773.12	2226.14
773.30	2211.81
773.47	2234.33
773.65	2103.26
773.83	2254.81
774.01	2222.05
774.18	2070.50
774.36	2236.38
774.54	2037.73
774.71	2222.05
774.89	2117.60
775.07	2123.74
775.24	2117.60
775.42	2099.17
775.60	2375.64
775.78	2176.99
775.95	2117.60
776.13	1964.00
776.31	2039.78
776.48	2226.14
776.66	2377.69
776.84	2136.03
777.01	2179.04
777.19	2164.70
777.37	2176.99
777.54	2273.25
777.72	2334.68
777.90	2236.38
778.07	2136.03
778.25	2457.56
778.43	2254.81
778.60	2138.08
778.78	2285.53
778.96	2326.49
779.13	2095.07
779.31	2185.18
779.49	2183.13
779.66	2258.91
779.84	2176.99
780.01	2193.37
780.19	2138.08
780.37	2260.96
780.54	2281.44
780.72	2131.94
780.90	2142.18
781.07	2285.53
781.25	2050.02
781.43	2176.99
781.60	2170.85
781.78	2279.39
781.95	2207.71
782.13	2113.50
782.31	2154.46
782.48	2023.39
782.66	2260.96
782.83	2392.03
783.01	2150.37
783.19	2240.48
783.36	2127.84
783.54	2068.45
783.72	2379.74
783.89	2154.46
784.07	2234.33
784.24	2240.48
784.42	2314.20
784.60	2232.29
784.77	2185.18
784.95	2000.87
785.12	2179.04
785.30	2150.37
785.47	2158.56
785.65	2146.27
785.83	2185.18
786.00	2117.60
786.18	2168.80
786.35	1990.63
786.53	2172.89
786.71	2226.14
786.88	2226.14
787.06	2236.38
787.23	2195.42
787.41	2066.40
787.58	2162.66
787.76	2111.46
787.94	2193.37
788.11	2179.04
788.29	2111.46
788.46	2097.12
788.64	2146.27
788.81	2054.11
788.99	2146.27
789.16	2158.56
789.34	2213.85
789.52	2146.27
789.69	2133.98
789.87	2090.98
790.04	2136.03
790.22	2154.46
790.39	2385.88
790.57	2093.02
790.74	2170.85
790.92	2242.53
791.09	2076.64
791.27	2179.04
791.44	2328.54
791.62	2138.08
791.79	2240.48
791.97	2129.89
792.15	2461.66
792.32	2240.48
792.50	2260.96
792.67	2299.87
792.85	2326.49
793.02	2224.09
793.20	2154.46
793.37	1998.82
793.55	2150.37
793.72	2109.41
793.90	2338.78
794.07	2121.70
794.25	2064.35
794.42	2187.23
794.60	2150.37
794.77	2256.86
794.95	2254.81
795.12	2281.44
795.30	2244.57
795.47	1943.52
795.65	2471.90
795.82	2236.38
796.00	2133.98
796.17	2131.94
796.34	2113.50
796.52	2232.29
796.69	2207.71
796.87	2271.20
797.04	2220.00
797.22	2207.71
797.39	2197.47
797.57	2258.91
797.74	2199.52
797.92	2236.38
798.09	2146.27
798.27	2346.97
798.44	2111.46
798.62	2113.50
798.79	2258.91
798.96	2217.95
799.14	2205.66
799.31	2457.56
799.49	2136.03
799.66	2142.18
799.84	2209.76
800.01	1998.82
800.19	2236.38
800.36	2017.25
800.53	2252.77
800.71	2187.23
800.88	2338.78
801.06	2195.42
801.23	2095.07
801.41	2109.41
801.58	2095.07
801.75	2138.08
801.93	2154.46
802.10	2291.68
802.28	2199.52
802.45	2103.26
802.63	2334.68
802.80	2363.36
802.97	2162.66
803.15	2183.13
803.32	2109.41
803.50	2099.17
803.67	2117.60
803.84	2062.30
804.02	2224.09
804.19	2203.61
804.37	1957.86
804.54	2084.83
804.71	2066.40
804.89	2146.27
805.06	2086.88
805.24	2119.65
805.41	2160.61
805.58	2086.88
805.76	2422.75
805.93	2187.23
806.10	2322.40
806.28	2265.05
806.45	2140.13
806.63	2176.99
806.80	2263.01
806.97	2254.81
807.15	2119.65
807.32	2211.81
807.49	2136.03
807.67	2000.87
807.84	2238.43
808.01	2000.87
808.19	2359.26
808.36	2449.37
808.54	2160.61
808.71	2144.22
808.88	2226.14
809.06	2277.34
809.23	2256.86
809.40	2193.37
809.58	2199.52
809.75	2164.70
809.92	2107.36
810.10	2437.08
810.27	2199.52
810.44	2187.23
810.62	2193.37
810.79	2207.71
810.96	2203.61
811.14	2142.18
811.31	2213.85
811.48	2240.48
811.66	2193.37
811.83	2324.44
812.00	2281.44
812.18	2195.42
812.35	2404.32
812.52	2201.57
812.69	2191.33
812.87	2162.66
813.04	2144.22
813.21	2170.85
813.39	2166.75
813.56	2136.03
813.73	2242.53
813.91	2058.21
814.08	2176.99
814.25	2244.57
814.42	2007.01
814.60	2211.81
814.77	2185.18
814.94	2205.66
815.12	2140.13
815.29	2310.11
815.46	2127.84
815.63	2267.10
815.81	2170.85
815.98	2138.08
816.15	2215.90
816.33	2189.28
816.50	2172.89
816.67	2183.13
816.84	2123.74
817.02	2086.88
817.19	2142.18
817.36	2310.11
817.53	2211.81
817.71	2013.15
817.88	2232.29
818.05	2119.65
818.22	2099.17
818.40	2344.92
818.57	2187.23
818.74	2213.85
818.91	2148.32
819.09	2209.76
819.26	2258.91
819.43	2103.26
819.60	2140.13
819.78	2185.18
819.95	2269.15
820.12	2113.50
820.29	2267.10
820.47	2263.01
820.64	2072.54
820.81	2043.87
820.98	2117.60
821.15	2215.90
821.33	2269.15
821.50	2113.50
821.67	2242.53
821.84	2082.78
822.02	2238.43
822.19	2285.53
822.36	2166.75
822.53	2103.26
822.70	2088.93
822.88	2236.38
823.05	2271.20
823.22	2181.09
823.39	2246.62
823.56	2193.37
823.74	2357.21
823.91	2004.96
824.08	2111.46
824.25	2123.74
824.42	2324.44
824.60	2088.93
824.77	2187.23
824.94	2115.55
825.11	2148.32
825.28	2052.06
825.45	2199.52
825.63	2201.57
825.80	2058.21
825.97	2234.33
826.14	2179.04
826.31	2023.39
826.48	2248.67
826.66	2113.50
826.83	2179.04
827.00	2146.27
827.17	2154.46
827.34	2125.79
827.51	2109.41
827.69	2244.57
827.86	2125.79
828.03	2136.03
828.20	2256.86
828.37	2105.31
828.54	2226.14
828.71	2103.26
828.89	2322.40
829.06	2265.05
829.23	2351.07
829.40	2039.78
829.57	2156.51
829.74	2297.82
829.91	2215.90
830.09	2095.07
830.26	2275.29
830.43	2324.44
830.60	2224.09
830.77	2308.06
830.94	2351.07
831.11	2289.63
831.28	2121.70
831.46	2236.38
831.63	2103.26
831.80	2256.86
831.97	2166.75
832.14	2154.46
832.31	2199.52
832.48	2232.29
832.65	2285.53
832.82	2201.57
832.99	2174.94
833.17	2103.26
833.34	2379.74
833.51	2238.43
833.68	2017.25
833.85	2287.58
834.02	2127.84
834.19	2072.54
834.36	2119.65
834.53	2260.96
834.70	2228.19
834.87	2277.34
835.04	2170.85
835.22	2158.56
835.39	2119.65
835.56	2068.45
835.73	2156.51
835.90	2217.95
836.07	2107.36
836.24	2248.67
836.41	2056.16
836.58	2117.60
836.75	2238.43
836.92	2215.90
837.09	2193.37
837.26	2285.53
837.43	2213.85
837.60	2162.66
837.77	2099.17
837.94	2170.85
838.12	2336.73
838.29	2148.32
838.46	2062.30
838.63	2060.26
838.80	2359.26
838.97	2201.57
839.14	2170.85
839.31	2234.33
839.48	2230.24
839.65	2062.30
839.82	2197.47
839.99	2211.81
840.16	2181.09
840.33	2099.17
840.50	2181.09
840.67	2125.79
840.84	1972.19
841.01	2144.22
841.18	2052.06
841.35	2179.04
841.52	2172.89
841.69	2301.92
841.86	2138.08
842.03	2254.81
842.20	2205.66
842.37	2154.46
842.54	2162.66
842.71	2154.46
842.88	2056.16
843.05	2181.09
843.22	2121.70
843.39	2248.67
843.56	2146.27
843.73	2168.80
843.90	2174.94
844.07	2248.67
844.24	2269.15
844.41	2205.66
844.58	2187.23
844.75	2224.09
844.92	2215.90
845.09	2242.53
845.26	2164.70
845.43	2295.77
845.60	2179.04
845.77	2273.25
845.94	2119.65
846.10	2265.05
846.27	2019.30
846.44	2125.79
846.61	2080.74
846.78	2248.67
846.95	2289.63
847.12	2148.32
847.29	2205.66
847.46	2062.30
847.63	2310.11
847.80	2078.69
847.97	2070.50
848.14	2340.83
848.31	2168.80
848.48	1968.10
848.65	2226.14
848.82	2150.37
848.98	2351.07
849.15	2195.42
849.32	2269.15
849.49	2275.29
849.66	2207.71
849.83	2138.08
850.00	2084.83
850.17	2211.81
850.34	2197.47
850.51	2133.98
850.68	2111.46
850.85	2330.59
851.01	2211.81
851.18	2170.85
851.35	2156.51
851.52	2340.83
851.69	2318.30
851.86	1974.24
852.03	2066.40
852.20	2240.48
852.37	2199.52
852.53	2013.15
852.70	2084.83
852.87	2215.90
853.04	2238.43
853.21	2154.46
853.38	2256.86
853.55	2351.07
853.72	2240.48
853.89	2076.64
854.05	2076.64
854.22	2164.70
854.39	2189.28
854.56	2252.77
854.73	2275.29
854.90	2072.54
855.07	2150.37
855.23	2076.64
855.40	2193.37
855.57	2172.89
855.74	2047.97
855.91	2404.32
856.08	2056.16
856.25	2088.93
856.41	2172.89
856.58	2138.08
856.75	2158.56
856.92	2047.97
857.09	2275.29
857.26	2045.92
857.42	2133.98
857.59	2205.66
857.76	2127.84
857.93	2136.03
858.10	2185.18
858.27	2021.35
858.43	2203.61
858.60	2158.56
858.77	2021.35
858.94	2074.59
859.11	2275.29
859.27	2154.46
859.44	2179.04
859.61	2334.68
859.78	2209.76
859.95	2113.50
860.12	2078.69
860.28	2324.44
860.45	2416.60
860.62	2176.99
860.79	2256.86
860.95	2217.95
861.12	2090.98
861.29	2072.54
861.46	2054.11
861.63	2181.09
861.79	2228.19
861.96	2095.07
862.13	2160.61
862.30	2310.11
862.47	2170.85
862.63	2027.49
862.80	2234.33
862.97	2267.10
863.14	2211.81
863.30	2129.89
863.47	2109.41
863.64	2367.45
863.81	2199.52
863.97	2129.89
864.14	2146.27
864.31	2203.61
864.48	2201.57
864.65	2150.37
864.81	2256.86
864.98	2209.76
865.15	2273.25
865.32	2168.80
865.48	2232.29
865.65	2342.88
865.82	2088.93
865.98	2179.04
866.15	2236.38
866.32	2146.27
866.49	2146.27
866.65	2238.43
866.82	2017.25
866.99	2179.04
867.16	2093.02
867.32	2154.46
867.49	2076.64
867.66	2244.57
867.83	2084.83
867.99	1998.82
868.16	2191.33
868.33	2047.97
868.49	2172.89
868.66	2158.56
868.83	2207.71
868.99	2260.96
869.16	2234.33
869.33	2265.05
869.50	2209.76
869.66	2144.22
869.83	2220.00
870.00	2084.83
870.16	2258.91
870.33	2203.61
870.50	2140.13
870.66	2213.85
870.83	2228.19
871.00	2146.27
871.17	2199.52
871.33	2160.61
871.50	2113.50
871.67	2176.99
871.83	2017.25
872.00	2332.64
872.17	2140.13
872.33	2406.36
872.50	2289.63
872.67	2164.70
872.83	2213.85
873.00	2220.00
873.17	2275.29
873.33	2162.66
873.50	2193.37
873.67	2129.89
873.83	2101.22
874.00	2138.08
874.16	2234.33
874.33	2199.52
874.50	2033.63
874.66	2195.42
874.83	2146.27
875.00	2207.71
875.16	2297.82
875.33	2217.95
875.50	2039.78
875.66	2078.69
875.83	2201.57
875.99	2258.91
876.16	2209.76
876.33	2097.12
876.49	2191.33
876.66	2187.23
876.83	2201.57
876.99	2115.55
877.16	2193.37
877.32	2133.98
877.49	2162.66
877.66	2226.14
877.82	2414.56
877.99	2168.80
878.15	2293.72
878.32	2232.29
878.49	2207.71
878.65	2152.42
878.82	2260.96
878.98	2133.98
879.15	2277.34
879.32	2150.37
879.48	2277.34
879.65	2082.78
879.81	2150.37
879.98	2121.70
880.15	2131.94
880.31	2224.09
880.48	2070.50
880.64	2236.38
880.81	2183.13
880.97	2389.98
881.14	2328.54
881.31	2097.12
881.47	2320.35
881.64	2119.65
881.80	1992.67
881.97	2275.29
882.13	2295.77
882.30	2068.45
882.47	2154.46
882.63	2080.74
882.80	2187.23
882.96	2146.27
883.13	2385.88
883.29	2193.37
883.46	2095.07
883.62	2363.36
883.79	2215.90
883.95	2217.95
884.12	2189.28
884.29	2342.88
884.45	2258.91
884.62	2179.04
884.78	2025.44
884.95	2375.64
885.11	2105.31
885.28	2228.19
885.44	2076.64
885.61	2224.09
885.77	2258.91
885.94	2207.71
886.10	2158.56
886.27	2146.27
886.43	2334.68
886.60	2230.24
886.76	2166.75
886.93	2115.55
887.09	2125.79
887.26	2164.70
887.42	2209.76
887.59	2308.06
887.75	2281.44
887.92	2334.68
888.08	2222.05
888.25	2371.55
888.41	2248.67
888.58	2115.55
888.74	2093.02
888.91	2215.90
>>>>>End Processed Spectral Data<<<<<
