SpectraSuite Data File
++++++++++++++++++++++++++++++++++++
Date: Thu May 05 12:35:48 CEST 2016
User: root
Dark Spectrum Present: No
Reference Spectrum Present: No
Number of Sampled Component Spectra: 1
Spectrometers: USB4C02835
Integration Time (usec): 100000 (USB4C02835)
Spectra Averaged: 1 (USB4C02835)
Boxcar Smoothing: 0 (USB4C02835)
Correct for Electrical Dark: No (USB4C02835)
Strobe/Lamp Enabled: No (USB4C02835)
Correct for Detector Non-linearity: No (USB4C02835)
Correct for Stray Light: No (USB4C02835)
Number of Pixels in Processed Spectrum: 3648
>>>>>Begin Processed Spectral Data<<<<<
177.47	1718.25
177.69	1718.25
177.91	1718.25
178.13	1751.01
178.36	1728.49
178.58	2095.07
178.80	2224.09
179.02	2105.31
179.24	2076.64
179.46	2142.18
179.68	2215.90
179.90	2099.17
180.13	2136.03
180.35	2047.97
180.57	2150.37
180.79	2265.05
181.01	2142.18
181.23	2160.61
181.45	2244.57
181.67	2179.04
181.90	2285.53
182.12	2170.85
182.34	1970.15
182.56	2172.89
182.78	2199.52
183.00	2080.74
183.22	2127.84
183.44	2043.87
183.66	2400.22
183.89	2226.14
184.11	2088.93
184.33	2260.96
184.55	2330.59
184.77	2199.52
184.99	2105.31
185.21	2142.18
185.43	2392.03
185.65	2056.16
185.87	2158.56
186.10	2357.21
186.32	2430.94
186.54	2138.08
186.76	2176.99
186.98	2213.85
187.20	2195.42
187.42	2131.94
187.64	2111.46
187.86	2250.72
188.08	2213.85
188.30	2095.07
188.52	2168.80
188.75	2338.78
188.97	2267.10
189.19	2111.46
189.41	2146.27
189.63	2314.20
189.85	2138.08
190.07	2035.68
190.29	2031.58
190.51	2215.90
190.73	2039.78
190.95	2195.42
191.17	2129.89
191.39	2076.64
191.61	2187.23
191.84	2127.84
192.06	2240.48
192.28	2056.16
192.50	2480.09
192.72	2129.89
192.94	2181.09
193.16	2273.25
193.38	2254.81
193.60	2103.26
193.82	2127.84
194.04	2293.72
194.26	2207.71
194.48	2144.22
194.70	2119.65
194.92	2183.13
195.14	2224.09
195.36	2123.74
195.58	2209.76
195.80	2156.51
196.02	2078.69
196.24	2072.54
196.46	2156.51
196.69	2146.27
196.91	2400.22
197.13	2168.80
197.35	2113.50
197.57	2285.53
197.79	2297.82
198.01	2183.13
198.23	2195.42
198.45	2283.49
198.67	2078.69
198.89	2105.31
199.11	2183.13
199.33	2205.66
199.55	2031.58
199.77	2045.92
199.99	2211.81
200.21	2176.99
200.43	2187.23
200.65	2070.50
200.87	2013.15
201.09	2164.70
201.31	2185.18
201.53	2168.80
201.75	2228.19
201.97	2263.01
202.19	2209.76
202.41	2197.47
202.63	2330.59
202.85	2228.19
203.07	2267.10
203.29	2117.60
203.51	2047.97
203.73	2164.70
203.95	2537.43
204.17	2117.60
204.39	2162.66
204.61	2226.14
204.83	2224.09
205.05	2238.43
205.27	2187.23
205.49	2359.26
205.71	2125.79
205.93	2015.20
206.15	2101.22
206.37	2185.18
206.59	2189.28
206.81	2019.30
207.03	2099.17
207.25	2156.51
207.47	2256.86
207.69	2136.03
207.91	2318.30
208.13	2303.96
208.34	2099.17
208.56	2105.31
208.78	2174.94
209.00	2187.23
209.22	2070.50
209.44	2062.30
209.66	2136.03
209.88	2199.52
210.10	2109.41
210.32	2121.70
210.54	2195.42
210.76	2197.47
210.98	2164.70
211.20	1949.67
211.42	2148.32
211.64	2299.87
211.86	2277.34
212.08	2209.76
212.30	2170.85
212.52	2220.00
212.74	2131.94
212.96	2187.23
213.17	2168.80
213.39	2334.68
213.61	2359.26
213.83	2220.00
214.05	2209.76
214.27	2318.30
214.49	2148.32
214.71	2035.68
214.93	2236.38
215.15	2154.46
215.37	2306.01
215.59	2029.54
215.81	2207.71
216.03	2271.20
216.24	2234.33
216.46	2076.64
216.68	2127.84
216.90	2326.49
217.12	2277.34
217.34	2168.80
217.56	2199.52
217.78	2326.49
218.00	2256.86
218.22	2183.13
218.44	2125.79
218.66	2287.58
218.87	2418.65
219.09	2119.65
219.31	2095.07
219.53	2195.42
219.75	2144.22
219.97	2125.79
220.19	2144.22
220.41	2174.94
220.63	2373.60
220.85	2174.94
221.06	2105.31
221.28	2308.06
221.50	2215.90
221.72	2154.46
221.94	2125.79
222.16	2234.33
222.38	2244.57
222.60	2189.28
222.82	2213.85
223.03	2275.29
223.25	2168.80
223.47	2150.37
223.69	2332.64
223.91	2281.44
224.13	2224.09
224.35	2062.30
224.57	2201.57
224.78	2244.57
225.00	2050.02
225.22	2172.89
225.44	2191.33
225.66	2338.78
225.88	2146.27
226.10	2113.50
226.32	2191.33
226.53	2306.01
226.75	2119.65
226.97	2154.46
227.19	2181.09
227.41	2133.98
227.63	2189.28
227.85	1966.05
228.06	2205.66
228.28	2265.05
228.50	2256.86
228.72	2064.35
228.94	2076.64
229.16	1990.63
229.37	2072.54
229.59	2086.88
229.81	2207.71
230.03	2117.60
230.25	2111.46
230.47	2035.68
230.69	2064.35
230.90	2267.10
231.12	2117.60
231.34	2197.47
231.56	2222.05
231.78	2117.60
232.00	2154.46
232.21	2113.50
232.43	2164.70
232.65	2015.20
232.87	2230.24
233.09	2086.88
233.30	2162.66
233.52	2258.91
233.74	2174.94
233.96	2170.85
234.18	2203.61
234.40	2162.66
234.61	2428.89
234.83	2070.50
235.05	2064.35
235.27	2463.71
235.49	2320.35
235.70	2039.78
235.92	2258.91
236.14	2271.20
236.36	2365.40
236.58	2093.02
236.79	2181.09
237.01	2158.56
237.23	2158.56
237.45	2254.81
237.67	2095.07
237.88	2230.24
238.10	2330.59
238.32	2084.83
238.54	2056.16
238.76	2160.61
238.97	2033.63
239.19	2009.06
239.41	2234.33
239.63	2314.20
239.85	2162.66
240.06	2193.37
240.28	2185.18
240.50	2285.53
240.72	2224.09
240.93	2066.40
241.15	2279.39
241.37	2133.98
241.59	2265.05
241.81	2207.71
242.02	2119.65
242.24	2183.13
242.46	2232.29
242.68	2103.26
242.89	2117.60
243.11	2228.19
243.33	2146.27
243.55	2187.23
243.76	2154.46
243.98	2113.50
244.20	2215.90
244.42	2170.85
244.64	2146.27
244.85	2062.30
245.07	2054.11
245.29	2047.97
245.51	2207.71
245.72	2154.46
245.94	2349.02
246.16	2099.17
246.38	2201.57
246.59	2207.71
246.81	2086.88
247.03	2105.31
247.24	2019.30
247.46	2150.37
247.68	2201.57
247.90	2146.27
248.11	2144.22
248.33	2269.15
248.55	2164.70
248.77	2205.66
248.98	2213.85
249.20	2316.25
249.42	2269.15
249.64	2123.74
249.85	2117.60
250.07	2111.46
250.29	2260.96
250.50	2174.94
250.72	2035.68
250.94	2224.09
251.16	2416.60
251.37	2183.13
251.59	2183.13
251.81	2269.15
252.02	2392.03
252.24	2058.21
252.46	2240.48
252.68	2150.37
252.89	2099.17
253.11	2031.58
253.33	2256.86
253.54	2353.12
253.76	2129.89
253.98	2123.74
254.20	2197.47
254.41	2113.50
254.63	2123.74
254.85	2052.06
255.06	2176.99
255.28	2265.05
255.50	2220.00
255.71	2068.45
255.93	2070.50
256.15	2246.62
256.36	2191.33
256.58	2047.97
256.80	2115.55
257.02	2170.85
257.23	2240.48
257.45	2133.98
257.67	2220.00
257.88	2150.37
258.10	2230.24
258.32	2207.71
258.53	2203.61
258.75	2318.30
258.97	2119.65
259.18	2066.40
259.40	2160.61
259.62	2340.83
259.83	2414.56
260.05	2205.66
260.27	2582.49
260.48	2320.35
260.70	2078.69
260.92	2078.69
261.13	2193.37
261.35	2277.34
261.57	2209.76
261.78	1980.39
262.00	2117.60
262.22	2248.67
262.43	2121.70
262.65	2088.93
262.86	2109.41
263.08	2504.67
263.30	2166.75
263.51	2084.83
263.73	2050.02
263.95	2414.56
264.16	2088.93
264.38	2115.55
264.60	2086.88
264.81	2203.61
265.03	2271.20
265.25	2250.72
265.46	2131.94
265.68	2285.53
265.89	2250.72
266.11	1982.43
266.33	2131.94
266.54	2283.49
266.76	2291.68
266.98	2174.94
267.19	2222.05
267.41	2244.57
267.62	2185.18
267.84	2086.88
268.06	2224.09
268.27	2258.91
268.49	2271.20
268.70	2236.38
268.92	2129.89
269.14	2166.75
269.35	2084.83
269.57	2133.98
269.79	2146.27
270.00	2156.51
270.22	2310.11
270.43	2076.64
270.65	1964.00
270.87	2162.66
271.08	2293.72
271.30	2242.53
271.51	2158.56
271.73	2211.81
271.95	2258.91
272.16	2185.18
272.38	2179.04
272.59	2144.22
272.81	2246.62
273.02	2109.41
273.24	2133.98
273.46	2299.87
273.67	2129.89
273.89	2035.68
274.10	2136.03
274.32	2371.55
274.54	2269.15
274.75	2265.05
274.97	2123.74
275.18	2260.96
275.40	2252.77
275.61	2088.93
275.83	2238.43
276.05	2011.11
276.26	2248.67
276.48	2097.12
276.69	2115.55
276.91	2086.88
277.12	2361.31
277.34	2260.96
277.55	2258.91
277.77	2160.61
277.99	2111.46
278.20	2043.87
278.42	1964.00
278.63	2099.17
278.85	2074.59
279.06	2002.91
279.28	2269.15
279.49	2330.59
279.71	2303.96
279.93	2115.55
280.14	2146.27
280.36	2076.64
280.57	2277.34
280.79	2162.66
281.00	2211.81
281.22	2097.12
281.43	2287.58
281.65	1996.77
281.86	2013.15
282.08	2174.94
282.29	2279.39
282.51	2015.20
282.73	2068.45
282.94	2070.50
283.16	2203.61
283.37	2248.67
283.59	2109.41
283.80	2232.29
284.02	2166.75
284.23	2217.95
284.45	2123.74
284.66	2064.35
284.88	2095.07
285.09	2252.77
285.31	2256.86
285.52	2326.49
285.74	2068.45
285.95	2236.38
286.17	2146.27
286.38	2244.57
286.60	2127.84
286.81	2105.31
287.03	2183.13
287.24	2179.04
287.46	2244.57
287.67	2258.91
287.89	2310.11
288.10	2195.42
288.32	2248.67
288.53	2306.01
288.75	2097.12
288.96	2295.77
289.18	2113.50
289.39	2138.08
289.61	2209.76
289.82	2426.84
290.04	2404.32
290.25	2076.64
290.47	2205.66
290.68	2154.46
290.90	2316.25
291.11	2035.68
291.33	2260.96
291.54	2103.26
291.76	2170.85
291.97	2207.71
292.18	2170.85
292.40	2138.08
292.61	2062.30
292.83	2398.17
293.04	2215.90
293.26	2267.10
293.47	2138.08
293.69	2064.35
293.90	2154.46
294.12	2398.17
294.33	2152.42
294.55	2220.00
294.76	2258.91
294.97	2310.11
295.19	2400.22
295.40	2176.99
295.62	2205.66
295.83	2289.63
296.05	2150.37
296.26	2222.05
296.48	2179.04
296.69	2160.61
296.90	2187.23
297.12	2238.43
297.33	2287.58
297.55	2211.81
297.76	2267.10
297.98	2250.72
298.19	2170.85
298.41	2224.09
298.62	2140.13
298.83	2279.39
299.05	2232.29
299.26	2226.14
299.48	2072.54
299.69	2240.48
299.90	2166.75
300.12	2023.39
300.33	2220.00
300.55	2146.27
300.76	2236.38
300.98	2131.94
301.19	2306.01
301.40	2088.93
301.62	2084.83
301.83	2205.66
302.05	2162.66
302.26	2154.46
302.47	2170.85
302.69	2103.26
302.90	2148.32
303.12	1994.72
303.33	2199.52
303.54	2404.32
303.76	2162.66
303.97	2168.80
304.19	2287.58
304.40	2109.41
304.61	2172.89
304.83	2373.60
305.04	2201.57
305.26	2289.63
305.47	2060.26
305.68	2187.23
305.90	2050.02
306.11	2316.25
306.33	2201.57
306.54	2144.22
306.75	2164.70
306.97	2027.49
307.18	2127.84
307.39	2183.13
307.61	2232.29
307.82	2138.08
308.04	2203.61
308.25	2097.12
308.46	2291.68
308.68	2152.42
308.89	2162.66
309.10	2185.18
309.32	2211.81
309.53	2250.72
309.74	2250.72
309.96	2166.75
310.17	2308.06
310.39	2197.47
310.60	2238.43
310.81	2240.48
311.03	2064.35
311.24	2244.57
311.45	2242.53
311.67	2373.60
311.88	2170.85
312.09	2191.33
312.31	2191.33
312.52	2170.85
312.73	2117.60
312.95	2078.69
313.16	2176.99
313.37	2203.61
313.59	2244.57
313.80	2310.11
314.01	2412.51
314.23	2080.74
314.44	2039.78
314.65	2037.73
314.87	2080.74
315.08	2207.71
315.29	2170.85
315.51	2054.11
315.72	2146.27
315.93	2289.63
316.15	2250.72
316.36	2170.85
316.57	2176.99
316.79	2136.03
317.00	2203.61
317.21	2199.52
317.43	2138.08
317.64	2142.18
317.85	2084.83
318.07	2029.54
318.28	2183.13
318.49	2383.84
318.70	2473.95
318.92	2383.84
319.13	2344.92
319.34	2392.03
319.56	2263.01
319.77	2306.01
319.98	2295.77
320.20	2236.38
320.41	2273.25
320.62	2242.53
320.83	2181.09
321.05	2398.17
321.26	2129.89
321.47	2226.14
321.69	2289.63
321.90	2078.69
322.11	2201.57
322.32	2213.85
322.54	2293.72
322.75	2215.90
322.96	2455.51
323.18	2031.58
323.39	2004.96
323.60	2199.52
323.81	2193.37
324.03	2162.66
324.24	2232.29
324.45	2217.95
324.66	2105.31
324.88	2211.81
325.09	2398.17
325.30	2209.76
325.52	2172.89
325.73	2252.77
325.94	2138.08
326.15	2099.17
326.37	2113.50
326.58	2308.06
326.79	2344.92
327.00	2097.12
327.22	2242.53
327.43	2131.94
327.64	2072.54
327.85	2324.44
328.07	2197.47
328.28	2371.55
328.49	2166.75
328.70	2111.46
328.92	2160.61
329.13	2232.29
329.34	2312.16
329.55	2338.78
329.76	2248.67
329.98	2160.61
330.19	2334.68
330.40	2232.29
330.61	2144.22
330.83	2273.25
331.04	2160.61
331.25	2232.29
331.46	2127.84
331.68	2035.68
331.89	2424.80
332.10	2179.04
332.31	2080.74
332.52	2109.41
332.74	2285.53
332.95	2033.63
333.16	2127.84
333.37	2203.61
333.58	2080.74
333.80	2215.90
334.01	2072.54
334.22	2215.90
334.43	2162.66
334.64	2138.08
334.86	2105.31
335.07	2129.89
335.28	2346.97
335.49	2076.64
335.70	2136.03
335.92	2258.91
336.13	2441.18
336.34	2176.99
336.55	2146.27
336.76	2310.11
336.98	2052.06
337.19	2133.98
337.40	2281.44
337.61	2383.84
337.82	2168.80
338.04	2310.11
338.25	2039.78
338.46	2176.99
338.67	2160.61
338.88	2066.40
339.09	2086.88
339.31	2236.38
339.52	2121.70
339.73	2088.93
339.94	2260.96
340.15	2260.96
340.36	2160.61
340.58	2224.09
340.79	2121.70
341.00	2318.30
341.21	2107.36
341.42	2416.60
341.63	2189.28
341.85	2295.77
342.06	2254.81
342.27	2121.70
342.48	2263.01
342.69	1998.82
342.90	2160.61
343.12	2220.00
343.33	2086.88
343.54	2324.44
343.75	2265.05
343.96	2156.51
344.17	2054.11
344.38	2222.05
344.60	2119.65
344.81	2097.12
345.02	2183.13
345.23	2322.40
345.44	2326.49
345.65	2258.91
345.86	2224.09
346.07	2179.04
346.29	2131.94
346.50	2260.96
346.71	2285.53
346.92	2336.73
347.13	2367.45
347.34	2187.23
347.55	2154.46
347.76	2193.37
347.98	2054.11
348.19	2140.13
348.40	2312.16
348.61	2125.79
348.82	2287.58
349.03	2334.68
349.24	2054.11
349.45	2310.11
349.66	1988.58
349.88	2160.61
350.09	2115.55
350.30	2416.60
350.51	2279.39
350.72	2199.52
350.93	2156.51
351.14	2164.70
351.35	2250.72
351.56	2205.66
351.77	2203.61
351.99	2277.34
352.20	2328.54
352.41	2269.15
352.62	2039.78
352.83	2179.04
353.04	2238.43
353.25	2191.33
353.46	2269.15
353.67	2242.53
353.88	2021.35
354.09	2224.09
354.30	2211.81
354.52	2316.25
354.73	2222.05
354.94	2119.65
355.15	2301.92
355.36	2293.72
355.57	2111.46
355.78	2191.33
355.99	2179.04
356.20	2123.74
356.41	2340.83
356.62	2211.81
356.83	2166.75
357.04	2349.02
357.25	2090.98
357.46	2162.66
357.68	2045.92
357.89	2121.70
358.10	2236.38
358.31	2160.61
358.52	2172.89
358.73	2138.08
358.94	2076.64
359.15	2185.18
359.36	2242.53
359.57	2199.52
359.78	2226.14
359.99	2207.71
360.20	2080.74
360.41	2142.18
360.62	2322.40
360.83	2162.66
361.04	2154.46
361.25	2236.38
361.46	2363.36
361.67	2301.92
361.88	2211.81
362.09	2297.82
362.30	2263.01
362.51	2146.27
362.72	2105.31
362.93	2324.44
363.14	2133.98
363.35	2162.66
363.56	2023.39
363.78	2242.53
363.99	2312.16
364.20	2164.70
364.41	2203.61
364.62	2359.26
364.83	2228.19
365.04	2160.61
365.25	2166.75
365.46	2349.02
365.67	2113.50
365.88	2168.80
366.09	2131.94
366.30	2152.42
366.51	2252.77
366.72	2090.98
366.93	2179.04
367.14	2211.81
367.35	2332.64
367.56	2211.81
367.77	2230.24
367.98	2170.85
368.18	2265.05
368.39	2273.25
368.60	2084.83
368.81	2217.95
369.02	2295.77
369.23	2236.38
369.44	2050.02
369.65	2185.18
369.86	2224.09
370.07	2222.05
370.28	2127.84
370.49	2179.04
370.70	2213.85
370.91	2080.74
371.12	2068.45
371.33	2293.72
371.54	2138.08
371.75	2267.10
371.96	1978.34
372.17	2228.19
372.38	2181.09
372.59	2297.82
372.80	2113.50
373.01	2113.50
373.22	2195.42
373.43	2236.38
373.64	2009.06
373.85	2346.97
374.06	2359.26
374.26	2269.15
374.47	2258.91
374.68	2291.68
374.89	2271.20
375.10	2179.04
375.31	2273.25
375.52	2275.29
375.73	2299.87
375.94	2097.12
376.15	2349.02
376.36	2156.51
376.57	2138.08
376.78	2240.48
376.99	2226.14
377.20	2324.44
377.40	2228.19
377.61	2383.84
377.82	2197.47
378.03	2394.08
378.24	2248.67
378.45	2232.29
378.66	2207.71
378.87	2043.87
379.08	2097.12
379.29	2203.61
379.50	2299.87
379.71	2176.99
379.91	2220.00
380.12	2095.07
380.33	2207.71
380.54	2193.37
380.75	2201.57
380.96	2121.70
381.17	2277.34
381.38	2146.27
381.59	2232.29
381.80	2185.18
382.00	2326.49
382.21	2275.29
382.42	2316.25
382.63	2449.37
382.84	2228.19
383.05	2324.44
383.26	2342.88
383.47	2199.52
383.68	2250.72
383.88	2269.15
384.09	2197.47
384.30	2389.98
384.51	2252.77
384.72	2121.70
384.93	2080.74
385.14	2201.57
385.35	2234.33
385.55	2187.23
385.76	2293.72
385.97	2209.76
386.18	2211.81
386.39	2084.83
386.60	2209.76
386.81	2269.15
387.02	2133.98
387.22	2095.07
387.43	2224.09
387.64	2301.92
387.85	2330.59
388.06	2490.33
388.27	3981.25
388.48	8552.32
388.68	12107.59
388.89	14257.96
389.10	15419.16
389.31	14354.21
389.52	11216.72
389.73	9772.91
389.93	8736.63
390.14	8181.64
390.35	7225.23
390.56	6469.53
390.77	5308.34
390.98	4022.21
391.18	3354.57
391.39	2736.09
391.60	2330.59
391.81	2297.82
392.02	2144.22
392.23	2402.27
392.43	2197.47
392.64	2293.72
392.85	2203.61
393.06	2404.32
393.27	2187.23
393.47	2121.70
393.68	2146.27
393.89	2187.23
394.10	2328.54
394.31	2146.27
394.52	2234.33
394.72	2140.13
394.93	2342.88
395.14	2060.26
395.35	2172.89
395.56	2209.76
395.76	2148.32
395.97	2228.19
396.18	2455.51
396.39	2322.40
396.60	2660.31
396.80	2504.67
397.01	2338.78
397.22	2383.84
397.43	2381.79
397.64	2258.91
397.84	2332.64
398.05	2422.75
398.26	2252.77
398.47	2357.21
398.67	2330.59
398.88	2252.77
399.09	2269.15
399.30	2207.71
399.51	2297.82
399.71	2109.41
399.92	2187.23
400.13	2174.94
400.34	2189.28
400.54	2131.94
400.75	2338.78
400.96	2273.25
401.17	2387.93
401.37	2199.52
401.58	2179.04
401.79	2238.43
402.00	2277.34
402.21	2570.20
402.41	2523.10
402.62	2629.59
402.83	2602.97
403.04	2684.89
403.24	2848.72
403.45	2258.91
403.66	2506.71
403.87	2400.22
404.07	2490.33
404.28	2488.28
404.49	2383.84
404.70	2306.01
404.90	2293.72
405.11	2209.76
405.32	2252.77
405.52	2162.66
405.73	2154.46
405.94	2146.27
406.15	2138.08
406.35	2258.91
406.56	2265.05
406.77	2166.75
406.98	2244.57
407.18	2152.42
407.39	2281.44
407.60	2170.85
407.80	2138.08
408.01	2179.04
408.22	2246.62
408.43	2183.13
408.63	2254.81
408.84	2314.20
409.05	2320.35
409.25	2152.42
409.46	2158.56
409.67	2138.08
409.88	2127.84
410.08	2193.37
410.29	2129.89
410.50	2310.11
410.70	2244.57
410.91	2097.12
411.12	2201.57
411.32	2158.56
411.53	2133.98
411.74	2277.34
411.95	2277.34
412.15	2375.64
412.36	2299.87
412.57	2379.74
412.77	2338.78
412.98	2207.71
413.19	2158.56
413.39	2236.38
413.60	2256.86
413.81	2371.55
414.01	2129.89
414.22	2215.90
414.43	2277.34
414.63	2226.14
414.84	2400.22
415.05	2121.70
415.25	2078.69
415.46	2260.96
415.67	2142.18
415.87	2248.67
416.08	2211.81
416.29	2187.23
416.49	2207.71
416.70	2099.17
416.91	2234.33
417.11	2260.96
417.32	2283.49
417.53	2310.11
417.73	2250.72
417.94	2070.50
418.15	2234.33
418.35	2160.61
418.56	2183.13
418.77	2371.55
418.97	2301.92
419.18	2172.89
419.38	1964.00
419.59	2146.27
419.80	2373.60
420.00	2201.57
420.21	2103.26
420.42	2365.40
420.62	2277.34
420.83	2174.94
421.04	2160.61
421.24	2193.37
421.45	2228.19
421.65	2211.81
421.86	2125.79
422.07	2240.48
422.27	2224.09
422.48	2146.27
422.69	2058.21
422.89	2211.81
423.10	2197.47
423.30	2088.93
423.51	2187.23
423.72	2181.09
423.92	2260.96
424.13	2025.44
424.33	2209.76
424.54	2224.09
424.75	2211.81
424.95	2394.08
425.16	2263.01
425.36	2236.38
425.57	2244.57
425.78	2209.76
425.98	2222.05
426.19	2189.28
426.39	2121.70
426.60	2254.81
426.81	2242.53
427.01	2222.05
427.22	2101.22
427.42	2103.26
427.63	2093.02
427.83	2283.49
428.04	2338.78
428.25	2224.09
428.45	2318.30
428.66	2297.82
428.86	2191.33
429.07	2230.24
429.28	2162.66
429.48	2242.53
429.69	2148.32
429.89	2193.37
430.10	2088.93
430.30	2281.44
430.51	2312.16
430.71	2125.79
430.92	2217.95
431.13	2181.09
431.33	2275.29
431.54	2193.37
431.74	2318.30
431.95	2432.99
432.15	2193.37
432.36	2176.99
432.56	2234.33
432.77	2371.55
432.98	2351.07
433.18	2217.95
433.39	2125.79
433.59	2244.57
433.80	2408.41
434.00	2326.49
434.21	2154.46
434.41	2107.36
434.62	2326.49
434.82	2136.03
435.03	2056.16
435.23	2207.71
435.44	2013.15
435.64	2248.67
435.85	2195.42
436.06	2252.77
436.26	2281.44
436.47	2148.32
436.67	2136.03
436.88	2201.57
437.08	2293.72
437.29	2330.59
437.49	2238.43
437.70	2240.48
437.90	2195.42
438.11	2357.21
438.31	2283.49
438.52	2404.32
438.72	2361.31
438.93	2498.52
439.13	2289.63
439.34	2416.60
439.54	2215.90
439.75	2287.58
439.95	2232.29
440.16	2160.61
440.36	2170.85
440.57	2285.53
440.77	2287.58
440.98	2160.61
441.18	2179.04
441.39	2152.42
441.59	2052.06
441.80	2437.08
442.00	2209.76
442.21	2314.20
442.41	2115.55
442.62	2240.48
442.82	2187.23
443.02	2189.28
443.23	2213.85
443.43	2179.04
443.64	2303.96
443.84	2220.00
444.05	2318.30
444.25	2281.44
444.46	2295.77
444.66	2131.94
444.87	2385.88
445.07	2133.98
445.28	2174.94
445.48	2199.52
445.69	2238.43
445.89	2461.66
446.09	2232.29
446.30	2496.47
446.50	2768.85
446.71	4272.06
446.91	5777.32
447.12	6225.82
447.32	6723.48
447.53	6191.01
447.73	5052.34
447.93	4558.78
448.14	4235.20
448.34	4030.40
448.55	3653.58
448.75	3616.71
448.96	3393.48
449.16	3117.01
449.36	2707.41
449.57	2531.29
449.77	2373.60
449.98	2254.81
450.18	2269.15
450.39	2285.53
450.59	2269.15
450.79	2217.95
451.00	2138.08
451.20	2336.73
451.41	2207.71
451.61	2275.29
451.81	2230.24
452.02	2226.14
452.22	2166.75
452.43	2226.14
452.63	2207.71
452.84	2232.29
453.04	2174.94
453.24	2279.39
453.45	2164.70
453.65	2199.52
453.86	2191.33
454.06	2228.19
454.26	2248.67
454.47	2166.75
454.67	2353.12
454.87	2209.76
455.08	2174.94
455.28	2389.98
455.49	2281.44
455.69	2105.31
455.89	2396.12
456.10	2293.72
456.30	2176.99
456.51	2303.96
456.71	2207.71
456.91	2199.52
457.12	2269.15
457.32	2201.57
457.52	2072.54
457.73	2238.43
457.93	2195.42
458.14	2095.07
458.34	2043.87
458.54	2168.80
458.75	2156.51
458.95	2351.07
459.15	2281.44
459.36	2205.66
459.56	2232.29
459.76	2510.81
459.97	2179.04
460.17	2205.66
460.37	2293.72
460.58	2144.22
460.78	2303.96
460.99	2220.00
461.19	2228.19
461.39	2195.42
461.60	2174.94
461.80	2248.67
462.00	2095.07
462.21	2179.04
462.41	2052.06
462.61	2140.13
462.82	2066.40
463.02	2207.71
463.22	2164.70
463.43	2314.20
463.63	2203.61
463.83	2338.78
464.04	2226.14
464.24	2242.53
464.44	2058.21
464.64	2252.77
464.85	2301.92
465.05	2273.25
465.25	2224.09
465.46	2205.66
465.66	2250.72
465.86	2303.96
466.07	2168.80
466.27	2201.57
466.47	2136.03
466.68	2031.58
466.88	2297.82
467.08	2199.52
467.29	2351.07
467.49	2195.42
467.69	2162.66
467.89	2217.95
468.10	2168.80
468.30	2189.28
468.50	2336.73
468.71	2289.63
468.91	2103.26
469.11	2326.49
469.31	2176.99
469.52	2142.18
469.72	2418.65
469.92	2465.75
470.13	2258.91
470.33	2209.76
470.53	2387.93
470.73	2658.26
470.94	3084.24
471.14	3243.98
471.34	3665.86
471.54	3442.64
471.75	3104.72
471.95	2818.00
472.15	2731.99
472.36	2701.27
472.56	2775.00
472.76	2676.70
472.96	2664.41
473.17	2447.32
473.37	2428.89
473.57	2293.72
473.77	2293.72
473.98	2228.19
474.18	2125.79
474.38	2523.10
474.58	2244.57
474.79	2215.90
474.99	2265.05
475.19	2310.11
475.39	2129.89
475.60	2215.90
475.80	2252.77
476.00	2256.86
476.20	2160.61
476.41	2148.32
476.61	2277.34
476.81	2306.01
477.01	2226.14
477.21	2316.25
477.42	2299.87
477.62	2111.46
477.82	2334.68
478.02	2205.66
478.23	2260.96
478.43	2047.97
478.63	2185.18
478.83	2236.38
479.03	2164.70
479.24	2349.02
479.44	2369.50
479.64	2154.46
479.84	2031.58
480.04	2138.08
480.25	2265.05
480.45	2140.13
480.65	2244.57
480.85	2375.64
481.06	2209.76
481.26	2187.23
481.46	2148.32
481.66	2277.34
481.86	2119.65
482.06	2312.16
482.27	2217.95
482.47	2232.29
482.67	2220.00
482.87	2166.75
483.07	2267.10
483.28	2172.89
483.48	2133.98
483.68	2170.85
483.88	2181.09
484.08	1998.82
484.29	2127.84
484.49	2154.46
484.69	2021.35
484.89	2260.96
485.09	2314.20
485.29	2267.10
485.50	2289.63
485.70	2158.56
485.90	2232.29
486.10	2226.14
486.30	2260.96
486.50	2330.59
486.71	2232.29
486.91	2303.96
487.11	2310.11
487.31	2099.17
487.51	2250.72
487.71	2156.51
487.91	2140.13
488.12	2095.07
488.32	1976.29
488.52	2226.14
488.72	2072.54
488.92	2201.57
489.12	2256.86
489.32	2283.49
489.53	2228.19
489.73	2064.35
489.93	2402.27
490.13	2054.11
490.33	2107.36
490.53	2246.62
490.73	2310.11
490.94	2179.04
491.14	2310.11
491.34	2310.11
491.54	2445.27
491.74	3184.59
491.94	3684.30
492.14	3901.38
492.34	4059.07
492.54	3717.06
492.75	3190.74
492.95	3174.35
493.15	2994.13
493.35	2863.06
493.55	2801.62
493.75	2688.98
493.95	2756.57
494.15	2486.23
494.35	2371.55
494.56	2357.21
494.76	2248.67
494.96	2289.63
495.16	2234.33
495.36	2236.38
495.56	2254.81
495.76	2240.48
495.96	2189.28
496.16	2101.22
496.36	2402.27
496.56	2217.95
496.77	2301.92
496.97	2238.43
497.17	2318.30
497.37	2115.55
497.57	2213.85
497.77	2162.66
497.97	2109.41
498.17	2260.96
498.37	2170.85
498.57	2258.91
498.77	2123.74
498.97	2275.29
499.17	2475.99
499.38	2260.96
499.58	2232.29
499.78	2346.97
499.98	2322.40
500.18	2185.18
500.38	2121.70
500.58	2389.98
500.78	2985.94
500.98	5197.74
501.18	7194.51
501.38	8879.99
501.58	9922.41
501.78	9756.52
501.98	7581.58
502.18	6487.96
502.38	5418.93
502.58	5156.79
502.78	4669.37
502.98	4552.63
503.18	4448.19
503.38	3848.13
503.59	3428.30
503.79	3215.31
503.99	2996.18
504.19	2789.33
504.39	2842.58
504.59	2760.66
504.79	2834.39
504.99	2883.54
505.19	2547.67
505.39	2473.95
505.59	2619.35
505.79	2514.91
505.99	2389.98
506.19	2318.30
506.39	2310.11
506.59	2217.95
506.79	2220.00
506.99	2330.59
507.19	2174.94
507.39	2211.81
507.59	2125.79
507.79	2109.41
507.99	2191.33
508.19	2197.47
508.39	2174.94
508.59	2109.41
508.79	2283.49
508.99	2408.41
509.19	2207.71
509.39	2275.29
509.59	2107.36
509.79	2191.33
509.99	2291.68
510.19	2263.01
510.39	2279.39
510.59	2146.27
510.79	2166.75
510.99	2146.27
511.19	2191.33
511.39	2326.49
511.59	2342.88
511.79	2265.05
511.99	2209.76
512.19	2375.64
512.38	2269.15
512.58	2193.37
512.78	2195.42
512.98	2365.40
513.18	2432.99
513.38	2054.11
513.58	2244.57
513.78	2172.89
513.98	2258.91
514.18	2217.95
514.38	2158.56
514.58	2162.66
514.78	2201.57
514.98	2119.65
515.18	2215.90
515.38	2111.46
515.58	2291.68
515.78	2179.04
515.98	2150.37
516.18	2283.49
516.38	2193.37
516.57	2121.70
516.77	2246.62
516.97	2220.00
517.17	2181.09
517.37	2080.74
517.57	2316.25
517.77	2168.80
517.97	2127.84
518.17	2211.81
518.37	2150.37
518.57	2117.60
518.77	2179.04
518.97	2156.51
519.16	2250.72
519.36	2297.82
519.56	2191.33
519.76	2199.52
519.96	2224.09
520.16	2306.01
520.36	2168.80
520.56	2355.16
520.76	2140.13
520.96	2152.42
521.16	2277.34
521.35	2322.40
521.55	2408.41
521.75	2285.53
521.95	2152.42
522.15	2220.00
522.35	2142.18
522.55	2064.35
522.75	2232.29
522.95	2146.27
523.14	2086.88
523.34	2273.25
523.54	2131.94
523.74	2174.94
523.94	2244.57
524.14	2129.89
524.34	2162.66
524.54	2293.72
524.73	2156.51
524.93	2217.95
525.13	2211.81
525.33	2064.35
525.53	2439.13
525.73	2240.48
525.93	2205.66
526.13	2144.22
526.32	2144.22
526.52	2359.26
526.72	2250.72
526.92	2103.26
527.12	2217.95
527.32	2088.93
527.52	2303.96
527.71	2160.61
527.91	2222.05
528.11	2144.22
528.31	2152.42
528.51	2088.93
528.71	2258.91
528.90	2230.24
529.10	2367.45
529.30	2338.78
529.50	2050.02
529.70	2213.85
529.90	2158.56
530.09	2154.46
530.29	2084.83
530.49	2121.70
530.69	2455.51
530.89	2252.77
531.09	2293.72
531.28	2109.41
531.48	2349.02
531.68	2238.43
531.88	2222.05
532.08	2299.87
532.28	2154.46
532.47	2332.64
532.67	2303.96
532.87	2242.53
533.07	2097.12
533.27	2244.57
533.46	2295.77
533.66	2207.71
533.86	2189.28
534.06	2283.49
534.26	2320.35
534.45	2197.47
534.65	2291.68
534.85	2217.95
535.05	2211.81
535.25	2277.34
535.44	2127.84
535.64	2201.57
535.84	2170.85
536.04	2158.56
536.24	2121.70
536.43	2195.42
536.63	2148.32
536.83	2236.38
537.03	2215.90
537.22	2107.36
537.42	2105.31
537.62	2195.42
537.82	2203.61
538.02	2318.30
538.21	2256.86
538.41	2521.05
538.61	2277.34
538.81	2189.28
539.00	2314.20
539.20	2170.85
539.40	2107.36
539.60	2197.47
539.79	2285.53
539.99	2162.66
540.19	2144.22
540.39	2207.71
540.58	2267.10
540.78	2379.74
540.98	2234.33
541.18	2310.11
541.37	2332.64
541.57	2181.09
541.77	2277.34
541.97	2105.31
542.16	2117.60
542.36	2142.18
542.56	2222.05
542.76	2392.03
542.95	2248.67
543.15	2269.15
543.35	2306.01
543.54	2142.18
543.74	2146.27
543.94	2377.69
544.14	2146.27
544.33	2199.52
544.53	2215.90
544.73	2244.57
544.93	2191.33
545.12	2195.42
545.32	2203.61
545.52	2236.38
545.71	2068.45
545.91	2097.12
546.11	2199.52
546.30	2142.18
546.50	2176.99
546.70	2252.77
546.90	2220.00
547.09	1992.67
547.29	2203.61
547.49	2273.25
547.68	2220.00
547.88	2183.13
548.08	2283.49
548.27	2748.37
548.47	2121.70
548.67	2217.95
548.87	2252.77
549.06	2142.18
549.26	2179.04
549.46	2238.43
549.65	2183.13
549.85	2211.81
550.05	2254.81
550.24	2111.46
550.44	2142.18
550.64	2220.00
550.83	2252.77
551.03	2308.06
551.23	2357.21
551.42	2293.72
551.62	2162.66
551.82	2222.05
552.01	2230.24
552.21	2312.16
552.41	2191.33
552.60	2353.12
552.80	2238.43
553.00	2152.42
553.19	2232.29
553.39	2357.21
553.59	2060.26
553.78	2205.66
553.98	2160.61
554.17	2138.08
554.37	2224.09
554.57	2324.44
554.76	2060.26
554.96	2127.84
555.16	2226.14
555.35	2193.37
555.55	2246.62
555.75	2285.53
555.94	2285.53
556.14	2007.01
556.33	2260.96
556.53	2222.05
556.73	2232.29
556.92	2176.99
557.12	2303.96
557.32	2346.97
557.51	2361.31
557.71	2209.76
557.90	2322.40
558.10	2396.12
558.30	2215.90
558.49	2154.46
558.69	2152.42
558.88	2283.49
559.08	2265.05
559.28	2154.46
559.47	2220.00
559.67	2220.00
559.86	2379.74
560.06	2213.85
560.26	2148.32
560.45	2140.13
560.65	2228.19
560.84	2334.68
561.04	2136.03
561.24	2246.62
561.43	2166.75
561.63	2365.40
561.82	2246.62
562.02	2265.05
562.22	2117.60
562.41	2211.81
562.61	2138.08
562.80	2113.50
563.00	2457.56
563.19	2222.05
563.39	2295.77
563.59	2265.05
563.78	2101.22
563.98	2119.65
564.17	2168.80
564.37	2086.88
564.56	2179.04
564.76	2056.16
564.96	2385.88
565.15	2273.25
565.35	2396.12
565.54	2191.33
565.74	2260.96
565.93	2357.21
566.13	2179.04
566.32	2193.37
566.52	2297.82
566.71	2306.01
566.91	2293.72
567.11	2242.53
567.30	2111.46
567.50	2191.33
567.69	2273.25
567.89	2179.04
568.08	2144.22
568.28	2281.44
568.47	2162.66
568.67	2244.57
568.86	2187.23
569.06	2310.11
569.25	2156.51
569.45	2176.99
569.64	2103.26
569.84	2195.42
570.04	2220.00
570.23	2164.70
570.43	2220.00
570.62	2195.42
570.82	2420.70
571.01	2080.74
571.21	2174.94
571.40	2105.31
571.60	2281.44
571.79	2258.91
571.99	2199.52
572.18	2131.94
572.38	2230.24
572.57	2179.04
572.77	2277.34
572.96	2451.42
573.16	2224.09
573.35	2162.66
573.55	2297.82
573.74	2285.53
573.94	2158.56
574.13	2138.08
574.33	2328.54
574.52	2340.83
574.71	2240.48
574.91	2224.09
575.10	2101.22
575.30	2256.86
575.49	2140.13
575.69	2158.56
575.88	2234.33
576.08	2207.71
576.27	2303.96
576.47	2252.77
576.66	2422.75
576.86	2367.45
577.05	2283.49
577.25	2322.40
577.44	2342.88
577.64	2277.34
577.83	2275.29
578.02	2203.61
578.22	2287.58
578.41	2416.60
578.61	2248.67
578.80	1994.72
579.00	2172.89
579.19	2242.53
579.39	2213.85
579.58	2334.68
579.77	2285.53
579.97	2447.32
580.16	2359.26
580.36	2389.98
580.55	2379.74
580.75	2242.53
580.94	2234.33
581.13	2330.59
581.33	2385.88
581.52	2318.30
581.72	2410.46
581.91	2381.79
582.11	2265.05
582.30	2269.15
582.49	2252.77
582.69	2373.60
582.88	2293.72
583.08	2277.34
583.27	2324.44
583.47	2301.92
583.66	2117.60
583.85	2152.42
584.05	2215.90
584.24	2312.16
584.44	2289.63
584.63	2383.84
584.82	2392.03
585.02	2494.43
585.21	2414.56
585.41	2371.55
585.60	2355.16
585.79	2465.75
585.99	2510.81
586.18	2400.22
586.37	2895.83
586.57	4538.30
586.76	13127.48
586.96	31856.15
587.15	45839.68
587.34	54518.98
587.54	60109.93
587.73	55547.06
587.93	38385.08
588.12	29742.65
588.31	23527.06
588.51	20506.31
588.70	18990.81
588.89	17080.06
589.09	14987.04
589.28	12777.28
589.47	10370.91
589.67	8185.73
589.86	6328.22
590.06	4775.86
590.25	3780.55
590.44	3200.98
590.64	2815.96
590.83	2551.77
591.02	2539.48
591.22	2316.25
591.41	2379.74
591.60	2299.87
591.80	2465.75
591.99	2187.23
592.18	2179.04
592.38	2392.03
592.57	2250.72
592.76	2187.23
592.96	2330.59
593.15	2179.04
593.34	2295.77
593.54	2246.62
593.73	2310.11
593.92	2353.12
594.12	2330.59
594.31	2310.11
594.50	2357.21
594.70	2281.44
594.89	2568.15
595.08	2240.48
595.28	2273.25
595.47	2543.58
595.66	2293.72
595.86	2115.55
596.05	2285.53
596.24	2185.18
596.43	2375.64
596.63	2349.02
596.82	2256.86
597.01	2236.38
597.21	2349.02
597.40	2258.91
597.59	2224.09
597.79	2166.75
597.98	2295.77
598.17	2342.88
598.36	2267.10
598.56	2346.97
598.75	2232.29
598.94	2220.00
599.14	2170.85
599.33	2117.60
599.52	2273.25
599.71	2301.92
599.91	2269.15
600.10	2267.10
600.29	2236.38
600.48	2263.01
600.68	2176.99
600.87	2314.20
601.06	2215.90
601.26	2236.38
601.45	2285.53
601.64	2244.57
601.83	2351.07
602.03	2234.33
602.22	2095.07
602.41	2279.39
602.60	2428.89
602.80	2263.01
602.99	2267.10
603.18	2154.46
603.37	2306.01
603.57	2162.66
603.76	2277.34
603.95	2334.68
604.14	2220.00
604.34	2129.89
604.53	2250.72
604.72	2252.77
604.91	2275.29
605.10	2318.30
605.30	2090.98
605.49	2478.04
605.68	2267.10
605.87	2244.57
606.07	2185.18
606.26	2203.61
606.45	2322.40
606.64	2209.76
606.84	2166.75
607.03	2299.87
607.22	2330.59
607.41	2238.43
607.60	2297.82
607.80	2306.01
607.99	2232.29
608.18	2226.14
608.37	2220.00
608.56	2146.27
608.76	2373.60
608.95	2392.03
609.14	2332.64
609.33	2371.55
609.52	2473.95
609.72	2328.54
609.91	2375.64
610.10	2316.25
610.29	2392.03
610.48	2306.01
610.68	2277.34
610.87	2334.68
611.06	2291.68
611.25	2228.19
611.44	2408.41
611.63	2299.87
611.83	2324.44
612.02	2045.92
612.21	2336.73
612.40	2080.74
612.59	2105.31
612.79	2047.97
612.98	2117.60
613.17	2389.98
613.36	2260.96
613.55	2486.23
613.74	2299.87
613.93	2416.60
614.13	2451.42
614.32	2508.76
614.51	2400.22
614.70	2314.20
614.89	2263.01
615.08	2342.88
615.28	2719.70
615.47	2111.46
615.66	2308.06
615.85	2164.70
616.04	2363.36
616.23	2248.67
616.42	2291.68
616.62	2303.96
616.81	2254.81
617.00	2185.18
617.19	2297.82
617.38	2250.72
617.57	2238.43
617.76	2289.63
617.95	2281.44
618.15	2301.92
618.34	2463.71
618.53	2105.31
618.72	2285.53
618.91	2299.87
619.10	2265.05
619.29	2234.33
619.48	2242.53
619.68	2121.70
619.87	2127.84
620.06	2121.70
620.25	2275.29
620.44	2162.66
620.63	2226.14
620.82	2217.95
621.01	2252.77
621.20	2279.39
621.39	2328.54
621.59	2207.71
621.78	2283.49
621.97	2224.09
622.16	2320.35
622.35	2193.37
622.54	2301.92
622.73	2353.12
622.92	2021.35
623.11	2342.88
623.30	2250.72
623.49	2293.72
623.68	2150.37
623.88	2308.06
624.07	2240.48
624.26	2205.66
624.45	2127.84
624.64	2203.61
624.83	2252.77
625.02	2183.13
625.21	2197.47
625.40	2275.29
625.59	2357.21
625.78	2271.20
625.97	2320.35
626.16	2408.41
626.35	2346.97
626.54	2324.44
626.74	2449.37
626.93	2172.89
627.12	2273.25
627.31	2455.51
627.50	2291.68
627.69	2322.40
627.88	2160.61
628.07	2109.41
628.26	2043.87
628.45	2168.80
628.64	2121.70
628.83	2226.14
629.02	2064.35
629.21	2269.15
629.40	2211.81
629.59	2111.46
629.78	2209.76
629.97	2228.19
630.16	2299.87
630.35	2152.42
630.54	2205.66
630.73	2154.46
630.92	2146.27
631.11	2109.41
631.30	2234.33
631.49	2297.82
631.68	2232.29
631.87	2273.25
632.06	2058.21
632.25	2496.47
632.44	2332.64
632.63	2299.87
632.82	2279.39
633.01	2293.72
633.20	2285.53
633.39	2238.43
633.58	2191.33
633.77	2291.68
633.96	2334.68
634.15	2314.20
634.34	2312.16
634.53	2293.72
634.72	2107.36
634.91	2152.42
635.10	2236.38
635.29	2306.01
635.48	2275.29
635.67	2136.03
635.86	2105.31
636.05	2310.11
636.24	2185.18
636.43	2217.95
636.62	2211.81
636.81	1947.62
637.00	2236.38
637.19	2248.67
637.38	2244.57
637.57	2168.80
637.76	2265.05
637.95	2377.69
638.14	2222.05
638.33	2293.72
638.52	2254.81
638.71	2172.89
638.89	2211.81
639.08	2496.47
639.27	2371.55
639.46	2445.27
639.65	2844.63
639.84	2858.96
640.03	3033.04
640.22	2973.65
640.41	2914.26
640.60	2566.10
640.79	2568.15
640.98	2494.43
641.17	2432.99
641.36	2488.28
641.55	2359.26
641.74	2252.77
641.92	2195.42
642.11	2228.19
642.30	2224.09
642.49	2201.57
642.68	2174.94
642.87	2232.29
643.06	2256.86
643.25	2125.79
643.44	2191.33
643.63	2203.61
643.82	2193.37
644.00	2176.99
644.19	2193.37
644.38	2152.42
644.57	2240.48
644.76	2250.72
644.95	2191.33
645.14	2220.00
645.33	2176.99
645.52	2199.52
645.71	2023.39
645.89	2111.46
646.08	2138.08
646.27	2189.28
646.46	2344.92
646.65	2095.07
646.84	2193.37
647.03	2037.73
647.22	2258.91
647.40	2252.77
647.59	2248.67
647.78	2037.73
647.97	2097.12
648.16	2144.22
648.35	2353.12
648.54	2293.72
648.73	2195.42
648.91	2318.30
649.10	2269.15
649.29	2117.60
649.48	2150.37
649.67	2224.09
649.86	2267.10
650.05	2201.57
650.23	2416.60
650.42	2338.78
650.61	2484.19
650.80	2463.71
650.99	2453.47
651.18	2385.88
651.36	2383.84
651.55	2260.96
651.74	2332.64
651.93	2185.18
652.12	2228.19
652.31	2179.04
652.49	2234.33
652.68	2269.15
652.87	2365.40
653.06	2265.05
653.25	2334.68
653.44	2195.42
653.62	2340.83
653.81	2150.37
654.00	2195.42
654.19	2283.49
654.38	2449.37
654.56	2279.39
654.75	2088.93
654.94	2244.57
655.13	2236.38
655.32	2201.57
655.51	2213.85
655.69	2138.08
655.88	2320.35
656.07	2117.60
656.26	2176.99
656.45	2162.66
656.63	2176.99
656.82	2254.81
657.01	2312.16
657.20	2127.84
657.38	2277.34
657.57	2154.46
657.76	2148.32
657.95	2273.25
658.14	2242.53
658.32	2146.27
658.51	2068.45
658.70	2265.05
658.89	2273.25
659.08	2238.43
659.26	2392.03
659.45	2179.04
659.64	2303.96
659.83	2205.66
660.01	2562.01
660.20	2224.09
660.39	2357.21
660.58	2103.26
660.76	2260.96
660.95	2078.69
661.14	2146.27
661.33	2189.28
661.51	2191.33
661.70	2140.13
661.89	2289.63
662.08	2201.57
662.26	2125.79
662.45	2140.13
662.64	2400.22
662.83	2236.38
663.01	2090.98
663.20	2107.36
663.39	2383.84
663.58	2232.29
663.76	2207.71
663.95	2242.53
664.14	2084.83
664.32	2131.94
664.51	2097.12
664.70	2095.07
664.89	2328.54
665.07	2109.41
665.26	2285.53
665.45	2166.75
665.64	2254.81
665.82	2172.89
666.01	2267.10
666.20	2107.36
666.38	2367.45
666.57	2451.42
666.76	3305.42
666.95	7954.31
667.13	16480.00
667.32	21614.26
667.51	25390.72
667.69	27358.81
667.88	24960.64
668.07	18218.73
668.25	14341.93
668.44	11771.72
668.63	10133.35
668.81	9088.89
669.00	7845.77
669.19	7030.68
669.38	6174.63
669.56	5302.19
669.75	4362.17
669.94	3735.50
670.12	3141.58
670.31	2801.62
670.50	2611.16
670.68	2514.91
670.87	2406.36
671.06	2285.53
671.24	2265.05
671.43	2428.89
671.62	2326.49
671.80	2166.75
671.99	2346.97
672.18	2238.43
672.36	2351.07
672.55	2252.77
672.74	2205.66
672.92	2244.57
673.11	2228.19
673.29	2105.31
673.48	2291.68
673.67	2164.70
673.85	2303.96
674.04	2146.27
674.23	2256.86
674.41	2453.47
674.60	2041.82
674.79	2056.16
674.97	2211.81
675.16	2152.42
675.34	2285.53
675.53	2086.88
675.72	2248.67
675.90	2416.60
676.09	2213.85
676.28	2244.57
676.46	2140.13
676.65	2187.23
676.83	2189.28
677.02	2234.33
677.21	2281.44
677.39	2260.96
677.58	2105.31
677.77	2080.74
677.95	2105.31
678.14	2193.37
678.32	2228.19
678.51	2127.84
678.70	2373.60
678.88	2152.42
679.07	2254.81
679.25	2254.81
679.44	2236.38
679.63	2152.42
679.81	2176.99
680.00	2267.10
680.18	2263.01
680.37	2426.84
680.55	2209.76
680.74	2080.74
680.93	1972.19
681.11	2260.96
681.30	2232.29
681.48	2162.66
681.67	2170.85
681.85	2228.19
682.04	2084.83
682.23	2217.95
682.41	2215.90
682.60	2195.42
682.78	2187.23
682.97	2080.74
683.15	2176.99
683.34	2265.05
683.53	2342.88
683.71	2107.36
683.90	2299.87
684.08	2404.32
684.27	2133.98
684.45	2183.13
684.64	2277.34
684.82	2220.00
685.01	2195.42
685.19	2127.84
685.38	2314.20
685.57	2209.76
685.75	2170.85
685.94	2185.18
686.12	2017.25
686.31	2121.70
686.49	2379.74
686.68	2093.02
686.86	2285.53
687.05	2158.56
687.23	2295.77
687.42	2154.46
687.60	2072.54
687.79	2234.33
687.97	2289.63
688.16	2297.82
688.34	2287.58
688.53	2027.49
688.71	2267.10
688.90	2326.49
689.08	2179.04
689.27	2084.83
689.45	2275.29
689.64	2203.61
689.82	2056.16
690.01	2275.29
690.19	2197.47
690.38	2189.28
690.56	2342.88
690.75	2123.74
690.93	2140.13
691.12	2199.52
691.30	2181.09
691.49	2185.18
691.67	2199.52
691.86	2375.64
692.04	2179.04
692.23	2203.61
692.41	2234.33
692.60	2447.32
692.78	2379.74
692.97	2273.25
693.15	2291.68
693.34	2363.36
693.52	2293.72
693.71	2203.61
693.89	2164.70
694.08	2080.74
694.26	2220.00
694.44	2236.38
694.63	2193.37
694.81	2105.31
695.00	2121.70
695.18	2283.49
695.37	2516.95
695.55	2256.86
695.74	2170.85
695.92	2170.85
696.10	2355.16
696.29	2054.11
696.47	2138.08
696.66	2101.22
696.84	2082.78
697.03	2244.57
697.21	2336.73
697.40	3227.60
697.58	2277.34
697.76	2187.23
697.95	2136.03
698.13	2176.99
698.32	2086.88
698.50	2220.00
698.68	2205.66
698.87	2289.63
699.05	2383.84
699.24	2224.09
699.42	2070.50
699.61	2232.29
699.79	2189.28
699.97	2230.24
700.16	2041.82
700.34	2095.07
700.53	2293.72
700.71	2328.54
700.89	2246.62
701.08	2121.70
701.26	2179.04
701.45	2756.57
701.63	2129.89
701.81	2187.23
702.00	2260.96
702.18	2242.53
702.37	2193.37
702.55	2443.23
702.73	2387.93
702.92	2326.49
703.10	2617.30
703.28	2443.23
703.47	2256.86
703.65	2426.84
703.84	2379.74
704.02	2179.04
704.20	2394.08
704.39	2295.77
704.57	2224.09
704.75	2295.77
704.94	2400.22
705.12	2281.44
705.30	2527.19
705.49	4376.51
705.67	10841.95
705.86	19547.86
706.04	23924.37
706.22	27285.09
706.41	28874.31
706.59	24438.41
706.77	17397.49
706.96	14505.76
707.14	12558.14
707.32	10923.87
707.51	9637.74
707.69	7937.93
707.87	6287.26
708.06	5132.21
708.24	4026.31
708.42	3276.75
708.61	3053.52
708.79	2482.14
708.97	2486.23
709.16	2342.88
709.34	2322.40
709.52	2203.61
709.71	2230.24
709.89	2318.30
710.07	2172.89
710.26	2195.42
710.44	2197.47
710.62	2285.53
710.80	2174.94
710.99	2244.57
711.17	2234.33
711.35	2154.46
711.54	2156.51
711.72	2324.44
711.90	2275.29
712.09	2244.57
712.27	2154.46
712.45	2240.48
712.63	2068.45
712.82	2318.30
713.00	2123.74
713.18	2207.71
713.37	2301.92
713.55	2273.25
713.73	2170.85
713.91	2217.95
714.10	2224.09
714.28	2183.13
714.46	2215.90
714.65	2207.71
714.83	2291.68
715.01	2156.51
715.19	2224.09
715.38	2133.98
715.56	2228.19
715.74	2138.08
715.92	2105.31
716.11	2301.92
716.29	2062.30
716.47	2220.00
716.65	2146.27
716.84	2111.46
717.02	2242.53
717.20	2107.36
717.38	2203.61
717.57	2244.57
717.75	2248.67
717.93	2209.76
718.11	2195.42
718.30	2097.12
718.48	2248.67
718.66	2330.59
718.84	2258.91
719.03	2222.05
719.21	2146.27
719.39	2418.65
719.57	2267.10
719.75	2244.57
719.94	2062.30
720.12	2172.89
720.30	2256.86
720.48	2326.49
720.67	2199.52
720.85	2160.61
721.03	2195.42
721.21	2162.66
721.39	2324.44
721.58	2283.49
721.76	2195.42
721.94	2252.77
722.12	2211.81
722.30	2369.50
722.49	2189.28
722.67	2224.09
722.85	2195.42
723.03	2062.30
723.21	2107.36
723.40	2244.57
723.58	2211.81
723.76	2346.97
723.94	2455.51
724.12	2310.11
724.30	2371.55
724.49	2408.41
724.67	2148.32
724.85	2263.01
725.03	2017.25
725.21	2154.46
725.40	2338.78
725.58	2160.61
725.76	2349.02
725.94	2199.52
726.12	2138.08
726.30	2187.23
726.49	2121.70
726.67	2195.42
726.85	2291.68
727.03	2578.39
727.21	3616.71
727.39	5468.08
727.57	6510.49
727.76	7018.39
727.94	7452.56
728.12	7217.04
728.30	5842.85
728.48	4872.12
728.66	4440.00
728.84	3995.59
729.03	3502.03
729.21	3088.34
729.39	2783.19
729.57	2410.46
729.75	2351.07
729.93	2394.08
730.11	2166.75
730.30	2174.94
730.48	2275.29
730.66	2379.74
730.84	2346.97
731.02	2260.96
731.20	2138.08
731.38	2213.85
731.56	2140.13
731.74	2103.26
731.93	2166.75
732.11	2258.91
732.29	2105.31
732.47	2220.00
732.65	2285.53
732.83	2279.39
733.01	2297.82
733.19	2070.50
733.37	2283.49
733.56	2246.62
733.74	2142.18
733.92	2281.44
734.10	2119.65
734.28	2273.25
734.46	2076.64
734.64	2138.08
734.82	2176.99
735.00	2138.08
735.18	2093.02
735.36	2203.61
735.54	2170.85
735.73	2191.33
735.91	2187.23
736.09	2273.25
736.27	2162.66
736.45	2265.05
736.63	2160.61
736.81	2240.48
736.99	2224.09
737.17	2328.54
737.35	2078.69
737.53	2203.61
737.71	2148.32
737.89	2389.98
738.07	2179.04
738.25	2052.06
738.43	1998.82
738.61	2084.83
738.80	2080.74
738.98	2086.88
739.16	2093.02
739.34	2185.18
739.52	2244.57
739.70	2197.47
739.88	2236.38
740.06	2285.53
740.24	1988.58
740.42	2310.11
740.60	2052.06
740.78	2176.99
740.96	2045.92
741.14	2105.31
741.32	2191.33
741.50	2047.97
741.68	2453.47
741.86	2355.16
742.04	2093.02
742.22	2045.92
742.40	2138.08
742.58	2295.77
742.76	2109.41
742.94	2383.84
743.12	2035.68
743.30	2162.66
743.48	2191.33
743.66	2078.69
743.84	2271.20
744.02	2142.18
744.20	2138.08
744.38	2131.94
744.56	2111.46
744.74	2365.40
744.92	2314.20
745.10	2318.30
745.28	2271.20
745.46	2267.10
745.64	2220.00
745.82	2252.77
746.00	2176.99
746.18	2252.77
746.36	2099.17
746.54	2252.77
746.72	2123.74
746.90	2101.22
747.08	2267.10
747.26	2140.13
747.44	2181.09
747.62	2314.20
747.80	2166.75
747.98	2254.81
748.15	2136.03
748.33	2336.73
748.51	2201.57
748.69	2207.71
748.87	2119.65
749.05	2152.42
749.23	2207.71
749.41	2244.57
749.59	2185.18
749.77	2293.72
749.95	2127.84
750.13	2162.66
750.31	2238.43
750.49	2211.81
750.67	2277.34
750.85	2310.11
751.03	2160.61
751.20	2379.74
751.38	2187.23
751.56	2230.24
751.74	2170.85
751.92	2095.07
752.10	2133.98
752.28	2359.26
752.46	2121.70
752.64	2197.47
752.82	2164.70
753.00	2336.73
753.18	2166.75
753.35	2103.26
753.53	2195.42
753.71	2203.61
753.89	2293.72
754.07	2232.29
754.25	2332.64
754.43	2244.57
754.61	2105.31
754.79	2260.96
754.97	2211.81
755.14	2291.68
755.32	2037.73
755.50	2236.38
755.68	2166.75
755.86	2080.74
756.04	2144.22
756.22	2027.49
756.40	2316.25
756.57	2349.02
756.75	2113.50
756.93	2328.54
757.11	2330.59
757.29	2070.50
757.47	2086.88
757.65	2033.63
757.82	2031.58
758.00	2158.56
758.18	2103.26
758.36	2133.98
758.54	2359.26
758.72	2050.02
758.90	2303.96
759.07	2193.37
759.25	2027.49
759.43	2250.72
759.61	2039.78
759.79	2977.75
759.97	2342.88
760.15	2158.56
760.32	2187.23
760.50	2258.91
760.68	2336.73
760.86	2064.35
761.04	2359.26
761.22	2256.86
761.39	2232.29
761.57	2203.61
761.75	2152.42
761.93	2252.77
762.11	2203.61
762.28	2193.37
762.46	2093.02
762.64	2328.54
762.82	2093.02
763.00	2156.51
763.18	2306.01
763.35	2015.20
763.53	2166.75
763.71	2236.38
763.89	2086.88
764.07	2248.67
764.24	2228.19
764.42	2277.34
764.60	2154.46
764.78	2301.92
764.96	2289.63
765.13	2258.91
765.31	2205.66
765.49	2242.53
765.67	2117.60
765.84	2217.95
766.02	2166.75
766.20	2084.83
766.38	2273.25
766.56	2236.38
766.73	2224.09
766.91	2277.34
767.09	2131.94
767.27	2224.09
767.44	2144.22
767.62	2246.62
767.80	2217.95
767.98	2097.12
768.15	2129.89
768.33	2265.05
768.51	2289.63
768.69	2291.68
768.87	2236.38
769.04	2138.08
769.22	2394.08
769.40	2398.17
769.58	2398.17
769.75	2170.85
769.93	2306.01
770.11	2136.03
770.28	2050.02
770.46	2242.53
770.64	2129.89
770.82	2176.99
770.99	2236.38
771.17	2215.90
771.35	2099.17
771.53	2209.76
771.70	2119.65
771.88	2209.76
772.06	2185.18
772.23	2138.08
772.41	2211.81
772.59	2101.22
772.77	2099.17
772.94	2162.66
773.12	2226.14
773.30	2133.98
773.47	2183.13
773.65	2080.74
773.83	2314.20
774.01	2240.48
774.18	1998.82
774.36	2154.46
774.54	2113.50
774.71	2166.75
774.89	1982.43
775.07	2127.84
775.24	2090.98
775.42	2133.98
775.60	2351.07
775.78	2129.89
775.95	2056.16
776.13	2013.15
776.31	2015.20
776.48	2164.70
776.66	2299.87
776.84	2136.03
777.01	2121.70
777.19	2090.98
777.37	2105.31
777.54	2256.86
777.72	2332.64
777.90	2193.37
778.07	2136.03
778.25	2551.77
778.43	2236.38
778.60	2176.99
778.78	2297.82
778.96	2271.20
779.13	2080.74
779.31	2285.53
779.49	2181.09
779.66	2220.00
779.84	2170.85
780.01	2142.18
780.19	2078.69
780.37	2334.68
780.54	2252.77
780.72	2152.42
780.90	2195.42
781.07	2213.85
781.25	2138.08
781.43	2211.81
781.60	2129.89
781.78	2273.25
781.95	2238.43
782.13	2117.60
782.31	2117.60
782.48	2037.73
782.66	2230.24
782.83	2316.25
783.01	2197.47
783.19	2281.44
783.36	2140.13
783.54	2052.06
783.72	2285.53
783.89	2068.45
784.07	2203.61
784.24	2244.57
784.42	2310.11
784.60	2138.08
784.77	2189.28
784.95	2031.58
785.12	2162.66
785.30	2203.61
785.47	2072.54
785.65	2113.50
785.83	2195.42
786.00	2179.04
786.18	2238.43
786.35	2009.06
786.53	2179.04
786.71	2267.10
786.88	2297.82
787.06	2189.28
787.23	2258.91
787.41	2076.64
787.58	2176.99
787.76	2146.27
787.94	2191.33
788.11	2150.37
788.29	2095.07
788.46	2152.42
788.64	2117.60
788.81	2179.04
788.99	2144.22
789.16	2103.26
789.34	2166.75
789.52	2070.50
789.69	2164.70
789.87	2004.96
790.04	2070.50
790.22	2191.33
790.39	2389.98
790.57	2086.88
790.74	2142.18
790.92	2146.27
791.09	2029.54
791.27	2269.15
791.44	2293.72
791.62	2224.09
791.79	2353.12
791.97	2279.39
792.15	2447.32
792.32	2211.81
792.50	2289.63
792.67	2338.78
792.85	2289.63
793.02	2275.29
793.20	2191.33
793.37	2041.82
793.55	2148.32
793.72	2105.31
793.90	2256.86
794.07	2179.04
794.25	2170.85
794.42	2295.77
794.60	2187.23
794.77	2168.80
794.95	2183.13
795.12	2308.06
795.30	2183.13
795.47	1974.24
795.65	2420.70
795.82	2285.53
796.00	2215.90
796.17	2144.22
796.34	2140.13
796.52	2258.91
796.69	2301.92
796.87	2189.28
797.04	2248.67
797.22	2205.66
797.39	2209.76
797.57	2297.82
797.74	2240.48
797.92	2293.72
798.09	2154.46
798.27	2297.82
798.44	2158.56
798.62	2119.65
798.79	2115.55
798.96	2187.23
799.14	2129.89
799.31	2351.07
799.49	2232.29
799.66	2095.07
799.84	2203.61
800.01	2041.82
800.19	2162.66
800.36	2039.78
800.53	2244.57
800.71	2232.29
800.88	2299.87
801.06	2125.79
801.23	2150.37
801.41	2140.13
801.58	2166.75
801.75	2097.12
801.93	2242.53
802.10	2244.57
802.28	2142.18
802.45	2220.00
802.63	2203.61
802.80	2398.17
802.97	2142.18
803.15	2199.52
803.32	2113.50
803.50	2080.74
803.67	2072.54
803.84	2121.70
804.02	2144.22
804.19	2138.08
804.37	1984.48
804.54	2111.46
804.71	2113.50
804.89	2222.05
805.06	2054.11
805.24	2148.32
805.41	2187.23
805.58	2093.02
805.76	2449.37
805.93	2195.42
806.10	2322.40
806.28	2217.95
806.45	2142.18
806.63	2346.97
806.80	2248.67
806.97	2191.33
807.15	2174.94
807.32	2183.13
807.49	2230.24
807.67	2107.36
807.84	2283.49
808.01	2033.63
808.19	2326.49
808.36	2346.97
808.54	2160.61
808.71	2121.70
808.88	2299.87
809.06	2265.05
809.23	2402.27
809.40	2072.54
809.58	2265.05
809.75	2160.61
809.92	2170.85
810.10	2373.60
810.27	2269.15
810.44	2205.66
810.62	2271.20
810.79	2164.70
810.96	2119.65
811.14	2127.84
811.31	2271.20
811.48	2232.29
811.66	2152.42
811.83	2228.19
812.00	2254.81
812.18	2215.90
812.35	2351.07
812.52	2168.80
812.69	2244.57
812.87	2197.47
813.04	2123.74
813.21	2220.00
813.39	2078.69
813.56	2078.69
813.73	2217.95
813.91	2076.64
814.08	2172.89
814.25	2203.61
814.42	2060.26
814.60	2181.09
814.77	2260.96
814.94	2215.90
815.12	2244.57
815.29	2318.30
815.46	2123.74
815.63	2193.37
815.81	2187.23
815.98	2156.51
816.15	2170.85
816.33	2117.60
816.50	2125.79
816.67	2119.65
816.84	2154.46
817.02	2080.74
817.19	2162.66
817.36	2252.77
817.53	2203.61
817.71	2152.42
817.88	2248.67
818.05	2215.90
818.22	2078.69
818.40	2349.02
818.57	2197.47
818.74	2164.70
818.91	2166.75
819.09	2260.96
819.26	2213.85
819.43	2133.98
819.60	2109.41
819.78	2267.10
819.95	2273.25
820.12	2072.54
820.29	2320.35
820.47	2240.48
820.64	2133.98
820.81	2082.78
820.98	2150.37
821.15	2172.89
821.33	2265.05
821.50	2037.73
821.67	2248.67
821.84	2097.12
822.02	2224.09
822.19	2334.68
822.36	2119.65
822.53	2119.65
822.70	2154.46
822.88	2140.13
823.05	2387.93
823.22	2207.71
823.39	2277.34
823.56	2244.57
823.74	2355.16
823.91	2062.30
824.08	2103.26
824.25	2084.83
824.42	2342.88
824.60	2043.87
824.77	2207.71
824.94	2152.42
825.11	2174.94
825.28	2127.84
825.45	2220.00
825.63	2179.04
825.80	2084.83
825.97	2181.09
826.14	2222.05
826.31	2064.35
826.48	2308.06
826.66	2121.70
826.83	2172.89
827.00	2209.76
827.17	2056.16
827.34	2193.37
827.51	2127.84
827.69	2146.27
827.86	2064.35
828.03	2156.51
828.20	2205.66
828.37	2144.22
828.54	2226.14
828.71	2103.26
828.89	2238.43
829.06	2222.05
829.23	2281.44
829.40	2084.83
829.57	2099.17
829.74	2256.86
829.91	2070.50
830.09	2154.46
830.26	2250.72
830.43	2318.30
830.60	2179.04
830.77	2252.77
830.94	2332.64
831.11	2254.81
831.28	2078.69
831.46	2265.05
831.63	2138.08
831.80	2168.80
831.97	2148.32
832.14	2142.18
832.31	2174.94
832.48	2160.61
832.65	2211.81
832.82	2150.37
832.99	2248.67
833.17	2109.41
833.34	2361.31
833.51	2179.04
833.68	1964.00
833.85	2301.92
834.02	2095.07
834.19	2136.03
834.36	2152.42
834.53	2203.61
834.70	2318.30
834.87	2236.38
835.04	2127.84
835.22	2162.66
835.39	2183.13
835.56	2109.41
835.73	2166.75
835.90	2234.33
836.07	2002.91
836.24	2289.63
836.41	2064.35
836.58	2056.16
836.75	2242.53
836.92	2244.57
837.09	2144.22
837.26	2273.25
837.43	2258.91
837.60	2162.66
837.77	2172.89
837.94	2236.38
838.12	2363.36
838.29	2201.57
838.46	2050.02
838.63	2144.22
838.80	2412.51
838.97	2258.91
839.14	2185.18
839.31	2217.95
839.48	2318.30
839.65	2131.94
839.82	2211.81
839.99	2285.53
840.16	2269.15
840.33	2125.79
840.50	2199.52
840.67	2146.27
840.84	1937.38
841.01	2076.64
841.18	2107.36
841.35	2185.18
841.52	2271.20
841.69	2326.49
841.86	2148.32
842.03	2215.90
842.20	2295.77
842.37	2176.99
842.54	2197.47
842.71	2154.46
842.88	2023.39
843.05	2162.66
843.22	2099.17
843.39	2267.10
843.56	2166.75
843.73	2103.26
843.90	2164.70
844.07	2150.37
844.24	2197.47
844.41	2203.61
844.58	2207.71
844.75	2162.66
844.92	2265.05
845.09	2170.85
845.26	2103.26
845.43	2240.48
845.60	2176.99
845.77	2244.57
845.94	2232.29
846.10	2269.15
846.27	2052.06
846.44	2007.01
846.61	2047.97
846.78	2201.57
846.95	2242.53
847.12	2113.50
847.29	2170.85
847.46	2099.17
847.63	2211.81
847.80	2154.46
847.97	2107.36
848.14	2293.72
848.31	2222.05
848.48	2058.21
848.65	2183.13
848.82	2154.46
848.98	2316.25
849.15	2244.57
849.32	2250.72
849.49	2308.06
849.66	2232.29
849.83	2152.42
850.00	2125.79
850.17	2267.10
850.34	2160.61
850.51	2109.41
850.68	2093.02
850.85	2351.07
851.01	2111.46
851.18	2209.76
851.35	2222.05
851.52	2174.94
851.69	2361.31
851.86	2097.12
852.03	2056.16
852.20	2277.34
852.37	2160.61
852.53	1990.63
852.70	2078.69
852.87	2236.38
853.04	2265.05
853.21	2203.61
853.38	2238.43
853.55	2258.91
853.72	2332.64
853.89	2133.98
854.05	2103.26
854.22	2193.37
854.39	2146.27
854.56	2140.13
854.73	2254.81
854.90	2113.50
855.07	2109.41
855.23	2131.94
855.40	2189.28
855.57	2267.10
855.74	2031.58
855.91	2303.96
856.08	2033.63
856.25	2072.54
856.41	2121.70
856.58	2113.50
856.75	2174.94
856.92	2076.64
857.09	2256.86
857.26	2060.26
857.42	2113.50
857.59	2250.72
857.76	2195.42
857.93	2187.23
858.10	2162.66
858.27	2064.35
858.43	2170.85
858.60	2062.30
858.77	2072.54
858.94	2193.37
859.11	2340.83
859.27	2121.70
859.44	2181.09
859.61	2428.89
859.78	2220.00
859.95	2129.89
860.12	2119.65
860.28	2381.79
860.45	2396.12
860.62	2176.99
860.79	2191.33
860.95	2140.13
861.12	2045.92
861.29	2117.60
861.46	2031.58
861.63	2136.03
861.79	2236.38
861.96	2154.46
862.13	2090.98
862.30	2281.44
862.47	2144.22
862.63	2062.30
862.80	2277.34
862.97	2234.33
863.14	2197.47
863.30	2123.74
863.47	2072.54
863.64	2375.64
863.81	2146.27
863.97	2082.78
864.14	2176.99
864.31	2121.70
864.48	2209.76
864.65	2234.33
864.81	2176.99
864.98	2260.96
865.15	2265.05
865.32	2176.99
865.48	2238.43
865.65	2363.36
865.82	2156.51
865.98	2136.03
866.15	2220.00
866.32	2086.88
866.49	2150.37
866.65	2365.40
866.82	1970.15
866.99	2215.90
867.16	2109.41
867.32	2203.61
867.49	2146.27
867.66	2133.98
867.83	2131.94
867.99	2052.06
868.16	2189.28
868.33	2117.60
868.49	2197.47
868.66	2099.17
868.83	2193.37
868.99	2172.89
869.16	2138.08
869.33	2240.48
869.50	2322.40
869.66	2174.94
869.83	2191.33
870.00	2129.89
870.16	2183.13
870.33	2209.76
870.50	2269.15
870.66	2209.76
870.83	2263.01
871.00	2203.61
871.17	2250.72
871.33	2162.66
871.50	2211.81
871.67	2168.80
871.83	2000.87
872.00	2281.44
872.17	2144.22
872.33	2330.59
872.50	2297.82
872.67	2166.75
872.83	2220.00
873.00	2234.33
873.17	2203.61
873.33	2283.49
873.50	2187.23
873.67	2097.12
873.83	2125.79
874.00	2138.08
874.16	2242.53
874.33	2199.52
874.50	2056.16
874.66	2248.67
874.83	2158.56
875.00	2334.68
875.16	2269.15
875.33	2160.61
875.50	1996.77
875.66	2152.42
875.83	2174.94
875.99	2254.81
876.16	2117.60
876.33	2123.74
876.49	2195.42
876.66	2187.23
876.83	2252.77
876.99	2109.41
877.16	2142.18
877.32	2179.04
877.49	2168.80
877.66	2228.19
877.82	2336.73
877.99	2172.89
878.15	2258.91
878.32	2267.10
878.49	2267.10
878.65	2250.72
878.82	2344.92
878.98	2160.61
879.15	2269.15
879.32	2306.01
879.48	2213.85
879.65	2129.89
879.81	2113.50
879.98	2170.85
880.15	2174.94
880.31	2248.67
880.48	2127.84
880.64	2236.38
880.81	2164.70
880.97	2334.68
881.14	2322.40
881.31	2039.78
881.47	2330.59
881.64	2099.17
881.80	2095.07
881.97	2215.90
882.13	2187.23
882.30	2060.26
882.47	2107.36
882.63	2119.65
882.80	2062.30
882.96	2201.57
883.13	2326.49
883.29	2144.22
883.46	2176.99
883.62	2369.50
883.79	2195.42
883.95	2209.76
884.12	2160.61
884.29	2330.59
884.45	2201.57
884.62	2260.96
884.78	2103.26
884.95	2365.40
885.11	2217.95
885.28	2183.13
885.44	2080.74
885.61	2197.47
885.77	2306.01
885.94	2162.66
886.10	2115.55
886.27	2174.94
886.43	2342.88
886.60	2330.59
886.76	2146.27
886.93	2068.45
887.09	2248.67
887.26	2097.12
887.42	2263.01
887.59	2306.01
887.75	2379.74
887.92	2254.81
888.08	2234.33
888.25	2365.40
888.41	2244.57
888.58	2203.61
888.74	2090.98
888.91	2115.55
>>>>>End Processed Spectral Data<<<<<
