SpectraSuite Data File
++++++++++++++++++++++++++++++++++++
Date: Thu May 05 12:35:50 CEST 2016
User: root
Dark Spectrum Present: No
Reference Spectrum Present: No
Number of Sampled Component Spectra: 1
Spectrometers: USB4C02835
Integration Time (usec): 100000 (USB4C02835)
Spectra Averaged: 1 (USB4C02835)
Boxcar Smoothing: 0 (USB4C02835)
Correct for Electrical Dark: No (USB4C02835)
Strobe/Lamp Enabled: No (USB4C02835)
Correct for Detector Non-linearity: No (USB4C02835)
Correct for Stray Light: No (USB4C02835)
Number of Pixels in Processed Spectrum: 3648
>>>>>Begin Processed Spectral Data<<<<<
177.47	1748.97
177.69	1748.97
177.91	1748.97
178.13	1783.78
178.36	1785.83
178.58	2097.12
178.80	2172.89
179.02	2127.84
179.24	2129.89
179.46	2133.98
179.68	2127.84
179.90	2209.76
180.13	2226.14
180.35	2082.78
180.57	2025.44
180.79	2295.77
181.01	2160.61
181.23	2133.98
181.45	2314.20
181.67	2252.77
181.90	2217.95
182.12	2154.46
182.34	2007.01
182.56	2246.62
182.78	2181.09
183.00	2158.56
183.22	2191.33
183.44	2007.01
183.66	2424.80
183.89	2342.88
184.11	2269.15
184.33	2301.92
184.55	2316.25
184.77	2121.70
184.99	2176.99
185.21	2115.55
185.43	2359.26
185.65	2127.84
185.87	2131.94
186.10	2449.37
186.32	2365.40
186.54	2170.85
186.76	2248.67
186.98	2287.58
187.20	2170.85
187.42	2097.12
187.64	2183.13
187.86	2228.19
188.08	2234.33
188.30	2068.45
188.52	2181.09
188.75	2244.57
188.97	2383.84
189.19	2119.65
189.41	2160.61
189.63	2263.01
189.85	2101.22
190.07	2027.49
190.29	2039.78
190.51	2267.10
190.73	2088.93
190.95	2244.57
191.17	2117.60
191.39	2035.68
191.61	2144.22
191.84	2093.02
192.06	2127.84
192.28	1980.39
192.50	2492.38
192.72	2181.09
192.94	2166.75
193.16	2297.82
193.38	2287.58
193.60	2050.02
193.82	2172.89
194.04	2303.96
194.26	2181.09
194.48	2140.13
194.70	2125.79
194.92	2195.42
195.14	2289.63
195.36	2105.31
195.58	2142.18
195.80	2154.46
196.02	2179.04
196.24	2070.50
196.46	2146.27
196.69	2176.99
196.91	2449.37
197.13	2136.03
197.35	2066.40
197.57	2310.11
197.79	2344.92
198.01	2138.08
198.23	2142.18
198.45	2312.16
198.67	2111.46
198.89	2064.35
199.11	2170.85
199.33	2187.23
199.55	2013.15
199.77	2121.70
199.99	2209.76
200.21	2142.18
200.43	2242.53
200.65	2058.21
200.87	1937.38
201.09	2269.15
201.31	2150.37
201.53	2203.61
201.75	2211.81
201.97	2285.53
202.19	2224.09
202.41	2185.18
202.63	2281.44
202.85	2293.72
203.07	2174.94
203.29	2105.31
203.51	2074.59
203.73	2133.98
203.95	2412.51
204.17	2179.04
204.39	2211.81
204.61	2207.71
204.83	2086.88
205.05	2254.81
205.27	2156.51
205.49	2402.27
205.71	2205.66
205.93	2101.22
206.15	2160.61
206.37	2174.94
206.59	2158.56
206.81	2011.11
207.03	2062.30
207.25	2097.12
207.47	2267.10
207.69	2162.66
207.91	2332.64
208.13	2383.84
208.34	2181.09
208.56	2117.60
208.78	2158.56
209.00	2172.89
209.22	2240.48
209.44	2121.70
209.66	2107.36
209.88	2217.95
210.10	2179.04
210.32	2103.26
210.54	2238.43
210.76	2103.26
210.98	2312.16
211.20	1953.76
211.42	2160.61
211.64	2308.06
211.86	2289.63
212.08	2185.18
212.30	2133.98
212.52	2162.66
212.74	2283.49
212.96	2152.42
213.17	2226.14
213.39	2267.10
213.61	2308.06
213.83	2127.84
214.05	2162.66
214.27	2275.29
214.49	2070.50
214.71	2138.08
214.93	2234.33
215.15	2168.80
215.37	2265.05
215.59	2039.78
215.81	2140.13
216.03	2295.77
216.24	2240.48
216.46	2199.52
216.68	2250.72
216.90	2195.42
217.12	2306.01
217.34	2121.70
217.56	2234.33
217.78	2322.40
218.00	2297.82
218.22	2185.18
218.44	2183.13
218.66	2258.91
218.87	2396.12
219.09	2174.94
219.31	2117.60
219.53	2236.38
219.75	2201.57
219.97	2154.46
220.19	2252.77
220.41	2117.60
220.63	2367.45
220.85	2179.04
221.06	2140.13
221.28	2322.40
221.50	2213.85
221.72	2164.70
221.94	2090.98
222.16	2260.96
222.38	2293.72
222.60	2168.80
222.82	2093.02
223.03	2242.53
223.25	2064.35
223.47	2158.56
223.69	2195.42
223.91	2240.48
224.13	2197.47
224.35	2064.35
224.57	2179.04
224.78	2176.99
225.00	2068.45
225.22	2191.33
225.44	2129.89
225.66	2260.96
225.88	2275.29
226.10	2248.67
226.32	2113.50
226.53	2365.40
226.75	2213.85
226.97	2203.61
227.19	2103.26
227.41	2127.84
227.63	2111.46
227.85	1990.63
228.06	2097.12
228.28	2228.19
228.50	2217.95
228.72	2021.35
228.94	2088.93
229.16	1996.77
229.37	2078.69
229.59	2047.97
229.81	2191.33
230.03	2078.69
230.25	2064.35
230.47	1939.43
230.69	2068.45
230.90	2361.31
231.12	2158.56
231.34	2146.27
231.56	2183.13
231.78	2127.84
232.00	2275.29
232.21	2103.26
232.43	2160.61
232.65	1982.43
232.87	2209.76
233.09	2072.54
233.30	2070.50
233.52	2209.76
233.74	2158.56
233.96	2129.89
234.18	2189.28
234.40	2179.04
234.61	2361.31
234.83	2086.88
235.05	2119.65
235.27	2428.89
235.49	2342.88
235.70	2072.54
235.92	2213.85
236.14	2197.47
236.36	2416.60
236.58	2125.79
236.79	2179.04
237.01	2150.37
237.23	2187.23
237.45	2312.16
237.67	2127.84
237.88	2170.85
238.10	2318.30
238.32	2105.31
238.54	2160.61
238.76	2203.61
238.97	2113.50
239.19	2090.98
239.41	2129.89
239.63	2330.59
239.85	2133.98
240.06	2187.23
240.28	2095.07
240.50	2240.48
240.72	2201.57
240.93	2064.35
241.15	2189.28
241.37	2199.52
241.59	2373.60
241.81	2193.37
242.02	2117.60
242.24	2193.37
242.46	2285.53
242.68	2088.93
242.89	2127.84
243.11	2299.87
243.33	2179.04
243.55	2119.65
243.76	2154.46
243.98	2097.12
244.20	2236.38
244.42	2099.17
244.64	2142.18
244.85	2041.82
245.07	2093.02
245.29	2191.33
245.51	2179.04
245.72	2295.77
245.94	2375.64
246.16	2146.27
246.38	2179.04
246.59	2154.46
246.81	2154.46
247.03	2058.21
247.24	1988.58
247.46	2107.36
247.68	2084.83
247.90	2095.07
248.11	2158.56
248.33	2252.77
248.55	2166.75
248.77	2136.03
248.98	2187.23
249.20	2322.40
249.42	2146.27
249.64	2146.27
249.85	2148.32
250.07	2097.12
250.29	2281.44
250.50	2242.53
250.72	2090.98
250.94	2170.85
251.16	2385.88
251.37	2183.13
251.59	2152.42
251.81	2224.09
252.02	2316.25
252.24	2068.45
252.46	2332.64
252.68	2127.84
252.89	2099.17
253.11	2002.91
253.33	2293.72
253.54	2271.20
253.76	2043.87
253.98	2138.08
254.20	2125.79
254.41	2043.87
254.63	2193.37
254.85	2037.73
255.06	2154.46
255.28	2277.34
255.50	2179.04
255.71	2117.60
255.93	2078.69
256.15	2195.42
256.36	2263.01
256.58	2170.85
256.80	2166.75
257.02	2256.86
257.23	2183.13
257.45	2119.65
257.67	2222.05
257.88	2090.98
258.10	2260.96
258.32	2121.70
258.53	2082.78
258.75	2316.25
258.97	2025.44
259.18	2117.60
259.40	2160.61
259.62	2242.53
259.83	2346.97
260.05	2215.90
260.27	2617.30
260.48	2254.81
260.70	2052.06
260.92	2029.54
261.13	2179.04
261.35	2205.66
261.57	2281.44
261.78	2047.97
262.00	2039.78
262.22	2234.33
262.43	2054.11
262.65	2111.46
262.86	2142.18
263.08	2414.56
263.30	2211.81
263.51	1986.53
263.73	2119.65
263.95	2361.31
264.16	2078.69
264.38	2031.58
264.60	2172.89
264.81	2121.70
265.03	2283.49
265.25	2293.72
265.46	2054.11
265.68	2254.81
265.89	2246.62
266.11	2037.73
266.33	2140.13
266.54	2351.07
266.76	2224.09
266.98	2129.89
267.19	2258.91
267.41	2269.15
267.62	2160.61
267.84	2070.50
268.06	2187.23
268.27	2205.66
268.49	2267.10
268.70	2211.81
268.92	2156.51
269.14	2111.46
269.35	2045.92
269.57	2129.89
269.79	2256.86
270.00	2164.70
270.22	2306.01
270.43	1980.39
270.65	1908.71
270.87	2193.37
271.08	2283.49
271.30	2193.37
271.51	2164.70
271.73	2246.62
271.95	2318.30
272.16	2097.12
272.38	2099.17
272.59	2181.09
272.81	2299.87
273.02	2111.46
273.24	2226.14
273.46	2238.43
273.67	2035.68
273.89	2090.98
274.10	2070.50
274.32	2392.03
274.54	2176.99
274.75	2238.43
274.97	2174.94
275.18	2293.72
275.40	2260.96
275.61	2217.95
275.83	2185.18
276.05	2058.21
276.26	2183.13
276.48	2226.14
276.69	2133.98
276.91	2199.52
277.12	2312.16
277.34	2248.67
277.55	2281.44
277.77	2172.89
277.99	2158.56
278.20	2162.66
278.42	2074.59
278.63	2111.46
278.85	2197.47
279.06	2133.98
279.28	2258.91
279.49	2285.53
279.71	2299.87
279.93	2154.46
280.14	2168.80
280.36	2142.18
280.57	2281.44
280.79	2240.48
281.00	2062.30
281.22	2119.65
281.43	2248.67
281.65	2039.78
281.86	2088.93
282.08	2258.91
282.29	2375.64
282.51	2037.73
282.73	2095.07
282.94	2101.22
283.16	2246.62
283.37	2291.68
283.59	2129.89
283.80	2213.85
284.02	2144.22
284.23	2236.38
284.45	2117.60
284.66	2146.27
284.88	2156.51
285.09	2158.56
285.31	2297.82
285.52	2252.77
285.74	1968.10
285.95	2220.00
286.17	2285.53
286.38	2244.57
286.60	2093.02
286.81	2115.55
287.03	2138.08
287.24	2205.66
287.46	2232.29
287.67	2125.79
287.89	2363.36
288.10	2162.66
288.32	2213.85
288.53	2283.49
288.75	2195.42
288.96	2254.81
289.18	2123.74
289.39	2136.03
289.61	2258.91
289.82	2416.60
290.04	2318.30
290.25	2078.69
290.47	2199.52
290.68	2185.18
290.90	2267.10
291.11	1988.58
291.33	2250.72
291.54	2119.65
291.76	2164.70
291.97	2263.01
292.18	2217.95
292.40	2174.94
292.61	2099.17
292.83	2318.30
293.04	2269.15
293.26	2191.33
293.47	2170.85
293.69	2113.50
293.90	2166.75
294.12	2316.25
294.33	2281.44
294.55	2103.26
294.76	2217.95
294.97	2363.36
295.19	2394.08
295.40	2162.66
295.62	2265.05
295.83	2277.34
296.05	2174.94
296.26	2254.81
296.48	2095.07
296.69	2187.23
296.90	2146.27
297.12	2254.81
297.33	2258.91
297.55	2201.57
297.76	2220.00
297.98	2224.09
298.19	2236.38
298.41	2181.09
298.62	2080.74
298.83	2269.15
299.05	2170.85
299.26	2082.78
299.48	2144.22
299.69	2174.94
299.90	2168.80
300.12	2078.69
300.33	2203.61
300.55	2195.42
300.76	2211.81
300.98	2131.94
301.19	2191.33
301.40	2093.02
301.62	2107.36
301.83	2244.57
302.05	2228.19
302.26	2191.33
302.47	2107.36
302.69	2086.88
302.90	2260.96
303.12	2062.30
303.33	2269.15
303.54	2373.60
303.76	2146.27
303.97	2252.77
304.19	2326.49
304.40	2080.74
304.61	2273.25
304.83	2324.44
305.04	2385.88
305.26	2234.33
305.47	2179.04
305.68	2176.99
305.90	2060.26
306.11	2236.38
306.33	2176.99
306.54	2097.12
306.75	2031.58
306.97	2078.69
307.18	2127.84
307.39	2168.80
307.61	2318.30
307.82	2156.51
308.04	2205.66
308.25	2117.60
308.46	2226.14
308.68	2209.76
308.89	2256.86
309.10	2222.05
309.32	2310.11
309.53	2211.81
309.74	2222.05
309.96	2203.61
310.17	2283.49
310.39	2220.00
310.60	2322.40
310.81	2146.27
311.03	2062.30
311.24	2226.14
311.45	2179.04
311.67	2334.68
311.88	2136.03
312.09	2144.22
312.31	2109.41
312.52	2207.71
312.73	2080.74
312.95	2058.21
313.16	2148.32
313.37	2267.10
313.59	2220.00
313.80	2228.19
314.01	2375.64
314.23	2146.27
314.44	2125.79
314.65	2117.60
314.87	2152.42
315.08	2109.41
315.29	2195.42
315.51	2207.71
315.72	2095.07
315.93	2316.25
316.15	2185.18
316.36	2154.46
316.57	2240.48
316.79	2195.42
317.00	2133.98
317.21	2183.13
317.43	2133.98
317.64	2158.56
317.85	2007.01
318.07	2142.18
318.28	2252.77
318.49	2312.16
318.70	2492.38
318.92	2383.84
319.13	2400.22
319.34	2418.65
319.56	2328.54
319.77	2357.21
319.98	2449.37
320.20	2351.07
320.41	2269.15
320.62	2308.06
320.83	2140.13
321.05	2406.36
321.26	2140.13
321.47	2232.29
321.69	2328.54
321.90	2031.58
322.11	2103.26
322.32	2303.96
322.54	2342.88
322.75	2129.89
322.96	2418.65
323.18	2045.92
323.39	2025.44
323.60	2033.63
323.81	2222.05
324.03	2168.80
324.24	2174.94
324.45	2195.42
324.66	2170.85
324.88	2275.29
325.09	2365.40
325.30	2197.47
325.52	2242.53
325.73	2179.04
325.94	2127.84
326.15	2011.11
326.37	2107.36
326.58	2269.15
326.79	2367.45
327.00	2099.17
327.22	2138.08
327.43	2095.07
327.64	2107.36
327.85	2207.71
328.07	2201.57
328.28	2418.65
328.49	2142.18
328.70	2158.56
328.92	2097.12
329.13	2172.89
329.34	2293.72
329.55	2375.64
329.76	2258.91
329.98	2181.09
330.19	2357.21
330.40	2183.13
330.61	2248.67
330.83	2250.72
331.04	2160.61
331.25	2260.96
331.46	2095.07
331.68	2047.97
331.89	2238.43
332.10	2172.89
332.31	2043.87
332.52	2140.13
332.74	2340.83
332.95	2047.97
333.16	2176.99
333.37	2265.05
333.58	2213.85
333.80	2220.00
334.01	2127.84
334.22	2166.75
334.43	2172.89
334.64	2162.66
334.86	2062.30
335.07	2150.37
335.28	2306.01
335.49	2045.92
335.70	2301.92
335.92	2281.44
336.13	2437.08
336.34	2240.48
336.55	2240.48
336.76	2228.19
336.98	1966.05
337.19	2142.18
337.40	2365.40
337.61	2377.69
337.82	2113.50
338.04	2320.35
338.25	2111.46
338.46	2121.70
338.67	2029.54
338.88	2220.00
339.09	2080.74
339.31	2176.99
339.52	2029.54
339.73	2109.41
339.94	2144.22
340.15	2281.44
340.36	2084.83
340.58	2215.90
340.79	2060.26
341.00	2289.63
341.21	2084.83
341.42	2340.83
341.63	2170.85
341.85	2293.72
342.06	2168.80
342.27	2148.32
342.48	2361.31
342.69	2127.84
342.90	2289.63
343.12	2320.35
343.33	2152.42
343.54	2220.00
343.75	2322.40
343.96	2199.52
344.17	2054.11
344.38	2156.51
344.60	2097.12
344.81	2133.98
345.02	2097.12
345.23	2275.29
345.44	2420.70
345.65	2220.00
345.86	2191.33
346.07	2138.08
346.29	2162.66
346.50	2211.81
346.71	2248.67
346.92	2357.21
347.13	2412.51
347.34	2209.76
347.55	2162.66
347.76	2158.56
347.98	2031.58
348.19	2162.66
348.40	2316.25
348.61	2168.80
348.82	2389.98
349.03	2269.15
349.24	2084.83
349.45	2398.17
349.66	2064.35
349.88	2213.85
350.09	2113.50
350.30	2326.49
350.51	2254.81
350.72	2248.67
350.93	2209.76
351.14	2179.04
351.35	2248.67
351.56	2156.51
351.77	2207.71
351.99	2189.28
352.20	2336.73
352.41	2344.92
352.62	1994.72
352.83	2275.29
353.04	2166.75
353.25	2258.91
353.46	2295.77
353.67	2285.53
353.88	1974.24
354.09	2234.33
354.30	2236.38
354.52	2269.15
354.73	2228.19
354.94	2148.32
355.15	2090.98
355.36	2340.83
355.57	2125.79
355.78	2191.33
355.99	2101.22
356.20	2146.27
356.41	2299.87
356.62	2209.76
356.83	2209.76
357.04	2340.83
357.25	2029.54
357.46	2101.22
357.68	2105.31
357.89	2056.16
358.10	2187.23
358.31	2105.31
358.52	2150.37
358.73	2095.07
358.94	2029.54
359.15	2095.07
359.36	2179.04
359.57	2203.61
359.78	2203.61
359.99	2217.95
360.20	2154.46
360.41	2306.01
360.62	2240.48
360.83	2291.68
361.04	2115.55
361.25	2189.28
361.46	2385.88
361.67	2269.15
361.88	2256.86
362.09	2373.60
362.30	2203.61
362.51	2160.61
362.72	2160.61
362.93	2185.18
363.14	2170.85
363.35	2258.91
363.56	2166.75
363.78	2285.53
363.99	2224.09
364.20	2138.08
364.41	2148.32
364.62	2324.44
364.83	2269.15
365.04	2220.00
365.25	2181.09
365.46	2318.30
365.67	2113.50
365.88	2183.13
366.09	2115.55
366.30	2138.08
366.51	2207.71
366.72	2095.07
366.93	2047.97
367.14	2220.00
367.35	2248.67
367.56	2121.70
367.77	2275.29
367.98	2187.23
368.18	2164.70
368.39	2291.68
368.60	2080.74
368.81	2277.34
369.02	2258.91
369.23	2256.86
369.44	2050.02
369.65	2183.13
369.86	2209.76
370.07	2271.20
370.28	2078.69
370.49	2224.09
370.70	2271.20
370.91	2168.80
371.12	2045.92
371.33	2285.53
371.54	2111.46
371.75	2252.77
371.96	2058.21
372.17	2226.14
372.38	2217.95
372.59	2195.42
372.80	2097.12
373.01	2162.66
373.22	2228.19
373.43	2199.52
373.64	2037.73
373.85	2375.64
374.06	2308.06
374.26	2213.85
374.47	2281.44
374.68	2310.11
374.89	2205.66
375.10	2242.53
375.31	2187.23
375.52	2195.42
375.73	2228.19
375.94	2066.40
376.15	2254.81
376.36	2121.70
376.57	2127.84
376.78	2152.42
376.99	2191.33
377.20	2416.60
377.40	2080.74
377.61	2381.79
377.82	2113.50
378.03	2314.20
378.24	2346.97
378.45	2166.75
378.66	2209.76
378.87	2015.20
379.08	2068.45
379.29	2156.51
379.50	2295.77
379.71	2154.46
379.91	2269.15
380.12	2179.04
380.33	2185.18
380.54	2189.28
380.75	2189.28
380.96	2164.70
381.17	2246.62
381.38	2113.50
381.59	2154.46
381.80	2195.42
382.00	2414.56
382.21	2310.11
382.42	2326.49
382.63	2428.89
382.84	2195.42
383.05	2303.96
383.26	2424.80
383.47	2250.72
383.68	2260.96
383.88	2314.20
384.09	2234.33
384.30	2398.17
384.51	2172.89
384.72	2150.37
384.93	2121.70
385.14	2217.95
385.35	2283.49
385.55	2054.11
385.76	2322.40
385.97	2148.32
386.18	2101.22
386.39	2152.42
386.60	2148.32
386.81	2199.52
387.02	2174.94
387.22	2045.92
387.43	2326.49
387.64	2293.72
387.85	2322.40
388.06	2392.03
388.27	4050.88
388.48	8501.12
388.68	12175.17
388.89	14360.36
389.10	15611.67
389.31	14376.74
389.52	11272.02
389.73	9836.39
389.93	8802.17
390.14	8058.76
390.35	7243.67
390.56	6471.58
390.77	5250.99
390.98	4024.26
391.18	3336.14
391.39	2697.17
391.60	2445.27
391.81	2318.30
392.02	2127.84
392.23	2420.70
392.43	2213.85
392.64	2289.63
392.85	2191.33
393.06	2342.88
393.27	2162.66
393.47	2156.51
393.68	2209.76
393.89	2154.46
394.10	2334.68
394.31	2166.75
394.52	2066.40
394.72	2138.08
394.93	2373.60
395.14	2088.93
395.35	2224.09
395.56	2144.22
395.76	2258.91
395.97	2277.34
396.18	2308.06
396.39	2361.31
396.60	2662.36
396.80	2473.95
397.01	2349.02
397.22	2379.74
397.43	2334.68
397.64	2187.23
397.84	2346.97
398.05	2449.37
398.26	2220.00
398.47	2312.16
398.67	2308.06
398.88	2234.33
399.09	2217.95
399.30	2131.94
399.51	2242.53
399.71	2195.42
399.92	2168.80
400.13	2213.85
400.34	2224.09
400.54	2187.23
400.75	2443.23
400.96	2277.34
401.17	2293.72
401.37	2193.37
401.58	2166.75
401.79	2142.18
402.00	2342.88
402.21	2639.83
402.41	2572.25
402.62	2598.87
402.83	2772.95
403.04	2623.45
403.24	2818.00
403.45	2338.78
403.66	2463.71
403.87	2367.45
404.07	2531.29
404.28	2523.10
404.49	2430.94
404.70	2312.16
404.90	2291.68
405.11	2209.76
405.32	2226.14
405.52	2101.22
405.73	2123.74
405.94	2168.80
406.15	2215.90
406.35	2308.06
406.56	2310.11
406.77	2220.00
406.98	2176.99
407.18	2150.37
407.39	2330.59
407.60	2234.33
407.80	2265.05
408.01	2193.37
408.22	2164.70
408.43	2170.85
408.63	2183.13
408.84	2375.64
409.05	2279.39
409.25	2160.61
409.46	2031.58
409.67	2168.80
409.88	2207.71
410.08	2236.38
410.29	2138.08
410.50	2289.63
410.70	2248.67
410.91	2105.31
411.12	2187.23
411.32	2185.18
411.53	2133.98
411.74	2287.58
411.95	2320.35
412.15	2289.63
412.36	2334.68
412.57	2299.87
412.77	2318.30
412.98	2258.91
413.19	2148.32
413.39	2275.29
413.60	2224.09
413.81	2295.77
414.01	2176.99
414.22	2252.77
414.43	2193.37
414.63	2162.66
414.84	2306.01
415.05	2201.57
415.25	2072.54
415.46	2258.91
415.67	2195.42
415.87	2252.77
416.08	2213.85
416.29	2179.04
416.49	2195.42
416.70	2150.37
416.91	2119.65
417.11	2220.00
417.32	2269.15
417.53	2269.15
417.73	2254.81
417.94	2160.61
418.15	2228.19
418.35	2172.89
418.56	2160.61
418.77	2449.37
418.97	2228.19
419.18	2205.66
419.38	2017.25
419.59	2256.86
419.80	2277.34
420.00	2113.50
420.21	2119.65
420.42	2326.49
420.62	2217.95
420.83	2211.81
421.04	2162.66
421.24	2162.66
421.45	2246.62
421.65	2267.10
421.86	2090.98
422.07	2248.67
422.27	2291.68
422.48	2144.22
422.69	2054.11
422.89	2162.66
423.10	2164.70
423.30	2088.93
423.51	2256.86
423.72	2220.00
423.92	2283.49
424.13	2152.42
424.33	2199.52
424.54	2340.83
424.75	2244.57
424.95	2408.41
425.16	2195.42
425.36	2170.85
425.57	2236.38
425.78	2258.91
425.98	2312.16
426.19	2236.38
426.39	2078.69
426.60	2199.52
426.81	2267.10
427.01	2181.09
427.22	2062.30
427.42	2009.06
427.63	2140.13
427.83	2277.34
428.04	2357.21
428.25	2295.77
428.45	2277.34
428.66	2338.78
428.86	2244.57
429.07	2121.70
429.28	2197.47
429.48	2226.14
429.69	2138.08
429.89	2162.66
430.10	2115.55
430.30	2252.77
430.51	2349.02
430.71	2113.50
430.92	2176.99
431.13	2136.03
431.33	2217.95
431.54	2207.71
431.74	2299.87
431.95	2459.61
432.15	2193.37
432.36	2158.56
432.56	2265.05
432.77	2453.47
432.98	2387.93
433.18	2197.47
433.39	2148.32
433.59	2131.94
433.80	2320.35
434.00	2428.89
434.21	2152.42
434.41	2144.22
434.62	2455.51
434.82	2142.18
435.03	2115.55
435.23	2260.96
435.44	2084.83
435.64	2117.60
435.85	2246.62
436.06	2316.25
436.26	2312.16
436.47	2215.90
436.67	2095.07
436.88	2213.85
437.08	2246.62
437.29	2281.44
437.49	2215.90
437.70	2387.93
437.90	2205.66
438.11	2342.88
438.31	2310.11
438.52	2387.93
438.72	2277.34
438.93	2488.28
439.13	2359.26
439.34	2383.84
439.54	2209.76
439.75	2287.58
439.95	2293.72
440.16	2203.61
440.36	2324.44
440.57	2207.71
440.77	2308.06
440.98	2260.96
441.18	2183.13
441.39	2129.89
441.59	2185.18
441.80	2371.55
442.00	2199.52
442.21	2383.84
442.41	2050.02
442.62	2340.83
442.82	2162.66
443.02	2220.00
443.23	2220.00
443.43	2195.42
443.64	2389.98
443.84	2150.37
444.05	2342.88
444.25	2168.80
444.46	2154.46
444.66	2183.13
444.87	2287.58
445.07	2070.50
445.28	2191.33
445.48	2283.49
445.69	2244.57
445.89	2330.59
446.09	2215.90
446.30	2508.76
446.50	2803.67
446.71	4448.19
446.91	5468.08
447.12	6242.21
447.32	6668.19
447.53	6281.12
447.73	5169.07
447.93	4579.26
448.14	4151.23
448.34	4061.12
448.55	3561.42
448.75	3672.01
448.96	3342.28
449.16	3020.75
449.36	2875.35
449.57	2531.29
449.77	2357.21
449.98	2285.53
450.18	2260.96
450.39	2283.49
450.59	2330.59
450.79	2258.91
451.00	2140.13
451.20	2170.85
451.41	2234.33
451.61	2244.57
451.81	2209.76
452.02	2209.76
452.22	2228.19
452.43	2125.79
452.63	2185.18
452.84	2176.99
453.04	2154.46
453.24	2179.04
453.45	2070.50
453.65	2285.53
453.86	2226.14
454.06	2211.81
454.26	2220.00
454.47	2086.88
454.67	2332.64
454.87	2320.35
455.08	2213.85
455.28	2365.40
455.49	2232.29
455.69	2209.76
455.89	2441.18
456.10	2277.34
456.30	2168.80
456.51	2199.52
456.71	2301.92
456.91	2217.95
457.12	2234.33
457.32	2181.09
457.52	2088.93
457.73	2215.90
457.93	2226.14
458.14	2105.31
458.34	2080.74
458.54	2168.80
458.75	2234.33
458.95	2275.29
459.15	2248.67
459.36	2201.57
459.56	2252.77
459.76	2465.75
459.97	2244.57
460.17	2144.22
460.37	2281.44
460.58	2140.13
460.78	2301.92
460.99	2144.22
461.19	2285.53
461.39	2199.52
461.60	2174.94
461.80	2125.79
462.00	2168.80
462.21	2148.32
462.41	2129.89
462.61	2136.03
462.82	2123.74
463.02	2238.43
463.22	2252.77
463.43	2310.11
463.63	2215.90
463.83	2408.41
464.04	2267.10
464.24	2127.84
464.44	2152.42
464.64	2258.91
464.85	2316.25
465.05	2303.96
465.25	2246.62
465.46	2232.29
465.66	2351.07
465.86	2332.64
466.07	2183.13
466.27	2133.98
466.47	2078.69
466.68	2082.78
466.88	2349.02
467.08	2310.11
467.29	2260.96
467.49	2248.67
467.69	2176.99
467.89	2267.10
468.10	2209.76
468.30	2201.57
468.50	2349.02
468.71	2312.16
468.91	2097.12
469.11	2412.51
469.31	2111.46
469.52	2097.12
469.72	2297.82
469.92	2355.16
470.13	2156.51
470.33	2285.53
470.53	2283.49
470.73	2633.69
470.94	2985.94
471.14	3246.03
471.34	3649.48
471.54	3465.16
471.75	3172.30
471.95	2783.19
472.15	2850.77
472.36	2701.27
472.56	2717.65
472.76	2676.70
472.96	2623.45
473.17	2537.43
473.37	2529.24
473.57	2308.06
473.77	2326.49
473.98	2236.38
474.18	2119.65
474.38	2480.09
474.58	2205.66
474.79	2146.27
474.99	2246.62
475.19	2340.83
475.39	2113.50
475.60	2226.14
475.80	2211.81
476.00	2242.53
476.20	2193.37
476.41	2236.38
476.61	2220.00
476.81	2330.59
477.01	2142.18
477.21	2314.20
477.42	2285.53
477.62	2056.16
477.82	2252.77
478.02	2179.04
478.23	2189.28
478.43	2179.04
478.63	2154.46
478.83	2144.22
479.03	2146.27
479.24	2283.49
479.44	2486.23
479.64	2109.41
479.84	2054.11
480.04	2129.89
480.25	2316.25
480.45	2121.70
480.65	2142.18
480.85	2340.83
481.06	2215.90
481.26	2160.61
481.46	2220.00
481.66	2254.81
481.86	2201.57
482.06	2308.06
482.27	2154.46
482.47	2162.66
482.67	2158.56
482.87	2222.05
483.07	2342.88
483.28	2131.94
483.48	2166.75
483.68	2187.23
483.88	2205.66
484.08	2088.93
484.29	2170.85
484.49	2193.37
484.69	2109.41
484.89	2371.55
485.09	2326.49
485.29	2244.57
485.50	2269.15
485.70	2283.49
485.90	2379.74
486.10	2248.67
486.30	2265.05
486.50	2363.36
486.71	2228.19
486.91	2277.34
487.11	2303.96
487.31	2115.55
487.51	2312.16
487.71	2099.17
487.91	2054.11
488.12	2103.26
488.32	2017.25
488.52	2111.46
488.72	2050.02
488.92	2211.81
489.12	2324.44
489.32	2310.11
489.53	2209.76
489.73	2035.68
489.93	2256.86
490.13	2154.46
490.33	2072.54
490.53	2168.80
490.73	2236.38
490.94	2047.97
491.14	2217.95
491.34	2377.69
491.54	2482.14
491.74	3170.26
491.94	3674.06
492.14	3911.62
492.34	4222.91
492.54	3801.03
492.75	3194.83
492.95	3141.58
493.15	2934.74
493.35	2940.88
493.55	2844.63
493.75	2654.17
493.95	2760.66
494.15	2625.50
494.35	2373.60
494.56	2357.21
494.76	2222.05
494.96	2334.68
495.16	2209.76
495.36	2228.19
495.56	2207.71
495.76	2193.37
495.96	2248.67
496.16	2136.03
496.36	2404.32
496.56	2195.42
496.77	2146.27
496.97	2258.91
497.17	2310.11
497.37	2121.70
497.57	2256.86
497.77	2183.13
497.97	2125.79
498.17	2187.23
498.37	2146.27
498.57	2283.49
498.77	2226.14
498.97	2281.44
499.17	2392.03
499.38	2146.27
499.58	2236.38
499.78	2301.92
499.98	2342.88
500.18	2160.61
500.38	2146.27
500.58	2449.37
500.78	2906.07
500.98	5156.79
501.18	7311.25
501.38	9002.87
501.58	9889.64
501.78	9715.56
501.98	7657.36
502.18	6604.70
502.38	5525.42
502.58	5068.72
502.78	4589.50
502.98	4407.23
503.18	4202.43
503.38	3889.09
503.59	3504.07
503.79	3176.40
503.99	2957.27
504.19	2856.92
504.39	2807.77
504.59	2820.05
504.79	2869.20
504.99	2865.11
505.19	2535.39
505.39	2461.66
505.59	2541.53
505.79	2488.28
505.99	2367.45
506.19	2258.91
506.39	2471.90
506.59	2240.48
506.79	2256.86
506.99	2430.94
507.19	2256.86
507.39	2246.62
507.59	2097.12
507.79	2170.85
507.99	2146.27
508.19	2213.85
508.39	2168.80
508.59	2230.24
508.79	2310.11
508.99	2469.85
509.19	2088.93
509.39	2285.53
509.59	2072.54
509.79	2152.42
509.99	2174.94
510.19	2359.26
510.39	2383.84
510.59	2203.61
510.79	2138.08
510.99	2162.66
511.19	2242.53
511.39	2416.60
511.59	2301.92
511.79	2303.96
511.99	2209.76
512.19	2342.88
512.38	2158.56
512.58	2195.42
512.78	2156.51
512.98	2303.96
513.18	2373.60
513.38	2068.45
513.58	2308.06
513.78	2195.42
513.98	2279.39
514.18	2183.13
514.38	2187.23
514.58	2211.81
514.78	2090.98
514.98	2129.89
515.18	2203.61
515.38	2054.11
515.58	2363.36
515.78	2246.62
515.98	2213.85
516.18	2250.72
516.38	2215.90
516.57	2154.46
516.77	2121.70
516.97	2338.78
517.17	2240.48
517.37	2074.59
517.57	2326.49
517.77	2170.85
517.97	2166.75
518.17	2258.91
518.37	2160.61
518.57	2138.08
518.77	2170.85
518.97	2244.57
519.16	2246.62
519.36	2326.49
519.56	2185.18
519.76	2230.24
519.96	2187.23
520.16	2324.44
520.36	2150.37
520.56	2342.88
520.76	2068.45
520.96	2121.70
521.16	2355.16
521.35	2324.44
521.55	2353.12
521.75	2215.90
521.95	2193.37
522.15	2170.85
522.35	2047.97
522.55	2127.84
522.75	2316.25
522.95	2154.46
523.14	2058.21
523.34	2170.85
523.54	2136.03
523.74	2295.77
523.94	2209.76
524.14	2097.12
524.34	2248.67
524.54	2316.25
524.73	2093.02
524.93	2240.48
525.13	2220.00
525.33	2097.12
525.53	2439.13
525.73	2326.49
525.93	2197.47
526.13	2170.85
526.32	2236.38
526.52	2312.16
526.72	2279.39
526.92	2166.75
527.12	2131.94
527.32	2133.98
527.52	2312.16
527.71	2224.09
527.91	2119.65
528.11	2226.14
528.31	2215.90
528.51	2160.61
528.71	2211.81
528.90	2271.20
529.10	2312.16
529.30	2306.01
529.50	2000.87
529.70	2234.33
529.90	2207.71
530.09	2252.77
530.29	2009.06
530.49	2113.50
530.69	2471.90
530.89	2256.86
531.09	2293.72
531.28	2185.18
531.48	2369.50
531.68	2205.66
531.88	2199.52
532.08	2226.14
532.28	2191.33
532.47	2367.45
532.67	2359.26
532.87	2273.25
533.07	2172.89
533.27	2285.53
533.46	2234.33
533.66	2301.92
533.86	2293.72
534.06	2176.99
534.26	2246.62
534.45	2193.37
534.65	2306.01
534.85	2308.06
535.05	2160.61
535.25	2322.40
535.44	2056.16
535.64	2217.95
535.84	2174.94
536.04	2156.51
536.24	2197.47
536.43	2152.42
536.63	2267.10
536.83	2199.52
537.03	2228.19
537.22	2097.12
537.42	2088.93
537.62	2260.96
537.82	2127.84
538.02	2320.35
538.21	2369.50
538.41	2557.91
538.61	2301.92
538.81	2160.61
539.00	2373.60
539.20	2140.13
539.40	2181.09
539.60	2254.81
539.79	2332.64
539.99	2160.61
540.19	2156.51
540.39	2136.03
540.58	2281.44
540.78	2283.49
540.98	2256.86
541.18	2326.49
541.37	2373.60
541.57	2195.42
541.77	2166.75
541.97	2088.93
542.16	2093.02
542.36	2203.61
542.56	2107.36
542.76	2383.84
542.95	2205.66
543.15	2293.72
543.35	2301.92
543.54	2152.42
543.74	2162.66
543.94	2281.44
544.14	2174.94
544.33	2205.66
544.53	2172.89
544.73	2142.18
544.93	2162.66
545.12	2174.94
545.32	2252.77
545.52	2203.61
545.71	2111.46
545.91	2138.08
546.11	2093.02
546.30	2138.08
546.50	2203.61
546.70	2248.67
546.90	2211.81
547.09	2105.31
547.29	2242.53
547.49	2349.02
547.68	2207.71
547.88	2138.08
548.08	2293.72
548.27	2693.08
548.47	2158.56
548.67	2142.18
548.87	2265.05
549.06	2176.99
549.26	2234.33
549.46	2310.11
549.65	2156.51
549.85	2176.99
550.05	2211.81
550.24	2039.78
550.44	2275.29
550.64	2258.91
550.83	2181.09
551.03	2387.93
551.23	2334.68
551.42	2342.88
551.62	2179.04
551.82	2152.42
552.01	2168.80
552.21	2334.68
552.41	2248.67
552.60	2293.72
552.80	2256.86
553.00	2168.80
553.19	2220.00
553.39	2416.60
553.59	2058.21
553.78	2215.90
553.98	2172.89
554.17	2174.94
554.37	2228.19
554.57	2369.50
554.76	2170.85
554.96	2146.27
555.16	2238.43
555.35	2185.18
555.55	2332.64
555.75	2189.28
555.94	2271.20
556.14	2056.16
556.33	2254.81
556.53	2121.70
556.73	2140.13
556.92	2275.29
557.12	2228.19
557.32	2367.45
557.51	2451.42
557.71	2260.96
557.90	2320.35
558.10	2363.36
558.30	2195.42
558.49	2252.77
558.69	2164.70
558.88	2242.53
559.08	2195.42
559.28	2129.89
559.47	2252.77
559.67	2269.15
559.86	2416.60
560.06	2168.80
560.26	2228.19
560.45	2320.35
560.65	2154.46
560.84	2334.68
561.04	2090.98
561.24	2207.71
561.43	2129.89
561.63	2398.17
561.82	2256.86
562.02	2283.49
562.22	2082.78
562.41	2088.93
562.61	2234.33
562.80	2181.09
563.00	2480.09
563.19	2293.72
563.39	2217.95
563.59	2250.72
563.78	2093.02
563.98	1966.05
564.17	2174.94
564.37	2064.35
564.56	2185.18
564.76	2152.42
564.96	2336.73
565.15	2260.96
565.35	2502.62
565.54	2097.12
565.74	2220.00
565.93	2211.81
566.13	2310.11
566.32	2226.14
566.52	2285.53
566.71	2207.71
566.91	2267.10
567.11	2187.23
567.30	2105.31
567.50	2316.25
567.69	2260.96
567.89	2176.99
568.08	2095.07
568.28	2248.67
568.47	2131.94
568.67	2234.33
568.86	2203.61
569.06	2310.11
569.25	2220.00
569.45	2086.88
569.64	2160.61
569.84	2162.66
570.04	2248.67
570.23	2211.81
570.43	2226.14
570.62	2289.63
570.82	2265.05
571.01	2101.22
571.21	2125.79
571.40	2097.12
571.60	2228.19
571.79	2197.47
571.99	2336.73
572.18	2131.94
572.38	2283.49
572.57	2080.74
572.77	2297.82
572.96	2504.67
573.16	2215.90
573.35	2133.98
573.55	2359.26
573.74	2285.53
573.94	2303.96
574.13	2170.85
574.33	2310.11
574.52	2365.40
574.71	2250.72
574.91	2287.58
575.10	2121.70
575.30	2271.20
575.49	2129.89
575.69	2113.50
575.88	2283.49
576.08	2275.29
576.27	2416.60
576.47	2273.25
576.66	2383.84
576.86	2398.17
577.05	2226.14
577.25	2191.33
577.44	2414.56
577.64	2215.90
577.83	2342.88
578.02	2160.61
578.22	2332.64
578.41	2355.16
578.61	2293.72
578.80	2088.93
579.00	2242.53
579.19	2201.57
579.39	2338.78
579.58	2215.90
579.77	2232.29
579.97	2432.99
580.16	2308.06
580.36	2318.30
580.55	2461.66
580.75	2279.39
580.94	2277.34
581.13	2412.51
581.33	2375.64
581.52	2232.29
581.72	2449.37
581.91	2361.31
582.11	2244.57
582.30	2285.53
582.49	2222.05
582.69	2359.26
582.88	2326.49
583.08	2324.44
583.27	2299.87
583.47	2228.19
583.66	2211.81
583.85	2107.36
584.05	2203.61
584.24	2389.98
584.44	2314.20
584.63	2312.16
584.82	2412.51
585.02	2422.75
585.21	2359.26
585.41	2375.64
585.60	2375.64
585.79	2508.76
585.99	2473.95
586.18	2383.84
586.37	2908.12
586.57	4454.33
586.76	13104.95
586.96	32228.88
587.15	45651.27
587.34	55307.44
587.54	60118.12
587.73	55229.62
587.93	38950.32
588.12	29677.12
588.31	23789.20
588.51	20651.72
588.70	19009.25
588.89	17262.33
589.09	15296.28
589.28	12853.05
589.47	10526.56
589.67	8253.31
589.86	6436.77
590.06	4718.52
590.25	3762.12
590.44	3260.37
590.64	2678.74
590.83	2564.06
591.02	2512.86
591.22	2379.74
591.41	2344.92
591.60	2312.16
591.80	2514.91
591.99	2172.89
592.18	2246.62
592.38	2408.41
592.57	2113.50
592.76	2174.94
592.96	2230.24
593.15	2138.08
593.34	2346.97
593.54	2197.47
593.73	2299.87
593.92	2330.59
594.12	2324.44
594.31	2336.73
594.50	2430.94
594.70	2271.20
594.89	2568.15
595.08	2125.79
595.28	2328.54
595.47	2559.96
595.66	2322.40
595.86	2133.98
596.05	2215.90
596.24	2271.20
596.43	2385.88
596.63	2381.79
596.82	2265.05
597.01	2310.11
597.21	2416.60
597.40	2336.73
597.59	2260.96
597.79	2308.06
597.98	2224.09
598.17	2244.57
598.36	2265.05
598.56	2301.92
598.75	2203.61
598.94	2338.78
599.14	2287.58
599.33	2168.80
599.52	2383.84
599.71	2314.20
599.91	2322.40
600.10	2293.72
600.29	2316.25
600.48	2332.64
600.68	2310.11
600.87	2260.96
601.06	2105.31
601.26	2236.38
601.45	2222.05
601.64	2246.62
601.83	2322.40
602.03	2226.14
602.22	2101.22
602.41	2291.68
602.60	2412.51
602.80	2316.25
602.99	2293.72
603.18	2154.46
603.37	2215.90
603.57	2174.94
603.76	2191.33
603.95	2310.11
604.14	2172.89
604.34	2179.04
604.53	2228.19
604.72	2267.10
604.91	2244.57
605.10	2222.05
605.30	2109.41
605.49	2344.92
605.68	2260.96
605.87	2301.92
606.07	2185.18
606.26	2125.79
606.45	2299.87
606.64	2203.61
606.84	2203.61
607.03	2299.87
607.22	2283.49
607.41	2228.19
607.60	2271.20
607.80	2394.08
607.99	2209.76
608.18	2193.37
608.37	2203.61
608.56	2111.46
608.76	2353.12
608.95	2367.45
609.14	2324.44
609.33	2351.07
609.52	2514.91
609.72	2275.29
609.91	2410.46
610.10	2254.81
610.29	2432.99
610.48	2285.53
610.68	2236.38
610.87	2217.95
611.06	2330.59
611.25	2238.43
611.44	2400.22
611.63	2201.57
611.83	2422.75
612.02	2125.79
612.21	2322.40
612.40	2033.63
612.59	2093.02
612.79	2162.66
612.98	2310.11
613.17	2338.78
613.36	2203.61
613.55	2396.12
613.74	2291.68
613.93	2355.16
614.13	2459.61
614.32	2408.41
614.51	2455.51
614.70	2275.29
614.89	2281.44
615.08	2432.99
615.28	2707.41
615.47	2187.23
615.66	2351.07
615.85	2285.53
616.04	2359.26
616.23	2279.39
616.42	2293.72
616.62	2277.34
616.81	2308.06
617.00	2195.42
617.19	2242.53
617.38	2250.72
617.57	2283.49
617.76	2330.59
617.95	2215.90
618.15	2179.04
618.34	2273.25
618.53	2095.07
618.72	2303.96
618.91	2353.12
619.10	2385.88
619.29	2244.57
619.48	2179.04
619.68	2164.70
619.87	2226.14
620.06	2088.93
620.25	2297.82
620.44	2201.57
620.63	2234.33
620.82	2236.38
621.01	2275.29
621.20	2148.32
621.39	2215.90
621.59	2224.09
621.78	2246.62
621.97	2283.49
622.16	2291.68
622.35	2314.20
622.54	2209.76
622.73	2246.62
622.92	2056.16
623.11	2359.26
623.30	2170.85
623.49	2275.29
623.68	2224.09
623.88	2441.18
624.07	2224.09
624.26	2136.03
624.45	2289.63
624.64	2115.55
624.83	2265.05
625.02	2199.52
625.21	2238.43
625.40	2226.14
625.59	2320.35
625.78	2265.05
625.97	2326.49
626.16	2447.32
626.35	2359.26
626.54	2301.92
626.74	2441.18
626.93	2168.80
627.12	2240.48
627.31	2312.16
627.50	2324.44
627.69	2285.53
627.88	2187.23
628.07	2226.14
628.26	1990.63
628.45	2238.43
628.64	2156.51
628.83	2228.19
629.02	2095.07
629.21	2324.44
629.40	2277.34
629.59	2170.85
629.78	2031.58
629.97	2242.53
630.16	2228.19
630.35	2127.84
630.54	2234.33
630.73	2211.81
630.92	2201.57
631.11	2133.98
631.30	2285.53
631.49	2213.85
631.68	2162.66
631.87	2306.01
632.06	2037.73
632.25	2418.65
632.44	2166.75
632.63	2269.15
632.82	2291.68
633.01	2230.24
633.20	2367.45
633.39	2236.38
633.58	2164.70
633.77	2263.01
633.96	2269.15
634.15	2379.74
634.34	2340.83
634.53	2191.33
634.72	2215.90
634.91	2133.98
635.10	2263.01
635.29	2316.25
635.48	2277.34
635.67	2228.19
635.86	2047.97
636.05	2365.40
636.24	2246.62
636.43	2236.38
636.62	2220.00
636.81	1951.71
637.00	2244.57
637.19	2215.90
637.38	2230.24
637.57	2183.13
637.76	2287.58
637.95	2367.45
638.14	2289.63
638.33	2267.10
638.52	2326.49
638.71	2179.04
638.89	2185.18
639.08	2531.29
639.27	2439.13
639.46	2420.70
639.65	2906.07
639.84	2875.35
640.03	3088.34
640.22	2957.27
640.41	2928.60
640.60	2494.43
640.79	2512.86
640.98	2475.99
641.17	2486.23
641.36	2445.27
641.55	2461.66
641.74	2211.81
641.92	2191.33
642.11	2154.46
642.30	2314.20
642.49	2150.37
642.68	2138.08
642.87	2277.34
643.06	2250.72
643.25	2162.66
643.44	2138.08
643.63	2156.51
643.82	2287.58
644.00	2138.08
644.19	2113.50
644.38	2105.31
644.57	2267.10
644.76	2281.44
644.95	2240.48
645.14	2285.53
645.33	2142.18
645.52	2209.76
645.71	2068.45
645.89	2125.79
646.08	2176.99
646.27	2166.75
646.46	2332.64
646.65	2105.31
646.84	2217.95
647.03	2123.74
647.22	2346.97
647.40	2215.90
647.59	2289.63
647.78	2043.87
647.97	2097.12
648.16	2076.64
648.35	2291.68
648.54	2334.68
648.73	2160.61
648.91	2283.49
649.10	2211.81
649.29	2113.50
649.48	2230.24
649.67	2351.07
649.86	2334.68
650.05	2279.39
650.23	2490.33
650.42	2267.10
650.61	2506.71
650.80	2389.98
650.99	2478.04
651.18	2383.84
651.36	2355.16
651.55	2226.14
651.74	2297.82
651.93	2222.05
652.12	2258.91
652.31	2217.95
652.49	2236.38
652.68	2248.67
652.87	2400.22
653.06	2297.82
653.25	2387.93
653.44	2217.95
653.62	2406.36
653.81	2174.94
654.00	2285.53
654.19	2289.63
654.38	2475.99
654.56	2244.57
654.75	2136.03
654.94	2285.53
655.13	2232.29
655.32	2207.71
655.51	2220.00
655.69	2117.60
655.88	2299.87
656.07	2072.54
656.26	2230.24
656.45	2080.74
656.63	2240.48
656.82	2254.81
657.01	2320.35
657.20	2097.12
657.38	2344.92
657.57	2101.22
657.76	2076.64
657.95	2269.15
658.14	2148.32
658.32	2166.75
658.51	2080.74
658.70	2185.18
658.89	2232.29
659.08	2215.90
659.26	2404.32
659.45	2242.53
659.64	2289.63
659.83	2162.66
660.01	2574.30
660.20	2201.57
660.39	2373.60
660.58	2097.12
660.76	2316.25
660.95	2123.74
661.14	2205.66
661.33	2109.41
661.51	2113.50
661.70	2170.85
661.89	2328.54
662.08	2318.30
662.26	2119.65
662.45	2072.54
662.64	2338.78
662.83	2228.19
663.01	2027.49
663.20	2158.56
663.39	2342.88
663.58	2142.18
663.76	2234.33
663.95	2265.05
664.14	2107.36
664.32	2140.13
664.51	2086.88
664.70	2029.54
664.89	2260.96
665.07	2076.64
665.26	2176.99
665.45	2093.02
665.64	2295.77
665.82	2166.75
666.01	2346.97
666.20	2113.50
666.38	2299.87
666.57	2389.98
666.76	3289.04
666.95	7939.97
667.13	15988.49
667.32	21626.55
667.51	25306.75
667.69	27432.54
667.88	25263.74
668.07	17798.90
668.25	14280.49
668.44	11814.73
668.63	9875.31
668.81	8974.20
669.00	7937.93
669.19	7004.05
669.38	6172.58
669.56	5250.99
669.75	4409.28
669.94	3747.78
670.12	3053.52
670.31	2797.53
670.50	2572.25
670.68	2480.09
670.87	2453.47
671.06	2336.73
671.24	2357.21
671.43	2430.94
671.62	2359.26
671.80	2228.19
671.99	2389.98
672.18	2293.72
672.36	2291.68
672.55	2330.59
672.74	2146.27
672.92	2240.48
673.11	2277.34
673.29	2068.45
673.48	2346.97
673.67	2142.18
673.85	2322.40
674.04	2160.61
674.23	2168.80
674.41	2396.12
674.60	2154.46
674.79	2047.97
674.97	2070.50
675.16	2283.49
675.34	2314.20
675.53	2213.85
675.72	2236.38
675.90	2353.12
676.09	2172.89
676.28	2187.23
676.46	2072.54
676.65	2273.25
676.83	2146.27
677.02	2140.13
677.21	2150.37
677.39	2246.62
677.58	2183.13
677.77	2172.89
677.95	2185.18
678.14	2136.03
678.32	2129.89
678.51	2176.99
678.70	2375.64
678.88	2176.99
679.07	2209.76
679.25	2220.00
679.44	2226.14
679.63	2103.26
679.81	2217.95
680.00	2400.22
680.18	2265.05
680.37	2346.97
680.55	2215.90
680.74	2170.85
680.93	1966.05
681.11	2207.71
681.30	2248.67
681.48	2121.70
681.67	2176.99
681.85	2291.68
682.04	2146.27
682.23	2211.81
682.41	2187.23
682.60	2185.18
682.78	2287.58
682.97	2127.84
683.15	2213.85
683.34	2205.66
683.53	2394.08
683.71	2045.92
683.90	2322.40
684.08	2336.73
684.27	2156.51
684.45	2207.71
684.64	2349.02
684.82	2222.05
685.01	2201.57
685.19	2195.42
685.38	2312.16
685.57	2242.53
685.75	2138.08
685.94	2125.79
686.12	2158.56
686.31	2162.66
686.49	2330.59
686.68	2043.87
686.86	2232.29
687.05	2125.79
687.23	2269.15
687.42	2129.89
687.60	2064.35
687.79	2271.20
687.97	2312.16
688.16	2314.20
688.34	2342.88
688.53	2041.82
688.71	2230.24
688.90	2316.25
689.08	2185.18
689.27	2076.64
689.45	2252.77
689.64	2256.86
689.82	2195.42
690.01	2256.86
690.19	2256.86
690.38	2191.33
690.56	2297.82
690.75	2078.69
690.93	2215.90
691.12	2168.80
691.30	2238.43
691.49	2129.89
691.67	2179.04
691.86	2375.64
692.04	2119.65
692.23	2136.03
692.41	2301.92
692.60	2519.00
692.78	2428.89
692.97	2211.81
693.15	2332.64
693.34	2404.32
693.52	2355.16
693.71	2170.85
693.89	2160.61
694.08	2056.16
694.26	2293.72
694.44	2306.01
694.63	2275.29
694.81	2133.98
695.00	2123.74
695.18	2250.72
695.37	2467.80
695.55	2174.94
695.74	2213.85
695.92	2195.42
696.10	2349.02
696.29	2068.45
696.47	2111.46
696.66	2076.64
696.84	2107.36
697.03	2250.72
697.21	2439.13
697.40	3172.30
697.58	2367.45
697.76	2029.54
697.95	2179.04
698.13	2127.84
698.32	2150.37
698.50	2215.90
698.68	2238.43
698.87	2250.72
699.05	2308.06
699.24	2179.04
699.42	2170.85
699.61	2267.10
699.79	2244.57
699.97	2265.05
700.16	2041.82
700.34	2086.88
700.53	2256.86
700.71	2291.68
700.89	2260.96
701.08	2183.13
701.26	2187.23
701.45	2752.47
701.63	2146.27
701.81	2162.66
702.00	2207.71
702.18	2248.67
702.37	2254.81
702.55	2408.41
702.73	2418.65
702.92	2293.72
703.10	2541.53
703.28	2469.85
703.47	2281.44
703.65	2416.60
703.84	2473.95
704.02	2277.34
704.20	2408.41
704.39	2222.05
704.57	2222.05
704.75	2385.88
704.94	2260.96
705.12	2291.68
705.30	2465.75
705.49	4399.04
705.67	10714.97
705.86	19775.19
706.04	23885.46
706.22	27328.10
706.41	28859.98
706.59	24274.57
706.77	17497.84
706.96	14423.84
707.14	12564.29
707.32	10878.81
707.51	9506.67
707.69	8210.31
707.87	6401.95
708.06	5199.79
708.24	4075.46
708.42	3440.59
708.61	2975.70
708.79	2387.93
708.97	2408.41
709.16	2363.36
709.34	2279.39
709.52	2287.58
709.71	2189.28
709.89	2324.44
710.07	2158.56
710.26	2101.22
710.44	2172.89
710.62	2326.49
710.80	2156.51
710.99	2228.19
711.17	2238.43
711.35	2160.61
711.54	2154.46
711.72	2287.58
711.90	2211.81
712.09	2236.38
712.27	2144.22
712.45	2310.11
712.63	2166.75
712.82	2236.38
713.00	2228.19
713.18	2277.34
713.37	2293.72
713.55	2203.61
713.73	2203.61
713.91	2269.15
714.10	2222.05
714.28	2179.04
714.46	2199.52
714.65	2193.37
714.83	2285.53
715.01	2244.57
715.19	2215.90
715.38	2088.93
715.56	2215.90
715.74	2138.08
715.92	2191.33
716.11	2295.77
716.29	2072.54
716.47	2103.26
716.65	2230.24
716.84	2062.30
717.02	2289.63
717.20	2035.68
717.38	2127.84
717.57	2176.99
717.75	2232.29
717.93	2193.37
718.11	2252.77
718.30	2052.06
718.48	2168.80
718.66	2320.35
718.84	2324.44
719.03	2160.61
719.21	2097.12
719.39	2363.36
719.57	2256.86
719.75	2258.91
719.94	2097.12
720.12	2207.71
720.30	2160.61
720.48	2314.20
720.67	2189.28
720.85	2095.07
721.03	2160.61
721.21	2105.31
721.39	2267.10
721.58	2306.01
721.76	2236.38
721.94	2220.00
722.12	2181.09
722.30	2373.60
722.49	2121.70
722.67	2252.77
722.85	2244.57
723.03	2093.02
723.21	2160.61
723.40	2248.67
723.58	2273.25
723.76	2316.25
723.94	2375.64
724.12	2303.96
724.30	2459.61
724.49	2334.68
724.67	2174.94
724.85	2367.45
725.03	2111.46
725.21	2379.74
725.40	2289.63
725.58	2140.13
725.76	2320.35
725.94	2179.04
726.12	2070.50
726.30	2211.81
726.49	2191.33
726.67	2154.46
726.85	2293.72
727.03	2496.47
727.21	3678.15
727.39	5367.73
727.57	6471.58
727.76	7073.68
727.94	7458.70
728.12	7131.03
728.30	5748.65
728.48	4945.84
728.66	4437.95
728.84	4038.59
729.03	3399.63
729.21	3155.92
729.39	2768.85
729.57	2482.14
729.75	2342.88
729.93	2375.64
730.11	2203.61
730.30	2121.70
730.48	2129.89
730.66	2365.40
730.84	2314.20
731.02	2240.48
731.20	2117.60
731.38	2187.23
731.56	2097.12
731.74	2129.89
731.93	2211.81
732.11	2215.90
732.29	2189.28
732.47	2310.11
732.65	2248.67
732.83	2332.64
733.01	2201.57
733.19	2183.13
733.37	2248.67
733.56	2226.14
733.74	2150.37
733.92	2293.72
734.10	2158.56
734.28	2246.62
734.46	2076.64
734.64	2199.52
734.82	2205.66
735.00	2176.99
735.18	2133.98
735.36	2197.47
735.54	2230.24
735.73	2195.42
735.91	2236.38
736.09	2215.90
736.27	2162.66
736.45	2228.19
736.63	2056.16
736.81	2160.61
736.99	2281.44
737.17	2334.68
737.35	2105.31
737.53	2193.37
737.71	2187.23
737.89	2293.72
738.07	2127.84
738.25	2160.61
738.43	2123.74
738.61	2109.41
738.80	2133.98
738.98	2086.88
739.16	2168.80
739.34	2103.26
739.52	2318.30
739.70	2168.80
739.88	2267.10
740.06	2244.57
740.24	2019.30
740.42	2228.19
740.60	2015.20
740.78	2154.46
740.96	2045.92
741.14	2136.03
741.32	2213.85
741.50	1994.72
741.68	2379.74
741.86	2293.72
742.04	1978.34
742.22	2154.46
742.40	2164.70
742.58	2260.96
742.76	2127.84
742.94	2244.57
743.12	2019.30
743.30	2244.57
743.48	2232.29
743.66	2097.12
743.84	2258.91
744.02	2217.95
744.20	2121.70
744.38	2138.08
744.56	2156.51
744.74	2394.08
744.92	2244.57
745.10	2324.44
745.28	2211.81
745.46	2379.74
745.64	2209.76
745.82	2332.64
746.00	2211.81
746.18	2217.95
746.36	2109.41
746.54	2140.13
746.72	2174.94
746.90	2093.02
747.08	2283.49
747.26	2232.29
747.44	2330.59
747.62	2244.57
747.80	2162.66
747.98	2328.54
748.15	2217.95
748.33	2357.21
748.51	2154.46
748.69	2279.39
748.87	2211.81
749.05	2160.61
749.23	2265.05
749.41	2195.42
749.59	2154.46
749.77	2359.26
749.95	2105.31
750.13	2150.37
750.31	2230.24
750.49	2213.85
750.67	2273.25
750.85	2334.68
751.03	2211.81
751.20	2453.47
751.38	2265.05
751.56	2129.89
751.74	2215.90
751.92	2197.47
752.10	2045.92
752.28	2344.92
752.46	2105.31
752.64	2160.61
752.82	2209.76
753.00	2205.66
753.18	2244.57
753.35	2131.94
753.53	2189.28
753.71	2224.09
753.89	2269.15
754.07	2199.52
754.25	2310.11
754.43	2240.48
754.61	2043.87
754.79	2322.40
754.97	2162.66
755.14	2324.44
755.32	2072.54
755.50	2170.85
755.68	2265.05
755.86	2037.73
756.04	2158.56
756.22	2043.87
756.40	2320.35
756.57	2387.93
756.75	2187.23
756.93	2265.05
757.11	2281.44
757.29	2129.89
757.47	2107.36
757.65	2093.02
757.82	1972.19
758.00	2138.08
758.18	2113.50
758.36	2150.37
758.54	2316.25
758.72	1996.77
758.90	2287.58
759.07	2277.34
759.25	2105.31
759.43	2224.09
759.61	2052.06
759.79	2992.08
759.97	2322.40
760.15	2199.52
760.32	2160.61
760.50	2222.05
760.68	2318.30
760.86	2047.97
761.04	2287.58
761.22	2283.49
761.39	2195.42
761.57	2195.42
761.75	2105.31
761.93	2234.33
762.11	2107.36
762.28	2164.70
762.46	2166.75
762.64	2170.85
762.82	2045.92
763.00	2133.98
763.18	2256.86
763.35	2166.75
763.53	2252.77
763.71	2168.80
763.89	2154.46
764.07	2232.29
764.24	2236.38
764.42	2271.20
764.60	2101.22
764.78	2211.81
764.96	2256.86
765.13	2236.38
765.31	2209.76
765.49	2267.10
765.67	2072.54
765.84	2095.07
766.02	2125.79
766.20	1945.57
766.38	2187.23
766.56	2242.53
766.73	2250.72
766.91	2084.83
767.09	2183.13
767.27	2179.04
767.44	2129.89
767.62	2297.82
767.80	2269.15
767.98	2107.36
768.15	2224.09
768.33	2211.81
768.51	2256.86
768.69	2260.96
768.87	2289.63
769.04	2154.46
769.22	2420.70
769.40	2277.34
769.58	2410.46
769.75	2195.42
769.93	2291.68
770.11	2174.94
770.28	2133.98
770.46	2236.38
770.64	2271.20
770.82	2095.07
770.99	2150.37
771.17	2285.53
771.35	2101.22
771.53	2076.64
771.70	2160.61
771.88	2295.77
772.06	2195.42
772.23	2146.27
772.41	2213.85
772.59	2203.61
772.77	2131.94
772.94	2228.19
773.12	2236.38
773.30	2166.75
773.47	2252.77
773.65	2111.46
773.83	2293.72
774.01	2113.50
774.18	2017.25
774.36	2199.52
774.54	2111.46
774.71	2234.33
774.89	2093.02
775.07	2078.69
775.24	2101.22
775.42	2150.37
775.60	2396.12
775.78	2148.32
775.95	2131.94
776.13	2011.11
776.31	1986.53
776.48	2131.94
776.66	2322.40
776.84	2183.13
777.01	2176.99
777.19	2076.64
777.37	2168.80
777.54	2252.77
777.72	2367.45
777.90	2250.72
778.07	2084.83
778.25	2502.62
778.43	2201.57
778.60	2166.75
778.78	2244.57
778.96	2234.33
779.13	2072.54
779.31	2260.96
779.49	2160.61
779.66	2244.57
779.84	2168.80
780.01	2158.56
780.19	2119.65
780.37	2379.74
780.54	2236.38
780.72	2084.83
780.90	2113.50
781.07	2162.66
781.25	2099.17
781.43	2260.96
781.60	2154.46
781.78	2303.96
781.95	2310.11
782.13	2056.16
782.31	2220.00
782.48	2011.11
782.66	2220.00
782.83	2293.72
783.01	2254.81
783.19	2269.15
783.36	2174.94
783.54	2129.89
783.72	2179.04
783.89	2152.42
784.07	2242.53
784.24	2136.03
784.42	2410.46
784.60	2123.74
784.77	2179.04
784.95	2007.01
785.12	2117.60
785.30	2263.01
785.47	2072.54
785.65	2047.97
785.83	2123.74
786.00	2121.70
786.18	2215.90
786.35	2023.39
786.53	2086.88
786.71	2285.53
786.88	2265.05
787.06	2191.33
787.23	2265.05
787.41	2101.22
787.58	2260.96
787.76	2162.66
787.94	2222.05
788.11	2195.42
788.29	2105.31
788.46	2115.55
788.64	2131.94
788.81	2209.76
788.99	2144.22
789.16	2101.22
789.34	2197.47
789.52	2105.31
789.69	2291.68
789.87	2009.06
790.04	2209.76
790.22	2144.22
790.39	2369.50
790.57	2117.60
790.74	2086.88
790.92	2267.10
791.09	2105.31
791.27	2131.94
791.44	2246.62
791.62	2240.48
791.79	2281.44
791.97	2226.14
792.15	2457.56
792.32	2195.42
792.50	2201.57
792.67	2314.20
792.85	2375.64
793.02	2193.37
793.20	2136.03
793.37	2072.54
793.55	2191.33
793.72	2062.30
793.90	2240.48
794.07	2072.54
794.25	2144.22
794.42	2148.32
794.60	2080.74
794.77	2244.57
794.95	2269.15
795.12	2258.91
795.30	2168.80
795.47	1996.77
795.65	2400.22
795.82	2162.66
796.00	2090.98
796.17	2172.89
796.34	2133.98
796.52	2146.27
796.69	2260.96
796.87	2179.04
797.04	2228.19
797.22	2244.57
797.39	2297.82
797.57	2260.96
797.74	2170.85
797.92	2283.49
798.09	2105.31
798.27	2326.49
798.44	2185.18
798.62	2064.35
798.79	2195.42
798.96	2168.80
799.14	2205.66
799.31	2412.51
799.49	2133.98
799.66	2189.28
799.84	2176.99
800.01	2062.30
800.19	2187.23
800.36	1996.77
800.53	2187.23
800.71	2187.23
800.88	2273.25
801.06	2174.94
801.23	2095.07
801.41	2158.56
801.58	2185.18
801.75	2103.26
801.93	2222.05
802.10	2277.34
802.28	2189.28
802.45	2133.98
802.63	2203.61
802.80	2250.72
802.97	2119.65
803.15	2181.09
803.32	2090.98
803.50	2220.00
803.67	2103.26
803.84	2070.50
804.02	2125.79
804.19	2156.51
804.37	1955.81
804.54	2037.73
804.71	2170.85
804.89	2224.09
805.06	2123.74
805.24	2136.03
805.41	2084.83
805.58	2072.54
805.76	2379.74
805.93	2228.19
806.10	2308.06
806.28	2197.47
806.45	2195.42
806.63	2248.67
806.80	2224.09
806.97	2207.71
807.15	2201.57
807.32	2234.33
807.49	2220.00
807.67	2080.74
807.84	2230.24
808.01	2023.39
808.19	2285.53
808.36	2402.27
808.54	2148.32
808.71	2099.17
808.88	2179.04
809.06	2328.54
809.23	2310.11
809.40	2088.93
809.58	2283.49
809.75	2183.13
809.92	2109.41
810.10	2375.64
810.27	2113.50
810.44	2217.95
810.62	2179.04
810.79	2185.18
810.96	2056.16
811.14	2136.03
811.31	2265.05
811.48	2244.57
811.66	2183.13
811.83	2316.25
812.00	2226.14
812.18	2220.00
812.35	2443.23
812.52	2150.37
812.69	2189.28
812.87	2150.37
813.04	2103.26
813.21	2199.52
813.39	2152.42
813.56	2078.69
813.73	2252.77
813.91	2166.75
814.08	2203.61
814.25	2174.94
814.42	2039.78
814.60	2136.03
814.77	2230.24
814.94	2113.50
815.12	2250.72
815.29	2320.35
815.46	2144.22
815.63	2197.47
815.81	2125.79
815.98	2115.55
816.15	2201.57
816.33	2148.32
816.50	2164.70
816.67	2107.36
816.84	2160.61
817.02	2121.70
817.19	2199.52
817.36	2222.05
817.53	2291.68
817.71	2136.03
817.88	2260.96
818.05	2179.04
818.22	2181.09
818.40	2346.97
818.57	2133.98
818.74	2209.76
818.91	2205.66
819.09	2275.29
819.26	2273.25
819.43	2101.22
819.60	2156.51
819.78	2250.72
819.95	2310.11
820.12	2109.41
820.29	2306.01
820.47	2250.72
820.64	2125.79
820.81	2086.88
820.98	2140.13
821.15	2111.46
821.33	2203.61
821.50	2037.73
821.67	2174.94
821.84	2152.42
822.02	2281.44
822.19	2248.67
822.36	2142.18
822.53	2209.76
822.70	2074.59
822.88	2197.47
823.05	2322.40
823.22	2146.27
823.39	2203.61
823.56	2203.61
823.74	2418.65
823.91	2054.11
824.08	2078.69
824.25	2052.06
824.42	2414.56
824.60	2021.35
824.77	2170.85
824.94	2191.33
825.11	2224.09
825.28	2068.45
825.45	2242.53
825.63	2140.13
825.80	2088.93
825.97	2226.14
826.14	2148.32
826.31	2093.02
826.48	2215.90
826.66	2150.37
826.83	2215.90
827.00	2111.46
827.17	2113.50
827.34	2133.98
827.51	2129.89
827.69	2213.85
827.86	2004.96
828.03	2250.72
828.20	2197.47
828.37	2162.66
828.54	2189.28
828.71	2064.35
828.89	2326.49
829.06	2252.77
829.23	2355.16
829.40	2062.30
829.57	2183.13
829.74	2217.95
829.91	2101.22
830.09	2080.74
830.26	2220.00
830.43	2310.11
830.60	2215.90
830.77	2176.99
830.94	2287.58
831.11	2179.04
831.28	2226.14
831.46	2240.48
831.63	2115.55
831.80	2250.72
831.97	2080.74
832.14	2074.59
832.31	2197.47
832.48	2183.13
832.65	2312.16
832.82	2222.05
832.99	2273.25
833.17	2129.89
833.34	2336.73
833.51	2308.06
833.68	2090.98
833.85	2228.19
834.02	2097.12
834.19	2131.94
834.36	2109.41
834.53	2146.27
834.70	2213.85
834.87	2310.11
835.04	2166.75
835.22	2054.11
835.39	2246.62
835.56	2105.31
835.73	2150.37
835.90	2357.21
836.07	2047.97
836.24	2238.43
836.41	2088.93
836.58	2074.59
836.75	2338.78
836.92	2179.04
837.09	2162.66
837.26	2306.01
837.43	2209.76
837.60	2242.53
837.77	2047.97
837.94	2226.14
838.12	2359.26
838.29	2080.74
838.46	2019.30
838.63	2111.46
838.80	2387.93
838.97	2193.37
839.14	2293.72
839.31	2197.47
839.48	2250.72
839.65	2166.75
839.82	2220.00
839.99	2187.23
840.16	2248.67
840.33	2111.46
840.50	2185.18
840.67	2070.50
840.84	2023.39
841.01	2154.46
841.18	2121.70
841.35	2195.42
841.52	2273.25
841.69	2383.84
841.86	2189.28
842.03	2129.89
842.20	2326.49
842.37	2156.51
842.54	2119.65
842.71	2197.47
842.88	2117.60
843.05	2142.18
843.22	2207.71
843.39	2203.61
843.56	2228.19
843.73	2121.70
843.90	2211.81
844.07	2215.90
844.24	2236.38
844.41	2203.61
844.58	2269.15
844.75	2146.27
844.92	2164.70
845.09	2258.91
845.26	2111.46
845.43	2244.57
845.60	2123.74
845.77	2271.20
845.94	2205.66
846.10	2287.58
846.27	2099.17
846.44	1988.58
846.61	1986.53
846.78	2248.67
846.95	2265.05
847.12	2070.50
847.29	2144.22
847.46	2117.60
847.63	2220.00
847.80	2088.93
847.97	2158.56
848.14	2418.65
848.31	2195.42
848.48	2097.12
848.65	2189.28
848.82	2117.60
848.98	2408.41
849.15	2136.03
849.32	2293.72
849.49	2211.81
849.66	2129.89
849.83	2217.95
850.00	2070.50
850.17	2191.33
850.34	2199.52
850.51	2093.02
850.68	2119.65
850.85	2355.16
851.01	2211.81
851.18	2203.61
851.35	2129.89
851.52	2250.72
851.69	2322.40
851.86	2105.31
852.03	2045.92
852.20	2265.05
852.37	2138.08
852.53	2021.35
852.70	2099.17
852.87	2197.47
853.04	2230.24
853.21	2121.70
853.38	2215.90
853.55	2281.44
853.72	2346.97
853.89	2056.16
854.05	2076.64
854.22	2197.47
854.39	2170.85
854.56	2160.61
854.73	2238.43
854.90	2121.70
855.07	2179.04
855.23	2121.70
855.40	2136.03
855.57	2193.37
855.74	2021.35
855.91	2320.35
856.08	2013.15
856.25	2090.98
856.41	2109.41
856.58	2080.74
856.75	2158.56
856.92	2162.66
857.09	2232.29
857.26	2070.50
857.42	2142.18
857.59	2213.85
857.76	2156.51
857.93	2256.86
858.10	2170.85
858.27	2088.93
858.43	2160.61
858.60	2146.27
858.77	1978.34
858.94	2111.46
859.11	2224.09
859.27	2156.51
859.44	2103.26
859.61	2379.74
859.78	2224.09
859.95	2074.59
860.12	2181.09
860.28	2291.68
860.45	2234.33
860.62	2027.49
860.79	2224.09
860.95	2174.94
861.12	2146.27
861.29	2033.63
861.46	2150.37
861.63	2140.13
861.79	2181.09
861.96	2039.78
862.13	2140.13
862.30	2314.20
862.47	2115.55
862.63	2103.26
862.80	2242.53
862.97	2258.91
863.14	2088.93
863.30	2162.66
863.47	2037.73
863.64	2336.73
863.81	2215.90
863.97	2127.84
864.14	2162.66
864.31	2127.84
864.48	2152.42
864.65	2113.50
864.81	2273.25
864.98	2283.49
865.15	2226.14
865.32	2217.95
865.48	2228.19
865.65	2342.88
865.82	2095.07
865.98	2209.76
866.15	2179.04
866.32	2215.90
866.49	2113.50
866.65	2220.00
866.82	2060.26
866.99	2279.39
867.16	2162.66
867.32	2109.41
867.49	2113.50
867.66	2199.52
867.83	2148.32
867.99	2056.16
868.16	2125.79
868.33	2125.79
868.49	2172.89
868.66	2119.65
868.83	2174.94
868.99	2236.38
869.16	2183.13
869.33	2242.53
869.50	2283.49
869.66	2203.61
869.83	2090.98
870.00	2086.88
870.16	2217.95
870.33	2199.52
870.50	2228.19
870.66	2138.08
870.83	2269.15
871.00	2187.23
871.17	2281.44
871.33	2119.65
871.50	2127.84
871.67	2142.18
871.83	2072.54
872.00	2240.48
872.17	2121.70
872.33	2310.11
872.50	2326.49
872.67	2160.61
872.83	2138.08
873.00	2250.72
873.17	2213.85
873.33	2236.38
873.50	2205.66
873.67	2193.37
873.83	2127.84
874.00	2174.94
874.16	2217.95
874.33	2258.91
874.50	2127.84
874.66	2217.95
874.83	2179.04
875.00	2353.12
875.16	2207.71
875.33	2263.01
875.50	1982.43
875.66	2179.04
875.83	2215.90
875.99	2242.53
876.16	2156.51
876.33	2117.60
876.49	2211.81
876.66	2306.01
876.83	2176.99
876.99	2050.02
877.16	2226.14
877.32	2107.36
877.49	2105.31
877.66	2217.95
877.82	2293.72
877.99	2195.42
878.15	2326.49
878.32	2248.67
878.49	2250.72
878.65	2201.57
878.82	2260.96
878.98	2160.61
879.15	2273.25
879.32	2297.82
879.48	2197.47
879.65	2226.14
879.81	2174.94
879.98	2156.51
880.15	2203.61
880.31	2279.39
880.48	2224.09
880.64	2240.48
880.81	2154.46
880.97	2353.12
881.14	2281.44
881.31	2045.92
881.47	2271.20
881.64	2084.83
881.80	2056.16
881.97	2168.80
882.13	2121.70
882.30	2072.54
882.47	2133.98
882.63	2127.84
882.80	2095.07
882.96	2170.85
883.13	2310.11
883.29	2197.47
883.46	2090.98
883.62	2402.27
883.79	2129.89
883.95	2191.33
884.12	2119.65
884.29	2306.01
884.45	2258.91
884.62	2281.44
884.78	2101.22
884.95	2260.96
885.11	2140.13
885.28	2195.42
885.44	2195.42
885.61	2336.73
885.77	2209.76
885.94	2166.75
886.10	2105.31
886.27	2138.08
886.43	2369.50
886.60	2301.92
886.76	2158.56
886.93	2095.07
887.09	2226.14
887.26	2039.78
887.42	2176.99
887.59	2367.45
887.75	2441.18
887.92	2220.00
888.08	2213.85
888.25	2340.83
888.41	2271.20
888.58	2176.99
888.74	2084.83
888.91	2082.78
>>>>>End Processed Spectral Data<<<<<
