SpectraSuite Data File
++++++++++++++++++++++++++++++++++++
Date: Thu May 05 12:35:49 CEST 2016
User: root
Dark Spectrum Present: No
Reference Spectrum Present: No
Number of Sampled Component Spectra: 1
Spectrometers: USB4C02835
Integration Time (usec): 100000 (USB4C02835)
Spectra Averaged: 1 (USB4C02835)
Boxcar Smoothing: 0 (USB4C02835)
Correct for Electrical Dark: No (USB4C02835)
Strobe/Lamp Enabled: No (USB4C02835)
Correct for Detector Non-linearity: No (USB4C02835)
Correct for Stray Light: No (USB4C02835)
Number of Pixels in Processed Spectrum: 3648
>>>>>Begin Processed Spectral Data<<<<<
177.47	1726.44
177.69	1726.44
177.91	1726.44
178.13	1773.54
178.36	1755.11
178.58	2125.79
178.80	2211.81
179.02	2045.92
179.24	2076.64
179.46	2146.27
179.68	2207.71
179.90	2142.18
180.13	2228.19
180.35	1990.63
180.57	2123.74
180.79	2275.29
181.01	2187.23
181.23	2224.09
181.45	2273.25
181.67	2193.37
181.90	2260.96
182.12	2037.73
182.34	2000.87
182.56	2228.19
182.78	2242.53
183.00	2142.18
183.22	2158.56
183.44	2095.07
183.66	2418.65
183.89	2285.53
184.11	2082.78
184.33	2248.67
184.55	2220.00
184.77	2174.94
184.99	2146.27
185.21	2234.33
185.43	2422.75
185.65	2066.40
185.87	2156.51
186.10	2441.18
186.32	2373.60
186.54	2170.85
186.76	2158.56
186.98	2277.34
187.20	2136.03
187.42	2095.07
187.64	2170.85
187.86	2228.19
188.08	2226.14
188.30	2127.84
188.52	2131.94
188.75	2332.64
188.97	2324.44
189.19	2111.46
189.41	2103.26
189.63	2256.86
189.85	2179.04
190.07	2045.92
190.29	1974.24
190.51	2193.37
190.73	2047.97
190.95	2346.97
191.17	2168.80
191.39	2107.36
191.61	2154.46
191.84	2019.30
192.06	2117.60
192.28	2035.68
192.50	2557.91
192.72	2195.42
192.94	2105.31
193.16	2258.91
193.38	2271.20
193.60	2133.98
193.82	2138.08
194.04	2363.36
194.26	2166.75
194.48	2121.70
194.70	2144.22
194.92	2201.57
195.14	2285.53
195.36	2101.22
195.58	2156.51
195.80	2103.26
196.02	2072.54
196.24	2109.41
196.46	2207.71
196.69	2179.04
196.91	2480.09
197.13	2078.69
197.35	2107.36
197.57	2279.39
197.79	2260.96
198.01	2193.37
198.23	2154.46
198.45	2281.44
198.67	2058.21
198.89	2080.74
199.11	2193.37
199.33	2101.22
199.55	1972.19
199.77	2070.50
199.99	2176.99
200.21	2236.38
200.43	2277.34
200.65	2052.06
200.87	2029.54
201.09	2179.04
201.31	2187.23
201.53	2166.75
201.75	2195.42
201.97	2146.27
202.19	2279.39
202.41	2226.14
202.63	2267.10
202.85	2254.81
203.07	2195.42
203.29	2191.33
203.51	2123.74
203.73	2150.37
203.95	2406.36
204.17	2138.08
204.39	2138.08
204.61	2111.46
204.83	2183.13
205.05	2201.57
205.27	2232.29
205.49	2326.49
205.71	2189.28
205.93	2041.82
206.15	2095.07
206.37	2121.70
206.59	2201.57
206.81	2033.63
207.03	2056.16
207.25	2099.17
207.47	2215.90
207.69	2121.70
207.91	2308.06
208.13	2293.72
208.34	2148.32
208.56	2019.30
208.78	2138.08
209.00	2179.04
209.22	2117.60
209.44	2093.02
209.66	2064.35
209.88	2297.82
210.10	2072.54
210.32	2162.66
210.54	2234.33
210.76	2211.81
210.98	2293.72
211.20	2023.39
211.42	2138.08
211.64	2404.32
211.86	2291.68
212.08	2154.46
212.30	2144.22
212.52	2119.65
212.74	2189.28
212.96	2185.18
213.17	2131.94
213.39	2273.25
213.61	2289.63
213.83	2045.92
214.05	2109.41
214.27	2310.11
214.49	2060.26
214.71	2076.64
214.93	2222.05
215.15	2191.33
215.37	2367.45
215.59	2050.02
215.81	2185.18
216.03	2228.19
216.24	2265.05
216.46	2170.85
216.68	2236.38
216.90	2250.72
217.12	2336.73
217.34	2138.08
217.56	2166.75
217.78	2275.29
218.00	2234.33
218.22	2187.23
218.44	2187.23
218.66	2260.96
218.87	2420.70
219.09	2121.70
219.31	2158.56
219.53	2181.09
219.75	2140.13
219.97	2121.70
220.19	2158.56
220.41	2226.14
220.63	2314.20
220.85	2209.76
221.06	2076.64
221.28	2277.34
221.50	2238.43
221.72	2146.27
221.94	2047.97
222.16	2154.46
222.38	2283.49
222.60	2095.07
222.82	2150.37
223.03	2277.34
223.25	2086.88
223.47	2215.90
223.69	2301.92
223.91	2242.53
224.13	2260.96
224.35	2054.11
224.57	2236.38
224.78	2224.09
225.00	2050.02
225.22	2162.66
225.44	2099.17
225.66	2308.06
225.88	2136.03
226.10	2166.75
226.32	2222.05
226.53	2342.88
226.75	2113.50
226.97	2109.41
227.19	2168.80
227.41	2154.46
227.63	2211.81
227.85	1988.58
228.06	2217.95
228.28	2170.85
228.50	2263.01
228.72	2093.02
228.94	2105.31
229.16	2078.69
229.37	2041.82
229.59	2109.41
229.81	2310.11
230.03	2162.66
230.25	2115.55
230.47	2039.78
230.69	2039.78
230.90	2310.11
231.12	2154.46
231.34	2203.61
231.56	2211.81
231.78	2109.41
232.00	2197.47
232.21	2109.41
232.43	2101.22
232.65	1974.24
232.87	2252.77
233.09	2064.35
233.30	2082.78
233.52	2215.90
233.74	2125.79
233.96	2064.35
234.18	2228.19
234.40	2203.61
234.61	2367.45
234.83	2031.58
235.05	2017.25
235.27	2529.24
235.49	2320.35
235.70	2140.13
235.92	2230.24
236.14	2234.33
236.36	2494.43
236.58	2015.20
236.79	2207.71
237.01	2248.67
237.23	2170.85
237.45	2303.96
237.67	2072.54
237.88	2277.34
238.10	2432.99
238.32	2140.13
238.54	2213.85
238.76	2195.42
238.97	2174.94
239.19	2080.74
239.41	2197.47
239.63	2252.77
239.85	2244.57
240.06	2166.75
240.28	2045.92
240.50	2308.06
240.72	2201.57
240.93	2029.54
241.15	2263.01
241.37	2248.67
241.59	2297.82
241.81	2105.31
242.02	2101.22
242.24	2265.05
242.46	2265.05
242.68	2088.93
242.89	2113.50
243.11	2242.53
243.33	2232.29
243.55	2144.22
243.76	2183.13
243.98	2105.31
244.20	2170.85
244.42	2189.28
244.64	2103.26
244.85	2078.69
245.07	2123.74
245.29	2115.55
245.51	2174.94
245.72	2234.33
245.94	2224.09
246.16	2258.91
246.38	2242.53
246.59	2056.16
246.81	2080.74
247.03	2150.37
247.24	2027.49
247.46	2164.70
247.68	2232.29
247.90	2080.74
248.11	2109.41
248.33	2207.71
248.55	2236.38
248.77	2117.60
248.98	2158.56
249.20	2387.93
249.42	2142.18
249.64	2240.48
249.85	2105.31
250.07	2084.83
250.29	2246.62
250.50	2179.04
250.72	1988.58
250.94	2267.10
251.16	2387.93
251.37	2174.94
251.59	2146.27
251.81	2170.85
252.02	2275.29
252.24	2127.84
252.46	2193.37
252.68	2136.03
252.89	2158.56
253.11	1992.67
253.33	2258.91
253.54	2334.68
253.76	1986.53
253.98	2150.37
254.20	2105.31
254.41	2025.44
254.63	2189.28
254.85	2011.11
255.06	2213.85
255.28	2185.18
255.50	2232.29
255.71	2101.22
255.93	1982.43
256.15	2144.22
256.36	2211.81
256.58	2086.88
256.80	2140.13
257.02	2197.47
257.23	2140.13
257.45	2148.32
257.67	2236.38
257.88	2156.51
258.10	2252.77
258.32	2191.33
258.53	2195.42
258.75	2252.77
258.97	2150.37
259.18	2129.89
259.40	2105.31
259.62	2351.07
259.83	2320.35
260.05	2199.52
260.27	2576.34
260.48	2199.52
260.70	2093.02
260.92	2125.79
261.13	2187.23
261.35	2131.94
261.57	2271.20
261.78	2023.39
262.00	1984.48
262.22	2271.20
262.43	2105.31
262.65	2158.56
262.86	2205.66
263.08	2416.60
263.30	2260.96
263.51	2007.01
263.73	2097.12
263.95	2349.02
264.16	2095.07
264.38	2107.36
264.60	2144.22
264.81	2234.33
265.03	2314.20
265.25	2263.01
265.46	2230.24
265.68	2346.97
265.89	2201.57
266.11	2088.93
266.33	2129.89
266.54	2355.16
266.76	2324.44
266.98	2283.49
267.19	2234.33
267.41	2344.92
267.62	2148.32
267.84	1978.34
268.06	2228.19
268.27	2310.11
268.49	2275.29
268.70	2273.25
268.92	2146.27
269.14	2136.03
269.35	2101.22
269.57	2095.07
269.79	2285.53
270.00	2174.94
270.22	2400.22
270.43	2017.25
270.65	1953.76
270.87	2162.66
271.08	2265.05
271.30	2213.85
271.51	2172.89
271.73	2351.07
271.95	2273.25
272.16	2168.80
272.38	2160.61
272.59	2127.84
272.81	2252.77
273.02	2144.22
273.24	2097.12
273.46	2328.54
273.67	2129.89
273.89	2015.20
274.10	2109.41
274.32	2289.63
274.54	2254.81
274.75	2265.05
274.97	2228.19
275.18	2242.53
275.40	2242.53
275.61	2142.18
275.83	2154.46
276.05	2109.41
276.26	2154.46
276.48	2176.99
276.69	2189.28
276.91	2129.89
277.12	2263.01
277.34	2238.43
277.55	2279.39
277.77	2172.89
277.99	2267.10
278.20	2056.16
278.42	2078.69
278.63	2179.04
278.85	2160.61
279.06	2037.73
279.28	2238.43
279.49	2217.95
279.71	2252.77
279.93	2203.61
280.14	2232.29
280.36	2158.56
280.57	2279.39
280.79	2226.14
281.00	2086.88
281.22	2078.69
281.43	2338.78
281.65	2021.35
281.86	2078.69
282.08	2277.34
282.29	2361.31
282.51	2004.96
282.73	2070.50
282.94	2037.73
283.16	2224.09
283.37	2267.10
283.59	2248.67
283.80	2267.10
284.02	2244.57
284.23	2236.38
284.45	2168.80
284.66	2133.98
284.88	2162.66
285.09	2256.86
285.31	2215.90
285.52	2277.34
285.74	2107.36
285.95	2293.72
286.17	2176.99
286.38	2260.96
286.60	2150.37
286.81	2129.89
287.03	2154.46
287.24	2148.32
287.46	2240.48
287.67	2168.80
287.89	2301.92
288.10	2181.09
288.32	2154.46
288.53	2263.01
288.75	2222.05
288.96	2285.53
289.18	2144.22
289.39	2136.03
289.61	2181.09
289.82	2449.37
290.04	2252.77
290.25	2072.54
290.47	2242.53
290.68	2217.95
290.90	2285.53
291.11	2050.02
291.33	2244.57
291.54	2187.23
291.76	2129.89
291.97	2260.96
292.18	2224.09
292.40	2172.89
292.61	2121.70
292.83	2332.64
293.04	2230.24
293.26	2271.20
293.47	2156.51
293.69	2099.17
293.90	2158.56
294.12	2281.44
294.33	2170.85
294.55	2170.85
294.76	2256.86
294.97	2271.20
295.19	2385.88
295.40	2174.94
295.62	2232.29
295.83	2277.34
296.05	2119.65
296.26	2275.29
296.48	2072.54
296.69	2258.91
296.90	2179.04
297.12	2269.15
297.33	2285.53
297.55	2154.46
297.76	2117.60
297.98	2224.09
298.19	2197.47
298.41	2220.00
298.62	2103.26
298.83	2260.96
299.05	2234.33
299.26	2093.02
299.48	2078.69
299.69	2240.48
299.90	2187.23
300.12	2166.75
300.33	2285.53
300.55	2228.19
300.76	2220.00
300.98	2103.26
301.19	2207.71
301.40	2154.46
301.62	2113.50
301.83	2187.23
302.05	2162.66
302.26	2205.66
302.47	2205.66
302.69	2078.69
302.90	2228.19
303.12	2064.35
303.33	2203.61
303.54	2353.12
303.76	2156.51
303.97	2170.85
304.19	2351.07
304.40	2058.21
304.61	2260.96
304.83	2303.96
305.04	2316.25
305.26	2269.15
305.47	2199.52
305.68	2174.94
305.90	2078.69
306.11	2385.88
306.33	2172.89
306.54	2138.08
306.75	2127.84
306.97	2099.17
307.18	2093.02
307.39	2140.13
307.61	2281.44
307.82	2193.37
308.04	2222.05
308.25	2111.46
308.46	2238.43
308.68	2220.00
308.89	2215.90
309.10	2306.01
309.32	2213.85
309.53	2252.77
309.74	2236.38
309.96	2183.13
310.17	2279.39
310.39	2193.37
310.60	2299.87
310.81	2201.57
311.03	2082.78
311.24	2164.70
311.45	2209.76
311.67	2349.02
311.88	2191.33
312.09	2150.37
312.31	2189.28
312.52	2117.60
312.73	2179.04
312.95	2080.74
313.16	2093.02
313.37	2293.72
313.59	2254.81
313.80	2205.66
314.01	2291.68
314.23	2084.83
314.44	2127.84
314.65	2193.37
314.87	2115.55
315.08	2056.16
315.29	2097.12
315.51	2056.16
315.72	2058.21
315.93	2273.25
316.15	2275.29
316.36	2162.66
316.57	2179.04
316.79	2258.91
317.00	2148.32
317.21	2220.00
317.43	2209.76
317.64	2203.61
317.85	2183.13
318.07	2119.65
318.28	2179.04
318.49	2365.40
318.70	2492.38
318.92	2340.83
319.13	2424.80
319.34	2383.84
319.56	2217.95
319.77	2326.49
319.98	2291.68
320.20	2330.59
320.41	2310.11
320.62	2308.06
320.83	2025.44
321.05	2365.40
321.26	2179.04
321.47	2220.00
321.69	2334.68
321.90	2047.97
322.11	2158.56
322.32	2195.42
322.54	2353.12
322.75	2150.37
322.96	2412.51
323.18	2023.39
323.39	2035.68
323.60	2119.65
323.81	2236.38
324.03	2142.18
324.24	2199.52
324.45	2250.72
324.66	2195.42
324.88	2283.49
325.09	2355.16
325.30	2129.89
325.52	2236.38
325.73	2244.57
325.94	2129.89
326.15	2007.01
326.37	2107.36
326.58	2357.21
326.79	2373.60
327.00	2133.98
327.22	2129.89
327.43	2138.08
327.64	2131.94
327.85	2283.49
328.07	2193.37
328.28	2346.97
328.49	2217.95
328.70	2154.46
328.92	2236.38
329.13	2230.24
329.34	2193.37
329.55	2336.73
329.76	2256.86
329.98	2185.18
330.19	2244.57
330.40	2197.47
330.61	2228.19
330.83	2265.05
331.04	2162.66
331.25	2187.23
331.46	2133.98
331.68	2146.27
331.89	2260.96
332.10	2250.72
332.31	2043.87
332.52	2129.89
332.74	2322.40
332.95	2119.65
333.16	2158.56
333.37	2293.72
333.58	2138.08
333.80	2191.33
334.01	2088.93
334.22	2179.04
334.43	2111.46
334.64	2187.23
334.86	2082.78
335.07	2121.70
335.28	2310.11
335.49	2105.31
335.70	2265.05
335.92	2367.45
336.13	2432.99
336.34	2183.13
336.55	2248.67
336.76	2209.76
336.98	2082.78
337.19	2127.84
337.40	2240.48
337.61	2363.36
337.82	2123.74
338.04	2234.33
338.25	2039.78
338.46	2088.93
338.67	2211.81
338.88	2119.65
339.09	2068.45
339.31	2228.19
339.52	2101.22
339.73	2127.84
339.94	2203.61
340.15	2299.87
340.36	2160.61
340.58	2207.71
340.79	2101.22
341.00	2275.29
341.21	2019.30
341.42	2332.64
341.63	2191.33
341.85	2275.29
342.06	2211.81
342.27	2127.84
342.48	2168.80
342.69	2170.85
342.90	2234.33
343.12	2267.10
343.33	2201.57
343.54	2240.48
343.75	2328.54
343.96	2205.66
344.17	2168.80
344.38	2156.51
344.60	2176.99
344.81	2097.12
345.02	2107.36
345.23	2301.92
345.44	2369.50
345.65	2226.14
345.86	2217.95
346.07	2195.42
346.29	2099.17
346.50	2228.19
346.71	2213.85
346.92	2338.78
347.13	2377.69
347.34	2232.29
347.55	2144.22
347.76	2228.19
347.98	2007.01
348.19	2160.61
348.40	2310.11
348.61	2133.98
348.82	2379.74
349.03	2211.81
349.24	2097.12
349.45	2404.32
349.66	1959.91
349.88	2260.96
350.09	2101.22
350.30	2301.92
350.51	2277.34
350.72	2136.03
350.93	2191.33
351.14	2148.32
351.35	2246.62
351.56	2176.99
351.77	2195.42
351.99	2195.42
352.20	2371.55
352.41	2240.48
352.62	2062.30
352.83	2172.89
353.04	2240.48
353.25	2197.47
353.46	2232.29
353.67	2271.20
353.88	2009.06
354.09	2242.53
354.30	2133.98
354.52	2269.15
354.73	2166.75
354.94	2176.99
355.15	2150.37
355.36	2371.55
355.57	2146.27
355.78	2224.09
355.99	2144.22
356.20	2101.22
356.41	2244.57
356.62	2224.09
356.83	2109.41
357.04	2369.50
357.25	2052.06
357.46	2240.48
357.68	2023.39
357.89	2133.98
358.10	2228.19
358.31	2136.03
358.52	2166.75
358.73	2078.69
358.94	2111.46
359.15	2086.88
359.36	2269.15
359.57	2170.85
359.78	2179.04
359.99	2213.85
360.20	2176.99
360.41	2193.37
360.62	2234.33
360.83	2199.52
361.04	2150.37
361.25	2252.77
361.46	2303.96
361.67	2293.72
361.88	2285.53
362.09	2142.18
362.30	2220.00
362.51	2187.23
362.72	2220.00
362.93	2283.49
363.14	2281.44
363.35	2176.99
363.56	2205.66
363.78	2349.02
363.99	2285.53
364.20	2056.16
364.41	2199.52
364.62	2351.07
364.83	2236.38
365.04	2127.84
365.25	2136.03
365.46	2326.49
365.67	2154.46
365.88	2174.94
366.09	2138.08
366.30	2176.99
366.51	2138.08
366.72	2039.78
366.93	2183.13
367.14	2119.65
367.35	2299.87
367.56	2205.66
367.77	2326.49
367.98	2215.90
368.18	2242.53
368.39	2201.57
368.60	2070.50
368.81	2277.34
369.02	2181.09
369.23	2203.61
369.44	2082.78
369.65	2168.80
369.86	2242.53
370.07	2250.72
370.28	2127.84
370.49	2185.18
370.70	2267.10
370.91	2117.60
371.12	2047.97
371.33	2275.29
371.54	2174.94
371.75	2353.12
371.96	2000.87
372.17	2222.05
372.38	2176.99
372.59	2228.19
372.80	2113.50
373.01	2267.10
373.22	2195.42
373.43	2201.57
373.64	2064.35
373.85	2232.29
374.06	2342.88
374.26	2334.68
374.47	2228.19
374.68	2398.17
374.89	2269.15
375.10	2156.51
375.31	2301.92
375.52	2185.18
375.73	2187.23
375.94	2043.87
376.15	2275.29
376.36	2070.50
376.57	2131.94
376.78	2217.95
376.99	2166.75
377.20	2299.87
377.40	2150.37
377.61	2306.01
377.82	2013.15
378.03	2324.44
378.24	2226.14
378.45	2185.18
378.66	2240.48
378.87	2023.39
379.08	2033.63
379.29	2148.32
379.50	2346.97
379.71	2187.23
379.91	2195.42
380.12	2117.60
380.33	2195.42
380.54	2129.89
380.75	2201.57
380.96	2170.85
381.17	2242.53
381.38	2154.46
381.59	2222.05
381.80	2185.18
382.00	2418.65
382.21	2260.96
382.42	2355.16
382.63	2445.27
382.84	2285.53
383.05	2265.05
383.26	2293.72
383.47	2260.96
383.68	2185.18
383.88	2277.34
384.09	2263.01
384.30	2385.88
384.51	2215.90
384.72	2140.13
384.93	2076.64
385.14	2199.52
385.35	2244.57
385.55	2119.65
385.76	2346.97
385.97	2172.89
386.18	2084.83
386.39	2074.59
386.60	2199.52
386.81	2146.27
387.02	2107.36
387.22	2154.46
387.43	2297.82
387.64	2265.05
387.85	2418.65
388.06	2473.95
388.27	4093.89
388.48	8576.89
388.68	12412.74
388.89	14733.09
389.10	15595.28
389.31	14608.16
389.52	11247.44
389.73	9715.56
389.93	8927.10
390.14	8265.60
390.35	7409.55
390.56	6533.02
390.77	5390.25
390.98	4169.66
391.18	3340.24
391.39	2668.50
391.60	2318.30
391.81	2357.21
392.02	2240.48
392.23	2465.75
392.43	2215.90
392.64	2308.06
392.85	2203.61
393.06	2383.84
393.27	2199.52
393.47	2113.50
393.68	2201.57
393.89	2107.36
394.10	2332.64
394.31	2107.36
394.52	2103.26
394.72	2125.79
394.93	2359.26
395.14	2097.12
395.35	2254.81
395.56	2047.97
395.76	2234.33
395.97	2260.96
396.18	2373.60
396.39	2361.31
396.60	2586.58
396.80	2416.60
397.01	2342.88
397.22	2338.78
397.43	2484.19
397.64	2136.03
397.84	2246.62
398.05	2357.21
398.26	2166.75
398.47	2297.82
398.67	2260.96
398.88	2258.91
399.09	2240.48
399.30	2193.37
399.51	2269.15
399.71	2115.55
399.92	2213.85
400.13	2215.90
400.34	2138.08
400.54	2191.33
400.75	2351.07
400.96	2228.19
401.17	2277.34
401.37	2256.86
401.58	2172.89
401.79	2232.29
402.00	2314.20
402.21	2703.32
402.41	2502.62
402.62	2490.33
402.83	2566.10
403.04	2602.97
403.24	2731.99
403.45	2408.41
403.66	2490.33
403.87	2318.30
404.07	2422.75
404.28	2432.99
404.49	2519.00
404.70	2260.96
404.90	2244.57
405.11	2242.53
405.32	2277.34
405.52	2162.66
405.73	2166.75
405.94	2109.41
406.15	2234.33
406.35	2234.33
406.56	2285.53
406.77	2195.42
406.98	2256.86
407.18	2129.89
407.39	2330.59
407.60	2086.88
407.80	2271.20
408.01	2162.66
408.22	2285.53
408.43	2154.46
408.63	2248.67
408.84	2256.86
409.05	2289.63
409.25	2121.70
409.46	2113.50
409.67	2168.80
409.88	2119.65
410.08	2244.57
410.29	2146.27
410.50	2314.20
410.70	2242.53
410.91	2088.93
411.12	2224.09
411.32	2217.95
411.53	2170.85
411.74	2248.67
411.95	2318.30
412.15	2279.39
412.36	2318.30
412.57	2277.34
412.77	2308.06
412.98	2207.71
413.19	2197.47
413.39	2275.29
413.60	2226.14
413.81	2332.64
414.01	2191.33
414.22	2187.23
414.43	2238.43
414.63	2140.13
414.84	2340.83
415.05	2158.56
415.25	2136.03
415.46	2330.59
415.67	2191.33
415.87	2228.19
416.08	2168.80
416.29	2250.72
416.49	2297.82
416.70	2101.22
416.91	2222.05
417.11	2230.24
417.32	2299.87
417.53	2310.11
417.73	2211.81
417.94	2168.80
418.15	2301.92
418.35	2213.85
418.56	2138.08
418.77	2475.99
418.97	2189.28
419.18	2166.75
419.38	1949.67
419.59	2199.52
419.80	2361.31
420.00	2193.37
420.21	2283.49
420.42	2244.57
420.62	2129.89
420.83	2080.74
421.04	2168.80
421.24	2203.61
421.45	2273.25
421.65	2250.72
421.86	2129.89
422.07	2279.39
422.27	2209.76
422.48	2220.00
422.69	2070.50
422.89	2170.85
423.10	2121.70
423.30	2170.85
423.51	2203.61
423.72	2238.43
423.92	2289.63
424.13	2031.58
424.33	2148.32
424.54	2299.87
424.75	2244.57
424.95	2299.87
425.16	2215.90
425.36	2189.28
425.57	2258.91
425.78	2228.19
425.98	2256.86
426.19	2168.80
426.39	2121.70
426.60	2215.90
426.81	2316.25
427.01	2197.47
427.22	2133.98
427.42	2054.11
427.63	2138.08
427.83	2297.82
428.04	2316.25
428.25	2260.96
428.45	2318.30
428.66	2355.16
428.86	2146.27
429.07	2162.66
429.28	2156.51
429.48	2150.37
429.69	2080.74
429.89	2234.33
430.10	2080.74
430.30	2203.61
430.51	2351.07
430.71	2107.36
430.92	2154.46
431.13	2125.79
431.33	2340.83
431.54	2234.33
431.74	2377.69
431.95	2357.21
432.15	2131.94
432.36	2107.36
432.56	2242.53
432.77	2322.40
432.98	2383.84
433.18	2267.10
433.39	2158.56
433.59	2226.14
433.80	2467.80
434.00	2441.18
434.21	2115.55
434.41	2074.59
434.62	2451.42
434.82	2029.54
435.03	2189.28
435.23	2260.96
435.44	2107.36
435.64	2275.29
435.85	2244.57
436.06	2267.10
436.26	2342.88
436.47	2236.38
436.67	2105.31
436.88	2158.56
437.08	2310.11
437.29	2291.68
437.49	2275.29
437.70	2342.88
437.90	2195.42
438.11	2353.12
438.31	2203.61
438.52	2363.36
438.72	2371.55
438.93	2492.38
439.13	2340.83
439.34	2406.36
439.54	2250.72
439.75	2299.87
439.95	2351.07
440.16	2199.52
440.36	2256.86
440.57	2244.57
440.77	2138.08
440.98	2215.90
441.18	2195.42
441.39	2187.23
441.59	2121.70
441.80	2375.64
442.00	2179.04
442.21	2326.49
442.41	2101.22
442.62	2320.35
442.82	2168.80
443.02	2181.09
443.23	2222.05
443.43	2217.95
443.64	2303.96
443.84	2121.70
444.05	2299.87
444.25	2256.86
444.46	2242.53
444.66	2152.42
444.87	2355.16
445.07	2054.11
445.28	2234.33
445.48	2297.82
445.69	2267.10
445.89	2447.32
446.09	2146.27
446.30	2465.75
446.50	2824.15
446.71	4483.00
446.91	5765.03
447.12	6481.82
447.32	6649.75
447.53	6393.76
447.73	5156.79
447.93	4493.24
448.14	4177.86
448.34	4124.61
448.55	3616.71
448.75	3534.79
448.96	3375.05
449.16	3055.57
449.36	2781.14
449.57	2578.39
449.77	2332.64
449.98	2267.10
450.18	2342.88
450.39	2260.96
450.59	2215.90
450.79	2185.18
451.00	2201.57
451.20	2318.30
451.41	2211.81
451.61	2306.01
451.81	2240.48
452.02	2236.38
452.22	2174.94
452.43	2240.48
452.63	2103.26
452.84	2209.76
453.04	2244.57
453.24	2260.96
453.45	2103.26
453.65	2168.80
453.86	2211.81
454.06	2279.39
454.26	2162.66
454.47	2154.46
454.67	2252.77
454.87	2285.53
455.08	2185.18
455.28	2332.64
455.49	2228.19
455.69	2140.13
455.89	2342.88
456.10	2244.57
456.30	2232.29
456.51	2252.77
456.71	2213.85
456.91	2236.38
457.12	2146.27
457.32	2195.42
457.52	2158.56
457.73	2281.44
457.93	2277.34
458.14	2119.65
458.34	2103.26
458.54	2129.89
458.75	2148.32
458.95	2320.35
459.15	2244.57
459.36	2248.67
459.56	2258.91
459.76	2402.27
459.97	2291.68
460.17	2203.61
460.37	2385.88
460.58	2236.38
460.78	2211.81
460.99	2207.71
461.19	2232.29
461.39	2215.90
461.60	2195.42
461.80	2201.57
462.00	2101.22
462.21	2129.89
462.41	2125.79
462.61	2058.21
462.82	2082.78
463.02	2281.44
463.22	2228.19
463.43	2328.54
463.63	2156.51
463.83	2363.36
464.04	2250.72
464.24	2224.09
464.44	2080.74
464.64	2170.85
464.85	2367.45
465.05	2324.44
465.25	2224.09
465.46	2164.70
465.66	2238.43
465.86	2217.95
466.07	2252.77
466.27	2174.94
466.47	2072.54
466.68	2074.59
466.88	2310.11
467.08	2252.77
467.29	2258.91
467.49	2222.05
467.69	2236.38
467.89	2244.57
468.10	2174.94
468.30	2263.01
468.50	2320.35
468.71	2340.83
468.91	2070.50
469.11	2414.56
469.31	2166.75
469.52	2174.94
469.72	2385.88
469.92	2424.80
470.13	2281.44
470.33	2211.81
470.53	2322.40
470.73	2729.94
470.94	3125.20
471.14	3200.98
471.34	3645.38
471.54	3403.72
471.75	3162.06
471.95	2957.27
472.15	2727.89
472.36	2729.94
472.56	2633.69
472.76	2734.04
472.96	2678.74
473.17	2494.43
473.37	2408.41
473.57	2254.81
473.77	2324.44
473.98	2299.87
474.18	2150.37
474.38	2582.49
474.58	2285.53
474.79	2174.94
474.99	2209.76
475.19	2256.86
475.39	2097.12
475.60	2228.19
475.80	2240.48
476.00	2222.05
476.20	2181.09
476.41	2240.48
476.61	2207.71
476.81	2422.75
477.01	2144.22
477.21	2383.84
477.42	2252.77
477.62	2172.89
477.82	2285.53
478.02	2170.85
478.23	2217.95
478.43	2150.37
478.63	2162.66
478.83	2246.62
479.03	2133.98
479.24	2373.60
479.44	2404.32
479.64	2150.37
479.84	2045.92
480.04	2156.51
480.25	2176.99
480.45	2164.70
480.65	2191.33
480.85	2314.20
481.06	2164.70
481.26	2258.91
481.46	2260.96
481.66	2207.71
481.86	2138.08
482.06	2291.68
482.27	2187.23
482.47	2107.36
482.67	2303.96
482.87	2162.66
483.07	2289.63
483.28	2136.03
483.48	2119.65
483.68	2215.90
483.88	2127.84
484.08	2029.54
484.29	2150.37
484.49	2220.00
484.69	2017.25
484.89	2416.60
485.09	2289.63
485.29	2344.92
485.50	2275.29
485.70	2242.53
485.90	2236.38
486.10	2185.18
486.30	2248.67
486.50	2258.91
486.71	2297.82
486.91	2260.96
487.11	2213.85
487.31	2113.50
487.51	2297.82
487.71	2160.61
487.91	2179.04
488.12	2121.70
488.32	1996.77
488.52	2084.83
488.72	2060.26
488.92	2248.67
489.12	2269.15
489.32	2387.93
489.53	2330.59
489.73	2039.78
489.93	2334.68
490.13	2138.08
490.33	2160.61
490.53	2207.71
490.73	2277.34
490.94	2111.46
491.14	2256.86
491.34	2301.92
491.54	2494.43
491.74	3227.60
491.94	3751.88
492.14	4034.50
492.34	4276.16
492.54	3784.65
492.75	3233.74
492.95	3125.20
493.15	2949.08
493.35	2871.25
493.55	2795.48
493.75	2738.13
493.95	2725.85
494.15	2539.48
494.35	2383.84
494.56	2338.78
494.76	2189.28
494.96	2256.86
495.16	2244.57
495.36	2185.18
495.56	2246.62
495.76	2211.81
495.96	2193.37
496.16	2123.74
496.36	2269.15
496.56	2220.00
496.77	2201.57
496.97	2193.37
497.17	2297.82
497.37	2035.68
497.57	2289.63
497.77	2301.92
497.97	2107.36
498.17	2183.13
498.37	2154.46
498.57	2289.63
498.77	2199.52
498.97	2297.82
499.17	2355.16
499.38	2228.19
499.58	2283.49
499.78	2328.54
499.98	2365.40
500.18	2166.75
500.38	2080.74
500.58	2363.36
500.78	2785.24
500.98	5259.18
501.18	7452.56
501.38	9187.19
501.58	10127.21
501.78	9799.53
501.98	7851.91
502.18	6567.84
502.38	5627.82
502.58	5171.12
502.78	4779.96
502.98	4599.74
503.18	4321.21
503.38	3844.04
503.59	3489.74
503.79	3284.94
503.99	2977.75
504.19	2805.72
504.39	2791.38
504.59	2865.11
504.79	2910.16
504.99	2906.07
505.19	2596.82
505.39	2486.23
505.59	2584.54
505.79	2547.67
505.99	2414.56
506.19	2340.83
506.39	2445.27
506.59	2258.91
506.79	2265.05
506.99	2346.97
507.19	2234.33
507.39	2254.81
507.59	2154.46
507.79	2164.70
507.99	2093.02
508.19	2217.95
508.39	2222.05
508.59	2203.61
508.79	2295.77
508.99	2420.70
509.19	2066.40
509.39	2291.68
509.59	2095.07
509.79	2123.74
509.99	2226.14
510.19	2363.36
510.39	2263.01
510.59	2242.53
510.79	2189.28
510.99	2142.18
511.19	2250.72
511.39	2447.32
511.59	2250.72
511.79	2342.88
511.99	2179.04
512.19	2412.51
512.38	2176.99
512.58	2172.89
512.78	2121.70
512.98	2351.07
513.18	2365.40
513.38	2095.07
513.58	2248.67
513.78	2222.05
513.98	2197.47
514.18	2195.42
514.38	2217.95
514.58	2232.29
514.78	2129.89
514.98	2121.70
515.18	2236.38
515.38	2150.37
515.58	2346.97
515.78	2142.18
515.98	2195.42
516.18	2248.67
516.38	2271.20
516.57	2136.03
516.77	2129.89
516.97	2176.99
517.17	2217.95
517.37	2041.82
517.57	2271.20
517.77	2168.80
517.97	2138.08
518.17	2254.81
518.37	2080.74
518.57	2179.04
518.77	2220.00
518.97	2256.86
519.16	2263.01
519.36	2312.16
519.56	2099.17
519.76	2193.37
519.96	2242.53
520.16	2365.40
520.36	2152.42
520.56	2297.82
520.76	2236.38
520.96	2215.90
521.16	2279.39
521.35	2334.68
521.55	2316.25
521.75	2133.98
521.95	2150.37
522.15	2148.32
522.35	2039.78
522.55	2109.41
522.75	2269.15
522.95	2228.19
523.14	2156.51
523.34	2193.37
523.54	2142.18
523.74	2258.91
523.94	2228.19
524.14	2015.20
524.34	2281.44
524.54	2312.16
524.73	2121.70
524.93	2293.72
525.13	2197.47
525.33	2103.26
525.53	2441.18
525.73	2215.90
525.93	2228.19
526.13	2117.60
526.32	2160.61
526.52	2326.49
526.72	2351.07
526.92	2113.50
527.12	2150.37
527.32	2088.93
527.52	2220.00
527.71	2211.81
527.91	2191.33
528.11	2207.71
528.31	2265.05
528.51	2119.65
528.71	2260.96
528.90	2273.25
529.10	2301.92
529.30	2334.68
529.50	2080.74
529.70	2285.53
529.90	2220.00
530.09	2242.53
530.29	2152.42
530.49	2072.54
530.69	2467.80
530.89	2220.00
531.09	2308.06
531.28	2086.88
531.48	2275.29
531.68	2187.23
531.88	2244.57
532.08	2258.91
532.28	2201.57
532.47	2310.11
532.67	2285.53
532.87	2217.95
533.07	2133.98
533.27	2277.34
533.46	2281.44
533.66	2293.72
533.86	2170.85
534.06	2289.63
534.26	2211.81
534.45	2277.34
534.65	2361.31
534.85	2291.68
535.05	2240.48
535.25	2250.72
535.44	2066.40
535.64	2359.26
535.84	2236.38
536.04	2133.98
536.24	2179.04
536.43	2095.07
536.63	2338.78
536.83	2234.33
537.03	2230.24
537.22	2086.88
537.42	2099.17
537.62	2191.33
537.82	2170.85
538.02	2316.25
538.21	2351.07
538.41	2508.76
538.61	2303.96
538.81	2195.42
539.00	2299.87
539.20	2082.78
539.40	2156.51
539.60	2183.13
539.79	2320.35
539.99	2162.66
540.19	2125.79
540.39	2201.57
540.58	2215.90
540.78	2314.20
540.98	2285.53
541.18	2295.77
541.37	2244.57
541.57	2166.75
541.77	2285.53
541.97	2215.90
542.16	2015.20
542.36	2174.94
542.56	2168.80
542.76	2373.60
542.95	2207.71
543.15	2252.77
543.35	2344.92
543.54	2160.61
543.74	2172.89
543.94	2424.80
544.14	2152.42
544.33	2285.53
544.53	2154.46
544.73	2129.89
544.93	2201.57
545.12	2220.00
545.32	2258.91
545.52	2179.04
545.71	2136.03
545.91	2203.61
546.11	2095.07
546.30	2176.99
546.50	2170.85
546.70	2269.15
546.90	2281.44
547.09	2047.97
547.29	2203.61
547.49	2283.49
547.68	2252.77
547.88	2179.04
548.08	2277.34
548.27	2691.03
548.47	2107.36
548.67	2144.22
548.87	2232.29
549.06	2060.26
549.26	2232.29
549.46	2199.52
549.65	2103.26
549.85	2240.48
550.05	2242.53
550.24	2127.84
550.44	2217.95
550.64	2281.44
550.83	2273.25
551.03	2234.33
551.23	2326.49
551.42	2326.49
551.62	2197.47
551.82	2277.34
552.01	2199.52
552.21	2281.44
552.41	2179.04
552.60	2357.21
552.80	2287.58
553.00	2195.42
553.19	2222.05
553.39	2392.03
553.59	2152.42
553.78	2240.48
553.98	2191.33
554.17	2131.94
554.37	2222.05
554.57	2258.91
554.76	2078.69
554.96	2107.36
555.16	2207.71
555.35	2250.72
555.55	2277.34
555.75	2205.66
555.94	2289.63
556.14	2037.73
556.33	2320.35
556.53	2234.33
556.73	2248.67
556.92	2185.18
557.12	2334.68
557.32	2408.41
557.51	2355.16
557.71	2273.25
557.90	2328.54
558.10	2328.54
558.30	2228.19
558.49	2240.48
558.69	2121.70
558.88	2297.82
559.08	2195.42
559.28	2156.51
559.47	2203.61
559.67	2265.05
559.86	2437.08
560.06	2174.94
560.26	2234.33
560.45	2230.24
560.65	2203.61
560.84	2357.21
561.04	2119.65
561.24	2211.81
561.43	2095.07
561.63	2387.93
561.82	2281.44
562.02	2336.73
562.22	2179.04
562.41	2150.37
562.61	2181.09
562.80	2052.06
563.00	2435.03
563.19	2273.25
563.39	2234.33
563.59	2297.82
563.78	2170.85
563.98	2066.40
564.17	2213.85
564.37	2179.04
564.56	2209.76
564.76	2113.50
564.96	2326.49
565.15	2281.44
565.35	2498.52
565.54	2199.52
565.74	2220.00
565.93	2273.25
566.13	2256.86
566.32	2248.67
566.52	2297.82
566.71	2260.96
566.91	2230.24
567.11	2232.29
567.30	2195.42
567.50	2236.38
567.69	2297.82
567.89	2273.25
568.08	2168.80
568.28	2193.37
568.47	2154.46
568.67	2224.09
568.86	2168.80
569.06	2346.97
569.25	2203.61
569.45	2154.46
569.64	2166.75
569.84	2199.52
570.04	2260.96
570.23	2136.03
570.43	2082.78
570.62	2285.53
570.82	2439.13
571.01	2158.56
571.21	2121.70
571.40	2074.59
571.60	2279.39
571.79	2250.72
571.99	2215.90
572.18	2121.70
572.38	2269.15
572.57	2150.37
572.77	2281.44
572.96	2478.04
573.16	2275.29
573.35	2170.85
573.55	2367.45
573.74	2242.53
573.94	2107.36
574.13	2244.57
574.33	2291.68
574.52	2281.44
574.71	2193.37
574.91	2269.15
575.10	2086.88
575.30	2209.76
575.49	2121.70
575.69	2095.07
575.88	2301.92
576.08	2248.67
576.27	2418.65
576.47	2277.34
576.66	2451.42
576.86	2426.84
577.05	2265.05
577.25	2379.74
577.44	2363.36
577.64	2242.53
577.83	2330.59
578.02	2258.91
578.22	2392.03
578.41	2318.30
578.61	2215.90
578.80	2111.46
579.00	2275.29
579.19	2183.13
579.39	2252.77
579.58	2281.44
579.77	2199.52
579.97	2361.31
580.16	2334.68
580.36	2258.91
580.55	2310.11
580.75	2318.30
580.94	2209.76
581.13	2441.18
581.33	2353.12
581.52	2285.53
581.72	2478.04
581.91	2400.22
582.11	2256.86
582.30	2297.82
582.49	2308.06
582.69	2342.88
582.88	2211.81
583.08	2228.19
583.27	2373.60
583.47	2322.40
583.66	2152.42
583.85	2191.33
584.05	2205.66
584.24	2381.79
584.44	2314.20
584.63	2367.45
584.82	2465.75
585.02	2385.88
585.21	2502.62
585.41	2367.45
585.60	2346.97
585.79	2531.29
585.99	2455.51
586.18	2269.15
586.37	2897.88
586.57	4605.88
586.76	13389.62
586.96	32871.95
587.15	46519.61
587.34	56048.81
587.54	61445.21
587.73	56423.59
587.93	39886.24
588.12	30039.61
588.31	24088.21
588.51	20969.15
588.70	19359.45
588.89	17708.79
589.09	15210.26
589.28	13229.88
589.47	10721.12
589.67	8662.91
589.86	6436.77
590.06	4685.75
590.25	3815.37
590.44	3180.50
590.64	2770.90
590.83	2559.96
591.02	2570.20
591.22	2394.08
591.41	2254.81
591.60	2308.06
591.80	2465.75
591.99	2185.18
592.18	2236.38
592.38	2265.05
592.57	2224.09
592.76	2297.82
592.96	2342.88
593.15	2246.62
593.34	2242.53
593.54	2287.58
593.73	2299.87
593.92	2260.96
594.12	2265.05
594.31	2392.03
594.50	2396.12
594.70	2369.50
594.89	2443.23
595.08	2105.31
595.28	2332.64
595.47	2523.10
595.66	2365.40
595.86	2146.27
596.05	2277.34
596.24	2205.66
596.43	2392.03
596.63	2385.88
596.82	2314.20
597.01	2277.34
597.21	2389.98
597.40	2250.72
597.59	2246.62
597.79	2228.19
597.98	2273.25
598.17	2275.29
598.36	2240.48
598.56	2349.02
598.75	2209.76
598.94	2240.48
599.14	2299.87
599.33	2181.09
599.52	2326.49
599.71	2234.33
599.91	2295.77
600.10	2330.59
600.29	2201.57
600.48	2236.38
600.68	2252.77
600.87	2355.16
601.06	2154.46
601.26	2254.81
601.45	2222.05
601.64	2158.56
601.83	2371.55
602.03	2195.42
602.22	2138.08
602.41	2258.91
602.60	2428.89
602.80	2267.10
602.99	2228.19
603.18	2164.70
603.37	2207.71
603.57	2301.92
603.76	2301.92
603.95	2369.50
604.14	2187.23
604.34	2156.51
604.53	2170.85
604.72	2105.31
604.91	2269.15
605.10	2273.25
605.30	2172.89
605.49	2435.03
605.68	2203.61
605.87	2299.87
606.07	2138.08
606.26	2199.52
606.45	2236.38
606.64	2269.15
606.84	2209.76
607.03	2267.10
607.22	2346.97
607.41	2205.66
607.60	2179.04
607.80	2306.01
607.99	2217.95
608.18	2215.90
608.37	2236.38
608.56	2168.80
608.76	2297.82
608.95	2441.18
609.14	2328.54
609.33	2406.36
609.52	2410.46
609.72	2342.88
609.91	2445.27
610.10	2322.40
610.29	2389.98
610.48	2289.63
610.68	2293.72
610.87	2199.52
611.06	2277.34
611.25	2174.94
611.44	2371.55
611.63	2226.14
611.83	2346.97
612.02	2162.66
612.21	2246.62
612.40	2095.07
612.59	2146.27
612.79	2117.60
612.98	2224.09
613.17	2351.07
613.36	2199.52
613.55	2412.51
613.74	2357.21
613.93	2449.37
614.13	2424.80
614.32	2531.29
614.51	2349.02
614.70	2375.64
614.89	2203.61
615.08	2334.68
615.28	2742.23
615.47	2150.37
615.66	2322.40
615.85	2295.77
616.04	2463.71
616.23	2283.49
616.42	2293.72
616.62	2326.49
616.81	2306.01
617.00	2224.09
617.19	2295.77
617.38	2168.80
617.57	2248.67
617.76	2301.92
617.95	2252.77
618.15	2228.19
618.34	2351.07
618.53	2054.11
618.72	2275.29
618.91	2275.29
619.10	2326.49
619.29	2203.61
619.48	2236.38
619.68	2107.36
619.87	2172.89
620.06	2142.18
620.25	2236.38
620.44	2193.37
620.63	2119.65
620.82	2267.10
621.01	2273.25
621.20	2220.00
621.39	2326.49
621.59	2252.77
621.78	2240.48
621.97	2207.71
622.16	2291.68
622.35	2248.67
622.54	2289.63
622.73	2265.05
622.92	1998.82
623.11	2295.77
623.30	2166.75
623.49	2265.05
623.68	2168.80
623.88	2357.21
624.07	2232.29
624.26	2119.65
624.45	2250.72
624.64	2150.37
624.83	2230.24
625.02	2220.00
625.21	2224.09
625.40	2152.42
625.59	2379.74
625.78	2181.09
625.97	2416.60
626.16	2408.41
626.35	2369.50
626.54	2297.82
626.74	2412.51
626.93	2301.92
627.12	2301.92
627.31	2367.45
627.50	2250.72
627.69	2285.53
627.88	2193.37
628.07	2115.55
628.26	2111.46
628.45	2127.84
628.64	2152.42
628.83	2314.20
629.02	2050.02
629.21	2269.15
629.40	2201.57
629.59	2187.23
629.78	2236.38
629.97	2213.85
630.16	2158.56
630.35	2195.42
630.54	2224.09
630.73	2230.24
630.92	2189.28
631.11	2095.07
631.30	2217.95
631.49	2297.82
631.68	2273.25
631.87	2252.77
632.06	2160.61
632.25	2551.77
632.44	2220.00
632.63	2312.16
632.82	2267.10
633.01	2256.86
633.20	2349.02
633.39	2299.87
633.58	2185.18
633.77	2260.96
633.96	2303.96
634.15	2265.05
634.34	2301.92
634.53	2176.99
634.72	2203.61
634.91	2113.50
635.10	2256.86
635.29	2369.50
635.48	2174.94
635.67	2105.31
635.86	2045.92
636.05	2326.49
636.24	2183.13
636.43	2185.18
636.62	2263.01
636.81	2004.96
637.00	2199.52
637.19	2275.29
637.38	2189.28
637.57	2146.27
637.76	2285.53
637.95	2375.64
638.14	2277.34
638.33	2371.55
638.52	2326.49
638.71	2265.05
638.89	2201.57
639.08	2482.14
639.27	2392.03
639.46	2502.62
639.65	2865.11
639.84	2924.50
640.03	3123.15
640.22	2873.30
640.41	2936.79
640.60	2613.21
640.79	2611.16
640.98	2396.12
641.17	2439.13
641.36	2490.33
641.55	2465.75
641.74	2158.56
641.92	2179.04
642.11	2166.75
642.30	2183.13
642.49	2228.19
642.68	2164.70
642.87	2248.67
643.06	2195.42
643.25	2086.88
643.44	2119.65
643.63	2224.09
643.82	2232.29
644.00	2066.40
644.19	2213.85
644.38	2097.12
644.57	2289.63
644.76	2263.01
644.95	2146.27
645.14	2209.76
645.33	2187.23
645.52	2244.57
645.71	2062.30
645.89	2080.74
646.08	2187.23
646.27	2226.14
646.46	2379.74
646.65	2113.50
646.84	2277.34
647.03	2119.65
647.22	2242.53
647.40	2234.33
647.59	2222.05
647.78	2045.92
647.97	2136.03
648.16	2088.93
648.35	2244.57
648.54	2363.36
648.73	2209.76
648.91	2277.34
649.10	2138.08
649.29	2195.42
649.48	2131.94
649.67	2201.57
649.86	2293.72
650.05	2279.39
650.23	2455.51
650.42	2340.83
650.61	2553.82
650.80	2428.89
650.99	2545.63
651.18	2451.42
651.36	2371.55
651.55	2310.11
651.74	2312.16
651.93	2236.38
652.12	2234.33
652.31	2156.51
652.49	2258.91
652.68	2191.33
652.87	2387.93
653.06	2256.86
653.25	2340.83
653.44	2252.77
653.62	2385.88
653.81	2256.86
654.00	2209.76
654.19	2342.88
654.38	2480.09
654.56	2306.01
654.75	2174.94
654.94	2322.40
655.13	2267.10
655.32	2152.42
655.51	2277.34
655.69	2080.74
655.88	2293.72
656.07	2086.88
656.26	2191.33
656.45	2088.93
656.63	2244.57
656.82	2213.85
657.01	2318.30
657.20	2138.08
657.38	2326.49
657.57	2154.46
657.76	2070.50
657.95	2226.14
658.14	2146.27
658.32	2168.80
658.51	2103.26
658.70	2193.37
658.89	2250.72
659.08	2263.01
659.26	2394.08
659.45	2236.38
659.64	2334.68
659.83	2232.29
660.01	2596.82
660.20	2322.40
660.39	2361.31
660.58	2111.46
660.76	2316.25
660.95	2179.04
661.14	2344.92
661.33	2107.36
661.51	2170.85
661.70	2170.85
661.89	2279.39
662.08	2176.99
662.26	2125.79
662.45	2105.31
662.64	2332.64
662.83	2248.67
663.01	2084.83
663.20	2189.28
663.39	2318.30
663.58	2170.85
663.76	2131.94
663.95	2289.63
664.14	2166.75
664.32	2090.98
664.51	2133.98
664.70	2011.11
664.89	2193.37
665.07	2068.45
665.26	2314.20
665.45	2146.27
665.64	2301.92
665.82	2195.42
666.01	2260.96
666.20	2086.88
666.38	2232.29
666.57	2326.49
666.76	3323.85
666.95	7999.37
667.13	16563.97
667.32	22226.60
667.51	25638.52
667.69	27747.93
667.88	25626.23
668.07	18308.84
668.25	14546.72
668.44	11939.66
668.63	10428.26
668.81	9052.02
669.00	7915.40
669.19	7094.16
669.38	6188.96
669.56	5238.70
669.75	4464.57
669.94	3743.69
670.12	3162.06
670.31	2797.53
670.50	2570.20
670.68	2508.76
670.87	2400.22
671.06	2217.95
671.24	2349.02
671.43	2414.56
671.62	2340.83
671.80	2246.62
671.99	2301.92
672.18	2246.62
672.36	2275.29
672.55	2289.63
672.74	2263.01
672.92	2238.43
673.11	2275.29
673.29	2144.22
673.48	2322.40
673.67	2205.66
673.85	2359.26
674.04	2119.65
674.23	2164.70
674.41	2316.25
674.60	1998.82
674.79	2064.35
674.97	2142.18
675.16	2240.48
675.34	2295.77
675.53	2170.85
675.72	2185.18
675.90	2346.97
676.09	2254.81
676.28	2236.38
676.46	2142.18
676.65	2234.33
676.83	2082.78
677.02	2215.90
677.21	2244.57
677.39	2263.01
677.58	2131.94
677.77	2220.00
677.95	2144.22
678.14	2136.03
678.32	2244.57
678.51	2144.22
678.70	2400.22
678.88	2095.07
679.07	2238.43
679.25	2220.00
679.44	2203.61
679.63	2041.82
679.81	2150.37
680.00	2232.29
680.18	2236.38
680.37	2330.59
680.55	2201.57
680.74	2029.54
680.93	2052.06
681.11	2164.70
681.30	2195.42
681.48	2271.20
681.67	2193.37
681.85	2201.57
682.04	2185.18
682.23	2234.33
682.41	2189.28
682.60	2150.37
682.78	2189.28
682.97	2146.27
683.15	2250.72
683.34	2234.33
683.53	2359.26
683.71	2162.66
683.90	2314.20
684.08	2400.22
684.27	2232.29
684.45	2236.38
684.64	2326.49
684.82	2189.28
685.01	2248.67
685.19	2207.71
685.38	2342.88
685.57	2183.13
685.75	2172.89
685.94	2133.98
686.12	2201.57
686.31	2185.18
686.49	2334.68
686.68	2056.16
686.86	2230.24
687.05	2136.03
687.23	2408.41
687.42	2156.51
687.60	2074.59
687.79	2285.53
687.97	2320.35
688.16	2344.92
688.34	2324.44
688.53	2021.35
688.71	2248.67
688.90	2334.68
689.08	2205.66
689.27	1988.58
689.45	2254.81
689.64	2324.44
689.82	2217.95
690.01	2164.70
690.19	2203.61
690.38	2217.95
690.56	2273.25
690.75	2119.65
690.93	2090.98
691.12	2095.07
691.30	2193.37
691.49	2152.42
691.67	2203.61
691.86	2381.79
692.04	2127.84
692.23	2316.25
692.41	2248.67
692.60	2514.91
692.78	2400.22
692.97	2250.72
693.15	2314.20
693.34	2342.88
693.52	2308.06
693.71	2168.80
693.89	2154.46
694.08	2074.59
694.26	2240.48
694.44	2222.05
694.63	2265.05
694.81	2047.97
695.00	2113.50
695.18	2258.91
695.37	2379.74
695.55	2142.18
695.74	2189.28
695.92	2158.56
696.10	2336.73
696.29	2066.40
696.47	2125.79
696.66	2142.18
696.84	2064.35
697.03	2265.05
697.21	2412.51
697.40	3200.98
697.58	2314.20
697.76	2127.84
697.95	2144.22
698.13	2162.66
698.32	2111.46
698.50	2207.71
698.68	2209.76
698.87	2226.14
699.05	2355.16
699.24	2129.89
699.42	2172.89
699.61	2246.62
699.79	2189.28
699.97	2258.91
700.16	2080.74
700.34	2105.31
700.53	2199.52
700.71	2363.36
700.89	2342.88
701.08	2121.70
701.26	2158.56
701.45	2748.37
701.63	2146.27
701.81	2172.89
702.00	2093.02
702.18	2170.85
702.37	2258.91
702.55	2469.85
702.73	2441.18
702.92	2269.15
703.10	2482.14
703.28	2459.61
703.47	2224.09
703.65	2424.80
703.84	2338.78
704.02	2293.72
704.20	2443.23
704.39	2203.61
704.57	2314.20
704.75	2306.01
704.94	2320.35
705.12	2267.10
705.30	2422.75
705.49	4440.00
705.67	10911.58
705.86	19996.37
706.04	24448.65
706.22	27807.32
706.41	29247.04
706.59	25099.90
706.77	17702.64
706.96	14561.06
707.14	12824.38
707.32	10954.58
707.51	9576.30
707.69	8060.80
707.87	6401.95
708.06	5132.21
708.24	4198.34
708.42	3299.28
708.61	3176.40
708.79	2519.00
708.97	2428.89
709.16	2414.56
709.34	2359.26
709.52	2170.85
709.71	2260.96
709.89	2170.85
710.07	2152.42
710.26	2174.94
710.44	2185.18
710.62	2271.20
710.80	2150.37
710.99	2277.34
711.17	2291.68
711.35	2160.61
711.54	2201.57
711.72	2310.11
711.90	2293.72
712.09	2228.19
712.27	2146.27
712.45	2287.58
712.63	2131.94
712.82	2228.19
713.00	2209.76
713.18	2326.49
713.37	2301.92
713.55	2308.06
713.73	2209.76
713.91	2271.20
714.10	2131.94
714.28	2277.34
714.46	2224.09
714.65	2228.19
714.83	2205.66
715.01	2281.44
715.19	2187.23
715.38	2148.32
715.56	2164.70
715.74	2117.60
715.92	2162.66
716.11	2324.44
716.29	2074.59
716.47	2176.99
716.65	2185.18
716.84	2133.98
717.02	2240.48
717.20	2068.45
717.38	2187.23
717.57	2279.39
717.75	2254.81
717.93	2154.46
718.11	2303.96
718.30	2103.26
718.48	2199.52
718.66	2248.67
718.84	2293.72
719.03	2213.85
719.21	2123.74
719.39	2359.26
719.57	2338.78
719.75	2385.88
719.94	2144.22
720.12	2228.19
720.30	2246.62
720.48	2285.53
720.67	2166.75
720.85	2109.41
721.03	2119.65
721.21	2107.36
721.39	2269.15
721.58	2267.10
721.76	2176.99
721.94	2271.20
722.12	2170.85
722.30	2357.21
722.49	2170.85
722.67	2201.57
722.85	2222.05
723.03	2078.69
723.21	2119.65
723.40	2203.61
723.58	2271.20
723.76	2346.97
723.94	2344.92
724.12	2318.30
724.30	2404.32
724.49	2385.88
724.67	2181.09
724.85	2408.41
725.03	2136.03
725.21	2306.01
725.40	2283.49
725.58	2136.03
725.76	2338.78
725.94	2187.23
726.12	2117.60
726.30	2193.37
726.49	2142.18
726.67	2193.37
726.85	2242.53
727.03	2533.34
727.21	3674.06
727.39	5476.27
727.57	6434.72
727.76	7231.38
727.94	7563.15
728.12	7339.92
728.30	5853.09
728.48	4947.89
728.66	4532.15
728.84	3975.11
729.03	3514.31
729.21	3137.49
729.39	2754.52
729.57	2408.41
729.75	2369.50
729.93	2389.98
730.11	2260.96
730.30	2136.03
730.48	2158.56
730.66	2322.40
730.84	2248.67
731.02	2254.81
731.20	2119.65
731.38	2242.53
731.56	2156.51
731.74	2105.31
731.93	2217.95
732.11	2195.42
732.29	2150.37
732.47	2244.57
732.65	2242.53
732.83	2301.92
733.01	2277.34
733.19	2172.89
733.37	2213.85
733.56	2201.57
733.74	2273.25
733.92	2295.77
734.10	2179.04
734.28	2293.72
734.46	2054.11
734.64	2244.57
734.82	2199.52
735.00	2256.86
735.18	2166.75
735.36	2201.57
735.54	2242.53
735.73	2144.22
735.91	2226.14
736.09	2285.53
736.27	2101.22
736.45	2271.20
736.63	2062.30
736.81	2154.46
736.99	2320.35
737.17	2320.35
737.35	2152.42
737.53	2224.09
737.71	2168.80
737.89	2326.49
738.07	2160.61
738.25	2176.99
738.43	1978.34
738.61	2170.85
738.80	2101.22
738.98	2131.94
739.16	2170.85
739.34	2084.83
739.52	2310.11
739.70	2207.71
739.88	2314.20
740.06	2250.72
740.24	2037.73
740.42	2342.88
740.60	2150.37
740.78	2138.08
740.96	2009.06
741.14	2121.70
741.32	2248.67
741.50	2078.69
741.68	2424.80
741.86	2334.68
742.04	2179.04
742.22	2179.04
742.40	2244.57
742.58	2230.24
742.76	2115.55
742.94	2361.31
743.12	2125.79
743.30	2187.23
743.48	2277.34
743.66	2070.50
743.84	2263.01
744.02	2179.04
744.20	2144.22
744.38	2056.16
744.56	2123.74
744.74	2385.88
744.92	2293.72
745.10	2385.88
745.28	2273.25
745.46	2375.64
745.64	2181.09
745.82	2349.02
746.00	2154.46
746.18	2234.33
746.36	2113.50
746.54	2283.49
746.72	2144.22
746.90	2086.88
747.08	2275.29
747.26	2148.32
747.44	2260.96
747.62	2289.63
747.80	2203.61
747.98	2332.64
748.15	2129.89
748.33	2340.83
748.51	2224.09
748.69	2267.10
748.87	2181.09
749.05	2244.57
749.23	2154.46
749.41	2289.63
749.59	2160.61
749.77	2295.77
749.95	2176.99
750.13	2138.08
750.31	2199.52
750.49	2152.42
750.67	2299.87
750.85	2291.68
751.03	2170.85
751.20	2383.84
751.38	2201.57
751.56	2176.99
751.74	2164.70
751.92	2170.85
752.10	2082.78
752.28	2293.72
752.46	2125.79
752.64	2187.23
752.82	2170.85
753.00	2340.83
753.18	2172.89
753.35	2154.46
753.53	2187.23
753.71	2224.09
753.89	2314.20
754.07	2146.27
754.25	2306.01
754.43	2258.91
754.61	2013.15
754.79	2228.19
754.97	2129.89
755.14	2232.29
755.32	2154.46
755.50	2160.61
755.68	2215.90
755.86	2154.46
756.04	2183.13
756.22	2019.30
756.40	2263.01
756.57	2373.60
756.75	2127.84
756.93	2316.25
757.11	2232.29
757.29	2088.93
757.47	2166.75
757.65	2072.54
757.82	1935.33
758.00	2129.89
758.18	2109.41
758.36	2160.61
758.54	2351.07
758.72	2021.35
758.90	2367.45
759.07	2240.48
759.25	2144.22
759.43	2230.24
759.61	2119.65
759.79	3002.32
759.97	2267.10
760.15	2168.80
760.32	2144.22
760.50	2228.19
760.68	2373.60
760.86	2070.50
761.04	2301.92
761.22	2226.14
761.39	2285.53
761.57	2269.15
761.75	2154.46
761.93	2236.38
762.11	2146.27
762.28	2176.99
762.46	2148.32
762.64	2232.29
762.82	2111.46
763.00	2129.89
763.18	2254.81
763.35	2095.07
763.53	2215.90
763.71	2164.70
763.89	2213.85
764.07	2183.13
764.24	2215.90
764.42	2293.72
764.60	2195.42
764.78	2265.05
764.96	2269.15
765.13	2273.25
765.31	2138.08
765.49	2310.11
765.67	2023.39
765.84	2146.27
766.02	2166.75
766.20	2136.03
766.38	2228.19
766.56	2244.57
766.73	2279.39
766.91	2146.27
767.09	2125.79
767.27	2252.77
767.44	2082.78
767.62	2222.05
767.80	2256.86
767.98	2193.37
768.15	2183.13
768.33	2226.14
768.51	2228.19
768.69	2289.63
768.87	2291.68
769.04	2154.46
769.22	2389.98
769.40	2310.11
769.58	2420.70
769.75	2283.49
769.93	2344.92
770.11	2185.18
770.28	2115.55
770.46	2211.81
770.64	2220.00
770.82	2193.37
770.99	2242.53
771.17	2285.53
771.35	2113.50
771.53	2088.93
771.70	2217.95
771.88	2271.20
772.06	2142.18
772.23	2119.65
772.41	2246.62
772.59	2142.18
772.77	2093.02
772.94	2228.19
773.12	2232.29
773.30	2097.12
773.47	2287.58
773.65	2123.74
773.83	2242.53
774.01	2236.38
774.18	1931.23
774.36	2142.18
774.54	2080.74
774.71	2236.38
774.89	2056.16
775.07	2189.28
775.24	2170.85
775.42	2166.75
775.60	2328.54
775.78	2156.51
775.95	2064.35
776.13	1972.19
776.31	1927.14
776.48	2295.77
776.66	2293.72
776.84	2136.03
777.01	2111.46
777.19	2103.26
777.37	2119.65
777.54	2238.43
777.72	2430.94
777.90	2220.00
778.07	2086.88
778.25	2473.95
778.43	2338.78
778.60	2074.59
778.78	2215.90
778.96	2295.77
779.13	2074.59
779.31	2275.29
779.49	2164.70
779.66	2211.81
779.84	2166.75
780.01	2123.74
780.19	2138.08
780.37	2277.34
780.54	2318.30
780.72	2111.46
780.90	2127.84
781.07	2197.47
781.25	2154.46
781.43	2306.01
781.60	2166.75
781.78	2293.72
781.95	2265.05
782.13	2119.65
782.31	2273.25
782.48	2086.88
782.66	2263.01
782.83	2306.01
783.01	2222.05
783.19	2205.66
783.36	2185.18
783.54	2164.70
783.72	2375.64
783.89	2172.89
784.07	2185.18
784.24	2211.81
784.42	2342.88
784.60	2176.99
784.77	2187.23
784.95	1982.43
785.12	2236.38
785.30	2254.81
785.47	2093.02
785.65	2148.32
785.83	2142.18
786.00	2138.08
786.18	2211.81
786.35	2093.02
786.53	2107.36
786.71	2398.17
786.88	2226.14
787.06	2256.86
787.23	2201.57
787.41	2168.80
787.58	2191.33
787.76	2027.49
787.94	2301.92
788.11	2263.01
788.29	2068.45
788.46	2154.46
788.64	2133.98
788.81	2220.00
788.99	2127.84
789.16	2146.27
789.34	2144.22
789.52	2176.99
789.69	2152.42
789.87	1986.53
790.04	2199.52
790.22	2238.43
790.39	2426.84
790.57	2119.65
790.74	2111.46
790.92	2234.33
791.09	2052.06
791.27	2160.61
791.44	2269.15
791.62	2234.33
791.79	2338.78
791.97	2199.52
792.15	2514.91
792.32	2371.55
792.50	2322.40
792.67	2375.64
792.85	2293.72
793.02	2187.23
793.20	2088.93
793.37	2035.68
793.55	2242.53
793.72	2074.59
793.90	2267.10
794.07	2142.18
794.25	2093.02
794.42	2240.48
794.60	2224.09
794.77	2324.44
794.95	2265.05
795.12	2342.88
795.30	2179.04
795.47	2039.78
795.65	2406.36
795.82	2238.43
796.00	2086.88
796.17	2160.61
796.34	2117.60
796.52	2244.57
796.69	2267.10
796.87	2250.72
797.04	2224.09
797.22	2248.67
797.39	2172.89
797.57	2260.96
797.74	2293.72
797.92	2174.94
798.09	2107.36
798.27	2336.73
798.44	2174.94
798.62	2119.65
798.79	2189.28
798.96	2213.85
799.14	2168.80
799.31	2551.77
799.49	2148.32
799.66	2138.08
799.84	2256.86
800.01	2062.30
800.19	2199.52
800.36	1984.48
800.53	2152.42
800.71	2191.33
800.88	2344.92
801.06	2109.41
801.23	2080.74
801.41	2121.70
801.58	2088.93
801.75	2174.94
801.93	2213.85
802.10	2250.72
802.28	2209.76
802.45	2197.47
802.63	2250.72
802.80	2293.72
802.97	2148.32
803.15	2144.22
803.32	2195.42
803.50	2131.94
803.67	2095.07
803.84	2117.60
804.02	2205.66
804.19	2156.51
804.37	1982.43
804.54	2000.87
804.71	2146.27
804.89	2232.29
805.06	2060.26
805.24	2117.60
805.41	2105.31
805.58	2097.12
805.76	2369.50
805.93	2211.81
806.10	2291.68
806.28	2211.81
806.45	2269.15
806.63	2150.37
806.80	2215.90
806.97	2156.51
807.15	2265.05
807.32	2209.76
807.49	2220.00
807.67	2078.69
807.84	2152.42
808.01	2047.97
808.19	2346.97
808.36	2422.75
808.54	2146.27
808.71	2125.79
808.88	2174.94
809.06	2301.92
809.23	2271.20
809.40	2154.46
809.58	2265.05
809.75	2197.47
809.92	2054.11
810.10	2383.84
810.27	2205.66
810.44	2217.95
810.62	2205.66
810.79	2181.09
810.96	2144.22
811.14	2111.46
811.31	2193.37
811.48	2228.19
811.66	2109.41
811.83	2359.26
812.00	2248.67
812.18	2215.90
812.35	2342.88
812.52	2121.70
812.69	2232.29
812.87	2172.89
813.04	2113.50
813.21	2187.23
813.39	2148.32
813.56	2144.22
813.73	2281.44
813.91	2119.65
814.08	2224.09
814.25	2191.33
814.42	2025.44
814.60	2117.60
814.77	2312.16
814.94	2113.50
815.12	2203.61
815.29	2320.35
815.46	2076.64
815.63	2248.67
815.81	2191.33
815.98	2150.37
816.15	2138.08
816.33	2129.89
816.50	2131.94
816.67	2201.57
816.84	2162.66
817.02	2115.55
817.19	2179.04
817.36	2224.09
817.53	2189.28
817.71	2201.57
817.88	2244.57
818.05	2168.80
818.22	2099.17
818.40	2293.72
818.57	2131.94
818.74	2168.80
818.91	2181.09
819.09	2232.29
819.26	2277.34
819.43	2103.26
819.60	2166.75
819.78	2281.44
819.95	2256.86
820.12	2117.60
820.29	2338.78
820.47	2324.44
820.64	2133.98
820.81	2052.06
820.98	2121.70
821.15	2176.99
821.33	2215.90
821.50	2056.16
821.67	2248.67
821.84	2154.46
822.02	2220.00
822.19	2342.88
822.36	2136.03
822.53	2201.57
822.70	2009.06
822.88	2158.56
823.05	2383.84
823.22	2238.43
823.39	2256.86
823.56	2160.61
823.74	2349.02
823.91	2105.31
824.08	2158.56
824.25	2056.16
824.42	2394.08
824.60	2088.93
824.77	2197.47
824.94	2215.90
825.11	2222.05
825.28	2070.50
825.45	2224.09
825.63	2260.96
825.80	2105.31
825.97	2191.33
826.14	2176.99
826.31	2066.40
826.48	2170.85
826.66	2144.22
826.83	2144.22
827.00	2129.89
827.17	2144.22
827.34	2195.42
827.51	2103.26
827.69	2185.18
827.86	2060.26
828.03	2220.00
828.20	2217.95
828.37	2127.84
828.54	2220.00
828.71	2080.74
828.89	2310.11
829.06	2240.48
829.23	2363.36
829.40	2105.31
829.57	2174.94
829.74	2203.61
829.91	2113.50
830.09	2140.13
830.26	2168.80
830.43	2342.88
830.60	2142.18
830.77	2250.72
830.94	2363.36
831.11	2301.92
831.28	2170.85
831.46	2254.81
831.63	2125.79
831.80	2263.01
831.97	2162.66
832.14	2113.50
832.31	2252.77
832.48	2162.66
832.65	2297.82
832.82	2168.80
832.99	2265.05
833.17	2121.70
833.34	2306.01
833.51	2236.38
833.68	1986.53
833.85	2310.11
834.02	2121.70
834.19	2064.35
834.36	2056.16
834.53	2258.91
834.70	2209.76
834.87	2312.16
835.04	2152.42
835.22	2127.84
835.39	2201.57
835.56	2066.40
835.73	2097.12
835.90	2246.62
836.07	2133.98
836.24	2213.85
836.41	2121.70
836.58	2170.85
836.75	2267.10
836.92	2170.85
837.09	2111.46
837.26	2303.96
837.43	2265.05
837.60	2168.80
837.77	2197.47
837.94	2340.83
838.12	2349.02
838.29	2176.99
838.46	1996.77
838.63	2050.02
838.80	2367.45
838.97	2203.61
839.14	2197.47
839.31	2133.98
839.48	2330.59
839.65	2123.74
839.82	2250.72
839.99	2224.09
840.16	2197.47
840.33	2144.22
840.50	2236.38
840.67	2154.46
840.84	1980.39
841.01	2146.27
841.18	2158.56
841.35	2150.37
841.52	2248.67
841.69	2346.97
841.86	2176.99
842.03	2160.61
842.20	2289.63
842.37	2121.70
842.54	2170.85
842.71	2170.85
842.88	2148.32
843.05	2148.32
843.22	2176.99
843.39	2226.14
843.56	2080.74
843.73	2136.03
843.90	2129.89
844.07	2228.19
844.24	2244.57
844.41	2176.99
844.58	2156.51
844.75	2113.50
844.92	2318.30
845.09	2105.31
845.26	2041.82
845.43	2211.81
845.60	2150.37
845.77	2220.00
845.94	2217.95
846.10	2297.82
846.27	2090.98
846.44	2041.82
846.61	2084.83
846.78	2187.23
846.95	2252.77
847.12	2121.70
847.29	2131.94
847.46	2113.50
847.63	2238.43
847.80	2113.50
847.97	2125.79
848.14	2361.31
848.31	2228.19
848.48	2004.96
848.65	2295.77
848.82	2103.26
848.98	2420.70
849.15	2240.48
849.32	2287.58
849.49	2349.02
849.66	2117.60
849.83	2119.65
850.00	2090.98
850.17	2224.09
850.34	2195.42
850.51	2131.94
850.68	2101.22
850.85	2447.32
851.01	2346.97
851.18	2170.85
851.35	2203.61
851.52	2293.72
851.69	2369.50
851.86	2033.63
852.03	2117.60
852.20	2209.76
852.37	2205.66
852.53	2043.87
852.70	2105.31
852.87	2217.95
853.04	2273.25
853.21	2127.84
853.38	2228.19
853.55	2260.96
853.72	2277.34
853.89	2113.50
854.05	2064.35
854.22	2113.50
854.39	2176.99
854.56	2191.33
854.73	2289.63
854.90	2105.31
855.07	2254.81
855.23	2123.74
855.40	2125.79
855.57	2172.89
855.74	2009.06
855.91	2441.18
856.08	2070.50
856.25	2047.97
856.41	2103.26
856.58	2113.50
856.75	2142.18
856.92	2093.02
857.09	2295.77
857.26	2084.83
857.42	2140.13
857.59	2283.49
857.76	2144.22
857.93	2252.77
858.10	2246.62
858.27	2084.83
858.43	2146.27
858.60	2090.98
858.77	2039.78
858.94	2047.97
859.11	2236.38
859.27	2168.80
859.44	2176.99
859.61	2346.97
859.78	2220.00
859.95	2215.90
860.12	2082.78
860.28	2373.60
860.45	2418.65
860.62	2129.89
860.79	2154.46
860.95	2174.94
861.12	2138.08
861.29	2129.89
861.46	2103.26
861.63	2215.90
861.79	2146.27
861.96	2066.40
862.13	2121.70
862.30	2236.38
862.47	2125.79
862.63	2133.98
862.80	2271.20
862.97	2207.71
863.14	2246.62
863.30	2205.66
863.47	2070.50
863.64	2359.26
863.81	2183.13
863.97	2095.07
864.14	2168.80
864.31	2162.66
864.48	2217.95
864.65	2138.08
864.81	2148.32
864.98	2236.38
865.15	2246.62
865.32	2224.09
865.48	2303.96
865.65	2334.68
865.82	2164.70
865.98	2273.25
866.15	2209.76
866.32	2168.80
866.49	2123.74
866.65	2240.48
866.82	2136.03
866.99	2283.49
867.16	2119.65
867.32	2154.46
867.49	2082.78
867.66	2217.95
867.83	2168.80
867.99	2058.21
868.16	2131.94
868.33	2097.12
868.49	2203.61
868.66	2129.89
868.83	2260.96
868.99	2299.87
869.16	2144.22
869.33	2267.10
869.50	2250.72
869.66	2156.51
869.83	2162.66
870.00	2037.73
870.16	2191.33
870.33	2215.90
870.50	2226.14
870.66	2156.51
870.83	2293.72
871.00	2205.66
871.17	2289.63
871.33	2154.46
871.50	2107.36
871.67	2154.46
871.83	2093.02
872.00	2332.64
872.17	2154.46
872.33	2293.72
872.50	2275.29
872.67	2097.12
872.83	2197.47
873.00	2244.57
873.17	2224.09
873.33	2242.53
873.50	2179.04
873.67	2144.22
873.83	2105.31
874.00	2156.51
874.16	2228.19
874.33	2230.24
874.50	2095.07
874.66	2258.91
874.83	2179.04
875.00	2277.34
875.16	2289.63
875.33	2277.34
875.50	1982.43
875.66	2088.93
875.83	2260.96
875.99	2244.57
876.16	2125.79
876.33	2045.92
876.49	2138.08
876.66	2181.09
876.83	2154.46
876.99	2047.97
877.16	2146.27
877.32	2107.36
877.49	2125.79
877.66	2254.81
877.82	2359.26
877.99	2248.67
878.15	2244.57
878.32	2211.81
878.49	2220.00
878.65	2133.98
878.82	2265.05
878.98	2195.42
879.15	2244.57
879.32	2215.90
879.48	2226.14
879.65	2228.19
879.81	2125.79
879.98	2166.75
880.15	2142.18
880.31	2232.29
880.48	2129.89
880.64	2293.72
880.81	2187.23
880.97	2291.68
881.14	2371.55
881.31	2029.54
881.47	2338.78
881.64	2168.80
881.80	2052.06
881.97	2109.41
882.13	2183.13
882.30	2070.50
882.47	2060.26
882.63	2088.93
882.80	2127.84
882.96	2232.29
883.13	2316.25
883.29	2217.95
883.46	2211.81
883.62	2332.64
883.79	2179.04
883.95	2193.37
884.12	2160.61
884.29	2256.86
884.45	2234.33
884.62	2211.81
884.78	2068.45
884.95	2252.77
885.11	2101.22
885.28	2228.19
885.44	2129.89
885.61	2176.99
885.77	2260.96
885.94	2242.53
886.10	2136.03
886.27	2265.05
886.43	2365.40
886.60	2277.34
886.76	2156.51
886.93	2107.36
887.09	2205.66
887.26	2004.96
887.42	2162.66
887.59	2246.62
887.75	2383.84
887.92	2273.25
888.08	2209.76
888.25	2346.97
888.41	2287.58
888.58	2176.99
888.74	2154.46
888.91	2176.99
>>>>>End Processed Spectral Data<<<<<
