SpectraSuite Data File
++++++++++++++++++++++++++++++++++++
Date: Thu May 05 12:35:55 CEST 2016
User: root
Dark Spectrum Present: No
Reference Spectrum Present: No
Number of Sampled Component Spectra: 1
Spectrometers: USB4C02835
Integration Time (usec): 100000 (USB4C02835)
Spectra Averaged: 1 (USB4C02835)
Boxcar Smoothing: 0 (USB4C02835)
Correct for Electrical Dark: No (USB4C02835)
Strobe/Lamp Enabled: No (USB4C02835)
Correct for Detector Non-linearity: No (USB4C02835)
Correct for Stray Light: No (USB4C02835)
Number of Pixels in Processed Spectrum: 3648
>>>>>Begin Processed Spectral Data<<<<<
177.47	1748.97
177.69	1748.97
177.91	1748.97
178.13	1791.97
178.36	1826.79
178.58	2097.12
178.80	2234.33
179.02	2115.55
179.24	2170.85
179.46	2068.45
179.68	2181.09
179.90	2152.42
180.13	2244.57
180.35	2117.60
180.57	2176.99
180.79	2254.81
181.01	2138.08
181.23	2226.14
181.45	2242.53
181.67	2267.10
181.90	2252.77
182.12	2183.13
182.34	2015.20
182.56	2258.91
182.78	2172.89
183.00	2140.13
183.22	2156.51
183.44	2031.58
183.66	2387.93
183.89	2260.96
184.11	2138.08
184.33	2187.23
184.55	2308.06
184.77	2113.50
184.99	2162.66
185.21	2174.94
185.43	2465.75
185.65	2105.31
185.87	2156.51
186.10	2398.17
186.32	2394.08
186.54	2211.81
186.76	2242.53
186.98	2318.30
187.20	2152.42
187.42	2056.16
187.64	2152.42
187.86	2232.29
188.08	2240.48
188.30	2136.03
188.52	2209.76
188.75	2277.34
188.97	2375.64
189.19	2138.08
189.41	2097.12
189.63	2170.85
189.85	2138.08
190.07	2076.64
190.29	1929.19
190.51	2211.81
190.73	2064.35
190.95	2263.01
191.17	2150.37
191.39	2074.59
191.61	2170.85
191.84	2097.12
192.06	2148.32
192.28	2025.44
192.50	2496.47
192.72	2263.01
192.94	2086.88
193.16	2359.26
193.38	2187.23
193.60	2011.11
193.82	2191.33
194.04	2252.77
194.26	2191.33
194.48	2066.40
194.70	2039.78
194.92	2220.00
195.14	2256.86
195.36	2109.41
195.58	2199.52
195.80	2158.56
196.02	2078.69
196.24	2070.50
196.46	2193.37
196.69	2160.61
196.91	2400.22
197.13	2154.46
197.35	2111.46
197.57	2306.01
197.79	2285.53
198.01	2170.85
198.23	2121.70
198.45	2191.33
198.67	2025.44
198.89	2125.79
199.11	2267.10
199.33	2123.74
199.55	2043.87
199.77	2123.74
199.99	2265.05
200.21	2076.64
200.43	2232.29
200.65	2037.73
200.87	2037.73
201.09	2162.66
201.31	2154.46
201.53	2193.37
201.75	2199.52
201.97	2220.00
202.19	2211.81
202.41	2203.61
202.63	2258.91
202.85	2258.91
203.07	2172.89
203.29	2125.79
203.51	2072.54
203.73	2088.93
203.95	2445.27
204.17	2125.79
204.39	2224.09
204.61	2138.08
204.83	2183.13
205.05	2224.09
205.27	2152.42
205.49	2351.07
205.71	2160.61
205.93	2047.97
206.15	2041.82
206.37	2248.67
206.59	2220.00
206.81	2129.89
207.03	2056.16
207.25	2095.07
207.47	2289.63
207.69	2080.74
207.91	2293.72
208.13	2357.21
208.34	2097.12
208.56	2062.30
208.78	2226.14
209.00	2142.18
209.22	2166.75
209.44	2054.11
209.66	2072.54
209.88	2201.57
210.10	2121.70
210.32	2097.12
210.54	2222.05
210.76	2138.08
210.98	2275.29
211.20	2015.20
211.42	2222.05
211.64	2248.67
211.86	2265.05
212.08	2179.04
212.30	2142.18
212.52	2150.37
212.74	2211.81
212.96	2129.89
213.17	2195.42
213.39	2267.10
213.61	2422.75
213.83	2146.27
214.05	2054.11
214.27	2334.68
214.49	2000.87
214.71	2076.64
214.93	2224.09
215.15	2271.20
215.37	2224.09
215.59	1998.82
215.81	2164.70
216.03	2310.11
216.24	2236.38
216.46	2154.46
216.68	2133.98
216.90	2263.01
217.12	2310.11
217.34	2154.46
217.56	2146.27
217.78	2308.06
218.00	2277.34
218.22	2181.09
218.44	2179.04
218.66	2250.72
218.87	2412.51
219.09	2093.02
219.31	2160.61
219.53	2281.44
219.75	2125.79
219.97	2142.18
220.19	2148.32
220.41	2080.74
220.63	2263.01
220.85	2154.46
221.06	2152.42
221.28	2226.14
221.50	2211.81
221.72	2123.74
221.94	2111.46
222.16	2209.76
222.38	2291.68
222.60	2133.98
222.82	2150.37
223.03	2252.77
223.25	2027.49
223.47	2043.87
223.69	2273.25
223.91	2144.22
224.13	2301.92
224.35	1970.15
224.57	2357.21
224.78	2265.05
225.00	2043.87
225.22	2152.42
225.44	2111.46
225.66	2260.96
225.88	2195.42
226.10	2185.18
226.32	2080.74
226.53	2328.54
226.75	2217.95
226.97	2119.65
227.19	2140.13
227.41	2140.13
227.63	2193.37
227.85	2031.58
228.06	2156.51
228.28	2244.57
228.50	2287.58
228.72	2052.06
228.94	2105.31
229.16	2070.50
229.37	2037.73
229.59	2080.74
229.81	2215.90
230.03	2150.37
230.25	2078.69
230.47	2027.49
230.69	1998.82
230.90	2293.72
231.12	2138.08
231.34	2152.42
231.56	2220.00
231.78	2095.07
232.00	2220.00
232.21	2144.22
232.43	2201.57
232.65	1970.15
232.87	2240.48
233.09	2068.45
233.30	2066.40
233.52	2267.10
233.74	2168.80
233.96	2068.45
234.18	2164.70
234.40	2172.89
234.61	2449.37
234.83	2080.74
235.05	2103.26
235.27	2506.71
235.49	2252.77
235.70	2121.70
235.92	2220.00
236.14	2244.57
236.36	2449.37
236.58	1998.82
236.79	2174.94
237.01	2205.66
237.23	2234.33
237.45	2334.68
237.67	2170.85
237.88	2201.57
238.10	2426.84
238.32	2084.83
238.54	2119.65
238.76	2211.81
238.97	2117.60
239.19	2076.64
239.41	2154.46
239.63	2322.40
239.85	2084.83
240.06	2166.75
240.28	2045.92
240.50	2209.76
240.72	2150.37
240.93	2213.85
241.15	2265.05
241.37	2187.23
241.59	2338.78
241.81	2088.93
242.02	2119.65
242.24	2250.72
242.46	2260.96
242.68	2097.12
242.89	2115.55
243.11	2267.10
243.33	2228.19
243.55	2170.85
243.76	2162.66
243.98	2168.80
244.20	2117.60
244.42	2119.65
244.64	2191.33
244.85	2088.93
245.07	2144.22
245.29	2144.22
245.51	2136.03
245.72	2248.67
245.94	2281.44
246.16	2095.07
246.38	2181.09
246.59	2201.57
246.81	2101.22
247.03	2129.89
247.24	2019.30
247.46	2115.55
247.68	2236.38
247.90	2033.63
248.11	2129.89
248.33	2293.72
248.55	2207.71
248.77	2191.33
248.98	2213.85
249.20	2344.92
249.42	2195.42
249.64	2146.27
249.85	2088.93
250.07	2152.42
250.29	2328.54
250.50	2240.48
250.72	2097.12
250.94	2140.13
251.16	2387.93
251.37	2170.85
251.59	2101.22
251.81	2242.53
252.02	2232.29
252.24	2060.26
252.46	2275.29
252.68	2150.37
252.89	2140.13
253.11	2011.11
253.33	2228.19
253.54	2291.68
253.76	2127.84
253.98	2090.98
254.20	2099.17
254.41	2088.93
254.63	2224.09
254.85	2062.30
255.06	2127.84
255.28	2258.91
255.50	2191.33
255.71	2031.58
255.93	2113.50
256.15	2203.61
256.36	2301.92
256.58	2062.30
256.80	2107.36
257.02	2203.61
257.23	2117.60
257.45	2140.13
257.67	2271.20
257.88	2140.13
258.10	2211.81
258.32	2101.22
258.53	2185.18
258.75	2320.35
258.97	2133.98
259.18	2115.55
259.40	2146.27
259.62	2283.49
259.83	2267.10
260.05	2226.14
260.27	2559.96
260.48	2357.21
260.70	2056.16
260.92	2101.22
261.13	2138.08
261.35	2203.61
261.57	2156.51
261.78	2078.69
262.00	2154.46
262.22	2308.06
262.43	2119.65
262.65	2142.18
262.86	2228.19
263.08	2373.60
263.30	2191.33
263.51	1986.53
263.73	2064.35
263.95	2318.30
264.16	2162.66
264.38	2037.73
264.60	2170.85
264.81	2158.56
265.03	2338.78
265.25	2277.34
265.46	2150.37
265.68	2373.60
265.89	2244.57
266.11	2072.54
266.33	2150.37
266.54	2201.57
266.76	2275.29
266.98	2156.51
267.19	2248.67
267.41	2252.77
267.62	2191.33
267.84	2002.91
268.06	2187.23
268.27	2230.24
268.49	2375.64
268.70	2228.19
268.92	2119.65
269.14	2076.64
269.35	2121.70
269.57	2121.70
269.79	2176.99
270.00	2086.88
270.22	2316.25
270.43	2129.89
270.65	1953.76
270.87	2187.23
271.08	2279.39
271.30	2185.18
271.51	2099.17
271.73	2240.48
271.95	2260.96
272.16	2082.78
272.38	2183.13
272.59	2121.70
272.81	2308.06
273.02	2234.33
273.24	2133.98
273.46	2232.29
273.67	2125.79
273.89	2045.92
274.10	2111.46
274.32	2303.96
274.54	2234.33
274.75	2236.38
274.97	2119.65
275.18	2281.44
275.40	2269.15
275.61	2084.83
275.83	2211.81
276.05	2129.89
276.26	2156.51
276.48	2162.66
276.69	2205.66
276.91	2113.50
277.12	2363.36
277.34	2234.33
277.55	2240.48
277.77	2220.00
277.99	2189.28
278.20	2152.42
278.42	1996.77
278.63	2119.65
278.85	2131.94
279.06	2043.87
279.28	2152.42
279.49	2258.91
279.71	2164.70
279.93	2242.53
280.14	2195.42
280.36	2099.17
280.57	2242.53
280.79	2191.33
281.00	2097.12
281.22	2113.50
281.43	2330.59
281.65	2027.49
281.86	2107.36
282.08	2248.67
282.29	2441.18
282.51	2017.25
282.73	2023.39
282.94	2062.30
283.16	2269.15
283.37	2211.81
283.59	2179.04
283.80	2326.49
284.02	2222.05
284.23	2220.00
284.45	2146.27
284.66	2127.84
284.88	2082.78
285.09	2209.76
285.31	2285.53
285.52	2207.71
285.74	2027.49
285.95	2318.30
286.17	2265.05
286.38	2314.20
286.60	2125.79
286.81	2136.03
287.03	2185.18
287.24	2250.72
287.46	2187.23
287.67	2121.70
287.89	2346.97
288.10	2248.67
288.32	2181.09
288.53	2318.30
288.75	2164.70
288.96	2256.86
289.18	2119.65
289.39	2164.70
289.61	2215.90
289.82	2439.13
290.04	2439.13
290.25	2101.22
290.47	2097.12
290.68	2185.18
290.90	2291.68
291.11	2035.68
291.33	2254.81
291.54	2103.26
291.76	2140.13
291.97	2250.72
292.18	2199.52
292.40	2138.08
292.61	2172.89
292.83	2394.08
293.04	2166.75
293.26	2224.09
293.47	2174.94
293.69	2076.64
293.90	2146.27
294.12	2330.59
294.33	2168.80
294.55	2154.46
294.76	2258.91
294.97	2338.78
295.19	2437.08
295.40	2176.99
295.62	2252.77
295.83	2244.57
296.05	2084.83
296.26	2283.49
296.48	2062.30
296.69	2213.85
296.90	2189.28
297.12	2256.86
297.33	2314.20
297.55	2197.47
297.76	2250.72
297.98	2254.81
298.19	2158.56
298.41	2103.26
298.62	2086.88
298.83	2293.72
299.05	2166.75
299.26	2199.52
299.48	2131.94
299.69	2260.96
299.90	2179.04
300.12	2095.07
300.33	2316.25
300.55	2217.95
300.76	2162.66
300.98	2131.94
301.19	2256.86
301.40	2078.69
301.62	2140.13
301.83	2328.54
302.05	2197.47
302.26	2144.22
302.47	2318.30
302.69	2164.70
302.90	2248.67
303.12	1974.24
303.33	2279.39
303.54	2367.45
303.76	2133.98
303.97	2162.66
304.19	2314.20
304.40	2133.98
304.61	2176.99
304.83	2271.20
305.04	2248.67
305.26	2271.20
305.47	2140.13
305.68	2170.85
305.90	2142.18
306.11	2312.16
306.33	2191.33
306.54	2119.65
306.75	2076.64
306.97	2174.94
307.18	2078.69
307.39	2138.08
307.61	2291.68
307.82	2199.52
308.04	2236.38
308.25	2146.27
308.46	2230.24
308.68	2156.51
308.89	2220.00
309.10	2326.49
309.32	2234.33
309.53	2107.36
309.74	2279.39
309.96	2193.37
310.17	2160.61
310.39	2078.69
310.60	2224.09
310.81	2244.57
311.03	2117.60
311.24	2332.64
311.45	2254.81
311.67	2355.16
311.88	2236.38
312.09	2154.46
312.31	2086.88
312.52	2123.74
312.73	2136.03
312.95	2050.02
313.16	2187.23
313.37	2228.19
313.59	2299.87
313.80	2220.00
314.01	2320.35
314.23	2127.84
314.44	2138.08
314.65	2086.88
314.87	2125.79
315.08	2131.94
315.29	2199.52
315.51	2162.66
315.72	2054.11
315.93	2301.92
316.15	2236.38
316.36	2152.42
316.57	2232.29
316.79	2164.70
317.00	2097.12
317.21	2236.38
317.43	2078.69
317.64	2160.61
317.85	2115.55
318.07	2131.94
318.28	2193.37
318.49	2340.83
318.70	2482.14
318.92	2265.05
319.13	2387.93
319.34	2361.31
319.56	2291.68
319.77	2285.53
319.98	2387.93
320.20	2334.68
320.41	2293.72
320.62	2211.81
320.83	2154.46
321.05	2367.45
321.26	2168.80
321.47	2166.75
321.69	2279.39
321.90	2047.97
322.11	2162.66
322.32	2232.29
322.54	2283.49
322.75	2240.48
322.96	2512.86
323.18	2154.46
323.39	2021.35
323.60	2146.27
323.81	2308.06
324.03	2064.35
324.24	2115.55
324.45	2256.86
324.66	2152.42
324.88	2301.92
325.09	2373.60
325.30	2152.42
325.52	2172.89
325.73	2228.19
325.94	2093.02
326.15	2023.39
326.37	2129.89
326.58	2254.81
326.79	2361.31
327.00	2084.83
327.22	2138.08
327.43	2144.22
327.64	2125.79
327.85	2236.38
328.07	2193.37
328.28	2373.60
328.49	2176.99
328.70	2133.98
328.92	2146.27
329.13	2166.75
329.34	2207.71
329.55	2281.44
329.76	2252.77
329.98	2154.46
330.19	2260.96
330.40	2279.39
330.61	2232.29
330.83	2271.20
331.04	2117.60
331.25	2162.66
331.46	2101.22
331.68	2066.40
331.89	2277.34
332.10	2121.70
332.31	2138.08
332.52	2162.66
332.74	2283.49
332.95	1998.82
333.16	2191.33
333.37	2312.16
333.58	2199.52
333.80	2248.67
334.01	1953.76
334.22	2154.46
334.43	2166.75
334.64	2174.94
334.86	2047.97
335.07	2129.89
335.28	2326.49
335.49	2103.26
335.70	2244.57
335.92	2275.29
336.13	2326.49
336.34	2308.06
336.55	2195.42
336.76	2281.44
336.98	2021.35
337.19	2265.05
337.40	2254.81
337.61	2383.84
337.82	2164.70
338.04	2256.86
338.25	2066.40
338.46	2168.80
338.67	2107.36
338.88	2095.07
339.09	2062.30
339.31	2150.37
339.52	2103.26
339.73	2105.31
339.94	2203.61
340.15	2267.10
340.36	2154.46
340.58	2191.33
340.79	2138.08
341.00	2230.24
341.21	2168.80
341.42	2365.40
341.63	2129.89
341.85	2254.81
342.06	2205.66
342.27	2076.64
342.48	2246.62
342.69	2062.30
342.90	2230.24
343.12	2240.48
343.33	2060.26
343.54	2303.96
343.75	2363.36
343.96	2166.75
344.17	2086.88
344.38	2242.53
344.60	2109.41
344.81	2117.60
345.02	2166.75
345.23	2260.96
345.44	2414.56
345.65	2224.09
345.86	2158.56
346.07	2187.23
346.29	2084.83
346.50	2324.44
346.71	2156.51
346.92	2281.44
347.13	2406.36
347.34	2211.81
347.55	2164.70
347.76	2244.57
347.98	2117.60
348.19	2166.75
348.40	2375.64
348.61	2179.04
348.82	2326.49
349.03	2236.38
349.24	2037.73
349.45	2336.73
349.66	2000.87
349.88	2183.13
350.09	2142.18
350.30	2269.15
350.51	2287.58
350.72	2256.86
350.93	2211.81
351.14	2179.04
351.35	2176.99
351.56	2144.22
351.77	2144.22
351.99	2322.40
352.20	2306.01
352.41	2301.92
352.62	2037.73
352.83	2187.23
353.04	2144.22
353.25	2117.60
353.46	2201.57
353.67	2318.30
353.88	1998.82
354.09	2150.37
354.30	2129.89
354.52	2197.47
354.73	2230.24
354.94	2170.85
355.15	2222.05
355.36	2387.93
355.57	2136.03
355.78	2156.51
355.99	2144.22
356.20	2103.26
356.41	2361.31
356.62	2236.38
356.83	2195.42
357.04	2351.07
357.25	2056.16
357.46	2088.93
357.68	2095.07
357.89	2154.46
358.10	2174.94
358.31	2164.70
358.52	2164.70
358.73	2033.63
358.94	2095.07
359.15	2152.42
359.36	2303.96
359.57	2185.18
359.78	2170.85
359.99	2287.58
360.20	2121.70
360.41	2209.76
360.62	2226.14
360.83	2205.66
361.04	2215.90
361.25	2240.48
361.46	2387.93
361.67	2260.96
361.88	2189.28
362.09	2326.49
362.30	2242.53
362.51	2107.36
362.72	2164.70
362.93	2244.57
363.14	2246.62
363.35	2144.22
363.56	2113.50
363.78	2293.72
363.99	2287.58
364.20	2154.46
364.41	2195.42
364.62	2392.03
364.83	2226.14
365.04	2158.56
365.25	2174.94
365.46	2414.56
365.67	2111.46
365.88	2170.85
366.09	2197.47
366.30	2105.31
366.51	2213.85
366.72	2097.12
366.93	2138.08
367.14	2197.47
367.35	2334.68
367.56	2138.08
367.77	2342.88
367.98	2144.22
368.18	2260.96
368.39	2269.15
368.60	2109.41
368.81	2240.48
369.02	2228.19
369.23	2185.18
369.44	2056.16
369.65	2166.75
369.86	2168.80
370.07	2306.01
370.28	2121.70
370.49	2199.52
370.70	2330.59
370.91	2113.50
371.12	2101.22
371.33	2310.11
371.54	2090.98
371.75	2320.35
371.96	2047.97
372.17	2260.96
372.38	2170.85
372.59	2183.13
372.80	2080.74
373.01	2131.94
373.22	2195.42
373.43	2183.13
373.64	2111.46
373.85	2273.25
374.06	2426.84
374.26	2242.53
374.47	2170.85
374.68	2324.44
374.89	2201.57
375.10	2189.28
375.31	2220.00
375.52	2248.67
375.73	2226.14
375.94	2138.08
376.15	2301.92
376.36	2162.66
376.57	2131.94
376.78	2195.42
376.99	2224.09
377.20	2383.84
377.40	2127.84
377.61	2324.44
377.82	2115.55
378.03	2306.01
378.24	2222.05
378.45	2127.84
378.66	2160.61
378.87	1984.48
379.08	2088.93
379.29	2084.83
379.50	2267.10
379.71	2150.37
379.91	2289.63
380.12	2240.48
380.33	2181.09
380.54	2193.37
380.75	2183.13
380.96	2125.79
381.17	2291.68
381.38	2191.33
381.59	2222.05
381.80	2195.42
382.00	2328.54
382.21	2303.96
382.42	2371.55
382.63	2465.75
382.84	2277.34
383.05	2326.49
383.26	2303.96
383.47	2211.81
383.68	2303.96
383.88	2281.44
384.09	2193.37
384.30	2375.64
384.51	2265.05
384.72	2168.80
384.93	2107.36
385.14	2246.62
385.35	2320.35
385.55	2129.89
385.76	2334.68
385.97	2228.19
386.18	2156.51
386.39	2113.50
386.60	2138.08
386.81	2220.00
387.02	2105.31
387.22	2119.65
387.43	2326.49
387.64	2289.63
387.85	2377.69
388.06	2416.60
388.27	4075.46
388.48	8429.44
388.68	12164.93
388.89	14491.43
389.10	15646.48
389.31	14466.85
389.52	11077.46
389.73	9682.80
389.93	8750.97
390.14	8161.16
390.35	7413.65
390.56	6502.30
390.77	5201.84
390.98	4140.99
391.18	3203.02
391.39	2703.32
391.60	2394.08
391.81	2310.11
392.02	2222.05
392.23	2447.32
392.43	2179.04
392.64	2340.83
392.85	2140.13
393.06	2285.53
393.27	2240.48
393.47	2150.37
393.68	2248.67
393.89	2179.04
394.10	2359.26
394.31	2146.27
394.52	2156.51
394.72	2228.19
394.93	2340.83
395.14	2047.97
395.35	2234.33
395.56	2125.79
395.76	2246.62
395.97	2228.19
396.18	2340.83
396.39	2295.77
396.60	2701.27
396.80	2416.60
397.01	2437.08
397.22	2441.18
397.43	2355.16
397.64	2179.04
397.84	2334.68
398.05	2525.15
398.26	2224.09
398.47	2346.97
398.67	2306.01
398.88	2160.61
399.09	2234.33
399.30	2185.18
399.51	2201.57
399.71	2103.26
399.92	2193.37
400.13	2301.92
400.34	2146.27
400.54	2220.00
400.75	2396.12
400.96	2273.25
401.17	2346.97
401.37	2271.20
401.58	2209.76
401.79	2193.37
402.00	2260.96
402.21	2609.11
402.41	2576.34
402.62	2580.44
402.83	2584.54
403.04	2713.56
403.24	2777.05
403.45	2381.79
403.66	2424.80
403.87	2432.99
404.07	2482.14
404.28	2465.75
404.49	2439.13
404.70	2306.01
404.90	2326.49
405.11	2220.00
405.32	2269.15
405.52	2082.78
405.73	2197.47
405.94	2093.02
406.15	2168.80
406.35	2220.00
406.56	2265.05
406.77	2283.49
406.98	2205.66
407.18	2162.66
407.39	2359.26
407.60	2105.31
407.80	2265.05
408.01	2101.22
408.22	2203.61
408.43	2160.61
408.63	2299.87
408.84	2252.77
409.05	2252.77
409.25	2072.54
409.46	2086.88
409.67	2160.61
409.88	2156.51
410.08	2224.09
410.29	2166.75
410.50	2277.34
410.70	2207.71
410.91	2068.45
411.12	2256.86
411.32	2213.85
411.53	2172.89
411.74	2275.29
411.95	2355.16
412.15	2322.40
412.36	2318.30
412.57	2254.81
412.77	2332.64
412.98	2224.09
413.19	2129.89
413.39	2291.68
413.60	2226.14
413.81	2375.64
414.01	2111.46
414.22	2174.94
414.43	2316.25
414.63	2193.37
414.84	2363.36
415.05	2234.33
415.25	2031.58
415.46	2242.53
415.67	2209.76
415.87	2144.22
416.08	2217.95
416.29	2183.13
416.49	2334.68
416.70	2148.32
416.91	2232.29
417.11	2230.24
417.32	2334.68
417.53	2267.10
417.73	2277.34
417.94	2187.23
418.15	2211.81
418.35	2183.13
418.56	2199.52
418.77	2408.41
418.97	2220.00
419.18	2220.00
419.38	1978.34
419.59	2213.85
419.80	2334.68
420.00	2256.86
420.21	2179.04
420.42	2363.36
420.62	2342.88
420.83	2146.27
421.04	2052.06
421.24	2211.81
421.45	2265.05
421.65	2310.11
421.86	2220.00
422.07	2279.39
422.27	2248.67
422.48	2228.19
422.69	2105.31
422.89	2176.99
423.10	2187.23
423.30	2039.78
423.51	2195.42
423.72	2226.14
423.92	2260.96
424.13	2095.07
424.33	2236.38
424.54	2342.88
424.75	2181.09
424.95	2342.88
425.16	2254.81
425.36	2197.47
425.57	2209.76
425.78	2226.14
425.98	2267.10
426.19	2127.84
426.39	2111.46
426.60	2295.77
426.81	2256.86
427.01	2228.19
427.22	2103.26
427.42	1974.24
427.63	2080.74
427.83	2201.57
428.04	2324.44
428.25	2334.68
428.45	2271.20
428.66	2316.25
428.86	2211.81
429.07	2179.04
429.28	2162.66
429.48	2140.13
429.69	2050.02
429.89	2242.53
430.10	2019.30
430.30	2303.96
430.51	2252.77
430.71	2121.70
430.92	2160.61
431.13	2176.99
431.33	2252.77
431.54	2224.09
431.74	2379.74
431.95	2371.55
432.15	2125.79
432.36	2211.81
432.56	2203.61
432.77	2342.88
432.98	2435.03
433.18	2267.10
433.39	2217.95
433.59	2166.75
433.80	2326.49
434.00	2412.51
434.21	2172.89
434.41	2193.37
434.62	2455.51
434.82	2119.65
435.03	2105.31
435.23	2312.16
435.44	2029.54
435.64	2199.52
435.85	2195.42
436.06	2240.48
436.26	2322.40
436.47	2179.04
436.67	2109.41
436.88	2226.14
437.08	2344.92
437.29	2336.73
437.49	2179.04
437.70	2271.20
437.90	2197.47
438.11	2361.31
438.31	2316.25
438.52	2441.18
438.72	2428.89
438.93	2482.14
439.13	2267.10
439.34	2351.07
439.54	2213.85
439.75	2306.01
439.95	2299.87
440.16	2228.19
440.36	2291.68
440.57	2195.42
440.77	2248.67
440.98	2228.19
441.18	2275.29
441.39	2099.17
441.59	2127.84
441.80	2371.55
442.00	2158.56
442.21	2371.55
442.41	2146.27
442.62	2269.15
442.82	2183.13
443.02	2199.52
443.23	2209.76
443.43	2224.09
443.64	2338.78
443.84	2170.85
444.05	2297.82
444.25	2201.57
444.46	2166.75
444.66	2258.91
444.87	2402.27
445.07	2131.94
445.28	2232.29
445.48	2363.36
445.69	2363.36
445.89	2514.91
446.09	2211.81
446.30	2523.10
446.50	2781.14
446.71	4444.09
446.91	5474.22
447.12	6516.64
447.32	6692.76
447.53	6186.91
447.73	5162.93
447.93	4511.68
448.14	4259.78
448.34	4026.31
448.55	3661.77
448.75	3463.12
448.96	3231.69
449.16	3088.34
449.36	2875.35
449.57	2482.14
449.77	2260.96
449.98	2232.29
450.18	2326.49
450.39	2371.55
450.59	2316.25
450.79	2260.96
451.00	2113.50
451.20	2230.24
451.41	2152.42
451.61	2252.77
451.81	2297.82
452.02	2121.70
452.22	2115.55
452.43	2154.46
452.63	2142.18
452.84	2211.81
453.04	2203.61
453.24	2303.96
453.45	2113.50
453.65	2215.90
453.86	2213.85
454.06	2170.85
454.26	2201.57
454.47	2189.28
454.67	2279.39
454.87	2318.30
455.08	2187.23
455.28	2346.97
455.49	2269.15
455.69	2105.31
455.89	2328.54
456.10	2310.11
456.30	2174.94
456.51	2287.58
456.71	2176.99
456.91	2246.62
457.12	2248.67
457.32	2228.19
457.52	2119.65
457.73	2220.00
457.93	2318.30
458.14	2099.17
458.34	2017.25
458.54	2170.85
458.75	2185.18
458.95	2342.88
459.15	2185.18
459.36	2185.18
459.56	2224.09
459.76	2420.70
459.97	2185.18
460.17	2152.42
460.37	2254.81
460.58	2187.23
460.78	2252.77
460.99	2160.61
461.19	2250.72
461.39	2197.47
461.60	2207.71
461.80	2318.30
462.00	2105.31
462.21	2207.71
462.41	2097.12
462.61	2146.27
462.82	2027.49
463.02	2254.81
463.22	2213.85
463.43	2187.23
463.63	2162.66
463.83	2265.05
464.04	2289.63
464.24	2179.04
464.44	2217.95
464.64	2193.37
464.85	2285.53
465.05	2244.57
465.25	2213.85
465.46	2166.75
465.66	2230.24
465.86	2248.67
466.07	2203.61
466.27	2193.37
466.47	2019.30
466.68	2111.46
466.88	2316.25
467.08	2228.19
467.29	2256.86
467.49	2238.43
467.69	2170.85
467.89	2283.49
468.10	2125.79
468.30	2211.81
468.50	2260.96
468.71	2338.78
468.91	2127.84
469.11	2303.96
469.31	2193.37
469.52	2097.12
469.72	2338.78
469.92	2432.99
470.13	2207.71
470.33	2224.09
470.53	2306.01
470.73	2645.98
470.94	3047.38
471.14	3209.17
471.34	3561.42
471.54	3512.27
471.75	3078.10
471.95	2924.50
472.15	2752.47
472.36	2750.42
472.56	2758.61
472.76	2643.93
472.96	2613.21
473.17	2439.13
473.37	2437.08
473.57	2250.72
473.77	2402.27
473.98	2293.72
474.18	2150.37
474.38	2480.09
474.58	2179.04
474.79	2174.94
474.99	2324.44
475.19	2289.63
475.39	2105.31
475.60	2301.92
475.80	2211.81
476.00	2211.81
476.20	2191.33
476.41	2160.61
476.61	2299.87
476.81	2328.54
477.01	2133.98
477.21	2408.41
477.42	2322.40
477.62	2179.04
477.82	2277.34
478.02	2138.08
478.23	2260.96
478.43	2170.85
478.63	2148.32
478.83	2256.86
479.03	2113.50
479.24	2265.05
479.44	2457.56
479.64	2054.11
479.84	2058.21
480.04	2133.98
480.25	2195.42
480.45	2090.98
480.65	2187.23
480.85	2342.88
481.06	2142.18
481.26	2131.94
481.46	2269.15
481.66	2228.19
481.86	2129.89
482.06	2316.25
482.27	2154.46
482.47	2162.66
482.67	2191.33
482.87	2115.55
483.07	2320.35
483.28	2179.04
483.48	2183.13
483.68	2193.37
483.88	2113.50
484.08	2017.25
484.29	2084.83
484.49	2220.00
484.69	2152.42
484.89	2387.93
485.09	2220.00
485.29	2189.28
485.50	2256.86
485.70	2256.86
485.90	2236.38
486.10	2246.62
486.30	2269.15
486.50	2334.68
486.71	2230.24
486.91	2342.88
487.11	2328.54
487.31	2047.97
487.51	2230.24
487.71	2119.65
487.91	2183.13
488.12	2097.12
488.32	1990.63
488.52	2138.08
488.72	2043.87
488.92	2228.19
489.12	2361.31
489.32	2252.77
489.53	2226.14
489.73	2080.74
489.93	2236.38
490.13	2111.46
490.33	2064.35
490.53	2179.04
490.73	2310.11
490.94	2004.96
491.14	2287.58
491.34	2334.68
491.54	2529.24
491.74	3143.63
491.94	3629.00
492.14	4026.31
492.34	4063.17
492.54	3694.54
492.75	3379.15
492.95	3194.83
493.15	2891.73
493.35	3012.56
493.55	2803.67
493.75	2695.13
493.95	2695.13
494.15	2498.52
494.35	2310.11
494.56	2295.77
494.76	2242.53
494.96	2297.82
495.16	2222.05
495.36	2211.81
495.56	2162.66
495.76	2203.61
495.96	2234.33
496.16	2156.51
496.36	2455.51
496.56	2185.18
496.77	2295.77
496.97	2195.42
497.17	2383.84
497.37	2138.08
497.57	2285.53
497.77	2080.74
497.97	2088.93
498.17	2211.81
498.37	2146.27
498.57	2269.15
498.77	2189.28
498.97	2342.88
499.17	2398.17
499.38	2166.75
499.58	2281.44
499.78	2291.68
499.98	2324.44
500.18	2168.80
500.38	2166.75
500.58	2424.80
500.78	2875.35
500.98	5128.11
501.18	7137.17
501.38	8978.30
501.58	9850.73
501.78	9795.43
501.98	7724.94
502.18	6406.05
502.38	5590.95
502.58	5027.76
502.78	4583.35
502.98	4501.44
503.18	4263.87
503.38	3968.96
503.59	3399.63
503.79	3256.27
503.99	2951.12
504.19	2768.85
504.39	2858.96
504.59	2887.64
504.79	2830.29
504.99	2797.53
505.19	2566.10
505.39	2435.03
505.59	2570.20
505.79	2471.90
505.99	2424.80
506.19	2281.44
506.39	2432.99
506.59	2260.96
506.79	2220.00
506.99	2328.54
507.19	2269.15
507.39	2260.96
507.59	2064.35
507.79	2125.79
507.99	2183.13
508.19	2193.37
508.39	2179.04
508.59	2176.99
508.79	2383.84
508.99	2435.03
509.19	2187.23
509.39	2267.10
509.59	2117.60
509.79	2195.42
509.99	2160.61
510.19	2248.67
510.39	2267.10
510.59	2273.25
510.79	2129.89
510.99	2103.26
511.19	2215.90
511.39	2400.22
511.59	2332.64
511.79	2349.02
511.99	2281.44
512.19	2355.16
512.38	2281.44
512.58	2170.85
512.78	2119.65
512.98	2367.45
513.18	2371.55
513.38	2070.50
513.58	2316.25
513.78	2215.90
513.98	2156.51
514.18	2166.75
514.38	2215.90
514.58	2228.19
514.78	2162.66
514.98	2088.93
515.18	2138.08
515.38	2127.84
515.58	2326.49
515.78	2138.08
515.98	2150.37
516.18	2256.86
516.38	2250.72
516.57	2127.84
516.77	2172.89
516.97	2320.35
517.17	2222.05
517.37	2045.92
517.57	2299.87
517.77	2230.24
517.97	2181.09
518.17	2289.63
518.37	2121.70
518.57	2205.66
518.77	2174.94
518.97	2187.23
519.16	2252.77
519.36	2306.01
519.56	2195.42
519.76	2224.09
519.96	2211.81
520.16	2226.14
520.36	2172.89
520.56	2273.25
520.76	2148.32
520.96	2205.66
521.16	2277.34
521.35	2295.77
521.55	2346.97
521.75	2242.53
521.95	2220.00
522.15	2162.66
522.35	2138.08
522.55	2123.74
522.75	2355.16
522.95	2090.98
523.14	2189.28
523.34	2279.39
523.54	2129.89
523.74	2265.05
523.94	2244.57
524.14	2105.31
524.34	2179.04
524.54	2312.16
524.73	2248.67
524.93	2211.81
525.13	2236.38
525.33	2164.70
525.53	2398.17
525.73	2291.68
525.93	2213.85
526.13	2195.42
526.32	2207.71
526.52	2344.92
526.72	2248.67
526.92	2183.13
527.12	2236.38
527.32	2121.70
527.52	2252.77
527.71	2336.73
527.91	2154.46
528.11	2217.95
528.31	2250.72
528.51	2097.12
528.71	2215.90
528.90	2349.02
529.10	2353.12
529.30	2308.06
529.50	1974.24
529.70	2258.91
529.90	2207.71
530.09	2217.95
530.29	2095.07
530.49	2072.54
530.69	2400.22
530.89	2187.23
531.09	2301.92
531.28	2179.04
531.48	2340.83
531.68	2230.24
531.88	2181.09
532.08	2301.92
532.28	2240.48
532.47	2334.68
532.67	2263.01
532.87	2283.49
533.07	2189.28
533.27	2217.95
533.46	2316.25
533.66	2326.49
533.86	2152.42
534.06	2234.33
534.26	2285.53
534.45	2160.61
534.65	2308.06
534.85	2246.62
535.05	2154.46
535.25	2289.63
535.44	2033.63
535.64	2224.09
535.84	2183.13
536.04	2205.66
536.24	2181.09
536.43	2095.07
536.63	2211.81
536.83	2187.23
537.03	2191.33
537.22	2072.54
537.42	2111.46
537.62	2226.14
537.82	2168.80
538.02	2357.21
538.21	2310.11
538.41	2482.14
538.61	2252.77
538.81	2125.79
539.00	2326.49
539.20	2105.31
539.40	2187.23
539.60	2148.32
539.79	2263.01
539.99	2215.90
540.19	2101.22
540.39	2195.42
540.58	2203.61
540.78	2326.49
540.98	2295.77
541.18	2310.11
541.37	2199.52
541.57	2162.66
541.77	2254.81
541.97	2039.78
542.16	2068.45
542.36	2228.19
542.56	2105.31
542.76	2402.27
542.95	2215.90
543.15	2306.01
543.35	2334.68
543.54	2117.60
543.74	2103.26
543.94	2371.55
544.14	2156.51
544.33	2306.01
544.53	2185.18
544.73	2154.46
544.93	2166.75
545.12	2166.75
545.32	2183.13
545.52	2207.71
545.71	2144.22
545.91	2183.13
546.11	2150.37
546.30	2142.18
546.50	2234.33
546.70	2260.96
546.90	2209.76
547.09	1966.05
547.29	2144.22
547.49	2244.57
547.68	2236.38
547.88	2211.81
548.08	2281.44
548.27	2725.85
548.47	2160.61
548.67	2129.89
548.87	2289.63
549.06	2162.66
549.26	2244.57
549.46	2207.71
549.65	2129.89
549.85	2220.00
550.05	2201.57
550.24	2115.55
550.44	2217.95
550.64	2148.32
550.83	2226.14
551.03	2326.49
551.23	2283.49
551.42	2217.95
551.62	2213.85
551.82	2215.90
552.01	2236.38
552.21	2306.01
552.41	2152.42
552.60	2418.65
552.80	2232.29
553.00	2097.12
553.19	2277.34
553.39	2428.89
553.59	2140.13
553.78	2207.71
553.98	2187.23
554.17	2080.74
554.37	2226.14
554.57	2277.34
554.76	2068.45
554.96	2152.42
555.16	2240.48
555.35	2283.49
555.55	2236.38
555.75	2242.53
555.94	2318.30
556.14	2142.18
556.33	2252.77
556.53	2170.85
556.73	2285.53
556.92	2246.62
557.12	2349.02
557.32	2359.26
557.51	2355.16
557.71	2285.53
557.90	2367.45
558.10	2357.21
558.30	2191.33
558.49	2174.94
558.69	2156.51
558.88	2238.43
559.08	2195.42
559.28	2148.32
559.47	2205.66
559.67	2220.00
559.86	2432.99
560.06	2224.09
560.26	2129.89
560.45	2334.68
560.65	2146.27
560.84	2371.55
561.04	2162.66
561.24	2224.09
561.43	2136.03
561.63	2301.92
561.82	2195.42
562.02	2203.61
562.22	2105.31
562.41	2076.64
562.61	2152.42
562.80	2170.85
563.00	2469.85
563.19	2267.10
563.39	2252.77
563.59	2306.01
563.78	2097.12
563.98	2045.92
564.17	2138.08
564.37	2019.30
564.56	2293.72
564.76	2166.75
564.96	2273.25
565.15	2244.57
565.35	2420.70
565.54	2185.18
565.74	2240.48
565.93	2263.01
566.13	2254.81
566.32	2250.72
566.52	2260.96
566.71	2199.52
566.91	2258.91
567.11	2293.72
567.30	2144.22
567.50	2306.01
567.69	2189.28
567.89	2164.70
568.08	2105.31
568.28	2244.57
568.47	2072.54
568.67	2295.77
568.86	2170.85
569.06	2361.31
569.25	2220.00
569.45	2168.80
569.64	2170.85
569.84	2205.66
570.04	2295.77
570.23	2205.66
570.43	2168.80
570.62	2183.13
570.82	2404.32
571.01	2097.12
571.21	2174.94
571.40	2193.37
571.60	2312.16
571.79	2291.68
571.99	2279.39
572.18	2045.92
572.38	2174.94
572.57	2103.26
572.77	2248.67
572.96	2445.27
573.16	2211.81
573.35	2160.61
573.55	2334.68
573.74	2338.78
573.94	2203.61
574.13	2211.81
574.33	2295.77
574.52	2404.32
574.71	2230.24
574.91	2215.90
575.10	2101.22
575.30	2152.42
575.49	2131.94
575.69	2174.94
575.88	2254.81
576.08	2310.11
576.27	2316.25
576.47	2236.38
576.66	2392.03
576.86	2441.18
577.05	2232.29
577.25	2293.72
577.44	2342.88
577.64	2176.99
577.83	2316.25
578.02	2181.09
578.22	2338.78
578.41	2414.56
578.61	2281.44
578.80	2168.80
579.00	2170.85
579.19	2250.72
579.39	2359.26
579.58	2324.44
579.77	2172.89
579.97	2295.77
580.16	2392.03
580.36	2308.06
580.55	2330.59
580.75	2308.06
580.94	2281.44
581.13	2334.68
581.33	2336.73
581.52	2250.72
581.72	2494.43
581.91	2389.98
582.11	2236.38
582.30	2318.30
582.49	2226.14
582.69	2437.08
582.88	2326.49
583.08	2236.38
583.27	2383.84
583.47	2217.95
583.66	2131.94
583.85	2148.32
584.05	2199.52
584.24	2351.07
584.44	2306.01
584.63	2389.98
584.82	2398.17
585.02	2508.76
585.21	2449.37
585.41	2441.18
585.60	2314.20
585.79	2445.27
585.99	2410.46
586.18	2375.64
586.37	2901.97
586.57	4503.48
586.76	13360.95
586.96	32353.81
587.15	46005.57
587.34	55381.17
587.54	60464.23
587.73	55510.19
587.93	39558.56
588.12	29398.59
588.31	23854.74
588.51	20715.20
588.70	19234.52
588.89	17239.80
589.09	14954.27
589.28	12918.59
589.47	10401.63
589.67	8286.08
589.86	6428.57
590.06	4634.55
590.25	3868.61
590.44	3219.41
590.64	2723.80
590.83	2658.26
591.02	2508.76
591.22	2408.41
591.41	2377.69
591.60	2254.81
591.80	2557.91
591.99	2144.22
592.18	2318.30
592.38	2306.01
592.57	2125.79
592.76	2260.96
592.96	2283.49
593.15	2285.53
593.34	2297.82
593.54	2215.90
593.73	2369.50
593.92	2355.16
594.12	2275.29
594.31	2351.07
594.50	2396.12
594.70	2389.98
594.89	2523.10
595.08	2164.70
595.28	2275.29
595.47	2508.76
595.66	2383.84
595.86	2144.22
596.05	2199.52
596.24	2191.33
596.43	2375.64
596.63	2355.16
596.82	2297.82
597.01	2260.96
597.21	2416.60
597.40	2291.68
597.59	2289.63
597.79	2287.58
597.98	2287.58
598.17	2322.40
598.36	2230.24
598.56	2312.16
598.75	2232.29
598.94	2256.86
599.14	2199.52
599.33	2062.30
599.52	2299.87
599.71	2205.66
599.91	2330.59
600.10	2234.33
600.29	2244.57
600.48	2207.71
600.68	2248.67
600.87	2273.25
601.06	2119.65
601.26	2254.81
601.45	2273.25
601.64	2203.61
601.83	2285.53
602.03	2195.42
602.22	2140.13
602.41	2293.72
602.60	2420.70
602.80	2353.12
602.99	2224.09
603.18	2220.00
603.37	2281.44
603.57	2209.76
603.76	2318.30
603.95	2406.36
604.14	2125.79
604.34	2133.98
604.53	2263.01
604.72	2297.82
604.91	2273.25
605.10	2293.72
605.30	2072.54
605.49	2357.21
605.68	2324.44
605.87	2269.15
606.07	2199.52
606.26	2242.53
606.45	2238.43
606.64	2168.80
606.84	2213.85
607.03	2293.72
607.22	2330.59
607.41	2256.86
607.60	2201.57
607.80	2338.78
607.99	2224.09
608.18	2158.56
608.37	2193.37
608.56	2193.37
608.76	2281.44
608.95	2408.41
609.14	2252.77
609.33	2426.84
609.52	2443.23
609.72	2275.29
609.91	2328.54
610.10	2377.69
610.29	2359.26
610.48	2346.97
610.68	2324.44
610.87	2158.56
611.06	2330.59
611.25	2240.48
611.44	2383.84
611.63	2162.66
611.83	2295.77
612.02	2103.26
612.21	2355.16
612.40	2043.87
612.59	2154.46
612.79	2168.80
612.98	2111.46
613.17	2367.45
613.36	2209.76
613.55	2365.40
613.74	2299.87
613.93	2398.17
614.13	2449.37
614.32	2521.05
614.51	2422.75
614.70	2349.02
614.89	2224.09
615.08	2324.44
615.28	2772.95
615.47	2224.09
615.66	2285.53
615.85	2303.96
616.04	2432.99
616.23	2289.63
616.42	2281.44
616.62	2318.30
616.81	2226.14
617.00	2240.48
617.19	2191.33
617.38	2142.18
617.57	2238.43
617.76	2306.01
617.95	2289.63
618.15	2308.06
618.34	2328.54
618.53	2127.84
618.72	2275.29
618.91	2367.45
619.10	2260.96
619.29	2226.14
619.48	2185.18
619.68	2105.31
619.87	2156.51
620.06	2133.98
620.25	2242.53
620.44	2158.56
620.63	2152.42
620.82	2248.67
621.01	2195.42
621.20	2228.19
621.39	2199.52
621.59	2275.29
621.78	2203.61
621.97	2203.61
622.16	2242.53
622.35	2201.57
622.54	2353.12
622.73	2332.64
622.92	2093.02
623.11	2273.25
623.30	2244.57
623.49	2150.37
623.68	2164.70
623.88	2357.21
624.07	2191.33
624.26	2189.28
624.45	2217.95
624.64	2121.70
624.83	2170.85
625.02	2179.04
625.21	2260.96
625.40	2226.14
625.59	2361.31
625.78	2217.95
625.97	2359.26
626.16	2355.16
626.35	2263.01
626.54	2303.96
626.74	2398.17
626.93	2236.38
627.12	2314.20
627.31	2254.81
627.50	2226.14
627.69	2312.16
627.88	2090.98
628.07	2207.71
628.26	2093.02
628.45	2195.42
628.64	2064.35
628.83	2232.29
629.02	2179.04
629.21	2187.23
629.40	2244.57
629.59	2129.89
629.78	2189.28
629.97	2265.05
630.16	2181.09
630.35	2215.90
630.54	2269.15
630.73	2250.72
630.92	2211.81
631.11	2209.76
631.30	2291.68
631.49	2246.62
631.68	2248.67
631.87	2269.15
632.06	2064.35
632.25	2519.00
632.44	2226.14
632.63	2254.81
632.82	2340.83
633.01	2240.48
633.20	2326.49
633.39	2340.83
633.58	2162.66
633.77	2306.01
633.96	2287.58
634.15	2291.68
634.34	2310.11
634.53	2283.49
634.72	2183.13
634.91	2076.64
635.10	2248.67
635.29	2301.92
635.48	2191.33
635.67	2234.33
635.86	2131.94
636.05	2432.99
636.24	2269.15
636.43	2258.91
636.62	2226.14
636.81	2007.01
637.00	2281.44
637.19	2195.42
637.38	2166.75
637.57	2187.23
637.76	2220.00
637.95	2367.45
638.14	2226.14
638.33	2334.68
638.52	2365.40
638.71	2191.33
638.89	2170.85
639.08	2478.04
639.27	2435.03
639.46	2527.19
639.65	2867.16
639.84	2883.54
640.03	3051.47
640.22	3020.75
640.41	2891.73
640.60	2543.58
640.79	2611.16
640.98	2408.41
641.17	2488.28
641.36	2473.95
641.55	2402.27
641.74	2195.42
641.92	2207.71
642.11	2213.85
642.30	2234.33
642.49	2133.98
642.68	2179.04
642.87	2269.15
643.06	2265.05
643.25	2097.12
643.44	2127.84
643.63	2215.90
643.82	2281.44
644.00	2103.26
644.19	2242.53
644.38	2086.88
644.57	2324.44
644.76	2209.76
644.95	2201.57
645.14	2193.37
645.33	2207.71
645.52	2207.71
645.71	2152.42
645.89	2125.79
646.08	2324.44
646.27	2197.47
646.46	2396.12
646.65	2101.22
646.84	2195.42
647.03	2179.04
647.22	2269.15
647.40	2236.38
647.59	2181.09
647.78	2019.30
647.97	2127.84
648.16	2047.97
648.35	2342.88
648.54	2293.72
648.73	2131.94
648.91	2306.01
649.10	2234.33
649.29	2138.08
649.48	2215.90
649.67	2258.91
649.86	2263.01
650.05	2203.61
650.23	2453.47
650.42	2236.38
650.61	2443.23
650.80	2424.80
650.99	2521.05
651.18	2424.80
651.36	2349.02
651.55	2170.85
651.74	2277.34
651.93	2119.65
652.12	2144.22
652.31	2164.70
652.49	2170.85
652.68	2252.77
652.87	2326.49
653.06	2254.81
653.25	2469.85
653.44	2248.67
653.62	2379.74
653.81	2246.62
654.00	2191.33
654.19	2293.72
654.38	2504.67
654.56	2191.33
654.75	2179.04
654.94	2228.19
655.13	2306.01
655.32	2248.67
655.51	2166.75
655.69	2232.29
655.88	2320.35
656.07	2109.41
656.26	2238.43
656.45	2086.88
656.63	2174.94
656.82	2297.82
657.01	2267.10
657.20	2170.85
657.38	2260.96
657.57	2254.81
657.76	2050.02
657.95	2312.16
658.14	2136.03
658.32	2277.34
658.51	2076.64
658.70	2277.34
658.89	2252.77
659.08	2234.33
659.26	2357.21
659.45	2168.80
659.64	2318.30
659.83	2168.80
660.01	2568.15
660.20	2332.64
660.39	2361.31
660.58	2047.97
660.76	2172.89
660.95	2052.06
661.14	2269.15
661.33	2136.03
661.51	2095.07
661.70	2193.37
661.89	2217.95
662.08	2164.70
662.26	2103.26
662.45	2054.11
662.64	2400.22
662.83	2211.81
663.01	2054.11
663.20	2195.42
663.39	2342.88
663.58	2127.84
663.76	2148.32
663.95	2293.72
664.14	2164.70
664.32	2168.80
664.51	2076.64
664.70	2019.30
664.89	2267.10
665.07	2109.41
665.26	2346.97
665.45	2103.26
665.64	2269.15
665.82	2191.33
666.01	2248.67
666.20	2131.94
666.38	2312.16
666.57	2295.77
666.76	3248.08
666.95	7901.06
667.13	16103.18
667.32	21735.09
667.51	25724.54
667.69	27373.15
667.88	25083.52
668.07	18087.66
668.25	14311.21
668.44	12033.86
668.63	10213.22
668.81	9224.05
669.00	7937.93
669.19	7161.75
669.38	5978.02
669.56	5287.86
669.75	4388.80
669.94	3641.29
670.12	3067.86
670.31	2734.04
670.50	2648.02
670.68	2396.12
670.87	2308.06
671.06	2273.25
671.24	2334.68
671.43	2455.51
671.62	2432.99
671.80	2170.85
671.99	2344.92
672.18	2250.72
672.36	2346.97
672.55	2211.81
672.74	2207.71
672.92	2162.66
673.11	2301.92
673.29	2056.16
673.48	2320.35
673.67	2275.29
673.85	2334.68
674.04	2174.94
674.23	2174.94
674.41	2326.49
674.60	2129.89
674.79	2076.64
674.97	2090.98
675.16	2205.66
675.34	2265.05
675.53	2183.13
675.72	2263.01
675.90	2414.56
676.09	2138.08
676.28	2146.27
676.46	2078.69
676.65	2306.01
676.83	2084.83
677.02	2246.62
677.21	2199.52
677.39	2291.68
677.58	2101.22
677.77	2117.60
677.95	2072.54
678.14	2183.13
678.32	2201.57
678.51	2148.32
678.70	2412.51
678.88	2162.66
679.07	2236.38
679.25	2238.43
679.44	2197.47
679.63	2144.22
679.81	2187.23
680.00	2318.30
680.18	2289.63
680.37	2322.40
680.55	2203.61
680.74	2039.78
680.93	2050.02
681.11	2244.57
681.30	2154.46
681.48	2179.04
681.67	2230.24
681.85	2193.37
682.04	2142.18
682.23	2160.61
682.41	2158.56
682.60	2136.03
682.78	2265.05
682.97	2064.35
683.15	2232.29
683.34	2248.67
683.53	2244.57
683.71	2047.97
683.90	2338.78
684.08	2349.02
684.27	2136.03
684.45	2183.13
684.64	2408.41
684.82	2224.09
685.01	2252.77
685.19	2217.95
685.38	2351.07
685.57	2131.94
685.75	2125.79
685.94	2160.61
686.12	2109.41
686.31	2209.76
686.49	2392.03
686.68	2045.92
686.86	2265.05
687.05	2142.18
687.23	2324.44
687.42	2160.61
687.60	2068.45
687.79	2220.00
687.97	2357.21
688.16	2314.20
688.34	2201.57
688.53	2011.11
688.71	2209.76
688.90	2424.80
689.08	2136.03
689.27	2125.79
689.45	2224.09
689.64	2244.57
689.82	2142.18
690.01	2291.68
690.19	2224.09
690.38	2176.99
690.56	2314.20
690.75	2213.85
690.93	2099.17
691.12	2146.27
691.30	2234.33
691.49	2179.04
691.67	2236.38
691.86	2326.49
692.04	2121.70
692.23	2199.52
692.41	2170.85
692.60	2523.10
692.78	2357.21
692.97	2250.72
693.15	2293.72
693.34	2426.84
693.52	2416.60
693.71	2203.61
693.89	2199.52
694.08	2093.02
694.26	2263.01
694.44	2326.49
694.63	2252.77
694.81	2119.65
695.00	2170.85
695.18	2371.55
695.37	2465.75
695.55	2220.00
695.74	2217.95
695.92	2234.33
696.10	2334.68
696.29	2021.35
696.47	2138.08
696.66	2095.07
696.84	2117.60
697.03	2168.80
697.21	2373.60
697.40	3268.56
697.58	2273.25
697.76	2154.46
697.95	2129.89
698.13	2111.46
698.32	2152.42
698.50	2197.47
698.68	2244.57
698.87	2277.34
699.05	2351.07
699.24	2103.26
699.42	2123.74
699.61	2254.81
699.79	2228.19
699.97	2162.66
700.16	2076.64
700.34	2064.35
700.53	2240.48
700.71	2295.77
700.89	2299.87
701.08	2201.57
701.26	2174.94
701.45	2727.89
701.63	2080.74
701.81	2217.95
702.00	2187.23
702.18	2220.00
702.37	2250.72
702.55	2416.60
702.73	2424.80
702.92	2312.16
703.10	2514.91
703.28	2486.23
703.47	2258.91
703.65	2418.65
703.84	2428.89
704.02	2230.24
704.20	2455.51
704.39	2097.12
704.57	2156.51
704.75	2316.25
704.94	2326.49
705.12	2308.06
705.30	2559.96
705.49	4464.57
705.67	10592.09
705.86	19668.69
706.04	23842.45
706.22	27317.86
706.41	28544.59
706.59	24622.73
706.77	17467.13
706.96	14409.51
707.14	12261.19
707.32	10870.62
707.51	9572.21
707.69	7929.74
707.87	6397.85
708.06	4968.37
708.24	4163.52
708.42	3291.09
708.61	3010.51
708.79	2490.33
708.97	2432.99
709.16	2455.51
709.34	2275.29
709.52	2146.27
709.71	2166.75
709.89	2273.25
710.07	2136.03
710.26	2084.83
710.44	2193.37
710.62	2318.30
710.80	2199.52
710.99	2232.29
711.17	2277.34
711.35	2088.93
711.54	2131.94
711.72	2332.64
711.90	2252.77
712.09	2213.85
712.27	2127.84
712.45	2334.68
712.63	2144.22
712.82	2127.84
713.00	2201.57
713.18	2242.53
713.37	2295.77
713.55	2326.49
713.73	2244.57
713.91	2285.53
714.10	2160.61
714.28	2238.43
714.46	2174.94
714.65	2324.44
714.83	2267.10
715.01	2228.19
715.19	2273.25
715.38	2197.47
715.56	2162.66
715.74	2074.59
715.92	2111.46
716.11	2346.97
716.29	2037.73
716.47	2154.46
716.65	2207.71
716.84	2047.97
717.02	2338.78
717.20	2074.59
717.38	2170.85
717.57	2246.62
717.75	2207.71
717.93	2148.32
718.11	2301.92
718.30	2084.83
718.48	2246.62
718.66	2232.29
718.84	2195.42
719.03	2174.94
719.21	2033.63
719.39	2334.68
719.57	2258.91
719.75	2283.49
719.94	2113.50
720.12	2117.60
720.30	2238.43
720.48	2232.29
720.67	2099.17
720.85	2127.84
721.03	2129.89
721.21	2111.46
721.39	2269.15
721.58	2283.49
721.76	2215.90
721.94	2258.91
722.12	2179.04
722.30	2412.51
722.49	2133.98
722.67	2246.62
722.85	2220.00
723.03	2043.87
723.21	2203.61
723.40	2203.61
723.58	2326.49
723.76	2201.57
723.94	2351.07
724.12	2310.11
724.30	2375.64
724.49	2310.11
724.67	2142.18
724.85	2449.37
725.03	2127.84
725.21	2228.19
725.40	2400.22
725.58	2127.84
725.76	2377.69
725.94	2213.85
726.12	2093.02
726.30	2164.70
726.49	2230.24
726.67	2119.65
726.85	2285.53
727.03	2535.39
727.21	3700.68
727.39	5212.08
727.57	6414.24
727.76	7104.40
727.94	7501.71
728.12	7057.30
728.30	5836.71
728.48	4831.16
728.66	4370.37
728.84	4102.08
729.03	3471.31
729.21	3059.67
729.39	2734.04
729.57	2457.56
729.75	2445.27
729.93	2318.30
730.11	2150.37
730.30	2263.01
730.48	2168.80
730.66	2389.98
730.84	2342.88
731.02	2183.13
731.20	2211.81
731.38	2232.29
731.56	2088.93
731.74	2084.83
731.93	2265.05
732.11	2181.09
732.29	2166.75
732.47	2158.56
732.65	2252.77
732.83	2324.44
733.01	2142.18
733.19	2144.22
733.37	2232.29
733.56	2179.04
733.74	2187.23
733.92	2353.12
734.10	2150.37
734.28	2209.76
734.46	2086.88
734.64	2121.70
734.82	2156.51
735.00	2170.85
735.18	2176.99
735.36	2224.09
735.54	2154.46
735.73	2164.70
735.91	2156.51
736.09	2201.57
736.27	2170.85
736.45	2250.72
736.63	2078.69
736.81	2138.08
736.99	2398.17
737.17	2357.21
737.35	2125.79
737.53	2273.25
737.71	2146.27
737.89	2293.72
738.07	2133.98
738.25	2191.33
738.43	2093.02
738.61	2168.80
738.80	2039.78
738.98	2129.89
739.16	2211.81
739.34	2158.56
739.52	2308.06
739.70	2174.94
739.88	2314.20
740.06	2363.36
740.24	2002.91
740.42	2258.91
740.60	2041.82
740.78	2170.85
740.96	1984.48
741.14	2170.85
741.32	2215.90
741.50	2070.50
741.68	2494.43
741.86	2285.53
742.04	2084.83
742.22	2088.93
742.40	2179.04
742.58	2240.48
742.76	2144.22
742.94	2260.96
743.12	2084.83
743.30	2170.85
743.48	2242.53
743.66	2179.04
743.84	2217.95
744.02	2166.75
744.20	2187.23
744.38	2068.45
744.56	2080.74
744.74	2373.60
744.92	2301.92
745.10	2301.92
745.28	2211.81
745.46	2432.99
745.64	2183.13
745.82	2220.00
746.00	2201.57
746.18	2127.84
746.36	2156.51
746.54	2260.96
746.72	2250.72
746.90	2066.40
747.08	2289.63
747.26	2158.56
747.44	2301.92
747.62	2217.95
747.80	2308.06
747.98	2283.49
748.15	2275.29
748.33	2351.07
748.51	2213.85
748.69	2236.38
748.87	2162.66
749.05	2207.71
749.23	2195.42
749.41	2240.48
749.59	2162.66
749.77	2273.25
749.95	2131.94
750.13	2226.14
750.31	2232.29
750.49	2236.38
750.67	2285.53
750.85	2351.07
751.03	2256.86
751.20	2396.12
751.38	2179.04
751.56	2162.66
751.74	2215.90
751.92	2220.00
752.10	2113.50
752.28	2275.29
752.46	2131.94
752.64	2174.94
752.82	2191.33
753.00	2277.34
753.18	2136.03
753.35	2084.83
753.53	2232.29
753.71	2152.42
753.89	2207.71
754.07	2242.53
754.25	2332.64
754.43	2193.37
754.61	2107.36
754.79	2277.34
754.97	2197.47
755.14	2301.92
755.32	1990.63
755.50	2207.71
755.68	2230.24
755.86	2107.36
756.04	2035.68
756.22	2062.30
756.40	2258.91
756.57	2375.64
756.75	2103.26
756.93	2367.45
757.11	2379.74
757.29	2064.35
757.47	2109.41
757.65	2076.64
757.82	2047.97
758.00	2133.98
758.18	2072.54
758.36	2076.64
758.54	2357.21
758.72	2152.42
758.90	2303.96
759.07	2162.66
759.25	2197.47
759.43	2215.90
759.61	2086.88
759.79	3092.43
759.97	2279.39
760.15	2220.00
760.32	2164.70
760.50	2189.28
760.68	2385.88
760.86	2115.55
761.04	2318.30
761.22	2248.67
761.39	2183.13
761.57	2244.57
761.75	2226.14
761.93	2334.68
762.11	2107.36
762.28	2174.94
762.46	2187.23
762.64	2248.67
762.82	2029.54
763.00	2179.04
763.18	2373.60
763.35	2070.50
763.53	2203.61
763.71	2222.05
763.89	2174.94
764.07	2234.33
764.24	2236.38
764.42	2291.68
764.60	2121.70
764.78	2152.42
764.96	2330.59
765.13	2215.90
765.31	2166.75
765.49	2308.06
765.67	2138.08
765.84	2187.23
766.02	2170.85
766.20	2056.16
766.38	2228.19
766.56	2283.49
766.73	2275.29
766.91	2185.18
767.09	2203.61
767.27	2191.33
767.44	2062.30
767.62	2236.38
767.80	2146.27
767.98	2097.12
768.15	2197.47
768.33	2230.24
768.51	2215.90
768.69	2244.57
768.87	2236.38
769.04	2187.23
769.22	2439.13
769.40	2379.74
769.58	2371.55
769.75	2236.38
769.93	2369.50
770.11	2187.23
770.28	2154.46
770.46	2258.91
770.64	2291.68
770.82	2166.75
770.99	2101.22
771.17	2244.57
771.35	2133.98
771.53	2197.47
771.70	2187.23
771.88	2213.85
772.06	2176.99
772.23	2140.13
772.41	2271.20
772.59	2176.99
772.77	2095.07
772.94	2154.46
773.12	2228.19
773.30	2197.47
773.47	2181.09
773.65	2172.89
773.83	2299.87
774.01	2199.52
774.18	2088.93
774.36	2238.43
774.54	2086.88
774.71	2256.86
774.89	2060.26
775.07	2095.07
775.24	2131.94
775.42	2148.32
775.60	2318.30
775.78	2109.41
775.95	2050.02
776.13	2039.78
776.31	1966.05
776.48	2158.56
776.66	2215.90
776.84	2162.66
777.01	2133.98
777.19	2078.69
777.37	2119.65
777.54	2232.29
777.72	2375.64
777.90	2201.57
778.07	2121.70
778.25	2467.80
778.43	2252.77
778.60	2170.85
778.78	2267.10
778.96	2260.96
779.13	2076.64
779.31	2197.47
779.49	2179.04
779.66	2224.09
779.84	2097.12
780.01	2258.91
780.19	2103.26
780.37	2260.96
780.54	2285.53
780.72	2146.27
780.90	2193.37
781.07	2201.57
781.25	2064.35
781.43	2271.20
781.60	2138.08
781.78	2234.33
781.95	2213.85
782.13	2090.98
782.31	2240.48
782.48	2146.27
782.66	2168.80
782.83	2375.64
783.01	2252.77
783.19	2242.53
783.36	2185.18
783.54	2086.88
783.72	2297.82
783.89	2086.88
784.07	2215.90
784.24	2111.46
784.42	2308.06
784.60	2179.04
784.77	2185.18
784.95	2035.68
785.12	2162.66
785.30	2189.28
785.47	2072.54
785.65	2187.23
785.83	2162.66
786.00	2131.94
786.18	2187.23
786.35	2011.11
786.53	2117.60
786.71	2277.34
786.88	2316.25
787.06	2248.67
787.23	2263.01
787.41	2109.41
787.58	2181.09
787.76	2097.12
787.94	2146.27
788.11	2152.42
788.29	2207.71
788.46	2105.31
788.64	2047.97
788.81	2220.00
788.99	2136.03
789.16	2160.61
789.34	2176.99
789.52	2123.74
789.69	2095.07
789.87	2047.97
790.04	2121.70
790.22	2213.85
790.39	2424.80
790.57	2064.35
790.74	2121.70
790.92	2256.86
791.09	2146.27
791.27	2213.85
791.44	2275.29
791.62	2121.70
791.79	2230.24
791.97	2152.42
792.15	2500.57
792.32	2250.72
792.50	2267.10
792.67	2383.84
792.85	2310.11
793.02	2267.10
793.20	2195.42
793.37	2056.16
793.55	2158.56
793.72	2101.22
793.90	2172.89
794.07	2146.27
794.25	2035.68
794.42	2220.00
794.60	2097.12
794.77	2203.61
794.95	2267.10
795.12	2338.78
795.30	2179.04
795.47	1992.67
795.65	2392.03
795.82	2191.33
796.00	2070.50
796.17	2146.27
796.34	2133.98
796.52	2140.13
796.69	2230.24
796.87	2260.96
797.04	2330.59
797.22	2193.37
797.39	2248.67
797.57	2170.85
797.74	2131.94
797.92	2133.98
798.09	2111.46
798.27	2252.77
798.44	2142.18
798.62	2105.31
798.79	2228.19
798.96	2201.57
799.14	2162.66
799.31	2441.18
799.49	2144.22
799.66	2068.45
799.84	2254.81
800.01	2025.44
800.19	2195.42
800.36	2052.06
800.53	2211.81
800.71	2252.77
800.88	2283.49
801.06	2074.59
801.23	2133.98
801.41	2105.31
801.58	2160.61
801.75	2119.65
801.93	2207.71
802.10	2334.68
802.28	2179.04
802.45	2105.31
802.63	2215.90
802.80	2330.59
802.97	2154.46
803.15	2222.05
803.32	2138.08
803.50	2193.37
803.67	2074.59
803.84	2064.35
804.02	2217.95
804.19	2172.89
804.37	1970.15
804.54	2066.40
804.71	2170.85
804.89	2224.09
805.06	2066.40
805.24	2093.02
805.41	2076.64
805.58	2156.51
805.76	2461.66
805.93	2220.00
806.10	2254.81
806.28	2258.91
806.45	2170.85
806.63	2285.53
806.80	2281.44
806.97	2174.94
807.15	2179.04
807.32	2215.90
807.49	2207.71
807.67	2084.83
807.84	2150.37
808.01	2062.30
808.19	2310.11
808.36	2422.75
808.54	2111.46
808.71	2076.64
808.88	2168.80
809.06	2281.44
809.23	2287.58
809.40	2136.03
809.58	2279.39
809.75	2191.33
809.92	2125.79
810.10	2353.12
810.27	2183.13
810.44	2207.71
810.62	2310.11
810.79	2138.08
810.96	2093.02
811.14	2154.46
811.31	2285.53
811.48	2308.06
811.66	2185.18
811.83	2285.53
812.00	2136.03
812.18	2213.85
812.35	2340.83
812.52	2220.00
812.69	2166.75
812.87	2170.85
813.04	2047.97
813.21	2203.61
813.39	2099.17
813.56	2047.97
813.73	2279.39
813.91	2088.93
814.08	2148.32
814.25	2199.52
814.42	2090.98
814.60	2209.76
814.77	2217.95
814.94	2179.04
815.12	2191.33
815.29	2363.36
815.46	2121.70
815.63	2195.42
815.81	2215.90
815.98	2172.89
816.15	2131.94
816.33	2166.75
816.50	2181.09
816.67	2156.51
816.84	2170.85
817.02	2080.74
817.19	2117.60
817.36	2217.95
817.53	2189.28
817.71	2117.60
817.88	2291.68
818.05	2195.42
818.22	2113.50
818.40	2338.78
818.57	2093.02
818.74	2158.56
818.91	2183.13
819.09	2199.52
819.26	2220.00
819.43	2146.27
819.60	2101.22
819.78	2209.76
819.95	2324.44
820.12	2138.08
820.29	2342.88
820.47	2207.71
820.64	2179.04
820.81	2037.73
820.98	2129.89
821.15	2179.04
821.33	2291.68
821.50	2084.83
821.67	2277.34
821.84	2154.46
822.02	2230.24
822.19	2332.64
822.36	2160.61
822.53	2201.57
822.70	2136.03
822.88	2183.13
823.05	2375.64
823.22	2187.23
823.39	2156.51
823.56	2181.09
823.74	2473.95
823.91	2047.97
824.08	2080.74
824.25	2076.64
824.42	2351.07
824.60	2031.58
824.77	2181.09
824.94	2224.09
825.11	2252.77
825.28	2066.40
825.45	2211.81
825.63	2308.06
825.80	2162.66
825.97	2291.68
826.14	2215.90
826.31	2052.06
826.48	2209.76
826.66	2148.32
826.83	2090.98
827.00	2193.37
827.17	2129.89
827.34	2150.37
827.51	2109.41
827.69	2168.80
827.86	1998.82
828.03	2131.94
828.20	2185.18
828.37	2111.46
828.54	2244.57
828.71	2088.93
828.89	2322.40
829.06	2285.53
829.23	2252.77
829.40	2062.30
829.57	2062.30
829.74	2226.14
829.91	2211.81
830.09	2209.76
830.26	2226.14
830.43	2363.36
830.60	2107.36
830.77	2189.28
830.94	2318.30
831.11	2260.96
831.28	2197.47
831.46	2244.57
831.63	2095.07
831.80	2211.81
831.97	2105.31
832.14	2191.33
832.31	2230.24
832.48	2168.80
832.65	2295.77
832.82	2179.04
832.99	2230.24
833.17	2154.46
833.34	2365.40
833.51	2191.33
833.68	1970.15
833.85	2230.24
834.02	2066.40
834.19	2111.46
834.36	2158.56
834.53	2215.90
834.70	2252.77
834.87	2236.38
835.04	2090.98
835.22	2170.85
835.39	2031.58
835.56	2023.39
835.73	2170.85
835.90	2215.90
836.07	2150.37
836.24	2207.71
836.41	2140.13
836.58	2187.23
836.75	2248.67
836.92	2144.22
837.09	2103.26
837.26	2285.53
837.43	2248.67
837.60	2217.95
837.77	2125.79
837.94	2244.57
838.12	2336.73
838.29	2199.52
838.46	1996.77
838.63	2160.61
838.80	2346.97
838.97	2197.47
839.14	2097.12
839.31	2238.43
839.48	2242.53
839.65	2107.36
839.82	2168.80
839.99	2234.33
840.16	2256.86
840.33	2121.70
840.50	2230.24
840.67	2129.89
840.84	2004.96
841.01	2179.04
841.18	2113.50
841.35	2111.46
841.52	2277.34
841.69	2453.47
841.86	2099.17
842.03	2238.43
842.20	2238.43
842.37	2113.50
842.54	2203.61
842.71	2199.52
842.88	2047.97
843.05	2242.53
843.22	2088.93
843.39	2295.77
843.56	2017.25
843.73	2170.85
843.90	2234.33
844.07	2246.62
844.24	2306.01
844.41	2291.68
844.58	2179.04
844.75	2179.04
844.92	2199.52
845.09	2187.23
845.26	2142.18
845.43	2234.33
845.60	2181.09
845.77	2295.77
845.94	2136.03
846.10	2269.15
846.27	2045.92
846.44	2107.36
846.61	2070.50
846.78	2293.72
846.95	2269.15
847.12	2129.89
847.29	2115.55
847.46	2107.36
847.63	2144.22
847.80	2117.60
847.97	2119.65
848.14	2367.45
848.31	2236.38
848.48	2123.74
848.65	2230.24
848.82	2146.27
848.98	2529.24
849.15	2207.71
849.32	2258.91
849.49	2269.15
849.66	2207.71
849.83	2095.07
850.00	2047.97
850.17	2205.66
850.34	2248.67
850.51	2148.32
850.68	2080.74
850.85	2420.70
851.01	2232.29
851.18	2236.38
851.35	2191.33
851.52	2217.95
851.69	2318.30
851.86	2035.68
852.03	2133.98
852.20	2303.96
852.37	2203.61
852.53	2023.39
852.70	2093.02
852.87	2172.89
853.04	2285.53
853.21	2172.89
853.38	2224.09
853.55	2297.82
853.72	2314.20
853.89	2082.78
854.05	2058.21
854.22	2133.98
854.39	2162.66
854.56	2166.75
854.73	2238.43
854.90	2174.94
855.07	2136.03
855.23	2107.36
855.40	2119.65
855.57	2168.80
855.74	2056.16
855.91	2310.11
856.08	2041.82
856.25	2072.54
856.41	2138.08
856.58	2133.98
856.75	2215.90
856.92	2097.12
857.09	2267.10
857.26	2037.73
857.42	2176.99
857.59	2303.96
857.76	2191.33
857.93	2111.46
858.10	2174.94
858.27	2103.26
858.43	2185.18
858.60	2066.40
858.77	2039.78
858.94	2154.46
859.11	2303.96
859.27	2154.46
859.44	2164.70
859.61	2430.94
859.78	2234.33
859.95	2113.50
860.12	2131.94
860.28	2381.79
860.45	2392.03
860.62	2172.89
860.79	2240.48
860.95	2217.95
861.12	2121.70
861.29	2111.46
861.46	2121.70
861.63	2101.22
861.79	2234.33
861.96	2058.21
862.13	2158.56
862.30	2334.68
862.47	2224.09
862.63	2140.13
862.80	2205.66
862.97	2236.38
863.14	2320.35
863.30	2146.27
863.47	2086.88
863.64	2324.44
863.81	2252.77
863.97	2097.12
864.14	2185.18
864.31	2207.71
864.48	2213.85
864.65	2080.74
864.81	2230.24
864.98	2207.71
865.15	2242.53
865.32	2217.95
865.48	2297.82
865.65	2338.78
865.82	2095.07
865.98	2185.18
866.15	2232.29
866.32	2099.17
866.49	2189.28
866.65	2308.06
866.82	2129.89
866.99	2076.64
867.16	2150.37
867.32	2107.36
867.49	2136.03
867.66	2125.79
867.83	2142.18
867.99	2064.35
868.16	2105.31
868.33	2082.78
868.49	2250.72
868.66	2144.22
868.83	2220.00
868.99	2193.37
869.16	2062.30
869.33	2199.52
869.50	2203.61
869.66	2187.23
869.83	2164.70
870.00	2078.69
870.16	2273.25
870.33	2220.00
870.50	2303.96
870.66	2131.94
870.83	2275.29
871.00	2160.61
871.17	2222.05
871.33	2222.05
871.50	2105.31
871.67	2142.18
871.83	2031.58
872.00	2351.07
872.17	2140.13
872.33	2326.49
872.50	2285.53
872.67	2201.57
872.83	2099.17
873.00	2258.91
873.17	2185.18
873.33	2168.80
873.50	2213.85
873.67	2203.61
873.83	2097.12
874.00	2215.90
874.16	2263.01
874.33	2236.38
874.50	2070.50
874.66	2189.28
874.83	2222.05
875.00	2203.61
875.16	2256.86
875.33	2250.72
875.50	1988.58
875.66	2129.89
875.83	2273.25
875.99	2236.38
876.16	2191.33
876.33	2111.46
876.49	2201.57
876.66	2260.96
876.83	2129.89
876.99	2099.17
877.16	2133.98
877.32	2146.27
877.49	2138.08
877.66	2220.00
877.82	2230.24
877.99	2228.19
878.15	2277.34
878.32	2226.14
878.49	2254.81
878.65	2133.98
878.82	2256.86
878.98	2103.26
879.15	2185.18
879.32	2211.81
879.48	2242.53
879.65	2230.24
879.81	2144.22
879.98	2045.92
880.15	2064.35
880.31	2273.25
880.48	2027.49
880.64	2211.81
880.81	2230.24
880.97	2316.25
881.14	2291.68
881.31	2097.12
881.47	2293.72
881.64	2119.65
881.80	2060.26
881.97	2142.18
882.13	2230.24
882.30	2101.22
882.47	2123.74
882.63	2103.26
882.80	2080.74
882.96	2168.80
883.13	2375.64
883.29	2131.94
883.46	2103.26
883.62	2357.21
883.79	2207.71
883.95	2250.72
884.12	2174.94
884.29	2267.10
884.45	2185.18
884.62	2240.48
884.78	2099.17
884.95	2392.03
885.11	2088.93
885.28	2217.95
885.44	2176.99
885.61	2314.20
885.77	2353.12
885.94	2138.08
886.10	2228.19
886.27	2129.89
886.43	2260.96
886.60	2232.29
886.76	2101.22
886.93	2154.46
887.09	2181.09
887.26	2080.74
887.42	2146.27
887.59	2213.85
887.75	2383.84
887.92	2260.96
888.08	2211.81
888.25	2342.88
888.41	2285.53
888.58	2170.85
888.74	2119.65
888.91	2105.31
>>>>>End Processed Spectral Data<<<<<
