SpectraSuite Data File
++++++++++++++++++++++++++++++++++++
Date: Thu May 05 12:35:52 CEST 2016
User: root
Dark Spectrum Present: No
Reference Spectrum Present: No
Number of Sampled Component Spectra: 1
Spectrometers: USB4C02835
Integration Time (usec): 100000 (USB4C02835)
Spectra Averaged: 1 (USB4C02835)
Boxcar Smoothing: 0 (USB4C02835)
Correct for Electrical Dark: No (USB4C02835)
Strobe/Lamp Enabled: No (USB4C02835)
Correct for Detector Non-linearity: No (USB4C02835)
Correct for Stray Light: No (USB4C02835)
Number of Pixels in Processed Spectrum: 3648
>>>>>Begin Processed Spectral Data<<<<<
177.47	1798.12
177.69	1798.12
177.91	1798.12
178.13	1802.21
178.36	1728.49
178.58	2144.22
178.80	2176.99
179.02	2041.82
179.24	2111.46
179.46	2062.30
179.68	2170.85
179.90	2193.37
180.13	2201.57
180.35	2041.82
180.57	2115.55
180.79	2236.38
181.01	2176.99
181.23	2301.92
181.45	2226.14
181.67	2146.27
181.90	2183.13
182.12	2119.65
182.34	2076.64
182.56	2283.49
182.78	2246.62
183.00	2031.58
183.22	2125.79
183.44	2029.54
183.66	2473.95
183.89	2191.33
184.11	2136.03
184.33	2127.84
184.55	2289.63
184.77	2156.51
184.99	2133.98
185.21	2172.89
185.43	2422.75
185.65	2068.45
185.87	2138.08
186.10	2400.22
186.32	2516.95
186.54	2162.66
186.76	2195.42
186.98	2277.34
187.20	2166.75
187.42	2070.50
187.64	2101.22
187.86	2150.37
188.08	2281.44
188.30	2166.75
188.52	2146.27
188.75	2330.59
188.97	2375.64
189.19	2099.17
189.41	2105.31
189.63	2224.09
189.85	2138.08
190.07	2045.92
190.29	2000.87
190.51	2226.14
190.73	2054.11
190.95	2326.49
191.17	2127.84
191.39	2043.87
191.61	2148.32
191.84	2066.40
192.06	2207.71
192.28	2064.35
192.50	2469.85
192.72	2121.70
192.94	2170.85
193.16	2285.53
193.38	2236.38
193.60	2017.25
193.82	2097.12
194.04	2326.49
194.26	2224.09
194.48	2146.27
194.70	2047.97
194.92	2150.37
195.14	2324.44
195.36	2060.26
195.58	2191.33
195.80	2170.85
196.02	2097.12
196.24	2082.78
196.46	2154.46
196.69	2123.74
196.91	2410.46
197.13	2101.22
197.35	2088.93
197.57	2336.73
197.79	2246.62
198.01	2179.04
198.23	2148.32
198.45	2244.57
198.67	2056.16
198.89	2121.70
199.11	2152.42
199.33	2113.50
199.55	1957.86
199.77	2056.16
199.99	2277.34
200.21	2232.29
200.43	2164.70
200.65	2015.20
200.87	2033.63
201.09	2230.24
201.31	2226.14
201.53	2256.86
201.75	2142.18
201.97	2220.00
202.19	2193.37
202.41	2277.34
202.63	2224.09
202.85	2213.85
203.07	2211.81
203.29	2090.98
203.51	2090.98
203.73	2082.78
203.95	2467.80
204.17	2281.44
204.39	2203.61
204.61	2142.18
204.83	2101.22
205.05	2240.48
205.27	2215.90
205.49	2357.21
205.71	2179.04
205.93	2047.97
206.15	2064.35
206.37	2256.86
206.59	2129.89
206.81	2019.30
207.03	2009.06
207.25	2037.73
207.47	2338.78
207.69	2207.71
207.91	2326.49
208.13	2371.55
208.34	2197.47
208.56	2047.97
208.78	2164.70
209.00	2181.09
209.22	2121.70
209.44	2060.26
209.66	2103.26
209.88	2207.71
210.10	2191.33
210.32	2119.65
210.54	2248.67
210.76	2154.46
210.98	2265.05
211.20	1974.24
211.42	2195.42
211.64	2283.49
211.86	2236.38
212.08	2205.66
212.30	2117.60
212.52	2203.61
212.74	2277.34
212.96	2203.61
213.17	2224.09
213.39	2281.44
213.61	2299.87
213.83	2176.99
214.05	2127.84
214.27	2336.73
214.49	2084.83
214.71	2090.98
214.93	2205.66
215.15	2138.08
215.37	2211.81
215.59	1943.52
215.81	2121.70
216.03	2416.60
216.24	2191.33
216.46	2150.37
216.68	2170.85
216.90	2324.44
217.12	2363.36
217.34	1998.82
217.56	2185.18
217.78	2328.54
218.00	2293.72
218.22	2144.22
218.44	2181.09
218.66	2281.44
218.87	2387.93
219.09	2176.99
219.31	2174.94
219.53	2228.19
219.75	2131.94
219.97	2166.75
220.19	2111.46
220.41	2168.80
220.63	2353.12
220.85	2211.81
221.06	2148.32
221.28	2297.82
221.50	2187.23
221.72	2160.61
221.94	2047.97
222.16	2179.04
222.38	2244.57
222.60	2189.28
222.82	2185.18
223.03	2326.49
223.25	2078.69
223.47	2146.27
223.69	2367.45
223.91	2220.00
224.13	2277.34
224.35	2095.07
224.57	2252.77
224.78	2205.66
225.00	2172.89
225.22	2113.50
225.44	2201.57
225.66	2232.29
225.88	2105.31
226.10	2191.33
226.32	2209.76
226.53	2324.44
226.75	2125.79
226.97	2152.42
227.19	2158.56
227.41	2109.41
227.63	2185.18
227.85	2047.97
228.06	2142.18
228.28	2220.00
228.50	2179.04
228.72	2086.88
228.94	2138.08
229.16	2068.45
229.37	2070.50
229.59	2084.83
229.81	2269.15
230.03	2154.46
230.25	2076.64
230.47	2000.87
230.69	1980.39
230.90	2258.91
231.12	2133.98
231.34	2097.12
231.56	2156.51
231.78	2035.68
232.00	2201.57
232.21	2144.22
232.43	2119.65
232.65	2021.35
232.87	2195.42
233.09	2064.35
233.30	2125.79
233.52	2310.11
233.74	2205.66
233.96	2113.50
234.18	2170.85
234.40	2189.28
234.61	2306.01
234.83	2052.06
235.05	2158.56
235.27	2412.51
235.49	2256.86
235.70	2090.98
235.92	2174.94
236.14	2263.01
236.36	2457.56
236.58	1974.24
236.79	2226.14
237.01	2168.80
237.23	2228.19
237.45	2342.88
237.67	2127.84
237.88	2187.23
238.10	2385.88
238.32	2097.12
238.54	2107.36
238.76	2183.13
238.97	2117.60
239.19	2099.17
239.41	2207.71
239.63	2301.92
239.85	2121.70
240.06	2193.37
240.28	2103.26
240.50	2324.44
240.72	2197.47
240.93	2109.41
241.15	2197.47
241.37	2138.08
241.59	2306.01
241.81	2172.89
242.02	2068.45
242.24	2203.61
242.46	2285.53
242.68	2027.49
242.89	2123.74
243.11	2279.39
243.33	2244.57
243.55	2140.13
243.76	2084.83
243.98	2138.08
244.20	2084.83
244.42	2109.41
244.64	2156.51
244.85	2144.22
245.07	2109.41
245.29	2174.94
245.51	2144.22
245.72	2209.76
245.94	2246.62
246.16	2207.71
246.38	2250.72
246.59	2115.55
246.81	2201.57
247.03	2107.36
247.24	2025.44
247.46	2117.60
247.68	2258.91
247.90	2072.54
248.11	2140.13
248.33	2334.68
248.55	2170.85
248.77	2203.61
248.98	2162.66
249.20	2306.01
249.42	2236.38
249.64	2217.95
249.85	2119.65
250.07	2179.04
250.29	2269.15
250.50	2138.08
250.72	2109.41
250.94	2181.09
251.16	2428.89
251.37	2271.20
251.59	2154.46
251.81	2271.20
252.02	2330.59
252.24	2113.50
252.46	2269.15
252.68	2117.60
252.89	2179.04
253.11	2027.49
253.33	2242.53
253.54	2328.54
253.76	2152.42
253.98	2088.93
254.20	2074.59
254.41	2064.35
254.63	2090.98
254.85	2080.74
255.06	2162.66
255.28	2334.68
255.50	2162.66
255.71	2080.74
255.93	2039.78
256.15	2152.42
256.36	2242.53
256.58	2105.31
256.80	2142.18
257.02	2154.46
257.23	2080.74
257.45	2211.81
257.67	2199.52
257.88	2127.84
258.10	2293.72
258.32	2162.66
258.53	2226.14
258.75	2373.60
258.97	2088.93
259.18	2045.92
259.40	2111.46
259.62	2287.58
259.83	2330.59
260.05	2162.66
260.27	2629.59
260.48	2260.96
260.70	2074.59
260.92	2062.30
261.13	2174.94
261.35	2232.29
261.57	2207.71
261.78	2037.73
262.00	2066.40
262.22	2246.62
262.43	2150.37
262.65	2111.46
262.86	2179.04
263.08	2392.03
263.30	2142.18
263.51	2023.39
263.73	2035.68
263.95	2351.07
264.16	2064.35
264.38	2045.92
264.60	2037.73
264.81	2224.09
265.03	2265.05
265.25	2265.05
265.46	2097.12
265.68	2316.25
265.89	2252.77
266.11	1968.10
266.33	2144.22
266.54	2346.97
266.76	2195.42
266.98	2220.00
267.19	2244.57
267.41	2293.72
267.62	2142.18
267.84	2015.20
268.06	2189.28
268.27	2133.98
268.49	2318.30
268.70	2158.56
268.92	2142.18
269.14	2105.31
269.35	2072.54
269.57	2179.04
269.79	2164.70
270.00	2111.46
270.22	2367.45
270.43	2093.02
270.65	1976.29
270.87	2207.71
271.08	2291.68
271.30	2301.92
271.51	2111.46
271.73	2248.67
271.95	2340.83
272.16	2187.23
272.38	2166.75
272.59	2152.42
272.81	2291.68
273.02	2181.09
273.24	2140.13
273.46	2308.06
273.67	2113.50
273.89	2035.68
274.10	2121.70
274.32	2318.30
274.54	2176.99
274.75	2207.71
274.97	2111.46
275.18	2234.33
275.40	2209.76
275.61	2140.13
275.83	2162.66
276.05	2068.45
276.26	2234.33
276.48	2295.77
276.69	2203.61
276.91	2064.35
277.12	2320.35
277.34	2240.48
277.55	2215.90
277.77	2263.01
277.99	2103.26
278.20	2125.79
278.42	2035.68
278.63	2127.84
278.85	2154.46
279.06	2076.64
279.28	2222.05
279.49	2326.49
279.71	2252.77
279.93	2154.46
280.14	2158.56
280.36	2174.94
280.57	2285.53
280.79	2199.52
281.00	2136.03
281.22	2131.94
281.43	2316.25
281.65	1974.24
281.86	2068.45
282.08	2293.72
282.29	2371.55
282.51	2084.83
282.73	2090.98
282.94	1976.29
283.16	2215.90
283.37	2326.49
283.59	2181.09
283.80	2242.53
284.02	2185.18
284.23	2238.43
284.45	2166.75
284.66	2021.35
284.88	2205.66
285.09	2158.56
285.31	2250.72
285.52	2203.61
285.74	2072.54
285.95	2283.49
286.17	2215.90
286.38	2220.00
286.60	2203.61
286.81	2088.93
287.03	2183.13
287.24	2211.81
287.46	2172.89
287.67	2217.95
287.89	2293.72
288.10	2224.09
288.32	2232.29
288.53	2236.38
288.75	2162.66
288.96	2258.91
289.18	2162.66
289.39	2220.00
289.61	2228.19
289.82	2408.41
290.04	2416.60
290.25	2090.98
290.47	2246.62
290.68	2211.81
290.90	2197.47
291.11	2007.01
291.33	2273.25
291.54	2125.79
291.76	2123.74
291.97	2144.22
292.18	2240.48
292.40	2146.27
292.61	2099.17
292.83	2381.79
293.04	2164.70
293.26	2248.67
293.47	2203.61
293.69	2068.45
293.90	2133.98
294.12	2287.58
294.33	2252.77
294.55	2111.46
294.76	2293.72
294.97	2389.98
295.19	2381.79
295.40	2179.04
295.62	2232.29
295.83	2244.57
296.05	2121.70
296.26	2402.27
296.48	2113.50
296.69	2220.00
296.90	2222.05
297.12	2283.49
297.33	2220.00
297.55	2232.29
297.76	2248.67
297.98	2295.77
298.19	2158.56
298.41	2176.99
298.62	2166.75
298.83	2269.15
299.05	2230.24
299.26	2215.90
299.48	2109.41
299.69	2203.61
299.90	2166.75
300.12	2035.68
300.33	2258.91
300.55	2121.70
300.76	2220.00
300.98	2068.45
301.19	2277.34
301.40	2097.12
301.62	2152.42
301.83	2267.10
302.05	2199.52
302.26	2201.57
302.47	2195.42
302.69	2101.22
302.90	2226.14
303.12	1986.53
303.33	2254.81
303.54	2394.08
303.76	2144.22
303.97	2207.71
304.19	2275.29
304.40	2113.50
304.61	2228.19
304.83	2344.92
305.04	2326.49
305.26	2246.62
305.47	2187.23
305.68	2152.42
305.90	2111.46
306.11	2269.15
306.33	2127.84
306.54	2109.41
306.75	2068.45
306.97	2052.06
307.18	2172.89
307.39	2195.42
307.61	2299.87
307.82	2176.99
308.04	2260.96
308.25	2095.07
308.46	2191.33
308.68	2234.33
308.89	2097.12
309.10	2291.68
309.32	2224.09
309.53	2193.37
309.74	2156.51
309.96	2129.89
310.17	2269.15
310.39	2121.70
310.60	2252.77
310.81	2172.89
311.03	2013.15
311.24	2224.09
311.45	2103.26
311.67	2404.32
311.88	2199.52
312.09	2109.41
312.31	2172.89
312.52	2097.12
312.73	2168.80
312.95	2027.49
313.16	2152.42
313.37	2263.01
313.59	2191.33
313.80	2338.78
314.01	2379.74
314.23	2152.42
314.44	2207.71
314.65	2142.18
314.87	2142.18
315.08	2193.37
315.29	2150.37
315.51	2031.58
315.72	2111.46
315.93	2342.88
316.15	2236.38
316.36	2136.03
316.57	2222.05
316.79	2254.81
317.00	2138.08
317.21	2193.37
317.43	2136.03
317.64	2187.23
317.85	2107.36
318.07	2095.07
318.28	2156.51
318.49	2414.56
318.70	2484.19
318.92	2338.78
319.13	2334.68
319.34	2379.74
319.56	2326.49
319.77	2306.01
319.98	2346.97
320.20	2291.68
320.41	2306.01
320.62	2310.11
320.83	2129.89
321.05	2355.16
321.26	2117.60
321.47	2119.65
321.69	2301.92
321.90	2127.84
322.11	2138.08
322.32	2109.41
322.54	2361.31
322.75	2113.50
322.96	2447.32
323.18	2111.46
323.39	2084.83
323.60	2162.66
323.81	2217.95
324.03	2142.18
324.24	2058.21
324.45	2181.09
324.66	2111.46
324.88	2240.48
325.09	2330.59
325.30	2127.84
325.52	2203.61
325.73	2209.76
325.94	2109.41
326.15	2035.68
326.37	2054.11
326.58	2256.86
326.79	2238.43
327.00	2072.54
327.22	2148.32
327.43	2256.86
327.64	2160.61
327.85	2281.44
328.07	2224.09
328.28	2267.10
328.49	2082.78
328.70	2127.84
328.92	2109.41
329.13	2207.71
329.34	2185.18
329.55	2375.64
329.76	2250.72
329.98	2170.85
330.19	2355.16
330.40	2193.37
330.61	2185.18
330.83	2301.92
331.04	2185.18
331.25	2244.57
331.46	2144.22
331.68	2131.94
331.89	2312.16
332.10	2162.66
332.31	2062.30
332.52	2211.81
332.74	2297.82
332.95	2054.11
333.16	2197.47
333.37	2248.67
333.58	2107.36
333.80	2125.79
334.01	2007.01
334.22	2183.13
334.43	2150.37
334.64	2138.08
334.86	2052.06
335.07	2121.70
335.28	2394.08
335.49	2154.46
335.70	2258.91
335.92	2265.05
336.13	2473.95
336.34	2207.71
336.55	2211.81
336.76	2256.86
336.98	2052.06
337.19	2203.61
337.40	2342.88
337.61	2482.14
337.82	2170.85
338.04	2244.57
338.25	2043.87
338.46	2195.42
338.67	2179.04
338.88	2101.22
339.09	2074.59
339.31	2119.65
339.52	2070.50
339.73	2093.02
339.94	2209.76
340.15	2228.19
340.36	2164.70
340.58	2273.25
340.79	2072.54
341.00	2199.52
341.21	2064.35
341.42	2377.69
341.63	2140.13
341.85	2332.64
342.06	2199.52
342.27	2025.44
342.48	2215.90
342.69	2060.26
342.90	2197.47
343.12	2279.39
343.33	2070.50
343.54	2308.06
343.75	2301.92
343.96	2195.42
344.17	2156.51
344.38	2232.29
344.60	2047.97
344.81	2146.27
345.02	2191.33
345.23	2256.86
345.44	2514.91
345.65	2224.09
345.86	2240.48
346.07	2254.81
346.29	2152.42
346.50	2199.52
346.71	2279.39
346.92	2273.25
347.13	2392.03
347.34	2158.56
347.55	2127.84
347.76	2217.95
347.98	2033.63
348.19	2172.89
348.40	2316.25
348.61	2162.66
348.82	2369.50
349.03	2258.91
349.24	2111.46
349.45	2377.69
349.66	2002.91
349.88	2228.19
350.09	2119.65
350.30	2326.49
350.51	2303.96
350.72	2203.61
350.93	2310.11
351.14	2113.50
351.35	2205.66
351.56	2193.37
351.77	2211.81
351.99	2236.38
352.20	2334.68
352.41	2283.49
352.62	1980.39
352.83	2162.66
353.04	2242.53
353.25	2111.46
353.46	2303.96
353.67	2285.53
353.88	2078.69
354.09	2095.07
354.30	2209.76
354.52	2181.09
354.73	2326.49
354.94	2131.94
355.15	2121.70
355.36	2389.98
355.57	2187.23
355.78	2168.80
355.99	2148.32
356.20	2152.42
356.41	2357.21
356.62	2172.89
356.83	2203.61
357.04	2312.16
357.25	2023.39
357.46	2113.50
357.68	2021.35
357.89	2121.70
358.10	2125.79
358.31	2146.27
358.52	2195.42
358.73	2097.12
358.94	2127.84
359.15	2142.18
359.36	2250.72
359.57	2289.63
359.78	2256.86
359.99	2179.04
360.20	2095.07
360.41	2195.42
360.62	2193.37
360.83	2201.57
361.04	2162.66
361.25	2258.91
361.46	2314.20
361.67	2228.19
361.88	2310.11
362.09	2267.10
362.30	2222.05
362.51	2121.70
362.72	2133.98
362.93	2297.82
363.14	2285.53
363.35	2195.42
363.56	2115.55
363.78	2275.29
363.99	2295.77
364.20	2054.11
364.41	2138.08
364.62	2379.74
364.83	2183.13
365.04	2131.94
365.25	2160.61
365.46	2416.60
365.67	2191.33
365.88	2246.62
366.09	2136.03
366.30	2162.66
366.51	2166.75
366.72	2093.02
366.93	2236.38
367.14	2162.66
367.35	2328.54
367.56	2187.23
367.77	2322.40
367.98	2111.46
368.18	2191.33
368.39	2215.90
368.60	2115.55
368.81	2232.29
369.02	2244.57
369.23	2168.80
369.44	2099.17
369.65	2193.37
369.86	2267.10
370.07	2256.86
370.28	2043.87
370.49	2226.14
370.70	2213.85
370.91	2152.42
371.12	2174.94
371.33	2269.15
371.54	2123.74
371.75	2357.21
371.96	2027.49
372.17	2211.81
372.38	2193.37
372.59	2256.86
372.80	2099.17
373.01	2154.46
373.22	2285.53
373.43	2138.08
373.64	2035.68
373.85	2269.15
374.06	2326.49
374.26	2293.72
374.47	2207.71
374.68	2271.20
374.89	2152.42
375.10	2236.38
375.31	2238.43
375.52	2215.90
375.73	2242.53
375.94	2129.89
376.15	2314.20
376.36	2158.56
376.57	2099.17
376.78	2129.89
376.99	2179.04
377.20	2375.64
377.40	2164.70
377.61	2400.22
377.82	2035.68
378.03	2281.44
378.24	2160.61
378.45	2138.08
378.66	2195.42
378.87	2047.97
379.08	2119.65
379.29	2111.46
379.50	2258.91
379.71	2242.53
379.91	2215.90
380.12	2162.66
380.33	2201.57
380.54	2193.37
380.75	2160.61
380.96	2197.47
381.17	2183.13
381.38	2209.76
381.59	2279.39
381.80	2203.61
382.00	2424.80
382.21	2271.20
382.42	2371.55
382.63	2432.99
382.84	2291.68
383.05	2297.82
383.26	2299.87
383.47	2179.04
383.68	2289.63
383.88	2242.53
384.09	2209.76
384.30	2396.12
384.51	2168.80
384.72	2070.50
384.93	2140.13
385.14	2226.14
385.35	2238.43
385.55	2047.97
385.76	2363.36
385.97	2133.98
386.18	2062.30
386.39	2125.79
386.60	2174.94
386.81	2166.75
387.02	2103.26
387.22	2152.42
387.43	2340.83
387.64	2301.92
387.85	2346.97
388.06	2420.70
388.27	3981.25
388.48	8439.68
388.68	12119.88
388.89	14419.75
389.10	15511.32
389.31	14407.46
389.52	11308.88
389.73	9457.52
389.93	8740.73
390.14	7942.02
390.35	7251.86
390.56	6559.64
390.77	5373.87
390.98	4003.78
391.18	3260.37
391.39	2799.57
391.60	2310.11
391.81	2412.51
392.02	2176.99
392.23	2310.11
392.43	2224.09
392.64	2303.96
392.85	2111.46
393.06	2322.40
393.27	2201.57
393.47	2082.78
393.68	2215.90
393.89	2160.61
394.10	2373.60
394.31	2121.70
394.52	2070.50
394.72	2152.42
394.93	2357.21
395.14	2095.07
395.35	2265.05
395.56	2119.65
395.76	2187.23
395.97	2308.06
396.18	2365.40
396.39	2326.49
396.60	2684.89
396.80	2467.80
397.01	2379.74
397.22	2383.84
397.43	2396.12
397.64	2258.91
397.84	2224.09
398.05	2424.80
398.26	2258.91
398.47	2201.57
398.67	2394.08
398.88	2176.99
399.09	2265.05
399.30	2181.09
399.51	2275.29
399.71	2174.94
399.92	2242.53
400.13	2215.90
400.34	2179.04
400.54	2185.18
400.75	2312.16
400.96	2236.38
401.17	2357.21
401.37	2242.53
401.58	2203.61
401.79	2217.95
402.00	2351.07
402.21	2580.44
402.41	2594.78
402.62	2617.30
402.83	2588.63
403.04	2668.50
403.24	2693.08
403.45	2306.01
403.66	2494.43
403.87	2432.99
404.07	2506.71
404.28	2480.09
404.49	2473.95
404.70	2224.09
404.90	2355.16
405.11	2242.53
405.32	2275.29
405.52	2199.52
405.73	2142.18
405.94	2154.46
406.15	2256.86
406.35	2236.38
406.56	2281.44
406.77	2193.37
406.98	2154.46
407.18	2187.23
407.39	2277.34
407.60	2232.29
407.80	2154.46
408.01	2217.95
408.22	2226.14
408.43	2070.50
408.63	2199.52
408.84	2334.68
409.05	2230.24
409.25	2125.79
409.46	2162.66
409.67	2154.46
409.88	2187.23
410.08	2244.57
410.29	2125.79
410.50	2308.06
410.70	2260.96
410.91	2146.27
411.12	2250.72
411.32	2252.77
411.53	2097.12
411.74	2234.33
411.95	2330.59
412.15	2336.73
412.36	2295.77
412.57	2342.88
412.77	2410.46
412.98	2236.38
413.19	2207.71
413.39	2260.96
413.60	2215.90
413.81	2330.59
414.01	2136.03
414.22	2195.42
414.43	2244.57
414.63	2185.18
414.84	2361.31
415.05	2183.13
415.25	2121.70
415.46	2312.16
415.67	2117.60
415.87	2226.14
416.08	2187.23
416.29	2138.08
416.49	2263.01
416.70	2191.33
416.91	2193.37
417.11	2258.91
417.32	2248.67
417.53	2293.72
417.73	2285.53
417.94	2095.07
418.15	2246.62
418.35	2185.18
418.56	2191.33
418.77	2406.36
418.97	2215.90
419.18	2179.04
419.38	2009.06
419.59	2211.81
419.80	2289.63
420.00	2220.00
420.21	2207.71
420.42	2402.27
420.62	2191.33
420.83	2103.26
421.04	2144.22
421.24	2136.03
421.45	2310.11
421.65	2240.48
421.86	2062.30
422.07	2232.29
422.27	2226.14
422.48	2201.57
422.69	2093.02
422.89	2138.08
423.10	2142.18
423.30	2093.02
423.51	2195.42
423.72	2195.42
423.92	2396.12
424.13	2064.35
424.33	2176.99
424.54	2269.15
424.75	2213.85
424.95	2291.68
425.16	2232.29
425.36	2179.04
425.57	2367.45
425.78	2248.67
425.98	2263.01
426.19	2195.42
426.39	2039.78
426.60	2244.57
426.81	2213.85
427.01	2236.38
427.22	2146.27
427.42	2019.30
427.63	2144.22
427.83	2265.05
428.04	2394.08
428.25	2340.83
428.45	2281.44
428.66	2283.49
428.86	2269.15
429.07	2191.33
429.28	2228.19
429.48	2176.99
429.69	2109.41
429.89	2156.51
430.10	2090.98
430.30	2346.97
430.51	2297.82
430.71	2103.26
430.92	2203.61
431.13	2160.61
431.33	2232.29
431.54	2256.86
431.74	2355.16
431.95	2473.95
432.15	2062.30
432.36	2234.33
432.56	2260.96
432.77	2342.88
432.98	2306.01
433.18	2260.96
433.39	2111.46
433.59	2166.75
433.80	2420.70
434.00	2322.40
434.21	2228.19
434.41	2142.18
434.62	2338.78
434.82	2097.12
435.03	2142.18
435.23	2228.19
435.44	2019.30
435.64	2187.23
435.85	2226.14
436.06	2277.34
436.26	2336.73
436.47	2189.28
436.67	2133.98
436.88	2103.26
437.08	2301.92
437.29	2281.44
437.49	2277.34
437.70	2394.08
437.90	2230.24
438.11	2351.07
438.31	2230.24
438.52	2416.60
438.72	2373.60
438.93	2490.33
439.13	2312.16
439.34	2351.07
439.54	2136.03
439.75	2301.92
439.95	2293.72
440.16	2084.83
440.36	2193.37
440.57	2269.15
440.77	2236.38
440.98	2238.43
441.18	2238.43
441.39	2084.83
441.59	2056.16
441.80	2428.89
442.00	2250.72
442.21	2351.07
442.41	2031.58
442.62	2281.44
442.82	2131.94
443.02	2146.27
443.23	2289.63
443.43	2176.99
443.64	2267.10
443.84	2142.18
444.05	2371.55
444.25	2195.42
444.46	2220.00
444.66	2152.42
444.87	2316.25
445.07	2076.64
445.28	2152.42
445.48	2394.08
445.69	2248.67
445.89	2494.43
446.09	2222.05
446.30	2553.82
446.50	2691.03
446.71	4407.23
446.91	5502.89
447.12	6307.74
447.32	6537.12
447.53	6272.93
447.73	5173.17
447.93	4544.44
448.14	4247.49
448.34	4020.16
448.55	3659.72
448.75	3588.04
448.96	3475.40
449.16	3084.24
449.36	2838.48
449.57	2486.23
449.77	2346.97
449.98	2285.53
450.18	2240.48
450.39	2258.91
450.59	2314.20
450.79	2201.57
451.00	2187.23
451.20	2306.01
451.41	2260.96
451.61	2267.10
451.81	2267.10
452.02	2154.46
452.22	2154.46
452.43	2156.51
452.63	2228.19
452.84	2213.85
453.04	2191.33
453.24	2238.43
453.45	2183.13
453.65	2105.31
453.86	2224.09
454.06	2260.96
454.26	2195.42
454.47	2076.64
454.67	2306.01
454.87	2260.96
455.08	2197.47
455.28	2365.40
455.49	2232.29
455.69	2125.79
455.89	2430.94
456.10	2351.07
456.30	2119.65
456.51	2283.49
456.71	2277.34
456.91	2199.52
457.12	2246.62
457.32	2289.63
457.52	2195.42
457.73	2273.25
457.93	2232.29
458.14	2121.70
458.34	2064.35
458.54	2121.70
458.75	2193.37
458.95	2371.55
459.15	2318.30
459.36	2217.95
459.56	2275.29
459.76	2469.85
459.97	2232.29
460.17	2217.95
460.37	2285.53
460.58	2189.28
460.78	2314.20
460.99	2131.94
461.19	2170.85
461.39	2189.28
461.60	2174.94
461.80	2127.84
462.00	2148.32
462.21	2142.18
462.41	2152.42
462.61	2129.89
462.82	2047.97
463.02	2256.86
463.22	2222.05
463.43	2318.30
463.63	2170.85
463.83	2349.02
464.04	2228.19
464.24	2193.37
464.44	2129.89
464.64	2162.66
464.85	2275.29
465.05	2236.38
465.25	2230.24
465.46	2164.70
465.66	2308.06
465.86	2191.33
466.07	2170.85
466.27	2217.95
466.47	2101.22
466.68	2119.65
466.88	2291.68
467.08	2349.02
467.29	2258.91
467.49	2215.90
467.69	2197.47
467.89	2285.53
468.10	2183.13
468.30	2211.81
468.50	2330.59
468.71	2332.64
468.91	2117.60
469.11	2332.64
469.31	2256.86
469.52	2072.54
469.72	2342.88
469.92	2367.45
470.13	2228.19
470.33	2234.33
470.53	2392.03
470.73	2609.11
470.94	3119.06
471.14	3268.56
471.34	3532.75
471.54	3438.54
471.75	3143.63
471.95	2858.96
472.15	2752.47
472.36	2781.14
472.56	2719.70
472.76	2791.38
472.96	2686.94
473.17	2516.95
473.37	2531.29
473.57	2246.62
473.77	2326.49
473.98	2195.42
474.18	2050.02
474.38	2482.14
474.58	2162.66
474.79	2125.79
474.99	2228.19
475.19	2369.50
475.39	2093.02
475.60	2263.01
475.80	2158.56
476.00	2240.48
476.20	2273.25
476.41	2228.19
476.61	2346.97
476.81	2346.97
477.01	2154.46
477.21	2428.89
477.42	2252.77
477.62	2097.12
477.82	2287.58
478.02	2127.84
478.23	2291.68
478.43	2136.03
478.63	2154.46
478.83	2148.32
479.03	2224.09
479.24	2330.59
479.44	2416.60
479.64	2107.36
479.84	2039.78
480.04	2185.18
480.25	2230.24
480.45	2125.79
480.65	2197.47
480.85	2355.16
481.06	2113.50
481.26	2217.95
481.46	2203.61
481.66	2279.39
481.86	2088.93
482.06	2269.15
482.27	2101.22
482.47	2156.51
482.67	2267.10
482.87	2205.66
483.07	2263.01
483.28	2220.00
483.48	2070.50
483.68	2203.61
483.88	2115.55
484.08	2076.64
484.29	2101.22
484.49	2176.99
484.69	2119.65
484.89	2346.97
485.09	2277.34
485.29	2244.57
485.50	2314.20
485.70	2256.86
485.90	2295.77
486.10	2195.42
486.30	2215.90
486.50	2346.97
486.71	2248.67
486.91	2289.63
487.11	2312.16
487.31	2074.59
487.51	2238.43
487.71	2072.54
487.91	2121.70
488.12	2129.89
488.32	2015.20
488.52	2193.37
488.72	2035.68
488.92	2220.00
489.12	2224.09
489.32	2324.44
489.53	2185.18
489.73	2097.12
489.93	2353.12
490.13	2146.27
490.33	2119.65
490.53	2228.19
490.73	2340.83
490.94	2107.36
491.14	2299.87
491.34	2301.92
491.54	2633.69
491.74	3211.22
491.94	3753.93
492.14	4054.98
492.34	4116.42
492.54	3755.97
492.75	3174.35
492.95	3135.44
493.15	2942.93
493.35	2867.16
493.55	2848.72
493.75	2775.00
493.95	2760.66
494.15	2486.23
494.35	2394.08
494.56	2371.55
494.76	2252.77
494.96	2234.33
495.16	2211.81
495.36	2226.14
495.56	2234.33
495.76	2168.80
495.96	2152.42
496.16	2086.88
496.36	2359.26
496.56	2236.38
496.77	2248.67
496.97	2289.63
497.17	2340.83
497.37	2093.02
497.57	2248.67
497.77	2254.81
497.97	2107.36
498.17	2215.90
498.37	2121.70
498.57	2258.91
498.77	2154.46
498.97	2320.35
499.17	2312.16
499.38	2150.37
499.58	2310.11
499.78	2359.26
499.98	2375.64
500.18	2252.77
500.38	2136.03
500.58	2357.21
500.78	2836.44
500.98	5124.02
501.18	7202.71
501.38	8787.83
501.58	9860.97
501.78	9832.30
501.98	7604.11
502.18	6317.98
502.38	5519.28
502.58	5078.96
502.78	4763.58
502.98	4440.00
503.18	4202.43
503.38	3895.24
503.59	3416.01
503.79	3176.40
503.99	2940.88
504.19	2848.72
504.39	2879.44
504.59	2856.92
504.79	2891.73
504.99	2885.59
505.19	2543.58
505.39	2588.63
505.59	2619.35
505.79	2469.85
505.99	2412.51
506.19	2365.40
506.39	2424.80
506.59	2170.85
506.79	2242.53
506.99	2371.55
507.19	2301.92
507.39	2199.52
507.59	2074.59
507.79	2234.33
507.99	2138.08
508.19	2258.91
508.39	2199.52
508.59	2201.57
508.79	2392.03
508.99	2441.18
509.19	2138.08
509.39	2377.69
509.59	2195.42
509.79	2119.65
509.99	2260.96
510.19	2373.60
510.39	2269.15
510.59	2226.14
510.79	2138.08
510.99	2105.31
511.19	2250.72
511.39	2408.41
511.59	2353.12
511.79	2252.77
511.99	2166.75
512.19	2394.08
512.38	2273.25
512.58	2207.71
512.78	2244.57
512.98	2342.88
513.18	2334.68
513.38	2015.20
513.58	2168.80
513.78	2238.43
513.98	2183.13
514.18	2232.29
514.38	2242.53
514.58	2326.49
514.78	2164.70
514.98	2133.98
515.18	2246.62
515.38	2041.82
515.58	2342.88
515.78	2093.02
515.98	2150.37
516.18	2285.53
516.38	2187.23
516.57	2176.99
516.77	2152.42
516.97	2334.68
517.17	2123.74
517.37	2021.35
517.57	2287.58
517.77	2217.95
517.97	2160.61
518.17	2303.96
518.37	2179.04
518.57	2220.00
518.77	2187.23
518.97	2242.53
519.16	2295.77
519.36	2355.16
519.56	2174.94
519.76	2187.23
519.96	2133.98
520.16	2310.11
520.36	2146.27
520.56	2330.59
520.76	2166.75
520.96	2234.33
521.16	2363.36
521.35	2367.45
521.55	2349.02
521.75	2121.70
521.95	2217.95
522.15	2215.90
522.35	2064.35
522.55	2174.94
522.75	2326.49
522.95	2199.52
523.14	2103.26
523.34	2203.61
523.54	2097.12
523.74	2301.92
523.94	2201.57
524.14	2035.68
524.34	2277.34
524.54	2351.07
524.73	2205.66
524.93	2330.59
525.13	2250.72
525.33	2176.99
525.53	2361.31
525.73	2297.82
525.93	2236.38
526.13	2129.89
526.32	2144.22
526.52	2334.68
526.72	2316.25
526.92	2138.08
527.12	2158.56
527.32	2146.27
527.52	2226.14
527.71	2265.05
527.91	2183.13
528.11	2187.23
528.31	2234.33
528.51	2097.12
528.71	2269.15
528.90	2226.14
529.10	2371.55
529.30	2254.81
529.50	2052.06
529.70	2207.71
529.90	2154.46
530.09	2211.81
530.29	2117.60
530.49	2111.46
530.69	2445.27
530.89	2172.89
531.09	2228.19
531.28	2183.13
531.48	2367.45
531.68	2244.57
531.88	2252.77
532.08	2359.26
532.28	2105.31
532.47	2254.81
532.67	2342.88
532.87	2275.29
533.07	2138.08
533.27	2336.73
533.46	2224.09
533.66	2314.20
533.86	2215.90
534.06	2232.29
534.26	2217.95
534.45	2179.04
534.65	2293.72
534.85	2248.67
535.05	2170.85
535.25	2252.77
535.44	2068.45
535.64	2256.86
535.84	2193.37
536.04	2211.81
536.24	2179.04
536.43	2099.17
536.63	2244.57
536.83	2199.52
537.03	2230.24
537.22	2095.07
537.42	2019.30
537.62	2220.00
537.82	2095.07
538.02	2226.14
538.21	2422.75
538.41	2531.29
538.61	2254.81
538.81	2189.28
539.00	2242.53
539.20	2045.92
539.40	2179.04
539.60	2265.05
539.79	2224.09
539.99	2189.28
540.19	2023.39
540.39	2144.22
540.58	2258.91
540.78	2291.68
540.98	2222.05
541.18	2273.25
541.37	2265.05
541.57	2179.04
541.77	2234.33
541.97	2131.94
542.16	2033.63
542.36	2181.09
542.56	2203.61
542.76	2379.74
542.95	2269.15
543.15	2258.91
543.35	2310.11
543.54	2162.66
543.74	2121.70
543.94	2287.58
544.14	2195.42
544.33	2287.58
544.53	2138.08
544.73	2095.07
544.93	2162.66
545.12	2248.67
545.32	2199.52
545.52	2232.29
545.71	2179.04
545.91	2144.22
546.11	2170.85
546.30	2117.60
546.50	2168.80
546.70	2195.42
546.90	2176.99
547.09	2031.58
547.29	2213.85
547.49	2238.43
547.68	2224.09
547.88	2162.66
548.08	2367.45
548.27	2695.13
548.47	2154.46
548.67	2213.85
548.87	2240.48
549.06	2170.85
549.26	2224.09
549.46	2211.81
549.65	2162.66
549.85	2144.22
550.05	2236.38
550.24	2052.06
550.44	2131.94
550.64	2234.33
550.83	2156.51
551.03	2308.06
551.23	2342.88
551.42	2244.57
551.62	2174.94
551.82	2279.39
552.01	2101.22
552.21	2267.10
552.41	2162.66
552.60	2373.60
552.80	2187.23
553.00	2187.23
553.19	2273.25
553.39	2373.60
553.59	2185.18
553.78	2209.76
553.98	2222.05
554.17	2097.12
554.37	2254.81
554.57	2168.80
554.76	2070.50
554.96	2166.75
555.16	2138.08
555.35	2275.29
555.55	2267.10
555.75	2205.66
555.94	2310.11
556.14	2136.03
556.33	2269.15
556.53	2269.15
556.73	2230.24
556.92	2215.90
557.12	2340.83
557.32	2457.56
557.51	2303.96
557.71	2220.00
557.90	2314.20
558.10	2355.16
558.30	2164.70
558.49	2105.31
558.69	2166.75
558.88	2271.20
559.08	2285.53
559.28	2158.56
559.47	2203.61
559.67	2252.77
559.86	2375.64
560.06	2166.75
560.26	2154.46
560.45	2242.53
560.65	2160.61
560.84	2330.59
561.04	2160.61
561.24	2297.82
561.43	2088.93
561.63	2410.46
561.82	2230.24
562.02	2207.71
562.22	2103.26
562.41	2179.04
562.61	2209.76
562.80	2072.54
563.00	2500.57
563.19	2160.61
563.39	2234.33
563.59	2244.57
563.78	2129.89
563.98	2023.39
564.17	2158.56
564.37	2125.79
564.56	2226.14
564.76	2080.74
564.96	2342.88
565.15	2176.99
565.35	2441.18
565.54	2277.34
565.74	2301.92
565.93	2275.29
566.13	2222.05
566.32	2256.86
566.52	2250.72
566.71	2260.96
566.91	2201.57
567.11	2293.72
567.30	2160.61
567.50	2283.49
567.69	2228.19
567.89	2195.42
568.08	2146.27
568.28	2254.81
568.47	2220.00
568.67	2144.22
568.86	2168.80
569.06	2306.01
569.25	2203.61
569.45	2078.69
569.64	2232.29
569.84	2168.80
570.04	2314.20
570.23	2113.50
570.43	2138.08
570.62	2283.49
570.82	2432.99
571.01	2103.26
571.21	2150.37
571.40	2117.60
571.60	2310.11
571.79	2299.87
571.99	2158.56
572.18	2088.93
572.38	2258.91
572.57	2174.94
572.77	2230.24
572.96	2398.17
573.16	2172.89
573.35	2220.00
573.55	2351.07
573.74	2265.05
573.94	2195.42
574.13	2232.29
574.33	2365.40
574.52	2256.86
574.71	2213.85
574.91	2324.44
575.10	2152.42
575.30	2217.95
575.49	2121.70
575.69	2168.80
575.88	2295.77
576.08	2215.90
576.27	2394.08
576.47	2220.00
576.66	2410.46
576.86	2359.26
577.05	2238.43
577.25	2228.19
577.44	2463.71
577.64	2252.77
577.83	2299.87
578.02	2187.23
578.22	2312.16
578.41	2392.03
578.61	2203.61
578.80	2111.46
579.00	2246.62
579.19	2248.67
579.39	2285.53
579.58	2328.54
579.77	2252.77
579.97	2449.37
580.16	2353.12
580.36	2320.35
580.55	2308.06
580.75	2277.34
580.94	2265.05
581.13	2449.37
581.33	2394.08
581.52	2250.72
581.72	2514.91
581.91	2330.59
582.11	2236.38
582.30	2383.84
582.49	2265.05
582.69	2363.36
582.88	2295.77
583.08	2332.64
583.27	2394.08
583.47	2267.10
583.66	2125.79
583.85	2109.41
584.05	2314.20
584.24	2355.16
584.44	2287.58
584.63	2310.11
584.82	2367.45
585.02	2414.56
585.21	2359.26
585.41	2408.41
585.60	2340.83
585.79	2498.52
585.99	2428.89
586.18	2437.08
586.37	2899.92
586.57	4503.48
586.76	13176.63
586.96	32040.47
587.15	45706.57
587.34	54985.91
587.54	60232.81
587.73	55381.17
587.93	39007.66
588.12	29437.50
588.31	23594.65
588.51	20598.47
588.70	18851.55
588.89	17284.86
589.09	15091.48
589.28	12885.82
589.47	10506.08
589.67	8386.43
589.86	6354.85
590.06	4765.62
590.25	3762.12
590.44	3168.21
590.64	2822.10
590.83	2549.72
591.02	2496.47
591.22	2359.26
591.41	2326.49
591.60	2275.29
591.80	2508.76
591.99	2168.80
592.18	2246.62
592.38	2279.39
592.57	2154.46
592.76	2246.62
592.96	2312.16
593.15	2230.24
593.34	2299.87
593.54	2195.42
593.73	2396.12
593.92	2252.77
594.12	2377.69
594.31	2269.15
594.50	2420.70
594.70	2318.30
594.89	2473.95
595.08	2222.05
595.28	2283.49
595.47	2619.35
595.66	2291.68
595.86	2193.37
596.05	2215.90
596.24	2156.51
596.43	2402.27
596.63	2363.36
596.82	2238.43
597.01	2340.83
597.21	2439.13
597.40	2289.63
597.59	2326.49
597.79	2244.57
597.98	2297.82
598.17	2334.68
598.36	2277.34
598.56	2279.39
598.75	2228.19
598.94	2260.96
599.14	2133.98
599.33	2195.42
599.52	2293.72
599.71	2201.57
599.91	2324.44
600.10	2273.25
600.29	2183.13
600.48	2232.29
600.68	2258.91
600.87	2260.96
601.06	2133.98
601.26	2185.18
601.45	2279.39
601.64	2138.08
601.83	2357.21
602.03	2144.22
602.22	2117.60
602.41	2416.60
602.60	2471.90
602.80	2238.43
602.99	2326.49
603.18	2181.09
603.37	2162.66
603.57	2258.91
603.76	2326.49
603.95	2281.44
604.14	2160.61
604.34	2170.85
604.53	2244.57
604.72	2205.66
604.91	2226.14
605.10	2209.76
605.30	2121.70
605.49	2449.37
605.68	2217.95
605.87	2273.25
606.07	2174.94
606.26	2187.23
606.45	2248.67
606.64	2205.66
606.84	2170.85
607.03	2228.19
607.22	2400.22
607.41	2176.99
607.60	2211.81
607.80	2355.16
607.99	2189.28
608.18	2273.25
608.37	2242.53
608.56	2138.08
608.76	2299.87
608.95	2457.56
609.14	2297.82
609.33	2367.45
609.52	2435.03
609.72	2332.64
609.91	2256.86
610.10	2338.78
610.29	2346.97
610.48	2349.02
610.68	2295.77
610.87	2209.76
611.06	2279.39
611.25	2217.95
611.44	2310.11
611.63	2205.66
611.83	2365.40
612.02	2121.70
612.21	2248.67
612.40	2054.11
612.59	2119.65
612.79	2121.70
612.98	2224.09
613.17	2375.64
613.36	2248.67
613.55	2410.46
613.74	2310.11
613.93	2379.74
614.13	2459.61
614.32	2439.13
614.51	2439.13
614.70	2316.25
614.89	2226.14
615.08	2314.20
615.28	2699.22
615.47	2236.38
615.66	2291.68
615.85	2320.35
616.04	2428.89
616.23	2252.77
616.42	2269.15
616.62	2258.91
616.81	2232.29
617.00	2240.48
617.19	2281.44
617.38	2211.81
617.57	2176.99
617.76	2279.39
617.95	2293.72
618.15	2318.30
618.34	2416.60
618.53	2101.22
618.72	2316.25
618.91	2381.79
619.10	2277.34
619.29	2207.71
619.48	2222.05
619.68	2136.03
619.87	2246.62
620.06	2090.98
620.25	2273.25
620.44	2258.91
620.63	2201.57
620.82	2220.00
621.01	2297.82
621.20	2207.71
621.39	2281.44
621.59	2193.37
621.78	2236.38
621.97	2197.47
622.16	2289.63
622.35	2211.81
622.54	2228.19
622.73	2326.49
622.92	2117.60
623.11	2435.03
623.30	2240.48
623.49	2265.05
623.68	2080.74
623.88	2314.20
624.07	2211.81
624.26	2195.42
624.45	2209.76
624.64	2154.46
624.83	2246.62
625.02	2156.51
625.21	2203.61
625.40	2277.34
625.59	2359.26
625.78	2166.75
625.97	2277.34
626.16	2385.88
626.35	2344.92
626.54	2318.30
626.74	2381.79
626.93	2217.95
627.12	2138.08
627.31	2363.36
627.50	2211.81
627.69	2334.68
627.88	2185.18
628.07	2209.76
628.26	2199.52
628.45	2133.98
628.64	2086.88
628.83	2152.42
629.02	2107.36
629.21	2222.05
629.40	2179.04
629.59	2160.61
629.78	2140.13
629.97	2244.57
630.16	2220.00
630.35	2215.90
630.54	2265.05
630.73	2197.47
630.92	2273.25
631.11	2138.08
631.30	2228.19
631.49	2275.29
631.68	2170.85
631.87	2248.67
632.06	2080.74
632.25	2553.82
632.44	2250.72
632.63	2240.48
632.82	2324.44
633.01	2285.53
633.20	2326.49
633.39	2217.95
633.58	2209.76
633.77	2314.20
633.96	2299.87
634.15	2248.67
634.34	2236.38
634.53	2275.29
634.72	2244.57
634.91	2138.08
635.10	2308.06
635.29	2244.57
635.48	2232.29
635.67	2072.54
635.86	2107.36
636.05	2342.88
636.24	2211.81
636.43	2201.57
636.62	2232.29
636.81	2039.78
637.00	2183.13
637.19	2244.57
637.38	2170.85
637.57	2232.29
637.76	2293.72
637.95	2383.84
638.14	2166.75
638.33	2394.08
638.52	2301.92
638.71	2195.42
638.89	2168.80
639.08	2471.90
639.27	2365.40
639.46	2498.52
639.65	2842.58
639.84	2867.16
640.03	3137.49
640.22	2899.92
640.41	3012.56
640.60	2543.58
640.79	2592.73
640.98	2424.80
641.17	2351.07
641.36	2430.94
641.55	2353.12
641.74	2250.72
641.92	2158.56
642.11	2166.75
642.30	2183.13
642.49	2203.61
642.68	2097.12
642.87	2215.90
643.06	2306.01
643.25	2189.28
643.44	2162.66
643.63	2201.57
643.82	2340.83
644.00	2119.65
644.19	2236.38
644.38	2086.88
644.57	2205.66
644.76	2179.04
644.95	2176.99
645.14	2217.95
645.33	2099.17
645.52	2207.71
645.71	2068.45
645.89	2088.93
646.08	2148.32
646.27	2172.89
646.46	2400.22
646.65	2097.12
646.84	2158.56
647.03	2033.63
647.22	2220.00
647.40	2236.38
647.59	2170.85
647.78	2007.01
647.97	2088.93
648.16	2142.18
648.35	2295.77
648.54	2244.57
648.73	2125.79
648.91	2328.54
649.10	2224.09
649.29	2138.08
649.48	2131.94
649.67	2250.72
649.86	2285.53
650.05	2283.49
650.23	2451.42
650.42	2269.15
650.61	2428.89
650.80	2357.21
650.99	2543.58
651.18	2377.69
651.36	2334.68
651.55	2269.15
651.74	2326.49
651.93	2187.23
652.12	2162.66
652.31	2127.84
652.49	2195.42
652.68	2168.80
652.87	2334.68
653.06	2226.14
653.25	2312.16
653.44	2265.05
653.62	2310.11
653.81	2207.71
654.00	2269.15
654.19	2209.76
654.38	2549.72
654.56	2269.15
654.75	2142.18
654.94	2275.29
655.13	2260.96
655.32	2136.03
655.51	2265.05
655.69	2150.37
655.88	2326.49
656.07	2060.26
656.26	2246.62
656.45	2113.50
656.63	2252.77
656.82	2211.81
657.01	2287.58
657.20	2164.70
657.38	2392.03
657.57	2193.37
657.76	2033.63
657.95	2211.81
658.14	2129.89
658.32	2162.66
658.51	2093.02
658.70	2136.03
658.89	2273.25
659.08	2260.96
659.26	2365.40
659.45	2088.93
659.64	2375.64
659.83	2185.18
660.01	2545.63
660.20	2199.52
660.39	2394.08
660.58	2054.11
660.76	2357.21
660.95	2127.84
661.14	2224.09
661.33	2068.45
661.51	2168.80
661.70	2160.61
661.89	2246.62
662.08	2181.09
662.26	2052.06
662.45	2119.65
662.64	2418.65
662.83	2277.34
663.01	2074.59
663.20	2142.18
663.39	2265.05
663.58	2201.57
663.76	2148.32
663.95	2273.25
664.14	2121.70
664.32	2191.33
664.51	2144.22
664.70	2031.58
664.89	2226.14
665.07	2109.41
665.26	2297.82
665.45	2103.26
665.64	2351.07
665.82	2234.33
666.01	2283.49
666.20	2099.17
666.38	2279.39
666.57	2355.16
666.76	3266.51
666.95	7806.86
667.13	16250.63
667.32	21481.14
667.51	25253.50
667.69	27063.91
667.88	24997.51
668.07	17856.24
668.25	14466.85
668.44	11753.29
668.63	10170.21
668.81	9029.49
669.00	7823.24
669.19	7038.87
669.38	6051.75
669.56	5220.27
669.75	4308.93
669.94	3678.15
670.12	3090.38
670.31	2740.18
670.50	2547.67
670.68	2506.71
670.87	2402.27
671.06	2281.44
671.24	2299.87
671.43	2375.64
671.62	2310.11
671.80	2211.81
671.99	2271.20
672.18	2328.54
672.36	2271.20
672.55	2238.43
672.74	2244.57
672.92	2168.80
673.11	2287.58
673.29	2070.50
673.48	2308.06
673.67	2283.49
673.85	2346.97
674.04	2168.80
674.23	2215.90
674.41	2287.58
674.60	2111.46
674.79	2093.02
674.97	2164.70
675.16	2285.53
675.34	2371.55
675.53	2187.23
675.72	2228.19
675.90	2443.23
676.09	2172.89
676.28	2217.95
676.46	2039.78
676.65	2220.00
676.83	2031.58
677.02	2172.89
677.21	2269.15
677.39	2185.18
677.58	2152.42
677.77	2220.00
677.95	2101.22
678.14	2127.84
678.32	2207.71
678.51	2142.18
678.70	2287.58
678.88	2156.51
679.07	2213.85
679.25	2246.62
679.44	2158.56
679.63	2095.07
679.81	2277.34
680.00	2271.20
680.18	2260.96
680.37	2318.30
680.55	2234.33
680.74	2062.30
680.93	1994.72
681.11	2267.10
681.30	2205.66
681.48	2291.68
681.67	2119.65
681.85	2324.44
682.04	2152.42
682.23	2228.19
682.41	2138.08
682.60	2179.04
682.78	2207.71
682.97	2113.50
683.15	2263.01
683.34	2308.06
683.53	2351.07
683.71	2101.22
683.90	2320.35
684.08	2361.31
684.27	2211.81
684.45	2201.57
684.64	2365.40
684.82	2187.23
685.01	2176.99
685.19	2195.42
685.38	2328.54
685.57	2129.89
685.75	2158.56
685.94	2078.69
686.12	2166.75
686.31	2162.66
686.49	2367.45
686.68	2009.06
686.86	2176.99
687.05	2160.61
687.23	2332.64
687.42	2160.61
687.60	2054.11
687.79	2316.25
687.97	2351.07
688.16	2209.76
688.34	2387.93
688.53	2097.12
688.71	2248.67
688.90	2310.11
689.08	2170.85
689.27	2056.16
689.45	2314.20
689.64	2269.15
689.82	2244.57
690.01	2207.71
690.19	2246.62
690.38	2162.66
690.56	2365.40
690.75	2099.17
690.93	2101.22
691.12	2136.03
691.30	2279.39
691.49	2197.47
691.67	2125.79
691.86	2367.45
692.04	2113.50
692.23	2191.33
692.41	2287.58
692.60	2557.91
692.78	2369.50
692.97	2285.53
693.15	2349.02
693.34	2502.62
693.52	2373.60
693.71	2150.37
693.89	2285.53
694.08	2097.12
694.26	2295.77
694.44	2293.72
694.63	2273.25
694.81	2047.97
695.00	2140.13
695.18	2312.16
695.37	2467.80
695.55	2238.43
695.74	2115.55
695.92	2076.64
696.10	2338.78
696.29	2043.87
696.47	2121.70
696.66	2105.31
696.84	2056.16
697.03	2217.95
697.21	2373.60
697.40	3094.48
697.58	2269.15
697.76	2064.35
697.95	2187.23
698.13	2127.84
698.32	2138.08
698.50	2154.46
698.68	2209.76
698.87	2217.95
699.05	2422.75
699.24	2248.67
699.42	2080.74
699.61	2179.04
699.79	2211.81
699.97	2226.14
700.16	2146.27
700.34	2097.12
700.53	2228.19
700.71	2289.63
700.89	2287.58
701.08	2191.33
701.26	2191.33
701.45	2701.27
701.63	2111.46
701.81	2228.19
702.00	2197.47
702.18	2293.72
702.37	2189.28
702.55	2519.00
702.73	2402.27
702.92	2400.22
703.10	2564.06
703.28	2500.57
703.47	2289.63
703.65	2412.51
703.84	2396.12
704.02	2215.90
704.20	2400.22
704.39	2146.27
704.57	2195.42
704.75	2398.17
704.94	2330.59
705.12	2250.72
705.30	2531.29
705.49	4356.03
705.67	10792.80
705.86	19537.62
706.04	23666.33
706.22	27463.26
706.41	28583.50
706.59	24331.92
706.77	17090.30
706.96	14153.51
707.14	12465.99
707.32	10704.73
707.51	9387.89
707.69	8042.37
707.87	6479.77
708.06	5076.91
708.24	4206.53
708.42	3295.18
708.61	3084.24
708.79	2545.63
708.97	2367.45
709.16	2453.47
709.34	2357.21
709.52	2220.00
709.71	2271.20
709.89	2277.34
710.07	2144.22
710.26	2154.46
710.44	2209.76
710.62	2265.05
710.80	2226.14
710.99	2306.01
711.17	2267.10
711.35	2129.89
711.54	2148.32
711.72	2273.25
711.90	2228.19
712.09	2199.52
712.27	2113.50
712.45	2232.29
712.63	2142.18
712.82	2176.99
713.00	2176.99
713.18	2236.38
713.37	2248.67
713.55	2217.95
713.73	2224.09
713.91	2246.62
714.10	2121.70
714.28	2209.76
714.46	2277.34
714.65	2273.25
714.83	2183.13
715.01	2252.77
715.19	2174.94
715.38	2142.18
715.56	2220.00
715.74	2093.02
715.92	2162.66
716.11	2326.49
716.29	1980.39
716.47	2207.71
716.65	2193.37
716.84	2060.26
717.02	2379.74
717.20	2054.11
717.38	2140.13
717.57	2183.13
717.75	2195.42
717.93	2230.24
718.11	2207.71
718.30	2080.74
718.48	2197.47
718.66	2342.88
718.84	2328.54
719.03	2242.53
719.21	2093.02
719.39	2385.88
719.57	2306.01
719.75	2324.44
719.94	2127.84
720.12	2150.37
720.30	2269.15
720.48	2193.37
720.67	2140.13
720.85	2084.83
721.03	2140.13
721.21	2150.37
721.39	2260.96
721.58	2244.57
721.76	2234.33
721.94	2301.92
722.12	2220.00
722.30	2306.01
722.49	2121.70
722.67	2295.77
722.85	2199.52
723.03	2070.50
723.21	2174.94
723.40	2195.42
723.58	2254.81
723.76	2234.33
723.94	2342.88
724.12	2271.20
724.30	2375.64
724.49	2441.18
724.67	2209.76
724.85	2328.54
725.03	2095.07
725.21	2291.68
725.40	2353.12
725.58	2189.28
725.76	2301.92
725.94	2271.20
726.12	2164.70
726.30	2179.04
726.49	2267.10
726.67	2152.42
726.85	2330.59
727.03	2568.15
727.21	3686.34
727.39	5248.94
727.57	6498.20
727.76	7065.49
727.94	7360.40
728.12	6961.05
728.30	5785.51
728.48	4833.21
728.66	4521.92
728.84	3995.59
729.03	3506.12
729.21	3203.02
729.39	2727.89
729.57	2531.29
729.75	2392.03
729.93	2357.21
730.11	2203.61
730.30	2220.00
730.48	2295.77
730.66	2267.10
730.84	2273.25
731.02	2187.23
731.20	2176.99
731.38	2199.52
731.56	2088.93
731.74	2136.03
731.93	2269.15
732.11	2236.38
732.29	2150.37
732.47	2179.04
732.65	2222.05
732.83	2267.10
733.01	2236.38
733.19	2168.80
733.37	2136.03
733.56	2242.53
733.74	2154.46
733.92	2277.34
734.10	2250.72
734.28	2289.63
734.46	1964.00
734.64	2158.56
734.82	2187.23
735.00	2109.41
735.18	2127.84
735.36	2287.58
735.54	2207.71
735.73	2164.70
735.91	2267.10
736.09	2287.58
736.27	2174.94
736.45	2269.15
736.63	2080.74
736.81	2068.45
736.99	2291.68
737.17	2320.35
737.35	2170.85
737.53	2170.85
737.71	2242.53
737.89	2271.20
738.07	2181.09
738.25	2140.13
738.43	2074.59
738.61	2133.98
738.80	2037.73
738.98	2113.50
739.16	2148.32
739.34	2156.51
739.52	2375.64
739.70	2146.27
739.88	2230.24
740.06	2306.01
740.24	1949.67
740.42	2295.77
740.60	2062.30
740.78	2199.52
740.96	2011.11
741.14	2207.71
741.32	2187.23
741.50	2148.32
741.68	2342.88
741.86	2303.96
742.04	2113.50
742.22	2154.46
742.40	2222.05
742.58	2228.19
742.76	2123.74
742.94	2238.43
743.12	2088.93
743.30	2217.95
743.48	2217.95
743.66	2129.89
743.84	2234.33
744.02	2168.80
744.20	2220.00
744.38	2187.23
744.56	2064.35
744.74	2387.93
744.92	2252.77
745.10	2367.45
745.28	2308.06
745.46	2387.93
745.64	2179.04
745.82	2228.19
746.00	2234.33
746.18	2213.85
746.36	2138.08
746.54	2236.38
746.72	2162.66
746.90	2158.56
747.08	2242.53
747.26	2113.50
747.44	2267.10
747.62	2236.38
747.80	2215.90
747.98	2303.96
748.15	2228.19
748.33	2400.22
748.51	2289.63
748.69	2236.38
748.87	2129.89
749.05	2226.14
749.23	2158.56
749.41	2164.70
749.59	2156.51
749.77	2258.91
749.95	2072.54
750.13	2172.89
750.31	2269.15
750.49	2138.08
750.67	2277.34
750.85	2320.35
751.03	2187.23
751.20	2400.22
751.38	2183.13
751.56	2154.46
751.74	2199.52
751.92	2142.18
752.10	2088.93
752.28	2324.44
752.46	2146.27
752.64	2222.05
752.82	2220.00
753.00	2326.49
753.18	2140.13
753.35	2162.66
753.53	2209.76
753.71	2125.79
753.89	2236.38
754.07	2209.76
754.25	2326.49
754.43	2138.08
754.61	2013.15
754.79	2179.04
754.97	2187.23
755.14	2281.44
755.32	2125.79
755.50	2265.05
755.68	2127.84
755.86	2113.50
756.04	2111.46
756.22	2052.06
756.40	2326.49
756.57	2414.56
756.75	2129.89
756.93	2281.44
757.11	2349.02
757.29	2179.04
757.47	2207.71
757.65	2000.87
757.82	2029.54
758.00	2129.89
758.18	2162.66
758.36	2105.31
758.54	2359.26
758.72	2074.59
758.90	2277.34
759.07	2205.66
759.25	2078.69
759.43	2277.34
759.61	2074.59
759.79	2971.60
759.97	2291.68
760.15	2127.84
760.32	2115.55
760.50	2263.01
760.68	2387.93
760.86	2072.54
761.04	2252.77
761.22	2205.66
761.39	2170.85
761.57	2201.57
761.75	2140.13
761.93	2217.95
762.11	2172.89
762.28	2234.33
762.46	2133.98
762.64	2283.49
762.82	2113.50
763.00	2181.09
763.18	2326.49
763.35	2129.89
763.53	2344.92
763.71	2244.57
763.89	2211.81
764.07	2285.53
764.24	2037.73
764.42	2250.72
764.60	2082.78
764.78	2277.34
764.96	2269.15
765.13	2263.01
765.31	2082.78
765.49	2250.72
765.67	2095.07
765.84	2244.57
766.02	2142.18
766.20	1984.48
766.38	2205.66
766.56	2283.49
766.73	2279.39
766.91	2258.91
767.09	2226.14
767.27	2203.61
767.44	2095.07
767.62	2277.34
767.80	2242.53
767.98	2103.26
768.15	2121.70
768.33	2267.10
768.51	2195.42
768.69	2273.25
768.87	2242.53
769.04	2195.42
769.22	2389.98
769.40	2265.05
769.58	2416.60
769.75	2211.81
769.93	2326.49
770.11	2191.33
770.28	2088.93
770.46	2211.81
770.64	2287.58
770.82	2121.70
770.99	2140.13
771.17	2291.68
771.35	2158.56
771.53	2220.00
771.70	2115.55
771.88	2277.34
772.06	2191.33
772.23	2201.57
772.41	2263.01
772.59	2181.09
772.77	2045.92
772.94	2136.03
773.12	2285.53
773.30	2168.80
773.47	2240.48
773.65	2158.56
773.83	2281.44
774.01	2228.19
774.18	2058.21
774.36	2105.31
774.54	2086.88
774.71	2244.57
774.89	2113.50
775.07	2090.98
775.24	2076.64
775.42	2031.58
775.60	2381.79
775.78	2119.65
775.95	2113.50
776.13	1990.63
776.31	1961.95
776.48	2199.52
776.66	2269.15
776.84	2138.08
777.01	2162.66
777.19	2123.74
777.37	2191.33
777.54	2301.92
777.72	2383.84
777.90	2166.75
778.07	2150.37
778.25	2521.05
778.43	2334.68
778.60	2142.18
778.78	2217.95
778.96	2275.29
779.13	2133.98
779.31	2242.53
779.49	2222.05
779.66	2201.57
779.84	2265.05
780.01	2023.39
780.19	2086.88
780.37	2342.88
780.54	2252.77
780.72	2162.66
780.90	2154.46
781.07	2234.33
781.25	2176.99
781.43	2285.53
781.60	2131.94
781.78	2246.62
781.95	2230.24
782.13	2086.88
782.31	2160.61
782.48	1974.24
782.66	2136.03
782.83	2379.74
783.01	2230.24
783.19	2226.14
783.36	2183.13
783.54	2056.16
783.72	2220.00
783.89	2150.37
784.07	2263.01
784.24	2199.52
784.42	2275.29
784.60	2164.70
784.77	2238.43
784.95	2025.44
785.12	2129.89
785.30	2193.37
785.47	2160.61
785.65	2113.50
785.83	2203.61
786.00	2160.61
786.18	2224.09
786.35	2115.55
786.53	2131.94
786.71	2236.38
786.88	2248.67
787.06	2201.57
787.23	2258.91
787.41	2080.74
787.58	2232.29
787.76	2080.74
787.94	2242.53
788.11	2189.28
788.29	1998.82
788.46	2103.26
788.64	2088.93
788.81	2160.61
788.99	2080.74
789.16	2123.74
789.34	2197.47
789.52	2060.26
789.69	2176.99
789.87	2076.64
790.04	2097.12
790.22	2240.48
790.39	2398.17
790.57	2131.94
790.74	2023.39
790.92	2312.16
791.09	2047.97
791.27	2150.37
791.44	2334.68
791.62	2174.94
791.79	2281.44
791.97	2187.23
792.15	2461.66
792.32	2279.39
792.50	2260.96
792.67	2379.74
792.85	2338.78
793.02	2209.76
793.20	2164.70
793.37	2021.35
793.55	2189.28
793.72	2080.74
793.90	2269.15
794.07	2168.80
794.25	2078.69
794.42	2193.37
794.60	2150.37
794.77	2252.77
794.95	2197.47
795.12	2226.14
795.30	2140.13
795.47	2076.64
795.65	2455.51
795.82	2244.57
796.00	2127.84
796.17	2187.23
796.34	2140.13
796.52	2121.70
796.69	2260.96
796.87	2217.95
797.04	2250.72
797.22	2213.85
797.39	2246.62
797.57	2289.63
797.74	2228.19
797.92	2195.42
798.09	2187.23
798.27	2297.82
798.44	2142.18
798.62	2113.50
798.79	2224.09
798.96	2275.29
799.14	2205.66
799.31	2519.00
799.49	2211.81
799.66	2111.46
799.84	2176.99
800.01	2043.87
800.19	2213.85
800.36	1992.67
800.53	2248.67
800.71	2222.05
800.88	2355.16
801.06	2144.22
801.23	2201.57
801.41	2183.13
801.58	2131.94
801.75	2146.27
801.93	2172.89
802.10	2224.09
802.28	2170.85
802.45	2150.37
802.63	2299.87
802.80	2256.86
802.97	2113.50
803.15	2129.89
803.32	2093.02
803.50	2148.32
803.67	2127.84
803.84	2093.02
804.02	2158.56
804.19	2158.56
804.37	2007.01
804.54	2115.55
804.71	2058.21
804.89	2121.70
805.06	2140.13
805.24	2037.73
805.41	2103.26
805.58	2125.79
805.76	2361.31
805.93	2226.14
806.10	2279.39
806.28	2201.57
806.45	2185.18
806.63	2236.38
806.80	2285.53
806.97	2269.15
807.15	2228.19
807.32	2211.81
807.49	2146.27
807.67	2090.98
807.84	2176.99
808.01	2007.01
808.19	2318.30
808.36	2469.85
808.54	2123.74
808.71	2101.22
808.88	2131.94
809.06	2326.49
809.23	2291.68
809.40	2095.07
809.58	2244.57
809.75	2197.47
809.92	2138.08
810.10	2383.84
810.27	2158.56
810.44	2267.10
810.62	2260.96
810.79	2252.77
810.96	2250.72
811.14	2142.18
811.31	2211.81
811.48	2232.29
811.66	2187.23
811.83	2334.68
812.00	2318.30
812.18	2193.37
812.35	2408.41
812.52	2152.42
812.69	2127.84
812.87	2189.28
813.04	2111.46
813.21	2138.08
813.39	2131.94
813.56	2101.22
813.73	2281.44
813.91	2119.65
814.08	2224.09
814.25	2187.23
814.42	2019.30
814.60	2215.90
814.77	2207.71
814.94	2205.66
815.12	2187.23
815.29	2328.54
815.46	2117.60
815.63	2248.67
815.81	2142.18
815.98	2160.61
816.15	2187.23
816.33	2142.18
816.50	2144.22
816.67	2183.13
816.84	2215.90
817.02	2090.98
817.19	2146.27
817.36	2256.86
817.53	2203.61
817.71	2113.50
817.88	2217.95
818.05	2148.32
818.22	2152.42
818.40	2324.44
818.57	2131.94
818.74	2240.48
818.91	2160.61
819.09	2283.49
819.26	2293.72
819.43	2066.40
819.60	2142.18
819.78	2293.72
819.95	2285.53
820.12	2113.50
820.29	2281.44
820.47	2271.20
820.64	2156.51
820.81	2076.64
820.98	2070.50
821.15	2185.18
821.33	2197.47
821.50	2045.92
821.67	2226.14
821.84	2045.92
822.02	2205.66
822.19	2217.95
822.36	2162.66
822.53	2084.83
822.70	2064.35
822.88	2230.24
823.05	2324.44
823.22	2187.23
823.39	2166.75
823.56	2238.43
823.74	2299.87
823.91	2039.78
824.08	2070.50
824.25	2029.54
824.42	2371.55
824.60	2174.94
824.77	2244.57
824.94	2164.70
825.11	2150.37
825.28	2062.30
825.45	2195.42
825.63	2138.08
825.80	2162.66
825.97	2236.38
826.14	2168.80
826.31	1990.63
826.48	2207.71
826.66	2127.84
826.83	2203.61
827.00	2252.77
827.17	2136.03
827.34	2152.42
827.51	2131.94
827.69	2176.99
827.86	2140.13
828.03	2164.70
828.20	2207.71
828.37	2185.18
828.54	2179.04
828.71	2181.09
828.89	2336.73
829.06	2191.33
829.23	2332.64
829.40	2084.83
829.57	2109.41
829.74	2240.48
829.91	2211.81
830.09	2197.47
830.26	2277.34
830.43	2373.60
830.60	2140.13
830.77	2232.29
830.94	2217.95
831.11	2287.58
831.28	2183.13
831.46	2285.53
831.63	2097.12
831.80	2336.73
831.97	2136.03
832.14	2111.46
832.31	2215.90
832.48	2179.04
832.65	2273.25
832.82	2228.19
832.99	2181.09
833.17	2084.83
833.34	2275.29
833.51	2185.18
833.68	2023.39
833.85	2281.44
834.02	2158.56
834.19	2047.97
834.36	2144.22
834.53	2283.49
834.70	2256.86
834.87	2244.57
835.04	2162.66
835.22	2144.22
835.39	2047.97
835.56	2041.82
835.73	2146.27
835.90	2248.67
836.07	2093.02
836.24	2222.05
836.41	2123.74
836.58	2119.65
836.75	2226.14
836.92	2260.96
837.09	2144.22
837.26	2236.38
837.43	2226.14
837.60	2217.95
837.77	2174.94
837.94	2285.53
838.12	2379.74
838.29	2146.27
838.46	2060.26
838.63	2166.75
838.80	2396.12
838.97	2250.72
839.14	2136.03
839.31	2123.74
839.48	2267.10
839.65	2179.04
839.82	2191.33
839.99	2207.71
840.16	2193.37
840.33	2105.31
840.50	2142.18
840.67	2154.46
840.84	1980.39
841.01	2228.19
841.18	2191.33
841.35	2125.79
841.52	2303.96
841.69	2310.11
841.86	2179.04
842.03	2146.27
842.20	2248.67
842.37	2142.18
842.54	2203.61
842.71	2287.58
842.88	2070.50
843.05	2250.72
843.22	2138.08
843.39	2277.34
843.56	2160.61
843.73	2127.84
843.90	2146.27
844.07	2121.70
844.24	2226.14
844.41	2269.15
844.58	2187.23
844.75	2220.00
844.92	2248.67
845.09	2197.47
845.26	2099.17
845.43	2152.42
845.60	2072.54
845.77	2220.00
845.94	2195.42
846.10	2244.57
846.27	2050.02
846.44	2166.75
846.61	2078.69
846.78	2205.66
846.95	2295.77
847.12	2050.02
847.29	2121.70
847.46	2088.93
847.63	2232.29
847.80	2131.94
847.97	2136.03
848.14	2381.79
848.31	2172.89
848.48	2095.07
848.65	2166.75
848.82	2193.37
848.98	2369.50
849.15	2226.14
849.32	2275.29
849.49	2310.11
849.66	2236.38
849.83	2185.18
850.00	2086.88
850.17	2224.09
850.34	2131.94
850.51	2115.55
850.68	2181.09
850.85	2416.60
851.01	2162.66
851.18	2224.09
851.35	2172.89
851.52	2260.96
851.69	2330.59
851.86	2050.02
852.03	2099.17
852.20	2226.14
852.37	2099.17
852.53	2035.68
852.70	2113.50
852.87	2211.81
853.04	2193.37
853.21	2170.85
853.38	2316.25
853.55	2322.40
853.72	2346.97
853.89	2129.89
854.05	2170.85
854.22	2256.86
854.39	2099.17
854.56	2195.42
854.73	2236.38
854.90	2090.98
855.07	2193.37
855.23	2217.95
855.40	2088.93
855.57	2228.19
855.74	1931.23
855.91	2457.56
856.08	2056.16
856.25	2047.97
856.41	2144.22
856.58	2127.84
856.75	2160.61
856.92	2072.54
857.09	2254.81
857.26	2058.21
857.42	2086.88
857.59	2263.01
857.76	2160.61
857.93	2127.84
858.10	2185.18
858.27	2088.93
858.43	2226.14
858.60	2119.65
858.77	2105.31
858.94	2111.46
859.11	2279.39
859.27	2121.70
859.44	2260.96
859.61	2318.30
859.78	2220.00
859.95	2170.85
860.12	2142.18
860.28	2346.97
860.45	2373.60
860.62	2113.50
860.79	2074.59
860.95	2090.98
861.12	2070.50
861.29	2105.31
861.46	2072.54
861.63	2154.46
861.79	2189.28
861.96	2015.20
862.13	2076.64
862.30	2320.35
862.47	2084.83
862.63	2080.74
862.80	2150.37
862.97	2265.05
863.14	2277.34
863.30	2269.15
863.47	2078.69
863.64	2293.72
863.81	2285.53
863.97	2154.46
864.14	2195.42
864.31	2220.00
864.48	2197.47
864.65	2160.61
864.81	2267.10
864.98	2187.23
865.15	2211.81
865.32	2220.00
865.48	2176.99
865.65	2346.97
865.82	2158.56
865.98	2195.42
866.15	2199.52
866.32	2189.28
866.49	2209.76
866.65	2195.42
866.82	2090.98
866.99	2138.08
867.16	2125.79
867.32	2101.22
867.49	2097.12
867.66	2193.37
867.83	2183.13
867.99	2002.91
868.16	2207.71
868.33	2052.06
868.49	2187.23
868.66	2176.99
868.83	2242.53
868.99	2185.18
869.16	2199.52
869.33	2303.96
869.50	2224.09
869.66	2138.08
869.83	2170.85
870.00	2031.58
870.16	2220.00
870.33	2138.08
870.50	2232.29
870.66	2217.95
870.83	2303.96
871.00	2181.09
871.17	2220.00
871.33	2252.77
871.50	2127.84
871.67	2095.07
871.83	1966.05
872.00	2240.48
872.17	2125.79
872.33	2326.49
872.50	2254.81
872.67	2138.08
872.83	2090.98
873.00	2170.85
873.17	2131.94
873.33	2207.71
873.50	2144.22
873.67	2162.66
873.83	2113.50
874.00	2201.57
874.16	2314.20
874.33	2291.68
874.50	2062.30
874.66	2160.61
874.83	2158.56
875.00	2287.58
875.16	2205.66
875.33	2197.47
875.50	1955.81
875.66	2156.51
875.83	2201.57
875.99	2211.81
876.16	2226.14
876.33	2056.16
876.49	2160.61
876.66	2179.04
876.83	2142.18
876.99	2039.78
877.16	2103.26
877.32	2156.51
877.49	2103.26
877.66	2246.62
877.82	2340.83
877.99	2199.52
878.15	2201.57
878.32	2207.71
878.49	2166.75
878.65	2183.13
878.82	2293.72
878.98	2115.55
879.15	2324.44
879.32	2238.43
879.48	2154.46
879.65	2201.57
879.81	2144.22
879.98	2168.80
880.15	2103.26
880.31	2277.34
880.48	2158.56
880.64	2123.74
880.81	2236.38
880.97	2260.96
881.14	2289.63
881.31	2043.87
881.47	2359.26
881.64	2168.80
881.80	2080.74
881.97	2220.00
882.13	2160.61
882.30	2146.27
882.47	2217.95
882.63	2207.71
882.80	2166.75
882.96	2080.74
883.13	2340.83
883.29	2207.71
883.46	2162.66
883.62	2432.99
883.79	2154.46
883.95	2275.29
884.12	2078.69
884.29	2254.81
884.45	2220.00
884.62	2203.61
884.78	2131.94
884.95	2293.72
885.11	2129.89
885.28	2250.72
885.44	2095.07
885.61	2213.85
885.77	2301.92
885.94	2240.48
886.10	2168.80
886.27	2236.38
886.43	2301.92
886.60	2226.14
886.76	2131.94
886.93	2043.87
887.09	2242.53
887.26	2076.64
887.42	2158.56
887.59	2226.14
887.75	2375.64
887.92	2338.78
888.08	2176.99
888.25	2328.54
888.41	2332.64
888.58	2158.56
888.74	2007.01
888.91	2144.22
>>>>>End Processed Spectral Data<<<<<
