SpectraSuite Data File
++++++++++++++++++++++++++++++++++++
Date: Thu May 05 12:35:53 CEST 2016
User: root
Dark Spectrum Present: No
Reference Spectrum Present: No
Number of Sampled Component Spectra: 1
Spectrometers: USB4C02835
Integration Time (usec): 100000 (USB4C02835)
Spectra Averaged: 1 (USB4C02835)
Boxcar Smoothing: 0 (USB4C02835)
Correct for Electrical Dark: No (USB4C02835)
Strobe/Lamp Enabled: No (USB4C02835)
Correct for Detector Non-linearity: No (USB4C02835)
Correct for Stray Light: No (USB4C02835)
Number of Pixels in Processed Spectrum: 3648
>>>>>Begin Processed Spectral Data<<<<<
177.47	1775.59
177.69	1775.59
177.91	1775.59
178.13	1732.58
178.36	1728.49
178.58	2201.57
178.80	2297.82
179.02	2125.79
179.24	2138.08
179.46	2027.49
179.68	2220.00
179.90	2170.85
180.13	2197.47
180.35	2076.64
180.57	2109.41
180.79	2349.02
181.01	2224.09
181.23	2220.00
181.45	2209.76
181.67	2234.33
181.90	2326.49
182.12	2121.70
182.34	2082.78
182.56	2211.81
182.78	2187.23
183.00	2105.31
183.22	2154.46
183.44	1986.53
183.66	2494.43
183.89	2252.77
184.11	2117.60
184.33	2258.91
184.55	2271.20
184.77	2144.22
184.99	2123.74
185.21	2142.18
185.43	2387.93
185.65	2070.50
185.87	2072.54
186.10	2398.17
186.32	2424.80
186.54	2172.89
186.76	2222.05
186.98	2226.14
187.20	2140.13
187.42	2187.23
187.64	2060.26
187.86	2353.12
188.08	2357.21
188.30	2107.36
188.52	2183.13
188.75	2273.25
188.97	2303.96
189.19	2090.98
189.41	2060.26
189.63	2246.62
189.85	2179.04
190.07	2035.68
190.29	2002.91
190.51	2195.42
190.73	2078.69
190.95	2273.25
191.17	2236.38
191.39	1988.58
191.61	2224.09
191.84	2080.74
192.06	2146.27
192.28	2060.26
192.50	2510.81
192.72	2203.61
192.94	2146.27
193.16	2277.34
193.38	2226.14
193.60	2078.69
193.82	2166.75
194.04	2316.25
194.26	2162.66
194.48	2140.13
194.70	2121.70
194.92	2187.23
195.14	2250.72
195.36	2082.78
195.58	2060.26
195.80	2176.99
196.02	2115.55
196.24	2152.42
196.46	2191.33
196.69	2095.07
196.91	2533.34
197.13	2150.37
197.35	2166.75
197.57	2281.44
197.79	2244.57
198.01	2217.95
198.23	2150.37
198.45	2246.62
198.67	2115.55
198.89	2095.07
199.11	2129.89
199.33	2164.70
199.55	1990.63
199.77	2138.08
199.99	2234.33
200.21	2138.08
200.43	2174.94
200.65	2056.16
200.87	1955.81
201.09	2179.04
201.31	2138.08
201.53	2250.72
201.75	2162.66
201.97	2240.48
202.19	2199.52
202.41	2172.89
202.63	2222.05
202.85	2220.00
203.07	2287.58
203.29	2103.26
203.51	2099.17
203.73	2105.31
203.95	2490.33
204.17	2195.42
204.39	2250.72
204.61	2191.33
204.83	2156.51
205.05	2279.39
205.27	2197.47
205.49	2367.45
205.71	2187.23
205.93	2060.26
206.15	2101.22
206.37	2226.14
206.59	2150.37
206.81	2033.63
207.03	2066.40
207.25	2138.08
207.47	2201.57
207.69	2111.46
207.91	2303.96
208.13	2392.03
208.34	2086.88
208.56	2174.94
208.78	2107.36
209.00	2152.42
209.22	2179.04
209.44	2154.46
209.66	2080.74
209.88	2195.42
210.10	2072.54
210.32	2140.13
210.54	2285.53
210.76	2170.85
210.98	2228.19
211.20	2021.35
211.42	2113.50
211.64	2265.05
211.86	2240.48
212.08	2246.62
212.30	2162.66
212.52	2179.04
212.74	2236.38
212.96	2179.04
213.17	2133.98
213.39	2308.06
213.61	2408.41
213.83	2144.22
214.05	2133.98
214.27	2301.92
214.49	2090.98
214.71	2041.82
214.93	2203.61
215.15	2228.19
215.37	2353.12
215.59	2060.26
215.81	2176.99
216.03	2320.35
216.24	2211.81
216.46	2082.78
216.68	2174.94
216.90	2213.85
217.12	2273.25
217.34	2197.47
217.56	2226.14
217.78	2293.72
218.00	2238.43
218.22	2064.35
218.44	2203.61
218.66	2244.57
218.87	2367.45
219.09	2088.93
219.31	2230.24
219.53	2150.37
219.75	2142.18
219.97	2183.13
220.19	2150.37
220.41	2158.56
220.63	2377.69
220.85	2166.75
221.06	2072.54
221.28	2359.26
221.50	2209.76
221.72	2129.89
221.94	2162.66
222.16	2205.66
222.38	2287.58
222.60	2080.74
222.82	2121.70
223.03	2252.77
223.25	2058.21
223.47	2226.14
223.69	2367.45
223.91	2234.33
224.13	2195.42
224.35	2133.98
224.57	2340.83
224.78	2240.48
225.00	2105.31
225.22	2142.18
225.44	2185.18
225.66	2330.59
225.88	2179.04
226.10	2240.48
226.32	2156.51
226.53	2324.44
226.75	2148.32
226.97	2090.98
227.19	2103.26
227.41	2166.75
227.63	2215.90
227.85	2002.91
228.06	2084.83
228.28	2166.75
228.50	2349.02
228.72	2056.16
228.94	2111.46
229.16	2029.54
229.37	2078.69
229.59	2095.07
229.81	2248.67
230.03	2133.98
230.25	2082.78
230.47	2056.16
230.69	2041.82
230.90	2234.33
231.12	2156.51
231.34	2160.61
231.56	2191.33
231.78	2070.50
232.00	2242.53
232.21	2174.94
232.43	2138.08
232.65	1992.67
232.87	2293.72
233.09	2097.12
233.30	2076.64
233.52	2260.96
233.74	2158.56
233.96	2170.85
234.18	2220.00
234.40	2185.18
234.61	2334.68
234.83	2056.16
235.05	2113.50
235.27	2410.46
235.49	2285.53
235.70	2045.92
235.92	2244.57
236.14	2260.96
236.36	2394.08
236.58	2023.39
236.79	2183.13
237.01	2197.47
237.23	2172.89
237.45	2373.60
237.67	2121.70
237.88	2232.29
238.10	2308.06
238.32	2072.54
238.54	2131.94
238.76	2170.85
238.97	2084.83
239.19	2123.74
239.41	2179.04
239.63	2275.29
239.85	2158.56
240.06	2138.08
240.28	2162.66
240.50	2334.68
240.72	2172.89
240.93	2146.27
241.15	2209.76
241.37	2119.65
241.59	2375.64
241.81	2207.71
242.02	2072.54
242.24	2168.80
242.46	2197.47
242.68	2072.54
242.89	2107.36
243.11	2267.10
243.33	2113.50
243.55	2111.46
243.76	2162.66
243.98	2144.22
244.20	2222.05
244.42	2154.46
244.64	2109.41
244.85	2133.98
245.07	2103.26
245.29	2181.09
245.51	2201.57
245.72	2228.19
245.94	2324.44
246.16	2144.22
246.38	2168.80
246.59	2154.46
246.81	2117.60
247.03	2088.93
247.24	2013.15
247.46	2117.60
247.68	2203.61
247.90	2072.54
248.11	2121.70
248.33	2367.45
248.55	2162.66
248.77	2129.89
248.98	2152.42
249.20	2267.10
249.42	2211.81
249.64	2224.09
249.85	2158.56
250.07	2162.66
250.29	2281.44
250.50	2201.57
250.72	2043.87
250.94	2215.90
251.16	2408.41
251.37	2185.18
251.59	2197.47
251.81	2199.52
252.02	2355.16
252.24	2078.69
252.46	2316.25
252.68	2183.13
252.89	2174.94
253.11	2082.78
253.33	2238.43
253.54	2310.11
253.76	2033.63
253.98	2117.60
254.20	2099.17
254.41	2084.83
254.63	2199.52
254.85	2041.82
255.06	2195.42
255.28	2252.77
255.50	2172.89
255.71	2125.79
255.93	2045.92
256.15	2170.85
256.36	2224.09
256.58	2080.74
256.80	2117.60
257.02	2201.57
257.23	2107.36
257.45	2131.94
257.67	2156.51
257.88	2113.50
258.10	2234.33
258.32	2185.18
258.53	2082.78
258.75	2349.02
258.97	2138.08
259.18	2107.36
259.40	2080.74
259.62	2344.92
259.83	2340.83
260.05	2185.18
260.27	2590.68
260.48	2236.38
260.70	2111.46
260.92	2125.79
261.13	2213.85
261.35	2222.05
261.57	2273.25
261.78	2054.11
262.00	2019.30
262.22	2244.57
262.43	2136.03
262.65	2068.45
262.86	2170.85
263.08	2408.41
263.30	2152.42
263.51	2070.50
263.73	2023.39
263.95	2330.59
264.16	2095.07
264.38	2064.35
264.60	2103.26
264.81	2189.28
265.03	2283.49
265.25	2293.72
265.46	2119.65
265.68	2392.03
265.89	2303.96
266.11	2015.20
266.33	2133.98
266.54	2248.67
266.76	2234.33
266.98	2138.08
267.19	2269.15
267.41	2328.54
267.62	2162.66
267.84	1998.82
268.06	2189.28
268.27	2256.86
268.49	2256.86
268.70	2209.76
268.92	2113.50
269.14	2136.03
269.35	2109.41
269.57	2111.46
269.79	2152.42
270.00	2168.80
270.22	2314.20
270.43	2158.56
270.65	1986.53
270.87	2203.61
271.08	2265.05
271.30	2211.81
271.51	2158.56
271.73	2269.15
271.95	2263.01
272.16	2086.88
272.38	2174.94
272.59	2133.98
272.81	2355.16
273.02	2203.61
273.24	2236.38
273.46	2236.38
273.67	2129.89
273.89	2105.31
274.10	2047.97
274.32	2226.14
274.54	2217.95
274.75	2162.66
274.97	2093.02
275.18	2289.63
275.40	2236.38
275.61	2142.18
275.83	2215.90
276.05	2070.50
276.26	2179.04
276.48	2209.76
276.69	2156.51
276.91	2119.65
277.12	2377.69
277.34	2228.19
277.55	2232.29
277.77	2236.38
277.99	2123.74
278.20	2168.80
278.42	2035.68
278.63	2179.04
278.85	2113.50
279.06	2129.89
279.28	2170.85
279.49	2236.38
279.71	2201.57
279.93	2193.37
280.14	2142.18
280.36	2039.78
280.57	2267.10
280.79	2209.76
281.00	2080.74
281.22	2158.56
281.43	2299.87
281.65	1966.05
281.86	2093.02
282.08	2201.57
282.29	2408.41
282.51	2000.87
282.73	2152.42
282.94	2107.36
283.16	2322.40
283.37	2357.21
283.59	2170.85
283.80	2203.61
284.02	2222.05
284.23	2256.86
284.45	2078.69
284.66	2176.99
284.88	2080.74
285.09	2252.77
285.31	2183.13
285.52	2199.52
285.74	2105.31
285.95	2277.34
286.17	2205.66
286.38	2324.44
286.60	2138.08
286.81	2072.54
287.03	2131.94
287.24	2207.71
287.46	2297.82
287.67	2176.99
287.89	2426.84
288.10	2240.48
288.32	2254.81
288.53	2211.81
288.75	2174.94
288.96	2254.81
289.18	2160.61
289.39	2111.46
289.61	2236.38
289.82	2340.83
290.04	2332.64
290.25	2023.39
290.47	2156.51
290.68	2170.85
290.90	2287.58
291.11	2039.78
291.33	2234.33
291.54	2103.26
291.76	2164.70
291.97	2209.76
292.18	2187.23
292.40	2144.22
292.61	2136.03
292.83	2406.36
293.04	2164.70
293.26	2242.53
293.47	2211.81
293.69	2117.60
293.90	2174.94
294.12	2244.57
294.33	2211.81
294.55	2146.27
294.76	2248.67
294.97	2301.92
295.19	2355.16
295.40	2156.51
295.62	2236.38
295.83	2248.67
296.05	2095.07
296.26	2240.48
296.48	2172.89
296.69	2220.00
296.90	2248.67
297.12	2181.09
297.33	2228.19
297.55	2201.57
297.76	2258.91
297.98	2215.90
298.19	2242.53
298.41	2226.14
298.62	2088.93
298.83	2289.63
299.05	2211.81
299.26	2099.17
299.48	2123.74
299.69	2299.87
299.90	2201.57
300.12	2191.33
300.33	2191.33
300.55	2174.94
300.76	2133.98
300.98	2086.88
301.19	2189.28
301.40	2105.31
301.62	2166.75
301.83	2179.04
302.05	2166.75
302.26	2144.22
302.47	2197.47
302.69	2019.30
302.90	2152.42
303.12	2052.06
303.33	2246.62
303.54	2469.85
303.76	2174.94
303.97	2195.42
304.19	2275.29
304.40	2148.32
304.61	2281.44
304.83	2287.58
305.04	2314.20
305.26	2185.18
305.47	2187.23
305.68	2117.60
305.90	2103.26
306.11	2314.20
306.33	2117.60
306.54	2119.65
306.75	2185.18
306.97	2064.35
307.18	2031.58
307.39	2105.31
307.61	2195.42
307.82	2215.90
308.04	2228.19
308.25	2088.93
308.46	2222.05
308.68	2152.42
308.89	2148.32
309.10	2310.11
309.32	2215.90
309.53	2191.33
309.74	2275.29
309.96	2099.17
310.17	2314.20
310.39	2217.95
310.60	2258.91
310.81	2150.37
311.03	2078.69
311.24	2211.81
311.45	2189.28
311.67	2306.01
311.88	2215.90
312.09	2197.47
312.31	2183.13
312.52	2131.94
312.73	2093.02
312.95	2066.40
313.16	2133.98
313.37	2205.66
313.59	2299.87
313.80	2283.49
314.01	2332.64
314.23	2179.04
314.44	2074.59
314.65	2019.30
314.87	2088.93
315.08	2080.74
315.29	2156.51
315.51	2154.46
315.72	2041.82
315.93	2330.59
316.15	2299.87
316.36	2181.09
316.57	2213.85
316.79	2224.09
317.00	2103.26
317.21	2338.78
317.43	2045.92
317.64	2093.02
317.85	2131.94
318.07	2162.66
318.28	2199.52
318.49	2361.31
318.70	2492.38
318.92	2412.51
319.13	2412.51
319.34	2412.51
319.56	2322.40
319.77	2346.97
319.98	2277.34
320.20	2297.82
320.41	2236.38
320.62	2297.82
320.83	2193.37
321.05	2459.61
321.26	2197.47
321.47	2226.14
321.69	2301.92
321.90	2062.30
322.11	2072.54
322.32	2211.81
322.54	2289.63
322.75	2080.74
322.96	2459.61
323.18	2072.54
323.39	2007.01
323.60	2070.50
323.81	2289.63
324.03	2052.06
324.24	2185.18
324.45	2244.57
324.66	2162.66
324.88	2308.06
325.09	2439.13
325.30	2179.04
325.52	2129.89
325.73	2209.76
325.94	2074.59
326.15	2045.92
326.37	2088.93
326.58	2269.15
326.79	2279.39
327.00	2138.08
327.22	2187.23
327.43	2152.42
327.64	2125.79
327.85	2146.27
328.07	2131.94
328.28	2406.36
328.49	2181.09
328.70	2109.41
328.92	2238.43
329.13	2209.76
329.34	2277.34
329.55	2279.39
329.76	2228.19
329.98	2146.27
330.19	2252.77
330.40	2256.86
330.61	2154.46
330.83	2234.33
331.04	2097.12
331.25	2248.67
331.46	2078.69
331.68	2127.84
331.89	2281.44
332.10	2277.34
332.31	2115.55
332.52	2074.59
332.74	2260.96
332.95	2002.91
333.16	2133.98
333.37	2254.81
333.58	2207.71
333.80	2170.85
334.01	2050.02
334.22	2138.08
334.43	2097.12
334.64	2168.80
334.86	2103.26
335.07	2064.35
335.28	2291.68
335.49	2037.73
335.70	2269.15
335.92	2338.78
336.13	2400.22
336.34	2285.53
336.55	2176.99
336.76	2150.37
336.98	2045.92
337.19	2129.89
337.40	2263.01
337.61	2351.07
337.82	2084.83
338.04	2263.01
338.25	1996.77
338.46	2193.37
338.67	2246.62
338.88	2080.74
339.09	2117.60
339.31	2103.26
339.52	2111.46
339.73	2127.84
339.94	2193.37
340.15	2351.07
340.36	2097.12
340.58	2131.94
340.79	2101.22
341.00	2230.24
341.21	2113.50
341.42	2338.78
341.63	2093.02
341.85	2275.29
342.06	2170.85
342.27	2129.89
342.48	2271.20
342.69	1978.34
342.90	2265.05
343.12	2217.95
343.33	2203.61
343.54	2258.91
343.75	2326.49
343.96	2133.98
344.17	2082.78
344.38	2170.85
344.60	2125.79
344.81	2138.08
345.02	2166.75
345.23	2293.72
345.44	2342.88
345.65	2283.49
345.86	2222.05
346.07	2187.23
346.29	2121.70
346.50	2127.84
346.71	2220.00
346.92	2301.92
347.13	2445.27
347.34	2199.52
347.55	2168.80
347.76	2250.72
347.98	2066.40
348.19	2144.22
348.40	2310.11
348.61	2158.56
348.82	2318.30
349.03	2283.49
349.24	2088.93
349.45	2357.21
349.66	1945.57
349.88	2234.33
350.09	2084.83
350.30	2301.92
350.51	2297.82
350.72	2179.04
350.93	2273.25
351.14	2133.98
351.35	2240.48
351.56	2252.77
351.77	2217.95
351.99	2258.91
352.20	2332.64
352.41	2263.01
352.62	2021.35
352.83	2183.13
353.04	2172.89
353.25	2086.88
353.46	2179.04
353.67	2336.73
353.88	2027.49
354.09	2158.56
354.30	2133.98
354.52	2277.34
354.73	2193.37
354.94	2119.65
355.15	2197.47
355.36	2420.70
355.57	2090.98
355.78	2179.04
355.99	2047.97
356.20	2244.57
356.41	2285.53
356.62	2193.37
356.83	2238.43
357.04	2297.82
357.25	2088.93
357.46	2183.13
357.68	2103.26
357.89	2070.50
358.10	2183.13
358.31	2203.61
358.52	2121.70
358.73	2193.37
358.94	2119.65
359.15	2109.41
359.36	2170.85
359.57	2244.57
359.78	2213.85
359.99	2146.27
360.20	2111.46
360.41	2097.12
360.62	2301.92
360.83	2252.77
361.04	2205.66
361.25	2232.29
361.46	2373.60
361.67	2166.75
361.88	2287.58
362.09	2297.82
362.30	2271.20
362.51	2121.70
362.72	2154.46
362.93	2316.25
363.14	2306.01
363.35	2267.10
363.56	2181.09
363.78	2344.92
363.99	2301.92
364.20	2105.31
364.41	2111.46
364.62	2424.80
364.83	2240.48
365.04	2230.24
365.25	2152.42
365.46	2445.27
365.67	2111.46
365.88	2176.99
366.09	2191.33
366.30	2109.41
366.51	2176.99
366.72	2054.11
366.93	2119.65
367.14	2236.38
367.35	2406.36
367.56	2209.76
367.77	2306.01
367.98	2131.94
368.18	2281.44
368.39	2187.23
368.60	2105.31
368.81	2265.05
369.02	2207.71
369.23	2203.61
369.44	2070.50
369.65	2168.80
369.86	2240.48
370.07	2248.67
370.28	2078.69
370.49	2275.29
370.70	2250.72
370.91	2070.50
371.12	2082.78
371.33	2297.82
371.54	2146.27
371.75	2314.20
371.96	2033.63
372.17	2260.96
372.38	2131.94
372.59	2197.47
372.80	2129.89
373.01	2252.77
373.22	2228.19
373.43	2254.81
373.64	2039.78
373.85	2316.25
374.06	2349.02
374.26	2220.00
374.47	2240.48
374.68	2330.59
374.89	2199.52
375.10	2103.26
375.31	2250.72
375.52	2267.10
375.73	2211.81
375.94	2060.26
376.15	2285.53
376.36	2109.41
376.57	2088.93
376.78	2133.98
376.99	2285.53
377.20	2271.20
377.40	2154.46
377.61	2416.60
377.82	2105.31
378.03	2349.02
378.24	2252.77
378.45	2164.70
378.66	2240.48
378.87	2086.88
379.08	2093.02
379.29	2076.64
379.50	2301.92
379.71	2166.75
379.91	2301.92
380.12	2195.42
380.33	2215.90
380.54	2176.99
380.75	2148.32
380.96	2105.31
381.17	2232.29
381.38	2230.24
381.59	2197.47
381.80	2265.05
382.00	2332.64
382.21	2189.28
382.42	2394.08
382.63	2418.65
382.84	2226.14
383.05	2324.44
383.26	2428.89
383.47	2250.72
383.68	2191.33
383.88	2273.25
384.09	2246.62
384.30	2351.07
384.51	2246.62
384.72	2176.99
384.93	2074.59
385.14	2252.77
385.35	2295.77
385.55	2181.09
385.76	2297.82
385.97	2195.42
386.18	2125.79
386.39	2138.08
386.60	2142.18
386.81	2084.83
387.02	2160.61
387.22	2156.51
387.43	2240.48
387.64	2195.42
387.85	2351.07
388.06	2492.38
388.27	4040.64
388.48	8554.37
388.68	12080.97
388.89	14491.43
389.10	15683.34
389.31	14374.69
389.52	11378.51
389.73	9734.00
389.93	8845.18
390.14	8167.30
390.35	7292.82
390.56	6365.09
390.77	5244.85
390.98	4112.32
391.18	3358.67
391.39	2795.48
391.60	2420.70
391.81	2361.31
392.02	2150.37
392.23	2471.90
392.43	2224.09
392.64	2361.31
392.85	2285.53
393.06	2340.83
393.27	2166.75
393.47	2123.74
393.68	2187.23
393.89	2146.27
394.10	2291.68
394.31	2117.60
394.52	2144.22
394.72	2129.89
394.93	2377.69
395.14	2125.79
395.35	2263.01
395.56	2144.22
395.76	2127.84
395.97	2295.77
396.18	2392.03
396.39	2285.53
396.60	2662.36
396.80	2480.09
397.01	2310.11
397.22	2367.45
397.43	2416.60
397.64	2168.80
397.84	2322.40
398.05	2467.80
398.26	2285.53
398.47	2306.01
398.67	2371.55
398.88	2185.18
399.09	2220.00
399.30	2193.37
399.51	2224.09
399.71	2023.39
399.92	2170.85
400.13	2236.38
400.34	2133.98
400.54	2160.61
400.75	2435.03
400.96	2179.04
401.17	2400.22
401.37	2301.92
401.58	2179.04
401.79	2230.24
402.00	2369.50
402.21	2562.01
402.41	2543.58
402.62	2562.01
402.83	2674.65
403.04	2576.34
403.24	2680.79
403.45	2328.54
403.66	2426.84
403.87	2506.71
404.07	2465.75
404.28	2437.08
404.49	2451.42
404.70	2316.25
404.90	2310.11
405.11	2207.71
405.32	2263.01
405.52	2150.37
405.73	2129.89
405.94	2117.60
406.15	2199.52
406.35	2205.66
406.56	2265.05
406.77	2127.84
406.98	2220.00
407.18	2138.08
407.39	2359.26
407.60	2166.75
407.80	2220.00
408.01	2146.27
408.22	2293.72
408.43	2193.37
408.63	2310.11
408.84	2301.92
409.05	2297.82
409.25	2138.08
409.46	2146.27
409.67	2144.22
409.88	2154.46
410.08	2308.06
410.29	2222.05
410.50	2271.20
410.70	2234.33
410.91	2107.36
411.12	2228.19
411.32	2097.12
411.53	2070.50
411.74	2301.92
411.95	2291.68
412.15	2340.83
412.36	2326.49
412.57	2357.21
412.77	2363.36
412.98	2179.04
413.19	2140.13
413.39	2236.38
413.60	2314.20
413.81	2447.32
414.01	2121.70
414.22	2287.58
414.43	2330.59
414.63	2189.28
414.84	2281.44
415.05	2189.28
415.25	2119.65
415.46	2283.49
415.67	2129.89
415.87	2170.85
416.08	2174.94
416.29	2129.89
416.49	2197.47
416.70	2236.38
416.91	2142.18
417.11	2138.08
417.32	2252.77
417.53	2234.33
417.73	2238.43
417.94	2172.89
418.15	2308.06
418.35	2230.24
418.56	2148.32
418.77	2420.70
418.97	2242.53
419.18	2127.84
419.38	2023.39
419.59	2254.81
419.80	2357.21
420.00	2156.51
420.21	2140.13
420.42	2322.40
420.62	2242.53
420.83	2138.08
421.04	2113.50
421.24	2183.13
421.45	2314.20
421.65	2220.00
421.86	2125.79
422.07	2224.09
422.27	2263.01
422.48	2195.42
422.69	2125.79
422.89	2215.90
423.10	2162.66
423.30	2113.50
423.51	2115.55
423.72	2306.01
423.92	2332.64
424.13	2029.54
424.33	2168.80
424.54	2220.00
424.75	2228.19
424.95	2340.83
425.16	2232.29
425.36	2226.14
425.57	2308.06
425.78	2209.76
425.98	2346.97
426.19	2170.85
426.39	2076.64
426.60	2273.25
426.81	2396.12
427.01	2277.34
427.22	2154.46
427.42	2070.50
427.63	2162.66
427.83	2291.68
428.04	2342.88
428.25	2277.34
428.45	2285.53
428.66	2306.01
428.86	2146.27
429.07	2240.48
429.28	2129.89
429.48	2187.23
429.69	2199.52
429.89	2166.75
430.10	2103.26
430.30	2273.25
430.51	2320.35
430.71	2084.83
430.92	2213.85
431.13	2166.75
431.33	2220.00
431.54	2242.53
431.74	2314.20
431.95	2426.84
432.15	2066.40
432.36	2170.85
432.56	2238.43
432.77	2381.79
432.98	2318.30
433.18	2166.75
433.39	2146.27
433.59	2185.18
433.80	2346.97
434.00	2389.98
434.21	2170.85
434.41	2109.41
434.62	2412.51
434.82	2107.36
435.03	2152.42
435.23	2244.57
435.44	2047.97
435.64	2158.56
435.85	2220.00
436.06	2291.68
436.26	2224.09
436.47	2170.85
436.67	2162.66
436.88	2152.42
437.08	2271.20
437.29	2357.21
437.49	2293.72
437.70	2344.92
437.90	2234.33
438.11	2351.07
438.31	2254.81
438.52	2422.75
438.72	2369.50
438.93	2535.39
439.13	2299.87
439.34	2369.50
439.54	2293.72
439.75	2260.96
439.95	2328.54
440.16	2164.70
440.36	2207.71
440.57	2291.68
440.77	2244.57
440.98	2215.90
441.18	2285.53
441.39	2158.56
441.59	2111.46
441.80	2357.21
442.00	2174.94
442.21	2326.49
442.41	2068.45
442.62	2320.35
442.82	2144.22
443.02	2236.38
443.23	2148.32
443.43	2174.94
443.64	2326.49
443.84	2166.75
444.05	2385.88
444.25	2275.29
444.46	2172.89
444.66	2193.37
444.87	2353.12
445.07	2129.89
445.28	2136.03
445.48	2346.97
445.69	2254.81
445.89	2404.32
446.09	2230.24
446.30	2559.96
446.50	2873.30
446.71	4347.84
446.91	5533.61
447.12	6442.91
447.32	6635.42
447.53	6182.82
447.73	5220.27
447.93	4487.10
448.14	4212.67
448.34	4112.32
448.55	3585.99
448.75	3495.88
448.96	3416.01
449.16	3006.42
449.36	2906.07
449.57	2529.24
449.77	2344.92
449.98	2265.05
450.18	2346.97
450.39	2332.64
450.59	2389.98
450.79	2185.18
451.00	2220.00
451.20	2316.25
451.41	2250.72
451.61	2240.48
451.81	2244.57
452.02	2154.46
452.22	2170.85
452.43	2187.23
452.63	2125.79
452.84	2207.71
453.04	2121.70
453.24	2267.10
453.45	2207.71
453.65	2179.04
453.86	2287.58
454.06	2299.87
454.26	2271.20
454.47	2146.27
454.67	2285.53
454.87	2260.96
455.08	2265.05
455.28	2316.25
455.49	2203.61
455.69	2193.37
455.89	2428.89
456.10	2301.92
456.30	2193.37
456.51	2324.44
456.71	2246.62
456.91	2256.86
457.12	2176.99
457.32	2250.72
457.52	2162.66
457.73	2310.11
457.93	2254.81
458.14	2131.94
458.34	2037.73
458.54	2195.42
458.75	2131.94
458.95	2246.62
459.15	2316.25
459.36	2181.09
459.56	2144.22
459.76	2459.61
459.97	2293.72
460.17	2179.04
460.37	2252.77
460.58	2179.04
460.78	2254.81
460.99	2185.18
461.19	2230.24
461.39	2152.42
461.60	2195.42
461.80	2176.99
462.00	2007.01
462.21	2281.44
462.41	2111.46
462.61	2146.27
462.82	2050.02
463.02	2281.44
463.22	2205.66
463.43	2287.58
463.63	2256.86
463.83	2334.68
464.04	2224.09
464.24	2246.62
464.44	2099.17
464.64	2269.15
464.85	2236.38
465.05	2289.63
465.25	2150.37
465.46	2152.42
465.66	2215.90
465.86	2281.44
466.07	2222.05
466.27	2152.42
466.47	2015.20
466.68	2066.40
466.88	2349.02
467.08	2314.20
467.29	2320.35
467.49	2281.44
467.69	2121.70
467.89	2279.39
468.10	2203.61
468.30	2207.71
468.50	2332.64
468.71	2207.71
468.91	2170.85
469.11	2381.79
469.31	2191.33
469.52	2117.60
469.72	2428.89
469.92	2344.92
470.13	2209.76
470.33	2203.61
470.53	2289.63
470.73	2629.59
470.94	3049.43
471.14	3289.04
471.34	3565.51
471.54	3473.36
471.75	3129.30
471.95	2910.16
472.15	2725.85
472.36	2805.72
472.56	2695.13
472.76	2744.28
472.96	2723.80
473.17	2562.01
473.37	2443.23
473.57	2258.91
473.77	2351.07
473.98	2265.05
474.18	2105.31
474.38	2557.91
474.58	2238.43
474.79	2136.03
474.99	2265.05
475.19	2306.01
475.39	2080.74
475.60	2228.19
475.80	2265.05
476.00	2205.66
476.20	2152.42
476.41	2183.13
476.61	2322.40
476.81	2396.12
477.01	2213.85
477.21	2406.36
477.42	2299.87
477.62	2111.46
477.82	2308.06
478.02	2185.18
478.23	2209.76
478.43	2183.13
478.63	2138.08
478.83	2193.37
479.03	2123.74
479.24	2400.22
479.44	2394.08
479.64	2138.08
479.84	2088.93
480.04	2146.27
480.25	2301.92
480.45	2138.08
480.65	2172.89
480.85	2287.58
481.06	2226.14
481.26	2185.18
481.46	2226.14
481.66	2301.92
481.86	2025.44
482.06	2260.96
482.27	2160.61
482.47	2138.08
482.67	2244.57
482.87	2168.80
483.07	2248.67
483.28	2105.31
483.48	2113.50
483.68	2179.04
483.88	2105.31
484.08	2011.11
484.29	2109.41
484.49	2193.37
484.69	2105.31
484.89	2363.36
485.09	2316.25
485.29	2330.59
485.50	2244.57
485.70	2256.86
485.90	2324.44
486.10	2226.14
486.30	2236.38
486.50	2289.63
486.71	2191.33
486.91	2220.00
487.11	2308.06
487.31	2103.26
487.51	2240.48
487.71	2076.64
487.91	2047.97
488.12	2234.33
488.32	1937.38
488.52	2068.45
488.72	2002.91
488.92	2295.77
489.12	2297.82
489.32	2289.63
489.53	2224.09
489.73	2121.70
489.93	2330.59
490.13	2240.48
490.33	2090.98
490.53	2187.23
490.73	2326.49
490.94	1966.05
491.14	2273.25
491.34	2326.49
491.54	2471.90
491.74	3186.64
491.94	3727.30
492.14	4014.02
492.34	4108.23
492.54	3841.99
492.75	3252.17
492.95	3262.41
493.15	2940.88
493.35	2846.68
493.55	2826.20
493.75	2707.41
493.95	2729.94
494.15	2504.67
494.35	2398.17
494.56	2314.20
494.76	2209.76
494.96	2267.10
495.16	2160.61
495.36	2203.61
495.56	2246.62
495.76	2097.12
495.96	2185.18
496.16	2189.28
496.36	2457.56
496.56	2203.61
496.77	2250.72
496.97	2185.18
497.17	2349.02
497.37	2109.41
497.57	2293.72
497.77	2228.19
497.97	2015.20
498.17	2144.22
498.37	2133.98
498.57	2244.57
498.77	2111.46
498.97	2285.53
499.17	2355.16
499.38	2226.14
499.58	2324.44
499.78	2299.87
499.98	2283.49
500.18	2211.81
500.38	2154.46
500.58	2400.22
500.78	2926.55
500.98	5248.94
501.18	7227.28
501.38	9047.93
501.58	9912.17
501.78	9754.48
501.98	7853.96
502.18	6379.42
502.38	5687.21
502.58	5222.32
502.78	4634.55
502.98	4534.20
503.18	4306.88
503.38	3868.61
503.59	3340.24
503.79	3282.89
503.99	3039.19
504.19	2861.01
504.39	2820.05
504.59	2854.87
504.79	2861.01
504.99	2809.81
505.19	2545.63
505.39	2457.56
505.59	2508.76
505.79	2469.85
505.99	2330.59
506.19	2308.06
506.39	2381.79
506.59	2248.67
506.79	2162.66
506.99	2328.54
507.19	2252.77
507.39	2162.66
507.59	2140.13
507.79	2138.08
507.99	2115.55
508.19	2301.92
508.39	2215.90
508.59	2209.76
508.79	2295.77
508.99	2412.51
509.19	2127.84
509.39	2287.58
509.59	2199.52
509.79	2217.95
509.99	2164.70
510.19	2318.30
510.39	2299.87
510.59	2211.81
510.79	2138.08
510.99	2088.93
511.19	2199.52
511.39	2408.41
511.59	2289.63
511.79	2295.77
511.99	2254.81
512.19	2430.94
512.38	2273.25
512.58	2168.80
512.78	2154.46
512.98	2371.55
513.18	2371.55
513.38	2138.08
513.58	2295.77
513.78	2203.61
513.98	2176.99
514.18	2217.95
514.38	2201.57
514.58	2138.08
514.78	2232.29
514.98	2160.61
515.18	2176.99
515.38	2021.35
515.58	2373.60
515.78	2129.89
515.98	2252.77
516.18	2299.87
516.38	2281.44
516.57	2111.46
516.77	2131.94
516.97	2283.49
517.17	2176.99
517.37	2007.01
517.57	2338.78
517.77	2187.23
517.97	2131.94
518.17	2224.09
518.37	2170.85
518.57	2133.98
518.77	2185.18
518.97	2244.57
519.16	2193.37
519.36	2332.64
519.56	2146.27
519.76	2170.85
519.96	2201.57
520.16	2351.07
520.36	2125.79
520.56	2351.07
520.76	2129.89
520.96	2138.08
521.16	2322.40
521.35	2373.60
521.55	2363.36
521.75	2252.77
521.95	2248.67
522.15	2174.94
522.35	2115.55
522.55	2088.93
522.75	2291.68
522.95	2144.22
523.14	2136.03
523.34	2199.52
523.54	2107.36
523.74	2250.72
523.94	2228.19
524.14	2090.98
524.34	2287.58
524.54	2342.88
524.73	2275.29
524.93	2310.11
525.13	2238.43
525.33	1990.63
525.53	2500.57
525.73	2322.40
525.93	2199.52
526.13	2113.50
526.32	2170.85
526.52	2418.65
526.72	2211.81
526.92	2113.50
527.12	2170.85
527.32	2082.78
527.52	2316.25
527.71	2260.96
527.91	2154.46
528.11	2199.52
528.31	2209.76
528.51	2142.18
528.71	2289.63
528.90	2213.85
529.10	2369.50
529.30	2242.53
529.50	1961.95
529.70	2232.29
529.90	2224.09
530.09	2271.20
530.29	2084.83
530.49	2156.51
530.69	2486.23
530.89	2185.18
531.09	2312.16
531.28	2195.42
531.48	2281.44
531.68	2217.95
531.88	2213.85
532.08	2248.67
532.28	2265.05
532.47	2254.81
532.67	2306.01
532.87	2281.44
533.07	2150.37
533.27	2349.02
533.46	2303.96
533.66	2285.53
533.86	2195.42
534.06	2226.14
534.26	2185.18
534.45	2248.67
534.65	2306.01
534.85	2263.01
535.05	2191.33
535.25	2310.11
535.44	2084.83
535.64	2265.05
535.84	2283.49
536.04	2154.46
536.24	2148.32
536.43	2140.13
536.63	2226.14
536.83	2207.71
537.03	2224.09
537.22	2060.26
537.42	2050.02
537.62	2250.72
537.82	2101.22
538.02	2342.88
538.21	2328.54
538.41	2535.39
538.61	2293.72
538.81	2220.00
539.00	2367.45
539.20	1974.24
539.40	2156.51
539.60	2179.04
539.79	2289.63
539.99	2232.29
540.19	2170.85
540.39	2170.85
540.58	2254.81
540.78	2273.25
540.98	2195.42
541.18	2203.61
541.37	2332.64
541.57	2148.32
541.77	2244.57
541.97	2095.07
542.16	2095.07
542.36	2176.99
542.56	2179.04
542.76	2371.55
542.95	2269.15
543.15	2258.91
543.35	2336.73
543.54	2164.70
543.74	2172.89
543.94	2351.07
544.14	2125.79
544.33	2205.66
544.53	2179.04
544.73	2252.77
544.93	2154.46
545.12	2176.99
545.32	2191.33
545.52	2129.89
545.71	2099.17
545.91	2144.22
546.11	2195.42
546.30	2131.94
546.50	2172.89
546.70	2240.48
546.90	2297.82
547.09	1982.43
547.29	2205.66
547.49	2248.67
547.68	2201.57
547.88	2138.08
548.08	2301.92
548.27	2658.26
548.47	2191.33
548.67	2150.37
548.87	2228.19
549.06	2113.50
549.26	2293.72
549.46	2277.34
549.65	2111.46
549.85	2174.94
550.05	2103.26
550.24	2080.74
550.44	2201.57
550.64	2222.05
550.83	2242.53
551.03	2363.36
551.23	2283.49
551.42	2297.82
551.62	2238.43
551.82	2240.48
552.01	2254.81
552.21	2285.53
552.41	2156.51
552.60	2273.25
552.80	2228.19
553.00	2101.22
553.19	2291.68
553.39	2377.69
553.59	2074.59
553.78	2293.72
553.98	2277.34
554.17	2146.27
554.37	2269.15
554.57	2308.06
554.76	2117.60
554.96	2158.56
555.16	2187.23
555.35	2252.77
555.55	2281.44
555.75	2275.29
555.94	2326.49
556.14	2090.98
556.33	2222.05
556.53	2246.62
556.73	2232.29
556.92	2346.97
557.12	2203.61
557.32	2416.60
557.51	2346.97
557.71	2170.85
557.90	2359.26
558.10	2293.72
558.30	2195.42
558.49	2170.85
558.69	2185.18
558.88	2230.24
559.08	2234.33
559.28	2242.53
559.47	2281.44
559.67	2254.81
559.86	2478.04
560.06	2269.15
560.26	2172.89
560.45	2351.07
560.65	2140.13
560.84	2342.88
561.04	2101.22
561.24	2265.05
561.43	2111.46
561.63	2330.59
561.82	2215.90
562.02	2244.57
562.22	2158.56
562.41	2140.13
562.61	2123.74
562.80	2156.51
563.00	2342.88
563.19	2293.72
563.39	2267.10
563.59	2277.34
563.78	2166.75
563.98	2086.88
564.17	2164.70
564.37	2004.96
564.56	2236.38
564.76	2076.64
564.96	2252.77
565.15	2220.00
565.35	2439.13
565.54	2170.85
565.74	2265.05
565.93	2303.96
566.13	2201.57
566.32	2232.29
566.52	2283.49
566.71	2170.85
566.91	2289.63
567.11	2211.81
567.30	2207.71
567.50	2215.90
567.69	2238.43
567.89	2213.85
568.08	2164.70
568.28	2271.20
568.47	2160.61
568.67	2193.37
568.86	2146.27
569.06	2269.15
569.25	2236.38
569.45	2183.13
569.64	2084.83
569.84	2084.83
570.04	2220.00
570.23	2148.32
570.43	2168.80
570.62	2220.00
570.82	2385.88
571.01	2107.36
571.21	2105.31
571.40	2152.42
571.60	2295.77
571.79	2279.39
571.99	2252.77
572.18	2121.70
572.38	2256.86
572.57	2166.75
572.77	2310.11
572.96	2465.75
573.16	2324.44
573.35	2127.84
573.55	2277.34
573.74	2299.87
573.94	2238.43
574.13	2129.89
574.33	2367.45
574.52	2381.79
574.71	2234.33
574.91	2232.29
575.10	2052.06
575.30	2203.61
575.49	2131.94
575.69	2220.00
575.88	2181.09
576.08	2224.09
576.27	2353.12
576.47	2230.24
576.66	2357.21
576.86	2359.26
577.05	2234.33
577.25	2293.72
577.44	2371.55
577.64	2197.47
577.83	2351.07
578.02	2150.37
578.22	2371.55
578.41	2402.27
578.61	2236.38
578.80	2060.26
579.00	2240.48
579.19	2281.44
579.39	2314.20
579.58	2365.40
579.77	2230.24
579.97	2385.88
580.16	2312.16
580.36	2334.68
580.55	2273.25
580.75	2265.05
580.94	2244.57
581.13	2330.59
581.33	2453.47
581.52	2269.15
581.72	2428.89
581.91	2326.49
582.11	2162.66
582.30	2375.64
582.49	2316.25
582.69	2441.18
582.88	2295.77
583.08	2263.01
583.27	2308.06
583.47	2310.11
583.66	2121.70
583.85	2236.38
584.05	2154.46
584.24	2326.49
584.44	2349.02
584.63	2387.93
584.82	2396.12
585.02	2392.03
585.21	2445.27
585.41	2428.89
585.60	2340.83
585.79	2531.29
585.99	2521.05
586.18	2346.97
586.37	2973.65
586.57	4464.57
586.76	13557.55
586.96	32097.81
587.15	45540.68
587.34	54969.53
587.54	60621.92
587.73	55653.55
587.93	39658.91
588.12	29779.51
588.31	23733.91
588.51	20754.12
588.70	19134.17
588.89	17389.30
589.09	15210.26
589.28	12967.74
589.47	10575.71
589.67	8499.07
589.86	6535.07
590.06	4673.46
590.25	3792.84
590.44	3186.64
590.64	2904.02
590.83	2666.46
591.02	2426.84
591.22	2289.63
591.41	2375.64
591.60	2240.48
591.80	2453.47
591.99	2179.04
592.18	2213.85
592.38	2269.15
592.57	2242.53
592.76	2275.29
592.96	2326.49
593.15	2271.20
593.34	2445.27
593.54	2248.67
593.73	2338.78
593.92	2273.25
594.12	2283.49
594.31	2342.88
594.50	2430.94
594.70	2342.88
594.89	2490.33
595.08	2144.22
595.28	2420.70
595.47	2562.01
595.66	2351.07
595.86	2146.27
596.05	2195.42
596.24	2146.27
596.43	2457.56
596.63	2387.93
596.82	2244.57
597.01	2314.20
597.21	2480.09
597.40	2342.88
597.59	2238.43
597.79	2306.01
597.98	2379.74
598.17	2271.20
598.36	2314.20
598.56	2248.67
598.75	2115.55
598.94	2236.38
599.14	2287.58
599.33	2224.09
599.52	2312.16
599.71	2224.09
599.91	2258.91
600.10	2326.49
600.29	2220.00
600.48	2271.20
600.68	2205.66
600.87	2295.77
601.06	2115.55
601.26	2211.81
601.45	2260.96
601.64	2170.85
601.83	2297.82
602.03	2170.85
602.22	2088.93
602.41	2379.74
602.60	2451.42
602.80	2346.97
602.99	2236.38
603.18	2234.33
603.37	2195.42
603.57	2273.25
603.76	2236.38
603.95	2250.72
604.14	2201.57
604.34	2230.24
604.53	2213.85
604.72	2201.57
604.91	2238.43
605.10	2267.10
605.30	2033.63
605.49	2504.67
605.68	2295.77
605.87	2291.68
606.07	2142.18
606.26	2162.66
606.45	2324.44
606.64	2240.48
606.84	2211.81
607.03	2293.72
607.22	2320.35
607.41	2195.42
607.60	2174.94
607.80	2310.11
607.99	2220.00
608.18	2246.62
608.37	2193.37
608.56	2170.85
608.76	2344.92
608.95	2379.74
609.14	2398.17
609.33	2326.49
609.52	2416.60
609.72	2367.45
609.91	2398.17
610.10	2301.92
610.29	2308.06
610.48	2258.91
610.68	2291.68
610.87	2185.18
611.06	2301.92
611.25	2220.00
611.44	2349.02
611.63	2205.66
611.83	2306.01
612.02	2070.50
612.21	2271.20
612.40	2105.31
612.59	2099.17
612.79	2097.12
612.98	2166.75
613.17	2441.18
613.36	2275.29
613.55	2414.56
613.74	2342.88
613.93	2422.75
614.13	2432.99
614.32	2465.75
614.51	2449.37
614.70	2406.36
614.89	2263.01
615.08	2306.01
615.28	2742.23
615.47	2129.89
615.66	2330.59
615.85	2308.06
616.04	2406.36
616.23	2279.39
616.42	2301.92
616.62	2324.44
616.81	2260.96
617.00	2226.14
617.19	2283.49
617.38	2207.71
617.57	2283.49
617.76	2346.97
617.95	2291.68
618.15	2260.96
618.34	2353.12
618.53	2101.22
618.72	2383.84
618.91	2314.20
619.10	2332.64
619.29	2195.42
619.48	2236.38
619.68	2054.11
619.87	2185.18
620.06	2054.11
620.25	2256.86
620.44	2129.89
620.63	2213.85
620.82	2213.85
621.01	2295.77
621.20	2160.61
621.39	2263.01
621.59	2273.25
621.78	2191.33
621.97	2187.23
622.16	2357.21
622.35	2162.66
622.54	2271.20
622.73	2279.39
622.92	2052.06
623.11	2344.92
623.30	2209.76
623.49	2342.88
623.68	2129.89
623.88	2334.68
624.07	2131.94
624.26	2174.94
624.45	2254.81
624.64	2203.61
624.83	2314.20
625.02	2170.85
625.21	2267.10
625.40	2185.18
625.59	2334.68
625.78	2179.04
625.97	2277.34
626.16	2336.73
626.35	2336.73
626.54	2283.49
626.74	2467.80
626.93	2211.81
627.12	2244.57
627.31	2375.64
627.50	2207.71
627.69	2285.53
627.88	2166.75
628.07	2142.18
628.26	2041.82
628.45	2129.89
628.64	2078.69
628.83	2244.57
629.02	2117.60
629.21	2185.18
629.40	2287.58
629.59	2211.81
629.78	2176.99
629.97	2187.23
630.16	2238.43
630.35	2146.27
630.54	2183.13
630.73	2275.29
630.92	2244.57
631.11	2154.46
631.30	2166.75
631.49	2252.77
631.68	2228.19
631.87	2299.87
632.06	2154.46
632.25	2402.27
632.44	2254.81
632.63	2254.81
632.82	2217.95
633.01	2236.38
633.20	2318.30
633.39	2281.44
633.58	2179.04
633.77	2351.07
633.96	2301.92
634.15	2328.54
634.34	2244.57
634.53	2267.10
634.72	2207.71
634.91	2052.06
635.10	2244.57
635.29	2258.91
635.48	2238.43
635.67	2146.27
635.86	2154.46
636.05	2330.59
636.24	2338.78
636.43	2244.57
636.62	2217.95
636.81	1957.86
637.00	2211.81
637.19	2244.57
637.38	2189.28
637.57	2252.77
637.76	2295.77
637.95	2293.72
638.14	2308.06
638.33	2275.29
638.52	2322.40
638.71	2101.22
638.89	2183.13
639.08	2521.05
639.27	2359.26
639.46	2480.09
639.65	2926.55
639.84	2826.20
640.03	3049.43
640.22	2936.79
640.41	3000.27
640.60	2486.23
640.79	2510.81
640.98	2441.18
641.17	2424.80
641.36	2375.64
641.55	2381.79
641.74	2193.37
641.92	2228.19
642.11	2176.99
642.30	2179.04
642.49	2082.78
642.68	2148.32
642.87	2242.53
643.06	2287.58
643.25	2113.50
643.44	2179.04
643.63	2234.33
643.82	2301.92
644.00	2138.08
644.19	2252.77
644.38	2127.84
644.57	2240.48
644.76	2174.94
644.95	2238.43
645.14	2226.14
645.33	2170.85
645.52	2193.37
645.71	2066.40
645.89	2160.61
646.08	2189.28
646.27	2236.38
646.46	2383.84
646.65	2062.30
646.84	2234.33
647.03	2103.26
647.22	2220.00
647.40	2213.85
647.59	2195.42
647.78	2060.26
647.97	2054.11
648.16	2119.65
648.35	2367.45
648.54	2267.10
648.73	2211.81
648.91	2283.49
649.10	2238.43
649.29	2111.46
649.48	2146.27
649.67	2236.38
649.86	2162.66
650.05	2213.85
650.23	2369.50
650.42	2283.49
650.61	2400.22
650.80	2398.17
650.99	2549.72
651.18	2320.35
651.36	2346.97
651.55	2277.34
651.74	2281.44
651.93	2217.95
652.12	2355.16
652.31	2242.53
652.49	2285.53
652.68	2168.80
652.87	2369.50
653.06	2299.87
653.25	2408.41
653.44	2256.86
653.62	2373.60
653.81	2248.67
654.00	2254.81
654.19	2295.77
654.38	2486.23
654.56	2183.13
654.75	2170.85
654.94	2293.72
655.13	2234.33
655.32	2209.76
655.51	2201.57
655.69	2154.46
655.88	2256.86
656.07	2074.59
656.26	2234.33
656.45	2152.42
656.63	2101.22
656.82	2228.19
657.01	2308.06
657.20	2125.79
657.38	2357.21
657.57	2189.28
657.76	2105.31
657.95	2281.44
658.14	2121.70
658.32	2174.94
658.51	2148.32
658.70	2322.40
658.89	2224.09
659.08	2170.85
659.26	2398.17
659.45	2097.12
659.64	2252.77
659.83	2217.95
660.01	2531.29
660.20	2201.57
660.39	2375.64
660.58	2043.87
660.76	2234.33
660.95	2109.41
661.14	2220.00
661.33	2121.70
661.51	2203.61
661.70	2185.18
661.89	2263.01
662.08	2183.13
662.26	2027.49
662.45	2138.08
662.64	2439.13
662.83	2293.72
663.01	2045.92
663.20	2166.75
663.39	2281.44
663.58	2166.75
663.76	2187.23
663.95	2244.57
664.14	2121.70
664.32	2263.01
664.51	2080.74
664.70	2097.12
664.89	2250.72
665.07	2039.78
665.26	2277.34
665.45	2146.27
665.64	2291.68
665.82	2265.05
666.01	2301.92
666.20	2041.82
666.38	2267.10
666.57	2332.64
666.76	3434.44
666.95	8030.09
667.13	16477.96
667.32	21831.35
667.51	25337.47
667.69	27375.20
667.88	25161.34
668.07	18177.77
668.25	14493.47
668.44	11937.61
668.63	10223.46
668.81	9035.64
669.00	7923.59
669.19	7090.07
669.38	5994.40
669.56	5193.65
669.75	4440.00
669.94	3674.06
670.12	3047.38
670.31	2828.24
670.50	2582.49
670.68	2527.19
670.87	2414.56
671.06	2310.11
671.24	2369.50
671.43	2435.03
671.62	2283.49
671.80	2199.52
671.99	2312.16
672.18	2279.39
672.36	2355.16
672.55	2281.44
672.74	2256.86
672.92	2203.61
673.11	2297.82
673.29	2136.03
673.48	2217.95
673.67	2152.42
673.85	2281.44
674.04	2131.94
674.23	2179.04
674.41	2332.64
674.60	2101.22
674.79	2090.98
674.97	2064.35
675.16	2299.87
675.34	2301.92
675.53	2109.41
675.72	2232.29
675.90	2398.17
676.09	2224.09
676.28	2230.24
676.46	2021.35
676.65	2316.25
676.83	2027.49
677.02	2220.00
677.21	2193.37
677.39	2203.61
677.58	2039.78
677.77	2164.70
677.95	2150.37
678.14	2154.46
678.32	2183.13
678.51	2189.28
678.70	2377.69
678.88	2133.98
679.07	2144.22
679.25	2211.81
679.44	2150.37
679.63	2056.16
679.81	2213.85
680.00	2349.02
680.18	2156.51
680.37	2428.89
680.55	2138.08
680.74	2097.12
680.93	2031.58
681.11	2189.28
681.30	2244.57
681.48	2205.66
681.67	2187.23
681.85	2240.48
682.04	2105.31
682.23	2217.95
682.41	2211.81
682.60	2185.18
682.78	2187.23
682.97	2111.46
683.15	2142.18
683.34	2203.61
683.53	2285.53
683.71	2111.46
683.90	2342.88
684.08	2375.64
684.27	2158.56
684.45	2238.43
684.64	2371.55
684.82	2097.12
685.01	2168.80
685.19	2232.29
685.38	2373.60
685.57	2111.46
685.75	2162.66
685.94	2199.52
686.12	2090.98
686.31	2138.08
686.49	2389.98
686.68	2097.12
686.86	2226.14
687.05	2170.85
687.23	2375.64
687.42	2090.98
687.60	2062.30
687.79	2308.06
687.97	2277.34
688.16	2275.29
688.34	2338.78
688.53	2013.15
688.71	2250.72
688.90	2303.96
689.08	2088.93
689.27	2021.35
689.45	2269.15
689.64	2201.57
689.82	2224.09
690.01	2326.49
690.19	2285.53
690.38	2201.57
690.56	2318.30
690.75	2117.60
690.93	2113.50
691.12	2146.27
691.30	2197.47
691.49	2179.04
691.67	2211.81
691.86	2377.69
692.04	2185.18
692.23	2240.48
692.41	2115.55
692.60	2480.09
692.78	2338.78
692.97	2263.01
693.15	2310.11
693.34	2443.23
693.52	2281.44
693.71	2193.37
693.89	2191.33
694.08	2072.54
694.26	2244.57
694.44	2306.01
694.63	2236.38
694.81	2125.79
695.00	2129.89
695.18	2281.44
695.37	2412.51
695.55	2258.91
695.74	2152.42
695.92	2179.04
696.10	2285.53
696.29	2037.73
696.47	2121.70
696.66	2168.80
696.84	2138.08
697.03	2195.42
697.21	2349.02
697.40	3096.53
697.58	2236.38
697.76	2160.61
697.95	2168.80
698.13	2090.98
698.32	2236.38
698.50	2168.80
698.68	2187.23
698.87	2260.96
699.05	2379.74
699.24	2209.76
699.42	2144.22
699.61	2211.81
699.79	2205.66
699.97	2277.34
700.16	2127.84
700.34	2013.15
700.53	2248.67
700.71	2254.81
700.89	2269.15
701.08	2228.19
701.26	2179.04
701.45	2697.17
701.63	2168.80
701.81	2179.04
702.00	2058.21
702.18	2324.44
702.37	2211.81
702.55	2492.38
702.73	2416.60
702.92	2316.25
703.10	2641.88
703.28	2430.94
703.47	2269.15
703.65	2330.59
703.84	2381.79
704.02	2291.68
704.20	2389.98
704.39	2275.29
704.57	2228.19
704.75	2355.16
704.94	2283.49
705.12	2285.53
705.30	2514.91
705.49	4407.23
705.67	10749.79
705.86	19617.49
706.04	23799.44
706.22	27182.69
706.41	28532.30
706.59	24745.61
706.77	17374.97
706.96	14280.49
707.14	12320.58
707.32	10975.06
707.51	9566.06
707.69	7843.72
707.87	6324.13
708.06	5029.81
708.24	4169.66
708.42	3291.09
708.61	3057.62
708.79	2490.33
708.97	2400.22
709.16	2392.03
709.34	2291.68
709.52	2260.96
709.71	2222.05
709.89	2238.43
710.07	2138.08
710.26	2154.46
710.44	2176.99
710.62	2301.92
710.80	2224.09
710.99	2289.63
711.17	2295.77
711.35	2152.42
711.54	2142.18
711.72	2260.96
711.90	2222.05
712.09	2230.24
712.27	2138.08
712.45	2308.06
712.63	2181.09
712.82	2258.91
713.00	2162.66
713.18	2293.72
713.37	2244.57
713.55	2269.15
713.73	2209.76
713.91	2273.25
714.10	2211.81
714.28	2166.75
714.46	2222.05
714.65	2226.14
714.83	2246.62
715.01	2185.18
715.19	2236.38
715.38	2125.79
715.56	2154.46
715.74	2213.85
715.92	2154.46
716.11	2303.96
716.29	2019.30
716.47	2191.33
716.65	2201.57
716.84	2027.49
717.02	2318.30
717.20	2111.46
717.38	2121.70
717.57	2244.57
717.75	2236.38
717.93	2170.85
718.11	2281.44
718.30	2066.40
718.48	2156.51
718.66	2330.59
718.84	2301.92
719.03	2164.70
719.21	2129.89
719.39	2394.08
719.57	2326.49
719.75	2306.01
719.94	2099.17
720.12	2133.98
720.30	2244.57
720.48	2324.44
720.67	2224.09
720.85	2103.26
721.03	2162.66
721.21	2125.79
721.39	2373.60
721.58	2256.86
721.76	2185.18
721.94	2230.24
722.12	2228.19
722.30	2412.51
722.49	2080.74
722.67	2144.22
722.85	2242.53
723.03	2064.35
723.21	2168.80
723.40	2246.62
723.58	2326.49
723.76	2240.48
723.94	2392.03
724.12	2324.44
724.30	2369.50
724.49	2379.74
724.67	2117.60
724.85	2316.25
725.03	2093.02
725.21	2334.68
725.40	2330.59
725.58	2119.65
725.76	2359.26
725.94	2220.00
726.12	2146.27
726.30	2191.33
726.49	2191.33
726.67	2154.46
726.85	2293.72
727.03	2592.73
727.21	3665.86
727.39	5341.10
727.57	6340.51
727.76	7196.56
727.94	7505.81
728.12	7069.59
728.30	5640.11
728.48	4849.59
728.66	4569.02
728.84	4108.23
729.03	3399.63
729.21	3178.45
729.39	2734.04
729.57	2498.52
729.75	2408.41
729.93	2297.82
730.11	2236.38
730.30	2209.76
730.48	2203.61
730.66	2258.91
730.84	2260.96
731.02	2121.70
731.20	2144.22
731.38	2232.29
731.56	2138.08
731.74	2082.78
731.93	2203.61
732.11	2197.47
732.29	2277.34
732.47	2267.10
732.65	2168.80
732.83	2338.78
733.01	2273.25
733.19	2099.17
733.37	2187.23
733.56	2195.42
733.74	2152.42
733.92	2371.55
734.10	2138.08
734.28	2215.90
734.46	2119.65
734.64	2095.07
734.82	2215.90
735.00	2146.27
735.18	2213.85
735.36	2203.61
735.54	2215.90
735.73	2185.18
735.91	2258.91
736.09	2324.44
736.27	2228.19
736.45	2228.19
736.63	2017.25
736.81	2117.60
736.99	2285.53
737.17	2355.16
737.35	2129.89
737.53	2228.19
737.71	2183.13
737.89	2191.33
738.07	2101.22
738.25	2172.89
738.43	2109.41
738.61	2162.66
738.80	2088.93
738.98	2064.35
739.16	2090.98
739.34	2039.78
739.52	2301.92
739.70	2129.89
739.88	2207.71
740.06	2277.34
740.24	2023.39
740.42	2308.06
740.60	2029.54
740.78	2068.45
740.96	1990.63
741.14	2166.75
741.32	2185.18
741.50	2119.65
741.68	2334.68
741.86	2355.16
742.04	2093.02
742.22	2138.08
742.40	2197.47
742.58	2275.29
742.76	2144.22
742.94	2299.87
743.12	2111.46
743.30	2191.33
743.48	2328.54
743.66	2113.50
743.84	2226.14
744.02	2154.46
744.20	2293.72
744.38	2070.50
744.56	2101.22
744.74	2400.22
744.92	2203.61
745.10	2224.09
745.28	2250.72
745.46	2326.49
745.64	2123.74
745.82	2293.72
746.00	2232.29
746.18	2217.95
746.36	2093.02
746.54	2142.18
746.72	2265.05
746.90	2090.98
747.08	2256.86
747.26	2129.89
747.44	2279.39
747.62	2234.33
747.80	2193.37
747.98	2207.71
748.15	2189.28
748.33	2475.99
748.51	2240.48
748.69	2297.82
748.87	2133.98
749.05	2176.99
749.23	2240.48
749.41	2258.91
749.59	2148.32
749.77	2244.57
749.95	2140.13
750.13	2168.80
750.31	2213.85
750.49	2138.08
750.67	2334.68
750.85	2277.34
751.03	2226.14
751.20	2357.21
751.38	2199.52
751.56	2267.10
751.74	2176.99
751.92	2209.76
752.10	2074.59
752.28	2293.72
752.46	2133.98
752.64	2242.53
752.82	2158.56
753.00	2258.91
753.18	2222.05
753.35	2150.37
753.53	2168.80
753.71	2174.94
753.89	2285.53
754.07	2213.85
754.25	2271.20
754.43	2258.91
754.61	2090.98
754.79	2232.29
754.97	2193.37
755.14	2244.57
755.32	2035.68
755.50	2209.76
755.68	2179.04
755.86	2027.49
756.04	2152.42
756.22	2043.87
756.40	2320.35
756.57	2428.89
756.75	2168.80
756.93	2314.20
757.11	2349.02
757.29	2064.35
757.47	2090.98
757.65	2043.87
757.82	2076.64
758.00	2121.70
758.18	2213.85
758.36	2045.92
758.54	2353.12
758.72	2074.59
758.90	2273.25
759.07	2238.43
759.25	2019.30
759.43	2213.85
759.61	2111.46
759.79	3014.61
759.97	2228.19
760.15	2146.27
760.32	2174.94
760.50	2232.29
760.68	2338.78
760.86	2039.78
761.04	2244.57
761.22	2222.05
761.39	2215.90
761.57	2242.53
761.75	2199.52
761.93	2215.90
762.11	2144.22
762.28	2232.29
762.46	2105.31
762.64	2340.83
762.82	2101.22
763.00	2164.70
763.18	2326.49
763.35	2090.98
763.53	2275.29
763.71	2203.61
763.89	2164.70
764.07	2179.04
764.24	2209.76
764.42	2191.33
764.60	2076.64
764.78	2217.95
764.96	2283.49
765.13	2326.49
765.31	2199.52
765.49	2242.53
765.67	2140.13
765.84	2148.32
766.02	2158.56
766.20	2101.22
766.38	2207.71
766.56	2273.25
766.73	2260.96
766.91	2187.23
767.09	2156.51
767.27	2289.63
767.44	2076.64
767.62	2201.57
767.80	2215.90
767.98	2205.66
768.15	2172.89
768.33	2279.39
768.51	2215.90
768.69	2275.29
768.87	2222.05
769.04	2252.77
769.22	2377.69
769.40	2281.44
769.58	2406.36
769.75	2166.75
769.93	2308.06
770.11	2156.51
770.28	2093.02
770.46	2199.52
770.64	2234.33
770.82	2205.66
770.99	2195.42
771.17	2234.33
771.35	2207.71
771.53	2242.53
771.70	2156.51
771.88	2269.15
772.06	2158.56
772.23	2211.81
772.41	2230.24
772.59	2129.89
772.77	2097.12
772.94	2226.14
773.12	2240.48
773.30	2203.61
773.47	2170.85
773.65	2103.26
773.83	2332.64
774.01	2146.27
774.18	1996.77
774.36	2152.42
774.54	2009.06
774.71	2238.43
774.89	2033.63
775.07	2093.02
775.24	2115.55
775.42	2107.36
775.60	2322.40
775.78	2097.12
775.95	2058.21
776.13	2095.07
776.31	1988.58
776.48	2209.76
776.66	2365.40
776.84	2168.80
777.01	2088.93
777.19	2119.65
777.37	2117.60
777.54	2281.44
777.72	2314.20
777.90	2248.67
778.07	2121.70
778.25	2482.14
778.43	2312.16
778.60	2074.59
778.78	2203.61
778.96	2338.78
779.13	1961.95
779.31	2301.92
779.49	2154.46
779.66	2252.77
779.84	2217.95
780.01	2172.89
780.19	2121.70
780.37	2291.68
780.54	2275.29
780.72	2168.80
780.90	2197.47
781.07	2207.71
781.25	2103.26
781.43	2236.38
781.60	2123.74
781.78	2412.51
781.95	2271.20
782.13	2072.54
782.31	2195.42
782.48	2031.58
782.66	2154.46
782.83	2441.18
783.01	2207.71
783.19	2293.72
783.36	2170.85
783.54	2056.16
783.72	2215.90
783.89	2080.74
784.07	2256.86
784.24	2242.53
784.42	2326.49
784.60	2160.61
784.77	2250.72
784.95	1972.19
785.12	2076.64
785.30	2217.95
785.47	2097.12
785.65	2101.22
785.83	2174.94
786.00	2080.74
786.18	2224.09
786.35	2045.92
786.53	2107.36
786.71	2263.01
786.88	2248.67
787.06	2244.57
787.23	2265.05
787.41	2056.16
787.58	2217.95
787.76	2095.07
787.94	2242.53
788.11	2236.38
788.29	2076.64
788.46	2113.50
788.64	2064.35
788.81	2166.75
788.99	2082.78
789.16	2109.41
789.34	2246.62
789.52	2152.42
789.69	2113.50
789.87	2080.74
790.04	2074.59
790.22	2146.27
790.39	2408.41
790.57	2154.46
790.74	2103.26
790.92	2275.29
791.09	1972.19
791.27	2275.29
791.44	2291.68
791.62	2222.05
791.79	2271.20
791.97	2170.85
792.15	2432.99
792.32	2240.48
792.50	2199.52
792.67	2353.12
792.85	2303.96
793.02	2217.95
793.20	2197.47
793.37	2080.74
793.55	2191.33
793.72	2039.78
793.90	2277.34
794.07	2101.22
794.25	2084.83
794.42	2226.14
794.60	2203.61
794.77	2176.99
794.95	2164.70
795.12	2281.44
795.30	2183.13
795.47	2009.06
795.65	2443.23
795.82	2224.09
796.00	2136.03
796.17	2109.41
796.34	2142.18
796.52	2230.24
796.69	2363.36
796.87	2252.77
797.04	2228.19
797.22	2281.44
797.39	2217.95
797.57	2301.92
797.74	2191.33
797.92	2232.29
798.09	2162.66
798.27	2334.68
798.44	2179.04
798.62	2154.46
798.79	2152.42
798.96	2250.72
799.14	2203.61
799.31	2398.17
799.49	2179.04
799.66	2109.41
799.84	2160.61
800.01	2097.12
800.19	2267.10
800.36	2054.11
800.53	2299.87
800.71	2224.09
800.88	2310.11
801.06	2133.98
801.23	2170.85
801.41	2127.84
801.58	2176.99
801.75	2166.75
801.93	2119.65
802.10	2283.49
802.28	2140.13
802.45	2090.98
802.63	2281.44
802.80	2353.12
802.97	2140.13
803.15	2224.09
803.32	2150.37
803.50	2148.32
803.67	2023.39
803.84	1988.58
804.02	2129.89
804.19	2156.51
804.37	2007.01
804.54	2107.36
804.71	2211.81
804.89	2174.94
805.06	2138.08
805.24	2088.93
805.41	2109.41
805.58	2107.36
805.76	2375.64
805.93	2228.19
806.10	2258.91
806.28	2269.15
806.45	2119.65
806.63	2201.57
806.80	2197.47
806.97	2158.56
807.15	2183.13
807.32	2197.47
807.49	2242.53
807.67	2052.06
807.84	2226.14
808.01	2054.11
808.19	2353.12
808.36	2387.93
808.54	2207.71
808.71	2119.65
808.88	2170.85
809.06	2297.82
809.23	2306.01
809.40	2150.37
809.58	2205.66
809.75	2170.85
809.92	2056.16
810.10	2344.92
810.27	2136.03
810.44	2183.13
810.62	2224.09
810.79	2258.91
810.96	2121.70
811.14	2133.98
811.31	2228.19
811.48	2207.71
811.66	2166.75
811.83	2328.54
812.00	2193.37
812.18	2191.33
812.35	2389.98
812.52	2109.41
812.69	2119.65
812.87	2138.08
813.04	2142.18
813.21	2121.70
813.39	2162.66
813.56	2058.21
813.73	2228.19
813.91	2027.49
814.08	2162.66
814.25	2170.85
814.42	2080.74
814.60	2172.89
814.77	2199.52
814.94	2136.03
815.12	2236.38
815.29	2314.20
815.46	2136.03
815.63	2144.22
815.81	2148.32
815.98	2193.37
816.15	2156.51
816.33	2138.08
816.50	2162.66
816.67	2099.17
816.84	2203.61
817.02	2117.60
817.19	2179.04
817.36	2217.95
817.53	2248.67
817.71	2152.42
817.88	2234.33
818.05	2160.61
818.22	2138.08
818.40	2357.21
818.57	2172.89
818.74	2271.20
818.91	2207.71
819.09	2260.96
819.26	2230.24
819.43	2136.03
819.60	2121.70
819.78	2230.24
819.95	2326.49
820.12	2043.87
820.29	2306.01
820.47	2220.00
820.64	2097.12
820.81	2093.02
820.98	2027.49
821.15	2131.94
821.33	2281.44
821.50	2090.98
821.67	2293.72
821.84	2133.98
822.02	2260.96
822.19	2326.49
822.36	2160.61
822.53	2133.98
822.70	2115.55
822.88	2144.22
823.05	2338.78
823.22	2205.66
823.39	2203.61
823.56	2256.86
823.74	2369.50
823.91	2146.27
824.08	2142.18
824.25	2086.88
824.42	2420.70
824.60	2035.68
824.77	2242.53
824.94	2226.14
825.11	2246.62
825.28	2064.35
825.45	2162.66
825.63	2203.61
825.80	2113.50
825.97	2211.81
826.14	2097.12
826.31	2076.64
826.48	2234.33
826.66	2088.93
826.83	2148.32
827.00	2086.88
827.17	2086.88
827.34	2144.22
827.51	2140.13
827.69	2176.99
827.86	2080.74
828.03	2226.14
828.20	2123.74
828.37	2070.50
828.54	2150.37
828.71	2101.22
828.89	2322.40
829.06	2160.61
829.23	2355.16
829.40	2158.56
829.57	2111.46
829.74	2252.77
829.91	2170.85
830.09	2133.98
830.26	2236.38
830.43	2406.36
830.60	2195.42
830.77	2226.14
830.94	2332.64
831.11	2267.10
831.28	2090.98
831.46	2281.44
831.63	2103.26
831.80	2271.20
831.97	2074.59
832.14	2105.31
832.31	2185.18
832.48	2226.14
832.65	2277.34
832.82	2152.42
832.99	2281.44
833.17	2117.60
833.34	2314.20
833.51	2238.43
833.68	1980.39
833.85	2336.73
834.02	2113.50
834.19	2062.30
834.36	2099.17
834.53	2127.84
834.70	2222.05
834.87	2234.33
835.04	2111.46
835.22	2054.11
835.39	2150.37
835.56	2080.74
835.73	2150.37
835.90	2340.83
836.07	2078.69
836.24	2240.48
836.41	2101.22
836.58	2072.54
836.75	2369.50
836.92	2211.81
837.09	2170.85
837.26	2312.16
837.43	2199.52
837.60	2222.05
837.77	2121.70
837.94	2389.98
838.12	2256.86
838.29	2152.42
838.46	2019.30
838.63	2119.65
838.80	2346.97
838.97	2236.38
839.14	2060.26
839.31	2168.80
839.48	2289.63
839.65	2160.61
839.82	2144.22
839.99	2138.08
840.16	2207.71
840.33	2176.99
840.50	2117.60
840.67	2068.45
840.84	1978.34
841.01	2121.70
841.18	2142.18
841.35	2205.66
841.52	2322.40
841.69	2361.31
841.86	2209.76
842.03	2187.23
842.20	2277.34
842.37	2176.99
842.54	2113.50
842.71	2183.13
842.88	2148.32
843.05	2183.13
843.22	2115.55
843.39	2291.68
843.56	2179.04
843.73	2146.27
843.90	2052.06
844.07	2183.13
844.24	2281.44
844.41	2265.05
844.58	2197.47
844.75	2160.61
844.92	2156.51
845.09	2172.89
845.26	2152.42
845.43	2244.57
845.60	2156.51
845.77	2205.66
845.94	2152.42
846.10	2250.72
846.27	2019.30
846.44	2039.78
846.61	2088.93
846.78	2277.34
846.95	2267.10
847.12	2109.41
847.29	2050.02
847.46	2166.75
847.63	2199.52
847.80	2113.50
847.97	2125.79
848.14	2400.22
848.31	2176.99
848.48	2076.64
848.65	2205.66
848.82	2117.60
848.98	2428.89
849.15	2215.90
849.32	2242.53
849.49	2318.30
849.66	2236.38
849.83	2125.79
850.00	2045.92
850.17	2267.10
850.34	2187.23
850.51	2142.18
850.68	2199.52
850.85	2392.03
851.01	2207.71
851.18	2209.76
851.35	2121.70
851.52	2244.57
851.69	2277.34
851.86	2045.92
852.03	2058.21
852.20	2263.01
852.37	2138.08
852.53	1992.67
852.70	2133.98
852.87	2195.42
853.04	2240.48
853.21	2109.41
853.38	2232.29
853.55	2289.63
853.72	2316.25
853.89	2013.15
854.05	2090.98
854.22	2183.13
854.39	2179.04
854.56	2179.04
854.73	2244.57
854.90	2047.97
855.07	2201.57
855.23	2127.84
855.40	2140.13
855.57	2097.12
855.74	2023.39
855.91	2340.83
856.08	2111.46
856.25	2097.12
856.41	2166.75
856.58	2097.12
856.75	2179.04
856.92	2019.30
857.09	2318.30
857.26	2043.87
857.42	2150.37
857.59	2252.77
857.76	2097.12
857.93	2148.32
858.10	2152.42
858.27	2054.11
858.43	2234.33
858.60	2201.57
858.77	2076.64
858.94	2131.94
859.11	2226.14
859.27	2187.23
859.44	2146.27
859.61	2340.83
859.78	2263.01
859.95	2105.31
860.12	2185.18
860.28	2367.45
860.45	2410.46
860.62	2131.94
860.79	2162.66
860.95	2168.80
861.12	2105.31
861.29	2093.02
861.46	2109.41
861.63	2252.77
861.79	2215.90
861.96	2029.54
862.13	2152.42
862.30	2232.29
862.47	2136.03
862.63	2127.84
862.80	2226.14
862.97	2263.01
863.14	2203.61
863.30	2230.24
863.47	2220.00
863.64	2279.39
863.81	2138.08
863.97	2099.17
864.14	2140.13
864.31	2154.46
864.48	2090.98
864.65	2129.89
864.81	2244.57
864.98	2183.13
865.15	2187.23
865.32	2248.67
865.48	2252.77
865.65	2367.45
865.82	2174.94
865.98	2179.04
866.15	2271.20
866.32	2205.66
866.49	2185.18
866.65	2168.80
866.82	2097.12
866.99	2220.00
867.16	2095.07
867.32	2181.09
867.49	2127.84
867.66	2115.55
867.83	2226.14
867.99	2047.97
868.16	2150.37
868.33	2152.42
868.49	2213.85
868.66	2179.04
868.83	2248.67
868.99	2193.37
869.16	2187.23
869.33	2240.48
869.50	2291.68
869.66	2105.31
869.83	2215.90
870.00	2088.93
870.16	2220.00
870.33	2154.46
870.50	2338.78
870.66	2181.09
870.83	2301.92
871.00	2236.38
871.17	2197.47
871.33	2183.13
871.50	2138.08
871.67	2197.47
871.83	2088.93
872.00	2283.49
872.17	2131.94
872.33	2275.29
872.50	2258.91
872.67	2138.08
872.83	2133.98
873.00	2193.37
873.17	2093.02
873.33	2117.60
873.50	2176.99
873.67	2164.70
873.83	2140.13
874.00	2093.02
874.16	2215.90
874.33	2236.38
874.50	2045.92
874.66	2189.28
874.83	2199.52
875.00	2336.73
875.16	2283.49
875.33	2222.05
875.50	2007.01
875.66	2113.50
875.83	2183.13
875.99	2154.46
876.16	2138.08
876.33	2160.61
876.49	2162.66
876.66	2234.33
876.83	2193.37
876.99	2111.46
877.16	2138.08
877.32	2146.27
877.49	2129.89
877.66	2185.18
877.82	2353.12
877.99	2170.85
878.15	2326.49
878.32	2187.23
878.49	2183.13
878.65	2113.50
878.82	2252.77
878.98	2107.36
879.15	2299.87
879.32	2191.33
879.48	2236.38
879.65	2138.08
879.81	2162.66
879.98	2064.35
880.15	2146.27
880.31	2271.20
880.48	2090.98
880.64	2254.81
880.81	2269.15
880.97	2314.20
881.14	2279.39
881.31	2095.07
881.47	2322.40
881.64	2168.80
881.80	1992.67
881.97	2113.50
882.13	2215.90
882.30	2127.84
882.47	2142.18
882.63	2121.70
882.80	2078.69
882.96	2148.32
883.13	2293.72
883.29	2070.50
883.46	2250.72
883.62	2301.92
883.79	2252.77
883.95	2267.10
884.12	2138.08
884.29	2281.44
884.45	2164.70
884.62	2220.00
884.78	2035.68
884.95	2412.51
885.11	2101.22
885.28	2240.48
885.44	2117.60
885.61	2263.01
885.77	2332.64
885.94	2201.57
886.10	2160.61
886.27	2164.70
886.43	2373.60
886.60	2299.87
886.76	2095.07
886.93	2064.35
887.09	2250.72
887.26	2072.54
887.42	2111.46
887.59	2293.72
887.75	2383.84
887.92	2258.91
888.08	2220.00
888.25	2314.20
888.41	2213.85
888.58	2154.46
888.74	2084.83
888.91	2054.11
>>>>>End Processed Spectral Data<<<<<
