SpectraSuite Data File
++++++++++++++++++++++++++++++++++++
Date: Thu May 05 12:35:47 CEST 2016
User: root
Dark Spectrum Present: No
Reference Spectrum Present: No
Number of Sampled Component Spectra: 1
Spectrometers: USB4C02835
Integration Time (usec): 100000 (USB4C02835)
Spectra Averaged: 1 (USB4C02835)
Boxcar Smoothing: 0 (USB4C02835)
Correct for Electrical Dark: No (USB4C02835)
Strobe/Lamp Enabled: No (USB4C02835)
Correct for Detector Non-linearity: No (USB4C02835)
Correct for Stray Light: No (USB4C02835)
Number of Pixels in Processed Spectrum: 3648
>>>>>Begin Processed Spectral Data<<<<<
177.47	1802.21
177.69	1802.21
177.91	1802.21
178.13	1726.44
178.36	1777.64
178.58	2158.56
178.80	2252.77
179.02	2056.16
179.24	2113.50
179.46	2146.27
179.68	2164.70
179.90	2236.38
180.13	2174.94
180.35	2138.08
180.57	2138.08
180.79	2211.81
181.01	2222.05
181.23	2201.57
181.45	2209.76
181.67	2250.72
181.90	2226.14
182.12	2193.37
182.34	1943.52
182.56	2365.40
182.78	2242.53
183.00	2111.46
183.22	2142.18
183.44	2064.35
183.66	2484.19
183.89	2244.57
184.11	2136.03
184.33	2220.00
184.55	2334.68
184.77	2131.94
184.99	2158.56
185.21	2203.61
185.43	2400.22
185.65	2076.64
185.87	2111.46
186.10	2463.71
186.32	2406.36
186.54	2224.09
186.76	2131.94
186.98	2314.20
187.20	2222.05
187.42	2152.42
187.64	2125.79
187.86	2236.38
188.08	2295.77
188.30	2041.82
188.52	2160.61
188.75	2252.77
188.97	2285.53
189.19	2090.98
189.41	2142.18
189.63	2234.33
189.85	2211.81
190.07	2039.78
190.29	2007.01
190.51	2236.38
190.73	2060.26
190.95	2211.81
191.17	2078.69
191.39	2068.45
191.61	2199.52
191.84	2125.79
192.06	2185.18
192.28	2070.50
192.50	2473.95
192.72	2160.61
192.94	2148.32
193.16	2201.57
193.38	2242.53
193.60	2064.35
193.82	2275.29
194.04	2203.61
194.26	2195.42
194.48	2197.47
194.70	2142.18
194.92	2187.23
195.14	2230.24
195.36	2064.35
195.58	2174.94
195.80	2162.66
196.02	2097.12
196.24	2144.22
196.46	2222.05
196.69	2095.07
196.91	2461.66
197.13	2168.80
197.35	2217.95
197.57	2310.11
197.79	2220.00
198.01	2154.46
198.23	2207.71
198.45	2246.62
198.67	2086.88
198.89	2101.22
199.11	2179.04
199.33	2058.21
199.55	1978.34
199.77	2138.08
199.99	2230.24
200.21	2160.61
200.43	2197.47
200.65	2019.30
200.87	1945.57
201.09	2232.29
201.31	2183.13
201.53	2226.14
201.75	2193.37
201.97	2176.99
202.19	2226.14
202.41	2183.13
202.63	2289.63
202.85	2275.29
203.07	2303.96
203.29	2133.98
203.51	2039.78
203.73	2113.50
203.95	2475.99
204.17	2174.94
204.39	2187.23
204.61	2144.22
204.83	2101.22
205.05	2267.10
205.27	2181.09
205.49	2478.04
205.71	2127.84
205.93	2043.87
206.15	2115.55
206.37	2199.52
206.59	2170.85
206.81	2050.02
207.03	2146.27
207.25	2123.74
207.47	2271.20
207.69	2176.99
207.91	2310.11
208.13	2342.88
208.34	2123.74
208.56	2146.27
208.78	2119.65
209.00	2179.04
209.22	2113.50
209.44	2144.22
209.66	2039.78
209.88	2131.94
210.10	2133.98
210.32	2078.69
210.54	2240.48
210.76	2201.57
210.98	2217.95
211.20	2027.49
211.42	2226.14
211.64	2318.30
211.86	2285.53
212.08	2181.09
212.30	2113.50
212.52	2088.93
212.74	2121.70
212.96	2209.76
213.17	2172.89
213.39	2260.96
213.61	2318.30
213.83	2187.23
214.05	2269.15
214.27	2228.19
214.49	2158.56
214.71	2084.83
214.93	2260.96
215.15	2156.51
215.37	2287.58
215.59	2129.89
215.81	2220.00
216.03	2301.92
216.24	2158.56
216.46	2156.51
216.68	2113.50
216.90	2267.10
217.12	2275.29
217.34	2203.61
217.56	2170.85
217.78	2271.20
218.00	2236.38
218.22	2215.90
218.44	2158.56
218.66	2230.24
218.87	2342.88
219.09	2160.61
219.31	2138.08
219.53	2224.09
219.75	2138.08
219.97	2125.79
220.19	2131.94
220.41	2236.38
220.63	2306.01
220.85	2133.98
221.06	2109.41
221.28	2318.30
221.50	2199.52
221.72	2181.09
221.94	2174.94
222.16	2277.34
222.38	2285.53
222.60	2176.99
222.82	2146.27
223.03	2238.43
223.25	2068.45
223.47	2129.89
223.69	2375.64
223.91	2185.18
224.13	2133.98
224.35	2103.26
224.57	2207.71
224.78	2203.61
225.00	2115.55
225.22	2097.12
225.44	2111.46
225.66	2199.52
225.88	2179.04
226.10	2138.08
226.32	2174.94
226.53	2320.35
226.75	2109.41
226.97	2095.07
227.19	2062.30
227.41	2097.12
227.63	2111.46
227.85	1900.52
228.06	2220.00
228.28	2109.41
228.50	2281.44
228.72	2052.06
228.94	2078.69
229.16	2062.30
229.37	2078.69
229.59	2072.54
229.81	2281.44
230.03	2144.22
230.25	2093.02
230.47	2064.35
230.69	2129.89
230.90	2265.05
231.12	2113.50
231.34	2269.15
231.56	2179.04
231.78	2095.07
232.00	2174.94
232.21	2168.80
232.43	2158.56
232.65	1966.05
232.87	2226.14
233.09	2064.35
233.30	2107.36
233.52	2299.87
233.74	2162.66
233.96	2127.84
234.18	2148.32
234.40	2191.33
234.61	2437.08
234.83	2129.89
235.05	2103.26
235.27	2496.47
235.49	2279.39
235.70	2127.84
235.92	2215.90
236.14	2220.00
236.36	2406.36
236.58	2062.30
236.79	2187.23
237.01	2203.61
237.23	2256.86
237.45	2340.83
237.67	2035.68
237.88	2185.18
238.10	2281.44
238.32	2068.45
238.54	2174.94
238.76	2133.98
238.97	2156.51
239.19	2097.12
239.41	2244.57
239.63	2326.49
239.85	2138.08
240.06	2129.89
240.28	2084.83
240.50	2287.58
240.72	2166.75
240.93	2129.89
241.15	2230.24
241.37	2138.08
241.59	2322.40
241.81	2099.17
242.02	1988.58
242.24	2226.14
242.46	2281.44
242.68	2068.45
242.89	2158.56
243.11	2234.33
243.33	2170.85
243.55	2097.12
243.76	2215.90
243.98	2133.98
244.20	2213.85
244.42	2119.65
244.64	2103.26
244.85	2113.50
245.07	2058.21
245.29	2226.14
245.51	2133.98
245.72	2217.95
245.94	2267.10
246.16	2195.42
246.38	2248.67
246.59	2174.94
246.81	2097.12
247.03	2060.26
247.24	2050.02
247.46	2113.50
247.68	2174.94
247.90	2127.84
248.11	2150.37
248.33	2314.20
248.55	2185.18
248.77	2203.61
248.98	2226.14
249.20	2273.25
249.42	2129.89
249.64	2228.19
249.85	2156.51
250.07	2121.70
250.29	2246.62
250.50	2234.33
250.72	2062.30
250.94	2213.85
251.16	2332.64
251.37	2203.61
251.59	2226.14
251.81	2279.39
252.02	2334.68
252.24	2138.08
252.46	2220.00
252.68	2152.42
252.89	2136.03
253.11	1998.82
253.33	2277.34
253.54	2310.11
253.76	2045.92
253.98	2181.09
254.20	2111.46
254.41	2105.31
254.63	2168.80
254.85	2056.16
255.06	2090.98
255.28	2187.23
255.50	2220.00
255.71	2099.17
255.93	2090.98
256.15	2150.37
256.36	2289.63
256.58	2099.17
256.80	2168.80
257.02	2220.00
257.23	2181.09
257.45	2240.48
257.67	2244.57
257.88	2090.98
258.10	2166.75
258.32	2160.61
258.53	2152.42
258.75	2267.10
258.97	2107.36
259.18	2093.02
259.40	2136.03
259.62	2430.94
259.83	2250.72
260.05	2150.37
260.27	2635.74
260.48	2285.53
260.70	1970.15
260.92	2146.27
261.13	2148.32
261.35	2220.00
261.57	2244.57
261.78	2072.54
262.00	2101.22
262.22	2244.57
262.43	2078.69
262.65	2066.40
262.86	2082.78
263.08	2463.71
263.30	2265.05
263.51	2043.87
263.73	2090.98
263.95	2322.40
264.16	2133.98
264.38	2037.73
264.60	2136.03
264.81	2187.23
265.03	2301.92
265.25	2265.05
265.46	2084.83
265.68	2303.96
265.89	2203.61
266.11	2050.02
266.33	2187.23
266.54	2359.26
266.76	2201.57
266.98	2162.66
267.19	2215.90
267.41	2256.86
267.62	2179.04
267.84	2007.01
268.06	2228.19
268.27	2193.37
268.49	2306.01
268.70	2252.77
268.92	2090.98
269.14	2131.94
269.35	2011.11
269.57	2101.22
269.79	2183.13
270.00	2127.84
270.22	2242.53
270.43	2111.46
270.65	1996.77
270.87	2293.72
271.08	2187.23
271.30	2185.18
271.51	2176.99
271.73	2250.72
271.95	2303.96
272.16	2142.18
272.38	2154.46
272.59	2236.38
272.81	2260.96
273.02	2129.89
273.24	2150.37
273.46	2324.44
273.67	2101.22
273.89	2136.03
274.10	2097.12
274.32	2346.97
274.54	2181.09
274.75	2222.05
274.97	2179.04
275.18	2293.72
275.40	2199.52
275.61	2152.42
275.83	2263.01
276.05	2140.13
276.26	2181.09
276.48	2172.89
276.69	2045.92
276.91	2150.37
277.12	2301.92
277.34	2283.49
277.55	2283.49
277.77	2213.85
277.99	2144.22
278.20	2146.27
278.42	2107.36
278.63	2088.93
278.85	2113.50
279.06	2062.30
279.28	2193.37
279.49	2291.68
279.71	2322.40
279.93	2170.85
280.14	2119.65
280.36	2080.74
280.57	2273.25
280.79	2193.37
281.00	2090.98
281.22	2168.80
281.43	2334.68
281.65	1974.24
281.86	2115.55
282.08	2148.32
282.29	2265.05
282.51	2074.59
282.73	2056.16
282.94	2021.35
283.16	2277.34
283.37	2318.30
283.59	2226.14
283.80	2252.77
284.02	2142.18
284.23	2265.05
284.45	2176.99
284.66	2117.60
284.88	2125.79
285.09	2217.95
285.31	2273.25
285.52	2242.53
285.74	2097.12
285.95	2260.96
286.17	2142.18
286.38	2340.83
286.60	2068.45
286.81	2146.27
287.03	2160.61
287.24	2215.90
287.46	2213.85
287.67	2166.75
287.89	2344.92
288.10	2203.61
288.32	2160.61
288.53	2310.11
288.75	2117.60
288.96	2244.57
289.18	2078.69
289.39	2166.75
289.61	2213.85
289.82	2355.16
290.04	2404.32
290.25	2025.44
290.47	2213.85
290.68	2160.61
290.90	2269.15
291.11	2088.93
291.33	2287.58
291.54	2174.94
291.76	2185.18
291.97	2244.57
292.18	2211.81
292.40	2162.66
292.61	2103.26
292.83	2410.46
293.04	2144.22
293.26	2138.08
293.47	2129.89
293.69	2107.36
293.90	2103.26
294.12	2379.74
294.33	2191.33
294.55	2133.98
294.76	2220.00
294.97	2295.77
295.19	2375.64
295.40	2113.50
295.62	2160.61
295.83	2260.96
296.05	2125.79
296.26	2236.38
296.48	2115.55
296.69	2207.71
296.90	2205.66
297.12	2240.48
297.33	2244.57
297.55	2170.85
297.76	2277.34
297.98	2269.15
298.19	2220.00
298.41	2226.14
298.62	2146.27
298.83	2336.73
299.05	2187.23
299.26	2205.66
299.48	2176.99
299.69	2238.43
299.90	2113.50
300.12	2144.22
300.33	2209.76
300.55	2144.22
300.76	2275.29
300.98	2176.99
301.19	2285.53
301.40	2168.80
301.62	2220.00
301.83	2285.53
302.05	2191.33
302.26	2152.42
302.47	2220.00
302.69	2136.03
302.90	2189.28
303.12	2011.11
303.33	2242.53
303.54	2359.26
303.76	2146.27
303.97	2263.01
304.19	2365.40
304.40	2047.97
304.61	2238.43
304.83	2346.97
305.04	2283.49
305.26	2291.68
305.47	2129.89
305.68	2248.67
305.90	2095.07
306.11	2324.44
306.33	2207.71
306.54	2144.22
306.75	2064.35
306.97	2115.55
307.18	2080.74
307.39	2097.12
307.61	2260.96
307.82	2224.09
308.04	2291.68
308.25	2076.64
308.46	2217.95
308.68	2160.61
308.89	2148.32
309.10	2215.90
309.32	2248.67
309.53	2105.31
309.74	2285.53
309.96	2179.04
310.17	2185.18
310.39	2123.74
310.60	2209.76
310.81	2150.37
311.03	2074.59
311.24	2244.57
311.45	2203.61
311.67	2373.60
311.88	2205.66
312.09	2121.70
312.31	2062.30
312.52	2166.75
312.73	2125.79
312.95	2025.44
313.16	2076.64
313.37	2338.78
313.59	2267.10
313.80	2277.34
314.01	2383.84
314.23	2121.70
314.44	2103.26
314.65	2113.50
314.87	2154.46
315.08	2111.46
315.29	2154.46
315.51	2136.03
315.72	1943.52
315.93	2344.92
316.15	2306.01
316.36	2119.65
316.57	2183.13
316.79	2234.33
317.00	2056.16
317.21	2267.10
317.43	2160.61
317.64	2176.99
317.85	2230.24
318.07	2088.93
318.28	2193.37
318.49	2371.55
318.70	2533.34
318.92	2316.25
319.13	2420.70
319.34	2375.64
319.56	2252.77
319.77	2330.59
319.98	2387.93
320.20	2308.06
320.41	2220.00
320.62	2275.29
320.83	2095.07
321.05	2435.03
321.26	2273.25
321.47	2119.65
321.69	2275.29
321.90	2047.97
322.11	2103.26
322.32	2242.53
322.54	2377.69
322.75	2080.74
322.96	2449.37
323.18	2086.88
323.39	2043.87
323.60	2113.50
323.81	2256.86
324.03	2129.89
324.24	2176.99
324.45	2160.61
324.66	2111.46
324.88	2289.63
325.09	2299.87
325.30	2160.61
325.52	2203.61
325.73	2207.71
325.94	2172.89
326.15	2056.16
326.37	2084.83
326.58	2242.53
326.79	2387.93
327.00	2056.16
327.22	2148.32
327.43	2136.03
327.64	2107.36
327.85	2193.37
328.07	2232.29
328.28	2375.64
328.49	2097.12
328.70	2234.33
328.92	2125.79
329.13	2146.27
329.34	2232.29
329.55	2332.64
329.76	2332.64
329.98	2140.13
330.19	2254.81
330.40	2197.47
330.61	2195.42
330.83	2299.87
331.04	2172.89
331.25	2185.18
331.46	2187.23
331.68	2064.35
331.89	2332.64
332.10	2125.79
332.31	2039.78
332.52	2160.61
332.74	2408.41
332.95	2047.97
333.16	2121.70
333.37	2248.67
333.58	2107.36
333.80	2199.52
334.01	2078.69
334.22	2154.46
334.43	2103.26
334.64	2105.31
334.86	2097.12
335.07	2115.55
335.28	2346.97
335.49	2054.11
335.70	2240.48
335.92	2283.49
336.13	2359.26
336.34	2179.04
336.55	2174.94
336.76	2179.04
336.98	2011.11
337.19	2154.46
337.40	2299.87
337.61	2383.84
337.82	2121.70
338.04	2236.38
338.25	1982.43
338.46	2205.66
338.67	2166.75
338.88	2037.73
339.09	2119.65
339.31	2197.47
339.52	2047.97
339.73	2123.74
339.94	2232.29
340.15	2226.14
340.36	2152.42
340.58	2154.46
340.79	2105.31
341.00	2269.15
341.21	2076.64
341.42	2351.07
341.63	2170.85
341.85	2314.20
342.06	2220.00
342.27	2113.50
342.48	2291.68
342.69	2099.17
342.90	2197.47
343.12	2226.14
343.33	2142.18
343.54	2326.49
343.75	2269.15
343.96	2195.42
344.17	2166.75
344.38	2215.90
344.60	2140.13
344.81	2082.78
345.02	2183.13
345.23	2279.39
345.44	2381.79
345.65	2279.39
345.86	2185.18
346.07	2224.09
346.29	2150.37
346.50	2238.43
346.71	2176.99
346.92	2318.30
347.13	2412.51
347.34	2205.66
347.55	2170.85
347.76	2240.48
347.98	2090.98
348.19	2150.37
348.40	2295.77
348.61	2099.17
348.82	2361.31
349.03	2201.57
349.24	2023.39
349.45	2394.08
349.66	2021.35
349.88	2191.33
350.09	2168.80
350.30	2326.49
350.51	2377.69
350.72	2222.05
350.93	2160.61
351.14	2146.27
351.35	2277.34
351.56	2158.56
351.77	2260.96
351.99	2293.72
352.20	2371.55
352.41	2256.86
352.62	2068.45
352.83	2217.95
353.04	2172.89
353.25	2119.65
353.46	2232.29
353.67	2299.87
353.88	2035.68
354.09	2236.38
354.30	2158.56
354.52	2289.63
354.73	2224.09
354.94	2105.31
355.15	2211.81
355.36	2336.73
355.57	2154.46
355.78	2238.43
355.99	2166.75
356.20	2156.51
356.41	2285.53
356.62	2156.51
356.83	2213.85
357.04	2351.07
357.25	2019.30
357.46	2095.07
357.68	2105.31
357.89	2117.60
358.10	2172.89
358.31	2191.33
358.52	2224.09
358.73	2029.54
358.94	2080.74
359.15	2164.70
359.36	2226.14
359.57	2168.80
359.78	2179.04
359.99	2217.95
360.20	2113.50
360.41	2152.42
360.62	2236.38
360.83	2166.75
361.04	2213.85
361.25	2222.05
361.46	2303.96
361.67	2203.61
361.88	2152.42
362.09	2201.57
362.30	2275.29
362.51	2064.35
362.72	2201.57
362.93	2314.20
363.14	2220.00
363.35	2183.13
363.56	2111.46
363.78	2275.29
363.99	2236.38
364.20	2174.94
364.41	2162.66
364.62	2418.65
364.83	2199.52
365.04	2162.66
365.25	2142.18
365.46	2439.13
365.67	2148.32
365.88	2220.00
366.09	2158.56
366.30	2179.04
366.51	2191.33
366.72	2150.37
366.93	2142.18
367.14	2090.98
367.35	2334.68
367.56	2142.18
367.77	2316.25
367.98	2191.33
368.18	2230.24
368.39	2181.09
368.60	2019.30
368.81	2215.90
369.02	2269.15
369.23	2226.14
369.44	2093.02
369.65	2185.18
369.86	2232.29
370.07	2232.29
370.28	2129.89
370.49	2240.48
370.70	2234.33
370.91	2119.65
371.12	2095.07
371.33	2289.63
371.54	2179.04
371.75	2316.25
371.96	2011.11
372.17	2211.81
372.38	2199.52
372.59	2150.37
372.80	2183.13
373.01	2187.23
373.22	2240.48
373.43	2105.31
373.64	2035.68
373.85	2351.07
374.06	2400.22
374.26	2238.43
374.47	2152.42
374.68	2408.41
374.89	2236.38
375.10	2162.66
375.31	2168.80
375.52	2236.38
375.73	2207.71
375.94	2064.35
376.15	2295.77
376.36	2080.74
376.57	2119.65
376.78	2154.46
376.99	2215.90
377.20	2301.92
377.40	2105.31
377.61	2359.26
377.82	2158.56
378.03	2301.92
378.24	2224.09
378.45	2220.00
378.66	2193.37
378.87	1980.39
379.08	2113.50
379.29	2113.50
379.50	2353.12
379.71	2166.75
379.91	2203.61
380.12	2105.31
380.33	2179.04
380.54	2199.52
380.75	2201.57
380.96	2168.80
381.17	2349.02
381.38	2185.18
381.59	2174.94
381.80	2195.42
382.00	2451.42
382.21	2228.19
382.42	2369.50
382.63	2437.08
382.84	2242.53
383.05	2330.59
383.26	2318.30
383.47	2162.66
383.68	2230.24
383.88	2236.38
384.09	2260.96
384.30	2398.17
384.51	2267.10
384.72	2115.55
384.93	2076.64
385.14	2248.67
385.35	2283.49
385.55	2080.74
385.76	2318.30
385.97	2154.46
386.18	2064.35
386.39	2158.56
386.60	2240.48
386.81	2228.19
387.02	2095.07
387.22	2105.31
387.43	2265.05
387.64	2238.43
387.85	2432.99
388.06	2432.99
388.27	4007.87
388.48	8505.21
388.68	12171.08
388.89	14507.81
389.10	15791.89
389.31	14821.15
389.52	11308.88
389.73	9813.87
389.93	8914.81
390.14	8167.30
390.35	7204.75
390.56	6731.67
390.77	5308.34
390.98	4249.54
391.18	3303.37
391.39	2744.28
391.60	2439.13
391.81	2392.03
392.02	2162.66
392.23	2371.55
392.43	2263.01
392.64	2195.42
392.85	2187.23
393.06	2361.31
393.27	2207.71
393.47	2117.60
393.68	2224.09
393.89	2133.98
394.10	2230.24
394.31	2047.97
394.52	2189.28
394.72	2113.50
394.93	2330.59
395.14	2150.37
395.35	2189.28
395.56	2138.08
395.76	2127.84
395.97	2185.18
396.18	2297.82
396.39	2316.25
396.60	2680.79
396.80	2441.18
397.01	2369.50
397.22	2396.12
397.43	2387.93
397.64	2131.94
397.84	2316.25
398.05	2449.37
398.26	2222.05
398.47	2310.11
398.67	2285.53
398.88	2179.04
399.09	2260.96
399.30	2160.61
399.51	2224.09
399.71	2187.23
399.92	2193.37
400.13	2174.94
400.34	2142.18
400.54	2234.33
400.75	2439.13
400.96	2236.38
401.17	2351.07
401.37	2318.30
401.58	2144.22
401.79	2183.13
402.00	2340.83
402.21	2615.26
402.41	2475.99
402.62	2590.68
402.83	2770.90
403.04	2547.67
403.24	2793.43
403.45	2361.31
403.66	2482.14
403.87	2414.56
404.07	2424.80
404.28	2488.28
404.49	2461.66
404.70	2236.38
404.90	2353.12
405.11	2260.96
405.32	2338.78
405.52	2144.22
405.73	2166.75
405.94	2113.50
406.15	2207.71
406.35	2228.19
406.56	2248.67
406.77	2176.99
406.98	2271.20
407.18	2088.93
407.39	2295.77
407.60	2154.46
407.80	2269.15
408.01	2133.98
408.22	2193.37
408.43	2066.40
408.63	2213.85
408.84	2170.85
409.05	2346.97
409.25	2142.18
409.46	2174.94
409.67	2156.51
409.88	2150.37
410.08	2213.85
410.29	2215.90
410.50	2285.53
410.70	2236.38
410.91	2121.70
411.12	2260.96
411.32	2179.04
411.53	2162.66
411.74	2314.20
411.95	2342.88
412.15	2269.15
412.36	2355.16
412.57	2342.88
412.77	2338.78
412.98	2246.62
413.19	2160.61
413.39	2281.44
413.60	2275.29
413.81	2289.63
414.01	2127.84
414.22	2220.00
414.43	2295.77
414.63	2174.94
414.84	2291.68
415.05	2232.29
415.25	2039.78
415.46	2301.92
415.67	2107.36
415.87	2322.40
416.08	2183.13
416.29	2176.99
416.49	2158.56
416.70	2129.89
416.91	2150.37
417.11	2113.50
417.32	2230.24
417.53	2303.96
417.73	2275.29
417.94	2148.32
418.15	2195.42
418.35	2203.61
418.56	2217.95
418.77	2441.18
418.97	2166.75
419.18	2211.81
419.38	2004.96
419.59	2176.99
419.80	2301.92
420.00	2187.23
420.21	2269.15
420.42	2265.05
420.62	2185.18
420.83	2140.13
421.04	2105.31
421.24	2170.85
421.45	2291.68
421.65	2168.80
421.86	2142.18
422.07	2236.38
422.27	2209.76
422.48	2170.85
422.69	2191.33
422.89	2181.09
423.10	2189.28
423.30	2088.93
423.51	2240.48
423.72	2308.06
423.92	2312.16
424.13	2097.12
424.33	2217.95
424.54	2256.86
424.75	2183.13
424.95	2408.41
425.16	2154.46
425.36	2150.37
425.57	2265.05
425.78	2248.67
425.98	2346.97
426.19	2213.85
426.39	2119.65
426.60	2258.91
426.81	2318.30
427.01	2275.29
427.22	2064.35
427.42	2039.78
427.63	2072.54
427.83	2232.29
428.04	2281.44
428.25	2293.72
428.45	2226.14
428.66	2220.00
428.86	2281.44
429.07	2179.04
429.28	2187.23
429.48	2211.81
429.69	2125.79
429.89	2199.52
430.10	2111.46
430.30	2244.57
430.51	2289.63
430.71	2179.04
430.92	2179.04
431.13	2113.50
431.33	2236.38
431.54	2207.71
431.74	2314.20
431.95	2400.22
432.15	2170.85
432.36	2199.52
432.56	2275.29
432.77	2375.64
432.98	2414.56
433.18	2136.03
433.39	2201.57
433.59	2176.99
433.80	2363.36
434.00	2398.17
434.21	2179.04
434.41	2168.80
434.62	2344.92
434.82	2088.93
435.03	2160.61
435.23	2224.09
435.44	2023.39
435.64	2095.07
435.85	2217.95
436.06	2226.14
436.26	2308.06
436.47	2097.12
436.67	2164.70
436.88	2150.37
437.08	2306.01
437.29	2332.64
437.49	2291.68
437.70	2373.60
437.90	2209.76
438.11	2430.94
438.31	2256.86
438.52	2363.36
438.72	2389.98
438.93	2482.14
439.13	2297.82
439.34	2316.25
439.54	2168.80
439.75	2258.91
439.95	2207.71
440.16	2127.84
440.36	2209.76
440.57	2183.13
440.77	2299.87
440.98	2193.37
441.18	2338.78
441.39	2203.61
441.59	2123.74
441.80	2445.27
442.00	2258.91
442.21	2281.44
442.41	2088.93
442.62	2375.64
442.82	2154.46
443.02	2156.51
443.23	2162.66
443.43	2146.27
443.64	2367.45
443.84	2133.98
444.05	2381.79
444.25	2158.56
444.46	2179.04
444.66	2197.47
444.87	2404.32
445.07	2168.80
445.28	2181.09
445.48	2322.40
445.69	2260.96
445.89	2387.93
446.09	2191.33
446.30	2437.08
446.50	2830.29
446.71	4435.90
446.91	5683.11
447.12	6317.98
447.32	6770.58
447.53	6283.17
447.73	5068.72
447.93	4591.55
448.14	4251.58
448.34	4032.45
448.55	3545.03
448.75	3495.88
448.96	3373.00
449.16	3014.61
449.36	2842.58
449.57	2545.63
449.77	2396.12
449.98	2166.75
450.18	2236.38
450.39	2306.01
450.59	2324.44
450.79	2228.19
451.00	2181.09
451.20	2277.34
451.41	2238.43
451.61	2318.30
451.81	2226.14
452.02	2174.94
452.22	2154.46
452.43	2226.14
452.63	2138.08
452.84	2187.23
453.04	2201.57
453.24	2174.94
453.45	2127.84
453.65	2201.57
453.86	2232.29
454.06	2265.05
454.26	2199.52
454.47	2021.35
454.67	2322.40
454.87	2357.21
455.08	2160.61
455.28	2299.87
455.49	2195.42
455.69	2170.85
455.89	2469.85
456.10	2224.09
456.30	2201.57
456.51	2324.44
456.71	2334.68
456.91	2287.58
457.12	2174.94
457.32	2287.58
457.52	2113.50
457.73	2228.19
457.93	2314.20
458.14	2121.70
458.34	2047.97
458.54	2105.31
458.75	2164.70
458.95	2310.11
459.15	2254.81
459.36	2197.47
459.56	2328.54
459.76	2527.19
459.97	2168.80
460.17	2236.38
460.37	2297.82
460.58	2166.75
460.78	2271.20
460.99	2181.09
461.19	2228.19
461.39	2154.46
461.60	2265.05
461.80	2222.05
462.00	2195.42
462.21	2215.90
462.41	2125.79
462.61	2050.02
462.82	2097.12
463.02	2275.29
463.22	2240.48
463.43	2252.77
463.63	2160.61
463.83	2293.72
464.04	2297.82
464.24	2195.42
464.44	2142.18
464.64	2291.68
464.85	2293.72
465.05	2273.25
465.25	2256.86
465.46	2158.56
465.66	2228.19
465.86	2306.01
466.07	2326.49
466.27	2217.95
466.47	2136.03
466.68	2031.58
466.88	2365.40
467.08	2244.57
467.29	2318.30
467.49	2299.87
467.69	2138.08
467.89	2293.72
468.10	2174.94
468.30	2193.37
468.50	2306.01
468.71	2254.81
468.91	2133.98
469.11	2334.68
469.31	2220.00
469.52	2103.26
469.72	2387.93
469.92	2400.22
470.13	2277.34
470.33	2226.14
470.53	2389.98
470.73	2611.16
470.94	3121.10
471.14	3203.02
471.34	3559.37
471.54	3411.92
471.75	3094.48
471.95	2879.44
472.15	2672.60
472.36	2723.80
472.56	2785.24
472.76	2734.04
472.96	2629.59
473.17	2572.25
473.37	2506.71
473.57	2217.95
473.77	2269.15
473.98	2207.71
474.18	2156.51
474.38	2484.19
474.58	2179.04
474.79	2160.61
474.99	2246.62
475.19	2213.85
475.39	2131.94
475.60	2297.82
475.80	2213.85
476.00	2228.19
476.20	2152.42
476.41	2248.67
476.61	2330.59
476.81	2363.36
477.01	2181.09
477.21	2303.96
477.42	2277.34
477.62	2164.70
477.82	2172.89
478.02	2195.42
478.23	2238.43
478.43	2136.03
478.63	2099.17
478.83	2285.53
479.03	2129.89
479.24	2295.77
479.44	2392.03
479.64	2080.74
479.84	2088.93
480.04	2084.83
480.25	2236.38
480.45	2123.74
480.65	2150.37
480.85	2310.11
481.06	2156.51
481.26	2283.49
481.46	2158.56
481.66	2174.94
481.86	2095.07
482.06	2306.01
482.27	2256.86
482.47	2103.26
482.67	2220.00
482.87	2154.46
483.07	2346.97
483.28	2174.94
483.48	2127.84
483.68	2162.66
483.88	2088.93
484.08	1994.72
484.29	2121.70
484.49	2211.81
484.69	2080.74
484.89	2306.01
485.09	2297.82
485.29	2263.01
485.50	2172.89
485.70	2197.47
485.90	2353.12
486.10	2353.12
486.30	2250.72
486.50	2299.87
486.71	2125.79
486.91	2324.44
487.11	2293.72
487.31	2076.64
487.51	2242.53
487.71	2197.47
487.91	2181.09
488.12	2064.35
488.32	1957.86
488.52	2211.81
488.72	2033.63
488.92	2222.05
489.12	2365.40
489.32	2252.77
489.53	2248.67
489.73	2068.45
489.93	2377.69
490.13	2072.54
490.33	2093.02
490.53	2179.04
490.73	2312.16
490.94	2125.79
491.14	2207.71
491.34	2367.45
491.54	2486.23
491.74	3180.50
491.94	3751.88
492.14	4108.23
492.34	4126.66
492.54	3856.33
492.75	3192.78
492.95	3225.55
493.15	2977.75
493.35	2832.34
493.55	2873.30
493.75	2668.50
493.95	2809.81
494.15	2523.10
494.35	2349.02
494.56	2279.39
494.76	2176.99
494.96	2357.21
495.16	2230.24
495.36	2273.25
495.56	2199.52
495.76	2283.49
495.96	2205.66
496.16	2166.75
496.36	2396.12
496.56	2138.08
496.77	2260.96
496.97	2203.61
497.17	2406.36
497.37	2072.54
497.57	2213.85
497.77	2256.86
497.97	2062.30
498.17	2158.56
498.37	2205.66
498.57	2248.67
498.77	2150.37
498.97	2303.96
499.17	2412.51
499.38	2199.52
499.58	2267.10
499.78	2285.53
499.98	2351.07
500.18	2201.57
500.38	2209.76
500.58	2361.31
500.78	2799.57
500.98	5201.84
501.18	7376.78
501.38	8908.66
501.58	9867.11
501.78	9903.98
501.98	7696.27
502.18	6504.35
502.38	5431.21
502.58	5183.41
502.78	4698.04
502.98	4505.53
503.18	4218.82
503.38	3846.09
503.59	3424.20
503.79	3233.74
503.99	3006.42
504.19	2801.62
504.39	2801.62
504.59	2955.22
504.79	2783.19
504.99	2854.87
505.19	2553.82
505.39	2437.08
505.59	2652.12
505.79	2500.57
505.99	2420.70
506.19	2277.34
506.39	2402.27
506.59	2203.61
506.79	2301.92
506.99	2301.92
507.19	2205.66
507.39	2160.61
507.59	2150.37
507.79	2113.50
507.99	2228.19
508.19	2332.64
508.39	2066.40
508.59	2170.85
508.79	2303.96
508.99	2426.84
509.19	2095.07
509.39	2342.88
509.59	2166.75
509.79	2168.80
509.99	2289.63
510.19	2283.49
510.39	2310.11
510.59	2248.67
510.79	2179.04
510.99	2086.88
511.19	2213.85
511.39	2353.12
511.59	2342.88
511.79	2365.40
511.99	2179.04
512.19	2334.68
512.38	2209.76
512.58	2140.13
512.78	2236.38
512.98	2342.88
513.18	2381.79
513.38	2060.26
513.58	2330.59
513.78	2189.28
513.98	2240.48
514.18	2195.42
514.38	2176.99
514.58	2277.34
514.78	2183.13
514.98	2113.50
515.18	2310.11
515.38	2115.55
515.58	2445.27
515.78	2176.99
515.98	2213.85
516.18	2205.66
516.38	2166.75
516.57	2205.66
516.77	2127.84
516.97	2267.10
517.17	2195.42
517.37	2056.16
517.57	2332.64
517.77	2148.32
517.97	2090.98
518.17	2248.67
518.37	2142.18
518.57	2174.94
518.77	2136.03
518.97	2207.71
519.16	2240.48
519.36	2299.87
519.56	2113.50
519.76	2150.37
519.96	2162.66
520.16	2455.51
520.36	2117.60
520.56	2340.83
520.76	2150.37
520.96	2244.57
521.16	2318.30
521.35	2381.79
521.55	2355.16
521.75	2220.00
521.95	2164.70
522.15	2133.98
522.35	2095.07
522.55	2166.75
522.75	2193.37
522.95	2176.99
523.14	2093.02
523.34	2154.46
523.54	2105.31
523.74	2269.15
523.94	2179.04
524.14	2078.69
524.34	2217.95
524.54	2299.87
524.73	2205.66
524.93	2185.18
525.13	2260.96
525.33	2066.40
525.53	2367.45
525.73	2308.06
525.93	2179.04
526.13	2193.37
526.32	2236.38
526.52	2326.49
526.72	2334.68
526.92	2179.04
527.12	2105.31
527.32	2021.35
527.52	2263.01
527.71	2172.89
527.91	2211.81
528.11	2090.98
528.31	2170.85
528.51	2138.08
528.71	2215.90
528.90	2258.91
529.10	2314.20
529.30	2291.68
529.50	2037.73
529.70	2267.10
529.90	2136.03
530.09	2228.19
530.29	2133.98
530.49	2095.07
530.69	2408.41
530.89	2158.56
531.09	2271.20
531.28	2125.79
531.48	2342.88
531.68	2246.62
531.88	2230.24
532.08	2318.30
532.28	2230.24
532.47	2318.30
532.67	2314.20
532.87	2176.99
533.07	2129.89
533.27	2265.05
533.46	2334.68
533.66	2232.29
533.86	2183.13
534.06	2281.44
534.26	2285.53
534.45	2138.08
534.65	2375.64
534.85	2228.19
535.05	2164.70
535.25	2314.20
535.44	2138.08
535.64	2293.72
535.84	2117.60
536.04	2129.89
536.24	2187.23
536.43	2170.85
536.63	2199.52
536.83	2203.61
537.03	2220.00
537.22	2039.78
537.42	2056.16
537.62	2199.52
537.82	2150.37
538.02	2318.30
538.21	2301.92
538.41	2406.36
538.61	2289.63
538.81	2150.37
539.00	2265.05
539.20	2072.54
539.40	2127.84
539.60	2265.05
539.79	2269.15
539.99	2195.42
540.19	2152.42
540.39	2148.32
540.58	2176.99
540.78	2283.49
540.98	2250.72
541.18	2316.25
541.37	2265.05
541.57	2185.18
541.77	2236.38
541.97	2119.65
542.16	2123.74
542.36	2166.75
542.56	2125.79
542.76	2408.41
542.95	2306.01
543.15	2287.58
543.35	2277.34
543.54	2133.98
543.74	2133.98
543.94	2269.15
544.14	2129.89
544.33	2201.57
544.53	2146.27
544.73	2150.37
544.93	2230.24
545.12	2203.61
545.32	2217.95
545.52	2230.24
545.71	2152.42
545.91	2119.65
546.11	2209.76
546.30	2066.40
546.50	2260.96
546.70	2170.85
546.90	2252.77
547.09	2148.32
547.29	2183.13
547.49	2342.88
547.68	2197.47
547.88	2097.12
548.08	2318.30
548.27	2754.52
548.47	2033.63
548.67	2254.81
548.87	2240.48
549.06	2211.81
549.26	2217.95
549.46	2355.16
549.65	2154.46
549.85	2164.70
550.05	2260.96
550.24	2088.93
550.44	2176.99
550.64	2297.82
550.83	2168.80
551.03	2342.88
551.23	2238.43
551.42	2244.57
551.62	2242.53
551.82	2232.29
552.01	2195.42
552.21	2314.20
552.41	2224.09
552.60	2349.02
552.80	2228.19
553.00	2125.79
553.19	2308.06
553.39	2412.51
553.59	2068.45
553.78	2260.96
553.98	2191.33
554.17	2054.11
554.37	2312.16
554.57	2316.25
554.76	2060.26
554.96	2105.31
555.16	2191.33
555.35	2179.04
555.55	2215.90
555.75	2244.57
555.94	2346.97
556.14	2086.88
556.33	2234.33
556.53	2228.19
556.73	2144.22
556.92	2260.96
557.12	2285.53
557.32	2398.17
557.51	2301.92
557.71	2226.14
557.90	2277.34
558.10	2424.80
558.30	2088.93
558.49	2123.74
558.69	2172.89
558.88	2289.63
559.08	2363.36
559.28	2170.85
559.47	2138.08
559.67	2299.87
559.86	2381.79
560.06	2211.81
560.26	2265.05
560.45	2322.40
560.65	2172.89
560.84	2224.09
561.04	2123.74
561.24	2234.33
561.43	2160.61
561.63	2303.96
561.82	2269.15
562.02	2224.09
562.22	2129.89
562.41	2109.41
562.61	2127.84
562.80	2103.26
563.00	2457.56
563.19	2230.24
563.39	2254.81
563.59	2258.91
563.78	2162.66
563.98	2054.11
564.17	2199.52
564.37	2105.31
564.56	2193.37
564.76	2176.99
564.96	2322.40
565.15	2250.72
565.35	2475.99
565.54	2205.66
565.74	2373.60
565.93	2244.57
566.13	2234.33
566.32	2248.67
566.52	2207.71
566.71	2226.14
566.91	2287.58
567.11	2267.10
567.30	2144.22
567.50	2230.24
567.69	2187.23
567.89	2160.61
568.08	2105.31
568.28	2162.66
568.47	2150.37
568.67	2174.94
568.86	2111.46
569.06	2326.49
569.25	2138.08
569.45	2146.27
569.64	2220.00
569.84	2191.33
570.04	2205.66
570.23	2111.46
570.43	2318.30
570.62	2273.25
570.82	2385.88
571.01	2144.22
571.21	2187.23
571.40	2062.30
571.60	2271.20
571.79	2265.05
571.99	2176.99
572.18	2179.04
572.38	2211.81
572.57	2201.57
572.77	2193.37
572.96	2424.80
573.16	2267.10
573.35	2209.76
573.55	2416.60
573.74	2228.19
573.94	2232.29
574.13	2168.80
574.33	2260.96
574.52	2342.88
574.71	2197.47
574.91	2226.14
575.10	2068.45
575.30	2176.99
575.49	2070.50
575.69	2176.99
575.88	2287.58
576.08	2281.44
576.27	2365.40
576.47	2228.19
576.66	2377.69
576.86	2369.50
577.05	2228.19
577.25	2299.87
577.44	2416.60
577.64	2183.13
577.83	2324.44
578.02	2220.00
578.22	2367.45
578.41	2396.12
578.61	2226.14
578.80	2039.78
579.00	2324.44
579.19	2203.61
579.39	2279.39
579.58	2246.62
579.77	2181.09
579.97	2342.88
580.16	2402.27
580.36	2318.30
580.55	2396.12
580.75	2252.77
580.94	2297.82
581.13	2381.79
581.33	2361.31
581.52	2312.16
581.72	2492.38
581.91	2537.43
582.11	2217.95
582.30	2310.11
582.49	2303.96
582.69	2437.08
582.88	2222.05
583.08	2256.86
583.27	2349.02
583.47	2265.05
583.66	2170.85
583.85	2187.23
584.05	2269.15
584.24	2340.83
584.44	2199.52
584.63	2383.84
584.82	2385.88
585.02	2424.80
585.21	2398.17
585.41	2383.84
585.60	2326.49
585.79	2459.61
585.99	2574.30
586.18	2371.55
586.37	2895.83
586.57	4489.15
586.76	13434.68
586.96	32323.09
587.15	46449.98
587.34	55620.78
587.54	61150.30
587.73	55858.35
587.93	39722.40
588.12	29947.45
588.31	23864.98
588.51	20997.82
588.70	19011.29
588.89	17334.01
589.09	15232.79
589.28	13012.79
589.47	10544.99
589.67	8226.69
589.86	6426.53
590.06	4759.48
590.25	3848.13
590.44	3227.60
590.64	2754.52
590.83	2566.10
591.02	2547.67
591.22	2363.36
591.41	2324.44
591.60	2301.92
591.80	2498.52
591.99	2113.50
592.18	2234.33
592.38	2398.17
592.57	2183.13
592.76	2209.76
592.96	2236.38
593.15	2228.19
593.34	2342.88
593.54	2220.00
593.73	2293.72
593.92	2289.63
594.12	2277.34
594.31	2232.29
594.50	2463.71
594.70	2326.49
594.89	2498.52
595.08	2154.46
595.28	2346.97
595.47	2533.34
595.66	2256.86
595.86	2170.85
596.05	2314.20
596.24	2207.71
596.43	2424.80
596.63	2346.97
596.82	2285.53
597.01	2299.87
597.21	2420.70
597.40	2338.78
597.59	2277.34
597.79	2174.94
597.98	2193.37
598.17	2244.57
598.36	2297.82
598.56	2267.10
598.75	2312.16
598.94	2279.39
599.14	2265.05
599.33	2252.77
599.52	2246.62
599.71	2187.23
599.91	2306.01
600.10	2295.77
600.29	2250.72
600.48	2267.10
600.68	2260.96
600.87	2322.40
601.06	2162.66
601.26	2185.18
601.45	2228.19
601.64	2174.94
601.83	2330.59
602.03	2154.46
602.22	2162.66
602.41	2351.07
602.60	2437.08
602.80	2293.72
602.99	2215.90
603.18	2156.51
603.37	2207.71
603.57	2244.57
603.76	2322.40
603.95	2293.72
604.14	2164.70
604.34	2107.36
604.53	2185.18
604.72	2205.66
604.91	2328.54
605.10	2287.58
605.30	2080.74
605.49	2449.37
605.68	2279.39
605.87	2285.53
606.07	2222.05
606.26	2263.01
606.45	2234.33
606.64	2191.33
606.84	2238.43
607.03	2293.72
607.22	2301.92
607.41	2211.81
607.60	2197.47
607.80	2359.26
607.99	2203.61
608.18	2213.85
608.37	2215.90
608.56	2142.18
608.76	2324.44
608.95	2475.99
609.14	2252.77
609.33	2437.08
609.52	2447.32
609.72	2355.16
609.91	2383.84
610.10	2342.88
610.29	2322.40
610.48	2322.40
610.68	2295.77
610.87	2258.91
611.06	2349.02
611.25	2193.37
611.44	2269.15
611.63	2195.42
611.83	2260.96
612.02	2097.12
612.21	2314.20
612.40	2043.87
612.59	2152.42
612.79	2088.93
612.98	2260.96
613.17	2371.55
613.36	2234.33
613.55	2379.74
613.74	2267.10
613.93	2369.50
614.13	2381.79
614.32	2502.62
614.51	2424.80
614.70	2332.64
614.89	2265.05
615.08	2377.69
615.28	2772.95
615.47	2095.07
615.66	2287.58
615.85	2281.44
616.04	2449.37
616.23	2267.10
616.42	2265.05
616.62	2277.34
616.81	2338.78
617.00	2273.25
617.19	2260.96
617.38	2174.94
617.57	2265.05
617.76	2297.82
617.95	2424.80
618.15	2277.34
618.34	2359.26
618.53	2129.89
618.72	2310.11
618.91	2367.45
619.10	2332.64
619.29	2201.57
619.48	2195.42
619.68	2088.93
619.87	2293.72
620.06	2082.78
620.25	2236.38
620.44	2252.77
620.63	2199.52
620.82	2271.20
621.01	2238.43
621.20	2203.61
621.39	2291.68
621.59	2275.29
621.78	2238.43
621.97	2252.77
622.16	2283.49
622.35	2197.47
622.54	2277.34
622.73	2248.67
622.92	2031.58
623.11	2277.34
623.30	2162.66
623.49	2269.15
623.68	2162.66
623.88	2394.08
624.07	2156.51
624.26	2234.33
624.45	2209.76
624.64	2189.28
624.83	2222.05
625.02	2269.15
625.21	2248.67
625.40	2269.15
625.59	2394.08
625.78	2209.76
625.97	2324.44
626.16	2394.08
626.35	2318.30
626.54	2316.25
626.74	2428.89
626.93	2203.61
627.12	2240.48
627.31	2353.12
627.50	2330.59
627.69	2340.83
627.88	2160.61
628.07	2226.14
628.26	2068.45
628.45	2105.31
628.64	2133.98
628.83	2179.04
629.02	2074.59
629.21	2320.35
629.40	2179.04
629.59	2113.50
629.78	2123.74
629.97	2269.15
630.16	2170.85
630.35	2179.04
630.54	2179.04
630.73	2062.30
630.92	2220.00
631.11	2168.80
631.30	2185.18
631.49	2244.57
631.68	2246.62
631.87	2201.57
632.06	2088.93
632.25	2447.32
632.44	2220.00
632.63	2291.68
632.82	2293.72
633.01	2213.85
633.20	2383.84
633.39	2265.05
633.58	2183.13
633.77	2244.57
633.96	2228.19
634.15	2287.58
634.34	2185.18
634.53	2232.29
634.72	2136.03
634.91	2031.58
635.10	2217.95
635.29	2283.49
635.48	2195.42
635.67	2201.57
635.86	2060.26
636.05	2256.86
636.24	2207.71
636.43	2260.96
636.62	2326.49
636.81	2052.06
637.00	2195.42
637.19	2162.66
637.38	2240.48
637.57	2195.42
637.76	2303.96
637.95	2392.03
638.14	2310.11
638.33	2326.49
638.52	2205.66
638.71	2160.61
638.89	2193.37
639.08	2533.34
639.27	2422.75
639.46	2414.56
639.65	2785.24
639.84	2961.36
640.03	3074.00
640.22	2949.08
640.41	2887.64
640.60	2547.67
640.79	2490.33
640.98	2482.14
641.17	2465.75
641.36	2455.51
641.55	2392.03
641.74	2170.85
641.92	2248.67
642.11	2193.37
642.30	2246.62
642.49	2127.84
642.68	2160.61
642.87	2287.58
643.06	2250.72
643.25	2150.37
643.44	2199.52
643.63	2172.89
643.82	2275.29
644.00	2170.85
644.19	2105.31
644.38	2064.35
644.57	2301.92
644.76	2236.38
644.95	2191.33
645.14	2222.05
645.33	2170.85
645.52	2205.66
645.71	2115.55
645.89	2117.60
646.08	2142.18
646.27	2220.00
646.46	2326.49
646.65	2095.07
646.84	2240.48
647.03	2082.78
647.22	2306.01
647.40	2256.86
647.59	2172.89
647.78	2039.78
647.97	2056.16
648.16	2154.46
648.35	2275.29
648.54	2369.50
648.73	2121.70
648.91	2326.49
649.10	2166.75
649.29	2168.80
649.48	2148.32
649.67	2224.09
649.86	2330.59
650.05	2281.44
650.23	2418.65
650.42	2301.92
650.61	2424.80
650.80	2389.98
650.99	2559.96
651.18	2357.21
651.36	2365.40
651.55	2297.82
651.74	2338.78
651.93	2131.94
652.12	2144.22
652.31	2287.58
652.49	2187.23
652.68	2195.42
652.87	2326.49
653.06	2291.68
653.25	2496.47
653.44	2242.53
653.62	2353.12
653.81	2244.57
654.00	2281.44
654.19	2338.78
654.38	2475.99
654.56	2220.00
654.75	2201.57
654.94	2383.84
655.13	2220.00
655.32	2174.94
655.51	2226.14
655.69	2191.33
655.88	2234.33
656.07	2093.02
656.26	2191.33
656.45	2054.11
656.63	2150.37
656.82	2236.38
657.01	2349.02
657.20	2150.37
657.38	2258.91
657.57	2179.04
657.76	2078.69
657.95	2269.15
658.14	2152.42
658.32	2191.33
658.51	2078.69
658.70	2201.57
658.89	2236.38
659.08	2260.96
659.26	2475.99
659.45	2232.29
659.64	2359.26
659.83	2170.85
660.01	2613.21
660.20	2220.00
660.39	2375.64
660.58	2043.87
660.76	2277.34
660.95	2138.08
661.14	2238.43
661.33	2088.93
661.51	2156.51
661.70	2195.42
661.89	2269.15
662.08	2215.90
662.26	2066.40
662.45	2105.31
662.64	2365.40
662.83	2211.81
663.01	2103.26
663.20	2107.36
663.39	2383.84
663.58	2158.56
663.76	2191.33
663.95	2306.01
664.14	2076.64
664.32	2193.37
664.51	2078.69
664.70	2123.74
664.89	2285.53
665.07	2103.26
665.26	2238.43
665.45	2025.44
665.64	2256.86
665.82	2168.80
666.01	2342.88
666.20	2183.13
666.38	2359.26
666.57	2363.36
666.76	3364.81
666.95	7974.79
667.13	16545.54
667.32	21986.99
667.51	25890.42
667.69	27934.29
667.88	25462.40
668.07	18292.46
668.25	14661.41
668.44	11698.00
668.63	10508.13
668.81	9074.55
669.00	7931.78
669.19	7104.40
669.38	6336.42
669.56	5308.34
669.75	4470.72
669.94	3719.11
670.12	3143.63
670.31	2785.24
670.50	2570.20
670.68	2432.99
670.87	2387.93
671.06	2250.72
671.24	2265.05
671.43	2473.95
671.62	2340.83
671.80	2117.60
671.99	2318.30
672.18	2164.70
672.36	2332.64
672.55	2277.34
672.74	2228.19
672.92	2140.13
673.11	2236.38
673.29	2136.03
673.48	2265.05
673.67	2170.85
673.85	2316.25
674.04	2111.46
674.23	2193.37
674.41	2338.78
674.60	2105.31
674.79	2097.12
674.97	2166.75
675.16	2242.53
675.34	2308.06
675.53	2068.45
675.72	2228.19
675.90	2379.74
676.09	2213.85
676.28	2162.66
676.46	2070.50
676.65	2193.37
676.83	2232.29
677.02	2226.14
677.21	2199.52
677.39	2174.94
677.58	2131.94
677.77	2101.22
677.95	2105.31
678.14	2193.37
678.32	2170.85
678.51	2076.64
678.70	2367.45
678.88	2209.76
679.07	2232.29
679.25	2205.66
679.44	2168.80
679.63	2148.32
679.81	2187.23
680.00	2289.63
680.18	2201.57
680.37	2312.16
680.55	2220.00
680.74	2111.46
680.93	2064.35
681.11	2211.81
681.30	2207.71
681.48	2152.42
681.67	2199.52
681.85	2170.85
682.04	2222.05
682.23	2203.61
682.41	2207.71
682.60	2158.56
682.78	2158.56
682.97	2117.60
683.15	2191.33
683.34	2209.76
683.53	2322.40
683.71	2152.42
683.90	2224.09
684.08	2394.08
684.27	2256.86
684.45	2258.91
684.64	2332.64
684.82	2234.33
685.01	2244.57
685.19	2152.42
685.38	2359.26
685.57	2220.00
685.75	2078.69
685.94	2138.08
686.12	2107.36
686.31	2179.04
686.49	2398.17
686.68	2074.59
686.86	2301.92
687.05	2097.12
687.23	2297.82
687.42	2226.14
687.60	2060.26
687.79	2209.76
687.97	2406.36
688.16	2263.01
688.34	2318.30
688.53	2058.21
688.71	2246.62
688.90	2295.77
689.08	2181.09
689.27	2097.12
689.45	2265.05
689.64	2222.05
689.82	2222.05
690.01	2252.77
690.19	2244.57
690.38	2123.74
690.56	2334.68
690.75	2097.12
690.93	2113.50
691.12	2150.37
691.30	2211.81
691.49	2205.66
691.67	2246.62
691.86	2430.94
692.04	2164.70
692.23	2199.52
692.41	2260.96
692.60	2529.24
692.78	2461.66
692.97	2252.77
693.15	2334.68
693.34	2418.65
693.52	2299.87
693.71	2238.43
693.89	2203.61
694.08	2054.11
694.26	2260.96
694.44	2277.34
694.63	2211.81
694.81	2133.98
695.00	2097.12
695.18	2312.16
695.37	2416.60
695.55	2127.84
695.74	2123.74
695.92	2166.75
696.10	2336.73
696.29	2127.84
696.47	2070.50
696.66	2131.94
696.84	2056.16
697.03	2236.38
697.21	2457.56
697.40	3239.89
697.58	2279.39
697.76	2176.99
697.95	2150.37
698.13	2076.64
698.32	2125.79
698.50	2213.85
698.68	2236.38
698.87	2201.57
699.05	2328.54
699.24	2220.00
699.42	2117.60
699.61	2252.77
699.79	2211.81
699.97	2158.56
700.16	2152.42
700.34	2082.78
700.53	2275.29
700.71	2324.44
700.89	2258.91
701.08	2252.77
701.26	2193.37
701.45	2719.70
701.63	2138.08
701.81	2129.89
702.00	2043.87
702.18	2176.99
702.37	2209.76
702.55	2506.71
702.73	2400.22
702.92	2371.55
703.10	2588.63
703.28	2461.66
703.47	2252.77
703.65	2377.69
703.84	2385.88
704.02	2318.30
704.20	2432.99
704.39	2207.71
704.57	2168.80
704.75	2211.81
704.94	2273.25
705.12	2260.96
705.30	2564.06
705.49	4407.23
705.67	10911.58
705.86	19889.87
706.04	24303.25
706.22	27534.94
706.41	28798.54
706.59	24837.76
706.77	17639.15
706.96	14516.00
707.14	12689.21
707.32	10803.04
707.51	9647.98
707.69	7925.64
707.87	6389.66
708.06	5054.39
708.24	4145.09
708.42	3307.47
708.61	3069.91
708.79	2531.29
708.97	2430.94
709.16	2406.36
709.34	2236.38
709.52	2275.29
709.71	2222.05
709.89	2336.73
710.07	2121.70
710.26	2101.22
710.44	2265.05
710.62	2312.16
710.80	2162.66
710.99	2291.68
711.17	2301.92
711.35	2168.80
711.54	2162.66
711.72	2287.58
711.90	2228.19
712.09	2252.77
712.27	2193.37
712.45	2277.34
712.63	2148.32
712.82	2238.43
713.00	2232.29
713.18	2275.29
713.37	2248.67
713.55	2275.29
713.73	2263.01
713.91	2195.42
714.10	2131.94
714.28	2299.87
714.46	2211.81
714.65	2181.09
714.83	2287.58
715.01	2203.61
715.19	2193.37
715.38	2107.36
715.56	2273.25
715.74	2127.84
715.92	2107.36
716.11	2299.87
716.29	2056.16
716.47	2158.56
716.65	2209.76
716.84	2015.20
717.02	2330.59
717.20	2015.20
717.38	2203.61
717.57	2246.62
717.75	2271.20
717.93	2238.43
718.11	2295.77
718.30	1986.53
718.48	2146.27
718.66	2400.22
718.84	2293.72
719.03	2172.89
719.21	2160.61
719.39	2363.36
719.57	2291.68
719.75	2265.05
719.94	2144.22
720.12	2125.79
720.30	2222.05
720.48	2314.20
720.67	2166.75
720.85	2088.93
721.03	2181.09
721.21	2125.79
721.39	2260.96
721.58	2242.53
721.76	2207.71
721.94	2209.76
722.12	2193.37
722.30	2303.96
722.49	2133.98
722.67	2197.47
722.85	2172.89
723.03	2062.30
723.21	2191.33
723.40	2168.80
723.58	2281.44
723.76	2289.63
723.94	2295.77
724.12	2299.87
724.30	2389.98
724.49	2404.32
724.67	2176.99
724.85	2428.89
725.03	2156.51
725.21	2273.25
725.40	2258.91
725.58	2127.84
725.76	2291.68
725.94	2250.72
726.12	2127.84
726.30	2183.13
726.49	2187.23
726.67	2199.52
726.85	2246.62
727.03	2488.28
727.21	3626.95
727.39	5294.00
727.57	6463.39
727.76	7219.09
727.94	7450.51
728.12	7145.36
728.30	5818.28
728.48	4792.25
728.66	4417.47
728.84	4089.79
729.03	3428.30
729.21	3121.10
729.39	2754.52
729.57	2488.28
729.75	2482.14
729.93	2357.21
730.11	2205.66
730.30	2117.60
730.48	2211.81
730.66	2392.03
730.84	2277.34
731.02	2254.81
731.20	2152.42
731.38	2170.85
731.56	2113.50
731.74	2064.35
731.93	2242.53
732.11	2207.71
732.29	2189.28
732.47	2240.48
732.65	2193.37
732.83	2275.29
733.01	2183.13
733.19	2170.85
733.37	2246.62
733.56	2275.29
733.74	2211.81
733.92	2242.53
734.10	2144.22
734.28	2318.30
734.46	2013.15
734.64	2170.85
734.82	2203.61
735.00	2127.84
735.18	2207.71
735.36	2144.22
735.54	2168.80
735.73	2295.77
735.91	2193.37
736.09	2297.82
736.27	2256.86
736.45	2211.81
736.63	2047.97
736.81	2191.33
736.99	2271.20
737.17	2349.02
737.35	2242.53
737.53	2287.58
737.71	2191.33
737.89	2297.82
738.07	2097.12
738.25	2131.94
738.43	2045.92
738.61	2154.46
738.80	2109.41
738.98	2113.50
739.16	2093.02
739.34	2056.16
739.52	2361.31
739.70	2217.95
739.88	2176.99
740.06	2242.53
740.24	2035.68
740.42	2338.78
740.60	2041.82
740.78	2097.12
740.96	2002.91
741.14	2250.72
741.32	2207.71
741.50	2113.50
741.68	2310.11
741.86	2287.58
742.04	2115.55
742.22	2060.26
742.40	2144.22
742.58	2289.63
742.76	2072.54
742.94	2242.53
743.12	2045.92
743.30	2222.05
743.48	2236.38
743.66	2189.28
743.84	2285.53
744.02	2217.95
744.20	2254.81
744.38	2168.80
744.56	2129.89
744.74	2408.41
744.92	2215.90
745.10	2314.20
745.28	2277.34
745.46	2353.12
745.64	2211.81
745.82	2211.81
746.00	2232.29
746.18	2166.75
746.36	2107.36
746.54	2252.77
746.72	2174.94
746.90	2035.68
747.08	2275.29
747.26	2217.95
747.44	2244.57
747.62	2220.00
747.80	2211.81
747.98	2201.57
748.15	2176.99
748.33	2412.51
748.51	2254.81
748.69	2330.59
748.87	2189.28
749.05	2211.81
749.23	2232.29
749.41	2236.38
749.59	2148.32
749.77	2242.53
749.95	2164.70
750.13	2174.94
750.31	2248.67
750.49	2185.18
750.67	2273.25
750.85	2332.64
751.03	2209.76
751.20	2346.97
751.38	2117.60
751.56	2168.80
751.74	2183.13
751.92	2129.89
752.10	2097.12
752.28	2252.77
752.46	2076.64
752.64	2236.38
752.82	2156.51
753.00	2357.21
753.18	2271.20
753.35	2232.29
753.53	2226.14
753.71	2224.09
753.89	2279.39
754.07	2230.24
754.25	2267.10
754.43	2205.66
754.61	2074.59
754.79	2213.85
754.97	2193.37
755.14	2277.34
755.32	2070.50
755.50	2133.98
755.68	2226.14
755.86	2060.26
756.04	2084.83
756.22	1998.82
756.40	2342.88
756.57	2467.80
756.75	2226.14
756.93	2332.64
757.11	2258.91
757.29	2103.26
757.47	2119.65
757.65	2068.45
757.82	2047.97
758.00	2121.70
758.18	2103.26
758.36	2056.16
758.54	2361.31
758.72	2060.26
758.90	2236.38
759.07	2256.86
759.25	2136.03
759.43	2222.05
759.61	2107.36
759.79	3088.34
759.97	2217.95
760.15	2113.50
760.32	2117.60
760.50	2179.04
760.68	2359.26
760.86	2103.26
761.04	2338.78
761.22	2183.13
761.39	2201.57
761.57	2209.76
761.75	2125.79
761.93	2248.67
762.11	2138.08
762.28	2195.42
762.46	2113.50
762.64	2265.05
762.82	2033.63
763.00	2179.04
763.18	2338.78
763.35	2027.49
763.53	2246.62
763.71	2215.90
763.89	2199.52
764.07	2256.86
764.24	2254.81
764.42	2197.47
764.60	2146.27
764.78	2269.15
764.96	2193.37
765.13	2328.54
765.31	2201.57
765.49	2281.44
765.67	2084.83
765.84	2179.04
766.02	2138.08
766.20	2015.20
766.38	2197.47
766.56	2242.53
766.73	2215.90
766.91	2166.75
767.09	2236.38
767.27	2207.71
767.44	2205.66
767.62	2203.61
767.80	2303.96
767.98	2152.42
768.15	2211.81
768.33	2277.34
768.51	2240.48
768.69	2250.72
768.87	2238.43
769.04	2170.85
769.22	2394.08
769.40	2303.96
769.58	2330.59
769.75	2187.23
769.93	2310.11
770.11	2111.46
770.28	2195.42
770.46	2291.68
770.64	2226.14
770.82	2187.23
770.99	2117.60
771.17	2312.16
771.35	2105.31
771.53	2101.22
771.70	2138.08
771.88	2230.24
772.06	2197.47
772.23	2166.75
772.41	2211.81
772.59	2195.42
772.77	2129.89
772.94	2138.08
773.12	2226.14
773.30	2228.19
773.47	2187.23
773.65	2109.41
773.83	2324.44
774.01	2131.94
774.18	2056.16
774.36	2234.33
774.54	2125.79
774.71	2250.72
774.89	2084.83
775.07	2052.06
775.24	2187.23
775.42	2054.11
775.60	2359.26
775.78	2148.32
775.95	2107.36
776.13	2035.68
776.31	2097.12
776.48	2256.86
776.66	2308.06
776.84	2232.29
777.01	2111.46
777.19	2148.32
777.37	2056.16
777.54	2285.53
777.72	2389.98
777.90	2170.85
778.07	2066.40
778.25	2467.80
778.43	2285.53
778.60	2179.04
778.78	2215.90
778.96	2289.63
779.13	2123.74
779.31	2246.62
779.49	2205.66
779.66	2293.72
779.84	2095.07
780.01	2193.37
780.19	2158.56
780.37	2349.02
780.54	2232.29
780.72	2033.63
780.90	2174.94
781.07	2152.42
781.25	2113.50
781.43	2318.30
781.60	2050.02
781.78	2330.59
781.95	2265.05
782.13	2127.84
782.31	2152.42
782.48	1998.82
782.66	2273.25
782.83	2285.53
783.01	2220.00
783.19	2318.30
783.36	2068.45
783.54	2062.30
783.72	2320.35
783.89	2183.13
784.07	2222.05
784.24	2207.71
784.42	2355.16
784.60	2234.33
784.77	2252.77
784.95	1992.67
785.12	2111.46
785.30	2291.68
785.47	2076.64
785.65	2162.66
785.83	2082.78
786.00	2121.70
786.18	2181.09
786.35	2027.49
786.53	2121.70
786.71	2265.05
786.88	2240.48
787.06	2242.53
787.23	2172.89
787.41	2086.88
787.58	2215.90
787.76	2103.26
787.94	2158.56
788.11	2172.89
788.29	2039.78
788.46	2217.95
788.64	2072.54
788.81	2144.22
788.99	2090.98
789.16	2047.97
789.34	2154.46
789.52	2125.79
789.69	2185.18
789.87	2095.07
790.04	2160.61
790.22	2220.00
790.39	2488.28
790.57	2064.35
790.74	2133.98
790.92	2215.90
791.09	2072.54
791.27	2248.67
791.44	2226.14
791.62	2142.18
791.79	2254.81
791.97	2224.09
792.15	2406.36
792.32	2310.11
792.50	2297.82
792.67	2342.88
792.85	2355.16
793.02	2199.52
793.20	2105.31
793.37	2115.55
793.55	2117.60
793.72	2054.11
793.90	2271.20
794.07	2111.46
794.25	2133.98
794.42	2256.86
794.60	2138.08
794.77	2183.13
794.95	2217.95
795.12	2269.15
795.30	2162.66
795.47	2031.58
795.65	2400.22
795.82	2242.53
796.00	2121.70
796.17	2148.32
796.34	2064.35
796.52	2162.66
796.69	2215.90
796.87	2256.86
797.04	2191.33
797.22	2232.29
797.39	2271.20
797.57	2342.88
797.74	2136.03
797.92	2273.25
798.09	2164.70
798.27	2285.53
798.44	2158.56
798.62	2195.42
798.79	2271.20
798.96	2170.85
799.14	2181.09
799.31	2404.32
799.49	2226.14
799.66	2138.08
799.84	2181.09
800.01	2082.78
800.19	2244.57
800.36	2088.93
800.53	2215.90
800.71	2242.53
800.88	2306.01
801.06	2043.87
801.23	2187.23
801.41	2138.08
801.58	2158.56
801.75	2174.94
801.93	2267.10
802.10	2310.11
802.28	2199.52
802.45	2119.65
802.63	2195.42
802.80	2295.77
802.97	2168.80
803.15	2234.33
803.32	2105.31
803.50	2111.46
803.67	2113.50
803.84	2033.63
804.02	2119.65
804.19	2113.50
804.37	1974.24
804.54	2086.88
804.71	2144.22
804.89	2138.08
805.06	2170.85
805.24	2138.08
805.41	2095.07
805.58	2123.74
805.76	2428.89
805.93	2160.61
806.10	2287.58
806.28	2181.09
806.45	2148.32
806.63	2265.05
806.80	2201.57
806.97	2267.10
807.15	2113.50
807.32	2168.80
807.49	2158.56
807.67	2082.78
807.84	2236.38
808.01	1961.95
808.19	2381.79
808.36	2394.08
808.54	2103.26
808.71	2107.36
808.88	2222.05
809.06	2369.50
809.23	2310.11
809.40	2097.12
809.58	2287.58
809.75	2230.24
809.92	2064.35
810.10	2369.50
810.27	2152.42
810.44	2215.90
810.62	2211.81
810.79	2275.29
810.96	2156.51
811.14	2138.08
811.31	2277.34
811.48	2220.00
811.66	2185.18
811.83	2301.92
812.00	2299.87
812.18	2240.48
812.35	2357.21
812.52	2121.70
812.69	2166.75
812.87	2125.79
813.04	2113.50
813.21	2193.37
813.39	2131.94
813.56	2088.93
813.73	2254.81
813.91	2074.59
814.08	2166.75
814.25	2244.57
814.42	2129.89
814.60	2203.61
814.77	2158.56
814.94	2203.61
815.12	2174.94
815.29	2330.59
815.46	2121.70
815.63	2189.28
815.81	2181.09
815.98	2136.03
816.15	2195.42
816.33	2168.80
816.50	2154.46
816.67	2209.76
816.84	2080.74
817.02	2093.02
817.19	2097.12
817.36	2238.43
817.53	2187.23
817.71	2129.89
817.88	2250.72
818.05	2152.42
818.22	2156.51
818.40	2365.40
818.57	2201.57
818.74	2220.00
818.91	2176.99
819.09	2232.29
819.26	2230.24
819.43	2109.41
819.60	2080.74
819.78	2291.68
819.95	2328.54
820.12	2080.74
820.29	2195.42
820.47	2297.82
820.64	2127.84
820.81	2058.21
820.98	2129.89
821.15	2170.85
821.33	2246.62
821.50	2072.54
821.67	2254.81
821.84	2146.27
822.02	2158.56
822.19	2332.64
822.36	2117.60
822.53	2105.31
822.70	2105.31
822.88	2129.89
823.05	2367.45
823.22	2136.03
823.39	2244.57
823.56	2168.80
823.74	2355.16
823.91	2017.25
824.08	2146.27
824.25	2080.74
824.42	2420.70
824.60	2070.50
824.77	2160.61
824.94	2203.61
825.11	2322.40
825.28	2029.54
825.45	2254.81
825.63	2289.63
825.80	2093.02
825.97	2201.57
826.14	2193.37
826.31	1982.43
826.48	2207.71
826.66	2162.66
826.83	2105.31
827.00	2179.04
827.17	2103.26
827.34	2226.14
827.51	2101.22
827.69	2125.79
827.86	2121.70
828.03	2197.47
828.20	2224.09
828.37	2172.89
828.54	2217.95
828.71	2154.46
828.89	2349.02
829.06	2183.13
829.23	2338.78
829.40	2154.46
829.57	2197.47
829.74	2269.15
829.91	2187.23
830.09	2097.12
830.26	2301.92
830.43	2318.30
830.60	2203.61
830.77	2267.10
830.94	2260.96
831.11	2224.09
831.28	2138.08
831.46	2293.72
831.63	2111.46
831.80	2220.00
831.97	2043.87
832.14	2211.81
832.31	2220.00
832.48	2256.86
832.65	2375.64
832.82	2195.42
832.99	2246.62
833.17	2142.18
833.34	2254.81
833.51	2267.10
833.68	2023.39
833.85	2336.73
834.02	2181.09
834.19	2080.74
834.36	2138.08
834.53	2252.77
834.70	2263.01
834.87	2248.67
835.04	2004.96
835.22	2211.81
835.39	2123.74
835.56	2009.06
835.73	2117.60
835.90	2277.34
836.07	2164.70
836.24	2199.52
836.41	2129.89
836.58	2133.98
836.75	2267.10
836.92	2236.38
837.09	2121.70
837.26	2289.63
837.43	2228.19
837.60	2179.04
837.77	2109.41
837.94	2209.76
838.12	2295.77
838.29	2170.85
838.46	2066.40
838.63	2109.41
838.80	2252.77
838.97	2191.33
839.14	2129.89
839.31	2201.57
839.48	2269.15
839.65	2058.21
839.82	2228.19
839.99	2242.53
840.16	2203.61
840.33	2072.54
840.50	2156.51
840.67	2076.64
840.84	2000.87
841.01	2117.60
841.18	2080.74
841.35	2211.81
841.52	2260.96
841.69	2328.54
841.86	2154.46
842.03	2162.66
842.20	2269.15
842.37	2191.33
842.54	2113.50
842.71	2113.50
842.88	2023.39
843.05	2224.09
843.22	2146.27
843.39	2275.29
843.56	2101.22
843.73	2129.89
843.90	2138.08
844.07	2170.85
844.24	2297.82
844.41	2224.09
844.58	2191.33
844.75	2197.47
844.92	2260.96
845.09	2152.42
845.26	2072.54
845.43	2258.91
845.60	2174.94
845.77	2168.80
845.94	2142.18
846.10	2293.72
846.27	2109.41
846.44	2084.83
846.61	2054.11
846.78	2125.79
846.95	2211.81
847.12	2162.66
847.29	2140.13
847.46	2097.12
847.63	2281.44
847.80	2068.45
847.97	2105.31
848.14	2373.60
848.31	2174.94
848.48	2070.50
848.65	2127.84
848.82	2103.26
848.98	2424.80
849.15	2252.77
849.32	2263.01
849.49	2310.11
849.66	2172.89
849.83	2150.37
850.00	2045.92
850.17	2326.49
850.34	2260.96
850.51	2076.64
850.68	2203.61
850.85	2418.65
851.01	2181.09
851.18	2127.84
851.35	2125.79
851.52	2195.42
851.69	2334.68
851.86	2007.01
852.03	2152.42
852.20	2281.44
852.37	2119.65
852.53	2015.20
852.70	2168.80
852.87	2131.94
853.04	2291.68
853.21	2170.85
853.38	2238.43
853.55	2246.62
853.72	2322.40
853.89	2045.92
854.05	2117.60
854.22	2189.28
854.39	2117.60
854.56	2201.57
854.73	2193.37
854.90	2176.99
855.07	2129.89
855.23	2093.02
855.40	2174.94
855.57	2183.13
855.74	1978.34
855.91	2351.07
856.08	2103.26
856.25	2111.46
856.41	2156.51
856.58	2244.57
856.75	2183.13
856.92	2080.74
857.09	2240.48
857.26	2086.88
857.42	2154.46
857.59	2244.57
857.76	2189.28
857.93	2224.09
858.10	2254.81
858.27	2078.69
858.43	2228.19
858.60	2070.50
858.77	2043.87
858.94	2168.80
859.11	2256.86
859.27	2107.36
859.44	2176.99
859.61	2349.02
859.78	2228.19
859.95	2174.94
860.12	2121.70
860.28	2392.03
860.45	2353.12
860.62	2105.31
860.79	2158.56
860.95	2201.57
861.12	2136.03
861.29	2099.17
861.46	2125.79
861.63	2152.42
861.79	2211.81
861.96	2039.78
862.13	2090.98
862.30	2291.68
862.47	2121.70
862.63	2129.89
862.80	2172.89
862.97	2306.01
863.14	2211.81
863.30	2209.76
863.47	2168.80
863.64	2326.49
863.81	2185.18
863.97	2093.02
864.14	2193.37
864.31	2158.56
864.48	2185.18
864.65	2125.79
864.81	2260.96
864.98	2203.61
865.15	2297.82
865.32	2185.18
865.48	2250.72
865.65	2326.49
865.82	2133.98
865.98	2099.17
866.15	2232.29
866.32	2271.20
866.49	2152.42
866.65	2242.53
866.82	2162.66
866.99	2242.53
867.16	2162.66
867.32	2125.79
867.49	2129.89
867.66	2142.18
867.83	2117.60
867.99	2062.30
868.16	2166.75
868.33	2162.66
868.49	2160.61
868.66	2133.98
868.83	2209.76
868.99	2187.23
869.16	2123.74
869.33	2242.53
869.50	2230.24
869.66	2179.04
869.83	2117.60
870.00	2023.39
870.16	2220.00
870.33	2187.23
870.50	2293.72
870.66	2191.33
870.83	2260.96
871.00	2215.90
871.17	2201.57
871.33	2162.66
871.50	2086.88
871.67	2193.37
871.83	2050.02
872.00	2226.14
872.17	2138.08
872.33	2326.49
872.50	2297.82
872.67	2113.50
872.83	2041.82
873.00	2201.57
873.17	2215.90
873.33	2203.61
873.50	2195.42
873.67	2025.44
873.83	2103.26
874.00	2217.95
874.16	2265.05
874.33	2250.72
874.50	2041.82
874.66	2127.84
874.83	2115.55
875.00	2310.11
875.16	2361.31
875.33	2275.29
875.50	1978.34
875.66	2150.37
875.83	2217.95
875.99	2170.85
876.16	2260.96
876.33	2111.46
876.49	2154.46
876.66	2213.85
876.83	2142.18
876.99	2088.93
877.16	2117.60
877.32	2111.46
877.49	2095.07
877.66	2162.66
877.82	2344.92
877.99	2136.03
878.15	2258.91
878.32	2205.66
878.49	2236.38
878.65	2181.09
878.82	2306.01
878.98	2211.81
879.15	2269.15
879.32	2244.57
879.48	2252.77
879.65	2168.80
879.81	2138.08
879.98	2174.94
880.15	2158.56
880.31	2281.44
880.48	2115.55
880.64	2342.88
880.81	2168.80
880.97	2351.07
881.14	2334.68
881.31	2095.07
881.47	2363.36
881.64	2068.45
881.80	1992.67
881.97	2203.61
882.13	2217.95
882.30	2047.97
882.47	2156.51
882.63	2072.54
882.80	2117.60
882.96	2109.41
883.13	2301.92
883.29	2136.03
883.46	2209.76
883.62	2369.50
883.79	2228.19
883.95	2156.51
884.12	2131.94
884.29	2224.09
884.45	2154.46
884.62	2211.81
884.78	2097.12
884.95	2316.25
885.11	2095.07
885.28	2242.53
885.44	2172.89
885.61	2250.72
885.77	2310.11
885.94	2230.24
886.10	2166.75
886.27	2199.52
886.43	2297.82
886.60	2215.90
886.76	2162.66
886.93	2140.13
887.09	2187.23
887.26	2064.35
887.42	2127.84
887.59	2367.45
887.75	2424.80
887.92	2269.15
888.08	2250.72
888.25	2277.34
888.41	2246.62
888.58	2252.77
888.74	2158.56
888.91	2162.66
>>>>>End Processed Spectral Data<<<<<
