SpectraSuite Data File
++++++++++++++++++++++++++++++++++++
Date: Tue May 03 11:23:59 CEST 2016
User: root
Dark Spectrum Present: No
Reference Spectrum Present: No
Number of Sampled Component Spectra: 1
Spectrometers: USB4C02835
Integration Time (usec): 100000 (USB4C02835)
Spectra Averaged: 1 (USB4C02835)
Boxcar Smoothing: 0 (USB4C02835)
Correct for Electrical Dark: No (USB4C02835)
Strobe/Lamp Enabled: No (USB4C02835)
Correct for Detector Non-linearity: No (USB4C02835)
Correct for Stray Light: No (USB4C02835)
Number of Pixels in Processed Spectrum: 3648
>>>>>Begin Processed Spectral Data<<<<<
177.47	1191.92
177.69	1191.92
177.91	1191.92
178.13	1294.32
178.36	1167.34
178.58	1277.93
178.80	1361.90
179.02	1224.69
179.24	1318.89
179.46	1361.90
179.68	1366.00
179.90	1363.95
180.13	1398.76
180.35	1353.71
180.57	1376.24
180.79	1394.67
181.01	1355.76
181.23	1421.29
181.45	1355.76
181.67	1370.09
181.90	1388.52
182.12	1329.13
182.34	1376.24
182.56	1384.43
182.78	1357.80
183.00	1359.85
183.22	1372.14
183.44	1282.03
183.66	1411.05
183.89	1404.91
184.11	1361.90
184.33	1322.99
184.55	1402.86
184.77	1376.24
184.99	1359.85
185.21	1359.85
185.43	1423.34
185.65	1290.22
185.87	1345.52
186.10	1441.77
186.32	1439.72
186.54	1300.46
186.76	1368.04
186.98	1411.05
187.20	1355.76
187.42	1318.89
187.64	1415.15
187.86	1421.29
188.08	1372.14
188.30	1417.19
188.52	1376.24
188.75	1392.62
188.97	1388.52
189.19	1390.57
189.41	1370.09
189.63	1376.24
189.85	1298.41
190.07	1265.64
190.29	1355.76
190.51	1380.33
190.73	1347.56
190.95	1447.91
191.17	1357.80
191.39	1282.03
191.61	1353.71
191.84	1298.41
192.06	1372.14
192.28	1286.12
192.50	1521.64
192.72	1335.28
192.94	1423.34
193.16	1318.89
193.38	1298.41
193.60	1429.48
193.82	1306.60
194.04	1333.23
194.26	1370.09
194.48	1390.57
194.70	1325.04
194.92	1347.56
195.14	1363.95
195.36	1255.40
195.58	1355.76
195.80	1445.87
196.02	1376.24
196.24	1417.19
196.46	1361.90
196.69	1284.08
196.91	1519.59
197.13	1368.04
197.35	1374.19
197.57	1413.10
197.79	1394.67
198.01	1388.52
198.23	1343.47
198.45	1366.00
198.67	1386.47
198.89	1368.04
199.11	1355.76
199.33	1413.10
199.55	1259.50
199.77	1355.76
199.99	1411.05
200.21	1398.76
200.43	1388.52
200.65	1349.61
200.87	1247.21
201.09	1337.32
201.31	1380.33
201.53	1417.19
201.75	1282.03
201.97	1347.56
202.19	1349.61
202.41	1394.67
202.63	1480.68
202.85	1390.57
203.07	1341.42
203.29	1355.76
203.51	1298.41
203.73	1308.65
203.95	1548.26
204.17	1306.60
204.39	1361.90
204.61	1413.10
204.83	1314.80
205.05	1376.24
205.27	1413.10
205.49	1447.91
205.71	1353.71
205.93	1308.65
206.15	1404.91
206.37	1413.10
206.59	1325.04
206.81	1349.61
207.03	1347.56
207.25	1374.19
207.47	1361.90
207.69	1322.99
207.91	1419.24
208.13	1384.43
208.34	1458.15
208.56	1345.52
208.78	1406.95
209.00	1363.95
209.22	1402.86
209.44	1353.71
209.66	1308.65
209.88	1386.47
210.10	1406.95
210.32	1275.88
210.54	1347.56
210.76	1355.76
210.98	1437.67
211.20	1239.02
211.42	1411.05
211.64	1431.53
211.86	1406.95
212.08	1449.96
212.30	1349.61
212.52	1304.56
212.74	1331.18
212.96	1396.71
213.17	1388.52
213.39	1294.32
213.61	1443.82
213.83	1464.30
214.05	1294.32
214.27	1370.09
214.49	1314.80
214.71	1392.62
214.93	1363.95
215.15	1339.37
215.37	1327.08
215.59	1359.85
215.81	1406.95
216.03	1314.80
216.24	1394.67
216.46	1396.71
216.68	1464.30
216.90	1363.95
217.12	1376.24
217.34	1380.33
217.56	1392.62
217.78	1380.33
218.00	1339.37
218.22	1409.00
218.44	1353.71
218.66	1337.32
218.87	1351.66
219.09	1357.80
219.31	1327.08
219.53	1298.41
219.75	1368.04
219.97	1372.14
220.19	1368.04
220.41	1292.27
220.63	1359.85
220.85	1378.28
221.06	1329.13
221.28	1388.52
221.50	1433.58
221.72	1374.19
221.94	1353.71
222.16	1296.36
222.38	1370.09
222.60	1439.72
222.82	1376.24
223.03	1409.00
223.25	1380.33
223.47	1478.63
223.69	1449.96
223.91	1376.24
224.13	1376.24
224.35	1368.04
224.57	1435.63
224.78	1409.00
225.00	1286.12
225.22	1388.52
225.44	1382.38
225.66	1404.91
225.88	1363.95
226.10	1394.67
226.32	1396.71
226.53	1435.63
226.75	1409.00
226.97	1390.57
227.19	1404.91
227.41	1349.61
227.63	1355.76
227.85	1331.18
228.06	1413.10
228.28	1402.86
228.50	1386.47
228.72	1351.66
228.94	1368.04
229.16	1320.94
229.37	1290.22
229.59	1318.89
229.81	1374.19
230.03	1282.03
230.25	1294.32
230.47	1394.67
230.69	1312.75
230.90	1390.57
231.12	1374.19
231.34	1406.95
231.56	1333.23
231.78	1339.37
232.00	1374.19
232.21	1374.19
232.43	1368.04
232.65	1239.02
232.87	1308.65
233.09	1302.51
233.30	1306.60
233.52	1337.32
233.74	1386.47
233.96	1378.28
234.18	1394.67
234.40	1310.70
234.61	1409.00
234.83	1339.37
235.05	1318.89
235.27	1460.20
235.49	1441.77
235.70	1462.25
235.92	1441.77
236.14	1402.86
236.36	1435.63
236.58	1355.76
236.79	1460.20
237.01	1437.67
237.23	1333.23
237.45	1507.30
237.67	1310.70
237.88	1359.85
238.10	1476.59
238.32	1361.90
238.54	1409.00
238.76	1406.95
238.97	1312.75
239.19	1378.28
239.41	1480.68
239.63	1478.63
239.85	1337.32
240.06	1357.80
240.28	1273.84
240.50	1468.39
240.72	1390.57
240.93	1402.86
241.15	1417.19
241.37	1388.52
241.59	1388.52
241.81	1411.05
242.02	1388.52
242.24	1402.86
242.46	1402.86
242.68	1329.13
242.89	1413.10
243.11	1415.15
243.33	1366.00
243.55	1406.95
243.76	1351.66
243.98	1347.56
244.20	1337.32
244.42	1351.66
244.64	1372.14
244.85	1355.76
245.07	1257.45
245.29	1366.00
245.51	1331.18
245.72	1345.52
245.94	1314.80
246.16	1411.05
246.38	1355.76
246.59	1437.67
246.81	1359.85
247.03	1443.82
247.24	1386.47
247.46	1398.76
247.68	1380.33
247.90	1290.22
248.11	1402.86
248.33	1376.24
248.55	1394.67
248.77	1439.72
248.98	1345.52
249.20	1388.52
249.42	1417.19
249.64	1406.95
249.85	1390.57
250.07	1294.32
250.29	1310.70
250.50	1413.10
250.72	1304.56
250.94	1363.95
251.16	1470.44
251.37	1464.30
251.59	1441.77
251.81	1390.57
252.02	1433.58
252.24	1351.66
252.46	1445.87
252.68	1374.19
252.89	1335.28
253.11	1363.95
253.33	1474.54
253.54	1404.91
253.76	1339.37
253.98	1339.37
254.20	1361.90
254.41	1368.04
254.63	1392.62
254.85	1363.95
255.06	1370.09
255.28	1357.80
255.50	1400.81
255.71	1228.78
255.93	1349.61
256.15	1466.35
256.36	1468.39
256.58	1359.85
256.80	1380.33
257.02	1337.32
257.23	1335.28
257.45	1284.08
257.67	1427.43
257.88	1396.71
258.10	1355.76
258.32	1404.91
258.53	1355.76
258.75	1427.43
258.97	1351.66
259.18	1415.15
259.40	1290.22
259.62	1366.00
259.83	1363.95
260.05	1458.15
260.27	1538.02
260.48	1468.39
260.70	1286.12
260.92	1370.09
261.13	1310.70
261.35	1396.71
261.57	1376.24
261.78	1308.65
262.00	1378.28
262.22	1449.96
262.43	1265.64
262.65	1363.95
262.86	1269.74
263.08	1427.43
263.30	1400.81
263.51	1318.89
263.73	1449.96
263.95	1388.52
264.16	1347.56
264.38	1333.23
264.60	1406.95
264.81	1363.95
265.03	1409.00
265.25	1417.19
265.46	1294.32
265.68	1501.16
265.89	1396.71
266.11	1331.18
266.33	1411.05
266.54	1409.00
266.76	1282.03
266.98	1413.10
267.19	1423.34
267.41	1417.19
267.62	1298.41
267.84	1337.32
268.06	1374.19
268.27	1370.09
268.49	1462.25
268.70	1368.04
268.92	1413.10
269.14	1390.57
269.35	1255.40
269.57	1337.32
269.79	1437.67
270.00	1374.19
270.22	1431.53
270.43	1423.34
270.65	1314.80
270.87	1322.99
271.08	1357.80
271.30	1409.00
271.51	1341.42
271.73	1355.76
271.95	1417.19
272.16	1304.56
272.38	1429.48
272.59	1339.37
272.81	1458.15
273.02	1372.14
273.24	1335.28
273.46	1406.95
273.67	1368.04
273.89	1378.28
274.10	1363.95
274.32	1402.86
274.54	1411.05
274.75	1376.24
274.97	1411.05
275.18	1386.47
275.40	1384.43
275.61	1310.70
275.83	1378.28
276.05	1294.32
276.26	1308.65
276.48	1460.20
276.69	1296.36
276.91	1347.56
277.12	1421.29
277.34	1382.38
277.55	1449.96
277.77	1347.56
277.99	1370.09
278.20	1353.71
278.42	1257.45
278.63	1288.17
278.85	1304.56
279.06	1304.56
279.28	1406.95
279.49	1386.47
279.71	1394.67
279.93	1327.08
280.14	1423.34
280.36	1290.22
280.57	1449.96
280.79	1337.32
281.00	1331.18
281.22	1304.56
281.43	1366.00
281.65	1316.84
281.86	1402.86
282.08	1345.52
282.29	1456.11
282.51	1290.22
282.73	1257.45
282.94	1341.42
283.16	1368.04
283.37	1464.30
283.59	1368.04
283.80	1388.52
284.02	1339.37
284.23	1339.37
284.45	1361.90
284.66	1337.32
284.88	1310.70
285.09	1439.72
285.31	1376.24
285.52	1345.52
285.74	1325.04
285.95	1447.91
286.17	1363.95
286.38	1337.32
286.60	1310.70
286.81	1363.95
287.03	1361.90
287.24	1419.24
287.46	1355.76
287.67	1320.94
287.89	1509.35
288.10	1388.52
288.32	1318.89
288.53	1388.52
288.75	1413.10
288.96	1413.10
289.18	1343.47
289.39	1366.00
289.61	1355.76
289.82	1386.47
290.04	1427.43
290.25	1355.76
290.47	1345.52
290.68	1376.24
290.90	1406.95
291.11	1271.79
291.33	1404.91
291.54	1366.00
291.76	1421.29
291.97	1396.71
292.18	1318.89
292.40	1296.36
292.61	1359.85
292.83	1396.71
293.04	1445.87
293.26	1409.00
293.47	1306.60
293.69	1296.36
293.90	1437.67
294.12	1386.47
294.33	1312.75
294.55	1337.32
294.76	1421.29
294.97	1368.04
295.19	1388.52
295.40	1277.93
295.62	1345.52
295.83	1380.33
296.05	1226.73
296.26	1372.14
296.48	1288.17
296.69	1392.62
296.90	1357.80
297.12	1415.15
297.33	1361.90
297.55	1421.29
297.76	1357.80
297.98	1320.94
298.19	1388.52
298.41	1415.15
298.62	1384.43
298.83	1435.63
299.05	1343.47
299.26	1308.65
299.48	1425.39
299.69	1435.63
299.90	1296.36
300.12	1288.17
300.33	1372.14
300.55	1349.61
300.76	1443.82
300.98	1333.23
301.19	1417.19
301.40	1345.52
301.62	1376.24
301.83	1355.76
302.05	1341.42
302.26	1310.70
302.47	1406.95
302.69	1357.80
302.90	1386.47
303.12	1247.21
303.33	1394.67
303.54	1376.24
303.76	1318.89
303.97	1314.80
304.19	1501.16
304.40	1396.71
304.61	1402.86
304.83	1417.19
305.04	1363.95
305.26	1310.70
305.47	1390.57
305.68	1331.18
305.90	1378.28
306.11	1345.52
306.33	1337.32
306.54	1361.90
306.75	1384.43
306.97	1347.56
307.18	1374.19
307.39	1322.99
307.61	1456.11
307.82	1374.19
308.04	1429.48
308.25	1353.71
308.46	1339.37
308.68	1363.95
308.89	1421.29
309.10	1378.28
309.32	1409.00
309.53	1359.85
309.74	1427.43
309.96	1388.52
310.17	1363.95
310.39	1300.46
310.60	1437.67
310.81	1298.41
311.03	1376.24
311.24	1386.47
311.45	1361.90
311.67	1472.49
311.88	1380.33
312.09	1339.37
312.31	1347.56
312.52	1390.57
312.73	1335.28
312.95	1378.28
313.16	1423.34
313.37	1439.72
313.59	1286.12
313.80	1392.62
314.01	1427.43
314.23	1339.37
314.44	1366.00
314.65	1345.52
314.87	1409.00
315.08	1394.67
315.29	1316.84
315.51	1347.56
315.72	1279.98
315.93	1456.11
316.15	1374.19
316.36	1357.80
316.57	1357.80
316.79	1343.47
317.00	1347.56
317.21	1370.09
317.43	1359.85
317.64	1386.47
317.85	1402.86
318.07	1462.25
318.28	1511.40
318.49	1552.36
318.70	1640.42
318.92	1507.30
319.13	1499.11
319.34	1538.02
319.56	1488.87
319.77	1441.77
319.98	1495.02
320.20	1417.19
320.41	1486.83
320.62	1372.14
320.83	1298.41
321.05	1382.38
321.26	1409.00
321.47	1294.32
321.69	1480.68
321.90	1359.85
322.11	1425.39
322.32	1392.62
322.54	1345.52
322.75	1300.46
322.96	1435.63
323.18	1327.08
323.39	1310.70
323.60	1406.95
323.81	1318.89
324.03	1275.88
324.24	1380.33
324.45	1413.10
324.66	1347.56
324.88	1392.62
325.09	1452.01
325.30	1316.84
325.52	1390.57
325.73	1337.32
325.94	1361.90
326.15	1343.47
326.37	1335.28
326.58	1462.25
326.79	1394.67
327.00	1357.80
327.22	1329.13
327.43	1341.42
327.64	1316.84
327.85	1361.90
328.07	1421.29
328.28	1470.44
328.49	1355.76
328.70	1331.18
328.92	1413.10
329.13	1419.24
329.34	1388.52
329.55	1398.76
329.76	1431.53
329.98	1411.05
330.19	1437.67
330.40	1415.15
330.61	1417.19
330.83	1382.38
331.04	1339.37
331.25	1415.15
331.46	1370.09
331.68	1427.43
331.89	1406.95
332.10	1357.80
332.31	1322.99
332.52	1378.28
332.74	1476.59
332.95	1353.71
333.16	1286.12
333.37	1425.39
333.58	1343.47
333.80	1355.76
334.01	1279.98
334.22	1341.42
334.43	1345.52
334.64	1290.22
334.86	1290.22
335.07	1292.27
335.28	1468.39
335.49	1310.70
335.70	1357.80
335.92	1462.25
336.13	1390.57
336.34	1409.00
336.55	1406.95
336.76	1378.28
336.98	1294.32
337.19	1378.28
337.40	1384.43
337.61	1392.62
337.82	1329.13
338.04	1355.76
338.25	1327.08
338.46	1335.28
338.67	1355.76
338.88	1312.75
339.09	1314.80
339.31	1329.13
339.52	1341.42
339.73	1282.03
339.94	1343.47
340.15	1374.19
340.36	1318.89
340.58	1306.60
340.79	1429.48
341.00	1337.32
341.21	1310.70
341.42	1396.71
341.63	1388.52
341.85	1374.19
342.06	1406.95
342.27	1353.71
342.48	1423.34
342.69	1318.89
342.90	1359.85
343.12	1329.13
343.33	1359.85
343.54	1298.41
343.75	1368.04
343.96	1402.86
344.17	1318.89
344.38	1341.42
344.60	1357.80
344.81	1361.90
345.02	1402.86
345.23	1417.19
345.44	1488.87
345.65	1345.52
345.86	1368.04
346.07	1357.80
346.29	1325.04
346.50	1347.56
346.71	1460.20
346.92	1433.58
347.13	1394.67
347.34	1343.47
347.55	1337.32
347.76	1404.91
347.98	1343.47
348.19	1382.38
348.40	1417.19
348.61	1339.37
348.82	1458.15
349.03	1402.86
349.24	1279.98
349.45	1525.74
349.66	1200.11
349.88	1345.52
350.09	1337.32
350.30	1349.61
350.51	1452.01
350.72	1411.05
350.93	1345.52
351.14	1316.84
351.35	1388.52
351.56	1335.28
351.77	1374.19
351.99	1347.56
352.20	1355.76
352.41	1355.76
352.62	1273.84
352.83	1320.94
353.04	1396.71
353.25	1370.09
353.46	1454.06
353.67	1409.00
353.88	1361.90
354.09	1445.87
354.30	1415.15
354.52	1331.18
354.73	1341.42
354.94	1402.86
355.15	1341.42
355.36	1372.14
355.57	1394.67
355.78	1400.81
355.99	1308.65
356.20	1284.08
356.41	1355.76
356.62	1343.47
356.83	1351.66
357.04	1437.67
357.25	1312.75
357.46	1392.62
357.68	1306.60
357.89	1370.09
358.10	1290.22
358.31	1384.43
358.52	1390.57
358.73	1282.03
358.94	1337.32
359.15	1351.66
359.36	1433.58
359.57	1398.76
359.78	1374.19
359.99	1380.33
360.20	1361.90
360.41	1380.33
360.62	1492.97
360.83	1441.77
361.04	1499.11
361.25	1335.28
361.46	1433.58
361.67	1480.68
361.88	1433.58
362.09	1386.47
362.30	1304.56
362.51	1302.51
362.72	1394.67
362.93	1419.24
363.14	1396.71
363.35	1390.57
363.56	1359.85
363.78	1380.33
363.99	1392.62
364.20	1386.47
364.41	1423.34
364.62	1406.95
364.83	1339.37
365.04	1404.91
365.25	1333.23
365.46	1409.00
365.67	1361.90
365.88	1374.19
366.09	1384.43
366.30	1421.29
366.51	1415.15
366.72	1366.00
366.93	1378.28
367.14	1425.39
367.35	1435.63
367.56	1347.56
367.77	1460.20
367.98	1396.71
368.18	1353.71
368.39	1435.63
368.60	1333.23
368.81	1333.23
369.02	1357.80
369.23	1384.43
369.44	1257.45
369.65	1372.14
369.86	1351.66
370.07	1478.63
370.28	1284.08
370.49	1359.85
370.70	1370.09
370.91	1306.60
371.12	1351.66
371.33	1390.57
371.54	1345.52
371.75	1427.43
371.96	1337.32
372.17	1314.80
372.38	1441.77
372.59	1415.15
372.80	1429.48
373.01	1296.36
373.22	1402.86
373.43	1353.71
373.64	1388.52
373.85	1386.47
374.06	1472.49
374.26	1413.10
374.47	1376.24
374.68	1417.19
374.89	1370.09
375.10	1351.66
375.31	1421.29
375.52	1355.76
375.73	1417.19
375.94	1314.80
376.15	1400.81
376.36	1329.13
376.57	1325.04
376.78	1361.90
376.99	1347.56
377.20	1380.33
377.40	1351.66
377.61	1398.76
377.82	1345.52
378.03	1431.53
378.24	1341.42
378.45	1409.00
378.66	1357.80
378.87	1296.36
379.08	1357.80
379.29	1322.99
379.50	1431.53
379.71	1329.13
379.91	1388.52
380.12	1392.62
380.33	1331.18
380.54	1419.24
380.75	1325.04
380.96	1355.76
381.17	1527.78
381.38	1456.11
381.59	1476.59
381.80	1425.39
382.00	1517.54
382.21	1443.82
382.42	1523.69
382.63	1550.31
382.84	1372.14
383.05	1466.35
383.26	1515.50
383.47	1447.91
383.68	1394.67
383.88	1411.05
384.09	1402.86
384.30	1472.49
384.51	1366.00
384.72	1308.65
384.93	1251.31
385.14	1431.53
385.35	1382.38
385.55	1382.38
385.76	1378.28
385.97	1409.00
386.18	1333.23
386.39	1292.27
386.60	1355.76
386.81	1429.48
387.02	1318.89
387.22	1290.22
387.43	1443.82
387.64	1564.65
387.85	2338.78
388.06	5867.43
388.27	9488.24
388.48	11650.89
388.68	13195.06
388.89	13291.32
389.10	10645.34
389.31	9168.76
389.52	8431.49
389.73	7516.05
389.93	6963.09
390.14	6504.35
390.35	6018.98
390.56	5451.69
390.77	4689.85
390.98	3684.30
391.18	2799.57
391.39	2152.42
391.60	1779.68
391.81	1617.90
392.02	1458.15
392.23	1484.78
392.43	1349.61
392.64	1437.67
392.85	1376.24
393.06	1402.86
393.27	1318.89
393.47	1394.67
393.68	1392.62
393.89	1429.48
394.10	1366.00
394.31	1359.85
394.52	1322.99
394.72	1374.19
394.93	1413.10
395.14	1265.64
395.35	1380.33
395.56	1462.25
395.76	1556.46
395.97	1550.31
396.18	1591.27
396.39	1576.94
396.60	1679.33
396.80	1585.13
397.01	1509.35
397.22	1480.68
397.43	1470.44
397.64	1464.30
397.84	1480.68
398.05	1540.07
398.26	1490.92
398.47	1515.50
398.67	1478.63
398.88	1384.43
399.09	1417.19
399.30	1316.84
399.51	1363.95
399.71	1359.85
399.92	1396.71
400.13	1423.34
400.34	1282.03
400.54	1339.37
400.75	1460.20
400.96	1495.02
401.17	1400.81
401.37	1378.28
401.58	1363.95
401.79	1564.65
402.00	1628.14
402.21	1800.16
402.41	1753.06
402.62	1783.78
402.83	1703.91
403.04	1548.26
403.24	1613.80
403.45	1568.74
403.66	1609.70
403.87	1439.72
404.07	1581.03
404.28	1583.08
404.49	1550.31
404.70	1505.26
404.90	1466.35
405.11	1452.01
405.32	1488.87
405.52	1343.47
405.73	1339.37
405.94	1327.08
406.15	1419.24
406.35	1413.10
406.56	1413.10
406.77	1320.94
406.98	1394.67
407.18	1376.24
407.39	1374.19
407.60	1331.18
407.80	1472.49
408.01	1286.12
408.22	1372.14
408.43	1282.03
408.63	1353.71
408.84	1345.52
409.05	1361.90
409.25	1478.63
409.46	1337.32
409.67	1376.24
409.88	1300.46
410.08	1376.24
410.29	1384.43
410.50	1415.15
410.70	1359.85
410.91	1294.32
411.12	1454.06
411.32	1419.24
411.53	1425.39
411.74	1488.87
411.95	1468.39
412.15	1466.35
412.36	1484.78
412.57	1480.68
412.77	1404.91
412.98	1406.95
413.19	1386.47
413.39	1343.47
413.60	1447.91
413.81	1560.55
414.01	1449.96
414.22	1368.04
414.43	1409.00
414.63	1306.60
414.84	1402.86
415.05	1382.38
415.25	1306.60
415.46	1384.43
415.67	1380.33
415.87	1382.38
416.08	1333.23
416.29	1363.95
416.49	1439.72
416.70	1300.46
416.91	1335.28
417.11	1378.28
417.32	1431.53
417.53	1390.57
417.73	1429.48
417.94	1374.19
418.15	1370.09
418.35	1329.13
418.56	1351.66
418.77	1433.58
418.97	1353.71
419.18	1366.00
419.38	1222.64
419.59	1398.76
419.80	1361.90
420.00	1386.47
420.21	1462.25
420.42	1363.95
420.62	1357.80
420.83	1394.67
421.04	1363.95
421.24	1329.13
421.45	1501.16
421.65	1419.24
421.86	1409.00
422.07	1335.28
422.27	1390.57
422.48	1372.14
422.69	1318.89
422.89	1386.47
423.10	1374.19
423.30	1386.47
423.51	1347.56
423.72	1329.13
423.92	1435.63
424.13	1296.36
424.33	1306.60
424.54	1454.06
424.75	1355.76
424.95	1370.09
425.16	1331.18
425.36	1402.86
425.57	1413.10
425.78	1415.15
425.98	1380.33
426.19	1425.39
426.39	1310.70
426.60	1402.86
426.81	1378.28
427.01	1304.56
427.22	1339.37
427.42	1327.08
427.63	1386.47
427.83	1400.81
428.04	1349.61
428.25	1386.47
428.45	1320.94
428.66	1402.86
428.86	1394.67
429.07	1265.64
429.28	1345.52
429.48	1443.82
429.69	1325.04
429.89	1325.04
430.10	1298.41
430.30	1441.77
430.51	1355.76
430.71	1388.52
430.92	1370.09
431.13	1447.91
431.33	1390.57
431.54	1409.00
431.74	1474.54
431.95	1452.01
432.15	1355.76
432.36	1406.95
432.56	1409.00
432.77	1417.19
432.98	1472.49
433.18	1314.80
433.39	1331.18
433.59	1314.80
433.80	1366.00
434.00	1454.06
434.21	1406.95
434.41	1359.85
434.62	1437.67
434.82	1382.38
435.03	1306.60
435.23	1351.66
435.44	1269.74
435.64	1370.09
435.85	1380.33
436.06	1413.10
436.26	1368.04
436.47	1374.19
436.67	1372.14
436.88	1380.33
437.08	1374.19
437.29	1443.82
437.49	1359.85
437.70	1357.80
437.90	1437.67
438.11	1556.46
438.31	1497.07
438.52	1583.08
438.72	1572.84
438.93	1478.63
439.13	1466.35
439.34	1478.63
439.54	1454.06
439.75	1535.98
439.95	1486.83
440.16	1406.95
440.36	1468.39
440.57	1449.96
440.77	1404.91
440.98	1402.86
441.18	1445.87
441.39	1366.00
441.59	1378.28
441.80	1429.48
442.00	1370.09
442.21	1382.38
442.41	1349.61
442.62	1374.19
442.82	1357.80
443.02	1425.39
443.23	1458.15
443.43	1439.72
443.64	1456.11
443.84	1409.00
444.05	1419.24
444.25	1413.10
444.46	1409.00
444.66	1404.91
444.87	1449.96
445.07	1320.94
445.28	1361.90
445.48	1394.67
445.69	1402.86
445.89	1456.11
446.09	1517.54
446.30	2277.34
446.50	3753.93
446.71	4648.89
446.91	5310.38
447.12	5599.15
447.32	4997.04
447.53	4151.23
447.73	3753.93
447.93	3444.68
448.14	3088.34
448.34	3049.43
448.55	2734.04
448.75	2807.77
448.96	2662.36
449.16	2344.92
449.36	2207.71
449.57	1912.80
449.77	1648.61
449.98	1486.83
450.18	1523.69
450.39	1474.54
450.59	1464.30
450.79	1366.00
451.00	1443.82
451.20	1421.29
451.41	1402.86
451.61	1378.28
451.81	1363.95
452.02	1333.23
452.22	1392.62
452.43	1312.75
452.63	1327.08
452.84	1361.90
453.04	1394.67
453.24	1400.81
453.45	1314.80
453.65	1429.48
453.86	1402.86
454.06	1335.28
454.26	1353.71
454.47	1282.03
454.67	1472.49
454.87	1382.38
455.08	1357.80
455.28	1396.71
455.49	1370.09
455.69	1427.43
455.89	1484.78
456.10	1345.52
456.30	1376.24
456.51	1413.10
456.71	1384.43
456.91	1374.19
457.12	1458.15
457.32	1413.10
457.52	1370.09
457.73	1374.19
457.93	1415.15
458.14	1355.76
458.34	1357.80
458.54	1357.80
458.75	1357.80
458.95	1394.67
459.15	1400.81
459.36	1398.76
459.56	1411.05
459.76	1492.97
459.97	1294.32
460.17	1398.76
460.37	1470.44
460.58	1390.57
460.78	1388.52
460.99	1327.08
461.19	1433.58
461.39	1355.76
461.60	1343.47
461.80	1357.80
462.00	1374.19
462.21	1353.71
462.41	1320.94
462.61	1316.84
462.82	1320.94
463.02	1376.24
463.22	1337.32
463.43	1384.43
463.63	1398.76
463.83	1413.10
464.04	1370.09
464.24	1409.00
464.44	1390.57
464.64	1374.19
464.85	1386.47
465.05	1429.48
465.25	1351.66
465.46	1370.09
465.66	1425.39
465.86	1429.48
466.07	1449.96
466.27	1347.56
466.47	1349.61
466.68	1351.66
466.88	1540.07
467.08	1447.91
467.29	1325.04
467.49	1386.47
467.69	1378.28
467.89	1480.68
468.10	1388.52
468.30	1400.81
468.50	1357.80
468.71	1392.62
468.91	1271.79
469.11	1435.63
469.31	1384.43
469.52	1308.65
469.72	1462.25
469.92	1468.39
470.13	1441.77
470.33	1439.72
470.53	1759.21
470.73	1996.77
470.94	2306.01
471.14	2242.53
471.34	2545.63
471.54	2138.08
471.75	2045.92
471.95	1902.56
472.15	1834.98
472.36	1826.79
472.56	1781.73
472.76	1712.10
472.96	1775.59
473.17	1677.29
473.37	1640.42
473.57	1490.92
473.77	1476.59
473.98	1447.91
474.18	1314.80
474.38	1435.63
474.58	1372.14
474.79	1394.67
474.99	1398.76
475.19	1386.47
475.39	1288.17
475.60	1368.04
475.80	1366.00
476.00	1366.00
476.20	1402.86
476.41	1392.62
476.61	1460.20
476.81	1392.62
477.01	1390.57
477.21	1437.67
477.42	1423.34
477.62	1368.04
477.82	1349.61
478.02	1404.91
478.23	1419.24
478.43	1320.94
478.63	1392.62
478.83	1388.52
479.03	1476.59
479.24	1439.72
479.44	1353.71
479.64	1329.13
479.84	1255.40
480.04	1279.98
480.25	1411.05
480.45	1406.95
480.65	1376.24
480.85	1366.00
481.06	1343.47
481.26	1314.80
481.46	1370.09
481.66	1425.39
481.86	1284.08
482.06	1429.48
482.27	1378.28
482.47	1306.60
482.67	1380.33
482.87	1388.52
483.07	1411.05
483.28	1390.57
483.48	1339.37
483.68	1392.62
483.88	1380.33
484.08	1310.70
484.29	1261.55
484.49	1388.52
484.69	1411.05
484.89	1429.48
485.09	1378.28
485.29	1366.00
485.50	1392.62
485.70	1429.48
485.90	1437.67
486.10	1419.24
486.30	1423.34
486.50	1388.52
486.71	1337.32
486.91	1388.52
487.11	1380.33
487.31	1345.52
487.51	1423.34
487.71	1351.66
487.91	1372.14
488.12	1359.85
488.32	1306.60
488.52	1329.13
488.72	1271.79
488.92	1327.08
489.12	1462.25
489.32	1390.57
489.53	1437.67
489.73	1357.80
489.93	1417.19
490.13	1335.28
490.33	1359.85
490.53	1384.43
490.73	1468.39
490.94	1351.66
491.14	1409.00
491.34	1673.19
491.54	2224.09
491.74	2752.47
491.94	2998.23
492.14	3145.68
492.34	3004.37
492.54	2531.29
492.75	2336.73
492.95	2160.61
493.15	2060.26
493.35	1988.58
493.55	1974.24
493.75	1888.23
493.95	1902.56
494.15	1744.87
494.35	1697.77
494.56	1671.14
494.76	1570.79
494.96	1466.35
495.16	1492.97
495.36	1396.71
495.56	1363.95
495.76	1421.29
495.96	1394.67
496.16	1286.12
496.36	1445.87
496.56	1331.18
496.77	1411.05
496.97	1353.71
497.17	1445.87
497.37	1339.37
497.57	1409.00
497.77	1396.71
497.97	1345.52
498.17	1413.10
498.37	1400.81
498.57	1394.67
498.77	1392.62
498.97	1417.19
499.17	1468.39
499.38	1370.09
499.58	1355.76
499.78	1454.06
499.98	1486.83
500.18	1374.19
500.38	1449.96
500.58	1691.62
500.78	2957.27
500.98	5470.12
501.18	7118.74
501.38	8386.43
501.58	8718.20
501.78	7491.47
501.98	5877.67
502.18	5240.75
502.38	4644.79
502.58	4132.80
502.78	3784.65
502.98	3649.48
503.18	3639.24
503.38	3348.43
503.59	3014.61
503.79	2793.43
503.99	2531.29
504.19	2346.97
504.39	2162.66
504.59	2088.93
504.79	1986.53
504.99	1806.31
505.19	1595.37
505.39	1503.21
505.59	1597.42
505.79	1521.64
505.99	1505.26
506.19	1482.73
506.39	1470.44
506.59	1443.82
506.79	1490.92
506.99	1486.83
507.19	1441.77
507.39	1495.02
507.59	1286.12
507.79	1341.42
507.99	1310.70
508.19	1347.56
508.39	1341.42
508.59	1372.14
508.79	1402.86
508.99	1421.29
509.19	1402.86
509.39	1392.62
509.59	1351.66
509.79	1380.33
509.99	1404.91
510.19	1458.15
510.39	1396.71
510.59	1388.52
510.79	1359.85
510.99	1382.38
511.19	1368.04
511.39	1413.10
511.59	1472.49
511.79	1370.09
511.99	1376.24
512.19	1349.61
512.38	1298.41
512.58	1462.25
512.78	1341.42
512.98	1429.48
513.18	1361.90
513.38	1322.99
513.58	1376.24
513.78	1357.80
513.98	1339.37
514.18	1310.70
514.38	1363.95
514.58	1445.87
514.78	1363.95
514.98	1396.71
515.18	1456.11
515.38	1370.09
515.58	1384.43
515.78	1390.57
515.98	1374.19
516.18	1413.10
516.38	1374.19
516.57	1376.24
516.77	1331.18
516.97	1392.62
517.17	1347.56
517.37	1294.32
517.57	1458.15
517.77	1425.39
517.97	1380.33
518.17	1425.39
518.37	1320.94
518.57	1335.28
518.77	1400.81
518.97	1413.10
519.16	1452.01
519.36	1366.00
519.56	1357.80
519.76	1445.87
519.96	1437.67
520.16	1394.67
520.36	1353.71
520.56	1433.58
520.76	1316.84
520.96	1329.13
521.16	1437.67
521.35	1433.58
521.55	1372.14
521.75	1411.05
521.95	1347.56
522.15	1380.33
522.35	1382.38
522.55	1366.00
522.75	1368.04
522.95	1409.00
523.14	1337.32
523.34	1439.72
523.54	1335.28
523.74	1339.37
523.94	1398.76
524.14	1325.04
524.34	1308.65
524.54	1439.72
524.73	1421.29
524.93	1343.47
525.13	1366.00
525.33	1275.88
525.53	1454.06
525.73	1445.87
525.93	1376.24
526.13	1337.32
526.32	1255.40
526.52	1406.95
526.72	1376.24
526.92	1402.86
527.12	1359.85
527.32	1302.51
527.52	1382.38
527.71	1312.75
527.91	1347.56
528.11	1366.00
528.31	1333.23
528.51	1370.09
528.71	1351.66
528.90	1329.13
529.10	1402.86
529.30	1415.15
529.50	1361.90
529.70	1460.20
529.90	1349.61
530.09	1400.81
530.29	1384.43
530.49	1372.14
530.69	1476.59
530.89	1343.47
531.09	1443.82
531.28	1382.38
531.48	1404.91
531.68	1347.56
531.88	1359.85
532.08	1413.10
532.28	1335.28
532.47	1406.95
532.67	1439.72
532.87	1433.58
533.07	1363.95
533.27	1335.28
533.46	1435.63
533.66	1345.52
533.86	1431.53
534.06	1425.39
534.26	1392.62
534.45	1415.15
534.65	1550.31
534.85	1437.67
535.05	1359.85
535.25	1429.48
535.44	1327.08
535.64	1431.53
535.84	1386.47
536.04	1374.19
536.24	1370.09
536.43	1376.24
536.63	1517.54
536.83	1327.08
537.03	1392.62
537.22	1322.99
537.42	1308.65
537.62	1357.80
537.82	1380.33
538.02	1382.38
538.21	1492.97
538.41	1521.64
538.61	1359.85
538.81	1351.66
539.00	1341.42
539.20	1331.18
539.40	1415.15
539.60	1392.62
539.79	1351.66
539.99	1372.14
540.19	1331.18
540.39	1320.94
540.58	1396.71
540.78	1347.56
540.98	1421.29
541.18	1392.62
541.37	1392.62
541.57	1329.13
541.77	1380.33
541.97	1275.88
542.16	1322.99
542.36	1329.13
542.56	1449.96
542.76	1435.63
542.95	1495.02
543.15	1368.04
543.35	1402.86
543.54	1355.76
543.74	1318.89
543.94	1382.38
544.14	1353.71
544.33	1449.96
544.53	1347.56
544.73	1345.52
544.93	1353.71
545.12	1337.32
545.32	1363.95
545.52	1349.61
545.71	1343.47
545.91	1357.80
546.11	1366.00
546.30	1322.99
546.50	1392.62
546.70	1335.28
546.90	1380.33
547.09	1347.56
547.29	1419.24
547.49	1447.91
547.68	1331.18
547.88	1390.57
548.08	1357.80
548.27	1667.05
548.47	1327.08
548.67	1316.84
548.87	1464.30
549.06	1417.19
549.26	1427.43
549.46	1390.57
549.65	1345.52
549.85	1355.76
550.05	1415.15
550.24	1263.60
550.44	1417.19
550.64	1445.87
550.83	1349.61
551.03	1460.20
551.23	1396.71
551.42	1404.91
551.62	1302.51
551.82	1310.70
552.01	1366.00
552.21	1398.76
552.41	1409.00
552.60	1337.32
552.80	1460.20
553.00	1265.64
553.19	1378.28
553.39	1392.62
553.59	1374.19
553.78	1433.58
553.98	1351.66
554.17	1409.00
554.37	1419.24
554.57	1388.52
554.76	1349.61
554.96	1349.61
555.16	1400.81
555.35	1378.28
555.55	1394.67
555.75	1443.82
555.94	1341.42
556.14	1333.23
556.33	1355.76
556.53	1398.76
556.73	1351.66
556.92	1314.80
557.12	1396.71
557.32	1488.87
557.51	1437.67
557.71	1331.18
557.90	1431.53
558.10	1402.86
558.30	1341.42
558.49	1394.67
558.69	1329.13
558.88	1400.81
559.08	1392.62
559.28	1388.52
559.47	1390.57
559.67	1353.71
559.86	1439.72
560.06	1388.52
560.26	1337.32
560.45	1394.67
560.65	1411.05
560.84	1449.96
561.04	1353.71
561.24	1388.52
561.43	1312.75
561.63	1515.50
561.82	1343.47
562.02	1394.67
562.22	1343.47
562.41	1343.47
562.61	1366.00
562.80	1390.57
563.00	1413.10
563.19	1411.05
563.39	1357.80
563.59	1384.43
563.78	1290.22
563.98	1257.45
564.17	1355.76
564.37	1288.17
564.56	1320.94
564.76	1294.32
564.96	1404.91
565.15	1378.28
565.35	1476.59
565.54	1349.61
565.74	1394.67
565.93	1423.34
566.13	1394.67
566.32	1480.68
566.52	1390.57
566.71	1404.91
566.91	1306.60
567.11	1359.85
567.30	1374.19
567.50	1372.14
567.69	1413.10
567.89	1468.39
568.08	1359.85
568.28	1351.66
568.47	1351.66
568.67	1390.57
568.86	1331.18
569.06	1398.76
569.25	1429.48
569.45	1361.90
569.64	1382.38
569.84	1335.28
570.04	1435.63
570.23	1429.48
570.43	1411.05
570.62	1476.59
570.82	1431.53
571.01	1380.33
571.21	1353.71
571.40	1349.61
571.60	1458.15
571.79	1386.47
571.99	1394.67
572.18	1447.91
572.38	1374.19
572.57	1386.47
572.77	1384.43
572.96	1372.14
573.16	1337.32
573.35	1363.95
573.55	1380.33
573.74	1351.66
573.94	1359.85
574.13	1333.23
574.33	1480.68
574.52	1517.54
574.71	1361.90
574.91	1429.48
575.10	1366.00
575.30	1427.43
575.49	1333.23
575.69	1374.19
575.88	1318.89
576.08	1433.58
576.27	1437.67
576.47	1501.16
576.66	1548.26
576.86	1439.72
577.05	1390.57
577.25	1376.24
577.44	1503.21
577.64	1439.72
577.83	1413.10
578.02	1394.67
578.22	1400.81
578.41	1478.63
578.61	1443.82
578.80	1329.13
579.00	1445.87
579.19	1492.97
579.39	1452.01
579.58	1441.77
579.77	1443.82
579.97	1511.40
580.16	1484.78
580.36	1531.88
580.55	1421.29
580.75	1437.67
580.94	1400.81
581.13	1492.97
581.33	1439.72
581.52	1419.24
581.72	1544.17
581.91	1550.31
582.11	1443.82
582.30	1495.02
582.49	1470.44
582.69	1433.58
582.88	1439.72
583.08	1380.33
583.27	1470.44
583.47	1404.91
583.66	1417.19
583.85	1445.87
584.05	1392.62
584.24	1466.35
584.44	1472.49
584.63	1492.97
584.82	1535.98
585.02	1523.69
585.21	1554.41
585.41	1585.13
585.60	1521.64
585.79	1724.39
585.99	1689.57
586.18	1613.80
586.37	1908.71
586.57	2684.89
586.76	8040.33
586.96	24135.31
587.15	41549.19
587.34	52557.02
587.54	60447.85
587.73	59405.43
587.93	45038.93
588.12	33107.46
588.31	27068.00
588.51	22701.73
588.70	20090.57
588.89	18478.82
589.09	17372.92
589.28	15867.66
589.47	14393.12
589.67	12580.67
589.86	10757.98
590.06	8824.70
590.25	6721.43
590.44	5025.72
590.64	3841.99
590.83	2768.85
591.02	2297.82
591.22	1951.71
591.41	1785.83
591.60	1564.65
591.80	1630.18
591.99	1484.78
592.18	1533.93
592.38	1544.17
592.57	1441.77
592.76	1417.19
592.96	1452.01
593.15	1429.48
593.34	1482.73
593.54	1388.52
593.73	1419.24
593.92	1449.96
594.12	1499.11
594.31	1468.39
594.50	1548.26
594.70	1490.92
594.89	1503.21
595.08	1398.76
595.28	1411.05
595.47	1585.13
595.66	1372.14
595.86	1366.00
596.05	1396.71
596.24	1406.95
596.43	1404.91
596.63	1503.21
596.82	1417.19
597.01	1406.95
597.21	1497.07
597.40	1488.87
597.59	1454.06
597.79	1458.15
597.98	1388.52
598.17	1322.99
598.36	1378.28
598.56	1406.95
598.75	1441.77
598.94	1398.76
599.14	1464.30
599.33	1427.43
599.52	1452.01
599.71	1368.04
599.91	1460.20
600.10	1460.20
600.29	1337.32
600.48	1396.71
600.68	1394.67
600.87	1413.10
601.06	1380.33
601.26	1406.95
601.45	1380.33
601.64	1372.14
601.83	1449.96
602.03	1394.67
602.22	1398.76
602.41	1433.58
602.60	1523.69
602.80	1499.11
602.99	1466.35
603.18	1409.00
603.37	1425.39
603.57	1366.00
603.76	1404.91
603.95	1370.09
604.14	1359.85
604.34	1386.47
604.53	1402.86
604.72	1359.85
604.91	1398.76
605.10	1374.19
605.30	1325.04
605.49	1476.59
605.68	1388.52
605.87	1368.04
606.07	1378.28
606.26	1394.67
606.45	1384.43
606.64	1366.00
606.84	1394.67
607.03	1456.11
607.22	1427.43
607.41	1413.10
607.60	1376.24
607.80	1419.24
607.99	1386.47
608.18	1419.24
608.37	1419.24
608.56	1331.18
608.76	1382.38
608.95	1406.95
609.14	1482.73
609.33	1449.96
609.52	1603.56
609.72	1542.12
609.91	1556.46
610.10	1476.59
610.29	1538.02
610.48	1384.43
610.68	1392.62
610.87	1423.34
611.06	1470.44
611.25	1460.20
611.44	1402.86
611.63	1361.90
611.83	1449.96
612.02	1380.33
612.21	1421.29
612.40	1243.12
612.59	1325.04
612.79	1349.61
612.98	1363.95
613.17	1404.91
613.36	1419.24
613.55	1490.92
613.74	1425.39
613.93	1519.59
614.13	1540.07
614.32	1576.94
614.51	1587.18
614.70	1638.38
614.89	1495.02
615.08	1472.49
615.28	1669.09
615.47	1400.81
615.66	1443.82
615.85	1411.05
616.04	1515.50
616.23	1466.35
616.42	1495.02
616.62	1499.11
616.81	1427.43
617.00	1411.05
617.19	1429.48
617.38	1411.05
617.57	1458.15
617.76	1402.86
617.95	1415.15
618.15	1421.29
618.34	1388.52
618.53	1290.22
618.72	1470.44
618.91	1478.63
619.10	1488.87
619.29	1337.32
619.48	1384.43
619.68	1361.90
619.87	1413.10
620.06	1314.80
620.25	1378.28
620.44	1370.09
620.63	1374.19
620.82	1427.43
621.01	1370.09
621.20	1433.58
621.39	1374.19
621.59	1527.78
621.78	1361.90
621.97	1419.24
622.16	1368.04
622.35	1370.09
622.54	1312.75
622.73	1445.87
622.92	1318.89
623.11	1339.37
623.30	1349.61
623.49	1480.68
623.68	1400.81
623.88	1392.62
624.07	1419.24
624.26	1327.08
624.45	1417.19
624.64	1306.60
624.83	1339.37
625.02	1388.52
625.21	1386.47
625.40	1366.00
625.59	1386.47
625.78	1429.48
625.97	1417.19
626.16	1437.67
626.35	1447.91
626.54	1433.58
626.74	1587.18
626.93	1447.91
627.12	1392.62
627.31	1435.63
627.50	1523.69
627.69	1476.59
627.88	1363.95
628.07	1374.19
628.26	1435.63
628.45	1388.52
628.64	1447.91
628.83	1370.09
629.02	1411.05
629.21	1368.04
629.40	1458.15
629.59	1345.52
629.78	1458.15
629.97	1431.53
630.16	1429.48
630.35	1421.29
630.54	1513.45
630.73	1394.67
630.92	1404.91
631.11	1382.38
631.30	1419.24
631.49	1345.52
631.68	1376.24
631.87	1376.24
632.06	1355.76
632.25	1452.01
632.44	1370.09
632.63	1415.15
632.82	1368.04
633.01	1425.39
633.20	1462.25
633.39	1495.02
633.58	1435.63
633.77	1468.39
633.96	1429.48
634.15	1556.46
634.34	1394.67
634.53	1388.52
634.72	1380.33
634.91	1357.80
635.10	1452.01
635.29	1501.16
635.48	1372.14
635.67	1357.80
635.86	1370.09
636.05	1417.19
636.24	1445.87
636.43	1417.19
636.62	1486.83
636.81	1294.32
637.00	1406.95
637.19	1402.86
637.38	1257.45
637.57	1343.47
637.76	1361.90
637.95	1413.10
638.14	1484.78
638.33	1484.78
638.52	1501.16
638.71	1435.63
638.89	1417.19
639.08	1499.11
639.27	1384.43
639.46	1413.10
639.65	1732.58
639.84	1855.46
640.03	1953.76
640.22	2025.44
640.41	2234.33
640.60	1859.56
640.79	1736.68
640.98	1699.81
641.17	1640.42
641.36	1646.57
641.55	1568.74
641.74	1564.65
641.92	1470.44
642.11	1417.19
642.30	1435.63
642.49	1452.01
642.68	1378.28
642.87	1417.19
643.06	1361.90
643.25	1370.09
643.44	1398.76
643.63	1355.76
643.82	1396.71
644.00	1322.99
644.19	1372.14
644.38	1382.38
644.57	1454.06
644.76	1466.35
644.95	1351.66
645.14	1392.62
645.33	1380.33
645.52	1335.28
645.71	1386.47
645.89	1316.84
646.08	1421.29
646.27	1366.00
646.46	1452.01
646.65	1347.56
646.84	1396.71
647.03	1312.75
647.22	1376.24
647.40	1318.89
647.59	1355.76
647.78	1368.04
647.97	1380.33
648.16	1417.19
648.35	1363.95
648.54	1435.63
648.73	1312.75
648.91	1411.05
649.10	1488.87
649.29	1388.52
649.48	1277.93
649.67	1359.85
649.86	1286.12
650.05	1382.38
650.23	1499.11
650.42	1488.87
650.61	1624.04
650.80	1595.37
650.99	1603.56
651.18	1435.63
651.36	1521.64
651.55	1425.39
651.74	1388.52
651.93	1437.67
652.12	1411.05
652.31	1388.52
652.49	1372.14
652.68	1419.24
652.87	1447.91
653.06	1458.15
653.25	1499.11
653.44	1452.01
653.62	1452.01
653.81	1398.76
654.00	1449.96
654.19	1415.15
654.38	1519.59
654.56	1439.72
654.75	1296.36
654.94	1427.43
655.13	1454.06
655.32	1372.14
655.51	1415.15
655.69	1439.72
655.88	1359.85
656.07	1329.13
656.26	1396.71
656.45	1357.80
656.63	1394.67
656.82	1374.19
657.01	1404.91
657.20	1388.52
657.38	1343.47
657.57	1415.15
657.76	1355.76
657.95	1370.09
658.14	1378.28
658.32	1413.10
658.51	1359.85
658.70	1353.71
658.89	1400.81
659.08	1402.86
659.26	1474.54
659.45	1380.33
659.64	1406.95
659.83	1378.28
660.01	1533.93
660.20	1454.06
660.39	1501.16
660.58	1359.85
660.76	1544.17
660.95	1294.32
661.14	1421.29
661.33	1421.29
661.51	1406.95
661.70	1402.86
661.89	1423.34
662.08	1370.09
662.26	1345.52
662.45	1390.57
662.64	1423.34
662.83	1378.28
663.01	1316.84
663.20	1378.28
663.39	1390.57
663.58	1277.93
663.76	1419.24
663.95	1425.39
664.14	1353.71
664.32	1337.32
664.51	1357.80
664.70	1306.60
664.89	1359.85
665.07	1325.04
665.26	1409.00
665.45	1322.99
665.64	1462.25
665.82	1382.38
666.01	1417.19
666.20	1398.76
666.38	1472.49
666.57	1540.07
666.76	1566.70
666.95	1978.34
667.13	4499.39
667.32	11525.97
667.51	18085.61
667.69	22054.58
667.88	25104.00
668.07	25020.03
668.25	19336.92
668.44	13694.77
668.63	11239.25
668.81	9236.34
669.00	8210.31
669.19	7405.46
669.38	6819.74
669.56	6383.52
669.75	5676.97
669.94	4968.37
670.12	4167.62
670.31	3524.55
670.50	3071.95
670.68	2465.75
670.87	2164.70
671.06	1894.37
671.24	1628.14
671.43	1634.28
671.62	1521.64
671.80	1546.22
671.99	1525.74
672.18	1417.19
672.36	1495.02
672.55	1429.48
672.74	1456.11
672.92	1456.11
673.11	1427.43
673.29	1343.47
673.48	1421.29
673.67	1486.83
673.85	1402.86
674.04	1372.14
674.23	1419.24
674.41	1421.29
674.60	1339.37
674.79	1347.56
674.97	1400.81
675.16	1386.47
675.34	1413.10
675.53	1380.33
675.72	1335.28
675.90	1529.83
676.09	1409.00
676.28	1304.56
676.46	1282.03
676.65	1349.61
676.83	1339.37
677.02	1441.77
677.21	1402.86
677.39	1355.76
677.58	1351.66
677.77	1302.51
677.95	1337.32
678.14	1419.24
678.32	1394.67
678.51	1337.32
678.70	1454.06
678.88	1415.15
679.07	1331.18
679.25	1431.53
679.44	1363.95
679.63	1343.47
679.81	1359.85
680.00	1376.24
680.18	1419.24
680.37	1404.91
680.55	1376.24
680.74	1310.70
680.93	1351.66
681.11	1452.01
681.30	1396.71
681.48	1406.95
681.67	1325.04
681.85	1417.19
682.04	1417.19
682.23	1333.23
682.41	1402.86
682.60	1366.00
682.78	1361.90
682.97	1279.98
683.15	1318.89
683.34	1329.13
683.53	1413.10
683.71	1398.76
683.90	1439.72
684.08	1517.54
684.27	1320.94
684.45	1359.85
684.64	1419.24
684.82	1333.23
685.01	1368.04
685.19	1396.71
685.38	1429.48
685.57	1372.14
685.75	1392.62
685.94	1355.76
686.12	1355.76
686.31	1345.52
686.49	1359.85
686.68	1374.19
686.86	1411.05
687.05	1427.43
687.23	1413.10
687.42	1337.32
687.60	1284.08
687.79	1349.61
687.97	1470.44
688.16	1390.57
688.34	1454.06
688.53	1310.70
688.71	1384.43
688.90	1394.67
689.08	1392.62
689.27	1374.19
689.45	1359.85
689.64	1400.81
689.82	1413.10
690.01	1425.39
690.19	1314.80
690.38	1394.67
690.56	1433.58
690.75	1343.47
690.93	1372.14
691.12	1304.56
691.30	1464.30
691.49	1394.67
691.67	1343.47
691.86	1476.59
692.04	1300.46
692.23	1368.04
692.41	1339.37
692.60	1454.06
692.78	1540.07
692.97	1433.58
693.15	1484.78
693.34	1556.46
693.52	1390.57
693.71	1378.28
693.89	1335.28
694.08	1421.29
694.26	1433.58
694.44	1437.67
694.63	1386.47
694.81	1388.52
695.00	1261.55
695.18	1423.34
695.37	1417.19
695.55	1488.87
695.74	1363.95
695.92	1341.42
696.10	1400.81
696.29	1363.95
696.47	1337.32
696.66	1341.42
696.84	1349.61
697.03	1415.15
697.21	1456.11
697.40	1755.11
697.58	1429.48
697.76	1404.91
697.95	1308.65
698.13	1429.48
698.32	1388.52
698.50	1351.66
698.68	1417.19
698.87	1447.91
699.05	1374.19
699.24	1355.76
699.42	1359.85
699.61	1374.19
699.79	1402.86
699.97	1339.37
700.16	1351.66
700.34	1286.12
700.53	1368.04
700.71	1478.63
700.89	1462.25
701.08	1345.52
701.26	1402.86
701.45	1708.01
701.63	1392.62
701.81	1398.76
702.00	1447.91
702.18	1396.71
702.37	1417.19
702.55	1409.00
702.73	1519.59
702.92	1488.87
703.10	1634.28
703.28	1619.94
703.47	1624.04
703.65	1673.19
703.84	1587.18
704.02	1460.20
704.20	1548.26
704.39	1402.86
704.57	1437.67
704.75	1507.30
704.94	1447.91
705.12	1527.78
705.30	1443.82
705.49	1593.32
705.67	1834.98
705.86	3588.04
706.04	9242.48
706.22	16439.05
706.41	19945.17
706.59	22824.61
706.77	23998.10
706.96	19932.88
707.14	14042.92
707.32	11398.99
707.51	9377.65
707.69	8269.70
707.87	7450.51
708.06	6858.65
708.24	6008.74
708.42	5046.20
708.61	4118.47
708.79	3049.43
708.97	2402.27
709.16	1998.82
709.34	1773.54
709.52	1621.99
709.71	1497.07
709.89	1476.59
710.07	1437.67
710.26	1458.15
710.44	1396.71
710.62	1423.34
710.80	1388.52
710.99	1423.34
711.17	1384.43
711.35	1347.56
711.54	1347.56
711.72	1445.87
711.90	1394.67
712.09	1366.00
712.27	1376.24
712.45	1404.91
712.63	1386.47
712.82	1331.18
713.00	1355.76
713.18	1359.85
713.37	1409.00
713.55	1398.76
713.73	1345.52
713.91	1370.09
714.10	1404.91
714.28	1406.95
714.46	1402.86
714.65	1406.95
714.83	1404.91
715.01	1384.43
715.19	1363.95
715.38	1376.24
715.56	1357.80
715.74	1384.43
715.92	1286.12
716.11	1409.00
716.29	1318.89
716.47	1390.57
716.65	1318.89
716.84	1279.98
717.02	1452.01
717.20	1341.42
717.38	1404.91
717.57	1368.04
717.75	1404.91
717.93	1396.71
718.11	1374.19
718.30	1349.61
718.48	1431.53
718.66	1404.91
718.84	1513.45
719.03	1349.61
719.21	1409.00
719.39	1406.95
719.57	1425.39
719.75	1363.95
719.94	1357.80
720.12	1284.08
720.30	1308.65
720.48	1406.95
720.67	1388.52
720.85	1331.18
721.03	1411.05
721.21	1343.47
721.39	1411.05
721.58	1366.00
721.76	1341.42
721.94	1366.00
722.12	1337.32
722.30	1396.71
722.49	1294.32
722.67	1370.09
722.85	1388.52
723.03	1314.80
723.21	1236.97
723.40	1370.09
723.58	1433.58
723.76	1349.61
723.94	1406.95
724.12	1468.39
724.30	1445.87
724.49	1439.72
724.67	1339.37
724.85	1441.77
725.03	1427.43
725.21	1447.91
725.40	1490.92
725.58	1400.81
725.76	1460.20
725.94	1441.77
726.12	1351.66
726.30	1345.52
726.49	1355.76
726.67	1366.00
726.85	1374.19
727.03	1374.19
727.21	1519.59
727.39	1490.92
727.57	2084.83
727.76	3469.26
727.94	4360.13
728.12	4898.74
728.30	5324.72
728.48	5115.83
728.66	4239.30
728.84	3475.40
729.03	3098.58
729.21	2818.00
729.39	2566.10
729.57	2342.88
729.75	1923.04
729.93	1804.26
730.11	1675.24
730.30	1507.30
730.48	1466.35
730.66	1495.02
730.84	1468.39
731.02	1341.42
731.20	1386.47
731.38	1425.39
731.56	1376.24
731.74	1343.47
731.93	1404.91
732.11	1325.04
732.29	1343.47
732.47	1363.95
732.65	1396.71
732.83	1454.06
733.01	1464.30
733.19	1298.41
733.37	1415.15
733.56	1329.13
733.74	1304.56
733.92	1368.04
734.10	1437.67
734.28	1359.85
734.46	1288.17
734.64	1390.57
734.82	1355.76
735.00	1349.61
735.18	1363.95
735.36	1363.95
735.54	1386.47
735.73	1351.66
735.91	1337.32
736.09	1380.33
736.27	1421.29
736.45	1413.10
736.63	1327.08
736.81	1282.03
736.99	1359.85
737.17	1443.82
737.35	1384.43
737.53	1454.06
737.71	1290.22
737.89	1406.95
738.07	1300.46
738.25	1388.52
738.43	1357.80
738.61	1359.85
738.80	1333.23
738.98	1312.75
739.16	1314.80
739.34	1339.37
739.52	1339.37
739.70	1353.71
739.88	1343.47
740.06	1411.05
740.24	1400.81
740.42	1394.67
740.60	1363.95
740.78	1294.32
740.96	1339.37
741.14	1404.91
741.32	1427.43
741.50	1347.56
741.68	1366.00
741.86	1398.76
742.04	1347.56
742.22	1351.66
742.40	1390.57
742.58	1406.95
742.76	1378.28
742.94	1445.87
743.12	1304.56
743.30	1378.28
743.48	1370.09
743.66	1388.52
743.84	1503.21
744.02	1361.90
744.20	1382.38
744.38	1310.70
744.56	1361.90
744.74	1425.39
744.92	1359.85
745.10	1409.00
745.28	1384.43
745.46	1390.57
745.64	1376.24
745.82	1382.38
746.00	1341.42
746.18	1439.72
746.36	1372.14
746.54	1351.66
746.72	1335.28
746.90	1265.64
747.08	1406.95
747.26	1282.03
747.44	1480.68
747.62	1327.08
747.80	1413.10
747.98	1421.29
748.15	1329.13
748.33	1429.48
748.51	1349.61
748.69	1409.00
748.87	1413.10
749.05	1394.67
749.23	1374.19
749.41	1419.24
749.59	1384.43
749.77	1437.67
749.95	1419.24
750.13	1368.04
750.31	1400.81
750.49	1259.50
750.67	1456.11
750.85	1409.00
751.03	1335.28
751.20	1497.07
751.38	1300.46
751.56	1370.09
751.74	1380.33
751.92	1452.01
752.10	1351.66
752.28	1310.70
752.46	1378.28
752.64	1320.94
752.82	1388.52
753.00	1366.00
753.18	1351.66
753.35	1355.76
753.53	1288.17
753.71	1392.62
753.89	1396.71
754.07	1449.96
754.25	1435.63
754.43	1333.23
754.61	1329.13
754.79	1357.80
754.97	1370.09
755.14	1431.53
755.32	1351.66
755.50	1376.24
755.68	1425.39
755.86	1329.13
756.04	1308.65
756.22	1312.75
756.40	1392.62
756.57	1460.20
756.75	1355.76
756.93	1370.09
757.11	1384.43
757.29	1382.38
757.47	1300.46
757.65	1345.52
757.82	1275.88
758.00	1341.42
758.18	1331.18
758.36	1304.56
758.54	1429.48
758.72	1322.99
758.90	1454.06
759.07	1380.33
759.25	1316.84
759.43	1380.33
759.61	1312.75
759.79	1650.66
759.97	1415.15
760.15	1322.99
760.32	1370.09
760.50	1413.10
760.68	1413.10
760.86	1318.89
761.04	1415.15
761.22	1394.67
761.39	1374.19
761.57	1357.80
761.75	1425.39
761.93	1320.94
762.11	1384.43
762.28	1363.95
762.46	1320.94
762.64	1384.43
762.82	1333.23
763.00	1368.04
763.18	1509.35
763.35	1392.62
763.53	1400.81
763.71	1327.08
763.89	1439.72
764.07	1421.29
764.24	1368.04
764.42	1322.99
764.60	1355.76
764.78	1462.25
764.96	1368.04
765.13	1439.72
765.31	1337.32
765.49	1359.85
765.67	1331.18
765.84	1298.41
766.02	1411.05
766.20	1355.76
766.38	1402.86
766.56	1409.00
766.73	1390.57
766.91	1447.91
767.09	1384.43
767.27	1374.19
767.44	1384.43
767.62	1327.08
767.80	1396.71
767.98	1347.56
768.15	1343.47
768.33	1419.24
768.51	1415.15
768.69	1363.95
768.87	1394.67
769.04	1378.28
769.22	1415.15
769.40	1427.43
769.58	1511.40
769.75	1394.67
769.93	1468.39
770.11	1355.76
770.28	1298.41
770.46	1318.89
770.64	1427.43
770.82	1378.28
770.99	1337.32
771.17	1406.95
771.35	1333.23
771.53	1339.37
771.70	1388.52
771.88	1503.21
772.06	1361.90
772.23	1380.33
772.41	1437.67
772.59	1382.38
772.77	1394.67
772.94	1378.28
773.12	1322.99
773.30	1308.65
773.47	1333.23
773.65	1335.28
773.83	1411.05
774.01	1341.42
774.18	1275.88
774.36	1415.15
774.54	1318.89
774.71	1292.27
774.89	1306.60
775.07	1333.23
775.24	1341.42
775.42	1357.80
775.60	1472.49
775.78	1343.47
775.95	1304.56
776.13	1273.84
776.31	1290.22
776.48	1343.47
776.66	1427.43
776.84	1372.14
777.01	1308.65
777.19	1392.62
777.37	1452.01
777.54	1347.56
777.72	1443.82
777.90	1390.57
778.07	1275.88
778.25	1476.59
778.43	1361.90
778.60	1304.56
778.78	1382.38
778.96	1495.02
779.13	1310.70
779.31	1335.28
779.49	1419.24
779.66	1286.12
779.84	1300.46
780.01	1361.90
780.19	1386.47
780.37	1386.47
780.54	1396.71
780.72	1361.90
780.90	1372.14
781.07	1341.42
781.25	1370.09
781.43	1302.51
781.60	1406.95
781.78	1343.47
781.95	1361.90
782.13	1347.56
782.31	1378.28
782.48	1220.59
782.66	1335.28
782.83	1341.42
783.01	1363.95
783.19	1404.91
783.36	1302.51
783.54	1306.60
783.72	1443.82
783.89	1388.52
784.07	1325.04
784.24	1337.32
784.42	1351.66
784.60	1374.19
784.77	1443.82
784.95	1316.84
785.12	1290.22
785.30	1390.57
785.47	1304.56
785.65	1406.95
785.83	1339.37
786.00	1355.76
786.18	1339.37
786.35	1310.70
786.53	1325.04
786.71	1325.04
786.88	1406.95
787.06	1382.38
787.23	1337.32
787.41	1320.94
787.58	1343.47
787.76	1353.71
787.94	1341.42
788.11	1384.43
788.29	1327.08
788.46	1423.34
788.64	1304.56
788.81	1347.56
788.99	1347.56
789.16	1300.46
789.34	1374.19
789.52	1282.03
789.69	1380.33
789.87	1263.60
790.04	1331.18
790.22	1372.14
790.39	1425.39
790.57	1296.36
790.74	1337.32
790.92	1384.43
791.09	1288.17
791.27	1343.47
791.44	1398.76
791.62	1380.33
791.79	1359.85
791.97	1304.56
792.15	1445.87
792.32	1396.71
792.50	1363.95
792.67	1456.11
792.85	1425.39
793.02	1417.19
793.20	1359.85
793.37	1331.18
793.55	1347.56
793.72	1355.76
793.90	1359.85
794.07	1400.81
794.25	1331.18
794.42	1337.32
794.60	1288.17
794.77	1372.14
794.95	1394.67
795.12	1296.36
795.30	1263.60
795.47	1286.12
795.65	1480.68
795.82	1298.41
796.00	1337.32
796.17	1378.28
796.34	1267.69
796.52	1370.09
796.69	1425.39
796.87	1386.47
797.04	1437.67
797.22	1382.38
797.39	1390.57
797.57	1359.85
797.74	1355.76
797.92	1384.43
798.09	1384.43
798.27	1363.95
798.44	1361.90
798.62	1345.52
798.79	1374.19
798.96	1366.00
799.14	1337.32
799.31	1431.53
799.49	1351.66
799.66	1374.19
799.84	1370.09
800.01	1347.56
800.19	1361.90
800.36	1284.08
800.53	1378.28
800.71	1351.66
800.88	1419.24
801.06	1359.85
801.23	1345.52
801.41	1368.04
801.58	1353.71
801.75	1318.89
801.93	1355.76
802.10	1404.91
802.28	1425.39
802.45	1322.99
802.63	1325.04
802.80	1425.39
802.97	1361.90
803.15	1304.56
803.32	1316.84
803.50	1318.89
803.67	1249.26
803.84	1275.88
804.02	1349.61
804.19	1388.52
804.37	1347.56
804.54	1337.32
804.71	1392.62
804.89	1366.00
805.06	1325.04
805.24	1388.52
805.41	1359.85
805.58	1359.85
805.76	1495.02
805.93	1411.05
806.10	1388.52
806.28	1333.23
806.45	1386.47
806.63	1357.80
806.80	1441.77
806.97	1388.52
807.15	1437.67
807.32	1312.75
807.49	1345.52
807.67	1279.98
807.84	1435.63
808.01	1329.13
808.19	1480.68
808.36	1486.83
808.54	1353.71
808.71	1312.75
808.88	1347.56
809.06	1433.58
809.23	1415.15
809.40	1343.47
809.58	1435.63
809.75	1372.14
809.92	1353.71
810.10	1462.25
810.27	1404.91
810.44	1368.04
810.62	1376.24
810.79	1400.81
810.96	1396.71
811.14	1390.57
811.31	1388.52
811.48	1314.80
811.66	1406.95
811.83	1392.62
812.00	1402.86
812.18	1382.38
812.35	1452.01
812.52	1347.56
812.69	1368.04
812.87	1302.51
813.04	1339.37
813.21	1320.94
813.39	1351.66
813.56	1353.71
813.73	1351.66
813.91	1355.76
814.08	1396.71
814.25	1388.52
814.42	1318.89
814.60	1327.08
814.77	1347.56
814.94	1343.47
815.12	1429.48
815.29	1390.57
815.46	1296.36
815.63	1445.87
815.81	1419.24
815.98	1320.94
816.15	1308.65
816.33	1384.43
816.50	1359.85
816.67	1368.04
816.84	1384.43
817.02	1384.43
817.19	1353.71
817.36	1392.62
817.53	1398.76
817.71	1271.79
817.88	1374.19
818.05	1349.61
818.22	1335.28
818.40	1380.33
818.57	1368.04
818.74	1366.00
818.91	1392.62
819.09	1452.01
819.26	1355.76
819.43	1318.89
819.60	1429.48
819.78	1462.25
819.95	1429.48
820.12	1337.32
820.29	1431.53
820.47	1472.49
820.64	1331.18
820.81	1320.94
820.98	1343.47
821.15	1349.61
821.33	1341.42
821.50	1333.23
821.67	1449.96
821.84	1345.52
822.02	1413.10
822.19	1425.39
822.36	1347.56
822.53	1349.61
822.70	1331.18
822.88	1331.18
823.05	1454.06
823.22	1312.75
823.39	1363.95
823.56	1396.71
823.74	1327.08
823.91	1282.03
824.08	1310.70
824.25	1355.76
824.42	1482.73
824.60	1335.28
824.77	1406.95
824.94	1470.44
825.11	1361.90
825.28	1347.56
825.45	1349.61
825.63	1396.71
825.80	1351.66
825.97	1376.24
826.14	1347.56
826.31	1370.09
826.48	1472.49
826.66	1361.90
826.83	1458.15
827.00	1339.37
827.17	1335.28
827.34	1318.89
827.51	1292.27
827.69	1374.19
827.86	1310.70
828.03	1411.05
828.20	1335.28
828.37	1394.67
828.54	1386.47
828.71	1337.32
828.89	1439.72
829.06	1343.47
829.23	1431.53
829.40	1347.56
829.57	1343.47
829.74	1359.85
829.91	1345.52
830.09	1355.76
830.26	1406.95
830.43	1425.39
830.60	1402.86
830.77	1361.90
830.94	1392.62
831.11	1333.23
831.28	1320.94
831.46	1343.47
831.63	1331.18
831.80	1396.71
831.97	1382.38
832.14	1296.36
832.31	1394.67
832.48	1476.59
832.65	1396.71
832.82	1372.14
832.99	1400.81
833.17	1341.42
833.34	1437.67
833.51	1327.08
833.68	1325.04
833.85	1441.77
834.02	1351.66
834.19	1390.57
834.36	1329.13
834.53	1353.71
834.70	1406.95
834.87	1374.19
835.04	1357.80
835.22	1302.51
835.39	1400.81
835.56	1363.95
835.73	1380.33
835.90	1359.85
836.07	1304.56
836.24	1390.57
836.41	1314.80
836.58	1349.61
836.75	1327.08
836.92	1423.34
837.09	1343.47
837.26	1458.15
837.43	1417.19
837.60	1390.57
837.77	1312.75
837.94	1376.24
838.12	1435.63
838.29	1462.25
838.46	1370.09
838.63	1382.38
838.80	1488.87
838.97	1351.66
839.14	1478.63
839.31	1333.23
839.48	1406.95
839.65	1361.90
839.82	1462.25
839.99	1400.81
840.16	1400.81
840.33	1310.70
840.50	1304.56
840.67	1363.95
840.84	1284.08
841.01	1366.00
841.18	1302.51
841.35	1372.14
841.52	1372.14
841.69	1417.19
841.86	1396.71
842.03	1392.62
842.20	1376.24
842.37	1357.80
842.54	1376.24
842.71	1294.32
842.88	1316.84
843.05	1337.32
843.22	1374.19
843.39	1353.71
843.56	1325.04
843.73	1349.61
843.90	1421.29
844.07	1349.61
844.24	1392.62
844.41	1368.04
844.58	1343.47
844.75	1335.28
844.92	1437.67
845.09	1355.76
845.26	1337.32
845.43	1349.61
845.60	1322.99
845.77	1380.33
845.94	1361.90
846.10	1388.52
846.27	1312.75
846.44	1320.94
846.61	1310.70
846.78	1337.32
846.95	1339.37
847.12	1349.61
847.29	1374.19
847.46	1306.60
847.63	1378.28
847.80	1261.55
847.97	1337.32
848.14	1458.15
848.31	1361.90
848.48	1411.05
848.65	1394.67
848.82	1349.61
848.98	1398.76
849.15	1366.00
849.32	1419.24
849.49	1404.91
849.66	1374.19
849.83	1392.62
850.00	1327.08
850.17	1417.19
850.34	1384.43
850.51	1306.60
850.68	1482.73
850.85	1386.47
851.01	1318.89
851.18	1366.00
851.35	1318.89
851.52	1404.91
851.69	1497.07
851.86	1318.89
852.03	1331.18
852.20	1431.53
852.37	1382.38
852.53	1282.03
852.70	1382.38
852.87	1452.01
853.04	1327.08
853.21	1413.10
853.38	1359.85
853.55	1441.77
853.72	1390.57
853.89	1284.08
854.05	1355.76
854.22	1386.47
854.39	1386.47
854.56	1335.28
854.73	1388.52
854.90	1312.75
855.07	1380.33
855.23	1279.98
855.40	1349.61
855.57	1343.47
855.74	1306.60
855.91	1540.07
856.08	1322.99
856.25	1337.32
856.41	1314.80
856.58	1386.47
856.75	1406.95
856.92	1302.51
857.09	1359.85
857.26	1366.00
857.42	1392.62
857.59	1400.81
857.76	1329.13
857.93	1404.91
858.10	1366.00
858.27	1228.78
858.43	1384.43
858.60	1425.39
858.77	1298.41
858.94	1296.36
859.11	1497.07
859.27	1302.51
859.44	1429.48
859.61	1452.01
859.78	1402.86
859.95	1431.53
860.12	1320.94
860.28	1435.63
860.45	1429.48
860.62	1409.00
860.79	1343.47
860.95	1480.68
861.12	1349.61
861.29	1322.99
861.46	1335.28
861.63	1339.37
861.79	1464.30
861.96	1300.46
862.13	1361.90
862.30	1384.43
862.47	1353.71
862.63	1302.51
862.80	1421.29
862.97	1411.05
863.14	1452.01
863.30	1331.18
863.47	1308.65
863.64	1447.91
863.81	1376.24
863.97	1325.04
864.14	1349.61
864.31	1329.13
864.48	1374.19
864.65	1329.13
864.81	1374.19
864.98	1316.84
865.15	1390.57
865.32	1386.47
865.48	1394.67
865.65	1439.72
865.82	1347.56
865.98	1386.47
866.15	1454.06
866.32	1380.33
866.49	1417.19
866.65	1470.44
866.82	1294.32
866.99	1419.24
867.16	1325.04
867.32	1300.46
867.49	1339.37
867.66	1351.66
867.83	1361.90
867.99	1306.60
868.16	1370.09
868.33	1349.61
868.49	1333.23
868.66	1384.43
868.83	1433.58
868.99	1374.19
869.16	1345.52
869.33	1347.56
869.50	1345.52
869.66	1363.95
869.83	1357.80
870.00	1386.47
870.16	1447.91
870.33	1339.37
870.50	1413.10
870.66	1409.00
870.83	1435.63
871.00	1331.18
871.17	1409.00
871.33	1339.37
871.50	1327.08
871.67	1304.56
871.83	1361.90
872.00	1433.58
872.17	1337.32
872.33	1392.62
872.50	1318.89
872.67	1312.75
872.83	1355.76
873.00	1382.38
873.17	1357.80
873.33	1400.81
873.50	1445.87
873.67	1341.42
873.83	1314.80
874.00	1378.28
874.16	1452.01
874.33	1404.91
874.50	1298.41
874.66	1314.80
874.83	1429.48
875.00	1335.28
875.16	1390.57
875.33	1392.62
875.50	1273.84
875.66	1327.08
875.83	1452.01
875.99	1452.01
876.16	1406.95
876.33	1355.76
876.49	1337.32
876.66	1417.19
876.83	1404.91
876.99	1253.36
877.16	1384.43
877.32	1374.19
877.49	1298.41
877.66	1402.86
877.82	1429.48
877.99	1454.06
878.15	1439.72
878.32	1353.71
878.49	1349.61
878.65	1404.91
878.82	1396.71
878.98	1292.27
879.15	1372.14
879.32	1390.57
879.48	1382.38
879.65	1331.18
879.81	1378.28
879.98	1380.33
880.15	1386.47
880.31	1378.28
880.48	1331.18
880.64	1435.63
880.81	1441.77
880.97	1429.48
881.14	1433.58
881.31	1322.99
881.47	1527.78
881.64	1308.65
881.80	1361.90
881.97	1421.29
882.13	1402.86
882.30	1322.99
882.47	1415.15
882.63	1392.62
882.80	1310.70
882.96	1357.80
883.13	1435.63
883.29	1320.94
883.46	1400.81
883.62	1353.71
883.79	1359.85
883.95	1413.10
884.12	1327.08
884.29	1417.19
884.45	1304.56
884.62	1452.01
884.78	1320.94
884.95	1409.00
885.11	1368.04
885.28	1411.05
885.44	1347.56
885.61	1419.24
885.77	1443.82
885.94	1376.24
886.10	1341.42
886.27	1388.52
886.43	1345.52
886.60	1443.82
886.76	1372.14
886.93	1341.42
887.09	1409.00
887.26	1259.50
887.42	1370.09
887.59	1318.89
887.75	1400.81
887.92	1398.76
888.08	1402.86
888.25	1368.04
888.41	1366.00
888.58	1357.80
888.74	1337.32
888.91	1351.66
>>>>>End Processed Spectral Data<<<<<
