SpectraSuite Data File
++++++++++++++++++++++++++++++++++++
Date: Tue May 03 11:24:02 CEST 2016
User: root
Dark Spectrum Present: No
Reference Spectrum Present: No
Number of Sampled Component Spectra: 1
Spectrometers: USB4C02835
Integration Time (usec): 100000 (USB4C02835)
Spectra Averaged: 1 (USB4C02835)
Boxcar Smoothing: 0 (USB4C02835)
Correct for Electrical Dark: No (USB4C02835)
Strobe/Lamp Enabled: No (USB4C02835)
Correct for Detector Non-linearity: No (USB4C02835)
Correct for Stray Light: No (USB4C02835)
Number of Pixels in Processed Spectrum: 3648
>>>>>Begin Processed Spectral Data<<<<<
177.47	1181.68
177.69	1181.68
177.91	1181.68
178.13	1245.16
178.36	1247.21
178.58	1341.42
178.80	1437.67
179.02	1331.18
179.24	1312.75
179.46	1423.34
179.68	1421.29
179.90	1380.33
180.13	1339.37
180.35	1396.71
180.57	1333.23
180.79	1298.41
181.01	1366.00
181.23	1366.00
181.45	1454.06
181.67	1409.00
181.90	1380.33
182.12	1345.52
182.34	1308.65
182.56	1370.09
182.78	1368.04
183.00	1329.13
183.22	1370.09
183.44	1310.70
183.66	1429.48
183.89	1437.67
184.11	1376.24
184.33	1372.14
184.55	1386.47
184.77	1400.81
184.99	1386.47
185.21	1386.47
185.43	1394.67
185.65	1329.13
185.87	1388.52
186.10	1419.24
186.32	1490.92
186.54	1378.28
186.76	1359.85
186.98	1361.90
187.20	1394.67
187.42	1263.60
187.64	1331.18
187.86	1325.04
188.08	1409.00
188.30	1419.24
188.52	1384.43
188.75	1363.95
188.97	1366.00
189.19	1392.62
189.41	1320.94
189.63	1415.15
189.85	1417.19
190.07	1345.52
190.29	1296.36
190.51	1380.33
190.73	1314.80
190.95	1353.71
191.17	1331.18
191.39	1335.28
191.61	1372.14
191.84	1282.03
192.06	1275.88
192.28	1296.36
192.50	1443.82
192.72	1429.48
192.94	1374.19
193.16	1417.19
193.38	1331.18
193.60	1355.76
193.82	1361.90
194.04	1425.39
194.26	1322.99
194.48	1413.10
194.70	1347.56
194.92	1329.13
195.14	1406.95
195.36	1337.32
195.58	1339.37
195.80	1386.47
196.02	1400.81
196.24	1349.61
196.46	1380.33
196.69	1296.36
196.91	1429.48
197.13	1384.43
197.35	1366.00
197.57	1361.90
197.79	1288.17
198.01	1318.89
198.23	1380.33
198.45	1415.15
198.67	1361.90
198.89	1466.35
199.11	1355.76
199.33	1290.22
199.55	1337.32
199.77	1282.03
199.99	1425.39
200.21	1325.04
200.43	1394.67
200.65	1409.00
200.87	1279.98
201.09	1279.98
201.31	1345.52
201.53	1421.29
201.75	1341.42
201.97	1368.04
202.19	1366.00
202.41	1411.05
202.63	1468.39
202.85	1421.29
203.07	1343.47
203.29	1325.04
203.51	1333.23
203.73	1308.65
203.95	1472.49
204.17	1329.13
204.39	1404.91
204.61	1355.76
204.83	1306.60
205.05	1429.48
205.27	1486.83
205.49	1398.76
205.71	1374.19
205.93	1316.84
206.15	1331.18
206.37	1404.91
206.59	1382.38
206.81	1312.75
207.03	1304.56
207.25	1284.08
207.47	1378.28
207.69	1363.95
207.91	1472.49
208.13	1392.62
208.34	1318.89
208.56	1290.22
208.78	1372.14
209.00	1384.43
209.22	1300.46
209.44	1392.62
209.66	1363.95
209.88	1392.62
210.10	1327.08
210.32	1429.48
210.54	1343.47
210.76	1333.23
210.98	1402.86
211.20	1288.17
211.42	1419.24
211.64	1437.67
211.86	1298.41
212.08	1486.83
212.30	1462.25
212.52	1388.52
212.74	1378.28
212.96	1390.57
213.17	1392.62
213.39	1368.04
213.61	1425.39
213.83	1497.07
214.05	1306.60
214.27	1435.63
214.49	1345.52
214.71	1347.56
214.93	1513.45
215.15	1329.13
215.37	1366.00
215.59	1234.93
215.81	1341.42
216.03	1390.57
216.24	1335.28
216.46	1411.05
216.68	1417.19
216.90	1374.19
217.12	1411.05
217.34	1376.24
217.56	1419.24
217.78	1374.19
218.00	1398.76
218.22	1353.71
218.44	1366.00
218.66	1329.13
218.87	1388.52
219.09	1394.67
219.31	1392.62
219.53	1357.80
219.75	1404.91
219.97	1327.08
220.19	1402.86
220.41	1413.10
220.63	1394.67
220.85	1339.37
221.06	1370.09
221.28	1359.85
221.50	1447.91
221.72	1370.09
221.94	1372.14
222.16	1439.72
222.38	1363.95
222.60	1427.43
222.82	1343.47
223.03	1400.81
223.25	1335.28
223.47	1466.35
223.69	1445.87
223.91	1372.14
224.13	1284.08
224.35	1374.19
224.57	1394.67
224.78	1447.91
225.00	1314.80
225.22	1320.94
225.44	1341.42
225.66	1427.43
225.88	1404.91
226.10	1456.11
226.32	1339.37
226.53	1486.83
226.75	1310.70
226.97	1314.80
227.19	1386.47
227.41	1308.65
227.63	1288.17
227.85	1294.32
228.06	1308.65
228.28	1419.24
228.50	1351.66
228.72	1259.50
228.94	1316.84
229.16	1294.32
229.37	1331.18
229.59	1374.19
229.81	1433.58
230.03	1306.60
230.25	1320.94
230.47	1343.47
230.69	1308.65
230.90	1433.58
231.12	1378.28
231.34	1380.33
231.56	1353.71
231.78	1234.93
232.00	1392.62
232.21	1398.76
232.43	1380.33
232.65	1296.36
232.87	1402.86
233.09	1384.43
233.30	1349.61
233.52	1298.41
233.74	1437.67
233.96	1374.19
234.18	1431.53
234.40	1341.42
234.61	1372.14
234.83	1273.84
235.05	1327.08
235.27	1433.58
235.49	1413.10
235.70	1396.71
235.92	1402.86
236.14	1376.24
236.36	1452.01
236.58	1257.45
236.79	1404.91
237.01	1314.80
237.23	1298.41
237.45	1404.91
237.67	1368.04
237.88	1322.99
238.10	1452.01
238.32	1312.75
238.54	1406.95
238.76	1419.24
238.97	1339.37
239.19	1345.52
239.41	1445.87
239.63	1435.63
239.85	1308.65
240.06	1333.23
240.28	1361.90
240.50	1331.18
240.72	1318.89
240.93	1396.71
241.15	1445.87
241.37	1343.47
241.59	1458.15
241.81	1380.33
242.02	1286.12
242.24	1421.29
242.46	1355.76
242.68	1282.03
242.89	1380.33
243.11	1351.66
243.33	1349.61
243.55	1355.76
243.76	1404.91
243.98	1415.15
244.20	1386.47
244.42	1333.23
244.64	1351.66
244.85	1378.28
245.07	1294.32
245.29	1398.76
245.51	1425.39
245.72	1470.44
245.94	1345.52
246.16	1417.19
246.38	1390.57
246.59	1318.89
246.81	1378.28
247.03	1376.24
247.24	1273.84
247.46	1363.95
247.68	1425.39
247.90	1343.47
248.11	1347.56
248.33	1445.87
248.55	1343.47
248.77	1351.66
248.98	1372.14
249.20	1400.81
249.42	1400.81
249.64	1339.37
249.85	1298.41
250.07	1292.27
250.29	1331.18
250.50	1413.10
250.72	1347.56
250.94	1372.14
251.16	1441.77
251.37	1495.02
251.59	1402.86
251.81	1417.19
252.02	1456.11
252.24	1402.86
252.46	1357.80
252.68	1320.94
252.89	1294.32
253.11	1277.93
253.33	1427.43
253.54	1404.91
253.76	1363.95
253.98	1374.19
254.20	1306.60
254.41	1374.19
254.63	1331.18
254.85	1384.43
255.06	1347.56
255.28	1333.23
255.50	1392.62
255.71	1320.94
255.93	1312.75
256.15	1411.05
256.36	1292.27
256.58	1392.62
256.80	1388.52
257.02	1351.66
257.23	1415.15
257.45	1357.80
257.67	1411.05
257.88	1308.65
258.10	1335.28
258.32	1384.43
258.53	1355.76
258.75	1458.15
258.97	1337.32
259.18	1411.05
259.40	1370.09
259.62	1353.71
259.83	1363.95
260.05	1454.06
260.27	1511.40
260.48	1456.11
260.70	1331.18
260.92	1353.71
261.13	1335.28
261.35	1284.08
261.57	1349.61
261.78	1347.56
262.00	1370.09
262.22	1386.47
262.43	1345.52
262.65	1361.90
262.86	1282.03
263.08	1429.48
263.30	1386.47
263.51	1259.50
263.73	1298.41
263.95	1357.80
264.16	1314.80
264.38	1251.31
264.60	1390.57
264.81	1263.60
265.03	1460.20
265.25	1398.76
265.46	1322.99
265.68	1394.67
265.89	1392.62
266.11	1339.37
266.33	1400.81
266.54	1306.60
266.76	1415.15
266.98	1372.14
267.19	1470.44
267.41	1411.05
267.62	1361.90
267.84	1318.89
268.06	1435.63
268.27	1355.76
268.49	1390.57
268.70	1398.76
268.92	1349.61
269.14	1363.95
269.35	1304.56
269.57	1316.84
269.79	1337.32
270.00	1378.28
270.22	1361.90
270.43	1357.80
270.65	1300.46
270.87	1409.00
271.08	1380.33
271.30	1384.43
271.51	1345.52
271.73	1370.09
271.95	1363.95
272.16	1372.14
272.38	1363.95
272.59	1374.19
272.81	1359.85
273.02	1411.05
273.24	1339.37
273.46	1388.52
273.67	1359.85
273.89	1357.80
274.10	1386.47
274.32	1372.14
274.54	1359.85
274.75	1343.47
274.97	1419.24
275.18	1335.28
275.40	1327.08
275.61	1390.57
275.83	1366.00
276.05	1343.47
276.26	1306.60
276.48	1361.90
276.69	1316.84
276.91	1378.28
277.12	1413.10
277.34	1441.77
277.55	1388.52
277.77	1390.57
277.99	1288.17
278.20	1335.28
278.42	1306.60
278.63	1267.69
278.85	1310.70
279.06	1304.56
279.28	1388.52
279.49	1388.52
279.71	1423.34
279.93	1322.99
280.14	1431.53
280.36	1343.47
280.57	1331.18
280.79	1423.34
281.00	1361.90
281.22	1306.60
281.43	1427.43
281.65	1257.45
281.86	1355.76
282.08	1427.43
282.29	1488.87
282.51	1345.52
282.73	1271.79
282.94	1339.37
283.16	1499.11
283.37	1421.29
283.59	1347.56
283.80	1353.71
284.02	1318.89
284.23	1388.52
284.45	1325.04
284.66	1368.04
284.88	1363.95
285.09	1376.24
285.31	1400.81
285.52	1400.81
285.74	1306.60
285.95	1374.19
286.17	1353.71
286.38	1322.99
286.60	1279.98
286.81	1376.24
287.03	1318.89
287.24	1413.10
287.46	1378.28
287.67	1402.86
287.89	1425.39
288.10	1363.95
288.32	1279.98
288.53	1378.28
288.75	1353.71
288.96	1345.52
289.18	1363.95
289.39	1388.52
289.61	1353.71
289.82	1388.52
290.04	1474.54
290.25	1300.46
290.47	1322.99
290.68	1411.05
290.90	1380.33
291.11	1202.16
291.33	1372.14
291.54	1368.04
291.76	1302.51
291.97	1419.24
292.18	1400.81
292.40	1359.85
292.61	1335.28
292.83	1476.59
293.04	1415.15
293.26	1347.56
293.47	1359.85
293.69	1267.69
293.90	1343.47
294.12	1433.58
294.33	1314.80
294.55	1239.02
294.76	1392.62
294.97	1372.14
295.19	1435.63
295.40	1312.75
295.62	1409.00
295.83	1398.76
296.05	1452.01
296.26	1425.39
296.48	1357.80
296.69	1386.47
296.90	1359.85
297.12	1392.62
297.33	1400.81
297.55	1427.43
297.76	1394.67
297.98	1394.67
298.19	1413.10
298.41	1368.04
298.62	1361.90
298.83	1406.95
299.05	1411.05
299.26	1378.28
299.48	1355.76
299.69	1415.15
299.90	1398.76
300.12	1380.33
300.33	1370.09
300.55	1345.52
300.76	1386.47
300.98	1273.84
301.19	1327.08
301.40	1370.09
301.62	1316.84
301.83	1359.85
302.05	1398.76
302.26	1427.43
302.47	1347.56
302.69	1343.47
302.90	1333.23
303.12	1331.18
303.33	1390.57
303.54	1402.86
303.76	1347.56
303.97	1376.24
304.19	1431.53
304.40	1320.94
304.61	1353.71
304.83	1462.25
305.04	1347.56
305.26	1402.86
305.47	1310.70
305.68	1390.57
305.90	1314.80
306.11	1394.67
306.33	1378.28
306.54	1402.86
306.75	1343.47
306.97	1284.08
307.18	1400.81
307.39	1351.66
307.61	1443.82
307.82	1327.08
308.04	1433.58
308.25	1366.00
308.46	1339.37
308.68	1372.14
308.89	1349.61
309.10	1449.96
309.32	1402.86
309.53	1355.76
309.74	1378.28
309.96	1394.67
310.17	1411.05
310.39	1390.57
310.60	1363.95
310.81	1286.12
311.03	1392.62
311.24	1302.51
311.45	1298.41
311.67	1431.53
311.88	1343.47
312.09	1292.27
312.31	1390.57
312.52	1372.14
312.73	1400.81
312.95	1333.23
313.16	1322.99
313.37	1384.43
313.59	1363.95
313.80	1443.82
314.01	1390.57
314.23	1355.76
314.44	1370.09
314.65	1333.23
314.87	1398.76
315.08	1355.76
315.29	1363.95
315.51	1286.12
315.72	1339.37
315.93	1404.91
316.15	1411.05
316.36	1300.46
316.57	1394.67
316.79	1411.05
317.00	1466.35
317.21	1359.85
317.43	1400.81
317.64	1314.80
317.85	1402.86
318.07	1466.35
318.28	1515.50
318.49	1540.07
318.70	1652.71
318.92	1445.87
319.13	1464.30
319.34	1466.35
319.56	1476.59
319.77	1519.59
319.98	1437.67
320.20	1511.40
320.41	1396.71
320.62	1374.19
320.83	1435.63
321.05	1404.91
321.26	1415.15
321.47	1361.90
321.69	1390.57
321.90	1296.36
322.11	1378.28
322.32	1386.47
322.54	1382.38
322.75	1353.71
322.96	1400.81
323.18	1335.28
323.39	1279.98
323.60	1337.32
323.81	1417.19
324.03	1376.24
324.24	1372.14
324.45	1402.86
324.66	1384.43
324.88	1476.59
325.09	1443.82
325.30	1392.62
325.52	1433.58
325.73	1490.92
325.94	1308.65
326.15	1333.23
326.37	1294.32
326.58	1400.81
326.79	1359.85
327.00	1378.28
327.22	1337.32
327.43	1384.43
327.64	1271.79
327.85	1359.85
328.07	1425.39
328.28	1443.82
328.49	1339.37
328.70	1351.66
328.92	1374.19
329.13	1318.89
329.34	1449.96
329.55	1390.57
329.76	1433.58
329.98	1355.76
330.19	1400.81
330.40	1406.95
330.61	1366.00
330.83	1378.28
331.04	1339.37
331.25	1394.67
331.46	1347.56
331.68	1339.37
331.89	1443.82
332.10	1310.70
332.31	1314.80
332.52	1349.61
332.74	1337.32
332.95	1243.12
333.16	1339.37
333.37	1382.38
333.58	1316.84
333.80	1396.71
334.01	1339.37
334.22	1279.98
334.43	1382.38
334.64	1335.28
334.86	1327.08
335.07	1296.36
335.28	1429.48
335.49	1290.22
335.70	1339.37
335.92	1372.14
336.13	1382.38
336.34	1376.24
336.55	1357.80
336.76	1427.43
336.98	1296.36
337.19	1390.57
337.40	1466.35
337.61	1511.40
337.82	1404.91
338.04	1409.00
338.25	1361.90
338.46	1388.52
338.67	1366.00
338.88	1277.93
339.09	1312.75
339.31	1345.52
339.52	1302.51
339.73	1400.81
339.94	1337.32
340.15	1390.57
340.36	1341.42
340.58	1388.52
340.79	1355.76
341.00	1314.80
341.21	1306.60
341.42	1370.09
341.63	1372.14
341.85	1376.24
342.06	1314.80
342.27	1302.51
342.48	1368.04
342.69	1310.70
342.90	1406.95
343.12	1384.43
343.33	1339.37
343.54	1386.47
343.75	1411.05
343.96	1409.00
344.17	1378.28
344.38	1359.85
344.60	1343.47
344.81	1396.71
345.02	1392.62
345.23	1357.80
345.44	1445.87
345.65	1390.57
345.86	1400.81
346.07	1318.89
346.29	1343.47
346.50	1441.77
346.71	1443.82
346.92	1380.33
347.13	1490.92
347.34	1400.81
347.55	1361.90
347.76	1363.95
347.98	1368.04
348.19	1394.67
348.40	1462.25
348.61	1320.94
348.82	1425.39
349.03	1425.39
349.24	1251.31
349.45	1406.95
349.66	1318.89
349.88	1392.62
350.09	1376.24
350.30	1366.00
350.51	1374.19
350.72	1390.57
350.93	1429.48
351.14	1290.22
351.35	1396.71
351.56	1325.04
351.77	1329.13
351.99	1441.77
352.20	1398.76
352.41	1468.39
352.62	1292.27
352.83	1343.47
353.04	1370.09
353.25	1439.72
353.46	1378.28
353.67	1429.48
353.88	1304.56
354.09	1421.29
354.30	1409.00
354.52	1374.19
354.73	1366.00
354.94	1425.39
355.15	1384.43
355.36	1417.19
355.57	1382.38
355.78	1355.76
355.99	1339.37
356.20	1329.13
356.41	1470.44
356.62	1370.09
356.83	1359.85
357.04	1366.00
357.25	1331.18
357.46	1337.32
357.68	1228.78
357.89	1282.03
358.10	1466.35
358.31	1396.71
358.52	1402.86
358.73	1310.70
358.94	1277.93
359.15	1409.00
359.36	1437.67
359.57	1380.33
359.78	1396.71
359.99	1396.71
360.20	1376.24
360.41	1372.14
360.62	1468.39
360.83	1433.58
361.04	1392.62
361.25	1351.66
361.46	1470.44
361.67	1433.58
361.88	1404.91
362.09	1353.71
362.30	1413.10
362.51	1398.76
362.72	1439.72
362.93	1378.28
363.14	1363.95
363.35	1386.47
363.56	1296.36
363.78	1392.62
363.99	1458.15
364.20	1370.09
364.41	1347.56
364.62	1474.54
364.83	1345.52
365.04	1380.33
365.25	1363.95
365.46	1396.71
365.67	1382.38
365.88	1409.00
366.09	1314.80
366.30	1335.28
366.51	1363.95
366.72	1318.89
366.93	1456.11
367.14	1427.43
367.35	1370.09
367.56	1398.76
367.77	1443.82
367.98	1359.85
368.18	1368.04
368.39	1306.60
368.60	1329.13
368.81	1349.61
369.02	1374.19
369.23	1400.81
369.44	1298.41
369.65	1361.90
369.86	1368.04
370.07	1427.43
370.28	1304.56
370.49	1423.34
370.70	1419.24
370.91	1392.62
371.12	1202.16
371.33	1400.81
371.54	1339.37
371.75	1456.11
371.96	1298.41
372.17	1361.90
372.38	1339.37
372.59	1337.32
372.80	1378.28
373.01	1347.56
373.22	1425.39
373.43	1363.95
373.64	1308.65
373.85	1388.52
374.06	1347.56
374.26	1402.86
374.47	1425.39
374.68	1468.39
374.89	1331.18
375.10	1445.87
375.31	1458.15
375.52	1366.00
375.73	1429.48
375.94	1374.19
376.15	1425.39
376.36	1404.91
376.57	1337.32
376.78	1316.84
376.99	1335.28
377.20	1486.83
377.40	1292.27
377.61	1376.24
377.82	1386.47
378.03	1413.10
378.24	1449.96
378.45	1333.23
378.66	1343.47
378.87	1322.99
379.08	1300.46
379.29	1331.18
379.50	1368.04
379.71	1347.56
379.91	1386.47
380.12	1347.56
380.33	1361.90
380.54	1318.89
380.75	1382.38
380.96	1351.66
381.17	1458.15
381.38	1429.48
381.59	1464.30
381.80	1476.59
382.00	1480.68
382.21	1370.09
382.42	1464.30
382.63	1449.96
382.84	1398.76
383.05	1409.00
383.26	1484.78
383.47	1353.71
383.68	1372.14
383.88	1411.05
384.09	1417.19
384.30	1464.30
384.51	1394.67
384.72	1404.91
384.93	1320.94
385.14	1339.37
385.35	1437.67
385.55	1306.60
385.76	1529.83
385.97	1462.25
386.18	1345.52
386.39	1339.37
386.60	1396.71
386.81	1476.59
387.02	1427.43
387.22	1433.58
387.43	1447.91
387.64	1544.17
387.85	2217.95
388.06	5816.23
388.27	9758.57
388.48	11407.19
388.68	12932.92
388.89	13356.85
389.10	10653.53
389.31	9101.17
389.52	8277.89
389.73	7290.77
389.93	7059.35
390.14	6313.89
390.35	6180.77
390.56	5412.78
390.77	4577.21
390.98	3649.48
391.18	2912.21
391.39	2127.84
391.60	1742.82
391.81	1521.64
392.02	1454.06
392.23	1558.50
392.43	1460.20
392.64	1437.67
392.85	1396.71
393.06	1492.97
393.27	1376.24
393.47	1306.60
393.68	1368.04
393.89	1341.42
394.10	1445.87
394.31	1329.13
394.52	1312.75
394.72	1396.71
394.93	1443.82
395.14	1331.18
395.35	1406.95
395.56	1443.82
395.76	1556.46
395.97	1495.02
396.18	1570.79
396.39	1632.23
396.60	1650.66
396.80	1572.84
397.01	1556.46
397.22	1517.54
397.43	1538.02
397.64	1427.43
397.84	1495.02
398.05	1548.26
398.26	1454.06
398.47	1468.39
398.67	1445.87
398.88	1435.63
399.09	1372.14
399.30	1316.84
399.51	1382.38
399.71	1341.42
399.92	1427.43
400.13	1329.13
400.34	1462.25
400.54	1386.47
400.75	1515.50
400.96	1398.76
401.17	1519.59
401.37	1384.43
401.58	1347.56
401.79	1474.54
402.00	1720.29
402.21	1820.64
402.41	1818.60
402.62	1796.07
402.83	1695.72
403.04	1748.97
403.24	1685.48
403.45	1593.32
403.66	1552.36
403.87	1529.83
404.07	1452.01
404.28	1560.55
404.49	1560.55
404.70	1456.11
404.90	1447.91
405.11	1464.30
405.32	1396.71
405.52	1392.62
405.73	1253.36
405.94	1282.03
406.15	1359.85
406.35	1445.87
406.56	1390.57
406.77	1339.37
406.98	1374.19
407.18	1359.85
407.39	1447.91
407.60	1310.70
407.80	1423.34
408.01	1368.04
408.22	1413.10
408.43	1347.56
408.63	1396.71
408.84	1400.81
409.05	1331.18
409.25	1329.13
409.46	1331.18
409.67	1351.66
409.88	1421.29
410.08	1327.08
410.29	1337.32
410.50	1361.90
410.70	1406.95
410.91	1284.08
411.12	1372.14
411.32	1378.28
411.53	1288.17
411.74	1429.48
411.95	1464.30
412.15	1439.72
412.36	1415.15
412.57	1452.01
412.77	1458.15
412.98	1392.62
413.19	1366.00
413.39	1392.62
413.60	1435.63
413.81	1464.30
414.01	1349.61
414.22	1417.19
414.43	1392.62
414.63	1406.95
414.84	1468.39
415.05	1417.19
415.25	1355.76
415.46	1368.04
415.67	1306.60
415.87	1353.71
416.08	1445.87
416.29	1390.57
416.49	1376.24
416.70	1415.15
416.91	1279.98
417.11	1394.67
417.32	1376.24
417.53	1464.30
417.73	1343.47
417.94	1349.61
418.15	1394.67
418.35	1402.86
418.56	1327.08
418.77	1435.63
418.97	1378.28
419.18	1380.33
419.38	1273.84
419.59	1355.76
419.80	1400.81
420.00	1437.67
420.21	1390.57
420.42	1320.94
420.62	1390.57
420.83	1265.64
421.04	1316.84
421.24	1351.66
421.45	1394.67
421.65	1433.58
421.86	1304.56
422.07	1441.77
422.27	1363.95
422.48	1353.71
422.69	1415.15
422.89	1388.52
423.10	1339.37
423.30	1265.64
423.51	1380.33
423.72	1363.95
423.92	1339.37
424.13	1337.32
424.33	1337.32
424.54	1427.43
424.75	1290.22
424.95	1400.81
425.16	1423.34
425.36	1322.99
425.57	1470.44
425.78	1433.58
425.98	1413.10
426.19	1343.47
426.39	1320.94
426.60	1341.42
426.81	1495.02
427.01	1384.43
427.22	1431.53
427.42	1355.76
427.63	1409.00
427.83	1384.43
428.04	1460.20
428.25	1417.19
428.45	1386.47
428.66	1458.15
428.86	1298.41
429.07	1325.04
429.28	1372.14
429.48	1320.94
429.69	1355.76
429.89	1388.52
430.10	1316.84
430.30	1357.80
430.51	1423.34
430.71	1374.19
430.92	1366.00
431.13	1322.99
431.33	1372.14
431.54	1384.43
431.74	1423.34
431.95	1388.52
432.15	1300.46
432.36	1380.33
432.56	1425.39
432.77	1445.87
432.98	1511.40
433.18	1306.60
433.39	1452.01
433.59	1351.66
433.80	1476.59
434.00	1497.07
434.21	1318.89
434.41	1392.62
434.62	1468.39
434.82	1310.70
435.03	1357.80
435.23	1308.65
435.44	1316.84
435.64	1339.37
435.85	1382.38
436.06	1439.72
436.26	1359.85
436.47	1357.80
436.67	1318.89
436.88	1466.35
437.08	1363.95
437.29	1374.19
437.49	1382.38
437.70	1421.29
437.90	1398.76
438.11	1474.54
438.31	1476.59
438.52	1578.98
438.72	1535.98
438.93	1564.65
439.13	1519.59
439.34	1409.00
439.54	1443.82
439.75	1374.19
439.95	1447.91
440.16	1368.04
440.36	1390.57
440.57	1423.34
440.77	1335.28
440.98	1406.95
441.18	1429.48
441.39	1413.10
441.59	1419.24
441.80	1449.96
442.00	1370.09
442.21	1443.82
442.41	1413.10
442.62	1363.95
442.82	1404.91
443.02	1417.19
443.23	1443.82
443.43	1394.67
443.64	1411.05
443.84	1386.47
444.05	1445.87
444.25	1441.77
444.46	1396.71
444.66	1447.91
444.87	1359.85
445.07	1306.60
445.28	1415.15
445.48	1492.97
445.69	1386.47
445.89	1499.11
446.09	1595.37
446.30	2267.10
446.50	3698.63
446.71	4646.84
446.91	5279.66
447.12	5570.48
447.32	4978.61
447.53	4071.36
447.73	3692.49
447.93	3401.68
448.14	3225.55
448.34	2975.70
448.55	2889.68
448.75	2828.24
448.96	2660.31
449.16	2418.65
449.36	2197.47
449.57	1988.58
449.77	1683.43
449.98	1535.98
450.18	1538.02
450.39	1476.59
450.59	1331.18
450.79	1339.37
451.00	1310.70
451.20	1398.76
451.41	1304.56
451.61	1388.52
451.81	1312.75
452.02	1419.24
452.22	1376.24
452.43	1421.29
452.63	1392.62
452.84	1382.38
453.04	1335.28
453.24	1351.66
453.45	1396.71
453.65	1363.95
453.86	1363.95
454.06	1320.94
454.26	1286.12
454.47	1378.28
454.67	1402.86
454.87	1363.95
455.08	1339.37
455.28	1495.02
455.49	1337.32
455.69	1312.75
455.89	1538.02
456.10	1361.90
456.30	1370.09
456.51	1355.76
456.71	1269.74
456.91	1394.67
457.12	1339.37
457.32	1411.05
457.52	1308.65
457.73	1386.47
457.93	1366.00
458.14	1320.94
458.34	1363.95
458.54	1345.52
458.75	1388.52
458.95	1460.20
459.15	1517.54
459.36	1386.47
459.56	1372.14
459.76	1443.82
459.97	1392.62
460.17	1441.77
460.37	1378.28
460.58	1378.28
460.78	1380.33
460.99	1427.43
461.19	1421.29
461.39	1388.52
461.60	1392.62
461.80	1382.38
462.00	1380.33
462.21	1376.24
462.41	1363.95
462.61	1279.98
462.82	1257.45
463.02	1370.09
463.22	1378.28
463.43	1372.14
463.63	1398.76
463.83	1357.80
464.04	1443.82
464.24	1345.52
464.44	1335.28
464.64	1388.52
464.85	1376.24
465.05	1368.04
465.25	1361.90
465.46	1361.90
465.66	1474.54
465.86	1402.86
466.07	1357.80
466.27	1308.65
466.47	1277.93
466.68	1275.88
466.88	1449.96
467.08	1415.15
467.29	1345.52
467.49	1427.43
467.69	1406.95
467.89	1415.15
468.10	1431.53
468.30	1384.43
468.50	1404.91
468.71	1429.48
468.91	1382.38
469.11	1404.91
469.31	1427.43
469.52	1398.76
469.72	1474.54
469.92	1417.19
470.13	1376.24
470.33	1484.78
470.53	1744.87
470.73	2035.68
470.94	2273.25
471.14	2422.75
471.34	2557.91
471.54	2303.96
471.75	2011.11
471.95	1894.37
472.15	1808.36
472.36	1845.22
472.56	1880.04
472.76	1746.92
472.96	1687.53
473.17	1691.62
473.37	1626.09
473.57	1568.74
473.77	1511.40
473.98	1478.63
474.18	1437.67
474.38	1552.36
474.58	1413.10
474.79	1400.81
474.99	1361.90
475.19	1368.04
475.39	1308.65
475.60	1417.19
475.80	1423.34
476.00	1380.33
476.20	1345.52
476.41	1409.00
476.61	1384.43
476.81	1431.53
477.01	1320.94
477.21	1478.63
477.42	1478.63
477.62	1361.90
477.82	1347.56
478.02	1388.52
478.23	1437.67
478.43	1370.09
478.63	1374.19
478.83	1355.76
479.03	1314.80
479.24	1439.72
479.44	1386.47
479.64	1351.66
479.84	1304.56
480.04	1271.79
480.25	1386.47
480.45	1347.56
480.65	1357.80
480.85	1361.90
481.06	1345.52
481.26	1378.28
481.46	1427.43
481.66	1335.28
481.86	1372.14
482.06	1404.91
482.27	1355.76
482.47	1353.71
482.67	1411.05
482.87	1368.04
483.07	1515.50
483.28	1376.24
483.48	1298.41
483.68	1329.13
483.88	1331.18
484.08	1322.99
484.29	1378.28
484.49	1331.18
484.69	1306.60
484.89	1392.62
485.09	1484.78
485.29	1433.58
485.50	1384.43
485.70	1396.71
485.90	1417.19
486.10	1329.13
486.30	1337.32
486.50	1435.63
486.71	1392.62
486.91	1388.52
487.11	1486.83
487.31	1290.22
487.51	1322.99
487.71	1363.95
487.91	1363.95
488.12	1310.70
488.32	1308.65
488.52	1361.90
488.72	1312.75
488.92	1380.33
489.12	1452.01
489.32	1445.87
489.53	1357.80
489.73	1351.66
489.93	1388.52
490.13	1376.24
490.33	1306.60
490.53	1351.66
490.73	1423.34
490.94	1343.47
491.14	1396.71
491.34	1615.85
491.54	2160.61
491.74	2639.83
491.94	2904.02
492.14	3196.88
492.34	3002.32
492.54	2549.72
492.75	2324.44
492.95	2301.92
493.15	2105.31
493.35	2041.82
493.55	1988.58
493.75	1908.71
493.95	1814.50
494.15	1812.45
494.35	1665.00
494.56	1634.28
494.76	1542.12
494.96	1495.02
495.16	1497.07
495.36	1363.95
495.56	1378.28
495.76	1361.90
495.96	1347.56
496.16	1394.67
496.36	1429.48
496.56	1376.24
496.77	1372.14
496.97	1374.19
497.17	1474.54
497.37	1329.13
497.57	1427.43
497.77	1372.14
497.97	1363.95
498.17	1366.00
498.37	1413.10
498.57	1404.91
498.77	1415.15
498.97	1468.39
499.17	1454.06
499.38	1419.24
499.58	1441.77
499.78	1398.76
499.98	1396.71
500.18	1390.57
500.38	1417.19
500.58	1736.68
500.78	2922.45
500.98	5296.05
501.18	6858.65
501.38	7913.35
501.58	8451.97
501.78	7389.07
501.98	5767.08
502.18	5132.21
502.38	4456.38
502.58	4159.42
502.78	3919.81
502.98	3667.91
503.18	3428.30
503.38	3381.20
503.59	3045.33
503.79	2775.00
503.99	2576.34
504.19	2357.21
504.39	2117.60
504.59	2037.73
504.79	1931.23
504.99	1834.98
505.19	1595.37
505.39	1619.94
505.59	1650.66
505.79	1581.03
505.99	1570.79
506.19	1460.20
506.39	1531.88
506.59	1443.82
506.79	1454.06
506.99	1470.44
507.19	1429.48
507.39	1402.86
507.59	1378.28
507.79	1343.47
507.99	1445.87
508.19	1372.14
508.39	1443.82
508.59	1423.34
508.79	1425.39
508.99	1462.25
509.19	1380.33
509.39	1411.05
509.59	1394.67
509.79	1265.64
509.99	1376.24
510.19	1409.00
510.39	1433.58
510.59	1314.80
510.79	1400.81
510.99	1380.33
511.19	1370.09
511.39	1456.11
511.59	1495.02
511.79	1431.53
511.99	1480.68
512.19	1392.62
512.38	1372.14
512.58	1400.81
512.78	1363.95
512.98	1480.68
513.18	1390.57
513.38	1366.00
513.58	1439.72
513.78	1366.00
513.98	1329.13
514.18	1437.67
514.38	1363.95
514.58	1406.95
514.78	1322.99
514.98	1284.08
515.18	1351.66
515.38	1359.85
515.58	1464.30
515.78	1316.84
515.98	1341.42
516.18	1409.00
516.38	1437.67
516.57	1300.46
516.77	1273.84
516.97	1409.00
517.17	1355.76
517.37	1355.76
517.57	1411.05
517.77	1390.57
517.97	1388.52
518.17	1419.24
518.37	1337.32
518.57	1429.48
518.77	1384.43
518.97	1288.17
519.16	1355.76
519.36	1439.72
519.56	1398.76
519.76	1372.14
519.96	1431.53
520.16	1400.81
520.36	1415.15
520.56	1505.26
520.76	1333.23
520.96	1355.76
521.16	1429.48
521.35	1452.01
521.55	1441.77
521.75	1355.76
521.95	1331.18
522.15	1359.85
522.35	1296.36
522.55	1386.47
522.75	1492.97
522.95	1372.14
523.14	1333.23
523.34	1325.04
523.54	1421.29
523.74	1447.91
523.94	1361.90
524.14	1292.27
524.34	1392.62
524.54	1411.05
524.73	1468.39
524.93	1376.24
525.13	1349.61
525.33	1279.98
525.53	1431.53
525.73	1351.66
525.93	1429.48
526.13	1417.19
526.32	1363.95
526.52	1425.39
526.72	1415.15
526.92	1339.37
527.12	1318.89
527.32	1316.84
527.52	1366.00
527.71	1460.20
527.91	1363.95
528.11	1329.13
528.31	1435.63
528.51	1308.65
528.71	1353.71
528.90	1380.33
529.10	1437.67
529.30	1386.47
529.50	1325.04
529.70	1355.76
529.90	1329.13
530.09	1361.90
530.29	1279.98
530.49	1347.56
530.69	1490.92
530.89	1419.24
531.09	1380.33
531.28	1312.75
531.48	1363.95
531.68	1392.62
531.88	1355.76
532.08	1347.56
532.28	1462.25
532.47	1437.67
532.67	1413.10
532.87	1409.00
533.07	1406.95
533.27	1425.39
533.46	1445.87
533.66	1402.86
533.86	1427.43
534.06	1433.58
534.26	1402.86
534.45	1351.66
534.65	1439.72
534.85	1355.76
535.05	1329.13
535.25	1509.35
535.44	1279.98
535.64	1368.04
535.84	1372.14
536.04	1411.05
536.24	1374.19
536.43	1355.76
536.63	1384.43
536.83	1376.24
537.03	1333.23
537.22	1333.23
537.42	1374.19
537.62	1388.52
537.82	1271.79
538.02	1425.39
538.21	1413.10
538.41	1480.68
538.61	1429.48
538.81	1372.14
539.00	1392.62
539.20	1300.46
539.40	1368.04
539.60	1333.23
539.79	1398.76
539.99	1390.57
540.19	1359.85
540.39	1327.08
540.58	1429.48
540.78	1452.01
540.98	1470.44
541.18	1423.34
541.37	1322.99
541.57	1359.85
541.77	1445.87
541.97	1343.47
542.16	1329.13
542.36	1339.37
542.56	1421.29
542.76	1417.19
542.95	1312.75
543.15	1415.15
543.35	1368.04
543.54	1417.19
543.74	1284.08
543.94	1443.82
544.14	1398.76
544.33	1366.00
544.53	1337.32
544.73	1415.15
544.93	1368.04
545.12	1355.76
545.32	1415.15
545.52	1415.15
545.71	1392.62
545.91	1380.33
546.11	1325.04
546.30	1316.84
546.50	1366.00
546.70	1380.33
546.90	1386.47
547.09	1306.60
547.29	1476.59
547.49	1423.34
547.68	1413.10
547.88	1376.24
548.08	1411.05
548.27	1642.47
548.47	1398.76
548.67	1351.66
548.87	1409.00
549.06	1363.95
549.26	1347.56
549.46	1359.85
549.65	1327.08
549.85	1320.94
550.05	1400.81
550.24	1327.08
550.44	1433.58
550.64	1337.32
550.83	1406.95
551.03	1402.86
551.23	1406.95
551.42	1400.81
551.62	1359.85
551.82	1404.91
552.01	1341.42
552.21	1437.67
552.41	1357.80
552.60	1390.57
552.80	1368.04
553.00	1357.80
553.19	1353.71
553.39	1472.49
553.59	1363.95
553.78	1316.84
553.98	1286.12
554.17	1331.18
554.37	1331.18
554.57	1378.28
554.76	1345.52
554.96	1294.32
555.16	1413.10
555.35	1415.15
555.55	1443.82
555.75	1429.48
555.94	1390.57
556.14	1230.83
556.33	1368.04
556.53	1363.95
556.73	1429.48
556.92	1406.95
557.12	1437.67
557.32	1435.63
557.51	1452.01
557.71	1462.25
557.90	1462.25
558.10	1413.10
558.30	1347.56
558.49	1353.71
558.69	1394.67
558.88	1347.56
559.08	1386.47
559.28	1341.42
559.47	1380.33
559.67	1411.05
559.86	1411.05
560.06	1382.38
560.26	1398.76
560.45	1431.53
560.65	1316.84
560.84	1386.47
561.04	1359.85
561.24	1353.71
561.43	1337.32
561.63	1400.81
561.82	1318.89
562.02	1449.96
562.22	1376.24
562.41	1318.89
562.61	1388.52
562.80	1343.47
563.00	1519.59
563.19	1376.24
563.39	1429.48
563.59	1456.11
563.78	1310.70
563.98	1409.00
564.17	1339.37
564.37	1322.99
564.56	1411.05
564.76	1452.01
564.96	1382.38
565.15	1390.57
565.35	1492.97
565.54	1337.32
565.74	1302.51
565.93	1400.81
566.13	1363.95
566.32	1355.76
566.52	1339.37
566.71	1351.66
566.91	1466.35
567.11	1361.90
567.30	1396.71
567.50	1406.95
567.69	1380.33
567.89	1355.76
568.08	1312.75
568.28	1351.66
568.47	1366.00
568.67	1376.24
568.86	1427.43
569.06	1447.91
569.25	1419.24
569.45	1306.60
569.64	1337.32
569.84	1320.94
570.04	1396.71
570.23	1361.90
570.43	1306.60
570.62	1329.13
570.82	1409.00
571.01	1308.65
571.21	1337.32
571.40	1316.84
571.60	1339.37
571.79	1390.57
571.99	1411.05
572.18	1374.19
572.38	1355.76
572.57	1384.43
572.77	1398.76
572.96	1425.39
573.16	1452.01
573.35	1411.05
573.55	1472.49
573.74	1366.00
573.94	1331.18
574.13	1398.76
574.33	1462.25
574.52	1454.06
574.71	1417.19
574.91	1443.82
575.10	1394.67
575.30	1370.09
575.49	1357.80
575.69	1320.94
575.88	1439.72
576.08	1468.39
576.27	1523.69
576.47	1425.39
576.66	1509.35
576.86	1486.83
577.05	1488.87
577.25	1540.07
577.44	1443.82
577.64	1425.39
577.83	1402.86
578.02	1466.35
578.22	1443.82
578.41	1454.06
578.61	1386.47
578.80	1361.90
579.00	1353.71
579.19	1402.86
579.39	1372.14
579.58	1443.82
579.77	1468.39
579.97	1433.58
580.16	1460.20
580.36	1468.39
580.55	1419.24
580.75	1413.10
580.94	1427.43
581.13	1505.26
581.33	1503.21
581.52	1359.85
581.72	1488.87
581.91	1505.26
582.11	1484.78
582.30	1544.17
582.49	1443.82
582.69	1470.44
582.88	1423.34
583.08	1445.87
583.27	1396.71
583.47	1417.19
583.66	1445.87
583.85	1431.53
584.05	1433.58
584.24	1468.39
584.44	1499.11
584.63	1466.35
584.82	1509.35
585.02	1513.45
585.21	1640.42
585.41	1556.46
585.60	1626.09
585.79	1626.09
585.99	1589.22
586.18	1638.38
586.37	1888.23
586.57	2629.59
586.76	7952.26
586.96	24202.89
587.15	41518.47
587.34	51842.28
587.54	59958.38
587.73	58997.88
587.93	44701.01
588.12	32839.18
588.31	26093.17
588.51	22474.41
588.70	20168.40
588.89	18249.45
589.09	17010.43
589.28	15693.58
589.47	14280.49
589.67	12644.16
589.86	10524.51
590.06	8542.08
590.25	6694.81
590.44	4980.66
590.64	3717.06
590.83	2852.82
591.02	2263.01
591.22	1923.04
591.41	1738.73
591.60	1601.51
591.80	1628.14
591.99	1542.12
592.18	1525.74
592.38	1535.98
592.57	1425.39
592.76	1423.34
592.96	1435.63
593.15	1425.39
593.34	1402.86
593.54	1515.50
593.73	1425.39
593.92	1433.58
594.12	1425.39
594.31	1497.07
594.50	1468.39
594.70	1497.07
594.89	1615.85
595.08	1308.65
595.28	1429.48
595.47	1466.35
595.66	1406.95
595.86	1427.43
596.05	1495.02
596.24	1421.29
596.43	1384.43
596.63	1490.92
596.82	1474.54
597.01	1460.20
597.21	1466.35
597.40	1376.24
597.59	1449.96
597.79	1411.05
597.98	1449.96
598.17	1484.78
598.36	1363.95
598.56	1439.72
598.75	1411.05
598.94	1411.05
599.14	1363.95
599.33	1368.04
599.52	1423.34
599.71	1421.29
599.91	1433.58
600.10	1431.53
600.29	1452.01
600.48	1394.67
600.68	1376.24
600.87	1374.19
601.06	1376.24
601.26	1361.90
601.45	1429.48
601.64	1304.56
601.83	1417.19
602.03	1376.24
602.22	1353.71
602.41	1454.06
602.60	1552.36
602.80	1409.00
602.99	1409.00
603.18	1370.09
603.37	1429.48
603.57	1501.16
603.76	1482.73
603.95	1468.39
604.14	1396.71
604.34	1361.90
604.53	1447.91
604.72	1425.39
604.91	1421.29
605.10	1382.38
605.30	1419.24
605.49	1486.83
605.68	1353.71
605.87	1421.29
606.07	1390.57
606.26	1452.01
606.45	1376.24
606.64	1409.00
606.84	1378.28
607.03	1402.86
607.22	1396.71
607.41	1460.20
607.60	1419.24
607.80	1411.05
607.99	1474.54
608.18	1370.09
608.37	1427.43
608.56	1415.15
608.76	1402.86
608.95	1429.48
609.14	1509.35
609.33	1492.97
609.52	1601.51
609.72	1462.25
609.91	1540.07
610.10	1486.83
610.29	1421.29
610.48	1413.10
610.68	1507.30
610.87	1292.27
611.06	1447.91
611.25	1417.19
611.44	1398.76
611.63	1308.65
611.83	1409.00
612.02	1435.63
612.21	1464.30
612.40	1404.91
612.59	1357.80
612.79	1284.08
612.98	1398.76
613.17	1394.67
613.36	1359.85
613.55	1480.68
613.74	1519.59
613.93	1546.22
614.13	1642.47
614.32	1677.29
614.51	1619.94
614.70	1599.46
614.89	1456.11
615.08	1458.15
615.28	1710.05
615.47	1441.77
615.66	1499.11
615.85	1474.54
616.04	1499.11
616.23	1433.58
616.42	1413.10
616.62	1503.21
616.81	1390.57
617.00	1335.28
617.19	1392.62
617.38	1402.86
617.57	1452.01
617.76	1462.25
617.95	1441.77
618.15	1550.31
618.34	1535.98
618.53	1327.08
618.72	1376.24
618.91	1454.06
619.10	1413.10
619.29	1341.42
619.48	1411.05
619.68	1314.80
619.87	1400.81
620.06	1343.47
620.25	1296.36
620.44	1351.66
620.63	1404.91
620.82	1411.05
621.01	1398.76
621.20	1378.28
621.39	1439.72
621.59	1495.02
621.78	1480.68
621.97	1400.81
622.16	1480.68
622.35	1388.52
622.54	1411.05
622.73	1433.58
622.92	1351.66
623.11	1439.72
623.30	1374.19
623.49	1413.10
623.68	1392.62
623.88	1374.19
624.07	1390.57
624.26	1372.14
624.45	1378.28
624.64	1386.47
624.83	1392.62
625.02	1384.43
625.21	1347.56
625.40	1380.33
625.59	1437.67
625.78	1464.30
625.97	1394.67
626.16	1464.30
626.35	1437.67
626.54	1454.06
626.74	1529.83
626.93	1402.86
627.12	1452.01
627.31	1452.01
627.50	1411.05
627.69	1452.01
627.88	1378.28
628.07	1361.90
628.26	1386.47
628.45	1347.56
628.64	1415.15
628.83	1423.34
629.02	1394.67
629.21	1355.76
629.40	1478.63
629.59	1355.76
629.78	1423.34
629.97	1318.89
630.16	1374.19
630.35	1425.39
630.54	1411.05
630.73	1368.04
630.92	1400.81
631.11	1335.28
631.30	1378.28
631.49	1423.34
631.68	1384.43
631.87	1421.29
632.06	1419.24
632.25	1462.25
632.44	1370.09
632.63	1400.81
632.82	1378.28
633.01	1404.91
633.20	1509.35
633.39	1462.25
633.58	1400.81
633.77	1507.30
633.96	1517.54
634.15	1499.11
634.34	1443.82
634.53	1368.04
634.72	1394.67
634.91	1325.04
635.10	1394.67
635.29	1347.56
635.48	1417.19
635.67	1335.28
635.86	1331.18
636.05	1441.77
636.24	1322.99
636.43	1429.48
636.62	1478.63
636.81	1216.49
637.00	1308.65
637.19	1388.52
637.38	1376.24
637.57	1366.00
637.76	1339.37
637.95	1505.26
638.14	1458.15
638.33	1517.54
638.52	1505.26
638.71	1476.59
638.89	1382.38
639.08	1570.79
639.27	1445.87
639.46	1486.83
639.65	1765.35
639.84	1929.19
640.03	2009.06
640.22	2000.87
640.41	2170.85
640.60	1970.15
640.79	1802.21
640.98	1636.33
641.17	1636.33
641.36	1542.12
641.55	1564.65
641.74	1486.83
641.92	1552.36
642.11	1519.59
642.30	1456.11
642.49	1441.77
642.68	1509.35
642.87	1404.91
643.06	1449.96
643.25	1402.86
643.44	1343.47
643.63	1421.29
643.82	1388.52
644.00	1382.38
644.19	1380.33
644.38	1277.93
644.57	1400.81
644.76	1415.15
644.95	1308.65
645.14	1366.00
645.33	1400.81
645.52	1333.23
645.71	1316.84
645.89	1310.70
646.08	1396.71
646.27	1425.39
646.46	1482.73
646.65	1247.21
646.84	1421.29
647.03	1296.36
647.22	1384.43
647.40	1400.81
647.59	1316.84
647.78	1277.93
647.97	1306.60
648.16	1378.28
648.35	1431.53
648.54	1411.05
648.73	1437.67
648.91	1484.78
649.10	1423.34
649.29	1322.99
649.48	1349.61
649.67	1345.52
649.86	1380.33
650.05	1361.90
650.23	1533.93
650.42	1462.25
650.61	1546.22
650.80	1546.22
650.99	1687.53
651.18	1540.07
651.36	1480.68
651.55	1386.47
651.74	1437.67
651.93	1441.77
652.12	1382.38
652.31	1413.10
652.49	1423.34
652.68	1406.95
652.87	1490.92
653.06	1466.35
653.25	1503.21
653.44	1484.78
653.62	1468.39
653.81	1413.10
654.00	1456.11
654.19	1441.77
654.38	1484.78
654.56	1372.14
654.75	1347.56
654.94	1400.81
655.13	1421.29
655.32	1366.00
655.51	1363.95
655.69	1351.66
655.88	1415.15
656.07	1269.74
656.26	1331.18
656.45	1415.15
656.63	1333.23
656.82	1409.00
657.01	1322.99
657.20	1322.99
657.38	1402.86
657.57	1400.81
657.76	1269.74
657.95	1425.39
658.14	1349.61
658.32	1339.37
658.51	1339.37
658.70	1396.71
658.89	1343.47
659.08	1439.72
659.26	1484.78
659.45	1388.52
659.64	1458.15
659.83	1474.54
660.01	1550.31
660.20	1470.44
660.39	1497.07
660.58	1343.47
660.76	1409.00
660.95	1406.95
661.14	1359.85
661.33	1366.00
661.51	1384.43
661.70	1398.76
661.89	1363.95
662.08	1454.06
662.26	1372.14
662.45	1351.66
662.64	1447.91
662.83	1357.80
663.01	1419.24
663.20	1335.28
663.39	1431.53
663.58	1394.67
663.76	1402.86
663.95	1400.81
664.14	1337.32
664.32	1286.12
664.51	1339.37
664.70	1343.47
664.89	1396.71
665.07	1347.56
665.26	1398.76
665.45	1349.61
665.64	1404.91
665.82	1370.09
666.01	1443.82
666.20	1316.84
666.38	1427.43
666.57	1419.24
666.76	1464.30
666.95	2025.44
667.13	4577.21
667.32	11343.70
667.51	17815.28
667.69	21431.99
667.88	24565.39
668.07	24442.51
668.25	18869.98
668.44	13453.11
668.63	11237.20
668.81	9015.16
669.00	7976.84
669.19	7452.56
669.38	6780.82
669.56	6109.09
669.75	5595.05
669.94	4917.17
670.12	4194.24
670.31	3569.61
670.50	3008.47
670.68	2432.99
670.87	2144.22
671.06	1892.32
671.24	1642.47
671.43	1621.99
671.62	1542.12
671.80	1411.05
671.99	1572.84
672.18	1486.83
672.36	1425.39
672.55	1449.96
672.74	1392.62
672.92	1386.47
673.11	1402.86
673.29	1318.89
673.48	1433.58
673.67	1427.43
673.85	1474.54
674.04	1366.00
674.23	1363.95
674.41	1366.00
674.60	1298.41
674.79	1253.36
674.97	1331.18
675.16	1423.34
675.34	1374.19
675.53	1294.32
675.72	1386.47
675.90	1409.00
676.09	1409.00
676.28	1378.28
676.46	1355.76
676.65	1318.89
676.83	1372.14
677.02	1406.95
677.21	1353.71
677.39	1337.32
677.58	1351.66
677.77	1312.75
677.95	1382.38
678.14	1331.18
678.32	1347.56
678.51	1361.90
678.70	1445.87
678.88	1388.52
679.07	1386.47
679.25	1339.37
679.44	1347.56
679.63	1343.47
679.81	1359.85
680.00	1411.05
680.18	1347.56
680.37	1464.30
680.55	1335.28
680.74	1380.33
680.93	1353.71
681.11	1351.66
681.30	1380.33
681.48	1384.43
681.67	1388.52
681.85	1423.34
682.04	1390.57
682.23	1386.47
682.41	1363.95
682.60	1372.14
682.78	1402.86
682.97	1366.00
683.15	1357.80
683.34	1353.71
683.53	1380.33
683.71	1404.91
683.90	1449.96
684.08	1413.10
684.27	1363.95
684.45	1409.00
684.64	1353.71
684.82	1345.52
685.01	1443.82
685.19	1357.80
685.38	1429.48
685.57	1304.56
685.75	1325.04
685.94	1378.28
686.12	1341.42
686.31	1366.00
686.49	1462.25
686.68	1316.84
686.86	1413.10
687.05	1419.24
687.23	1398.76
687.42	1341.42
687.60	1347.56
687.79	1390.57
687.97	1527.78
688.16	1404.91
688.34	1406.95
688.53	1304.56
688.71	1411.05
688.90	1396.71
689.08	1384.43
689.27	1363.95
689.45	1433.58
689.64	1376.24
689.82	1380.33
690.01	1376.24
690.19	1347.56
690.38	1345.52
690.56	1386.47
690.75	1378.28
690.93	1325.04
691.12	1404.91
691.30	1322.99
691.49	1361.90
691.67	1390.57
691.86	1429.48
692.04	1380.33
692.23	1382.38
692.41	1374.19
692.60	1503.21
692.78	1458.15
692.97	1443.82
693.15	1464.30
693.34	1562.60
693.52	1425.39
693.71	1439.72
693.89	1427.43
694.08	1363.95
694.26	1361.90
694.44	1468.39
694.63	1329.13
694.81	1353.71
695.00	1392.62
695.18	1398.76
695.37	1492.97
695.55	1378.28
695.74	1402.86
695.92	1322.99
696.10	1368.04
696.29	1366.00
696.47	1322.99
696.66	1361.90
696.84	1355.76
697.03	1380.33
697.21	1406.95
697.40	1665.00
697.58	1421.29
697.76	1409.00
697.95	1386.47
698.13	1339.37
698.32	1437.67
698.50	1349.61
698.68	1417.19
698.87	1296.36
699.05	1439.72
699.24	1345.52
699.42	1419.24
699.61	1343.47
699.79	1337.32
699.97	1335.28
700.16	1318.89
700.34	1322.99
700.53	1382.38
700.71	1480.68
700.89	1388.52
701.08	1361.90
701.26	1425.39
701.45	1599.46
701.63	1337.32
701.81	1357.80
702.00	1335.28
702.18	1372.14
702.37	1468.39
702.55	1366.00
702.73	1458.15
702.92	1474.54
703.10	1703.91
703.28	1669.09
703.47	1630.18
703.65	1665.00
703.84	1576.94
704.02	1511.40
704.20	1546.22
704.39	1456.11
704.57	1445.87
704.75	1546.22
704.94	1535.98
705.12	1513.45
705.30	1476.59
705.49	1562.60
705.67	1779.68
705.86	3379.15
706.04	9101.17
706.22	16025.36
706.41	19334.87
706.59	22359.72
706.77	23373.47
706.96	19359.45
707.14	13950.76
707.32	11403.09
707.51	9135.99
707.69	8173.44
707.87	7337.87
708.06	6700.95
708.24	6088.61
708.42	5048.24
708.61	4018.11
708.79	2967.51
708.97	2363.36
709.16	1974.24
709.34	1732.58
709.52	1675.24
709.71	1478.63
709.89	1576.94
710.07	1390.57
710.26	1409.00
710.44	1382.38
710.62	1435.63
710.80	1333.23
710.99	1404.91
711.17	1468.39
711.35	1409.00
711.54	1392.62
711.72	1460.20
711.90	1388.52
712.09	1417.19
712.27	1374.19
712.45	1427.43
712.63	1372.14
712.82	1380.33
713.00	1396.71
713.18	1386.47
713.37	1505.26
713.55	1382.38
713.73	1458.15
713.91	1351.66
714.10	1347.56
714.28	1318.89
714.46	1384.43
714.65	1398.76
714.83	1378.28
715.01	1345.52
715.19	1384.43
715.38	1409.00
715.56	1372.14
715.74	1361.90
715.92	1384.43
716.11	1468.39
716.29	1292.27
716.47	1322.99
716.65	1322.99
716.84	1320.94
717.02	1441.77
717.20	1308.65
717.38	1329.13
717.57	1394.67
717.75	1366.00
717.93	1400.81
718.11	1339.37
718.30	1343.47
718.48	1314.80
718.66	1419.24
718.84	1419.24
719.03	1390.57
719.21	1341.42
719.39	1425.39
719.57	1331.18
719.75	1347.56
719.94	1363.95
720.12	1351.66
720.30	1404.91
720.48	1404.91
720.67	1359.85
720.85	1298.41
721.03	1357.80
721.21	1306.60
721.39	1456.11
721.58	1421.29
721.76	1386.47
721.94	1374.19
722.12	1372.14
722.30	1380.33
722.49	1372.14
722.67	1390.57
722.85	1409.00
723.03	1282.03
723.21	1273.84
723.40	1386.47
723.58	1425.39
723.76	1339.37
723.94	1435.63
724.12	1474.54
724.30	1443.82
724.49	1439.72
724.67	1454.06
724.85	1613.80
725.03	1472.49
725.21	1402.86
725.40	1452.01
725.58	1368.04
725.76	1423.34
725.94	1400.81
726.12	1339.37
726.30	1398.76
726.49	1421.29
726.67	1331.18
726.85	1366.00
727.03	1390.57
727.21	1449.96
727.39	1411.05
727.57	2033.63
727.76	3375.05
727.94	4476.86
728.12	5015.48
728.30	5273.52
728.48	5193.65
728.66	4184.00
728.84	3424.20
729.03	3084.24
729.21	2838.48
729.39	2611.16
729.57	2256.86
729.75	2037.73
729.93	1789.92
730.11	1628.14
730.30	1476.59
730.48	1464.30
730.66	1533.93
730.84	1509.35
731.02	1339.37
731.20	1386.47
731.38	1415.15
731.56	1380.33
731.74	1257.45
731.93	1388.52
732.11	1304.56
732.29	1357.80
732.47	1374.19
732.65	1417.19
732.83	1409.00
733.01	1409.00
733.19	1284.08
733.37	1396.71
733.56	1400.81
733.74	1353.71
733.92	1433.58
734.10	1327.08
734.28	1429.48
734.46	1318.89
734.64	1361.90
734.82	1382.38
735.00	1363.95
735.18	1335.28
735.36	1345.52
735.54	1376.24
735.73	1343.47
735.91	1355.76
736.09	1406.95
736.27	1353.71
736.45	1388.52
736.63	1308.65
736.81	1331.18
736.99	1470.44
737.17	1466.35
737.35	1306.60
737.53	1361.90
737.71	1435.63
737.89	1411.05
738.07	1363.95
738.25	1337.32
738.43	1290.22
738.61	1394.67
738.80	1361.90
738.98	1353.71
739.16	1282.03
739.34	1325.04
739.52	1435.63
739.70	1351.66
739.88	1460.20
740.06	1423.34
740.24	1312.75
740.42	1435.63
740.60	1302.51
740.78	1341.42
740.96	1288.17
741.14	1314.80
741.32	1335.28
741.50	1292.27
741.68	1347.56
741.86	1419.24
742.04	1406.95
742.22	1331.18
742.40	1355.76
742.58	1355.76
742.76	1359.85
742.94	1384.43
743.12	1353.71
743.30	1359.85
743.48	1449.96
743.66	1370.09
743.84	1372.14
744.02	1406.95
744.20	1435.63
744.38	1376.24
744.56	1339.37
744.74	1472.49
744.92	1384.43
745.10	1423.34
745.28	1447.91
745.46	1490.92
745.64	1353.71
745.82	1331.18
746.00	1402.86
746.18	1347.56
746.36	1386.47
746.54	1343.47
746.72	1351.66
746.90	1359.85
747.08	1380.33
747.26	1368.04
747.44	1406.95
747.62	1339.37
747.80	1335.28
747.98	1400.81
748.15	1394.67
748.33	1355.76
748.51	1292.27
748.69	1449.96
748.87	1322.99
749.05	1460.20
749.23	1435.63
749.41	1441.77
749.59	1404.91
749.77	1396.71
749.95	1376.24
750.13	1343.47
750.31	1396.71
750.49	1290.22
750.67	1359.85
750.85	1417.19
751.03	1361.90
751.20	1478.63
751.38	1390.57
751.56	1353.71
751.74	1456.11
751.92	1322.99
752.10	1320.94
752.28	1431.53
752.46	1359.85
752.64	1372.14
752.82	1376.24
753.00	1370.09
753.18	1427.43
753.35	1388.52
753.53	1372.14
753.71	1419.24
753.89	1437.67
754.07	1388.52
754.25	1503.21
754.43	1447.91
754.61	1320.94
754.79	1402.86
754.97	1388.52
755.14	1345.52
755.32	1351.66
755.50	1384.43
755.68	1404.91
755.86	1363.95
756.04	1366.00
756.22	1374.19
756.40	1353.71
756.57	1458.15
756.75	1384.43
756.93	1396.71
757.11	1478.63
757.29	1286.12
757.47	1366.00
757.65	1314.80
757.82	1255.40
758.00	1380.33
758.18	1415.15
758.36	1357.80
758.54	1388.52
758.72	1351.66
758.90	1368.04
759.07	1282.03
759.25	1400.81
759.43	1286.12
759.61	1284.08
759.79	1636.33
759.97	1394.67
760.15	1343.47
760.32	1322.99
760.50	1388.52
760.68	1476.59
760.86	1269.74
761.04	1413.10
761.22	1374.19
761.39	1370.09
761.57	1322.99
761.75	1347.56
761.93	1325.04
762.11	1396.71
762.28	1406.95
762.46	1308.65
762.64	1392.62
762.82	1345.52
763.00	1351.66
763.18	1388.52
763.35	1296.36
763.53	1368.04
763.71	1413.10
763.89	1415.15
764.07	1411.05
764.24	1396.71
764.42	1388.52
764.60	1376.24
764.78	1406.95
764.96	1386.47
765.13	1370.09
765.31	1378.28
765.49	1368.04
765.67	1374.19
765.84	1329.13
766.02	1298.41
766.20	1372.14
766.38	1404.91
766.56	1347.56
766.73	1398.76
766.91	1423.34
767.09	1343.47
767.27	1388.52
767.44	1339.37
767.62	1460.20
767.80	1357.80
767.98	1320.94
768.15	1390.57
768.33	1396.71
768.51	1396.71
768.69	1351.66
768.87	1355.76
769.04	1372.14
769.22	1409.00
769.40	1351.66
769.58	1468.39
769.75	1335.28
769.93	1415.15
770.11	1372.14
770.28	1337.32
770.46	1339.37
770.64	1417.19
770.82	1433.58
770.99	1431.53
771.17	1357.80
771.35	1325.04
771.53	1312.75
771.70	1368.04
771.88	1390.57
772.06	1345.52
772.23	1374.19
772.41	1372.14
772.59	1390.57
772.77	1392.62
772.94	1259.50
773.12	1372.14
773.30	1411.05
773.47	1370.09
773.65	1308.65
773.83	1417.19
774.01	1406.95
774.18	1277.93
774.36	1232.88
774.54	1273.84
774.71	1314.80
774.89	1357.80
775.07	1363.95
775.24	1396.71
775.42	1282.03
775.60	1437.67
775.78	1294.32
775.95	1363.95
776.13	1306.60
776.31	1239.02
776.48	1384.43
776.66	1368.04
776.84	1349.61
777.01	1345.52
777.19	1322.99
777.37	1404.91
777.54	1372.14
777.72	1368.04
777.90	1304.56
778.07	1396.71
778.25	1535.98
778.43	1386.47
778.60	1396.71
778.78	1368.04
778.96	1460.20
779.13	1341.42
779.31	1458.15
779.49	1421.29
779.66	1482.73
779.84	1298.41
780.01	1361.90
780.19	1435.63
780.37	1404.91
780.54	1427.43
780.72	1329.13
780.90	1337.32
781.07	1318.89
781.25	1339.37
781.43	1415.15
781.60	1368.04
781.78	1433.58
781.95	1370.09
782.13	1376.24
782.31	1341.42
782.48	1286.12
782.66	1318.89
782.83	1363.95
783.01	1290.22
783.19	1359.85
783.36	1349.61
783.54	1294.32
783.72	1413.10
783.89	1363.95
784.07	1347.56
784.24	1388.52
784.42	1411.05
784.60	1380.33
784.77	1372.14
784.95	1292.27
785.12	1325.04
785.30	1353.71
785.47	1302.51
785.65	1316.84
785.83	1314.80
786.00	1304.56
786.18	1357.80
786.35	1357.80
786.53	1351.66
786.71	1382.38
786.88	1454.06
787.06	1409.00
787.23	1388.52
787.41	1304.56
787.58	1388.52
787.76	1376.24
787.94	1329.13
788.11	1374.19
788.29	1300.46
788.46	1355.76
788.64	1267.69
788.81	1363.95
788.99	1370.09
789.16	1337.32
789.34	1335.28
789.52	1406.95
789.69	1376.24
789.87	1372.14
790.04	1335.28
790.22	1296.36
790.39	1443.82
790.57	1204.21
790.74	1413.10
790.92	1421.29
791.09	1333.23
791.27	1359.85
791.44	1413.10
791.62	1366.00
791.79	1368.04
791.97	1349.61
792.15	1482.73
792.32	1290.22
792.50	1413.10
792.67	1435.63
792.85	1402.86
793.02	1327.08
793.20	1306.60
793.37	1282.03
793.55	1384.43
793.72	1366.00
793.90	1390.57
794.07	1353.71
794.25	1290.22
794.42	1359.85
794.60	1359.85
794.77	1349.61
794.95	1380.33
795.12	1333.23
795.30	1349.61
795.47	1331.18
795.65	1478.63
795.82	1294.32
796.00	1294.32
796.17	1284.08
796.34	1361.90
796.52	1406.95
796.69	1421.29
796.87	1327.08
797.04	1394.67
797.22	1384.43
797.39	1386.47
797.57	1427.43
797.74	1374.19
797.92	1368.04
798.09	1320.94
798.27	1388.52
798.44	1394.67
798.62	1370.09
798.79	1361.90
798.96	1361.90
799.14	1361.90
799.31	1376.24
799.49	1341.42
799.66	1376.24
799.84	1363.95
800.01	1318.89
800.19	1331.18
800.36	1353.71
800.53	1454.06
800.71	1400.81
800.88	1425.39
801.06	1413.10
801.23	1404.91
801.41	1390.57
801.58	1325.04
801.75	1368.04
801.93	1380.33
802.10	1413.10
802.28	1398.76
802.45	1333.23
802.63	1400.81
802.80	1437.67
802.97	1355.76
803.15	1351.66
803.32	1347.56
803.50	1294.32
803.67	1331.18
803.84	1318.89
804.02	1335.28
804.19	1322.99
804.37	1282.03
804.54	1366.00
804.71	1333.23
804.89	1460.20
805.06	1286.12
805.24	1404.91
805.41	1329.13
805.58	1298.41
805.76	1380.33
805.93	1421.29
806.10	1417.19
806.28	1392.62
806.45	1400.81
806.63	1333.23
806.80	1368.04
806.97	1396.71
807.15	1386.47
807.32	1322.99
807.49	1404.91
807.67	1353.71
807.84	1368.04
808.01	1316.84
808.19	1419.24
808.36	1470.44
808.54	1370.09
808.71	1409.00
808.88	1298.41
809.06	1447.91
809.23	1509.35
809.40	1355.76
809.58	1409.00
809.75	1361.90
809.92	1277.93
810.10	1406.95
810.27	1310.70
810.44	1429.48
810.62	1380.33
810.79	1415.15
810.96	1359.85
811.14	1376.24
811.31	1390.57
811.48	1396.71
811.66	1353.71
811.83	1417.19
812.00	1372.14
812.18	1380.33
812.35	1409.00
812.52	1325.04
812.69	1396.71
812.87	1314.80
813.04	1404.91
813.21	1279.98
813.39	1394.67
813.56	1357.80
813.73	1404.91
813.91	1329.13
814.08	1329.13
814.25	1386.47
814.42	1361.90
814.60	1335.28
814.77	1363.95
814.94	1325.04
815.12	1378.28
815.29	1361.90
815.46	1318.89
815.63	1376.24
815.81	1411.05
815.98	1361.90
816.15	1388.52
816.33	1345.52
816.50	1335.28
816.67	1363.95
816.84	1404.91
817.02	1327.08
817.19	1392.62
817.36	1402.86
817.53	1304.56
817.71	1378.28
817.88	1376.24
818.05	1396.71
818.22	1421.29
818.40	1406.95
818.57	1277.93
818.74	1322.99
818.91	1370.09
819.09	1406.95
819.26	1331.18
819.43	1286.12
819.60	1314.80
819.78	1351.66
819.95	1394.67
820.12	1316.84
820.29	1361.90
820.47	1372.14
820.64	1429.48
820.81	1331.18
820.98	1363.95
821.15	1339.37
821.33	1425.39
821.50	1333.23
821.67	1359.85
821.84	1292.27
822.02	1404.91
822.19	1392.62
822.36	1282.03
822.53	1314.80
822.70	1361.90
822.88	1411.05
823.05	1409.00
823.22	1384.43
823.39	1394.67
823.56	1349.61
823.74	1423.34
823.91	1298.41
824.08	1331.18
824.25	1339.37
824.42	1413.10
824.60	1394.67
824.77	1345.52
824.94	1376.24
825.11	1435.63
825.28	1357.80
825.45	1353.71
825.63	1429.48
825.80	1304.56
825.97	1382.38
826.14	1370.09
826.31	1331.18
826.48	1435.63
826.66	1302.51
826.83	1359.85
827.00	1335.28
827.17	1363.95
827.34	1386.47
827.51	1294.32
827.69	1495.02
827.86	1308.65
828.03	1378.28
828.20	1378.28
828.37	1409.00
828.54	1419.24
828.71	1284.08
828.89	1542.12
829.06	1312.75
829.23	1429.48
829.40	1382.38
829.57	1327.08
829.74	1394.67
829.91	1298.41
830.09	1277.93
830.26	1384.43
830.43	1394.67
830.60	1366.00
830.77	1478.63
830.94	1425.39
831.11	1388.52
831.28	1273.84
831.46	1353.71
831.63	1288.17
831.80	1394.67
831.97	1370.09
832.14	1366.00
832.31	1429.48
832.48	1337.32
832.65	1404.91
832.82	1396.71
832.99	1378.28
833.17	1316.84
833.34	1456.11
833.51	1337.32
833.68	1351.66
833.85	1392.62
834.02	1386.47
834.19	1325.04
834.36	1345.52
834.53	1368.04
834.70	1378.28
834.87	1443.82
835.04	1322.99
835.22	1341.42
835.39	1425.39
835.56	1308.65
835.73	1386.47
835.90	1409.00
836.07	1312.75
836.24	1472.49
836.41	1386.47
836.58	1275.88
836.75	1341.42
836.92	1265.64
837.09	1394.67
837.26	1449.96
837.43	1353.71
837.60	1411.05
837.77	1372.14
837.94	1345.52
838.12	1439.72
838.29	1337.32
838.46	1277.93
838.63	1302.51
838.80	1400.81
838.97	1343.47
839.14	1447.91
839.31	1359.85
839.48	1353.71
839.65	1351.66
839.82	1351.66
839.99	1306.60
840.16	1282.03
840.33	1312.75
840.50	1335.28
840.67	1304.56
840.84	1302.51
841.01	1257.45
841.18	1347.56
841.35	1341.42
841.52	1402.86
841.69	1409.00
841.86	1376.24
842.03	1372.14
842.20	1353.71
842.37	1308.65
842.54	1378.28
842.71	1394.67
842.88	1357.80
843.05	1337.32
843.22	1361.90
843.39	1374.19
843.56	1310.70
843.73	1419.24
843.90	1368.04
844.07	1335.28
844.24	1421.29
844.41	1392.62
844.58	1359.85
844.75	1339.37
844.92	1384.43
845.09	1366.00
845.26	1318.89
845.43	1454.06
845.60	1376.24
845.77	1404.91
845.94	1306.60
846.10	1427.43
846.27	1247.21
846.44	1267.69
846.61	1263.60
846.78	1361.90
846.95	1458.15
847.12	1333.23
847.29	1347.56
847.46	1341.42
847.63	1460.20
847.80	1339.37
847.97	1380.33
848.14	1435.63
848.31	1306.60
848.48	1320.94
848.65	1316.84
848.82	1316.84
848.98	1402.86
849.15	1394.67
849.32	1411.05
849.49	1445.87
849.66	1370.09
849.83	1384.43
850.00	1339.37
850.17	1386.47
850.34	1353.71
850.51	1300.46
850.68	1327.08
850.85	1456.11
851.01	1333.23
851.18	1312.75
851.35	1353.71
851.52	1349.61
851.69	1445.87
851.86	1376.24
852.03	1357.80
852.20	1484.78
852.37	1429.48
852.53	1320.94
852.70	1380.33
852.87	1390.57
853.04	1390.57
853.21	1341.42
853.38	1341.42
853.55	1345.52
853.72	1429.48
853.89	1322.99
854.05	1376.24
854.22	1363.95
854.39	1273.84
854.56	1333.23
854.73	1398.76
854.90	1316.84
855.07	1290.22
855.23	1361.90
855.40	1310.70
855.57	1386.47
855.74	1345.52
855.91	1437.67
856.08	1284.08
856.25	1341.42
856.41	1404.91
856.58	1378.28
856.75	1370.09
856.92	1411.05
857.09	1376.24
857.26	1357.80
857.42	1419.24
857.59	1322.99
857.76	1366.00
857.93	1333.23
858.10	1345.52
858.27	1304.56
858.43	1417.19
858.60	1343.47
858.77	1339.37
858.94	1349.61
859.11	1419.24
859.27	1388.52
859.44	1394.67
859.61	1333.23
859.78	1468.39
859.95	1322.99
860.12	1351.66
860.28	1409.00
860.45	1449.96
860.62	1378.28
860.79	1425.39
860.95	1427.43
861.12	1372.14
861.29	1425.39
861.46	1339.37
861.63	1341.42
861.79	1345.52
861.96	1335.28
862.13	1353.71
862.30	1296.36
862.47	1396.71
862.63	1351.66
862.80	1370.09
862.97	1452.01
863.14	1429.48
863.30	1400.81
863.47	1357.80
863.64	1435.63
863.81	1368.04
863.97	1314.80
864.14	1353.71
864.31	1308.65
864.48	1339.37
864.65	1429.48
864.81	1400.81
864.98	1363.95
865.15	1429.48
865.32	1409.00
865.48	1404.91
865.65	1390.57
865.82	1370.09
865.98	1374.19
866.15	1431.53
866.32	1384.43
866.49	1316.84
866.65	1411.05
866.82	1337.32
866.99	1351.66
867.16	1419.24
867.32	1415.15
867.49	1372.14
867.66	1394.67
867.83	1370.09
867.99	1349.61
868.16	1411.05
868.33	1327.08
868.49	1437.67
868.66	1314.80
868.83	1427.43
868.99	1366.00
869.16	1363.95
869.33	1478.63
869.50	1435.63
869.66	1349.61
869.83	1320.94
870.00	1298.41
870.16	1417.19
870.33	1345.52
870.50	1380.33
870.66	1366.00
870.83	1458.15
871.00	1329.13
871.17	1378.28
871.33	1427.43
871.50	1396.71
871.67	1269.74
871.83	1363.95
872.00	1378.28
872.17	1337.32
872.33	1370.09
872.50	1386.47
872.67	1370.09
872.83	1277.93
873.00	1355.76
873.17	1384.43
873.33	1439.72
873.50	1462.25
873.67	1294.32
873.83	1357.80
874.00	1345.52
874.16	1454.06
874.33	1390.57
874.50	1320.94
874.66	1343.47
874.83	1366.00
875.00	1409.00
875.16	1386.47
875.33	1337.32
875.50	1267.69
875.66	1374.19
875.83	1351.66
875.99	1382.38
876.16	1353.71
876.33	1314.80
876.49	1392.62
876.66	1425.39
876.83	1366.00
876.99	1329.13
877.16	1374.19
877.32	1380.33
877.49	1413.10
877.66	1341.42
877.82	1462.25
877.99	1310.70
878.15	1392.62
878.32	1421.29
878.49	1388.52
878.65	1378.28
878.82	1380.33
878.98	1314.80
879.15	1435.63
879.32	1372.14
879.48	1378.28
879.65	1378.28
879.81	1341.42
879.98	1406.95
880.15	1331.18
880.31	1378.28
880.48	1320.94
880.64	1366.00
880.81	1341.42
880.97	1363.95
881.14	1419.24
881.31	1361.90
881.47	1507.30
881.64	1306.60
881.80	1279.98
881.97	1357.80
882.13	1380.33
882.30	1382.38
882.47	1366.00
882.63	1308.65
882.80	1341.42
882.96	1304.56
883.13	1406.95
883.29	1343.47
883.46	1380.33
883.62	1390.57
883.79	1433.58
883.95	1374.19
884.12	1353.71
884.29	1400.81
884.45	1435.63
884.62	1355.76
884.78	1398.76
884.95	1372.14
885.11	1347.56
885.28	1396.71
885.44	1372.14
885.61	1452.01
885.77	1447.91
885.94	1378.28
886.10	1445.87
886.27	1431.53
886.43	1433.58
886.60	1355.76
886.76	1382.38
886.93	1279.98
887.09	1394.67
887.26	1351.66
887.42	1277.93
887.59	1368.04
887.75	1460.20
887.92	1404.91
888.08	1314.80
888.25	1433.58
888.41	1433.58
888.58	1322.99
888.74	1398.76
888.91	1392.62
>>>>>End Processed Spectral Data<<<<<
