SpectraSuite Data File
++++++++++++++++++++++++++++++++++++
Date: Tue May 03 11:24:04 CEST 2016
User: root
Dark Spectrum Present: No
Reference Spectrum Present: No
Number of Sampled Component Spectra: 1
Spectrometers: USB4C02835
Integration Time (usec): 100000 (USB4C02835)
Spectra Averaged: 1 (USB4C02835)
Boxcar Smoothing: 0 (USB4C02835)
Correct for Electrical Dark: No (USB4C02835)
Strobe/Lamp Enabled: No (USB4C02835)
Correct for Detector Non-linearity: No (USB4C02835)
Correct for Stray Light: No (USB4C02835)
Number of Pixels in Processed Spectrum: 3648
>>>>>Begin Processed Spectral Data<<<<<
177.47	1196.01
177.69	1196.01
177.91	1196.01
178.13	1196.01
178.36	1171.44
178.58	1292.27
178.80	1380.33
179.02	1271.79
179.24	1296.36
179.46	1314.80
179.68	1388.52
179.90	1380.33
180.13	1372.14
180.35	1298.41
180.57	1347.56
180.79	1372.14
181.01	1388.52
181.23	1384.43
181.45	1425.39
181.67	1370.09
181.90	1370.09
182.12	1314.80
182.34	1343.47
182.56	1421.29
182.78	1402.86
183.00	1400.81
183.22	1366.00
183.44	1306.60
183.66	1378.28
183.89	1386.47
184.11	1355.76
184.33	1439.72
184.55	1392.62
184.77	1402.86
184.99	1310.70
185.21	1333.23
185.43	1447.91
185.65	1327.08
185.87	1437.67
186.10	1433.58
186.32	1488.87
186.54	1372.14
186.76	1400.81
186.98	1361.90
187.20	1282.03
187.42	1255.40
187.64	1363.95
187.86	1308.65
188.08	1298.41
188.30	1337.32
188.52	1441.77
188.75	1386.47
188.97	1380.33
189.19	1333.23
189.41	1357.80
189.63	1368.04
189.85	1368.04
190.07	1327.08
190.29	1394.67
190.51	1390.57
190.73	1339.37
190.95	1388.52
191.17	1378.28
191.39	1277.93
191.61	1288.17
191.84	1404.91
192.06	1378.28
192.28	1290.22
192.50	1476.59
192.72	1458.15
192.94	1409.00
193.16	1443.82
193.38	1464.30
193.60	1314.80
193.82	1429.48
194.04	1363.95
194.26	1425.39
194.48	1427.43
194.70	1396.71
194.92	1359.85
195.14	1390.57
195.36	1390.57
195.58	1386.47
195.80	1337.32
196.02	1308.65
196.24	1357.80
196.46	1351.66
196.69	1347.56
196.91	1435.63
197.13	1339.37
197.35	1390.57
197.57	1394.67
197.79	1357.80
198.01	1392.62
198.23	1441.77
198.45	1351.66
198.67	1302.51
198.89	1345.52
199.11	1320.94
199.33	1294.32
199.55	1294.32
199.77	1427.43
199.99	1396.71
200.21	1327.08
200.43	1308.65
200.65	1351.66
200.87	1312.75
201.09	1429.48
201.31	1308.65
201.53	1421.29
201.75	1378.28
201.97	1386.47
202.19	1390.57
202.41	1449.96
202.63	1409.00
202.85	1423.34
203.07	1411.05
203.29	1382.38
203.51	1353.71
203.73	1400.81
203.95	1462.25
204.17	1390.57
204.39	1382.38
204.61	1378.28
204.83	1310.70
205.05	1409.00
205.27	1390.57
205.49	1429.48
205.71	1382.38
205.93	1277.93
206.15	1339.37
206.37	1413.10
206.59	1343.47
206.81	1392.62
207.03	1261.55
207.25	1351.66
207.47	1363.95
207.69	1335.28
207.91	1421.29
208.13	1447.91
208.34	1304.56
208.56	1380.33
208.78	1404.91
209.00	1351.66
209.22	1372.14
209.44	1329.13
209.66	1320.94
209.88	1355.76
210.10	1355.76
210.32	1370.09
210.54	1470.44
210.76	1300.46
210.98	1419.24
211.20	1376.24
211.42	1380.33
211.64	1396.71
211.86	1370.09
212.08	1411.05
212.30	1300.46
212.52	1386.47
212.74	1384.43
212.96	1355.76
213.17	1380.33
213.39	1396.71
213.61	1378.28
213.83	1347.56
214.05	1282.03
214.27	1382.38
214.49	1357.80
214.71	1361.90
214.93	1370.09
215.15	1279.98
215.37	1449.96
215.59	1372.14
215.81	1378.28
216.03	1445.87
216.24	1382.38
216.46	1406.95
216.68	1378.28
216.90	1355.76
217.12	1404.91
217.34	1394.67
217.56	1363.95
217.78	1349.61
218.00	1458.15
218.22	1325.04
218.44	1452.01
218.66	1300.46
218.87	1468.39
219.09	1366.00
219.31	1486.83
219.53	1382.38
219.75	1351.66
219.97	1357.80
220.19	1411.05
220.41	1423.34
220.63	1421.29
220.85	1417.19
221.06	1361.90
221.28	1394.67
221.50	1425.39
221.72	1425.39
221.94	1396.71
222.16	1406.95
222.38	1351.66
222.60	1466.35
222.82	1392.62
223.03	1306.60
223.25	1310.70
223.47	1363.95
223.69	1490.92
223.91	1400.81
224.13	1454.06
224.35	1411.05
224.57	1443.82
224.78	1337.32
225.00	1357.80
225.22	1341.42
225.44	1363.95
225.66	1368.04
225.88	1488.87
226.10	1357.80
226.32	1400.81
226.53	1417.19
226.75	1366.00
226.97	1456.11
227.19	1409.00
227.41	1296.36
227.63	1306.60
227.85	1273.84
228.06	1376.24
228.28	1351.66
228.50	1409.00
228.72	1433.58
228.94	1378.28
229.16	1273.84
229.37	1337.32
229.59	1300.46
229.81	1290.22
230.03	1376.24
230.25	1333.23
230.47	1345.52
230.69	1302.51
230.90	1417.19
231.12	1361.90
231.34	1409.00
231.56	1347.56
231.78	1286.12
232.00	1374.19
232.21	1439.72
232.43	1345.52
232.65	1263.60
232.87	1318.89
233.09	1337.32
233.30	1339.37
233.52	1386.47
233.74	1349.61
233.96	1353.71
234.18	1355.76
234.40	1411.05
234.61	1402.86
234.83	1392.62
235.05	1304.56
235.27	1435.63
235.49	1419.24
235.70	1320.94
235.92	1411.05
236.14	1322.99
236.36	1486.83
236.58	1366.00
236.79	1368.04
237.01	1380.33
237.23	1331.18
237.45	1421.29
237.67	1355.76
237.88	1382.38
238.10	1492.97
238.32	1322.99
238.54	1443.82
238.76	1333.23
238.97	1372.14
239.19	1382.38
239.41	1464.30
239.63	1359.85
239.85	1366.00
240.06	1353.71
240.28	1406.95
240.50	1464.30
240.72	1372.14
240.93	1388.52
241.15	1423.34
241.37	1343.47
241.59	1390.57
241.81	1402.86
242.02	1316.84
242.24	1411.05
242.46	1415.15
242.68	1411.05
242.89	1413.10
243.11	1419.24
243.33	1325.04
243.55	1404.91
243.76	1449.96
243.98	1363.95
244.20	1372.14
244.42	1443.82
244.64	1312.75
244.85	1361.90
245.07	1259.50
245.29	1413.10
245.51	1458.15
245.72	1380.33
245.94	1452.01
246.16	1406.95
246.38	1437.67
246.59	1322.99
246.81	1345.52
247.03	1368.04
247.24	1347.56
247.46	1277.93
247.68	1351.66
247.90	1355.76
248.11	1382.38
248.33	1433.58
248.55	1366.00
248.77	1429.48
248.98	1404.91
249.20	1435.63
249.42	1349.61
249.64	1392.62
249.85	1380.33
250.07	1327.08
250.29	1431.53
250.50	1413.10
250.72	1366.00
250.94	1374.19
251.16	1441.77
251.37	1454.06
251.59	1370.09
251.81	1437.67
252.02	1458.15
252.24	1304.56
252.46	1390.57
252.68	1363.95
252.89	1368.04
253.11	1290.22
253.33	1445.87
253.54	1452.01
253.76	1277.93
253.98	1413.10
254.20	1339.37
254.41	1331.18
254.63	1337.32
254.85	1351.66
255.06	1439.72
255.28	1404.91
255.50	1392.62
255.71	1382.38
255.93	1329.13
256.15	1310.70
256.36	1439.72
256.58	1304.56
256.80	1359.85
257.02	1378.28
257.23	1331.18
257.45	1347.56
257.67	1492.97
257.88	1445.87
258.10	1445.87
258.32	1368.04
258.53	1404.91
258.75	1366.00
258.97	1372.14
259.18	1349.61
259.40	1368.04
259.62	1421.29
259.83	1406.95
260.05	1368.04
260.27	1597.42
260.48	1392.62
260.70	1351.66
260.92	1380.33
261.13	1384.43
261.35	1329.13
261.57	1411.05
261.78	1304.56
262.00	1290.22
262.22	1355.76
262.43	1394.67
262.65	1277.93
262.86	1370.09
263.08	1409.00
263.30	1386.47
263.51	1312.75
263.73	1353.71
263.95	1382.38
264.16	1345.52
264.38	1353.71
264.60	1273.84
264.81	1316.84
265.03	1462.25
265.25	1349.61
265.46	1411.05
265.68	1411.05
265.89	1406.95
266.11	1351.66
266.33	1329.13
266.54	1413.10
266.76	1411.05
266.98	1398.76
267.19	1439.72
267.41	1290.22
267.62	1394.67
267.84	1298.41
268.06	1396.71
268.27	1378.28
268.49	1400.81
268.70	1310.70
268.92	1255.40
269.14	1376.24
269.35	1312.75
269.57	1337.32
269.79	1290.22
270.00	1421.29
270.22	1433.58
270.43	1439.72
270.65	1251.31
270.87	1318.89
271.08	1355.76
271.30	1404.91
271.51	1390.57
271.73	1425.39
271.95	1384.43
272.16	1374.19
272.38	1374.19
272.59	1411.05
272.81	1355.76
273.02	1400.81
273.24	1368.04
273.46	1421.29
273.67	1325.04
273.89	1304.56
274.10	1337.32
274.32	1396.71
274.54	1363.95
274.75	1384.43
274.97	1271.79
275.18	1421.29
275.40	1413.10
275.61	1273.84
275.83	1349.61
276.05	1308.65
276.26	1335.28
276.48	1406.95
276.69	1355.76
276.91	1394.67
277.12	1345.52
277.34	1425.39
277.55	1415.15
277.77	1421.29
277.99	1415.15
278.20	1304.56
278.42	1288.17
278.63	1380.33
278.85	1333.23
279.06	1300.46
279.28	1372.14
279.49	1382.38
279.71	1454.06
279.93	1288.17
280.14	1333.23
280.36	1341.42
280.57	1411.05
280.79	1443.82
281.00	1292.27
281.22	1370.09
281.43	1284.08
281.65	1269.74
281.86	1320.94
282.08	1394.67
282.29	1433.58
282.51	1339.37
282.73	1290.22
282.94	1341.42
283.16	1400.81
283.37	1458.15
283.59	1396.71
283.80	1357.80
284.02	1298.41
284.23	1320.94
284.45	1345.52
284.66	1279.98
284.88	1359.85
285.09	1310.70
285.31	1425.39
285.52	1382.38
285.74	1380.33
285.95	1390.57
286.17	1406.95
286.38	1417.19
286.60	1353.71
286.81	1370.09
287.03	1306.60
287.24	1384.43
287.46	1492.97
287.67	1366.00
287.89	1437.67
288.10	1310.70
288.32	1296.36
288.53	1435.63
288.75	1427.43
288.96	1374.19
289.18	1314.80
289.39	1376.24
289.61	1419.24
289.82	1472.49
290.04	1449.96
290.25	1275.88
290.47	1370.09
290.68	1372.14
290.90	1437.67
291.11	1306.60
291.33	1361.90
291.54	1370.09
291.76	1388.52
291.97	1400.81
292.18	1398.76
292.40	1296.36
292.61	1370.09
292.83	1384.43
293.04	1419.24
293.26	1327.08
293.47	1345.52
293.69	1294.32
293.90	1406.95
294.12	1417.19
294.33	1374.19
294.55	1335.28
294.76	1402.86
294.97	1357.80
295.19	1429.48
295.40	1370.09
295.62	1347.56
295.83	1415.15
296.05	1306.60
296.26	1400.81
296.48	1404.91
296.69	1368.04
296.90	1374.19
297.12	1368.04
297.33	1429.48
297.55	1374.19
297.76	1312.75
297.98	1341.42
298.19	1417.19
298.41	1376.24
298.62	1363.95
298.83	1396.71
299.05	1327.08
299.26	1320.94
299.48	1378.28
299.69	1308.65
299.90	1398.76
300.12	1394.67
300.33	1394.67
300.55	1353.71
300.76	1329.13
300.98	1318.89
301.19	1386.47
301.40	1390.57
301.62	1353.71
301.83	1378.28
302.05	1308.65
302.26	1273.84
302.47	1380.33
302.69	1404.91
302.90	1394.67
303.12	1327.08
303.33	1374.19
303.54	1427.43
303.76	1409.00
303.97	1429.48
304.19	1396.71
304.40	1318.89
304.61	1341.42
304.83	1517.54
305.04	1370.09
305.26	1445.87
305.47	1339.37
305.68	1368.04
305.90	1355.76
306.11	1349.61
306.33	1347.56
306.54	1372.14
306.75	1333.23
306.97	1359.85
307.18	1337.32
307.39	1304.56
307.61	1460.20
307.82	1335.28
308.04	1384.43
308.25	1386.47
308.46	1376.24
308.68	1406.95
308.89	1308.65
309.10	1376.24
309.32	1425.39
309.53	1413.10
309.74	1347.56
309.96	1335.28
310.17	1361.90
310.39	1406.95
310.60	1394.67
310.81	1353.71
311.03	1298.41
311.24	1437.67
311.45	1378.28
311.67	1439.72
311.88	1411.05
312.09	1314.80
312.31	1337.32
312.52	1392.62
312.73	1320.94
312.95	1306.60
313.16	1394.67
313.37	1396.71
313.59	1370.09
313.80	1259.50
314.01	1452.01
314.23	1349.61
314.44	1347.56
314.65	1386.47
314.87	1322.99
315.08	1378.28
315.29	1345.52
315.51	1316.84
315.72	1288.17
315.93	1443.82
316.15	1386.47
316.36	1241.07
316.57	1359.85
316.79	1409.00
317.00	1302.51
317.21	1411.05
317.43	1329.13
317.64	1378.28
317.85	1306.60
318.07	1421.29
318.28	1552.36
318.49	1507.30
318.70	1634.28
318.92	1583.08
319.13	1501.16
319.34	1484.78
319.56	1597.42
319.77	1388.52
319.98	1468.39
320.20	1454.06
320.41	1409.00
320.62	1439.72
320.83	1390.57
321.05	1460.20
321.26	1390.57
321.47	1462.25
321.69	1384.43
321.90	1390.57
322.11	1316.84
322.32	1320.94
322.54	1466.35
322.75	1355.76
322.96	1472.49
323.18	1271.79
323.39	1273.84
323.60	1320.94
323.81	1353.71
324.03	1378.28
324.24	1413.10
324.45	1302.51
324.66	1392.62
324.88	1320.94
325.09	1388.52
325.30	1296.36
325.52	1406.95
325.73	1409.00
325.94	1361.90
326.15	1216.49
326.37	1329.13
326.58	1388.52
326.79	1456.11
327.00	1312.75
327.22	1390.57
327.43	1337.32
327.64	1322.99
327.85	1398.76
328.07	1353.71
328.28	1392.62
328.49	1337.32
328.70	1335.28
328.92	1415.15
329.13	1316.84
329.34	1331.18
329.55	1421.29
329.76	1415.15
329.98	1304.56
330.19	1380.33
330.40	1361.90
330.61	1290.22
330.83	1404.91
331.04	1339.37
331.25	1384.43
331.46	1417.19
331.68	1376.24
331.89	1419.24
332.10	1345.52
332.31	1372.14
332.52	1417.19
332.74	1322.99
332.95	1308.65
333.16	1402.86
333.37	1425.39
333.58	1320.94
333.80	1306.60
334.01	1384.43
334.22	1384.43
334.43	1312.75
334.64	1351.66
334.86	1406.95
335.07	1378.28
335.28	1406.95
335.49	1327.08
335.70	1337.32
335.92	1335.28
336.13	1437.67
336.34	1411.05
336.55	1316.84
336.76	1294.32
336.98	1341.42
337.19	1288.17
337.40	1390.57
337.61	1445.87
337.82	1312.75
338.04	1396.71
338.25	1279.98
338.46	1370.09
338.67	1384.43
338.88	1288.17
339.09	1380.33
339.31	1386.47
339.52	1314.80
339.73	1302.51
339.94	1404.91
340.15	1466.35
340.36	1359.85
340.58	1388.52
340.79	1325.04
341.00	1380.33
341.21	1376.24
341.42	1495.02
341.63	1388.52
341.85	1468.39
342.06	1443.82
342.27	1370.09
342.48	1404.91
342.69	1337.32
342.90	1427.43
343.12	1413.10
343.33	1310.70
343.54	1366.00
343.75	1445.87
343.96	1382.38
344.17	1312.75
344.38	1337.32
344.60	1320.94
344.81	1353.71
345.02	1357.80
345.23	1437.67
345.44	1460.20
345.65	1435.63
345.86	1368.04
346.07	1339.37
346.29	1359.85
346.50	1437.67
346.71	1427.43
346.92	1417.19
347.13	1452.01
347.34	1351.66
347.55	1380.33
347.76	1384.43
347.98	1304.56
348.19	1316.84
348.40	1470.44
348.61	1329.13
348.82	1413.10
349.03	1392.62
349.24	1312.75
349.45	1406.95
349.66	1279.98
349.88	1351.66
350.09	1374.19
350.30	1396.71
350.51	1435.63
350.72	1355.76
350.93	1376.24
351.14	1359.85
351.35	1353.71
351.56	1341.42
351.77	1314.80
351.99	1296.36
352.20	1419.24
352.41	1486.83
352.62	1331.18
352.83	1409.00
353.04	1335.28
353.25	1253.36
353.46	1441.77
353.67	1458.15
353.88	1345.52
354.09	1380.33
354.30	1353.71
354.52	1445.87
354.73	1308.65
354.94	1351.66
355.15	1427.43
355.36	1495.02
355.57	1402.86
355.78	1396.71
355.99	1304.56
356.20	1429.48
356.41	1437.67
356.62	1388.52
356.83	1388.52
357.04	1429.48
357.25	1353.71
357.46	1374.19
357.68	1294.32
357.89	1327.08
358.10	1429.48
358.31	1320.94
358.52	1427.43
358.73	1331.18
358.94	1380.33
359.15	1409.00
359.36	1486.83
359.57	1409.00
359.78	1374.19
359.99	1431.53
360.20	1300.46
360.41	1413.10
360.62	1431.53
360.83	1392.62
361.04	1398.76
361.25	1374.19
361.46	1425.39
361.67	1363.95
361.88	1363.95
362.09	1335.28
362.30	1392.62
362.51	1378.28
362.72	1462.25
362.93	1411.05
363.14	1429.48
363.35	1447.91
363.56	1402.86
363.78	1406.95
363.99	1335.28
364.20	1353.71
364.41	1329.13
364.62	1454.06
364.83	1363.95
365.04	1335.28
365.25	1392.62
365.46	1531.88
365.67	1357.80
365.88	1378.28
366.09	1322.99
366.30	1304.56
366.51	1308.65
366.72	1341.42
366.93	1388.52
367.14	1374.19
367.35	1427.43
367.56	1441.77
367.77	1419.24
367.98	1331.18
368.18	1425.39
368.39	1396.71
368.60	1282.03
368.81	1406.95
369.02	1372.14
369.23	1322.99
369.44	1318.89
369.65	1421.29
369.86	1396.71
370.07	1341.42
370.28	1312.75
370.49	1331.18
370.70	1351.66
370.91	1263.60
371.12	1337.32
371.33	1396.71
371.54	1314.80
371.75	1482.73
371.96	1306.60
372.17	1404.91
372.38	1366.00
372.59	1355.76
372.80	1345.52
373.01	1366.00
373.22	1374.19
373.43	1353.71
373.64	1374.19
373.85	1347.56
374.06	1411.05
374.26	1363.95
374.47	1325.04
374.68	1427.43
374.89	1363.95
375.10	1316.84
375.31	1443.82
375.52	1290.22
375.73	1341.42
375.94	1353.71
376.15	1370.09
376.36	1312.75
376.57	1411.05
376.78	1392.62
376.99	1318.89
377.20	1376.24
377.40	1384.43
377.61	1425.39
377.82	1378.28
378.03	1476.59
378.24	1374.19
378.45	1396.71
378.66	1406.95
378.87	1351.66
379.08	1353.71
379.29	1363.95
379.50	1363.95
379.71	1343.47
379.91	1404.91
380.12	1359.85
380.33	1341.42
380.54	1392.62
380.75	1368.04
380.96	1355.76
381.17	1462.25
381.38	1402.86
381.59	1429.48
381.80	1447.91
382.00	1540.07
382.21	1413.10
382.42	1454.06
382.63	1507.30
382.84	1339.37
383.05	1355.76
383.26	1474.54
383.47	1361.90
383.68	1452.01
383.88	1372.14
384.09	1376.24
384.30	1433.58
384.51	1386.47
384.72	1318.89
384.93	1421.29
385.14	1374.19
385.35	1421.29
385.55	1286.12
385.76	1413.10
385.97	1359.85
386.18	1411.05
386.39	1329.13
386.60	1433.58
386.81	1454.06
387.02	1318.89
387.22	1396.71
387.43	1413.10
387.64	1597.42
387.85	2297.82
388.06	5662.63
388.27	9418.61
388.48	11489.10
388.68	12863.29
388.89	13123.38
389.10	10600.29
389.31	9205.62
389.52	8423.30
389.73	7413.65
389.93	6903.70
390.14	6524.83
390.35	6021.03
390.56	5521.32
390.77	4687.80
390.98	3624.90
391.18	2813.91
391.39	2127.84
391.60	1710.05
391.81	1544.17
392.02	1429.48
392.23	1474.54
392.43	1394.67
392.64	1417.19
392.85	1419.24
393.06	1458.15
393.27	1396.71
393.47	1298.41
393.68	1386.47
393.89	1306.60
394.10	1411.05
394.31	1331.18
394.52	1355.76
394.72	1308.65
394.93	1400.81
395.14	1404.91
395.35	1437.67
395.56	1468.39
395.76	1527.78
395.97	1531.88
396.18	1476.59
396.39	1650.66
396.60	1617.90
396.80	1525.74
397.01	1468.39
397.22	1505.26
397.43	1423.34
397.64	1501.16
397.84	1525.74
398.05	1443.82
398.26	1474.54
398.47	1499.11
398.67	1452.01
398.88	1355.76
399.09	1419.24
399.30	1339.37
399.51	1359.85
399.71	1304.56
399.92	1370.09
400.13	1431.53
400.34	1378.28
400.54	1388.52
400.75	1437.67
400.96	1400.81
401.17	1472.49
401.37	1378.28
401.58	1368.04
401.79	1523.69
402.00	1656.81
402.21	1820.64
402.41	1832.93
402.62	1857.51
402.83	1697.77
403.04	1624.04
403.24	1642.47
403.45	1521.64
403.66	1585.13
403.87	1554.41
404.07	1660.90
404.28	1603.56
404.49	1425.39
404.70	1525.74
404.90	1499.11
405.11	1447.91
405.32	1429.48
405.52	1353.71
405.73	1402.86
405.94	1355.76
406.15	1341.42
406.35	1411.05
406.56	1409.00
406.77	1333.23
406.98	1406.95
407.18	1404.91
407.39	1359.85
407.60	1343.47
407.80	1363.95
408.01	1331.18
408.22	1411.05
408.43	1376.24
408.63	1394.67
408.84	1417.19
409.05	1435.63
409.25	1398.76
409.46	1273.84
409.67	1327.08
409.88	1341.42
410.08	1429.48
410.29	1300.46
410.50	1411.05
410.70	1388.52
410.91	1335.28
411.12	1396.71
411.32	1402.86
411.53	1456.11
411.74	1425.39
411.95	1574.89
412.15	1411.05
412.36	1454.06
412.57	1363.95
412.77	1437.67
412.98	1437.67
413.19	1386.47
413.39	1411.05
413.60	1460.20
413.81	1478.63
414.01	1357.80
414.22	1378.28
414.43	1380.33
414.63	1372.14
414.84	1355.76
415.05	1359.85
415.25	1366.00
415.46	1400.81
415.67	1402.86
415.87	1370.09
416.08	1329.13
416.29	1429.48
416.49	1437.67
416.70	1349.61
416.91	1372.14
417.11	1298.41
417.32	1437.67
417.53	1363.95
417.73	1368.04
417.94	1357.80
418.15	1310.70
418.35	1370.09
418.56	1404.91
418.77	1499.11
418.97	1437.67
419.18	1353.71
419.38	1273.84
419.59	1322.99
419.80	1423.34
420.00	1318.89
420.21	1370.09
420.42	1466.35
420.62	1341.42
420.83	1347.56
421.04	1351.66
421.24	1294.32
421.45	1429.48
421.65	1427.43
421.86	1349.61
422.07	1339.37
422.27	1390.57
422.48	1284.08
422.69	1427.43
422.89	1355.76
423.10	1368.04
423.30	1288.17
423.51	1349.61
423.72	1378.28
423.92	1400.81
424.13	1314.80
424.33	1290.22
424.54	1366.00
424.75	1394.67
424.95	1474.54
425.16	1396.71
425.36	1361.90
425.57	1359.85
425.78	1478.63
425.98	1333.23
426.19	1325.04
426.39	1370.09
426.60	1404.91
426.81	1411.05
427.01	1353.71
427.22	1310.70
427.42	1286.12
427.63	1310.70
427.83	1388.52
428.04	1454.06
428.25	1441.77
428.45	1413.10
428.66	1533.93
428.86	1388.52
429.07	1368.04
429.28	1378.28
429.48	1361.90
429.69	1406.95
429.89	1380.33
430.10	1366.00
430.30	1374.19
430.51	1411.05
430.71	1277.93
430.92	1337.32
431.13	1351.66
431.33	1355.76
431.54	1413.10
431.74	1460.20
431.95	1439.72
432.15	1368.04
432.36	1363.95
432.56	1439.72
432.77	1474.54
432.98	1429.48
433.18	1366.00
433.39	1341.42
433.59	1376.24
433.80	1378.28
434.00	1468.39
434.21	1327.08
434.41	1312.75
434.62	1441.77
434.82	1294.32
435.03	1316.84
435.23	1318.89
435.44	1277.93
435.64	1396.71
435.85	1431.53
436.06	1384.43
436.26	1454.06
436.47	1368.04
436.67	1384.43
436.88	1314.80
437.08	1388.52
437.29	1376.24
437.49	1353.71
437.70	1486.83
437.90	1441.77
438.11	1585.13
438.31	1419.24
438.52	1550.31
438.72	1527.78
438.93	1562.60
439.13	1538.02
439.34	1482.73
439.54	1462.25
439.75	1368.04
439.95	1429.48
440.16	1411.05
440.36	1425.39
440.57	1429.48
440.77	1441.77
440.98	1368.04
441.18	1423.34
441.39	1355.76
441.59	1355.76
441.80	1484.78
442.00	1351.66
442.21	1458.15
442.41	1366.00
442.62	1415.15
442.82	1253.36
443.02	1433.58
443.23	1429.48
443.43	1398.76
443.64	1443.82
443.84	1302.51
444.05	1462.25
444.25	1378.28
444.46	1386.47
444.66	1359.85
444.87	1439.72
445.07	1361.90
445.28	1357.80
445.48	1458.15
445.69	1437.67
445.89	1437.67
446.09	1527.78
446.30	2320.35
446.50	3731.40
446.71	4642.75
446.91	5261.23
447.12	5593.00
447.32	4976.56
447.53	4108.23
447.73	3782.60
447.93	3508.17
448.14	3149.78
448.34	3069.91
448.55	2795.48
448.75	2783.19
448.96	2674.65
449.16	2404.32
449.36	2156.51
449.57	1961.95
449.77	1765.35
449.98	1597.42
450.18	1490.92
450.39	1527.78
450.59	1363.95
450.79	1378.28
451.00	1339.37
451.20	1439.72
451.41	1398.76
451.61	1390.57
451.81	1380.33
452.02	1337.32
452.22	1388.52
452.43	1298.41
452.63	1339.37
452.84	1322.99
453.04	1337.32
453.24	1409.00
453.45	1290.22
453.65	1351.66
453.86	1368.04
454.06	1431.53
454.26	1406.95
454.47	1304.56
454.67	1388.52
454.87	1443.82
455.08	1390.57
455.28	1411.05
455.49	1390.57
455.69	1310.70
455.89	1433.58
456.10	1409.00
456.30	1345.52
456.51	1404.91
456.71	1423.34
456.91	1441.77
457.12	1312.75
457.32	1404.91
457.52	1267.69
457.73	1374.19
457.93	1314.80
458.14	1394.67
458.34	1394.67
458.54	1400.81
458.75	1343.47
458.95	1355.76
459.15	1392.62
459.36	1421.29
459.56	1320.94
459.76	1427.43
459.97	1435.63
460.17	1421.29
460.37	1423.34
460.58	1382.38
460.78	1429.48
460.99	1413.10
461.19	1349.61
461.39	1402.86
461.60	1370.09
461.80	1394.67
462.00	1292.27
462.21	1386.47
462.41	1378.28
462.61	1333.23
462.82	1316.84
463.02	1449.96
463.22	1357.80
463.43	1458.15
463.63	1396.71
463.83	1411.05
464.04	1402.86
464.24	1345.52
464.44	1353.71
464.64	1380.33
464.85	1409.00
465.05	1419.24
465.25	1413.10
465.46	1312.75
465.66	1406.95
465.86	1449.96
466.07	1347.56
466.27	1413.10
466.47	1363.95
466.68	1329.13
466.88	1441.77
467.08	1316.84
467.29	1380.33
467.49	1427.43
467.69	1421.29
467.89	1339.37
468.10	1423.34
468.30	1427.43
468.50	1429.48
468.71	1427.43
468.91	1388.52
469.11	1433.58
469.31	1378.28
469.52	1359.85
469.72	1431.53
469.92	1462.25
470.13	1376.24
470.33	1452.01
470.53	1703.91
470.73	2086.88
470.94	2293.72
471.14	2365.40
471.34	2461.66
471.54	2113.50
471.75	2021.35
471.95	1964.00
472.15	1804.26
472.36	1925.09
472.56	1753.06
472.76	1724.39
472.96	1738.73
473.17	1687.53
473.37	1718.25
473.57	1564.65
473.77	1531.88
473.98	1427.43
474.18	1417.19
474.38	1521.64
474.58	1327.08
474.79	1359.85
474.99	1380.33
475.19	1392.62
475.39	1329.13
475.60	1349.61
475.80	1314.80
476.00	1388.52
476.20	1361.90
476.41	1384.43
476.61	1445.87
476.81	1425.39
477.01	1357.80
477.21	1460.20
477.42	1458.15
477.62	1366.00
477.82	1417.19
478.02	1355.76
478.23	1435.63
478.43	1347.56
478.63	1308.65
478.83	1449.96
479.03	1378.28
479.24	1425.39
479.44	1378.28
479.64	1339.37
479.84	1347.56
480.04	1368.04
480.25	1435.63
480.45	1273.84
480.65	1386.47
480.85	1484.78
481.06	1368.04
481.26	1402.86
481.46	1413.10
481.66	1417.19
481.86	1271.79
482.06	1331.18
482.27	1361.90
482.47	1343.47
482.67	1372.14
482.87	1406.95
483.07	1413.10
483.28	1335.28
483.48	1366.00
483.68	1341.42
483.88	1376.24
484.08	1372.14
484.29	1331.18
484.49	1400.81
484.69	1388.52
484.89	1370.09
485.09	1406.95
485.29	1353.71
485.50	1427.43
485.70	1384.43
485.90	1413.10
486.10	1454.06
486.30	1359.85
486.50	1382.38
486.71	1415.15
486.91	1351.66
487.11	1447.91
487.31	1316.84
487.51	1404.91
487.71	1361.90
487.91	1322.99
488.12	1370.09
488.32	1327.08
488.52	1355.76
488.72	1404.91
488.92	1423.34
489.12	1398.76
489.32	1409.00
489.53	1411.05
489.73	1306.60
489.93	1406.95
490.13	1417.19
490.33	1423.34
490.53	1404.91
490.73	1396.71
490.94	1368.04
491.14	1515.50
491.34	1613.80
491.54	2156.51
491.74	2535.39
491.94	3004.37
492.14	3174.35
492.34	3129.30
492.54	2545.63
492.75	2248.67
492.95	2207.71
493.15	2090.98
493.35	2084.83
493.55	1964.00
493.75	1832.93
493.95	1935.33
494.15	1742.82
494.35	1626.09
494.56	1673.19
494.76	1495.02
494.96	1572.84
495.16	1482.73
495.36	1433.58
495.56	1431.53
495.76	1415.15
495.96	1439.72
496.16	1333.23
496.36	1427.43
496.56	1351.66
496.77	1441.77
496.97	1411.05
497.17	1433.58
497.37	1325.04
497.57	1425.39
497.77	1355.76
497.97	1357.80
498.17	1427.43
498.37	1335.28
498.57	1374.19
498.77	1429.48
498.97	1382.38
499.17	1441.77
499.38	1476.59
499.58	1406.95
499.78	1497.07
499.98	1499.11
500.18	1380.33
500.38	1400.81
500.58	1646.57
500.78	2850.77
500.98	5543.85
501.18	6809.50
501.38	7980.93
501.58	8400.77
501.78	7491.47
501.98	5644.20
502.18	4900.79
502.38	4474.81
502.58	4081.60
502.78	3882.95
502.98	3667.91
503.18	3536.84
503.38	3176.40
503.59	3053.52
503.79	2811.86
503.99	2584.54
504.19	2363.36
504.39	2166.75
504.59	1982.43
504.79	1906.66
504.99	1822.69
505.19	1705.96
505.39	1574.89
505.59	1533.93
505.79	1519.59
505.99	1601.51
506.19	1433.58
506.39	1525.74
506.59	1468.39
506.79	1308.65
506.99	1470.44
507.19	1439.72
507.39	1421.29
507.59	1449.96
507.79	1310.70
507.99	1355.76
508.19	1322.99
508.39	1370.09
508.59	1341.42
508.79	1361.90
508.99	1497.07
509.19	1273.84
509.39	1355.76
509.59	1345.52
509.79	1363.95
509.99	1363.95
510.19	1415.15
510.39	1359.85
510.59	1343.47
510.79	1380.33
510.99	1302.51
511.19	1429.48
511.39	1486.83
511.59	1435.63
511.79	1368.04
511.99	1363.95
512.19	1402.86
512.38	1363.95
512.58	1368.04
512.78	1400.81
512.98	1460.20
513.18	1435.63
513.38	1349.61
513.58	1441.77
513.78	1296.36
513.98	1359.85
514.18	1372.14
514.38	1380.33
514.58	1331.18
514.78	1368.04
514.98	1341.42
515.18	1394.67
515.38	1298.41
515.58	1429.48
515.78	1347.56
515.98	1411.05
516.18	1310.70
516.38	1460.20
516.57	1378.28
516.77	1298.41
516.97	1447.91
517.17	1382.38
517.37	1370.09
517.57	1406.95
517.77	1394.67
517.97	1351.66
518.17	1429.48
518.37	1415.15
518.57	1427.43
518.77	1396.71
518.97	1329.13
519.16	1359.85
519.36	1441.77
519.56	1388.52
519.76	1376.24
519.96	1411.05
520.16	1404.91
520.36	1361.90
520.56	1460.20
520.76	1388.52
520.96	1337.32
521.16	1449.96
521.35	1361.90
521.55	1357.80
521.75	1404.91
521.95	1388.52
522.15	1378.28
522.35	1304.56
522.55	1400.81
522.75	1378.28
522.95	1363.95
523.14	1345.52
523.34	1421.29
523.54	1378.28
523.74	1355.76
523.94	1402.86
524.14	1335.28
524.34	1374.19
524.54	1429.48
524.73	1357.80
524.93	1366.00
525.13	1384.43
525.33	1382.38
525.53	1495.02
525.73	1439.72
525.93	1390.57
526.13	1380.33
526.32	1396.71
526.52	1454.06
526.72	1388.52
526.92	1366.00
527.12	1417.19
527.32	1253.36
527.52	1380.33
527.71	1421.29
527.91	1382.38
528.11	1265.64
528.31	1322.99
528.51	1306.60
528.71	1320.94
528.90	1447.91
529.10	1431.53
529.30	1353.71
529.50	1355.76
529.70	1359.85
529.90	1345.52
530.09	1415.15
530.29	1273.84
530.49	1413.10
530.69	1443.82
530.89	1400.81
531.09	1355.76
531.28	1339.37
531.48	1388.52
531.68	1368.04
531.88	1396.71
532.08	1439.72
532.28	1394.67
532.47	1339.37
532.67	1490.92
532.87	1439.72
533.07	1396.71
533.27	1433.58
533.46	1363.95
533.66	1392.62
533.86	1386.47
534.06	1386.47
534.26	1443.82
534.45	1380.33
534.65	1447.91
534.85	1396.71
535.05	1343.47
535.25	1470.44
535.44	1361.90
535.64	1466.35
535.84	1361.90
536.04	1443.82
536.24	1388.52
536.43	1421.29
536.63	1445.87
536.83	1361.90
537.03	1378.28
537.22	1316.84
537.42	1331.18
537.62	1329.13
537.82	1392.62
538.02	1431.53
538.21	1355.76
538.41	1521.64
538.61	1370.09
538.81	1306.60
539.00	1333.23
539.20	1392.62
539.40	1349.61
539.60	1382.38
539.79	1374.19
539.99	1351.66
540.19	1345.52
540.39	1390.57
540.58	1322.99
540.78	1413.10
540.98	1296.36
541.18	1329.13
541.37	1443.82
541.57	1312.75
541.77	1347.56
541.97	1310.70
542.16	1355.76
542.36	1378.28
542.56	1406.95
542.76	1445.87
542.95	1404.91
543.15	1382.38
543.35	1413.10
543.54	1310.70
543.74	1370.09
543.94	1337.32
544.14	1411.05
544.33	1409.00
544.53	1368.04
544.73	1435.63
544.93	1286.12
545.12	1413.10
545.32	1300.46
545.52	1339.37
545.71	1302.51
545.91	1363.95
546.11	1331.18
546.30	1302.51
546.50	1390.57
546.70	1421.29
546.90	1404.91
547.09	1320.94
547.29	1392.62
547.49	1441.77
547.68	1429.48
547.88	1306.60
548.08	1357.80
548.27	1636.33
548.47	1345.52
548.67	1425.39
548.87	1378.28
549.06	1380.33
549.26	1347.56
549.46	1396.71
549.65	1347.56
549.85	1431.53
550.05	1316.84
550.24	1253.36
550.44	1318.89
550.64	1308.65
550.83	1296.36
551.03	1417.19
551.23	1353.71
551.42	1306.60
551.62	1388.52
551.82	1404.91
552.01	1363.95
552.21	1376.24
552.41	1312.75
552.60	1388.52
552.80	1419.24
553.00	1363.95
553.19	1284.08
553.39	1370.09
553.59	1382.38
553.78	1253.36
553.98	1411.05
554.17	1339.37
554.37	1366.00
554.57	1464.30
554.76	1349.61
554.96	1406.95
555.16	1388.52
555.35	1376.24
555.55	1394.67
555.75	1314.80
555.94	1363.95
556.14	1290.22
556.33	1441.77
556.53	1341.42
556.73	1409.00
556.92	1355.76
557.12	1413.10
557.32	1495.02
557.51	1480.68
557.71	1396.71
557.90	1406.95
558.10	1431.53
558.30	1384.43
558.49	1378.28
558.69	1363.95
558.88	1345.52
559.08	1382.38
559.28	1351.66
559.47	1392.62
559.67	1476.59
559.86	1419.24
560.06	1384.43
560.26	1374.19
560.45	1406.95
560.65	1404.91
560.84	1413.10
561.04	1333.23
561.24	1413.10
561.43	1411.05
561.63	1441.77
561.82	1306.60
562.02	1349.61
562.22	1282.03
562.41	1351.66
562.61	1392.62
562.80	1372.14
563.00	1409.00
563.19	1374.19
563.39	1380.33
563.59	1443.82
563.78	1316.84
563.98	1325.04
564.17	1302.51
564.37	1343.47
564.56	1409.00
564.76	1390.57
564.96	1488.87
565.15	1419.24
565.35	1454.06
565.54	1337.32
565.74	1464.30
565.93	1423.34
566.13	1363.95
566.32	1386.47
566.52	1341.42
566.71	1380.33
566.91	1318.89
567.11	1318.89
567.30	1322.99
567.50	1462.25
567.69	1435.63
567.89	1361.90
568.08	1396.71
568.28	1388.52
568.47	1337.32
568.67	1411.05
568.86	1353.71
569.06	1472.49
569.25	1318.89
569.45	1361.90
569.64	1357.80
569.84	1363.95
570.04	1386.47
570.23	1417.19
570.43	1464.30
570.62	1415.15
570.82	1378.28
571.01	1361.90
571.21	1406.95
571.40	1310.70
571.60	1388.52
571.79	1378.28
571.99	1449.96
572.18	1404.91
572.38	1402.86
572.57	1372.14
572.77	1394.67
572.96	1570.79
573.16	1423.34
573.35	1380.33
573.55	1484.78
573.74	1425.39
573.94	1392.62
574.13	1269.74
574.33	1472.49
574.52	1443.82
574.71	1402.86
574.91	1474.54
575.10	1329.13
575.30	1394.67
575.49	1357.80
575.69	1363.95
575.88	1394.67
576.08	1386.47
576.27	1478.63
576.47	1429.48
576.66	1507.30
576.86	1552.36
577.05	1435.63
577.25	1429.48
577.44	1533.93
577.64	1486.83
577.83	1449.96
578.02	1415.15
578.22	1439.72
578.41	1447.91
578.61	1458.15
578.80	1413.10
579.00	1445.87
579.19	1345.52
579.39	1470.44
579.58	1470.44
579.77	1390.57
579.97	1478.63
580.16	1486.83
580.36	1445.87
580.55	1484.78
580.75	1409.00
580.94	1370.09
581.13	1564.65
581.33	1499.11
581.52	1429.48
581.72	1578.98
581.91	1525.74
582.11	1501.16
582.30	1468.39
582.49	1413.10
582.69	1456.11
582.88	1419.24
583.08	1384.43
583.27	1386.47
583.47	1456.11
583.66	1441.77
583.85	1421.29
584.05	1419.24
584.24	1394.67
584.44	1437.67
584.63	1517.54
584.82	1452.01
585.02	1546.22
585.21	1574.89
585.41	1583.08
585.60	1619.94
585.79	1693.67
585.99	1703.91
586.18	1611.75
586.37	1865.70
586.57	2688.98
586.76	8079.24
586.96	24178.32
587.15	40863.12
587.34	51369.20
587.54	58932.35
587.73	58963.07
587.93	44266.84
588.12	32396.82
588.31	26572.39
588.51	22380.20
588.70	19943.12
588.89	18132.72
589.09	16961.28
589.28	15761.17
589.47	14225.19
589.67	12339.01
589.86	10567.52
590.06	8480.64
590.25	6457.25
590.44	5068.72
590.64	3547.08
590.83	2844.63
591.02	2287.58
591.22	1933.28
591.41	1697.77
591.60	1644.52
591.80	1593.32
591.99	1507.30
592.18	1519.59
592.38	1490.92
592.57	1370.09
592.76	1515.50
592.96	1452.01
593.15	1452.01
593.34	1433.58
593.54	1443.82
593.73	1501.16
593.92	1472.49
594.12	1468.39
594.31	1415.15
594.50	1429.48
594.70	1458.15
594.89	1470.44
595.08	1466.35
595.28	1347.56
595.47	1517.54
595.66	1452.01
595.86	1316.84
596.05	1404.91
596.24	1335.28
596.43	1417.19
596.63	1429.48
596.82	1435.63
597.01	1492.97
597.21	1495.02
597.40	1517.54
597.59	1454.06
597.79	1413.10
597.98	1445.87
598.17	1380.33
598.36	1425.39
598.56	1476.59
598.75	1308.65
598.94	1406.95
599.14	1427.43
599.33	1427.43
599.52	1415.15
599.71	1433.58
599.91	1386.47
600.10	1382.38
600.29	1492.97
600.48	1486.83
600.68	1478.63
600.87	1423.34
601.06	1359.85
601.26	1343.47
601.45	1409.00
601.64	1380.33
601.83	1411.05
602.03	1400.81
602.22	1404.91
602.41	1427.43
602.60	1449.96
602.80	1447.91
602.99	1419.24
603.18	1396.71
603.37	1392.62
603.57	1392.62
603.76	1384.43
603.95	1386.47
604.14	1349.61
604.34	1372.14
604.53	1441.77
604.72	1404.91
604.91	1417.19
605.10	1322.99
605.30	1271.79
605.49	1404.91
605.68	1370.09
605.87	1439.72
606.07	1423.34
606.26	1376.24
606.45	1425.39
606.64	1353.71
606.84	1363.95
607.03	1386.47
607.22	1423.34
607.41	1447.91
607.60	1411.05
607.80	1456.11
607.99	1411.05
608.18	1368.04
608.37	1378.28
608.56	1439.72
608.76	1474.54
608.95	1468.39
609.14	1484.78
609.33	1552.36
609.52	1572.84
609.72	1527.78
609.91	1554.41
610.10	1423.34
610.29	1478.63
610.48	1388.52
610.68	1441.77
610.87	1380.33
611.06	1431.53
611.25	1378.28
611.44	1449.96
611.63	1308.65
611.83	1380.33
612.02	1302.51
612.21	1370.09
612.40	1353.71
612.59	1347.56
612.79	1376.24
612.98	1417.19
613.17	1468.39
613.36	1382.38
613.55	1499.11
613.74	1490.92
613.93	1523.69
614.13	1576.94
614.32	1669.09
614.51	1673.19
614.70	1597.42
614.89	1572.84
615.08	1427.43
615.28	1675.24
615.47	1312.75
615.66	1437.67
615.85	1415.15
616.04	1578.98
616.23	1441.77
616.42	1415.15
616.62	1560.55
616.81	1456.11
617.00	1472.49
617.19	1339.37
617.38	1363.95
617.57	1404.91
617.76	1415.15
617.95	1474.54
618.15	1374.19
618.34	1490.92
618.53	1314.80
618.72	1417.19
618.91	1378.28
619.10	1478.63
619.29	1329.13
619.48	1322.99
619.68	1290.22
619.87	1404.91
620.06	1349.61
620.25	1425.39
620.44	1343.47
620.63	1386.47
620.82	1413.10
621.01	1292.27
621.20	1374.19
621.39	1380.33
621.59	1464.30
621.78	1386.47
621.97	1394.67
622.16	1402.86
622.35	1380.33
622.54	1449.96
622.73	1380.33
622.92	1310.70
623.11	1363.95
623.30	1355.76
623.49	1431.53
623.68	1347.56
623.88	1429.48
624.07	1415.15
624.26	1353.71
624.45	1394.67
624.64	1357.80
624.83	1478.63
625.02	1331.18
625.21	1390.57
625.40	1427.43
625.59	1382.38
625.78	1374.19
625.97	1443.82
626.16	1441.77
626.35	1427.43
626.54	1419.24
626.74	1482.73
626.93	1472.49
627.12	1484.78
627.31	1437.67
627.50	1396.71
627.69	1488.87
627.88	1327.08
628.07	1380.33
628.26	1376.24
628.45	1406.95
628.64	1429.48
628.83	1368.04
629.02	1394.67
629.21	1421.29
629.40	1411.05
629.59	1437.67
629.78	1435.63
629.97	1388.52
630.16	1466.35
630.35	1443.82
630.54	1382.38
630.73	1376.24
630.92	1406.95
631.11	1325.04
631.30	1302.51
631.49	1423.34
631.68	1382.38
631.87	1400.81
632.06	1374.19
632.25	1433.58
632.44	1413.10
632.63	1368.04
632.82	1449.96
633.01	1437.67
633.20	1378.28
633.39	1466.35
633.58	1480.68
633.77	1480.68
633.96	1437.67
634.15	1560.55
634.34	1458.15
634.53	1413.10
634.72	1400.81
634.91	1374.19
635.10	1402.86
635.29	1478.63
635.48	1472.49
635.67	1361.90
635.86	1308.65
636.05	1417.19
636.24	1337.32
636.43	1277.93
636.62	1392.62
636.81	1310.70
637.00	1368.04
637.19	1411.05
637.38	1349.61
637.57	1327.08
637.76	1433.58
637.95	1484.78
638.14	1417.19
638.33	1521.64
638.52	1495.02
638.71	1505.26
638.89	1409.00
639.08	1597.42
639.27	1511.40
639.46	1476.59
639.65	1742.82
639.84	1869.80
640.03	2023.39
640.22	2078.69
640.41	2150.37
640.60	1828.84
640.79	1771.49
640.98	1681.38
641.17	1656.81
641.36	1562.60
641.55	1658.85
641.74	1503.21
641.92	1501.16
642.11	1490.92
642.30	1519.59
642.49	1417.19
642.68	1480.68
642.87	1394.67
643.06	1468.39
643.25	1396.71
643.44	1372.14
643.63	1423.34
643.82	1429.48
644.00	1380.33
644.19	1372.14
644.38	1300.46
644.57	1400.81
644.76	1384.43
644.95	1376.24
645.14	1353.71
645.33	1363.95
645.52	1341.42
645.71	1273.84
645.89	1357.80
646.08	1382.38
646.27	1404.91
646.46	1388.52
646.65	1275.88
646.84	1310.70
647.03	1374.19
647.22	1449.96
647.40	1394.67
647.59	1322.99
647.78	1345.52
647.97	1314.80
648.16	1269.74
648.35	1470.44
648.54	1374.19
648.73	1312.75
648.91	1333.23
649.10	1343.47
649.29	1355.76
649.48	1325.04
649.67	1359.85
649.86	1441.77
650.05	1359.85
650.23	1507.30
650.42	1449.96
650.61	1609.70
650.80	1601.51
650.99	1595.37
651.18	1478.63
651.36	1476.59
651.55	1470.44
651.74	1482.73
651.93	1409.00
652.12	1396.71
652.31	1445.87
652.49	1411.05
652.68	1327.08
652.87	1415.15
653.06	1433.58
653.25	1406.95
653.44	1411.05
653.62	1499.11
653.81	1409.00
654.00	1406.95
654.19	1419.24
654.38	1409.00
654.56	1402.86
654.75	1345.52
654.94	1394.67
655.13	1298.41
655.32	1415.15
655.51	1380.33
655.69	1329.13
655.88	1335.28
656.07	1279.98
656.26	1376.24
656.45	1417.19
656.63	1433.58
656.82	1400.81
657.01	1370.09
657.20	1329.13
657.38	1433.58
657.57	1363.95
657.76	1359.85
657.95	1540.07
658.14	1394.67
658.32	1204.21
658.51	1304.56
658.70	1384.43
658.89	1339.37
659.08	1353.71
659.26	1390.57
659.45	1359.85
659.64	1415.15
659.83	1388.52
660.01	1538.02
660.20	1429.48
660.39	1484.78
660.58	1345.52
660.76	1419.24
660.95	1359.85
661.14	1421.29
661.33	1322.99
661.51	1468.39
661.70	1320.94
661.89	1429.48
662.08	1288.17
662.26	1302.51
662.45	1441.77
662.64	1445.87
662.83	1374.19
663.01	1351.66
663.20	1376.24
663.39	1458.15
663.58	1327.08
663.76	1345.52
663.95	1361.90
664.14	1341.42
664.32	1363.95
664.51	1331.18
664.70	1374.19
664.89	1386.47
665.07	1368.04
665.26	1349.61
665.45	1351.66
665.64	1513.45
665.82	1404.91
666.01	1431.53
666.20	1355.76
666.38	1388.52
666.57	1497.07
666.76	1572.84
666.95	2029.54
667.13	4417.47
667.32	11288.40
667.51	17827.57
667.69	21653.17
667.88	24673.93
668.07	24559.24
668.25	18800.35
668.44	13549.36
668.63	11151.19
668.81	9135.99
669.00	8105.86
669.19	7315.34
669.38	6815.64
669.56	6203.30
669.75	5640.11
669.94	4886.45
670.12	4300.73
670.31	3407.82
670.50	2852.82
670.68	2473.95
670.87	2109.41
671.06	1763.30
671.24	1654.76
671.43	1691.62
671.62	1585.13
671.80	1490.92
671.99	1513.45
672.18	1447.91
672.36	1558.50
672.55	1445.87
672.74	1460.20
672.92	1406.95
673.11	1378.28
673.29	1335.28
673.48	1390.57
673.67	1396.71
673.85	1406.95
674.04	1386.47
674.23	1458.15
674.41	1478.63
674.60	1378.28
674.79	1269.74
674.97	1337.32
675.16	1355.76
675.34	1406.95
675.53	1341.42
675.72	1343.47
675.90	1478.63
676.09	1306.60
676.28	1380.33
676.46	1282.03
676.65	1415.15
676.83	1363.95
677.02	1452.01
677.21	1351.66
677.39	1388.52
677.58	1361.90
677.77	1380.33
677.95	1341.42
678.14	1329.13
678.32	1415.15
678.51	1372.14
678.70	1404.91
678.88	1398.76
679.07	1351.66
679.25	1394.67
679.44	1368.04
679.63	1361.90
679.81	1361.90
680.00	1441.77
680.18	1417.19
680.37	1419.24
680.55	1374.19
680.74	1351.66
680.93	1341.42
681.11	1382.38
681.30	1347.56
681.48	1312.75
681.67	1327.08
681.85	1388.52
682.04	1255.40
682.23	1413.10
682.41	1390.57
682.60	1394.67
682.78	1343.47
682.97	1333.23
683.15	1353.71
683.34	1347.56
683.53	1406.95
683.71	1390.57
683.90	1368.04
684.08	1380.33
684.27	1392.62
684.45	1325.04
684.64	1322.99
684.82	1329.13
685.01	1396.71
685.19	1454.06
685.38	1507.30
685.57	1380.33
685.75	1357.80
685.94	1304.56
686.12	1320.94
686.31	1427.43
686.49	1402.86
686.68	1363.95
686.86	1400.81
687.05	1402.86
687.23	1419.24
687.42	1331.18
687.60	1337.32
687.79	1443.82
687.97	1452.01
688.16	1398.76
688.34	1376.24
688.53	1296.36
688.71	1441.77
688.90	1400.81
689.08	1355.76
689.27	1361.90
689.45	1366.00
689.64	1376.24
689.82	1472.49
690.01	1406.95
690.19	1394.67
690.38	1456.11
690.56	1419.24
690.75	1353.71
690.93	1392.62
691.12	1341.42
691.30	1355.76
691.49	1318.89
691.67	1327.08
691.86	1456.11
692.04	1394.67
692.23	1402.86
692.41	1376.24
692.60	1511.40
692.78	1425.39
692.97	1429.48
693.15	1486.83
693.34	1476.59
693.52	1452.01
693.71	1380.33
693.89	1329.13
694.08	1421.29
694.26	1474.54
694.44	1423.34
694.63	1427.43
694.81	1331.18
695.00	1329.13
695.18	1390.57
695.37	1517.54
695.55	1378.28
695.74	1396.71
695.92	1333.23
696.10	1417.19
696.29	1286.12
696.47	1353.71
696.66	1345.52
696.84	1329.13
697.03	1415.15
697.21	1478.63
697.40	1804.26
697.58	1425.39
697.76	1325.04
697.95	1341.42
698.13	1325.04
698.32	1282.03
698.50	1386.47
698.68	1339.37
698.87	1396.71
699.05	1380.33
699.24	1392.62
699.42	1361.90
699.61	1421.29
699.79	1404.91
699.97	1322.99
700.16	1374.19
700.34	1351.66
700.53	1411.05
700.71	1484.78
700.89	1417.19
701.08	1343.47
701.26	1347.56
701.45	1677.29
701.63	1366.00
701.81	1441.77
702.00	1392.62
702.18	1372.14
702.37	1366.00
702.55	1437.67
702.73	1564.65
702.92	1423.34
703.10	1576.94
703.28	1718.25
703.47	1607.66
703.65	1716.20
703.84	1562.60
704.02	1454.06
704.20	1554.41
704.39	1454.06
704.57	1497.07
704.75	1501.16
704.94	1519.59
705.12	1445.87
705.30	1542.12
705.49	1634.28
705.67	1845.22
705.86	3583.95
706.04	8890.23
706.22	16199.43
706.41	19609.30
706.59	22398.63
706.77	23428.76
706.96	19613.40
707.14	13870.89
707.32	11411.28
707.51	9222.00
707.69	8073.09
707.87	7167.89
708.06	6872.98
708.24	5963.68
708.42	5015.48
708.61	4048.83
708.79	3020.75
708.97	2432.99
709.16	2007.01
709.34	1720.29
709.52	1535.98
709.71	1521.64
709.89	1540.07
710.07	1419.24
710.26	1390.57
710.44	1468.39
710.62	1386.47
710.80	1380.33
710.99	1427.43
711.17	1435.63
711.35	1384.43
711.54	1359.85
711.72	1497.07
711.90	1425.39
712.09	1392.62
712.27	1380.33
712.45	1366.00
712.63	1271.79
712.82	1359.85
713.00	1413.10
713.18	1370.09
713.37	1460.20
713.55	1380.33
713.73	1456.11
713.91	1427.43
714.10	1329.13
714.28	1443.82
714.46	1454.06
714.65	1388.52
714.83	1386.47
715.01	1394.67
715.19	1406.95
715.38	1337.32
715.56	1435.63
715.74	1298.41
715.92	1404.91
716.11	1413.10
716.29	1339.37
716.47	1335.28
716.65	1386.47
716.84	1339.37
717.02	1339.37
717.20	1202.16
717.38	1400.81
717.57	1429.48
717.75	1376.24
717.93	1359.85
718.11	1435.63
718.30	1337.32
718.48	1347.56
718.66	1439.72
718.84	1456.11
719.03	1245.16
719.21	1394.67
719.39	1386.47
719.57	1409.00
719.75	1390.57
719.94	1359.85
720.12	1341.42
720.30	1320.94
720.48	1429.48
720.67	1345.52
720.85	1294.32
721.03	1322.99
721.21	1325.04
721.39	1409.00
721.58	1449.96
721.76	1386.47
721.94	1355.76
722.12	1458.15
722.30	1400.81
722.49	1335.28
722.67	1296.36
722.85	1327.08
723.03	1419.24
723.21	1349.61
723.40	1404.91
723.58	1454.06
723.76	1347.56
723.94	1353.71
724.12	1445.87
724.30	1503.21
724.49	1433.58
724.67	1378.28
724.85	1507.30
725.03	1279.98
725.21	1421.29
725.40	1484.78
725.58	1449.96
725.76	1417.19
725.94	1376.24
726.12	1388.52
726.30	1404.91
726.49	1380.33
726.67	1425.39
726.85	1339.37
727.03	1400.81
727.21	1509.35
727.39	1509.35
727.57	2099.17
727.76	3440.59
727.94	4419.52
728.12	4837.30
728.30	5304.24
728.48	5140.40
728.66	4255.68
728.84	3430.35
729.03	3133.39
729.21	2850.77
729.39	2545.63
729.57	2258.91
729.75	1978.34
729.93	1822.69
730.11	1624.04
730.30	1562.60
730.48	1484.78
730.66	1441.77
730.84	1452.01
731.02	1415.15
731.20	1400.81
731.38	1386.47
731.56	1347.56
731.74	1296.36
731.93	1415.15
732.11	1296.36
732.29	1370.09
732.47	1411.05
732.65	1345.52
732.83	1417.19
733.01	1423.34
733.19	1349.61
733.37	1341.42
733.56	1361.90
733.74	1335.28
733.92	1462.25
734.10	1394.67
734.28	1392.62
734.46	1300.46
734.64	1329.13
734.82	1372.14
735.00	1312.75
735.18	1359.85
735.36	1331.18
735.54	1431.53
735.73	1286.12
735.91	1341.42
736.09	1347.56
736.27	1419.24
736.45	1415.15
736.63	1351.66
736.81	1378.28
736.99	1466.35
737.17	1341.42
737.35	1310.70
737.53	1339.37
737.71	1361.90
737.89	1378.28
738.07	1316.84
738.25	1398.76
738.43	1325.04
738.61	1341.42
738.80	1302.51
738.98	1316.84
739.16	1290.22
739.34	1353.71
739.52	1363.95
739.70	1366.00
739.88	1411.05
740.06	1378.28
740.24	1296.36
740.42	1390.57
740.60	1312.75
740.78	1327.08
740.96	1376.24
741.14	1269.74
741.32	1413.10
741.50	1298.41
741.68	1449.96
741.86	1449.96
742.04	1325.04
742.22	1374.19
742.40	1409.00
742.58	1359.85
742.76	1329.13
742.94	1441.77
743.12	1349.61
743.30	1380.33
743.48	1374.19
743.66	1308.65
743.84	1372.14
744.02	1366.00
744.20	1390.57
744.38	1337.32
744.56	1396.71
744.74	1409.00
744.92	1425.39
745.10	1454.06
745.28	1366.00
745.46	1411.05
745.64	1331.18
745.82	1366.00
746.00	1392.62
746.18	1439.72
746.36	1390.57
746.54	1347.56
746.72	1380.33
746.90	1275.88
747.08	1380.33
747.26	1345.52
747.44	1370.09
747.62	1396.71
747.80	1404.91
747.98	1466.35
748.15	1376.24
748.33	1449.96
748.51	1335.28
748.69	1382.38
748.87	1374.19
749.05	1370.09
749.23	1398.76
749.41	1431.53
749.59	1325.04
749.77	1417.19
749.95	1437.67
750.13	1300.46
750.31	1400.81
750.49	1359.85
750.67	1437.67
750.85	1423.34
751.03	1390.57
751.20	1482.73
751.38	1284.08
751.56	1325.04
751.74	1404.91
751.92	1310.70
752.10	1337.32
752.28	1372.14
752.46	1347.56
752.64	1327.08
752.82	1359.85
753.00	1386.47
753.18	1386.47
753.35	1417.19
753.53	1382.38
753.71	1374.19
753.89	1394.67
754.07	1454.06
754.25	1456.11
754.43	1376.24
754.61	1366.00
754.79	1380.33
754.97	1363.95
755.14	1325.04
755.32	1421.29
755.50	1337.32
755.68	1415.15
755.86	1363.95
756.04	1320.94
756.22	1316.84
756.40	1390.57
756.57	1452.01
756.75	1376.24
756.93	1329.13
757.11	1347.56
757.29	1370.09
757.47	1263.60
757.65	1310.70
757.82	1271.79
758.00	1359.85
758.18	1314.80
758.36	1341.42
758.54	1368.04
758.72	1331.18
758.90	1380.33
759.07	1386.47
759.25	1359.85
759.43	1363.95
759.61	1366.00
759.79	1662.95
759.97	1355.76
760.15	1384.43
760.32	1386.47
760.50	1445.87
760.68	1339.37
760.86	1322.99
761.04	1384.43
761.22	1406.95
761.39	1308.65
761.57	1378.28
761.75	1437.67
761.93	1372.14
762.11	1380.33
762.28	1456.11
762.46	1314.80
762.64	1427.43
762.82	1351.66
763.00	1327.08
763.18	1421.29
763.35	1277.93
763.53	1370.09
763.71	1351.66
763.89	1429.48
764.07	1308.65
764.24	1359.85
764.42	1425.39
764.60	1361.90
764.78	1306.60
764.96	1409.00
765.13	1320.94
765.31	1331.18
765.49	1413.10
765.67	1339.37
765.84	1361.90
766.02	1384.43
766.20	1265.64
766.38	1325.04
766.56	1351.66
766.73	1351.66
766.91	1388.52
767.09	1339.37
767.27	1392.62
767.44	1372.14
767.62	1322.99
767.80	1335.28
767.98	1413.10
768.15	1374.19
768.33	1363.95
768.51	1429.48
768.69	1443.82
768.87	1409.00
769.04	1384.43
769.22	1447.91
769.40	1361.90
769.58	1447.91
769.75	1306.60
769.93	1353.71
770.11	1351.66
770.28	1386.47
770.46	1378.28
770.64	1378.28
770.82	1314.80
770.99	1370.09
771.17	1341.42
771.35	1341.42
771.53	1322.99
771.70	1380.33
771.88	1421.29
772.06	1355.76
772.23	1374.19
772.41	1396.71
772.59	1402.86
772.77	1382.38
772.94	1325.04
773.12	1384.43
773.30	1351.66
773.47	1378.28
773.65	1271.79
773.83	1392.62
774.01	1296.36
774.18	1368.04
774.36	1394.67
774.54	1327.08
774.71	1394.67
774.89	1347.56
775.07	1261.55
775.24	1415.15
775.42	1345.52
775.60	1447.91
775.78	1380.33
775.95	1322.99
776.13	1339.37
776.31	1337.32
776.48	1409.00
776.66	1433.58
776.84	1355.76
777.01	1345.52
777.19	1359.85
777.37	1314.80
777.54	1413.10
777.72	1511.40
777.90	1421.29
778.07	1349.61
778.25	1439.72
778.43	1361.90
778.60	1353.71
778.78	1361.90
778.96	1402.86
779.13	1298.41
779.31	1376.24
779.49	1331.18
779.66	1355.76
779.84	1353.71
780.01	1388.52
780.19	1376.24
780.37	1345.52
780.54	1417.19
780.72	1239.02
780.90	1357.80
781.07	1372.14
781.25	1421.29
781.43	1406.95
781.60	1339.37
781.78	1427.43
781.95	1339.37
782.13	1286.12
782.31	1427.43
782.48	1343.47
782.66	1349.61
782.83	1409.00
783.01	1372.14
783.19	1363.95
783.36	1353.71
783.54	1322.99
783.72	1421.29
783.89	1316.84
784.07	1331.18
784.24	1374.19
784.42	1480.68
784.60	1425.39
784.77	1308.65
784.95	1372.14
785.12	1314.80
785.30	1310.70
785.47	1331.18
785.65	1294.32
785.83	1406.95
786.00	1398.76
786.18	1353.71
786.35	1288.17
786.53	1325.04
786.71	1372.14
786.88	1349.61
787.06	1341.42
787.23	1337.32
787.41	1308.65
787.58	1366.00
787.76	1355.76
787.94	1417.19
788.11	1366.00
788.29	1290.22
788.46	1337.32
788.64	1320.94
788.81	1341.42
788.99	1390.57
789.16	1298.41
789.34	1363.95
789.52	1376.24
789.69	1314.80
789.87	1282.03
790.04	1423.34
790.22	1355.76
790.39	1482.73
790.57	1402.86
790.74	1353.71
790.92	1380.33
791.09	1380.33
791.27	1382.38
791.44	1388.52
791.62	1402.86
791.79	1327.08
791.97	1306.60
792.15	1484.78
792.32	1382.38
792.50	1417.19
792.67	1343.47
792.85	1419.24
793.02	1355.76
793.20	1355.76
793.37	1318.89
793.55	1343.47
793.72	1329.13
793.90	1370.09
794.07	1279.98
794.25	1345.52
794.42	1366.00
794.60	1308.65
794.77	1413.10
794.95	1372.14
795.12	1433.58
795.30	1345.52
795.47	1310.70
795.65	1462.25
795.82	1404.91
796.00	1378.28
796.17	1406.95
796.34	1312.75
796.52	1312.75
796.69	1351.66
796.87	1363.95
797.04	1372.14
797.22	1355.76
797.39	1361.90
797.57	1409.00
797.74	1320.94
797.92	1406.95
798.09	1316.84
798.27	1427.43
798.44	1318.89
798.62	1294.32
798.79	1384.43
798.96	1394.67
799.14	1413.10
799.31	1462.25
799.49	1404.91
799.66	1279.98
799.84	1378.28
800.01	1347.56
800.19	1449.96
800.36	1310.70
800.53	1392.62
800.71	1429.48
800.88	1460.20
801.06	1382.38
801.23	1417.19
801.41	1298.41
801.58	1374.19
801.75	1320.94
801.93	1380.33
802.10	1380.33
802.28	1411.05
802.45	1343.47
802.63	1347.56
802.80	1411.05
802.97	1294.32
803.15	1322.99
803.32	1345.52
803.50	1353.71
803.67	1374.19
803.84	1335.28
804.02	1370.09
804.19	1341.42
804.37	1226.73
804.54	1374.19
804.71	1282.03
804.89	1316.84
805.06	1345.52
805.24	1294.32
805.41	1339.37
805.58	1384.43
805.76	1445.87
805.93	1337.32
806.10	1476.59
806.28	1376.24
806.45	1421.29
806.63	1296.36
806.80	1390.57
806.97	1376.24
807.15	1394.67
807.32	1380.33
807.49	1337.32
807.67	1300.46
807.84	1382.38
808.01	1310.70
808.19	1413.10
808.36	1525.74
808.54	1380.33
808.71	1347.56
808.88	1413.10
809.06	1392.62
809.23	1462.25
809.40	1316.84
809.58	1409.00
809.75	1386.47
809.92	1236.97
810.10	1437.67
810.27	1337.32
810.44	1351.66
810.62	1429.48
810.79	1404.91
810.96	1331.18
811.14	1370.09
811.31	1398.76
811.48	1302.51
811.66	1335.28
811.83	1384.43
812.00	1331.18
812.18	1400.81
812.35	1472.49
812.52	1265.64
812.69	1366.00
812.87	1361.90
813.04	1337.32
813.21	1329.13
813.39	1339.37
813.56	1363.95
813.73	1380.33
813.91	1308.65
814.08	1380.33
814.25	1333.23
814.42	1263.60
814.60	1359.85
814.77	1345.52
814.94	1376.24
815.12	1406.95
815.29	1380.33
815.46	1343.47
815.63	1425.39
815.81	1413.10
815.98	1259.50
816.15	1325.04
816.33	1347.56
816.50	1310.70
816.67	1333.23
816.84	1390.57
817.02	1247.21
817.19	1372.14
817.36	1306.60
817.53	1353.71
817.71	1406.95
817.88	1351.66
818.05	1359.85
818.22	1314.80
818.40	1411.05
818.57	1363.95
818.74	1372.14
818.91	1363.95
819.09	1343.47
819.26	1363.95
819.43	1384.43
819.60	1388.52
819.78	1370.09
819.95	1449.96
820.12	1327.08
820.29	1394.67
820.47	1308.65
820.64	1288.17
820.81	1294.32
820.98	1318.89
821.15	1449.96
821.33	1454.06
821.50	1310.70
821.67	1482.73
821.84	1384.43
822.02	1429.48
822.19	1357.80
822.36	1320.94
822.53	1345.52
822.70	1316.84
822.88	1480.68
823.05	1480.68
823.22	1357.80
823.39	1427.43
823.56	1400.81
823.74	1402.86
823.91	1376.24
824.08	1425.39
824.25	1343.47
824.42	1380.33
824.60	1368.04
824.77	1386.47
824.94	1351.66
825.11	1380.33
825.28	1329.13
825.45	1368.04
825.63	1380.33
825.80	1333.23
825.97	1368.04
826.14	1329.13
826.31	1343.47
826.48	1411.05
826.66	1300.46
826.83	1361.90
827.00	1435.63
827.17	1316.84
827.34	1384.43
827.51	1386.47
827.69	1400.81
827.86	1329.13
828.03	1421.29
828.20	1284.08
828.37	1331.18
828.54	1380.33
828.71	1337.32
828.89	1425.39
829.06	1392.62
829.23	1433.58
829.40	1304.56
829.57	1361.90
829.74	1359.85
829.91	1347.56
830.09	1290.22
830.26	1314.80
830.43	1404.91
830.60	1378.28
830.77	1349.61
830.94	1366.00
831.11	1404.91
831.28	1376.24
831.46	1452.01
831.63	1351.66
831.80	1402.86
831.97	1386.47
832.14	1449.96
832.31	1366.00
832.48	1419.24
832.65	1345.52
832.82	1318.89
832.99	1392.62
833.17	1267.69
833.34	1392.62
833.51	1378.28
833.68	1312.75
833.85	1318.89
834.02	1322.99
834.19	1322.99
834.36	1290.22
834.53	1398.76
834.70	1355.76
834.87	1370.09
835.04	1386.47
835.22	1310.70
835.39	1361.90
835.56	1288.17
835.73	1404.91
835.90	1390.57
836.07	1296.36
836.24	1363.95
836.41	1320.94
836.58	1335.28
836.75	1378.28
836.92	1380.33
837.09	1363.95
837.26	1361.90
837.43	1402.86
837.60	1361.90
837.77	1343.47
837.94	1382.38
838.12	1447.91
838.29	1376.24
838.46	1273.84
838.63	1386.47
838.80	1495.02
838.97	1388.52
839.14	1370.09
839.31	1380.33
839.48	1398.76
839.65	1466.35
839.82	1388.52
839.99	1357.80
840.16	1290.22
840.33	1355.76
840.50	1421.29
840.67	1261.55
840.84	1363.95
841.01	1404.91
841.18	1325.04
841.35	1337.32
841.52	1370.09
841.69	1404.91
841.86	1366.00
842.03	1433.58
842.20	1409.00
842.37	1384.43
842.54	1392.62
842.71	1366.00
842.88	1347.56
843.05	1470.44
843.22	1292.27
843.39	1296.36
843.56	1277.93
843.73	1421.29
843.90	1396.71
844.07	1353.71
844.24	1425.39
844.41	1388.52
844.58	1347.56
844.75	1382.38
844.92	1425.39
845.09	1308.65
845.26	1366.00
845.43	1351.66
845.60	1292.27
845.77	1417.19
845.94	1392.62
846.10	1306.60
846.27	1329.13
846.44	1347.56
846.61	1353.71
846.78	1325.04
846.95	1398.76
847.12	1351.66
847.29	1327.08
847.46	1282.03
847.63	1331.18
847.80	1322.99
847.97	1355.76
848.14	1435.63
848.31	1411.05
848.48	1363.95
848.65	1368.04
848.82	1339.37
848.98	1509.35
849.15	1374.19
849.32	1470.44
849.49	1320.94
849.66	1380.33
849.83	1398.76
850.00	1400.81
850.17	1345.52
850.34	1380.33
850.51	1304.56
850.68	1345.52
850.85	1447.91
851.01	1378.28
851.18	1355.76
851.35	1327.08
851.52	1474.54
851.69	1374.19
851.86	1304.56
852.03	1454.06
852.20	1355.76
852.37	1363.95
852.53	1312.75
852.70	1398.76
852.87	1345.52
853.04	1312.75
853.21	1406.95
853.38	1437.67
853.55	1458.15
853.72	1376.24
853.89	1337.32
854.05	1347.56
854.22	1347.56
854.39	1413.10
854.56	1345.52
854.73	1415.15
854.90	1361.90
855.07	1368.04
855.23	1404.91
855.40	1415.15
855.57	1361.90
855.74	1294.32
855.91	1462.25
856.08	1359.85
856.25	1282.03
856.41	1402.86
856.58	1351.66
856.75	1353.71
856.92	1286.12
857.09	1409.00
857.26	1341.42
857.42	1368.04
857.59	1286.12
857.76	1351.66
857.93	1435.63
858.10	1415.15
858.27	1380.33
858.43	1355.76
858.60	1316.84
858.77	1267.69
858.94	1290.22
859.11	1411.05
859.27	1400.81
859.44	1368.04
859.61	1480.68
859.78	1335.28
859.95	1312.75
860.12	1329.13
860.28	1460.20
860.45	1480.68
860.62	1314.80
860.79	1400.81
860.95	1325.04
861.12	1302.51
861.29	1302.51
861.46	1378.28
861.63	1335.28
861.79	1355.76
861.96	1349.61
862.13	1425.39
862.30	1435.63
862.47	1363.95
862.63	1302.51
862.80	1355.76
862.97	1466.35
863.14	1439.72
863.30	1384.43
863.47	1355.76
863.64	1380.33
863.81	1363.95
863.97	1351.66
864.14	1306.60
864.31	1267.69
864.48	1327.08
864.65	1347.56
864.81	1394.67
864.98	1343.47
865.15	1413.10
865.32	1443.82
865.48	1388.52
865.65	1456.11
865.82	1380.33
865.98	1445.87
866.15	1318.89
866.32	1390.57
866.49	1394.67
866.65	1386.47
866.82	1355.76
866.99	1355.76
867.16	1376.24
867.32	1279.98
867.49	1300.46
867.66	1449.96
867.83	1351.66
867.99	1288.17
868.16	1394.67
868.33	1376.24
868.49	1368.04
868.66	1392.62
868.83	1388.52
868.99	1331.18
869.16	1402.86
869.33	1388.52
869.50	1386.47
869.66	1382.38
869.83	1423.34
870.00	1300.46
870.16	1347.56
870.33	1355.76
870.50	1392.62
870.66	1361.90
870.83	1413.10
871.00	1368.04
871.17	1333.23
871.33	1417.19
871.50	1359.85
871.67	1349.61
871.83	1384.43
872.00	1368.04
872.17	1411.05
872.33	1355.76
872.50	1384.43
872.67	1419.24
872.83	1384.43
873.00	1355.76
873.17	1341.42
873.33	1409.00
873.50	1370.09
873.67	1406.95
873.83	1337.32
874.00	1337.32
874.16	1406.95
874.33	1398.76
874.50	1312.75
874.66	1454.06
874.83	1357.80
875.00	1314.80
875.16	1406.95
875.33	1368.04
875.50	1316.84
875.66	1294.32
875.83	1370.09
875.99	1374.19
876.16	1327.08
876.33	1351.66
876.49	1368.04
876.66	1425.39
876.83	1366.00
876.99	1316.84
877.16	1296.36
877.32	1366.00
877.49	1380.33
877.66	1343.47
877.82	1470.44
877.99	1345.52
878.15	1427.43
878.32	1392.62
878.49	1366.00
878.65	1363.95
878.82	1429.48
878.98	1374.19
879.15	1355.76
879.32	1417.19
879.48	1359.85
879.65	1366.00
879.81	1366.00
879.98	1404.91
880.15	1366.00
880.31	1300.46
880.48	1310.70
880.64	1400.81
880.81	1335.28
880.97	1370.09
881.14	1413.10
881.31	1327.08
881.47	1458.15
881.64	1366.00
881.80	1298.41
881.97	1372.14
882.13	1486.83
882.30	1378.28
882.47	1392.62
882.63	1349.61
882.80	1292.27
882.96	1308.65
883.13	1460.20
883.29	1353.71
883.46	1415.15
883.62	1398.76
883.79	1368.04
883.95	1439.72
884.12	1345.52
884.29	1386.47
884.45	1409.00
884.62	1398.76
884.78	1241.07
884.95	1361.90
885.11	1310.70
885.28	1478.63
885.44	1357.80
885.61	1376.24
885.77	1322.99
885.94	1380.33
886.10	1404.91
886.27	1318.89
886.43	1433.58
886.60	1400.81
886.76	1279.98
886.93	1316.84
887.09	1400.81
887.26	1277.93
887.42	1294.32
887.59	1366.00
887.75	1474.54
887.92	1392.62
888.08	1374.19
888.25	1368.04
888.41	1376.24
888.58	1341.42
888.74	1380.33
888.91	1337.32
>>>>>End Processed Spectral Data<<<<<
