SpectraSuite Data File
++++++++++++++++++++++++++++++++++++
Date: Tue May 03 11:24:03 CEST 2016
User: root
Dark Spectrum Present: No
Reference Spectrum Present: No
Number of Sampled Component Spectra: 1
Spectrometers: USB4C02835
Integration Time (usec): 100000 (USB4C02835)
Spectra Averaged: 1 (USB4C02835)
Boxcar Smoothing: 0 (USB4C02835)
Correct for Electrical Dark: No (USB4C02835)
Strobe/Lamp Enabled: No (USB4C02835)
Correct for Detector Non-linearity: No (USB4C02835)
Correct for Stray Light: No (USB4C02835)
Number of Pixels in Processed Spectrum: 3648
>>>>>Begin Processed Spectral Data<<<<<
177.47	1234.93
177.69	1234.93
177.91	1234.93
178.13	1198.06
178.36	1255.40
178.58	1347.56
178.80	1384.43
179.02	1306.60
179.24	1341.42
179.46	1370.09
179.68	1343.47
179.90	1376.24
180.13	1398.76
180.35	1314.80
180.57	1341.42
180.79	1363.95
181.01	1316.84
181.23	1411.05
181.45	1425.39
181.67	1413.10
181.90	1386.47
182.12	1271.79
182.34	1392.62
182.56	1386.47
182.78	1421.29
183.00	1341.42
183.22	1394.67
183.44	1261.55
183.66	1474.54
183.89	1349.61
184.11	1411.05
184.33	1349.61
184.55	1380.33
184.77	1411.05
184.99	1429.48
185.21	1353.71
185.43	1425.39
185.65	1351.66
185.87	1388.52
186.10	1437.67
186.32	1435.63
186.54	1388.52
186.76	1390.57
186.98	1437.67
187.20	1363.95
187.42	1376.24
187.64	1439.72
187.86	1378.28
188.08	1456.11
188.30	1353.71
188.52	1380.33
188.75	1447.91
188.97	1441.77
189.19	1339.37
189.41	1411.05
189.63	1400.81
189.85	1351.66
190.07	1302.51
190.29	1351.66
190.51	1366.00
190.73	1359.85
190.95	1325.04
191.17	1413.10
191.39	1343.47
191.61	1351.66
191.84	1441.77
192.06	1429.48
192.28	1294.32
192.50	1435.63
192.72	1402.86
192.94	1443.82
193.16	1349.61
193.38	1300.46
193.60	1353.71
193.82	1325.04
194.04	1449.96
194.26	1314.80
194.48	1339.37
194.70	1363.95
194.92	1370.09
195.14	1402.86
195.36	1339.37
195.58	1347.56
195.80	1361.90
196.02	1347.56
196.24	1400.81
196.46	1300.46
196.69	1390.57
196.91	1468.39
197.13	1372.14
197.35	1413.10
197.57	1433.58
197.79	1339.37
198.01	1402.86
198.23	1433.58
198.45	1376.24
198.67	1312.75
198.89	1392.62
199.11	1466.35
199.33	1345.52
199.55	1286.12
199.77	1359.85
199.99	1419.24
200.21	1331.18
200.43	1421.29
200.65	1271.79
200.87	1349.61
201.09	1320.94
201.31	1382.38
201.53	1386.47
201.75	1361.90
201.97	1380.33
202.19	1439.72
202.41	1392.62
202.63	1499.11
202.85	1300.46
203.07	1396.71
203.29	1314.80
203.51	1314.80
203.73	1322.99
203.95	1495.02
204.17	1398.76
204.39	1464.30
204.61	1325.04
204.83	1421.29
205.05	1378.28
205.27	1386.47
205.49	1388.52
205.71	1417.19
205.93	1366.00
206.15	1394.67
206.37	1353.71
206.59	1390.57
206.81	1372.14
207.03	1376.24
207.25	1357.80
207.47	1439.72
207.69	1335.28
207.91	1400.81
208.13	1419.24
208.34	1343.47
208.56	1349.61
208.78	1394.67
209.00	1284.08
209.22	1335.28
209.44	1384.43
209.66	1400.81
209.88	1402.86
210.10	1273.84
210.32	1372.14
210.54	1425.39
210.76	1355.76
210.98	1404.91
211.20	1277.93
211.42	1378.28
211.64	1325.04
211.86	1357.80
212.08	1431.53
212.30	1353.71
212.52	1370.09
212.74	1310.70
212.96	1359.85
213.17	1376.24
213.39	1345.52
213.61	1386.47
213.83	1409.00
214.05	1368.04
214.27	1425.39
214.49	1333.23
214.71	1310.70
214.93	1386.47
215.15	1335.28
215.37	1314.80
215.59	1347.56
215.81	1468.39
216.03	1300.46
216.24	1316.84
216.46	1435.63
216.68	1316.84
216.90	1421.29
217.12	1435.63
217.34	1388.52
217.56	1368.04
217.78	1447.91
218.00	1400.81
218.22	1310.70
218.44	1435.63
218.66	1372.14
218.87	1404.91
219.09	1341.42
219.31	1411.05
219.53	1402.86
219.75	1267.69
219.97	1357.80
220.19	1431.53
220.41	1372.14
220.63	1445.87
220.85	1398.76
221.06	1370.09
221.28	1392.62
221.50	1370.09
221.72	1372.14
221.94	1363.95
222.16	1415.15
222.38	1345.52
222.60	1384.43
222.82	1392.62
223.03	1429.48
223.25	1294.32
223.47	1394.67
223.69	1423.34
223.91	1417.19
224.13	1335.28
224.35	1292.27
224.57	1443.82
224.78	1441.77
225.00	1419.24
225.22	1374.19
225.44	1435.63
225.66	1411.05
225.88	1337.32
226.10	1363.95
226.32	1370.09
226.53	1435.63
226.75	1345.52
226.97	1322.99
227.19	1343.47
227.41	1341.42
227.63	1279.98
227.85	1322.99
228.06	1353.71
228.28	1437.67
228.50	1429.48
228.72	1423.34
228.94	1437.67
229.16	1325.04
229.37	1298.41
229.59	1396.71
229.81	1419.24
230.03	1339.37
230.25	1386.47
230.47	1302.51
230.69	1269.74
230.90	1402.86
231.12	1320.94
231.34	1327.08
231.56	1441.77
231.78	1331.18
232.00	1357.80
232.21	1372.14
232.43	1359.85
232.65	1257.45
232.87	1372.14
233.09	1351.66
233.30	1396.71
233.52	1445.87
233.74	1306.60
233.96	1421.29
234.18	1372.14
234.40	1368.04
234.61	1386.47
234.83	1325.04
235.05	1331.18
235.27	1431.53
235.49	1411.05
235.70	1347.56
235.92	1355.76
236.14	1400.81
236.36	1509.35
236.58	1368.04
236.79	1421.29
237.01	1357.80
237.23	1366.00
237.45	1456.11
237.67	1331.18
237.88	1355.76
238.10	1447.91
238.32	1402.86
238.54	1366.00
238.76	1341.42
238.97	1343.47
239.19	1363.95
239.41	1359.85
239.63	1318.89
239.85	1368.04
240.06	1349.61
240.28	1312.75
240.50	1368.04
240.72	1351.66
240.93	1294.32
241.15	1396.71
241.37	1351.66
241.59	1382.38
241.81	1339.37
242.02	1318.89
242.24	1345.52
242.46	1425.39
242.68	1320.94
242.89	1351.66
243.11	1370.09
243.33	1388.52
243.55	1400.81
243.76	1462.25
243.98	1376.24
244.20	1433.58
244.42	1398.76
244.64	1366.00
244.85	1300.46
245.07	1382.38
245.29	1335.28
245.51	1357.80
245.72	1345.52
245.94	1419.24
246.16	1404.91
246.38	1427.43
246.59	1292.27
246.81	1396.71
247.03	1349.61
247.24	1251.31
247.46	1325.04
247.68	1314.80
247.90	1329.13
248.11	1345.52
248.33	1417.19
248.55	1345.52
248.77	1345.52
248.98	1454.06
249.20	1372.14
249.42	1382.38
249.64	1382.38
249.85	1417.19
250.07	1368.04
250.29	1335.28
250.50	1441.77
250.72	1304.56
250.94	1366.00
251.16	1396.71
251.37	1415.15
251.59	1421.29
251.81	1439.72
252.02	1411.05
252.24	1298.41
252.46	1386.47
252.68	1290.22
252.89	1380.33
253.11	1302.51
253.33	1368.04
253.54	1366.00
253.76	1366.00
253.98	1335.28
254.20	1380.33
254.41	1263.60
254.63	1429.48
254.85	1325.04
255.06	1345.52
255.28	1386.47
255.50	1376.24
255.71	1335.28
255.93	1310.70
256.15	1261.55
256.36	1419.24
256.58	1419.24
256.80	1423.34
257.02	1406.95
257.23	1363.95
257.45	1386.47
257.67	1331.18
257.88	1363.95
258.10	1384.43
258.32	1413.10
258.53	1357.80
258.75	1361.90
258.97	1288.17
259.18	1380.33
259.40	1345.52
259.62	1417.19
259.83	1406.95
260.05	1419.24
260.27	1540.07
260.48	1386.47
260.70	1304.56
260.92	1435.63
261.13	1404.91
261.35	1386.47
261.57	1392.62
261.78	1253.36
262.00	1376.24
262.22	1368.04
262.43	1376.24
262.65	1339.37
262.86	1314.80
263.08	1439.72
263.30	1384.43
263.51	1325.04
263.73	1267.69
263.95	1392.62
264.16	1425.39
264.38	1339.37
264.60	1466.35
264.81	1400.81
265.03	1363.95
265.25	1363.95
265.46	1316.84
265.68	1431.53
265.89	1345.52
266.11	1288.17
266.33	1452.01
266.54	1366.00
266.76	1392.62
266.98	1398.76
267.19	1359.85
267.41	1419.24
267.62	1431.53
267.84	1353.71
268.06	1374.19
268.27	1415.15
268.49	1386.47
268.70	1413.10
268.92	1357.80
269.14	1304.56
269.35	1380.33
269.57	1402.86
269.79	1357.80
270.00	1298.41
270.22	1495.02
270.43	1333.23
270.65	1236.97
270.87	1327.08
271.08	1413.10
271.30	1456.11
271.51	1445.87
271.73	1429.48
271.95	1384.43
272.16	1447.91
272.38	1384.43
272.59	1306.60
272.81	1415.15
273.02	1327.08
273.24	1322.99
273.46	1361.90
273.67	1325.04
273.89	1341.42
274.10	1355.76
274.32	1363.95
274.54	1370.09
274.75	1370.09
274.97	1380.33
275.18	1363.95
275.40	1425.39
275.61	1363.95
275.83	1339.37
276.05	1322.99
276.26	1384.43
276.48	1333.23
276.69	1374.19
276.91	1359.85
277.12	1404.91
277.34	1388.52
277.55	1343.47
277.77	1337.32
277.99	1335.28
278.20	1351.66
278.42	1361.90
278.63	1308.65
278.85	1300.46
279.06	1308.65
279.28	1468.39
279.49	1363.95
279.71	1413.10
279.93	1396.71
280.14	1355.76
280.36	1337.32
280.57	1439.72
280.79	1437.67
281.00	1363.95
281.22	1308.65
281.43	1361.90
281.65	1247.21
281.86	1320.94
282.08	1374.19
282.29	1429.48
282.51	1306.60
282.73	1304.56
282.94	1335.28
283.16	1396.71
283.37	1390.57
283.59	1370.09
283.80	1370.09
284.02	1380.33
284.23	1302.51
284.45	1411.05
284.66	1363.95
284.88	1239.02
285.09	1359.85
285.31	1382.38
285.52	1372.14
285.74	1325.04
285.95	1443.82
286.17	1380.33
286.38	1335.28
286.60	1486.83
286.81	1337.32
287.03	1343.47
287.24	1394.67
287.46	1392.62
287.67	1382.38
287.89	1388.52
288.10	1429.48
288.32	1396.71
288.53	1441.77
288.75	1343.47
288.96	1413.10
289.18	1302.51
289.39	1337.32
289.61	1368.04
289.82	1501.16
290.04	1439.72
290.25	1382.38
290.47	1329.13
290.68	1353.71
290.90	1318.89
291.11	1318.89
291.33	1388.52
291.54	1290.22
291.76	1355.76
291.97	1359.85
292.18	1392.62
292.40	1333.23
292.61	1400.81
292.83	1443.82
293.04	1427.43
293.26	1288.17
293.47	1368.04
293.69	1355.76
293.90	1351.66
294.12	1417.19
294.33	1374.19
294.55	1337.32
294.76	1406.95
294.97	1406.95
295.19	1458.15
295.40	1361.90
295.62	1396.71
295.83	1421.29
296.05	1359.85
296.26	1320.94
296.48	1271.79
296.69	1378.28
296.90	1390.57
297.12	1339.37
297.33	1384.43
297.55	1308.65
297.76	1343.47
297.98	1390.57
298.19	1361.90
298.41	1292.27
298.62	1308.65
298.83	1460.20
299.05	1361.90
299.26	1345.52
299.48	1312.75
299.69	1370.09
299.90	1394.67
300.12	1351.66
300.33	1460.20
300.55	1409.00
300.76	1429.48
300.98	1351.66
301.19	1427.43
301.40	1415.15
301.62	1400.81
301.83	1447.91
302.05	1329.13
302.26	1386.47
302.47	1357.80
302.69	1294.32
302.90	1402.86
303.12	1302.51
303.33	1402.86
303.54	1366.00
303.76	1380.33
303.97	1320.94
304.19	1404.91
304.40	1327.08
304.61	1402.86
304.83	1427.43
305.04	1400.81
305.26	1345.52
305.47	1327.08
305.68	1396.71
305.90	1308.65
306.11	1404.91
306.33	1372.14
306.54	1292.27
306.75	1392.62
306.97	1345.52
307.18	1218.54
307.39	1322.99
307.61	1341.42
307.82	1345.52
308.04	1366.00
308.25	1282.03
308.46	1361.90
308.68	1359.85
308.89	1357.80
309.10	1425.39
309.32	1343.47
309.53	1361.90
309.74	1388.52
309.96	1310.70
310.17	1419.24
310.39	1331.18
310.60	1357.80
310.81	1329.13
311.03	1327.08
311.24	1427.43
311.45	1394.67
311.67	1492.97
311.88	1411.05
312.09	1329.13
312.31	1322.99
312.52	1445.87
312.73	1376.24
312.95	1335.28
313.16	1310.70
313.37	1372.14
313.59	1368.04
313.80	1404.91
314.01	1380.33
314.23	1394.67
314.44	1357.80
314.65	1316.84
314.87	1314.80
315.08	1404.91
315.29	1308.65
315.51	1374.19
315.72	1310.70
315.93	1425.39
316.15	1372.14
316.36	1349.61
316.57	1363.95
316.79	1359.85
317.00	1343.47
317.21	1333.23
317.43	1349.61
317.64	1388.52
317.85	1374.19
318.07	1497.07
318.28	1509.35
318.49	1542.12
318.70	1720.29
318.92	1517.54
319.13	1492.97
319.34	1507.30
319.56	1533.93
319.77	1366.00
319.98	1472.49
320.20	1406.95
320.41	1484.78
320.62	1415.15
320.83	1415.15
321.05	1558.50
321.26	1386.47
321.47	1368.04
321.69	1372.14
321.90	1286.12
322.11	1388.52
322.32	1366.00
322.54	1355.76
322.75	1322.99
322.96	1378.28
323.18	1337.32
323.39	1304.56
323.60	1294.32
323.81	1419.24
324.03	1363.95
324.24	1296.36
324.45	1392.62
324.66	1370.09
324.88	1429.48
325.09	1337.32
325.30	1445.87
325.52	1380.33
325.73	1411.05
325.94	1368.04
326.15	1304.56
326.37	1325.04
326.58	1441.77
326.79	1439.72
327.00	1390.57
327.22	1361.90
327.43	1333.23
327.64	1357.80
327.85	1419.24
328.07	1392.62
328.28	1376.24
328.49	1284.08
328.70	1318.89
328.92	1374.19
329.13	1370.09
329.34	1353.71
329.55	1441.77
329.76	1421.29
329.98	1355.76
330.19	1427.43
330.40	1368.04
330.61	1372.14
330.83	1335.28
331.04	1361.90
331.25	1411.05
331.46	1423.34
331.68	1273.84
331.89	1445.87
332.10	1433.58
332.31	1337.32
332.52	1286.12
332.74	1492.97
332.95	1339.37
333.16	1427.43
333.37	1329.13
333.58	1359.85
333.80	1363.95
334.01	1376.24
334.22	1290.22
334.43	1378.28
334.64	1394.67
334.86	1292.27
335.07	1271.79
335.28	1357.80
335.49	1378.28
335.70	1339.37
335.92	1351.66
336.13	1476.59
336.34	1361.90
336.55	1392.62
336.76	1310.70
336.98	1290.22
337.19	1322.99
337.40	1492.97
337.61	1388.52
337.82	1343.47
338.04	1472.49
338.25	1292.27
338.46	1282.03
338.67	1413.10
338.88	1380.33
339.09	1314.80
339.31	1366.00
339.52	1368.04
339.73	1384.43
339.94	1390.57
340.15	1388.52
340.36	1333.23
340.58	1386.47
340.79	1396.71
341.00	1345.52
341.21	1284.08
341.42	1509.35
341.63	1298.41
341.85	1400.81
342.06	1380.33
342.27	1304.56
342.48	1357.80
342.69	1267.69
342.90	1380.33
343.12	1335.28
343.33	1394.67
343.54	1396.71
343.75	1386.47
343.96	1378.28
344.17	1363.95
344.38	1349.61
344.60	1345.52
344.81	1337.32
345.02	1308.65
345.23	1380.33
345.44	1421.29
345.65	1378.28
345.86	1435.63
346.07	1357.80
346.29	1337.32
346.50	1363.95
346.71	1382.38
346.92	1433.58
347.13	1470.44
347.34	1415.15
347.55	1333.23
347.76	1341.42
347.98	1366.00
348.19	1318.89
348.40	1390.57
348.61	1361.90
348.82	1341.42
349.03	1363.95
349.24	1329.13
349.45	1372.14
349.66	1300.46
349.88	1433.58
350.09	1298.41
350.30	1400.81
350.51	1443.82
350.72	1396.71
350.93	1429.48
351.14	1413.10
351.35	1345.52
351.56	1357.80
351.77	1378.28
351.99	1413.10
352.20	1411.05
352.41	1415.15
352.62	1300.46
352.83	1359.85
353.04	1304.56
353.25	1374.19
353.46	1351.66
353.67	1425.39
353.88	1376.24
354.09	1359.85
354.30	1320.94
354.52	1435.63
354.73	1378.28
354.94	1335.28
355.15	1374.19
355.36	1384.43
355.57	1396.71
355.78	1351.66
355.99	1300.46
356.20	1333.23
356.41	1402.86
356.62	1329.13
356.83	1390.57
357.04	1458.15
357.25	1372.14
357.46	1357.80
357.68	1302.51
357.89	1304.56
358.10	1339.37
358.31	1419.24
358.52	1343.47
358.73	1310.70
358.94	1386.47
359.15	1357.80
359.36	1331.18
359.57	1370.09
359.78	1284.08
359.99	1400.81
360.20	1310.70
360.41	1376.24
360.62	1472.49
360.83	1468.39
361.04	1402.86
361.25	1443.82
361.46	1452.01
361.67	1355.76
361.88	1419.24
362.09	1429.48
362.30	1327.08
362.51	1386.47
362.72	1378.28
362.93	1468.39
363.14	1425.39
363.35	1310.70
363.56	1394.67
363.78	1386.47
363.99	1462.25
364.20	1372.14
364.41	1396.71
364.62	1454.06
364.83	1429.48
365.04	1335.28
365.25	1349.61
365.46	1470.44
365.67	1335.28
365.88	1421.29
366.09	1320.94
366.30	1445.87
366.51	1394.67
366.72	1284.08
366.93	1355.76
367.14	1361.90
367.35	1445.87
367.56	1384.43
367.77	1380.33
367.98	1386.47
368.18	1372.14
368.39	1413.10
368.60	1265.64
368.81	1460.20
369.02	1415.15
369.23	1331.18
369.44	1347.56
369.65	1374.19
369.86	1357.80
370.07	1433.58
370.28	1310.70
370.49	1490.92
370.70	1486.83
370.91	1372.14
371.12	1296.36
371.33	1425.39
371.54	1329.13
371.75	1480.68
371.96	1282.03
372.17	1331.18
372.38	1380.33
372.59	1404.91
372.80	1413.10
373.01	1439.72
373.22	1368.04
373.43	1384.43
373.64	1390.57
373.85	1468.39
374.06	1380.33
374.26	1468.39
374.47	1333.23
374.68	1359.85
374.89	1404.91
375.10	1249.26
375.31	1492.97
375.52	1347.56
375.73	1374.19
375.94	1320.94
376.15	1370.09
376.36	1333.23
376.57	1337.32
376.78	1327.08
376.99	1394.67
377.20	1495.02
377.40	1298.41
377.61	1443.82
377.82	1388.52
378.03	1404.91
378.24	1452.01
378.45	1304.56
378.66	1382.38
378.87	1337.32
379.08	1376.24
379.29	1282.03
379.50	1378.28
379.71	1372.14
379.91	1368.04
380.12	1347.56
380.33	1359.85
380.54	1363.95
380.75	1363.95
380.96	1366.00
381.17	1490.92
381.38	1378.28
381.59	1406.95
381.80	1425.39
382.00	1576.94
382.21	1439.72
382.42	1468.39
382.63	1527.78
382.84	1456.11
383.05	1388.52
383.26	1464.30
383.47	1386.47
383.68	1394.67
383.88	1468.39
384.09	1423.34
384.30	1486.83
384.51	1378.28
384.72	1351.66
384.93	1388.52
385.14	1382.38
385.35	1363.95
385.55	1437.67
385.76	1425.39
385.97	1417.19
386.18	1316.84
386.39	1388.52
386.60	1398.76
386.81	1413.10
387.02	1380.33
387.22	1370.09
387.43	1511.40
387.64	1576.94
387.85	2281.44
388.06	5695.40
388.27	9406.32
388.48	11462.48
388.68	13184.82
388.89	13363.00
389.10	10659.68
389.31	9377.65
389.52	8400.77
389.73	7407.50
389.93	6920.09
390.14	6504.35
390.35	6197.15
390.56	5404.59
390.77	4540.35
390.98	3616.71
391.18	2836.44
391.39	2074.59
391.60	1675.24
391.81	1538.02
392.02	1400.81
392.23	1452.01
392.43	1345.52
392.64	1460.20
392.85	1347.56
393.06	1443.82
393.27	1359.85
393.47	1368.04
393.68	1314.80
393.89	1363.95
394.10	1368.04
394.31	1374.19
394.52	1394.67
394.72	1437.67
394.93	1480.68
395.14	1351.66
395.35	1363.95
395.56	1404.91
395.76	1495.02
395.97	1535.98
396.18	1617.90
396.39	1591.27
396.60	1691.62
396.80	1560.55
397.01	1595.37
397.22	1535.98
397.43	1476.59
397.64	1482.73
397.84	1482.73
398.05	1523.69
398.26	1437.67
398.47	1419.24
398.67	1476.59
398.88	1478.63
399.09	1423.34
399.30	1337.32
399.51	1388.52
399.71	1320.94
399.92	1361.90
400.13	1402.86
400.34	1380.33
400.54	1402.86
400.75	1482.73
400.96	1411.05
401.17	1394.67
401.37	1392.62
401.58	1374.19
401.79	1544.17
402.00	1669.09
402.21	1751.01
402.41	1779.68
402.62	1841.12
402.83	1708.01
403.04	1585.13
403.24	1703.91
403.45	1533.93
403.66	1544.17
403.87	1542.12
404.07	1548.26
404.28	1611.75
404.49	1595.37
404.70	1488.87
404.90	1456.11
405.11	1413.10
405.32	1415.15
405.52	1374.19
405.73	1343.47
405.94	1357.80
406.15	1439.72
406.35	1396.71
406.56	1368.04
406.77	1343.47
406.98	1396.71
407.18	1339.37
407.39	1411.05
407.60	1425.39
407.80	1443.82
408.01	1331.18
408.22	1402.86
408.43	1327.08
408.63	1433.58
408.84	1402.86
409.05	1429.48
409.25	1325.04
409.46	1357.80
409.67	1376.24
409.88	1400.81
410.08	1400.81
410.29	1325.04
410.50	1423.34
410.70	1404.91
410.91	1322.99
411.12	1439.72
411.32	1406.95
411.53	1351.66
411.74	1433.58
411.95	1492.97
412.15	1466.35
412.36	1470.44
412.57	1468.39
412.77	1488.87
412.98	1417.19
413.19	1353.71
413.39	1441.77
413.60	1404.91
413.81	1419.24
414.01	1394.67
414.22	1400.81
414.43	1427.43
414.63	1359.85
414.84	1361.90
415.05	1374.19
415.25	1331.18
415.46	1370.09
415.67	1273.84
415.87	1390.57
416.08	1435.63
416.29	1427.43
416.49	1404.91
416.70	1386.47
416.91	1419.24
417.11	1333.23
417.32	1443.82
417.53	1331.18
417.73	1388.52
417.94	1368.04
418.15	1322.99
418.35	1433.58
418.56	1304.56
418.77	1419.24
418.97	1355.76
419.18	1398.76
419.38	1263.60
419.59	1359.85
419.80	1398.76
420.00	1390.57
420.21	1374.19
420.42	1370.09
420.62	1361.90
420.83	1376.24
421.04	1380.33
421.24	1398.76
421.45	1376.24
421.65	1392.62
421.86	1329.13
422.07	1474.54
422.27	1359.85
422.48	1404.91
422.69	1396.71
422.89	1406.95
423.10	1345.52
423.30	1380.33
423.51	1325.04
423.72	1429.48
423.92	1421.29
424.13	1394.67
424.33	1378.28
424.54	1427.43
424.75	1372.14
424.95	1394.67
425.16	1390.57
425.36	1357.80
425.57	1402.86
425.78	1353.71
425.98	1456.11
426.19	1345.52
426.39	1372.14
426.60	1370.09
426.81	1415.15
427.01	1429.48
427.22	1351.66
427.42	1318.89
427.63	1406.95
427.83	1394.67
428.04	1406.95
428.25	1546.22
428.45	1431.53
428.66	1366.00
428.86	1413.10
429.07	1249.26
429.28	1341.42
429.48	1386.47
429.69	1343.47
429.89	1355.76
430.10	1355.76
430.30	1359.85
430.51	1462.25
430.71	1345.52
430.92	1372.14
431.13	1400.81
431.33	1370.09
431.54	1343.47
431.74	1419.24
431.95	1480.68
432.15	1310.70
432.36	1343.47
432.56	1404.91
432.77	1523.69
432.98	1431.53
433.18	1406.95
433.39	1378.28
433.59	1290.22
433.80	1421.29
434.00	1478.63
434.21	1421.29
434.41	1312.75
434.62	1509.35
434.82	1292.27
435.03	1390.57
435.23	1372.14
435.44	1320.94
435.64	1374.19
435.85	1417.19
436.06	1361.90
436.26	1437.67
436.47	1368.04
436.67	1347.56
436.88	1282.03
437.08	1396.71
437.29	1456.11
437.49	1411.05
437.70	1366.00
437.90	1376.24
438.11	1533.93
438.31	1552.36
438.52	1509.35
438.72	1574.89
438.93	1601.51
439.13	1435.63
439.34	1472.49
439.54	1515.50
439.75	1497.07
439.95	1468.39
440.16	1402.86
440.36	1382.38
440.57	1458.15
440.77	1402.86
440.98	1368.04
441.18	1443.82
441.39	1374.19
441.59	1435.63
441.80	1437.67
442.00	1406.95
442.21	1396.71
442.41	1380.33
442.62	1421.29
442.82	1384.43
443.02	1396.71
443.23	1413.10
443.43	1431.53
443.64	1380.33
443.84	1302.51
444.05	1439.72
444.25	1255.40
444.46	1404.91
444.66	1304.56
444.87	1409.00
445.07	1333.23
445.28	1445.87
445.48	1480.68
445.69	1421.29
445.89	1427.43
446.09	1550.31
446.30	2250.72
446.50	3745.73
446.71	4564.92
446.91	5169.07
447.12	5533.61
447.32	4857.78
447.53	4159.42
447.73	3854.28
447.93	3377.10
448.14	3276.75
448.34	2930.64
448.55	2822.10
448.75	2715.61
448.96	2645.98
449.16	2381.79
449.36	2199.52
449.57	1916.90
449.77	1681.38
449.98	1574.89
450.18	1458.15
450.39	1454.06
450.59	1468.39
450.79	1314.80
451.00	1386.47
451.20	1425.39
451.41	1413.10
451.61	1355.76
451.81	1378.28
452.02	1298.41
452.22	1390.57
452.43	1363.95
452.63	1361.90
452.84	1380.33
453.04	1413.10
453.24	1411.05
453.45	1378.28
453.65	1396.71
453.86	1406.95
454.06	1353.71
454.26	1331.18
454.47	1363.95
454.67	1437.67
454.87	1347.56
455.08	1247.21
455.28	1480.68
455.49	1388.52
455.69	1333.23
455.89	1472.49
456.10	1327.08
456.30	1345.52
456.51	1458.15
456.71	1312.75
456.91	1406.95
457.12	1355.76
457.32	1339.37
457.52	1359.85
457.73	1421.29
457.93	1435.63
458.14	1363.95
458.34	1376.24
458.54	1423.34
458.75	1400.81
458.95	1417.19
459.15	1361.90
459.36	1329.13
459.56	1456.11
459.76	1443.82
459.97	1417.19
460.17	1409.00
460.37	1409.00
460.58	1314.80
460.78	1404.91
460.99	1423.34
461.19	1361.90
461.39	1366.00
461.60	1355.76
461.80	1447.91
462.00	1322.99
462.21	1325.04
462.41	1359.85
462.61	1353.71
462.82	1300.46
463.02	1447.91
463.22	1316.84
463.43	1409.00
463.63	1374.19
463.83	1404.91
464.04	1267.69
464.24	1472.49
464.44	1409.00
464.64	1343.47
464.85	1388.52
465.05	1368.04
465.25	1372.14
465.46	1433.58
465.66	1327.08
465.86	1361.90
466.07	1374.19
466.27	1392.62
466.47	1241.07
466.68	1337.32
466.88	1519.59
467.08	1355.76
467.29	1341.42
467.49	1456.11
467.69	1355.76
467.89	1441.77
468.10	1345.52
468.30	1318.89
468.50	1415.15
468.71	1425.39
468.91	1345.52
469.11	1478.63
469.31	1347.56
469.52	1320.94
469.72	1484.78
469.92	1454.06
470.13	1435.63
470.33	1402.86
470.53	1667.05
470.73	2058.21
470.94	2291.68
471.14	2408.41
471.34	2435.03
471.54	2269.15
471.75	1939.43
471.95	1898.47
472.15	1851.36
472.36	1751.01
472.56	1730.53
472.76	1755.11
472.96	1722.34
473.17	1572.84
473.37	1640.42
473.57	1601.51
473.77	1552.36
473.98	1482.73
474.18	1392.62
474.38	1435.63
474.58	1370.09
474.79	1443.82
474.99	1452.01
475.19	1470.44
475.39	1382.38
475.60	1411.05
475.80	1392.62
476.00	1343.47
476.20	1353.71
476.41	1396.71
476.61	1406.95
476.81	1425.39
477.01	1331.18
477.21	1443.82
477.42	1396.71
477.62	1316.84
477.82	1417.19
478.02	1359.85
478.23	1337.32
478.43	1308.65
478.63	1327.08
478.83	1380.33
479.03	1331.18
479.24	1384.43
479.44	1425.39
479.64	1363.95
479.84	1355.76
480.04	1322.99
480.25	1368.04
480.45	1318.89
480.65	1349.61
480.85	1480.68
481.06	1376.24
481.26	1351.66
481.46	1368.04
481.66	1445.87
481.86	1374.19
482.06	1341.42
482.27	1409.00
482.47	1351.66
482.67	1392.62
482.87	1370.09
483.07	1394.67
483.28	1347.56
483.48	1441.77
483.68	1286.12
483.88	1335.28
484.08	1304.56
484.29	1314.80
484.49	1380.33
484.69	1304.56
484.89	1433.58
485.09	1445.87
485.29	1466.35
485.50	1322.99
485.70	1359.85
485.90	1452.01
486.10	1341.42
486.30	1462.25
486.50	1431.53
486.71	1409.00
486.91	1392.62
487.11	1439.72
487.31	1378.28
487.51	1462.25
487.71	1400.81
487.91	1363.95
488.12	1316.84
488.32	1290.22
488.52	1386.47
488.72	1325.04
488.92	1306.60
489.12	1437.67
489.32	1341.42
489.53	1351.66
489.73	1388.52
489.93	1419.24
490.13	1300.46
490.33	1404.91
490.53	1370.09
490.73	1404.91
490.94	1333.23
491.14	1411.05
491.34	1583.08
491.54	2172.89
491.74	2562.01
491.94	2959.31
492.14	3092.43
492.34	2942.93
492.54	2598.87
492.75	2342.88
492.95	2183.13
493.15	2131.94
493.35	2097.12
493.55	1982.43
493.75	1865.70
493.95	1896.42
494.15	1773.54
494.35	1757.16
494.56	1568.74
494.76	1570.79
494.96	1501.16
495.16	1505.26
495.36	1345.52
495.56	1380.33
495.76	1361.90
495.96	1376.24
496.16	1253.36
496.36	1341.42
496.56	1386.47
496.77	1456.11
496.97	1384.43
497.17	1396.71
497.37	1300.46
497.57	1378.28
497.77	1415.15
497.97	1341.42
498.17	1359.85
498.37	1409.00
498.57	1335.28
498.77	1378.28
498.97	1411.05
499.17	1466.35
499.38	1382.38
499.58	1396.71
499.78	1423.34
499.98	1333.23
500.18	1433.58
500.38	1419.24
500.58	1632.23
500.78	2961.36
500.98	5439.40
501.18	6895.51
501.38	8077.19
501.58	8398.72
501.78	7368.59
501.98	5670.83
502.18	5214.13
502.38	4454.33
502.58	4265.92
502.78	3876.80
502.98	3608.52
503.18	3530.70
503.38	3358.67
503.59	3037.14
503.79	2744.28
503.99	2482.14
504.19	2359.26
504.39	2174.94
504.59	2043.87
504.79	1990.63
504.99	1830.88
505.19	1617.90
505.39	1558.50
505.59	1538.02
505.79	1572.84
505.99	1466.35
506.19	1525.74
506.39	1507.30
506.59	1435.63
506.79	1427.43
506.99	1437.67
507.19	1456.11
507.39	1384.43
507.59	1417.19
507.79	1357.80
507.99	1304.56
508.19	1312.75
508.39	1380.33
508.59	1396.71
508.79	1382.38
508.99	1396.71
509.19	1370.09
509.39	1376.24
509.59	1308.65
509.79	1363.95
509.99	1329.13
510.19	1378.28
510.39	1398.76
510.59	1257.45
510.79	1349.61
510.99	1398.76
511.19	1312.75
511.39	1449.96
511.59	1470.44
511.79	1466.35
511.99	1390.57
512.19	1380.33
512.38	1445.87
512.58	1419.24
512.78	1357.80
512.98	1447.91
513.18	1402.86
513.38	1286.12
513.58	1400.81
513.78	1347.56
513.98	1462.25
514.18	1394.67
514.38	1331.18
514.58	1386.47
514.78	1333.23
514.98	1386.47
515.18	1359.85
515.38	1398.76
515.58	1415.15
515.78	1300.46
515.98	1347.56
516.18	1431.53
516.38	1345.52
516.57	1308.65
516.77	1351.66
516.97	1327.08
517.17	1372.14
517.37	1341.42
517.57	1404.91
517.77	1411.05
517.97	1372.14
518.17	1388.52
518.37	1398.76
518.57	1292.27
518.77	1347.56
518.97	1409.00
519.16	1400.81
519.36	1425.39
519.56	1337.32
519.76	1454.06
519.96	1406.95
520.16	1429.48
520.36	1312.75
520.56	1429.48
520.76	1368.04
520.96	1380.33
521.16	1437.67
521.35	1355.76
521.55	1413.10
521.75	1384.43
521.95	1339.37
522.15	1361.90
522.35	1331.18
522.55	1361.90
522.75	1492.97
522.95	1359.85
523.14	1396.71
523.34	1292.27
523.54	1335.28
523.74	1431.53
523.94	1429.48
524.14	1333.23
524.34	1419.24
524.54	1437.67
524.73	1386.47
524.93	1406.95
525.13	1404.91
525.33	1292.27
525.53	1460.20
525.73	1310.70
525.93	1363.95
526.13	1366.00
526.32	1425.39
526.52	1355.76
526.72	1468.39
526.92	1425.39
527.12	1304.56
527.32	1290.22
527.52	1353.71
527.71	1409.00
527.91	1386.47
528.11	1325.04
528.31	1357.80
528.51	1341.42
528.71	1355.76
528.90	1394.67
529.10	1413.10
529.30	1476.59
529.50	1325.04
529.70	1386.47
529.90	1359.85
530.09	1374.19
530.29	1306.60
530.49	1312.75
530.69	1437.67
530.89	1351.66
531.09	1320.94
531.28	1398.76
531.48	1472.49
531.68	1406.95
531.88	1378.28
532.08	1339.37
532.28	1333.23
532.47	1509.35
532.67	1394.67
532.87	1429.48
533.07	1445.87
533.27	1574.89
533.46	1429.48
533.66	1468.39
533.86	1386.47
534.06	1386.47
534.26	1378.28
534.45	1361.90
534.65	1368.04
534.85	1388.52
535.05	1363.95
535.25	1409.00
535.44	1320.94
535.64	1452.01
535.84	1386.47
536.04	1411.05
536.24	1320.94
536.43	1378.28
536.63	1388.52
536.83	1388.52
537.03	1292.27
537.22	1353.71
537.42	1347.56
537.62	1314.80
537.82	1306.60
538.02	1460.20
538.21	1394.67
538.41	1417.19
538.61	1331.18
538.81	1353.71
539.00	1423.34
539.20	1294.32
539.40	1411.05
539.60	1423.34
539.79	1445.87
539.99	1380.33
540.19	1435.63
540.39	1359.85
540.58	1341.42
540.78	1421.29
540.98	1398.76
541.18	1456.11
541.37	1413.10
541.57	1316.84
541.77	1359.85
541.97	1382.38
542.16	1390.57
542.36	1394.67
542.56	1452.01
542.76	1464.30
542.95	1417.19
543.15	1445.87
543.35	1421.29
543.54	1370.09
543.74	1378.28
543.94	1435.63
544.14	1325.04
544.33	1374.19
544.53	1318.89
544.73	1370.09
544.93	1427.43
545.12	1347.56
545.32	1322.99
545.52	1382.38
545.71	1341.42
545.91	1343.47
546.11	1329.13
546.30	1327.08
546.50	1374.19
546.70	1343.47
546.90	1345.52
547.09	1290.22
547.29	1359.85
547.49	1359.85
547.68	1411.05
547.88	1331.18
548.08	1470.44
548.27	1658.85
548.47	1298.41
548.67	1382.38
548.87	1439.72
549.06	1378.28
549.26	1429.48
549.46	1421.29
549.65	1382.38
549.85	1335.28
550.05	1470.44
550.24	1298.41
550.44	1353.71
550.64	1337.32
550.83	1380.33
551.03	1484.78
551.23	1394.67
551.42	1394.67
551.62	1423.34
551.82	1474.54
552.01	1290.22
552.21	1404.91
552.41	1454.06
552.60	1431.53
552.80	1380.33
553.00	1327.08
553.19	1378.28
553.39	1427.43
553.59	1361.90
553.78	1386.47
553.98	1394.67
554.17	1300.46
554.37	1421.29
554.57	1361.90
554.76	1349.61
554.96	1361.90
555.16	1429.48
555.35	1396.71
555.55	1386.47
555.75	1490.92
555.94	1421.29
556.14	1380.33
556.33	1366.00
556.53	1380.33
556.73	1322.99
556.92	1396.71
557.12	1409.00
557.32	1415.15
557.51	1470.44
557.71	1445.87
557.90	1443.82
558.10	1404.91
558.30	1353.71
558.49	1386.47
558.69	1386.47
558.88	1333.23
559.08	1382.38
559.28	1417.19
559.47	1388.52
559.67	1368.04
559.86	1435.63
560.06	1366.00
560.26	1366.00
560.45	1374.19
560.65	1302.51
560.84	1341.42
561.04	1415.15
561.24	1390.57
561.43	1269.74
561.63	1421.29
561.82	1396.71
562.02	1425.39
562.22	1316.84
562.41	1339.37
562.61	1382.38
562.80	1322.99
563.00	1417.19
563.19	1425.39
563.39	1380.33
563.59	1417.19
563.78	1304.56
563.98	1265.64
564.17	1355.76
564.37	1292.27
564.56	1411.05
564.76	1341.42
564.96	1400.81
565.15	1449.96
565.35	1437.67
565.54	1386.47
565.74	1366.00
565.93	1398.76
566.13	1331.18
566.32	1380.33
566.52	1361.90
566.71	1417.19
566.91	1417.19
567.11	1382.38
567.30	1368.04
567.50	1396.71
567.69	1374.19
567.89	1341.42
568.08	1388.52
568.28	1337.32
568.47	1329.13
568.67	1423.34
568.86	1337.32
569.06	1380.33
569.25	1290.22
569.45	1333.23
569.64	1372.14
569.84	1341.42
570.04	1431.53
570.23	1368.04
570.43	1282.03
570.62	1366.00
570.82	1392.62
571.01	1419.24
571.21	1378.28
571.40	1312.75
571.60	1380.33
571.79	1413.10
571.99	1331.18
572.18	1331.18
572.38	1468.39
572.57	1394.67
572.77	1443.82
572.96	1435.63
573.16	1382.38
573.35	1425.39
573.55	1560.55
573.74	1406.95
573.94	1347.56
574.13	1310.70
574.33	1423.34
574.52	1411.05
574.71	1437.67
574.91	1458.15
575.10	1298.41
575.30	1398.76
575.49	1355.76
575.69	1269.74
575.88	1456.11
576.08	1441.77
576.27	1503.21
576.47	1449.96
576.66	1562.60
576.86	1495.02
577.05	1435.63
577.25	1380.33
577.44	1495.02
577.64	1353.71
577.83	1445.87
578.02	1374.19
578.22	1482.73
578.41	1478.63
578.61	1396.71
578.80	1343.47
579.00	1402.86
579.19	1384.43
579.39	1386.47
579.58	1472.49
579.77	1427.43
579.97	1495.02
580.16	1535.98
580.36	1376.24
580.55	1509.35
580.75	1427.43
580.94	1417.19
581.13	1439.72
581.33	1421.29
581.52	1425.39
581.72	1531.88
581.91	1431.53
582.11	1429.48
582.30	1384.43
582.49	1363.95
582.69	1527.78
582.88	1427.43
583.08	1415.15
583.27	1449.96
583.47	1521.64
583.66	1478.63
583.85	1380.33
584.05	1363.95
584.24	1452.01
584.44	1454.06
584.63	1480.68
584.82	1415.15
585.02	1556.46
585.21	1566.70
585.41	1513.45
585.60	1558.50
585.79	1656.81
585.99	1710.05
586.18	1628.14
586.37	1849.32
586.57	2744.28
586.76	7815.05
586.96	23940.75
587.15	41043.34
587.34	52114.66
587.54	59409.53
587.73	59286.65
587.93	44651.86
588.12	32790.03
588.31	26365.55
588.51	22554.28
588.70	20027.09
588.89	18136.81
589.09	17182.46
589.28	15861.52
589.47	14208.81
589.67	12511.04
589.86	10436.45
590.06	8568.70
590.25	6541.21
590.44	4964.28
590.64	3755.97
590.83	2861.01
591.02	2349.02
591.22	1964.00
591.41	1753.06
591.60	1564.65
591.80	1578.98
591.99	1464.30
592.18	1429.48
592.38	1460.20
592.57	1454.06
592.76	1423.34
592.96	1443.82
593.15	1310.70
593.34	1443.82
593.54	1439.72
593.73	1454.06
593.92	1366.00
594.12	1476.59
594.31	1433.58
594.50	1480.68
594.70	1503.21
594.89	1568.74
595.08	1409.00
595.28	1384.43
595.47	1560.55
595.66	1429.48
595.86	1341.42
596.05	1411.05
596.24	1366.00
596.43	1415.15
596.63	1454.06
596.82	1411.05
597.01	1429.48
597.21	1441.77
597.40	1419.24
597.59	1454.06
597.79	1456.11
597.98	1402.86
598.17	1409.00
598.36	1374.19
598.56	1482.73
598.75	1378.28
598.94	1384.43
599.14	1452.01
599.33	1366.00
599.52	1404.91
599.71	1439.72
599.91	1470.44
600.10	1435.63
600.29	1345.52
600.48	1429.48
600.68	1396.71
600.87	1355.76
601.06	1333.23
601.26	1390.57
601.45	1366.00
601.64	1427.43
601.83	1439.72
602.03	1398.76
602.22	1310.70
602.41	1431.53
602.60	1435.63
602.80	1435.63
602.99	1482.73
603.18	1433.58
603.37	1435.63
603.57	1347.56
603.76	1411.05
603.95	1476.59
604.14	1431.53
604.34	1380.33
604.53	1312.75
604.72	1452.01
604.91	1472.49
605.10	1400.81
605.30	1286.12
605.49	1445.87
605.68	1431.53
605.87	1339.37
606.07	1363.95
606.26	1404.91
606.45	1439.72
606.64	1406.95
606.84	1359.85
607.03	1447.91
607.22	1488.87
607.41	1460.20
607.60	1460.20
607.80	1474.54
607.99	1372.14
608.18	1363.95
608.37	1400.81
608.56	1394.67
608.76	1499.11
608.95	1499.11
609.14	1460.20
609.33	1482.73
609.52	1480.68
609.72	1505.26
609.91	1495.02
610.10	1482.73
610.29	1482.73
610.48	1386.47
610.68	1441.77
610.87	1388.52
611.06	1427.43
611.25	1427.43
611.44	1515.50
611.63	1443.82
611.83	1421.29
612.02	1413.10
612.21	1466.35
612.40	1359.85
612.59	1275.88
612.79	1316.84
612.98	1361.90
613.17	1439.72
613.36	1374.19
613.55	1484.78
613.74	1468.39
613.93	1570.79
614.13	1611.75
614.32	1648.61
614.51	1671.14
614.70	1499.11
614.89	1470.44
615.08	1441.77
615.28	1685.48
615.47	1456.11
615.66	1490.92
615.85	1421.29
616.04	1443.82
616.23	1449.96
616.42	1484.78
616.62	1480.68
616.81	1433.58
617.00	1470.44
617.19	1470.44
617.38	1343.47
617.57	1435.63
617.76	1359.85
617.95	1458.15
618.15	1419.24
618.34	1474.54
618.53	1445.87
618.72	1386.47
618.91	1470.44
619.10	1513.45
619.29	1341.42
619.48	1378.28
619.68	1302.51
619.87	1409.00
620.06	1388.52
620.25	1429.48
620.44	1331.18
620.63	1378.28
620.82	1466.35
621.01	1359.85
621.20	1351.66
621.39	1443.82
621.59	1462.25
621.78	1402.86
621.97	1456.11
622.16	1478.63
622.35	1363.95
622.54	1423.34
622.73	1439.72
622.92	1333.23
623.11	1411.05
623.30	1351.66
623.49	1390.57
623.68	1396.71
623.88	1429.48
624.07	1406.95
624.26	1368.04
624.45	1339.37
624.64	1394.67
624.83	1366.00
625.02	1308.65
625.21	1359.85
625.40	1325.04
625.59	1402.86
625.78	1318.89
625.97	1488.87
626.16	1447.91
626.35	1462.25
626.54	1441.77
626.74	1490.92
626.93	1411.05
627.12	1427.43
627.31	1443.82
627.50	1363.95
627.69	1529.83
627.88	1372.14
628.07	1439.72
628.26	1370.09
628.45	1337.32
628.64	1314.80
628.83	1341.42
629.02	1370.09
629.21	1411.05
629.40	1370.09
629.59	1331.18
629.78	1353.71
629.97	1265.64
630.16	1413.10
630.35	1392.62
630.54	1386.47
630.73	1353.71
630.92	1406.95
631.11	1370.09
631.30	1396.71
631.49	1400.81
631.68	1396.71
631.87	1312.75
632.06	1376.24
632.25	1515.50
632.44	1417.19
632.63	1431.53
632.82	1550.31
633.01	1398.76
633.20	1507.30
633.39	1507.30
633.58	1462.25
633.77	1394.67
633.96	1492.97
634.15	1472.49
634.34	1374.19
634.53	1404.91
634.72	1456.11
634.91	1384.43
635.10	1445.87
635.29	1400.81
635.48	1449.96
635.67	1374.19
635.86	1363.95
636.05	1452.01
636.24	1429.48
636.43	1376.24
636.62	1402.86
636.81	1322.99
637.00	1374.19
637.19	1374.19
637.38	1361.90
637.57	1372.14
637.76	1380.33
637.95	1482.73
638.14	1486.83
638.33	1454.06
638.52	1425.39
638.71	1474.54
638.89	1460.20
639.08	1519.59
639.27	1372.14
639.46	1447.91
639.65	1677.29
639.84	1886.18
640.03	2150.37
640.22	2056.16
640.41	2060.26
640.60	1935.33
640.79	1763.30
640.98	1642.47
641.17	1576.94
641.36	1583.08
641.55	1605.61
641.74	1505.26
641.92	1486.83
642.11	1445.87
642.30	1396.71
642.49	1402.86
642.68	1355.76
642.87	1492.97
643.06	1429.48
643.25	1374.19
643.44	1402.86
643.63	1417.19
643.82	1478.63
644.00	1312.75
644.19	1357.80
644.38	1269.74
644.57	1366.00
644.76	1400.81
644.95	1402.86
645.14	1380.33
645.33	1341.42
645.52	1343.47
645.71	1267.69
645.89	1302.51
646.08	1363.95
646.27	1353.71
646.46	1482.73
646.65	1284.08
646.84	1425.39
647.03	1349.61
647.22	1441.77
647.40	1361.90
647.59	1390.57
647.78	1288.17
647.97	1327.08
648.16	1396.71
648.35	1406.95
648.54	1427.43
648.73	1425.39
648.91	1429.48
649.10	1333.23
649.29	1392.62
649.48	1304.56
649.67	1439.72
649.86	1372.14
650.05	1351.66
650.23	1593.32
650.42	1464.30
650.61	1632.23
650.80	1531.88
650.99	1624.04
651.18	1486.83
651.36	1542.12
651.55	1462.25
651.74	1519.59
651.93	1449.96
652.12	1388.52
652.31	1363.95
652.49	1329.13
652.68	1427.43
652.87	1509.35
653.06	1421.29
653.25	1585.13
653.44	1449.96
653.62	1439.72
653.81	1378.28
654.00	1376.24
654.19	1388.52
654.38	1386.47
654.56	1386.47
654.75	1431.53
654.94	1417.19
655.13	1382.38
655.32	1452.01
655.51	1470.44
655.69	1372.14
655.88	1454.06
656.07	1366.00
656.26	1353.71
656.45	1298.41
656.63	1417.19
656.82	1470.44
657.01	1482.73
657.20	1300.46
657.38	1421.29
657.57	1400.81
657.76	1269.74
657.95	1382.38
658.14	1404.91
658.32	1325.04
658.51	1312.75
658.70	1347.56
658.89	1392.62
659.08	1462.25
659.26	1355.76
659.45	1400.81
659.64	1392.62
659.83	1447.91
660.01	1497.07
660.20	1447.91
660.39	1458.15
660.58	1347.56
660.76	1433.58
660.95	1355.76
661.14	1384.43
661.33	1345.52
661.51	1351.66
661.70	1341.42
661.89	1421.29
662.08	1357.80
662.26	1282.03
662.45	1402.86
662.64	1443.82
662.83	1415.15
663.01	1300.46
663.20	1343.47
663.39	1411.05
663.58	1361.90
663.76	1345.52
663.95	1380.33
664.14	1357.80
664.32	1368.04
664.51	1382.38
664.70	1353.71
664.89	1380.33
665.07	1335.28
665.26	1363.95
665.45	1421.29
665.64	1474.54
665.82	1372.14
666.01	1378.28
666.20	1357.80
666.38	1390.57
666.57	1415.15
666.76	1542.12
666.95	2019.30
667.13	4353.98
667.32	11542.35
667.51	17917.68
667.69	21694.13
667.88	24581.77
668.07	24229.52
668.25	19011.29
668.44	13555.51
668.63	11102.04
668.81	9217.91
669.00	8103.81
669.19	7440.27
669.38	6846.36
669.56	6274.98
669.75	5476.27
669.94	4868.02
670.12	4167.62
670.31	3442.64
670.50	2936.79
670.68	2467.80
670.87	2013.15
671.06	1816.55
671.24	1740.77
671.43	1585.13
671.62	1474.54
671.80	1449.96
671.99	1505.26
672.18	1517.54
672.36	1470.44
672.55	1443.82
672.74	1452.01
672.92	1402.86
673.11	1464.30
673.29	1435.63
673.48	1368.04
673.67	1384.43
673.85	1419.24
674.04	1327.08
674.23	1466.35
674.41	1447.91
674.60	1380.33
674.79	1312.75
674.97	1437.67
675.16	1343.47
675.34	1462.25
675.53	1404.91
675.72	1339.37
675.90	1421.29
676.09	1429.48
676.28	1333.23
676.46	1288.17
676.65	1417.19
676.83	1322.99
677.02	1331.18
677.21	1343.47
677.39	1454.06
677.58	1368.04
677.77	1400.81
677.95	1361.90
678.14	1390.57
678.32	1437.67
678.51	1392.62
678.70	1505.26
678.88	1417.19
679.07	1333.23
679.25	1333.23
679.44	1427.43
679.63	1351.66
679.81	1474.54
680.00	1366.00
680.18	1435.63
680.37	1439.72
680.55	1415.15
680.74	1333.23
680.93	1351.66
681.11	1302.51
681.30	1398.76
681.48	1366.00
681.67	1421.29
681.85	1427.43
682.04	1404.91
682.23	1368.04
682.41	1339.37
682.60	1353.71
682.78	1419.24
682.97	1306.60
683.15	1363.95
683.34	1404.91
683.53	1370.09
683.71	1337.32
683.90	1492.97
684.08	1355.76
684.27	1386.47
684.45	1372.14
684.64	1392.62
684.82	1368.04
685.01	1390.57
685.19	1325.04
685.38	1458.15
685.57	1443.82
685.75	1376.24
685.94	1343.47
686.12	1318.89
686.31	1304.56
686.49	1454.06
686.68	1275.88
686.86	1390.57
687.05	1325.04
687.23	1413.10
687.42	1341.42
687.60	1331.18
687.79	1325.04
687.97	1386.47
688.16	1478.63
688.34	1449.96
688.53	1347.56
688.71	1404.91
688.90	1376.24
689.08	1376.24
689.27	1257.45
689.45	1419.24
689.64	1363.95
689.82	1380.33
690.01	1388.52
690.19	1380.33
690.38	1392.62
690.56	1443.82
690.75	1376.24
690.93	1382.38
691.12	1419.24
691.30	1380.33
691.49	1372.14
691.67	1316.84
691.86	1394.67
692.04	1392.62
692.23	1357.80
692.41	1411.05
692.60	1470.44
692.78	1411.05
692.97	1466.35
693.15	1538.02
693.34	1458.15
693.52	1488.87
693.71	1396.71
693.89	1402.86
694.08	1308.65
694.26	1454.06
694.44	1390.57
694.63	1394.67
694.81	1372.14
695.00	1312.75
695.18	1366.00
695.37	1503.21
695.55	1370.09
695.74	1363.95
695.92	1431.53
696.10	1423.34
696.29	1261.55
696.47	1349.61
696.66	1378.28
696.84	1386.47
697.03	1398.76
697.21	1378.28
697.40	1722.34
697.58	1374.19
697.76	1388.52
697.95	1370.09
698.13	1239.02
698.32	1372.14
698.50	1382.38
698.68	1425.39
698.87	1366.00
699.05	1433.58
699.24	1443.82
699.42	1363.95
699.61	1335.28
699.79	1415.15
699.97	1392.62
700.16	1343.47
700.34	1343.47
700.53	1335.28
700.71	1427.43
700.89	1411.05
701.08	1384.43
701.26	1495.02
701.45	1646.57
701.63	1400.81
701.81	1325.04
702.00	1402.86
702.18	1363.95
702.37	1423.34
702.55	1372.14
702.73	1495.02
702.92	1542.12
703.10	1611.75
703.28	1595.37
703.47	1665.00
703.65	1665.00
703.84	1562.60
704.02	1544.17
704.20	1480.68
704.39	1478.63
704.57	1413.10
704.75	1478.63
704.94	1554.41
705.12	1472.49
705.30	1515.50
705.49	1589.22
705.67	1755.11
705.86	3581.90
706.04	9013.11
706.22	15890.19
706.41	19580.63
706.59	22269.61
706.77	23381.66
706.96	19898.06
707.14	13803.31
707.32	11323.22
707.51	9342.83
707.69	7903.11
707.87	7427.98
708.06	6692.76
708.24	6029.22
708.42	5040.05
708.61	4044.74
708.79	3010.51
708.97	2500.57
709.16	2105.31
709.34	1769.44
709.52	1613.80
709.71	1505.26
709.89	1519.59
710.07	1495.02
710.26	1439.72
710.44	1406.95
710.62	1439.72
710.80	1488.87
710.99	1425.39
711.17	1390.57
711.35	1357.80
711.54	1429.48
711.72	1464.30
711.90	1415.15
712.09	1366.00
712.27	1374.19
712.45	1417.19
712.63	1386.47
712.82	1343.47
713.00	1433.58
713.18	1478.63
713.37	1404.91
713.55	1394.67
713.73	1505.26
713.91	1318.89
714.10	1421.29
714.28	1345.52
714.46	1396.71
714.65	1388.52
714.83	1409.00
715.01	1415.15
715.19	1390.57
715.38	1306.60
715.56	1329.13
715.74	1343.47
715.92	1302.51
716.11	1376.24
716.29	1376.24
716.47	1347.56
716.65	1376.24
716.84	1355.76
717.02	1468.39
717.20	1325.04
717.38	1322.99
717.57	1388.52
717.75	1425.39
717.93	1411.05
718.11	1372.14
718.30	1308.65
718.48	1286.12
718.66	1419.24
718.84	1427.43
719.03	1314.80
719.21	1298.41
719.39	1452.01
719.57	1345.52
719.75	1433.58
719.94	1386.47
720.12	1298.41
720.30	1318.89
720.48	1411.05
720.67	1282.03
720.85	1372.14
721.03	1380.33
721.21	1363.95
721.39	1409.00
721.58	1388.52
721.76	1361.90
721.94	1409.00
722.12	1406.95
722.30	1417.19
722.49	1325.04
722.67	1316.84
722.85	1392.62
723.03	1304.56
723.21	1413.10
723.40	1447.91
723.58	1413.10
723.76	1419.24
723.94	1404.91
724.12	1402.86
724.30	1527.78
724.49	1392.62
724.67	1404.91
724.85	1548.26
725.03	1384.43
725.21	1413.10
725.40	1386.47
725.58	1409.00
725.76	1435.63
725.94	1396.71
726.12	1392.62
726.30	1372.14
726.49	1423.34
726.67	1277.93
726.85	1386.47
727.03	1441.77
727.21	1490.92
727.39	1558.50
727.57	2066.40
727.76	3489.74
727.94	4429.76
728.12	4968.37
728.30	5275.57
728.48	4997.04
728.66	4188.10
728.84	3297.23
729.03	3184.59
729.21	2772.95
729.39	2582.49
729.57	2330.59
729.75	1976.29
729.93	1789.92
730.11	1613.80
730.30	1458.15
730.48	1470.44
730.66	1409.00
730.84	1388.52
731.02	1411.05
731.20	1368.04
731.38	1396.71
731.56	1404.91
731.74	1345.52
731.93	1433.58
732.11	1388.52
732.29	1331.18
732.47	1376.24
732.65	1353.71
732.83	1386.47
733.01	1495.02
733.19	1329.13
733.37	1296.36
733.56	1353.71
733.74	1439.72
733.92	1417.19
734.10	1341.42
734.28	1400.81
734.46	1312.75
734.64	1310.70
734.82	1325.04
735.00	1361.90
735.18	1329.13
735.36	1359.85
735.54	1400.81
735.73	1318.89
735.91	1308.65
736.09	1415.15
736.27	1294.32
736.45	1540.07
736.63	1318.89
736.81	1409.00
736.99	1437.67
737.17	1429.48
737.35	1413.10
737.53	1384.43
737.71	1353.71
737.89	1429.48
738.07	1437.67
738.25	1312.75
738.43	1363.95
738.61	1361.90
738.80	1351.66
738.98	1318.89
739.16	1331.18
739.34	1347.56
739.52	1359.85
739.70	1398.76
739.88	1429.48
740.06	1394.67
740.24	1271.79
740.42	1417.19
740.60	1298.41
740.78	1255.40
740.96	1325.04
741.14	1396.71
741.32	1355.76
741.50	1320.94
741.68	1443.82
741.86	1396.71
742.04	1341.42
742.22	1304.56
742.40	1378.28
742.58	1380.33
742.76	1386.47
742.94	1374.19
743.12	1306.60
743.30	1380.33
743.48	1413.10
743.66	1306.60
743.84	1415.15
744.02	1390.57
744.20	1333.23
744.38	1400.81
744.56	1366.00
744.74	1400.81
744.92	1355.76
745.10	1470.44
745.28	1380.33
745.46	1404.91
745.64	1337.32
745.82	1411.05
746.00	1421.29
746.18	1388.52
746.36	1261.55
746.54	1368.04
746.72	1425.39
746.90	1341.42
747.08	1406.95
747.26	1327.08
747.44	1435.63
747.62	1423.34
747.80	1396.71
747.98	1392.62
748.15	1269.74
748.33	1439.72
748.51	1431.53
748.69	1421.29
748.87	1431.53
749.05	1333.23
749.23	1368.04
749.41	1359.85
749.59	1394.67
749.77	1409.00
749.95	1402.86
750.13	1322.99
750.31	1370.09
750.49	1368.04
750.67	1333.23
750.85	1423.34
751.03	1392.62
751.20	1370.09
751.38	1464.30
751.56	1417.19
751.74	1353.71
751.92	1382.38
752.10	1351.66
752.28	1421.29
752.46	1288.17
752.64	1349.61
752.82	1320.94
753.00	1411.05
753.18	1308.65
753.35	1372.14
753.53	1388.52
753.71	1427.43
753.89	1361.90
754.07	1339.37
754.25	1441.77
754.43	1415.15
754.61	1372.14
754.79	1413.10
754.97	1349.61
755.14	1445.87
755.32	1257.45
755.50	1353.71
755.68	1366.00
755.86	1439.72
756.04	1380.33
756.22	1275.88
756.40	1462.25
756.57	1468.39
756.75	1376.24
756.93	1343.47
757.11	1325.04
757.29	1273.84
757.47	1347.56
757.65	1304.56
757.82	1322.99
758.00	1286.12
758.18	1347.56
758.36	1361.90
758.54	1445.87
758.72	1314.80
758.90	1427.43
759.07	1398.76
759.25	1347.56
759.43	1435.63
759.61	1402.86
759.79	1644.52
759.97	1404.91
760.15	1304.56
760.32	1347.56
760.50	1368.04
760.68	1363.95
760.86	1345.52
761.04	1406.95
761.22	1327.08
761.39	1449.96
761.57	1363.95
761.75	1351.66
761.93	1314.80
762.11	1339.37
762.28	1409.00
762.46	1341.42
762.64	1452.01
762.82	1361.90
763.00	1376.24
763.18	1345.52
763.35	1318.89
763.53	1402.86
763.71	1419.24
763.89	1284.08
764.07	1347.56
764.24	1384.43
764.42	1447.91
764.60	1302.51
764.78	1398.76
764.96	1388.52
765.13	1413.10
765.31	1355.76
765.49	1388.52
765.67	1363.95
765.84	1290.22
766.02	1372.14
766.20	1339.37
766.38	1402.86
766.56	1392.62
766.73	1318.89
766.91	1333.23
767.09	1355.76
767.27	1470.44
767.44	1402.86
767.62	1388.52
767.80	1331.18
767.98	1343.47
768.15	1325.04
768.33	1390.57
768.51	1308.65
768.69	1437.67
768.87	1357.80
769.04	1329.13
769.22	1370.09
769.40	1359.85
769.58	1452.01
769.75	1376.24
769.93	1413.10
770.11	1329.13
770.28	1304.56
770.46	1425.39
770.64	1380.33
770.82	1374.19
770.99	1306.60
771.17	1325.04
771.35	1294.32
771.53	1423.34
771.70	1347.56
771.88	1368.04
772.06	1357.80
772.23	1380.33
772.41	1406.95
772.59	1404.91
772.77	1339.37
772.94	1296.36
773.12	1370.09
773.30	1347.56
773.47	1345.52
773.65	1318.89
773.83	1402.86
774.01	1329.13
774.18	1366.00
774.36	1331.18
774.54	1349.61
774.71	1277.93
774.89	1355.76
775.07	1374.19
775.24	1366.00
775.42	1335.28
775.60	1404.91
775.78	1341.42
775.95	1357.80
776.13	1306.60
776.31	1320.94
776.48	1341.42
776.66	1425.39
776.84	1366.00
777.01	1443.82
777.19	1366.00
777.37	1384.43
777.54	1449.96
777.72	1472.49
777.90	1368.04
778.07	1300.46
778.25	1417.19
778.43	1419.24
778.60	1314.80
778.78	1386.47
778.96	1409.00
779.13	1320.94
779.31	1404.91
779.49	1411.05
779.66	1392.62
779.84	1335.28
780.01	1400.81
780.19	1296.36
780.37	1425.39
780.54	1372.14
780.72	1329.13
780.90	1359.85
781.07	1298.41
781.25	1370.09
781.43	1460.20
781.60	1339.37
781.78	1376.24
781.95	1353.71
782.13	1351.66
782.31	1400.81
782.48	1286.12
782.66	1329.13
782.83	1421.29
783.01	1404.91
783.19	1390.57
783.36	1347.56
783.54	1370.09
783.72	1419.24
783.89	1314.80
784.07	1345.52
784.24	1441.77
784.42	1370.09
784.60	1427.43
784.77	1337.32
784.95	1316.84
785.12	1331.18
785.30	1386.47
785.47	1259.50
785.65	1345.52
785.83	1347.56
786.00	1335.28
786.18	1335.28
786.35	1343.47
786.53	1322.99
786.71	1396.71
786.88	1392.62
787.06	1384.43
787.23	1363.95
787.41	1361.90
787.58	1322.99
787.76	1331.18
787.94	1359.85
788.11	1353.71
788.29	1372.14
788.46	1394.67
788.64	1284.08
788.81	1363.95
788.99	1351.66
789.16	1351.66
789.34	1384.43
789.52	1345.52
789.69	1337.32
789.87	1337.32
790.04	1351.66
790.22	1390.57
790.39	1392.62
790.57	1339.37
790.74	1331.18
790.92	1398.76
791.09	1355.76
791.27	1355.76
791.44	1388.52
791.62	1349.61
791.79	1361.90
791.97	1370.09
792.15	1495.02
792.32	1388.52
792.50	1327.08
792.67	1353.71
792.85	1470.44
793.02	1366.00
793.20	1331.18
793.37	1267.69
793.55	1329.13
793.72	1333.23
793.90	1409.00
794.07	1392.62
794.25	1310.70
794.42	1355.76
794.60	1400.81
794.77	1398.76
794.95	1382.38
795.12	1372.14
795.30	1357.80
795.47	1380.33
795.65	1386.47
795.82	1320.94
796.00	1327.08
796.17	1331.18
796.34	1368.04
796.52	1386.47
796.69	1449.96
796.87	1421.29
797.04	1357.80
797.22	1370.09
797.39	1378.28
797.57	1376.24
797.74	1337.32
797.92	1411.05
798.09	1263.60
798.27	1357.80
798.44	1341.42
798.62	1318.89
798.79	1306.60
798.96	1402.86
799.14	1435.63
799.31	1464.30
799.49	1337.32
799.66	1398.76
799.84	1417.19
800.01	1294.32
800.19	1406.95
800.36	1249.26
800.53	1337.32
800.71	1437.67
800.88	1433.58
801.06	1318.89
801.23	1337.32
801.41	1378.28
801.58	1353.71
801.75	1417.19
801.93	1394.67
802.10	1398.76
802.28	1398.76
802.45	1447.91
802.63	1429.48
802.80	1337.32
802.97	1341.42
803.15	1302.51
803.32	1347.56
803.50	1312.75
803.67	1337.32
803.84	1341.42
804.02	1411.05
804.19	1331.18
804.37	1351.66
804.54	1363.95
804.71	1345.52
804.89	1327.08
805.06	1366.00
805.24	1343.47
805.41	1314.80
805.58	1339.37
805.76	1507.30
805.93	1331.18
806.10	1466.35
806.28	1322.99
806.45	1366.00
806.63	1413.10
806.80	1417.19
806.97	1417.19
807.15	1431.53
807.32	1378.28
807.49	1382.38
807.67	1351.66
807.84	1374.19
808.01	1222.64
808.19	1470.44
808.36	1505.26
808.54	1343.47
808.71	1308.65
808.88	1363.95
809.06	1431.53
809.23	1437.67
809.40	1398.76
809.58	1390.57
809.75	1378.28
809.92	1339.37
810.10	1460.20
810.27	1386.47
810.44	1372.14
810.62	1433.58
810.79	1384.43
810.96	1257.45
811.14	1372.14
811.31	1312.75
811.48	1359.85
811.66	1406.95
811.83	1376.24
812.00	1452.01
812.18	1398.76
812.35	1490.92
812.52	1355.76
812.69	1359.85
812.87	1343.47
813.04	1331.18
813.21	1370.09
813.39	1394.67
813.56	1353.71
813.73	1343.47
813.91	1329.13
814.08	1421.29
814.25	1413.10
814.42	1224.69
814.60	1341.42
814.77	1388.52
814.94	1394.67
815.12	1390.57
815.29	1413.10
815.46	1386.47
815.63	1355.76
815.81	1409.00
815.98	1349.61
816.15	1468.39
816.33	1447.91
816.50	1402.86
816.67	1261.55
816.84	1390.57
817.02	1312.75
817.19	1394.67
817.36	1318.89
817.53	1386.47
817.71	1374.19
817.88	1370.09
818.05	1355.76
818.22	1312.75
818.40	1447.91
818.57	1353.71
818.74	1402.86
818.91	1347.56
819.09	1368.04
819.26	1431.53
819.43	1341.42
819.60	1320.94
819.78	1345.52
819.95	1372.14
820.12	1259.50
820.29	1404.91
820.47	1349.61
820.64	1337.32
820.81	1380.33
820.98	1333.23
821.15	1372.14
821.33	1427.43
821.50	1374.19
821.67	1378.28
821.84	1337.32
822.02	1386.47
822.19	1423.34
822.36	1341.42
822.53	1404.91
822.70	1298.41
822.88	1380.33
823.05	1372.14
823.22	1433.58
823.39	1462.25
823.56	1361.90
823.74	1429.48
823.91	1288.17
824.08	1253.36
824.25	1320.94
824.42	1415.15
824.60	1331.18
824.77	1312.75
824.94	1343.47
825.11	1382.38
825.28	1357.80
825.45	1353.71
825.63	1421.29
825.80	1300.46
825.97	1396.71
826.14	1335.28
826.31	1273.84
826.48	1384.43
826.66	1341.42
826.83	1298.41
827.00	1333.23
827.17	1368.04
827.34	1261.55
827.51	1368.04
827.69	1298.41
827.86	1292.27
828.03	1304.56
828.20	1357.80
828.37	1351.66
828.54	1458.15
828.71	1298.41
828.89	1390.57
829.06	1376.24
829.23	1406.95
829.40	1349.61
829.57	1306.60
829.74	1331.18
829.91	1349.61
830.09	1386.47
830.26	1355.76
830.43	1417.19
830.60	1329.13
830.77	1327.08
830.94	1417.19
831.11	1474.54
831.28	1347.56
831.46	1425.39
831.63	1304.56
831.80	1382.38
831.97	1347.56
832.14	1388.52
832.31	1400.81
832.48	1415.15
832.65	1404.91
832.82	1286.12
832.99	1404.91
833.17	1337.32
833.34	1396.71
833.51	1380.33
833.68	1286.12
833.85	1439.72
834.02	1345.52
834.19	1355.76
834.36	1337.32
834.53	1339.37
834.70	1417.19
834.87	1425.39
835.04	1290.22
835.22	1329.13
835.39	1376.24
835.56	1345.52
835.73	1361.90
835.90	1392.62
836.07	1322.99
836.24	1478.63
836.41	1398.76
836.58	1361.90
836.75	1409.00
836.92	1417.19
837.09	1355.76
837.26	1392.62
837.43	1361.90
837.60	1370.09
837.77	1366.00
837.94	1361.90
838.12	1402.86
838.29	1439.72
838.46	1331.18
838.63	1290.22
838.80	1484.78
838.97	1325.04
839.14	1427.43
839.31	1419.24
839.48	1404.91
839.65	1343.47
839.82	1382.38
839.99	1337.32
840.16	1372.14
840.33	1300.46
840.50	1380.33
840.67	1361.90
840.84	1263.60
841.01	1370.09
841.18	1406.95
841.35	1310.70
841.52	1421.29
841.69	1302.51
841.86	1378.28
842.03	1447.91
842.20	1445.87
842.37	1390.57
842.54	1388.52
842.71	1376.24
842.88	1253.36
843.05	1337.32
843.22	1390.57
843.39	1355.76
843.56	1310.70
843.73	1384.43
843.90	1423.34
844.07	1333.23
844.24	1347.56
844.41	1320.94
844.58	1474.54
844.75	1372.14
844.92	1411.05
845.09	1341.42
845.26	1331.18
845.43	1368.04
845.60	1374.19
845.77	1388.52
845.94	1366.00
846.10	1433.58
846.27	1341.42
846.44	1372.14
846.61	1374.19
846.78	1322.99
846.95	1388.52
847.12	1363.95
847.29	1341.42
847.46	1314.80
847.63	1366.00
847.80	1359.85
847.97	1421.29
848.14	1423.34
848.31	1279.98
848.48	1343.47
848.65	1390.57
848.82	1339.37
848.98	1423.34
849.15	1404.91
849.32	1413.10
849.49	1415.15
849.66	1419.24
849.83	1390.57
850.00	1372.14
850.17	1392.62
850.34	1437.67
850.51	1372.14
850.68	1298.41
850.85	1400.81
851.01	1337.32
851.18	1386.47
851.35	1343.47
851.52	1421.29
851.69	1363.95
851.86	1361.90
852.03	1376.24
852.20	1372.14
852.37	1396.71
852.53	1337.32
852.70	1288.17
852.87	1312.75
853.04	1441.77
853.21	1392.62
853.38	1361.90
853.55	1394.67
853.72	1429.48
853.89	1353.71
854.05	1345.52
854.22	1331.18
854.39	1380.33
854.56	1452.01
854.73	1460.20
854.90	1374.19
855.07	1337.32
855.23	1396.71
855.40	1433.58
855.57	1337.32
855.74	1308.65
855.91	1425.39
856.08	1376.24
856.25	1335.28
856.41	1363.95
856.58	1349.61
856.75	1409.00
856.92	1273.84
857.09	1302.51
857.26	1296.36
857.42	1331.18
857.59	1394.67
857.76	1322.99
857.93	1333.23
858.10	1306.60
858.27	1349.61
858.43	1417.19
858.60	1306.60
858.77	1253.36
858.94	1363.95
859.11	1361.90
859.27	1351.66
859.44	1384.43
859.61	1456.11
859.78	1415.15
859.95	1322.99
860.12	1306.60
860.28	1468.39
860.45	1460.20
860.62	1341.42
860.79	1327.08
860.95	1378.28
861.12	1304.56
861.29	1386.47
861.46	1329.13
861.63	1423.34
861.79	1423.34
861.96	1366.00
862.13	1353.71
862.30	1372.14
862.47	1363.95
862.63	1306.60
862.80	1396.71
862.97	1398.76
863.14	1372.14
863.30	1449.96
863.47	1419.24
863.64	1482.73
863.81	1370.09
863.97	1353.71
864.14	1314.80
864.31	1411.05
864.48	1378.28
864.65	1402.86
864.81	1413.10
864.98	1435.63
865.15	1316.84
865.32	1454.06
865.48	1382.38
865.65	1423.34
865.82	1363.95
865.98	1431.53
866.15	1443.82
866.32	1368.04
866.49	1357.80
866.65	1501.16
866.82	1372.14
866.99	1378.28
867.16	1325.04
867.32	1327.08
867.49	1322.99
867.66	1353.71
867.83	1341.42
867.99	1372.14
868.16	1363.95
868.33	1429.48
868.49	1384.43
868.66	1343.47
868.83	1458.15
868.99	1349.61
869.16	1396.71
869.33	1406.95
869.50	1409.00
869.66	1359.85
869.83	1333.23
870.00	1347.56
870.16	1396.71
870.33	1409.00
870.50	1341.42
870.66	1349.61
870.83	1384.43
871.00	1396.71
871.17	1384.43
871.33	1429.48
871.50	1359.85
871.67	1423.34
871.83	1425.39
872.00	1517.54
872.17	1300.46
872.33	1413.10
872.50	1431.53
872.67	1396.71
872.83	1243.12
873.00	1335.28
873.17	1355.76
873.33	1378.28
873.50	1382.38
873.67	1388.52
873.83	1366.00
874.00	1349.61
874.16	1394.67
874.33	1361.90
874.50	1294.32
874.66	1470.44
874.83	1380.33
875.00	1335.28
875.16	1390.57
875.33	1435.63
875.50	1314.80
875.66	1359.85
875.83	1376.24
875.99	1449.96
876.16	1320.94
876.33	1302.51
876.49	1394.67
876.66	1378.28
876.83	1361.90
876.99	1359.85
877.16	1318.89
877.32	1327.08
877.49	1325.04
877.66	1339.37
877.82	1398.76
877.99	1411.05
878.15	1370.09
878.32	1353.71
878.49	1404.91
878.65	1376.24
878.82	1411.05
878.98	1400.81
879.15	1363.95
879.32	1384.43
879.48	1400.81
879.65	1464.30
879.81	1372.14
879.98	1384.43
880.15	1388.52
880.31	1390.57
880.48	1296.36
880.64	1396.71
880.81	1447.91
880.97	1431.53
881.14	1443.82
881.31	1316.84
881.47	1452.01
881.64	1353.71
881.80	1347.56
881.97	1398.76
882.13	1427.43
882.30	1279.98
882.47	1390.57
882.63	1388.52
882.80	1306.60
882.96	1355.76
883.13	1413.10
883.29	1419.24
883.46	1417.19
883.62	1411.05
883.79	1331.18
883.95	1411.05
884.12	1372.14
884.29	1427.43
884.45	1392.62
884.62	1359.85
884.78	1279.98
884.95	1409.00
885.11	1345.52
885.28	1312.75
885.44	1380.33
885.61	1347.56
885.77	1392.62
885.94	1366.00
886.10	1347.56
886.27	1429.48
886.43	1402.86
886.60	1347.56
886.76	1380.33
886.93	1382.38
887.09	1337.32
887.26	1255.40
887.42	1355.76
887.59	1431.53
887.75	1423.34
887.92	1462.25
888.08	1286.12
888.25	1400.81
888.41	1382.38
888.58	1353.71
888.74	1353.71
888.91	1374.19
>>>>>End Processed Spectral Data<<<<<
