SpectraSuite Data File
++++++++++++++++++++++++++++++++++++
Date: Tue May 03 11:24:07 CEST 2016
User: root
Dark Spectrum Present: No
Reference Spectrum Present: No
Number of Sampled Component Spectra: 1
Spectrometers: USB4C02835
Integration Time (usec): 100000 (USB4C02835)
Spectra Averaged: 1 (USB4C02835)
Boxcar Smoothing: 0 (USB4C02835)
Correct for Electrical Dark: No (USB4C02835)
Strobe/Lamp Enabled: No (USB4C02835)
Correct for Detector Non-linearity: No (USB4C02835)
Correct for Stray Light: No (USB4C02835)
Number of Pixels in Processed Spectrum: 3648
>>>>>Begin Processed Spectral Data<<<<<
177.47	1212.40
177.69	1212.40
177.91	1212.40
178.13	1241.07
178.36	1179.63
178.58	1271.79
178.80	1409.00
179.02	1263.60
179.24	1279.98
179.46	1437.67
179.68	1390.57
179.90	1409.00
180.13	1404.91
180.35	1355.76
180.57	1359.85
180.79	1341.42
181.01	1314.80
181.23	1429.48
181.45	1357.80
181.67	1394.67
181.90	1394.67
182.12	1384.43
182.34	1357.80
182.56	1378.28
182.78	1372.14
183.00	1279.98
183.22	1421.29
183.44	1271.79
183.66	1370.09
183.89	1419.24
184.11	1452.01
184.33	1398.76
184.55	1413.10
184.77	1398.76
184.99	1341.42
185.21	1382.38
185.43	1458.15
185.65	1386.47
185.87	1376.24
186.10	1429.48
186.32	1417.19
186.54	1396.71
186.76	1353.71
186.98	1384.43
187.20	1363.95
187.42	1331.18
187.64	1359.85
187.86	1384.43
188.08	1349.61
188.30	1435.63
188.52	1366.00
188.75	1486.83
188.97	1380.33
189.19	1378.28
189.41	1329.13
189.63	1361.90
189.85	1273.84
190.07	1374.19
190.29	1331.18
190.51	1357.80
190.73	1294.32
190.95	1441.77
191.17	1394.67
191.39	1279.98
191.61	1363.95
191.84	1388.52
192.06	1374.19
192.28	1267.69
192.50	1433.58
192.72	1361.90
192.94	1413.10
193.16	1419.24
193.38	1351.66
193.60	1447.91
193.82	1380.33
194.04	1447.91
194.26	1351.66
194.48	1413.10
194.70	1343.47
194.92	1316.84
195.14	1406.95
195.36	1320.94
195.58	1347.56
195.80	1327.08
196.02	1368.04
196.24	1402.86
196.46	1400.81
196.69	1322.99
196.91	1415.15
197.13	1300.46
197.35	1409.00
197.57	1437.67
197.79	1320.94
198.01	1327.08
198.23	1429.48
198.45	1337.32
198.67	1366.00
198.89	1384.43
199.11	1345.52
199.33	1294.32
199.55	1325.04
199.77	1445.87
199.99	1429.48
200.21	1409.00
200.43	1380.33
200.65	1361.90
200.87	1339.37
201.09	1345.52
201.31	1320.94
201.53	1366.00
201.75	1384.43
201.97	1376.24
202.19	1337.32
202.41	1370.09
202.63	1484.78
202.85	1388.52
203.07	1417.19
203.29	1327.08
203.51	1292.27
203.73	1361.90
203.95	1495.02
204.17	1409.00
204.39	1429.48
204.61	1353.71
204.83	1343.47
205.05	1347.56
205.27	1380.33
205.49	1480.68
205.71	1333.23
205.93	1314.80
206.15	1359.85
206.37	1376.24
206.59	1349.61
206.81	1402.86
207.03	1271.79
207.25	1236.97
207.47	1392.62
207.69	1351.66
207.91	1406.95
208.13	1447.91
208.34	1353.71
208.56	1300.46
208.78	1320.94
209.00	1331.18
209.22	1308.65
209.44	1335.28
209.66	1355.76
209.88	1366.00
210.10	1357.80
210.32	1406.95
210.54	1394.67
210.76	1351.66
210.98	1378.28
211.20	1269.74
211.42	1357.80
211.64	1400.81
211.86	1429.48
212.08	1398.76
212.30	1415.15
212.52	1376.24
212.74	1320.94
212.96	1363.95
213.17	1437.67
213.39	1359.85
213.61	1386.47
213.83	1466.35
214.05	1380.33
214.27	1382.38
214.49	1320.94
214.71	1298.41
214.93	1392.62
215.15	1394.67
215.37	1372.14
215.59	1423.34
215.81	1433.58
216.03	1445.87
216.24	1441.77
216.46	1396.71
216.68	1363.95
216.90	1400.81
217.12	1454.06
217.34	1409.00
217.56	1394.67
217.78	1329.13
218.00	1402.86
218.22	1398.76
218.44	1345.52
218.66	1382.38
218.87	1351.66
219.09	1290.22
219.31	1368.04
219.53	1378.28
219.75	1253.36
219.97	1351.66
220.19	1417.19
220.41	1384.43
220.63	1380.33
220.85	1392.62
221.06	1329.13
221.28	1394.67
221.50	1396.71
221.72	1398.76
221.94	1331.18
222.16	1363.95
222.38	1347.56
222.60	1361.90
222.82	1300.46
223.03	1490.92
223.25	1378.28
223.47	1398.76
223.69	1441.77
223.91	1404.91
224.13	1398.76
224.35	1347.56
224.57	1441.77
224.78	1341.42
225.00	1380.33
225.22	1413.10
225.44	1382.38
225.66	1386.47
225.88	1374.19
226.10	1413.10
226.32	1404.91
226.53	1382.38
226.75	1304.56
226.97	1359.85
227.19	1431.53
227.41	1298.41
227.63	1445.87
227.85	1384.43
228.06	1382.38
228.28	1322.99
228.50	1331.18
228.72	1394.67
228.94	1394.67
229.16	1357.80
229.37	1253.36
229.59	1400.81
229.81	1409.00
230.03	1341.42
230.25	1282.03
230.47	1372.14
230.69	1339.37
230.90	1355.76
231.12	1341.42
231.34	1284.08
231.56	1390.57
231.78	1300.46
232.00	1449.96
232.21	1398.76
232.43	1372.14
232.65	1263.60
232.87	1419.24
233.09	1277.93
233.30	1374.19
233.52	1447.91
233.74	1361.90
233.96	1372.14
234.18	1368.04
234.40	1370.09
234.61	1386.47
234.83	1314.80
235.05	1300.46
235.27	1458.15
235.49	1431.53
235.70	1286.12
235.92	1372.14
236.14	1388.52
236.36	1406.95
236.58	1337.32
236.79	1433.58
237.01	1452.01
237.23	1376.24
237.45	1460.20
237.67	1292.27
237.88	1384.43
238.10	1478.63
238.32	1261.55
238.54	1384.43
238.76	1355.76
238.97	1380.33
239.19	1339.37
239.41	1368.04
239.63	1374.19
239.85	1294.32
240.06	1376.24
240.28	1396.71
240.50	1388.52
240.72	1312.75
240.93	1382.38
241.15	1431.53
241.37	1320.94
241.59	1402.86
241.81	1419.24
242.02	1284.08
242.24	1415.15
242.46	1372.14
242.68	1339.37
242.89	1439.72
243.11	1353.71
243.33	1374.19
243.55	1400.81
243.76	1404.91
243.98	1345.52
244.20	1374.19
244.42	1341.42
244.64	1437.67
244.85	1284.08
245.07	1325.04
245.29	1452.01
245.51	1417.19
245.72	1337.32
245.94	1341.42
246.16	1392.62
246.38	1449.96
246.59	1384.43
246.81	1353.71
247.03	1282.03
247.24	1333.23
247.46	1363.95
247.68	1404.91
247.90	1386.47
248.11	1363.95
248.33	1474.54
248.55	1363.95
248.77	1349.61
248.98	1495.02
249.20	1466.35
249.42	1415.15
249.64	1398.76
249.85	1366.00
250.07	1322.99
250.29	1429.48
250.50	1466.35
250.72	1339.37
250.94	1411.05
251.16	1445.87
251.37	1427.43
251.59	1439.72
251.81	1390.57
252.02	1331.18
252.24	1335.28
252.46	1392.62
252.68	1322.99
252.89	1322.99
253.11	1298.41
253.33	1449.96
253.54	1484.78
253.76	1290.22
253.98	1357.80
254.20	1376.24
254.41	1306.60
254.63	1374.19
254.85	1322.99
255.06	1409.00
255.28	1466.35
255.50	1380.33
255.71	1347.56
255.93	1347.56
256.15	1357.80
256.36	1337.32
256.58	1411.05
256.80	1376.24
257.02	1390.57
257.23	1411.05
257.45	1406.95
257.67	1355.76
257.88	1306.60
258.10	1345.52
258.32	1361.90
258.53	1384.43
258.75	1501.16
258.97	1378.28
259.18	1417.19
259.40	1384.43
259.62	1404.91
259.83	1445.87
260.05	1415.15
260.27	1576.94
260.48	1322.99
260.70	1320.94
260.92	1370.09
261.13	1396.71
261.35	1366.00
261.57	1398.76
261.78	1366.00
262.00	1386.47
262.22	1419.24
262.43	1394.67
262.65	1386.47
262.86	1386.47
263.08	1413.10
263.30	1370.09
263.51	1339.37
263.73	1339.37
263.95	1466.35
264.16	1245.16
264.38	1357.80
264.60	1386.47
264.81	1302.51
265.03	1347.56
265.25	1488.87
265.46	1353.71
265.68	1368.04
265.89	1339.37
266.11	1298.41
266.33	1378.28
266.54	1345.52
266.76	1409.00
266.98	1380.33
267.19	1413.10
267.41	1427.43
267.62	1284.08
267.84	1337.32
268.06	1392.62
268.27	1351.66
268.49	1400.81
268.70	1394.67
268.92	1357.80
269.14	1349.61
269.35	1400.81
269.57	1378.28
269.79	1400.81
270.00	1355.76
270.22	1482.73
270.43	1316.84
270.65	1296.36
270.87	1363.95
271.08	1396.71
271.30	1366.00
271.51	1388.52
271.73	1302.51
271.95	1439.72
272.16	1376.24
272.38	1355.76
272.59	1351.66
272.81	1398.76
273.02	1402.86
273.24	1435.63
273.46	1449.96
273.67	1355.76
273.89	1325.04
274.10	1312.75
274.32	1437.67
274.54	1464.30
274.75	1417.19
274.97	1282.03
275.18	1406.95
275.40	1394.67
275.61	1277.93
275.83	1343.47
276.05	1298.41
276.26	1318.89
276.48	1417.19
276.69	1429.48
276.91	1331.18
277.12	1439.72
277.34	1380.33
277.55	1380.33
277.77	1421.29
277.99	1320.94
278.20	1290.22
278.42	1378.28
278.63	1337.32
278.85	1431.53
279.06	1318.89
279.28	1409.00
279.49	1331.18
279.71	1366.00
279.93	1415.15
280.14	1398.76
280.36	1347.56
280.57	1394.67
280.79	1427.43
281.00	1415.15
281.22	1411.05
281.43	1421.29
281.65	1265.64
281.86	1288.17
282.08	1388.52
282.29	1445.87
282.51	1275.88
282.73	1325.04
282.94	1382.38
283.16	1343.47
283.37	1415.15
283.59	1404.91
283.80	1374.19
284.02	1310.70
284.23	1337.32
284.45	1322.99
284.66	1382.38
284.88	1337.32
285.09	1345.52
285.31	1359.85
285.52	1361.90
285.74	1329.13
285.95	1376.24
286.17	1378.28
286.38	1361.90
286.60	1388.52
286.81	1286.12
287.03	1392.62
287.24	1384.43
287.46	1437.67
287.67	1316.84
287.89	1372.14
288.10	1382.38
288.32	1398.76
288.53	1482.73
288.75	1404.91
288.96	1359.85
289.18	1331.18
289.39	1310.70
289.61	1413.10
289.82	1501.16
290.04	1396.71
290.25	1402.86
290.47	1368.04
290.68	1363.95
290.90	1396.71
291.11	1310.70
291.33	1349.61
291.54	1263.60
291.76	1300.46
291.97	1388.52
292.18	1415.15
292.40	1406.95
292.61	1308.65
292.83	1454.06
293.04	1355.76
293.26	1460.20
293.47	1255.40
293.69	1384.43
293.90	1245.16
294.12	1400.81
294.33	1335.28
294.55	1394.67
294.76	1419.24
294.97	1431.53
295.19	1411.05
295.40	1382.38
295.62	1353.71
295.83	1382.38
296.05	1314.80
296.26	1413.10
296.48	1308.65
296.69	1404.91
296.90	1359.85
297.12	1370.09
297.33	1419.24
297.55	1394.67
297.76	1374.19
297.98	1476.59
298.19	1421.29
298.41	1359.85
298.62	1353.71
298.83	1433.58
299.05	1409.00
299.26	1347.56
299.48	1333.23
299.69	1394.67
299.90	1388.52
300.12	1294.32
300.33	1345.52
300.55	1382.38
300.76	1415.15
300.98	1343.47
301.19	1398.76
301.40	1327.08
301.62	1327.08
301.83	1302.51
302.05	1376.24
302.26	1329.13
302.47	1351.66
302.69	1388.52
302.90	1406.95
303.12	1322.99
303.33	1390.57
303.54	1392.62
303.76	1335.28
303.97	1374.19
304.19	1425.39
304.40	1382.38
304.61	1337.32
304.83	1437.67
305.04	1400.81
305.26	1396.71
305.47	1382.38
305.68	1333.23
305.90	1304.56
306.11	1443.82
306.33	1368.04
306.54	1320.94
306.75	1355.76
306.97	1411.05
307.18	1292.27
307.39	1341.42
307.61	1363.95
307.82	1279.98
308.04	1404.91
308.25	1349.61
308.46	1396.71
308.68	1411.05
308.89	1370.09
309.10	1355.76
309.32	1363.95
309.53	1421.29
309.74	1372.14
309.96	1316.84
310.17	1372.14
310.39	1398.76
310.60	1320.94
310.81	1355.76
311.03	1349.61
311.24	1372.14
311.45	1361.90
311.67	1433.58
311.88	1378.28
312.09	1357.80
312.31	1376.24
312.52	1331.18
312.73	1288.17
312.95	1370.09
313.16	1339.37
313.37	1460.20
313.59	1351.66
313.80	1413.10
314.01	1456.11
314.23	1306.60
314.44	1396.71
314.65	1286.12
314.87	1331.18
315.08	1388.52
315.29	1372.14
315.51	1390.57
315.72	1339.37
315.93	1380.33
316.15	1382.38
316.36	1327.08
316.57	1372.14
316.79	1357.80
317.00	1355.76
317.21	1378.28
317.43	1411.05
317.64	1341.42
317.85	1429.48
318.07	1437.67
318.28	1533.93
318.49	1544.17
318.70	1603.56
318.92	1550.31
319.13	1583.08
319.34	1540.07
319.56	1460.20
319.77	1429.48
319.98	1409.00
320.20	1429.48
320.41	1427.43
320.62	1415.15
320.83	1363.95
321.05	1486.83
321.26	1366.00
321.47	1363.95
321.69	1378.28
321.90	1353.71
322.11	1382.38
322.32	1382.38
322.54	1368.04
322.75	1320.94
322.96	1419.24
323.18	1325.04
323.39	1273.84
323.60	1339.37
323.81	1386.47
324.03	1439.72
324.24	1417.19
324.45	1300.46
324.66	1368.04
324.88	1349.61
325.09	1392.62
325.30	1398.76
325.52	1411.05
325.73	1363.95
325.94	1376.24
326.15	1310.70
326.37	1363.95
326.58	1390.57
326.79	1406.95
327.00	1349.61
327.22	1339.37
327.43	1366.00
327.64	1363.95
327.85	1400.81
328.07	1425.39
328.28	1357.80
328.49	1363.95
328.70	1380.33
328.92	1363.95
329.13	1394.67
329.34	1366.00
329.55	1470.44
329.76	1339.37
329.98	1366.00
330.19	1486.83
330.40	1357.80
330.61	1400.81
330.83	1409.00
331.04	1292.27
331.25	1368.04
331.46	1331.18
331.68	1292.27
331.89	1331.18
332.10	1310.70
332.31	1296.36
332.52	1298.41
332.74	1421.29
332.95	1374.19
333.16	1302.51
333.37	1417.19
333.58	1396.71
333.80	1359.85
334.01	1359.85
334.22	1380.33
334.43	1304.56
334.64	1396.71
334.86	1312.75
335.07	1382.38
335.28	1439.72
335.49	1327.08
335.70	1335.28
335.92	1349.61
336.13	1425.39
336.34	1439.72
336.55	1370.09
336.76	1398.76
336.98	1271.79
337.19	1417.19
337.40	1394.67
337.61	1433.58
337.82	1413.10
338.04	1357.80
338.25	1298.41
338.46	1341.42
338.67	1380.33
338.88	1370.09
339.09	1351.66
339.31	1361.90
339.52	1343.47
339.73	1376.24
339.94	1349.61
340.15	1421.29
340.36	1292.27
340.58	1443.82
340.79	1316.84
341.00	1427.43
341.21	1288.17
341.42	1433.58
341.63	1404.91
341.85	1454.06
342.06	1452.01
342.27	1296.36
342.48	1306.60
342.69	1357.80
342.90	1374.19
343.12	1388.52
343.33	1294.32
343.54	1325.04
343.75	1368.04
343.96	1341.42
344.17	1329.13
344.38	1275.88
344.60	1312.75
344.81	1404.91
345.02	1396.71
345.23	1384.43
345.44	1398.76
345.65	1363.95
345.86	1361.90
346.07	1372.14
346.29	1351.66
346.50	1363.95
346.71	1314.80
346.92	1421.29
347.13	1404.91
347.34	1269.74
347.55	1388.52
347.76	1437.67
347.98	1271.79
348.19	1372.14
348.40	1423.34
348.61	1327.08
348.82	1335.28
349.03	1394.67
349.24	1331.18
349.45	1409.00
349.66	1304.56
349.88	1345.52
350.09	1394.67
350.30	1423.34
350.51	1411.05
350.72	1382.38
350.93	1302.51
351.14	1294.32
351.35	1353.71
351.56	1261.55
351.77	1419.24
351.99	1380.33
352.20	1443.82
352.41	1431.53
352.62	1304.56
352.83	1390.57
353.04	1353.71
353.25	1372.14
353.46	1415.15
353.67	1370.09
353.88	1277.93
354.09	1423.34
354.30	1357.80
354.52	1306.60
354.73	1329.13
354.94	1312.75
355.15	1372.14
355.36	1419.24
355.57	1386.47
355.78	1322.99
355.99	1341.42
356.20	1351.66
356.41	1437.67
356.62	1374.19
356.83	1339.37
357.04	1435.63
357.25	1292.27
357.46	1337.32
357.68	1335.28
357.89	1294.32
358.10	1388.52
358.31	1482.73
358.52	1421.29
358.73	1314.80
358.94	1394.67
359.15	1417.19
359.36	1404.91
359.57	1413.10
359.78	1435.63
359.99	1388.52
360.20	1355.76
360.41	1386.47
360.62	1339.37
360.83	1374.19
361.04	1341.42
361.25	1478.63
361.46	1411.05
361.67	1443.82
361.88	1443.82
362.09	1419.24
362.30	1316.84
362.51	1361.90
362.72	1361.90
362.93	1400.81
363.14	1419.24
363.35	1400.81
363.56	1380.33
363.78	1386.47
363.99	1419.24
364.20	1351.66
364.41	1396.71
364.62	1433.58
364.83	1431.53
365.04	1349.61
365.25	1452.01
365.46	1443.82
365.67	1337.32
365.88	1286.12
366.09	1341.42
366.30	1355.76
366.51	1347.56
366.72	1296.36
366.93	1386.47
367.14	1322.99
367.35	1394.67
367.56	1327.08
367.77	1449.96
367.98	1437.67
368.18	1355.76
368.39	1386.47
368.60	1310.70
368.81	1382.38
369.02	1351.66
369.23	1341.42
369.44	1318.89
369.65	1396.71
369.86	1402.86
370.07	1384.43
370.28	1394.67
370.49	1400.81
370.70	1437.67
370.91	1363.95
371.12	1404.91
371.33	1421.29
371.54	1312.75
371.75	1392.62
371.96	1232.88
372.17	1425.39
372.38	1382.38
372.59	1396.71
372.80	1337.32
373.01	1386.47
373.22	1310.70
373.43	1452.01
373.64	1306.60
373.85	1380.33
374.06	1390.57
374.26	1394.67
374.47	1335.28
374.68	1374.19
374.89	1322.99
375.10	1294.32
375.31	1339.37
375.52	1347.56
375.73	1374.19
375.94	1335.28
376.15	1425.39
376.36	1372.14
376.57	1366.00
376.78	1341.42
376.99	1394.67
377.20	1409.00
377.40	1327.08
377.61	1441.77
377.82	1290.22
378.03	1443.82
378.24	1413.10
378.45	1316.84
378.66	1390.57
378.87	1320.94
379.08	1329.13
379.29	1341.42
379.50	1462.25
379.71	1370.09
379.91	1437.67
380.12	1429.48
380.33	1331.18
380.54	1249.26
380.75	1386.47
380.96	1423.34
381.17	1423.34
381.38	1341.42
381.59	1441.77
381.80	1441.77
382.00	1458.15
382.21	1351.66
382.42	1470.44
382.63	1480.68
382.84	1413.10
383.05	1396.71
383.26	1441.77
383.47	1351.66
383.68	1361.90
383.88	1417.19
384.09	1386.47
384.30	1433.58
384.51	1460.20
384.72	1349.61
384.93	1419.24
385.14	1406.95
385.35	1355.76
385.55	1318.89
385.76	1378.28
385.97	1357.80
386.18	1312.75
386.39	1359.85
386.60	1374.19
386.81	1378.28
387.02	1433.58
387.22	1409.00
387.43	1460.20
387.64	1490.92
387.85	2332.64
388.06	5709.74
388.27	9457.52
388.48	11462.48
388.68	13043.51
388.89	13365.04
389.10	10581.85
389.31	9078.65
389.52	8232.83
389.73	7372.69
389.93	6786.97
390.14	6426.53
390.35	6047.65
390.56	5380.01
390.77	4628.41
390.98	3585.99
391.18	2770.90
391.39	2119.65
391.60	1753.06
391.81	1656.81
392.02	1443.82
392.23	1503.21
392.43	1400.81
392.64	1441.77
392.85	1398.76
393.06	1505.26
393.27	1355.76
393.47	1372.14
393.68	1314.80
393.89	1378.28
394.10	1415.15
394.31	1343.47
394.52	1302.51
394.72	1316.84
394.93	1458.15
395.14	1378.28
395.35	1441.77
395.56	1439.72
395.76	1505.26
395.97	1519.59
396.18	1550.31
396.39	1691.62
396.60	1716.20
396.80	1517.54
397.01	1550.31
397.22	1490.92
397.43	1519.59
397.64	1404.91
397.84	1533.93
398.05	1499.11
398.26	1531.88
398.47	1429.48
398.67	1437.67
398.88	1433.58
399.09	1423.34
399.30	1359.85
399.51	1425.39
399.71	1302.51
399.92	1331.18
400.13	1380.33
400.34	1372.14
400.54	1339.37
400.75	1415.15
400.96	1380.33
401.17	1503.21
401.37	1359.85
401.58	1470.44
401.79	1519.59
402.00	1671.14
402.21	1701.86
402.41	1843.17
402.62	1867.75
402.83	1705.96
403.04	1665.00
403.24	1781.73
403.45	1566.70
403.66	1667.05
403.87	1611.75
404.07	1556.46
404.28	1615.85
404.49	1568.74
404.70	1476.59
404.90	1478.63
405.11	1417.19
405.32	1406.95
405.52	1353.71
405.73	1333.23
405.94	1368.04
406.15	1335.28
406.35	1413.10
406.56	1413.10
406.77	1355.76
406.98	1437.67
407.18	1296.36
407.39	1337.32
407.60	1380.33
407.80	1413.10
408.01	1337.32
408.22	1394.67
408.43	1351.66
408.63	1386.47
408.84	1429.48
409.05	1400.81
409.25	1318.89
409.46	1378.28
409.67	1417.19
409.88	1363.95
410.08	1456.11
410.29	1327.08
410.50	1331.18
410.70	1417.19
410.91	1310.70
411.12	1384.43
411.32	1454.06
411.53	1363.95
411.74	1519.59
411.95	1390.57
412.15	1454.06
412.36	1435.63
412.57	1353.71
412.77	1456.11
412.98	1423.34
413.19	1431.53
413.39	1366.00
413.60	1454.06
413.81	1435.63
414.01	1353.71
414.22	1466.35
414.43	1359.85
414.63	1445.87
414.84	1452.01
415.05	1441.77
415.25	1413.10
415.46	1454.06
415.67	1372.14
415.87	1386.47
416.08	1404.91
416.29	1392.62
416.49	1415.15
416.70	1423.34
416.91	1318.89
417.11	1353.71
417.32	1433.58
417.53	1488.87
417.73	1353.71
417.94	1308.65
418.15	1441.77
418.35	1343.47
418.56	1411.05
418.77	1452.01
418.97	1351.66
419.18	1392.62
419.38	1322.99
419.59	1382.38
419.80	1392.62
420.00	1380.33
420.21	1361.90
420.42	1439.72
420.62	1337.32
420.83	1368.04
421.04	1402.86
421.24	1392.62
421.45	1347.56
421.65	1411.05
421.86	1335.28
422.07	1388.52
422.27	1349.61
422.48	1363.95
422.69	1392.62
422.89	1335.28
423.10	1378.28
423.30	1329.13
423.51	1339.37
423.72	1421.29
423.92	1423.34
424.13	1298.41
424.33	1394.67
424.54	1386.47
424.75	1320.94
424.95	1474.54
425.16	1370.09
425.36	1329.13
425.57	1474.54
425.78	1384.43
425.98	1322.99
426.19	1359.85
426.39	1337.32
426.60	1404.91
426.81	1402.86
427.01	1439.72
427.22	1306.60
427.42	1269.74
427.63	1384.43
427.83	1454.06
428.04	1335.28
428.25	1429.48
428.45	1464.30
428.66	1349.61
428.86	1353.71
429.07	1353.71
429.28	1404.91
429.48	1384.43
429.69	1368.04
429.89	1314.80
430.10	1339.37
430.30	1359.85
430.51	1472.49
430.71	1386.47
430.92	1366.00
431.13	1337.32
431.33	1415.15
431.54	1421.29
431.74	1406.95
431.95	1482.73
432.15	1413.10
432.36	1370.09
432.56	1380.33
432.77	1435.63
432.98	1390.57
433.18	1386.47
433.39	1398.76
433.59	1331.18
433.80	1439.72
434.00	1456.11
434.21	1386.47
434.41	1337.32
434.62	1433.58
434.82	1314.80
435.03	1466.35
435.23	1304.56
435.44	1288.17
435.64	1378.28
435.85	1404.91
436.06	1402.86
436.26	1380.33
436.47	1454.06
436.67	1378.28
436.88	1413.10
437.08	1368.04
437.29	1538.02
437.49	1355.76
437.70	1359.85
437.90	1439.72
438.11	1505.26
438.31	1478.63
438.52	1519.59
438.72	1603.56
438.93	1581.03
439.13	1501.16
439.34	1556.46
439.54	1400.81
439.75	1480.68
439.95	1400.81
440.16	1409.00
440.36	1425.39
440.57	1449.96
440.77	1449.96
440.98	1421.29
441.18	1433.58
441.39	1363.95
441.59	1372.14
441.80	1468.39
442.00	1339.37
442.21	1396.71
442.41	1320.94
442.62	1390.57
442.82	1427.43
443.02	1353.71
443.23	1370.09
443.43	1376.24
443.64	1443.82
443.84	1402.86
444.05	1476.59
444.25	1320.94
444.46	1345.52
444.66	1355.76
444.87	1411.05
445.07	1361.90
445.28	1361.90
445.48	1390.57
445.69	1452.01
445.89	1554.41
446.09	1509.35
446.30	2252.77
446.50	3663.82
446.71	4591.55
446.91	5175.22
447.12	5574.57
447.32	4829.11
447.53	4188.10
447.73	3633.10
447.93	3387.34
448.14	3295.18
448.34	3057.62
448.55	2723.80
448.75	2740.18
448.96	2684.89
449.16	2355.16
449.36	2156.51
449.57	1834.98
449.77	1708.01
449.98	1523.69
450.18	1503.21
450.39	1439.72
450.59	1441.77
450.79	1415.15
451.00	1372.14
451.20	1433.58
451.41	1398.76
451.61	1355.76
451.81	1339.37
452.02	1435.63
452.22	1423.34
452.43	1310.70
452.63	1345.52
452.84	1298.41
453.04	1380.33
453.24	1390.57
453.45	1378.28
453.65	1370.09
453.86	1376.24
454.06	1411.05
454.26	1368.04
454.47	1370.09
454.67	1468.39
454.87	1355.76
455.08	1337.32
455.28	1413.10
455.49	1374.19
455.69	1337.32
455.89	1384.43
456.10	1376.24
456.30	1322.99
456.51	1376.24
456.71	1402.86
456.91	1390.57
457.12	1388.52
457.32	1359.85
457.52	1353.71
457.73	1351.66
457.93	1439.72
458.14	1322.99
458.34	1345.52
458.54	1359.85
458.75	1376.24
458.95	1388.52
459.15	1300.46
459.36	1296.36
459.56	1384.43
459.76	1443.82
459.97	1306.60
460.17	1390.57
460.37	1386.47
460.58	1382.38
460.78	1351.66
460.99	1316.84
461.19	1363.95
461.39	1314.80
461.60	1329.13
461.80	1454.06
462.00	1357.80
462.21	1392.62
462.41	1384.43
462.61	1337.32
462.82	1343.47
463.02	1384.43
463.22	1388.52
463.43	1351.66
463.63	1456.11
463.83	1462.25
464.04	1388.52
464.24	1435.63
464.44	1306.60
464.64	1343.47
464.85	1392.62
465.05	1437.67
465.25	1329.13
465.46	1339.37
465.66	1411.05
465.86	1409.00
466.07	1400.81
466.27	1335.28
466.47	1363.95
466.68	1376.24
466.88	1484.78
467.08	1378.28
467.29	1425.39
467.49	1421.29
467.69	1400.81
467.89	1374.19
468.10	1368.04
468.30	1339.37
468.50	1392.62
468.71	1449.96
468.91	1314.80
469.11	1476.59
469.31	1447.91
469.52	1376.24
469.72	1441.77
469.92	1374.19
470.13	1447.91
470.33	1456.11
470.53	1716.20
470.73	2009.06
470.94	2310.11
471.14	2340.83
471.34	2428.89
471.54	2232.29
471.75	2045.92
471.95	1972.19
472.15	1785.83
472.36	1791.97
472.56	1839.08
472.76	1822.69
472.96	1675.24
473.17	1634.28
473.37	1656.81
473.57	1578.98
473.77	1564.65
473.98	1439.72
474.18	1462.25
474.38	1456.11
474.58	1435.63
474.79	1374.19
474.99	1374.19
475.19	1433.58
475.39	1370.09
475.60	1388.52
475.80	1382.38
476.00	1363.95
476.20	1421.29
476.41	1406.95
476.61	1460.20
476.81	1447.91
477.01	1312.75
477.21	1339.37
477.42	1411.05
477.62	1343.47
477.82	1347.56
478.02	1322.99
478.23	1466.35
478.43	1337.32
478.63	1363.95
478.83	1423.34
479.03	1415.15
479.24	1421.29
479.44	1452.01
479.64	1333.23
479.84	1273.84
480.04	1366.00
480.25	1341.42
480.45	1345.52
480.65	1366.00
480.85	1458.15
481.06	1343.47
481.26	1380.33
481.46	1353.71
481.66	1400.81
481.86	1363.95
482.06	1318.89
482.27	1361.90
482.47	1318.89
482.67	1460.20
482.87	1388.52
483.07	1394.67
483.28	1361.90
483.48	1337.32
483.68	1427.43
483.88	1353.71
484.08	1290.22
484.29	1386.47
484.49	1357.80
484.69	1314.80
484.89	1431.53
485.09	1363.95
485.29	1382.38
485.50	1402.86
485.70	1396.71
485.90	1464.30
486.10	1427.43
486.30	1433.58
486.50	1406.95
486.71	1351.66
486.91	1406.95
487.11	1409.00
487.31	1366.00
487.51	1376.24
487.71	1310.70
487.91	1318.89
488.12	1255.40
488.32	1267.69
488.52	1333.23
488.72	1327.08
488.92	1402.86
489.12	1437.67
489.32	1423.34
489.53	1374.19
489.73	1359.85
489.93	1443.82
490.13	1322.99
490.33	1241.07
490.53	1366.00
490.73	1445.87
490.94	1294.32
491.14	1462.25
491.34	1642.47
491.54	2197.47
491.74	2576.34
491.94	3012.56
492.14	3147.73
492.34	2977.75
492.54	2586.58
492.75	2287.58
492.95	2226.14
493.15	2058.21
493.35	2041.82
493.55	1961.95
493.75	1828.84
493.95	1986.53
494.15	1796.07
494.35	1732.58
494.56	1654.76
494.76	1476.59
494.96	1533.93
495.16	1460.20
495.36	1361.90
495.56	1456.11
495.76	1382.38
495.96	1355.76
496.16	1282.03
496.36	1421.29
496.56	1384.43
496.77	1429.48
496.97	1464.30
497.17	1353.71
497.37	1349.61
497.57	1470.44
497.77	1345.52
497.97	1355.76
498.17	1335.28
498.37	1329.13
498.57	1441.77
498.77	1400.81
498.97	1384.43
499.17	1460.20
499.38	1335.28
499.58	1443.82
499.78	1431.53
499.98	1376.24
500.18	1390.57
500.38	1441.77
500.58	1669.09
500.78	2910.16
500.98	5515.18
501.18	6717.34
501.38	7915.40
501.58	8658.81
501.78	7421.84
501.98	5640.11
502.18	5164.98
502.38	4460.48
502.58	4063.17
502.78	3721.16
502.98	3581.90
503.18	3493.83
503.38	3276.75
503.59	3053.52
503.79	2713.56
503.99	2588.63
504.19	2404.32
504.39	2191.33
504.59	2082.78
504.79	1877.99
504.99	1832.93
505.19	1613.80
505.39	1548.26
505.59	1624.04
505.79	1593.32
505.99	1503.21
506.19	1515.50
506.39	1445.87
506.59	1478.63
506.79	1351.66
506.99	1521.64
507.19	1468.39
507.39	1462.25
507.59	1439.72
507.79	1351.66
507.99	1400.81
508.19	1421.29
508.39	1392.62
508.59	1437.67
508.79	1509.35
508.99	1409.00
509.19	1372.14
509.39	1361.90
509.59	1378.28
509.79	1404.91
509.99	1374.19
510.19	1396.71
510.39	1382.38
510.59	1454.06
510.79	1366.00
510.99	1370.09
511.19	1380.33
511.39	1507.30
511.59	1396.71
511.79	1540.07
511.99	1411.05
512.19	1478.63
512.38	1425.39
512.58	1343.47
512.78	1384.43
512.98	1361.90
513.18	1456.11
513.38	1384.43
513.58	1484.78
513.78	1308.65
513.98	1437.67
514.18	1378.28
514.38	1431.53
514.58	1441.77
514.78	1320.94
514.98	1398.76
515.18	1341.42
515.38	1327.08
515.58	1468.39
515.78	1347.56
515.98	1343.47
516.18	1363.95
516.38	1419.24
516.57	1421.29
516.77	1363.95
516.97	1382.38
517.17	1345.52
517.37	1302.51
517.57	1406.95
517.77	1421.29
517.97	1376.24
518.17	1396.71
518.37	1368.04
518.57	1392.62
518.77	1325.04
518.97	1429.48
519.16	1363.95
519.36	1429.48
519.56	1329.13
519.76	1347.56
519.96	1411.05
520.16	1435.63
520.36	1370.09
520.56	1449.96
520.76	1376.24
520.96	1306.60
521.16	1392.62
521.35	1484.78
521.55	1529.83
521.75	1351.66
521.95	1388.52
522.15	1368.04
522.35	1234.93
522.55	1343.47
522.75	1449.96
522.95	1419.24
523.14	1308.65
523.34	1363.95
523.54	1359.85
523.74	1382.38
523.94	1302.51
524.14	1357.80
524.34	1357.80
524.54	1429.48
524.73	1380.33
524.93	1437.67
525.13	1396.71
525.33	1380.33
525.53	1474.54
525.73	1372.14
525.93	1282.03
526.13	1456.11
526.32	1378.28
526.52	1347.56
526.72	1396.71
526.92	1400.81
527.12	1304.56
527.32	1388.52
527.52	1419.24
527.71	1359.85
527.91	1345.52
528.11	1347.56
528.31	1370.09
528.51	1277.93
528.71	1363.95
528.90	1386.47
529.10	1419.24
529.30	1454.06
529.50	1236.97
529.70	1318.89
529.90	1384.43
530.09	1363.95
530.29	1261.55
530.49	1335.28
530.69	1357.80
530.89	1417.19
531.09	1439.72
531.28	1310.70
531.48	1394.67
531.68	1370.09
531.88	1394.67
532.08	1466.35
532.28	1361.90
532.47	1386.47
532.67	1411.05
532.87	1333.23
533.07	1343.47
533.27	1456.11
533.46	1384.43
533.66	1363.95
533.86	1400.81
534.06	1390.57
534.26	1419.24
534.45	1470.44
534.65	1398.76
534.85	1458.15
535.05	1353.71
535.25	1445.87
535.44	1423.34
535.64	1409.00
535.84	1368.04
536.04	1361.90
536.24	1351.66
536.43	1390.57
536.63	1437.67
536.83	1363.95
537.03	1333.23
537.22	1314.80
537.42	1357.80
537.62	1398.76
537.82	1378.28
538.02	1445.87
538.21	1460.20
538.41	1509.35
538.61	1372.14
538.81	1370.09
539.00	1398.76
539.20	1339.37
539.40	1298.41
539.60	1409.00
539.79	1441.77
539.99	1349.61
540.19	1384.43
540.39	1396.71
540.58	1351.66
540.78	1476.59
540.98	1402.86
541.18	1384.43
541.37	1421.29
541.57	1312.75
541.77	1415.15
541.97	1308.65
542.16	1382.38
542.36	1347.56
542.56	1419.24
542.76	1490.92
542.95	1398.76
543.15	1380.33
543.35	1347.56
543.54	1318.89
543.74	1312.75
543.94	1409.00
544.14	1380.33
544.33	1425.39
544.53	1353.71
544.73	1325.04
544.93	1353.71
545.12	1396.71
545.32	1456.11
545.52	1366.00
545.71	1327.08
545.91	1400.81
546.11	1275.88
546.30	1282.03
546.50	1361.90
546.70	1429.48
546.90	1378.28
547.09	1302.51
547.29	1368.04
547.49	1415.15
547.68	1351.66
547.88	1279.98
548.08	1392.62
548.27	1638.38
548.47	1409.00
548.67	1318.89
548.87	1380.33
549.06	1310.70
549.26	1378.28
549.46	1398.76
549.65	1370.09
549.85	1347.56
550.05	1415.15
550.24	1382.38
550.44	1380.33
550.64	1384.43
550.83	1409.00
551.03	1345.52
551.23	1386.47
551.42	1427.43
551.62	1406.95
551.82	1386.47
552.01	1366.00
552.21	1361.90
552.41	1339.37
552.60	1480.68
552.80	1327.08
553.00	1337.32
553.19	1327.08
553.39	1484.78
553.59	1441.77
553.78	1425.39
553.98	1368.04
554.17	1370.09
554.37	1409.00
554.57	1353.71
554.76	1380.33
554.96	1345.52
555.16	1312.75
555.35	1396.71
555.55	1378.28
555.75	1361.90
555.94	1468.39
556.14	1355.76
556.33	1425.39
556.53	1380.33
556.73	1339.37
556.92	1409.00
557.12	1396.71
557.32	1366.00
557.51	1378.28
557.71	1427.43
557.90	1398.76
558.10	1439.72
558.30	1394.67
558.49	1429.48
558.69	1409.00
558.88	1396.71
559.08	1402.86
559.28	1445.87
559.47	1357.80
559.67	1505.26
559.86	1404.91
560.06	1411.05
560.26	1316.84
560.45	1394.67
560.65	1306.60
560.84	1423.34
561.04	1288.17
561.24	1454.06
561.43	1402.86
561.63	1433.58
561.82	1404.91
562.02	1429.48
562.22	1392.62
562.41	1409.00
562.61	1296.36
562.80	1298.41
563.00	1437.67
563.19	1368.04
563.39	1368.04
563.59	1378.28
563.78	1265.64
563.98	1288.17
564.17	1363.95
564.37	1388.52
564.56	1452.01
564.76	1347.56
564.96	1474.54
565.15	1425.39
565.35	1527.78
565.54	1343.47
565.74	1363.95
565.93	1396.71
566.13	1378.28
566.32	1376.24
566.52	1372.14
566.71	1378.28
566.91	1366.00
567.11	1361.90
567.30	1380.33
567.50	1310.70
567.69	1357.80
567.89	1335.28
568.08	1390.57
568.28	1370.09
568.47	1335.28
568.67	1378.28
568.86	1331.18
569.06	1406.95
569.25	1388.52
569.45	1329.13
569.64	1464.30
569.84	1413.10
570.04	1327.08
570.23	1415.15
570.43	1425.39
570.62	1386.47
570.82	1386.47
571.01	1312.75
571.21	1435.63
571.40	1325.04
571.60	1388.52
571.79	1359.85
571.99	1460.20
572.18	1333.23
572.38	1396.71
572.57	1406.95
572.77	1329.13
572.96	1449.96
573.16	1347.56
573.35	1417.19
573.55	1427.43
573.74	1368.04
573.94	1329.13
574.13	1384.43
574.33	1437.67
574.52	1386.47
574.71	1456.11
574.91	1363.95
575.10	1357.80
575.30	1417.19
575.49	1347.56
575.69	1359.85
575.88	1423.34
576.08	1433.58
576.27	1501.16
576.47	1464.30
576.66	1503.21
576.86	1415.15
577.05	1431.53
577.25	1499.11
577.44	1511.40
577.64	1470.44
577.83	1486.83
578.02	1419.24
578.22	1527.78
578.41	1478.63
578.61	1355.76
578.80	1355.76
579.00	1341.42
579.19	1351.66
579.39	1361.90
579.58	1468.39
579.77	1390.57
579.97	1429.48
580.16	1476.59
580.36	1501.16
580.55	1488.87
580.75	1443.82
580.94	1427.43
581.13	1482.73
581.33	1482.73
581.52	1497.07
581.72	1544.17
581.91	1495.02
582.11	1394.67
582.30	1519.59
582.49	1388.52
582.69	1542.12
582.88	1474.54
583.08	1392.62
583.27	1460.20
583.47	1435.63
583.66	1470.44
583.85	1382.38
584.05	1355.76
584.24	1458.15
584.44	1462.25
584.63	1439.72
584.82	1560.55
585.02	1511.40
585.21	1679.33
585.41	1621.99
585.60	1570.79
585.79	1708.01
585.99	1673.19
586.18	1722.34
586.37	1806.31
586.57	2629.59
586.76	7917.45
586.96	24082.06
587.15	40887.70
587.34	51553.52
587.54	59143.29
587.73	58942.59
587.93	44475.74
588.12	32599.57
588.31	26422.89
588.51	22531.75
588.70	19783.38
588.89	18319.08
589.09	16961.28
589.28	15843.09
589.47	14288.68
589.67	12664.64
589.86	10846.04
590.06	8533.89
590.25	6688.67
590.44	4919.22
590.64	3727.30
590.83	2834.39
591.02	2318.30
591.22	1939.43
591.41	1687.53
591.60	1605.61
591.80	1632.23
591.99	1363.95
592.18	1488.87
592.38	1519.59
592.57	1404.91
592.76	1384.43
592.96	1433.58
593.15	1376.24
593.34	1492.97
593.54	1382.38
593.73	1480.68
593.92	1421.29
594.12	1472.49
594.31	1421.29
594.50	1460.20
594.70	1490.92
594.89	1449.96
595.08	1384.43
595.28	1484.78
595.47	1538.02
595.66	1396.71
595.86	1335.28
596.05	1400.81
596.24	1409.00
596.43	1488.87
596.63	1409.00
596.82	1347.56
597.01	1505.26
597.21	1470.44
597.40	1497.07
597.59	1488.87
597.79	1437.67
597.98	1429.48
598.17	1519.59
598.36	1427.43
598.56	1456.11
598.75	1396.71
598.94	1431.53
599.14	1380.33
599.33	1388.52
599.52	1402.86
599.71	1411.05
599.91	1431.53
600.10	1435.63
600.29	1347.56
600.48	1443.82
600.68	1372.14
600.87	1433.58
601.06	1429.48
601.26	1382.38
601.45	1474.54
601.64	1413.10
601.83	1458.15
602.03	1417.19
602.22	1486.83
602.41	1449.96
602.60	1431.53
602.80	1445.87
602.99	1433.58
603.18	1400.81
603.37	1433.58
603.57	1380.33
603.76	1460.20
603.95	1370.09
604.14	1366.00
604.34	1433.58
604.53	1374.19
604.72	1306.60
604.91	1413.10
605.10	1347.56
605.30	1357.80
605.49	1439.72
605.68	1396.71
605.87	1431.53
606.07	1390.57
606.26	1492.97
606.45	1409.00
606.64	1413.10
606.84	1406.95
607.03	1458.15
607.22	1425.39
607.41	1429.48
607.60	1421.29
607.80	1363.95
607.99	1456.11
608.18	1476.59
608.37	1409.00
608.56	1331.18
608.76	1409.00
608.95	1515.50
609.14	1460.20
609.33	1468.39
609.52	1515.50
609.72	1400.81
609.91	1540.07
610.10	1492.97
610.29	1406.95
610.48	1404.91
610.68	1478.63
610.87	1470.44
611.06	1368.04
611.25	1421.29
611.44	1462.25
611.63	1400.81
611.83	1503.21
612.02	1394.67
612.21	1431.53
612.40	1335.28
612.59	1275.88
612.79	1314.80
612.98	1394.67
613.17	1419.24
613.36	1359.85
613.55	1462.25
613.74	1445.87
613.93	1560.55
614.13	1527.78
614.32	1519.59
614.51	1710.05
614.70	1538.02
614.89	1492.97
615.08	1519.59
615.28	1638.38
615.47	1404.91
615.66	1437.67
615.85	1458.15
616.04	1501.16
616.23	1513.45
616.42	1419.24
616.62	1460.20
616.81	1419.24
617.00	1492.97
617.19	1460.20
617.38	1423.34
617.57	1445.87
617.76	1406.95
617.95	1404.91
618.15	1441.77
618.34	1423.34
618.53	1349.61
618.72	1413.10
618.91	1404.91
619.10	1419.24
619.29	1388.52
619.48	1398.76
619.68	1277.93
619.87	1427.43
620.06	1292.27
620.25	1382.38
620.44	1370.09
620.63	1374.19
620.82	1329.13
621.01	1374.19
621.20	1380.33
621.39	1378.28
621.59	1445.87
621.78	1320.94
621.97	1445.87
622.16	1359.85
622.35	1353.71
622.54	1366.00
622.73	1419.24
622.92	1351.66
623.11	1398.76
623.30	1355.76
623.49	1402.86
623.68	1429.48
623.88	1427.43
624.07	1318.89
624.26	1392.62
624.45	1376.24
624.64	1366.00
624.83	1343.47
625.02	1456.11
625.21	1331.18
625.40	1398.76
625.59	1427.43
625.78	1306.60
625.97	1376.24
626.16	1468.39
626.35	1429.48
626.54	1474.54
626.74	1482.73
626.93	1456.11
627.12	1452.01
627.31	1517.54
627.50	1333.23
627.69	1394.67
627.88	1376.24
628.07	1452.01
628.26	1380.33
628.45	1368.04
628.64	1333.23
628.83	1349.61
629.02	1337.32
629.21	1368.04
629.40	1435.63
629.59	1349.61
629.78	1337.32
629.97	1372.14
630.16	1427.43
630.35	1404.91
630.54	1454.06
630.73	1419.24
630.92	1337.32
631.11	1392.62
631.30	1449.96
631.49	1447.91
631.68	1415.15
631.87	1366.00
632.06	1302.51
632.25	1566.70
632.44	1363.95
632.63	1398.76
632.82	1370.09
633.01	1372.14
633.20	1554.41
633.39	1452.01
633.58	1501.16
633.77	1433.58
633.96	1480.68
634.15	1523.69
634.34	1470.44
634.53	1368.04
634.72	1411.05
634.91	1384.43
635.10	1370.09
635.29	1445.87
635.48	1402.86
635.67	1402.86
635.86	1452.01
636.05	1382.38
636.24	1368.04
636.43	1376.24
636.62	1331.18
636.81	1327.08
637.00	1376.24
637.19	1370.09
637.38	1419.24
637.57	1384.43
637.76	1421.29
637.95	1515.50
638.14	1433.58
638.33	1454.06
638.52	1529.83
638.71	1454.06
638.89	1421.29
639.08	1544.17
639.27	1525.74
639.46	1501.16
639.65	1714.15
639.84	1908.71
640.03	2015.20
640.22	2080.74
640.41	2123.74
640.60	1939.43
640.79	1779.68
640.98	1591.27
641.17	1619.94
641.36	1638.38
641.55	1542.12
641.74	1570.79
641.92	1472.49
642.11	1443.82
642.30	1470.44
642.49	1413.10
642.68	1411.05
642.87	1400.81
643.06	1484.78
643.25	1386.47
643.44	1376.24
643.63	1331.18
643.82	1351.66
644.00	1366.00
644.19	1429.48
644.38	1363.95
644.57	1357.80
644.76	1372.14
644.95	1339.37
645.14	1335.28
645.33	1394.67
645.52	1390.57
645.71	1349.61
645.89	1347.56
646.08	1298.41
646.27	1316.84
646.46	1445.87
646.65	1298.41
646.84	1322.99
647.03	1378.28
647.22	1468.39
647.40	1370.09
647.59	1398.76
647.78	1337.32
647.97	1363.95
648.16	1310.70
648.35	1425.39
648.54	1476.59
648.73	1355.76
648.91	1501.16
649.10	1372.14
649.29	1343.47
649.48	1433.58
649.67	1363.95
649.86	1374.19
650.05	1361.90
650.23	1468.39
650.42	1409.00
650.61	1554.41
650.80	1556.46
650.99	1697.77
651.18	1587.18
651.36	1509.35
651.55	1441.77
651.74	1421.29
651.93	1398.76
652.12	1476.59
652.31	1529.83
652.49	1398.76
652.68	1376.24
652.87	1548.26
653.06	1482.73
653.25	1433.58
653.44	1402.86
653.62	1486.83
653.81	1390.57
654.00	1378.28
654.19	1400.81
654.38	1538.02
654.56	1368.04
654.75	1345.52
654.94	1431.53
655.13	1361.90
655.32	1423.34
655.51	1462.25
655.69	1404.91
655.88	1413.10
656.07	1331.18
656.26	1374.19
656.45	1314.80
656.63	1331.18
656.82	1417.19
657.01	1361.90
657.20	1421.29
657.38	1429.48
657.57	1398.76
657.76	1366.00
657.95	1421.29
658.14	1368.04
658.32	1349.61
658.51	1302.51
658.70	1376.24
658.89	1368.04
659.08	1337.32
659.26	1470.44
659.45	1376.24
659.64	1431.53
659.83	1411.05
660.01	1595.37
660.20	1529.83
660.39	1585.13
660.58	1347.56
660.76	1390.57
660.95	1320.94
661.14	1429.48
661.33	1345.52
661.51	1259.50
661.70	1347.56
661.89	1363.95
662.08	1429.48
662.26	1386.47
662.45	1415.15
662.64	1490.92
662.83	1382.38
663.01	1261.55
663.20	1349.61
663.39	1488.87
663.58	1386.47
663.76	1353.71
663.95	1415.15
664.14	1345.52
664.32	1361.90
664.51	1363.95
664.70	1273.84
664.89	1363.95
665.07	1433.58
665.26	1366.00
665.45	1357.80
665.64	1419.24
665.82	1409.00
666.01	1380.33
666.20	1370.09
666.38	1492.97
666.57	1468.39
666.76	1554.41
666.95	1992.67
667.13	4425.66
667.32	11499.34
667.51	17612.53
667.69	21444.28
667.88	24788.61
668.07	24317.58
668.25	18597.60
668.44	13551.41
668.63	11138.90
668.81	9172.85
669.00	8042.37
669.19	7477.13
669.38	6860.70
669.56	6231.97
669.75	5552.04
669.94	4841.40
670.12	4157.38
670.31	3360.72
670.50	2904.02
670.68	2443.23
670.87	2105.31
671.06	1810.40
671.24	1650.66
671.43	1585.13
671.62	1525.74
671.80	1501.16
671.99	1544.17
672.18	1427.43
672.36	1402.86
672.55	1476.59
672.74	1441.77
672.92	1335.28
673.11	1380.33
673.29	1388.52
673.48	1404.91
673.67	1400.81
673.85	1392.62
674.04	1390.57
674.23	1447.91
674.41	1417.19
674.60	1380.33
674.79	1265.64
674.97	1359.85
675.16	1429.48
675.34	1413.10
675.53	1411.05
675.72	1439.72
675.90	1462.25
676.09	1376.24
676.28	1409.00
676.46	1294.32
676.65	1445.87
676.83	1419.24
677.02	1406.95
677.21	1484.78
677.39	1316.84
677.58	1318.89
677.77	1349.61
677.95	1288.17
678.14	1331.18
678.32	1388.52
678.51	1357.80
678.70	1433.58
678.88	1318.89
679.07	1390.57
679.25	1413.10
679.44	1331.18
679.63	1359.85
679.81	1462.25
680.00	1382.38
680.18	1357.80
680.37	1464.30
680.55	1353.71
680.74	1298.41
680.93	1372.14
681.11	1351.66
681.30	1349.61
681.48	1320.94
681.67	1366.00
681.85	1400.81
682.04	1331.18
682.23	1411.05
682.41	1357.80
682.60	1396.71
682.78	1351.66
682.97	1322.99
683.15	1359.85
683.34	1353.71
683.53	1447.91
683.71	1310.70
683.90	1361.90
684.08	1398.76
684.27	1351.66
684.45	1421.29
684.64	1370.09
684.82	1308.65
685.01	1331.18
685.19	1306.60
685.38	1497.07
685.57	1335.28
685.75	1355.76
685.94	1351.66
686.12	1322.99
686.31	1314.80
686.49	1437.67
686.68	1290.22
686.86	1423.34
687.05	1306.60
687.23	1427.43
687.42	1292.27
687.60	1314.80
687.79	1427.43
687.97	1402.86
688.16	1441.77
688.34	1392.62
688.53	1279.98
688.71	1474.54
688.90	1402.86
689.08	1394.67
689.27	1355.76
689.45	1441.77
689.64	1437.67
689.82	1431.53
690.01	1437.67
690.19	1417.19
690.38	1322.99
690.56	1431.53
690.75	1361.90
690.93	1359.85
691.12	1435.63
691.30	1411.05
691.49	1378.28
691.67	1257.45
691.86	1492.97
692.04	1341.42
692.23	1372.14
692.41	1380.33
692.60	1535.98
692.78	1464.30
692.97	1456.11
693.15	1462.25
693.34	1505.26
693.52	1470.44
693.71	1322.99
693.89	1406.95
694.08	1372.14
694.26	1439.72
694.44	1404.91
694.63	1404.91
694.81	1390.57
695.00	1353.71
695.18	1376.24
695.37	1513.45
695.55	1384.43
695.74	1384.43
695.92	1384.43
696.10	1437.67
696.29	1325.04
696.47	1290.22
696.66	1366.00
696.84	1404.91
697.03	1400.81
697.21	1466.35
697.40	1824.74
697.58	1466.35
697.76	1361.90
697.95	1363.95
698.13	1288.17
698.32	1347.56
698.50	1390.57
698.68	1495.02
698.87	1341.42
699.05	1392.62
699.24	1417.19
699.42	1325.04
699.61	1294.32
699.79	1384.43
699.97	1396.71
700.16	1378.28
700.34	1325.04
700.53	1355.76
700.71	1464.30
700.89	1402.86
701.08	1380.33
701.26	1368.04
701.45	1677.29
701.63	1378.28
701.81	1345.52
702.00	1419.24
702.18	1404.91
702.37	1361.90
702.55	1386.47
702.73	1488.87
702.92	1558.50
703.10	1650.66
703.28	1617.90
703.47	1630.18
703.65	1632.23
703.84	1578.98
704.02	1523.69
704.20	1552.36
704.39	1472.49
704.57	1490.92
704.75	1509.35
704.94	1542.12
705.12	1454.06
705.30	1476.59
705.49	1611.75
705.67	1730.53
705.86	3567.56
706.04	8937.34
706.22	15791.89
706.41	19537.62
706.59	22361.77
706.77	23553.69
706.96	19865.30
707.14	13903.66
707.32	11333.46
707.51	9213.81
707.69	8050.57
707.87	7247.76
708.06	6729.63
708.24	5910.44
708.42	4882.36
708.61	4067.27
708.79	2967.51
708.97	2379.74
709.16	1990.63
709.34	1738.73
709.52	1583.08
709.71	1454.06
709.89	1513.45
710.07	1409.00
710.26	1398.76
710.44	1423.34
710.62	1396.71
710.80	1421.29
710.99	1492.97
711.17	1425.39
711.35	1378.28
711.54	1308.65
711.72	1386.47
711.90	1368.04
712.09	1406.95
712.27	1357.80
712.45	1386.47
712.63	1415.15
712.82	1298.41
713.00	1282.03
713.18	1374.19
713.37	1462.25
713.55	1396.71
713.73	1355.76
713.91	1409.00
714.10	1372.14
714.28	1429.48
714.46	1392.62
714.65	1374.19
714.83	1425.39
715.01	1357.80
715.19	1386.47
715.38	1368.04
715.56	1376.24
715.74	1374.19
715.92	1277.93
716.11	1355.76
716.29	1347.56
716.47	1390.57
716.65	1361.90
716.84	1329.13
717.02	1398.76
717.20	1374.19
717.38	1380.33
717.57	1363.95
717.75	1423.34
717.93	1429.48
718.11	1331.18
718.30	1361.90
718.48	1345.52
718.66	1345.52
718.84	1394.67
719.03	1427.43
719.21	1361.90
719.39	1417.19
719.57	1384.43
719.75	1390.57
719.94	1329.13
720.12	1374.19
720.30	1382.38
720.48	1406.95
720.67	1312.75
720.85	1372.14
721.03	1419.24
721.21	1382.38
721.39	1458.15
721.58	1378.28
721.76	1400.81
721.94	1411.05
722.12	1372.14
722.30	1454.06
722.49	1470.44
722.67	1402.86
722.85	1419.24
723.03	1329.13
723.21	1337.32
723.40	1376.24
723.58	1388.52
723.76	1349.61
723.94	1445.87
724.12	1441.77
724.30	1449.96
724.49	1439.72
724.67	1370.09
724.85	1523.69
725.03	1388.52
725.21	1445.87
725.40	1392.62
725.58	1392.62
725.76	1421.29
725.94	1378.28
726.12	1296.36
726.30	1433.58
726.49	1472.49
726.67	1402.86
726.85	1302.51
727.03	1447.91
727.21	1454.06
727.39	1558.50
727.57	2152.42
727.76	3399.63
727.94	4323.26
728.12	4868.02
728.30	5334.96
728.48	5158.83
728.66	4235.20
728.84	3444.68
729.03	3100.62
729.21	2840.53
729.39	2568.15
729.57	2232.29
729.75	2002.91
729.93	1755.11
730.11	1607.66
730.30	1513.45
730.48	1413.10
730.66	1484.78
730.84	1429.48
731.02	1376.24
731.20	1353.71
731.38	1390.57
731.56	1421.29
731.74	1322.99
731.93	1325.04
732.11	1406.95
732.29	1335.28
732.47	1392.62
732.65	1406.95
732.83	1388.52
733.01	1421.29
733.19	1271.79
733.37	1425.39
733.56	1380.33
733.74	1372.14
733.92	1409.00
734.10	1396.71
734.28	1392.62
734.46	1339.37
734.64	1322.99
734.82	1376.24
735.00	1398.76
735.18	1343.47
735.36	1327.08
735.54	1384.43
735.73	1329.13
735.91	1456.11
736.09	1404.91
736.27	1396.71
736.45	1322.99
736.63	1292.27
736.81	1230.83
736.99	1378.28
737.17	1392.62
737.35	1329.13
737.53	1343.47
737.71	1288.17
737.89	1388.52
738.07	1378.28
738.25	1417.19
738.43	1361.90
738.61	1277.93
738.80	1333.23
738.98	1380.33
739.16	1314.80
739.34	1286.12
739.52	1478.63
739.70	1396.71
739.88	1445.87
740.06	1368.04
740.24	1271.79
740.42	1380.33
740.60	1333.23
740.78	1341.42
740.96	1282.03
741.14	1341.42
741.32	1337.32
741.50	1310.70
741.68	1396.71
741.86	1415.15
742.04	1320.94
742.22	1351.66
742.40	1357.80
742.58	1386.47
742.76	1308.65
742.94	1429.48
743.12	1325.04
743.30	1341.42
743.48	1343.47
743.66	1406.95
743.84	1447.91
744.02	1378.28
744.20	1376.24
744.38	1343.47
744.56	1351.66
744.74	1376.24
744.92	1437.67
745.10	1445.87
745.28	1374.19
745.46	1437.67
745.64	1396.71
745.82	1349.61
746.00	1304.56
746.18	1433.58
746.36	1363.95
746.54	1325.04
746.72	1279.98
746.90	1304.56
747.08	1361.90
747.26	1368.04
747.44	1394.67
747.62	1366.00
747.80	1429.48
747.98	1320.94
748.15	1392.62
748.33	1378.28
748.51	1382.38
748.69	1466.35
748.87	1282.03
749.05	1355.76
749.23	1372.14
749.41	1468.39
749.59	1333.23
749.77	1443.82
749.95	1329.13
750.13	1253.36
750.31	1341.42
750.49	1347.56
750.67	1345.52
750.85	1359.85
751.03	1400.81
751.20	1445.87
751.38	1486.83
751.56	1316.84
751.74	1366.00
751.92	1312.75
752.10	1304.56
752.28	1386.47
752.46	1341.42
752.64	1366.00
752.82	1443.82
753.00	1347.56
753.18	1318.89
753.35	1341.42
753.53	1320.94
753.71	1359.85
753.89	1390.57
754.07	1406.95
754.25	1474.54
754.43	1380.33
754.61	1384.43
754.79	1429.48
754.97	1404.91
755.14	1425.39
755.32	1320.94
755.50	1390.57
755.68	1411.05
755.86	1294.32
756.04	1343.47
756.22	1271.79
756.40	1390.57
756.57	1404.91
756.75	1435.63
756.93	1411.05
757.11	1382.38
757.29	1304.56
757.47	1335.28
757.65	1353.71
757.82	1271.79
758.00	1282.03
758.18	1322.99
758.36	1296.36
758.54	1390.57
758.72	1331.18
758.90	1404.91
759.07	1368.04
759.25	1374.19
759.43	1425.39
759.61	1370.09
759.79	1662.95
759.97	1404.91
760.15	1396.71
760.32	1357.80
760.50	1351.66
760.68	1439.72
760.86	1339.37
761.04	1392.62
761.22	1423.34
761.39	1378.28
761.57	1394.67
761.75	1374.19
761.93	1345.52
762.11	1378.28
762.28	1384.43
762.46	1419.24
762.64	1394.67
762.82	1392.62
763.00	1351.66
763.18	1437.67
763.35	1304.56
763.53	1388.52
763.71	1409.00
763.89	1388.52
764.07	1370.09
764.24	1345.52
764.42	1355.76
764.60	1421.29
764.78	1380.33
764.96	1298.41
765.13	1378.28
765.31	1374.19
765.49	1421.29
765.67	1345.52
765.84	1327.08
766.02	1304.56
766.20	1245.16
766.38	1398.76
766.56	1273.84
766.73	1400.81
766.91	1363.95
767.09	1402.86
767.27	1433.58
767.44	1404.91
767.62	1460.20
767.80	1339.37
767.98	1404.91
768.15	1361.90
768.33	1316.84
768.51	1435.63
768.69	1433.58
768.87	1325.04
769.04	1462.25
769.22	1478.63
769.40	1398.76
769.58	1527.78
769.75	1378.28
769.93	1431.53
770.11	1370.09
770.28	1329.13
770.46	1425.39
770.64	1382.38
770.82	1251.31
770.99	1402.86
771.17	1439.72
771.35	1279.98
771.53	1409.00
771.70	1357.80
771.88	1376.24
772.06	1300.46
772.23	1302.51
772.41	1402.86
772.59	1452.01
772.77	1351.66
772.94	1277.93
773.12	1423.34
773.30	1351.66
773.47	1421.29
773.65	1294.32
773.83	1466.35
774.01	1390.57
774.18	1230.83
774.36	1359.85
774.54	1409.00
774.71	1400.81
774.89	1325.04
775.07	1361.90
775.24	1310.70
775.42	1366.00
775.60	1347.56
775.78	1306.60
775.95	1279.98
776.13	1275.88
776.31	1222.64
776.48	1322.99
776.66	1427.43
776.84	1361.90
777.01	1292.27
777.19	1347.56
777.37	1306.60
777.54	1361.90
777.72	1480.68
777.90	1286.12
778.07	1269.74
778.25	1429.48
778.43	1454.06
778.60	1341.42
778.78	1419.24
778.96	1361.90
779.13	1300.46
779.31	1368.04
779.49	1374.19
779.66	1335.28
779.84	1325.04
780.01	1400.81
780.19	1331.18
780.37	1445.87
780.54	1384.43
780.72	1409.00
780.90	1370.09
781.07	1378.28
781.25	1318.89
781.43	1347.56
781.60	1404.91
781.78	1433.58
781.95	1402.86
782.13	1331.18
782.31	1429.48
782.48	1306.60
782.66	1374.19
782.83	1427.43
783.01	1361.90
783.19	1419.24
783.36	1413.10
783.54	1343.47
783.72	1355.76
783.89	1284.08
784.07	1443.82
784.24	1376.24
784.42	1456.11
784.60	1284.08
784.77	1337.32
784.95	1415.15
785.12	1314.80
785.30	1431.53
785.47	1343.47
785.65	1353.71
785.83	1372.14
786.00	1327.08
786.18	1359.85
786.35	1386.47
786.53	1308.65
786.71	1456.11
786.88	1372.14
787.06	1353.71
787.23	1392.62
787.41	1396.71
787.58	1366.00
787.76	1409.00
787.94	1349.61
788.11	1427.43
788.29	1255.40
788.46	1335.28
788.64	1349.61
788.81	1288.17
788.99	1419.24
789.16	1386.47
789.34	1429.48
789.52	1347.56
789.69	1466.35
789.87	1333.23
790.04	1304.56
790.22	1372.14
790.39	1437.67
790.57	1279.98
790.74	1325.04
790.92	1476.59
791.09	1314.80
791.27	1302.51
791.44	1396.71
791.62	1337.32
791.79	1443.82
791.97	1372.14
792.15	1509.35
792.32	1427.43
792.50	1460.20
792.67	1472.49
792.85	1421.29
793.02	1390.57
793.20	1353.71
793.37	1320.94
793.55	1396.71
793.72	1327.08
793.90	1335.28
794.07	1341.42
794.25	1351.66
794.42	1349.61
794.60	1390.57
794.77	1363.95
794.95	1429.48
795.12	1435.63
795.30	1308.65
795.47	1337.32
795.65	1355.76
795.82	1398.76
796.00	1388.52
796.17	1351.66
796.34	1347.56
796.52	1386.47
796.69	1384.43
796.87	1413.10
797.04	1378.28
797.22	1497.07
797.39	1382.38
797.57	1304.56
797.74	1380.33
797.92	1394.67
798.09	1322.99
798.27	1441.77
798.44	1392.62
798.62	1273.84
798.79	1335.28
798.96	1357.80
799.14	1390.57
799.31	1404.91
799.49	1349.61
799.66	1343.47
799.84	1370.09
800.01	1322.99
800.19	1325.04
800.36	1316.84
800.53	1359.85
800.71	1372.14
800.88	1363.95
801.06	1382.38
801.23	1386.47
801.41	1241.07
801.58	1302.51
801.75	1370.09
801.93	1400.81
802.10	1382.38
802.28	1396.71
802.45	1322.99
802.63	1415.15
802.80	1449.96
802.97	1390.57
803.15	1351.66
803.32	1368.04
803.50	1306.60
803.67	1396.71
803.84	1279.98
804.02	1320.94
804.19	1366.00
804.37	1257.45
804.54	1345.52
804.71	1433.58
804.89	1363.95
805.06	1298.41
805.24	1353.71
805.41	1400.81
805.58	1325.04
805.76	1398.76
805.93	1404.91
806.10	1427.43
806.28	1345.52
806.45	1363.95
806.63	1308.65
806.80	1349.61
806.97	1335.28
807.15	1431.53
807.32	1339.37
807.49	1435.63
807.67	1314.80
807.84	1386.47
808.01	1353.71
808.19	1386.47
808.36	1472.49
808.54	1325.04
808.71	1345.52
808.88	1355.76
809.06	1363.95
809.23	1439.72
809.40	1386.47
809.58	1429.48
809.75	1386.47
809.92	1363.95
810.10	1443.82
810.27	1370.09
810.44	1380.33
810.62	1368.04
810.79	1445.87
810.96	1398.76
811.14	1384.43
811.31	1327.08
811.48	1382.38
811.66	1370.09
811.83	1398.76
812.00	1445.87
812.18	1392.62
812.35	1427.43
812.52	1343.47
812.69	1427.43
812.87	1327.08
813.04	1302.51
813.21	1314.80
813.39	1357.80
813.56	1284.08
813.73	1345.52
813.91	1290.22
814.08	1357.80
814.25	1402.86
814.42	1318.89
814.60	1380.33
814.77	1380.33
814.94	1431.53
815.12	1398.76
815.29	1402.86
815.46	1347.56
815.63	1312.75
815.81	1413.10
815.98	1288.17
816.15	1306.60
816.33	1357.80
816.50	1322.99
816.67	1370.09
816.84	1370.09
817.02	1277.93
817.19	1337.32
817.36	1404.91
817.53	1335.28
817.71	1310.70
817.88	1380.33
818.05	1394.67
818.22	1411.05
818.40	1439.72
818.57	1349.61
818.74	1380.33
818.91	1456.11
819.09	1366.00
819.26	1431.53
819.43	1343.47
819.60	1329.13
819.78	1386.47
819.95	1417.19
820.12	1376.24
820.29	1443.82
820.47	1277.93
820.64	1388.52
820.81	1337.32
820.98	1396.71
821.15	1382.38
821.33	1396.71
821.50	1341.42
821.67	1394.67
821.84	1308.65
822.02	1406.95
822.19	1361.90
822.36	1273.84
822.53	1355.76
822.70	1394.67
822.88	1388.52
823.05	1366.00
823.22	1396.71
823.39	1423.34
823.56	1333.23
823.74	1447.91
823.91	1333.23
824.08	1398.76
824.25	1396.71
824.42	1433.58
824.60	1320.94
824.77	1382.38
824.94	1343.47
825.11	1386.47
825.28	1357.80
825.45	1298.41
825.63	1351.66
825.80	1351.66
825.97	1339.37
826.14	1374.19
826.31	1372.14
826.48	1353.71
826.66	1409.00
826.83	1382.38
827.00	1423.34
827.17	1355.76
827.34	1380.33
827.51	1347.56
827.69	1378.28
827.86	1347.56
828.03	1343.47
828.20	1413.10
828.37	1359.85
828.54	1345.52
828.71	1458.15
828.89	1386.47
829.06	1353.71
829.23	1372.14
829.40	1339.37
829.57	1320.94
829.74	1380.33
829.91	1316.84
830.09	1439.72
830.26	1368.04
830.43	1423.34
830.60	1345.52
830.77	1423.34
830.94	1404.91
831.11	1417.19
831.28	1355.76
831.46	1462.25
831.63	1327.08
831.80	1396.71
831.97	1337.32
832.14	1343.47
832.31	1423.34
832.48	1378.28
832.65	1363.95
832.82	1361.90
832.99	1398.76
833.17	1341.42
833.34	1431.53
833.51	1345.52
833.68	1261.55
833.85	1441.77
834.02	1380.33
834.19	1298.41
834.36	1378.28
834.53	1363.95
834.70	1316.84
834.87	1400.81
835.04	1396.71
835.22	1273.84
835.39	1355.76
835.56	1337.32
835.73	1370.09
835.90	1468.39
836.07	1318.89
836.24	1425.39
836.41	1300.46
836.58	1351.66
836.75	1394.67
836.92	1355.76
837.09	1388.52
837.26	1427.43
837.43	1404.91
837.60	1406.95
837.77	1376.24
837.94	1413.10
838.12	1425.39
838.29	1333.23
838.46	1298.41
838.63	1331.18
838.80	1339.37
838.97	1398.76
839.14	1361.90
839.31	1378.28
839.48	1404.91
839.65	1396.71
839.82	1382.38
839.99	1382.38
840.16	1304.56
840.33	1400.81
840.50	1351.66
840.67	1386.47
840.84	1296.36
841.01	1404.91
841.18	1388.52
841.35	1366.00
841.52	1345.52
841.69	1454.06
841.86	1400.81
842.03	1378.28
842.20	1402.86
842.37	1398.76
842.54	1341.42
842.71	1349.61
842.88	1406.95
843.05	1419.24
843.22	1372.14
843.39	1390.57
843.56	1411.05
843.73	1366.00
843.90	1366.00
844.07	1392.62
844.24	1404.91
844.41	1372.14
844.58	1390.57
844.75	1386.47
844.92	1376.24
845.09	1390.57
845.26	1363.95
845.43	1363.95
845.60	1335.28
845.77	1454.06
845.94	1376.24
846.10	1378.28
846.27	1308.65
846.44	1314.80
846.61	1378.28
846.78	1325.04
846.95	1406.95
847.12	1398.76
847.29	1347.56
847.46	1355.76
847.63	1409.00
847.80	1322.99
847.97	1339.37
848.14	1437.67
848.31	1380.33
848.48	1396.71
848.65	1347.56
848.82	1380.33
848.98	1413.10
849.15	1316.84
849.32	1404.91
849.49	1349.61
849.66	1314.80
849.83	1441.77
850.00	1392.62
850.17	1327.08
850.34	1282.03
850.51	1325.04
850.68	1347.56
850.85	1482.73
851.01	1404.91
851.18	1329.13
851.35	1398.76
851.52	1363.95
851.69	1396.71
851.86	1341.42
852.03	1404.91
852.20	1349.61
852.37	1325.04
852.53	1322.99
852.70	1413.10
852.87	1380.33
853.04	1458.15
853.21	1384.43
853.38	1388.52
853.55	1441.77
853.72	1404.91
853.89	1208.30
854.05	1261.55
854.22	1347.56
854.39	1329.13
854.56	1368.04
854.73	1345.52
854.90	1351.66
855.07	1421.29
855.23	1314.80
855.40	1331.18
855.57	1374.19
855.74	1269.74
855.91	1482.73
856.08	1308.65
856.25	1284.08
856.41	1394.67
856.58	1300.46
856.75	1415.15
856.92	1347.56
857.09	1392.62
857.26	1357.80
857.42	1429.48
857.59	1384.43
857.76	1353.71
857.93	1400.81
858.10	1392.62
858.27	1318.89
858.43	1458.15
858.60	1322.99
858.77	1290.22
858.94	1282.03
859.11	1413.10
859.27	1327.08
859.44	1400.81
859.61	1400.81
859.78	1355.76
859.95	1222.64
860.12	1433.58
860.28	1435.63
860.45	1366.00
860.62	1370.09
860.79	1406.95
860.95	1329.13
861.12	1351.66
861.29	1355.76
861.46	1320.94
861.63	1370.09
861.79	1341.42
861.96	1312.75
862.13	1339.37
862.30	1460.20
862.47	1347.56
862.63	1376.24
862.80	1445.87
862.97	1402.86
863.14	1386.47
863.30	1404.91
863.47	1392.62
863.64	1349.61
863.81	1320.94
863.97	1402.86
864.14	1431.53
864.31	1374.19
864.48	1402.86
864.65	1257.45
864.81	1400.81
864.98	1394.67
865.15	1433.58
865.32	1345.52
865.48	1441.77
865.65	1359.85
865.82	1306.60
865.98	1452.01
866.15	1421.29
866.32	1351.66
866.49	1349.61
866.65	1384.43
866.82	1388.52
866.99	1415.15
867.16	1357.80
867.32	1384.43
867.49	1320.94
867.66	1284.08
867.83	1404.91
867.99	1368.04
868.16	1290.22
868.33	1277.93
868.49	1331.18
868.66	1378.28
868.83	1466.35
868.99	1363.95
869.16	1429.48
869.33	1464.30
869.50	1384.43
869.66	1355.76
869.83	1374.19
870.00	1343.47
870.16	1339.37
870.33	1357.80
870.50	1349.61
870.66	1421.29
870.83	1433.58
871.00	1396.71
871.17	1423.34
871.33	1429.48
871.50	1325.04
871.67	1329.13
871.83	1314.80
872.00	1462.25
872.17	1302.51
872.33	1441.77
872.50	1449.96
872.67	1425.39
872.83	1349.61
873.00	1349.61
873.17	1333.23
873.33	1421.29
873.50	1396.71
873.67	1374.19
873.83	1361.90
874.00	1411.05
874.16	1429.48
874.33	1359.85
874.50	1335.28
874.66	1390.57
874.83	1271.79
875.00	1411.05
875.16	1322.99
875.33	1335.28
875.50	1296.36
875.66	1378.28
875.83	1429.48
875.99	1456.11
876.16	1390.57
876.33	1351.66
876.49	1359.85
876.66	1363.95
876.83	1331.18
876.99	1335.28
877.16	1376.24
877.32	1425.39
877.49	1320.94
877.66	1409.00
877.82	1378.28
877.99	1388.52
878.15	1318.89
878.32	1361.90
878.49	1411.05
878.65	1333.23
878.82	1341.42
878.98	1409.00
879.15	1409.00
879.32	1376.24
879.48	1413.10
879.65	1343.47
879.81	1413.10
879.98	1392.62
880.15	1415.15
880.31	1351.66
880.48	1384.43
880.64	1427.43
880.81	1519.59
880.97	1339.37
881.14	1386.47
881.31	1312.75
881.47	1419.24
881.64	1398.76
881.80	1345.52
881.97	1366.00
882.13	1413.10
882.30	1384.43
882.47	1322.99
882.63	1329.13
882.80	1316.84
882.96	1318.89
883.13	1402.86
883.29	1398.76
883.46	1347.56
883.62	1423.34
883.79	1357.80
883.95	1341.42
884.12	1286.12
884.29	1398.76
884.45	1380.33
884.62	1374.19
884.78	1402.86
884.95	1425.39
885.11	1345.52
885.28	1361.90
885.44	1282.03
885.61	1392.62
885.77	1439.72
885.94	1341.42
886.10	1374.19
886.27	1429.48
886.43	1325.04
886.60	1474.54
886.76	1318.89
886.93	1318.89
887.09	1382.38
887.26	1327.08
887.42	1378.28
887.59	1396.71
887.75	1415.15
887.92	1478.63
888.08	1402.86
888.25	1445.87
888.41	1402.86
888.58	1427.43
888.74	1265.64
888.91	1396.71
>>>>>End Processed Spectral Data<<<<<
