SpectraSuite Data File
++++++++++++++++++++++++++++++++++++
Date: Tue May 03 11:24:05 CEST 2016
User: root
Dark Spectrum Present: No
Reference Spectrum Present: No
Number of Sampled Component Spectra: 1
Spectrometers: USB4C02835
Integration Time (usec): 100000 (USB4C02835)
Spectra Averaged: 1 (USB4C02835)
Boxcar Smoothing: 0 (USB4C02835)
Correct for Electrical Dark: No (USB4C02835)
Strobe/Lamp Enabled: No (USB4C02835)
Correct for Detector Non-linearity: No (USB4C02835)
Correct for Stray Light: No (USB4C02835)
Number of Pixels in Processed Spectrum: 3648
>>>>>Begin Processed Spectral Data<<<<<
177.47	1226.73
177.69	1226.73
177.91	1226.73
178.13	1179.63
178.36	1200.11
178.58	1368.04
178.80	1374.19
179.02	1300.46
179.24	1302.51
179.46	1363.95
179.68	1396.71
179.90	1331.18
180.13	1363.95
180.35	1351.66
180.57	1372.14
180.79	1470.44
181.01	1288.17
181.23	1366.00
181.45	1349.61
181.67	1353.71
181.90	1482.73
182.12	1368.04
182.34	1273.84
182.56	1353.71
182.78	1372.14
183.00	1361.90
183.22	1386.47
183.44	1325.04
183.66	1509.35
183.89	1501.16
184.11	1320.94
184.33	1380.33
184.55	1421.29
184.77	1390.57
184.99	1433.58
185.21	1318.89
185.43	1439.72
185.65	1343.47
185.87	1406.95
186.10	1501.16
186.32	1443.82
186.54	1339.37
186.76	1341.42
186.98	1372.14
187.20	1345.52
187.42	1435.63
187.64	1404.91
187.86	1349.61
188.08	1396.71
188.30	1310.70
188.52	1388.52
188.75	1361.90
188.97	1413.10
189.19	1429.48
189.41	1312.75
189.63	1327.08
189.85	1445.87
190.07	1329.13
190.29	1372.14
190.51	1261.55
190.73	1353.71
190.95	1480.68
191.17	1386.47
191.39	1302.51
191.61	1376.24
191.84	1308.65
192.06	1409.00
192.28	1318.89
192.50	1447.91
192.72	1327.08
192.94	1353.71
193.16	1460.20
193.38	1417.19
193.60	1302.51
193.82	1376.24
194.04	1398.76
194.26	1388.52
194.48	1347.56
194.70	1347.56
194.92	1325.04
195.14	1378.28
195.36	1331.18
195.58	1378.28
195.80	1419.24
196.02	1345.52
196.24	1380.33
196.46	1325.04
196.69	1347.56
196.91	1466.35
197.13	1347.56
197.35	1368.04
197.57	1427.43
197.79	1372.14
198.01	1400.81
198.23	1417.19
198.45	1320.94
198.67	1304.56
198.89	1347.56
199.11	1355.76
199.33	1339.37
199.55	1333.23
199.77	1349.61
199.99	1390.57
200.21	1370.09
200.43	1269.74
200.65	1366.00
200.87	1214.45
201.09	1392.62
201.31	1288.17
201.53	1366.00
201.75	1316.84
201.97	1380.33
202.19	1382.38
202.41	1341.42
202.63	1437.67
202.85	1370.09
203.07	1425.39
203.29	1341.42
203.51	1298.41
203.73	1279.98
203.95	1445.87
204.17	1400.81
204.39	1263.60
204.61	1359.85
204.83	1409.00
205.05	1306.60
205.27	1333.23
205.49	1380.33
205.71	1337.32
205.93	1277.93
206.15	1388.52
206.37	1400.81
206.59	1310.70
206.81	1243.12
207.03	1304.56
207.25	1304.56
207.47	1427.43
207.69	1318.89
207.91	1357.80
208.13	1437.67
208.34	1302.51
208.56	1359.85
208.78	1347.56
209.00	1331.18
209.22	1296.36
209.44	1355.76
209.66	1370.09
209.88	1361.90
210.10	1363.95
210.32	1355.76
210.54	1423.34
210.76	1382.38
210.98	1363.95
211.20	1380.33
211.42	1357.80
211.64	1449.96
211.86	1392.62
212.08	1443.82
212.30	1374.19
212.52	1370.09
212.74	1361.90
212.96	1402.86
213.17	1359.85
213.39	1386.47
213.61	1363.95
213.83	1447.91
214.05	1337.32
214.27	1415.15
214.49	1363.95
214.71	1302.51
214.93	1363.95
215.15	1327.08
215.37	1386.47
215.59	1411.05
215.81	1288.17
216.03	1413.10
216.24	1413.10
216.46	1353.71
216.68	1404.91
216.90	1382.38
217.12	1435.63
217.34	1343.47
217.56	1380.33
217.78	1425.39
218.00	1413.10
218.22	1380.33
218.44	1396.71
218.66	1347.56
218.87	1441.77
219.09	1374.19
219.31	1361.90
219.53	1353.71
219.75	1310.70
219.97	1302.51
220.19	1388.52
220.41	1406.95
220.63	1464.30
220.85	1361.90
221.06	1386.47
221.28	1353.71
221.50	1415.15
221.72	1331.18
221.94	1345.52
222.16	1400.81
222.38	1400.81
222.60	1380.33
222.82	1392.62
223.03	1322.99
223.25	1320.94
223.47	1347.56
223.69	1431.53
223.91	1417.19
224.13	1402.86
224.35	1359.85
224.57	1363.95
224.78	1347.56
225.00	1378.28
225.22	1302.51
225.44	1380.33
225.66	1390.57
225.88	1361.90
226.10	1374.19
226.32	1345.52
226.53	1437.67
226.75	1421.29
226.97	1372.14
227.19	1363.95
227.41	1366.00
227.63	1347.56
227.85	1413.10
228.06	1427.43
228.28	1368.04
228.50	1443.82
228.72	1347.56
228.94	1404.91
229.16	1331.18
229.37	1347.56
229.59	1318.89
229.81	1437.67
230.03	1386.47
230.25	1331.18
230.47	1279.98
230.69	1335.28
230.90	1384.43
231.12	1322.99
231.34	1398.76
231.56	1423.34
231.78	1351.66
232.00	1359.85
232.21	1449.96
232.43	1390.57
232.65	1251.31
232.87	1374.19
233.09	1427.43
233.30	1413.10
233.52	1380.33
233.74	1308.65
233.96	1433.58
234.18	1409.00
234.40	1363.95
234.61	1366.00
234.83	1343.47
235.05	1380.33
235.27	1503.21
235.49	1404.91
235.70	1363.95
235.92	1411.05
236.14	1398.76
236.36	1384.43
236.58	1263.60
236.79	1378.28
237.01	1355.76
237.23	1325.04
237.45	1378.28
237.67	1349.61
237.88	1304.56
238.10	1382.38
238.32	1196.01
238.54	1413.10
238.76	1347.56
238.97	1378.28
239.19	1320.94
239.41	1443.82
239.63	1398.76
239.85	1296.36
240.06	1374.19
240.28	1372.14
240.50	1376.24
240.72	1400.81
240.93	1421.29
241.15	1460.20
241.37	1353.71
241.59	1402.86
241.81	1396.71
242.02	1359.85
242.24	1368.04
242.46	1378.28
242.68	1376.24
242.89	1415.15
243.11	1380.33
243.33	1415.15
243.55	1374.19
243.76	1353.71
243.98	1382.38
244.20	1351.66
244.42	1445.87
244.64	1433.58
244.85	1431.53
245.07	1351.66
245.29	1402.86
245.51	1376.24
245.72	1339.37
245.94	1378.28
246.16	1382.38
246.38	1402.86
246.59	1376.24
246.81	1275.88
247.03	1404.91
247.24	1312.75
247.46	1384.43
247.68	1355.76
247.90	1361.90
248.11	1363.95
248.33	1325.04
248.55	1325.04
248.77	1345.52
248.98	1394.67
249.20	1415.15
249.42	1345.52
249.64	1427.43
249.85	1443.82
250.07	1372.14
250.29	1302.51
250.50	1429.48
250.72	1304.56
250.94	1339.37
251.16	1476.59
251.37	1343.47
251.59	1417.19
251.81	1376.24
252.02	1398.76
252.24	1271.79
252.46	1423.34
252.68	1249.26
252.89	1400.81
253.11	1249.26
253.33	1372.14
253.54	1368.04
253.76	1296.36
253.98	1316.84
254.20	1357.80
254.41	1286.12
254.63	1370.09
254.85	1349.61
255.06	1370.09
255.28	1361.90
255.50	1368.04
255.71	1355.76
255.93	1327.08
256.15	1370.09
256.36	1363.95
256.58	1429.48
256.80	1390.57
257.02	1351.66
257.23	1370.09
257.45	1386.47
257.67	1390.57
257.88	1294.32
258.10	1378.28
258.32	1333.23
258.53	1390.57
258.75	1351.66
258.97	1314.80
259.18	1413.10
259.40	1370.09
259.62	1382.38
259.83	1413.10
260.05	1359.85
260.27	1521.64
260.48	1314.80
260.70	1333.23
260.92	1404.91
261.13	1294.32
261.35	1359.85
261.57	1353.71
261.78	1351.66
262.00	1320.94
262.22	1421.29
262.43	1284.08
262.65	1341.42
262.86	1435.63
263.08	1388.52
263.30	1329.13
263.51	1277.93
263.73	1314.80
263.95	1435.63
264.16	1347.56
264.38	1374.19
264.60	1400.81
264.81	1396.71
265.03	1394.67
265.25	1425.39
265.46	1355.76
265.68	1411.05
265.89	1413.10
266.11	1355.76
266.33	1406.95
266.54	1443.82
266.76	1384.43
266.98	1372.14
267.19	1474.54
267.41	1386.47
267.62	1339.37
267.84	1378.28
268.06	1316.84
268.27	1468.39
268.49	1435.63
268.70	1363.95
268.92	1470.44
269.14	1337.32
269.35	1294.32
269.57	1394.67
269.79	1445.87
270.00	1331.18
270.22	1468.39
270.43	1347.56
270.65	1322.99
270.87	1355.76
271.08	1445.87
271.30	1388.52
271.51	1355.76
271.73	1382.38
271.95	1320.94
272.16	1421.29
272.38	1363.95
272.59	1363.95
272.81	1320.94
273.02	1390.57
273.24	1423.34
273.46	1400.81
273.67	1351.66
273.89	1349.61
274.10	1279.98
274.32	1406.95
274.54	1363.95
274.75	1331.18
274.97	1333.23
275.18	1437.67
275.40	1366.00
275.61	1419.24
275.83	1318.89
276.05	1279.98
276.26	1345.52
276.48	1359.85
276.69	1382.38
276.91	1382.38
277.12	1445.87
277.34	1359.85
277.55	1404.91
277.77	1390.57
277.99	1304.56
278.20	1263.60
278.42	1396.71
278.63	1349.61
278.85	1325.04
279.06	1318.89
279.28	1378.28
279.49	1394.67
279.71	1417.19
279.93	1357.80
280.14	1396.71
280.36	1361.90
280.57	1353.71
280.79	1368.04
281.00	1357.80
281.22	1359.85
281.43	1411.05
281.65	1355.76
281.86	1413.10
282.08	1374.19
282.29	1431.53
282.51	1341.42
282.73	1257.45
282.94	1292.27
283.16	1421.29
283.37	1419.24
283.59	1368.04
283.80	1402.86
284.02	1359.85
284.23	1400.81
284.45	1372.14
284.66	1322.99
284.88	1226.73
285.09	1337.32
285.31	1382.38
285.52	1351.66
285.74	1349.61
285.95	1372.14
286.17	1394.67
286.38	1370.09
286.60	1300.46
286.81	1337.32
287.03	1306.60
287.24	1351.66
287.46	1316.84
287.67	1339.37
287.89	1452.01
288.10	1286.12
288.32	1429.48
288.53	1388.52
288.75	1402.86
288.96	1351.66
289.18	1353.71
289.39	1322.99
289.61	1417.19
289.82	1359.85
290.04	1413.10
290.25	1384.43
290.47	1316.84
290.68	1343.47
290.90	1372.14
291.11	1312.75
291.33	1402.86
291.54	1300.46
291.76	1353.71
291.97	1351.66
292.18	1376.24
292.40	1366.00
292.61	1361.90
292.83	1460.20
293.04	1390.57
293.26	1331.18
293.47	1370.09
293.69	1337.32
293.90	1374.19
294.12	1347.56
294.33	1327.08
294.55	1310.70
294.76	1388.52
294.97	1458.15
295.19	1413.10
295.40	1361.90
295.62	1316.84
295.83	1396.71
296.05	1357.80
296.26	1384.43
296.48	1335.28
296.69	1394.67
296.90	1345.52
297.12	1380.33
297.33	1443.82
297.55	1335.28
297.76	1413.10
297.98	1429.48
298.19	1388.52
298.41	1363.95
298.62	1359.85
298.83	1441.77
299.05	1398.76
299.26	1380.33
299.48	1380.33
299.69	1406.95
299.90	1370.09
300.12	1296.36
300.33	1423.34
300.55	1378.28
300.76	1452.01
300.98	1284.08
301.19	1339.37
301.40	1351.66
301.62	1366.00
301.83	1396.71
302.05	1374.19
302.26	1370.09
302.47	1411.05
302.69	1335.28
302.90	1388.52
303.12	1345.52
303.33	1423.34
303.54	1355.76
303.76	1259.50
303.97	1361.90
304.19	1421.29
304.40	1417.19
304.61	1357.80
304.83	1386.47
305.04	1411.05
305.26	1322.99
305.47	1363.95
305.68	1384.43
305.90	1378.28
306.11	1411.05
306.33	1347.56
306.54	1318.89
306.75	1335.28
306.97	1296.36
307.18	1378.28
307.39	1296.36
307.61	1421.29
307.82	1314.80
308.04	1271.79
308.25	1320.94
308.46	1392.62
308.68	1349.61
308.89	1398.76
309.10	1392.62
309.32	1320.94
309.53	1390.57
309.74	1443.82
309.96	1398.76
310.17	1374.19
310.39	1370.09
310.60	1431.53
310.81	1353.71
311.03	1357.80
311.24	1337.32
311.45	1353.71
311.67	1406.95
311.88	1464.30
312.09	1363.95
312.31	1335.28
312.52	1357.80
312.73	1331.18
312.95	1327.08
313.16	1388.52
313.37	1396.71
313.59	1388.52
313.80	1406.95
314.01	1357.80
314.23	1396.71
314.44	1372.14
314.65	1302.51
314.87	1310.70
315.08	1392.62
315.29	1339.37
315.51	1306.60
315.72	1361.90
315.93	1431.53
316.15	1470.44
316.36	1331.18
316.57	1402.86
316.79	1400.81
317.00	1370.09
317.21	1445.87
317.43	1380.33
317.64	1378.28
317.85	1363.95
318.07	1490.92
318.28	1511.40
318.49	1574.89
318.70	1679.33
318.92	1513.45
319.13	1558.50
319.34	1576.94
319.56	1480.68
319.77	1466.35
319.98	1404.91
320.20	1443.82
320.41	1497.07
320.62	1409.00
320.83	1359.85
321.05	1531.88
321.26	1406.95
321.47	1298.41
321.69	1439.72
321.90	1341.42
322.11	1382.38
322.32	1345.52
322.54	1398.76
322.75	1376.24
322.96	1445.87
323.18	1286.12
323.39	1296.36
323.60	1298.41
323.81	1413.10
324.03	1384.43
324.24	1368.04
324.45	1366.00
324.66	1388.52
324.88	1421.29
325.09	1464.30
325.30	1363.95
325.52	1306.60
325.73	1331.18
325.94	1349.61
326.15	1343.47
326.37	1349.61
326.58	1372.14
326.79	1384.43
327.00	1310.70
327.22	1470.44
327.43	1290.22
327.64	1286.12
327.85	1345.52
328.07	1339.37
328.28	1476.59
328.49	1327.08
328.70	1306.60
328.92	1294.32
329.13	1388.52
329.34	1384.43
329.55	1394.67
329.76	1370.09
329.98	1312.75
330.19	1433.58
330.40	1382.38
330.61	1329.13
330.83	1388.52
331.04	1300.46
331.25	1282.03
331.46	1390.57
331.68	1382.38
331.89	1488.87
332.10	1343.47
332.31	1316.84
332.52	1294.32
332.74	1431.53
332.95	1396.71
333.16	1402.86
333.37	1347.56
333.58	1413.10
333.80	1384.43
334.01	1322.99
334.22	1402.86
334.43	1296.36
334.64	1341.42
334.86	1302.51
335.07	1247.21
335.28	1437.67
335.49	1363.95
335.70	1378.28
335.92	1376.24
336.13	1413.10
336.34	1327.08
336.55	1423.34
336.76	1376.24
336.98	1232.88
337.19	1374.19
337.40	1433.58
337.61	1452.01
337.82	1337.32
338.04	1325.04
338.25	1351.66
338.46	1421.29
338.67	1427.43
338.88	1316.84
339.09	1286.12
339.31	1363.95
339.52	1327.08
339.73	1370.09
339.94	1386.47
340.15	1382.38
340.36	1320.94
340.58	1433.58
340.79	1292.27
341.00	1370.09
341.21	1380.33
341.42	1392.62
341.63	1325.04
341.85	1417.19
342.06	1314.80
342.27	1331.18
342.48	1386.47
342.69	1339.37
342.90	1398.76
343.12	1396.71
343.33	1306.60
343.54	1370.09
343.75	1396.71
343.96	1425.39
344.17	1374.19
344.38	1413.10
344.60	1314.80
344.81	1386.47
345.02	1308.65
345.23	1449.96
345.44	1400.81
345.65	1351.66
345.86	1394.67
346.07	1398.76
346.29	1417.19
346.50	1372.14
346.71	1396.71
346.92	1406.95
347.13	1413.10
347.34	1376.24
347.55	1363.95
347.76	1452.01
347.98	1322.99
348.19	1312.75
348.40	1462.25
348.61	1327.08
348.82	1449.96
349.03	1384.43
349.24	1406.95
349.45	1409.00
349.66	1296.36
349.88	1382.38
350.09	1312.75
350.30	1411.05
350.51	1433.58
350.72	1363.95
350.93	1396.71
351.14	1333.23
351.35	1347.56
351.56	1398.76
351.77	1402.86
351.99	1366.00
352.20	1394.67
352.41	1363.95
352.62	1372.14
352.83	1359.85
353.04	1368.04
353.25	1368.04
353.46	1413.10
353.67	1392.62
353.88	1226.73
354.09	1372.14
354.30	1429.48
354.52	1396.71
354.73	1318.89
354.94	1329.13
355.15	1290.22
355.36	1406.95
355.57	1347.56
355.78	1370.09
355.99	1374.19
356.20	1419.24
356.41	1437.67
356.62	1353.71
356.83	1337.32
357.04	1425.39
357.25	1277.93
357.46	1329.13
357.68	1347.56
357.89	1433.58
358.10	1445.87
358.31	1359.85
358.52	1380.33
358.73	1355.76
358.94	1304.56
359.15	1378.28
359.36	1368.04
359.57	1390.57
359.78	1368.04
359.99	1343.47
360.20	1294.32
360.41	1339.37
360.62	1429.48
360.83	1359.85
361.04	1386.47
361.25	1374.19
361.46	1445.87
361.67	1402.86
361.88	1480.68
362.09	1345.52
362.30	1396.71
362.51	1366.00
362.72	1370.09
362.93	1390.57
363.14	1392.62
363.35	1449.96
363.56	1361.90
363.78	1441.77
363.99	1429.48
364.20	1347.56
364.41	1380.33
364.62	1406.95
364.83	1394.67
365.04	1335.28
365.25	1290.22
365.46	1460.20
365.67	1376.24
365.88	1374.19
366.09	1327.08
366.30	1382.38
366.51	1357.80
366.72	1372.14
366.93	1400.81
367.14	1335.28
367.35	1431.53
367.56	1351.66
367.77	1378.28
367.98	1404.91
368.18	1329.13
368.39	1372.14
368.60	1273.84
368.81	1409.00
369.02	1386.47
369.23	1359.85
369.44	1314.80
369.65	1331.18
369.86	1437.67
370.07	1368.04
370.28	1314.80
370.49	1425.39
370.70	1384.43
370.91	1355.76
371.12	1380.33
371.33	1388.52
371.54	1361.90
371.75	1454.06
371.96	1304.56
372.17	1370.09
372.38	1376.24
372.59	1351.66
372.80	1388.52
373.01	1325.04
373.22	1378.28
373.43	1351.66
373.64	1398.76
373.85	1398.76
374.06	1388.52
374.26	1415.15
374.47	1427.43
374.68	1368.04
374.89	1398.76
375.10	1316.84
375.31	1386.47
375.52	1372.14
375.73	1392.62
375.94	1357.80
376.15	1429.48
376.36	1351.66
376.57	1404.91
376.78	1368.04
376.99	1400.81
377.20	1306.60
377.40	1386.47
377.61	1429.48
377.82	1308.65
378.03	1445.87
378.24	1363.95
378.45	1335.28
378.66	1368.04
378.87	1302.51
379.08	1277.93
379.29	1392.62
379.50	1370.09
379.71	1343.47
379.91	1374.19
380.12	1361.90
380.33	1357.80
380.54	1337.32
380.75	1357.80
380.96	1345.52
381.17	1437.67
381.38	1411.05
381.59	1431.53
381.80	1482.73
382.00	1466.35
382.21	1409.00
382.42	1507.30
382.63	1476.59
382.84	1425.39
383.05	1400.81
383.26	1472.49
383.47	1415.15
383.68	1443.82
383.88	1366.00
384.09	1376.24
384.30	1462.25
384.51	1366.00
384.72	1388.52
384.93	1345.52
385.14	1349.61
385.35	1406.95
385.55	1298.41
385.76	1421.29
385.97	1273.84
386.18	1343.47
386.39	1292.27
386.60	1386.47
386.81	1392.62
387.02	1355.76
387.22	1366.00
387.43	1495.02
387.64	1548.26
387.85	2310.11
388.06	5865.38
388.27	9572.21
388.48	11339.60
388.68	13094.71
388.89	13285.17
389.10	10499.94
389.31	9199.48
389.52	8249.22
389.73	7483.28
389.93	6999.96
390.14	6516.64
390.35	6027.17
390.56	5341.10
390.77	4673.46
390.98	3669.96
391.18	2863.06
391.39	2138.08
391.60	1738.73
391.81	1523.69
392.02	1415.15
392.23	1486.83
392.43	1394.67
392.64	1472.49
392.85	1351.66
393.06	1417.19
393.27	1277.93
393.47	1384.43
393.68	1423.34
393.89	1292.27
394.10	1413.10
394.31	1347.56
394.52	1298.41
394.72	1359.85
394.93	1427.43
395.14	1402.86
395.35	1376.24
395.56	1353.71
395.76	1540.07
395.97	1591.27
396.18	1591.27
396.39	1603.56
396.60	1662.95
396.80	1560.55
397.01	1513.45
397.22	1497.07
397.43	1538.02
397.64	1447.91
397.84	1507.30
398.05	1423.34
398.26	1372.14
398.47	1503.21
398.67	1523.69
398.88	1423.34
399.09	1429.48
399.30	1411.05
399.51	1380.33
399.71	1347.56
399.92	1421.29
400.13	1417.19
400.34	1275.88
400.54	1468.39
400.75	1431.53
400.96	1361.90
401.17	1349.61
401.37	1449.96
401.58	1415.15
401.79	1562.60
402.00	1804.26
402.21	1806.31
402.41	1818.60
402.62	1847.27
402.83	1669.09
403.04	1640.42
403.24	1716.20
403.45	1566.70
403.66	1636.33
403.87	1593.32
404.07	1529.83
404.28	1540.07
404.49	1509.35
404.70	1464.30
404.90	1505.26
405.11	1443.82
405.32	1409.00
405.52	1357.80
405.73	1482.73
405.94	1241.07
406.15	1382.38
406.35	1402.86
406.56	1472.49
406.77	1425.39
406.98	1351.66
407.18	1404.91
407.39	1431.53
407.60	1380.33
407.80	1449.96
408.01	1318.89
408.22	1443.82
408.43	1290.22
408.63	1378.28
408.84	1361.90
409.05	1411.05
409.25	1322.99
409.46	1384.43
409.67	1411.05
409.88	1357.80
410.08	1435.63
410.29	1421.29
410.50	1443.82
410.70	1394.67
410.91	1267.69
411.12	1398.76
411.32	1398.76
411.53	1433.58
411.74	1490.92
411.95	1437.67
412.15	1466.35
412.36	1396.71
412.57	1437.67
412.77	1495.02
412.98	1443.82
413.19	1400.81
413.39	1427.43
413.60	1400.81
413.81	1415.15
414.01	1406.95
414.22	1452.01
414.43	1484.78
414.63	1363.95
414.84	1439.72
415.05	1411.05
415.25	1339.37
415.46	1445.87
415.67	1359.85
415.87	1396.71
416.08	1404.91
416.29	1345.52
416.49	1423.34
416.70	1255.40
416.91	1318.89
417.11	1353.71
417.32	1374.19
417.53	1388.52
417.73	1435.63
417.94	1382.38
418.15	1366.00
418.35	1312.75
418.56	1355.76
418.77	1492.97
418.97	1359.85
419.18	1347.56
419.38	1296.36
419.59	1333.23
419.80	1392.62
420.00	1290.22
420.21	1351.66
420.42	1421.29
420.62	1445.87
420.83	1388.52
421.04	1394.67
421.24	1329.13
421.45	1359.85
421.65	1398.76
421.86	1351.66
422.07	1429.48
422.27	1382.38
422.48	1363.95
422.69	1337.32
422.89	1343.47
423.10	1335.28
423.30	1322.99
423.51	1394.67
423.72	1351.66
423.92	1386.47
424.13	1351.66
424.33	1390.57
424.54	1415.15
424.75	1388.52
424.95	1492.97
425.16	1372.14
425.36	1417.19
425.57	1306.60
425.78	1441.77
425.98	1433.58
426.19	1435.63
426.39	1368.04
426.60	1384.43
426.81	1519.59
427.01	1331.18
427.22	1284.08
427.42	1275.88
427.63	1345.52
427.83	1386.47
428.04	1384.43
428.25	1404.91
428.45	1433.58
428.66	1359.85
428.86	1386.47
429.07	1333.23
429.28	1345.52
429.48	1331.18
429.69	1376.24
429.89	1351.66
430.10	1421.29
430.30	1304.56
430.51	1413.10
430.71	1357.80
430.92	1353.71
431.13	1335.28
431.33	1353.71
431.54	1388.52
431.74	1452.01
431.95	1585.13
432.15	1325.04
432.36	1398.76
432.56	1413.10
432.77	1390.57
432.98	1339.37
433.18	1306.60
433.39	1370.09
433.59	1355.76
433.80	1484.78
434.00	1460.20
434.21	1409.00
434.41	1337.32
434.62	1431.53
434.82	1413.10
435.03	1294.32
435.23	1388.52
435.44	1409.00
435.64	1363.95
435.85	1318.89
436.06	1396.71
436.26	1427.43
436.47	1351.66
436.67	1441.77
436.88	1384.43
437.08	1394.67
437.29	1347.56
437.49	1419.24
437.70	1421.29
437.90	1357.80
438.11	1595.37
438.31	1472.49
438.52	1568.74
438.72	1521.64
438.93	1609.70
439.13	1484.78
439.34	1501.16
439.54	1419.24
439.75	1462.25
439.95	1468.39
440.16	1341.42
440.36	1421.29
440.57	1400.81
440.77	1445.87
440.98	1351.66
441.18	1415.15
441.39	1425.39
441.59	1384.43
441.80	1417.19
442.00	1445.87
442.21	1441.77
442.41	1282.03
442.62	1398.76
442.82	1400.81
443.02	1368.04
443.23	1347.56
443.43	1366.00
443.64	1445.87
443.84	1359.85
444.05	1476.59
444.25	1329.13
444.46	1366.00
444.66	1427.43
444.87	1402.86
445.07	1423.34
445.28	1409.00
445.48	1449.96
445.69	1433.58
445.89	1511.40
446.09	1538.02
446.30	2279.39
446.50	3772.36
446.71	4741.05
446.91	5361.58
447.12	5513.13
447.32	5060.53
447.53	4147.14
447.73	3811.27
447.93	3440.59
448.14	3155.92
448.34	2979.79
448.55	2813.91
448.75	2818.00
448.96	2582.49
449.16	2430.94
449.36	2232.29
449.57	1888.23
449.77	1669.09
449.98	1523.69
450.18	1542.12
450.39	1456.11
450.59	1452.01
450.79	1437.67
451.00	1357.80
451.20	1384.43
451.41	1396.71
451.61	1329.13
451.81	1429.48
452.02	1320.94
452.22	1372.14
452.43	1228.78
452.63	1284.08
452.84	1427.43
453.04	1357.80
453.24	1374.19
453.45	1294.32
453.65	1366.00
453.86	1314.80
454.06	1333.23
454.26	1325.04
454.47	1316.84
454.67	1396.71
454.87	1384.43
455.08	1402.86
455.28	1394.67
455.49	1384.43
455.69	1353.71
455.89	1460.20
456.10	1470.44
456.30	1370.09
456.51	1406.95
456.71	1339.37
456.91	1374.19
457.12	1437.67
457.32	1419.24
457.52	1357.80
457.73	1411.05
457.93	1370.09
458.14	1325.04
458.34	1386.47
458.54	1384.43
458.75	1339.37
458.95	1390.57
459.15	1368.04
459.36	1363.95
459.56	1370.09
459.76	1540.07
459.97	1325.04
460.17	1380.33
460.37	1359.85
460.58	1370.09
460.78	1396.71
460.99	1304.56
461.19	1370.09
461.39	1386.47
461.60	1339.37
461.80	1378.28
462.00	1312.75
462.21	1335.28
462.41	1382.38
462.61	1423.34
462.82	1294.32
463.02	1409.00
463.22	1386.47
463.43	1388.52
463.63	1386.47
463.83	1386.47
464.04	1462.25
464.24	1384.43
464.44	1343.47
464.64	1320.94
464.85	1390.57
465.05	1431.53
465.25	1425.39
465.46	1431.53
465.66	1392.62
465.86	1398.76
466.07	1411.05
466.27	1372.14
466.47	1320.94
466.68	1249.26
466.88	1454.06
467.08	1392.62
467.29	1421.29
467.49	1454.06
467.69	1335.28
467.89	1316.84
468.10	1339.37
468.30	1388.52
468.50	1423.34
468.71	1443.82
468.91	1269.74
469.11	1402.86
469.31	1355.76
469.52	1290.22
469.72	1400.81
469.92	1445.87
470.13	1329.13
470.33	1462.25
470.53	1671.14
470.73	2107.36
470.94	2306.01
471.14	2322.40
471.34	2473.95
471.54	2162.66
471.75	1904.61
471.95	1949.67
472.15	1806.31
472.36	1818.60
472.56	1779.68
472.76	1761.25
472.96	1671.14
473.17	1599.46
473.37	1648.61
473.57	1515.50
473.77	1501.16
473.98	1507.30
474.18	1478.63
474.38	1519.59
474.58	1288.17
474.79	1417.19
474.99	1404.91
475.19	1425.39
475.39	1341.42
475.60	1452.01
475.80	1425.39
476.00	1378.28
476.20	1347.56
476.41	1359.85
476.61	1449.96
476.81	1449.96
477.01	1306.60
477.21	1429.48
477.42	1394.67
477.62	1347.56
477.82	1363.95
478.02	1347.56
478.23	1419.24
478.43	1290.22
478.63	1339.37
478.83	1411.05
479.03	1359.85
479.24	1376.24
479.44	1366.00
479.64	1284.08
479.84	1286.12
480.04	1320.94
480.25	1415.15
480.45	1386.47
480.65	1419.24
480.85	1435.63
481.06	1288.17
481.26	1415.15
481.46	1306.60
481.66	1359.85
481.86	1370.09
482.06	1433.58
482.27	1392.62
482.47	1273.84
482.67	1359.85
482.87	1415.15
483.07	1447.91
483.28	1331.18
483.48	1292.27
483.68	1290.22
483.88	1314.80
484.08	1288.17
484.29	1357.80
484.49	1396.71
484.69	1316.84
484.89	1449.96
485.09	1435.63
485.29	1441.77
485.50	1433.58
485.70	1384.43
485.90	1456.11
486.10	1363.95
486.30	1429.48
486.50	1411.05
486.71	1394.67
486.91	1411.05
487.11	1386.47
487.31	1308.65
487.51	1345.52
487.71	1327.08
487.91	1388.52
488.12	1390.57
488.32	1394.67
488.52	1322.99
488.72	1302.51
488.92	1406.95
489.12	1435.63
489.32	1396.71
489.53	1378.28
489.73	1298.41
489.93	1449.96
490.13	1386.47
490.33	1341.42
490.53	1421.29
490.73	1386.47
490.94	1386.47
491.14	1406.95
491.34	1615.85
491.54	2119.65
491.74	2623.45
491.94	3035.09
492.14	3074.00
492.34	2938.84
492.54	2596.82
492.75	2285.53
492.95	2201.57
493.15	2045.92
493.35	2045.92
493.55	2015.20
493.75	1892.32
493.95	1886.18
494.15	1859.56
494.35	1703.91
494.56	1675.24
494.76	1525.74
494.96	1546.22
495.16	1443.82
495.36	1443.82
495.56	1437.67
495.76	1382.38
495.96	1449.96
496.16	1327.08
496.36	1382.38
496.56	1349.61
496.77	1413.10
496.97	1339.37
497.17	1394.67
497.37	1368.04
497.57	1411.05
497.77	1378.28
497.97	1294.32
498.17	1308.65
498.37	1413.10
498.57	1435.63
498.77	1314.80
498.97	1419.24
499.17	1372.14
499.38	1394.67
499.58	1454.06
499.78	1433.58
499.98	1443.82
500.18	1462.25
500.38	1388.52
500.58	1728.49
500.78	2867.16
500.98	5607.34
501.18	7032.72
501.38	8185.73
501.58	8783.74
501.78	7337.87
501.98	5740.46
502.18	5025.72
502.38	4497.34
502.58	4204.48
502.78	3692.49
502.98	3563.47
503.18	3532.75
503.38	3301.33
503.59	3117.01
503.79	2693.08
503.99	2609.11
504.19	2344.92
504.39	2230.24
504.59	2068.45
504.79	1927.14
504.99	1834.98
505.19	1673.19
505.39	1501.16
505.59	1689.57
505.79	1521.64
505.99	1478.63
506.19	1454.06
506.39	1503.21
506.59	1499.11
506.79	1415.15
506.99	1363.95
507.19	1503.21
507.39	1411.05
507.59	1339.37
507.79	1349.61
507.99	1337.32
508.19	1378.28
508.39	1388.52
508.59	1368.04
508.79	1460.20
508.99	1406.95
509.19	1357.80
509.39	1443.82
509.59	1306.60
509.79	1300.46
509.99	1482.73
510.19	1472.49
510.39	1386.47
510.59	1376.24
510.79	1314.80
510.99	1316.84
511.19	1331.18
511.39	1484.78
511.59	1423.34
511.79	1400.81
511.99	1361.90
512.19	1507.30
512.38	1390.57
512.58	1409.00
512.78	1388.52
512.98	1406.95
513.18	1382.38
513.38	1343.47
513.58	1388.52
513.78	1431.53
513.98	1402.86
514.18	1318.89
514.38	1441.77
514.58	1388.52
514.78	1275.88
514.98	1361.90
515.18	1353.71
515.38	1363.95
515.58	1435.63
515.78	1370.09
515.98	1361.90
516.18	1390.57
516.38	1337.32
516.57	1298.41
516.77	1374.19
516.97	1378.28
517.17	1349.61
517.37	1282.03
517.57	1394.67
517.77	1337.32
517.97	1409.00
518.17	1486.83
518.37	1361.90
518.57	1327.08
518.77	1390.57
518.97	1382.38
519.16	1429.48
519.36	1437.67
519.56	1239.02
519.76	1341.42
519.96	1404.91
520.16	1411.05
520.36	1376.24
520.56	1437.67
520.76	1337.32
520.96	1384.43
521.16	1396.71
521.35	1449.96
521.55	1398.76
521.75	1380.33
521.95	1378.28
522.15	1415.15
522.35	1331.18
522.55	1310.70
522.75	1378.28
522.95	1396.71
523.14	1404.91
523.34	1343.47
523.54	1339.37
523.74	1456.11
523.94	1374.19
524.14	1394.67
524.34	1396.71
524.54	1497.07
524.73	1327.08
524.93	1394.67
525.13	1351.66
525.33	1349.61
525.53	1476.59
525.73	1288.17
525.93	1386.47
526.13	1341.42
526.32	1337.32
526.52	1433.58
526.72	1384.43
526.92	1386.47
527.12	1460.20
527.32	1445.87
527.52	1404.91
527.71	1347.56
527.91	1341.42
528.11	1361.90
528.31	1300.46
528.51	1351.66
528.71	1396.71
528.90	1376.24
529.10	1437.67
529.30	1437.67
529.50	1320.94
529.70	1347.56
529.90	1331.18
530.09	1349.61
530.29	1378.28
530.49	1419.24
530.69	1478.63
530.89	1419.24
531.09	1447.91
531.28	1435.63
531.48	1404.91
531.68	1406.95
531.88	1341.42
532.08	1310.70
532.28	1396.71
532.47	1400.81
532.67	1447.91
532.87	1417.19
533.07	1429.48
533.27	1320.94
533.46	1464.30
533.66	1413.10
533.86	1396.71
534.06	1394.67
534.26	1464.30
534.45	1388.52
534.65	1513.45
534.85	1396.71
535.05	1308.65
535.25	1421.29
535.44	1370.09
535.64	1460.20
535.84	1380.33
536.04	1421.29
536.24	1380.33
536.43	1378.28
536.63	1443.82
536.83	1404.91
537.03	1368.04
537.22	1355.76
537.42	1265.64
537.62	1417.19
537.82	1413.10
538.02	1345.52
538.21	1359.85
538.41	1456.11
538.61	1392.62
538.81	1351.66
539.00	1447.91
539.20	1265.64
539.40	1322.99
539.60	1445.87
539.79	1429.48
539.99	1404.91
540.19	1361.90
540.39	1320.94
540.58	1386.47
540.78	1411.05
540.98	1388.52
541.18	1402.86
541.37	1415.15
541.57	1366.00
541.77	1419.24
541.97	1310.70
542.16	1275.88
542.36	1392.62
542.56	1429.48
542.76	1482.73
542.95	1359.85
543.15	1366.00
543.35	1325.04
543.54	1306.60
543.74	1363.95
543.94	1349.61
544.14	1368.04
544.33	1388.52
544.53	1357.80
544.73	1411.05
544.93	1363.95
545.12	1449.96
545.32	1355.76
545.52	1370.09
545.71	1447.91
545.91	1374.19
546.11	1361.90
546.30	1349.61
546.50	1372.14
546.70	1435.63
546.90	1357.80
547.09	1304.56
547.29	1355.76
547.49	1400.81
547.68	1419.24
547.88	1306.60
548.08	1411.05
548.27	1769.44
548.47	1417.19
548.67	1345.52
548.87	1402.86
549.06	1290.22
549.26	1388.52
549.46	1347.56
549.65	1355.76
549.85	1415.15
550.05	1445.87
550.24	1411.05
550.44	1368.04
550.64	1390.57
550.83	1325.04
551.03	1431.53
551.23	1425.39
551.42	1433.58
551.62	1325.04
551.82	1359.85
552.01	1351.66
552.21	1386.47
552.41	1382.38
552.60	1443.82
552.80	1398.76
553.00	1380.33
553.19	1363.95
553.39	1384.43
553.59	1261.55
553.78	1409.00
553.98	1380.33
554.17	1318.89
554.37	1394.67
554.57	1394.67
554.76	1413.10
554.96	1386.47
555.16	1284.08
555.35	1359.85
555.55	1400.81
555.75	1406.95
555.94	1443.82
556.14	1310.70
556.33	1460.20
556.53	1386.47
556.73	1380.33
556.92	1456.11
557.12	1394.67
557.32	1417.19
557.51	1458.15
557.71	1312.75
557.90	1366.00
558.10	1492.97
558.30	1310.70
558.49	1343.47
558.69	1355.76
558.88	1433.58
559.08	1380.33
559.28	1406.95
559.47	1384.43
559.67	1402.86
559.86	1384.43
560.06	1441.77
560.26	1376.24
560.45	1409.00
560.65	1355.76
560.84	1421.29
561.04	1331.18
561.24	1355.76
561.43	1388.52
561.63	1476.59
561.82	1351.66
562.02	1443.82
562.22	1374.19
562.41	1341.42
562.61	1331.18
562.80	1361.90
563.00	1509.35
563.19	1402.86
563.39	1480.68
563.59	1333.23
563.78	1363.95
563.98	1366.00
564.17	1347.56
564.37	1312.75
564.56	1320.94
564.76	1327.08
564.96	1376.24
565.15	1351.66
565.35	1509.35
565.54	1236.97
565.74	1372.14
565.93	1402.86
566.13	1388.52
566.32	1411.05
566.52	1460.20
566.71	1394.67
566.91	1370.09
567.11	1325.04
567.30	1335.28
567.50	1374.19
567.69	1388.52
567.89	1366.00
568.08	1378.28
568.28	1404.91
568.47	1388.52
568.67	1388.52
568.86	1374.19
569.06	1388.52
569.25	1353.71
569.45	1359.85
569.64	1386.47
569.84	1419.24
570.04	1312.75
570.23	1370.09
570.43	1419.24
570.62	1376.24
570.82	1423.34
571.01	1347.56
571.21	1396.71
571.40	1308.65
571.60	1417.19
571.79	1388.52
571.99	1411.05
572.18	1359.85
572.38	1345.52
572.57	1392.62
572.77	1402.86
572.96	1419.24
573.16	1351.66
573.35	1415.15
573.55	1443.82
573.74	1406.95
573.94	1417.19
574.13	1384.43
574.33	1339.37
574.52	1482.73
574.71	1396.71
574.91	1476.59
575.10	1355.76
575.30	1411.05
575.49	1339.37
575.69	1314.80
575.88	1443.82
576.08	1458.15
576.27	1456.11
576.47	1452.01
576.66	1501.16
576.86	1492.97
577.05	1314.80
577.25	1435.63
577.44	1427.43
577.64	1429.48
577.83	1404.91
578.02	1456.11
578.22	1535.98
578.41	1462.25
578.61	1413.10
578.80	1374.19
579.00	1409.00
579.19	1376.24
579.39	1437.67
579.58	1501.16
579.77	1443.82
579.97	1478.63
580.16	1507.30
580.36	1449.96
580.55	1415.15
580.75	1437.67
580.94	1404.91
581.13	1437.67
581.33	1458.15
581.52	1411.05
581.72	1550.31
581.91	1482.73
582.11	1427.43
582.30	1409.00
582.49	1447.91
582.69	1478.63
582.88	1449.96
583.08	1449.96
583.27	1443.82
583.47	1472.49
583.66	1380.33
583.85	1366.00
584.05	1402.86
584.24	1519.59
584.44	1445.87
584.63	1497.07
584.82	1495.02
585.02	1615.85
585.21	1654.76
585.41	1540.07
585.60	1560.55
585.79	1624.04
585.99	1662.95
586.18	1595.37
586.37	1875.94
586.57	2762.71
586.76	7905.16
586.96	24313.48
587.15	41395.59
587.34	51680.49
587.54	59384.95
587.73	59212.92
587.93	44905.81
588.12	33201.67
588.31	26320.49
588.51	22568.62
588.70	19926.74
588.89	18495.21
589.09	16826.11
589.28	15654.67
589.47	14118.70
589.67	12439.36
589.86	10657.63
590.06	8499.07
590.25	6475.68
590.44	4999.09
590.64	3778.50
590.83	2848.72
591.02	2308.06
591.22	1929.19
591.41	1779.68
591.60	1564.65
591.80	1634.28
591.99	1495.02
592.18	1462.25
592.38	1521.64
592.57	1497.07
592.76	1456.11
592.96	1462.25
593.15	1355.76
593.34	1443.82
593.54	1429.48
593.73	1478.63
593.92	1501.16
594.12	1439.72
594.31	1415.15
594.50	1482.73
594.70	1542.12
594.89	1548.26
595.08	1460.20
595.28	1402.86
595.47	1501.16
595.66	1486.83
595.86	1318.89
596.05	1429.48
596.24	1357.80
596.43	1488.87
596.63	1445.87
596.82	1462.25
597.01	1347.56
597.21	1427.43
597.40	1454.06
597.59	1368.04
597.79	1402.86
597.98	1452.01
598.17	1472.49
598.36	1443.82
598.56	1490.92
598.75	1454.06
598.94	1515.50
599.14	1435.63
599.33	1406.95
599.52	1370.09
599.71	1396.71
599.91	1427.43
600.10	1445.87
600.29	1394.67
600.48	1413.10
600.68	1404.91
600.87	1380.33
601.06	1437.67
601.26	1474.54
601.45	1388.52
601.64	1429.48
601.83	1445.87
602.03	1331.18
602.22	1400.81
602.41	1378.28
602.60	1501.16
602.80	1396.71
602.99	1361.90
603.18	1390.57
603.37	1425.39
603.57	1337.32
603.76	1411.05
603.95	1423.34
604.14	1419.24
604.34	1427.43
604.53	1417.19
604.72	1415.15
604.91	1417.19
605.10	1427.43
605.30	1370.09
605.49	1466.35
605.68	1445.87
605.87	1318.89
606.07	1310.70
606.26	1431.53
606.45	1390.57
606.64	1421.29
606.84	1376.24
607.03	1372.14
607.22	1445.87
607.41	1441.77
607.60	1372.14
607.80	1474.54
607.99	1339.37
608.18	1441.77
608.37	1429.48
608.56	1363.95
608.76	1419.24
608.95	1490.92
609.14	1513.45
609.33	1538.02
609.52	1597.42
609.72	1484.78
609.91	1470.44
610.10	1411.05
610.29	1474.54
610.48	1380.33
610.68	1425.39
610.87	1374.19
611.06	1452.01
611.25	1388.52
611.44	1400.81
611.63	1390.57
611.83	1511.40
612.02	1349.61
612.21	1474.54
612.40	1282.03
612.59	1335.28
612.79	1312.75
612.98	1404.91
613.17	1437.67
613.36	1423.34
613.55	1458.15
613.74	1474.54
613.93	1581.03
614.13	1523.69
614.32	1691.62
614.51	1583.08
614.70	1531.88
614.89	1409.00
615.08	1486.83
615.28	1611.75
615.47	1392.62
615.66	1462.25
615.85	1429.48
616.04	1490.92
616.23	1456.11
616.42	1456.11
616.62	1490.92
616.81	1490.92
617.00	1404.91
617.19	1456.11
617.38	1404.91
617.57	1368.04
617.76	1445.87
617.95	1386.47
618.15	1435.63
618.34	1521.64
618.53	1320.94
618.72	1447.91
618.91	1349.61
619.10	1460.20
619.29	1386.47
619.48	1388.52
619.68	1302.51
619.87	1423.34
620.06	1316.84
620.25	1361.90
620.44	1413.10
620.63	1402.86
620.82	1368.04
621.01	1353.71
621.20	1419.24
621.39	1366.00
621.59	1423.34
621.78	1388.52
621.97	1370.09
622.16	1394.67
622.35	1413.10
622.54	1476.59
622.73	1429.48
622.92	1318.89
623.11	1411.05
623.30	1384.43
623.49	1388.52
623.68	1351.66
623.88	1394.67
624.07	1386.47
624.26	1329.13
624.45	1298.41
624.64	1423.34
624.83	1413.10
625.02	1390.57
625.21	1366.00
625.40	1372.14
625.59	1437.67
625.78	1415.15
625.97	1419.24
626.16	1445.87
626.35	1454.06
626.54	1417.19
626.74	1505.26
626.93	1462.25
627.12	1386.47
627.31	1411.05
627.50	1435.63
627.69	1409.00
627.88	1339.37
628.07	1388.52
628.26	1320.94
628.45	1341.42
628.64	1368.04
628.83	1413.10
629.02	1322.99
629.21	1327.08
629.40	1429.48
629.59	1370.09
629.78	1419.24
629.97	1425.39
630.16	1400.81
630.35	1419.24
630.54	1423.34
630.73	1267.69
630.92	1386.47
631.11	1298.41
631.30	1374.19
631.49	1441.77
631.68	1363.95
631.87	1409.00
632.06	1370.09
632.25	1468.39
632.44	1370.09
632.63	1429.48
632.82	1380.33
633.01	1382.38
633.20	1484.78
633.39	1472.49
633.58	1441.77
633.77	1507.30
633.96	1533.93
634.15	1486.83
634.34	1345.52
634.53	1396.71
634.72	1435.63
634.91	1380.33
635.10	1478.63
635.29	1359.85
635.48	1359.85
635.67	1433.58
635.86	1372.14
636.05	1478.63
636.24	1345.52
636.43	1417.19
636.62	1361.90
636.81	1327.08
637.00	1347.56
637.19	1318.89
637.38	1322.99
637.57	1363.95
637.76	1466.35
637.95	1472.49
638.14	1445.87
638.33	1478.63
638.52	1511.40
638.71	1527.78
638.89	1417.19
639.08	1427.43
639.27	1478.63
639.46	1409.00
639.65	1718.25
639.84	1951.71
640.03	2101.22
640.22	2035.68
640.41	2226.14
640.60	1914.85
640.79	1781.73
640.98	1632.23
641.17	1568.74
641.36	1601.51
641.55	1613.80
641.74	1546.22
641.92	1468.39
642.11	1513.45
642.30	1486.83
642.49	1411.05
642.68	1464.30
642.87	1443.82
643.06	1423.34
643.25	1398.76
643.44	1406.95
643.63	1355.76
643.82	1384.43
644.00	1353.71
644.19	1374.19
644.38	1380.33
644.57	1372.14
644.76	1431.53
644.95	1380.33
645.14	1402.86
645.33	1415.15
645.52	1400.81
645.71	1320.94
645.89	1308.65
646.08	1413.10
646.27	1302.51
646.46	1394.67
646.65	1335.28
646.84	1425.39
647.03	1355.76
647.22	1458.15
647.40	1378.28
647.59	1400.81
647.78	1329.13
647.97	1329.13
648.16	1257.45
648.35	1437.67
648.54	1462.25
648.73	1298.41
648.91	1357.80
649.10	1406.95
649.29	1347.56
649.48	1329.13
649.67	1370.09
649.86	1359.85
650.05	1363.95
650.23	1460.20
650.42	1544.17
650.61	1609.70
650.80	1564.65
650.99	1617.90
651.18	1425.39
651.36	1449.96
651.55	1474.54
651.74	1474.54
651.93	1435.63
652.12	1466.35
652.31	1386.47
652.49	1421.29
652.68	1390.57
652.87	1472.49
653.06	1427.43
653.25	1482.73
653.44	1433.58
653.62	1427.43
653.81	1335.28
654.00	1484.78
654.19	1460.20
654.38	1419.24
654.56	1345.52
654.75	1361.90
654.94	1435.63
655.13	1308.65
655.32	1402.86
655.51	1509.35
655.69	1423.34
655.88	1415.15
656.07	1318.89
656.26	1359.85
656.45	1329.13
656.63	1359.85
656.82	1386.47
657.01	1433.58
657.20	1296.36
657.38	1386.47
657.57	1368.04
657.76	1355.76
657.95	1425.39
658.14	1390.57
658.32	1386.47
658.51	1363.95
658.70	1382.38
658.89	1374.19
659.08	1427.43
659.26	1415.15
659.45	1417.19
659.64	1433.58
659.83	1449.96
660.01	1597.42
660.20	1427.43
660.39	1490.92
660.58	1386.47
660.76	1452.01
660.95	1327.08
661.14	1464.30
661.33	1363.95
661.51	1404.91
661.70	1384.43
661.89	1495.02
662.08	1402.86
662.26	1388.52
662.45	1380.33
662.64	1503.21
662.83	1423.34
663.01	1320.94
663.20	1394.67
663.39	1415.15
663.58	1361.90
663.76	1331.18
663.95	1351.66
664.14	1341.42
664.32	1396.71
664.51	1339.37
664.70	1343.47
664.89	1347.56
665.07	1255.40
665.26	1437.67
665.45	1300.46
665.64	1452.01
665.82	1368.04
666.01	1413.10
666.20	1460.20
666.38	1437.67
666.57	1486.83
666.76	1513.45
666.95	2050.02
667.13	4329.41
667.32	11487.06
667.51	17964.78
667.69	21561.02
667.88	25089.67
668.07	24608.39
668.25	18984.67
668.44	13586.22
668.63	11296.60
668.81	9054.07
669.00	8161.16
669.19	7432.08
669.38	6889.37
669.56	6178.72
669.75	5537.71
669.94	4800.44
670.12	4169.66
670.31	3485.64
670.50	2916.31
670.68	2453.47
670.87	2099.17
671.06	1824.74
671.24	1685.48
671.43	1634.28
671.62	1572.84
671.80	1470.44
671.99	1517.54
672.18	1452.01
672.36	1394.67
672.55	1415.15
672.74	1431.53
672.92	1345.52
673.11	1341.42
673.29	1427.43
673.48	1501.16
673.67	1374.19
673.85	1435.63
674.04	1327.08
674.23	1357.80
674.41	1351.66
674.60	1357.80
674.79	1273.84
674.97	1388.52
675.16	1386.47
675.34	1429.48
675.53	1363.95
675.72	1437.67
675.90	1384.43
676.09	1378.28
676.28	1396.71
676.46	1355.76
676.65	1357.80
676.83	1314.80
677.02	1372.14
677.21	1386.47
677.39	1363.95
677.58	1376.24
677.77	1275.88
677.95	1337.32
678.14	1425.39
678.32	1402.86
678.51	1320.94
678.70	1388.52
678.88	1425.39
679.07	1306.60
679.25	1300.46
679.44	1427.43
679.63	1355.76
679.81	1380.33
680.00	1392.62
680.18	1339.37
680.37	1351.66
680.55	1392.62
680.74	1310.70
680.93	1290.22
681.11	1296.36
681.30	1341.42
681.48	1413.10
681.67	1345.52
681.85	1361.90
682.04	1318.89
682.23	1413.10
682.41	1452.01
682.60	1370.09
682.78	1368.04
682.97	1357.80
683.15	1409.00
683.34	1294.32
683.53	1425.39
683.71	1333.23
683.90	1400.81
684.08	1476.59
684.27	1427.43
684.45	1421.29
684.64	1368.04
684.82	1273.84
685.01	1388.52
685.19	1406.95
685.38	1384.43
685.57	1406.95
685.75	1409.00
685.94	1331.18
686.12	1273.84
686.31	1322.99
686.49	1419.24
686.68	1347.56
686.86	1454.06
687.05	1329.13
687.23	1400.81
687.42	1357.80
687.60	1349.61
687.79	1384.43
687.97	1433.58
688.16	1396.71
688.34	1370.09
688.53	1300.46
688.71	1366.00
688.90	1370.09
689.08	1394.67
689.27	1331.18
689.45	1404.91
689.64	1427.43
689.82	1441.77
690.01	1337.32
690.19	1372.14
690.38	1359.85
690.56	1509.35
690.75	1325.04
690.93	1400.81
691.12	1325.04
691.30	1339.37
691.49	1370.09
691.67	1415.15
691.86	1488.87
692.04	1359.85
692.23	1327.08
692.41	1413.10
692.60	1415.15
692.78	1478.63
692.97	1443.82
693.15	1517.54
693.34	1556.46
693.52	1478.63
693.71	1392.62
693.89	1347.56
694.08	1341.42
694.26	1409.00
694.44	1427.43
694.63	1415.15
694.81	1339.37
695.00	1343.47
695.18	1468.39
695.37	1480.68
695.55	1388.52
695.74	1406.95
695.92	1331.18
696.10	1384.43
696.29	1345.52
696.47	1337.32
696.66	1335.28
696.84	1310.70
697.03	1349.61
697.21	1398.76
697.40	1716.20
697.58	1400.81
697.76	1384.43
697.95	1361.90
698.13	1327.08
698.32	1325.04
698.50	1347.56
698.68	1433.58
698.87	1370.09
699.05	1515.50
699.24	1394.67
699.42	1298.41
699.61	1353.71
699.79	1386.47
699.97	1355.76
700.16	1292.27
700.34	1300.46
700.53	1327.08
700.71	1421.29
700.89	1421.29
701.08	1320.94
701.26	1427.43
701.45	1632.23
701.63	1320.94
701.81	1347.56
702.00	1277.93
702.18	1411.05
702.37	1402.86
702.55	1394.67
702.73	1433.58
702.92	1492.97
703.10	1685.48
703.28	1544.17
703.47	1665.00
703.65	1683.43
703.84	1667.05
704.02	1505.26
704.20	1609.70
704.39	1456.11
704.57	1474.54
704.75	1531.88
704.94	1484.78
705.12	1472.49
705.30	1480.68
705.49	1519.59
705.67	1834.98
705.86	3569.61
706.04	9025.40
706.22	16219.91
706.41	19646.16
706.59	22673.06
706.77	23441.05
706.96	19914.45
707.14	13827.88
707.32	11366.23
707.51	9230.20
707.69	8226.69
707.87	7483.28
708.06	6766.49
708.24	6086.56
708.42	5171.12
708.61	4128.70
708.79	3059.67
708.97	2353.12
709.16	2002.91
709.34	1712.10
709.52	1538.02
709.71	1533.93
709.89	1480.68
710.07	1392.62
710.26	1392.62
710.44	1472.49
710.62	1409.00
710.80	1396.71
710.99	1492.97
711.17	1390.57
711.35	1392.62
711.54	1308.65
711.72	1466.35
711.90	1396.71
712.09	1423.34
712.27	1478.63
712.45	1396.71
712.63	1423.34
712.82	1378.28
713.00	1363.95
713.18	1384.43
713.37	1363.95
713.55	1370.09
713.73	1388.52
713.91	1462.25
714.10	1279.98
714.28	1380.33
714.46	1392.62
714.65	1402.86
714.83	1353.71
715.01	1376.24
715.19	1402.86
715.38	1304.56
715.56	1386.47
715.74	1318.89
715.92	1294.32
716.11	1476.59
716.29	1271.79
716.47	1396.71
716.65	1357.80
716.84	1341.42
717.02	1351.66
717.20	1320.94
717.38	1312.75
717.57	1404.91
717.75	1402.86
717.93	1296.36
718.11	1454.06
718.30	1310.70
718.48	1388.52
718.66	1366.00
718.84	1486.83
719.03	1359.85
719.21	1439.72
719.39	1404.91
719.57	1433.58
719.75	1376.24
719.94	1366.00
720.12	1406.95
720.30	1435.63
720.48	1423.34
720.67	1304.56
720.85	1222.64
721.03	1384.43
721.21	1372.14
721.39	1316.84
721.58	1366.00
721.76	1312.75
721.94	1306.60
722.12	1474.54
722.30	1419.24
722.49	1435.63
722.67	1335.28
722.85	1398.76
723.03	1298.41
723.21	1337.32
723.40	1329.13
723.58	1359.85
723.76	1404.91
723.94	1435.63
724.12	1372.14
724.30	1509.35
724.49	1513.45
724.67	1421.29
724.85	1497.07
725.03	1421.29
725.21	1529.83
725.40	1497.07
725.58	1355.76
725.76	1492.97
725.94	1427.43
726.12	1376.24
726.30	1380.33
726.49	1404.91
726.67	1404.91
726.85	1366.00
727.03	1404.91
727.21	1458.15
727.39	1544.17
727.57	2082.78
727.76	3424.20
727.94	4548.54
728.12	4865.97
728.30	5312.43
728.48	5220.27
728.66	4353.98
728.84	3530.70
729.03	3123.15
729.21	2881.49
729.39	2590.68
729.57	2320.35
729.75	1978.34
729.93	1818.60
730.11	1662.95
730.30	1521.64
730.48	1431.53
730.66	1513.45
730.84	1404.91
731.02	1370.09
731.20	1398.76
731.38	1366.00
731.56	1390.57
731.74	1333.23
731.93	1462.25
732.11	1370.09
732.29	1353.71
732.47	1300.46
732.65	1406.95
732.83	1327.08
733.01	1439.72
733.19	1306.60
733.37	1398.76
733.56	1398.76
733.74	1376.24
733.92	1445.87
734.10	1380.33
734.28	1392.62
734.46	1286.12
734.64	1343.47
734.82	1378.28
735.00	1347.56
735.18	1325.04
735.36	1279.98
735.54	1431.53
735.73	1357.80
735.91	1388.52
736.09	1351.66
736.27	1325.04
736.45	1351.66
736.63	1345.52
736.81	1347.56
736.99	1435.63
737.17	1351.66
737.35	1359.85
737.53	1380.33
737.71	1339.37
737.89	1392.62
738.07	1322.99
738.25	1308.65
738.43	1398.76
738.61	1355.76
738.80	1279.98
738.98	1411.05
739.16	1327.08
739.34	1341.42
739.52	1384.43
739.70	1353.71
739.88	1322.99
740.06	1515.50
740.24	1292.27
740.42	1419.24
740.60	1339.37
740.78	1363.95
740.96	1312.75
741.14	1306.60
741.32	1343.47
741.50	1335.28
741.68	1443.82
741.86	1443.82
742.04	1337.32
742.22	1292.27
742.40	1374.19
742.58	1363.95
742.76	1351.66
742.94	1413.10
743.12	1277.93
743.30	1306.60
743.48	1343.47
743.66	1376.24
743.84	1355.76
744.02	1249.26
744.20	1454.06
744.38	1392.62
744.56	1337.32
744.74	1390.57
744.92	1298.41
745.10	1341.42
745.28	1406.95
745.46	1427.43
745.64	1322.99
745.82	1349.61
746.00	1470.44
746.18	1343.47
746.36	1314.80
746.54	1443.82
746.72	1382.38
746.90	1347.56
747.08	1423.34
747.26	1402.86
747.44	1464.30
747.62	1488.87
747.80	1388.52
747.98	1431.53
748.15	1353.71
748.33	1361.90
748.51	1314.80
748.69	1402.86
748.87	1427.43
749.05	1368.04
749.23	1337.32
749.41	1411.05
749.59	1335.28
749.77	1404.91
749.95	1441.77
750.13	1345.52
750.31	1368.04
750.49	1431.53
750.67	1347.56
750.85	1472.49
751.03	1396.71
751.20	1542.12
751.38	1363.95
751.56	1308.65
751.74	1341.42
751.92	1372.14
752.10	1347.56
752.28	1441.77
752.46	1374.19
752.64	1312.75
752.82	1279.98
753.00	1392.62
753.18	1288.17
753.35	1409.00
753.53	1495.02
753.71	1372.14
753.89	1386.47
754.07	1388.52
754.25	1357.80
754.43	1390.57
754.61	1345.52
754.79	1380.33
754.97	1366.00
755.14	1378.28
755.32	1275.88
755.50	1388.52
755.68	1339.37
755.86	1327.08
756.04	1417.19
756.22	1251.31
756.40	1372.14
756.57	1423.34
756.75	1400.81
756.93	1382.38
757.11	1404.91
757.29	1376.24
757.47	1343.47
757.65	1339.37
757.82	1277.93
758.00	1308.65
758.18	1314.80
758.36	1419.24
758.54	1400.81
758.72	1308.65
758.90	1409.00
759.07	1406.95
759.25	1316.84
759.43	1376.24
759.61	1372.14
759.79	1712.10
759.97	1447.91
760.15	1374.19
760.32	1353.71
760.50	1347.56
760.68	1425.39
760.86	1339.37
761.04	1431.53
761.22	1386.47
761.39	1382.38
761.57	1325.04
761.75	1345.52
761.93	1382.38
762.11	1458.15
762.28	1359.85
762.46	1388.52
762.64	1409.00
762.82	1345.52
763.00	1355.76
763.18	1458.15
763.35	1298.41
763.53	1398.76
763.71	1325.04
763.89	1372.14
764.07	1312.75
764.24	1419.24
764.42	1431.53
764.60	1372.14
764.78	1351.66
764.96	1386.47
765.13	1361.90
765.31	1380.33
765.49	1390.57
765.67	1310.70
765.84	1333.23
766.02	1329.13
766.20	1359.85
766.38	1394.67
766.56	1447.91
766.73	1445.87
766.91	1366.00
767.09	1366.00
767.27	1400.81
767.44	1335.28
767.62	1433.58
767.80	1335.28
767.98	1318.89
768.15	1353.71
768.33	1452.01
768.51	1351.66
768.69	1345.52
768.87	1370.09
769.04	1384.43
769.22	1501.16
769.40	1427.43
769.58	1443.82
769.75	1384.43
769.93	1454.06
770.11	1366.00
770.28	1386.47
770.46	1409.00
770.64	1296.36
770.82	1421.29
770.99	1388.52
771.17	1370.09
771.35	1312.75
771.53	1327.08
771.70	1380.33
771.88	1353.71
772.06	1361.90
772.23	1384.43
772.41	1402.86
772.59	1310.70
772.77	1380.33
772.94	1327.08
773.12	1372.14
773.30	1400.81
773.47	1388.52
773.65	1359.85
773.83	1366.00
774.01	1351.66
774.18	1351.66
774.36	1374.19
774.54	1302.51
774.71	1419.24
774.89	1366.00
775.07	1290.22
775.24	1386.47
775.42	1333.23
775.60	1429.48
775.78	1363.95
775.95	1347.56
776.13	1265.64
776.31	1302.51
776.48	1337.32
776.66	1454.06
776.84	1277.93
777.01	1327.08
777.19	1286.12
777.37	1374.19
777.54	1421.29
777.72	1404.91
777.90	1380.33
778.07	1267.69
778.25	1404.91
778.43	1427.43
778.60	1382.38
778.78	1361.90
778.96	1376.24
779.13	1413.10
779.31	1357.80
779.49	1333.23
779.66	1341.42
779.84	1351.66
780.01	1382.38
780.19	1329.13
780.37	1384.43
780.54	1388.52
780.72	1378.28
780.90	1331.18
781.07	1345.52
781.25	1341.42
781.43	1318.89
781.60	1396.71
781.78	1447.91
781.95	1390.57
782.13	1331.18
782.31	1345.52
782.48	1300.46
782.66	1316.84
782.83	1452.01
783.01	1378.28
783.19	1456.11
783.36	1372.14
783.54	1296.36
783.72	1439.72
783.89	1366.00
784.07	1361.90
784.24	1368.04
784.42	1435.63
784.60	1359.85
784.77	1384.43
784.95	1304.56
785.12	1294.32
785.30	1429.48
785.47	1363.95
785.65	1363.95
785.83	1304.56
786.00	1349.61
786.18	1384.43
786.35	1329.13
786.53	1339.37
786.71	1433.58
786.88	1372.14
787.06	1384.43
787.23	1355.76
787.41	1357.80
787.58	1359.85
787.76	1257.45
787.94	1384.43
788.11	1341.42
788.29	1368.04
788.46	1382.38
788.64	1296.36
788.81	1351.66
788.99	1320.94
789.16	1347.56
789.34	1417.19
789.52	1343.47
789.69	1370.09
789.87	1327.08
790.04	1343.47
790.22	1456.11
790.39	1413.10
790.57	1452.01
790.74	1318.89
790.92	1318.89
791.09	1320.94
791.27	1404.91
791.44	1464.30
791.62	1320.94
791.79	1400.81
791.97	1322.99
792.15	1515.50
792.32	1370.09
792.50	1380.33
792.67	1400.81
792.85	1380.33
793.02	1415.15
793.20	1396.71
793.37	1310.70
793.55	1333.23
793.72	1339.37
793.90	1413.10
794.07	1312.75
794.25	1314.80
794.42	1390.57
794.60	1320.94
794.77	1325.04
794.95	1380.33
795.12	1388.52
795.30	1355.76
795.47	1259.50
795.65	1425.39
795.82	1415.15
796.00	1368.04
796.17	1320.94
796.34	1351.66
796.52	1402.86
796.69	1267.69
796.87	1333.23
797.04	1374.19
797.22	1370.09
797.39	1402.86
797.57	1439.72
797.74	1363.95
797.92	1404.91
798.09	1347.56
798.27	1433.58
798.44	1449.96
798.62	1378.28
798.79	1361.90
798.96	1421.29
799.14	1353.71
799.31	1462.25
799.49	1378.28
799.66	1433.58
799.84	1331.18
800.01	1290.22
800.19	1382.38
800.36	1277.93
800.53	1339.37
800.71	1382.38
800.88	1378.28
801.06	1306.60
801.23	1406.95
801.41	1349.61
801.58	1318.89
801.75	1273.84
801.93	1366.00
802.10	1386.47
802.28	1288.17
802.45	1329.13
802.63	1425.39
802.80	1417.19
802.97	1310.70
803.15	1421.29
803.32	1404.91
803.50	1286.12
803.67	1335.28
803.84	1306.60
804.02	1288.17
804.19	1353.71
804.37	1288.17
804.54	1374.19
804.71	1351.66
804.89	1353.71
805.06	1335.28
805.24	1318.89
805.41	1351.66
805.58	1368.04
805.76	1449.96
805.93	1322.99
806.10	1406.95
806.28	1337.32
806.45	1327.08
806.63	1374.19
806.80	1423.34
806.97	1413.10
807.15	1347.56
807.32	1294.32
807.49	1341.42
807.67	1259.50
807.84	1396.71
808.01	1370.09
808.19	1378.28
808.36	1495.02
808.54	1384.43
808.71	1308.65
808.88	1368.04
809.06	1409.00
809.23	1411.05
809.40	1320.94
809.58	1386.47
809.75	1263.60
809.92	1294.32
810.10	1501.16
810.27	1384.43
810.44	1351.66
810.62	1429.48
810.79	1312.75
810.96	1335.28
811.14	1402.86
811.31	1382.38
811.48	1425.39
811.66	1329.13
811.83	1357.80
812.00	1388.52
812.18	1376.24
812.35	1353.71
812.52	1310.70
812.69	1329.13
812.87	1396.71
813.04	1363.95
813.21	1370.09
813.39	1374.19
813.56	1409.00
813.73	1454.06
813.91	1265.64
814.08	1343.47
814.25	1318.89
814.42	1353.71
814.60	1402.86
814.77	1386.47
814.94	1394.67
815.12	1429.48
815.29	1433.58
815.46	1370.09
815.63	1363.95
815.81	1357.80
815.98	1415.15
816.15	1339.37
816.33	1394.67
816.50	1392.62
816.67	1431.53
816.84	1415.15
817.02	1327.08
817.19	1376.24
817.36	1331.18
817.53	1325.04
817.71	1322.99
817.88	1429.48
818.05	1404.91
818.22	1318.89
818.40	1439.72
818.57	1392.62
818.74	1411.05
818.91	1366.00
819.09	1404.91
819.26	1396.71
819.43	1388.52
819.60	1288.17
819.78	1374.19
819.95	1398.76
820.12	1366.00
820.29	1380.33
820.47	1376.24
820.64	1384.43
820.81	1296.36
820.98	1345.52
821.15	1380.33
821.33	1392.62
821.50	1284.08
821.67	1345.52
821.84	1351.66
822.02	1376.24
822.19	1439.72
822.36	1341.42
822.53	1388.52
822.70	1415.15
822.88	1396.71
823.05	1361.90
823.22	1327.08
823.39	1394.67
823.56	1337.32
823.74	1380.33
823.91	1263.60
824.08	1294.32
824.25	1409.00
824.42	1447.91
824.60	1308.65
824.77	1298.41
824.94	1359.85
825.11	1359.85
825.28	1314.80
825.45	1388.52
825.63	1366.00
825.80	1359.85
825.97	1361.90
826.14	1372.14
826.31	1304.56
826.48	1388.52
826.66	1318.89
826.83	1351.66
827.00	1372.14
827.17	1253.36
827.34	1327.08
827.51	1396.71
827.69	1378.28
827.86	1304.56
828.03	1370.09
828.20	1314.80
828.37	1366.00
828.54	1322.99
828.71	1361.90
828.89	1443.82
829.06	1435.63
829.23	1437.67
829.40	1325.04
829.57	1325.04
829.74	1355.76
829.91	1363.95
830.09	1359.85
830.26	1425.39
830.43	1409.00
830.60	1331.18
830.77	1411.05
830.94	1437.67
831.11	1325.04
831.28	1292.27
831.46	1392.62
831.63	1322.99
831.80	1392.62
831.97	1261.55
832.14	1382.38
832.31	1316.84
832.48	1376.24
832.65	1339.37
832.82	1329.13
832.99	1390.57
833.17	1296.36
833.34	1435.63
833.51	1372.14
833.68	1255.40
833.85	1361.90
834.02	1376.24
834.19	1345.52
834.36	1368.04
834.53	1370.09
834.70	1445.87
834.87	1314.80
835.04	1388.52
835.22	1415.15
835.39	1234.93
835.56	1398.76
835.73	1396.71
835.90	1388.52
836.07	1378.28
836.24	1417.19
836.41	1409.00
836.58	1359.85
836.75	1413.10
836.92	1308.65
837.09	1376.24
837.26	1359.85
837.43	1345.52
837.60	1409.00
837.77	1335.28
837.94	1359.85
838.12	1374.19
838.29	1378.28
838.46	1333.23
838.63	1359.85
838.80	1411.05
838.97	1490.92
839.14	1419.24
839.31	1372.14
839.48	1374.19
839.65	1331.18
839.82	1345.52
839.99	1404.91
840.16	1355.76
840.33	1316.84
840.50	1396.71
840.67	1292.27
840.84	1351.66
841.01	1374.19
841.18	1423.34
841.35	1333.23
841.52	1359.85
841.69	1409.00
841.86	1384.43
842.03	1452.01
842.20	1439.72
842.37	1366.00
842.54	1320.94
842.71	1402.86
842.88	1411.05
843.05	1400.81
843.22	1388.52
843.39	1390.57
843.56	1284.08
843.73	1357.80
843.90	1370.09
844.07	1327.08
844.24	1353.71
844.41	1423.34
844.58	1380.33
844.75	1359.85
844.92	1396.71
845.09	1366.00
845.26	1341.42
845.43	1380.33
845.60	1355.76
845.77	1361.90
845.94	1394.67
846.10	1374.19
846.27	1267.69
846.44	1265.64
846.61	1355.76
846.78	1355.76
846.95	1366.00
847.12	1300.46
847.29	1357.80
847.46	1406.95
847.63	1325.04
847.80	1351.66
847.97	1380.33
848.14	1406.95
848.31	1325.04
848.48	1329.13
848.65	1380.33
848.82	1370.09
848.98	1402.86
849.15	1452.01
849.32	1409.00
849.49	1368.04
849.66	1435.63
849.83	1396.71
850.00	1339.37
850.17	1363.95
850.34	1427.43
850.51	1331.18
850.68	1370.09
850.85	1495.02
851.01	1462.25
851.18	1466.35
851.35	1372.14
851.52	1349.61
851.69	1445.87
851.86	1320.94
852.03	1220.59
852.20	1351.66
852.37	1333.23
852.53	1265.64
852.70	1394.67
852.87	1396.71
853.04	1413.10
853.21	1433.58
853.38	1372.14
853.55	1411.05
853.72	1316.84
853.89	1329.13
854.05	1396.71
854.22	1357.80
854.39	1423.34
854.56	1413.10
854.73	1382.38
854.90	1327.08
855.07	1349.61
855.23	1308.65
855.40	1388.52
855.57	1392.62
855.74	1279.98
855.91	1548.26
856.08	1353.71
856.25	1306.60
856.41	1386.47
856.58	1320.94
856.75	1331.18
856.92	1355.76
857.09	1366.00
857.26	1370.09
857.42	1269.74
857.59	1384.43
857.76	1353.71
857.93	1353.71
858.10	1370.09
858.27	1320.94
858.43	1384.43
858.60	1384.43
858.77	1322.99
858.94	1411.05
859.11	1390.57
859.27	1306.60
859.44	1396.71
859.61	1443.82
859.78	1380.33
859.95	1411.05
860.12	1347.56
860.28	1374.19
860.45	1404.91
860.62	1292.27
860.79	1304.56
860.95	1325.04
861.12	1329.13
861.29	1302.51
861.46	1351.66
861.63	1308.65
861.79	1343.47
861.96	1318.89
862.13	1355.76
862.30	1368.04
862.47	1302.51
862.63	1359.85
862.80	1398.76
862.97	1417.19
863.14	1345.52
863.30	1337.32
863.47	1361.90
863.64	1445.87
863.81	1411.05
863.97	1384.43
864.14	1388.52
864.31	1339.37
864.48	1312.75
864.65	1308.65
864.81	1398.76
864.98	1466.35
865.15	1374.19
865.32	1425.39
865.48	1388.52
865.65	1343.47
865.82	1411.05
865.98	1417.19
866.15	1337.32
866.32	1409.00
866.49	1402.86
866.65	1429.48
866.82	1357.80
866.99	1345.52
867.16	1310.70
867.32	1335.28
867.49	1413.10
867.66	1415.15
867.83	1353.71
867.99	1333.23
868.16	1368.04
868.33	1339.37
868.49	1388.52
868.66	1355.76
868.83	1345.52
868.99	1406.95
869.16	1386.47
869.33	1413.10
869.50	1437.67
869.66	1339.37
869.83	1417.19
870.00	1300.46
870.16	1396.71
870.33	1359.85
870.50	1421.29
870.66	1357.80
870.83	1445.87
871.00	1435.63
871.17	1476.59
871.33	1314.80
871.50	1327.08
871.67	1378.28
871.83	1394.67
872.00	1458.15
872.17	1445.87
872.33	1368.04
872.50	1396.71
872.67	1359.85
872.83	1325.04
873.00	1372.14
873.17	1339.37
873.33	1370.09
873.50	1351.66
873.67	1282.03
873.83	1357.80
874.00	1392.62
874.16	1366.00
874.33	1466.35
874.50	1396.71
874.66	1294.32
874.83	1423.34
875.00	1482.73
875.16	1415.15
875.33	1409.00
875.50	1304.56
875.66	1357.80
875.83	1325.04
875.99	1382.38
876.16	1388.52
876.33	1320.94
876.49	1386.47
876.66	1366.00
876.83	1431.53
876.99	1290.22
877.16	1363.95
877.32	1382.38
877.49	1355.76
877.66	1382.38
877.82	1400.81
877.99	1279.98
878.15	1439.72
878.32	1357.80
878.49	1386.47
878.65	1368.04
878.82	1366.00
878.98	1374.19
879.15	1374.19
879.32	1372.14
879.48	1347.56
879.65	1308.65
879.81	1327.08
879.98	1339.37
880.15	1394.67
880.31	1390.57
880.48	1247.21
880.64	1320.94
880.81	1386.47
880.97	1468.39
881.14	1419.24
881.31	1316.84
881.47	1538.02
881.64	1351.66
881.80	1331.18
881.97	1300.46
882.13	1402.86
882.30	1413.10
882.47	1378.28
882.63	1341.42
882.80	1370.09
882.96	1294.32
883.13	1343.47
883.29	1382.38
883.46	1359.85
883.62	1456.11
883.79	1349.61
883.95	1333.23
884.12	1294.32
884.29	1423.34
884.45	1452.01
884.62	1361.90
884.78	1327.08
884.95	1449.96
885.11	1372.14
885.28	1421.29
885.44	1349.61
885.61	1392.62
885.77	1411.05
885.94	1396.71
886.10	1333.23
886.27	1322.99
886.43	1370.09
886.60	1449.96
886.76	1363.95
886.93	1292.27
887.09	1335.28
887.26	1339.37
887.42	1322.99
887.59	1374.19
887.75	1435.63
887.92	1394.67
888.08	1411.05
888.25	1474.54
888.41	1421.29
888.58	1390.57
888.74	1347.56
888.91	1351.66
>>>>>End Processed Spectral Data<<<<<
