SpectraSuite Data File
++++++++++++++++++++++++++++++++++++
Date: Tue May 03 11:24:01 CEST 2016
User: root
Dark Spectrum Present: No
Reference Spectrum Present: No
Number of Sampled Component Spectra: 1
Spectrometers: USB4C02835
Integration Time (usec): 100000 (USB4C02835)
Spectra Averaged: 1 (USB4C02835)
Boxcar Smoothing: 0 (USB4C02835)
Correct for Electrical Dark: No (USB4C02835)
Strobe/Lamp Enabled: No (USB4C02835)
Correct for Detector Non-linearity: No (USB4C02835)
Correct for Stray Light: No (USB4C02835)
Number of Pixels in Processed Spectrum: 3648
>>>>>Begin Processed Spectral Data<<<<<
177.47	1239.02
177.69	1239.02
177.91	1239.02
178.13	1208.30
178.36	1210.35
178.58	1288.17
178.80	1386.47
179.02	1284.08
179.24	1349.61
179.46	1351.66
179.68	1466.35
179.90	1421.29
180.13	1361.90
180.35	1355.76
180.57	1327.08
180.79	1423.34
181.01	1337.32
181.23	1454.06
181.45	1437.67
181.67	1392.62
181.90	1441.77
182.12	1396.71
182.34	1353.71
182.56	1394.67
182.78	1363.95
183.00	1398.76
183.22	1347.56
183.44	1368.04
183.66	1533.93
183.89	1396.71
184.11	1349.61
184.33	1372.14
184.55	1378.28
184.77	1388.52
184.99	1400.81
185.21	1349.61
185.43	1472.49
185.65	1339.37
185.87	1392.62
186.10	1370.09
186.32	1509.35
186.54	1351.66
186.76	1349.61
186.98	1433.58
187.20	1349.61
187.42	1335.28
187.64	1372.14
187.86	1314.80
188.08	1363.95
188.30	1355.76
188.52	1363.95
188.75	1404.91
188.97	1382.38
189.19	1361.90
189.41	1322.99
189.63	1427.43
189.85	1384.43
190.07	1368.04
190.29	1292.27
190.51	1433.58
190.73	1337.32
190.95	1462.25
191.17	1441.77
191.39	1269.74
191.61	1404.91
191.84	1282.03
192.06	1454.06
192.28	1341.42
192.50	1488.87
192.72	1366.00
192.94	1411.05
193.16	1363.95
193.38	1388.52
193.60	1374.19
193.82	1306.60
194.04	1398.76
194.26	1466.35
194.48	1370.09
194.70	1333.23
194.92	1390.57
195.14	1445.87
195.36	1345.52
195.58	1392.62
195.80	1392.62
196.02	1335.28
196.24	1390.57
196.46	1386.47
196.69	1327.08
196.91	1449.96
197.13	1335.28
197.35	1466.35
197.57	1384.43
197.79	1380.33
198.01	1413.10
198.23	1314.80
198.45	1368.04
198.67	1390.57
198.89	1347.56
199.11	1368.04
199.33	1343.47
199.55	1316.84
199.77	1384.43
199.99	1439.72
200.21	1363.95
200.43	1359.85
200.65	1325.04
200.87	1329.13
201.09	1322.99
201.31	1370.09
201.53	1411.05
201.75	1374.19
201.97	1366.00
202.19	1329.13
202.41	1353.71
202.63	1501.16
202.85	1294.32
203.07	1325.04
203.29	1275.88
203.51	1320.94
203.73	1341.42
203.95	1509.35
204.17	1347.56
204.39	1378.28
204.61	1392.62
204.83	1339.37
205.05	1390.57
205.27	1460.20
205.49	1431.53
205.71	1368.04
205.93	1392.62
206.15	1339.37
206.37	1339.37
206.59	1296.36
206.81	1308.65
207.03	1318.89
207.25	1355.76
207.47	1376.24
207.69	1290.22
207.91	1370.09
208.13	1337.32
208.34	1347.56
208.56	1441.77
208.78	1390.57
209.00	1351.66
209.22	1304.56
209.44	1441.77
209.66	1333.23
209.88	1398.76
210.10	1386.47
210.32	1318.89
210.54	1480.68
210.76	1384.43
210.98	1357.80
211.20	1351.66
211.42	1404.91
211.64	1370.09
211.86	1427.43
212.08	1380.33
212.30	1372.14
212.52	1322.99
212.74	1335.28
212.96	1322.99
213.17	1413.10
213.39	1402.86
213.61	1429.48
213.83	1372.14
214.05	1445.87
214.27	1396.71
214.49	1310.70
214.71	1302.51
214.93	1443.82
215.15	1384.43
215.37	1333.23
215.59	1286.12
215.81	1322.99
216.03	1390.57
216.24	1339.37
216.46	1335.28
216.68	1353.71
216.90	1370.09
217.12	1394.67
217.34	1419.24
217.56	1341.42
217.78	1409.00
218.00	1314.80
218.22	1411.05
218.44	1400.81
218.66	1431.53
218.87	1456.11
219.09	1325.04
219.31	1386.47
219.53	1425.39
219.75	1380.33
219.97	1376.24
220.19	1419.24
220.41	1347.56
220.63	1458.15
220.85	1380.33
221.06	1390.57
221.28	1396.71
221.50	1341.42
221.72	1345.52
221.94	1339.37
222.16	1384.43
222.38	1370.09
222.60	1421.29
222.82	1376.24
223.03	1380.33
223.25	1357.80
223.47	1482.73
223.69	1458.15
223.91	1359.85
224.13	1396.71
224.35	1429.48
224.57	1439.72
224.78	1458.15
225.00	1353.71
225.22	1374.19
225.44	1427.43
225.66	1353.71
225.88	1368.04
226.10	1449.96
226.32	1353.71
226.53	1433.58
226.75	1341.42
226.97	1454.06
227.19	1409.00
227.41	1322.99
227.63	1415.15
227.85	1300.46
228.06	1396.71
228.28	1345.52
228.50	1386.47
228.72	1335.28
228.94	1396.71
229.16	1355.76
229.37	1314.80
229.59	1347.56
229.81	1392.62
230.03	1327.08
230.25	1257.45
230.47	1325.04
230.69	1310.70
230.90	1390.57
231.12	1318.89
231.34	1347.56
231.56	1400.81
231.78	1368.04
232.00	1322.99
232.21	1421.29
232.43	1374.19
232.65	1292.27
232.87	1435.63
233.09	1337.32
233.30	1353.71
233.52	1257.45
233.74	1433.58
233.96	1378.28
234.18	1378.28
234.40	1339.37
234.61	1386.47
234.83	1284.08
235.05	1343.47
235.27	1404.91
235.49	1382.38
235.70	1406.95
235.92	1394.67
236.14	1359.85
236.36	1411.05
236.58	1355.76
236.79	1372.14
237.01	1363.95
237.23	1341.42
237.45	1423.34
237.67	1316.84
237.88	1406.95
238.10	1464.30
238.32	1312.75
238.54	1347.56
238.76	1458.15
238.97	1380.33
239.19	1359.85
239.41	1435.63
239.63	1353.71
239.85	1386.47
240.06	1353.71
240.28	1343.47
240.50	1363.95
240.72	1398.76
240.93	1329.13
241.15	1392.62
241.37	1327.08
241.59	1400.81
241.81	1380.33
242.02	1376.24
242.24	1361.90
242.46	1441.77
242.68	1380.33
242.89	1355.76
243.11	1322.99
243.33	1413.10
243.55	1331.18
243.76	1421.29
243.98	1372.14
244.20	1284.08
244.42	1413.10
244.64	1341.42
244.85	1402.86
245.07	1335.28
245.29	1427.43
245.51	1398.76
245.72	1413.10
245.94	1394.67
246.16	1478.63
246.38	1413.10
246.59	1425.39
246.81	1277.93
247.03	1400.81
247.24	1306.60
247.46	1339.37
247.68	1400.81
247.90	1322.99
248.11	1374.19
248.33	1423.34
248.55	1427.43
248.77	1361.90
248.98	1425.39
249.20	1409.00
249.42	1325.04
249.64	1454.06
249.85	1413.10
250.07	1333.23
250.29	1372.14
250.50	1382.38
250.72	1370.09
250.94	1380.33
251.16	1429.48
251.37	1380.33
251.59	1351.66
251.81	1322.99
252.02	1388.52
252.24	1292.27
252.46	1437.67
252.68	1396.71
252.89	1376.24
253.11	1370.09
253.33	1503.21
253.54	1382.38
253.76	1327.08
253.98	1304.56
254.20	1294.32
254.41	1300.46
254.63	1374.19
254.85	1302.51
255.06	1400.81
255.28	1384.43
255.50	1363.95
255.71	1282.03
255.93	1402.86
256.15	1404.91
256.36	1411.05
256.58	1431.53
256.80	1380.33
257.02	1366.00
257.23	1335.28
257.45	1355.76
257.67	1441.77
257.88	1327.08
258.10	1351.66
258.32	1394.67
258.53	1452.01
258.75	1366.00
258.97	1312.75
259.18	1376.24
259.40	1382.38
259.62	1413.10
259.83	1390.57
260.05	1400.81
260.27	1527.78
260.48	1406.95
260.70	1396.71
260.92	1331.18
261.13	1345.52
261.35	1366.00
261.57	1318.89
261.78	1277.93
262.00	1314.80
262.22	1349.61
262.43	1378.28
262.65	1384.43
262.86	1406.95
263.08	1482.73
263.30	1421.29
263.51	1265.64
263.73	1341.42
263.95	1366.00
264.16	1376.24
264.38	1368.04
264.60	1388.52
264.81	1411.05
265.03	1345.52
265.25	1388.52
265.46	1392.62
265.68	1474.54
265.89	1413.10
266.11	1331.18
266.33	1355.76
266.54	1415.15
266.76	1359.85
266.98	1390.57
267.19	1468.39
267.41	1331.18
267.62	1351.66
267.84	1322.99
268.06	1318.89
268.27	1441.77
268.49	1392.62
268.70	1388.52
268.92	1318.89
269.14	1314.80
269.35	1337.32
269.57	1343.47
269.79	1363.95
270.00	1312.75
270.22	1370.09
270.43	1304.56
270.65	1284.08
270.87	1325.04
271.08	1335.28
271.30	1355.76
271.51	1378.28
271.73	1423.34
271.95	1427.43
272.16	1366.00
272.38	1372.14
272.59	1345.52
272.81	1261.55
273.02	1398.76
273.24	1386.47
273.46	1384.43
273.67	1316.84
273.89	1378.28
274.10	1353.71
274.32	1345.52
274.54	1355.76
274.75	1329.13
274.97	1343.47
275.18	1427.43
275.40	1384.43
275.61	1384.43
275.83	1282.03
276.05	1339.37
276.26	1359.85
276.48	1361.90
276.69	1368.04
276.91	1282.03
277.12	1312.75
277.34	1374.19
277.55	1478.63
277.77	1292.27
277.99	1433.58
278.20	1331.18
278.42	1392.62
278.63	1333.23
278.85	1380.33
279.06	1349.61
279.28	1347.56
279.49	1441.77
279.71	1427.43
279.93	1380.33
280.14	1382.38
280.36	1308.65
280.57	1415.15
280.79	1443.82
281.00	1388.52
281.22	1435.63
281.43	1464.30
281.65	1320.94
281.86	1353.71
282.08	1339.37
282.29	1433.58
282.51	1411.05
282.73	1329.13
282.94	1310.70
283.16	1452.01
283.37	1437.67
283.59	1337.32
283.80	1363.95
284.02	1279.98
284.23	1460.20
284.45	1388.52
284.66	1409.00
284.88	1318.89
285.09	1439.72
285.31	1468.39
285.52	1404.91
285.74	1314.80
285.95	1415.15
286.17	1376.24
286.38	1372.14
286.60	1318.89
286.81	1249.26
287.03	1372.14
287.24	1380.33
287.46	1409.00
287.67	1406.95
287.89	1411.05
288.10	1343.47
288.32	1400.81
288.53	1392.62
288.75	1363.95
288.96	1372.14
289.18	1363.95
289.39	1294.32
289.61	1404.91
289.82	1441.77
290.04	1503.21
290.25	1320.94
290.47	1404.91
290.68	1298.41
290.90	1378.28
291.11	1292.27
291.33	1435.63
291.54	1374.19
291.76	1318.89
291.97	1400.81
292.18	1363.95
292.40	1337.32
292.61	1271.79
292.83	1478.63
293.04	1419.24
293.26	1339.37
293.47	1394.67
293.69	1325.04
293.90	1404.91
294.12	1376.24
294.33	1316.84
294.55	1298.41
294.76	1349.61
294.97	1415.15
295.19	1478.63
295.40	1351.66
295.62	1388.52
295.83	1443.82
296.05	1302.51
296.26	1447.91
296.48	1265.64
296.69	1329.13
296.90	1353.71
297.12	1374.19
297.33	1456.11
297.55	1370.09
297.76	1374.19
297.98	1325.04
298.19	1331.18
298.41	1435.63
298.62	1337.32
298.83	1396.71
299.05	1341.42
299.26	1302.51
299.48	1400.81
299.69	1392.62
299.90	1361.90
300.12	1359.85
300.33	1445.87
300.55	1337.32
300.76	1404.91
300.98	1316.84
301.19	1398.76
301.40	1320.94
301.62	1353.71
301.83	1355.76
302.05	1304.56
302.26	1376.24
302.47	1388.52
302.69	1368.04
302.90	1359.85
303.12	1327.08
303.33	1349.61
303.54	1476.59
303.76	1341.42
303.97	1431.53
304.19	1441.77
304.40	1251.31
304.61	1394.67
304.83	1425.39
305.04	1376.24
305.26	1388.52
305.47	1429.48
305.68	1380.33
305.90	1382.38
306.11	1331.18
306.33	1380.33
306.54	1423.34
306.75	1337.32
306.97	1361.90
307.18	1355.76
307.39	1322.99
307.61	1419.24
307.82	1302.51
308.04	1398.76
308.25	1374.19
308.46	1400.81
308.68	1372.14
308.89	1355.76
309.10	1374.19
309.32	1413.10
309.53	1314.80
309.74	1404.91
309.96	1388.52
310.17	1456.11
310.39	1417.19
310.60	1409.00
310.81	1417.19
311.03	1275.88
311.24	1329.13
311.45	1406.95
311.67	1499.11
311.88	1429.48
312.09	1296.36
312.31	1282.03
312.52	1355.76
312.73	1304.56
312.95	1345.52
313.16	1400.81
313.37	1357.80
313.59	1380.33
313.80	1329.13
314.01	1503.21
314.23	1316.84
314.44	1351.66
314.65	1327.08
314.87	1327.08
315.08	1411.05
315.29	1333.23
315.51	1392.62
315.72	1325.04
315.93	1501.16
316.15	1353.71
316.36	1331.18
316.57	1353.71
316.79	1406.95
317.00	1390.57
317.21	1394.67
317.43	1359.85
317.64	1361.90
317.85	1419.24
318.07	1474.54
318.28	1499.11
318.49	1497.07
318.70	1619.94
318.92	1509.35
319.13	1521.64
319.34	1550.31
319.56	1519.59
319.77	1427.43
319.98	1478.63
320.20	1462.25
320.41	1462.25
320.62	1425.39
320.83	1374.19
321.05	1560.55
321.26	1361.90
321.47	1288.17
321.69	1425.39
321.90	1325.04
322.11	1341.42
322.32	1382.38
322.54	1417.19
322.75	1341.42
322.96	1441.77
323.18	1347.56
323.39	1322.99
323.60	1355.76
323.81	1439.72
324.03	1320.94
324.24	1443.82
324.45	1388.52
324.66	1353.71
324.88	1378.28
325.09	1429.48
325.30	1380.33
325.52	1447.91
325.73	1439.72
325.94	1337.32
326.15	1273.84
326.37	1404.91
326.58	1386.47
326.79	1452.01
327.00	1298.41
327.22	1411.05
327.43	1351.66
327.64	1386.47
327.85	1368.04
328.07	1355.76
328.28	1484.78
328.49	1443.82
328.70	1392.62
328.92	1411.05
329.13	1345.52
329.34	1345.52
329.55	1386.47
329.76	1388.52
329.98	1378.28
330.19	1394.67
330.40	1425.39
330.61	1277.93
330.83	1437.67
331.04	1380.33
331.25	1400.81
331.46	1335.28
331.68	1339.37
331.89	1435.63
332.10	1290.22
332.31	1345.52
332.52	1288.17
332.74	1433.58
332.95	1396.71
333.16	1337.32
333.37	1384.43
333.58	1337.32
333.80	1392.62
334.01	1322.99
334.22	1335.28
334.43	1380.33
334.64	1374.19
334.86	1331.18
335.07	1353.71
335.28	1388.52
335.49	1337.32
335.70	1353.71
335.92	1433.58
336.13	1478.63
336.34	1402.86
336.55	1351.66
336.76	1378.28
336.98	1286.12
337.19	1347.56
337.40	1454.06
337.61	1421.29
337.82	1357.80
338.04	1449.96
338.25	1325.04
338.46	1337.32
338.67	1345.52
338.88	1394.67
339.09	1341.42
339.31	1279.98
339.52	1294.32
339.73	1275.88
339.94	1372.14
340.15	1406.95
340.36	1368.04
340.58	1406.95
340.79	1411.05
341.00	1445.87
341.21	1370.09
341.42	1421.29
341.63	1341.42
341.85	1415.15
342.06	1302.51
342.27	1314.80
342.48	1409.00
342.69	1300.46
342.90	1292.27
343.12	1372.14
343.33	1304.56
343.54	1441.77
343.75	1409.00
343.96	1404.91
344.17	1363.95
344.38	1345.52
344.60	1357.80
344.81	1294.32
345.02	1294.32
345.23	1382.38
345.44	1456.11
345.65	1413.10
345.86	1306.60
346.07	1331.18
346.29	1382.38
346.50	1288.17
346.71	1425.39
346.92	1374.19
347.13	1501.16
347.34	1331.18
347.55	1378.28
347.76	1409.00
347.98	1310.70
348.19	1337.32
348.40	1378.28
348.61	1384.43
348.82	1390.57
349.03	1482.73
349.24	1275.88
349.45	1421.29
349.66	1372.14
349.88	1370.09
350.09	1290.22
350.30	1382.38
350.51	1474.54
350.72	1423.34
350.93	1359.85
351.14	1329.13
351.35	1456.11
351.56	1343.47
351.77	1349.61
351.99	1351.66
352.20	1376.24
352.41	1439.72
352.62	1292.27
352.83	1327.08
353.04	1349.61
353.25	1402.86
353.46	1327.08
353.67	1437.67
353.88	1357.80
354.09	1298.41
354.30	1384.43
354.52	1419.24
354.73	1378.28
354.94	1339.37
355.15	1388.52
355.36	1409.00
355.57	1339.37
355.78	1380.33
355.99	1331.18
356.20	1343.47
356.41	1384.43
356.62	1347.56
356.83	1320.94
357.04	1409.00
357.25	1347.56
357.46	1392.62
357.68	1329.13
357.89	1382.38
358.10	1325.04
358.31	1380.33
358.52	1337.32
358.73	1343.47
358.94	1333.23
359.15	1325.04
359.36	1480.68
359.57	1359.85
359.78	1361.90
359.99	1419.24
360.20	1341.42
360.41	1345.52
360.62	1406.95
360.83	1304.56
361.04	1421.29
361.25	1423.34
361.46	1380.33
361.67	1425.39
361.88	1439.72
362.09	1341.42
362.30	1339.37
362.51	1314.80
362.72	1318.89
362.93	1415.15
363.14	1396.71
363.35	1423.34
363.56	1425.39
363.78	1351.66
363.99	1384.43
364.20	1331.18
364.41	1404.91
364.62	1392.62
364.83	1402.86
365.04	1452.01
365.25	1341.42
365.46	1476.59
365.67	1382.38
365.88	1380.33
366.09	1343.47
366.30	1316.84
366.51	1413.10
366.72	1325.04
366.93	1392.62
367.14	1351.66
367.35	1468.39
367.56	1386.47
367.77	1449.96
367.98	1359.85
368.18	1343.47
368.39	1466.35
368.60	1337.32
368.81	1386.47
369.02	1318.89
369.23	1320.94
369.44	1394.67
369.65	1409.00
369.86	1390.57
370.07	1384.43
370.28	1398.76
370.49	1458.15
370.70	1445.87
370.91	1308.65
371.12	1349.61
371.33	1431.53
371.54	1419.24
371.75	1415.15
371.96	1284.08
372.17	1398.76
372.38	1349.61
372.59	1490.92
372.80	1374.19
373.01	1392.62
373.22	1388.52
373.43	1331.18
373.64	1396.71
373.85	1390.57
374.06	1429.48
374.26	1394.67
374.47	1331.18
374.68	1472.49
374.89	1370.09
375.10	1320.94
375.31	1456.11
375.52	1286.12
375.73	1388.52
375.94	1357.80
376.15	1370.09
376.36	1355.76
376.57	1386.47
376.78	1304.56
376.99	1351.66
377.20	1396.71
377.40	1290.22
377.61	1433.58
377.82	1325.04
378.03	1396.71
378.24	1378.28
378.45	1388.52
378.66	1345.52
378.87	1341.42
379.08	1337.32
379.29	1308.65
379.50	1429.48
379.71	1298.41
379.91	1380.33
380.12	1349.61
380.33	1378.28
380.54	1376.24
380.75	1339.37
380.96	1349.61
381.17	1359.85
381.38	1427.43
381.59	1376.24
381.80	1452.01
382.00	1501.16
382.21	1415.15
382.42	1437.67
382.63	1525.74
382.84	1445.87
383.05	1472.49
383.26	1363.95
383.47	1425.39
383.68	1435.63
383.88	1460.20
384.09	1409.00
384.30	1464.30
384.51	1339.37
384.72	1409.00
384.93	1357.80
385.14	1363.95
385.35	1415.15
385.55	1382.38
385.76	1298.41
385.97	1419.24
386.18	1335.28
386.39	1437.67
386.60	1454.06
386.81	1388.52
387.02	1454.06
387.22	1458.15
387.43	1409.00
387.64	1630.18
387.85	2377.69
388.06	5836.71
388.27	9584.49
388.48	11712.33
388.68	13285.17
388.89	13373.24
389.10	10585.95
389.31	9252.72
389.52	8288.13
389.73	7384.98
389.93	7045.01
390.14	6633.37
390.35	6086.56
390.56	5529.52
390.77	4661.18
390.98	3674.06
391.18	2861.01
391.39	2133.98
391.60	1654.76
391.81	1511.40
392.02	1398.76
392.23	1484.78
392.43	1398.76
392.64	1476.59
392.85	1400.81
393.06	1302.51
393.27	1443.82
393.47	1378.28
393.68	1333.23
393.89	1394.67
394.10	1421.29
394.31	1341.42
394.52	1343.47
394.72	1402.86
394.93	1384.43
395.14	1374.19
395.35	1345.52
395.56	1380.33
395.76	1441.77
395.97	1533.93
396.18	1583.08
396.39	1601.51
396.60	1765.35
396.80	1474.54
397.01	1574.89
397.22	1449.96
397.43	1558.50
397.64	1456.11
397.84	1449.96
398.05	1542.12
398.26	1433.58
398.47	1480.68
398.67	1488.87
398.88	1390.57
399.09	1437.67
399.30	1425.39
399.51	1423.34
399.71	1343.47
399.92	1378.28
400.13	1380.33
400.34	1413.10
400.54	1404.91
400.75	1419.24
400.96	1382.38
401.17	1351.66
401.37	1427.43
401.58	1343.47
401.79	1482.73
402.00	1720.29
402.21	1861.60
402.41	1904.61
402.62	1755.11
402.83	1720.29
403.04	1673.19
403.24	1689.57
403.45	1605.61
403.66	1597.42
403.87	1523.69
404.07	1564.65
404.28	1562.60
404.49	1513.45
404.70	1548.26
404.90	1476.59
405.11	1466.35
405.32	1435.63
405.52	1366.00
405.73	1341.42
405.94	1374.19
406.15	1345.52
406.35	1406.95
406.56	1396.71
406.77	1382.38
406.98	1441.77
407.18	1366.00
407.39	1425.39
407.60	1411.05
407.80	1353.71
408.01	1427.43
408.22	1470.44
408.43	1302.51
408.63	1390.57
408.84	1413.10
409.05	1472.49
409.25	1320.94
409.46	1312.75
409.67	1390.57
409.88	1337.32
410.08	1400.81
410.29	1431.53
410.50	1411.05
410.70	1380.33
410.91	1310.70
411.12	1359.85
411.32	1388.52
411.53	1402.86
411.74	1486.83
411.95	1501.16
412.15	1486.83
412.36	1458.15
412.57	1497.07
412.77	1433.58
412.98	1439.72
413.19	1415.15
413.39	1480.68
413.60	1347.56
413.81	1544.17
414.01	1406.95
414.22	1458.15
414.43	1429.48
414.63	1394.67
414.84	1400.81
415.05	1370.09
415.25	1382.38
415.46	1388.52
415.67	1370.09
415.87	1376.24
416.08	1396.71
416.29	1355.76
416.49	1370.09
416.70	1320.94
416.91	1337.32
417.11	1374.19
417.32	1476.59
417.53	1366.00
417.73	1417.19
417.94	1396.71
418.15	1394.67
418.35	1406.95
418.56	1435.63
418.77	1431.53
418.97	1388.52
419.18	1400.81
419.38	1341.42
419.59	1392.62
419.80	1441.77
420.00	1357.80
420.21	1300.46
420.42	1355.76
420.62	1286.12
420.83	1355.76
421.04	1376.24
421.24	1419.24
421.45	1396.71
421.65	1343.47
421.86	1337.32
422.07	1386.47
422.27	1312.75
422.48	1392.62
422.69	1343.47
422.89	1372.14
423.10	1347.56
423.30	1343.47
423.51	1384.43
423.72	1400.81
423.92	1460.20
424.13	1349.61
424.33	1380.33
424.54	1456.11
424.75	1273.84
424.95	1464.30
425.16	1421.29
425.36	1331.18
425.57	1421.29
425.78	1452.01
425.98	1380.33
426.19	1341.42
426.39	1290.22
426.60	1402.86
426.81	1441.77
427.01	1388.52
427.22	1396.71
427.42	1279.98
427.63	1404.91
427.83	1433.58
428.04	1433.58
428.25	1384.43
428.45	1425.39
428.66	1417.19
428.86	1361.90
429.07	1431.53
429.28	1320.94
429.48	1355.76
429.69	1380.33
429.89	1384.43
430.10	1339.37
430.30	1417.19
430.51	1357.80
430.71	1284.08
430.92	1396.71
431.13	1339.37
431.33	1425.39
431.54	1394.67
431.74	1372.14
431.95	1370.09
432.15	1363.95
432.36	1419.24
432.56	1382.38
432.77	1439.72
432.98	1435.63
433.18	1413.10
433.39	1361.90
433.59	1339.37
433.80	1419.24
434.00	1458.15
434.21	1329.13
434.41	1388.52
434.62	1449.96
434.82	1361.90
435.03	1406.95
435.23	1374.19
435.44	1302.51
435.64	1398.76
435.85	1327.08
436.06	1394.67
436.26	1447.91
436.47	1368.04
436.67	1406.95
436.88	1382.38
437.08	1372.14
437.29	1474.54
437.49	1404.91
437.70	1441.77
437.90	1402.86
438.11	1503.21
438.31	1472.49
438.52	1517.54
438.72	1517.54
438.93	1486.83
439.13	1495.02
439.34	1533.93
439.54	1370.09
439.75	1452.01
439.95	1519.59
440.16	1370.09
440.36	1376.24
440.57	1435.63
440.77	1447.91
440.98	1384.43
441.18	1445.87
441.39	1404.91
441.59	1343.47
441.80	1421.29
442.00	1382.38
442.21	1513.45
442.41	1368.04
442.62	1404.91
442.82	1322.99
443.02	1363.95
443.23	1396.71
443.43	1376.24
443.64	1402.86
443.84	1439.72
444.05	1386.47
444.25	1413.10
444.46	1370.09
444.66	1458.15
444.87	1363.95
445.07	1322.99
445.28	1454.06
445.48	1441.77
445.69	1511.40
445.89	1464.30
446.09	1597.42
446.30	2299.87
446.50	3774.41
446.71	4743.10
446.91	5357.49
447.12	5601.19
447.32	4908.98
447.53	4151.23
447.73	3706.82
447.93	3516.36
448.14	3069.91
448.34	2908.12
448.55	2881.49
448.75	2801.62
448.96	2695.13
449.16	2418.65
449.36	2346.97
449.57	1900.52
449.77	1699.81
449.98	1552.36
450.18	1593.32
450.39	1474.54
450.59	1419.24
450.79	1501.16
451.00	1368.04
451.20	1513.45
451.41	1355.76
451.61	1361.90
451.81	1366.00
452.02	1380.33
452.22	1343.47
452.43	1402.86
452.63	1312.75
452.84	1398.76
453.04	1353.71
453.24	1468.39
453.45	1349.61
453.65	1394.67
453.86	1417.19
454.06	1409.00
454.26	1411.05
454.47	1339.37
454.67	1417.19
454.87	1322.99
455.08	1382.38
455.28	1454.06
455.49	1355.76
455.69	1333.23
455.89	1402.86
456.10	1429.48
456.30	1343.47
456.51	1413.10
456.71	1386.47
456.91	1343.47
457.12	1343.47
457.32	1449.96
457.52	1288.17
457.73	1378.28
457.93	1386.47
458.14	1306.60
458.34	1306.60
458.54	1431.53
458.75	1361.90
458.95	1421.29
459.15	1435.63
459.36	1376.24
459.56	1341.42
459.76	1382.38
459.97	1411.05
460.17	1425.39
460.37	1335.28
460.58	1327.08
460.78	1380.33
460.99	1320.94
461.19	1406.95
461.39	1431.53
461.60	1396.71
461.80	1437.67
462.00	1296.36
462.21	1314.80
462.41	1374.19
462.61	1310.70
462.82	1310.70
463.02	1443.82
463.22	1310.70
463.43	1345.52
463.63	1333.23
463.83	1402.86
464.04	1433.58
464.24	1374.19
464.44	1322.99
464.64	1468.39
464.85	1433.58
465.05	1437.67
465.25	1382.38
465.46	1409.00
465.66	1398.76
465.86	1388.52
466.07	1396.71
466.27	1398.76
466.47	1273.84
466.68	1325.04
466.88	1437.67
467.08	1400.81
467.29	1423.34
467.49	1406.95
467.69	1322.99
467.89	1449.96
468.10	1454.06
468.30	1333.23
468.50	1478.63
468.71	1392.62
468.91	1312.75
469.11	1445.87
469.31	1429.48
469.52	1402.86
469.72	1441.77
469.92	1460.20
470.13	1429.48
470.33	1466.35
470.53	1626.09
470.73	2076.64
470.94	2273.25
471.14	2205.66
471.34	2482.14
471.54	2197.47
471.75	2109.41
471.95	1888.23
472.15	1892.32
472.36	1822.69
472.56	1763.30
472.76	1703.91
472.96	1736.68
473.17	1615.85
473.37	1669.09
473.57	1550.31
473.77	1521.64
473.98	1460.20
474.18	1429.48
474.38	1419.24
474.58	1433.58
474.79	1370.09
474.99	1409.00
475.19	1415.15
475.39	1357.80
475.60	1402.86
475.80	1368.04
476.00	1370.09
476.20	1363.95
476.41	1445.87
476.61	1411.05
476.81	1443.82
477.01	1294.32
477.21	1421.29
477.42	1378.28
477.62	1320.94
477.82	1363.95
478.02	1376.24
478.23	1366.00
478.43	1366.00
478.63	1329.13
478.83	1404.91
479.03	1339.37
479.24	1406.95
479.44	1374.19
479.64	1327.08
479.84	1341.42
480.04	1341.42
480.25	1429.48
480.45	1353.71
480.65	1363.95
480.85	1339.37
481.06	1300.46
481.26	1398.76
481.46	1413.10
481.66	1314.80
481.86	1341.42
482.06	1404.91
482.27	1380.33
482.47	1282.03
482.67	1441.77
482.87	1400.81
483.07	1437.67
483.28	1339.37
483.48	1267.69
483.68	1318.89
483.88	1394.67
484.08	1380.33
484.29	1288.17
484.49	1374.19
484.69	1345.52
484.89	1486.83
485.09	1427.43
485.29	1396.71
485.50	1449.96
485.70	1431.53
485.90	1454.06
486.10	1429.48
486.30	1380.33
486.50	1339.37
486.71	1347.56
486.91	1443.82
487.11	1400.81
487.31	1372.14
487.51	1368.04
487.71	1322.99
487.91	1390.57
488.12	1325.04
488.32	1286.12
488.52	1359.85
488.72	1245.16
488.92	1425.39
489.12	1409.00
489.32	1415.15
489.53	1431.53
489.73	1308.65
489.93	1443.82
490.13	1327.08
490.33	1314.80
490.53	1378.28
490.73	1419.24
490.94	1337.32
491.14	1425.39
491.34	1673.19
491.54	2166.75
491.74	2674.65
491.94	2897.88
492.14	3137.49
492.34	3076.05
492.54	2545.63
492.75	2287.58
492.95	2146.27
493.15	2029.54
493.35	2043.87
493.55	1978.34
493.75	1873.89
493.95	1865.70
494.15	1751.01
494.35	1753.06
494.56	1546.22
494.76	1535.98
494.96	1499.11
495.16	1478.63
495.36	1402.86
495.56	1447.91
495.76	1366.00
495.96	1357.80
496.16	1349.61
496.36	1384.43
496.56	1361.90
496.77	1406.95
496.97	1411.05
497.17	1390.57
497.37	1341.42
497.57	1370.09
497.77	1411.05
497.97	1333.23
498.17	1380.33
498.37	1339.37
498.57	1359.85
498.77	1429.48
498.97	1421.29
499.17	1470.44
499.38	1341.42
499.58	1421.29
499.78	1425.39
499.98	1421.29
500.18	1433.58
500.38	1427.43
500.58	1724.39
500.78	2947.03
500.98	5623.72
501.18	6889.37
501.38	8499.07
501.58	8646.52
501.78	7344.02
501.98	5771.18
502.18	5289.90
502.38	4558.78
502.58	4194.24
502.78	3762.12
502.98	3553.23
503.18	3477.45
503.38	3409.87
503.59	3045.33
503.79	2811.86
503.99	2529.24
504.19	2367.45
504.39	2230.24
504.59	2045.92
504.79	1947.62
504.99	1837.03
505.19	1654.76
505.39	1644.52
505.59	1662.95
505.79	1576.94
505.99	1544.17
506.19	1431.53
506.39	1632.23
506.59	1437.67
506.79	1515.50
506.99	1544.17
507.19	1505.26
507.39	1470.44
507.59	1390.57
507.79	1378.28
507.99	1486.83
508.19	1404.91
508.39	1423.34
508.59	1347.56
508.79	1394.67
508.99	1380.33
509.19	1406.95
509.39	1474.54
509.59	1388.52
509.79	1322.99
509.99	1388.52
510.19	1458.15
510.39	1419.24
510.59	1349.61
510.79	1386.47
510.99	1374.19
511.19	1384.43
511.39	1452.01
511.59	1366.00
511.79	1366.00
511.99	1366.00
512.19	1388.52
512.38	1449.96
512.58	1343.47
512.78	1298.41
512.98	1390.57
513.18	1384.43
513.38	1245.16
513.58	1359.85
513.78	1366.00
513.98	1333.23
514.18	1335.28
514.38	1378.28
514.58	1421.29
514.78	1288.17
514.98	1355.76
515.18	1314.80
515.38	1388.52
515.58	1492.97
515.78	1325.04
515.98	1378.28
516.18	1380.33
516.38	1318.89
516.57	1421.29
516.77	1347.56
516.97	1361.90
517.17	1417.19
517.37	1327.08
517.57	1411.05
517.77	1398.76
517.97	1286.12
518.17	1351.66
518.37	1366.00
518.57	1302.51
518.77	1357.80
518.97	1370.09
519.16	1384.43
519.36	1347.56
519.56	1392.62
519.76	1368.04
519.96	1353.71
520.16	1406.95
520.36	1357.80
520.56	1427.43
520.76	1329.13
520.96	1421.29
521.16	1427.43
521.35	1310.70
521.55	1378.28
521.75	1263.60
521.95	1351.66
522.15	1345.52
522.35	1306.60
522.55	1306.60
522.75	1376.24
522.95	1431.53
523.14	1380.33
523.34	1331.18
523.54	1396.71
523.74	1419.24
523.94	1378.28
524.14	1374.19
524.34	1429.48
524.54	1417.19
524.73	1404.91
524.93	1382.38
525.13	1363.95
525.33	1347.56
525.53	1492.97
525.73	1333.23
525.93	1355.76
526.13	1318.89
526.32	1435.63
526.52	1439.72
526.72	1388.52
526.92	1372.14
527.12	1359.85
527.32	1320.94
527.52	1400.81
527.71	1394.67
527.91	1298.41
528.11	1370.09
528.31	1439.72
528.51	1333.23
528.71	1374.19
528.90	1396.71
529.10	1472.49
529.30	1404.91
529.50	1232.88
529.70	1370.09
529.90	1316.84
530.09	1417.19
530.29	1370.09
530.49	1363.95
530.69	1488.87
530.89	1386.47
531.09	1400.81
531.28	1357.80
531.48	1445.87
531.68	1361.90
531.88	1374.19
532.08	1316.84
532.28	1374.19
532.47	1466.35
532.67	1427.43
532.87	1413.10
533.07	1390.57
533.27	1439.72
533.46	1390.57
533.66	1454.06
533.86	1404.91
534.06	1380.33
534.26	1372.14
534.45	1427.43
534.65	1460.20
534.85	1425.39
535.05	1421.29
535.25	1472.49
535.44	1318.89
535.64	1454.06
535.84	1376.24
536.04	1292.27
536.24	1378.28
536.43	1419.24
536.63	1368.04
536.83	1314.80
537.03	1404.91
537.22	1302.51
537.42	1282.03
537.62	1355.76
537.82	1339.37
538.02	1413.10
538.21	1386.47
538.41	1458.15
538.61	1347.56
538.81	1423.34
539.00	1390.57
539.20	1310.70
539.40	1300.46
539.60	1402.86
539.79	1415.15
539.99	1349.61
540.19	1390.57
540.39	1269.74
540.58	1228.78
540.78	1388.52
540.98	1443.82
541.18	1400.81
541.37	1458.15
541.57	1445.87
541.77	1378.28
541.97	1372.14
542.16	1314.80
542.36	1390.57
542.56	1421.29
542.76	1499.11
542.95	1396.71
543.15	1445.87
543.35	1402.86
543.54	1384.43
543.74	1402.86
543.94	1384.43
544.14	1355.76
544.33	1398.76
544.53	1333.23
544.73	1361.90
544.93	1380.33
545.12	1376.24
545.32	1351.66
545.52	1304.56
545.71	1374.19
545.91	1409.00
546.11	1384.43
546.30	1372.14
546.50	1431.53
546.70	1363.95
546.90	1306.60
547.09	1380.33
547.29	1390.57
547.49	1398.76
547.68	1425.39
547.88	1409.00
548.08	1409.00
548.27	1671.14
548.47	1288.17
548.67	1341.42
548.87	1396.71
549.06	1298.41
549.26	1327.08
549.46	1376.24
549.65	1396.71
549.85	1347.56
550.05	1492.97
550.24	1302.51
550.44	1368.04
550.64	1421.29
550.83	1421.29
551.03	1409.00
551.23	1439.72
551.42	1361.90
551.62	1409.00
551.82	1396.71
552.01	1378.28
552.21	1427.43
552.41	1343.47
552.60	1409.00
552.80	1398.76
553.00	1366.00
553.19	1368.04
553.39	1394.67
553.59	1322.99
553.78	1431.53
553.98	1425.39
554.17	1372.14
554.37	1341.42
554.57	1402.86
554.76	1347.56
554.96	1355.76
555.16	1335.28
555.35	1341.42
555.55	1331.18
555.75	1275.88
555.94	1390.57
556.14	1282.03
556.33	1394.67
556.53	1310.70
556.73	1376.24
556.92	1419.24
557.12	1404.91
557.32	1435.63
557.51	1339.37
557.71	1441.77
557.90	1466.35
558.10	1460.20
558.30	1370.09
558.49	1329.13
558.69	1423.34
558.88	1290.22
559.08	1419.24
559.28	1445.87
559.47	1347.56
559.67	1419.24
559.86	1394.67
560.06	1437.67
560.26	1345.52
560.45	1406.95
560.65	1296.36
560.84	1333.23
561.04	1372.14
561.24	1415.15
561.43	1413.10
561.63	1435.63
561.82	1415.15
562.02	1368.04
562.22	1355.76
562.41	1376.24
562.61	1292.27
562.80	1423.34
563.00	1454.06
563.19	1437.67
563.39	1411.05
563.59	1400.81
563.78	1386.47
563.98	1351.66
564.17	1370.09
564.37	1312.75
564.56	1488.87
564.76	1327.08
564.96	1462.25
565.15	1417.19
565.35	1576.94
565.54	1320.94
565.74	1384.43
565.93	1363.95
566.13	1318.89
566.32	1423.34
566.52	1392.62
566.71	1368.04
566.91	1394.67
567.11	1394.67
567.30	1318.89
567.50	1421.29
567.69	1437.67
567.89	1384.43
568.08	1433.58
568.28	1429.48
568.47	1390.57
568.67	1374.19
568.86	1445.87
569.06	1462.25
569.25	1345.52
569.45	1345.52
569.64	1327.08
569.84	1351.66
570.04	1366.00
570.23	1331.18
570.43	1392.62
570.62	1343.47
570.82	1490.92
571.01	1374.19
571.21	1404.91
571.40	1388.52
571.60	1347.56
571.79	1402.86
571.99	1359.85
572.18	1378.28
572.38	1396.71
572.57	1366.00
572.77	1427.43
572.96	1417.19
573.16	1386.47
573.35	1384.43
573.55	1386.47
573.74	1386.47
573.94	1357.80
574.13	1384.43
574.33	1423.34
574.52	1417.19
574.71	1476.59
574.91	1482.73
575.10	1361.90
575.30	1413.10
575.49	1359.85
575.69	1394.67
575.88	1466.35
576.08	1435.63
576.27	1515.50
576.47	1449.96
576.66	1474.54
576.86	1513.45
577.05	1427.43
577.25	1394.67
577.44	1492.97
577.64	1378.28
577.83	1437.67
578.02	1406.95
578.22	1501.16
578.41	1386.47
578.61	1429.48
578.80	1374.19
579.00	1402.86
579.19	1415.15
579.39	1400.81
579.58	1435.63
579.77	1409.00
579.97	1511.40
580.16	1470.44
580.36	1523.69
580.55	1462.25
580.75	1439.72
580.94	1347.56
581.13	1458.15
581.33	1441.77
581.52	1402.86
581.72	1509.35
581.91	1564.65
582.11	1519.59
582.30	1480.68
582.49	1437.67
582.69	1515.50
582.88	1429.48
583.08	1439.72
583.27	1470.44
583.47	1396.71
583.66	1458.15
583.85	1429.48
584.05	1433.58
584.24	1437.67
584.44	1413.10
584.63	1542.12
584.82	1499.11
585.02	1464.30
585.21	1587.18
585.41	1531.88
585.60	1605.61
585.79	1716.20
585.99	1621.99
586.18	1583.08
586.37	1871.84
586.57	2762.71
586.76	7870.34
586.96	24184.46
587.15	41837.95
587.34	52425.95
587.54	60144.75
587.73	59575.41
587.93	44934.48
588.12	32691.73
588.31	26732.14
588.51	22877.86
588.70	20039.37
588.89	18280.17
589.09	17194.75
589.28	15978.25
589.47	14245.67
589.67	12490.56
589.86	10739.55
590.06	8744.83
590.25	6733.72
590.44	4992.95
590.64	3733.45
590.83	2914.26
591.02	2279.39
591.22	1865.70
591.41	1779.68
591.60	1613.80
591.80	1630.18
591.99	1519.59
592.18	1435.63
592.38	1419.24
592.57	1423.34
592.76	1505.26
592.96	1449.96
593.15	1470.44
593.34	1464.30
593.54	1439.72
593.73	1486.83
593.92	1548.26
594.12	1409.00
594.31	1472.49
594.50	1499.11
594.70	1400.81
594.89	1568.74
595.08	1361.90
595.28	1411.05
595.47	1570.79
595.66	1482.73
595.86	1345.52
596.05	1429.48
596.24	1368.04
596.43	1505.26
596.63	1470.44
596.82	1423.34
597.01	1468.39
597.21	1556.46
597.40	1427.43
597.59	1372.14
597.79	1439.72
597.98	1527.78
598.17	1439.72
598.36	1392.62
598.56	1437.67
598.75	1402.86
598.94	1406.95
599.14	1388.52
599.33	1366.00
599.52	1355.76
599.71	1404.91
599.91	1460.20
600.10	1497.07
600.29	1447.91
600.48	1347.56
600.68	1363.95
600.87	1466.35
601.06	1353.71
601.26	1390.57
601.45	1454.06
601.64	1411.05
601.83	1384.43
602.03	1406.95
602.22	1368.04
602.41	1472.49
602.60	1501.16
602.80	1445.87
602.99	1361.90
603.18	1318.89
603.37	1388.52
603.57	1452.01
603.76	1388.52
603.95	1435.63
604.14	1333.23
604.34	1427.43
604.53	1419.24
604.72	1363.95
604.91	1468.39
605.10	1390.57
605.30	1329.13
605.49	1470.44
605.68	1398.76
605.87	1454.06
606.07	1382.38
606.26	1349.61
606.45	1378.28
606.64	1388.52
606.84	1374.19
607.03	1466.35
607.22	1490.92
607.41	1396.71
607.60	1372.14
607.80	1480.68
607.99	1347.56
608.18	1404.91
608.37	1425.39
608.56	1345.52
608.76	1392.62
608.95	1470.44
609.14	1474.54
609.33	1404.91
609.52	1552.36
609.72	1480.68
609.91	1507.30
610.10	1488.87
610.29	1449.96
610.48	1394.67
610.68	1347.56
610.87	1357.80
611.06	1423.34
611.25	1331.18
611.44	1441.77
611.63	1322.99
611.83	1409.00
612.02	1366.00
612.21	1460.20
612.40	1411.05
612.59	1314.80
612.79	1388.52
612.98	1329.13
613.17	1478.63
613.36	1353.71
613.55	1535.98
613.74	1476.59
613.93	1484.78
614.13	1624.04
614.32	1578.98
614.51	1681.38
614.70	1519.59
614.89	1458.15
615.08	1486.83
615.28	1650.66
615.47	1449.96
615.66	1433.58
615.85	1490.92
616.04	1552.36
616.23	1468.39
616.42	1417.19
616.62	1449.96
616.81	1490.92
617.00	1411.05
617.19	1411.05
617.38	1429.48
617.57	1478.63
617.76	1361.90
617.95	1396.71
618.15	1425.39
618.34	1492.97
618.53	1431.53
618.72	1433.58
618.91	1443.82
619.10	1495.02
619.29	1374.19
619.48	1443.82
619.68	1339.37
619.87	1382.38
620.06	1376.24
620.25	1419.24
620.44	1421.29
620.63	1273.84
620.82	1359.85
621.01	1392.62
621.20	1345.52
621.39	1433.58
621.59	1452.01
621.78	1402.86
621.97	1452.01
622.16	1427.43
622.35	1359.85
622.54	1398.76
622.73	1402.86
622.92	1318.89
623.11	1384.43
623.30	1417.19
623.49	1460.20
623.68	1415.15
623.88	1370.09
624.07	1327.08
624.26	1392.62
624.45	1390.57
624.64	1398.76
624.83	1316.84
625.02	1327.08
625.21	1333.23
625.40	1372.14
625.59	1435.63
625.78	1343.47
625.97	1392.62
626.16	1499.11
626.35	1374.19
626.54	1429.48
626.74	1513.45
626.93	1458.15
627.12	1411.05
627.31	1398.76
627.50	1394.67
627.69	1421.29
627.88	1296.36
628.07	1441.77
628.26	1386.47
628.45	1359.85
628.64	1363.95
628.83	1357.80
629.02	1337.32
629.21	1396.71
629.40	1456.11
629.59	1318.89
629.78	1400.81
629.97	1415.15
630.16	1456.11
630.35	1413.10
630.54	1445.87
630.73	1396.71
630.92	1398.76
631.11	1406.95
631.30	1288.17
631.49	1370.09
631.68	1402.86
631.87	1419.24
632.06	1343.47
632.25	1488.87
632.44	1402.86
632.63	1388.52
632.82	1447.91
633.01	1429.48
633.20	1507.30
633.39	1492.97
633.58	1421.29
633.77	1581.03
633.96	1492.97
634.15	1456.11
634.34	1435.63
634.53	1378.28
634.72	1363.95
634.91	1404.91
635.10	1431.53
635.29	1470.44
635.48	1515.50
635.67	1286.12
635.86	1271.79
636.05	1353.71
636.24	1402.86
636.43	1337.32
636.62	1447.91
636.81	1263.60
637.00	1392.62
637.19	1372.14
637.38	1390.57
637.57	1355.76
637.76	1419.24
637.95	1501.16
638.14	1478.63
638.33	1490.92
638.52	1544.17
638.71	1417.19
638.89	1345.52
639.08	1585.13
639.27	1466.35
639.46	1531.88
639.65	1740.77
639.84	1812.45
640.03	2037.73
640.22	1996.77
640.41	2209.76
640.60	1933.28
640.79	1705.96
640.98	1693.67
641.17	1626.09
641.36	1574.89
641.55	1556.46
641.74	1515.50
641.92	1533.93
642.11	1460.20
642.30	1472.49
642.49	1366.00
642.68	1462.25
642.87	1443.82
643.06	1413.10
643.25	1411.05
643.44	1359.85
643.63	1376.24
643.82	1472.49
644.00	1392.62
644.19	1355.76
644.38	1353.71
644.57	1404.91
644.76	1363.95
644.95	1339.37
645.14	1411.05
645.33	1380.33
645.52	1347.56
645.71	1382.38
645.89	1243.12
646.08	1380.33
646.27	1271.79
646.46	1425.39
646.65	1316.84
646.84	1392.62
647.03	1349.61
647.22	1462.25
647.40	1304.56
647.59	1413.10
647.78	1386.47
647.97	1343.47
648.16	1331.18
648.35	1419.24
648.54	1425.39
648.73	1394.67
648.91	1441.77
649.10	1349.61
649.29	1251.31
649.48	1359.85
649.67	1433.58
649.86	1347.56
650.05	1406.95
650.23	1495.02
650.42	1513.45
650.61	1595.37
650.80	1523.69
650.99	1642.47
651.18	1552.36
651.36	1431.53
651.55	1398.76
651.74	1460.20
651.93	1394.67
652.12	1423.34
652.31	1380.33
652.49	1368.04
652.68	1384.43
652.87	1470.44
653.06	1400.81
653.25	1462.25
653.44	1429.48
653.62	1400.81
653.81	1372.14
654.00	1443.82
654.19	1372.14
654.38	1466.35
654.56	1351.66
654.75	1269.74
654.94	1359.85
655.13	1458.15
655.32	1368.04
655.51	1413.10
655.69	1368.04
655.88	1376.24
656.07	1339.37
656.26	1357.80
656.45	1390.57
656.63	1462.25
656.82	1458.15
657.01	1392.62
657.20	1310.70
657.38	1384.43
657.57	1472.49
657.76	1345.52
657.95	1335.28
658.14	1363.95
658.32	1310.70
658.51	1308.65
658.70	1325.04
658.89	1333.23
659.08	1370.09
659.26	1382.38
659.45	1335.28
659.64	1476.59
659.83	1406.95
660.01	1517.54
660.20	1458.15
660.39	1501.16
660.58	1396.71
660.76	1421.29
660.95	1288.17
661.14	1423.34
661.33	1368.04
661.51	1423.34
661.70	1404.91
661.89	1306.60
662.08	1447.91
662.26	1366.00
662.45	1382.38
662.64	1345.52
662.83	1380.33
663.01	1337.32
663.20	1302.51
663.39	1404.91
663.58	1327.08
663.76	1327.08
663.95	1439.72
664.14	1327.08
664.32	1361.90
664.51	1341.42
664.70	1292.27
664.89	1394.67
665.07	1298.41
665.26	1429.48
665.45	1322.99
665.64	1351.66
665.82	1349.61
666.01	1441.77
666.20	1415.15
666.38	1433.58
666.57	1429.48
666.76	1546.22
666.95	2004.96
667.13	4515.77
667.32	11554.64
667.51	17966.83
667.69	21679.80
667.88	24934.02
668.07	24813.19
668.25	19191.52
668.44	13975.34
668.63	11343.70
668.81	9107.32
669.00	8064.90
669.19	7573.39
669.38	6934.42
669.56	6311.84
669.75	5646.25
669.94	5013.43
670.12	4218.82
670.31	3444.68
670.50	2965.46
670.68	2349.02
670.87	2086.88
671.06	1826.79
671.24	1714.15
671.43	1640.42
671.62	1560.55
671.80	1486.83
671.99	1499.11
672.18	1476.59
672.36	1443.82
672.55	1495.02
672.74	1433.58
672.92	1372.14
673.11	1482.73
673.29	1318.89
673.48	1376.24
673.67	1325.04
673.85	1441.77
674.04	1351.66
674.23	1386.47
674.41	1470.44
674.60	1320.94
674.79	1386.47
674.97	1322.99
675.16	1366.00
675.34	1452.01
675.53	1351.66
675.72	1423.34
675.90	1421.29
676.09	1335.28
676.28	1415.15
676.46	1361.90
676.65	1386.47
676.83	1349.61
677.02	1339.37
677.21	1413.10
677.39	1347.56
677.58	1372.14
677.77	1366.00
677.95	1363.95
678.14	1380.33
678.32	1466.35
678.51	1404.91
678.70	1441.77
678.88	1384.43
679.07	1456.11
679.25	1421.29
679.44	1372.14
679.63	1329.13
679.81	1386.47
680.00	1507.30
680.18	1384.43
680.37	1413.10
680.55	1413.10
680.74	1327.08
680.93	1320.94
681.11	1370.09
681.30	1411.05
681.48	1306.60
681.67	1390.57
681.85	1361.90
682.04	1339.37
682.23	1406.95
682.41	1413.10
682.60	1320.94
682.78	1296.36
682.97	1296.36
683.15	1353.71
683.34	1347.56
683.53	1411.05
683.71	1294.32
683.90	1427.43
684.08	1433.58
684.27	1411.05
684.45	1411.05
684.64	1384.43
684.82	1398.76
685.01	1372.14
685.19	1409.00
685.38	1429.48
685.57	1357.80
685.75	1374.19
685.94	1374.19
686.12	1345.52
686.31	1404.91
686.49	1462.25
686.68	1316.84
686.86	1462.25
687.05	1415.15
687.23	1449.96
687.42	1335.28
687.60	1277.93
687.79	1406.95
687.97	1482.73
688.16	1376.24
688.34	1400.81
688.53	1286.12
688.71	1392.62
688.90	1439.72
689.08	1353.71
689.27	1253.36
689.45	1415.15
689.64	1318.89
689.82	1359.85
690.01	1374.19
690.19	1445.87
690.38	1372.14
690.56	1384.43
690.75	1314.80
690.93	1335.28
691.12	1335.28
691.30	1374.19
691.49	1396.71
691.67	1359.85
691.86	1443.82
692.04	1361.90
692.23	1327.08
692.41	1435.63
692.60	1454.06
692.78	1470.44
692.97	1427.43
693.15	1497.07
693.34	1507.30
693.52	1466.35
693.71	1437.67
693.89	1409.00
694.08	1341.42
694.26	1417.19
694.44	1400.81
694.63	1439.72
694.81	1355.76
695.00	1384.43
695.18	1349.61
695.37	1413.10
695.55	1357.80
695.74	1329.13
695.92	1370.09
696.10	1441.77
696.29	1368.04
696.47	1411.05
696.66	1353.71
696.84	1284.08
697.03	1300.46
697.21	1419.24
697.40	1734.63
697.58	1452.01
697.76	1402.86
697.95	1329.13
698.13	1308.65
698.32	1288.17
698.50	1374.19
698.68	1345.52
698.87	1349.61
699.05	1390.57
699.24	1361.90
699.42	1318.89
699.61	1398.76
699.79	1372.14
699.97	1341.42
700.16	1359.85
700.34	1347.56
700.53	1359.85
700.71	1435.63
700.89	1388.52
701.08	1345.52
701.26	1447.91
701.45	1636.33
701.63	1376.24
701.81	1441.77
702.00	1380.33
702.18	1378.28
702.37	1380.33
702.55	1413.10
702.73	1490.92
702.92	1511.40
703.10	1710.05
703.28	1560.55
703.47	1640.42
703.65	1697.77
703.84	1576.94
704.02	1550.31
704.20	1495.02
704.39	1433.58
704.57	1460.20
704.75	1427.43
704.94	1462.25
705.12	1460.20
705.30	1429.48
705.49	1566.70
705.67	1714.15
705.86	3540.94
706.04	9168.76
706.22	16281.35
706.41	19697.36
706.59	22488.74
706.77	23817.88
706.96	20076.24
707.14	14067.50
707.32	11407.19
707.51	9303.92
707.69	8159.11
707.87	7403.41
708.06	6707.10
708.24	6094.76
708.42	5115.83
708.61	4067.27
708.79	3053.52
708.97	2445.27
709.16	1951.71
709.34	1761.25
709.52	1615.85
709.71	1527.78
709.89	1533.93
710.07	1388.52
710.26	1435.63
710.44	1452.01
710.62	1394.67
710.80	1427.43
710.99	1384.43
711.17	1310.70
711.35	1445.87
711.54	1386.47
711.72	1419.24
711.90	1411.05
712.09	1386.47
712.27	1404.91
712.45	1413.10
712.63	1265.64
712.82	1310.70
713.00	1384.43
713.18	1433.58
713.37	1394.67
713.55	1384.43
713.73	1384.43
713.91	1394.67
714.10	1398.76
714.28	1390.57
714.46	1378.28
714.65	1361.90
714.83	1433.58
715.01	1417.19
715.19	1378.28
715.38	1400.81
715.56	1413.10
715.74	1351.66
715.92	1460.20
716.11	1409.00
716.29	1351.66
716.47	1411.05
716.65	1312.75
716.84	1247.21
717.02	1454.06
717.20	1298.41
717.38	1370.09
717.57	1425.39
717.75	1282.03
717.93	1368.04
718.11	1433.58
718.30	1363.95
718.48	1396.71
718.66	1435.63
718.84	1456.11
719.03	1331.18
719.21	1318.89
719.39	1351.66
719.57	1411.05
719.75	1437.67
719.94	1277.93
720.12	1366.00
720.30	1322.99
720.48	1363.95
720.67	1372.14
720.85	1378.28
721.03	1251.31
721.21	1296.36
721.39	1429.48
721.58	1398.76
721.76	1368.04
721.94	1402.86
722.12	1353.71
722.30	1400.81
722.49	1351.66
722.67	1376.24
722.85	1378.28
723.03	1333.23
723.21	1329.13
723.40	1392.62
723.58	1413.10
723.76	1372.14
723.94	1474.54
724.12	1470.44
724.30	1529.83
724.49	1439.72
724.67	1462.25
724.85	1597.42
725.03	1392.62
725.21	1394.67
725.40	1431.53
725.58	1347.56
725.76	1454.06
725.94	1359.85
726.12	1320.94
726.30	1478.63
726.49	1302.51
726.67	1308.65
726.85	1347.56
727.03	1343.47
727.21	1456.11
727.39	1546.22
727.57	2033.63
727.76	3436.49
727.94	4478.91
728.12	4874.17
728.30	5363.63
728.48	5121.97
728.66	4251.58
728.84	3393.48
729.03	3041.23
729.21	2717.65
729.39	2652.12
729.57	2285.53
729.75	1906.66
729.93	1800.16
730.11	1572.84
730.30	1511.40
730.48	1435.63
730.66	1445.87
730.84	1415.15
731.02	1445.87
731.20	1396.71
731.38	1390.57
731.56	1306.60
731.74	1333.23
731.93	1339.37
732.11	1384.43
732.29	1329.13
732.47	1382.38
732.65	1392.62
732.83	1476.59
733.01	1347.56
733.19	1300.46
733.37	1337.32
733.56	1376.24
733.74	1341.42
733.92	1447.91
734.10	1363.95
734.28	1413.10
734.46	1320.94
734.64	1347.56
734.82	1341.42
735.00	1347.56
735.18	1353.71
735.36	1386.47
735.54	1400.81
735.73	1304.56
735.91	1411.05
736.09	1445.87
736.27	1341.42
736.45	1449.96
736.63	1339.37
736.81	1359.85
736.99	1425.39
737.17	1462.25
737.35	1331.18
737.53	1343.47
737.71	1341.42
737.89	1474.54
738.07	1366.00
738.25	1366.00
738.43	1335.28
738.61	1386.47
738.80	1320.94
738.98	1277.93
739.16	1337.32
739.34	1368.04
739.52	1458.15
739.70	1419.24
739.88	1445.87
740.06	1378.28
740.24	1259.50
740.42	1318.89
740.60	1288.17
740.78	1351.66
740.96	1288.17
741.14	1347.56
741.32	1351.66
741.50	1228.78
741.68	1372.14
741.86	1460.20
742.04	1368.04
742.22	1341.42
742.40	1366.00
742.58	1357.80
742.76	1341.42
742.94	1376.24
743.12	1308.65
743.30	1349.61
743.48	1359.85
743.66	1341.42
743.84	1468.39
744.02	1368.04
744.20	1472.49
744.38	1368.04
744.56	1359.85
744.74	1417.19
744.92	1411.05
745.10	1480.68
745.28	1439.72
745.46	1454.06
745.64	1296.36
745.82	1417.19
746.00	1447.91
746.18	1439.72
746.36	1351.66
746.54	1413.10
746.72	1241.07
746.90	1357.80
747.08	1382.38
747.26	1333.23
747.44	1421.29
747.62	1392.62
747.80	1329.13
747.98	1419.24
748.15	1468.39
748.33	1357.80
748.51	1290.22
748.69	1400.81
748.87	1396.71
749.05	1296.36
749.23	1421.29
749.41	1384.43
749.59	1363.95
749.77	1427.43
749.95	1302.51
750.13	1398.76
750.31	1345.52
750.49	1417.19
750.67	1404.91
750.85	1409.00
751.03	1372.14
751.20	1411.05
751.38	1361.90
751.56	1308.65
751.74	1314.80
751.92	1329.13
752.10	1314.80
752.28	1310.70
752.46	1318.89
752.64	1353.71
752.82	1380.33
753.00	1441.77
753.18	1316.84
753.35	1374.19
753.53	1419.24
753.71	1331.18
753.89	1429.48
754.07	1363.95
754.25	1466.35
754.43	1413.10
754.61	1314.80
754.79	1376.24
754.97	1384.43
755.14	1447.91
755.32	1318.89
755.50	1366.00
755.68	1378.28
755.86	1327.08
756.04	1413.10
756.22	1228.78
756.40	1427.43
756.57	1454.06
756.75	1339.37
756.93	1384.43
757.11	1452.01
757.29	1409.00
757.47	1359.85
757.65	1251.31
757.82	1261.55
758.00	1347.56
758.18	1243.12
758.36	1325.04
758.54	1374.19
758.72	1308.65
758.90	1343.47
759.07	1341.42
759.25	1304.56
759.43	1394.67
759.61	1353.71
759.79	1705.96
759.97	1333.23
760.15	1384.43
760.32	1435.63
760.50	1353.71
760.68	1400.81
760.86	1298.41
761.04	1357.80
761.22	1384.43
761.39	1368.04
761.57	1378.28
761.75	1357.80
761.93	1413.10
762.11	1333.23
762.28	1374.19
762.46	1353.71
762.64	1433.58
762.82	1314.80
763.00	1345.52
763.18	1409.00
763.35	1251.31
763.53	1392.62
763.71	1394.67
763.89	1347.56
764.07	1359.85
764.24	1363.95
764.42	1374.19
764.60	1353.71
764.78	1425.39
764.96	1419.24
765.13	1441.77
765.31	1308.65
765.49	1392.62
765.67	1322.99
765.84	1341.42
766.02	1355.76
766.20	1286.12
766.38	1374.19
766.56	1361.90
766.73	1419.24
766.91	1310.70
767.09	1431.53
767.27	1327.08
767.44	1282.03
767.62	1353.71
767.80	1431.53
767.98	1380.33
768.15	1318.89
768.33	1380.33
768.51	1349.61
768.69	1449.96
768.87	1398.76
769.04	1409.00
769.22	1456.11
769.40	1458.15
769.58	1433.58
769.75	1392.62
769.93	1433.58
770.11	1361.90
770.28	1376.24
770.46	1353.71
770.64	1380.33
770.82	1382.38
770.99	1388.52
771.17	1392.62
771.35	1347.56
771.53	1398.76
771.70	1290.22
771.88	1447.91
772.06	1357.80
772.23	1366.00
772.41	1437.67
772.59	1325.04
772.77	1318.89
772.94	1296.36
773.12	1437.67
773.30	1392.62
773.47	1310.70
773.65	1382.38
773.83	1427.43
774.01	1380.33
774.18	1312.75
774.36	1431.53
774.54	1302.51
774.71	1439.72
774.89	1290.22
775.07	1298.41
775.24	1312.75
775.42	1325.04
775.60	1368.04
775.78	1370.09
775.95	1279.98
776.13	1337.32
776.31	1320.94
776.48	1382.38
776.66	1431.53
776.84	1357.80
777.01	1347.56
777.19	1359.85
777.37	1376.24
777.54	1433.58
777.72	1480.68
777.90	1339.37
778.07	1314.80
778.25	1470.44
778.43	1398.76
778.60	1368.04
778.78	1390.57
778.96	1445.87
779.13	1263.60
779.31	1382.38
779.49	1312.75
779.66	1351.66
779.84	1396.71
780.01	1349.61
780.19	1331.18
780.37	1417.19
780.54	1312.75
780.72	1286.12
780.90	1314.80
781.07	1376.24
781.25	1355.76
781.43	1462.25
781.60	1380.33
781.78	1435.63
781.95	1396.71
782.13	1306.60
782.31	1345.52
782.48	1277.93
782.66	1353.71
782.83	1501.16
783.01	1372.14
783.19	1452.01
783.36	1341.42
783.54	1329.13
783.72	1417.19
783.89	1398.76
784.07	1392.62
784.24	1396.71
784.42	1421.29
784.60	1339.37
784.77	1349.61
784.95	1331.18
785.12	1361.90
785.30	1388.52
785.47	1398.76
785.65	1392.62
785.83	1304.56
786.00	1263.60
786.18	1314.80
786.35	1294.32
786.53	1337.32
786.71	1388.52
786.88	1335.28
787.06	1368.04
787.23	1361.90
787.41	1372.14
787.58	1361.90
787.76	1308.65
787.94	1380.33
788.11	1306.60
788.29	1292.27
788.46	1357.80
788.64	1337.32
788.81	1288.17
788.99	1372.14
789.16	1232.88
789.34	1361.90
789.52	1402.86
789.69	1339.37
789.87	1302.51
790.04	1355.76
790.22	1343.47
790.39	1490.92
790.57	1261.55
790.74	1361.90
790.92	1411.05
791.09	1300.46
791.27	1386.47
791.44	1409.00
791.62	1349.61
791.79	1351.66
791.97	1388.52
792.15	1419.24
792.32	1411.05
792.50	1464.30
792.67	1443.82
792.85	1419.24
793.02	1404.91
793.20	1335.28
793.37	1390.57
793.55	1343.47
793.72	1322.99
793.90	1366.00
794.07	1339.37
794.25	1345.52
794.42	1325.04
794.60	1329.13
794.77	1378.28
794.95	1382.38
795.12	1325.04
795.30	1413.10
795.47	1308.65
795.65	1415.15
795.82	1345.52
796.00	1394.67
796.17	1441.77
796.34	1335.28
796.52	1366.00
796.69	1419.24
796.87	1482.73
797.04	1404.91
797.22	1355.76
797.39	1388.52
797.57	1361.90
797.74	1380.33
797.92	1368.04
798.09	1294.32
798.27	1341.42
798.44	1355.76
798.62	1341.42
798.79	1421.29
798.96	1380.33
799.14	1380.33
799.31	1425.39
799.49	1417.19
799.66	1370.09
799.84	1394.67
800.01	1341.42
800.19	1441.77
800.36	1290.22
800.53	1374.19
800.71	1382.38
800.88	1368.04
801.06	1427.43
801.23	1333.23
801.41	1390.57
801.58	1339.37
801.75	1320.94
801.93	1339.37
802.10	1329.13
802.28	1290.22
802.45	1366.00
802.63	1351.66
802.80	1466.35
802.97	1316.84
803.15	1386.47
803.32	1398.76
803.50	1363.95
803.67	1314.80
803.84	1372.14
804.02	1312.75
804.19	1390.57
804.37	1286.12
804.54	1302.51
804.71	1325.04
804.89	1417.19
805.06	1300.46
805.24	1347.56
805.41	1298.41
805.58	1333.23
805.76	1431.53
805.93	1441.77
806.10	1417.19
806.28	1404.91
806.45	1415.15
806.63	1339.37
806.80	1398.76
806.97	1370.09
807.15	1392.62
807.32	1394.67
807.49	1372.14
807.67	1345.52
807.84	1306.60
808.01	1275.88
808.19	1423.34
808.36	1486.83
808.54	1413.10
808.71	1363.95
808.88	1353.71
809.06	1490.92
809.23	1353.71
809.40	1331.18
809.58	1480.68
809.75	1349.61
809.92	1267.69
810.10	1427.43
810.27	1345.52
810.44	1396.71
810.62	1388.52
810.79	1392.62
810.96	1378.28
811.14	1325.04
811.31	1404.91
811.48	1376.24
811.66	1341.42
811.83	1363.95
812.00	1359.85
812.18	1329.13
812.35	1443.82
812.52	1296.36
812.69	1370.09
812.87	1398.76
813.04	1423.34
813.21	1456.11
813.39	1411.05
813.56	1345.52
813.73	1357.80
813.91	1353.71
814.08	1345.52
814.25	1353.71
814.42	1290.22
814.60	1429.48
814.77	1411.05
814.94	1398.76
815.12	1304.56
815.29	1492.97
815.46	1296.36
815.63	1398.76
815.81	1347.56
815.98	1333.23
816.15	1361.90
816.33	1327.08
816.50	1343.47
816.67	1261.55
816.84	1277.93
817.02	1306.60
817.19	1361.90
817.36	1404.91
817.53	1380.33
817.71	1355.76
817.88	1374.19
818.05	1398.76
818.22	1390.57
818.40	1388.52
818.57	1409.00
818.74	1392.62
818.91	1413.10
819.09	1355.76
819.26	1374.19
819.43	1359.85
819.60	1327.08
819.78	1329.13
819.95	1366.00
820.12	1314.80
820.29	1415.15
820.47	1382.38
820.64	1308.65
820.81	1349.61
820.98	1320.94
821.15	1267.69
821.33	1525.74
821.50	1374.19
821.67	1400.81
821.84	1271.79
822.02	1411.05
822.19	1478.63
822.36	1351.66
822.53	1361.90
822.70	1298.41
822.88	1345.52
823.05	1402.86
823.22	1366.00
823.39	1333.23
823.56	1275.88
823.74	1427.43
823.91	1273.84
824.08	1396.71
824.25	1320.94
824.42	1372.14
824.60	1325.04
824.77	1388.52
824.94	1306.60
825.11	1409.00
825.28	1370.09
825.45	1386.47
825.63	1296.36
825.80	1394.67
825.97	1353.71
826.14	1296.36
826.31	1296.36
826.48	1347.56
826.66	1339.37
826.83	1320.94
827.00	1347.56
827.17	1388.52
827.34	1370.09
827.51	1411.05
827.69	1282.03
827.86	1355.76
828.03	1378.28
828.20	1347.56
828.37	1325.04
828.54	1443.82
828.71	1329.13
828.89	1425.39
829.06	1384.43
829.23	1409.00
829.40	1320.94
829.57	1390.57
829.74	1458.15
829.91	1355.76
830.09	1339.37
830.26	1359.85
830.43	1409.00
830.60	1351.66
830.77	1359.85
830.94	1400.81
831.11	1378.28
831.28	1355.76
831.46	1382.38
831.63	1359.85
831.80	1425.39
831.97	1320.94
832.14	1376.24
832.31	1409.00
832.48	1345.52
832.65	1351.66
832.82	1394.67
832.99	1413.10
833.17	1286.12
833.34	1382.38
833.51	1433.58
833.68	1318.89
833.85	1394.67
834.02	1292.27
834.19	1298.41
834.36	1370.09
834.53	1366.00
834.70	1368.04
834.87	1409.00
835.04	1378.28
835.22	1380.33
835.39	1361.90
835.56	1320.94
835.73	1351.66
835.90	1427.43
836.07	1322.99
836.24	1382.38
836.41	1349.61
836.58	1298.41
836.75	1411.05
836.92	1300.46
837.09	1277.93
837.26	1411.05
837.43	1396.71
837.60	1327.08
837.77	1351.66
837.94	1363.95
838.12	1433.58
838.29	1392.62
838.46	1288.17
838.63	1413.10
838.80	1417.19
838.97	1392.62
839.14	1298.41
839.31	1363.95
839.48	1380.33
839.65	1406.95
839.82	1394.67
839.99	1337.32
840.16	1415.15
840.33	1411.05
840.50	1302.51
840.67	1406.95
840.84	1374.19
841.01	1366.00
841.18	1384.43
841.35	1273.84
841.52	1427.43
841.69	1427.43
841.86	1345.52
842.03	1341.42
842.20	1347.56
842.37	1361.90
842.54	1388.52
842.71	1363.95
842.88	1380.33
843.05	1435.63
843.22	1347.56
843.39	1427.43
843.56	1306.60
843.73	1419.24
843.90	1374.19
844.07	1402.86
844.24	1366.00
844.41	1384.43
844.58	1419.24
844.75	1339.37
844.92	1341.42
845.09	1341.42
845.26	1335.28
845.43	1388.52
845.60	1345.52
845.77	1353.71
845.94	1304.56
846.10	1337.32
846.27	1286.12
846.44	1275.88
846.61	1296.36
846.78	1353.71
846.95	1378.28
847.12	1386.47
847.29	1339.37
847.46	1298.41
847.63	1406.95
847.80	1411.05
847.97	1333.23
848.14	1519.59
848.31	1384.43
848.48	1357.80
848.65	1396.71
848.82	1404.91
848.98	1437.67
849.15	1423.34
849.32	1406.95
849.49	1435.63
849.66	1312.75
849.83	1402.86
850.00	1316.84
850.17	1390.57
850.34	1376.24
850.51	1329.13
850.68	1331.18
850.85	1480.68
851.01	1327.08
851.18	1320.94
851.35	1374.19
851.52	1363.95
851.69	1454.06
851.86	1306.60
852.03	1331.18
852.20	1347.56
852.37	1368.04
852.53	1378.28
852.70	1413.10
852.87	1376.24
853.04	1443.82
853.21	1296.36
853.38	1462.25
853.55	1386.47
853.72	1355.76
853.89	1327.08
854.05	1325.04
854.22	1306.60
854.39	1394.67
854.56	1370.09
854.73	1413.10
854.90	1247.21
855.07	1378.28
855.23	1388.52
855.40	1310.70
855.57	1314.80
855.74	1302.51
855.91	1484.78
856.08	1380.33
856.25	1312.75
856.41	1384.43
856.58	1392.62
856.75	1372.14
856.92	1310.70
857.09	1398.76
857.26	1335.28
857.42	1384.43
857.59	1441.77
857.76	1437.67
857.93	1343.47
858.10	1316.84
858.27	1325.04
858.43	1374.19
858.60	1331.18
858.77	1320.94
858.94	1411.05
859.11	1345.52
859.27	1366.00
859.44	1345.52
859.61	1409.00
859.78	1396.71
859.95	1343.47
860.12	1314.80
860.28	1386.47
860.45	1415.15
860.62	1406.95
860.79	1363.95
860.95	1322.99
861.12	1310.70
861.29	1343.47
861.46	1359.85
861.63	1372.14
861.79	1327.08
861.96	1296.36
862.13	1337.32
862.30	1464.30
862.47	1316.84
862.63	1359.85
862.80	1413.10
862.97	1398.76
863.14	1333.23
863.30	1384.43
863.47	1400.81
863.64	1363.95
863.81	1353.71
863.97	1345.52
864.14	1355.76
864.31	1265.64
864.48	1439.72
864.65	1259.50
864.81	1390.57
864.98	1388.52
865.15	1357.80
865.32	1384.43
865.48	1325.04
865.65	1386.47
865.82	1327.08
865.98	1386.47
866.15	1370.09
866.32	1312.75
866.49	1368.04
866.65	1411.05
866.82	1380.33
866.99	1366.00
867.16	1363.95
867.32	1376.24
867.49	1462.25
867.66	1341.42
867.83	1300.46
867.99	1341.42
868.16	1339.37
868.33	1312.75
868.49	1386.47
868.66	1458.15
868.83	1355.76
868.99	1411.05
869.16	1370.09
869.33	1454.06
869.50	1396.71
869.66	1363.95
869.83	1382.38
870.00	1347.56
870.16	1404.91
870.33	1400.81
870.50	1386.47
870.66	1433.58
870.83	1425.39
871.00	1411.05
871.17	1345.52
871.33	1370.09
871.50	1294.32
871.67	1363.95
871.83	1343.47
872.00	1460.20
872.17	1380.33
872.33	1454.06
872.50	1429.48
872.67	1415.15
872.83	1380.33
873.00	1359.85
873.17	1366.00
873.33	1339.37
873.50	1372.14
873.67	1411.05
873.83	1302.51
874.00	1368.04
874.16	1415.15
874.33	1406.95
874.50	1306.60
874.66	1359.85
874.83	1437.67
875.00	1384.43
875.16	1357.80
875.33	1376.24
875.50	1322.99
875.66	1337.32
875.83	1456.11
875.99	1372.14
876.16	1417.19
876.33	1384.43
876.49	1462.25
876.66	1275.88
876.83	1345.52
876.99	1232.88
877.16	1347.56
877.32	1353.71
877.49	1388.52
877.66	1320.94
877.82	1441.77
877.99	1374.19
878.15	1376.24
878.32	1419.24
878.49	1388.52
878.65	1337.32
878.82	1409.00
878.98	1368.04
879.15	1433.58
879.32	1372.14
879.48	1398.76
879.65	1349.61
879.81	1339.37
879.98	1425.39
880.15	1335.28
880.31	1322.99
880.48	1306.60
880.64	1429.48
880.81	1431.53
880.97	1409.00
881.14	1404.91
881.31	1353.71
881.47	1437.67
881.64	1435.63
881.80	1341.42
881.97	1361.90
882.13	1351.66
882.30	1382.38
882.47	1368.04
882.63	1363.95
882.80	1304.56
882.96	1372.14
883.13	1460.20
883.29	1425.39
883.46	1394.67
883.62	1421.29
883.79	1337.32
883.95	1441.77
884.12	1396.71
884.29	1359.85
884.45	1331.18
884.62	1351.66
884.78	1322.99
884.95	1441.77
885.11	1402.86
885.28	1363.95
885.44	1279.98
885.61	1384.43
885.77	1384.43
885.94	1327.08
886.10	1329.13
886.27	1292.27
886.43	1427.43
886.60	1394.67
886.76	1439.72
886.93	1306.60
887.09	1378.28
887.26	1269.74
887.42	1329.13
887.59	1435.63
887.75	1511.40
887.92	1452.01
888.08	1339.37
888.25	1411.05
888.41	1384.43
888.58	1419.24
888.74	1312.75
888.91	1302.51
>>>>>End Processed Spectral Data<<<<<
