SpectraSuite Data File
++++++++++++++++++++++++++++++++++++
Date: Tue May 03 11:24:10 CEST 2016
User: root
Dark Spectrum Present: No
Reference Spectrum Present: No
Number of Sampled Component Spectra: 1
Spectrometers: USB4C02835
Integration Time (usec): 100000 (USB4C02835)
Spectra Averaged: 1 (USB4C02835)
Boxcar Smoothing: 0 (USB4C02835)
Correct for Electrical Dark: No (USB4C02835)
Strobe/Lamp Enabled: No (USB4C02835)
Correct for Detector Non-linearity: No (USB4C02835)
Correct for Stray Light: No (USB4C02835)
Number of Pixels in Processed Spectrum: 3648
>>>>>Begin Processed Spectral Data<<<<<
177.47	1206.25
177.69	1206.25
177.91	1206.25
178.13	1212.40
178.36	1175.53
178.58	1378.28
178.80	1396.71
179.02	1359.85
179.24	1331.18
179.46	1396.71
179.68	1411.05
179.90	1363.95
180.13	1353.71
180.35	1388.52
180.57	1402.86
180.79	1298.41
181.01	1341.42
181.23	1437.67
181.45	1384.43
181.67	1429.48
181.90	1392.62
182.12	1349.61
182.34	1361.90
182.56	1339.37
182.78	1423.34
183.00	1372.14
183.22	1310.70
183.44	1304.56
183.66	1458.15
183.89	1441.77
184.11	1333.23
184.33	1372.14
184.55	1380.33
184.77	1370.09
184.99	1384.43
185.21	1382.38
185.43	1513.45
185.65	1316.84
185.87	1400.81
186.10	1382.38
186.32	1392.62
186.54	1400.81
186.76	1421.29
186.98	1409.00
187.20	1327.08
187.42	1294.32
187.64	1368.04
187.86	1306.60
188.08	1425.39
188.30	1413.10
188.52	1312.75
188.75	1437.67
188.97	1427.43
189.19	1277.93
189.41	1312.75
189.63	1331.18
189.85	1294.32
190.07	1273.84
190.29	1312.75
190.51	1351.66
190.73	1415.15
190.95	1374.19
191.17	1396.71
191.39	1351.66
191.61	1339.37
191.84	1333.23
192.06	1378.28
192.28	1322.99
192.50	1402.86
192.72	1318.89
192.94	1366.00
193.16	1396.71
193.38	1374.19
193.60	1353.71
193.82	1351.66
194.04	1396.71
194.26	1400.81
194.48	1411.05
194.70	1269.74
194.92	1359.85
195.14	1382.38
195.36	1343.47
195.58	1404.91
195.80	1388.52
196.02	1290.22
196.24	1368.04
196.46	1312.75
196.69	1394.67
196.91	1443.82
197.13	1419.24
197.35	1257.45
197.57	1390.57
197.79	1335.28
198.01	1359.85
198.23	1404.91
198.45	1452.01
198.67	1304.56
198.89	1327.08
199.11	1400.81
199.33	1351.66
199.55	1382.38
199.77	1376.24
199.99	1353.71
200.21	1388.52
200.43	1347.56
200.65	1261.55
200.87	1306.60
201.09	1359.85
201.31	1417.19
201.53	1357.80
201.75	1345.52
201.97	1398.76
202.19	1368.04
202.41	1421.29
202.63	1423.34
202.85	1388.52
203.07	1347.56
203.29	1343.47
203.51	1423.34
203.73	1366.00
203.95	1441.77
204.17	1353.71
204.39	1396.71
204.61	1337.32
204.83	1347.56
205.05	1372.14
205.27	1392.62
205.49	1445.87
205.71	1406.95
205.93	1339.37
206.15	1353.71
206.37	1353.71
206.59	1304.56
206.81	1292.27
207.03	1318.89
207.25	1359.85
207.47	1421.29
207.69	1368.04
207.91	1400.81
208.13	1495.02
208.34	1284.08
208.56	1380.33
208.78	1376.24
209.00	1312.75
209.22	1320.94
209.44	1382.38
209.66	1263.60
209.88	1343.47
210.10	1320.94
210.32	1288.17
210.54	1423.34
210.76	1363.95
210.98	1421.29
211.20	1327.08
211.42	1429.48
211.64	1474.54
211.86	1353.71
212.08	1359.85
212.30	1359.85
212.52	1404.91
212.74	1372.14
212.96	1355.76
213.17	1298.41
213.39	1388.52
213.61	1378.28
213.83	1476.59
214.05	1341.42
214.27	1341.42
214.49	1292.27
214.71	1333.23
214.93	1351.66
215.15	1329.13
215.37	1312.75
215.59	1349.61
215.81	1435.63
216.03	1458.15
216.24	1396.71
216.46	1445.87
216.68	1337.32
216.90	1378.28
217.12	1349.61
217.34	1439.72
217.56	1349.61
217.78	1421.29
218.00	1409.00
218.22	1382.38
218.44	1423.34
218.66	1351.66
218.87	1406.95
219.09	1441.77
219.31	1390.57
219.53	1322.99
219.75	1290.22
219.97	1390.57
220.19	1380.33
220.41	1363.95
220.63	1413.10
220.85	1478.63
221.06	1368.04
221.28	1488.87
221.50	1351.66
221.72	1404.91
221.94	1370.09
222.16	1366.00
222.38	1437.67
222.60	1361.90
222.82	1337.32
223.03	1359.85
223.25	1417.19
223.47	1433.58
223.69	1443.82
223.91	1409.00
224.13	1347.56
224.35	1355.76
224.57	1409.00
224.78	1349.61
225.00	1374.19
225.22	1345.52
225.44	1435.63
225.66	1406.95
225.88	1337.32
226.10	1458.15
226.32	1351.66
226.53	1380.33
226.75	1322.99
226.97	1329.13
227.19	1357.80
227.41	1363.95
227.63	1370.09
227.85	1300.46
228.06	1355.76
228.28	1312.75
228.50	1423.34
228.72	1300.46
228.94	1349.61
229.16	1331.18
229.37	1341.42
229.59	1374.19
229.81	1445.87
230.03	1382.38
230.25	1275.88
230.47	1294.32
230.69	1282.03
230.90	1345.52
231.12	1347.56
231.34	1415.15
231.56	1390.57
231.78	1363.95
232.00	1349.61
232.21	1353.71
232.43	1288.17
232.65	1359.85
232.87	1392.62
233.09	1392.62
233.30	1347.56
233.52	1361.90
233.74	1355.76
233.96	1423.34
234.18	1343.47
234.40	1433.58
234.61	1472.49
234.83	1343.47
235.05	1376.24
235.27	1439.72
235.49	1468.39
235.70	1445.87
235.92	1503.21
236.14	1339.37
236.36	1452.01
236.58	1345.52
236.79	1351.66
237.01	1423.34
237.23	1347.56
237.45	1468.39
237.67	1361.90
237.88	1331.18
238.10	1406.95
238.32	1306.60
238.54	1333.23
238.76	1355.76
238.97	1331.18
239.19	1343.47
239.41	1409.00
239.63	1433.58
239.85	1427.43
240.06	1388.52
240.28	1404.91
240.50	1437.67
240.72	1337.32
240.93	1382.38
241.15	1456.11
241.37	1415.15
241.59	1435.63
241.81	1357.80
242.02	1339.37
242.24	1329.13
242.46	1413.10
242.68	1284.08
242.89	1417.19
243.11	1540.07
243.33	1320.94
243.55	1392.62
243.76	1384.43
243.98	1349.61
244.20	1357.80
244.42	1413.10
244.64	1413.10
244.85	1359.85
245.07	1341.42
245.29	1435.63
245.51	1320.94
245.72	1394.67
245.94	1396.71
246.16	1417.19
246.38	1343.47
246.59	1376.24
246.81	1290.22
247.03	1370.09
247.24	1351.66
247.46	1341.42
247.68	1327.08
247.90	1417.19
248.11	1366.00
248.33	1394.67
248.55	1292.27
248.77	1378.28
248.98	1425.39
249.20	1452.01
249.42	1355.76
249.64	1454.06
249.85	1406.95
250.07	1277.93
250.29	1337.32
250.50	1406.95
250.72	1318.89
250.94	1353.71
251.16	1462.25
251.37	1380.33
251.59	1384.43
251.81	1335.28
252.02	1499.11
252.24	1318.89
252.46	1492.97
252.68	1325.04
252.89	1322.99
253.11	1316.84
253.33	1417.19
253.54	1353.71
253.76	1327.08
253.98	1353.71
254.20	1329.13
254.41	1302.51
254.63	1423.34
254.85	1368.04
255.06	1355.76
255.28	1351.66
255.50	1331.18
255.71	1343.47
255.93	1357.80
256.15	1341.42
256.36	1386.47
256.58	1368.04
256.80	1372.14
257.02	1335.28
257.23	1374.19
257.45	1425.39
257.67	1454.06
257.88	1347.56
258.10	1353.71
258.32	1429.48
258.53	1380.33
258.75	1423.34
258.97	1339.37
259.18	1380.33
259.40	1458.15
259.62	1456.11
259.83	1421.29
260.05	1429.48
260.27	1572.84
260.48	1490.92
260.70	1292.27
260.92	1458.15
261.13	1372.14
261.35	1345.52
261.57	1308.65
261.78	1318.89
262.00	1388.52
262.22	1327.08
262.43	1329.13
262.65	1388.52
262.86	1390.57
263.08	1411.05
263.30	1343.47
263.51	1298.41
263.73	1394.67
263.95	1429.48
264.16	1413.10
264.38	1374.19
264.60	1409.00
264.81	1366.00
265.03	1445.87
265.25	1392.62
265.46	1331.18
265.68	1376.24
265.89	1335.28
266.11	1302.51
266.33	1325.04
266.54	1331.18
266.76	1439.72
266.98	1462.25
267.19	1366.00
267.41	1374.19
267.62	1314.80
267.84	1273.84
268.06	1363.95
268.27	1380.33
268.49	1398.76
268.70	1384.43
268.92	1394.67
269.14	1312.75
269.35	1341.42
269.57	1355.76
269.79	1404.91
270.00	1310.70
270.22	1417.19
270.43	1386.47
270.65	1265.64
270.87	1421.29
271.08	1411.05
271.30	1378.28
271.51	1402.86
271.73	1347.56
271.95	1411.05
272.16	1378.28
272.38	1368.04
272.59	1318.89
272.81	1335.28
273.02	1378.28
273.24	1456.11
273.46	1425.39
273.67	1320.94
273.89	1337.32
274.10	1298.41
274.32	1425.39
274.54	1427.43
274.75	1429.48
274.97	1353.71
275.18	1402.86
275.40	1310.70
275.61	1310.70
275.83	1417.19
276.05	1433.58
276.26	1359.85
276.48	1419.24
276.69	1402.86
276.91	1322.99
277.12	1310.70
277.34	1376.24
277.55	1417.19
277.77	1306.60
277.99	1314.80
278.20	1327.08
278.42	1314.80
278.63	1329.13
278.85	1355.76
279.06	1392.62
279.28	1320.94
279.49	1368.04
279.71	1421.29
279.93	1292.27
280.14	1329.13
280.36	1329.13
280.57	1363.95
280.79	1400.81
281.00	1384.43
281.22	1261.55
281.43	1423.34
281.65	1267.69
281.86	1320.94
282.08	1353.71
282.29	1441.77
282.51	1380.33
282.73	1331.18
282.94	1366.00
283.16	1441.77
283.37	1437.67
283.59	1423.34
283.80	1333.23
284.02	1398.76
284.23	1361.90
284.45	1337.32
284.66	1376.24
284.88	1394.67
285.09	1376.24
285.31	1392.62
285.52	1421.29
285.74	1316.84
285.95	1357.80
286.17	1382.38
286.38	1345.52
286.60	1411.05
286.81	1376.24
287.03	1351.66
287.24	1353.71
287.46	1445.87
287.67	1466.35
287.89	1380.33
288.10	1402.86
288.32	1486.83
288.53	1378.28
288.75	1361.90
288.96	1394.67
289.18	1357.80
289.39	1335.28
289.61	1376.24
289.82	1427.43
290.04	1441.77
290.25	1288.17
290.47	1392.62
290.68	1335.28
290.90	1427.43
291.11	1312.75
291.33	1296.36
291.54	1402.86
291.76	1355.76
291.97	1409.00
292.18	1417.19
292.40	1366.00
292.61	1380.33
292.83	1427.43
293.04	1445.87
293.26	1388.52
293.47	1378.28
293.69	1312.75
293.90	1355.76
294.12	1411.05
294.33	1421.29
294.55	1327.08
294.76	1413.10
294.97	1363.95
295.19	1421.29
295.40	1351.66
295.62	1347.56
295.83	1329.13
296.05	1327.08
296.26	1386.47
296.48	1316.84
296.69	1380.33
296.90	1370.09
297.12	1359.85
297.33	1417.19
297.55	1355.76
297.76	1392.62
297.98	1464.30
298.19	1374.19
298.41	1345.52
298.62	1359.85
298.83	1374.19
299.05	1417.19
299.26	1355.76
299.48	1406.95
299.69	1394.67
299.90	1320.94
300.12	1363.95
300.33	1388.52
300.55	1372.14
300.76	1472.49
300.98	1355.76
301.19	1417.19
301.40	1353.71
301.62	1447.91
301.83	1347.56
302.05	1345.52
302.26	1351.66
302.47	1345.52
302.69	1312.75
302.90	1316.84
303.12	1275.88
303.33	1468.39
303.54	1476.59
303.76	1351.66
303.97	1349.61
304.19	1486.83
304.40	1314.80
304.61	1417.19
304.83	1392.62
305.04	1417.19
305.26	1413.10
305.47	1384.43
305.68	1368.04
305.90	1277.93
306.11	1398.76
306.33	1394.67
306.54	1343.47
306.75	1335.28
306.97	1347.56
307.18	1357.80
307.39	1359.85
307.61	1378.28
307.82	1402.86
308.04	1322.99
308.25	1327.08
308.46	1353.71
308.68	1409.00
308.89	1306.60
309.10	1464.30
309.32	1357.80
309.53	1331.18
309.74	1402.86
309.96	1372.14
310.17	1398.76
310.39	1363.95
310.60	1345.52
310.81	1413.10
311.03	1351.66
311.24	1368.04
311.45	1386.47
311.67	1345.52
311.88	1384.43
312.09	1310.70
312.31	1322.99
312.52	1327.08
312.73	1288.17
312.95	1308.65
313.16	1347.56
313.37	1380.33
313.59	1421.29
313.80	1394.67
314.01	1458.15
314.23	1290.22
314.44	1325.04
314.65	1374.19
314.87	1298.41
315.08	1388.52
315.29	1376.24
315.51	1368.04
315.72	1304.56
315.93	1398.76
316.15	1388.52
316.36	1372.14
316.57	1335.28
316.79	1433.58
317.00	1357.80
317.21	1384.43
317.43	1316.84
317.64	1394.67
317.85	1419.24
318.07	1482.73
318.28	1472.49
318.49	1568.74
318.70	1658.85
318.92	1519.59
319.13	1517.54
319.34	1535.98
319.56	1421.29
319.77	1509.35
319.98	1478.63
320.20	1452.01
320.41	1431.53
320.62	1466.35
320.83	1335.28
321.05	1449.96
321.26	1429.48
321.47	1357.80
321.69	1386.47
321.90	1396.71
322.11	1341.42
322.32	1284.08
322.54	1456.11
322.75	1380.33
322.96	1460.20
323.18	1331.18
323.39	1302.51
323.60	1312.75
323.81	1406.95
324.03	1361.90
324.24	1322.99
324.45	1396.71
324.66	1398.76
324.88	1392.62
325.09	1439.72
325.30	1376.24
325.52	1302.51
325.73	1347.56
325.94	1267.69
326.15	1296.36
326.37	1318.89
326.58	1374.19
326.79	1370.09
327.00	1388.52
327.22	1388.52
327.43	1380.33
327.64	1380.33
327.85	1290.22
328.07	1331.18
328.28	1468.39
328.49	1374.19
328.70	1400.81
328.92	1380.33
329.13	1388.52
329.34	1413.10
329.55	1400.81
329.76	1425.39
329.98	1339.37
330.19	1394.67
330.40	1343.47
330.61	1343.47
330.83	1415.15
331.04	1298.41
331.25	1329.13
331.46	1300.46
331.68	1359.85
331.89	1390.57
332.10	1339.37
332.31	1345.52
332.52	1394.67
332.74	1359.85
332.95	1327.08
333.16	1331.18
333.37	1363.95
333.58	1380.33
333.80	1343.47
334.01	1361.90
334.22	1404.91
334.43	1306.60
334.64	1363.95
334.86	1325.04
335.07	1322.99
335.28	1409.00
335.49	1355.76
335.70	1417.19
335.92	1380.33
336.13	1406.95
336.34	1327.08
336.55	1349.61
336.76	1454.06
336.98	1331.18
337.19	1421.29
337.40	1406.95
337.61	1409.00
337.82	1398.76
338.04	1402.86
338.25	1241.07
338.46	1376.24
338.67	1404.91
338.88	1335.28
339.09	1353.71
339.31	1310.70
339.52	1351.66
339.73	1302.51
339.94	1284.08
340.15	1345.52
340.36	1329.13
340.58	1454.06
340.79	1347.56
341.00	1366.00
341.21	1366.00
341.42	1308.65
341.63	1310.70
341.85	1402.86
342.06	1402.86
342.27	1288.17
342.48	1337.32
342.69	1312.75
342.90	1363.95
343.12	1263.60
343.33	1382.38
343.54	1343.47
343.75	1345.52
343.96	1335.28
344.17	1335.28
344.38	1361.90
344.60	1327.08
344.81	1351.66
345.02	1308.65
345.23	1406.95
345.44	1441.77
345.65	1443.82
345.86	1345.52
346.07	1378.28
346.29	1359.85
346.50	1425.39
346.71	1470.44
346.92	1386.47
347.13	1445.87
347.34	1335.28
347.55	1413.10
347.76	1337.32
347.98	1366.00
348.19	1406.95
348.40	1357.80
348.61	1378.28
348.82	1404.91
349.03	1363.95
349.24	1331.18
349.45	1452.01
349.66	1398.76
349.88	1400.81
350.09	1302.51
350.30	1372.14
350.51	1392.62
350.72	1359.85
350.93	1421.29
351.14	1370.09
351.35	1380.33
351.56	1329.13
351.77	1421.29
351.99	1400.81
352.20	1421.29
352.41	1449.96
352.62	1318.89
352.83	1349.61
353.04	1388.52
353.25	1345.52
353.46	1409.00
353.67	1380.33
353.88	1320.94
354.09	1380.33
354.30	1353.71
354.52	1347.56
354.73	1376.24
354.94	1339.37
355.15	1361.90
355.36	1433.58
355.57	1382.38
355.78	1347.56
355.99	1318.89
356.20	1327.08
356.41	1398.76
356.62	1486.83
356.83	1279.98
357.04	1429.48
357.25	1243.12
357.46	1337.32
357.68	1273.84
357.89	1290.22
358.10	1413.10
358.31	1400.81
358.52	1318.89
358.73	1271.79
358.94	1300.46
359.15	1396.71
359.36	1449.96
359.57	1333.23
359.78	1419.24
359.99	1316.84
360.20	1380.33
360.41	1351.66
360.62	1443.82
360.83	1380.33
361.04	1386.47
361.25	1341.42
361.46	1433.58
361.67	1370.09
361.88	1406.95
362.09	1333.23
362.30	1409.00
362.51	1294.32
362.72	1368.04
362.93	1429.48
363.14	1449.96
363.35	1355.76
363.56	1411.05
363.78	1441.77
363.99	1380.33
364.20	1361.90
364.41	1357.80
364.62	1423.34
364.83	1388.52
365.04	1343.47
365.25	1298.41
365.46	1478.63
365.67	1320.94
365.88	1374.19
366.09	1402.86
366.30	1327.08
366.51	1437.67
366.72	1359.85
366.93	1392.62
367.14	1361.90
367.35	1484.78
367.56	1396.71
367.77	1366.00
367.98	1376.24
368.18	1368.04
368.39	1351.66
368.60	1427.43
368.81	1355.76
369.02	1316.84
369.23	1390.57
369.44	1320.94
369.65	1298.41
369.86	1337.32
370.07	1425.39
370.28	1400.81
370.49	1384.43
370.70	1351.66
370.91	1302.51
371.12	1359.85
371.33	1456.11
371.54	1347.56
371.75	1439.72
371.96	1359.85
372.17	1386.47
372.38	1357.80
372.59	1409.00
372.80	1306.60
373.01	1288.17
373.22	1337.32
373.43	1331.18
373.64	1361.90
373.85	1351.66
374.06	1452.01
374.26	1400.81
374.47	1392.62
374.68	1413.10
374.89	1492.97
375.10	1312.75
375.31	1396.71
375.52	1388.52
375.73	1370.09
375.94	1269.74
376.15	1417.19
376.36	1345.52
376.57	1380.33
376.78	1366.00
376.99	1372.14
377.20	1458.15
377.40	1372.14
377.61	1492.97
377.82	1341.42
378.03	1452.01
378.24	1409.00
378.45	1366.00
378.66	1396.71
378.87	1320.94
379.08	1341.42
379.29	1398.76
379.50	1372.14
379.71	1333.23
379.91	1404.91
380.12	1439.72
380.33	1341.42
380.54	1325.04
380.75	1335.28
380.96	1452.01
381.17	1445.87
381.38	1417.19
381.59	1447.91
381.80	1439.72
382.00	1462.25
382.21	1376.24
382.42	1521.64
382.63	1535.98
382.84	1449.96
383.05	1421.29
383.26	1441.77
383.47	1437.67
383.68	1404.91
383.88	1398.76
384.09	1476.59
384.30	1519.59
384.51	1464.30
384.72	1347.56
384.93	1368.04
385.14	1390.57
385.35	1411.05
385.55	1339.37
385.76	1347.56
385.97	1351.66
386.18	1372.14
386.39	1370.09
386.60	1429.48
386.81	1402.86
387.02	1316.84
387.22	1363.95
387.43	1593.32
387.64	1558.50
387.85	2340.83
388.06	5861.29
388.27	9545.58
388.48	11435.86
388.68	13266.74
388.89	13457.20
389.10	10891.10
389.31	9289.59
389.52	8447.87
389.73	7503.76
389.93	6991.77
390.14	6571.93
390.35	5894.05
390.56	5474.22
390.77	4530.11
390.98	3598.28
391.18	2793.43
391.39	2121.70
391.60	1771.49
391.81	1556.46
392.02	1427.43
392.23	1525.74
392.43	1402.86
392.64	1413.10
392.85	1460.20
393.06	1460.20
393.27	1382.38
393.47	1327.08
393.68	1445.87
393.89	1372.14
394.10	1423.34
394.31	1345.52
394.52	1402.86
394.72	1318.89
394.93	1464.30
395.14	1253.36
395.35	1488.87
395.56	1347.56
395.76	1484.78
395.97	1501.16
396.18	1667.05
396.39	1529.83
396.60	1689.57
396.80	1525.74
397.01	1454.06
397.22	1472.49
397.43	1492.97
397.64	1445.87
397.84	1464.30
398.05	1574.89
398.26	1458.15
398.47	1359.85
398.67	1468.39
398.88	1409.00
399.09	1495.02
399.30	1363.95
399.51	1333.23
399.71	1370.09
399.92	1396.71
400.13	1413.10
400.34	1388.52
400.54	1335.28
400.75	1376.24
400.96	1347.56
401.17	1396.71
401.37	1409.00
401.58	1425.39
401.79	1572.84
402.00	1638.38
402.21	1808.36
402.41	1855.46
402.62	1789.92
402.83	1730.53
403.04	1787.88
403.24	1658.85
403.45	1585.13
403.66	1513.45
403.87	1439.72
404.07	1542.12
404.28	1570.79
404.49	1558.50
404.70	1495.02
404.90	1437.67
405.11	1423.34
405.32	1466.35
405.52	1294.32
405.73	1368.04
405.94	1341.42
406.15	1351.66
406.35	1359.85
406.56	1435.63
406.77	1341.42
406.98	1458.15
407.18	1366.00
407.39	1378.28
407.60	1298.41
407.80	1411.05
408.01	1316.84
408.22	1449.96
408.43	1376.24
408.63	1460.20
408.84	1316.84
409.05	1470.44
409.25	1337.32
409.46	1359.85
409.67	1404.91
409.88	1349.61
410.08	1355.76
410.29	1361.90
410.50	1433.58
410.70	1392.62
410.91	1363.95
411.12	1314.80
411.32	1474.54
411.53	1361.90
411.74	1445.87
411.95	1435.63
412.15	1411.05
412.36	1396.71
412.57	1417.19
412.77	1449.96
412.98	1404.91
413.19	1306.60
413.39	1486.83
413.60	1523.69
413.81	1441.77
414.01	1378.28
414.22	1406.95
414.43	1413.10
414.63	1329.13
414.84	1443.82
415.05	1443.82
415.25	1388.52
415.46	1404.91
415.67	1333.23
415.87	1349.61
416.08	1345.52
416.29	1314.80
416.49	1456.11
416.70	1378.28
416.91	1368.04
417.11	1380.33
417.32	1290.22
417.53	1433.58
417.73	1396.71
417.94	1390.57
418.15	1298.41
418.35	1411.05
418.56	1406.95
418.77	1374.19
418.97	1335.28
419.18	1406.95
419.38	1380.33
419.59	1345.52
419.80	1423.34
420.00	1361.90
420.21	1423.34
420.42	1425.39
420.62	1437.67
420.83	1351.66
421.04	1370.09
421.24	1298.41
421.45	1370.09
421.65	1409.00
421.86	1359.85
422.07	1386.47
422.27	1353.71
422.48	1288.17
422.69	1331.18
422.89	1402.86
423.10	1331.18
423.30	1329.13
423.51	1413.10
423.72	1376.24
423.92	1353.71
424.13	1327.08
424.33	1431.53
424.54	1374.19
424.75	1366.00
424.95	1429.48
425.16	1417.19
425.36	1425.39
425.57	1427.43
425.78	1388.52
425.98	1449.96
426.19	1378.28
426.39	1306.60
426.60	1339.37
426.81	1497.07
427.01	1337.32
427.22	1384.43
427.42	1368.04
427.63	1419.24
427.83	1398.76
428.04	1368.04
428.25	1386.47
428.45	1374.19
428.66	1406.95
428.86	1388.52
429.07	1419.24
429.28	1308.65
429.48	1409.00
429.69	1298.41
429.89	1507.30
430.10	1325.04
430.30	1359.85
430.51	1380.33
430.71	1376.24
430.92	1363.95
431.13	1329.13
431.33	1329.13
431.54	1368.04
431.74	1413.10
431.95	1417.19
432.15	1347.56
432.36	1505.26
432.56	1447.91
432.77	1392.62
432.98	1439.72
433.18	1409.00
433.39	1345.52
433.59	1374.19
433.80	1429.48
434.00	1435.63
434.21	1345.52
434.41	1345.52
434.62	1456.11
434.82	1335.28
435.03	1337.32
435.23	1359.85
435.44	1261.55
435.64	1357.80
435.85	1368.04
436.06	1380.33
436.26	1341.42
436.47	1394.67
436.67	1392.62
436.88	1310.70
437.08	1470.44
437.29	1443.82
437.49	1312.75
437.70	1400.81
437.90	1392.62
438.11	1568.74
438.31	1468.39
438.52	1513.45
438.72	1544.17
438.93	1462.25
439.13	1445.87
439.34	1495.02
439.54	1349.61
439.75	1497.07
439.95	1460.20
440.16	1415.15
440.36	1423.34
440.57	1380.33
440.77	1476.59
440.98	1374.19
441.18	1372.14
441.39	1355.76
441.59	1376.24
441.80	1421.29
442.00	1374.19
442.21	1396.71
442.41	1349.61
442.62	1388.52
442.82	1320.94
443.02	1341.42
443.23	1478.63
443.43	1413.10
443.64	1456.11
443.84	1368.04
444.05	1419.24
444.25	1386.47
444.46	1343.47
444.66	1441.77
444.87	1456.11
445.07	1269.74
445.28	1413.10
445.48	1437.67
445.69	1413.10
445.89	1570.79
446.09	1509.35
446.30	2283.49
446.50	3882.95
446.71	4677.56
446.91	5429.17
447.12	5670.83
447.32	5119.92
447.53	4147.14
447.73	3862.47
447.93	3538.89
448.14	3188.69
448.34	3045.33
448.55	2756.57
448.75	2826.20
448.96	2740.18
449.16	2328.54
449.36	2156.51
449.57	1939.43
449.77	1705.96
449.98	1591.27
450.18	1441.77
450.39	1431.53
450.59	1372.14
450.79	1380.33
451.00	1406.95
451.20	1466.35
451.41	1400.81
451.61	1347.56
451.81	1351.66
452.02	1388.52
452.22	1366.00
452.43	1366.00
452.63	1359.85
452.84	1363.95
453.04	1331.18
453.24	1382.38
453.45	1339.37
453.65	1345.52
453.86	1327.08
454.06	1437.67
454.26	1292.27
454.47	1392.62
454.67	1347.56
454.87	1400.81
455.08	1411.05
455.28	1435.63
455.49	1384.43
455.69	1361.90
455.89	1411.05
456.10	1388.52
456.30	1353.71
456.51	1376.24
456.71	1404.91
456.91	1411.05
457.12	1435.63
457.32	1392.62
457.52	1380.33
457.73	1376.24
457.93	1454.06
458.14	1312.75
458.34	1306.60
458.54	1339.37
458.75	1331.18
458.95	1443.82
459.15	1452.01
459.36	1380.33
459.56	1445.87
459.76	1476.59
459.97	1357.80
460.17	1388.52
460.37	1361.90
460.58	1353.71
460.78	1413.10
460.99	1396.71
461.19	1392.62
461.39	1404.91
461.60	1370.09
461.80	1384.43
462.00	1282.03
462.21	1386.47
462.41	1361.90
462.61	1357.80
462.82	1361.90
463.02	1261.55
463.22	1359.85
463.43	1374.19
463.63	1296.36
463.83	1437.67
464.04	1363.95
464.24	1345.52
464.44	1288.17
464.64	1368.04
464.85	1390.57
465.05	1482.73
465.25	1374.19
465.46	1292.27
465.66	1404.91
465.86	1419.24
466.07	1409.00
466.27	1413.10
466.47	1396.71
466.68	1359.85
466.88	1482.73
467.08	1429.48
467.29	1394.67
467.49	1363.95
467.69	1374.19
467.89	1366.00
468.10	1431.53
468.30	1386.47
468.50	1363.95
468.71	1361.90
468.91	1413.10
469.11	1429.48
469.31	1325.04
469.52	1388.52
469.72	1462.25
469.92	1472.49
470.13	1396.71
470.33	1437.67
470.53	1689.57
470.73	2080.74
470.94	2346.97
471.14	2324.44
471.34	2537.43
471.54	2228.19
471.75	2011.11
471.95	1871.84
472.15	1886.18
472.36	1824.74
472.56	1763.30
472.76	1720.29
472.96	1751.01
473.17	1697.77
473.37	1642.47
473.57	1542.12
473.77	1538.02
473.98	1404.91
474.18	1388.52
474.38	1507.30
474.58	1380.33
474.79	1310.70
474.99	1404.91
475.19	1394.67
475.39	1318.89
475.60	1415.15
475.80	1402.86
476.00	1349.61
476.20	1361.90
476.41	1435.63
476.61	1511.40
476.81	1359.85
477.01	1339.37
477.21	1435.63
477.42	1445.87
477.62	1392.62
477.82	1361.90
478.02	1325.04
478.23	1357.80
478.43	1359.85
478.63	1378.28
478.83	1382.38
479.03	1470.44
479.24	1521.64
479.44	1449.96
479.64	1310.70
479.84	1363.95
480.04	1329.13
480.25	1394.67
480.45	1474.54
480.65	1329.13
480.85	1490.92
481.06	1353.71
481.26	1347.56
481.46	1482.73
481.66	1404.91
481.86	1345.52
482.06	1492.97
482.27	1306.60
482.47	1376.24
482.67	1429.48
482.87	1351.66
483.07	1419.24
483.28	1366.00
483.48	1386.47
483.68	1409.00
483.88	1329.13
484.08	1286.12
484.29	1322.99
484.49	1345.52
484.69	1302.51
484.89	1390.57
485.09	1429.48
485.29	1370.09
485.50	1452.01
485.70	1370.09
485.90	1341.42
486.10	1402.86
486.30	1398.76
486.50	1513.45
486.71	1439.72
486.91	1359.85
487.11	1458.15
487.31	1413.10
487.51	1404.91
487.71	1421.29
487.91	1343.47
488.12	1374.19
488.32	1331.18
488.52	1441.77
488.72	1380.33
488.92	1361.90
489.12	1413.10
489.32	1376.24
489.53	1333.23
489.73	1394.67
489.93	1482.73
490.13	1341.42
490.33	1304.56
490.53	1400.81
490.73	1443.82
490.94	1294.32
491.14	1423.34
491.34	1656.81
491.54	2201.57
491.74	2594.78
491.94	3051.47
492.14	3203.02
492.34	3024.85
492.54	2555.86
492.75	2379.74
492.95	2226.14
493.15	2045.92
493.35	2031.58
493.55	1982.43
493.75	1851.36
493.95	1787.88
494.15	1834.98
494.35	1714.15
494.56	1701.86
494.76	1495.02
494.96	1509.35
495.16	1445.87
495.36	1368.04
495.56	1417.19
495.76	1361.90
495.96	1466.35
496.16	1404.91
496.36	1447.91
496.56	1366.00
496.77	1421.29
496.97	1363.95
497.17	1372.14
497.37	1312.75
497.57	1370.09
497.77	1413.10
497.97	1341.42
498.17	1361.90
498.37	1355.76
498.57	1406.95
498.77	1404.91
498.97	1435.63
499.17	1431.53
499.38	1343.47
499.58	1464.30
499.78	1427.43
499.98	1388.52
500.18	1359.85
500.38	1345.52
500.58	1640.42
500.78	2901.97
500.98	5539.76
501.18	7032.72
501.38	8200.07
501.58	8382.34
501.78	7380.88
501.98	5851.05
502.18	5275.57
502.38	4573.11
502.58	4237.25
502.78	3829.70
502.98	3764.17
503.18	3475.40
503.38	3366.86
503.59	3100.62
503.79	2889.68
503.99	2539.48
504.19	2359.26
504.39	2082.78
504.59	2123.74
504.79	1966.05
504.99	1785.83
505.19	1650.66
505.39	1542.12
505.59	1595.37
505.79	1542.12
505.99	1499.11
506.19	1544.17
506.39	1583.08
506.59	1441.77
506.79	1464.30
506.99	1415.15
507.19	1363.95
507.39	1492.97
507.59	1443.82
507.79	1402.86
507.99	1372.14
508.19	1415.15
508.39	1370.09
508.59	1366.00
508.79	1417.19
508.99	1472.49
509.19	1380.33
509.39	1402.86
509.59	1347.56
509.79	1339.37
509.99	1355.76
510.19	1388.52
510.39	1353.71
510.59	1363.95
510.79	1327.08
510.99	1390.57
511.19	1452.01
511.39	1441.77
511.59	1413.10
511.79	1390.57
511.99	1439.72
512.19	1468.39
512.38	1425.39
512.58	1366.00
512.78	1384.43
512.98	1355.76
513.18	1458.15
513.38	1263.60
513.58	1419.24
513.78	1402.86
513.98	1382.38
514.18	1370.09
514.38	1374.19
514.58	1425.39
514.78	1409.00
514.98	1333.23
515.18	1361.90
515.38	1361.90
515.58	1404.91
515.78	1329.13
515.98	1409.00
516.18	1372.14
516.38	1370.09
516.57	1437.67
516.77	1314.80
516.97	1406.95
517.17	1363.95
517.37	1314.80
517.57	1374.19
517.77	1327.08
517.97	1386.47
518.17	1374.19
518.37	1284.08
518.57	1349.61
518.77	1404.91
518.97	1374.19
519.16	1445.87
519.36	1456.11
519.56	1363.95
519.76	1388.52
519.96	1343.47
520.16	1478.63
520.36	1353.71
520.56	1406.95
520.76	1378.28
520.96	1316.84
521.16	1421.29
521.35	1402.86
521.55	1544.17
521.75	1427.43
521.95	1339.37
522.15	1386.47
522.35	1316.84
522.55	1296.36
522.75	1413.10
522.95	1273.84
523.14	1290.22
523.34	1409.00
523.54	1402.86
523.74	1435.63
523.94	1392.62
524.14	1331.18
524.34	1404.91
524.54	1445.87
524.73	1341.42
524.93	1398.76
525.13	1392.62
525.33	1374.19
525.53	1443.82
525.73	1318.89
525.93	1359.85
526.13	1366.00
526.32	1394.67
526.52	1380.33
526.72	1374.19
526.92	1427.43
527.12	1357.80
527.32	1343.47
527.52	1398.76
527.71	1343.47
527.91	1302.51
528.11	1345.52
528.31	1343.47
528.51	1325.04
528.71	1413.10
528.90	1435.63
529.10	1460.20
529.30	1441.77
529.50	1421.29
529.70	1357.80
529.90	1339.37
530.09	1372.14
530.29	1304.56
530.49	1327.08
530.69	1437.67
530.89	1286.12
531.09	1380.33
531.28	1298.41
531.48	1400.81
531.68	1447.91
531.88	1310.70
532.08	1376.24
532.28	1329.13
532.47	1345.52
532.67	1413.10
532.87	1337.32
533.07	1402.86
533.27	1482.73
533.46	1372.14
533.66	1449.96
533.86	1331.18
534.06	1341.42
534.26	1413.10
534.45	1419.24
534.65	1394.67
534.85	1409.00
535.05	1339.37
535.25	1347.56
535.44	1361.90
535.64	1361.90
535.84	1390.57
536.04	1359.85
536.24	1339.37
536.43	1382.38
536.63	1378.28
536.83	1404.91
537.03	1400.81
537.22	1341.42
537.42	1314.80
537.62	1378.28
537.82	1380.33
538.02	1460.20
538.21	1394.67
538.41	1476.59
538.61	1363.95
538.81	1327.08
539.00	1435.63
539.20	1363.95
539.40	1343.47
539.60	1411.05
539.79	1355.76
539.99	1316.84
540.19	1359.85
540.39	1415.15
540.58	1384.43
540.78	1380.33
540.98	1380.33
541.18	1411.05
541.37	1429.48
541.57	1406.95
541.77	1413.10
541.97	1349.61
542.16	1331.18
542.36	1380.33
542.56	1486.83
542.76	1435.63
542.95	1396.71
543.15	1384.43
543.35	1341.42
543.54	1380.33
543.74	1298.41
543.94	1419.24
544.14	1343.47
544.33	1413.10
544.53	1320.94
544.73	1429.48
544.93	1357.80
545.12	1306.60
545.32	1355.76
545.52	1363.95
545.71	1388.52
545.91	1363.95
546.11	1353.71
546.30	1325.04
546.50	1398.76
546.70	1435.63
546.90	1417.19
547.09	1372.14
547.29	1353.71
547.49	1447.91
547.68	1314.80
547.88	1337.32
548.08	1386.47
548.27	1644.52
548.47	1347.56
548.67	1306.60
548.87	1359.85
549.06	1458.15
549.26	1363.95
549.46	1439.72
549.65	1415.15
549.85	1429.48
550.05	1359.85
550.24	1298.41
550.44	1304.56
550.64	1370.09
550.83	1419.24
551.03	1474.54
551.23	1374.19
551.42	1441.77
551.62	1320.94
551.82	1347.56
552.01	1304.56
552.21	1406.95
552.41	1320.94
552.60	1417.19
552.80	1347.56
553.00	1390.57
553.19	1347.56
553.39	1433.58
553.59	1322.99
553.78	1341.42
553.98	1390.57
554.17	1279.98
554.37	1345.52
554.57	1425.39
554.76	1325.04
554.96	1376.24
555.16	1363.95
555.35	1345.52
555.55	1396.71
555.75	1286.12
555.94	1372.14
556.14	1351.66
556.33	1398.76
556.53	1427.43
556.73	1337.32
556.92	1415.15
557.12	1484.78
557.32	1421.29
557.51	1466.35
557.71	1372.14
557.90	1409.00
558.10	1449.96
558.30	1380.33
558.49	1325.04
558.69	1404.91
558.88	1445.87
559.08	1421.29
559.28	1357.80
559.47	1366.00
559.67	1396.71
559.86	1421.29
560.06	1347.56
560.26	1320.94
560.45	1441.77
560.65	1382.38
560.84	1312.75
561.04	1386.47
561.24	1368.04
561.43	1363.95
561.63	1460.20
561.82	1372.14
562.02	1327.08
562.22	1390.57
562.41	1310.70
562.61	1380.33
562.80	1347.56
563.00	1429.48
563.19	1398.76
563.39	1427.43
563.59	1388.52
563.78	1306.60
563.98	1335.28
564.17	1378.28
564.37	1310.70
564.56	1396.71
564.76	1368.04
564.96	1417.19
565.15	1392.62
565.35	1474.54
565.54	1392.62
565.74	1464.30
565.93	1347.56
566.13	1302.51
566.32	1363.95
566.52	1423.34
566.71	1361.90
566.91	1427.43
567.11	1363.95
567.30	1329.13
567.50	1380.33
567.69	1390.57
567.89	1351.66
568.08	1370.09
568.28	1417.19
568.47	1396.71
568.67	1400.81
568.86	1345.52
569.06	1312.75
569.25	1437.67
569.45	1355.76
569.64	1495.02
569.84	1404.91
570.04	1372.14
570.23	1386.47
570.43	1359.85
570.62	1318.89
570.82	1439.72
571.01	1396.71
571.21	1415.15
571.40	1376.24
571.60	1415.15
571.79	1413.10
571.99	1386.47
572.18	1318.89
572.38	1411.05
572.57	1345.52
572.77	1499.11
572.96	1497.07
573.16	1439.72
573.35	1327.08
573.55	1454.06
573.74	1343.47
573.94	1366.00
574.13	1396.71
574.33	1492.97
574.52	1372.14
574.71	1390.57
574.91	1411.05
575.10	1411.05
575.30	1394.67
575.49	1380.33
575.69	1388.52
575.88	1409.00
576.08	1409.00
576.27	1480.68
576.47	1552.36
576.66	1572.84
576.86	1462.25
577.05	1445.87
577.25	1376.24
577.44	1484.78
577.64	1390.57
577.83	1509.35
578.02	1411.05
578.22	1525.74
578.41	1460.20
578.61	1411.05
578.80	1363.95
579.00	1433.58
579.19	1388.52
579.39	1427.43
579.58	1429.48
579.77	1470.44
579.97	1515.50
580.16	1452.01
580.36	1454.06
580.55	1542.12
580.75	1484.78
580.94	1415.15
581.13	1495.02
581.33	1454.06
581.52	1398.76
581.72	1540.07
581.91	1492.97
582.11	1441.77
582.30	1439.72
582.49	1470.44
582.69	1443.82
582.88	1486.83
583.08	1415.15
583.27	1382.38
583.47	1406.95
583.66	1402.86
583.85	1388.52
584.05	1368.04
584.24	1386.47
584.44	1529.83
584.63	1470.44
584.82	1533.93
585.02	1511.40
585.21	1572.84
585.41	1595.37
585.60	1544.17
585.79	1642.47
585.99	1728.49
586.18	1595.37
586.37	1837.03
586.57	2662.36
586.76	7964.55
586.96	24376.97
587.15	41684.36
587.34	52524.25
587.54	60212.33
587.73	59569.27
587.93	45120.85
588.12	32906.76
588.31	26904.17
588.51	22771.36
588.70	20229.84
588.89	18429.67
589.09	17225.47
589.28	15847.18
589.47	14251.81
589.67	12664.64
589.86	10864.47
590.06	8624.00
590.25	6549.40
590.44	4956.08
590.64	3737.54
590.83	2846.68
591.02	2322.40
591.22	1978.34
591.41	1734.63
591.60	1621.99
591.80	1576.94
591.99	1484.78
592.18	1460.20
592.38	1447.91
592.57	1509.35
592.76	1505.26
592.96	1419.24
593.15	1351.66
593.34	1497.07
593.54	1435.63
593.73	1472.49
593.92	1392.62
594.12	1490.92
594.31	1392.62
594.50	1468.39
594.70	1492.97
594.89	1548.26
595.08	1435.63
595.28	1449.96
595.47	1505.26
595.66	1452.01
595.86	1376.24
596.05	1413.10
596.24	1366.00
596.43	1482.73
596.63	1421.29
596.82	1421.29
597.01	1437.67
597.21	1495.02
597.40	1456.11
597.59	1357.80
597.79	1449.96
597.98	1439.72
598.17	1376.24
598.36	1429.48
598.56	1486.83
598.75	1380.33
598.94	1535.98
599.14	1355.76
599.33	1441.77
599.52	1425.39
599.71	1425.39
599.91	1447.91
600.10	1372.14
600.29	1337.32
600.48	1378.28
600.68	1409.00
600.87	1374.19
601.06	1503.21
601.26	1351.66
601.45	1431.53
601.64	1359.85
601.83	1402.86
602.03	1384.43
602.22	1337.32
602.41	1470.44
602.60	1413.10
602.80	1411.05
602.99	1361.90
603.18	1347.56
603.37	1337.32
603.57	1413.10
603.76	1466.35
603.95	1497.07
604.14	1413.10
604.34	1409.00
604.53	1390.57
604.72	1349.61
604.91	1417.19
605.10	1427.43
605.30	1331.18
605.49	1501.16
605.68	1427.43
605.87	1339.37
606.07	1359.85
606.26	1347.56
606.45	1386.47
606.64	1472.49
606.84	1363.95
607.03	1316.84
607.22	1462.25
607.41	1435.63
607.60	1425.39
607.80	1429.48
607.99	1363.95
608.18	1310.70
608.37	1443.82
608.56	1331.18
608.76	1419.24
608.95	1433.58
609.14	1447.91
609.33	1388.52
609.52	1587.18
609.72	1488.87
609.91	1486.83
610.10	1521.64
610.29	1472.49
610.48	1421.29
610.68	1495.02
610.87	1384.43
611.06	1411.05
611.25	1431.53
611.44	1404.91
611.63	1396.71
611.83	1409.00
612.02	1327.08
612.21	1478.63
612.40	1331.18
612.59	1316.84
612.79	1331.18
612.98	1404.91
613.17	1341.42
613.36	1351.66
613.55	1507.30
613.74	1460.20
613.93	1548.26
614.13	1648.61
614.32	1652.71
614.51	1654.76
614.70	1495.02
614.89	1447.91
615.08	1503.21
615.28	1611.75
615.47	1378.28
615.66	1462.25
615.85	1449.96
616.04	1515.50
616.23	1466.35
616.42	1431.53
616.62	1464.30
616.81	1445.87
617.00	1458.15
617.19	1376.24
617.38	1282.03
617.57	1396.71
617.76	1398.76
617.95	1437.67
618.15	1388.52
618.34	1456.11
618.53	1337.32
618.72	1464.30
618.91	1431.53
619.10	1396.71
619.29	1402.86
619.48	1370.09
619.68	1359.85
619.87	1382.38
620.06	1411.05
620.25	1415.15
620.44	1343.47
620.63	1374.19
620.82	1449.96
621.01	1366.00
621.20	1427.43
621.39	1406.95
621.59	1394.67
621.78	1392.62
621.97	1445.87
622.16	1419.24
622.35	1419.24
622.54	1443.82
622.73	1429.48
622.92	1314.80
623.11	1347.56
623.30	1378.28
623.49	1429.48
623.68	1282.03
623.88	1433.58
624.07	1302.51
624.26	1366.00
624.45	1333.23
624.64	1343.47
624.83	1429.48
625.02	1390.57
625.21	1402.86
625.40	1359.85
625.59	1421.29
625.78	1474.54
625.97	1441.77
626.16	1435.63
626.35	1460.20
626.54	1429.48
626.74	1525.74
626.93	1458.15
627.12	1495.02
627.31	1449.96
627.50	1452.01
627.69	1480.68
627.88	1380.33
628.07	1421.29
628.26	1368.04
628.45	1380.33
628.64	1298.41
628.83	1406.95
629.02	1392.62
629.21	1404.91
629.40	1329.13
629.59	1320.94
629.78	1495.02
629.97	1325.04
630.16	1449.96
630.35	1325.04
630.54	1339.37
630.73	1390.57
630.92	1470.44
631.11	1329.13
631.30	1413.10
631.49	1437.67
631.68	1331.18
631.87	1378.28
632.06	1277.93
632.25	1501.16
632.44	1343.47
632.63	1378.28
632.82	1433.58
633.01	1478.63
633.20	1411.05
633.39	1462.25
633.58	1456.11
633.77	1447.91
633.96	1452.01
634.15	1454.06
634.34	1409.00
634.53	1449.96
634.72	1349.61
634.91	1329.13
635.10	1411.05
635.29	1409.00
635.48	1421.29
635.67	1337.32
635.86	1322.99
636.05	1433.58
636.24	1341.42
636.43	1423.34
636.62	1439.72
636.81	1337.32
637.00	1329.13
637.19	1423.34
637.38	1329.13
637.57	1368.04
637.76	1374.19
637.95	1431.53
638.14	1449.96
638.33	1511.40
638.52	1480.68
638.71	1484.78
638.89	1482.73
639.08	1501.16
639.27	1447.91
639.46	1492.97
639.65	1742.82
639.84	1861.60
640.03	1978.34
640.22	2074.59
640.41	2179.04
640.60	1968.10
640.79	1789.92
640.98	1665.00
641.17	1560.55
641.36	1578.98
641.55	1578.98
641.74	1546.22
641.92	1540.07
642.11	1509.35
642.30	1511.40
642.49	1490.92
642.68	1435.63
642.87	1427.43
643.06	1390.57
643.25	1368.04
643.44	1357.80
643.63	1404.91
643.82	1390.57
644.00	1327.08
644.19	1404.91
644.38	1394.67
644.57	1447.91
644.76	1400.81
644.95	1402.86
645.14	1374.19
645.33	1374.19
645.52	1431.53
645.71	1345.52
645.89	1306.60
646.08	1306.60
646.27	1320.94
646.46	1466.35
646.65	1351.66
646.84	1374.19
647.03	1337.32
647.22	1421.29
647.40	1382.38
647.59	1421.29
647.78	1380.33
647.97	1353.71
648.16	1298.41
648.35	1429.48
648.54	1372.14
648.73	1413.10
648.91	1386.47
649.10	1374.19
649.29	1322.99
649.48	1384.43
649.67	1355.76
649.86	1341.42
650.05	1378.28
650.23	1542.12
650.42	1513.45
650.61	1527.78
650.80	1619.94
650.99	1638.38
651.18	1501.16
651.36	1456.11
651.55	1425.39
651.74	1480.68
651.93	1447.91
652.12	1341.42
652.31	1466.35
652.49	1517.54
652.68	1429.48
652.87	1499.11
653.06	1439.72
653.25	1492.97
653.44	1435.63
653.62	1578.98
653.81	1366.00
654.00	1423.34
654.19	1406.95
654.38	1501.16
654.56	1406.95
654.75	1335.28
654.94	1419.24
655.13	1370.09
655.32	1380.33
655.51	1431.53
655.69	1368.04
655.88	1398.76
656.07	1433.58
656.26	1402.86
656.45	1312.75
656.63	1361.90
656.82	1380.33
657.01	1394.67
657.20	1335.28
657.38	1427.43
657.57	1372.14
657.76	1345.52
657.95	1400.81
658.14	1347.56
658.32	1404.91
658.51	1327.08
658.70	1392.62
658.89	1388.52
659.08	1310.70
659.26	1386.47
659.45	1392.62
659.64	1423.34
659.83	1386.47
660.01	1474.54
660.20	1486.83
660.39	1521.64
660.58	1343.47
660.76	1460.20
660.95	1329.13
661.14	1345.52
661.33	1370.09
661.51	1357.80
661.70	1292.27
661.89	1341.42
662.08	1419.24
662.26	1353.71
662.45	1353.71
662.64	1460.20
662.83	1402.86
663.01	1355.76
663.20	1370.09
663.39	1406.95
663.58	1404.91
663.76	1267.69
663.95	1394.67
664.14	1343.47
664.32	1337.32
664.51	1316.84
664.70	1322.99
664.89	1468.39
665.07	1363.95
665.26	1466.35
665.45	1339.37
665.64	1462.25
665.82	1415.15
666.01	1425.39
666.20	1363.95
666.38	1482.73
666.57	1490.92
666.76	1521.64
666.95	1996.77
667.13	4472.76
667.32	11468.62
667.51	17868.53
667.69	22015.66
667.88	24950.40
668.07	24567.43
668.25	19111.64
668.44	13805.36
668.63	11382.61
668.81	9273.20
669.00	8103.81
669.19	7491.47
669.38	6969.24
669.56	6393.76
669.75	5506.99
669.94	4958.13
670.12	4081.60
670.31	3479.50
670.50	2949.08
670.68	2488.28
670.87	2101.22
671.06	1812.45
671.24	1781.73
671.43	1683.43
671.62	1615.85
671.80	1533.93
671.99	1521.64
672.18	1437.67
672.36	1435.63
672.55	1452.01
672.74	1419.24
672.92	1394.67
673.11	1349.61
673.29	1331.18
673.48	1392.62
673.67	1357.80
673.85	1429.48
674.04	1359.85
674.23	1363.95
674.41	1388.52
674.60	1443.82
674.79	1339.37
674.97	1329.13
675.16	1339.37
675.34	1372.14
675.53	1386.47
675.72	1417.19
675.90	1456.11
676.09	1388.52
676.28	1449.96
676.46	1347.56
676.65	1294.32
676.83	1329.13
677.02	1413.10
677.21	1415.15
677.39	1449.96
677.58	1374.19
677.77	1341.42
677.95	1361.90
678.14	1339.37
678.32	1359.85
678.51	1331.18
678.70	1376.24
678.88	1374.19
679.07	1423.34
679.25	1363.95
679.44	1409.00
679.63	1417.19
679.81	1382.38
680.00	1445.87
680.18	1415.15
680.37	1380.33
680.55	1347.56
680.74	1380.33
680.93	1306.60
681.11	1421.29
681.30	1445.87
681.48	1384.43
681.67	1425.39
681.85	1316.84
682.04	1337.32
682.23	1425.39
682.41	1433.58
682.60	1398.76
682.78	1394.67
682.97	1302.51
683.15	1343.47
683.34	1456.11
683.53	1417.19
683.71	1302.51
683.90	1341.42
684.08	1415.15
684.27	1322.99
684.45	1402.86
684.64	1458.15
684.82	1322.99
685.01	1347.56
685.19	1390.57
685.38	1435.63
685.57	1339.37
685.75	1370.09
685.94	1357.80
686.12	1327.08
686.31	1376.24
686.49	1372.14
686.68	1325.04
686.86	1380.33
687.05	1345.52
687.23	1425.39
687.42	1437.67
687.60	1349.61
687.79	1347.56
687.97	1476.59
688.16	1437.67
688.34	1437.67
688.53	1292.27
688.71	1339.37
688.90	1398.76
689.08	1368.04
689.27	1370.09
689.45	1398.76
689.64	1279.98
689.82	1368.04
690.01	1363.95
690.19	1372.14
690.38	1431.53
690.56	1466.35
690.75	1374.19
690.93	1355.76
691.12	1355.76
691.30	1372.14
691.49	1347.56
691.67	1347.56
691.86	1452.01
692.04	1279.98
692.23	1282.03
692.41	1439.72
692.60	1464.30
692.78	1546.22
692.97	1462.25
693.15	1482.73
693.34	1447.91
693.52	1368.04
693.71	1386.47
693.89	1384.43
694.08	1351.66
694.26	1482.73
694.44	1441.77
694.63	1443.82
694.81	1386.47
695.00	1310.70
695.18	1433.58
695.37	1519.59
695.55	1306.60
695.74	1347.56
695.92	1343.47
696.10	1394.67
696.29	1417.19
696.47	1411.05
696.66	1259.50
696.84	1380.33
697.03	1406.95
697.21	1476.59
697.40	1791.97
697.58	1462.25
697.76	1345.52
697.95	1265.64
698.13	1355.76
698.32	1384.43
698.50	1386.47
698.68	1327.08
698.87	1343.47
699.05	1449.96
699.24	1460.20
699.42	1398.76
699.61	1452.01
699.79	1409.00
699.97	1368.04
700.16	1298.41
700.34	1337.32
700.53	1345.52
700.71	1388.52
700.89	1392.62
701.08	1325.04
701.26	1374.19
701.45	1632.23
701.63	1343.47
701.81	1458.15
702.00	1437.67
702.18	1347.56
702.37	1345.52
702.55	1388.52
702.73	1503.21
702.92	1458.15
703.10	1656.81
703.28	1587.18
703.47	1595.37
703.65	1667.05
703.84	1544.17
704.02	1458.15
704.20	1552.36
704.39	1484.78
704.57	1521.64
704.75	1454.06
704.94	1509.35
705.12	1421.29
705.30	1454.06
705.49	1658.85
705.67	1855.46
705.86	3553.23
706.04	9277.30
706.22	16254.73
706.41	19951.31
706.59	22732.45
706.77	23854.74
706.96	19754.71
707.14	13999.91
707.32	11362.13
707.51	9463.66
707.69	8222.59
707.87	7376.78
708.06	6631.32
708.24	6057.89
708.42	5115.83
708.61	3983.30
708.79	3057.62
708.97	2410.46
709.16	2062.30
709.34	1834.98
709.52	1515.50
709.71	1433.58
709.89	1447.91
710.07	1376.24
710.26	1368.04
710.44	1458.15
710.62	1480.68
710.80	1386.47
710.99	1441.77
711.17	1468.39
711.35	1462.25
711.54	1302.51
711.72	1400.81
711.90	1388.52
712.09	1396.71
712.27	1275.88
712.45	1318.89
712.63	1366.00
712.82	1388.52
713.00	1447.91
713.18	1398.76
713.37	1400.81
713.55	1468.39
713.73	1527.78
713.91	1359.85
714.10	1427.43
714.28	1388.52
714.46	1439.72
714.65	1351.66
714.83	1427.43
715.01	1386.47
715.19	1443.82
715.38	1402.86
715.56	1429.48
715.74	1310.70
715.92	1345.52
716.11	1415.15
716.29	1306.60
716.47	1374.19
716.65	1318.89
716.84	1282.03
717.02	1435.63
717.20	1314.80
717.38	1351.66
717.57	1337.32
717.75	1382.38
717.93	1372.14
718.11	1351.66
718.30	1341.42
718.48	1386.47
718.66	1443.82
718.84	1472.49
719.03	1415.15
719.21	1376.24
719.39	1441.77
719.57	1406.95
719.75	1382.38
719.94	1363.95
720.12	1413.10
720.30	1406.95
720.48	1435.63
720.67	1376.24
720.85	1343.47
721.03	1443.82
721.21	1320.94
721.39	1406.95
721.58	1349.61
721.76	1363.95
721.94	1423.34
722.12	1366.00
722.30	1482.73
722.49	1306.60
722.67	1415.15
722.85	1308.65
723.03	1384.43
723.21	1411.05
723.40	1392.62
723.58	1376.24
723.76	1380.33
723.94	1425.39
724.12	1396.71
724.30	1544.17
724.49	1529.83
724.67	1363.95
724.85	1439.72
725.03	1322.99
725.21	1458.15
725.40	1429.48
725.58	1372.14
725.76	1400.81
725.94	1433.58
726.12	1329.13
726.30	1322.99
726.49	1431.53
726.67	1433.58
726.85	1339.37
727.03	1388.52
727.21	1533.93
727.39	1556.46
727.57	2088.93
727.76	3368.91
727.94	4407.23
728.12	4878.26
728.30	5341.10
728.48	5214.13
728.66	4261.82
728.84	3465.16
729.03	3145.68
729.21	2820.05
729.39	2578.39
729.57	2199.52
729.75	1900.52
729.93	1873.89
730.11	1552.36
730.30	1503.21
730.48	1404.91
730.66	1439.72
730.84	1452.01
731.02	1400.81
731.20	1345.52
731.38	1372.14
731.56	1361.90
731.74	1398.76
731.93	1370.09
732.11	1368.04
732.29	1355.76
732.47	1437.67
732.65	1366.00
732.83	1429.48
733.01	1521.64
733.19	1325.04
733.37	1421.29
733.56	1427.43
733.74	1345.52
733.92	1443.82
734.10	1298.41
734.28	1363.95
734.46	1384.43
734.64	1345.52
734.82	1370.09
735.00	1396.71
735.18	1386.47
735.36	1398.76
735.54	1245.16
735.73	1411.05
735.91	1398.76
736.09	1386.47
736.27	1398.76
736.45	1357.80
736.63	1335.28
736.81	1404.91
736.99	1456.11
737.17	1445.87
737.35	1368.04
737.53	1355.76
737.71	1392.62
737.89	1415.15
738.07	1322.99
738.25	1386.47
738.43	1298.41
738.61	1415.15
738.80	1322.99
738.98	1368.04
739.16	1359.85
739.34	1345.52
739.52	1386.47
739.70	1343.47
739.88	1499.11
740.06	1394.67
740.24	1310.70
740.42	1380.33
740.60	1247.21
740.78	1339.37
740.96	1222.64
741.14	1380.33
741.32	1366.00
741.50	1337.32
741.68	1495.02
741.86	1347.56
742.04	1345.52
742.22	1380.33
742.40	1402.86
742.58	1406.95
742.76	1314.80
742.94	1409.00
743.12	1310.70
743.30	1372.14
743.48	1413.10
743.66	1419.24
743.84	1318.89
744.02	1366.00
744.20	1411.05
744.38	1347.56
744.56	1286.12
744.74	1488.87
744.92	1380.33
745.10	1417.19
745.28	1482.73
745.46	1341.42
745.64	1306.60
745.82	1456.11
746.00	1392.62
746.18	1429.48
746.36	1359.85
746.54	1347.56
746.72	1361.90
746.90	1277.93
747.08	1384.43
747.26	1372.14
747.44	1464.30
747.62	1439.72
747.80	1409.00
747.98	1380.33
748.15	1337.32
748.33	1468.39
748.51	1372.14
748.69	1411.05
748.87	1363.95
749.05	1355.76
749.23	1402.86
749.41	1415.15
749.59	1404.91
749.77	1495.02
749.95	1372.14
750.13	1368.04
750.31	1394.67
750.49	1331.18
750.67	1380.33
750.85	1419.24
751.03	1370.09
751.20	1472.49
751.38	1429.48
751.56	1339.37
751.74	1318.89
751.92	1394.67
752.10	1286.12
752.28	1386.47
752.46	1361.90
752.64	1333.23
752.82	1341.42
753.00	1406.95
753.18	1333.23
753.35	1372.14
753.53	1335.28
753.71	1394.67
753.89	1404.91
754.07	1355.76
754.25	1370.09
754.43	1388.52
754.61	1333.23
754.79	1417.19
754.97	1368.04
755.14	1423.34
755.32	1337.32
755.50	1359.85
755.68	1298.41
755.86	1349.61
756.04	1343.47
756.22	1251.31
756.40	1351.66
756.57	1466.35
756.75	1339.37
756.93	1404.91
757.11	1331.18
757.29	1331.18
757.47	1327.08
757.65	1300.46
757.82	1320.94
758.00	1388.52
758.18	1380.33
758.36	1290.22
758.54	1503.21
758.72	1304.56
758.90	1427.43
759.07	1406.95
759.25	1376.24
759.43	1337.32
759.61	1335.28
759.79	1613.80
759.97	1409.00
760.15	1308.65
760.32	1378.28
760.50	1447.91
760.68	1421.29
760.86	1382.38
761.04	1325.04
761.22	1361.90
761.39	1363.95
761.57	1366.00
761.75	1386.47
761.93	1402.86
762.11	1376.24
762.28	1359.85
762.46	1298.41
762.64	1366.00
762.82	1349.61
763.00	1327.08
763.18	1423.34
763.35	1310.70
763.53	1454.06
763.71	1441.77
763.89	1384.43
764.07	1345.52
764.24	1325.04
764.42	1384.43
764.60	1302.51
764.78	1404.91
764.96	1400.81
765.13	1419.24
765.31	1392.62
765.49	1437.67
765.67	1282.03
765.84	1357.80
766.02	1396.71
766.20	1308.65
766.38	1347.56
766.56	1427.43
766.73	1359.85
766.91	1312.75
767.09	1380.33
767.27	1441.77
767.44	1361.90
767.62	1398.76
767.80	1335.28
767.98	1329.13
768.15	1318.89
768.33	1445.87
768.51	1325.04
768.69	1404.91
768.87	1411.05
769.04	1253.36
769.22	1363.95
769.40	1468.39
769.58	1449.96
769.75	1327.08
769.93	1433.58
770.11	1325.04
770.28	1320.94
770.46	1337.32
770.64	1470.44
770.82	1409.00
770.99	1341.42
771.17	1318.89
771.35	1310.70
771.53	1378.28
771.70	1415.15
771.88	1404.91
772.06	1314.80
772.23	1316.84
772.41	1402.86
772.59	1376.24
772.77	1343.47
772.94	1400.81
773.12	1384.43
773.30	1351.66
773.47	1318.89
773.65	1368.04
773.83	1382.38
774.01	1359.85
774.18	1282.03
774.36	1382.38
774.54	1355.76
774.71	1363.95
774.89	1318.89
775.07	1257.45
775.24	1302.51
775.42	1429.48
775.60	1452.01
775.78	1382.38
775.95	1277.93
776.13	1308.65
776.31	1292.27
776.48	1370.09
776.66	1380.33
776.84	1402.86
777.01	1382.38
777.19	1355.76
777.37	1308.65
777.54	1339.37
777.72	1443.82
777.90	1396.71
778.07	1294.32
778.25	1447.91
778.43	1398.76
778.60	1306.60
778.78	1355.76
778.96	1413.10
779.13	1343.47
779.31	1370.09
779.49	1327.08
779.66	1351.66
779.84	1361.90
780.01	1353.71
780.19	1398.76
780.37	1400.81
780.54	1443.82
780.72	1318.89
780.90	1392.62
781.07	1343.47
781.25	1351.66
781.43	1390.57
781.60	1347.56
781.78	1308.65
781.95	1363.95
782.13	1419.24
782.31	1339.37
782.48	1331.18
782.66	1322.99
782.83	1388.52
783.01	1351.66
783.19	1374.19
783.36	1384.43
783.54	1300.46
783.72	1415.15
783.89	1363.95
784.07	1425.39
784.24	1345.52
784.42	1386.47
784.60	1335.28
784.77	1415.15
784.95	1368.04
785.12	1353.71
785.30	1378.28
785.47	1279.98
785.65	1286.12
785.83	1302.51
786.00	1361.90
786.18	1378.28
786.35	1359.85
786.53	1296.36
786.71	1337.32
786.88	1357.80
787.06	1337.32
787.23	1376.24
787.41	1378.28
787.58	1380.33
787.76	1400.81
787.94	1378.28
788.11	1372.14
788.29	1216.49
788.46	1425.39
788.64	1329.13
788.81	1333.23
788.99	1325.04
789.16	1306.60
789.34	1312.75
789.52	1404.91
789.69	1386.47
789.87	1329.13
790.04	1413.10
790.22	1419.24
790.39	1445.87
790.57	1359.85
790.74	1245.16
790.92	1384.43
791.09	1368.04
791.27	1310.70
791.44	1366.00
791.62	1294.32
791.79	1460.20
791.97	1374.19
792.15	1478.63
792.32	1384.43
792.50	1337.32
792.67	1409.00
792.85	1443.82
793.02	1404.91
793.20	1359.85
793.37	1294.32
793.55	1327.08
793.72	1329.13
793.90	1351.66
794.07	1363.95
794.25	1312.75
794.42	1423.34
794.60	1351.66
794.77	1374.19
794.95	1388.52
795.12	1392.62
795.30	1368.04
795.47	1327.08
795.65	1495.02
795.82	1449.96
796.00	1386.47
796.17	1388.52
796.34	1394.67
796.52	1382.38
796.69	1499.11
796.87	1337.32
797.04	1374.19
797.22	1404.91
797.39	1370.09
797.57	1349.61
797.74	1394.67
797.92	1331.18
798.09	1380.33
798.27	1394.67
798.44	1343.47
798.62	1279.98
798.79	1378.28
798.96	1314.80
799.14	1382.38
799.31	1482.73
799.49	1335.28
799.66	1351.66
799.84	1421.29
800.01	1322.99
800.19	1390.57
800.36	1320.94
800.53	1402.86
800.71	1398.76
800.88	1388.52
801.06	1413.10
801.23	1359.85
801.41	1419.24
801.58	1318.89
801.75	1368.04
801.93	1437.67
802.10	1437.67
802.28	1353.71
802.45	1310.70
802.63	1390.57
802.80	1478.63
802.97	1464.30
803.15	1368.04
803.32	1359.85
803.50	1331.18
803.67	1363.95
803.84	1327.08
804.02	1366.00
804.19	1380.33
804.37	1267.69
804.54	1269.74
804.71	1359.85
804.89	1322.99
805.06	1329.13
805.24	1366.00
805.41	1392.62
805.58	1333.23
805.76	1497.07
805.93	1402.86
806.10	1415.15
806.28	1382.38
806.45	1327.08
806.63	1472.49
806.80	1419.24
806.97	1372.14
807.15	1347.56
807.32	1357.80
807.49	1298.41
807.67	1306.60
807.84	1376.24
808.01	1306.60
808.19	1353.71
808.36	1490.92
808.54	1312.75
808.71	1259.50
808.88	1384.43
809.06	1402.86
809.23	1400.81
809.40	1282.03
809.58	1378.28
809.75	1388.52
809.92	1300.46
810.10	1437.67
810.27	1282.03
810.44	1333.23
810.62	1386.47
810.79	1431.53
810.96	1275.88
811.14	1388.52
811.31	1376.24
811.48	1447.91
811.66	1337.32
811.83	1419.24
812.00	1374.19
812.18	1304.56
812.35	1419.24
812.52	1277.93
812.69	1337.32
812.87	1320.94
813.04	1310.70
813.21	1357.80
813.39	1368.04
813.56	1372.14
813.73	1386.47
813.91	1333.23
814.08	1359.85
814.25	1327.08
814.42	1255.40
814.60	1312.75
814.77	1378.28
814.94	1398.76
815.12	1361.90
815.29	1445.87
815.46	1341.42
815.63	1423.34
815.81	1406.95
815.98	1368.04
816.15	1417.19
816.33	1329.13
816.50	1255.40
816.67	1370.09
816.84	1337.32
817.02	1380.33
817.19	1339.37
817.36	1353.71
817.53	1376.24
817.71	1390.57
817.88	1378.28
818.05	1316.84
818.22	1325.04
818.40	1429.48
818.57	1337.32
818.74	1386.47
818.91	1380.33
819.09	1419.24
819.26	1316.84
819.43	1333.23
819.60	1345.52
819.78	1380.33
819.95	1435.63
820.12	1243.12
820.29	1431.53
820.47	1366.00
820.64	1353.71
820.81	1318.89
820.98	1316.84
821.15	1316.84
821.33	1411.05
821.50	1366.00
821.67	1419.24
821.84	1339.37
822.02	1402.86
822.19	1398.76
822.36	1343.47
822.53	1388.52
822.70	1294.32
822.88	1363.95
823.05	1466.35
823.22	1425.39
823.39	1347.56
823.56	1353.71
823.74	1404.91
823.91	1359.85
824.08	1298.41
824.25	1282.03
824.42	1402.86
824.60	1484.78
824.77	1449.96
824.94	1343.47
825.11	1409.00
825.28	1275.88
825.45	1341.42
825.63	1368.04
825.80	1366.00
825.97	1366.00
826.14	1341.42
826.31	1345.52
826.48	1384.43
826.66	1322.99
826.83	1380.33
827.00	1388.52
827.17	1380.33
827.34	1425.39
827.51	1279.98
827.69	1359.85
827.86	1347.56
828.03	1413.10
828.20	1294.32
828.37	1349.61
828.54	1370.09
828.71	1372.14
828.89	1462.25
829.06	1329.13
829.23	1421.29
829.40	1392.62
829.57	1400.81
829.74	1396.71
829.91	1359.85
830.09	1398.76
830.26	1392.62
830.43	1349.61
830.60	1366.00
830.77	1374.19
830.94	1415.15
831.11	1353.71
831.28	1361.90
831.46	1415.15
831.63	1318.89
831.80	1357.80
831.97	1376.24
832.14	1282.03
832.31	1366.00
832.48	1355.76
832.65	1361.90
832.82	1390.57
832.99	1419.24
833.17	1394.67
833.34	1327.08
833.51	1402.86
833.68	1318.89
833.85	1419.24
834.02	1325.04
834.19	1310.70
834.36	1347.56
834.53	1370.09
834.70	1437.67
834.87	1363.95
835.04	1359.85
835.22	1386.47
835.39	1343.47
835.56	1292.27
835.73	1421.29
835.90	1398.76
836.07	1366.00
836.24	1357.80
836.41	1411.05
836.58	1327.08
836.75	1353.71
836.92	1318.89
837.09	1314.80
837.26	1351.66
837.43	1402.86
837.60	1351.66
837.77	1359.85
837.94	1368.04
838.12	1382.38
838.29	1437.67
838.46	1372.14
838.63	1380.33
838.80	1357.80
838.97	1435.63
839.14	1380.33
839.31	1386.47
839.48	1327.08
839.65	1361.90
839.82	1394.67
839.99	1384.43
840.16	1415.15
840.33	1316.84
840.50	1398.76
840.67	1282.03
840.84	1320.94
841.01	1388.52
841.18	1390.57
841.35	1378.28
841.52	1423.34
841.69	1390.57
841.86	1374.19
842.03	1351.66
842.20	1376.24
842.37	1355.76
842.54	1347.56
842.71	1363.95
842.88	1306.60
843.05	1374.19
843.22	1349.61
843.39	1363.95
843.56	1411.05
843.73	1363.95
843.90	1372.14
844.07	1343.47
844.24	1402.86
844.41	1376.24
844.58	1359.85
844.75	1343.47
844.92	1355.76
845.09	1372.14
845.26	1361.90
845.43	1429.48
845.60	1380.33
845.77	1441.77
845.94	1355.76
846.10	1435.63
846.27	1355.76
846.44	1370.09
846.61	1372.14
846.78	1378.28
846.95	1394.67
847.12	1380.33
847.29	1366.00
847.46	1374.19
847.63	1468.39
847.80	1372.14
847.97	1380.33
848.14	1404.91
848.31	1398.76
848.48	1318.89
848.65	1372.14
848.82	1327.08
848.98	1413.10
849.15	1390.57
849.32	1411.05
849.49	1425.39
849.66	1388.52
849.83	1314.80
850.00	1290.22
850.17	1421.29
850.34	1390.57
850.51	1353.71
850.68	1357.80
850.85	1456.11
851.01	1388.52
851.18	1421.29
851.35	1314.80
851.52	1290.22
851.69	1357.80
851.86	1251.31
852.03	1304.56
852.20	1431.53
852.37	1316.84
852.53	1341.42
852.70	1308.65
852.87	1359.85
853.04	1380.33
853.21	1392.62
853.38	1392.62
853.55	1411.05
853.72	1421.29
853.89	1318.89
854.05	1345.52
854.22	1351.66
854.39	1312.75
854.56	1433.58
854.73	1413.10
854.90	1343.47
855.07	1415.15
855.23	1376.24
855.40	1359.85
855.57	1353.71
855.74	1312.75
855.91	1495.02
856.08	1345.52
856.25	1337.32
856.41	1378.28
856.58	1370.09
856.75	1433.58
856.92	1312.75
857.09	1363.95
857.26	1271.79
857.42	1419.24
857.59	1374.19
857.76	1351.66
857.93	1388.52
858.10	1386.47
858.27	1355.76
858.43	1357.80
858.60	1331.18
858.77	1236.97
858.94	1294.32
859.11	1390.57
859.27	1394.67
859.44	1406.95
859.61	1449.96
859.78	1359.85
859.95	1349.61
860.12	1349.61
860.28	1445.87
860.45	1409.00
860.62	1415.15
860.79	1400.81
860.95	1306.60
861.12	1329.13
861.29	1312.75
861.46	1347.56
861.63	1355.76
861.79	1425.39
861.96	1247.21
862.13	1286.12
862.30	1353.71
862.47	1339.37
862.63	1318.89
862.80	1435.63
862.97	1376.24
863.14	1431.53
863.30	1411.05
863.47	1359.85
863.64	1394.67
863.81	1404.91
863.97	1286.12
864.14	1380.33
864.31	1398.76
864.48	1361.90
864.65	1310.70
864.81	1370.09
864.98	1402.86
865.15	1388.52
865.32	1368.04
865.48	1474.54
865.65	1460.20
865.82	1366.00
865.98	1341.42
866.15	1370.09
866.32	1357.80
866.49	1419.24
866.65	1443.82
866.82	1329.13
866.99	1388.52
867.16	1431.53
867.32	1331.18
867.49	1296.36
867.66	1388.52
867.83	1378.28
867.99	1296.36
868.16	1378.28
868.33	1378.28
868.49	1337.32
868.66	1392.62
868.83	1355.76
868.99	1322.99
869.16	1361.90
869.33	1433.58
869.50	1366.00
869.66	1333.23
869.83	1415.15
870.00	1368.04
870.16	1396.71
870.33	1382.38
870.50	1359.85
870.66	1415.15
870.83	1411.05
871.00	1337.32
871.17	1382.38
871.33	1400.81
871.50	1353.71
871.67	1337.32
871.83	1282.03
872.00	1435.63
872.17	1306.60
872.33	1454.06
872.50	1425.39
872.67	1253.36
872.83	1345.52
873.00	1372.14
873.17	1355.76
873.33	1382.38
873.50	1359.85
873.67	1359.85
873.83	1320.94
874.00	1382.38
874.16	1335.28
874.33	1390.57
874.50	1312.75
874.66	1447.91
874.83	1343.47
875.00	1353.71
875.16	1460.20
875.33	1419.24
875.50	1339.37
875.66	1255.40
875.83	1404.91
875.99	1376.24
876.16	1363.95
876.33	1331.18
876.49	1376.24
876.66	1376.24
876.83	1349.61
876.99	1239.02
877.16	1329.13
877.32	1359.85
877.49	1339.37
877.66	1308.65
877.82	1402.86
877.99	1388.52
878.15	1392.62
878.32	1337.32
878.49	1392.62
878.65	1351.66
878.82	1458.15
878.98	1435.63
879.15	1443.82
879.32	1325.04
879.48	1353.71
879.65	1370.09
879.81	1388.52
879.98	1347.56
880.15	1337.32
880.31	1398.76
880.48	1282.03
880.64	1316.84
880.81	1392.62
880.97	1449.96
881.14	1349.61
881.31	1300.46
881.47	1419.24
881.64	1366.00
881.80	1306.60
881.97	1368.04
882.13	1427.43
882.30	1282.03
882.47	1288.17
882.63	1302.51
882.80	1333.23
882.96	1329.13
883.13	1406.95
883.29	1363.95
883.46	1415.15
883.62	1380.33
883.79	1378.28
883.95	1402.86
884.12	1337.32
884.29	1314.80
884.45	1458.15
884.62	1296.36
884.78	1339.37
884.95	1388.52
885.11	1343.47
885.28	1349.61
885.44	1359.85
885.61	1390.57
885.77	1417.19
885.94	1343.47
886.10	1411.05
886.27	1355.76
886.43	1398.76
886.60	1435.63
886.76	1374.19
886.93	1308.65
887.09	1376.24
887.26	1347.56
887.42	1341.42
887.59	1456.11
887.75	1425.39
887.92	1454.06
888.08	1363.95
888.25	1495.02
888.41	1439.72
888.58	1382.38
888.74	1396.71
888.91	1333.23
>>>>>End Processed Spectral Data<<<<<
