SpectraSuite Data File
++++++++++++++++++++++++++++++++++++
Date: Tue May 03 11:24:08 CEST 2016
User: root
Dark Spectrum Present: No
Reference Spectrum Present: No
Number of Sampled Component Spectra: 1
Spectrometers: USB4C02835
Integration Time (usec): 100000 (USB4C02835)
Spectra Averaged: 1 (USB4C02835)
Boxcar Smoothing: 0 (USB4C02835)
Correct for Electrical Dark: No (USB4C02835)
Strobe/Lamp Enabled: No (USB4C02835)
Correct for Detector Non-linearity: No (USB4C02835)
Correct for Stray Light: No (USB4C02835)
Number of Pixels in Processed Spectrum: 3648
>>>>>Begin Processed Spectral Data<<<<<
177.47	1255.40
177.69	1255.40
177.91	1255.40
178.13	1210.35
178.36	1239.02
178.58	1263.60
178.80	1402.86
179.02	1245.16
179.24	1316.84
179.46	1382.38
179.68	1384.43
179.90	1384.43
180.13	1458.15
180.35	1382.38
180.57	1357.80
180.79	1372.14
181.01	1421.29
181.23	1413.10
181.45	1368.04
181.67	1398.76
181.90	1366.00
182.12	1337.32
182.34	1335.28
182.56	1343.47
182.78	1359.85
183.00	1349.61
183.22	1406.95
183.44	1290.22
183.66	1503.21
183.89	1423.34
184.11	1302.51
184.33	1423.34
184.55	1327.08
184.77	1368.04
184.99	1351.66
185.21	1325.04
185.43	1433.58
185.65	1345.52
185.87	1390.57
186.10	1427.43
186.32	1404.91
186.54	1376.24
186.76	1382.38
186.98	1423.34
187.20	1298.41
187.42	1413.10
187.64	1402.86
187.86	1433.58
188.08	1468.39
188.30	1384.43
188.52	1345.52
188.75	1419.24
188.97	1329.13
189.19	1347.56
189.41	1355.76
189.63	1363.95
189.85	1392.62
190.07	1366.00
190.29	1298.41
190.51	1366.00
190.73	1320.94
190.95	1429.48
191.17	1449.96
191.39	1300.46
191.61	1304.56
191.84	1359.85
192.06	1341.42
192.28	1322.99
192.50	1462.25
192.72	1363.95
192.94	1392.62
193.16	1402.86
193.38	1363.95
193.60	1464.30
193.82	1417.19
194.04	1392.62
194.26	1417.19
194.48	1300.46
194.70	1372.14
194.92	1271.79
195.14	1310.70
195.36	1398.76
195.58	1445.87
195.80	1370.09
196.02	1374.19
196.24	1343.47
196.46	1413.10
196.69	1351.66
196.91	1411.05
197.13	1497.07
197.35	1366.00
197.57	1380.33
197.79	1316.84
198.01	1376.24
198.23	1380.33
198.45	1366.00
198.67	1329.13
198.89	1363.95
199.11	1327.08
199.33	1320.94
199.55	1349.61
199.77	1445.87
199.99	1404.91
200.21	1265.64
200.43	1406.95
200.65	1314.80
200.87	1374.19
201.09	1376.24
201.31	1404.91
201.53	1361.90
201.75	1406.95
201.97	1363.95
202.19	1372.14
202.41	1419.24
202.63	1474.54
202.85	1384.43
203.07	1355.76
203.29	1343.47
203.51	1316.84
203.73	1306.60
203.95	1486.83
204.17	1394.67
204.39	1429.48
204.61	1345.52
204.83	1300.46
205.05	1427.43
205.27	1402.86
205.49	1423.34
205.71	1413.10
205.93	1339.37
206.15	1343.47
206.37	1376.24
206.59	1314.80
206.81	1243.12
207.03	1404.91
207.25	1443.82
207.47	1345.52
207.69	1376.24
207.91	1366.00
208.13	1437.67
208.34	1353.71
208.56	1404.91
208.78	1456.11
209.00	1419.24
209.22	1366.00
209.44	1386.47
209.66	1333.23
209.88	1329.13
210.10	1331.18
210.32	1390.57
210.54	1492.97
210.76	1392.62
210.98	1363.95
211.20	1320.94
211.42	1366.00
211.64	1368.04
211.86	1363.95
212.08	1388.52
212.30	1409.00
212.52	1452.01
212.74	1409.00
212.96	1390.57
213.17	1353.71
213.39	1327.08
213.61	1331.18
213.83	1437.67
214.05	1310.70
214.27	1433.58
214.49	1363.95
214.71	1347.56
214.93	1472.49
215.15	1427.43
215.37	1427.43
215.59	1327.08
215.81	1386.47
216.03	1396.71
216.24	1329.13
216.46	1394.67
216.68	1392.62
216.90	1433.58
217.12	1380.33
217.34	1443.82
217.56	1368.04
217.78	1470.44
218.00	1368.04
218.22	1484.78
218.44	1449.96
218.66	1388.52
218.87	1470.44
219.09	1439.72
219.31	1396.71
219.53	1345.52
219.75	1312.75
219.97	1314.80
220.19	1363.95
220.41	1396.71
220.63	1404.91
220.85	1411.05
221.06	1363.95
221.28	1415.15
221.50	1329.13
221.72	1335.28
221.94	1374.19
222.16	1423.34
222.38	1372.14
222.60	1409.00
222.82	1347.56
223.03	1413.10
223.25	1236.97
223.47	1370.09
223.69	1474.54
223.91	1435.63
224.13	1331.18
224.35	1400.81
224.57	1433.58
224.78	1325.04
225.00	1279.98
225.22	1345.52
225.44	1411.05
225.66	1413.10
225.88	1337.32
226.10	1390.57
226.32	1357.80
226.53	1396.71
226.75	1347.56
226.97	1378.28
227.19	1341.42
227.41	1302.51
227.63	1359.85
227.85	1353.71
228.06	1380.33
228.28	1413.10
228.50	1361.90
228.72	1349.61
228.94	1388.52
229.16	1318.89
229.37	1304.56
229.59	1302.51
229.81	1380.33
230.03	1384.43
230.25	1243.12
230.47	1245.16
230.69	1320.94
230.90	1341.42
231.12	1361.90
231.34	1357.80
231.56	1361.90
231.78	1329.13
232.00	1370.09
232.21	1355.76
232.43	1390.57
232.65	1329.13
232.87	1351.66
233.09	1312.75
233.30	1392.62
233.52	1351.66
233.74	1288.17
233.96	1337.32
234.18	1339.37
234.40	1341.42
234.61	1359.85
234.83	1322.99
235.05	1327.08
235.27	1376.24
235.49	1322.99
235.70	1325.04
235.92	1437.67
236.14	1366.00
236.36	1495.02
236.58	1417.19
236.79	1353.71
237.01	1322.99
237.23	1374.19
237.45	1439.72
237.67	1374.19
237.88	1384.43
238.10	1435.63
238.32	1318.89
238.54	1411.05
238.76	1404.91
238.97	1333.23
239.19	1239.02
239.41	1527.78
239.63	1335.28
239.85	1374.19
240.06	1425.39
240.28	1411.05
240.50	1396.71
240.72	1378.28
240.93	1366.00
241.15	1413.10
241.37	1351.66
241.59	1427.43
241.81	1351.66
242.02	1441.77
242.24	1361.90
242.46	1343.47
242.68	1406.95
242.89	1402.86
243.11	1443.82
243.33	1437.67
243.55	1374.19
243.76	1378.28
243.98	1378.28
244.20	1468.39
244.42	1376.24
244.64	1443.82
244.85	1304.56
245.07	1284.08
245.29	1345.52
245.51	1322.99
245.72	1355.76
245.94	1411.05
246.16	1400.81
246.38	1394.67
246.59	1378.28
246.81	1376.24
247.03	1349.61
247.24	1339.37
247.46	1351.66
247.68	1384.43
247.90	1402.86
248.11	1361.90
248.33	1398.76
248.55	1361.90
248.77	1445.87
248.98	1447.91
249.20	1413.10
249.42	1331.18
249.64	1419.24
249.85	1314.80
250.07	1341.42
250.29	1386.47
250.50	1390.57
250.72	1312.75
250.94	1355.76
251.16	1441.77
251.37	1456.11
251.59	1460.20
251.81	1368.04
252.02	1476.59
252.24	1345.52
252.46	1460.20
252.68	1366.00
252.89	1327.08
253.11	1372.14
253.33	1406.95
253.54	1327.08
253.76	1331.18
253.98	1372.14
254.20	1345.52
254.41	1339.37
254.63	1349.61
254.85	1349.61
255.06	1310.70
255.28	1458.15
255.50	1366.00
255.71	1368.04
255.93	1361.90
256.15	1445.87
256.36	1353.71
256.58	1380.33
256.80	1425.39
257.02	1302.51
257.23	1341.42
257.45	1376.24
257.67	1380.33
257.88	1382.38
258.10	1345.52
258.32	1286.12
258.53	1368.04
258.75	1470.44
258.97	1314.80
259.18	1384.43
259.40	1411.05
259.62	1488.87
259.83	1406.95
260.05	1419.24
260.27	1550.31
260.48	1376.24
260.70	1290.22
260.92	1392.62
261.13	1357.80
261.35	1406.95
261.57	1363.95
261.78	1306.60
262.00	1378.28
262.22	1378.28
262.43	1372.14
262.65	1349.61
262.86	1392.62
263.08	1490.92
263.30	1370.09
263.51	1308.65
263.73	1361.90
263.95	1449.96
264.16	1292.27
264.38	1351.66
264.60	1427.43
264.81	1372.14
265.03	1394.67
265.25	1427.43
265.46	1376.24
265.68	1343.47
265.89	1431.53
266.11	1327.08
266.33	1423.34
266.54	1425.39
266.76	1464.30
266.98	1409.00
267.19	1417.19
267.41	1443.82
267.62	1429.48
267.84	1302.51
268.06	1439.72
268.27	1353.71
268.49	1372.14
268.70	1445.87
268.92	1353.71
269.14	1316.84
269.35	1255.40
269.57	1392.62
269.79	1445.87
270.00	1302.51
270.22	1435.63
270.43	1339.37
270.65	1392.62
270.87	1439.72
271.08	1380.33
271.30	1429.48
271.51	1320.94
271.73	1413.10
271.95	1472.49
272.16	1400.81
272.38	1357.80
272.59	1296.36
272.81	1470.44
273.02	1333.23
273.24	1386.47
273.46	1382.38
273.67	1374.19
273.89	1265.64
274.10	1351.66
274.32	1384.43
274.54	1353.71
274.75	1353.71
274.97	1409.00
275.18	1378.28
275.40	1361.90
275.61	1363.95
275.83	1404.91
276.05	1353.71
276.26	1380.33
276.48	1388.52
276.69	1286.12
276.91	1318.89
277.12	1460.20
277.34	1296.36
277.55	1376.24
277.77	1335.28
277.99	1386.47
278.20	1386.47
278.42	1322.99
278.63	1333.23
278.85	1337.32
279.06	1333.23
279.28	1337.32
279.49	1378.28
279.71	1339.37
279.93	1376.24
280.14	1245.16
280.36	1343.47
280.57	1456.11
280.79	1415.15
281.00	1349.61
281.22	1245.16
281.43	1347.56
281.65	1296.36
281.86	1322.99
282.08	1419.24
282.29	1427.43
282.51	1343.47
282.73	1359.85
282.94	1249.26
283.16	1339.37
283.37	1376.24
283.59	1423.34
283.80	1429.48
284.02	1316.84
284.23	1415.15
284.45	1394.67
284.66	1339.37
284.88	1302.51
285.09	1419.24
285.31	1380.33
285.52	1435.63
285.74	1257.45
285.95	1339.37
286.17	1460.20
286.38	1402.86
286.60	1312.75
286.81	1314.80
287.03	1417.19
287.24	1394.67
287.46	1325.04
287.67	1370.09
287.89	1449.96
288.10	1353.71
288.32	1343.47
288.53	1431.53
288.75	1372.14
288.96	1382.38
289.18	1310.70
289.39	1357.80
289.61	1390.57
289.82	1464.30
290.04	1392.62
290.25	1316.84
290.47	1363.95
290.68	1339.37
290.90	1372.14
291.11	1347.56
291.33	1372.14
291.54	1277.93
291.76	1327.08
291.97	1347.56
292.18	1329.13
292.40	1363.95
292.61	1296.36
292.83	1404.91
293.04	1406.95
293.26	1370.09
293.47	1355.76
293.69	1318.89
293.90	1380.33
294.12	1386.47
294.33	1347.56
294.55	1370.09
294.76	1409.00
294.97	1433.58
295.19	1441.77
295.40	1409.00
295.62	1388.52
295.83	1355.76
296.05	1349.61
296.26	1382.38
296.48	1310.70
296.69	1286.12
296.90	1298.41
297.12	1322.99
297.33	1402.86
297.55	1411.05
297.76	1398.76
297.98	1433.58
298.19	1423.34
298.41	1327.08
298.62	1290.22
298.83	1419.24
299.05	1325.04
299.26	1306.60
299.48	1306.60
299.69	1411.05
299.90	1435.63
300.12	1312.75
300.33	1523.69
300.55	1302.51
300.76	1386.47
300.98	1327.08
301.19	1433.58
301.40	1409.00
301.62	1376.24
301.83	1398.76
302.05	1404.91
302.26	1359.85
302.47	1331.18
302.69	1331.18
302.90	1361.90
303.12	1337.32
303.33	1318.89
303.54	1384.43
303.76	1392.62
303.97	1409.00
304.19	1406.95
304.40	1308.65
304.61	1331.18
304.83	1335.28
305.04	1474.54
305.26	1411.05
305.47	1265.64
305.68	1382.38
305.90	1347.56
306.11	1462.25
306.33	1370.09
306.54	1343.47
306.75	1296.36
306.97	1335.28
307.18	1290.22
307.39	1288.17
307.61	1382.38
307.82	1361.90
308.04	1361.90
308.25	1282.03
308.46	1425.39
308.68	1357.80
308.89	1335.28
309.10	1318.89
309.32	1413.10
309.53	1322.99
309.74	1339.37
309.96	1384.43
310.17	1435.63
310.39	1357.80
310.60	1284.08
310.81	1374.19
311.03	1343.47
311.24	1449.96
311.45	1318.89
311.67	1427.43
311.88	1263.60
312.09	1345.52
312.31	1333.23
312.52	1306.60
312.73	1411.05
312.95	1312.75
313.16	1304.56
313.37	1472.49
313.59	1404.91
313.80	1417.19
314.01	1470.44
314.23	1370.09
314.44	1390.57
314.65	1331.18
314.87	1290.22
315.08	1361.90
315.29	1333.23
315.51	1361.90
315.72	1296.36
315.93	1361.90
316.15	1501.16
316.36	1366.00
316.57	1353.71
316.79	1472.49
317.00	1370.09
317.21	1384.43
317.43	1423.34
317.64	1349.61
317.85	1363.95
318.07	1525.74
318.28	1474.54
318.49	1548.26
318.70	1630.18
318.92	1495.02
319.13	1470.44
319.34	1435.63
319.56	1482.73
319.77	1497.07
319.98	1478.63
320.20	1409.00
320.41	1423.34
320.62	1400.81
320.83	1439.72
321.05	1456.11
321.26	1406.95
321.47	1392.62
321.69	1435.63
321.90	1353.71
322.11	1337.32
322.32	1384.43
322.54	1384.43
322.75	1329.13
322.96	1486.83
323.18	1325.04
323.39	1279.98
323.60	1357.80
323.81	1378.28
324.03	1314.80
324.24	1343.47
324.45	1318.89
324.66	1372.14
324.88	1366.00
325.09	1439.72
325.30	1361.90
325.52	1374.19
325.73	1343.47
325.94	1363.95
326.15	1279.98
326.37	1335.28
326.58	1388.52
326.79	1339.37
327.00	1368.04
327.22	1333.23
327.43	1417.19
327.64	1357.80
327.85	1386.47
328.07	1361.90
328.28	1435.63
328.49	1302.51
328.70	1368.04
328.92	1318.89
329.13	1417.19
329.34	1302.51
329.55	1423.34
329.76	1431.53
329.98	1406.95
330.19	1380.33
330.40	1460.20
330.61	1363.95
330.83	1400.81
331.04	1363.95
331.25	1370.09
331.46	1402.86
331.68	1312.75
331.89	1439.72
332.10	1331.18
332.31	1320.94
332.52	1320.94
332.74	1363.95
332.95	1329.13
333.16	1368.04
333.37	1468.39
333.58	1347.56
333.80	1458.15
334.01	1366.00
334.22	1406.95
334.43	1288.17
334.64	1351.66
334.86	1294.32
335.07	1376.24
335.28	1454.06
335.49	1302.51
335.70	1349.61
335.92	1413.10
336.13	1429.48
336.34	1374.19
336.55	1441.77
336.76	1429.48
336.98	1304.56
337.19	1351.66
337.40	1458.15
337.61	1431.53
337.82	1382.38
338.04	1372.14
338.25	1314.80
338.46	1382.38
338.67	1329.13
338.88	1355.76
339.09	1347.56
339.31	1275.88
339.52	1341.42
339.73	1335.28
339.94	1351.66
340.15	1413.10
340.36	1384.43
340.58	1329.13
340.79	1327.08
341.00	1366.00
341.21	1310.70
341.42	1437.67
341.63	1431.53
341.85	1425.39
342.06	1310.70
342.27	1357.80
342.48	1351.66
342.69	1339.37
342.90	1437.67
343.12	1400.81
343.33	1363.95
343.54	1376.24
343.75	1419.24
343.96	1335.28
344.17	1370.09
344.38	1363.95
344.60	1286.12
344.81	1318.89
345.02	1388.52
345.23	1376.24
345.44	1462.25
345.65	1341.42
345.86	1380.33
346.07	1359.85
346.29	1361.90
346.50	1417.19
346.71	1378.28
346.92	1378.28
347.13	1409.00
347.34	1333.23
347.55	1394.67
347.76	1411.05
347.98	1396.71
348.19	1349.61
348.40	1363.95
348.61	1382.38
348.82	1345.52
349.03	1396.71
349.24	1339.37
349.45	1415.15
349.66	1325.04
349.88	1421.29
350.09	1271.79
350.30	1425.39
350.51	1400.81
350.72	1341.42
350.93	1349.61
351.14	1357.80
351.35	1304.56
351.56	1394.67
351.77	1376.24
351.99	1454.06
352.20	1484.78
352.41	1378.28
352.62	1322.99
352.83	1366.00
353.04	1349.61
353.25	1388.52
353.46	1421.29
353.67	1368.04
353.88	1343.47
354.09	1435.63
354.30	1398.76
354.52	1363.95
354.73	1312.75
354.94	1335.28
355.15	1359.85
355.36	1435.63
355.57	1341.42
355.78	1363.95
355.99	1337.32
356.20	1282.03
356.41	1345.52
356.62	1402.86
356.83	1363.95
357.04	1402.86
357.25	1329.13
357.46	1288.17
357.68	1349.61
357.89	1339.37
358.10	1376.24
358.31	1306.60
358.52	1372.14
358.73	1265.64
358.94	1300.46
359.15	1339.37
359.36	1454.06
359.57	1327.08
359.78	1388.52
359.99	1322.99
360.20	1331.18
360.41	1318.89
360.62	1456.11
360.83	1409.00
361.04	1411.05
361.25	1380.33
361.46	1394.67
361.67	1425.39
361.88	1456.11
362.09	1318.89
362.30	1464.30
362.51	1368.04
362.72	1411.05
362.93	1390.57
363.14	1368.04
363.35	1431.53
363.56	1288.17
363.78	1454.06
363.99	1355.76
364.20	1267.69
364.41	1413.10
364.62	1437.67
364.83	1392.62
365.04	1290.22
365.25	1402.86
365.46	1388.52
365.67	1349.61
365.88	1345.52
366.09	1327.08
366.30	1339.37
366.51	1386.47
366.72	1277.93
366.93	1327.08
367.14	1343.47
367.35	1378.28
367.56	1366.00
367.77	1376.24
367.98	1400.81
368.18	1423.34
368.39	1253.36
368.60	1302.51
368.81	1382.38
369.02	1390.57
369.23	1374.19
369.44	1351.66
369.65	1337.32
369.86	1382.38
370.07	1400.81
370.28	1271.79
370.49	1404.91
370.70	1402.86
370.91	1351.66
371.12	1316.84
371.33	1462.25
371.54	1363.95
371.75	1378.28
371.96	1339.37
372.17	1331.18
372.38	1314.80
372.59	1464.30
372.80	1460.20
373.01	1433.58
373.22	1431.53
373.43	1413.10
373.64	1298.41
373.85	1402.86
374.06	1454.06
374.26	1402.86
374.47	1392.62
374.68	1431.53
374.89	1378.28
375.10	1351.66
375.31	1361.90
375.52	1394.67
375.73	1310.70
375.94	1339.37
376.15	1423.34
376.36	1378.28
376.57	1359.85
376.78	1388.52
376.99	1396.71
377.20	1404.91
377.40	1329.13
377.61	1429.48
377.82	1415.15
378.03	1441.77
378.24	1390.57
378.45	1374.19
378.66	1386.47
378.87	1353.71
379.08	1398.76
379.29	1372.14
379.50	1380.33
379.71	1327.08
379.91	1429.48
380.12	1329.13
380.33	1314.80
380.54	1337.32
380.75	1351.66
380.96	1421.29
381.17	1335.28
381.38	1404.91
381.59	1431.53
381.80	1470.44
382.00	1538.02
382.21	1417.19
382.42	1513.45
382.63	1515.50
382.84	1456.11
383.05	1439.72
383.26	1482.73
383.47	1384.43
383.68	1402.86
383.88	1343.47
384.09	1400.81
384.30	1454.06
384.51	1423.34
384.72	1392.62
384.93	1308.65
385.14	1400.81
385.35	1490.92
385.55	1345.52
385.76	1359.85
385.97	1388.52
386.18	1296.36
386.39	1402.86
386.60	1409.00
386.81	1458.15
387.02	1335.28
387.22	1419.24
387.43	1572.84
387.64	1519.59
387.85	2187.23
388.06	5724.07
388.27	9410.42
388.48	11462.48
388.68	13113.14
388.89	13432.63
389.10	10710.88
389.31	9465.71
389.52	8208.26
389.73	7481.23
389.93	7067.54
390.14	6557.60
390.35	5945.25
390.56	5423.02
390.77	4630.46
390.98	3725.26
391.18	2869.20
391.39	2154.46
391.60	1730.53
391.81	1628.14
392.02	1425.39
392.23	1441.77
392.43	1398.76
392.64	1396.71
392.85	1374.19
393.06	1447.91
393.27	1411.05
393.47	1316.84
393.68	1398.76
393.89	1366.00
394.10	1400.81
394.31	1314.80
394.52	1353.71
394.72	1366.00
394.93	1456.11
395.14	1329.13
395.35	1413.10
395.56	1302.51
395.76	1525.74
395.97	1638.38
396.18	1615.85
396.39	1642.47
396.60	1634.28
396.80	1574.89
397.01	1458.15
397.22	1523.69
397.43	1552.36
397.64	1441.77
397.84	1443.82
398.05	1462.25
398.26	1443.82
398.47	1507.30
398.67	1417.19
398.88	1413.10
399.09	1433.58
399.30	1378.28
399.51	1390.57
399.71	1320.94
399.92	1437.67
400.13	1447.91
400.34	1404.91
400.54	1308.65
400.75	1419.24
400.96	1392.62
401.17	1486.83
401.37	1406.95
401.58	1388.52
401.79	1509.35
402.00	1691.62
402.21	1847.27
402.41	1849.32
402.62	1871.84
402.83	1753.06
403.04	1652.71
403.24	1671.14
403.45	1570.79
403.66	1523.69
403.87	1540.07
404.07	1568.74
404.28	1535.98
404.49	1583.08
404.70	1454.06
404.90	1437.67
405.11	1501.16
405.32	1443.82
405.52	1419.24
405.73	1347.56
405.94	1312.75
406.15	1372.14
406.35	1404.91
406.56	1382.38
406.77	1374.19
406.98	1402.86
407.18	1374.19
407.39	1492.97
407.60	1357.80
407.80	1406.95
408.01	1396.71
408.22	1456.11
408.43	1370.09
408.63	1363.95
408.84	1368.04
409.05	1394.67
409.25	1318.89
409.46	1359.85
409.67	1310.70
409.88	1378.28
410.08	1386.47
410.29	1384.43
410.50	1413.10
410.70	1366.00
410.91	1351.66
411.12	1421.29
411.32	1501.16
411.53	1421.29
411.74	1411.05
411.95	1456.11
412.15	1415.15
412.36	1445.87
412.57	1413.10
412.77	1466.35
412.98	1374.19
413.19	1404.91
413.39	1423.34
413.60	1419.24
413.81	1400.81
414.01	1380.33
414.22	1398.76
414.43	1337.32
414.63	1409.00
414.84	1368.04
415.05	1329.13
415.25	1355.76
415.46	1370.09
415.67	1396.71
415.87	1304.56
416.08	1402.86
416.29	1368.04
416.49	1320.94
416.70	1372.14
416.91	1337.32
417.11	1425.39
417.32	1400.81
417.53	1415.15
417.73	1372.14
417.94	1384.43
418.15	1396.71
418.35	1370.09
418.56	1357.80
418.77	1462.25
418.97	1318.89
419.18	1329.13
419.38	1267.69
419.59	1376.24
419.80	1476.59
420.00	1343.47
420.21	1339.37
420.42	1421.29
420.62	1409.00
420.83	1286.12
421.04	1294.32
421.24	1361.90
421.45	1462.25
421.65	1406.95
421.86	1331.18
422.07	1409.00
422.27	1376.24
422.48	1351.66
422.69	1335.28
422.89	1376.24
423.10	1333.23
423.30	1363.95
423.51	1433.58
423.72	1386.47
423.92	1413.10
424.13	1341.42
424.33	1378.28
424.54	1425.39
424.75	1288.17
424.95	1480.68
425.16	1394.67
425.36	1398.76
425.57	1378.28
425.78	1355.76
425.98	1411.05
426.19	1390.57
426.39	1368.04
426.60	1294.32
426.81	1427.43
427.01	1335.28
427.22	1331.18
427.42	1255.40
427.63	1273.84
427.83	1439.72
428.04	1394.67
428.25	1388.52
428.45	1427.43
428.66	1388.52
428.86	1415.15
429.07	1275.88
429.28	1378.28
429.48	1374.19
429.69	1331.18
429.89	1380.33
430.10	1378.28
430.30	1437.67
430.51	1308.65
430.71	1279.98
430.92	1378.28
431.13	1368.04
431.33	1439.72
431.54	1345.52
431.74	1458.15
431.95	1402.86
432.15	1304.56
432.36	1359.85
432.56	1406.95
432.77	1423.34
432.98	1398.76
433.18	1394.67
433.39	1314.80
433.59	1402.86
433.80	1363.95
434.00	1404.91
434.21	1394.67
434.41	1320.94
434.62	1470.44
434.82	1290.22
435.03	1372.14
435.23	1320.94
435.44	1343.47
435.64	1415.15
435.85	1421.29
436.06	1429.48
436.26	1427.43
436.47	1343.47
436.67	1359.85
436.88	1359.85
437.08	1472.49
437.29	1353.71
437.49	1419.24
437.70	1404.91
437.90	1409.00
438.11	1558.50
438.31	1521.64
438.52	1556.46
438.72	1585.13
438.93	1490.92
439.13	1398.76
439.34	1560.55
439.54	1439.72
439.75	1333.23
439.95	1386.47
440.16	1396.71
440.36	1380.33
440.57	1419.24
440.77	1363.95
440.98	1392.62
441.18	1361.90
441.39	1351.66
441.59	1325.04
441.80	1492.97
442.00	1372.14
442.21	1429.48
442.41	1327.08
442.62	1368.04
442.82	1415.15
443.02	1366.00
443.23	1429.48
443.43	1429.48
443.64	1386.47
443.84	1423.34
444.05	1460.20
444.25	1386.47
444.46	1335.28
444.66	1433.58
444.87	1404.91
445.07	1329.13
445.28	1327.08
445.48	1378.28
445.69	1400.81
445.89	1400.81
446.09	1470.44
446.30	2326.49
446.50	3665.86
446.71	4724.66
446.91	5396.40
447.12	5502.89
447.32	4902.84
447.53	3995.59
447.73	3755.97
447.93	3516.36
448.14	3174.35
448.34	2944.98
448.55	2793.43
448.75	2768.85
448.96	2715.61
449.16	2461.66
449.36	2207.71
449.57	1943.52
449.77	1765.35
449.98	1542.12
450.18	1595.37
450.39	1513.45
450.59	1452.01
450.79	1396.71
451.00	1376.24
451.20	1433.58
451.41	1404.91
451.61	1402.86
451.81	1417.19
452.02	1366.00
452.22	1384.43
452.43	1347.56
452.63	1322.99
452.84	1437.67
453.04	1388.52
453.24	1290.22
453.45	1318.89
453.65	1374.19
453.86	1331.18
454.06	1402.86
454.26	1353.71
454.47	1353.71
454.67	1390.57
454.87	1460.20
455.08	1404.91
455.28	1386.47
455.49	1349.61
455.69	1382.38
455.89	1441.77
456.10	1509.35
456.30	1294.32
456.51	1327.08
456.71	1490.92
456.91	1421.29
457.12	1398.76
457.32	1361.90
457.52	1384.43
457.73	1411.05
457.93	1390.57
458.14	1374.19
458.34	1314.80
458.54	1349.61
458.75	1347.56
458.95	1398.76
459.15	1404.91
459.36	1386.47
459.56	1419.24
459.76	1415.15
459.97	1370.09
460.17	1351.66
460.37	1417.19
460.58	1370.09
460.78	1392.62
460.99	1402.86
461.19	1318.89
461.39	1341.42
461.60	1314.80
461.80	1472.49
462.00	1314.80
462.21	1337.32
462.41	1314.80
462.61	1312.75
462.82	1329.13
463.02	1409.00
463.22	1394.67
463.43	1464.30
463.63	1366.00
463.83	1421.29
464.04	1400.81
464.24	1449.96
464.44	1339.37
464.64	1382.38
464.85	1474.54
465.05	1388.52
465.25	1337.32
465.46	1370.09
465.66	1427.43
465.86	1341.42
466.07	1361.90
466.27	1372.14
466.47	1402.86
466.68	1357.80
466.88	1386.47
467.08	1331.18
467.29	1398.76
467.49	1337.32
467.69	1425.39
467.89	1396.71
468.10	1347.56
468.30	1357.80
468.50	1390.57
468.71	1435.63
468.91	1325.04
469.11	1484.78
469.31	1449.96
469.52	1316.84
469.72	1437.67
469.92	1478.63
470.13	1386.47
470.33	1320.94
470.53	1683.43
470.73	2029.54
470.94	2263.01
471.14	2373.60
471.34	2443.23
471.54	2224.09
471.75	2023.39
471.95	1920.99
472.15	1839.08
472.36	1828.84
472.56	1812.45
472.76	1744.87
472.96	1726.44
473.17	1621.99
473.37	1673.19
473.57	1540.07
473.77	1486.83
473.98	1509.35
474.18	1386.47
474.38	1515.50
474.58	1390.57
474.79	1359.85
474.99	1404.91
475.19	1411.05
475.39	1355.76
475.60	1394.67
475.80	1427.43
476.00	1314.80
476.20	1388.52
476.41	1417.19
476.61	1388.52
476.81	1368.04
477.01	1312.75
477.21	1402.86
477.42	1409.00
477.62	1386.47
477.82	1419.24
478.02	1380.33
478.23	1390.57
478.43	1333.23
478.63	1443.82
478.83	1443.82
479.03	1382.38
479.24	1411.05
479.44	1458.15
479.64	1339.37
479.84	1296.36
480.04	1329.13
480.25	1456.11
480.45	1329.13
480.65	1409.00
480.85	1427.43
481.06	1349.61
481.26	1337.32
481.46	1374.19
481.66	1419.24
481.86	1366.00
482.06	1449.96
482.27	1441.77
482.47	1300.46
482.67	1413.10
482.87	1366.00
483.07	1427.43
483.28	1361.90
483.48	1419.24
483.68	1396.71
483.88	1359.85
484.08	1339.37
484.29	1345.52
484.49	1460.20
484.69	1384.43
484.89	1433.58
485.09	1499.11
485.29	1329.13
485.50	1396.71
485.70	1421.29
485.90	1409.00
486.10	1406.95
486.30	1349.61
486.50	1390.57
486.71	1370.09
486.91	1359.85
487.11	1398.76
487.31	1402.86
487.51	1345.52
487.71	1261.55
487.91	1322.99
488.12	1335.28
488.32	1320.94
488.52	1329.13
488.72	1273.84
488.92	1282.03
489.12	1462.25
489.32	1404.91
489.53	1449.96
489.73	1388.52
489.93	1398.76
490.13	1445.87
490.33	1302.51
490.53	1400.81
490.73	1445.87
490.94	1292.27
491.14	1476.59
491.34	1611.75
491.54	2133.98
491.74	2549.72
491.94	2963.41
492.14	3147.73
492.34	3149.78
492.54	2529.24
492.75	2336.73
492.95	2226.14
493.15	2099.17
493.35	1976.29
493.55	1918.95
493.75	1871.84
493.95	1943.52
494.15	1787.88
494.35	1722.34
494.56	1564.65
494.76	1552.36
494.96	1443.82
495.16	1495.02
495.36	1449.96
495.56	1411.05
495.76	1331.18
495.96	1368.04
496.16	1308.65
496.36	1484.78
496.56	1355.76
496.77	1411.05
496.97	1384.43
497.17	1355.76
497.37	1431.53
497.57	1441.77
497.77	1431.53
497.97	1366.00
498.17	1374.19
498.37	1409.00
498.57	1351.66
498.77	1427.43
498.97	1409.00
499.17	1439.72
499.38	1312.75
499.58	1421.29
499.78	1378.28
499.98	1437.67
500.18	1454.06
500.38	1413.10
500.58	1736.68
500.78	2901.97
500.98	5435.31
501.18	6834.07
501.38	8128.39
501.58	8593.28
501.78	7344.02
501.98	5793.70
502.18	5167.03
502.38	4536.25
502.58	4075.46
502.78	3796.93
502.98	3661.77
503.18	3506.12
503.38	3358.67
503.59	3114.96
503.79	2818.00
503.99	2592.73
504.19	2396.12
504.39	2097.12
504.59	2099.17
504.79	1964.00
504.99	1789.92
505.19	1599.46
505.39	1642.47
505.59	1562.60
505.79	1560.55
505.99	1523.69
506.19	1478.63
506.39	1480.68
506.59	1458.15
506.79	1431.53
506.99	1533.93
507.19	1427.43
507.39	1419.24
507.59	1333.23
507.79	1404.91
507.99	1398.76
508.19	1429.48
508.39	1370.09
508.59	1349.61
508.79	1427.43
508.99	1398.76
509.19	1404.91
509.39	1386.47
509.59	1411.05
509.79	1400.81
509.99	1396.71
510.19	1452.01
510.39	1437.67
510.59	1335.28
510.79	1355.76
510.99	1335.28
511.19	1386.47
511.39	1458.15
511.59	1380.33
511.79	1478.63
511.99	1464.30
512.19	1433.58
512.38	1335.28
512.58	1419.24
512.78	1384.43
512.98	1435.63
513.18	1462.25
513.38	1316.84
513.58	1417.19
513.78	1388.52
513.98	1337.32
514.18	1404.91
514.38	1366.00
514.58	1411.05
514.78	1404.91
514.98	1378.28
515.18	1386.47
515.38	1351.66
515.58	1417.19
515.78	1343.47
515.98	1386.47
516.18	1425.39
516.38	1411.05
516.57	1347.56
516.77	1384.43
516.97	1341.42
517.17	1359.85
517.37	1316.84
517.57	1402.86
517.77	1433.58
517.97	1318.89
518.17	1366.00
518.37	1288.17
518.57	1335.28
518.77	1376.24
518.97	1390.57
519.16	1417.19
519.36	1386.47
519.56	1357.80
519.76	1376.24
519.96	1298.41
520.16	1423.34
520.36	1312.75
520.56	1380.33
520.76	1347.56
520.96	1380.33
521.16	1445.87
521.35	1464.30
521.55	1404.91
521.75	1402.86
521.95	1413.10
522.15	1370.09
522.35	1329.13
522.55	1417.19
522.75	1359.85
522.95	1404.91
523.14	1290.22
523.34	1431.53
523.54	1361.90
523.74	1390.57
523.94	1384.43
524.14	1359.85
524.34	1325.04
524.54	1454.06
524.73	1409.00
524.93	1372.14
525.13	1366.00
525.33	1333.23
525.53	1495.02
525.73	1359.85
525.93	1433.58
526.13	1368.04
526.32	1327.08
526.52	1406.95
526.72	1435.63
526.92	1361.90
527.12	1343.47
527.32	1339.37
527.52	1376.24
527.71	1380.33
527.91	1345.52
528.11	1341.42
528.31	1372.14
528.51	1357.80
528.71	1380.33
528.90	1361.90
529.10	1380.33
529.30	1441.77
529.50	1273.84
529.70	1400.81
529.90	1409.00
530.09	1386.47
530.29	1337.32
530.49	1404.91
530.69	1445.87
530.89	1296.36
531.09	1458.15
531.28	1435.63
531.48	1382.38
531.68	1378.28
531.88	1374.19
532.08	1429.48
532.28	1386.47
532.47	1427.43
532.67	1452.01
532.87	1390.57
533.07	1380.33
533.27	1449.96
533.46	1419.24
533.66	1384.43
533.86	1478.63
534.06	1390.57
534.26	1425.39
534.45	1310.70
534.65	1425.39
534.85	1427.43
535.05	1322.99
535.25	1376.24
535.44	1347.56
535.64	1382.38
535.84	1302.51
536.04	1429.48
536.24	1384.43
536.43	1370.09
536.63	1363.95
536.83	1443.82
537.03	1406.95
537.22	1368.04
537.42	1335.28
537.62	1349.61
537.82	1312.75
538.02	1359.85
538.21	1386.47
538.41	1478.63
538.61	1359.85
538.81	1433.58
539.00	1380.33
539.20	1374.19
539.40	1361.90
539.60	1312.75
539.79	1361.90
539.99	1349.61
540.19	1361.90
540.39	1388.52
540.58	1433.58
540.78	1400.81
540.98	1415.15
541.18	1417.19
541.37	1421.29
541.57	1433.58
541.77	1402.86
541.97	1335.28
542.16	1292.27
542.36	1366.00
542.56	1386.47
542.76	1501.16
542.95	1402.86
543.15	1435.63
543.35	1441.77
543.54	1361.90
543.74	1359.85
543.94	1482.73
544.14	1320.94
544.33	1378.28
544.53	1339.37
544.73	1423.34
544.93	1363.95
545.12	1322.99
545.32	1411.05
545.52	1339.37
545.71	1304.56
545.91	1339.37
546.11	1380.33
546.30	1288.17
546.50	1366.00
546.70	1437.67
546.90	1396.71
547.09	1366.00
547.29	1337.32
547.49	1341.42
547.68	1363.95
547.88	1370.09
548.08	1370.09
548.27	1605.61
548.47	1320.94
548.67	1314.80
548.87	1372.14
549.06	1351.66
549.26	1439.72
549.46	1347.56
549.65	1388.52
549.85	1376.24
550.05	1353.71
550.24	1347.56
550.44	1417.19
550.64	1339.37
550.83	1380.33
551.03	1419.24
551.23	1411.05
551.42	1361.90
551.62	1392.62
551.82	1357.80
552.01	1366.00
552.21	1452.01
552.41	1363.95
552.60	1464.30
552.80	1357.80
553.00	1302.51
553.19	1427.43
553.39	1419.24
553.59	1351.66
553.78	1347.56
553.98	1435.63
554.17	1361.90
554.37	1423.34
554.57	1421.29
554.76	1476.59
554.96	1374.19
555.16	1339.37
555.35	1382.38
555.55	1353.71
555.75	1361.90
555.94	1400.81
556.14	1363.95
556.33	1241.07
556.53	1316.84
556.73	1359.85
556.92	1406.95
557.12	1396.71
557.32	1449.96
557.51	1384.43
557.71	1443.82
557.90	1409.00
558.10	1406.95
558.30	1396.71
558.49	1439.72
558.69	1394.67
558.88	1333.23
559.08	1404.91
559.28	1394.67
559.47	1370.09
559.67	1345.52
559.86	1390.57
560.06	1435.63
560.26	1413.10
560.45	1386.47
560.65	1335.28
560.84	1431.53
561.04	1308.65
561.24	1380.33
561.43	1316.84
561.63	1486.83
561.82	1322.99
562.02	1337.32
562.22	1322.99
562.41	1349.61
562.61	1370.09
562.80	1355.76
563.00	1406.95
563.19	1413.10
563.39	1378.28
563.59	1452.01
563.78	1331.18
563.98	1339.37
564.17	1361.90
564.37	1386.47
564.56	1355.76
564.76	1347.56
564.96	1427.43
565.15	1402.86
565.35	1454.06
565.54	1366.00
565.74	1427.43
565.93	1476.59
566.13	1370.09
566.32	1470.44
566.52	1429.48
566.71	1386.47
566.91	1400.81
567.11	1417.19
567.30	1320.94
567.50	1427.43
567.69	1429.48
567.89	1388.52
568.08	1292.27
568.28	1339.37
568.47	1337.32
568.67	1368.04
568.86	1294.32
569.06	1443.82
569.25	1339.37
569.45	1394.67
569.64	1361.90
569.84	1439.72
570.04	1484.78
570.23	1392.62
570.43	1282.03
570.62	1310.70
570.82	1472.49
571.01	1265.64
571.21	1378.28
571.40	1335.28
571.60	1472.49
571.79	1427.43
571.99	1484.78
572.18	1423.34
572.38	1488.87
572.57	1396.71
572.77	1370.09
572.96	1566.70
573.16	1374.19
573.35	1345.52
573.55	1372.14
573.74	1384.43
573.94	1400.81
574.13	1400.81
574.33	1452.01
574.52	1462.25
574.71	1404.91
574.91	1378.28
575.10	1294.32
575.30	1374.19
575.49	1347.56
575.69	1462.25
575.88	1470.44
576.08	1476.59
576.27	1511.40
576.47	1431.53
576.66	1486.83
576.86	1482.73
577.05	1437.67
577.25	1433.58
577.44	1423.34
577.64	1445.87
577.83	1374.19
578.02	1499.11
578.22	1533.93
578.41	1484.78
578.61	1411.05
578.80	1357.80
579.00	1443.82
579.19	1409.00
579.39	1480.68
579.58	1480.68
579.77	1488.87
579.97	1519.59
580.16	1499.11
580.36	1384.43
580.55	1472.49
580.75	1484.78
580.94	1443.82
581.13	1495.02
581.33	1482.73
581.52	1449.96
581.72	1511.40
581.91	1550.31
582.11	1509.35
582.30	1484.78
582.49	1492.97
582.69	1533.93
582.88	1447.91
583.08	1439.72
583.27	1470.44
583.47	1470.44
583.66	1355.76
583.85	1366.00
584.05	1402.86
584.24	1466.35
584.44	1470.44
584.63	1515.50
584.82	1499.11
585.02	1538.02
585.21	1617.90
585.41	1591.27
585.60	1576.94
585.79	1624.04
585.99	1611.75
586.18	1650.66
586.37	1834.98
586.57	2658.26
586.76	7819.14
586.96	24084.11
587.15	41340.30
587.34	52317.41
587.54	60028.01
587.73	59346.04
587.93	44541.27
588.12	32837.13
588.31	26678.89
588.51	22410.92
588.70	20147.92
588.89	18093.80
589.09	17250.04
589.28	15793.94
589.47	14378.79
589.67	12840.76
589.86	10637.15
590.06	8605.56
590.25	6631.32
590.44	5054.39
590.64	3751.88
590.83	2815.96
591.02	2176.99
591.22	1929.19
591.41	1830.88
591.60	1576.94
591.80	1615.85
591.99	1497.07
592.18	1429.48
592.38	1490.92
592.57	1490.92
592.76	1454.06
592.96	1460.20
593.15	1505.26
593.34	1509.35
593.54	1402.86
593.73	1419.24
593.92	1490.92
594.12	1495.02
594.31	1447.91
594.50	1511.40
594.70	1445.87
594.89	1495.02
595.08	1400.81
595.28	1417.19
595.47	1523.69
595.66	1507.30
595.86	1411.05
596.05	1384.43
596.24	1427.43
596.43	1519.59
596.63	1372.14
596.82	1378.28
597.01	1441.77
597.21	1501.16
597.40	1429.48
597.59	1515.50
597.79	1343.47
597.98	1437.67
598.17	1445.87
598.36	1415.15
598.56	1380.33
598.75	1402.86
598.94	1396.71
599.14	1472.49
599.33	1439.72
599.52	1445.87
599.71	1437.67
599.91	1417.19
600.10	1417.19
600.29	1384.43
600.48	1427.43
600.68	1417.19
600.87	1386.47
601.06	1294.32
601.26	1427.43
601.45	1361.90
601.64	1402.86
601.83	1404.91
602.03	1411.05
602.22	1322.99
602.41	1425.39
602.60	1509.35
602.80	1509.35
602.99	1433.58
603.18	1445.87
603.37	1456.11
603.57	1402.86
603.76	1437.67
603.95	1320.94
604.14	1347.56
604.34	1376.24
604.53	1359.85
604.72	1349.61
604.91	1333.23
605.10	1392.62
605.30	1366.00
605.49	1470.44
605.68	1306.60
605.87	1433.58
606.07	1402.86
606.26	1376.24
606.45	1310.70
606.64	1337.32
606.84	1443.82
607.03	1339.37
607.22	1435.63
607.41	1390.57
607.60	1460.20
607.80	1472.49
607.99	1384.43
608.18	1441.77
608.37	1359.85
608.56	1290.22
608.76	1454.06
608.95	1515.50
609.14	1505.26
609.33	1443.82
609.52	1535.98
609.72	1495.02
609.91	1509.35
610.10	1404.91
610.29	1527.78
610.48	1474.54
610.68	1435.63
610.87	1406.95
611.06	1431.53
611.25	1404.91
611.44	1466.35
611.63	1402.86
611.83	1435.63
612.02	1361.90
612.21	1413.10
612.40	1335.28
612.59	1370.09
612.79	1370.09
612.98	1378.28
613.17	1431.53
613.36	1384.43
613.55	1419.24
613.74	1458.15
613.93	1607.66
614.13	1583.08
614.32	1632.23
614.51	1662.95
614.70	1486.83
614.89	1464.30
615.08	1550.31
615.28	1650.66
615.47	1452.01
615.66	1468.39
615.85	1486.83
616.04	1476.59
616.23	1472.49
616.42	1413.10
616.62	1449.96
616.81	1419.24
617.00	1464.30
617.19	1421.29
617.38	1396.71
617.57	1388.52
617.76	1415.15
617.95	1447.91
618.15	1388.52
618.34	1413.10
618.53	1339.37
618.72	1439.72
618.91	1425.39
619.10	1421.29
619.29	1435.63
619.48	1443.82
619.68	1316.84
619.87	1464.30
620.06	1339.37
620.25	1345.52
620.44	1368.04
620.63	1339.37
620.82	1441.77
621.01	1351.66
621.20	1382.38
621.39	1423.34
621.59	1400.81
621.78	1421.29
621.97	1415.15
622.16	1411.05
622.35	1452.01
622.54	1437.67
622.73	1327.08
622.92	1339.37
623.11	1382.38
623.30	1396.71
623.49	1400.81
623.68	1277.93
623.88	1406.95
624.07	1359.85
624.26	1339.37
624.45	1378.28
624.64	1327.08
624.83	1396.71
625.02	1374.19
625.21	1355.76
625.40	1443.82
625.59	1458.15
625.78	1415.15
625.97	1509.35
626.16	1454.06
626.35	1521.64
626.54	1427.43
626.74	1505.26
626.93	1454.06
627.12	1411.05
627.31	1441.77
627.50	1419.24
627.69	1409.00
627.88	1386.47
628.07	1439.72
628.26	1359.85
628.45	1333.23
628.64	1357.80
628.83	1370.09
629.02	1413.10
629.21	1466.35
629.40	1359.85
629.59	1302.51
629.78	1288.17
629.97	1359.85
630.16	1370.09
630.35	1449.96
630.54	1316.84
630.73	1392.62
630.92	1394.67
631.11	1390.57
631.30	1402.86
631.49	1441.77
631.68	1378.28
631.87	1441.77
632.06	1325.04
632.25	1527.78
632.44	1361.90
632.63	1427.43
632.82	1492.97
633.01	1419.24
633.20	1435.63
633.39	1482.73
633.58	1454.06
633.77	1503.21
633.96	1503.21
634.15	1486.83
634.34	1445.87
634.53	1370.09
634.72	1370.09
634.91	1312.75
635.10	1359.85
635.29	1488.87
635.48	1415.15
635.67	1433.58
635.86	1337.32
636.05	1404.91
636.24	1347.56
636.43	1341.42
636.62	1349.61
636.81	1259.50
637.00	1388.52
637.19	1429.48
637.38	1409.00
637.57	1312.75
637.76	1388.52
637.95	1445.87
638.14	1511.40
638.33	1505.26
638.52	1472.49
638.71	1443.82
638.89	1419.24
639.08	1441.77
639.27	1521.64
639.46	1480.68
639.65	1667.05
639.84	1900.52
640.03	1935.33
640.22	2045.92
640.41	2238.43
640.60	1918.95
640.79	1871.84
640.98	1652.71
641.17	1599.46
641.36	1601.51
641.55	1552.36
641.74	1531.88
641.92	1552.36
642.11	1519.59
642.30	1462.25
642.49	1511.40
642.68	1423.34
642.87	1425.39
643.06	1435.63
643.25	1277.93
643.44	1325.04
643.63	1396.71
643.82	1454.06
644.00	1372.14
644.19	1322.99
644.38	1341.42
644.57	1368.04
644.76	1378.28
644.95	1392.62
645.14	1351.66
645.33	1363.95
645.52	1406.95
645.71	1386.47
645.89	1406.95
646.08	1355.76
646.27	1404.91
646.46	1421.29
646.65	1310.70
646.84	1390.57
647.03	1339.37
647.22	1361.90
647.40	1361.90
647.59	1353.71
647.78	1314.80
647.97	1322.99
648.16	1382.38
648.35	1390.57
648.54	1409.00
648.73	1316.84
648.91	1322.99
649.10	1423.34
649.29	1370.09
649.48	1316.84
649.67	1400.81
649.86	1398.76
650.05	1425.39
650.23	1499.11
650.42	1552.36
650.61	1564.65
650.80	1599.46
650.99	1630.18
651.18	1499.11
651.36	1468.39
651.55	1439.72
651.74	1460.20
651.93	1300.46
652.12	1441.77
652.31	1458.15
652.49	1447.91
652.68	1400.81
652.87	1468.39
653.06	1437.67
653.25	1486.83
653.44	1474.54
653.62	1492.97
653.81	1368.04
654.00	1370.09
654.19	1449.96
654.38	1441.77
654.56	1372.14
654.75	1378.28
654.94	1386.47
655.13	1386.47
655.32	1423.34
655.51	1466.35
655.69	1380.33
655.88	1400.81
656.07	1322.99
656.26	1431.53
656.45	1384.43
656.63	1366.00
656.82	1359.85
657.01	1421.29
657.20	1331.18
657.38	1462.25
657.57	1310.70
657.76	1372.14
657.95	1470.44
658.14	1308.65
658.32	1411.05
658.51	1351.66
658.70	1384.43
658.89	1345.52
659.08	1443.82
659.26	1419.24
659.45	1388.52
659.64	1495.02
659.83	1417.19
660.01	1601.51
660.20	1423.34
660.39	1490.92
660.58	1279.98
660.76	1392.62
660.95	1392.62
661.14	1427.43
661.33	1363.95
661.51	1402.86
661.70	1349.61
661.89	1359.85
662.08	1378.28
662.26	1361.90
662.45	1335.28
662.64	1402.86
662.83	1417.19
663.01	1409.00
663.20	1363.95
663.39	1417.19
663.58	1320.94
663.76	1380.33
663.95	1355.76
664.14	1306.60
664.32	1396.71
664.51	1363.95
664.70	1265.64
664.89	1411.05
665.07	1337.32
665.26	1447.91
665.45	1368.04
665.64	1368.04
665.82	1431.53
666.01	1404.91
666.20	1478.63
666.38	1411.05
666.57	1452.01
666.76	1533.93
666.95	2013.15
667.13	4388.80
667.32	11241.30
667.51	17938.16
667.69	21823.16
667.88	24553.10
668.07	24569.48
668.25	18882.27
668.44	13702.96
668.63	11265.88
668.81	9248.63
669.00	8032.13
669.19	7425.93
669.38	6834.07
669.56	6244.26
669.75	5529.52
669.94	4988.85
670.12	4259.78
670.31	3444.68
670.50	2951.12
670.68	2478.04
670.87	2111.46
671.06	1824.74
671.24	1697.77
671.43	1581.03
671.62	1523.69
671.80	1576.94
671.99	1546.22
672.18	1411.05
672.36	1435.63
672.55	1456.11
672.74	1394.67
672.92	1388.52
673.11	1431.53
673.29	1361.90
673.48	1480.68
673.67	1443.82
673.85	1413.10
674.04	1386.47
674.23	1374.19
674.41	1464.30
674.60	1402.86
674.79	1265.64
674.97	1392.62
675.16	1339.37
675.34	1404.91
675.53	1337.32
675.72	1392.62
675.90	1470.44
676.09	1437.67
676.28	1392.62
676.46	1325.04
676.65	1388.52
676.83	1357.80
677.02	1361.90
677.21	1392.62
677.39	1433.58
677.58	1392.62
677.77	1335.28
677.95	1419.24
678.14	1322.99
678.32	1368.04
678.51	1337.32
678.70	1421.29
678.88	1443.82
679.07	1386.47
679.25	1398.76
679.44	1384.43
679.63	1294.32
679.81	1359.85
680.00	1449.96
680.18	1337.32
680.37	1376.24
680.55	1343.47
680.74	1261.55
680.93	1335.28
681.11	1388.52
681.30	1327.08
681.48	1341.42
681.67	1368.04
681.85	1400.81
682.04	1347.56
682.23	1370.09
682.41	1314.80
682.60	1392.62
682.78	1361.90
682.97	1392.62
683.15	1359.85
683.34	1368.04
683.53	1421.29
683.71	1341.42
683.90	1505.26
684.08	1402.86
684.27	1372.14
684.45	1335.28
684.64	1402.86
684.82	1304.56
685.01	1394.67
685.19	1355.76
685.38	1427.43
685.57	1357.80
685.75	1331.18
685.94	1318.89
686.12	1290.22
686.31	1339.37
686.49	1452.01
686.68	1302.51
686.86	1413.10
687.05	1398.76
687.23	1454.06
687.42	1263.60
687.60	1294.32
687.79	1359.85
687.97	1490.92
688.16	1447.91
688.34	1423.34
688.53	1341.42
688.71	1411.05
688.90	1406.95
689.08	1339.37
689.27	1312.75
689.45	1300.46
689.64	1355.76
689.82	1372.14
690.01	1372.14
690.19	1368.04
690.38	1325.04
690.56	1454.06
690.75	1308.65
690.93	1386.47
691.12	1374.19
691.30	1292.27
691.49	1316.84
691.67	1359.85
691.86	1374.19
692.04	1396.71
692.23	1447.91
692.41	1423.34
692.60	1578.98
692.78	1507.30
692.97	1484.78
693.15	1466.35
693.34	1490.92
693.52	1413.10
693.71	1406.95
693.89	1462.25
694.08	1343.47
694.26	1437.67
694.44	1366.00
694.63	1431.53
694.81	1386.47
695.00	1308.65
695.18	1384.43
695.37	1501.16
695.55	1404.91
695.74	1355.76
695.92	1318.89
696.10	1468.39
696.29	1275.88
696.47	1376.24
696.66	1265.64
696.84	1329.13
697.03	1433.58
697.21	1413.10
697.40	1716.20
697.58	1435.63
697.76	1404.91
697.95	1353.71
698.13	1433.58
698.32	1366.00
698.50	1351.66
698.68	1402.86
698.87	1415.15
699.05	1474.54
699.24	1372.14
699.42	1423.34
699.61	1376.24
699.79	1370.09
699.97	1359.85
700.16	1339.37
700.34	1353.71
700.53	1411.05
700.71	1425.39
700.89	1441.77
701.08	1282.03
701.26	1363.95
701.45	1699.81
701.63	1347.56
701.81	1359.85
702.00	1335.28
702.18	1380.33
702.37	1386.47
702.55	1384.43
702.73	1495.02
702.92	1570.79
703.10	1718.25
703.28	1634.28
703.47	1658.85
703.65	1667.05
703.84	1542.12
704.02	1495.02
704.20	1556.46
704.39	1445.87
704.57	1445.87
704.75	1445.87
704.94	1480.68
705.12	1486.83
705.30	1488.87
705.49	1597.42
705.67	1818.60
705.86	3444.68
706.04	9211.76
706.22	16181.00
706.41	19601.11
706.59	22304.43
706.77	23740.05
706.96	19818.19
707.14	13676.34
707.32	11196.25
707.51	9310.07
707.69	8179.59
707.87	7462.80
708.06	6682.52
708.24	6055.84
708.42	4831.16
708.61	4042.69
708.79	3045.33
708.97	2342.88
709.16	1976.29
709.34	1802.21
709.52	1685.48
709.71	1558.50
709.89	1480.68
710.07	1384.43
710.26	1419.24
710.44	1419.24
710.62	1441.77
710.80	1368.04
710.99	1431.53
711.17	1427.43
711.35	1437.67
711.54	1310.70
711.72	1419.24
711.90	1392.62
712.09	1392.62
712.27	1363.95
712.45	1419.24
712.63	1320.94
712.82	1376.24
713.00	1325.04
713.18	1347.56
713.37	1314.80
713.55	1429.48
713.73	1384.43
713.91	1452.01
714.10	1413.10
714.28	1359.85
714.46	1458.15
714.65	1406.95
714.83	1331.18
715.01	1390.57
715.19	1370.09
715.38	1351.66
715.56	1394.67
715.74	1347.56
715.92	1316.84
716.11	1472.49
716.29	1337.32
716.47	1370.09
716.65	1370.09
716.84	1380.33
717.02	1400.81
717.20	1314.80
717.38	1320.94
717.57	1298.41
717.75	1413.10
717.93	1361.90
718.11	1357.80
718.30	1388.52
718.48	1468.39
718.66	1372.14
718.84	1380.33
719.03	1355.76
719.21	1347.56
719.39	1404.91
719.57	1374.19
719.75	1419.24
719.94	1304.56
720.12	1345.52
720.30	1376.24
720.48	1409.00
720.67	1345.52
720.85	1392.62
721.03	1396.71
721.21	1337.32
721.39	1447.91
721.58	1411.05
721.76	1363.95
721.94	1394.67
722.12	1384.43
722.30	1519.59
722.49	1329.13
722.67	1423.34
722.85	1341.42
723.03	1353.71
723.21	1380.33
723.40	1378.28
723.58	1468.39
723.76	1406.95
723.94	1331.18
724.12	1503.21
724.30	1413.10
724.49	1511.40
724.67	1409.00
724.85	1585.13
725.03	1347.56
725.21	1443.82
725.40	1484.78
725.58	1314.80
725.76	1386.47
725.94	1366.00
726.12	1345.52
726.30	1423.34
726.49	1357.80
726.67	1380.33
726.85	1400.81
727.03	1402.86
727.21	1519.59
727.39	1531.88
727.57	2062.30
727.76	3504.07
727.94	4409.28
728.12	4902.84
728.30	5361.58
728.48	5195.70
728.66	4296.64
728.84	3426.25
729.03	3018.71
729.21	2840.53
729.39	2664.41
729.57	2299.87
729.75	2017.25
729.93	1796.07
730.11	1566.70
730.30	1488.87
730.48	1519.59
730.66	1513.45
730.84	1437.67
731.02	1310.70
731.20	1390.57
731.38	1357.80
731.56	1294.32
731.74	1363.95
731.93	1374.19
732.11	1392.62
732.29	1372.14
732.47	1486.83
732.65	1396.71
732.83	1431.53
733.01	1415.15
733.19	1282.03
733.37	1384.43
733.56	1376.24
733.74	1353.71
733.92	1419.24
734.10	1318.89
734.28	1355.76
734.46	1273.84
734.64	1337.32
734.82	1335.28
735.00	1353.71
735.18	1318.89
735.36	1433.58
735.54	1415.15
735.73	1331.18
735.91	1345.52
736.09	1347.56
736.27	1370.09
736.45	1423.34
736.63	1310.70
736.81	1398.76
736.99	1402.86
737.17	1386.47
737.35	1368.04
737.53	1327.08
737.71	1378.28
737.89	1386.47
738.07	1312.75
738.25	1341.42
738.43	1388.52
738.61	1327.08
738.80	1322.99
738.98	1277.93
739.16	1265.64
739.34	1384.43
739.52	1366.00
739.70	1382.38
739.88	1372.14
740.06	1384.43
740.24	1378.28
740.42	1419.24
740.60	1329.13
740.78	1349.61
740.96	1316.84
741.14	1351.66
741.32	1353.71
741.50	1294.32
741.68	1470.44
741.86	1466.35
742.04	1308.65
742.22	1306.60
742.40	1376.24
742.58	1316.84
742.76	1361.90
742.94	1478.63
743.12	1322.99
743.30	1359.85
743.48	1419.24
743.66	1417.19
743.84	1380.33
744.02	1392.62
744.20	1361.90
744.38	1255.40
744.56	1325.04
744.74	1474.54
744.92	1345.52
745.10	1513.45
745.28	1427.43
745.46	1396.71
745.64	1361.90
745.82	1388.52
746.00	1378.28
746.18	1370.09
746.36	1347.56
746.54	1368.04
746.72	1392.62
746.90	1353.71
747.08	1480.68
747.26	1363.95
747.44	1488.87
747.62	1400.81
747.80	1355.76
747.98	1349.61
748.15	1327.08
748.33	1345.52
748.51	1329.13
748.69	1439.72
748.87	1359.85
749.05	1400.81
749.23	1345.52
749.41	1411.05
749.59	1355.76
749.77	1304.56
749.95	1392.62
750.13	1402.86
750.31	1421.29
750.49	1384.43
750.67	1370.09
750.85	1429.48
751.03	1429.48
751.20	1472.49
751.38	1404.91
751.56	1368.04
751.74	1374.19
751.92	1306.60
752.10	1357.80
752.28	1355.76
752.46	1320.94
752.64	1370.09
752.82	1284.08
753.00	1380.33
753.18	1345.52
753.35	1382.38
753.53	1484.78
753.71	1374.19
753.89	1411.05
754.07	1390.57
754.25	1452.01
754.43	1384.43
754.61	1409.00
754.79	1353.71
754.97	1353.71
755.14	1396.71
755.32	1357.80
755.50	1400.81
755.68	1347.56
755.86	1300.46
756.04	1335.28
756.22	1331.18
756.40	1437.67
756.57	1374.19
756.75	1325.04
756.93	1384.43
757.11	1402.86
757.29	1292.27
757.47	1345.52
757.65	1386.47
757.82	1331.18
758.00	1320.94
758.18	1275.88
758.36	1333.23
758.54	1419.24
758.72	1347.56
758.90	1454.06
759.07	1431.53
759.25	1351.66
759.43	1441.77
759.61	1320.94
759.79	1714.15
759.97	1357.80
760.15	1333.23
760.32	1314.80
760.50	1413.10
760.68	1535.98
760.86	1275.88
761.04	1490.92
761.22	1310.70
761.39	1335.28
761.57	1378.28
761.75	1429.48
761.93	1394.67
762.11	1339.37
762.28	1343.47
762.46	1343.47
762.64	1388.52
762.82	1351.66
763.00	1341.42
763.18	1402.86
763.35	1269.74
763.53	1454.06
763.71	1251.31
763.89	1357.80
764.07	1445.87
764.24	1345.52
764.42	1318.89
764.60	1359.85
764.78	1277.93
764.96	1466.35
765.13	1347.56
765.31	1388.52
765.49	1304.56
765.67	1357.80
765.84	1279.98
766.02	1376.24
766.20	1259.50
766.38	1322.99
766.56	1382.38
766.73	1390.57
766.91	1310.70
767.09	1265.64
767.27	1402.86
767.44	1392.62
767.62	1335.28
767.80	1404.91
767.98	1372.14
768.15	1400.81
768.33	1398.76
768.51	1390.57
768.69	1415.15
768.87	1335.28
769.04	1343.47
769.22	1437.67
769.40	1421.29
769.58	1443.82
769.75	1370.09
769.93	1427.43
770.11	1345.52
770.28	1421.29
770.46	1402.86
770.64	1388.52
770.82	1392.62
770.99	1378.28
771.17	1345.52
771.35	1376.24
771.53	1337.32
771.70	1341.42
771.88	1302.51
772.06	1423.34
772.23	1325.04
772.41	1462.25
772.59	1394.67
772.77	1345.52
772.94	1351.66
773.12	1392.62
773.30	1349.61
773.47	1359.85
773.65	1396.71
773.83	1417.19
774.01	1390.57
774.18	1269.74
774.36	1402.86
774.54	1261.55
774.71	1384.43
774.89	1257.45
775.07	1347.56
775.24	1425.39
775.42	1298.41
775.60	1398.76
775.78	1316.84
775.95	1312.75
776.13	1304.56
776.31	1353.71
776.48	1419.24
776.66	1396.71
776.84	1378.28
777.01	1306.60
777.19	1265.64
777.37	1314.80
777.54	1331.18
777.72	1421.29
777.90	1339.37
778.07	1404.91
778.25	1456.11
778.43	1355.76
778.60	1314.80
778.78	1347.56
778.96	1368.04
779.13	1339.37
779.31	1421.29
779.49	1413.10
779.66	1396.71
779.84	1370.09
780.01	1470.44
780.19	1361.90
780.37	1419.24
780.54	1359.85
780.72	1386.47
780.90	1353.71
781.07	1325.04
781.25	1292.27
781.43	1449.96
781.60	1347.56
781.78	1370.09
781.95	1341.42
782.13	1382.38
782.31	1382.38
782.48	1284.08
782.66	1400.81
782.83	1484.78
783.01	1357.80
783.19	1366.00
783.36	1306.60
783.54	1359.85
783.72	1386.47
783.89	1343.47
784.07	1363.95
784.24	1382.38
784.42	1437.67
784.60	1382.38
784.77	1404.91
784.95	1411.05
785.12	1349.61
785.30	1406.95
785.47	1265.64
785.65	1368.04
785.83	1288.17
786.00	1380.33
786.18	1370.09
786.35	1361.90
786.53	1329.13
786.71	1353.71
786.88	1413.10
787.06	1337.32
787.23	1413.10
787.41	1314.80
787.58	1277.93
787.76	1292.27
787.94	1343.47
788.11	1380.33
788.29	1333.23
788.46	1368.04
788.64	1275.88
788.81	1284.08
788.99	1361.90
789.16	1296.36
789.34	1337.32
789.52	1337.32
789.69	1314.80
789.87	1347.56
790.04	1384.43
790.22	1310.70
790.39	1402.86
790.57	1318.89
790.74	1390.57
790.92	1341.42
791.09	1302.51
791.27	1290.22
791.44	1392.62
791.62	1339.37
791.79	1322.99
791.97	1411.05
792.15	1501.16
792.32	1341.42
792.50	1359.85
792.67	1460.20
792.85	1413.10
793.02	1335.28
793.20	1327.08
793.37	1347.56
793.55	1372.14
793.72	1456.11
793.90	1431.53
794.07	1318.89
794.25	1390.57
794.42	1409.00
794.60	1378.28
794.77	1370.09
794.95	1411.05
795.12	1302.51
795.30	1339.37
795.47	1253.36
795.65	1374.19
795.82	1400.81
796.00	1390.57
796.17	1296.36
796.34	1335.28
796.52	1370.09
796.69	1435.63
796.87	1406.95
797.04	1361.90
797.22	1462.25
797.39	1306.60
797.57	1402.86
797.74	1421.29
797.92	1298.41
798.09	1396.71
798.27	1421.29
798.44	1347.56
798.62	1341.42
798.79	1441.77
798.96	1351.66
799.14	1331.18
799.31	1466.35
799.49	1390.57
799.66	1335.28
799.84	1368.04
800.01	1300.46
800.19	1347.56
800.36	1343.47
800.53	1392.62
800.71	1374.19
800.88	1392.62
801.06	1353.71
801.23	1390.57
801.41	1396.71
801.58	1390.57
801.75	1363.95
801.93	1380.33
802.10	1437.67
802.28	1353.71
802.45	1331.18
802.63	1411.05
802.80	1400.81
802.97	1378.28
803.15	1394.67
803.32	1378.28
803.50	1308.65
803.67	1370.09
803.84	1294.32
804.02	1349.61
804.19	1347.56
804.37	1353.71
804.54	1318.89
804.71	1343.47
804.89	1363.95
805.06	1320.94
805.24	1310.70
805.41	1298.41
805.58	1320.94
805.76	1501.16
805.93	1409.00
806.10	1398.76
806.28	1366.00
806.45	1351.66
806.63	1351.66
806.80	1435.63
806.97	1386.47
807.15	1447.91
807.32	1327.08
807.49	1308.65
807.67	1302.51
807.84	1423.34
808.01	1363.95
808.19	1486.83
808.36	1370.09
808.54	1339.37
808.71	1298.41
808.88	1417.19
809.06	1374.19
809.23	1355.76
809.40	1388.52
809.58	1417.19
809.75	1394.67
809.92	1347.56
810.10	1449.96
810.27	1329.13
810.44	1335.28
810.62	1394.67
810.79	1396.71
810.96	1325.04
811.14	1343.47
811.31	1372.14
811.48	1341.42
811.66	1380.33
811.83	1433.58
812.00	1421.29
812.18	1337.32
812.35	1452.01
812.52	1368.04
812.69	1363.95
812.87	1372.14
813.04	1366.00
813.21	1380.33
813.39	1347.56
813.56	1279.98
813.73	1413.10
813.91	1204.21
814.08	1400.81
814.25	1378.28
814.42	1298.41
814.60	1439.72
814.77	1386.47
814.94	1355.76
815.12	1353.71
815.29	1421.29
815.46	1343.47
815.63	1357.80
815.81	1347.56
815.98	1296.36
816.15	1363.95
816.33	1322.99
816.50	1345.52
816.67	1386.47
816.84	1320.94
817.02	1284.08
817.19	1366.00
817.36	1398.76
817.53	1425.39
817.71	1306.60
817.88	1419.24
818.05	1316.84
818.22	1335.28
818.40	1370.09
818.57	1335.28
818.74	1335.28
818.91	1380.33
819.09	1398.76
819.26	1411.05
819.43	1376.24
819.60	1357.80
819.78	1337.32
819.95	1421.29
820.12	1279.98
820.29	1419.24
820.47	1431.53
820.64	1337.32
820.81	1327.08
820.98	1384.43
821.15	1368.04
821.33	1349.61
821.50	1259.50
821.67	1419.24
821.84	1351.66
822.02	1464.30
822.19	1361.90
822.36	1392.62
822.53	1306.60
822.70	1388.52
822.88	1372.14
823.05	1411.05
823.22	1353.71
823.39	1380.33
823.56	1388.52
823.74	1378.28
823.91	1339.37
824.08	1335.28
824.25	1372.14
824.42	1386.47
824.60	1318.89
824.77	1335.28
824.94	1327.08
825.11	1409.00
825.28	1314.80
825.45	1331.18
825.63	1392.62
825.80	1394.67
825.97	1331.18
826.14	1417.19
826.31	1413.10
826.48	1341.42
826.66	1398.76
826.83	1341.42
827.00	1337.32
827.17	1343.47
827.34	1286.12
827.51	1347.56
827.69	1404.91
827.86	1277.93
828.03	1380.33
828.20	1327.08
828.37	1378.28
828.54	1382.38
828.71	1355.76
828.89	1417.19
829.06	1392.62
829.23	1374.19
829.40	1392.62
829.57	1363.95
829.74	1474.54
829.91	1372.14
830.09	1345.52
830.26	1396.71
830.43	1337.32
830.60	1413.10
830.77	1374.19
830.94	1472.49
831.11	1304.56
831.28	1398.76
831.46	1437.67
831.63	1339.37
831.80	1363.95
831.97	1380.33
832.14	1372.14
832.31	1425.39
832.48	1427.43
832.65	1366.00
832.82	1349.61
832.99	1388.52
833.17	1339.37
833.34	1398.76
833.51	1386.47
833.68	1298.41
833.85	1382.38
834.02	1355.76
834.19	1404.91
834.36	1314.80
834.53	1409.00
834.70	1355.76
834.87	1378.28
835.04	1302.51
835.22	1341.42
835.39	1335.28
835.56	1347.56
835.73	1357.80
835.90	1351.66
836.07	1347.56
836.24	1368.04
836.41	1308.65
836.58	1331.18
836.75	1351.66
836.92	1413.10
837.09	1372.14
837.26	1429.48
837.43	1288.17
837.60	1388.52
837.77	1343.47
837.94	1400.81
838.12	1470.44
838.29	1437.67
838.46	1376.24
838.63	1300.46
838.80	1402.86
838.97	1353.71
839.14	1363.95
839.31	1382.38
839.48	1380.33
839.65	1339.37
839.82	1341.42
839.99	1355.76
840.16	1353.71
840.33	1355.76
840.50	1372.14
840.67	1392.62
840.84	1314.80
841.01	1345.52
841.18	1288.17
841.35	1382.38
841.52	1398.76
841.69	1390.57
841.86	1320.94
842.03	1423.34
842.20	1486.83
842.37	1339.37
842.54	1273.84
842.71	1337.32
842.88	1275.88
843.05	1386.47
843.22	1329.13
843.39	1339.37
843.56	1341.42
843.73	1357.80
843.90	1345.52
844.07	1482.73
844.24	1372.14
844.41	1366.00
844.58	1368.04
844.75	1331.18
844.92	1347.56
845.09	1396.71
845.26	1441.77
845.43	1425.39
845.60	1292.27
845.77	1374.19
845.94	1318.89
846.10	1437.67
846.27	1279.98
846.44	1409.00
846.61	1386.47
846.78	1404.91
846.95	1347.56
847.12	1384.43
847.29	1341.42
847.46	1310.70
847.63	1433.58
847.80	1316.84
847.97	1368.04
848.14	1417.19
848.31	1318.89
848.48	1335.28
848.65	1372.14
848.82	1347.56
848.98	1472.49
849.15	1447.91
849.32	1429.48
849.49	1429.48
849.66	1347.56
849.83	1439.72
850.00	1331.18
850.17	1347.56
850.34	1331.18
850.51	1368.04
850.68	1363.95
850.85	1349.61
851.01	1402.86
851.18	1361.90
851.35	1345.52
851.52	1361.90
851.69	1454.06
851.86	1290.22
852.03	1286.12
852.20	1384.43
852.37	1320.94
852.53	1353.71
852.70	1359.85
852.87	1355.76
853.04	1415.15
853.21	1318.89
853.38	1380.33
853.55	1378.28
853.72	1376.24
853.89	1331.18
854.05	1320.94
854.22	1382.38
854.39	1306.60
854.56	1349.61
854.73	1409.00
854.90	1327.08
855.07	1431.53
855.23	1370.09
855.40	1361.90
855.57	1400.81
855.74	1370.09
855.91	1511.40
856.08	1261.55
856.25	1304.56
856.41	1355.76
856.58	1417.19
856.75	1392.62
856.92	1380.33
857.09	1376.24
857.26	1327.08
857.42	1337.32
857.59	1331.18
857.76	1335.28
857.93	1413.10
858.10	1277.93
858.27	1380.33
858.43	1464.30
858.60	1294.32
858.77	1249.26
858.94	1368.04
859.11	1388.52
859.27	1331.18
859.44	1320.94
859.61	1449.96
859.78	1378.28
859.95	1406.95
860.12	1372.14
860.28	1433.58
860.45	1462.25
860.62	1370.09
860.79	1398.76
860.95	1351.66
861.12	1312.75
861.29	1333.23
861.46	1345.52
861.63	1288.17
861.79	1445.87
861.96	1331.18
862.13	1370.09
862.30	1419.24
862.47	1322.99
862.63	1329.13
862.80	1433.58
862.97	1329.13
863.14	1382.38
863.30	1468.39
863.47	1355.76
863.64	1421.29
863.81	1390.57
863.97	1331.18
864.14	1388.52
864.31	1318.89
864.48	1396.71
864.65	1390.57
864.81	1435.63
864.98	1392.62
865.15	1382.38
865.32	1355.76
865.48	1423.34
865.65	1429.48
865.82	1363.95
865.98	1357.80
866.15	1398.76
866.32	1335.28
866.49	1290.22
866.65	1368.04
866.82	1357.80
866.99	1363.95
867.16	1396.71
867.32	1355.76
867.49	1359.85
867.66	1411.05
867.83	1320.94
867.99	1316.84
868.16	1359.85
868.33	1341.42
868.49	1374.19
868.66	1390.57
868.83	1378.28
868.99	1394.67
869.16	1413.10
869.33	1361.90
869.50	1372.14
869.66	1333.23
869.83	1398.76
870.00	1322.99
870.16	1384.43
870.33	1396.71
870.50	1370.09
870.66	1406.95
870.83	1495.02
871.00	1427.43
871.17	1363.95
871.33	1374.19
871.50	1327.08
871.67	1312.75
871.83	1411.05
872.00	1445.87
872.17	1406.95
872.33	1464.30
872.50	1421.29
872.67	1376.24
872.83	1357.80
873.00	1400.81
873.17	1406.95
873.33	1396.71
873.50	1366.00
873.67	1366.00
873.83	1286.12
874.00	1427.43
874.16	1439.72
874.33	1335.28
874.50	1279.98
874.66	1345.52
874.83	1366.00
875.00	1339.37
875.16	1437.67
875.33	1421.29
875.50	1351.66
875.66	1314.80
875.83	1370.09
875.99	1376.24
876.16	1312.75
876.33	1327.08
876.49	1337.32
876.66	1372.14
876.83	1361.90
876.99	1345.52
877.16	1363.95
877.32	1312.75
877.49	1425.39
877.66	1314.80
877.82	1425.39
877.99	1355.76
878.15	1366.00
878.32	1392.62
878.49	1288.17
878.65	1320.94
878.82	1492.97
878.98	1380.33
879.15	1386.47
879.32	1423.34
879.48	1396.71
879.65	1376.24
879.81	1347.56
879.98	1431.53
880.15	1345.52
880.31	1341.42
880.48	1304.56
880.64	1406.95
880.81	1322.99
880.97	1472.49
881.14	1425.39
881.31	1304.56
881.47	1458.15
881.64	1376.24
881.80	1273.84
881.97	1423.34
882.13	1492.97
882.30	1257.45
882.47	1304.56
882.63	1337.32
882.80	1286.12
882.96	1314.80
883.13	1406.95
883.29	1327.08
883.46	1443.82
883.62	1359.85
883.79	1355.76
883.95	1333.23
884.12	1374.19
884.29	1427.43
884.45	1380.33
884.62	1396.71
884.78	1312.75
884.95	1355.76
885.11	1316.84
885.28	1388.52
885.44	1306.60
885.61	1341.42
885.77	1388.52
885.94	1337.32
886.10	1347.56
886.27	1341.42
886.43	1449.96
886.60	1433.58
886.76	1290.22
886.93	1267.69
887.09	1345.52
887.26	1331.18
887.42	1429.48
887.59	1368.04
887.75	1452.01
887.92	1359.85
888.08	1437.67
888.25	1462.25
888.41	1413.10
888.58	1376.24
888.74	1402.86
888.91	1372.14
>>>>>End Processed Spectral Data<<<<<
