SpectraSuite Data File
++++++++++++++++++++++++++++++++++++
Date: Tue May 03 11:24:13 CEST 2016
User: root
Dark Spectrum Present: No
Reference Spectrum Present: No
Number of Sampled Component Spectra: 1
Spectrometers: USB4C02835
Integration Time (usec): 100000 (USB4C02835)
Spectra Averaged: 1 (USB4C02835)
Boxcar Smoothing: 0 (USB4C02835)
Correct for Electrical Dark: No (USB4C02835)
Strobe/Lamp Enabled: No (USB4C02835)
Correct for Detector Non-linearity: No (USB4C02835)
Correct for Stray Light: No (USB4C02835)
Number of Pixels in Processed Spectrum: 3648
>>>>>Begin Processed Spectral Data<<<<<
177.47	1155.05
177.69	1155.05
177.91	1155.05
178.13	1193.97
178.36	1214.45
178.58	1335.28
178.80	1312.75
179.02	1343.47
179.24	1386.47
179.46	1361.90
179.68	1441.77
179.90	1329.13
180.13	1314.80
180.35	1359.85
180.57	1443.82
180.79	1406.95
181.01	1390.57
181.23	1462.25
181.45	1435.63
181.67	1322.99
181.90	1417.19
182.12	1320.94
182.34	1288.17
182.56	1490.92
182.78	1390.57
183.00	1396.71
183.22	1394.67
183.44	1376.24
183.66	1460.20
183.89	1390.57
184.11	1308.65
184.33	1394.67
184.55	1421.29
184.77	1363.95
184.99	1368.04
185.21	1304.56
185.43	1503.21
185.65	1304.56
185.87	1396.71
186.10	1456.11
186.32	1439.72
186.54	1345.52
186.76	1388.52
186.98	1343.47
187.20	1417.19
187.42	1419.24
187.64	1269.74
187.86	1398.76
188.08	1345.52
188.30	1398.76
188.52	1368.04
188.75	1439.72
188.97	1372.14
189.19	1312.75
189.41	1314.80
189.63	1386.47
189.85	1282.03
190.07	1392.62
190.29	1384.43
190.51	1452.01
190.73	1318.89
190.95	1421.29
191.17	1429.48
191.39	1341.42
191.61	1409.00
191.84	1429.48
192.06	1380.33
192.28	1265.64
192.50	1480.68
192.72	1331.18
192.94	1363.95
193.16	1361.90
193.38	1353.71
193.60	1339.37
193.82	1439.72
194.04	1351.66
194.26	1314.80
194.48	1396.71
194.70	1398.76
194.92	1384.43
195.14	1378.28
195.36	1355.76
195.58	1363.95
195.80	1310.70
196.02	1370.09
196.24	1353.71
196.46	1333.23
196.69	1380.33
196.91	1427.43
197.13	1306.60
197.35	1404.91
197.57	1386.47
197.79	1486.83
198.01	1355.76
198.23	1400.81
198.45	1384.43
198.67	1343.47
198.89	1378.28
199.11	1327.08
199.33	1382.38
199.55	1327.08
199.77	1372.14
199.99	1415.15
200.21	1308.65
200.43	1376.24
200.65	1374.19
200.87	1331.18
201.09	1361.90
201.31	1378.28
201.53	1394.67
201.75	1378.28
201.97	1357.80
202.19	1398.76
202.41	1425.39
202.63	1419.24
202.85	1372.14
203.07	1341.42
203.29	1339.37
203.51	1398.76
203.73	1308.65
203.95	1445.87
204.17	1380.33
204.39	1355.76
204.61	1269.74
204.83	1374.19
205.05	1409.00
205.27	1400.81
205.49	1392.62
205.71	1386.47
205.93	1349.61
206.15	1337.32
206.37	1380.33
206.59	1335.28
206.81	1378.28
207.03	1335.28
207.25	1322.99
207.47	1443.82
207.69	1378.28
207.91	1431.53
208.13	1355.76
208.34	1374.19
208.56	1347.56
208.78	1425.39
209.00	1341.42
209.22	1341.42
209.44	1370.09
209.66	1290.22
209.88	1327.08
210.10	1300.46
210.32	1310.70
210.54	1411.05
210.76	1370.09
210.98	1445.87
211.20	1277.93
211.42	1359.85
211.64	1396.71
211.86	1339.37
212.08	1312.75
212.30	1425.39
212.52	1370.09
212.74	1386.47
212.96	1361.90
213.17	1386.47
213.39	1329.13
213.61	1411.05
213.83	1386.47
214.05	1325.04
214.27	1384.43
214.49	1292.27
214.71	1398.76
214.93	1447.91
215.15	1378.28
215.37	1347.56
215.59	1372.14
215.81	1413.10
216.03	1406.95
216.24	1402.86
216.46	1335.28
216.68	1435.63
216.90	1441.77
217.12	1421.29
217.34	1374.19
217.56	1386.47
217.78	1490.92
218.00	1353.71
218.22	1322.99
218.44	1374.19
218.66	1316.84
218.87	1386.47
219.09	1380.33
219.31	1425.39
219.53	1394.67
219.75	1351.66
219.97	1421.29
220.19	1312.75
220.41	1347.56
220.63	1384.43
220.85	1339.37
221.06	1396.71
221.28	1398.76
221.50	1366.00
221.72	1361.90
221.94	1409.00
222.16	1425.39
222.38	1404.91
222.60	1419.24
222.82	1357.80
223.03	1347.56
223.25	1331.18
223.47	1449.96
223.69	1388.52
223.91	1316.84
224.13	1343.47
224.35	1445.87
224.57	1380.33
224.78	1458.15
225.00	1298.41
225.22	1349.61
225.44	1312.75
225.66	1341.42
225.88	1425.39
226.10	1382.38
226.32	1380.33
226.53	1470.44
226.75	1366.00
226.97	1351.66
227.19	1361.90
227.41	1335.28
227.63	1384.43
227.85	1363.95
228.06	1398.76
228.28	1374.19
228.50	1425.39
228.72	1341.42
228.94	1298.41
229.16	1325.04
229.37	1302.51
229.59	1325.04
229.81	1380.33
230.03	1322.99
230.25	1322.99
230.47	1290.22
230.69	1325.04
230.90	1429.48
231.12	1411.05
231.34	1456.11
231.56	1392.62
231.78	1294.32
232.00	1351.66
232.21	1368.04
232.43	1378.28
232.65	1298.41
232.87	1384.43
233.09	1316.84
233.30	1345.52
233.52	1409.00
233.74	1353.71
233.96	1372.14
234.18	1370.09
234.40	1382.38
234.61	1456.11
234.83	1292.27
235.05	1372.14
235.27	1484.78
235.49	1298.41
235.70	1351.66
235.92	1425.39
236.14	1322.99
236.36	1441.77
236.58	1388.52
236.79	1435.63
237.01	1318.89
237.23	1294.32
237.45	1409.00
237.67	1363.95
237.88	1353.71
238.10	1437.67
238.32	1308.65
238.54	1396.71
238.76	1339.37
238.97	1322.99
239.19	1361.90
239.41	1423.34
239.63	1394.67
239.85	1351.66
240.06	1390.57
240.28	1437.67
240.50	1306.60
240.72	1419.24
240.93	1406.95
241.15	1449.96
241.37	1290.22
241.59	1437.67
241.81	1298.41
242.02	1400.81
242.24	1378.28
242.46	1384.43
242.68	1359.85
242.89	1413.10
243.11	1409.00
243.33	1322.99
243.55	1400.81
243.76	1380.33
243.98	1366.00
244.20	1378.28
244.42	1411.05
244.64	1400.81
244.85	1333.23
245.07	1282.03
245.29	1421.29
245.51	1368.04
245.72	1380.33
245.94	1390.57
246.16	1376.24
246.38	1345.52
246.59	1355.76
246.81	1318.89
247.03	1300.46
247.24	1325.04
247.46	1247.21
247.68	1398.76
247.90	1476.59
248.11	1374.19
248.33	1421.29
248.55	1361.90
248.77	1398.76
248.98	1437.67
249.20	1429.48
249.42	1378.28
249.64	1415.15
249.85	1402.86
250.07	1366.00
250.29	1331.18
250.50	1366.00
250.72	1406.95
250.94	1417.19
251.16	1425.39
251.37	1423.34
251.59	1441.77
251.81	1384.43
252.02	1431.53
252.24	1351.66
252.46	1429.48
252.68	1361.90
252.89	1374.19
253.11	1304.56
253.33	1363.95
253.54	1468.39
253.76	1351.66
253.98	1351.66
254.20	1404.91
254.41	1308.65
254.63	1376.24
254.85	1415.15
255.06	1363.95
255.28	1370.09
255.50	1359.85
255.71	1394.67
255.93	1380.33
256.15	1314.80
256.36	1312.75
256.58	1449.96
256.80	1353.71
257.02	1368.04
257.23	1345.52
257.45	1421.29
257.67	1345.52
257.88	1390.57
258.10	1423.34
258.32	1382.38
258.53	1376.24
258.75	1400.81
258.97	1433.58
259.18	1316.84
259.40	1370.09
259.62	1449.96
259.83	1411.05
260.05	1435.63
260.27	1521.64
260.48	1374.19
260.70	1339.37
260.92	1331.18
261.13	1390.57
261.35	1400.81
261.57	1411.05
261.78	1349.61
262.00	1339.37
262.22	1335.28
262.43	1363.95
262.65	1351.66
262.86	1337.32
263.08	1413.10
263.30	1337.32
263.51	1341.42
263.73	1318.89
263.95	1386.47
264.16	1339.37
264.38	1347.56
264.60	1439.72
264.81	1394.67
265.03	1378.28
265.25	1411.05
265.46	1345.52
265.68	1392.62
265.89	1449.96
266.11	1327.08
266.33	1335.28
266.54	1380.33
266.76	1333.23
266.98	1349.61
267.19	1462.25
267.41	1318.89
267.62	1335.28
267.84	1329.13
268.06	1417.19
268.27	1304.56
268.49	1370.09
268.70	1435.63
268.92	1351.66
269.14	1400.81
269.35	1320.94
269.57	1322.99
269.79	1386.47
270.00	1320.94
270.22	1421.29
270.43	1368.04
270.65	1255.40
270.87	1452.01
271.08	1404.91
271.30	1415.15
271.51	1349.61
271.73	1368.04
271.95	1480.68
272.16	1388.52
272.38	1314.80
272.59	1320.94
272.81	1374.19
273.02	1335.28
273.24	1423.34
273.46	1351.66
273.67	1296.36
273.89	1347.56
274.10	1318.89
274.32	1372.14
274.54	1288.17
274.75	1388.52
274.97	1359.85
275.18	1394.67
275.40	1443.82
275.61	1417.19
275.83	1363.95
276.05	1345.52
276.26	1312.75
276.48	1419.24
276.69	1359.85
276.91	1409.00
277.12	1439.72
277.34	1456.11
277.55	1376.24
277.77	1370.09
277.99	1363.95
278.20	1372.14
278.42	1308.65
278.63	1251.31
278.85	1353.71
279.06	1320.94
279.28	1345.52
279.49	1398.76
279.71	1378.28
279.93	1376.24
280.14	1443.82
280.36	1392.62
280.57	1439.72
280.79	1433.58
281.00	1279.98
281.22	1384.43
281.43	1386.47
281.65	1327.08
281.86	1282.03
282.08	1382.38
282.29	1390.57
282.51	1411.05
282.73	1335.28
282.94	1345.52
283.16	1427.43
283.37	1441.77
283.59	1435.63
283.80	1325.04
284.02	1431.53
284.23	1366.00
284.45	1394.67
284.66	1310.70
284.88	1320.94
285.09	1374.19
285.31	1472.49
285.52	1400.81
285.74	1294.32
285.95	1388.52
286.17	1386.47
286.38	1376.24
286.60	1345.52
286.81	1388.52
287.03	1288.17
287.24	1341.42
287.46	1384.43
287.67	1316.84
287.89	1437.67
288.10	1372.14
288.32	1374.19
288.53	1370.09
288.75	1335.28
288.96	1425.39
289.18	1292.27
289.39	1329.13
289.61	1499.11
289.82	1425.39
290.04	1413.10
290.25	1363.95
290.47	1445.87
290.68	1386.47
290.90	1390.57
291.11	1351.66
291.33	1366.00
291.54	1306.60
291.76	1351.66
291.97	1433.58
292.18	1376.24
292.40	1304.56
292.61	1372.14
292.83	1423.34
293.04	1439.72
293.26	1390.57
293.47	1384.43
293.69	1345.52
293.90	1349.61
294.12	1351.66
294.33	1380.33
294.55	1267.69
294.76	1396.71
294.97	1343.47
295.19	1404.91
295.40	1341.42
295.62	1372.14
295.83	1417.19
296.05	1290.22
296.26	1394.67
296.48	1378.28
296.69	1318.89
296.90	1421.29
297.12	1363.95
297.33	1464.30
297.55	1343.47
297.76	1351.66
297.98	1447.91
298.19	1329.13
298.41	1294.32
298.62	1314.80
298.83	1443.82
299.05	1312.75
299.26	1333.23
299.48	1359.85
299.69	1382.38
299.90	1329.13
300.12	1331.18
300.33	1474.54
300.55	1409.00
300.76	1390.57
300.98	1320.94
301.19	1331.18
301.40	1380.33
301.62	1447.91
301.83	1409.00
302.05	1359.85
302.26	1343.47
302.47	1363.95
302.69	1400.81
302.90	1392.62
303.12	1292.27
303.33	1363.95
303.54	1331.18
303.76	1327.08
303.97	1392.62
304.19	1427.43
304.40	1361.90
304.61	1388.52
304.83	1404.91
305.04	1363.95
305.26	1322.99
305.47	1384.43
305.68	1341.42
305.90	1290.22
306.11	1433.58
306.33	1417.19
306.54	1390.57
306.75	1357.80
306.97	1316.84
307.18	1339.37
307.39	1372.14
307.61	1392.62
307.82	1429.48
308.04	1372.14
308.25	1329.13
308.46	1312.75
308.68	1349.61
308.89	1439.72
309.10	1388.52
309.32	1353.71
309.53	1341.42
309.74	1409.00
309.96	1269.74
310.17	1390.57
310.39	1406.95
310.60	1370.09
310.81	1423.34
311.03	1290.22
311.24	1370.09
311.45	1339.37
311.67	1441.77
311.88	1320.94
312.09	1325.04
312.31	1304.56
312.52	1400.81
312.73	1380.33
312.95	1261.55
313.16	1296.36
313.37	1390.57
313.59	1380.33
313.80	1361.90
314.01	1441.77
314.23	1421.29
314.44	1382.38
314.65	1357.80
314.87	1296.36
315.08	1361.90
315.29	1341.42
315.51	1339.37
315.72	1302.51
315.93	1421.29
316.15	1372.14
316.36	1331.18
316.57	1322.99
316.79	1402.86
317.00	1382.38
317.21	1400.81
317.43	1376.24
317.64	1441.77
317.85	1402.86
318.07	1458.15
318.28	1533.93
318.49	1617.90
318.70	1589.22
318.92	1523.69
319.13	1478.63
319.34	1529.83
319.56	1460.20
319.77	1474.54
319.98	1519.59
320.20	1497.07
320.41	1460.20
320.62	1374.19
320.83	1404.91
321.05	1468.39
321.26	1349.61
321.47	1380.33
321.69	1441.77
321.90	1345.52
322.11	1363.95
322.32	1380.33
322.54	1372.14
322.75	1327.08
322.96	1404.91
323.18	1308.65
323.39	1337.32
323.60	1355.76
323.81	1439.72
324.03	1368.04
324.24	1406.95
324.45	1359.85
324.66	1290.22
324.88	1372.14
325.09	1398.76
325.30	1462.25
325.52	1337.32
325.73	1374.19
325.94	1333.23
326.15	1372.14
326.37	1376.24
326.58	1368.04
326.79	1333.23
327.00	1406.95
327.22	1339.37
327.43	1327.08
327.64	1236.97
327.85	1359.85
328.07	1413.10
328.28	1347.56
328.49	1329.13
328.70	1384.43
328.92	1320.94
329.13	1349.61
329.34	1363.95
329.55	1435.63
329.76	1355.76
329.98	1374.19
330.19	1390.57
330.40	1384.43
330.61	1368.04
330.83	1372.14
331.04	1333.23
331.25	1413.10
331.46	1329.13
331.68	1331.18
331.89	1372.14
332.10	1374.19
332.31	1322.99
332.52	1392.62
332.74	1454.06
332.95	1343.47
333.16	1316.84
333.37	1320.94
333.58	1370.09
333.80	1390.57
334.01	1310.70
334.22	1275.88
334.43	1273.84
334.64	1298.41
334.86	1345.52
335.07	1302.51
335.28	1322.99
335.49	1372.14
335.70	1398.76
335.92	1406.95
336.13	1411.05
336.34	1415.15
336.55	1370.09
336.76	1351.66
336.98	1290.22
337.19	1355.76
337.40	1452.01
337.61	1437.67
337.82	1378.28
338.04	1347.56
338.25	1327.08
338.46	1472.49
338.67	1372.14
338.88	1255.40
339.09	1322.99
339.31	1357.80
339.52	1374.19
339.73	1314.80
339.94	1273.84
340.15	1409.00
340.36	1331.18
340.58	1366.00
340.79	1335.28
341.00	1392.62
341.21	1279.98
341.42	1531.88
341.63	1312.75
341.85	1458.15
342.06	1390.57
342.27	1347.56
342.48	1435.63
342.69	1355.76
342.90	1370.09
343.12	1406.95
343.33	1390.57
343.54	1382.38
343.75	1386.47
343.96	1335.28
344.17	1275.88
344.38	1390.57
344.60	1290.22
344.81	1349.61
345.02	1372.14
345.23	1425.39
345.44	1394.67
345.65	1374.19
345.86	1423.34
346.07	1370.09
346.29	1316.84
346.50	1363.95
346.71	1388.52
346.92	1419.24
347.13	1468.39
347.34	1329.13
347.55	1347.56
347.76	1374.19
347.98	1359.85
348.19	1318.89
348.40	1400.81
348.61	1413.10
348.82	1341.42
349.03	1392.62
349.24	1304.56
349.45	1441.77
349.66	1337.32
349.88	1351.66
350.09	1370.09
350.30	1370.09
350.51	1445.87
350.72	1449.96
350.93	1368.04
351.14	1271.79
351.35	1433.58
351.56	1374.19
351.77	1331.18
351.99	1433.58
352.20	1384.43
352.41	1458.15
352.62	1306.60
352.83	1384.43
353.04	1429.48
353.25	1388.52
353.46	1445.87
353.67	1417.19
353.88	1384.43
354.09	1458.15
354.30	1370.09
354.52	1351.66
354.73	1374.19
354.94	1341.42
355.15	1314.80
355.36	1425.39
355.57	1374.19
355.78	1366.00
355.99	1335.28
356.20	1339.37
356.41	1421.29
356.62	1331.18
356.83	1265.64
357.04	1433.58
357.25	1243.12
357.46	1331.18
357.68	1345.52
357.89	1392.62
358.10	1374.19
358.31	1327.08
358.52	1349.61
358.73	1411.05
358.94	1355.76
359.15	1359.85
359.36	1380.33
359.57	1409.00
359.78	1423.34
359.99	1355.76
360.20	1300.46
360.41	1351.66
360.62	1363.95
360.83	1411.05
361.04	1452.01
361.25	1349.61
361.46	1386.47
361.67	1366.00
361.88	1425.39
362.09	1390.57
362.30	1361.90
362.51	1308.65
362.72	1374.19
362.93	1327.08
363.14	1470.44
363.35	1357.80
363.56	1275.88
363.78	1480.68
363.99	1378.28
364.20	1374.19
364.41	1347.56
364.62	1429.48
364.83	1333.23
365.04	1327.08
365.25	1419.24
365.46	1454.06
365.67	1341.42
365.88	1337.32
366.09	1417.19
366.30	1279.98
366.51	1298.41
366.72	1347.56
366.93	1363.95
367.14	1368.04
367.35	1337.32
367.56	1343.47
367.77	1460.20
367.98	1355.76
368.18	1392.62
368.39	1376.24
368.60	1411.05
368.81	1400.81
369.02	1394.67
369.23	1294.32
369.44	1427.43
369.65	1355.76
369.86	1370.09
370.07	1339.37
370.28	1366.00
370.49	1347.56
370.70	1382.38
370.91	1341.42
371.12	1286.12
371.33	1370.09
371.54	1374.19
371.75	1396.71
371.96	1288.17
372.17	1392.62
372.38	1413.10
372.59	1386.47
372.80	1304.56
373.01	1404.91
373.22	1322.99
373.43	1368.04
373.64	1308.65
373.85	1429.48
374.06	1452.01
374.26	1347.56
374.47	1308.65
374.68	1462.25
374.89	1441.77
375.10	1378.28
375.31	1376.24
375.52	1413.10
375.73	1392.62
375.94	1316.84
376.15	1413.10
376.36	1363.95
376.57	1413.10
376.78	1361.90
376.99	1329.13
377.20	1378.28
377.40	1386.47
377.61	1421.29
377.82	1355.76
378.03	1366.00
378.24	1339.37
378.45	1386.47
378.66	1413.10
378.87	1327.08
379.08	1361.90
379.29	1409.00
379.50	1396.71
379.71	1322.99
379.91	1423.34
380.12	1429.48
380.33	1382.38
380.54	1394.67
380.75	1337.32
380.96	1331.18
381.17	1437.67
381.38	1439.72
381.59	1474.54
381.80	1413.10
382.00	1542.12
382.21	1497.07
382.42	1443.82
382.63	1501.16
382.84	1398.76
383.05	1411.05
383.26	1429.48
383.47	1417.19
383.68	1402.86
383.88	1337.32
384.09	1409.00
384.30	1497.07
384.51	1384.43
384.72	1370.09
384.93	1361.90
385.14	1396.71
385.35	1378.28
385.55	1310.70
385.76	1378.28
385.97	1378.28
386.18	1335.28
386.39	1415.15
386.60	1363.95
386.81	1396.71
387.02	1322.99
387.22	1464.30
387.43	1495.02
387.64	1474.54
387.85	2220.00
388.06	5607.34
388.27	9621.36
388.48	11562.83
388.68	13211.45
388.89	13246.26
389.10	10575.71
389.31	9348.98
389.52	8193.92
389.73	7360.40
389.93	6825.88
390.14	6434.72
390.35	6072.23
390.56	5531.56
390.77	4644.79
390.98	3585.99
391.18	2885.59
391.39	2170.85
391.60	1687.53
391.81	1568.74
392.02	1441.77
392.23	1480.68
392.43	1406.95
392.64	1458.15
392.85	1357.80
393.06	1445.87
393.27	1394.67
393.47	1347.56
393.68	1374.19
393.89	1320.94
394.10	1355.76
394.31	1341.42
394.52	1421.29
394.72	1368.04
394.93	1386.47
395.14	1333.23
395.35	1427.43
395.56	1390.57
395.76	1523.69
395.97	1581.03
396.18	1593.32
396.39	1583.08
396.60	1691.62
396.80	1540.07
397.01	1466.35
397.22	1515.50
397.43	1556.46
397.64	1421.29
397.84	1501.16
398.05	1427.43
398.26	1429.48
398.47	1421.29
398.67	1470.44
398.88	1394.67
399.09	1374.19
399.30	1464.30
399.51	1378.28
399.71	1345.52
399.92	1398.76
400.13	1331.18
400.34	1394.67
400.54	1374.19
400.75	1370.09
400.96	1392.62
401.17	1470.44
401.37	1466.35
401.58	1411.05
401.79	1564.65
402.00	1763.30
402.21	1773.54
402.41	1851.36
402.62	1832.93
402.83	1705.96
403.04	1617.90
403.24	1746.92
403.45	1595.37
403.66	1562.60
403.87	1546.22
404.07	1593.32
404.28	1591.27
404.49	1630.18
404.70	1402.86
404.90	1423.34
405.11	1347.56
405.32	1441.77
405.52	1345.52
405.73	1361.90
405.94	1361.90
406.15	1404.91
406.35	1366.00
406.56	1404.91
406.77	1322.99
406.98	1400.81
407.18	1380.33
407.39	1413.10
407.60	1267.69
407.80	1433.58
408.01	1404.91
408.22	1423.34
408.43	1310.70
408.63	1372.14
408.84	1386.47
409.05	1402.86
409.25	1355.76
409.46	1413.10
409.67	1335.28
409.88	1329.13
410.08	1312.75
410.29	1318.89
410.50	1378.28
410.70	1376.24
410.91	1378.28
411.12	1486.83
411.32	1402.86
411.53	1427.43
411.74	1474.54
411.95	1439.72
412.15	1497.07
412.36	1447.91
412.57	1417.19
412.77	1468.39
412.98	1421.29
413.19	1368.04
413.39	1341.42
413.60	1327.08
413.81	1511.40
414.01	1331.18
414.22	1427.43
414.43	1382.38
414.63	1290.22
414.84	1382.38
415.05	1331.18
415.25	1300.46
415.46	1374.19
415.67	1390.57
415.87	1390.57
416.08	1409.00
416.29	1312.75
416.49	1378.28
416.70	1376.24
416.91	1355.76
417.11	1322.99
417.32	1384.43
417.53	1394.67
417.73	1445.87
417.94	1439.72
418.15	1425.39
418.35	1409.00
418.56	1312.75
418.77	1499.11
418.97	1421.29
419.18	1286.12
419.38	1294.32
419.59	1378.28
419.80	1310.70
420.00	1372.14
420.21	1394.67
420.42	1433.58
420.62	1394.67
420.83	1370.09
421.04	1345.52
421.24	1423.34
421.45	1411.05
421.65	1427.43
421.86	1312.75
422.07	1378.28
422.27	1435.63
422.48	1372.14
422.69	1361.90
422.89	1388.52
423.10	1288.17
423.30	1361.90
423.51	1312.75
423.72	1409.00
423.92	1359.85
424.13	1308.65
424.33	1390.57
424.54	1355.76
424.75	1429.48
424.95	1425.39
425.16	1353.71
425.36	1378.28
425.57	1411.05
425.78	1386.47
425.98	1449.96
426.19	1370.09
426.39	1331.18
426.60	1361.90
426.81	1386.47
427.01	1282.03
427.22	1345.52
427.42	1239.02
427.63	1322.99
427.83	1368.04
428.04	1472.49
428.25	1441.77
428.45	1437.67
428.66	1396.71
428.86	1402.86
429.07	1361.90
429.28	1449.96
429.48	1325.04
429.69	1394.67
429.89	1443.82
430.10	1314.80
430.30	1370.09
430.51	1411.05
430.71	1277.93
430.92	1345.52
431.13	1378.28
431.33	1341.42
431.54	1376.24
431.74	1550.31
431.95	1476.59
432.15	1386.47
432.36	1337.32
432.56	1327.08
432.77	1372.14
432.98	1439.72
433.18	1366.00
433.39	1390.57
433.59	1320.94
433.80	1388.52
434.00	1484.78
434.21	1304.56
434.41	1345.52
434.62	1406.95
434.82	1421.29
435.03	1314.80
435.23	1423.34
435.44	1333.23
435.64	1277.93
435.85	1400.81
436.06	1419.24
436.26	1421.29
436.47	1349.61
436.67	1331.18
436.88	1372.14
437.08	1454.06
437.29	1390.57
437.49	1329.13
437.70	1456.11
437.90	1423.34
438.11	1492.97
438.31	1527.78
438.52	1476.59
438.72	1533.93
438.93	1558.50
439.13	1456.11
439.34	1495.02
439.54	1429.48
439.75	1488.87
439.95	1404.91
440.16	1388.52
440.36	1406.95
440.57	1380.33
440.77	1402.86
440.98	1341.42
441.18	1382.38
441.39	1351.66
441.59	1396.71
441.80	1411.05
442.00	1376.24
442.21	1388.52
442.41	1345.52
442.62	1415.15
442.82	1312.75
443.02	1402.86
443.23	1402.86
443.43	1363.95
443.64	1472.49
443.84	1366.00
444.05	1411.05
444.25	1400.81
444.46	1333.23
444.66	1433.58
444.87	1492.97
445.07	1392.62
445.28	1363.95
445.48	1458.15
445.69	1431.53
445.89	1458.15
446.09	1511.40
446.30	2293.72
446.50	3629.00
446.71	4655.03
446.91	5273.52
447.12	5662.63
447.32	4870.07
447.53	4167.62
447.73	3751.88
447.93	3399.63
448.14	3139.54
448.34	3033.04
448.55	2797.53
448.75	2709.46
448.96	2648.02
449.16	2412.51
449.36	2224.09
449.57	1972.19
449.77	1685.48
449.98	1550.31
450.18	1480.68
450.39	1460.20
450.59	1339.37
450.79	1421.29
451.00	1409.00
451.20	1394.67
451.41	1378.28
451.61	1427.43
451.81	1378.28
452.02	1439.72
452.22	1363.95
452.43	1411.05
452.63	1388.52
452.84	1388.52
453.04	1351.66
453.24	1370.09
453.45	1343.47
453.65	1406.95
453.86	1466.35
454.06	1308.65
454.26	1355.76
454.47	1345.52
454.67	1363.95
454.87	1402.86
455.08	1378.28
455.28	1406.95
455.49	1355.76
455.69	1390.57
455.89	1470.44
456.10	1462.25
456.30	1343.47
456.51	1374.19
456.71	1351.66
456.91	1429.48
457.12	1353.71
457.32	1341.42
457.52	1322.99
457.73	1495.02
457.93	1484.78
458.14	1374.19
458.34	1304.56
458.54	1345.52
458.75	1382.38
458.95	1380.33
459.15	1368.04
459.36	1388.52
459.56	1427.43
459.76	1423.34
459.97	1449.96
460.17	1343.47
460.37	1427.43
460.58	1290.22
460.78	1320.94
460.99	1351.66
461.19	1353.71
461.39	1384.43
461.60	1337.32
461.80	1425.39
462.00	1359.85
462.21	1398.76
462.41	1337.32
462.61	1290.22
462.82	1259.50
463.02	1359.85
463.22	1392.62
463.43	1386.47
463.63	1404.91
463.83	1390.57
464.04	1443.82
464.24	1374.19
464.44	1327.08
464.64	1347.56
464.85	1386.47
465.05	1447.91
465.25	1376.24
465.46	1359.85
465.66	1351.66
465.86	1366.00
466.07	1349.61
466.27	1398.76
466.47	1337.32
466.68	1288.17
466.88	1413.10
467.08	1398.76
467.29	1419.24
467.49	1363.95
467.69	1290.22
467.89	1376.24
468.10	1421.29
468.30	1402.86
468.50	1437.67
468.71	1353.71
468.91	1351.66
469.11	1409.00
469.31	1390.57
469.52	1359.85
469.72	1376.24
469.92	1501.16
470.13	1378.28
470.33	1413.10
470.53	1669.09
470.73	2222.05
470.94	2224.09
471.14	2312.16
471.34	2441.18
471.54	2295.77
471.75	1972.19
471.95	1898.47
472.15	1904.61
472.36	1818.60
472.56	1804.26
472.76	1781.73
472.96	1685.48
473.17	1634.28
473.37	1626.09
473.57	1591.27
473.77	1503.21
473.98	1456.11
474.18	1449.96
474.38	1460.20
474.58	1413.10
474.79	1419.24
474.99	1415.15
475.19	1458.15
475.39	1421.29
475.60	1357.80
475.80	1423.34
476.00	1402.86
476.20	1329.13
476.41	1386.47
476.61	1396.71
476.81	1382.38
477.01	1347.56
477.21	1490.92
477.42	1392.62
477.62	1398.76
477.82	1425.39
478.02	1310.70
478.23	1460.20
478.43	1351.66
478.63	1400.81
478.83	1396.71
479.03	1325.04
479.24	1380.33
479.44	1454.06
479.64	1355.76
479.84	1294.32
480.04	1331.18
480.25	1417.19
480.45	1347.56
480.65	1304.56
480.85	1370.09
481.06	1345.52
481.26	1380.33
481.46	1411.05
481.66	1423.34
481.86	1378.28
482.06	1429.48
482.27	1302.51
482.47	1368.04
482.67	1423.34
482.87	1363.95
483.07	1427.43
483.28	1421.29
483.48	1339.37
483.68	1413.10
483.88	1314.80
484.08	1308.65
484.29	1290.22
484.49	1406.95
484.69	1308.65
484.89	1431.53
485.09	1413.10
485.29	1384.43
485.50	1347.56
485.70	1378.28
485.90	1382.38
486.10	1406.95
486.30	1415.15
486.50	1370.09
486.71	1339.37
486.91	1406.95
487.11	1425.39
487.31	1366.00
487.51	1366.00
487.71	1366.00
487.91	1370.09
488.12	1396.71
488.32	1302.51
488.52	1327.08
488.72	1339.37
488.92	1325.04
489.12	1390.57
489.32	1454.06
489.53	1402.86
489.73	1271.79
489.93	1452.01
490.13	1413.10
490.33	1322.99
490.53	1396.71
490.73	1501.16
490.94	1429.48
491.14	1413.10
491.34	1658.85
491.54	2131.94
491.74	2588.63
491.94	3022.80
492.14	3164.11
492.34	3041.23
492.54	2467.80
492.75	2279.39
492.95	2193.37
493.15	1990.63
493.35	1910.75
493.55	1964.00
493.75	1906.66
493.95	1966.05
494.15	1839.08
494.35	1681.38
494.56	1646.57
494.76	1574.89
494.96	1490.92
495.16	1511.40
495.36	1413.10
495.56	1429.48
495.76	1325.04
495.96	1339.37
496.16	1396.71
496.36	1419.24
496.56	1419.24
496.77	1404.91
496.97	1304.56
497.17	1437.67
497.37	1322.99
497.57	1378.28
497.77	1380.33
497.97	1320.94
498.17	1413.10
498.37	1374.19
498.57	1361.90
498.77	1366.00
498.97	1441.77
499.17	1425.39
499.38	1384.43
499.58	1351.66
499.78	1388.52
499.98	1439.72
500.18	1411.05
500.38	1421.29
500.58	1640.42
500.78	2920.40
500.98	5642.15
501.18	6989.72
501.38	8300.42
501.58	8562.56
501.78	7430.03
501.98	5855.14
502.18	5124.02
502.38	4571.07
502.58	4186.05
502.78	3758.02
502.98	3643.34
503.18	3477.45
503.38	3336.14
503.59	3074.00
503.79	2762.71
503.99	2551.77
504.19	2359.26
504.39	2201.57
504.59	2127.84
504.79	1929.19
504.99	1796.07
505.19	1658.85
505.39	1548.26
505.59	1599.46
505.79	1529.83
505.99	1503.21
506.19	1439.72
506.39	1492.97
506.59	1478.63
506.79	1468.39
506.99	1419.24
507.19	1482.73
507.39	1404.91
507.59	1388.52
507.79	1400.81
507.99	1423.34
508.19	1406.95
508.39	1409.00
508.59	1368.04
508.79	1460.20
508.99	1421.29
509.19	1384.43
509.39	1390.57
509.59	1347.56
509.79	1345.52
509.99	1400.81
510.19	1429.48
510.39	1382.38
510.59	1374.19
510.79	1370.09
510.99	1363.95
511.19	1423.34
511.39	1398.76
511.59	1441.77
511.79	1419.24
511.99	1398.76
512.19	1427.43
512.38	1409.00
512.58	1359.85
512.78	1380.33
512.98	1390.57
513.18	1462.25
513.38	1345.52
513.58	1386.47
513.78	1392.62
513.98	1419.24
514.18	1382.38
514.38	1343.47
514.58	1404.91
514.78	1345.52
514.98	1357.80
515.18	1337.32
515.38	1359.85
515.58	1443.82
515.78	1286.12
515.98	1339.37
516.18	1486.83
516.38	1312.75
516.57	1322.99
516.77	1347.56
516.97	1374.19
517.17	1419.24
517.37	1345.52
517.57	1406.95
517.77	1406.95
517.97	1284.08
518.17	1392.62
518.37	1361.90
518.57	1306.60
518.77	1425.39
518.97	1378.28
519.16	1372.14
519.36	1357.80
519.56	1331.18
519.76	1343.47
519.96	1355.76
520.16	1406.95
520.36	1382.38
520.56	1488.87
520.76	1380.33
520.96	1439.72
521.16	1314.80
521.35	1347.56
521.55	1486.83
521.75	1388.52
521.95	1361.90
522.15	1419.24
522.35	1327.08
522.55	1308.65
522.75	1353.71
522.95	1341.42
523.14	1329.13
523.34	1421.29
523.54	1372.14
523.74	1458.15
523.94	1411.05
524.14	1384.43
524.34	1398.76
524.54	1374.19
524.73	1347.56
524.93	1400.81
525.13	1378.28
525.33	1302.51
525.53	1511.40
525.73	1339.37
525.93	1329.13
526.13	1351.66
526.32	1372.14
526.52	1456.11
526.72	1341.42
526.92	1333.23
527.12	1429.48
527.32	1392.62
527.52	1394.67
527.71	1409.00
527.91	1411.05
528.11	1374.19
528.31	1409.00
528.51	1316.84
528.71	1413.10
528.90	1388.52
529.10	1404.91
529.30	1433.58
529.50	1318.89
529.70	1353.71
529.90	1376.24
530.09	1378.28
530.29	1384.43
530.49	1409.00
530.69	1435.63
530.89	1402.86
531.09	1441.77
531.28	1312.75
531.48	1409.00
531.68	1368.04
531.88	1355.76
532.08	1427.43
532.28	1429.48
532.47	1417.19
532.67	1386.47
532.87	1409.00
533.07	1445.87
533.27	1435.63
533.46	1388.52
533.66	1439.72
533.86	1396.71
534.06	1425.39
534.26	1429.48
534.45	1386.47
534.65	1386.47
534.85	1411.05
535.05	1390.57
535.25	1355.76
535.44	1380.33
535.64	1409.00
535.84	1423.34
536.04	1382.38
536.24	1318.89
536.43	1413.10
536.63	1341.42
536.83	1353.71
537.03	1335.28
537.22	1308.65
537.42	1331.18
537.62	1376.24
537.82	1380.33
538.02	1376.24
538.21	1396.71
538.41	1449.96
538.61	1425.39
538.81	1390.57
539.00	1353.71
539.20	1331.18
539.40	1382.38
539.60	1394.67
539.79	1392.62
539.99	1251.31
540.19	1378.28
540.39	1415.15
540.58	1374.19
540.78	1441.77
540.98	1380.33
541.18	1466.35
541.37	1433.58
541.57	1349.61
541.77	1353.71
541.97	1255.40
542.16	1325.04
542.36	1351.66
542.56	1374.19
542.76	1497.07
542.95	1425.39
543.15	1394.67
543.35	1331.18
543.54	1349.61
543.74	1382.38
543.94	1437.67
544.14	1335.28
544.33	1376.24
544.53	1277.93
544.73	1423.34
544.93	1355.76
545.12	1275.88
545.32	1396.71
545.52	1339.37
545.71	1327.08
545.91	1402.86
546.11	1318.89
546.30	1355.76
546.50	1396.71
546.70	1437.67
546.90	1312.75
547.09	1357.80
547.29	1380.33
547.49	1363.95
547.68	1392.62
547.88	1400.81
548.08	1372.14
548.27	1677.29
548.47	1357.80
548.67	1320.94
548.87	1474.54
549.06	1433.58
549.26	1337.32
549.46	1347.56
549.65	1398.76
549.85	1404.91
550.05	1353.71
550.24	1376.24
550.44	1343.47
550.64	1353.71
550.83	1345.52
551.03	1386.47
551.23	1447.91
551.42	1322.99
551.62	1372.14
551.82	1427.43
552.01	1318.89
552.21	1423.34
552.41	1376.24
552.60	1443.82
552.80	1396.71
553.00	1409.00
553.19	1382.38
553.39	1458.15
553.59	1316.84
553.78	1390.57
553.98	1409.00
554.17	1343.47
554.37	1316.84
554.57	1402.86
554.76	1232.88
554.96	1312.75
555.16	1349.61
555.35	1386.47
555.55	1370.09
555.75	1388.52
555.94	1462.25
556.14	1359.85
556.33	1396.71
556.53	1355.76
556.73	1402.86
556.92	1429.48
557.12	1349.61
557.32	1454.06
557.51	1413.10
557.71	1386.47
557.90	1396.71
558.10	1404.91
558.30	1308.65
558.49	1380.33
558.69	1294.32
558.88	1378.28
559.08	1382.38
559.28	1384.43
559.47	1400.81
559.67	1325.04
559.86	1449.96
560.06	1396.71
560.26	1368.04
560.45	1464.30
560.65	1398.76
560.84	1396.71
561.04	1331.18
561.24	1349.61
561.43	1345.52
561.63	1411.05
561.82	1378.28
562.02	1392.62
562.22	1402.86
562.41	1318.89
562.61	1353.71
562.80	1372.14
563.00	1370.09
563.19	1298.41
563.39	1406.95
563.59	1441.77
563.78	1273.84
563.98	1368.04
564.17	1394.67
564.37	1318.89
564.56	1378.28
564.76	1329.13
564.96	1421.29
565.15	1359.85
565.35	1509.35
565.54	1363.95
565.74	1368.04
565.93	1429.48
566.13	1366.00
566.32	1447.91
566.52	1386.47
566.71	1353.71
566.91	1439.72
567.11	1347.56
567.30	1333.23
567.50	1374.19
567.69	1386.47
567.89	1363.95
568.08	1341.42
568.28	1327.08
568.47	1353.71
568.67	1419.24
568.86	1421.29
569.06	1429.48
569.25	1318.89
569.45	1394.67
569.64	1425.39
569.84	1382.38
570.04	1415.15
570.23	1294.32
570.43	1419.24
570.62	1300.46
570.82	1482.73
571.01	1361.90
571.21	1359.85
571.40	1318.89
571.60	1388.52
571.79	1380.33
571.99	1409.00
572.18	1322.99
572.38	1372.14
572.57	1447.91
572.77	1421.29
572.96	1478.63
573.16	1355.76
573.35	1425.39
573.55	1445.87
573.74	1374.19
573.94	1435.63
574.13	1335.28
574.33	1400.81
574.52	1419.24
574.71	1433.58
574.91	1378.28
575.10	1380.33
575.30	1318.89
575.49	1370.09
575.69	1382.38
575.88	1468.39
576.08	1460.20
576.27	1368.04
576.47	1511.40
576.66	1466.35
576.86	1499.11
577.05	1495.02
577.25	1482.73
577.44	1415.15
577.64	1478.63
577.83	1425.39
578.02	1366.00
578.22	1478.63
578.41	1519.59
578.61	1384.43
578.80	1376.24
579.00	1380.33
579.19	1396.71
579.39	1456.11
579.58	1421.29
579.77	1468.39
579.97	1525.74
580.16	1447.91
580.36	1452.01
580.55	1468.39
580.75	1519.59
580.94	1431.53
581.13	1482.73
581.33	1490.92
581.52	1396.71
581.72	1478.63
581.91	1521.64
582.11	1505.26
582.30	1527.78
582.49	1535.98
582.69	1464.30
582.88	1507.30
583.08	1474.54
583.27	1449.96
583.47	1433.58
583.66	1413.10
583.85	1468.39
584.05	1378.28
584.24	1486.83
584.44	1419.24
584.63	1505.26
584.82	1554.41
585.02	1552.36
585.21	1540.07
585.41	1517.54
585.60	1671.14
585.79	1640.42
585.99	1671.14
586.18	1656.81
586.37	1845.22
586.57	2803.67
586.76	7731.08
586.96	24612.49
587.15	41280.91
587.34	52354.27
587.54	60005.48
587.73	59370.61
587.93	44350.81
588.12	33046.02
588.31	26773.10
588.51	22525.61
588.70	20082.38
588.89	18634.47
589.09	17121.02
589.28	15828.75
589.47	14335.78
589.67	12597.06
589.86	10764.12
590.06	8558.46
590.25	6590.36
590.44	4863.93
590.64	3719.11
590.83	2856.92
591.02	2406.36
591.22	1947.62
591.41	1689.57
591.60	1587.18
591.80	1675.24
591.99	1531.88
592.18	1470.44
592.38	1560.55
592.57	1443.82
592.76	1482.73
592.96	1382.38
593.15	1431.53
593.34	1466.35
593.54	1415.15
593.73	1417.19
593.92	1501.16
594.12	1503.21
594.31	1441.77
594.50	1556.46
594.70	1449.96
594.89	1484.78
595.08	1437.67
595.28	1474.54
595.47	1476.59
595.66	1429.48
595.86	1359.85
596.05	1445.87
596.24	1460.20
596.43	1406.95
596.63	1505.26
596.82	1357.80
597.01	1419.24
597.21	1468.39
597.40	1470.44
597.59	1482.73
597.79	1409.00
597.98	1421.29
598.17	1411.05
598.36	1380.33
598.56	1419.24
598.75	1372.14
598.94	1345.52
599.14	1492.97
599.33	1406.95
599.52	1388.52
599.71	1427.43
599.91	1452.01
600.10	1443.82
600.29	1411.05
600.48	1482.73
600.68	1329.13
600.87	1400.81
601.06	1409.00
601.26	1339.37
601.45	1425.39
601.64	1396.71
601.83	1404.91
602.03	1447.91
602.22	1341.42
602.41	1429.48
602.60	1421.29
602.80	1505.26
602.99	1458.15
603.18	1329.13
603.37	1376.24
603.57	1433.58
603.76	1431.53
603.95	1351.66
604.14	1388.52
604.34	1351.66
604.53	1429.48
604.72	1320.94
604.91	1361.90
605.10	1359.85
605.30	1329.13
605.49	1490.92
605.68	1458.15
605.87	1376.24
606.07	1361.90
606.26	1335.28
606.45	1335.28
606.64	1345.52
606.84	1431.53
607.03	1415.15
607.22	1462.25
607.41	1456.11
607.60	1404.91
607.80	1470.44
607.99	1425.39
608.18	1380.33
608.37	1380.33
608.56	1400.81
608.76	1409.00
608.95	1482.73
609.14	1454.06
609.33	1445.87
609.52	1484.78
609.72	1433.58
609.91	1492.97
610.10	1378.28
610.29	1492.97
610.48	1394.67
610.68	1361.90
610.87	1380.33
611.06	1390.57
611.25	1378.28
611.44	1417.19
611.63	1431.53
611.83	1421.29
612.02	1396.71
612.21	1464.30
612.40	1306.60
612.59	1288.17
612.79	1359.85
612.98	1392.62
613.17	1503.21
613.36	1415.15
613.55	1439.72
613.74	1490.92
613.93	1486.83
614.13	1632.23
614.32	1566.70
614.51	1630.18
614.70	1558.50
614.89	1525.74
615.08	1507.30
615.28	1675.24
615.47	1472.49
615.66	1460.20
615.85	1505.26
616.04	1533.93
616.23	1427.43
616.42	1435.63
616.62	1458.15
616.81	1458.15
617.00	1406.95
617.19	1478.63
617.38	1359.85
617.57	1445.87
617.76	1413.10
617.95	1429.48
618.15	1386.47
618.34	1447.91
618.53	1339.37
618.72	1402.86
618.91	1449.96
619.10	1470.44
619.29	1404.91
619.48	1292.27
619.68	1253.36
619.87	1374.19
620.06	1355.76
620.25	1419.24
620.44	1394.67
620.63	1290.22
620.82	1388.52
621.01	1331.18
621.20	1390.57
621.39	1413.10
621.59	1439.72
621.78	1421.29
621.97	1456.11
622.16	1409.00
622.35	1329.13
622.54	1511.40
622.73	1478.63
622.92	1351.66
623.11	1347.56
623.30	1341.42
623.49	1402.86
623.68	1343.47
623.88	1357.80
624.07	1361.90
624.26	1298.41
624.45	1437.67
624.64	1300.46
624.83	1462.25
625.02	1353.71
625.21	1318.89
625.40	1431.53
625.59	1413.10
625.78	1353.71
625.97	1396.71
626.16	1374.19
626.35	1515.50
626.54	1427.43
626.74	1650.66
626.93	1396.71
627.12	1415.15
627.31	1466.35
627.50	1439.72
627.69	1402.86
627.88	1300.46
628.07	1392.62
628.26	1325.04
628.45	1327.08
628.64	1353.71
628.83	1316.84
629.02	1370.09
629.21	1400.81
629.40	1396.71
629.59	1386.47
629.78	1335.28
629.97	1325.04
630.16	1402.86
630.35	1374.19
630.54	1339.37
630.73	1413.10
630.92	1478.63
631.11	1277.93
631.30	1366.00
631.49	1468.39
631.68	1337.32
631.87	1361.90
632.06	1269.74
632.25	1429.48
632.44	1380.33
632.63	1396.71
632.82	1413.10
633.01	1443.82
633.20	1427.43
633.39	1540.07
633.58	1337.32
633.77	1445.87
633.96	1517.54
634.15	1441.77
634.34	1454.06
634.53	1337.32
634.72	1363.95
634.91	1423.34
635.10	1447.91
635.29	1437.67
635.48	1372.14
635.67	1355.76
635.86	1296.36
636.05	1404.91
636.24	1347.56
636.43	1392.62
636.62	1320.94
636.81	1296.36
637.00	1327.08
637.19	1337.32
637.38	1372.14
637.57	1386.47
637.76	1355.76
637.95	1490.92
638.14	1447.91
638.33	1417.19
638.52	1538.02
638.71	1439.72
638.89	1339.37
639.08	1613.80
639.27	1435.63
639.46	1476.59
639.65	1667.05
639.84	1849.32
640.03	2076.64
640.22	2090.98
640.41	2107.36
640.60	1781.73
640.79	1714.15
640.98	1703.91
641.17	1675.24
641.36	1646.57
641.55	1562.60
641.74	1515.50
641.92	1523.69
642.11	1499.11
642.30	1503.21
642.49	1384.43
642.68	1503.21
642.87	1441.77
643.06	1429.48
643.25	1398.76
643.44	1392.62
643.63	1421.29
643.82	1484.78
644.00	1394.67
644.19	1361.90
644.38	1322.99
644.57	1447.91
644.76	1417.19
644.95	1302.51
645.14	1337.32
645.33	1454.06
645.52	1413.10
645.71	1339.37
645.89	1339.37
646.08	1361.90
646.27	1415.15
646.46	1437.67
646.65	1404.91
646.84	1314.80
647.03	1388.52
647.22	1423.34
647.40	1245.16
647.59	1374.19
647.78	1290.22
647.97	1361.90
648.16	1341.42
648.35	1363.95
648.54	1404.91
648.73	1419.24
648.91	1386.47
649.10	1337.32
649.29	1363.95
649.48	1353.71
649.67	1390.57
649.86	1441.77
650.05	1458.15
650.23	1517.54
650.42	1437.67
650.61	1613.80
650.80	1593.32
650.99	1544.17
651.18	1505.26
651.36	1519.59
651.55	1382.38
651.74	1415.15
651.93	1449.96
652.12	1411.05
652.31	1409.00
652.49	1470.44
652.68	1433.58
652.87	1419.24
653.06	1470.44
653.25	1437.67
653.44	1398.76
653.62	1472.49
653.81	1374.19
654.00	1417.19
654.19	1443.82
654.38	1460.20
654.56	1435.63
654.75	1386.47
654.94	1439.72
655.13	1378.28
655.32	1363.95
655.51	1417.19
655.69	1382.38
655.88	1439.72
656.07	1339.37
656.26	1456.11
656.45	1263.60
656.63	1384.43
656.82	1357.80
657.01	1427.43
657.20	1435.63
657.38	1421.29
657.57	1402.86
657.76	1312.75
657.95	1421.29
658.14	1361.90
658.32	1415.15
658.51	1296.36
658.70	1466.35
658.89	1394.67
659.08	1388.52
659.26	1404.91
659.45	1359.85
659.64	1468.39
659.83	1404.91
660.01	1632.23
660.20	1441.77
660.39	1511.40
660.58	1320.94
660.76	1435.63
660.95	1361.90
661.14	1386.47
661.33	1359.85
661.51	1409.00
661.70	1400.81
661.89	1429.48
662.08	1380.33
662.26	1368.04
662.45	1331.18
662.64	1417.19
662.83	1392.62
663.01	1329.13
663.20	1345.52
663.39	1384.43
663.58	1409.00
663.76	1413.10
663.95	1458.15
664.14	1400.81
664.32	1388.52
664.51	1316.84
664.70	1308.65
664.89	1372.14
665.07	1292.27
665.26	1392.62
665.45	1341.42
665.64	1363.95
665.82	1431.53
666.01	1443.82
666.20	1380.33
666.38	1462.25
666.57	1431.53
666.76	1515.50
666.95	1996.77
667.13	4491.20
667.32	11429.71
667.51	18075.37
667.69	21984.94
667.88	24569.48
668.07	24393.36
668.25	18804.45
668.44	13864.75
668.63	11198.29
668.81	9097.08
669.00	8091.52
669.19	7548.81
669.38	6997.91
669.56	6344.61
669.75	5545.90
669.94	4927.41
670.12	4147.14
670.31	3549.13
670.50	3018.71
670.68	2506.71
670.87	2052.06
671.06	1869.80
671.24	1705.96
671.43	1650.66
671.62	1601.51
671.80	1413.10
671.99	1437.67
672.18	1417.19
672.36	1449.96
672.55	1396.71
672.74	1413.10
672.92	1413.10
673.11	1411.05
673.29	1388.52
673.48	1507.30
673.67	1409.00
673.85	1439.72
674.04	1382.38
674.23	1329.13
674.41	1441.77
674.60	1411.05
674.79	1304.56
674.97	1400.81
675.16	1370.09
675.34	1396.71
675.53	1353.71
675.72	1460.20
675.90	1456.11
676.09	1320.94
676.28	1419.24
676.46	1296.36
676.65	1404.91
676.83	1372.14
677.02	1394.67
677.21	1427.43
677.39	1370.09
677.58	1341.42
677.77	1351.66
677.95	1363.95
678.14	1388.52
678.32	1398.76
678.51	1320.94
678.70	1452.01
678.88	1392.62
679.07	1456.11
679.25	1409.00
679.44	1322.99
679.63	1325.04
679.81	1392.62
680.00	1429.48
680.18	1476.59
680.37	1402.86
680.55	1400.81
680.74	1288.17
680.93	1288.17
681.11	1400.81
681.30	1384.43
681.48	1347.56
681.67	1425.39
681.85	1345.52
682.04	1355.76
682.23	1406.95
682.41	1277.93
682.60	1339.37
682.78	1337.32
682.97	1343.47
683.15	1355.76
683.34	1320.94
683.53	1411.05
683.71	1374.19
683.90	1421.29
684.08	1447.91
684.27	1363.95
684.45	1378.28
684.64	1474.54
684.82	1343.47
685.01	1396.71
685.19	1327.08
685.38	1353.71
685.57	1380.33
685.75	1316.84
685.94	1355.76
686.12	1370.09
686.31	1380.33
686.49	1513.45
686.68	1325.04
686.86	1413.10
687.05	1359.85
687.23	1378.28
687.42	1398.76
687.60	1366.00
687.79	1380.33
687.97	1402.86
688.16	1425.39
688.34	1509.35
688.53	1310.70
688.71	1341.42
688.90	1425.39
689.08	1306.60
689.27	1355.76
689.45	1359.85
689.64	1415.15
689.82	1386.47
690.01	1370.09
690.19	1425.39
690.38	1382.38
690.56	1378.28
690.75	1294.32
690.93	1335.28
691.12	1351.66
691.30	1378.28
691.49	1247.21
691.67	1368.04
691.86	1417.19
692.04	1349.61
692.23	1425.39
692.41	1372.14
692.60	1527.78
692.78	1427.43
692.97	1478.63
693.15	1452.01
693.34	1589.22
693.52	1411.05
693.71	1392.62
693.89	1431.53
694.08	1337.32
694.26	1492.97
694.44	1388.52
694.63	1355.76
694.81	1310.70
695.00	1392.62
695.18	1419.24
695.37	1413.10
695.55	1355.76
695.74	1370.09
695.92	1296.36
696.10	1400.81
696.29	1322.99
696.47	1347.56
696.66	1296.36
696.84	1394.67
697.03	1329.13
697.21	1484.78
697.40	1732.58
697.58	1468.39
697.76	1372.14
697.95	1314.80
698.13	1343.47
698.32	1370.09
698.50	1335.28
698.68	1388.52
698.87	1374.19
699.05	1427.43
699.24	1396.71
699.42	1398.76
699.61	1370.09
699.79	1441.77
699.97	1388.52
700.16	1337.32
700.34	1335.28
700.53	1322.99
700.71	1470.44
700.89	1439.72
701.08	1349.61
701.26	1339.37
701.45	1667.05
701.63	1333.23
701.81	1437.67
702.00	1400.81
702.18	1390.57
702.37	1402.86
702.55	1435.63
702.73	1576.94
702.92	1507.30
703.10	1681.38
703.28	1693.67
703.47	1619.94
703.65	1712.10
703.84	1628.14
704.02	1380.33
704.20	1570.79
704.39	1511.40
704.57	1540.07
704.75	1458.15
704.94	1542.12
705.12	1447.91
705.30	1495.02
705.49	1560.55
705.67	1777.64
705.86	3536.84
706.04	9150.32
706.22	16318.22
706.41	19662.55
706.59	22476.46
706.77	23305.88
706.96	20037.33
707.14	13926.19
707.32	11298.64
707.51	9211.76
707.69	8169.35
707.87	7368.59
708.06	6670.23
708.24	6115.23
708.42	4988.85
708.61	3997.64
708.79	3051.47
708.97	2383.84
709.16	1972.19
709.34	1703.91
709.52	1560.55
709.71	1509.35
709.89	1525.74
710.07	1476.59
710.26	1421.29
710.44	1462.25
710.62	1447.91
710.80	1429.48
710.99	1349.61
711.17	1384.43
711.35	1304.56
711.54	1423.34
711.72	1484.78
711.90	1363.95
712.09	1366.00
712.27	1380.33
712.45	1431.53
712.63	1423.34
712.82	1380.33
713.00	1445.87
713.18	1439.72
713.37	1402.86
713.55	1411.05
713.73	1439.72
713.91	1406.95
714.10	1366.00
714.28	1327.08
714.46	1404.91
714.65	1337.32
714.83	1452.01
715.01	1355.76
715.19	1456.11
715.38	1302.51
715.56	1437.67
715.74	1312.75
715.92	1417.19
716.11	1452.01
716.29	1386.47
716.47	1384.43
716.65	1372.14
716.84	1366.00
717.02	1390.57
717.20	1310.70
717.38	1320.94
717.57	1382.38
717.75	1396.71
717.93	1394.67
718.11	1406.95
718.30	1331.18
718.48	1337.32
718.66	1398.76
718.84	1439.72
719.03	1392.62
719.21	1361.90
719.39	1433.58
719.57	1417.19
719.75	1400.81
719.94	1409.00
720.12	1347.56
720.30	1400.81
720.48	1449.96
720.67	1294.32
720.85	1349.61
721.03	1361.90
721.21	1341.42
721.39	1398.76
721.58	1396.71
721.76	1456.11
721.94	1343.47
722.12	1325.04
722.30	1443.82
722.49	1333.23
722.67	1452.01
722.85	1347.56
723.03	1273.84
723.21	1363.95
723.40	1394.67
723.58	1447.91
723.76	1396.71
723.94	1302.51
724.12	1458.15
724.30	1435.63
724.49	1435.63
724.67	1402.86
724.85	1521.64
725.03	1374.19
725.21	1466.35
725.40	1484.78
725.58	1394.67
725.76	1439.72
725.94	1449.96
726.12	1374.19
726.30	1359.85
726.49	1404.91
726.67	1331.18
726.85	1452.01
727.03	1376.24
727.21	1433.58
727.39	1458.15
727.57	1992.67
727.76	3432.40
727.94	4450.24
728.12	4939.70
728.30	5238.70
728.48	5081.01
728.66	4190.14
728.84	3403.72
729.03	3026.90
729.21	2822.10
729.39	2568.15
729.57	2303.96
729.75	1996.77
729.93	1787.88
730.11	1621.99
730.30	1482.73
730.48	1427.43
730.66	1507.30
730.84	1437.67
731.02	1478.63
731.20	1390.57
731.38	1386.47
731.56	1282.03
731.74	1296.36
731.93	1380.33
732.11	1361.90
732.29	1353.71
732.47	1406.95
732.65	1468.39
732.83	1374.19
733.01	1294.32
733.19	1333.23
733.37	1347.56
733.56	1400.81
733.74	1388.52
733.92	1398.76
734.10	1413.10
734.28	1404.91
734.46	1325.04
734.64	1425.39
734.82	1363.95
735.00	1464.30
735.18	1341.42
735.36	1286.12
735.54	1339.37
735.73	1396.71
735.91	1349.61
736.09	1406.95
736.27	1343.47
736.45	1421.29
736.63	1382.38
736.81	1345.52
736.99	1388.52
737.17	1449.96
737.35	1341.42
737.53	1361.90
737.71	1384.43
737.89	1431.53
738.07	1341.42
738.25	1292.27
738.43	1329.13
738.61	1333.23
738.80	1288.17
738.98	1277.93
739.16	1310.70
739.34	1337.32
739.52	1343.47
739.70	1366.00
739.88	1302.51
740.06	1433.58
740.24	1327.08
740.42	1445.87
740.60	1355.76
740.78	1347.56
740.96	1353.71
741.14	1357.80
741.32	1386.47
741.50	1230.83
741.68	1458.15
741.86	1392.62
742.04	1357.80
742.22	1290.22
742.40	1378.28
742.58	1429.48
742.76	1341.42
742.94	1386.47
743.12	1308.65
743.30	1388.52
743.48	1427.43
743.66	1361.90
743.84	1439.72
744.02	1343.47
744.20	1363.95
744.38	1347.56
744.56	1339.37
744.74	1449.96
744.92	1374.19
745.10	1349.61
745.28	1409.00
745.46	1409.00
745.64	1398.76
745.82	1419.24
746.00	1380.33
746.18	1335.28
746.36	1363.95
746.54	1437.67
746.72	1411.05
746.90	1355.76
747.08	1413.10
747.26	1359.85
747.44	1400.81
747.62	1318.89
747.80	1398.76
747.98	1390.57
748.15	1380.33
748.33	1433.58
748.51	1368.04
748.69	1384.43
748.87	1310.70
749.05	1400.81
749.23	1320.94
749.41	1396.71
749.59	1349.61
749.77	1378.28
749.95	1357.80
750.13	1368.04
750.31	1343.47
750.49	1368.04
750.67	1509.35
750.85	1425.39
751.03	1445.87
751.20	1495.02
751.38	1337.32
751.56	1282.03
751.74	1335.28
751.92	1372.14
752.10	1253.36
752.28	1366.00
752.46	1386.47
752.64	1341.42
752.82	1292.27
753.00	1437.67
753.18	1292.27
753.35	1296.36
753.53	1411.05
753.71	1396.71
753.89	1421.29
754.07	1419.24
754.25	1380.33
754.43	1363.95
754.61	1370.09
754.79	1437.67
754.97	1404.91
755.14	1417.19
755.32	1347.56
755.50	1339.37
755.68	1327.08
755.86	1380.33
756.04	1376.24
756.22	1349.61
756.40	1380.33
756.57	1392.62
756.75	1300.46
756.93	1406.95
757.11	1380.33
757.29	1290.22
757.47	1306.60
757.65	1359.85
757.82	1288.17
758.00	1292.27
758.18	1417.19
758.36	1366.00
758.54	1388.52
758.72	1304.56
758.90	1429.48
759.07	1398.76
759.25	1341.42
759.43	1466.35
759.61	1249.26
759.79	1593.32
759.97	1337.32
760.15	1275.88
760.32	1370.09
760.50	1388.52
760.68	1443.82
760.86	1359.85
761.04	1417.19
761.22	1361.90
761.39	1380.33
761.57	1400.81
761.75	1304.56
761.93	1425.39
762.11	1423.34
762.28	1349.61
762.46	1298.41
762.64	1417.19
762.82	1265.64
763.00	1409.00
763.18	1394.67
763.35	1310.70
763.53	1413.10
763.71	1411.05
763.89	1320.94
764.07	1380.33
764.24	1378.28
764.42	1386.47
764.60	1325.04
764.78	1409.00
764.96	1347.56
765.13	1433.58
765.31	1376.24
765.49	1468.39
765.67	1232.88
765.84	1382.38
766.02	1329.13
766.20	1294.32
766.38	1320.94
766.56	1359.85
766.73	1404.91
766.91	1351.66
767.09	1300.46
767.27	1398.76
767.44	1415.15
767.62	1298.41
767.80	1361.90
767.98	1409.00
768.15	1322.99
768.33	1423.34
768.51	1437.67
768.69	1333.23
768.87	1337.32
769.04	1318.89
769.22	1402.86
769.40	1441.77
769.58	1427.43
769.75	1400.81
769.93	1363.95
770.11	1388.52
770.28	1296.36
770.46	1333.23
770.64	1318.89
770.82	1388.52
770.99	1302.51
771.17	1396.71
771.35	1333.23
771.53	1335.28
771.70	1355.76
771.88	1452.01
772.06	1329.13
772.23	1320.94
772.41	1347.56
772.59	1413.10
772.77	1318.89
772.94	1316.84
773.12	1447.91
773.30	1343.47
773.47	1361.90
773.65	1302.51
773.83	1417.19
774.01	1376.24
774.18	1279.98
774.36	1322.99
774.54	1294.32
774.71	1392.62
774.89	1265.64
775.07	1355.76
775.24	1298.41
775.42	1388.52
775.60	1425.39
775.78	1304.56
775.95	1341.42
776.13	1413.10
776.31	1372.14
776.48	1329.13
776.66	1421.29
776.84	1314.80
777.01	1353.71
777.19	1372.14
777.37	1310.70
777.54	1372.14
777.72	1423.34
777.90	1384.43
778.07	1308.65
778.25	1484.78
778.43	1400.81
778.60	1357.80
778.78	1394.67
778.96	1370.09
779.13	1329.13
779.31	1376.24
779.49	1294.32
779.66	1431.53
779.84	1386.47
780.01	1359.85
780.19	1314.80
780.37	1378.28
780.54	1419.24
780.72	1351.66
780.90	1427.43
781.07	1343.47
781.25	1351.66
781.43	1372.14
781.60	1421.29
781.78	1366.00
781.95	1296.36
782.13	1339.37
782.31	1372.14
782.48	1261.55
782.66	1325.04
782.83	1396.71
783.01	1347.56
783.19	1452.01
783.36	1320.94
783.54	1359.85
783.72	1415.15
783.89	1325.04
784.07	1347.56
784.24	1427.43
784.42	1392.62
784.60	1431.53
784.77	1327.08
784.95	1294.32
785.12	1361.90
785.30	1404.91
785.47	1327.08
785.65	1316.84
785.83	1370.09
786.00	1312.75
786.18	1437.67
786.35	1347.56
786.53	1337.32
786.71	1366.00
786.88	1351.66
787.06	1396.71
787.23	1368.04
787.41	1417.19
787.58	1335.28
787.76	1370.09
787.94	1368.04
788.11	1441.77
788.29	1282.03
788.46	1341.42
788.64	1273.84
788.81	1386.47
788.99	1290.22
789.16	1327.08
789.34	1320.94
789.52	1298.41
789.69	1370.09
789.87	1316.84
790.04	1355.76
790.22	1302.51
790.39	1439.72
790.57	1304.56
790.74	1419.24
790.92	1361.90
791.09	1335.28
791.27	1378.28
791.44	1402.86
791.62	1292.27
791.79	1398.76
791.97	1417.19
792.15	1484.78
792.32	1372.14
792.50	1411.05
792.67	1384.43
792.85	1490.92
793.02	1441.77
793.20	1335.28
793.37	1335.28
793.55	1329.13
793.72	1269.74
793.90	1384.43
794.07	1294.32
794.25	1298.41
794.42	1353.71
794.60	1366.00
794.77	1366.00
794.95	1390.57
795.12	1366.00
795.30	1277.93
795.47	1349.61
795.65	1527.78
795.82	1439.72
796.00	1355.76
796.17	1316.84
796.34	1275.88
796.52	1333.23
796.69	1384.43
796.87	1441.77
797.04	1394.67
797.22	1384.43
797.39	1343.47
797.57	1337.32
797.74	1325.04
797.92	1433.58
798.09	1363.95
798.27	1374.19
798.44	1314.80
798.62	1343.47
798.79	1402.86
798.96	1337.32
799.14	1370.09
799.31	1402.86
799.49	1337.32
799.66	1394.67
799.84	1376.24
800.01	1284.08
800.19	1355.76
800.36	1370.09
800.53	1349.61
800.71	1411.05
800.88	1361.90
801.06	1298.41
801.23	1282.03
801.41	1380.33
801.58	1382.38
801.75	1355.76
801.93	1392.62
802.10	1378.28
802.28	1341.42
802.45	1343.47
802.63	1396.71
802.80	1355.76
802.97	1355.76
803.15	1361.90
803.32	1396.71
803.50	1265.64
803.67	1376.24
803.84	1288.17
804.02	1363.95
804.19	1402.86
804.37	1337.32
804.54	1251.31
804.71	1368.04
804.89	1363.95
805.06	1357.80
805.24	1353.71
805.41	1294.32
805.58	1304.56
805.76	1386.47
805.93	1308.65
806.10	1488.87
806.28	1366.00
806.45	1363.95
806.63	1404.91
806.80	1425.39
806.97	1415.15
807.15	1398.76
807.32	1415.15
807.49	1370.09
807.67	1353.71
807.84	1341.42
808.01	1314.80
808.19	1460.20
808.36	1439.72
808.54	1349.61
808.71	1239.02
808.88	1370.09
809.06	1388.52
809.23	1347.56
809.40	1314.80
809.58	1409.00
809.75	1417.19
809.92	1355.76
810.10	1429.48
810.27	1349.61
810.44	1372.14
810.62	1437.67
810.79	1376.24
810.96	1394.67
811.14	1388.52
811.31	1409.00
811.48	1333.23
811.66	1339.37
811.83	1388.52
812.00	1327.08
812.18	1396.71
812.35	1368.04
812.52	1366.00
812.69	1355.76
812.87	1318.89
813.04	1284.08
813.21	1376.24
813.39	1282.03
813.56	1378.28
813.73	1404.91
813.91	1339.37
814.08	1347.56
814.25	1320.94
814.42	1318.89
814.60	1329.13
814.77	1390.57
814.94	1339.37
815.12	1415.15
815.29	1419.24
815.46	1366.00
815.63	1347.56
815.81	1361.90
815.98	1437.67
816.15	1320.94
816.33	1329.13
816.50	1292.27
816.67	1417.19
816.84	1329.13
817.02	1357.80
817.19	1370.09
817.36	1312.75
817.53	1265.64
817.71	1335.28
817.88	1378.28
818.05	1392.62
818.22	1300.46
818.40	1417.19
818.57	1325.04
818.74	1347.56
818.91	1423.34
819.09	1417.19
819.26	1337.32
819.43	1339.37
819.60	1370.09
819.78	1331.18
819.95	1386.47
820.12	1318.89
820.29	1433.58
820.47	1368.04
820.64	1380.33
820.81	1368.04
820.98	1339.37
821.15	1331.18
821.33	1413.10
821.50	1339.37
821.67	1404.91
821.84	1306.60
822.02	1449.96
822.19	1355.76
822.36	1353.71
822.53	1351.66
822.70	1331.18
822.88	1327.08
823.05	1486.83
823.22	1335.28
823.39	1386.47
823.56	1431.53
823.74	1394.67
823.91	1275.88
824.08	1355.76
824.25	1304.56
824.42	1320.94
824.60	1300.46
824.77	1423.34
824.94	1333.23
825.11	1423.34
825.28	1325.04
825.45	1351.66
825.63	1363.95
825.80	1378.28
825.97	1435.63
826.14	1404.91
826.31	1275.88
826.48	1378.28
826.66	1339.37
826.83	1318.89
827.00	1421.29
827.17	1378.28
827.34	1384.43
827.51	1339.37
827.69	1331.18
827.86	1279.98
828.03	1376.24
828.20	1357.80
828.37	1357.80
828.54	1431.53
828.71	1335.28
828.89	1378.28
829.06	1415.15
829.23	1429.48
829.40	1320.94
829.57	1425.39
829.74	1402.86
829.91	1341.42
830.09	1308.65
830.26	1419.24
830.43	1421.29
830.60	1394.67
830.77	1376.24
830.94	1435.63
831.11	1437.67
831.28	1339.37
831.46	1402.86
831.63	1376.24
831.80	1409.00
831.97	1355.76
832.14	1329.13
832.31	1425.39
832.48	1396.71
832.65	1415.15
832.82	1427.43
832.99	1327.08
833.17	1312.75
833.34	1402.86
833.51	1370.09
833.68	1294.32
833.85	1382.38
834.02	1394.67
834.19	1318.89
834.36	1388.52
834.53	1320.94
834.70	1341.42
834.87	1347.56
835.04	1388.52
835.22	1357.80
835.39	1384.43
835.56	1374.19
835.73	1345.52
835.90	1431.53
836.07	1345.52
836.24	1509.35
836.41	1388.52
836.58	1282.03
836.75	1361.90
836.92	1431.53
837.09	1421.29
837.26	1400.81
837.43	1392.62
837.60	1341.42
837.77	1390.57
837.94	1351.66
838.12	1400.81
838.29	1423.34
838.46	1388.52
838.63	1380.33
838.80	1447.91
838.97	1345.52
839.14	1374.19
839.31	1388.52
839.48	1427.43
839.65	1400.81
839.82	1361.90
839.99	1423.34
840.16	1347.56
840.33	1312.75
840.50	1419.24
840.67	1363.95
840.84	1277.93
841.01	1312.75
841.18	1363.95
841.35	1374.19
841.52	1394.67
841.69	1439.72
841.86	1380.33
842.03	1419.24
842.20	1366.00
842.37	1437.67
842.54	1361.90
842.71	1402.86
842.88	1339.37
843.05	1384.43
843.22	1351.66
843.39	1382.38
843.56	1349.61
843.73	1404.91
843.90	1380.33
844.07	1386.47
844.24	1433.58
844.41	1343.47
844.58	1331.18
844.75	1398.76
844.92	1382.38
845.09	1331.18
845.26	1372.14
845.43	1347.56
845.60	1439.72
845.77	1406.95
845.94	1273.84
846.10	1368.04
846.27	1329.13
846.44	1355.76
846.61	1380.33
846.78	1366.00
846.95	1482.73
847.12	1372.14
847.29	1359.85
847.46	1343.47
847.63	1394.67
847.80	1310.70
847.97	1427.43
848.14	1351.66
848.31	1411.05
848.48	1361.90
848.65	1380.33
848.82	1372.14
848.98	1472.49
849.15	1296.36
849.32	1388.52
849.49	1374.19
849.66	1406.95
849.83	1327.08
850.00	1314.80
850.17	1392.62
850.34	1294.32
850.51	1318.89
850.68	1325.04
850.85	1519.59
851.01	1374.19
851.18	1417.19
851.35	1359.85
851.52	1431.53
851.69	1357.80
851.86	1380.33
852.03	1345.52
852.20	1419.24
852.37	1390.57
852.53	1261.55
852.70	1368.04
852.87	1417.19
853.04	1347.56
853.21	1390.57
853.38	1404.91
853.55	1370.09
853.72	1452.01
853.89	1337.32
854.05	1372.14
854.22	1390.57
854.39	1368.04
854.56	1376.24
854.73	1335.28
854.90	1308.65
855.07	1382.38
855.23	1357.80
855.40	1370.09
855.57	1241.07
855.74	1415.15
855.91	1460.20
856.08	1378.28
856.25	1290.22
856.41	1396.71
856.58	1325.04
856.75	1312.75
856.92	1357.80
857.09	1351.66
857.26	1429.48
857.42	1335.28
857.59	1341.42
857.76	1390.57
857.93	1386.47
858.10	1316.84
858.27	1294.32
858.43	1361.90
858.60	1333.23
858.77	1388.52
858.94	1353.71
859.11	1368.04
859.27	1329.13
859.44	1320.94
859.61	1470.44
859.78	1398.76
859.95	1345.52
860.12	1390.57
860.28	1429.48
860.45	1419.24
860.62	1355.76
860.79	1406.95
860.95	1284.08
861.12	1333.23
861.29	1351.66
861.46	1404.91
861.63	1396.71
861.79	1331.18
861.96	1269.74
862.13	1392.62
862.30	1392.62
862.47	1378.28
862.63	1308.65
862.80	1431.53
862.97	1349.61
863.14	1388.52
863.30	1366.00
863.47	1357.80
863.64	1357.80
863.81	1370.09
863.97	1376.24
864.14	1325.04
864.31	1355.76
864.48	1329.13
864.65	1368.04
864.81	1402.86
864.98	1374.19
865.15	1433.58
865.32	1298.41
865.48	1398.76
865.65	1413.10
865.82	1333.23
865.98	1333.23
866.15	1427.43
866.32	1363.95
866.49	1337.32
866.65	1474.54
866.82	1388.52
866.99	1417.19
867.16	1361.90
867.32	1425.39
867.49	1335.28
867.66	1308.65
867.83	1331.18
867.99	1304.56
868.16	1372.14
868.33	1355.76
868.49	1372.14
868.66	1339.37
868.83	1398.76
868.99	1361.90
869.16	1349.61
869.33	1359.85
869.50	1331.18
869.66	1400.81
869.83	1341.42
870.00	1308.65
870.16	1413.10
870.33	1361.90
870.50	1396.71
870.66	1349.61
870.83	1452.01
871.00	1400.81
871.17	1396.71
871.33	1347.56
871.50	1370.09
871.67	1325.04
871.83	1271.79
872.00	1454.06
872.17	1398.76
872.33	1425.39
872.50	1331.18
872.67	1353.71
872.83	1306.60
873.00	1392.62
873.17	1345.52
873.33	1363.95
873.50	1335.28
873.67	1325.04
873.83	1333.23
874.00	1300.46
874.16	1429.48
874.33	1353.71
874.50	1339.37
874.66	1415.15
874.83	1361.90
875.00	1368.04
875.16	1452.01
875.33	1398.76
875.50	1282.03
875.66	1314.80
875.83	1343.47
875.99	1417.19
876.16	1394.67
876.33	1234.93
876.49	1310.70
876.66	1341.42
876.83	1392.62
876.99	1304.56
877.16	1394.67
877.32	1368.04
877.49	1320.94
877.66	1286.12
877.82	1417.19
877.99	1357.80
878.15	1394.67
878.32	1409.00
878.49	1452.01
878.65	1320.94
878.82	1429.48
878.98	1331.18
879.15	1437.67
879.32	1411.05
879.48	1380.33
879.65	1351.66
879.81	1366.00
879.98	1359.85
880.15	1308.65
880.31	1380.33
880.48	1353.71
880.64	1433.58
880.81	1419.24
880.97	1390.57
881.14	1302.51
881.31	1347.56
881.47	1497.07
881.64	1341.42
881.80	1368.04
881.97	1368.04
882.13	1427.43
882.30	1292.27
882.47	1366.00
882.63	1322.99
882.80	1310.70
882.96	1398.76
883.13	1419.24
883.29	1355.76
883.46	1411.05
883.62	1425.39
883.79	1374.19
883.95	1415.15
884.12	1376.24
884.29	1288.17
884.45	1413.10
884.62	1433.58
884.78	1316.84
884.95	1443.82
885.11	1314.80
885.28	1437.67
885.44	1320.94
885.61	1351.66
885.77	1406.95
885.94	1382.38
886.10	1443.82
886.27	1316.84
886.43	1466.35
886.60	1384.43
886.76	1380.33
886.93	1329.13
887.09	1366.00
887.26	1314.80
887.42	1441.77
887.59	1400.81
887.75	1413.10
887.92	1337.32
888.08	1368.04
888.25	1390.57
888.41	1452.01
888.58	1413.10
888.74	1347.56
888.91	1380.33
>>>>>End Processed Spectral Data<<<<<
