SpectraSuite Data File
++++++++++++++++++++++++++++++++++++
Date: Tue May 03 11:24:11 CEST 2016
User: root
Dark Spectrum Present: No
Reference Spectrum Present: No
Number of Sampled Component Spectra: 1
Spectrometers: USB4C02835
Integration Time (usec): 100000 (USB4C02835)
Spectra Averaged: 1 (USB4C02835)
Boxcar Smoothing: 0 (USB4C02835)
Correct for Electrical Dark: No (USB4C02835)
Strobe/Lamp Enabled: No (USB4C02835)
Correct for Detector Non-linearity: No (USB4C02835)
Correct for Stray Light: No (USB4C02835)
Number of Pixels in Processed Spectrum: 3648
>>>>>Begin Processed Spectral Data<<<<<
177.47	1296.36
177.69	1296.36
177.91	1296.36
178.13	1206.25
178.36	1226.73
178.58	1335.28
178.80	1351.66
179.02	1349.61
179.24	1349.61
179.46	1392.62
179.68	1443.82
179.90	1341.42
180.13	1333.23
180.35	1339.37
180.57	1345.52
180.79	1333.23
181.01	1374.19
181.23	1382.38
181.45	1462.25
181.67	1318.89
181.90	1423.34
182.12	1335.28
182.34	1300.46
182.56	1400.81
182.78	1351.66
183.00	1372.14
183.22	1318.89
183.44	1339.37
183.66	1505.26
183.89	1366.00
184.11	1402.86
184.33	1380.33
184.55	1382.38
184.77	1380.33
184.99	1402.86
185.21	1345.52
185.43	1474.54
185.65	1312.75
185.87	1437.67
186.10	1447.91
186.32	1445.87
186.54	1384.43
186.76	1421.29
186.98	1445.87
187.20	1366.00
187.42	1378.28
187.64	1314.80
187.86	1333.23
188.08	1339.37
188.30	1370.09
188.52	1292.27
188.75	1472.49
188.97	1406.95
189.19	1359.85
189.41	1394.67
189.63	1390.57
189.85	1370.09
190.07	1265.64
190.29	1296.36
190.51	1312.75
190.73	1337.32
190.95	1300.46
191.17	1445.87
191.39	1380.33
191.61	1320.94
191.84	1449.96
192.06	1355.76
192.28	1402.86
192.50	1464.30
192.72	1353.71
192.94	1343.47
193.16	1361.90
193.38	1361.90
193.60	1353.71
193.82	1421.29
194.04	1368.04
194.26	1359.85
194.48	1286.12
194.70	1355.76
194.92	1327.08
195.14	1437.67
195.36	1253.36
195.58	1392.62
195.80	1337.32
196.02	1322.99
196.24	1370.09
196.46	1359.85
196.69	1312.75
196.91	1482.73
197.13	1392.62
197.35	1322.99
197.57	1419.24
197.79	1396.71
198.01	1392.62
198.23	1347.56
198.45	1357.80
198.67	1327.08
198.89	1359.85
199.11	1292.27
199.33	1333.23
199.55	1316.84
199.77	1400.81
199.99	1488.87
200.21	1318.89
200.43	1361.90
200.65	1368.04
200.87	1296.36
201.09	1396.71
201.31	1327.08
201.53	1374.19
201.75	1413.10
201.97	1374.19
202.19	1335.28
202.41	1343.47
202.63	1488.87
202.85	1427.43
203.07	1380.33
203.29	1370.09
203.51	1355.76
203.73	1370.09
203.95	1425.39
204.17	1411.05
204.39	1353.71
204.61	1357.80
204.83	1329.13
205.05	1370.09
205.27	1331.18
205.49	1380.33
205.71	1372.14
205.93	1316.84
206.15	1277.93
206.37	1429.48
206.59	1411.05
206.81	1355.76
207.03	1390.57
207.25	1351.66
207.47	1429.48
207.69	1419.24
207.91	1415.15
208.13	1402.86
208.34	1388.52
208.56	1378.28
208.78	1368.04
209.00	1392.62
209.22	1363.95
209.44	1300.46
209.66	1359.85
209.88	1361.90
210.10	1306.60
210.32	1339.37
210.54	1433.58
210.76	1333.23
210.98	1357.80
211.20	1306.60
211.42	1382.38
211.64	1449.96
211.86	1429.48
212.08	1427.43
212.30	1404.91
212.52	1327.08
212.74	1337.32
212.96	1359.85
213.17	1388.52
213.39	1386.47
213.61	1363.95
213.83	1454.06
214.05	1282.03
214.27	1368.04
214.49	1329.13
214.71	1294.32
214.93	1366.00
215.15	1372.14
215.37	1413.10
215.59	1325.04
215.81	1402.86
216.03	1406.95
216.24	1384.43
216.46	1402.86
216.68	1417.19
216.90	1421.29
217.12	1374.19
217.34	1431.53
217.56	1378.28
217.78	1445.87
218.00	1372.14
218.22	1361.90
218.44	1382.38
218.66	1409.00
218.87	1495.02
219.09	1363.95
219.31	1359.85
219.53	1380.33
219.75	1292.27
219.97	1279.98
220.19	1447.91
220.41	1484.78
220.63	1363.95
220.85	1359.85
221.06	1386.47
221.28	1447.91
221.50	1341.42
221.72	1413.10
221.94	1386.47
222.16	1404.91
222.38	1415.15
222.60	1390.57
222.82	1312.75
223.03	1333.23
223.25	1288.17
223.47	1366.00
223.69	1435.63
223.91	1370.09
224.13	1310.70
224.35	1431.53
224.57	1398.76
224.78	1421.29
225.00	1304.56
225.22	1269.74
225.44	1351.66
225.66	1402.86
225.88	1277.93
226.10	1370.09
226.32	1429.48
226.53	1366.00
226.75	1329.13
226.97	1423.34
227.19	1308.65
227.41	1329.13
227.63	1333.23
227.85	1333.23
228.06	1355.76
228.28	1380.33
228.50	1306.60
228.72	1388.52
228.94	1294.32
229.16	1253.36
229.37	1363.95
229.59	1312.75
229.81	1413.10
230.03	1339.37
230.25	1273.84
230.47	1300.46
230.69	1345.52
230.90	1374.19
231.12	1402.86
231.34	1433.58
231.56	1380.33
231.78	1394.67
232.00	1347.56
232.21	1406.95
232.43	1380.33
232.65	1327.08
232.87	1384.43
233.09	1357.80
233.30	1271.79
233.52	1380.33
233.74	1353.71
233.96	1400.81
234.18	1390.57
234.40	1322.99
234.61	1441.77
234.83	1392.62
235.05	1396.71
235.27	1445.87
235.49	1462.25
235.70	1411.05
235.92	1441.77
236.14	1331.18
236.36	1482.73
236.58	1312.75
236.79	1314.80
237.01	1333.23
237.23	1310.70
237.45	1421.29
237.67	1378.28
237.88	1331.18
238.10	1396.71
238.32	1353.71
238.54	1427.43
238.76	1286.12
238.97	1343.47
239.19	1396.71
239.41	1431.53
239.63	1456.11
239.85	1298.41
240.06	1376.24
240.28	1353.71
240.50	1361.90
240.72	1452.01
240.93	1411.05
241.15	1349.61
241.37	1374.19
241.59	1435.63
241.81	1366.00
242.02	1355.76
242.24	1320.94
242.46	1411.05
242.68	1357.80
242.89	1402.86
243.11	1347.56
243.33	1366.00
243.55	1335.28
243.76	1435.63
243.98	1374.19
244.20	1380.33
244.42	1398.76
244.64	1404.91
244.85	1396.71
245.07	1368.04
245.29	1425.39
245.51	1417.19
245.72	1335.28
245.94	1382.38
246.16	1421.29
246.38	1361.90
246.59	1394.67
246.81	1357.80
247.03	1382.38
247.24	1327.08
247.46	1392.62
247.68	1314.80
247.90	1417.19
248.11	1347.56
248.33	1390.57
248.55	1308.65
248.77	1417.19
248.98	1357.80
249.20	1447.91
249.42	1333.23
249.64	1341.42
249.85	1419.24
250.07	1337.32
250.29	1396.71
250.50	1415.15
250.72	1341.42
250.94	1380.33
251.16	1372.14
251.37	1486.83
251.59	1394.67
251.81	1429.48
252.02	1376.24
252.24	1322.99
252.46	1363.95
252.68	1288.17
252.89	1363.95
253.11	1366.00
253.33	1421.29
253.54	1370.09
253.76	1259.50
253.98	1372.14
254.20	1339.37
254.41	1353.71
254.63	1341.42
254.85	1257.45
255.06	1368.04
255.28	1366.00
255.50	1376.24
255.71	1345.52
255.93	1327.08
256.15	1345.52
256.36	1411.05
256.58	1406.95
256.80	1333.23
257.02	1288.17
257.23	1359.85
257.45	1288.17
257.67	1411.05
257.88	1368.04
258.10	1351.66
258.32	1345.52
258.53	1406.95
258.75	1419.24
258.97	1290.22
259.18	1406.95
259.40	1347.56
259.62	1460.20
259.83	1460.20
260.05	1390.57
260.27	1517.54
260.48	1415.15
260.70	1314.80
260.92	1341.42
261.13	1394.67
261.35	1347.56
261.57	1400.81
261.78	1304.56
262.00	1347.56
262.22	1355.76
262.43	1394.67
262.65	1294.32
262.86	1419.24
263.08	1396.71
263.30	1382.38
263.51	1406.95
263.73	1329.13
263.95	1443.82
264.16	1357.80
264.38	1253.36
264.60	1398.76
264.81	1400.81
265.03	1411.05
265.25	1437.67
265.46	1437.67
265.68	1349.61
265.89	1345.52
266.11	1353.71
266.33	1363.95
266.54	1429.48
266.76	1392.62
266.98	1363.95
267.19	1413.10
267.41	1370.09
267.62	1361.90
267.84	1349.61
268.06	1402.86
268.27	1396.71
268.49	1417.19
268.70	1361.90
268.92	1411.05
269.14	1261.55
269.35	1271.79
269.57	1382.38
269.79	1370.09
270.00	1431.53
270.22	1308.65
270.43	1353.71
270.65	1302.51
270.87	1370.09
271.08	1368.04
271.30	1445.87
271.51	1333.23
271.73	1392.62
271.95	1400.81
272.16	1310.70
272.38	1325.04
272.59	1322.99
272.81	1456.11
273.02	1429.48
273.24	1394.67
273.46	1382.38
273.67	1282.03
273.89	1331.18
274.10	1353.71
274.32	1435.63
274.54	1411.05
274.75	1304.56
274.97	1345.52
275.18	1347.56
275.40	1378.28
275.61	1277.93
275.83	1329.13
276.05	1327.08
276.26	1327.08
276.48	1339.37
276.69	1314.80
276.91	1308.65
277.12	1425.39
277.34	1425.39
277.55	1480.68
277.77	1363.95
277.99	1361.90
278.20	1288.17
278.42	1363.95
278.63	1296.36
278.85	1380.33
279.06	1331.18
279.28	1423.34
279.49	1318.89
279.71	1396.71
279.93	1355.76
280.14	1333.23
280.36	1359.85
280.57	1406.95
280.79	1380.33
281.00	1345.52
281.22	1370.09
281.43	1368.04
281.65	1302.51
281.86	1279.98
282.08	1417.19
282.29	1472.49
282.51	1308.65
282.73	1335.28
282.94	1318.89
283.16	1359.85
283.37	1388.52
283.59	1331.18
283.80	1382.38
284.02	1353.71
284.23	1370.09
284.45	1363.95
284.66	1339.37
284.88	1325.04
285.09	1398.76
285.31	1398.76
285.52	1329.13
285.74	1296.36
285.95	1417.19
286.17	1351.66
286.38	1443.82
286.60	1357.80
286.81	1361.90
287.03	1388.52
287.24	1406.95
287.46	1372.14
287.67	1347.56
287.89	1357.80
288.10	1366.00
288.32	1327.08
288.53	1419.24
288.75	1355.76
288.96	1439.72
289.18	1363.95
289.39	1349.61
289.61	1376.24
289.82	1415.15
290.04	1294.32
290.25	1327.08
290.47	1382.38
290.68	1306.60
290.90	1435.63
291.11	1376.24
291.33	1380.33
291.54	1357.80
291.76	1388.52
291.97	1318.89
292.18	1406.95
292.40	1318.89
292.61	1404.91
292.83	1431.53
293.04	1423.34
293.26	1386.47
293.47	1366.00
293.69	1355.76
293.90	1384.43
294.12	1427.43
294.33	1449.96
294.55	1409.00
294.76	1421.29
294.97	1486.83
295.19	1400.81
295.40	1298.41
295.62	1394.67
295.83	1413.10
296.05	1378.28
296.26	1398.76
296.48	1339.37
296.69	1384.43
296.90	1388.52
297.12	1472.49
297.33	1361.90
297.55	1374.19
297.76	1429.48
297.98	1411.05
298.19	1396.71
298.41	1376.24
298.62	1353.71
298.83	1441.77
299.05	1411.05
299.26	1372.14
299.48	1302.51
299.69	1368.04
299.90	1468.39
300.12	1425.39
300.33	1351.66
300.55	1411.05
300.76	1363.95
300.98	1253.36
301.19	1406.95
301.40	1437.67
301.62	1443.82
301.83	1386.47
302.05	1304.56
302.26	1331.18
302.47	1394.67
302.69	1372.14
302.90	1376.24
303.12	1366.00
303.33	1409.00
303.54	1490.92
303.76	1382.38
303.97	1329.13
304.19	1472.49
304.40	1335.28
304.61	1374.19
304.83	1464.30
305.04	1384.43
305.26	1310.70
305.47	1417.19
305.68	1441.77
305.90	1271.79
306.11	1419.24
306.33	1361.90
306.54	1390.57
306.75	1347.56
306.97	1304.56
307.18	1331.18
307.39	1423.34
307.61	1398.76
307.82	1353.71
308.04	1458.15
308.25	1347.56
308.46	1406.95
308.68	1368.04
308.89	1355.76
309.10	1421.29
309.32	1380.33
309.53	1388.52
309.74	1390.57
309.96	1351.66
310.17	1388.52
310.39	1331.18
310.60	1423.34
310.81	1355.76
311.03	1322.99
311.24	1449.96
311.45	1372.14
311.67	1419.24
311.88	1368.04
312.09	1355.76
312.31	1329.13
312.52	1355.76
312.73	1339.37
312.95	1355.76
313.16	1331.18
313.37	1396.71
313.59	1427.43
313.80	1406.95
314.01	1386.47
314.23	1368.04
314.44	1333.23
314.65	1290.22
314.87	1437.67
315.08	1335.28
315.29	1351.66
315.51	1349.61
315.72	1333.23
315.93	1382.38
316.15	1460.20
316.36	1372.14
316.57	1306.60
316.79	1411.05
317.00	1331.18
317.21	1351.66
317.43	1370.09
317.64	1419.24
317.85	1443.82
318.07	1384.43
318.28	1472.49
318.49	1554.41
318.70	1624.04
318.92	1523.69
319.13	1554.41
319.34	1472.49
319.56	1501.16
319.77	1470.44
319.98	1503.21
320.20	1402.86
320.41	1458.15
320.62	1423.34
320.83	1368.04
321.05	1519.59
321.26	1298.41
321.47	1331.18
321.69	1427.43
321.90	1288.17
322.11	1361.90
322.32	1378.28
322.54	1372.14
322.75	1417.19
322.96	1411.05
323.18	1378.28
323.39	1282.03
323.60	1316.84
323.81	1486.83
324.03	1388.52
324.24	1322.99
324.45	1308.65
324.66	1351.66
324.88	1441.77
325.09	1419.24
325.30	1363.95
325.52	1384.43
325.73	1390.57
325.94	1331.18
326.15	1357.80
326.37	1363.95
326.58	1443.82
326.79	1406.95
327.00	1363.95
327.22	1447.91
327.43	1370.09
327.64	1380.33
327.85	1316.84
328.07	1396.71
328.28	1409.00
328.49	1406.95
328.70	1355.76
328.92	1361.90
329.13	1398.76
329.34	1345.52
329.55	1374.19
329.76	1413.10
329.98	1345.52
330.19	1495.02
330.40	1411.05
330.61	1388.52
330.83	1376.24
331.04	1372.14
331.25	1374.19
331.46	1390.57
331.68	1298.41
331.89	1406.95
332.10	1482.73
332.31	1288.17
332.52	1411.05
332.74	1503.21
332.95	1380.33
333.16	1363.95
333.37	1378.28
333.58	1470.44
333.80	1368.04
334.01	1388.52
334.22	1386.47
334.43	1402.86
334.64	1290.22
334.86	1322.99
335.07	1382.38
335.28	1386.47
335.49	1351.66
335.70	1380.33
335.92	1445.87
336.13	1480.68
336.34	1404.91
336.55	1394.67
336.76	1331.18
336.98	1263.60
337.19	1425.39
337.40	1411.05
337.61	1509.35
337.82	1316.84
338.04	1366.00
338.25	1318.89
338.46	1304.56
338.67	1357.80
338.88	1263.60
339.09	1331.18
339.31	1335.28
339.52	1298.41
339.73	1374.19
339.94	1351.66
340.15	1398.76
340.36	1337.32
340.58	1370.09
340.79	1437.67
341.00	1370.09
341.21	1331.18
341.42	1413.10
341.63	1353.71
341.85	1376.24
342.06	1327.08
342.27	1406.95
342.48	1384.43
342.69	1341.42
342.90	1386.47
343.12	1394.67
343.33	1351.66
343.54	1329.13
343.75	1499.11
343.96	1290.22
344.17	1314.80
344.38	1366.00
344.60	1351.66
344.81	1304.56
345.02	1359.85
345.23	1327.08
345.44	1441.77
345.65	1431.53
345.86	1376.24
346.07	1372.14
346.29	1349.61
346.50	1388.52
346.71	1372.14
346.92	1394.67
347.13	1423.34
347.34	1294.32
347.55	1353.71
347.76	1421.29
347.98	1226.73
348.19	1370.09
348.40	1462.25
348.61	1337.32
348.82	1411.05
349.03	1406.95
349.24	1347.56
349.45	1527.78
349.66	1322.99
349.88	1363.95
350.09	1380.33
350.30	1366.00
350.51	1445.87
350.72	1376.24
350.93	1394.67
351.14	1337.32
351.35	1378.28
351.56	1386.47
351.77	1378.28
351.99	1406.95
352.20	1400.81
352.41	1429.48
352.62	1357.80
352.83	1292.27
353.04	1288.17
353.25	1347.56
353.46	1421.29
353.67	1433.58
353.88	1384.43
354.09	1431.53
354.30	1322.99
354.52	1449.96
354.73	1370.09
354.94	1417.19
355.15	1404.91
355.36	1398.76
355.57	1351.66
355.78	1368.04
355.99	1366.00
356.20	1398.76
356.41	1402.86
356.62	1380.33
356.83	1271.79
357.04	1404.91
357.25	1300.46
357.46	1400.81
357.68	1361.90
357.89	1322.99
358.10	1359.85
358.31	1353.71
358.52	1368.04
358.73	1304.56
358.94	1368.04
359.15	1368.04
359.36	1366.00
359.57	1355.76
359.78	1337.32
359.99	1343.47
360.20	1423.34
360.41	1396.71
360.62	1400.81
360.83	1322.99
361.04	1382.38
361.25	1468.39
361.46	1400.81
361.67	1370.09
361.88	1439.72
362.09	1441.77
362.30	1374.19
362.51	1433.58
362.72	1392.62
362.93	1484.78
363.14	1388.52
363.35	1380.33
363.56	1339.37
363.78	1361.90
363.99	1429.48
364.20	1320.94
364.41	1363.95
364.62	1449.96
364.83	1335.28
365.04	1361.90
365.25	1353.71
365.46	1447.91
365.67	1294.32
365.88	1427.43
366.09	1402.86
366.30	1341.42
366.51	1347.56
366.72	1306.60
366.93	1390.57
367.14	1279.98
367.35	1349.61
367.56	1390.57
367.77	1355.76
367.98	1359.85
368.18	1308.65
368.39	1388.52
368.60	1335.28
368.81	1382.38
369.02	1339.37
369.23	1339.37
369.44	1345.52
369.65	1347.56
369.86	1449.96
370.07	1366.00
370.28	1322.99
370.49	1431.53
370.70	1427.43
370.91	1318.89
371.12	1314.80
371.33	1433.58
371.54	1394.67
371.75	1458.15
371.96	1316.84
372.17	1366.00
372.38	1378.28
372.59	1368.04
372.80	1339.37
373.01	1308.65
373.22	1366.00
373.43	1392.62
373.64	1380.33
373.85	1402.86
374.06	1454.06
374.26	1349.61
374.47	1341.42
374.68	1445.87
374.89	1337.32
375.10	1335.28
375.31	1361.90
375.52	1308.65
375.73	1409.00
375.94	1363.95
376.15	1439.72
376.36	1290.22
376.57	1376.24
376.78	1374.19
376.99	1349.61
377.20	1366.00
377.40	1415.15
377.61	1425.39
377.82	1413.10
378.03	1417.19
378.24	1372.14
378.45	1378.28
378.66	1415.15
378.87	1331.18
379.08	1357.80
379.29	1368.04
379.50	1372.14
379.71	1298.41
379.91	1421.29
380.12	1394.67
380.33	1380.33
380.54	1318.89
380.75	1345.52
380.96	1337.32
381.17	1456.11
381.38	1355.76
381.59	1470.44
381.80	1472.49
382.00	1550.31
382.21	1396.71
382.42	1460.20
382.63	1409.00
382.84	1402.86
383.05	1384.43
383.26	1433.58
383.47	1388.52
383.68	1454.06
383.88	1402.86
384.09	1363.95
384.30	1437.67
384.51	1355.76
384.72	1400.81
384.93	1341.42
385.14	1368.04
385.35	1355.76
385.55	1382.38
385.76	1478.63
385.97	1413.10
386.18	1406.95
386.39	1349.61
386.60	1452.01
386.81	1460.20
387.02	1363.95
387.22	1353.71
387.43	1396.71
387.64	1546.22
387.85	2291.68
388.06	5797.80
388.27	9498.48
388.48	11693.90
388.68	12943.16
388.89	13539.12
389.10	10639.20
389.31	9279.35
389.52	8400.77
389.73	7430.03
389.93	7067.54
390.14	6504.35
390.35	6090.66
390.56	5453.74
390.77	4556.73
390.98	3751.88
391.18	2846.68
391.39	2066.40
391.60	1695.72
391.81	1593.32
392.02	1445.87
392.23	1519.59
392.43	1398.76
392.64	1449.96
392.85	1452.01
393.06	1431.53
393.27	1413.10
393.47	1320.94
393.68	1363.95
393.89	1353.71
394.10	1433.58
394.31	1376.24
394.52	1380.33
394.72	1382.38
394.93	1505.26
395.14	1333.23
395.35	1400.81
395.56	1392.62
395.76	1583.08
395.97	1552.36
396.18	1603.56
396.39	1644.52
396.60	1699.81
396.80	1525.74
397.01	1513.45
397.22	1495.02
397.43	1452.01
397.64	1462.25
397.84	1474.54
398.05	1509.35
398.26	1482.73
398.47	1511.40
398.67	1454.06
398.88	1394.67
399.09	1337.32
399.30	1359.85
399.51	1521.64
399.71	1400.81
399.92	1396.71
400.13	1327.08
400.34	1363.95
400.54	1404.91
400.75	1439.72
400.96	1437.67
401.17	1386.47
401.37	1419.24
401.58	1402.86
401.79	1507.30
402.00	1718.25
402.21	1902.56
402.41	1742.82
402.62	1802.21
402.83	1728.49
403.04	1705.96
403.24	1724.39
403.45	1595.37
403.66	1552.36
403.87	1572.84
404.07	1513.45
404.28	1562.60
404.49	1621.99
404.70	1505.26
404.90	1484.78
405.11	1411.05
405.32	1396.71
405.52	1452.01
405.73	1376.24
405.94	1394.67
406.15	1359.85
406.35	1452.01
406.56	1421.29
406.77	1316.84
406.98	1322.99
407.18	1359.85
407.39	1460.20
407.60	1400.81
407.80	1413.10
408.01	1388.52
408.22	1388.52
408.43	1353.71
408.63	1374.19
408.84	1368.04
409.05	1363.95
409.25	1318.89
409.46	1368.04
409.67	1339.37
409.88	1322.99
410.08	1359.85
410.29	1271.79
410.50	1421.29
410.70	1345.52
410.91	1282.03
411.12	1333.23
411.32	1427.43
411.53	1392.62
411.74	1480.68
411.95	1413.10
412.15	1349.61
412.36	1470.44
412.57	1406.95
412.77	1411.05
412.98	1386.47
413.19	1363.95
413.39	1476.59
413.60	1361.90
413.81	1437.67
414.01	1359.85
414.22	1486.83
414.43	1404.91
414.63	1363.95
414.84	1339.37
415.05	1421.29
415.25	1361.90
415.46	1435.63
415.67	1388.52
415.87	1386.47
416.08	1402.86
416.29	1366.00
416.49	1429.48
416.70	1390.57
416.91	1351.66
417.11	1357.80
417.32	1445.87
417.53	1376.24
417.73	1361.90
417.94	1409.00
418.15	1378.28
418.35	1331.18
418.56	1409.00
418.77	1495.02
418.97	1409.00
419.18	1374.19
419.38	1302.51
419.59	1302.51
419.80	1378.28
420.00	1398.76
420.21	1345.52
420.42	1404.91
420.62	1400.81
420.83	1378.28
421.04	1429.48
421.24	1343.47
421.45	1345.52
421.65	1331.18
421.86	1419.24
422.07	1370.09
422.27	1411.05
422.48	1368.04
422.69	1409.00
422.89	1376.24
423.10	1339.37
423.30	1263.60
423.51	1349.61
423.72	1363.95
423.92	1357.80
424.13	1294.32
424.33	1372.14
424.54	1376.24
424.75	1302.51
424.95	1419.24
425.16	1433.58
425.36	1320.94
425.57	1427.43
425.78	1419.24
425.98	1413.10
426.19	1374.19
426.39	1347.56
426.60	1335.28
426.81	1398.76
427.01	1294.32
427.22	1329.13
427.42	1331.18
427.63	1382.38
427.83	1363.95
428.04	1431.53
428.25	1376.24
428.45	1454.06
428.66	1392.62
428.86	1370.09
429.07	1347.56
429.28	1355.76
429.48	1380.33
429.69	1423.34
429.89	1386.47
430.10	1372.14
430.30	1409.00
430.51	1488.87
430.71	1347.56
430.92	1411.05
431.13	1296.36
431.33	1413.10
431.54	1441.77
431.74	1478.63
431.95	1474.54
432.15	1277.93
432.36	1396.71
432.56	1339.37
432.77	1456.11
432.98	1445.87
433.18	1400.81
433.39	1359.85
433.59	1359.85
433.80	1359.85
434.00	1388.52
434.21	1402.86
434.41	1409.00
434.62	1431.53
434.82	1370.09
435.03	1376.24
435.23	1378.28
435.44	1339.37
435.64	1390.57
435.85	1322.99
436.06	1331.18
436.26	1353.71
436.47	1390.57
436.67	1331.18
436.88	1382.38
437.08	1368.04
437.29	1390.57
437.49	1458.15
437.70	1427.43
437.90	1478.63
438.11	1449.96
438.31	1470.44
438.52	1576.94
438.72	1517.54
438.93	1591.27
439.13	1435.63
439.34	1507.30
439.54	1460.20
439.75	1474.54
439.95	1417.19
440.16	1437.67
440.36	1392.62
440.57	1445.87
440.77	1413.10
440.98	1398.76
441.18	1392.62
441.39	1400.81
441.59	1349.61
441.80	1431.53
442.00	1370.09
442.21	1361.90
442.41	1325.04
442.62	1462.25
442.82	1366.00
443.02	1411.05
443.23	1353.71
443.43	1425.39
443.64	1439.72
443.84	1398.76
444.05	1429.48
444.25	1382.38
444.46	1390.57
444.66	1355.76
444.87	1445.87
445.07	1298.41
445.28	1398.76
445.48	1439.72
445.69	1347.56
445.89	1572.84
446.09	1431.53
446.30	2248.67
446.50	3770.31
446.71	4728.76
446.91	5203.89
447.12	5580.71
447.32	5128.11
447.53	4208.58
447.73	3854.28
447.93	3487.69
448.14	3168.21
448.34	2996.18
448.55	2729.94
448.75	2676.70
448.96	2688.98
449.16	2439.13
449.36	2254.81
449.57	2011.11
449.77	1697.77
449.98	1652.71
450.18	1462.25
450.39	1456.11
450.59	1402.86
450.79	1380.33
451.00	1427.43
451.20	1409.00
451.41	1290.22
451.61	1376.24
451.81	1335.28
452.02	1370.09
452.22	1374.19
452.43	1339.37
452.63	1419.24
452.84	1374.19
453.04	1484.78
453.24	1343.47
453.45	1435.63
453.65	1468.39
453.86	1366.00
454.06	1402.86
454.26	1376.24
454.47	1339.37
454.67	1380.33
454.87	1402.86
455.08	1339.37
455.28	1509.35
455.49	1419.24
455.69	1343.47
455.89	1458.15
456.10	1376.24
456.30	1331.18
456.51	1392.62
456.71	1406.95
456.91	1406.95
457.12	1372.14
457.32	1368.04
457.52	1351.66
457.73	1415.15
457.93	1437.67
458.14	1327.08
458.34	1337.32
458.54	1337.32
458.75	1423.34
458.95	1374.19
459.15	1384.43
459.36	1417.19
459.56	1425.39
459.76	1411.05
459.97	1357.80
460.17	1357.80
460.37	1523.69
460.58	1322.99
460.78	1437.67
460.99	1355.76
461.19	1396.71
461.39	1292.27
461.60	1411.05
461.80	1361.90
462.00	1392.62
462.21	1357.80
462.41	1316.84
462.61	1335.28
462.82	1361.90
463.02	1419.24
463.22	1388.52
463.43	1372.14
463.63	1406.95
463.83	1437.67
464.04	1413.10
464.24	1476.59
464.44	1382.38
464.64	1374.19
464.85	1394.67
465.05	1388.52
465.25	1318.89
465.46	1347.56
465.66	1425.39
465.86	1372.14
466.07	1433.58
466.27	1366.00
466.47	1398.76
466.68	1314.80
466.88	1437.67
467.08	1411.05
467.29	1427.43
467.49	1392.62
467.69	1374.19
467.89	1345.52
468.10	1376.24
468.30	1363.95
468.50	1396.71
468.71	1452.01
468.91	1347.56
469.11	1492.97
469.31	1376.24
469.52	1390.57
469.72	1449.96
469.92	1445.87
470.13	1425.39
470.33	1392.62
470.53	1642.47
470.73	2035.68
470.94	2209.76
471.14	2400.22
471.34	2443.23
471.54	2185.18
471.75	2025.44
471.95	1957.86
472.15	1798.12
472.36	1873.89
472.56	1759.21
472.76	1843.17
472.96	1730.53
473.17	1728.49
473.37	1665.00
473.57	1495.02
473.77	1519.59
473.98	1456.11
474.18	1384.43
474.38	1435.63
474.58	1382.38
474.79	1380.33
474.99	1429.48
475.19	1429.48
475.39	1380.33
475.60	1409.00
475.80	1359.85
476.00	1333.23
476.20	1406.95
476.41	1314.80
476.61	1484.78
476.81	1380.33
477.01	1253.36
477.21	1423.34
477.42	1413.10
477.62	1429.48
477.82	1423.34
478.02	1398.76
478.23	1384.43
478.43	1374.19
478.63	1349.61
478.83	1378.28
479.03	1394.67
479.24	1437.67
479.44	1458.15
479.64	1409.00
479.84	1370.09
480.04	1294.32
480.25	1411.05
480.45	1286.12
480.65	1304.56
480.85	1394.67
481.06	1359.85
481.26	1398.76
481.46	1335.28
481.66	1339.37
481.86	1333.23
482.06	1423.34
482.27	1357.80
482.47	1339.37
482.67	1390.57
482.87	1390.57
483.07	1462.25
483.28	1411.05
483.48	1366.00
483.68	1370.09
483.88	1427.43
484.08	1316.84
484.29	1245.16
484.49	1370.09
484.69	1302.51
484.89	1404.91
485.09	1390.57
485.29	1431.53
485.50	1380.33
485.70	1304.56
485.90	1437.67
486.10	1388.52
486.30	1394.67
486.50	1433.58
486.71	1406.95
486.91	1423.34
487.11	1425.39
487.31	1349.61
487.51	1374.19
487.71	1329.13
487.91	1411.05
488.12	1277.93
488.32	1306.60
488.52	1386.47
488.72	1314.80
488.92	1417.19
489.12	1345.52
489.32	1443.82
489.53	1339.37
489.73	1302.51
489.93	1423.34
490.13	1325.04
490.33	1265.64
490.53	1351.66
490.73	1464.30
490.94	1366.00
491.14	1431.53
491.34	1642.47
491.54	2111.46
491.74	2568.15
491.94	2953.17
492.14	3207.12
492.34	3014.61
492.54	2613.21
492.75	2357.21
492.95	2215.90
493.15	2185.18
493.35	2029.54
493.55	1982.43
493.75	1877.99
493.95	1873.89
494.15	1779.68
494.35	1742.82
494.56	1601.51
494.76	1517.54
494.96	1523.69
495.16	1454.06
495.36	1376.24
495.56	1435.63
495.76	1466.35
495.96	1382.38
496.16	1320.94
496.36	1443.82
496.56	1384.43
496.77	1447.91
496.97	1384.43
497.17	1384.43
497.37	1370.09
497.57	1388.52
497.77	1378.28
497.97	1363.95
498.17	1372.14
498.37	1370.09
498.57	1417.19
498.77	1402.86
498.97	1462.25
499.17	1509.35
499.38	1339.37
499.58	1423.34
499.78	1366.00
499.98	1437.67
500.18	1413.10
500.38	1384.43
500.58	1630.18
500.78	2979.79
500.98	5523.37
501.18	6903.70
501.38	8286.08
501.58	8540.03
501.78	7298.96
501.98	5820.33
502.18	5150.64
502.38	4614.07
502.58	4151.23
502.78	3780.55
502.98	3708.87
503.18	3553.23
503.38	3368.91
503.59	3110.86
503.79	2691.03
503.99	2504.67
504.19	2396.12
504.39	2117.60
504.59	2107.36
504.79	1880.04
504.99	1810.40
505.19	1619.94
505.39	1529.83
505.59	1601.51
505.79	1560.55
505.99	1548.26
506.19	1492.97
506.39	1531.88
506.59	1433.58
506.79	1454.06
506.99	1415.15
507.19	1472.49
507.39	1468.39
507.59	1359.85
507.79	1396.71
507.99	1304.56
508.19	1423.34
508.39	1363.95
508.59	1400.81
508.79	1449.96
508.99	1380.33
509.19	1306.60
509.39	1429.48
509.59	1353.71
509.79	1335.28
509.99	1298.41
510.19	1427.43
510.39	1386.47
510.59	1378.28
510.79	1341.42
510.99	1341.42
511.19	1322.99
511.39	1402.86
511.59	1427.43
511.79	1445.87
511.99	1396.71
512.19	1466.35
512.38	1370.09
512.58	1392.62
512.78	1433.58
512.98	1380.33
513.18	1421.29
513.38	1341.42
513.58	1456.11
513.78	1312.75
513.98	1376.24
514.18	1327.08
514.38	1359.85
514.58	1357.80
514.78	1402.86
514.98	1392.62
515.18	1345.52
515.38	1382.38
515.58	1419.24
515.78	1337.32
515.98	1392.62
516.18	1378.28
516.38	1339.37
516.57	1329.13
516.77	1314.80
516.97	1402.86
517.17	1298.41
517.37	1341.42
517.57	1437.67
517.77	1316.84
517.97	1306.60
518.17	1468.39
518.37	1370.09
518.57	1353.71
518.77	1304.56
518.97	1386.47
519.16	1429.48
519.36	1337.32
519.56	1333.23
519.76	1398.76
519.96	1394.67
520.16	1386.47
520.36	1359.85
520.56	1492.97
520.76	1501.16
520.96	1355.76
521.16	1368.04
521.35	1411.05
521.55	1388.52
521.75	1349.61
521.95	1310.70
522.15	1366.00
522.35	1304.56
522.55	1341.42
522.75	1409.00
522.95	1325.04
523.14	1392.62
523.34	1411.05
523.54	1327.08
523.74	1421.29
523.94	1413.10
524.14	1257.45
524.34	1372.14
524.54	1445.87
524.73	1419.24
524.93	1388.52
525.13	1339.37
525.33	1349.61
525.53	1476.59
525.73	1335.28
525.93	1368.04
526.13	1378.28
526.32	1366.00
526.52	1345.52
526.72	1372.14
526.92	1437.67
527.12	1347.56
527.32	1388.52
527.52	1349.61
527.71	1449.96
527.91	1386.47
528.11	1316.84
528.31	1380.33
528.51	1353.71
528.71	1347.56
528.90	1392.62
529.10	1419.24
529.30	1449.96
529.50	1322.99
529.70	1357.80
529.90	1363.95
530.09	1331.18
530.29	1314.80
530.49	1329.13
530.69	1484.78
530.89	1351.66
531.09	1351.66
531.28	1366.00
531.48	1478.63
531.68	1396.71
531.88	1349.61
532.08	1325.04
532.28	1382.38
532.47	1454.06
532.67	1333.23
532.87	1386.47
533.07	1333.23
533.27	1464.30
533.46	1378.28
533.66	1363.95
533.86	1439.72
534.06	1353.71
534.26	1400.81
534.45	1433.58
534.65	1400.81
534.85	1406.95
535.05	1363.95
535.25	1413.10
535.44	1372.14
535.64	1433.58
535.84	1388.52
536.04	1386.47
536.24	1359.85
536.43	1402.86
536.63	1495.02
536.83	1411.05
537.03	1325.04
537.22	1415.15
537.42	1343.47
537.62	1349.61
537.82	1351.66
538.02	1406.95
538.21	1423.34
538.41	1433.58
538.61	1400.81
538.81	1378.28
539.00	1437.67
539.20	1384.43
539.40	1372.14
539.60	1390.57
539.79	1429.48
539.99	1351.66
540.19	1325.04
540.39	1437.67
540.58	1366.00
540.78	1322.99
540.98	1423.34
541.18	1454.06
541.37	1406.95
541.57	1382.38
541.77	1296.36
541.97	1392.62
542.16	1271.79
542.36	1411.05
542.56	1427.43
542.76	1462.25
542.95	1423.34
543.15	1425.39
543.35	1415.15
543.54	1290.22
543.74	1378.28
543.94	1380.33
544.14	1359.85
544.33	1406.95
544.53	1366.00
544.73	1363.95
544.93	1363.95
545.12	1302.51
545.32	1380.33
545.52	1337.32
545.71	1396.71
545.91	1339.37
546.11	1351.66
546.30	1282.03
546.50	1376.24
546.70	1433.58
546.90	1353.71
547.09	1402.86
547.29	1335.28
547.49	1400.81
547.68	1421.29
547.88	1308.65
548.08	1417.19
548.27	1740.77
548.47	1335.28
548.67	1363.95
548.87	1390.57
549.06	1331.18
549.26	1474.54
549.46	1409.00
549.65	1411.05
549.85	1384.43
550.05	1411.05
550.24	1322.99
550.44	1345.52
550.64	1386.47
550.83	1347.56
551.03	1470.44
551.23	1472.49
551.42	1380.33
551.62	1421.29
551.82	1384.43
552.01	1378.28
552.21	1503.21
552.41	1353.71
552.60	1429.48
552.80	1390.57
553.00	1359.85
553.19	1335.28
553.39	1370.09
553.59	1325.04
553.78	1490.92
553.98	1429.48
554.17	1290.22
554.37	1357.80
554.57	1380.33
554.76	1413.10
554.96	1413.10
555.16	1320.94
555.35	1437.67
555.55	1374.19
555.75	1347.56
555.94	1423.34
556.14	1388.52
556.33	1413.10
556.53	1445.87
556.73	1396.71
556.92	1370.09
557.12	1353.71
557.32	1327.08
557.51	1376.24
557.71	1476.59
557.90	1417.19
558.10	1454.06
558.30	1345.52
558.49	1402.86
558.69	1368.04
558.88	1396.71
559.08	1390.57
559.28	1345.52
559.47	1349.61
559.67	1431.53
559.86	1511.40
560.06	1480.68
560.26	1421.29
560.45	1384.43
560.65	1378.28
560.84	1421.29
561.04	1378.28
561.24	1361.90
561.43	1347.56
561.63	1439.72
561.82	1337.32
562.02	1445.87
562.22	1343.47
562.41	1359.85
562.61	1327.08
562.80	1302.51
563.00	1531.88
563.19	1384.43
563.39	1376.24
563.59	1478.63
563.78	1386.47
563.98	1337.32
564.17	1249.26
564.37	1345.52
564.56	1392.62
564.76	1357.80
564.96	1458.15
565.15	1372.14
565.35	1462.25
565.54	1363.95
565.74	1484.78
565.93	1331.18
566.13	1351.66
566.32	1415.15
566.52	1468.39
566.71	1351.66
566.91	1490.92
567.11	1413.10
567.30	1400.81
567.50	1376.24
567.69	1370.09
567.89	1376.24
568.08	1359.85
568.28	1429.48
568.47	1423.34
568.67	1363.95
568.86	1402.86
569.06	1419.24
569.25	1447.91
569.45	1380.33
569.64	1411.05
569.84	1347.56
570.04	1361.90
570.23	1368.04
570.43	1370.09
570.62	1372.14
570.82	1382.38
571.01	1329.13
571.21	1335.28
571.40	1390.57
571.60	1378.28
571.79	1429.48
571.99	1419.24
572.18	1415.15
572.38	1435.63
572.57	1413.10
572.77	1415.15
572.96	1441.77
573.16	1290.22
573.35	1333.23
573.55	1419.24
573.74	1351.66
573.94	1411.05
574.13	1310.70
574.33	1437.67
574.52	1378.28
574.71	1378.28
574.91	1415.15
575.10	1390.57
575.30	1396.71
575.49	1320.94
575.69	1394.67
575.88	1478.63
576.08	1406.95
576.27	1482.73
576.47	1447.91
576.66	1533.93
576.86	1503.21
577.05	1390.57
577.25	1503.21
577.44	1470.44
577.64	1417.19
577.83	1439.72
578.02	1310.70
578.22	1490.92
578.41	1497.07
578.61	1376.24
578.80	1314.80
579.00	1396.71
579.19	1417.19
579.39	1429.48
579.58	1460.20
579.77	1396.71
579.97	1505.26
580.16	1460.20
580.36	1441.77
580.55	1486.83
580.75	1445.87
580.94	1429.48
581.13	1511.40
581.33	1492.97
581.52	1460.20
581.72	1505.26
581.91	1499.11
582.11	1433.58
582.30	1495.02
582.49	1468.39
582.69	1482.73
582.88	1484.78
583.08	1495.02
583.27	1454.06
583.47	1388.52
583.66	1423.34
583.85	1380.33
584.05	1370.09
584.24	1447.91
584.44	1501.16
584.63	1554.41
584.82	1507.30
585.02	1501.16
585.21	1648.61
585.41	1576.94
585.60	1628.14
585.79	1638.38
585.99	1710.05
586.18	1564.65
586.37	1880.04
586.57	2682.84
586.76	7937.93
586.96	24409.74
587.15	41549.19
587.34	52210.92
587.54	59751.54
587.73	59491.44
587.93	45196.62
588.12	32960.01
588.31	26744.42
588.51	22841.00
588.70	20442.82
588.89	18609.89
589.09	17078.01
589.28	15949.58
589.47	14356.26
589.67	12437.31
589.86	10635.10
590.06	8720.25
590.25	6551.45
590.44	4976.56
590.64	3647.43
590.83	2797.53
591.02	2338.78
591.22	1988.58
591.41	1734.63
591.60	1560.55
591.80	1714.15
591.99	1482.73
592.18	1411.05
592.38	1482.73
592.57	1386.47
592.76	1419.24
592.96	1427.43
593.15	1398.76
593.34	1394.67
593.54	1384.43
593.73	1454.06
593.92	1509.35
594.12	1484.78
594.31	1482.73
594.50	1562.60
594.70	1460.20
594.89	1552.36
595.08	1392.62
595.28	1406.95
595.47	1562.60
595.66	1488.87
595.86	1380.33
596.05	1411.05
596.24	1425.39
596.43	1415.15
596.63	1425.39
596.82	1386.47
597.01	1441.77
597.21	1456.11
597.40	1406.95
597.59	1464.30
597.79	1396.71
597.98	1445.87
598.17	1368.04
598.36	1484.78
598.56	1335.28
598.75	1411.05
598.94	1413.10
599.14	1374.19
599.33	1349.61
599.52	1458.15
599.71	1386.47
599.91	1372.14
600.10	1466.35
600.29	1363.95
600.48	1400.81
600.68	1390.57
600.87	1294.32
601.06	1357.80
601.26	1439.72
601.45	1415.15
601.64	1331.18
601.83	1404.91
602.03	1363.95
602.22	1353.71
602.41	1433.58
602.60	1386.47
602.80	1503.21
602.99	1388.52
603.18	1431.53
603.37	1398.76
603.57	1404.91
603.76	1392.62
603.95	1423.34
604.14	1398.76
604.34	1349.61
604.53	1409.00
604.72	1409.00
604.91	1370.09
605.10	1421.29
605.30	1351.66
605.49	1454.06
605.68	1355.76
605.87	1427.43
606.07	1411.05
606.26	1413.10
606.45	1427.43
606.64	1415.15
606.84	1347.56
607.03	1445.87
607.22	1447.91
607.41	1366.00
607.60	1462.25
607.80	1458.15
607.99	1374.19
608.18	1406.95
608.37	1376.24
608.56	1374.19
608.76	1390.57
608.95	1497.07
609.14	1423.34
609.33	1486.83
609.52	1519.59
609.72	1441.77
609.91	1529.83
610.10	1507.30
610.29	1472.49
610.48	1456.11
610.68	1476.59
610.87	1437.67
611.06	1419.24
611.25	1417.19
611.44	1419.24
611.63	1339.37
611.83	1384.43
612.02	1376.24
612.21	1470.44
612.40	1361.90
612.59	1302.51
612.79	1372.14
612.98	1419.24
613.17	1431.53
613.36	1390.57
613.55	1468.39
613.74	1503.21
613.93	1533.93
614.13	1558.50
614.32	1650.66
614.51	1681.38
614.70	1495.02
614.89	1513.45
615.08	1464.30
615.28	1691.62
615.47	1425.39
615.66	1361.90
615.85	1499.11
616.04	1505.26
616.23	1517.54
616.42	1480.68
616.62	1492.97
616.81	1400.81
617.00	1400.81
617.19	1466.35
617.38	1411.05
617.57	1402.86
617.76	1492.97
617.95	1386.47
618.15	1411.05
618.34	1458.15
618.53	1366.00
618.72	1466.35
618.91	1490.92
619.10	1409.00
619.29	1470.44
619.48	1400.81
619.68	1443.82
619.87	1396.71
620.06	1333.23
620.25	1343.47
620.44	1359.85
620.63	1433.58
620.82	1343.47
621.01	1376.24
621.20	1429.48
621.39	1382.38
621.59	1419.24
621.78	1472.49
621.97	1390.57
622.16	1392.62
622.35	1261.55
622.54	1437.67
622.73	1351.66
622.92	1390.57
623.11	1433.58
623.30	1492.97
623.49	1423.34
623.68	1304.56
623.88	1370.09
624.07	1378.28
624.26	1406.95
624.45	1396.71
624.64	1382.38
624.83	1376.24
625.02	1415.15
625.21	1355.76
625.40	1376.24
625.59	1417.19
625.78	1372.14
625.97	1427.43
626.16	1540.07
626.35	1443.82
626.54	1396.71
626.74	1478.63
626.93	1417.19
627.12	1378.28
627.31	1462.25
627.50	1449.96
627.69	1423.34
627.88	1380.33
628.07	1425.39
628.26	1384.43
628.45	1341.42
628.64	1425.39
628.83	1386.47
629.02	1355.76
629.21	1445.87
629.40	1372.14
629.59	1425.39
629.78	1347.56
629.97	1394.67
630.16	1433.58
630.35	1386.47
630.54	1476.59
630.73	1382.38
630.92	1406.95
631.11	1386.47
631.30	1339.37
631.49	1458.15
631.68	1382.38
631.87	1452.01
632.06	1353.71
632.25	1480.68
632.44	1406.95
632.63	1417.19
632.82	1427.43
633.01	1482.73
633.20	1458.15
633.39	1445.87
633.58	1404.91
633.77	1490.92
633.96	1462.25
634.15	1495.02
634.34	1454.06
634.53	1425.39
634.72	1441.77
634.91	1339.37
635.10	1409.00
635.29	1462.25
635.48	1335.28
635.67	1347.56
635.86	1359.85
636.05	1462.25
636.24	1357.80
636.43	1449.96
636.62	1384.43
636.81	1290.22
637.00	1374.19
637.19	1441.77
637.38	1398.76
637.57	1370.09
637.76	1456.11
637.95	1480.68
638.14	1482.73
638.33	1456.11
638.52	1535.98
638.71	1447.91
638.89	1431.53
639.08	1472.49
639.27	1435.63
639.46	1476.59
639.65	1609.70
639.84	1910.75
640.03	1941.47
640.22	2074.59
640.41	2084.83
640.60	1894.37
640.79	1763.30
640.98	1667.05
641.17	1634.28
641.36	1591.27
641.55	1609.70
641.74	1476.59
641.92	1535.98
642.11	1503.21
642.30	1533.93
642.49	1413.10
642.68	1404.91
642.87	1431.53
643.06	1466.35
643.25	1441.77
643.44	1341.42
643.63	1386.47
643.82	1433.58
644.00	1318.89
644.19	1335.28
644.38	1406.95
644.57	1357.80
644.76	1380.33
644.95	1433.58
645.14	1341.42
645.33	1239.02
645.52	1460.20
645.71	1361.90
645.89	1318.89
646.08	1368.04
646.27	1359.85
646.46	1439.72
646.65	1347.56
646.84	1435.63
647.03	1394.67
647.22	1402.86
647.40	1372.14
647.59	1390.57
647.78	1396.71
647.97	1327.08
648.16	1316.84
648.35	1429.48
648.54	1384.43
648.73	1361.90
648.91	1462.25
649.10	1439.72
649.29	1312.75
649.48	1353.71
649.67	1294.32
649.86	1331.18
650.05	1398.76
650.23	1505.26
650.42	1445.87
650.61	1607.66
650.80	1587.18
650.99	1585.13
651.18	1542.12
651.36	1523.69
651.55	1390.57
651.74	1454.06
651.93	1425.39
652.12	1462.25
652.31	1402.86
652.49	1386.47
652.68	1427.43
652.87	1435.63
653.06	1452.01
653.25	1488.87
653.44	1413.10
653.62	1464.30
653.81	1392.62
654.00	1370.09
654.19	1454.06
654.38	1343.47
654.56	1468.39
654.75	1329.13
654.94	1470.44
655.13	1458.15
655.32	1425.39
655.51	1394.67
655.69	1337.32
655.88	1413.10
656.07	1306.60
656.26	1349.61
656.45	1370.09
656.63	1417.19
656.82	1380.33
657.01	1398.76
657.20	1380.33
657.38	1425.39
657.57	1404.91
657.76	1361.90
657.95	1437.67
658.14	1320.94
658.32	1415.15
658.51	1284.08
658.70	1419.24
658.89	1363.95
659.08	1374.19
659.26	1392.62
659.45	1433.58
659.64	1361.90
659.83	1366.00
660.01	1593.32
660.20	1474.54
660.39	1497.07
660.58	1320.94
660.76	1411.05
660.95	1355.76
661.14	1376.24
661.33	1353.71
661.51	1402.86
661.70	1404.91
661.89	1421.29
662.08	1382.38
662.26	1249.26
662.45	1359.85
662.64	1468.39
662.83	1404.91
663.01	1366.00
663.20	1486.83
663.39	1488.87
663.58	1394.67
663.76	1363.95
663.95	1413.10
664.14	1400.81
664.32	1331.18
664.51	1396.71
664.70	1380.33
664.89	1484.78
665.07	1366.00
665.26	1423.34
665.45	1347.56
665.64	1419.24
665.82	1394.67
666.01	1454.06
666.20	1488.87
666.38	1462.25
666.57	1499.11
666.76	1507.30
666.95	2019.30
667.13	4612.03
667.32	11417.43
667.51	18188.01
667.69	21774.00
667.88	24903.30
668.07	24688.26
668.25	19427.03
668.44	13549.36
668.63	11247.44
668.81	9232.24
669.00	8124.29
669.19	7470.99
669.38	6809.50
669.56	6383.52
669.75	5564.33
669.94	4976.56
670.12	4179.90
670.31	3401.68
670.50	3039.19
670.68	2445.27
670.87	2072.54
671.06	1857.51
671.24	1701.86
671.43	1667.05
671.62	1558.50
671.80	1570.79
671.99	1501.16
672.18	1425.39
672.36	1454.06
672.55	1404.91
672.74	1406.95
672.92	1409.00
673.11	1419.24
673.29	1359.85
673.48	1509.35
673.67	1368.04
673.85	1470.44
674.04	1423.34
674.23	1372.14
674.41	1366.00
674.60	1370.09
674.79	1366.00
674.97	1386.47
675.16	1390.57
675.34	1394.67
675.53	1345.52
675.72	1466.35
675.90	1433.58
676.09	1341.42
676.28	1406.95
676.46	1300.46
676.65	1318.89
676.83	1304.56
677.02	1380.33
677.21	1454.06
677.39	1363.95
677.58	1417.19
677.77	1392.62
677.95	1363.95
678.14	1310.70
678.32	1398.76
678.51	1277.93
678.70	1431.53
678.88	1347.56
679.07	1402.86
679.25	1292.27
679.44	1388.52
679.63	1327.08
679.81	1353.71
680.00	1370.09
680.18	1439.72
680.37	1458.15
680.55	1452.01
680.74	1435.63
680.93	1288.17
681.11	1374.19
681.30	1437.67
681.48	1419.24
681.67	1386.47
681.85	1443.82
682.04	1398.76
682.23	1392.62
682.41	1390.57
682.60	1370.09
682.78	1288.17
682.97	1304.56
683.15	1413.10
683.34	1425.39
683.53	1415.15
683.71	1288.17
683.90	1431.53
684.08	1345.52
684.27	1404.91
684.45	1343.47
684.64	1359.85
684.82	1359.85
685.01	1337.32
685.19	1419.24
685.38	1466.35
685.57	1359.85
685.75	1304.56
685.94	1390.57
686.12	1234.93
686.31	1286.12
686.49	1507.30
686.68	1314.80
686.86	1376.24
687.05	1298.41
687.23	1411.05
687.42	1327.08
687.60	1345.52
687.79	1333.23
687.97	1425.39
688.16	1396.71
688.34	1366.00
688.53	1267.69
688.71	1380.33
688.90	1372.14
689.08	1339.37
689.27	1271.79
689.45	1425.39
689.64	1476.59
689.82	1419.24
690.01	1384.43
690.19	1343.47
690.38	1390.57
690.56	1454.06
690.75	1316.84
690.93	1327.08
691.12	1427.43
691.30	1359.85
691.49	1314.80
691.67	1400.81
691.86	1435.63
692.04	1378.28
692.23	1284.08
692.41	1322.99
692.60	1482.73
692.78	1499.11
692.97	1400.81
693.15	1488.87
693.34	1507.30
693.52	1433.58
693.71	1464.30
693.89	1337.32
694.08	1396.71
694.26	1517.54
694.44	1392.62
694.63	1349.61
694.81	1366.00
695.00	1380.33
695.18	1452.01
695.37	1460.20
695.55	1421.29
695.74	1366.00
695.92	1384.43
696.10	1363.95
696.29	1263.60
696.47	1359.85
696.66	1351.66
696.84	1409.00
697.03	1413.10
697.21	1437.67
697.40	1724.39
697.58	1361.90
697.76	1329.13
697.95	1290.22
698.13	1337.32
698.32	1435.63
698.50	1294.32
698.68	1435.63
698.87	1327.08
699.05	1449.96
699.24	1466.35
699.42	1349.61
699.61	1388.52
699.79	1396.71
699.97	1302.51
700.16	1359.85
700.34	1355.76
700.53	1353.71
700.71	1431.53
700.89	1402.86
701.08	1398.76
701.26	1376.24
701.45	1642.47
701.63	1388.52
701.81	1449.96
702.00	1400.81
702.18	1392.62
702.37	1359.85
702.55	1439.72
702.73	1531.88
702.92	1525.74
703.10	1619.94
703.28	1626.09
703.47	1640.42
703.65	1630.18
703.84	1619.94
704.02	1472.49
704.20	1527.78
704.39	1421.29
704.57	1501.16
704.75	1560.55
704.94	1454.06
705.12	1452.01
705.30	1460.20
705.49	1558.50
705.67	1787.88
705.86	3526.60
706.04	9195.38
706.22	16248.58
706.41	19979.98
706.59	22578.86
706.77	23750.29
706.96	19992.27
707.14	13756.21
707.32	11341.65
707.51	9381.74
707.69	8206.21
707.87	7395.22
708.06	6823.83
708.24	6045.60
708.42	5089.20
708.61	4034.50
708.79	3018.71
708.97	2383.84
709.16	2035.68
709.34	1800.16
709.52	1595.37
709.71	1456.11
709.89	1492.97
710.07	1396.71
710.26	1390.57
710.44	1413.10
710.62	1411.05
710.80	1351.66
710.99	1427.43
711.17	1411.05
711.35	1353.71
711.54	1372.14
711.72	1519.59
711.90	1490.92
712.09	1390.57
712.27	1359.85
712.45	1470.44
712.63	1355.76
712.82	1355.76
713.00	1345.52
713.18	1417.19
713.37	1345.52
713.55	1396.71
713.73	1386.47
713.91	1425.39
714.10	1386.47
714.28	1411.05
714.46	1409.00
714.65	1396.71
714.83	1353.71
715.01	1320.94
715.19	1396.71
715.38	1310.70
715.56	1392.62
715.74	1300.46
715.92	1302.51
716.11	1384.43
716.29	1333.23
716.47	1355.76
716.65	1415.15
716.84	1378.28
717.02	1435.63
717.20	1413.10
717.38	1372.14
717.57	1402.86
717.75	1404.91
717.93	1345.52
718.11	1339.37
718.30	1372.14
718.48	1394.67
718.66	1339.37
718.84	1421.29
719.03	1355.76
719.21	1351.66
719.39	1355.76
719.57	1411.05
719.75	1474.54
719.94	1366.00
720.12	1411.05
720.30	1329.13
720.48	1388.52
720.67	1370.09
720.85	1394.67
721.03	1322.99
721.21	1347.56
721.39	1394.67
721.58	1382.38
721.76	1374.19
721.94	1359.85
722.12	1454.06
722.30	1419.24
722.49	1368.04
722.67	1306.60
722.85	1357.80
723.03	1314.80
723.21	1476.59
723.40	1355.76
723.58	1443.82
723.76	1402.86
723.94	1452.01
724.12	1497.07
724.30	1478.63
724.49	1433.58
724.67	1462.25
724.85	1535.98
725.03	1443.82
725.21	1429.48
725.40	1466.35
725.58	1372.14
725.76	1497.07
725.94	1388.52
726.12	1351.66
726.30	1359.85
726.49	1400.81
726.67	1437.67
726.85	1419.24
727.03	1380.33
727.21	1572.84
727.39	1568.74
727.57	2093.02
727.76	3452.88
727.94	4431.80
728.12	4915.12
728.30	5318.57
728.48	5144.50
728.66	4267.97
728.84	3342.28
729.03	3141.58
729.21	2842.58
729.39	2576.34
729.57	2326.49
729.75	1947.62
729.93	1800.16
730.11	1583.08
730.30	1433.58
730.48	1402.86
730.66	1431.53
730.84	1347.56
731.02	1343.47
731.20	1484.78
731.38	1376.24
731.56	1370.09
731.74	1382.38
731.93	1406.95
732.11	1402.86
732.29	1378.28
732.47	1388.52
732.65	1382.38
732.83	1411.05
733.01	1435.63
733.19	1308.65
733.37	1404.91
733.56	1318.89
733.74	1320.94
733.92	1398.76
734.10	1327.08
734.28	1411.05
734.46	1298.41
734.64	1378.28
734.82	1366.00
735.00	1363.95
735.18	1437.67
735.36	1411.05
735.54	1370.09
735.73	1314.80
735.91	1294.32
736.09	1396.71
736.27	1331.18
736.45	1337.32
736.63	1390.57
736.81	1363.95
736.99	1386.47
737.17	1437.67
737.35	1322.99
737.53	1363.95
737.71	1314.80
737.89	1452.01
738.07	1325.04
738.25	1314.80
738.43	1286.12
738.61	1392.62
738.80	1394.67
738.98	1279.98
739.16	1400.81
739.34	1339.37
739.52	1392.62
739.70	1396.71
739.88	1425.39
740.06	1441.77
740.24	1300.46
740.42	1392.62
740.60	1349.61
740.78	1279.98
740.96	1335.28
741.14	1320.94
741.32	1404.91
741.50	1341.42
741.68	1421.29
741.86	1351.66
742.04	1368.04
742.22	1361.90
742.40	1353.71
742.58	1331.18
742.76	1292.27
742.94	1425.39
743.12	1310.70
743.30	1347.56
743.48	1423.34
743.66	1355.76
743.84	1398.76
744.02	1398.76
744.20	1449.96
744.38	1267.69
744.56	1337.32
744.74	1456.11
744.92	1382.38
745.10	1400.81
745.28	1449.96
745.46	1468.39
745.64	1331.18
745.82	1355.76
746.00	1331.18
746.18	1425.39
746.36	1320.94
746.54	1417.19
746.72	1339.37
746.90	1390.57
747.08	1392.62
747.26	1343.47
747.44	1409.00
747.62	1456.11
747.80	1343.47
747.98	1447.91
748.15	1314.80
748.33	1329.13
748.51	1466.35
748.69	1411.05
748.87	1312.75
749.05	1402.86
749.23	1372.14
749.41	1411.05
749.59	1361.90
749.77	1406.95
749.95	1312.75
750.13	1363.95
750.31	1380.33
750.49	1398.76
750.67	1396.71
750.85	1370.09
751.03	1417.19
751.20	1462.25
751.38	1347.56
751.56	1345.52
751.74	1359.85
751.92	1320.94
752.10	1310.70
752.28	1417.19
752.46	1351.66
752.64	1386.47
752.82	1363.95
753.00	1376.24
753.18	1312.75
753.35	1370.09
753.53	1325.04
753.71	1376.24
753.89	1406.95
754.07	1445.87
754.25	1439.72
754.43	1361.90
754.61	1441.77
754.79	1388.52
754.97	1322.99
755.14	1341.42
755.32	1378.28
755.50	1374.19
755.68	1380.33
755.86	1277.93
756.04	1257.45
756.22	1349.61
756.40	1329.13
756.57	1409.00
756.75	1396.71
756.93	1452.01
757.11	1386.47
757.29	1296.36
757.47	1314.80
757.65	1327.08
757.82	1331.18
758.00	1347.56
758.18	1374.19
758.36	1322.99
758.54	1368.04
758.72	1349.61
758.90	1363.95
759.07	1419.24
759.25	1349.61
759.43	1378.28
759.61	1310.70
759.79	1695.72
759.97	1423.34
760.15	1386.47
760.32	1357.80
760.50	1413.10
760.68	1439.72
760.86	1316.84
761.04	1449.96
761.22	1431.53
761.39	1322.99
761.57	1363.95
761.75	1388.52
761.93	1406.95
762.11	1437.67
762.28	1355.76
762.46	1347.56
762.64	1339.37
762.82	1343.47
763.00	1347.56
763.18	1458.15
763.35	1308.65
763.53	1388.52
763.71	1378.28
763.89	1347.56
764.07	1376.24
764.24	1341.42
764.42	1363.95
764.60	1413.10
764.78	1423.34
764.96	1421.29
765.13	1374.19
765.31	1374.19
765.49	1380.33
765.67	1277.93
765.84	1327.08
766.02	1318.89
766.20	1286.12
766.38	1359.85
766.56	1400.81
766.73	1419.24
766.91	1380.33
767.09	1368.04
767.27	1454.06
767.44	1351.66
767.62	1427.43
767.80	1402.86
767.98	1318.89
768.15	1380.33
768.33	1386.47
768.51	1372.14
768.69	1337.32
768.87	1411.05
769.04	1363.95
769.22	1445.87
769.40	1452.01
769.58	1415.15
769.75	1402.86
769.93	1413.10
770.11	1415.15
770.28	1378.28
770.46	1427.43
770.64	1359.85
770.82	1406.95
770.99	1413.10
771.17	1327.08
771.35	1322.99
771.53	1445.87
771.70	1331.18
771.88	1329.13
772.06	1398.76
772.23	1386.47
772.41	1372.14
772.59	1368.04
772.77	1406.95
772.94	1335.28
773.12	1335.28
773.30	1384.43
773.47	1433.58
773.65	1308.65
773.83	1419.24
774.01	1306.60
774.18	1318.89
774.36	1316.84
774.54	1343.47
774.71	1308.65
774.89	1343.47
775.07	1251.31
775.24	1464.30
775.42	1304.56
775.60	1419.24
775.78	1271.79
775.95	1363.95
776.13	1302.51
776.31	1261.55
776.48	1366.00
776.66	1443.82
776.84	1380.33
777.01	1341.42
777.19	1347.56
777.37	1363.95
777.54	1431.53
777.72	1437.67
777.90	1294.32
778.07	1310.70
778.25	1474.54
778.43	1400.81
778.60	1286.12
778.78	1404.91
778.96	1419.24
779.13	1337.32
779.31	1452.01
779.49	1355.76
779.66	1351.66
779.84	1314.80
780.01	1374.19
780.19	1382.38
780.37	1402.86
780.54	1329.13
780.72	1329.13
780.90	1347.56
781.07	1380.33
781.25	1335.28
781.43	1353.71
781.60	1345.52
781.78	1406.95
781.95	1390.57
782.13	1382.38
782.31	1355.76
782.48	1245.16
782.66	1380.33
782.83	1439.72
783.01	1331.18
783.19	1366.00
783.36	1368.04
783.54	1331.18
783.72	1357.80
783.89	1384.43
784.07	1370.09
784.24	1320.94
784.42	1409.00
784.60	1488.87
784.77	1495.02
784.95	1282.03
785.12	1318.89
785.30	1372.14
785.47	1359.85
785.65	1333.23
785.83	1388.52
786.00	1347.56
786.18	1372.14
786.35	1347.56
786.53	1392.62
786.71	1458.15
786.88	1345.52
787.06	1345.52
787.23	1361.90
787.41	1316.84
787.58	1349.61
787.76	1361.90
787.94	1363.95
788.11	1327.08
788.29	1320.94
788.46	1337.32
788.64	1308.65
788.81	1400.81
788.99	1286.12
789.16	1337.32
789.34	1302.51
789.52	1265.64
789.69	1411.05
789.87	1269.74
790.04	1271.79
790.22	1368.04
790.39	1488.87
790.57	1345.52
790.74	1300.46
790.92	1380.33
791.09	1339.37
791.27	1425.39
791.44	1374.19
791.62	1363.95
791.79	1419.24
791.97	1480.68
792.15	1445.87
792.32	1433.58
792.50	1433.58
792.67	1466.35
792.85	1392.62
793.02	1439.72
793.20	1386.47
793.37	1306.60
793.55	1415.15
793.72	1347.56
793.90	1380.33
794.07	1441.77
794.25	1366.00
794.42	1413.10
794.60	1316.84
794.77	1394.67
794.95	1406.95
795.12	1392.62
795.30	1267.69
795.47	1267.69
795.65	1433.58
795.82	1392.62
796.00	1325.04
796.17	1355.76
796.34	1423.34
796.52	1361.90
796.69	1443.82
796.87	1398.76
797.04	1394.67
797.22	1419.24
797.39	1413.10
797.57	1376.24
797.74	1314.80
797.92	1380.33
798.09	1374.19
798.27	1388.52
798.44	1370.09
798.62	1370.09
798.79	1355.76
798.96	1394.67
799.14	1382.38
799.31	1501.16
799.49	1347.56
799.66	1359.85
799.84	1357.80
800.01	1329.13
800.19	1413.10
800.36	1288.17
800.53	1370.09
800.71	1392.62
800.88	1392.62
801.06	1337.32
801.23	1361.90
801.41	1445.87
801.58	1292.27
801.75	1411.05
801.93	1359.85
802.10	1406.95
802.28	1361.90
802.45	1341.42
802.63	1406.95
802.80	1357.80
802.97	1337.32
803.15	1370.09
803.32	1341.42
803.50	1314.80
803.67	1277.93
803.84	1357.80
804.02	1345.52
804.19	1355.76
804.37	1363.95
804.54	1290.22
804.71	1339.37
804.89	1396.71
805.06	1316.84
805.24	1357.80
805.41	1347.56
805.58	1347.56
805.76	1511.40
805.93	1372.14
806.10	1366.00
806.28	1374.19
806.45	1341.42
806.63	1411.05
806.80	1388.52
806.97	1341.42
807.15	1333.23
807.32	1327.08
807.49	1335.28
807.67	1294.32
807.84	1390.57
808.01	1343.47
808.19	1406.95
808.36	1427.43
808.54	1325.04
808.71	1363.95
808.88	1445.87
809.06	1376.24
809.23	1413.10
809.40	1310.70
809.58	1329.13
809.75	1402.86
809.92	1366.00
810.10	1464.30
810.27	1398.76
810.44	1351.66
810.62	1363.95
810.79	1398.76
810.96	1392.62
811.14	1286.12
811.31	1415.15
811.48	1359.85
811.66	1402.86
811.83	1398.76
812.00	1294.32
812.18	1396.71
812.35	1449.96
812.52	1310.70
812.69	1335.28
812.87	1357.80
813.04	1327.08
813.21	1349.61
813.39	1394.67
813.56	1341.42
813.73	1423.34
813.91	1298.41
814.08	1406.95
814.25	1329.13
814.42	1294.32
814.60	1284.08
814.77	1345.52
814.94	1400.81
815.12	1376.24
815.29	1322.99
815.46	1374.19
815.63	1374.19
815.81	1419.24
815.98	1404.91
816.15	1368.04
816.33	1351.66
816.50	1443.82
816.67	1363.95
816.84	1380.33
817.02	1339.37
817.19	1339.37
817.36	1411.05
817.53	1396.71
817.71	1232.88
817.88	1316.84
818.05	1370.09
818.22	1359.85
818.40	1452.01
818.57	1316.84
818.74	1359.85
818.91	1351.66
819.09	1372.14
819.26	1366.00
819.43	1366.00
819.60	1380.33
819.78	1366.00
819.95	1390.57
820.12	1306.60
820.29	1449.96
820.47	1390.57
820.64	1322.99
820.81	1308.65
820.98	1331.18
821.15	1380.33
821.33	1380.33
821.50	1343.47
821.67	1495.02
821.84	1282.03
822.02	1398.76
822.19	1400.81
822.36	1288.17
822.53	1409.00
822.70	1284.08
822.88	1425.39
823.05	1398.76
823.22	1404.91
823.39	1298.41
823.56	1398.76
823.74	1458.15
823.91	1339.37
824.08	1372.14
824.25	1419.24
824.42	1392.62
824.60	1394.67
824.77	1394.67
824.94	1402.86
825.11	1402.86
825.28	1222.64
825.45	1435.63
825.63	1386.47
825.80	1380.33
825.97	1474.54
826.14	1425.39
826.31	1339.37
826.48	1320.94
826.66	1335.28
826.83	1394.67
827.00	1427.43
827.17	1359.85
827.34	1312.75
827.51	1425.39
827.69	1415.15
827.86	1349.61
828.03	1279.98
828.20	1456.11
828.37	1310.70
828.54	1404.91
828.71	1304.56
828.89	1468.39
829.06	1361.90
829.23	1398.76
829.40	1345.52
829.57	1277.93
829.74	1400.81
829.91	1349.61
830.09	1382.38
830.26	1347.56
830.43	1447.91
830.60	1355.76
830.77	1392.62
830.94	1376.24
831.11	1392.62
831.28	1355.76
831.46	1406.95
831.63	1302.51
831.80	1409.00
831.97	1368.04
832.14	1310.70
832.31	1421.29
832.48	1300.46
832.65	1359.85
832.82	1384.43
832.99	1363.95
833.17	1349.61
833.34	1378.28
833.51	1370.09
833.68	1296.36
833.85	1351.66
834.02	1396.71
834.19	1329.13
834.36	1306.60
834.53	1325.04
834.70	1400.81
834.87	1386.47
835.04	1390.57
835.22	1318.89
835.39	1372.14
835.56	1290.22
835.73	1318.89
835.90	1452.01
836.07	1382.38
836.24	1400.81
836.41	1404.91
836.58	1294.32
836.75	1394.67
836.92	1435.63
837.09	1394.67
837.26	1398.76
837.43	1343.47
837.60	1370.09
837.77	1370.09
837.94	1417.19
838.12	1402.86
838.29	1341.42
838.46	1382.38
838.63	1308.65
838.80	1396.71
838.97	1306.60
839.14	1368.04
839.31	1402.86
839.48	1388.52
839.65	1333.23
839.82	1443.82
839.99	1318.89
840.16	1271.79
840.33	1384.43
840.50	1452.01
840.67	1290.22
840.84	1232.88
841.01	1388.52
841.18	1320.94
841.35	1333.23
841.52	1376.24
841.69	1474.54
841.86	1339.37
842.03	1302.51
842.20	1423.34
842.37	1361.90
842.54	1316.84
842.71	1351.66
842.88	1304.56
843.05	1402.86
843.22	1366.00
843.39	1431.53
843.56	1322.99
843.73	1306.60
843.90	1325.04
844.07	1413.10
844.24	1390.57
844.41	1400.81
844.58	1310.70
844.75	1296.36
844.92	1368.04
845.09	1267.69
845.26	1376.24
845.43	1474.54
845.60	1347.56
845.77	1372.14
845.94	1392.62
846.10	1398.76
846.27	1359.85
846.44	1341.42
846.61	1292.27
846.78	1402.86
846.95	1427.43
847.12	1447.91
847.29	1382.38
847.46	1333.23
847.63	1337.32
847.80	1394.67
847.97	1359.85
848.14	1495.02
848.31	1337.32
848.48	1359.85
848.65	1372.14
848.82	1359.85
848.98	1433.58
849.15	1417.19
849.32	1478.63
849.49	1392.62
849.66	1320.94
849.83	1406.95
850.00	1415.15
850.17	1390.57
850.34	1378.28
850.51	1349.61
850.68	1335.28
850.85	1421.29
851.01	1339.37
851.18	1374.19
851.35	1435.63
851.52	1363.95
851.69	1339.37
851.86	1331.18
852.03	1396.71
852.20	1439.72
852.37	1355.76
852.53	1320.94
852.70	1363.95
852.87	1331.18
853.04	1470.44
853.21	1290.22
853.38	1421.29
853.55	1386.47
853.72	1404.91
853.89	1312.75
854.05	1341.42
854.22	1331.18
854.39	1359.85
854.56	1355.76
854.73	1349.61
854.90	1347.56
855.07	1327.08
855.23	1376.24
855.40	1335.28
855.57	1345.52
855.74	1331.18
855.91	1417.19
856.08	1275.88
856.25	1308.65
856.41	1335.28
856.58	1353.71
856.75	1390.57
856.92	1361.90
857.09	1413.10
857.26	1386.47
857.42	1361.90
857.59	1435.63
857.76	1392.62
857.93	1378.28
858.10	1429.48
858.27	1372.14
858.43	1396.71
858.60	1341.42
858.77	1322.99
858.94	1372.14
859.11	1421.29
859.27	1421.29
859.44	1347.56
859.61	1488.87
859.78	1376.24
859.95	1376.24
860.12	1339.37
860.28	1486.83
860.45	1484.78
860.62	1388.52
860.79	1439.72
860.95	1376.24
861.12	1394.67
861.29	1343.47
861.46	1320.94
861.63	1366.00
861.79	1415.15
861.96	1374.19
862.13	1325.04
862.30	1431.53
862.47	1273.84
862.63	1343.47
862.80	1421.29
862.97	1368.04
863.14	1396.71
863.30	1398.76
863.47	1376.24
863.64	1351.66
863.81	1333.23
863.97	1345.52
864.14	1347.56
864.31	1396.71
864.48	1372.14
864.65	1390.57
864.81	1409.00
864.98	1349.61
865.15	1413.10
865.32	1431.53
865.48	1462.25
865.65	1482.73
865.82	1339.37
865.98	1366.00
866.15	1388.52
866.32	1372.14
866.49	1392.62
866.65	1433.58
866.82	1331.18
866.99	1345.52
867.16	1427.43
867.32	1417.19
867.49	1331.18
867.66	1456.11
867.83	1406.95
867.99	1310.70
868.16	1327.08
868.33	1409.00
868.49	1322.99
868.66	1374.19
868.83	1437.67
868.99	1327.08
869.16	1318.89
869.33	1404.91
869.50	1390.57
869.66	1308.65
869.83	1372.14
870.00	1335.28
870.16	1402.86
870.33	1349.61
870.50	1374.19
870.66	1267.69
870.83	1443.82
871.00	1386.47
871.17	1366.00
871.33	1337.32
871.50	1404.91
871.67	1374.19
871.83	1339.37
872.00	1421.29
872.17	1294.32
872.33	1480.68
872.50	1374.19
872.67	1318.89
872.83	1363.95
873.00	1318.89
873.17	1392.62
873.33	1417.19
873.50	1413.10
873.67	1308.65
873.83	1290.22
874.00	1335.28
874.16	1370.09
874.33	1284.08
874.50	1345.52
874.66	1355.76
874.83	1437.67
875.00	1384.43
875.16	1452.01
875.33	1433.58
875.50	1329.13
875.66	1351.66
875.83	1261.55
875.99	1339.37
876.16	1304.56
876.33	1310.70
876.49	1376.24
876.66	1445.87
876.83	1331.18
876.99	1314.80
877.16	1406.95
877.32	1384.43
877.49	1349.61
877.66	1409.00
877.82	1484.78
877.99	1392.62
878.15	1417.19
878.32	1396.71
878.49	1394.67
878.65	1347.56
878.82	1417.19
878.98	1384.43
879.15	1368.04
879.32	1400.81
879.48	1341.42
879.65	1370.09
879.81	1343.47
879.98	1312.75
880.15	1392.62
880.31	1423.34
880.48	1314.80
880.64	1466.35
880.81	1433.58
880.97	1402.86
881.14	1267.69
881.31	1296.36
881.47	1470.44
881.64	1357.80
881.80	1335.28
881.97	1372.14
882.13	1435.63
882.30	1310.70
882.47	1341.42
882.63	1320.94
882.80	1386.47
882.96	1335.28
883.13	1404.91
883.29	1370.09
883.46	1370.09
883.62	1406.95
883.79	1378.28
883.95	1335.28
884.12	1363.95
884.29	1347.56
884.45	1279.98
884.62	1347.56
884.78	1394.67
884.95	1351.66
885.11	1286.12
885.28	1372.14
885.44	1376.24
885.61	1372.14
885.77	1439.72
885.94	1427.43
886.10	1445.87
886.27	1437.67
886.43	1398.76
886.60	1449.96
886.76	1447.91
886.93	1329.13
887.09	1368.04
887.26	1320.94
887.42	1419.24
887.59	1409.00
887.75	1404.91
887.92	1441.77
888.08	1449.96
888.25	1441.77
888.41	1396.71
888.58	1419.24
888.74	1353.71
888.91	1386.47
>>>>>End Processed Spectral Data<<<<<
