SpectraSuite Data File
++++++++++++++++++++++++++++++++++++
Date: Tue May 03 11:24:12 CEST 2016
User: root
Dark Spectrum Present: No
Reference Spectrum Present: No
Number of Sampled Component Spectra: 1
Spectrometers: USB4C02835
Integration Time (usec): 100000 (USB4C02835)
Spectra Averaged: 1 (USB4C02835)
Boxcar Smoothing: 0 (USB4C02835)
Correct for Electrical Dark: No (USB4C02835)
Strobe/Lamp Enabled: No (USB4C02835)
Correct for Detector Non-linearity: No (USB4C02835)
Correct for Stray Light: No (USB4C02835)
Number of Pixels in Processed Spectrum: 3648
>>>>>Begin Processed Spectral Data<<<<<
177.47	1157.10
177.69	1157.10
177.91	1157.10
178.13	1191.92
178.36	1247.21
178.58	1363.95
178.80	1404.91
179.02	1300.46
179.24	1366.00
179.46	1333.23
179.68	1441.77
179.90	1417.19
180.13	1398.76
180.35	1353.71
180.57	1384.43
180.79	1363.95
181.01	1316.84
181.23	1363.95
181.45	1329.13
181.67	1331.18
181.90	1370.09
182.12	1370.09
182.34	1396.71
182.56	1347.56
182.78	1409.00
183.00	1382.38
183.22	1343.47
183.44	1253.36
183.66	1429.48
183.89	1523.69
184.11	1329.13
184.33	1327.08
184.55	1388.52
184.77	1329.13
184.99	1415.15
185.21	1325.04
185.43	1429.48
185.65	1384.43
185.87	1376.24
186.10	1398.76
186.32	1452.01
186.54	1468.39
186.76	1488.87
186.98	1325.04
187.20	1394.67
187.42	1345.52
187.64	1372.14
187.86	1378.28
188.08	1329.13
188.30	1398.76
188.52	1368.04
188.75	1437.67
188.97	1425.39
189.19	1306.60
189.41	1298.41
189.63	1329.13
189.85	1335.28
190.07	1376.24
190.29	1271.79
190.51	1378.28
190.73	1251.31
190.95	1349.61
191.17	1370.09
191.39	1322.99
191.61	1353.71
191.84	1349.61
192.06	1368.04
192.28	1288.17
192.50	1462.25
192.72	1349.61
192.94	1368.04
193.16	1366.00
193.38	1353.71
193.60	1353.71
193.82	1312.75
194.04	1433.58
194.26	1460.20
194.48	1359.85
194.70	1335.28
194.92	1322.99
195.14	1386.47
195.36	1327.08
195.58	1427.43
195.80	1366.00
196.02	1388.52
196.24	1366.00
196.46	1398.76
196.69	1411.05
196.91	1484.78
197.13	1361.90
197.35	1339.37
197.57	1339.37
197.79	1361.90
198.01	1355.76
198.23	1347.56
198.45	1380.33
198.67	1366.00
198.89	1345.52
199.11	1318.89
199.33	1361.90
199.55	1273.84
199.77	1396.71
199.99	1406.95
200.21	1341.42
200.43	1421.29
200.65	1263.60
200.87	1325.04
201.09	1343.47
201.31	1290.22
201.53	1386.47
201.75	1331.18
201.97	1347.56
202.19	1359.85
202.41	1372.14
202.63	1413.10
202.85	1351.66
203.07	1325.04
203.29	1411.05
203.51	1382.38
203.73	1325.04
203.95	1449.96
204.17	1339.37
204.39	1411.05
204.61	1411.05
204.83	1380.33
205.05	1443.82
205.27	1419.24
205.49	1366.00
205.71	1277.93
205.93	1282.03
206.15	1349.61
206.37	1316.84
206.59	1394.67
206.81	1314.80
207.03	1343.47
207.25	1331.18
207.47	1402.86
207.69	1257.45
207.91	1439.72
208.13	1404.91
208.34	1345.52
208.56	1370.09
208.78	1329.13
209.00	1349.61
209.22	1284.08
209.44	1423.34
209.66	1337.32
209.88	1296.36
210.10	1343.47
210.32	1390.57
210.54	1492.97
210.76	1386.47
210.98	1413.10
211.20	1359.85
211.42	1411.05
211.64	1370.09
211.86	1353.71
212.08	1372.14
212.30	1392.62
212.52	1298.41
212.74	1312.75
212.96	1368.04
213.17	1355.76
213.39	1394.67
213.61	1445.87
213.83	1421.29
214.05	1357.80
214.27	1402.86
214.49	1402.86
214.71	1345.52
214.93	1490.92
215.15	1333.23
215.37	1394.67
215.59	1284.08
215.81	1400.81
216.03	1384.43
216.24	1357.80
216.46	1382.38
216.68	1433.58
216.90	1343.47
217.12	1343.47
217.34	1374.19
217.56	1409.00
217.78	1429.48
218.00	1372.14
218.22	1394.67
218.44	1392.62
218.66	1273.84
218.87	1376.24
219.09	1339.37
219.31	1384.43
219.53	1370.09
219.75	1335.28
219.97	1273.84
220.19	1376.24
220.41	1406.95
220.63	1421.29
220.85	1398.76
221.06	1333.23
221.28	1341.42
221.50	1392.62
221.72	1347.56
221.94	1378.28
222.16	1339.37
222.38	1378.28
222.60	1421.29
222.82	1329.13
223.03	1409.00
223.25	1355.76
223.47	1368.04
223.69	1445.87
223.91	1409.00
224.13	1419.24
224.35	1386.47
224.57	1384.43
224.78	1468.39
225.00	1290.22
225.22	1363.95
225.44	1423.34
225.66	1343.47
225.88	1314.80
226.10	1398.76
226.32	1308.65
226.53	1421.29
226.75	1345.52
226.97	1347.56
227.19	1327.08
227.41	1329.13
227.63	1325.04
227.85	1331.18
228.06	1337.32
228.28	1368.04
228.50	1402.86
228.72	1398.76
228.94	1314.80
229.16	1333.23
229.37	1345.52
229.59	1355.76
229.81	1361.90
230.03	1417.19
230.25	1331.18
230.47	1296.36
230.69	1343.47
230.90	1374.19
231.12	1427.43
231.34	1429.48
231.56	1413.10
231.78	1368.04
232.00	1316.84
232.21	1439.72
232.43	1335.28
232.65	1310.70
232.87	1404.91
233.09	1339.37
233.30	1310.70
233.52	1404.91
233.74	1370.09
233.96	1425.39
234.18	1439.72
234.40	1343.47
234.61	1427.43
234.83	1351.66
235.05	1288.17
235.27	1454.06
235.49	1443.82
235.70	1374.19
235.92	1396.71
236.14	1411.05
236.36	1478.63
236.58	1286.12
236.79	1351.66
237.01	1335.28
237.23	1380.33
237.45	1441.77
237.67	1353.71
237.88	1449.96
238.10	1433.58
238.32	1341.42
238.54	1337.32
238.76	1376.24
238.97	1316.84
239.19	1310.70
239.41	1392.62
239.63	1411.05
239.85	1312.75
240.06	1411.05
240.28	1363.95
240.50	1271.79
240.72	1363.95
240.93	1378.28
241.15	1470.44
241.37	1398.76
241.59	1460.20
241.81	1335.28
242.02	1363.95
242.24	1366.00
242.46	1398.76
242.68	1296.36
242.89	1366.00
243.11	1437.67
243.33	1374.19
243.55	1386.47
243.76	1415.15
243.98	1325.04
244.20	1320.94
244.42	1363.95
244.64	1396.71
244.85	1359.85
245.07	1374.19
245.29	1400.81
245.51	1372.14
245.72	1400.81
245.94	1452.01
246.16	1343.47
246.38	1400.81
246.59	1302.51
246.81	1409.00
247.03	1306.60
247.24	1333.23
247.46	1392.62
247.68	1351.66
247.90	1339.37
248.11	1361.90
248.33	1411.05
248.55	1372.14
248.77	1431.53
248.98	1411.05
249.20	1366.00
249.42	1349.61
249.64	1355.76
249.85	1349.61
250.07	1325.04
250.29	1396.71
250.50	1466.35
250.72	1349.61
250.94	1370.09
251.16	1482.73
251.37	1474.54
251.59	1411.05
251.81	1337.32
252.02	1380.33
252.24	1363.95
252.46	1341.42
252.68	1314.80
252.89	1380.33
253.11	1277.93
253.33	1413.10
253.54	1355.76
253.76	1296.36
253.98	1320.94
254.20	1384.43
254.41	1355.76
254.63	1282.03
254.85	1417.19
255.06	1333.23
255.28	1413.10
255.50	1298.41
255.71	1322.99
255.93	1322.99
256.15	1398.76
256.36	1335.28
256.58	1333.23
256.80	1392.62
257.02	1329.13
257.23	1370.09
257.45	1392.62
257.67	1404.91
257.88	1300.46
258.10	1429.48
258.32	1335.28
258.53	1386.47
258.75	1478.63
258.97	1417.19
259.18	1404.91
259.40	1366.00
259.62	1374.19
259.83	1386.47
260.05	1310.70
260.27	1560.55
260.48	1316.84
260.70	1286.12
260.92	1351.66
261.13	1345.52
261.35	1327.08
261.57	1406.95
261.78	1325.04
262.00	1329.13
262.22	1433.58
262.43	1343.47
262.65	1351.66
262.86	1452.01
263.08	1472.49
263.30	1460.20
263.51	1372.14
263.73	1327.08
263.95	1380.33
264.16	1325.04
264.38	1384.43
264.60	1368.04
264.81	1392.62
265.03	1384.43
265.25	1413.10
265.46	1304.56
265.68	1415.15
265.89	1406.95
266.11	1263.60
266.33	1341.42
266.54	1388.52
266.76	1327.08
266.98	1378.28
267.19	1390.57
267.41	1472.49
267.62	1353.71
267.84	1294.32
268.06	1413.10
268.27	1353.71
268.49	1347.56
268.70	1359.85
268.92	1441.77
269.14	1290.22
269.35	1347.56
269.57	1359.85
269.79	1376.24
270.00	1388.52
270.22	1404.91
270.43	1300.46
270.65	1236.97
270.87	1394.67
271.08	1439.72
271.30	1423.34
271.51	1368.04
271.73	1411.05
271.95	1443.82
272.16	1372.14
272.38	1304.56
272.59	1325.04
272.81	1372.14
273.02	1411.05
273.24	1433.58
273.46	1425.39
273.67	1370.09
273.89	1361.90
274.10	1331.18
274.32	1458.15
274.54	1390.57
274.75	1406.95
274.97	1355.76
275.18	1460.20
275.40	1345.52
275.61	1343.47
275.83	1378.28
276.05	1310.70
276.26	1353.71
276.48	1447.91
276.69	1370.09
276.91	1284.08
277.12	1370.09
277.34	1402.86
277.55	1402.86
277.77	1396.71
277.99	1357.80
278.20	1370.09
278.42	1325.04
278.63	1320.94
278.85	1343.47
279.06	1353.71
279.28	1415.15
279.49	1351.66
279.71	1380.33
279.93	1277.93
280.14	1341.42
280.36	1376.24
280.57	1468.39
280.79	1423.34
281.00	1376.24
281.22	1374.19
281.43	1423.34
281.65	1312.75
281.86	1392.62
282.08	1406.95
282.29	1470.44
282.51	1300.46
282.73	1363.95
282.94	1341.42
283.16	1402.86
283.37	1429.48
283.59	1411.05
283.80	1370.09
284.02	1417.19
284.23	1413.10
284.45	1363.95
284.66	1325.04
284.88	1339.37
285.09	1339.37
285.31	1376.24
285.52	1322.99
285.74	1341.42
285.95	1423.34
286.17	1411.05
286.38	1456.11
286.60	1331.18
286.81	1349.61
287.03	1417.19
287.24	1312.75
287.46	1376.24
287.67	1355.76
287.89	1492.97
288.10	1345.52
288.32	1327.08
288.53	1384.43
288.75	1390.57
288.96	1359.85
289.18	1265.64
289.39	1347.56
289.61	1353.71
289.82	1351.66
290.04	1361.90
290.25	1335.28
290.47	1363.95
290.68	1378.28
290.90	1398.76
291.11	1290.22
291.33	1355.76
291.54	1306.60
291.76	1339.37
291.97	1423.34
292.18	1396.71
292.40	1372.14
292.61	1345.52
292.83	1474.54
293.04	1425.39
293.26	1341.42
293.47	1413.10
293.69	1363.95
293.90	1368.04
294.12	1435.63
294.33	1316.84
294.55	1310.70
294.76	1374.19
294.97	1396.71
295.19	1415.15
295.40	1392.62
295.62	1355.76
295.83	1337.32
296.05	1318.89
296.26	1380.33
296.48	1363.95
296.69	1327.08
296.90	1341.42
297.12	1406.95
297.33	1435.63
297.55	1372.14
297.76	1304.56
297.98	1439.72
298.19	1331.18
298.41	1351.66
298.62	1327.08
298.83	1415.15
299.05	1404.91
299.26	1355.76
299.48	1390.57
299.69	1411.05
299.90	1310.70
300.12	1304.56
300.33	1443.82
300.55	1415.15
300.76	1390.57
300.98	1318.89
301.19	1394.67
301.40	1398.76
301.62	1271.79
301.83	1433.58
302.05	1372.14
302.26	1382.38
302.47	1329.13
302.69	1335.28
302.90	1337.32
303.12	1347.56
303.33	1435.63
303.54	1386.47
303.76	1361.90
303.97	1349.61
304.19	1439.72
304.40	1288.17
304.61	1355.76
304.83	1388.52
305.04	1411.05
305.26	1372.14
305.47	1349.61
305.68	1380.33
305.90	1312.75
306.11	1431.53
306.33	1331.18
306.54	1316.84
306.75	1339.37
306.97	1343.47
307.18	1267.69
307.39	1304.56
307.61	1382.38
307.82	1322.99
308.04	1361.90
308.25	1271.79
308.46	1378.28
308.68	1331.18
308.89	1318.89
309.10	1427.43
309.32	1382.38
309.53	1337.32
309.74	1406.95
309.96	1427.43
310.17	1331.18
310.39	1355.76
310.60	1359.85
310.81	1351.66
311.03	1366.00
311.24	1427.43
311.45	1406.95
311.67	1411.05
311.88	1437.67
312.09	1458.15
312.31	1353.71
312.52	1378.28
312.73	1359.85
312.95	1345.52
313.16	1331.18
313.37	1429.48
313.59	1409.00
313.80	1392.62
314.01	1337.32
314.23	1368.04
314.44	1298.41
314.65	1331.18
314.87	1347.56
315.08	1341.42
315.29	1312.75
315.51	1282.03
315.72	1337.32
315.93	1429.48
316.15	1351.66
316.36	1292.27
316.57	1376.24
316.79	1402.86
317.00	1273.84
317.21	1288.17
317.43	1411.05
317.64	1386.47
317.85	1351.66
318.07	1435.63
318.28	1482.73
318.49	1542.12
318.70	1591.27
318.92	1511.40
319.13	1527.78
319.34	1562.60
319.56	1470.44
319.77	1513.45
319.98	1417.19
320.20	1363.95
320.41	1470.44
320.62	1392.62
320.83	1359.85
321.05	1507.30
321.26	1384.43
321.47	1388.52
321.69	1384.43
321.90	1409.00
322.11	1337.32
322.32	1374.19
322.54	1435.63
322.75	1327.08
322.96	1423.34
323.18	1302.51
323.39	1314.80
323.60	1366.00
323.81	1372.14
324.03	1415.15
324.24	1355.76
324.45	1351.66
324.66	1316.84
324.88	1445.87
325.09	1419.24
325.30	1392.62
325.52	1386.47
325.73	1331.18
325.94	1345.52
326.15	1282.03
326.37	1361.90
326.58	1429.48
326.79	1372.14
327.00	1308.65
327.22	1386.47
327.43	1335.28
327.64	1380.33
327.85	1441.77
328.07	1286.12
328.28	1406.95
328.49	1370.09
328.70	1345.52
328.92	1380.33
329.13	1374.19
329.34	1370.09
329.55	1417.19
329.76	1458.15
329.98	1347.56
330.19	1435.63
330.40	1370.09
330.61	1419.24
330.83	1335.28
331.04	1353.71
331.25	1386.47
331.46	1325.04
331.68	1318.89
331.89	1439.72
332.10	1402.86
332.31	1232.88
332.52	1363.95
332.74	1476.59
332.95	1386.47
333.16	1380.33
333.37	1429.48
333.58	1370.09
333.80	1359.85
334.01	1380.33
334.22	1402.86
334.43	1355.76
334.64	1339.37
334.86	1292.27
335.07	1390.57
335.28	1372.14
335.49	1368.04
335.70	1368.04
335.92	1452.01
336.13	1472.49
336.34	1429.48
336.55	1384.43
336.76	1374.19
336.98	1277.93
337.19	1267.69
337.40	1429.48
337.61	1445.87
337.82	1419.24
338.04	1396.71
338.25	1339.37
338.46	1308.65
338.67	1380.33
338.88	1378.28
339.09	1341.42
339.31	1279.98
339.52	1345.52
339.73	1302.51
339.94	1388.52
340.15	1339.37
340.36	1382.38
340.58	1419.24
340.79	1349.61
341.00	1409.00
341.21	1437.67
341.42	1482.73
341.63	1413.10
341.85	1363.95
342.06	1402.86
342.27	1257.45
342.48	1472.49
342.69	1322.99
342.90	1337.32
343.12	1417.19
343.33	1339.37
343.54	1431.53
343.75	1435.63
343.96	1279.98
344.17	1333.23
344.38	1345.52
344.60	1353.71
344.81	1345.52
345.02	1378.28
345.23	1406.95
345.44	1478.63
345.65	1478.63
345.86	1337.32
346.07	1351.66
346.29	1380.33
346.50	1431.53
346.71	1431.53
346.92	1400.81
347.13	1409.00
347.34	1366.00
347.55	1394.67
347.76	1404.91
347.98	1269.74
348.19	1318.89
348.40	1411.05
348.61	1386.47
348.82	1386.47
349.03	1376.24
349.24	1327.08
349.45	1437.67
349.66	1308.65
349.88	1322.99
350.09	1325.04
350.30	1353.71
350.51	1380.33
350.72	1329.13
350.93	1374.19
351.14	1415.15
351.35	1384.43
351.56	1329.13
351.77	1392.62
351.99	1378.28
352.20	1458.15
352.41	1392.62
352.62	1329.13
352.83	1425.39
353.04	1351.66
353.25	1322.99
353.46	1312.75
353.67	1402.86
353.88	1253.36
354.09	1361.90
354.30	1443.82
354.52	1388.52
354.73	1310.70
354.94	1357.80
355.15	1372.14
355.36	1441.77
355.57	1327.08
355.78	1431.53
355.99	1384.43
356.20	1417.19
356.41	1376.24
356.62	1413.10
356.83	1388.52
357.04	1380.33
357.25	1363.95
357.46	1378.28
357.68	1306.60
357.89	1302.51
358.10	1372.14
358.31	1320.94
358.52	1353.71
358.73	1271.79
358.94	1331.18
359.15	1345.52
359.36	1419.24
359.57	1372.14
359.78	1353.71
359.99	1306.60
360.20	1355.76
360.41	1320.94
360.62	1433.58
360.83	1435.63
361.04	1355.76
361.25	1345.52
361.46	1435.63
361.67	1415.15
361.88	1327.08
362.09	1378.28
362.30	1456.11
362.51	1366.00
362.72	1380.33
362.93	1363.95
363.14	1413.10
363.35	1370.09
363.56	1351.66
363.78	1386.47
363.99	1372.14
364.20	1318.89
364.41	1431.53
364.62	1464.30
364.83	1374.19
365.04	1421.29
365.25	1325.04
365.46	1386.47
365.67	1398.76
365.88	1374.19
366.09	1341.42
366.30	1343.47
366.51	1382.38
366.72	1296.36
366.93	1327.08
367.14	1327.08
367.35	1394.67
367.56	1376.24
367.77	1370.09
367.98	1335.28
368.18	1388.52
368.39	1392.62
368.60	1355.76
368.81	1388.52
369.02	1374.19
369.23	1359.85
369.44	1310.70
369.65	1318.89
369.86	1370.09
370.07	1402.86
370.28	1335.28
370.49	1419.24
370.70	1396.71
370.91	1351.66
371.12	1327.08
371.33	1386.47
371.54	1333.23
371.75	1454.06
371.96	1314.80
372.17	1400.81
372.38	1322.99
372.59	1374.19
372.80	1370.09
373.01	1392.62
373.22	1370.09
373.43	1347.56
373.64	1347.56
373.85	1363.95
374.06	1435.63
374.26	1437.67
374.47	1372.14
374.68	1372.14
374.89	1413.10
375.10	1310.70
375.31	1355.76
375.52	1300.46
375.73	1333.23
375.94	1327.08
376.15	1431.53
376.36	1310.70
376.57	1384.43
376.78	1351.66
376.99	1374.19
377.20	1499.11
377.40	1294.32
377.61	1421.29
377.82	1320.94
378.03	1419.24
378.24	1390.57
378.45	1331.18
378.66	1331.18
378.87	1271.79
379.08	1404.91
379.29	1374.19
379.50	1427.43
379.71	1378.28
379.91	1404.91
380.12	1316.84
380.33	1390.57
380.54	1415.15
380.75	1335.28
380.96	1433.58
381.17	1363.95
381.38	1443.82
381.59	1456.11
381.80	1478.63
382.00	1458.15
382.21	1431.53
382.42	1456.11
382.63	1513.45
382.84	1388.52
383.05	1441.77
383.26	1458.15
383.47	1449.96
383.68	1452.01
383.88	1329.13
384.09	1341.42
384.30	1482.73
384.51	1325.04
384.72	1374.19
384.93	1331.18
385.14	1402.86
385.35	1394.67
385.55	1366.00
385.76	1474.54
385.97	1345.52
386.18	1355.76
386.39	1366.00
386.60	1402.86
386.81	1339.37
387.02	1384.43
387.22	1382.38
387.43	1415.15
387.64	1535.98
387.85	2328.54
388.06	5746.60
388.27	9459.57
388.48	11685.71
388.68	13012.79
388.89	13408.05
389.10	10594.14
389.31	9342.83
389.52	8324.99
389.73	7182.23
389.93	6907.80
390.14	6428.57
390.35	6115.23
390.56	5531.56
390.77	4597.69
390.98	3647.43
391.18	2910.16
391.39	2115.55
391.60	1816.55
391.81	1556.46
392.02	1447.91
392.23	1470.44
392.43	1404.91
392.64	1437.67
392.85	1370.09
393.06	1464.30
393.27	1404.91
393.47	1251.31
393.68	1437.67
393.89	1370.09
394.10	1402.86
394.31	1308.65
394.52	1378.28
394.72	1302.51
394.93	1468.39
395.14	1388.52
395.35	1372.14
395.56	1404.91
395.76	1480.68
395.97	1517.54
396.18	1517.54
396.39	1552.36
396.60	1665.00
396.80	1540.07
397.01	1501.16
397.22	1525.74
397.43	1480.68
397.64	1411.05
397.84	1535.98
398.05	1490.92
398.26	1462.25
398.47	1458.15
398.67	1404.91
398.88	1363.95
399.09	1386.47
399.30	1363.95
399.51	1378.28
399.71	1296.36
399.92	1363.95
400.13	1431.53
400.34	1382.38
400.54	1310.70
400.75	1402.86
400.96	1464.30
401.17	1499.11
401.37	1445.87
401.58	1423.34
401.79	1495.02
402.00	1765.35
402.21	1837.03
402.41	1798.12
402.62	1757.16
402.83	1687.53
403.04	1714.15
403.24	1716.20
403.45	1562.60
403.66	1650.66
403.87	1540.07
404.07	1574.89
404.28	1497.07
404.49	1495.02
404.70	1449.96
404.90	1421.29
405.11	1478.63
405.32	1427.43
405.52	1333.23
405.73	1409.00
405.94	1331.18
406.15	1380.33
406.35	1421.29
406.56	1353.71
406.77	1400.81
406.98	1345.52
407.18	1247.21
407.39	1419.24
407.60	1384.43
407.80	1384.43
408.01	1345.52
408.22	1310.70
408.43	1335.28
408.63	1406.95
408.84	1435.63
409.05	1400.81
409.25	1386.47
409.46	1351.66
409.67	1318.89
409.88	1382.38
410.08	1370.09
410.29	1359.85
410.50	1415.15
410.70	1353.71
410.91	1263.60
411.12	1392.62
411.32	1370.09
411.53	1423.34
411.74	1470.44
411.95	1417.19
412.15	1437.67
412.36	1437.67
412.57	1437.67
412.77	1492.97
412.98	1443.82
413.19	1363.95
413.39	1460.20
413.60	1421.29
413.81	1486.83
414.01	1372.14
414.22	1372.14
414.43	1464.30
414.63	1386.47
414.84	1384.43
415.05	1415.15
415.25	1236.97
415.46	1392.62
415.67	1384.43
415.87	1406.95
416.08	1441.77
416.29	1290.22
416.49	1429.48
416.70	1368.04
416.91	1339.37
417.11	1329.13
417.32	1419.24
417.53	1404.91
417.73	1374.19
417.94	1417.19
418.15	1427.43
418.35	1425.39
418.56	1376.24
418.77	1392.62
418.97	1404.91
419.18	1411.05
419.38	1304.56
419.59	1406.95
419.80	1503.21
420.00	1384.43
420.21	1357.80
420.42	1372.14
420.62	1402.86
420.83	1421.29
421.04	1376.24
421.24	1386.47
421.45	1361.90
421.65	1374.19
421.86	1333.23
422.07	1306.60
422.27	1417.19
422.48	1361.90
422.69	1318.89
422.89	1355.76
423.10	1361.90
423.30	1320.94
423.51	1357.80
423.72	1394.67
423.92	1349.61
424.13	1304.56
424.33	1357.80
424.54	1339.37
424.75	1316.84
424.95	1390.57
425.16	1411.05
425.36	1325.04
425.57	1406.95
425.78	1282.03
425.98	1374.19
426.19	1343.47
426.39	1427.43
426.60	1380.33
426.81	1417.19
427.01	1380.33
427.22	1406.95
427.42	1325.04
427.63	1380.33
427.83	1400.81
428.04	1476.59
428.25	1458.15
428.45	1421.29
428.66	1411.05
428.86	1349.61
429.07	1337.32
429.28	1370.09
429.48	1351.66
429.69	1306.60
429.89	1353.71
430.10	1353.71
430.30	1447.91
430.51	1470.44
430.71	1306.60
430.92	1443.82
431.13	1267.69
431.33	1390.57
431.54	1406.95
431.74	1372.14
431.95	1337.32
432.15	1302.51
432.36	1421.29
432.56	1372.14
432.77	1441.77
432.98	1429.48
433.18	1351.66
433.39	1343.47
433.59	1368.04
433.80	1486.83
434.00	1527.78
434.21	1361.90
434.41	1318.89
434.62	1433.58
434.82	1349.61
435.03	1294.32
435.23	1343.47
435.44	1345.52
435.64	1415.15
435.85	1419.24
436.06	1378.28
436.26	1419.24
436.47	1341.42
436.67	1337.32
436.88	1406.95
437.08	1402.86
437.29	1449.96
437.49	1390.57
437.70	1378.28
437.90	1372.14
438.11	1548.26
438.31	1482.73
438.52	1466.35
438.72	1521.64
438.93	1523.69
439.13	1495.02
439.34	1482.73
439.54	1419.24
439.75	1421.29
439.95	1456.11
440.16	1390.57
440.36	1378.28
440.57	1447.91
440.77	1423.34
440.98	1355.76
441.18	1435.63
441.39	1353.71
441.59	1271.79
441.80	1490.92
442.00	1368.04
442.21	1406.95
442.41	1308.65
442.62	1398.76
442.82	1374.19
443.02	1413.10
443.23	1435.63
443.43	1355.76
443.64	1495.02
443.84	1357.80
444.05	1437.67
444.25	1437.67
444.46	1429.48
444.66	1329.13
444.87	1433.58
445.07	1249.26
445.28	1417.19
445.48	1437.67
445.69	1396.71
445.89	1454.06
446.09	1533.93
446.30	2260.96
446.50	3719.11
446.71	4683.70
446.91	5320.62
447.12	5521.32
447.32	5042.10
447.53	4278.21
447.73	3786.69
447.93	3592.14
448.14	3141.58
448.34	3037.14
448.55	2828.24
448.75	2820.05
448.96	2648.02
449.16	2334.68
449.36	2213.85
449.57	1974.24
449.77	1705.96
449.98	1550.31
450.18	1548.26
450.39	1443.82
450.59	1480.68
450.79	1392.62
451.00	1368.04
451.20	1417.19
451.41	1363.95
451.61	1425.39
451.81	1316.84
452.02	1413.10
452.22	1349.61
452.43	1400.81
452.63	1341.42
452.84	1398.76
453.04	1325.04
453.24	1447.91
453.45	1415.15
453.65	1400.81
453.86	1341.42
454.06	1382.38
454.26	1300.46
454.47	1294.32
454.67	1419.24
454.87	1316.84
455.08	1525.74
455.28	1497.07
455.49	1404.91
455.69	1337.32
455.89	1427.43
456.10	1390.57
456.30	1363.95
456.51	1394.67
456.71	1318.89
456.91	1384.43
457.12	1400.81
457.32	1376.24
457.52	1282.03
457.73	1327.08
457.93	1353.71
458.14	1400.81
458.34	1314.80
458.54	1378.28
458.75	1368.04
458.95	1392.62
459.15	1415.15
459.36	1347.56
459.56	1359.85
459.76	1429.48
459.97	1376.24
460.17	1382.38
460.37	1421.29
460.58	1402.86
460.78	1368.04
460.99	1380.33
461.19	1411.05
461.39	1327.08
461.60	1349.61
461.80	1355.76
462.00	1277.93
462.21	1409.00
462.41	1368.04
462.61	1316.84
462.82	1329.13
463.02	1462.25
463.22	1269.74
463.43	1456.11
463.63	1290.22
463.83	1386.47
464.04	1423.34
464.24	1359.85
464.44	1415.15
464.64	1318.89
464.85	1361.90
465.05	1435.63
465.25	1421.29
465.46	1374.19
465.66	1417.19
465.86	1456.11
466.07	1390.57
466.27	1406.95
466.47	1322.99
466.68	1322.99
466.88	1456.11
467.08	1368.04
467.29	1415.15
467.49	1409.00
467.69	1411.05
467.89	1372.14
468.10	1409.00
468.30	1343.47
468.50	1445.87
468.71	1445.87
468.91	1282.03
469.11	1445.87
469.31	1361.90
469.52	1345.52
469.72	1490.92
469.92	1460.20
470.13	1363.95
470.33	1417.19
470.53	1685.48
470.73	2064.35
470.94	2279.39
471.14	2326.49
471.34	2416.60
471.54	2213.85
471.75	1978.34
471.95	1947.62
472.15	1896.42
472.36	1828.84
472.56	1740.77
472.76	1730.53
472.96	1691.62
473.17	1650.66
473.37	1640.42
473.57	1560.55
473.77	1492.97
473.98	1439.72
474.18	1378.28
474.38	1462.25
474.58	1359.85
474.79	1359.85
474.99	1366.00
475.19	1398.76
475.39	1357.80
475.60	1384.43
475.80	1439.72
476.00	1384.43
476.20	1353.71
476.41	1345.52
476.61	1351.66
476.81	1314.80
477.01	1372.14
477.21	1476.59
477.42	1462.25
477.62	1372.14
477.82	1363.95
478.02	1337.32
478.23	1347.56
478.43	1312.75
478.63	1351.66
478.83	1318.89
479.03	1363.95
479.24	1300.46
479.44	1435.63
479.64	1363.95
479.84	1318.89
480.04	1333.23
480.25	1370.09
480.45	1337.32
480.65	1390.57
480.85	1478.63
481.06	1378.28
481.26	1439.72
481.46	1419.24
481.66	1357.80
481.86	1353.71
482.06	1474.54
482.27	1376.24
482.47	1335.28
482.67	1370.09
482.87	1376.24
483.07	1441.77
483.28	1433.58
483.48	1277.93
483.68	1366.00
483.88	1282.03
484.08	1277.93
484.29	1370.09
484.49	1429.48
484.69	1308.65
484.89	1390.57
485.09	1314.80
485.29	1404.91
485.50	1341.42
485.70	1372.14
485.90	1454.06
486.10	1322.99
486.30	1353.71
486.50	1417.19
486.71	1388.52
486.91	1429.48
487.11	1417.19
487.31	1343.47
487.51	1320.94
487.71	1380.33
487.91	1320.94
488.12	1370.09
488.32	1363.95
488.52	1394.67
488.72	1236.97
488.92	1398.76
489.12	1445.87
489.32	1415.15
489.53	1429.48
489.73	1357.80
489.93	1460.20
490.13	1384.43
490.33	1341.42
490.53	1343.47
490.73	1454.06
490.94	1275.88
491.14	1396.71
491.34	1677.29
491.54	2193.37
491.74	2625.50
491.94	2889.68
492.14	3190.74
492.34	3008.47
492.54	2633.69
492.75	2349.02
492.95	2168.80
493.15	2068.45
493.35	2064.35
493.55	1912.80
493.75	1849.32
493.95	1849.32
494.15	1806.31
494.35	1722.34
494.56	1646.57
494.76	1474.54
494.96	1513.45
495.16	1558.50
495.36	1359.85
495.56	1460.20
495.76	1382.38
495.96	1357.80
496.16	1372.14
496.36	1441.77
496.56	1341.42
496.77	1443.82
496.97	1445.87
497.17	1439.72
497.37	1327.08
497.57	1402.86
497.77	1419.24
497.97	1372.14
498.17	1452.01
498.37	1404.91
498.57	1472.49
498.77	1384.43
498.97	1443.82
499.17	1478.63
499.38	1392.62
499.58	1329.13
499.78	1431.53
499.98	1564.65
500.18	1409.00
500.38	1411.05
500.58	1757.16
500.78	2983.89
500.98	5416.88
501.18	6993.81
501.38	8009.61
501.58	8589.18
501.78	7292.82
501.98	5754.79
502.18	5314.48
502.38	4554.68
502.58	4157.38
502.78	3794.89
502.98	3643.34
503.18	3479.50
503.38	3309.52
503.59	2928.60
503.79	2875.35
503.99	2619.35
504.19	2324.44
504.39	2164.70
504.59	2064.35
504.79	1970.15
504.99	1904.61
505.19	1597.42
505.39	1585.13
505.59	1617.90
505.79	1593.32
505.99	1513.45
506.19	1480.68
506.39	1558.50
506.59	1447.91
506.79	1423.34
506.99	1454.06
507.19	1398.76
507.39	1437.67
507.59	1353.71
507.79	1339.37
507.99	1363.95
508.19	1378.28
508.39	1333.23
508.59	1392.62
508.79	1445.87
508.99	1437.67
509.19	1298.41
509.39	1335.28
509.59	1390.57
509.79	1361.90
509.99	1331.18
510.19	1404.91
510.39	1294.32
510.59	1417.19
510.79	1363.95
510.99	1386.47
511.19	1413.10
511.39	1470.44
511.59	1374.19
511.79	1466.35
511.99	1327.08
512.19	1429.48
512.38	1427.43
512.58	1372.14
512.78	1388.52
512.98	1388.52
513.18	1439.72
513.38	1366.00
513.58	1382.38
513.78	1320.94
513.98	1409.00
514.18	1431.53
514.38	1378.28
514.58	1409.00
514.78	1370.09
514.98	1366.00
515.18	1372.14
515.38	1361.90
515.58	1400.81
515.78	1333.23
515.98	1339.37
516.18	1402.86
516.38	1392.62
516.57	1421.29
516.77	1361.90
516.97	1376.24
517.17	1380.33
517.37	1458.15
517.57	1388.52
517.77	1368.04
517.97	1376.24
518.17	1368.04
518.37	1333.23
518.57	1325.04
518.77	1331.18
518.97	1368.04
519.16	1402.86
519.36	1335.28
519.56	1378.28
519.76	1392.62
519.96	1404.91
520.16	1361.90
520.36	1363.95
520.56	1435.63
520.76	1368.04
520.96	1378.28
521.16	1386.47
521.35	1454.06
521.55	1421.29
521.75	1357.80
521.95	1363.95
522.15	1361.90
522.35	1325.04
522.55	1404.91
522.75	1402.86
522.95	1402.86
523.14	1359.85
523.34	1241.07
523.54	1454.06
523.74	1404.91
523.94	1384.43
524.14	1368.04
524.34	1404.91
524.54	1460.20
524.73	1306.60
524.93	1390.57
525.13	1320.94
525.33	1329.13
525.53	1427.43
525.73	1394.67
525.93	1372.14
526.13	1378.28
526.32	1353.71
526.52	1433.58
526.72	1400.81
526.92	1359.85
527.12	1419.24
527.32	1234.93
527.52	1322.99
527.71	1339.37
527.91	1419.24
528.11	1343.47
528.31	1306.60
528.51	1402.86
528.71	1380.33
528.90	1423.34
529.10	1378.28
529.30	1380.33
529.50	1265.64
529.70	1374.19
529.90	1386.47
530.09	1343.47
530.29	1421.29
530.49	1382.38
530.69	1474.54
530.89	1353.71
531.09	1351.66
531.28	1333.23
531.48	1492.97
531.68	1400.81
531.88	1417.19
532.08	1439.72
532.28	1376.24
532.47	1423.34
532.67	1433.58
532.87	1404.91
533.07	1312.75
533.27	1425.39
533.46	1402.86
533.66	1449.96
533.86	1480.68
534.06	1363.95
534.26	1452.01
534.45	1449.96
534.65	1445.87
534.85	1392.62
535.05	1353.71
535.25	1404.91
535.44	1351.66
535.64	1484.78
535.84	1435.63
536.04	1347.56
536.24	1290.22
536.43	1417.19
536.63	1404.91
536.83	1339.37
537.03	1353.71
537.22	1378.28
537.42	1339.37
537.62	1327.08
537.82	1312.75
538.02	1456.11
538.21	1427.43
538.41	1513.45
538.61	1374.19
538.81	1378.28
539.00	1382.38
539.20	1316.84
539.40	1351.66
539.60	1388.52
539.79	1433.58
539.99	1361.90
540.19	1341.42
540.39	1353.71
540.58	1355.76
540.78	1327.08
540.98	1458.15
541.18	1435.63
541.37	1388.52
541.57	1335.28
541.77	1443.82
541.97	1343.47
542.16	1302.51
542.36	1374.19
542.56	1417.19
542.76	1462.25
542.95	1417.19
543.15	1388.52
543.35	1460.20
543.54	1314.80
543.74	1439.72
543.94	1435.63
544.14	1298.41
544.33	1402.86
544.53	1359.85
544.73	1376.24
544.93	1404.91
545.12	1386.47
545.32	1384.43
545.52	1335.28
545.71	1269.74
545.91	1327.08
546.11	1333.23
546.30	1298.41
546.50	1380.33
546.70	1390.57
546.90	1349.61
547.09	1284.08
547.29	1366.00
547.49	1361.90
547.68	1370.09
547.88	1284.08
548.08	1374.19
548.27	1617.90
548.47	1306.60
548.67	1370.09
548.87	1374.19
549.06	1411.05
549.26	1415.15
549.46	1353.71
549.65	1339.37
549.85	1314.80
550.05	1409.00
550.24	1335.28
550.44	1302.51
550.64	1355.76
550.83	1425.39
551.03	1394.67
551.23	1460.20
551.42	1388.52
551.62	1437.67
551.82	1327.08
552.01	1370.09
552.21	1439.72
552.41	1327.08
552.60	1435.63
552.80	1388.52
553.00	1378.28
553.19	1425.39
553.39	1343.47
553.59	1298.41
553.78	1413.10
553.98	1409.00
554.17	1341.42
554.37	1423.34
554.57	1396.71
554.76	1322.99
554.96	1331.18
555.16	1429.48
555.35	1454.06
555.55	1384.43
555.75	1423.34
555.94	1333.23
556.14	1257.45
556.33	1368.04
556.53	1388.52
556.73	1363.95
556.92	1368.04
557.12	1392.62
557.32	1488.87
557.51	1404.91
557.71	1380.33
557.90	1431.53
558.10	1355.76
558.30	1343.47
558.49	1363.95
558.69	1402.86
558.88	1478.63
559.08	1454.06
559.28	1349.61
559.47	1327.08
559.67	1386.47
559.86	1482.73
560.06	1357.80
560.26	1370.09
560.45	1441.77
560.65	1284.08
560.84	1443.82
561.04	1327.08
561.24	1378.28
561.43	1318.89
561.63	1462.25
561.82	1337.32
562.02	1351.66
562.22	1404.91
562.41	1384.43
562.61	1374.19
562.80	1343.47
563.00	1427.43
563.19	1333.23
563.39	1402.86
563.59	1458.15
563.78	1337.32
563.98	1368.04
564.17	1421.29
564.37	1322.99
564.56	1386.47
564.76	1351.66
564.96	1409.00
565.15	1394.67
565.35	1433.58
565.54	1378.28
565.74	1474.54
565.93	1341.42
566.13	1370.09
566.32	1355.76
566.52	1380.33
566.71	1431.53
566.91	1435.63
567.11	1314.80
567.30	1366.00
567.50	1404.91
567.69	1322.99
567.89	1349.61
568.08	1361.90
568.28	1445.87
568.47	1351.66
568.67	1413.10
568.86	1433.58
569.06	1458.15
569.25	1318.89
569.45	1386.47
569.64	1380.33
569.84	1394.67
570.04	1458.15
570.23	1355.76
570.43	1347.56
570.62	1517.54
570.82	1386.47
571.01	1331.18
571.21	1458.15
571.40	1333.23
571.60	1427.43
571.79	1374.19
571.99	1439.72
572.18	1372.14
572.38	1478.63
572.57	1396.71
572.77	1411.05
572.96	1458.15
573.16	1423.34
573.35	1425.39
573.55	1458.15
573.74	1411.05
573.94	1398.76
574.13	1458.15
574.33	1376.24
574.52	1427.43
574.71	1415.15
574.91	1394.67
575.10	1351.66
575.30	1388.52
575.49	1304.56
575.69	1417.19
575.88	1484.78
576.08	1409.00
576.27	1505.26
576.47	1456.11
576.66	1495.02
576.86	1509.35
577.05	1488.87
577.25	1449.96
577.44	1480.68
577.64	1431.53
577.83	1429.48
578.02	1433.58
578.22	1492.97
578.41	1476.59
578.61	1363.95
578.80	1353.71
579.00	1452.01
579.19	1439.72
579.39	1478.63
579.58	1458.15
579.77	1456.11
579.97	1495.02
580.16	1458.15
580.36	1501.16
580.55	1486.83
580.75	1445.87
580.94	1400.81
581.13	1517.54
581.33	1523.69
581.52	1472.49
581.72	1523.69
581.91	1533.93
582.11	1478.63
582.30	1419.24
582.49	1388.52
582.69	1521.64
582.88	1484.78
583.08	1519.59
583.27	1525.74
583.47	1429.48
583.66	1316.84
583.85	1413.10
584.05	1462.25
584.24	1392.62
584.44	1427.43
584.63	1523.69
584.82	1560.55
585.02	1568.74
585.21	1566.70
585.41	1548.26
585.60	1624.04
585.79	1650.66
585.99	1617.90
586.18	1611.75
586.37	1837.03
586.57	2721.75
586.76	7901.06
586.96	23877.27
587.15	41223.56
587.34	51959.02
587.54	59612.27
587.73	58893.44
587.93	44944.72
588.12	32884.23
588.31	26603.11
588.51	22419.11
588.70	19582.68
588.89	18253.55
589.09	17260.28
589.28	15769.36
589.47	14397.22
589.67	12603.20
589.86	10700.64
590.06	8515.45
590.25	6713.24
590.44	5011.38
590.64	3712.97
590.83	2852.82
591.02	2322.40
591.22	1959.91
591.41	1789.92
591.60	1507.30
591.80	1613.80
591.99	1497.07
592.18	1429.48
592.38	1447.91
592.57	1396.71
592.76	1447.91
592.96	1462.25
593.15	1433.58
593.34	1449.96
593.54	1361.90
593.73	1423.34
593.92	1464.30
594.12	1492.97
594.31	1533.93
594.50	1538.02
594.70	1507.30
594.89	1474.54
595.08	1454.06
595.28	1390.57
595.47	1560.55
595.66	1433.58
595.86	1376.24
596.05	1400.81
596.24	1384.43
596.43	1519.59
596.63	1460.20
596.82	1419.24
597.01	1472.49
597.21	1437.67
597.40	1386.47
597.59	1460.20
597.79	1433.58
597.98	1419.24
598.17	1421.29
598.36	1411.05
598.56	1499.11
598.75	1462.25
598.94	1417.19
599.14	1353.71
599.33	1345.52
599.52	1423.34
599.71	1419.24
599.91	1507.30
600.10	1413.10
600.29	1384.43
600.48	1435.63
600.68	1452.01
600.87	1394.67
601.06	1357.80
601.26	1386.47
601.45	1460.20
601.64	1443.82
601.83	1421.29
602.03	1349.61
602.22	1304.56
602.41	1417.19
602.60	1460.20
602.80	1501.16
602.99	1388.52
603.18	1382.38
603.37	1372.14
603.57	1284.08
603.76	1390.57
603.95	1482.73
604.14	1357.80
604.34	1380.33
604.53	1390.57
604.72	1419.24
604.91	1415.15
605.10	1409.00
605.30	1345.52
605.49	1474.54
605.68	1386.47
605.87	1386.47
606.07	1361.90
606.26	1296.36
606.45	1339.37
606.64	1445.87
606.84	1368.04
607.03	1396.71
607.22	1433.58
607.41	1452.01
607.60	1376.24
607.80	1470.44
607.99	1353.71
608.18	1400.81
608.37	1427.43
608.56	1374.19
608.76	1445.87
608.95	1437.67
609.14	1486.83
609.33	1439.72
609.52	1550.31
609.72	1515.50
609.91	1513.45
610.10	1417.19
610.29	1458.15
610.48	1357.80
610.68	1417.19
610.87	1478.63
611.06	1443.82
611.25	1347.56
611.44	1476.59
611.63	1402.86
611.83	1452.01
612.02	1363.95
612.21	1515.50
612.40	1413.10
612.59	1359.85
612.79	1363.95
612.98	1413.10
613.17	1445.87
613.36	1343.47
613.55	1478.63
613.74	1480.68
613.93	1603.56
614.13	1595.37
614.32	1585.13
614.51	1591.27
614.70	1566.70
614.89	1423.34
615.08	1501.16
615.28	1724.39
615.47	1400.81
615.66	1466.35
615.85	1556.46
616.04	1501.16
616.23	1466.35
616.42	1400.81
616.62	1511.40
616.81	1503.21
617.00	1390.57
617.19	1468.39
617.38	1312.75
617.57	1384.43
617.76	1384.43
617.95	1376.24
618.15	1476.59
618.34	1429.48
618.53	1355.76
618.72	1423.34
618.91	1472.49
619.10	1458.15
619.29	1429.48
619.48	1400.81
619.68	1310.70
619.87	1419.24
620.06	1253.36
620.25	1359.85
620.44	1378.28
620.63	1329.13
620.82	1361.90
621.01	1409.00
621.20	1302.51
621.39	1402.86
621.59	1431.53
621.78	1495.02
621.97	1470.44
622.16	1413.10
622.35	1411.05
622.54	1437.67
622.73	1421.29
622.92	1376.24
623.11	1439.72
623.30	1353.71
623.49	1452.01
623.68	1325.04
623.88	1429.48
624.07	1363.95
624.26	1374.19
624.45	1409.00
624.64	1402.86
624.83	1363.95
625.02	1368.04
625.21	1376.24
625.40	1331.18
625.59	1435.63
625.78	1415.15
625.97	1456.11
626.16	1437.67
626.35	1509.35
626.54	1535.98
626.74	1507.30
626.93	1476.59
627.12	1437.67
627.31	1454.06
627.50	1415.15
627.69	1435.63
627.88	1492.97
628.07	1435.63
628.26	1370.09
628.45	1302.51
628.64	1411.05
628.83	1421.29
629.02	1288.17
629.21	1454.06
629.40	1366.00
629.59	1368.04
629.78	1419.24
629.97	1349.61
630.16	1472.49
630.35	1368.04
630.54	1400.81
630.73	1411.05
630.92	1425.39
631.11	1374.19
631.30	1366.00
631.49	1392.62
631.68	1392.62
631.87	1470.44
632.06	1282.03
632.25	1558.50
632.44	1327.08
632.63	1425.39
632.82	1394.67
633.01	1462.25
633.20	1531.88
633.39	1505.26
633.58	1458.15
633.77	1441.77
633.96	1507.30
634.15	1441.77
634.34	1396.71
634.53	1445.87
634.72	1353.71
634.91	1339.37
635.10	1456.11
635.29	1505.26
635.48	1308.65
635.67	1423.34
635.86	1265.64
636.05	1366.00
636.24	1429.48
636.43	1355.76
636.62	1351.66
636.81	1304.56
637.00	1355.76
637.19	1409.00
637.38	1425.39
637.57	1294.32
637.76	1372.14
637.95	1492.97
638.14	1509.35
638.33	1443.82
638.52	1511.40
638.71	1466.35
638.89	1343.47
639.08	1435.63
639.27	1441.77
639.46	1443.82
639.65	1679.33
639.84	1925.09
640.03	2039.78
640.22	1933.28
640.41	2140.13
640.60	1783.78
640.79	1730.53
640.98	1689.57
641.17	1552.36
641.36	1560.55
641.55	1626.09
641.74	1540.07
641.92	1513.45
642.11	1460.20
642.30	1519.59
642.49	1419.24
642.68	1427.43
642.87	1476.59
643.06	1429.48
643.25	1394.67
643.44	1357.80
643.63	1394.67
643.82	1404.91
644.00	1361.90
644.19	1347.56
644.38	1441.77
644.57	1374.19
644.76	1425.39
644.95	1335.28
645.14	1417.19
645.33	1347.56
645.52	1458.15
645.71	1357.80
645.89	1359.85
646.08	1370.09
646.27	1357.80
646.46	1435.63
646.65	1335.28
646.84	1441.77
647.03	1359.85
647.22	1341.42
647.40	1380.33
647.59	1341.42
647.78	1263.60
647.97	1361.90
648.16	1400.81
648.35	1409.00
648.54	1427.43
648.73	1415.15
648.91	1433.58
649.10	1372.14
649.29	1329.13
649.48	1347.56
649.67	1304.56
649.86	1392.62
650.05	1320.94
650.23	1517.54
650.42	1548.26
650.61	1601.51
650.80	1597.42
650.99	1621.99
651.18	1515.50
651.36	1527.78
651.55	1411.05
651.74	1533.93
651.93	1394.67
652.12	1452.01
652.31	1413.10
652.49	1345.52
652.68	1439.72
652.87	1433.58
653.06	1411.05
653.25	1441.77
653.44	1421.29
653.62	1462.25
653.81	1398.76
654.00	1361.90
654.19	1419.24
654.38	1525.74
654.56	1398.76
654.75	1396.71
654.94	1384.43
655.13	1394.67
655.32	1347.56
655.51	1392.62
655.69	1370.09
655.88	1488.87
656.07	1349.61
656.26	1316.84
656.45	1288.17
656.63	1339.37
656.82	1400.81
657.01	1337.32
657.20	1353.71
657.38	1404.91
657.57	1288.17
657.76	1382.38
657.95	1406.95
658.14	1366.00
658.32	1282.03
658.51	1357.80
658.70	1302.51
658.89	1380.33
659.08	1335.28
659.26	1439.72
659.45	1411.05
659.64	1437.67
659.83	1400.81
660.01	1595.37
660.20	1458.15
660.39	1517.54
660.58	1392.62
660.76	1429.48
660.95	1333.23
661.14	1411.05
661.33	1329.13
661.51	1329.13
661.70	1355.76
661.89	1404.91
662.08	1370.09
662.26	1308.65
662.45	1366.00
662.64	1470.44
662.83	1380.33
663.01	1257.45
663.20	1308.65
663.39	1382.38
663.58	1378.28
663.76	1404.91
663.95	1380.33
664.14	1433.58
664.32	1439.72
664.51	1329.13
664.70	1333.23
664.89	1363.95
665.07	1359.85
665.26	1417.19
665.45	1292.27
665.64	1396.71
665.82	1404.91
666.01	1460.20
666.20	1355.76
666.38	1449.96
666.57	1437.67
666.76	1568.74
666.95	2078.69
667.13	4392.89
667.32	11456.34
667.51	17964.78
667.69	21761.72
667.88	24594.06
668.07	24385.16
668.25	19076.83
668.44	13647.66
668.63	11206.48
668.81	9295.73
669.00	7995.27
669.19	7442.32
669.38	6952.85
669.56	6111.14
669.75	5609.39
669.94	4915.12
670.12	4200.38
670.31	3612.62
670.50	2836.44
670.68	2516.95
670.87	2156.51
671.06	1832.93
671.24	1697.77
671.43	1640.42
671.62	1546.22
671.80	1466.35
671.99	1550.31
672.18	1454.06
672.36	1429.48
672.55	1456.11
672.74	1447.91
672.92	1431.53
673.11	1378.28
673.29	1382.38
673.48	1462.25
673.67	1351.66
673.85	1441.77
674.04	1300.46
674.23	1431.53
674.41	1439.72
674.60	1404.91
674.79	1325.04
674.97	1351.66
675.16	1400.81
675.34	1335.28
675.53	1359.85
675.72	1443.82
675.90	1460.20
676.09	1318.89
676.28	1419.24
676.46	1306.60
676.65	1374.19
676.83	1409.00
677.02	1449.96
677.21	1376.24
677.39	1435.63
677.58	1335.28
677.77	1368.04
677.95	1400.81
678.14	1382.38
678.32	1335.28
678.51	1343.47
678.70	1447.91
678.88	1341.42
679.07	1400.81
679.25	1378.28
679.44	1417.19
679.63	1327.08
679.81	1388.52
680.00	1392.62
680.18	1419.24
680.37	1462.25
680.55	1382.38
680.74	1333.23
680.93	1349.61
681.11	1343.47
681.30	1406.95
681.48	1374.19
681.67	1339.37
681.85	1421.29
682.04	1273.84
682.23	1488.87
682.41	1411.05
682.60	1374.19
682.78	1394.67
682.97	1388.52
683.15	1411.05
683.34	1378.28
683.53	1427.43
683.71	1359.85
683.90	1417.19
684.08	1421.29
684.27	1298.41
684.45	1474.54
684.64	1398.76
684.82	1366.00
685.01	1447.91
685.19	1363.95
685.38	1376.24
685.57	1404.91
685.75	1343.47
685.94	1343.47
686.12	1290.22
686.31	1308.65
686.49	1372.14
686.68	1331.18
686.86	1386.47
687.05	1341.42
687.23	1427.43
687.42	1353.71
687.60	1316.84
687.79	1425.39
687.97	1376.24
688.16	1357.80
688.34	1419.24
688.53	1327.08
688.71	1382.38
688.90	1406.95
689.08	1427.43
689.27	1318.89
689.45	1368.04
689.64	1411.05
689.82	1343.47
690.01	1402.86
690.19	1390.57
690.38	1411.05
690.56	1490.92
690.75	1359.85
690.93	1341.42
691.12	1302.51
691.30	1376.24
691.49	1421.29
691.67	1378.28
691.86	1435.63
692.04	1249.26
692.23	1374.19
692.41	1394.67
692.60	1505.26
692.78	1511.40
692.97	1404.91
693.15	1452.01
693.34	1564.65
693.52	1474.54
693.71	1322.99
693.89	1423.34
694.08	1351.66
694.26	1380.33
694.44	1476.59
694.63	1423.34
694.81	1325.04
695.00	1409.00
695.18	1388.52
695.37	1421.29
695.55	1335.28
695.74	1478.63
695.92	1363.95
696.10	1413.10
696.29	1378.28
696.47	1351.66
696.66	1296.36
696.84	1339.37
697.03	1370.09
697.21	1445.87
697.40	1718.25
697.58	1359.85
697.76	1357.80
697.95	1294.32
698.13	1314.80
698.32	1341.42
698.50	1392.62
698.68	1470.44
698.87	1390.57
699.05	1394.67
699.24	1339.37
699.42	1337.32
699.61	1351.66
699.79	1400.81
699.97	1374.19
700.16	1402.86
700.34	1343.47
700.53	1363.95
700.71	1413.10
700.89	1445.87
701.08	1363.95
701.26	1462.25
701.45	1691.62
701.63	1331.18
701.81	1378.28
702.00	1384.43
702.18	1441.77
702.37	1419.24
702.55	1441.77
702.73	1513.45
702.92	1482.73
703.10	1634.28
703.28	1654.76
703.47	1634.28
703.65	1679.33
703.84	1630.18
704.02	1462.25
704.20	1517.54
704.39	1443.82
704.57	1439.72
704.75	1474.54
704.94	1497.07
705.12	1468.39
705.30	1519.59
705.49	1531.88
705.67	1875.94
705.86	3526.60
706.04	8947.58
706.22	16037.64
706.41	19549.91
706.59	22474.41
706.77	23342.75
706.96	19990.22
707.14	13838.12
707.32	11386.71
707.51	9391.98
707.69	8142.72
707.87	7391.12
708.06	6672.28
708.24	6047.65
708.42	5027.76
708.61	3950.53
708.79	3035.09
708.97	2453.47
709.16	2080.74
709.34	1712.10
709.52	1597.42
709.71	1558.50
709.89	1501.16
710.07	1374.19
710.26	1468.39
710.44	1482.73
710.62	1458.15
710.80	1331.18
710.99	1437.67
711.17	1320.94
711.35	1343.47
711.54	1411.05
711.72	1429.48
711.90	1421.29
712.09	1437.67
712.27	1347.56
712.45	1351.66
712.63	1396.71
712.82	1394.67
713.00	1363.95
713.18	1458.15
713.37	1499.11
713.55	1417.19
713.73	1394.67
713.91	1386.47
714.10	1415.15
714.28	1425.39
714.46	1363.95
714.65	1396.71
714.83	1325.04
715.01	1421.29
715.19	1435.63
715.38	1388.52
715.56	1468.39
715.74	1341.42
715.92	1320.94
716.11	1351.66
716.29	1345.52
716.47	1304.56
716.65	1439.72
716.84	1327.08
717.02	1406.95
717.20	1310.70
717.38	1376.24
717.57	1345.52
717.75	1359.85
717.93	1333.23
718.11	1390.57
718.30	1384.43
718.48	1413.10
718.66	1413.10
718.84	1400.81
719.03	1251.31
719.21	1304.56
719.39	1380.33
719.57	1357.80
719.75	1415.15
719.94	1351.66
720.12	1394.67
720.30	1337.32
720.48	1394.67
720.67	1384.43
720.85	1372.14
721.03	1404.91
721.21	1288.17
721.39	1423.34
721.58	1406.95
721.76	1437.67
721.94	1341.42
722.12	1357.80
722.30	1484.78
722.49	1349.61
722.67	1404.91
722.85	1361.90
723.03	1316.84
723.21	1347.56
723.40	1363.95
723.58	1400.81
723.76	1419.24
723.94	1363.95
724.12	1433.58
724.30	1517.54
724.49	1523.69
724.67	1458.15
724.85	1437.67
725.03	1402.86
725.21	1419.24
725.40	1423.34
725.58	1312.75
725.76	1449.96
725.94	1347.56
726.12	1347.56
726.30	1404.91
726.49	1353.71
726.67	1400.81
726.85	1382.38
727.03	1449.96
727.21	1525.74
727.39	1443.82
727.57	2090.98
727.76	3373.00
727.94	4460.48
728.12	4872.12
728.30	5279.66
728.48	5068.72
728.66	4261.82
728.84	3364.81
729.03	3139.54
729.21	2899.92
729.39	2555.86
729.57	2293.72
729.75	2060.26
729.93	1816.55
730.11	1595.37
730.30	1490.92
730.48	1443.82
730.66	1474.54
730.84	1439.72
731.02	1341.42
731.20	1376.24
731.38	1388.52
731.56	1322.99
731.74	1329.13
731.93	1361.90
732.11	1382.38
732.29	1353.71
732.47	1361.90
732.65	1390.57
732.83	1435.63
733.01	1384.43
733.19	1288.17
733.37	1404.91
733.56	1329.13
733.74	1341.42
733.92	1396.71
734.10	1370.09
734.28	1413.10
734.46	1310.70
734.64	1341.42
734.82	1351.66
735.00	1355.76
735.18	1394.67
735.36	1341.42
735.54	1380.33
735.73	1351.66
735.91	1476.59
736.09	1361.90
736.27	1359.85
736.45	1339.37
736.63	1380.33
736.81	1363.95
736.99	1445.87
737.17	1411.05
737.35	1406.95
737.53	1394.67
737.71	1421.29
737.89	1353.71
738.07	1394.67
738.25	1347.56
738.43	1322.99
738.61	1300.46
738.80	1316.84
738.98	1337.32
739.16	1314.80
739.34	1314.80
739.52	1374.19
739.70	1411.05
739.88	1429.48
740.06	1343.47
740.24	1308.65
740.42	1466.35
740.60	1327.08
740.78	1343.47
740.96	1339.37
741.14	1282.03
741.32	1353.71
741.50	1345.52
741.68	1452.01
741.86	1480.68
742.04	1378.28
742.22	1363.95
742.40	1304.56
742.58	1392.62
742.76	1290.22
742.94	1374.19
743.12	1333.23
743.30	1419.24
743.48	1388.52
743.66	1368.04
743.84	1376.24
744.02	1325.04
744.20	1460.20
744.38	1427.43
744.56	1404.91
744.74	1411.05
744.92	1417.19
745.10	1454.06
745.28	1372.14
745.46	1363.95
745.64	1388.52
745.82	1452.01
746.00	1378.28
746.18	1331.18
746.36	1314.80
746.54	1402.86
746.72	1343.47
746.90	1413.10
747.08	1351.66
747.26	1376.24
747.44	1349.61
747.62	1402.86
747.80	1392.62
747.98	1398.76
748.15	1316.84
748.33	1394.67
748.51	1347.56
748.69	1390.57
748.87	1357.80
749.05	1308.65
749.23	1427.43
749.41	1433.58
749.59	1361.90
749.77	1411.05
749.95	1409.00
750.13	1357.80
750.31	1431.53
750.49	1370.09
750.67	1368.04
750.85	1411.05
751.03	1384.43
751.20	1380.33
751.38	1339.37
751.56	1402.86
751.74	1345.52
751.92	1380.33
752.10	1409.00
752.28	1417.19
752.46	1302.51
752.64	1435.63
752.82	1333.23
753.00	1462.25
753.18	1325.04
753.35	1335.28
753.53	1318.89
753.71	1437.67
753.89	1425.39
754.07	1376.24
754.25	1314.80
754.43	1378.28
754.61	1351.66
754.79	1421.29
754.97	1409.00
755.14	1419.24
755.32	1355.76
755.50	1398.76
755.68	1351.66
755.86	1392.62
756.04	1374.19
756.22	1355.76
756.40	1390.57
756.57	1454.06
756.75	1353.71
756.93	1409.00
757.11	1396.71
757.29	1325.04
757.47	1357.80
757.65	1351.66
757.82	1314.80
758.00	1322.99
758.18	1253.36
758.36	1349.61
758.54	1400.81
758.72	1294.32
758.90	1378.28
759.07	1392.62
759.25	1322.99
759.43	1359.85
759.61	1310.70
759.79	1710.05
759.97	1402.86
760.15	1433.58
760.32	1361.90
760.50	1329.13
760.68	1468.39
760.86	1304.56
761.04	1505.26
761.22	1363.95
761.39	1382.38
761.57	1449.96
761.75	1300.46
761.93	1363.95
762.11	1304.56
762.28	1394.67
762.46	1339.37
762.64	1443.82
762.82	1343.47
763.00	1355.76
763.18	1363.95
763.35	1380.33
763.53	1427.43
763.71	1316.84
763.89	1372.14
764.07	1409.00
764.24	1310.70
764.42	1400.81
764.60	1368.04
764.78	1347.56
764.96	1306.60
765.13	1372.14
765.31	1388.52
765.49	1351.66
765.67	1351.66
765.84	1316.84
766.02	1382.38
766.20	1353.71
766.38	1327.08
766.56	1370.09
766.73	1402.86
766.91	1370.09
767.09	1380.33
767.27	1349.61
767.44	1255.40
767.62	1437.67
767.80	1343.47
767.98	1411.05
768.15	1341.42
768.33	1345.52
768.51	1370.09
768.69	1402.86
768.87	1404.91
769.04	1320.94
769.22	1482.73
769.40	1392.62
769.58	1501.16
769.75	1374.19
769.93	1349.61
770.11	1443.82
770.28	1394.67
770.46	1345.52
770.64	1318.89
770.82	1322.99
770.99	1361.90
771.17	1372.14
771.35	1366.00
771.53	1392.62
771.70	1357.80
771.88	1343.47
772.06	1372.14
772.23	1316.84
772.41	1396.71
772.59	1339.37
772.77	1431.53
772.94	1329.13
773.12	1392.62
773.30	1392.62
773.47	1359.85
773.65	1347.56
773.83	1478.63
774.01	1314.80
774.18	1339.37
774.36	1363.95
774.54	1275.88
774.71	1374.19
774.89	1306.60
775.07	1329.13
775.24	1335.28
775.42	1284.08
775.60	1404.91
775.78	1386.47
775.95	1292.27
776.13	1306.60
776.31	1312.75
776.48	1419.24
776.66	1443.82
776.84	1318.89
777.01	1386.47
777.19	1277.93
777.37	1380.33
777.54	1388.52
777.72	1380.33
777.90	1318.89
778.07	1368.04
778.25	1486.83
778.43	1372.14
778.60	1386.47
778.78	1472.49
778.96	1425.39
779.13	1337.32
779.31	1413.10
779.49	1372.14
779.66	1409.00
779.84	1310.70
780.01	1322.99
780.19	1384.43
780.37	1427.43
780.54	1398.76
780.72	1433.58
780.90	1314.80
781.07	1404.91
781.25	1269.74
781.43	1398.76
781.60	1310.70
781.78	1421.29
781.95	1339.37
782.13	1345.52
782.31	1353.71
782.48	1349.61
782.66	1445.87
782.83	1441.77
783.01	1390.57
783.19	1466.35
783.36	1339.37
783.54	1306.60
783.72	1474.54
783.89	1363.95
784.07	1396.71
784.24	1361.90
784.42	1388.52
784.60	1415.15
784.77	1413.10
784.95	1263.60
785.12	1349.61
785.30	1398.76
785.47	1310.70
785.65	1290.22
785.83	1331.18
786.00	1337.32
786.18	1380.33
786.35	1249.26
786.53	1357.80
786.71	1386.47
786.88	1445.87
787.06	1406.95
787.23	1396.71
787.41	1312.75
787.58	1380.33
787.76	1368.04
787.94	1308.65
788.11	1380.33
788.29	1345.52
788.46	1292.27
788.64	1257.45
788.81	1374.19
788.99	1331.18
789.16	1359.85
789.34	1435.63
789.52	1372.14
789.69	1366.00
789.87	1320.94
790.04	1366.00
790.22	1386.47
790.39	1433.58
790.57	1368.04
790.74	1349.61
790.92	1417.19
791.09	1333.23
791.27	1316.84
791.44	1411.05
791.62	1402.86
791.79	1316.84
791.97	1376.24
792.15	1456.11
792.32	1417.19
792.50	1353.71
792.67	1445.87
792.85	1388.52
793.02	1431.53
793.20	1359.85
793.37	1296.36
793.55	1406.95
793.72	1372.14
793.90	1382.38
794.07	1359.85
794.25	1404.91
794.42	1398.76
794.60	1433.58
794.77	1445.87
794.95	1513.45
795.12	1341.42
795.30	1421.29
795.47	1329.13
795.65	1511.40
795.82	1368.04
796.00	1433.58
796.17	1296.36
796.34	1325.04
796.52	1429.48
796.69	1372.14
796.87	1409.00
797.04	1361.90
797.22	1370.09
797.39	1347.56
797.57	1431.53
797.74	1382.38
797.92	1437.67
798.09	1314.80
798.27	1361.90
798.44	1423.34
798.62	1239.02
798.79	1421.29
798.96	1378.28
799.14	1296.36
799.31	1419.24
799.49	1388.52
799.66	1282.03
799.84	1351.66
800.01	1349.61
800.19	1314.80
800.36	1316.84
800.53	1322.99
800.71	1429.48
800.88	1402.86
801.06	1327.08
801.23	1370.09
801.41	1394.67
801.58	1282.03
801.75	1318.89
801.93	1333.23
802.10	1460.20
802.28	1353.71
802.45	1331.18
802.63	1368.04
802.80	1386.47
802.97	1429.48
803.15	1359.85
803.32	1290.22
803.50	1265.64
803.67	1302.51
803.84	1353.71
804.02	1325.04
804.19	1409.00
804.37	1308.65
804.54	1304.56
804.71	1331.18
804.89	1347.56
805.06	1304.56
805.24	1318.89
805.41	1382.38
805.58	1327.08
805.76	1415.15
805.93	1372.14
806.10	1429.48
806.28	1441.77
806.45	1368.04
806.63	1402.86
806.80	1404.91
806.97	1327.08
807.15	1368.04
807.32	1415.15
807.49	1290.22
807.67	1306.60
807.84	1361.90
808.01	1333.23
808.19	1480.68
808.36	1505.26
808.54	1329.13
808.71	1341.42
808.88	1359.85
809.06	1345.52
809.23	1427.43
809.40	1343.47
809.58	1404.91
809.75	1384.43
809.92	1312.75
810.10	1417.19
810.27	1353.71
810.44	1314.80
810.62	1374.19
810.79	1325.04
810.96	1400.81
811.14	1388.52
811.31	1329.13
811.48	1366.00
811.66	1357.80
811.83	1433.58
812.00	1390.57
812.18	1411.05
812.35	1382.38
812.52	1296.36
812.69	1390.57
812.87	1359.85
813.04	1300.46
813.21	1300.46
813.39	1331.18
813.56	1421.29
813.73	1372.14
813.91	1302.51
814.08	1415.15
814.25	1492.97
814.42	1296.36
814.60	1388.52
814.77	1335.28
814.94	1425.39
815.12	1394.67
815.29	1359.85
815.46	1390.57
815.63	1392.62
815.81	1372.14
815.98	1361.90
816.15	1361.90
816.33	1413.10
816.50	1296.36
816.67	1388.52
816.84	1355.76
817.02	1286.12
817.19	1378.28
817.36	1351.66
817.53	1345.52
817.71	1333.23
817.88	1341.42
818.05	1325.04
818.22	1343.47
818.40	1427.43
818.57	1386.47
818.74	1318.89
818.91	1353.71
819.09	1425.39
819.26	1372.14
819.43	1320.94
819.60	1335.28
819.78	1413.10
819.95	1495.02
820.12	1337.32
820.29	1427.43
820.47	1384.43
820.64	1400.81
820.81	1372.14
820.98	1322.99
821.15	1349.61
821.33	1366.00
821.50	1296.36
821.67	1400.81
821.84	1361.90
822.02	1409.00
822.19	1380.33
822.36	1388.52
822.53	1380.33
822.70	1296.36
822.88	1417.19
823.05	1409.00
823.22	1357.80
823.39	1423.34
823.56	1314.80
823.74	1370.09
823.91	1398.76
824.08	1378.28
824.25	1339.37
824.42	1421.29
824.60	1296.36
824.77	1402.86
824.94	1337.32
825.11	1351.66
825.28	1290.22
825.45	1349.61
825.63	1370.09
825.80	1388.52
825.97	1353.71
826.14	1419.24
826.31	1320.94
826.48	1339.37
826.66	1279.98
826.83	1347.56
827.00	1310.70
827.17	1423.34
827.34	1310.70
827.51	1304.56
827.69	1415.15
827.86	1265.64
828.03	1316.84
828.20	1310.70
828.37	1366.00
828.54	1363.95
828.71	1304.56
828.89	1449.96
829.06	1363.95
829.23	1343.47
829.40	1204.21
829.57	1347.56
829.74	1439.72
829.91	1376.24
830.09	1411.05
830.26	1454.06
830.43	1394.67
830.60	1304.56
830.77	1296.36
830.94	1361.90
831.11	1427.43
831.28	1308.65
831.46	1374.19
831.63	1359.85
831.80	1404.91
831.97	1382.38
832.14	1337.32
832.31	1392.62
832.48	1335.28
832.65	1439.72
832.82	1421.29
832.99	1380.33
833.17	1341.42
833.34	1411.05
833.51	1333.23
833.68	1277.93
833.85	1337.32
834.02	1325.04
834.19	1337.32
834.36	1353.71
834.53	1345.52
834.70	1417.19
834.87	1406.95
835.04	1308.65
835.22	1372.14
835.39	1310.70
835.56	1411.05
835.73	1347.56
835.90	1382.38
836.07	1374.19
836.24	1390.57
836.41	1372.14
836.58	1322.99
836.75	1456.11
836.92	1380.33
837.09	1296.36
837.26	1378.28
837.43	1409.00
837.60	1331.18
837.77	1339.37
837.94	1409.00
838.12	1411.05
838.29	1310.70
838.46	1370.09
838.63	1343.47
838.80	1449.96
838.97	1456.11
839.14	1361.90
839.31	1400.81
839.48	1359.85
839.65	1417.19
839.82	1372.14
839.99	1449.96
840.16	1433.58
840.33	1411.05
840.50	1394.67
840.67	1353.71
840.84	1320.94
841.01	1427.43
841.18	1402.86
841.35	1337.32
841.52	1388.52
841.69	1421.29
841.86	1349.61
842.03	1357.80
842.20	1384.43
842.37	1384.43
842.54	1411.05
842.71	1296.36
842.88	1329.13
843.05	1378.28
843.22	1388.52
843.39	1431.53
843.56	1406.95
843.73	1349.61
843.90	1339.37
844.07	1411.05
844.24	1388.52
844.41	1337.32
844.58	1388.52
844.75	1337.32
844.92	1335.28
845.09	1353.71
845.26	1339.37
845.43	1376.24
845.60	1384.43
845.77	1437.67
845.94	1347.56
846.10	1343.47
846.27	1343.47
846.44	1361.90
846.61	1349.61
846.78	1433.58
846.95	1425.39
847.12	1337.32
847.29	1400.81
847.46	1288.17
847.63	1347.56
847.80	1316.84
847.97	1396.71
848.14	1454.06
848.31	1294.32
848.48	1294.32
848.65	1382.38
848.82	1314.80
848.98	1398.76
849.15	1394.67
849.32	1490.92
849.49	1384.43
849.66	1337.32
849.83	1437.67
850.00	1376.24
850.17	1394.67
850.34	1347.56
850.51	1370.09
850.68	1355.76
850.85	1439.72
851.01	1314.80
851.18	1406.95
851.35	1361.90
851.52	1325.04
851.69	1413.10
851.86	1261.55
852.03	1404.91
852.20	1322.99
852.37	1341.42
852.53	1239.02
852.70	1400.81
852.87	1333.23
853.04	1361.90
853.21	1363.95
853.38	1388.52
853.55	1345.52
853.72	1456.11
853.89	1292.27
854.05	1357.80
854.22	1345.52
854.39	1388.52
854.56	1458.15
854.73	1402.86
854.90	1316.84
855.07	1335.28
855.23	1357.80
855.40	1404.91
855.57	1294.32
855.74	1380.33
855.91	1386.47
856.08	1318.89
856.25	1366.00
856.41	1333.23
856.58	1316.84
856.75	1376.24
856.92	1341.42
857.09	1394.67
857.26	1339.37
857.42	1355.76
857.59	1388.52
857.76	1335.28
857.93	1406.95
858.10	1445.87
858.27	1298.41
858.43	1384.43
858.60	1318.89
858.77	1392.62
858.94	1294.32
859.11	1464.30
859.27	1345.52
859.44	1423.34
859.61	1404.91
859.78	1437.67
859.95	1370.09
860.12	1361.90
860.28	1439.72
860.45	1433.58
860.62	1370.09
860.79	1366.00
860.95	1296.36
861.12	1351.66
861.29	1345.52
861.46	1374.19
861.63	1329.13
861.79	1361.90
861.96	1359.85
862.13	1304.56
862.30	1415.15
862.47	1292.27
862.63	1325.04
862.80	1445.87
862.97	1337.32
863.14	1402.86
863.30	1337.32
863.47	1263.60
863.64	1421.29
863.81	1357.80
863.97	1366.00
864.14	1372.14
864.31	1339.37
864.48	1331.18
864.65	1351.66
864.81	1374.19
864.98	1380.33
865.15	1425.39
865.32	1429.48
865.48	1374.19
865.65	1388.52
865.82	1347.56
865.98	1392.62
866.15	1429.48
866.32	1368.04
866.49	1341.42
866.65	1368.04
866.82	1347.56
866.99	1325.04
867.16	1372.14
867.32	1327.08
867.49	1402.86
867.66	1304.56
867.83	1376.24
867.99	1361.90
868.16	1355.76
868.33	1255.40
868.49	1402.86
868.66	1329.13
868.83	1320.94
868.99	1413.10
869.16	1345.52
869.33	1376.24
869.50	1386.47
869.66	1374.19
869.83	1359.85
870.00	1325.04
870.16	1341.42
870.33	1249.26
870.50	1368.04
870.66	1380.33
870.83	1341.42
871.00	1345.52
871.17	1372.14
871.33	1388.52
871.50	1331.18
871.67	1271.79
871.83	1325.04
872.00	1402.86
872.17	1329.13
872.33	1400.81
872.50	1447.91
872.67	1386.47
872.83	1339.37
873.00	1355.76
873.17	1355.76
873.33	1411.05
873.50	1359.85
873.67	1390.57
873.83	1351.66
874.00	1413.10
874.16	1374.19
874.33	1351.66
874.50	1320.94
874.66	1447.91
874.83	1400.81
875.00	1359.85
875.16	1363.95
875.33	1445.87
875.50	1265.64
875.66	1402.86
875.83	1314.80
875.99	1368.04
876.16	1339.37
876.33	1329.13
876.49	1445.87
876.66	1359.85
876.83	1353.71
876.99	1308.65
877.16	1390.57
877.32	1396.71
877.49	1320.94
877.66	1415.15
877.82	1421.29
877.99	1335.28
878.15	1388.52
878.32	1400.81
878.49	1384.43
878.65	1257.45
878.82	1421.29
878.98	1310.70
879.15	1411.05
879.32	1372.14
879.48	1363.95
879.65	1445.87
879.81	1366.00
879.98	1380.33
880.15	1380.33
880.31	1376.24
880.48	1402.86
880.64	1359.85
880.81	1425.39
880.97	1394.67
881.14	1380.33
881.31	1298.41
881.47	1458.15
881.64	1376.24
881.80	1361.90
881.97	1421.29
882.13	1378.28
882.30	1341.42
882.47	1296.36
882.63	1320.94
882.80	1366.00
882.96	1406.95
883.13	1411.05
883.29	1368.04
883.46	1357.80
883.62	1462.25
883.79	1314.80
883.95	1359.85
884.12	1376.24
884.29	1437.67
884.45	1400.81
884.62	1286.12
884.78	1374.19
884.95	1454.06
885.11	1374.19
885.28	1423.34
885.44	1372.14
885.61	1402.86
885.77	1419.24
885.94	1310.70
886.10	1439.72
886.27	1310.70
886.43	1388.52
886.60	1433.58
886.76	1359.85
886.93	1349.61
887.09	1382.38
887.26	1339.37
887.42	1396.71
887.59	1404.91
887.75	1486.83
887.92	1396.71
888.08	1388.52
888.25	1351.66
888.41	1413.10
888.58	1327.08
888.74	1392.62
888.91	1363.95
>>>>>End Processed Spectral Data<<<<<
