SpectraSuite Data File
++++++++++++++++++++++++++++++++++++
Date: Tue May 03 11:24:15 CEST 2016
User: root
Dark Spectrum Present: No
Reference Spectrum Present: No
Number of Sampled Component Spectra: 1
Spectrometers: USB4C02835
Integration Time (usec): 100000 (USB4C02835)
Spectra Averaged: 1 (USB4C02835)
Boxcar Smoothing: 0 (USB4C02835)
Correct for Electrical Dark: No (USB4C02835)
Strobe/Lamp Enabled: No (USB4C02835)
Correct for Detector Non-linearity: No (USB4C02835)
Correct for Stray Light: No (USB4C02835)
Number of Pixels in Processed Spectrum: 3648
>>>>>Begin Processed Spectral Data<<<<<
177.47	1239.02
177.69	1239.02
177.91	1239.02
178.13	1222.64
178.36	1216.49
178.58	1339.37
178.80	1322.99
179.02	1320.94
179.24	1351.66
179.46	1300.46
179.68	1419.24
179.90	1347.56
180.13	1345.52
180.35	1361.90
180.57	1351.66
180.79	1380.33
181.01	1329.13
181.23	1343.47
181.45	1396.71
181.67	1318.89
181.90	1366.00
182.12	1374.19
182.34	1394.67
182.56	1325.04
182.78	1316.84
183.00	1282.03
183.22	1306.60
183.44	1376.24
183.66	1470.44
183.89	1417.19
184.11	1345.52
184.33	1392.62
184.55	1454.06
184.77	1392.62
184.99	1404.91
185.21	1339.37
185.43	1474.54
185.65	1322.99
185.87	1329.13
186.10	1370.09
186.32	1507.30
186.54	1380.33
186.76	1429.48
186.98	1378.28
187.20	1376.24
187.42	1374.19
187.64	1298.41
187.86	1402.86
188.08	1394.67
188.30	1384.43
188.52	1312.75
188.75	1409.00
188.97	1402.86
189.19	1380.33
189.41	1372.14
189.63	1329.13
189.85	1392.62
190.07	1349.61
190.29	1376.24
190.51	1404.91
190.73	1320.94
190.95	1333.23
191.17	1337.32
191.39	1329.13
191.61	1384.43
191.84	1361.90
192.06	1353.71
192.28	1341.42
192.50	1443.82
192.72	1400.81
192.94	1298.41
193.16	1415.15
193.38	1366.00
193.60	1335.28
193.82	1370.09
194.04	1361.90
194.26	1349.61
194.48	1290.22
194.70	1339.37
194.92	1335.28
195.14	1335.28
195.36	1318.89
195.58	1419.24
195.80	1355.76
196.02	1347.56
196.24	1372.14
196.46	1458.15
196.69	1290.22
196.91	1384.43
197.13	1296.36
197.35	1284.08
197.57	1413.10
197.79	1413.10
198.01	1325.04
198.23	1390.57
198.45	1425.39
198.67	1374.19
198.89	1370.09
199.11	1372.14
199.33	1327.08
199.55	1292.27
199.77	1368.04
199.99	1452.01
200.21	1386.47
200.43	1376.24
200.65	1333.23
200.87	1292.27
201.09	1411.05
201.31	1329.13
201.53	1437.67
201.75	1454.06
201.97	1337.32
202.19	1376.24
202.41	1294.32
202.63	1404.91
202.85	1355.76
203.07	1376.24
203.29	1398.76
203.51	1394.67
203.73	1417.19
203.95	1454.06
204.17	1419.24
204.39	1398.76
204.61	1458.15
204.83	1368.04
205.05	1363.95
205.27	1322.99
205.49	1409.00
205.71	1353.71
205.93	1269.74
206.15	1370.09
206.37	1388.52
206.59	1370.09
206.81	1298.41
207.03	1320.94
207.25	1357.80
207.47	1458.15
207.69	1327.08
207.91	1376.24
208.13	1492.97
208.34	1366.00
208.56	1376.24
208.78	1312.75
209.00	1421.29
209.22	1294.32
209.44	1421.29
209.66	1331.18
209.88	1458.15
210.10	1419.24
210.32	1370.09
210.54	1507.30
210.76	1331.18
210.98	1402.86
211.20	1241.07
211.42	1437.67
211.64	1351.66
211.86	1382.38
212.08	1361.90
212.30	1462.25
212.52	1259.50
212.74	1329.13
212.96	1322.99
213.17	1447.91
213.39	1398.76
213.61	1431.53
213.83	1427.43
214.05	1290.22
214.27	1384.43
214.49	1329.13
214.71	1310.70
214.93	1400.81
215.15	1374.19
215.37	1327.08
215.59	1341.42
215.81	1388.52
216.03	1472.49
216.24	1378.28
216.46	1306.60
216.68	1396.71
216.90	1421.29
217.12	1396.71
217.34	1304.56
217.56	1427.43
217.78	1413.10
218.00	1429.48
218.22	1361.90
218.44	1386.47
218.66	1464.30
218.87	1421.29
219.09	1370.09
219.31	1404.91
219.53	1417.19
219.75	1339.37
219.97	1359.85
220.19	1357.80
220.41	1337.32
220.63	1396.71
220.85	1378.28
221.06	1339.37
221.28	1402.86
221.50	1370.09
221.72	1337.32
221.94	1333.23
222.16	1345.52
222.38	1394.67
222.60	1409.00
222.82	1343.47
223.03	1406.95
223.25	1380.33
223.47	1447.91
223.69	1421.29
223.91	1390.57
224.13	1380.33
224.35	1363.95
224.57	1454.06
224.78	1355.76
225.00	1357.80
225.22	1296.36
225.44	1427.43
225.66	1400.81
225.88	1355.76
226.10	1437.67
226.32	1316.84
226.53	1439.72
226.75	1335.28
226.97	1292.27
227.19	1382.38
227.41	1310.70
227.63	1388.52
227.85	1359.85
228.06	1372.14
228.28	1351.66
228.50	1492.97
228.72	1355.76
228.94	1298.41
229.16	1435.63
229.37	1294.32
229.59	1298.41
229.81	1445.87
230.03	1316.84
230.25	1304.56
230.47	1310.70
230.69	1335.28
230.90	1415.15
231.12	1370.09
231.34	1355.76
231.56	1363.95
231.78	1308.65
232.00	1351.66
232.21	1398.76
232.43	1368.04
232.65	1290.22
232.87	1335.28
233.09	1341.42
233.30	1327.08
233.52	1335.28
233.74	1318.89
233.96	1355.76
234.18	1353.71
234.40	1390.57
234.61	1322.99
234.83	1372.14
235.05	1337.32
235.27	1435.63
235.49	1456.11
235.70	1347.56
235.92	1443.82
236.14	1396.71
236.36	1435.63
236.58	1372.14
236.79	1386.47
237.01	1370.09
237.23	1386.47
237.45	1490.92
237.67	1288.17
237.88	1279.98
238.10	1386.47
238.32	1294.32
238.54	1331.18
238.76	1425.39
238.97	1329.13
239.19	1314.80
239.41	1409.00
239.63	1460.20
239.85	1355.76
240.06	1441.77
240.28	1353.71
240.50	1374.19
240.72	1421.29
240.93	1347.56
241.15	1409.00
241.37	1437.67
241.59	1425.39
241.81	1378.28
242.02	1337.32
242.24	1386.47
242.46	1347.56
242.68	1406.95
242.89	1452.01
243.11	1378.28
243.33	1398.76
243.55	1329.13
243.76	1421.29
243.98	1370.09
244.20	1363.95
244.42	1433.58
244.64	1335.28
244.85	1284.08
245.07	1302.51
245.29	1421.29
245.51	1329.13
245.72	1431.53
245.94	1333.23
246.16	1452.01
246.38	1384.43
246.59	1370.09
246.81	1263.60
247.03	1277.93
247.24	1353.71
247.46	1368.04
247.68	1372.14
247.90	1421.29
248.11	1363.95
248.33	1406.95
248.55	1370.09
248.77	1316.84
248.98	1449.96
249.20	1413.10
249.42	1351.66
249.64	1388.52
249.85	1413.10
250.07	1394.67
250.29	1456.11
250.50	1390.57
250.72	1372.14
250.94	1341.42
251.16	1413.10
251.37	1474.54
251.59	1433.58
251.81	1353.71
252.02	1341.42
252.24	1388.52
252.46	1398.76
252.68	1423.34
252.89	1312.75
253.11	1341.42
253.33	1476.59
253.54	1353.71
253.76	1314.80
253.98	1337.32
254.20	1398.76
254.41	1282.03
254.63	1417.19
254.85	1249.26
255.06	1265.64
255.28	1337.32
255.50	1331.18
255.71	1320.94
255.93	1247.21
256.15	1409.00
256.36	1339.37
256.58	1351.66
256.80	1347.56
257.02	1320.94
257.23	1460.20
257.45	1402.86
257.67	1386.47
257.88	1335.28
258.10	1357.80
258.32	1390.57
258.53	1372.14
258.75	1320.94
258.97	1359.85
259.18	1361.90
259.40	1269.74
259.62	1394.67
259.83	1470.44
260.05	1339.37
260.27	1570.79
260.48	1320.94
260.70	1337.32
260.92	1343.47
261.13	1411.05
261.35	1396.71
261.57	1411.05
261.78	1349.61
262.00	1318.89
262.22	1331.18
262.43	1331.18
262.65	1409.00
262.86	1357.80
263.08	1472.49
263.30	1382.38
263.51	1275.88
263.73	1370.09
263.95	1474.54
264.16	1347.56
264.38	1296.36
264.60	1382.38
264.81	1335.28
265.03	1376.24
265.25	1380.33
265.46	1433.58
265.68	1335.28
265.89	1423.34
266.11	1318.89
266.33	1331.18
266.54	1476.59
266.76	1322.99
266.98	1454.06
267.19	1390.57
267.41	1417.19
267.62	1361.90
267.84	1298.41
268.06	1368.04
268.27	1327.08
268.49	1394.67
268.70	1392.62
268.92	1409.00
269.14	1359.85
269.35	1247.21
269.57	1351.66
269.79	1288.17
270.00	1351.66
270.22	1511.40
270.43	1400.81
270.65	1318.89
270.87	1355.76
271.08	1347.56
271.30	1374.19
271.51	1290.22
271.73	1411.05
271.95	1447.91
272.16	1406.95
272.38	1384.43
272.59	1314.80
272.81	1359.85
273.02	1404.91
273.24	1380.33
273.46	1384.43
273.67	1294.32
273.89	1335.28
274.10	1306.60
274.32	1421.29
274.54	1398.76
274.75	1322.99
274.97	1353.71
275.18	1398.76
275.40	1429.48
275.61	1351.66
275.83	1349.61
276.05	1282.03
276.26	1277.93
276.48	1359.85
276.69	1300.46
276.91	1382.38
277.12	1388.52
277.34	1437.67
277.55	1341.42
277.77	1376.24
277.99	1386.47
278.20	1261.55
278.42	1345.52
278.63	1327.08
278.85	1372.14
279.06	1349.61
279.28	1396.71
279.49	1415.15
279.71	1390.57
279.93	1351.66
280.14	1325.04
280.36	1357.80
280.57	1320.94
280.79	1409.00
281.00	1368.04
281.22	1339.37
281.43	1318.89
281.65	1322.99
281.86	1333.23
282.08	1443.82
282.29	1460.20
282.51	1310.70
282.73	1286.12
282.94	1282.03
283.16	1366.00
283.37	1458.15
283.59	1331.18
283.80	1312.75
284.02	1392.62
284.23	1388.52
284.45	1351.66
284.66	1335.28
284.88	1318.89
285.09	1388.52
285.31	1404.91
285.52	1460.20
285.74	1339.37
285.95	1419.24
286.17	1372.14
286.38	1431.53
286.60	1353.71
286.81	1361.90
287.03	1384.43
287.24	1380.33
287.46	1423.34
287.67	1376.24
287.89	1421.29
288.10	1378.28
288.32	1337.32
288.53	1396.71
288.75	1394.67
288.96	1406.95
289.18	1421.29
289.39	1382.38
289.61	1409.00
289.82	1480.68
290.04	1341.42
290.25	1302.51
290.47	1429.48
290.68	1443.82
290.90	1376.24
291.11	1284.08
291.33	1382.38
291.54	1294.32
291.76	1415.15
291.97	1335.28
292.18	1406.95
292.40	1374.19
292.61	1312.75
292.83	1413.10
293.04	1359.85
293.26	1421.29
293.47	1351.66
293.69	1351.66
293.90	1368.04
294.12	1411.05
294.33	1372.14
294.55	1386.47
294.76	1415.15
294.97	1429.48
295.19	1486.83
295.40	1273.84
295.62	1384.43
295.83	1306.60
296.05	1310.70
296.26	1406.95
296.48	1421.29
296.69	1333.23
296.90	1331.18
297.12	1394.67
297.33	1431.53
297.55	1318.89
297.76	1370.09
297.98	1427.43
298.19	1322.99
298.41	1404.91
298.62	1335.28
298.83	1396.71
299.05	1372.14
299.26	1380.33
299.48	1279.98
299.69	1359.85
299.90	1329.13
300.12	1312.75
300.33	1351.66
300.55	1366.00
300.76	1339.37
300.98	1282.03
301.19	1325.04
301.40	1341.42
301.62	1370.09
301.83	1380.33
302.05	1353.71
302.26	1378.28
302.47	1325.04
302.69	1333.23
302.90	1380.33
303.12	1370.09
303.33	1406.95
303.54	1462.25
303.76	1390.57
303.97	1339.37
304.19	1443.82
304.40	1370.09
304.61	1429.48
304.83	1486.83
305.04	1427.43
305.26	1355.76
305.47	1380.33
305.68	1366.00
305.90	1394.67
306.11	1468.39
306.33	1359.85
306.54	1363.95
306.75	1406.95
306.97	1265.64
307.18	1247.21
307.39	1382.38
307.61	1378.28
307.82	1363.95
308.04	1378.28
308.25	1378.28
308.46	1353.71
308.68	1398.76
308.89	1327.08
309.10	1396.71
309.32	1386.47
309.53	1394.67
309.74	1337.32
309.96	1394.67
310.17	1409.00
310.39	1380.33
310.60	1357.80
310.81	1388.52
311.03	1415.15
311.24	1337.32
311.45	1359.85
311.67	1355.76
311.88	1380.33
312.09	1316.84
312.31	1357.80
312.52	1329.13
312.73	1284.08
312.95	1331.18
313.16	1290.22
313.37	1423.34
313.59	1376.24
313.80	1349.61
314.01	1353.71
314.23	1341.42
314.44	1398.76
314.65	1361.90
314.87	1271.79
315.08	1419.24
315.29	1355.76
315.51	1380.33
315.72	1308.65
315.93	1366.00
316.15	1413.10
316.36	1308.65
316.57	1312.75
316.79	1361.90
317.00	1298.41
317.21	1425.39
317.43	1339.37
317.64	1435.63
317.85	1378.28
318.07	1486.83
318.28	1544.17
318.49	1597.42
318.70	1744.87
318.92	1538.02
319.13	1511.40
319.34	1519.59
319.56	1525.74
319.77	1427.43
319.98	1525.74
320.20	1413.10
320.41	1374.19
320.62	1417.19
320.83	1337.32
321.05	1474.54
321.26	1376.24
321.47	1331.18
321.69	1413.10
321.90	1257.45
322.11	1329.13
322.32	1425.39
322.54	1413.10
322.75	1333.23
322.96	1466.35
323.18	1329.13
323.39	1232.88
323.60	1357.80
323.81	1411.05
324.03	1380.33
324.24	1376.24
324.45	1400.81
324.66	1447.91
324.88	1421.29
325.09	1404.91
325.30	1372.14
325.52	1368.04
325.73	1376.24
325.94	1333.23
326.15	1335.28
326.37	1314.80
326.58	1398.76
326.79	1388.52
327.00	1359.85
327.22	1335.28
327.43	1271.79
327.64	1368.04
327.85	1296.36
328.07	1413.10
328.28	1439.72
328.49	1400.81
328.70	1312.75
328.92	1400.81
329.13	1382.38
329.34	1439.72
329.55	1449.96
329.76	1388.52
329.98	1380.33
330.19	1382.38
330.40	1351.66
330.61	1411.05
330.83	1404.91
331.04	1308.65
331.25	1443.82
331.46	1339.37
331.68	1429.48
331.89	1382.38
332.10	1392.62
332.31	1411.05
332.52	1370.09
332.74	1452.01
332.95	1290.22
333.16	1335.28
333.37	1415.15
333.58	1370.09
333.80	1380.33
334.01	1288.17
334.22	1370.09
334.43	1409.00
334.64	1351.66
334.86	1372.14
335.07	1366.00
335.28	1388.52
335.49	1388.52
335.70	1290.22
335.92	1333.23
336.13	1427.43
336.34	1429.48
336.55	1386.47
336.76	1331.18
336.98	1290.22
337.19	1394.67
337.40	1413.10
337.61	1454.06
337.82	1374.19
338.04	1370.09
338.25	1304.56
338.46	1333.23
338.67	1314.80
338.88	1251.31
339.09	1306.60
339.31	1325.04
339.52	1308.65
339.73	1343.47
339.94	1357.80
340.15	1359.85
340.36	1366.00
340.58	1372.14
340.79	1298.41
341.00	1400.81
341.21	1271.79
341.42	1476.59
341.63	1355.76
341.85	1425.39
342.06	1316.84
342.27	1349.61
342.48	1363.95
342.69	1318.89
342.90	1355.76
343.12	1343.47
343.33	1329.13
343.54	1382.38
343.75	1409.00
343.96	1320.94
344.17	1337.32
344.38	1320.94
344.60	1382.38
344.81	1355.76
345.02	1431.53
345.23	1378.28
345.44	1460.20
345.65	1431.53
345.86	1411.05
346.07	1411.05
346.29	1351.66
346.50	1306.60
346.71	1380.33
346.92	1366.00
347.13	1421.29
347.34	1308.65
347.55	1378.28
347.76	1390.57
347.98	1286.12
348.19	1339.37
348.40	1441.77
348.61	1378.28
348.82	1421.29
349.03	1406.95
349.24	1275.88
349.45	1374.19
349.66	1347.56
349.88	1396.71
350.09	1351.66
350.30	1347.56
350.51	1470.44
350.72	1361.90
350.93	1372.14
351.14	1273.84
351.35	1398.76
351.56	1314.80
351.77	1279.98
351.99	1341.42
352.20	1357.80
352.41	1404.91
352.62	1339.37
352.83	1402.86
353.04	1316.84
353.25	1384.43
353.46	1406.95
353.67	1370.09
353.88	1249.26
354.09	1458.15
354.30	1452.01
354.52	1322.99
354.73	1357.80
354.94	1345.52
355.15	1378.28
355.36	1413.10
355.57	1314.80
355.78	1363.95
355.99	1331.18
356.20	1388.52
356.41	1286.12
356.62	1396.71
356.83	1318.89
357.04	1396.71
357.25	1341.42
357.46	1433.58
357.68	1327.08
357.89	1378.28
358.10	1503.21
358.31	1355.76
358.52	1320.94
358.73	1212.40
358.94	1359.85
359.15	1308.65
359.36	1374.19
359.57	1396.71
359.78	1316.84
359.99	1400.81
360.20	1335.28
360.41	1372.14
360.62	1357.80
360.83	1308.65
361.04	1329.13
361.25	1415.15
361.46	1396.71
361.67	1386.47
361.88	1329.13
362.09	1425.39
362.30	1429.48
362.51	1314.80
362.72	1308.65
362.93	1415.15
363.14	1361.90
363.35	1361.90
363.56	1329.13
363.78	1376.24
363.99	1468.39
364.20	1384.43
364.41	1384.43
364.62	1402.86
364.83	1329.13
365.04	1359.85
365.25	1316.84
365.46	1437.67
365.67	1349.61
365.88	1361.90
366.09	1306.60
366.30	1380.33
366.51	1347.56
366.72	1318.89
366.93	1390.57
367.14	1400.81
367.35	1390.57
367.56	1318.89
367.77	1396.71
367.98	1417.19
368.18	1335.28
368.39	1464.30
368.60	1251.31
368.81	1341.42
369.02	1402.86
369.23	1411.05
369.44	1290.22
369.65	1329.13
369.86	1282.03
370.07	1421.29
370.28	1347.56
370.49	1355.76
370.70	1368.04
370.91	1366.00
371.12	1335.28
371.33	1316.84
371.54	1363.95
371.75	1392.62
371.96	1255.40
372.17	1417.19
372.38	1402.86
372.59	1409.00
372.80	1368.04
373.01	1349.61
373.22	1390.57
373.43	1320.94
373.64	1308.65
373.85	1361.90
374.06	1464.30
374.26	1413.10
374.47	1320.94
374.68	1400.81
374.89	1320.94
375.10	1320.94
375.31	1392.62
375.52	1347.56
375.73	1396.71
375.94	1314.80
376.15	1449.96
376.36	1325.04
376.57	1357.80
376.78	1370.09
376.99	1382.38
377.20	1411.05
377.40	1359.85
377.61	1402.86
377.82	1370.09
378.03	1411.05
378.24	1361.90
378.45	1296.36
378.66	1314.80
378.87	1337.32
379.08	1320.94
379.29	1390.57
379.50	1470.44
379.71	1386.47
379.91	1468.39
380.12	1378.28
380.33	1363.95
380.54	1320.94
380.75	1343.47
380.96	1372.14
381.17	1492.97
381.38	1435.63
381.59	1445.87
381.80	1447.91
382.00	1476.59
382.21	1443.82
382.42	1462.25
382.63	1458.15
382.84	1415.15
383.05	1552.36
383.26	1458.15
383.47	1431.53
383.68	1413.10
383.88	1525.74
384.09	1421.29
384.30	1421.29
384.51	1394.67
384.72	1400.81
384.93	1325.04
385.14	1402.86
385.35	1374.19
385.55	1370.09
385.76	1394.67
385.97	1341.42
386.18	1374.19
386.39	1396.71
386.60	1368.04
386.81	1357.80
387.02	1384.43
387.22	1384.43
387.43	1466.35
387.64	1617.90
387.85	2281.44
388.06	5613.48
388.27	9381.74
388.48	11630.41
388.68	13104.95
388.89	13180.73
389.10	10604.38
389.31	9092.98
389.52	8288.13
389.73	7468.94
389.93	6825.88
390.14	6473.63
390.35	6156.19
390.56	5408.69
390.77	4628.41
390.98	3661.77
391.18	2834.39
391.39	2113.50
391.60	1708.01
391.81	1558.50
392.02	1466.35
392.23	1544.17
392.43	1458.15
392.64	1421.29
392.85	1370.09
393.06	1445.87
393.27	1370.09
393.47	1378.28
393.68	1435.63
393.89	1380.33
394.10	1452.01
394.31	1300.46
394.52	1349.61
394.72	1376.24
394.93	1445.87
395.14	1308.65
395.35	1458.15
395.56	1417.19
395.76	1574.89
395.97	1546.22
396.18	1601.51
396.39	1636.33
396.60	1712.10
396.80	1548.26
397.01	1535.98
397.22	1429.48
397.43	1540.07
397.64	1374.19
397.84	1441.77
398.05	1542.12
398.26	1464.30
398.47	1413.10
398.67	1439.72
398.88	1433.58
399.09	1435.63
399.30	1396.71
399.51	1368.04
399.71	1380.33
399.92	1394.67
400.13	1351.66
400.34	1368.04
400.54	1390.57
400.75	1472.49
400.96	1447.91
401.17	1427.43
401.37	1456.11
401.58	1372.14
401.79	1458.15
402.00	1683.43
402.21	1787.88
402.41	1800.16
402.62	1763.30
402.83	1757.16
403.04	1671.14
403.24	1681.38
403.45	1601.51
403.66	1638.38
403.87	1507.30
404.07	1568.74
404.28	1560.55
404.49	1562.60
404.70	1511.40
404.90	1492.97
405.11	1406.95
405.32	1423.34
405.52	1349.61
405.73	1325.04
405.94	1353.71
406.15	1294.32
406.35	1394.67
406.56	1380.33
406.77	1406.95
406.98	1388.52
407.18	1368.04
407.39	1388.52
407.60	1296.36
407.80	1423.34
408.01	1378.28
408.22	1429.48
408.43	1331.18
408.63	1370.09
408.84	1421.29
409.05	1404.91
409.25	1294.32
409.46	1363.95
409.67	1390.57
409.88	1388.52
410.08	1345.52
410.29	1325.04
410.50	1411.05
410.70	1386.47
410.91	1345.52
411.12	1359.85
411.32	1404.91
411.53	1460.20
411.74	1474.54
411.95	1521.64
412.15	1429.48
412.36	1423.34
412.57	1441.77
412.77	1478.63
412.98	1409.00
413.19	1337.32
413.39	1402.86
413.60	1470.44
413.81	1466.35
414.01	1353.71
414.22	1363.95
414.43	1470.44
414.63	1470.44
414.84	1452.01
415.05	1380.33
415.25	1341.42
415.46	1347.56
415.67	1329.13
415.87	1363.95
416.08	1406.95
416.29	1337.32
416.49	1361.90
416.70	1380.33
416.91	1363.95
417.11	1337.32
417.32	1322.99
417.53	1486.83
417.73	1427.43
417.94	1372.14
418.15	1429.48
418.35	1386.47
418.56	1322.99
418.77	1355.76
418.97	1349.61
419.18	1316.84
419.38	1335.28
419.59	1337.32
419.80	1437.67
420.00	1337.32
420.21	1429.48
420.42	1337.32
420.62	1372.14
420.83	1316.84
421.04	1374.19
421.24	1306.60
421.45	1366.00
421.65	1368.04
421.86	1372.14
422.07	1335.28
422.27	1368.04
422.48	1415.15
422.69	1339.37
422.89	1349.61
423.10	1380.33
423.30	1351.66
423.51	1402.86
423.72	1335.28
423.92	1345.52
424.13	1357.80
424.33	1353.71
424.54	1310.70
424.75	1400.81
424.95	1429.48
425.16	1404.91
425.36	1329.13
425.57	1386.47
425.78	1353.71
425.98	1351.66
426.19	1388.52
426.39	1275.88
426.60	1376.24
426.81	1533.93
427.01	1398.76
427.22	1327.08
427.42	1310.70
427.63	1402.86
427.83	1363.95
428.04	1417.19
428.25	1361.90
428.45	1429.48
428.66	1404.91
428.86	1374.19
429.07	1312.75
429.28	1349.61
429.48	1372.14
429.69	1376.24
429.89	1363.95
430.10	1333.23
430.30	1380.33
430.51	1366.00
430.71	1372.14
430.92	1402.86
431.13	1341.42
431.33	1441.77
431.54	1400.81
431.74	1392.62
431.95	1384.43
432.15	1310.70
432.36	1404.91
432.56	1339.37
432.77	1429.48
432.98	1392.62
433.18	1370.09
433.39	1386.47
433.59	1355.76
433.80	1488.87
434.00	1390.57
434.21	1331.18
434.41	1372.14
434.62	1470.44
434.82	1312.75
435.03	1359.85
435.23	1406.95
435.44	1290.22
435.64	1406.95
435.85	1345.52
436.06	1417.19
436.26	1427.43
436.47	1361.90
436.67	1353.71
436.88	1316.84
437.08	1355.76
437.29	1486.83
437.49	1380.33
437.70	1353.71
437.90	1413.10
438.11	1529.83
438.31	1480.68
438.52	1470.44
438.72	1552.36
438.93	1609.70
439.13	1492.97
439.34	1429.48
439.54	1400.81
439.75	1523.69
439.95	1495.02
440.16	1419.24
440.36	1474.54
440.57	1400.81
440.77	1470.44
440.98	1359.85
441.18	1406.95
441.39	1347.56
441.59	1300.46
441.80	1511.40
442.00	1312.75
442.21	1329.13
442.41	1366.00
442.62	1359.85
442.82	1366.00
443.02	1368.04
443.23	1363.95
443.43	1322.99
443.64	1433.58
443.84	1460.20
444.05	1460.20
444.25	1384.43
444.46	1392.62
444.66	1392.62
444.87	1452.01
445.07	1361.90
445.28	1384.43
445.48	1466.35
445.69	1384.43
445.89	1548.26
446.09	1529.83
446.30	2271.20
446.50	3817.41
446.71	4583.35
446.91	5146.55
447.12	5509.04
447.32	5042.10
447.53	4190.14
447.73	3776.45
447.93	3411.92
448.14	3127.25
448.34	3080.14
448.55	2885.59
448.75	2791.38
448.96	2656.22
449.16	2443.23
449.36	2201.57
449.57	1912.80
449.77	1701.86
449.98	1542.12
450.18	1478.63
450.39	1484.78
450.59	1415.15
450.79	1368.04
451.00	1396.71
451.20	1413.10
451.41	1353.71
451.61	1392.62
451.81	1361.90
452.02	1447.91
452.22	1337.32
452.43	1370.09
452.63	1337.32
452.84	1370.09
453.04	1314.80
453.24	1355.76
453.45	1363.95
453.65	1409.00
453.86	1355.76
454.06	1400.81
454.26	1392.62
454.47	1329.13
454.67	1411.05
454.87	1419.24
455.08	1370.09
455.28	1394.67
455.49	1378.28
455.69	1402.86
455.89	1402.86
456.10	1439.72
456.30	1279.98
456.51	1429.48
456.71	1318.89
456.91	1339.37
457.12	1423.34
457.32	1402.86
457.52	1347.56
457.73	1406.95
457.93	1417.19
458.14	1339.37
458.34	1372.14
458.54	1376.24
458.75	1314.80
458.95	1382.38
459.15	1335.28
459.36	1320.94
459.56	1435.63
459.76	1441.77
459.97	1347.56
460.17	1327.08
460.37	1378.28
460.58	1384.43
460.78	1452.01
460.99	1337.32
461.19	1437.67
461.39	1308.65
461.60	1411.05
461.80	1425.39
462.00	1314.80
462.21	1339.37
462.41	1392.62
462.61	1374.19
462.82	1290.22
463.02	1394.67
463.22	1427.43
463.43	1445.87
463.63	1366.00
463.83	1456.11
464.04	1470.44
464.24	1458.15
464.44	1421.29
464.64	1427.43
464.85	1337.32
465.05	1363.95
465.25	1325.04
465.46	1329.13
465.66	1441.77
465.86	1351.66
466.07	1351.66
466.27	1372.14
466.47	1339.37
466.68	1310.70
466.88	1454.06
467.08	1374.19
467.29	1353.71
467.49	1417.19
467.69	1351.66
467.89	1349.61
468.10	1296.36
468.30	1411.05
468.50	1396.71
468.71	1409.00
468.91	1329.13
469.11	1478.63
469.31	1372.14
469.52	1368.04
469.72	1431.53
469.92	1345.52
470.13	1386.47
470.33	1443.82
470.53	1699.81
470.73	2068.45
470.94	2330.59
471.14	2297.82
471.34	2408.41
471.54	2224.09
471.75	2035.68
471.95	1898.47
472.15	1789.92
472.36	1777.64
472.56	1732.58
472.76	1640.42
472.96	1810.40
473.17	1687.53
473.37	1605.61
473.57	1540.07
473.77	1581.03
473.98	1492.97
474.18	1396.71
474.38	1585.13
474.58	1372.14
474.79	1355.76
474.99	1337.32
475.19	1429.48
475.39	1331.18
475.60	1443.82
475.80	1413.10
476.00	1376.24
476.20	1433.58
476.41	1404.91
476.61	1427.43
476.81	1390.57
477.01	1310.70
477.21	1431.53
477.42	1415.15
477.62	1322.99
477.82	1486.83
478.02	1443.82
478.23	1318.89
478.43	1372.14
478.63	1423.34
478.83	1339.37
479.03	1302.51
479.24	1417.19
479.44	1433.58
479.64	1439.72
479.84	1292.27
480.04	1390.57
480.25	1380.33
480.45	1329.13
480.65	1370.09
480.85	1392.62
481.06	1331.18
481.26	1339.37
481.46	1394.67
481.66	1398.76
481.86	1351.66
482.06	1386.47
482.27	1331.18
482.47	1363.95
482.67	1398.76
482.87	1366.00
483.07	1433.58
483.28	1341.42
483.48	1372.14
483.68	1304.56
483.88	1378.28
484.08	1349.61
484.29	1396.71
484.49	1378.28
484.69	1404.91
484.89	1456.11
485.09	1411.05
485.29	1404.91
485.50	1353.71
485.70	1341.42
485.90	1378.28
486.10	1351.66
486.30	1380.33
486.50	1443.82
486.71	1331.18
486.91	1378.28
487.11	1347.56
487.31	1384.43
487.51	1343.47
487.71	1306.60
487.91	1333.23
488.12	1337.32
488.32	1331.18
488.52	1302.51
488.72	1357.80
488.92	1400.81
489.12	1355.76
489.32	1480.68
489.53	1378.28
489.73	1286.12
489.93	1337.32
490.13	1359.85
490.33	1308.65
490.53	1415.15
490.73	1458.15
490.94	1343.47
491.14	1445.87
491.34	1621.99
491.54	2211.81
491.74	2562.01
491.94	3028.95
492.14	3143.63
492.34	2983.89
492.54	2512.86
492.75	2314.20
492.95	2224.09
493.15	2115.55
493.35	1992.67
493.55	1966.05
493.75	1875.94
493.95	1902.56
494.15	1834.98
494.35	1634.28
494.56	1587.18
494.76	1531.88
494.96	1513.45
495.16	1535.98
495.36	1396.71
495.56	1445.87
495.76	1382.38
495.96	1396.71
496.16	1447.91
496.36	1492.97
496.56	1370.09
496.77	1425.39
496.97	1347.56
497.17	1402.86
497.37	1310.70
497.57	1409.00
497.77	1386.47
497.97	1392.62
498.17	1361.90
498.37	1331.18
498.57	1380.33
498.77	1376.24
498.97	1378.28
499.17	1425.39
499.38	1370.09
499.58	1425.39
499.78	1417.19
499.98	1466.35
500.18	1429.48
500.38	1400.81
500.58	1695.72
500.78	2916.31
500.98	5832.62
501.18	6915.99
501.38	8308.61
501.58	8574.85
501.78	7458.70
501.98	5695.40
502.18	5263.28
502.38	4509.63
502.58	4061.12
502.78	3770.31
502.98	3602.38
503.18	3469.26
503.38	3289.04
503.59	2922.45
503.79	2830.29
503.99	2592.73
504.19	2396.12
504.39	2144.22
504.59	2033.63
504.79	1843.17
504.99	1830.88
505.19	1632.23
505.39	1587.18
505.59	1654.76
505.79	1566.70
505.99	1486.83
506.19	1476.59
506.39	1546.22
506.59	1468.39
506.79	1415.15
506.99	1476.59
507.19	1380.33
507.39	1470.44
507.59	1374.19
507.79	1415.15
507.99	1306.60
508.19	1409.00
508.39	1384.43
508.59	1329.13
508.79	1413.10
508.99	1427.43
509.19	1363.95
509.39	1464.30
509.59	1368.04
509.79	1310.70
509.99	1398.76
510.19	1456.11
510.39	1431.53
510.59	1431.53
510.79	1380.33
510.99	1345.52
511.19	1419.24
511.39	1431.53
511.59	1310.70
511.79	1447.91
511.99	1374.19
512.19	1390.57
512.38	1386.47
512.58	1388.52
512.78	1439.72
512.98	1363.95
513.18	1495.02
513.38	1329.13
513.58	1454.06
513.78	1368.04
513.98	1359.85
514.18	1347.56
514.38	1351.66
514.58	1392.62
514.78	1335.28
514.98	1329.13
515.18	1357.80
515.38	1417.19
515.58	1466.35
515.78	1353.71
515.98	1347.56
516.18	1357.80
516.38	1314.80
516.57	1423.34
516.77	1347.56
516.97	1388.52
517.17	1322.99
517.37	1349.61
517.57	1515.50
517.77	1312.75
517.97	1376.24
518.17	1474.54
518.37	1386.47
518.57	1366.00
518.77	1333.23
518.97	1384.43
519.16	1413.10
519.36	1411.05
519.56	1423.34
519.76	1357.80
519.96	1363.95
520.16	1413.10
520.36	1351.66
520.56	1392.62
520.76	1347.56
520.96	1273.84
521.16	1409.00
521.35	1415.15
521.55	1402.86
521.75	1357.80
521.95	1411.05
522.15	1329.13
522.35	1310.70
522.55	1320.94
522.75	1435.63
522.95	1402.86
523.14	1341.42
523.34	1357.80
523.54	1312.75
523.74	1427.43
523.94	1413.10
524.14	1277.93
524.34	1361.90
524.54	1419.24
524.73	1314.80
524.93	1441.77
525.13	1363.95
525.33	1372.14
525.53	1435.63
525.73	1310.70
525.93	1388.52
526.13	1337.32
526.32	1417.19
526.52	1437.67
526.72	1406.95
526.92	1286.12
527.12	1396.71
527.32	1343.47
527.52	1462.25
527.71	1413.10
527.91	1386.47
528.11	1282.03
528.31	1425.39
528.51	1345.52
528.71	1396.71
528.90	1353.71
529.10	1427.43
529.30	1490.92
529.50	1277.93
529.70	1363.95
529.90	1292.27
530.09	1368.04
530.29	1419.24
530.49	1374.19
530.69	1411.05
530.89	1386.47
531.09	1427.43
531.28	1386.47
531.48	1341.42
531.68	1306.60
531.88	1382.38
532.08	1409.00
532.28	1337.32
532.47	1421.29
532.67	1411.05
532.87	1329.13
533.07	1286.12
533.27	1335.28
533.46	1454.06
533.66	1468.39
533.86	1339.37
534.06	1411.05
534.26	1406.95
534.45	1357.80
534.65	1433.58
534.85	1382.38
535.05	1439.72
535.25	1425.39
535.44	1427.43
535.64	1339.37
535.84	1314.80
536.04	1370.09
536.24	1290.22
536.43	1421.29
536.63	1484.78
536.83	1437.67
537.03	1329.13
537.22	1349.61
537.42	1341.42
537.62	1419.24
537.82	1378.28
538.02	1433.58
538.21	1384.43
538.41	1374.19
538.61	1384.43
538.81	1462.25
539.00	1398.76
539.20	1355.76
539.40	1320.94
539.60	1396.71
539.79	1462.25
539.99	1370.09
540.19	1322.99
540.39	1320.94
540.58	1433.58
540.78	1347.56
540.98	1392.62
541.18	1378.28
541.37	1402.86
541.57	1363.95
541.77	1413.10
541.97	1390.57
542.16	1378.28
542.36	1368.04
542.56	1443.82
542.76	1370.09
542.95	1378.28
543.15	1361.90
543.35	1390.57
543.54	1318.89
543.74	1363.95
543.94	1486.83
544.14	1376.24
544.33	1322.99
544.53	1353.71
544.73	1388.52
544.93	1411.05
545.12	1314.80
545.32	1421.29
545.52	1351.66
545.71	1378.28
545.91	1308.65
546.11	1355.76
546.30	1302.51
546.50	1427.43
546.70	1413.10
546.90	1331.18
547.09	1331.18
547.29	1366.00
547.49	1368.04
547.68	1306.60
547.88	1339.37
548.08	1366.00
548.27	1662.95
548.47	1388.52
548.67	1327.08
548.87	1357.80
549.06	1384.43
549.26	1361.90
549.46	1419.24
549.65	1396.71
549.85	1376.24
550.05	1357.80
550.24	1343.47
550.44	1376.24
550.64	1277.93
550.83	1370.09
551.03	1437.67
551.23	1421.29
551.42	1327.08
551.62	1376.24
551.82	1327.08
552.01	1341.42
552.21	1341.42
552.41	1413.10
552.60	1402.86
552.80	1394.67
553.00	1343.47
553.19	1355.76
553.39	1433.58
553.59	1370.09
553.78	1357.80
553.98	1378.28
554.17	1390.57
554.37	1404.91
554.57	1374.19
554.76	1335.28
554.96	1337.32
555.16	1392.62
555.35	1361.90
555.55	1380.33
555.75	1376.24
555.94	1406.95
556.14	1282.03
556.33	1402.86
556.53	1386.47
556.73	1382.38
556.92	1476.59
557.12	1454.06
557.32	1411.05
557.51	1456.11
557.71	1406.95
557.90	1374.19
558.10	1386.47
558.30	1337.32
558.49	1341.42
558.69	1366.00
558.88	1396.71
559.08	1351.66
559.28	1333.23
559.47	1298.41
559.67	1423.34
559.86	1361.90
560.06	1480.68
560.26	1400.81
560.45	1335.28
560.65	1429.48
560.84	1366.00
561.04	1318.89
561.24	1419.24
561.43	1378.28
561.63	1363.95
561.82	1404.91
562.02	1376.24
562.22	1372.14
562.41	1318.89
562.61	1316.84
562.80	1302.51
563.00	1476.59
563.19	1423.34
563.39	1447.91
563.59	1402.86
563.78	1349.61
563.98	1322.99
564.17	1378.28
564.37	1337.32
564.56	1372.14
564.76	1243.12
564.96	1480.68
565.15	1429.48
565.35	1519.59
565.54	1394.67
565.74	1357.80
565.93	1322.99
566.13	1345.52
566.32	1411.05
566.52	1361.90
566.71	1329.13
566.91	1363.95
567.11	1423.34
567.30	1435.63
567.50	1443.82
567.69	1329.13
567.89	1390.57
568.08	1361.90
568.28	1361.90
568.47	1257.45
568.67	1318.89
568.86	1421.29
569.06	1359.85
569.25	1314.80
569.45	1310.70
569.64	1322.99
569.84	1406.95
570.04	1406.95
570.23	1318.89
570.43	1363.95
570.62	1386.47
570.82	1495.02
571.01	1398.76
571.21	1347.56
571.40	1368.04
571.60	1470.44
571.79	1429.48
571.99	1363.95
572.18	1308.65
572.38	1415.15
572.57	1437.67
572.77	1409.00
572.96	1456.11
573.16	1333.23
573.35	1302.51
573.55	1456.11
573.74	1380.33
573.94	1427.43
574.13	1390.57
574.33	1439.72
574.52	1435.63
574.71	1380.33
574.91	1378.28
575.10	1372.14
575.30	1353.71
575.49	1370.09
575.69	1386.47
575.88	1441.77
576.08	1355.76
576.27	1419.24
576.47	1511.40
576.66	1505.26
576.86	1439.72
577.05	1443.82
577.25	1415.15
577.44	1535.98
577.64	1363.95
577.83	1411.05
578.02	1472.49
578.22	1490.92
578.41	1443.82
578.61	1400.81
578.80	1308.65
579.00	1382.38
579.19	1443.82
579.39	1513.45
579.58	1460.20
579.77	1380.33
579.97	1413.10
580.16	1511.40
580.36	1462.25
580.55	1513.45
580.75	1466.35
580.94	1423.34
581.13	1527.78
581.33	1568.74
581.52	1427.43
581.72	1556.46
581.91	1499.11
582.11	1419.24
582.30	1431.53
582.49	1462.25
582.69	1406.95
582.88	1406.95
583.08	1431.53
583.27	1439.72
583.47	1333.23
583.66	1374.19
583.85	1392.62
584.05	1376.24
584.24	1363.95
584.44	1542.12
584.63	1531.88
584.82	1548.26
585.02	1544.17
585.21	1548.26
585.41	1562.60
585.60	1624.04
585.79	1710.05
585.99	1642.47
586.18	1617.90
586.37	1822.69
586.57	2678.74
586.76	8064.90
586.96	24157.84
587.15	41051.53
587.34	51862.76
587.54	59698.29
587.73	59368.57
587.93	44367.20
588.12	32630.29
588.31	26650.22
588.51	22578.86
588.70	19932.88
588.89	18149.10
589.09	16889.60
589.28	15869.71
589.47	14165.80
589.67	12543.81
589.86	10561.37
590.06	8533.89
590.25	6692.76
590.44	4843.45
590.64	3645.38
590.83	2861.01
591.02	2287.58
591.22	1945.57
591.41	1708.01
591.60	1531.88
591.80	1603.56
591.99	1501.16
592.18	1488.87
592.38	1460.20
592.57	1445.87
592.76	1486.83
592.96	1470.44
593.15	1378.28
593.34	1490.92
593.54	1417.19
593.73	1474.54
593.92	1386.47
594.12	1460.20
594.31	1452.01
594.50	1499.11
594.70	1503.21
594.89	1632.23
595.08	1335.28
595.28	1439.72
595.47	1519.59
595.66	1447.91
595.86	1417.19
596.05	1439.72
596.24	1388.52
596.43	1482.73
596.63	1456.11
596.82	1474.54
597.01	1431.53
597.21	1386.47
597.40	1392.62
597.59	1490.92
597.79	1429.48
597.98	1439.72
598.17	1456.11
598.36	1359.85
598.56	1392.62
598.75	1361.90
598.94	1454.06
599.14	1427.43
599.33	1384.43
599.52	1490.92
599.71	1415.15
599.91	1388.52
600.10	1359.85
600.29	1417.19
600.48	1398.76
600.68	1452.01
600.87	1390.57
601.06	1370.09
601.26	1384.43
601.45	1404.91
601.64	1429.48
601.83	1497.07
602.03	1372.14
602.22	1378.28
602.41	1435.63
602.60	1470.44
602.80	1404.91
602.99	1460.20
603.18	1390.57
603.37	1419.24
603.57	1382.38
603.76	1456.11
603.95	1378.28
604.14	1386.47
604.34	1341.42
604.53	1384.43
604.72	1384.43
604.91	1353.71
605.10	1294.32
605.30	1357.80
605.49	1411.05
605.68	1396.71
605.87	1368.04
606.07	1335.28
606.26	1429.48
606.45	1406.95
606.64	1435.63
606.84	1409.00
607.03	1320.94
607.22	1441.77
607.41	1425.39
607.60	1460.20
607.80	1495.02
607.99	1394.67
608.18	1400.81
608.37	1409.00
608.56	1363.95
608.76	1417.19
608.95	1425.39
609.14	1443.82
609.33	1421.29
609.52	1529.83
609.72	1568.74
609.91	1470.44
610.10	1454.06
610.29	1482.73
610.48	1409.00
610.68	1445.87
610.87	1376.24
611.06	1470.44
611.25	1413.10
611.44	1427.43
611.63	1372.14
611.83	1437.67
612.02	1400.81
612.21	1470.44
612.40	1339.37
612.59	1376.24
612.79	1411.05
612.98	1363.95
613.17	1366.00
613.36	1413.10
613.55	1538.02
613.74	1464.30
613.93	1578.98
614.13	1515.50
614.32	1687.53
614.51	1601.51
614.70	1583.08
614.89	1495.02
615.08	1472.49
615.28	1738.73
615.47	1372.14
615.66	1517.54
615.85	1441.77
616.04	1511.40
616.23	1488.87
616.42	1413.10
616.62	1425.39
616.81	1427.43
617.00	1392.62
617.19	1429.48
617.38	1378.28
617.57	1411.05
617.76	1445.87
617.95	1417.19
618.15	1396.71
618.34	1413.10
618.53	1394.67
618.72	1431.53
618.91	1388.52
619.10	1423.34
619.29	1421.29
619.48	1409.00
619.68	1394.67
619.87	1392.62
620.06	1292.27
620.25	1378.28
620.44	1361.90
620.63	1366.00
620.82	1322.99
621.01	1337.32
621.20	1370.09
621.39	1413.10
621.59	1380.33
621.78	1384.43
621.97	1372.14
622.16	1370.09
622.35	1374.19
622.54	1415.15
622.73	1423.34
622.92	1357.80
623.11	1409.00
623.30	1382.38
623.49	1409.00
623.68	1300.46
623.88	1413.10
624.07	1396.71
624.26	1314.80
624.45	1433.58
624.64	1398.76
624.83	1368.04
625.02	1366.00
625.21	1316.84
625.40	1339.37
625.59	1443.82
625.78	1363.95
625.97	1404.91
626.16	1415.15
626.35	1419.24
626.54	1443.82
626.74	1445.87
626.93	1413.10
627.12	1380.33
627.31	1427.43
627.50	1392.62
627.69	1411.05
627.88	1413.10
628.07	1417.19
628.26	1290.22
628.45	1310.70
628.64	1314.80
628.83	1390.57
629.02	1349.61
629.21	1398.76
629.40	1404.91
629.59	1378.28
629.78	1468.39
629.97	1423.34
630.16	1374.19
630.35	1392.62
630.54	1353.71
630.73	1353.71
630.92	1425.39
631.11	1345.52
631.30	1370.09
631.49	1445.87
631.68	1300.46
631.87	1351.66
632.06	1380.33
632.25	1445.87
632.44	1388.52
632.63	1361.90
632.82	1370.09
633.01	1384.43
633.20	1501.16
633.39	1544.17
633.58	1441.77
633.77	1484.78
633.96	1470.44
634.15	1484.78
634.34	1361.90
634.53	1511.40
634.72	1361.90
634.91	1380.33
635.10	1390.57
635.29	1394.67
635.48	1429.48
635.67	1415.15
635.86	1320.94
636.05	1390.57
636.24	1351.66
636.43	1435.63
636.62	1472.49
636.81	1220.59
637.00	1312.75
637.19	1386.47
637.38	1370.09
637.57	1368.04
637.76	1445.87
637.95	1495.02
638.14	1507.30
638.33	1529.83
638.52	1503.21
638.71	1449.96
638.89	1431.53
639.08	1441.77
639.27	1480.68
639.46	1533.93
639.65	1634.28
639.84	1865.70
640.03	2039.78
640.22	2105.31
640.41	2146.27
640.60	1968.10
640.79	1740.77
640.98	1689.57
641.17	1615.85
641.36	1595.37
641.55	1535.98
641.74	1542.12
641.92	1513.45
642.11	1499.11
642.30	1466.35
642.49	1462.25
642.68	1417.19
642.87	1392.62
643.06	1400.81
643.25	1464.30
643.44	1337.32
643.63	1359.85
643.82	1417.19
644.00	1349.61
644.19	1333.23
644.38	1374.19
644.57	1439.72
644.76	1343.47
644.95	1363.95
645.14	1415.15
645.33	1316.84
645.52	1452.01
645.71	1322.99
645.89	1333.23
646.08	1439.72
646.27	1366.00
646.46	1460.20
646.65	1308.65
646.84	1363.95
647.03	1296.36
647.22	1449.96
647.40	1355.76
647.59	1331.18
647.78	1329.13
647.97	1372.14
648.16	1339.37
648.35	1400.81
648.54	1359.85
648.73	1406.95
648.91	1406.95
649.10	1439.72
649.29	1411.05
649.48	1396.71
649.67	1337.32
649.86	1318.89
650.05	1443.82
650.23	1482.73
650.42	1464.30
650.61	1683.43
650.80	1619.94
650.99	1492.97
651.18	1478.63
651.36	1521.64
651.55	1425.39
651.74	1462.25
651.93	1402.86
652.12	1462.25
652.31	1406.95
652.49	1351.66
652.68	1374.19
652.87	1462.25
653.06	1421.29
653.25	1511.40
653.44	1388.52
653.62	1458.15
653.81	1366.00
654.00	1398.76
654.19	1411.05
654.38	1499.11
654.56	1415.15
654.75	1339.37
654.94	1441.77
655.13	1390.57
655.32	1419.24
655.51	1363.95
655.69	1427.43
655.88	1406.95
656.07	1314.80
656.26	1443.82
656.45	1343.47
656.63	1427.43
656.82	1406.95
657.01	1417.19
657.20	1370.09
657.38	1445.87
657.57	1366.00
657.76	1341.42
657.95	1409.00
658.14	1386.47
658.32	1439.72
658.51	1390.57
658.70	1370.09
658.89	1329.13
659.08	1396.71
659.26	1370.09
659.45	1345.52
659.64	1492.97
659.83	1437.67
660.01	1505.26
660.20	1449.96
660.39	1570.79
660.58	1282.03
660.76	1452.01
660.95	1386.47
661.14	1417.19
661.33	1329.13
661.51	1357.80
661.70	1306.60
661.89	1347.56
662.08	1357.80
662.26	1380.33
662.45	1345.52
662.64	1435.63
662.83	1415.15
663.01	1310.70
663.20	1386.47
663.39	1343.47
663.58	1273.84
663.76	1314.80
663.95	1423.34
664.14	1376.24
664.32	1329.13
664.51	1390.57
664.70	1265.64
664.89	1404.91
665.07	1314.80
665.26	1503.21
665.45	1331.18
665.64	1366.00
665.82	1417.19
666.01	1404.91
666.20	1370.09
666.38	1507.30
666.57	1460.20
666.76	1589.22
666.95	2095.07
667.13	4456.38
667.32	11476.82
667.51	17962.73
667.69	21499.58
667.88	24737.41
668.07	24721.03
668.25	19140.32
668.44	13612.85
668.63	11143.00
668.81	9211.76
669.00	8118.15
669.19	7452.56
669.38	6784.92
669.56	6322.08
669.75	5623.72
669.94	4970.42
670.12	4278.21
670.31	3434.44
670.50	2930.64
670.68	2447.32
670.87	2086.88
671.06	1818.60
671.24	1753.06
671.43	1683.43
671.62	1505.26
671.80	1468.39
671.99	1488.87
672.18	1431.53
672.36	1468.39
672.55	1439.72
672.74	1439.72
672.92	1392.62
673.11	1458.15
673.29	1343.47
673.48	1443.82
673.67	1404.91
673.85	1411.05
674.04	1329.13
674.23	1413.10
674.41	1468.39
674.60	1390.57
674.79	1327.08
674.97	1400.81
675.16	1363.95
675.34	1347.56
675.53	1353.71
675.72	1347.56
675.90	1419.24
676.09	1400.81
676.28	1345.52
676.46	1351.66
676.65	1413.10
676.83	1368.04
677.02	1417.19
677.21	1394.67
677.39	1425.39
677.58	1269.74
677.77	1339.37
677.95	1351.66
678.14	1361.90
678.32	1357.80
678.51	1400.81
678.70	1433.58
678.88	1460.20
679.07	1445.87
679.25	1370.09
679.44	1351.66
679.63	1331.18
679.81	1392.62
680.00	1398.76
680.18	1351.66
680.37	1445.87
680.55	1388.52
680.74	1345.52
680.93	1388.52
681.11	1404.91
681.30	1415.15
681.48	1384.43
681.67	1329.13
681.85	1390.57
682.04	1359.85
682.23	1396.71
682.41	1288.17
682.60	1363.95
682.78	1361.90
682.97	1327.08
683.15	1322.99
683.34	1353.71
683.53	1370.09
683.71	1304.56
683.90	1460.20
684.08	1464.30
684.27	1345.52
684.45	1345.52
684.64	1449.96
684.82	1376.24
685.01	1439.72
685.19	1331.18
685.38	1452.01
685.57	1318.89
685.75	1345.52
685.94	1341.42
686.12	1337.32
686.31	1329.13
686.49	1398.76
686.68	1259.50
686.86	1374.19
687.05	1273.84
687.23	1452.01
687.42	1370.09
687.60	1294.32
687.79	1370.09
687.97	1378.28
688.16	1427.43
688.34	1353.71
688.53	1304.56
688.71	1400.81
688.90	1343.47
689.08	1347.56
689.27	1376.24
689.45	1396.71
689.64	1429.48
689.82	1351.66
690.01	1378.28
690.19	1333.23
690.38	1468.39
690.56	1423.34
690.75	1339.37
690.93	1333.23
691.12	1355.76
691.30	1390.57
691.49	1351.66
691.67	1306.60
691.86	1452.01
692.04	1308.65
692.23	1392.62
692.41	1431.53
692.60	1523.69
692.78	1538.02
692.97	1396.71
693.15	1454.06
693.34	1523.69
693.52	1400.81
693.71	1327.08
693.89	1437.67
694.08	1333.23
694.26	1394.67
694.44	1325.04
694.63	1415.15
694.81	1384.43
695.00	1370.09
695.18	1419.24
695.37	1476.59
695.55	1400.81
695.74	1429.48
695.92	1398.76
696.10	1423.34
696.29	1300.46
696.47	1331.18
696.66	1329.13
696.84	1347.56
697.03	1382.38
697.21	1464.30
697.40	1751.01
697.58	1492.97
697.76	1366.00
697.95	1396.71
698.13	1363.95
698.32	1355.76
698.50	1273.84
698.68	1384.43
698.87	1337.32
699.05	1497.07
699.24	1388.52
699.42	1271.79
699.61	1357.80
699.79	1363.95
699.97	1374.19
700.16	1357.80
700.34	1335.28
700.53	1406.95
700.71	1472.49
700.89	1372.14
701.08	1363.95
701.26	1306.60
701.45	1679.33
701.63	1456.11
701.81	1384.43
702.00	1359.85
702.18	1415.15
702.37	1349.61
702.55	1378.28
702.73	1505.26
702.92	1535.98
703.10	1671.14
703.28	1673.19
703.47	1644.52
703.65	1654.76
703.84	1503.21
704.02	1511.40
704.20	1550.31
704.39	1370.09
704.57	1404.91
704.75	1497.07
704.94	1503.21
705.12	1470.44
705.30	1460.20
705.49	1566.70
705.67	1771.49
705.86	3506.12
706.04	9119.60
706.22	15763.22
706.41	19668.69
706.59	22369.96
706.77	23506.59
706.96	19660.50
707.14	13985.58
707.32	11229.01
707.51	9244.53
707.69	8210.31
707.87	7366.54
708.06	6780.82
708.24	5992.36
708.42	5025.72
708.61	4059.07
708.79	2949.08
708.97	2342.88
709.16	1955.81
709.34	1763.30
709.52	1521.64
709.71	1562.60
709.89	1593.32
710.07	1495.02
710.26	1425.39
710.44	1372.14
710.62	1460.20
710.80	1380.33
710.99	1527.78
711.17	1421.29
711.35	1386.47
711.54	1327.08
711.72	1406.95
711.90	1423.34
712.09	1417.19
712.27	1337.32
712.45	1437.67
712.63	1265.64
712.82	1347.56
713.00	1384.43
713.18	1433.58
713.37	1396.71
713.55	1396.71
713.73	1345.52
713.91	1380.33
714.10	1351.66
714.28	1355.76
714.46	1474.54
714.65	1394.67
714.83	1445.87
715.01	1357.80
715.19	1368.04
715.38	1322.99
715.56	1357.80
715.74	1361.90
715.92	1331.18
716.11	1427.43
716.29	1325.04
716.47	1327.08
716.65	1314.80
716.84	1269.74
717.02	1427.43
717.20	1320.94
717.38	1380.33
717.57	1384.43
717.75	1380.33
717.93	1411.05
718.11	1456.11
718.30	1304.56
718.48	1320.94
718.66	1419.24
718.84	1456.11
719.03	1388.52
719.21	1292.27
719.39	1357.80
719.57	1476.59
719.75	1345.52
719.94	1245.16
720.12	1288.17
720.30	1400.81
720.48	1372.14
720.67	1357.80
720.85	1409.00
721.03	1351.66
721.21	1320.94
721.39	1486.83
721.58	1447.91
721.76	1417.19
721.94	1421.29
722.12	1349.61
722.30	1406.95
722.49	1402.86
722.67	1384.43
722.85	1349.61
723.03	1390.57
723.21	1275.88
723.40	1423.34
723.58	1392.62
723.76	1419.24
723.94	1402.86
724.12	1421.29
724.30	1449.96
724.49	1490.92
724.67	1495.02
724.85	1495.02
725.03	1456.11
725.21	1476.59
725.40	1411.05
725.58	1386.47
725.76	1437.67
725.94	1355.76
726.12	1421.29
726.30	1357.80
726.49	1359.85
726.67	1343.47
726.85	1376.24
727.03	1445.87
727.21	1501.16
727.39	1601.51
727.57	2027.49
727.76	3366.86
727.94	4460.48
728.12	4900.79
728.30	5228.46
728.48	5224.37
728.66	4241.34
728.84	3442.64
729.03	3141.58
729.21	2830.29
729.39	2643.93
729.57	2170.85
729.75	2019.30
729.93	1791.97
730.11	1630.18
730.30	1542.12
730.48	1460.20
730.66	1417.19
730.84	1376.24
731.02	1437.67
731.20	1357.80
731.38	1368.04
731.56	1411.05
731.74	1343.47
731.93	1443.82
732.11	1310.70
732.29	1361.90
732.47	1392.62
732.65	1404.91
732.83	1396.71
733.01	1472.49
733.19	1277.93
733.37	1392.62
733.56	1439.72
733.74	1423.34
733.92	1372.14
734.10	1349.61
734.28	1343.47
734.46	1347.56
734.64	1341.42
734.82	1355.76
735.00	1343.47
735.18	1370.09
735.36	1409.00
735.54	1419.24
735.73	1343.47
735.91	1374.19
736.09	1421.29
736.27	1406.95
736.45	1400.81
736.63	1322.99
736.81	1343.47
736.99	1462.25
737.17	1443.82
737.35	1300.46
737.53	1427.43
737.71	1353.71
737.89	1433.58
738.07	1380.33
738.25	1347.56
738.43	1298.41
738.61	1374.19
738.80	1273.84
738.98	1325.04
739.16	1382.38
739.34	1370.09
739.52	1396.71
739.70	1337.32
739.88	1363.95
740.06	1402.86
740.24	1339.37
740.42	1394.67
740.60	1306.60
740.78	1306.60
740.96	1316.84
741.14	1345.52
741.32	1312.75
741.50	1259.50
741.68	1368.04
741.86	1349.61
742.04	1363.95
742.22	1372.14
742.40	1380.33
742.58	1404.91
742.76	1318.89
742.94	1351.66
743.12	1345.52
743.30	1355.76
743.48	1472.49
743.66	1417.19
743.84	1468.39
744.02	1382.38
744.20	1386.47
744.38	1361.90
744.56	1378.28
744.74	1417.19
744.92	1402.86
745.10	1376.24
745.28	1439.72
745.46	1433.58
745.64	1296.36
745.82	1366.00
746.00	1357.80
746.18	1421.29
746.36	1359.85
746.54	1372.14
746.72	1363.95
746.90	1384.43
747.08	1452.01
747.26	1380.33
747.44	1372.14
747.62	1398.76
747.80	1480.68
747.98	1419.24
748.15	1404.91
748.33	1415.15
748.51	1400.81
748.69	1320.94
748.87	1341.42
749.05	1310.70
749.23	1417.19
749.41	1402.86
749.59	1415.15
749.77	1376.24
749.95	1386.47
750.13	1361.90
750.31	1427.43
750.49	1279.98
750.67	1427.43
750.85	1439.72
751.03	1306.60
751.20	1363.95
751.38	1314.80
751.56	1329.13
751.74	1302.51
751.92	1374.19
752.10	1329.13
752.28	1374.19
752.46	1335.28
752.64	1341.42
752.82	1318.89
753.00	1355.76
753.18	1327.08
753.35	1417.19
753.53	1279.98
753.71	1345.52
753.89	1363.95
754.07	1361.90
754.25	1406.95
754.43	1394.67
754.61	1308.65
754.79	1384.43
754.97	1402.86
755.14	1404.91
755.32	1320.94
755.50	1376.24
755.68	1329.13
755.86	1314.80
756.04	1396.71
756.22	1363.95
756.40	1372.14
756.57	1409.00
756.75	1355.76
756.93	1384.43
757.11	1429.48
757.29	1290.22
757.47	1325.04
757.65	1363.95
757.82	1290.22
758.00	1322.99
758.18	1327.08
758.36	1361.90
758.54	1458.15
758.72	1253.36
758.90	1439.72
759.07	1402.86
759.25	1378.28
759.43	1423.34
759.61	1294.32
759.79	1658.85
759.97	1404.91
760.15	1398.76
760.32	1339.37
760.50	1327.08
760.68	1394.67
760.86	1253.36
761.04	1382.38
761.22	1460.20
761.39	1384.43
761.57	1394.67
761.75	1402.86
761.93	1411.05
762.11	1331.18
762.28	1366.00
762.46	1339.37
762.64	1361.90
762.82	1361.90
763.00	1390.57
763.18	1484.78
763.35	1327.08
763.53	1320.94
763.71	1382.38
763.89	1390.57
764.07	1366.00
764.24	1368.04
764.42	1402.86
764.60	1363.95
764.78	1374.19
764.96	1419.24
765.13	1343.47
765.31	1390.57
765.49	1415.15
765.67	1347.56
765.84	1390.57
766.02	1368.04
766.20	1273.84
766.38	1382.38
766.56	1320.94
766.73	1322.99
766.91	1368.04
767.09	1361.90
767.27	1394.67
767.44	1361.90
767.62	1382.38
767.80	1368.04
767.98	1302.51
768.15	1343.47
768.33	1347.56
768.51	1390.57
768.69	1423.34
768.87	1456.11
769.04	1384.43
769.22	1394.67
769.40	1392.62
769.58	1435.63
769.75	1372.14
769.93	1452.01
770.11	1282.03
770.28	1329.13
770.46	1337.32
770.64	1335.28
770.82	1378.28
770.99	1374.19
771.17	1435.63
771.35	1353.71
771.53	1419.24
771.70	1308.65
771.88	1443.82
772.06	1351.66
772.23	1380.33
772.41	1376.24
772.59	1345.52
772.77	1339.37
772.94	1298.41
773.12	1380.33
773.30	1333.23
773.47	1345.52
773.65	1331.18
773.83	1427.43
774.01	1370.09
774.18	1294.32
774.36	1349.61
774.54	1345.52
774.71	1271.79
774.89	1380.33
775.07	1333.23
775.24	1396.71
775.42	1335.28
775.60	1392.62
775.78	1355.76
775.95	1355.76
776.13	1263.60
776.31	1265.64
776.48	1499.11
776.66	1505.26
776.84	1296.36
777.01	1384.43
777.19	1351.66
777.37	1298.41
777.54	1427.43
777.72	1425.39
777.90	1406.95
778.07	1331.18
778.25	1402.86
778.43	1447.91
778.60	1331.18
778.78	1402.86
778.96	1425.39
779.13	1388.52
779.31	1292.27
779.49	1411.05
779.66	1376.24
779.84	1343.47
780.01	1431.53
780.19	1370.09
780.37	1409.00
780.54	1378.28
780.72	1263.60
780.90	1316.84
781.07	1339.37
781.25	1415.15
781.43	1437.67
781.60	1409.00
781.78	1376.24
781.95	1286.12
782.13	1374.19
782.31	1419.24
782.48	1243.12
782.66	1353.71
782.83	1431.53
783.01	1423.34
783.19	1398.76
783.36	1286.12
783.54	1421.29
783.72	1378.28
783.89	1357.80
784.07	1437.67
784.24	1400.81
784.42	1329.13
784.60	1480.68
784.77	1392.62
784.95	1286.12
785.12	1333.23
785.30	1296.36
785.47	1355.76
785.65	1269.74
785.83	1470.44
786.00	1384.43
786.18	1388.52
786.35	1341.42
786.53	1390.57
786.71	1429.48
786.88	1447.91
787.06	1370.09
787.23	1359.85
787.41	1269.74
787.58	1454.06
787.76	1296.36
787.94	1449.96
788.11	1331.18
788.29	1359.85
788.46	1400.81
788.64	1310.70
788.81	1357.80
788.99	1335.28
789.16	1277.93
789.34	1433.58
789.52	1394.67
789.69	1437.67
789.87	1327.08
790.04	1343.47
790.22	1368.04
790.39	1449.96
790.57	1294.32
790.74	1339.37
790.92	1388.52
791.09	1347.56
791.27	1271.79
791.44	1425.39
791.62	1413.10
791.79	1380.33
791.97	1310.70
792.15	1441.77
792.32	1400.81
792.50	1382.38
792.67	1384.43
792.85	1388.52
793.02	1415.15
793.20	1351.66
793.37	1294.32
793.55	1339.37
793.72	1382.38
793.90	1325.04
794.07	1337.32
794.25	1277.93
794.42	1368.04
794.60	1370.09
794.77	1394.67
794.95	1347.56
795.12	1329.13
795.30	1310.70
795.47	1296.36
795.65	1480.68
795.82	1409.00
796.00	1363.95
796.17	1370.09
796.34	1327.08
796.52	1359.85
796.69	1398.76
796.87	1421.29
797.04	1357.80
797.22	1429.48
797.39	1341.42
797.57	1384.43
797.74	1366.00
797.92	1372.14
798.09	1341.42
798.27	1347.56
798.44	1386.47
798.62	1341.42
798.79	1370.09
798.96	1454.06
799.14	1349.61
799.31	1380.33
799.49	1353.71
799.66	1279.98
799.84	1415.15
800.01	1411.05
800.19	1386.47
800.36	1273.84
800.53	1370.09
800.71	1347.56
800.88	1417.19
801.06	1320.94
801.23	1347.56
801.41	1402.86
801.58	1363.95
801.75	1312.75
801.93	1368.04
802.10	1363.95
802.28	1392.62
802.45	1347.56
802.63	1402.86
802.80	1333.23
802.97	1386.47
803.15	1363.95
803.32	1402.86
803.50	1406.95
803.67	1304.56
803.84	1390.57
804.02	1445.87
804.19	1357.80
804.37	1298.41
804.54	1312.75
804.71	1441.77
804.89	1333.23
805.06	1376.24
805.24	1343.47
805.41	1390.57
805.58	1347.56
805.76	1429.48
805.93	1345.52
806.10	1474.54
806.28	1404.91
806.45	1359.85
806.63	1351.66
806.80	1431.53
806.97	1376.24
807.15	1368.04
807.32	1347.56
807.49	1302.51
807.67	1310.70
807.84	1380.33
808.01	1312.75
808.19	1433.58
808.36	1429.48
808.54	1447.91
808.71	1333.23
808.88	1406.95
809.06	1396.71
809.23	1437.67
809.40	1376.24
809.58	1484.78
809.75	1320.94
809.92	1355.76
810.10	1482.73
810.27	1304.56
810.44	1392.62
810.62	1374.19
810.79	1421.29
810.96	1400.81
811.14	1351.66
811.31	1298.41
811.48	1402.86
811.66	1372.14
811.83	1368.04
812.00	1443.82
812.18	1374.19
812.35	1425.39
812.52	1198.06
812.69	1384.43
812.87	1357.80
813.04	1269.74
813.21	1390.57
813.39	1331.18
813.56	1343.47
813.73	1343.47
813.91	1349.61
814.08	1353.71
814.25	1359.85
814.42	1372.14
814.60	1273.84
814.77	1411.05
814.94	1322.99
815.12	1406.95
815.29	1427.43
815.46	1300.46
815.63	1331.18
815.81	1353.71
815.98	1339.37
816.15	1337.32
816.33	1341.42
816.50	1386.47
816.67	1404.91
816.84	1325.04
817.02	1318.89
817.19	1343.47
817.36	1335.28
817.53	1380.33
817.71	1357.80
817.88	1406.95
818.05	1320.94
818.22	1306.60
818.40	1404.91
818.57	1384.43
818.74	1308.65
818.91	1382.38
819.09	1349.61
819.26	1363.95
819.43	1327.08
819.60	1310.70
819.78	1351.66
819.95	1443.82
820.12	1327.08
820.29	1458.15
820.47	1316.84
820.64	1341.42
820.81	1329.13
820.98	1355.76
821.15	1306.60
821.33	1398.76
821.50	1310.70
821.67	1396.71
821.84	1355.76
822.02	1394.67
822.19	1396.71
822.36	1265.64
822.53	1320.94
822.70	1349.61
822.88	1384.43
823.05	1421.29
823.22	1443.82
823.39	1411.05
823.56	1333.23
823.74	1419.24
823.91	1253.36
824.08	1320.94
824.25	1265.64
824.42	1421.29
824.60	1378.28
824.77	1337.32
824.94	1390.57
825.11	1370.09
825.28	1302.51
825.45	1355.76
825.63	1384.43
825.80	1380.33
825.97	1359.85
826.14	1406.95
826.31	1269.74
826.48	1425.39
826.66	1345.52
826.83	1351.66
827.00	1337.32
827.17	1314.80
827.34	1316.84
827.51	1325.04
827.69	1343.47
827.86	1345.52
828.03	1316.84
828.20	1388.52
828.37	1288.17
828.54	1331.18
828.71	1398.76
828.89	1363.95
829.06	1357.80
829.23	1443.82
829.40	1320.94
829.57	1406.95
829.74	1310.70
829.91	1320.94
830.09	1402.86
830.26	1392.62
830.43	1445.87
830.60	1464.30
830.77	1417.19
830.94	1400.81
831.11	1404.91
831.28	1359.85
831.46	1398.76
831.63	1400.81
831.80	1421.29
831.97	1372.14
832.14	1357.80
832.31	1437.67
832.48	1406.95
832.65	1392.62
832.82	1396.71
832.99	1376.24
833.17	1423.34
833.34	1394.67
833.51	1345.52
833.68	1343.47
833.85	1499.11
834.02	1316.84
834.19	1413.10
834.36	1400.81
834.53	1368.04
834.70	1376.24
834.87	1382.38
835.04	1406.95
835.22	1310.70
835.39	1331.18
835.56	1267.69
835.73	1349.61
835.90	1353.71
836.07	1361.90
836.24	1462.25
836.41	1384.43
836.58	1337.32
836.75	1357.80
836.92	1396.71
837.09	1384.43
837.26	1308.65
837.43	1396.71
837.60	1306.60
837.77	1390.57
837.94	1357.80
838.12	1417.19
838.29	1415.15
838.46	1329.13
838.63	1294.32
838.80	1431.53
838.97	1402.86
839.14	1370.09
839.31	1333.23
839.48	1419.24
839.65	1394.67
839.82	1370.09
839.99	1382.38
840.16	1411.05
840.33	1294.32
840.50	1427.43
840.67	1306.60
840.84	1251.31
841.01	1347.56
841.18	1437.67
841.35	1306.60
841.52	1466.35
841.69	1394.67
841.86	1470.44
842.03	1396.71
842.20	1392.62
842.37	1396.71
842.54	1380.33
842.71	1306.60
842.88	1318.89
843.05	1390.57
843.22	1396.71
843.39	1380.33
843.56	1296.36
843.73	1306.60
843.90	1331.18
844.07	1349.61
844.24	1425.39
844.41	1413.10
844.58	1349.61
844.75	1359.85
844.92	1419.24
845.09	1314.80
845.26	1343.47
845.43	1472.49
845.60	1257.45
845.77	1443.82
845.94	1331.18
846.10	1433.58
846.27	1302.51
846.44	1337.32
846.61	1345.52
846.78	1308.65
846.95	1376.24
847.12	1273.84
847.29	1316.84
847.46	1327.08
847.63	1425.39
847.80	1355.76
847.97	1398.76
848.14	1417.19
848.31	1361.90
848.48	1337.32
848.65	1259.50
848.82	1378.28
848.98	1427.43
849.15	1314.80
849.32	1345.52
849.49	1415.15
849.66	1427.43
849.83	1402.86
850.00	1284.08
850.17	1349.61
850.34	1347.56
850.51	1335.28
850.68	1361.90
850.85	1423.34
851.01	1409.00
851.18	1374.19
851.35	1343.47
851.52	1378.28
851.69	1445.87
851.86	1394.67
852.03	1390.57
852.20	1353.71
852.37	1394.67
852.53	1267.69
852.70	1404.91
852.87	1314.80
853.04	1327.08
853.21	1396.71
853.38	1384.43
853.55	1357.80
853.72	1419.24
853.89	1361.90
854.05	1314.80
854.22	1359.85
854.39	1359.85
854.56	1355.76
854.73	1374.19
854.90	1363.95
855.07	1312.75
855.23	1331.18
855.40	1380.33
855.57	1382.38
855.74	1241.07
855.91	1462.25
856.08	1339.37
856.25	1370.09
856.41	1308.65
856.58	1322.99
856.75	1335.28
856.92	1361.90
857.09	1386.47
857.26	1376.24
857.42	1314.80
857.59	1396.71
857.76	1325.04
857.93	1355.76
858.10	1347.56
858.27	1357.80
858.43	1421.29
858.60	1366.00
858.77	1290.22
858.94	1325.04
859.11	1392.62
859.27	1409.00
859.44	1435.63
859.61	1445.87
859.78	1329.13
859.95	1292.27
860.12	1384.43
860.28	1413.10
860.45	1390.57
860.62	1396.71
860.79	1337.32
860.95	1386.47
861.12	1273.84
861.29	1322.99
861.46	1396.71
861.63	1355.76
861.79	1363.95
861.96	1392.62
862.13	1370.09
862.30	1400.81
862.47	1361.90
862.63	1331.18
862.80	1445.87
862.97	1413.10
863.14	1341.42
863.30	1429.48
863.47	1310.70
863.64	1345.52
863.81	1370.09
863.97	1392.62
864.14	1363.95
864.31	1476.59
864.48	1310.70
864.65	1322.99
864.81	1372.14
864.98	1347.56
865.15	1419.24
865.32	1447.91
865.48	1458.15
865.65	1404.91
865.82	1263.60
865.98	1400.81
866.15	1380.33
866.32	1337.32
866.49	1374.19
866.65	1429.48
866.82	1361.90
866.99	1331.18
867.16	1331.18
867.32	1380.33
867.49	1384.43
867.66	1370.09
867.83	1279.98
867.99	1290.22
868.16	1361.90
868.33	1308.65
868.49	1402.86
868.66	1368.04
868.83	1368.04
868.99	1370.09
869.16	1372.14
869.33	1372.14
869.50	1335.28
869.66	1277.93
869.83	1363.95
870.00	1259.50
870.16	1355.76
870.33	1320.94
870.50	1376.24
870.66	1384.43
870.83	1503.21
871.00	1347.56
871.17	1372.14
871.33	1298.41
871.50	1300.46
871.67	1304.56
871.83	1251.31
872.00	1421.29
872.17	1413.10
872.33	1443.82
872.50	1415.15
872.67	1347.56
872.83	1361.90
873.00	1417.19
873.17	1353.71
873.33	1447.91
873.50	1284.08
873.67	1341.42
873.83	1380.33
874.00	1386.47
874.16	1341.42
874.33	1363.95
874.50	1339.37
874.66	1417.19
874.83	1368.04
875.00	1382.38
875.16	1411.05
875.33	1361.90
875.50	1236.97
875.66	1378.28
875.83	1310.70
875.99	1413.10
876.16	1339.37
876.33	1382.38
876.49	1357.80
876.66	1370.09
876.83	1312.75
876.99	1314.80
877.16	1404.91
877.32	1333.23
877.49	1337.32
877.66	1376.24
877.82	1390.57
877.99	1400.81
878.15	1411.05
878.32	1478.63
878.49	1380.33
878.65	1388.52
878.82	1409.00
878.98	1329.13
879.15	1388.52
879.32	1380.33
879.48	1349.61
879.65	1333.23
879.81	1363.95
879.98	1304.56
880.15	1372.14
880.31	1331.18
880.48	1320.94
880.64	1400.81
880.81	1357.80
880.97	1357.80
881.14	1335.28
881.31	1331.18
881.47	1513.45
881.64	1363.95
881.80	1312.75
881.97	1368.04
882.13	1468.39
882.30	1304.56
882.47	1384.43
882.63	1298.41
882.80	1343.47
882.96	1396.71
883.13	1368.04
883.29	1357.80
883.46	1372.14
883.62	1443.82
883.79	1282.03
883.95	1370.09
884.12	1386.47
884.29	1435.63
884.45	1423.34
884.62	1390.57
884.78	1386.47
884.95	1411.05
885.11	1290.22
885.28	1370.09
885.44	1351.66
885.61	1376.24
885.77	1406.95
885.94	1423.34
886.10	1386.47
886.27	1353.71
886.43	1398.76
886.60	1388.52
886.76	1286.12
886.93	1411.05
887.09	1406.95
887.26	1378.28
887.42	1329.13
887.59	1341.42
887.75	1437.67
887.92	1427.43
888.08	1310.70
888.25	1454.06
888.41	1374.19
888.58	1425.39
888.74	1298.41
888.91	1378.28
>>>>>End Processed Spectral Data<<<<<
