SpectraSuite Data File
++++++++++++++++++++++++++++++++++++
Date: Tue May 03 11:24:14 CEST 2016
User: root
Dark Spectrum Present: No
Reference Spectrum Present: No
Number of Sampled Component Spectra: 1
Spectrometers: USB4C02835
Integration Time (usec): 100000 (USB4C02835)
Spectra Averaged: 1 (USB4C02835)
Boxcar Smoothing: 0 (USB4C02835)
Correct for Electrical Dark: No (USB4C02835)
Strobe/Lamp Enabled: No (USB4C02835)
Correct for Detector Non-linearity: No (USB4C02835)
Correct for Stray Light: No (USB4C02835)
Number of Pixels in Processed Spectrum: 3648
>>>>>Begin Processed Spectral Data<<<<<
177.47	1263.60
177.69	1263.60
177.91	1263.60
178.13	1232.88
178.36	1208.30
178.58	1329.13
178.80	1423.34
179.02	1259.50
179.24	1265.64
179.46	1335.28
179.68	1355.76
179.90	1359.85
180.13	1398.76
180.35	1343.47
180.57	1400.81
180.79	1449.96
181.01	1325.04
181.23	1439.72
181.45	1402.86
181.67	1343.47
181.90	1380.33
182.12	1325.04
182.34	1351.66
182.56	1400.81
182.78	1363.95
183.00	1366.00
183.22	1380.33
183.44	1298.41
183.66	1462.25
183.89	1437.67
184.11	1339.37
184.33	1386.47
184.55	1445.87
184.77	1421.29
184.99	1343.47
185.21	1337.32
185.43	1452.01
185.65	1329.13
185.87	1382.38
186.10	1509.35
186.32	1413.10
186.54	1382.38
186.76	1402.86
186.98	1368.04
187.20	1357.80
187.42	1388.52
187.64	1292.27
187.86	1447.91
188.08	1286.12
188.30	1370.09
188.52	1445.87
188.75	1437.67
188.97	1437.67
189.19	1415.15
189.41	1370.09
189.63	1452.01
189.85	1337.32
190.07	1294.32
190.29	1312.75
190.51	1394.67
190.73	1275.88
190.95	1398.76
191.17	1329.13
191.39	1378.28
191.61	1363.95
191.84	1380.33
192.06	1343.47
192.28	1322.99
192.50	1452.01
192.72	1392.62
192.94	1349.61
193.16	1378.28
193.38	1331.18
193.60	1349.61
193.82	1396.71
194.04	1322.99
194.26	1331.18
194.48	1370.09
194.70	1363.95
194.92	1349.61
195.14	1318.89
195.36	1302.51
195.58	1380.33
195.80	1398.76
196.02	1329.13
196.24	1382.38
196.46	1359.85
196.69	1380.33
196.91	1415.15
197.13	1359.85
197.35	1370.09
197.57	1409.00
197.79	1394.67
198.01	1320.94
198.23	1378.28
198.45	1409.00
198.67	1329.13
198.89	1404.91
199.11	1398.76
199.33	1349.61
199.55	1329.13
199.77	1380.33
199.99	1398.76
200.21	1335.28
200.43	1357.80
200.65	1298.41
200.87	1259.50
201.09	1382.38
201.31	1374.19
201.53	1417.19
201.75	1322.99
201.97	1388.52
202.19	1333.23
202.41	1382.38
202.63	1527.78
202.85	1384.43
203.07	1433.58
203.29	1378.28
203.51	1298.41
203.73	1353.71
203.95	1501.16
204.17	1447.91
204.39	1257.45
204.61	1271.79
204.83	1372.14
205.05	1423.34
205.27	1316.84
205.49	1368.04
205.71	1386.47
205.93	1343.47
206.15	1282.03
206.37	1341.42
206.59	1357.80
206.81	1322.99
207.03	1384.43
207.25	1277.93
207.47	1374.19
207.69	1337.32
207.91	1376.24
208.13	1427.43
208.34	1378.28
208.56	1329.13
208.78	1413.10
209.00	1400.81
209.22	1402.86
209.44	1384.43
209.66	1302.51
209.88	1351.66
210.10	1402.86
210.32	1380.33
210.54	1468.39
210.76	1368.04
210.98	1441.77
211.20	1374.19
211.42	1320.94
211.64	1343.47
211.86	1380.33
212.08	1431.53
212.30	1411.05
212.52	1370.09
212.74	1382.38
212.96	1392.62
213.17	1363.95
213.39	1398.76
213.61	1413.10
213.83	1454.06
214.05	1386.47
214.27	1347.56
214.49	1312.75
214.71	1380.33
214.93	1398.76
215.15	1363.95
215.37	1411.05
215.59	1255.40
215.81	1347.56
216.03	1392.62
216.24	1402.86
216.46	1417.19
216.68	1392.62
216.90	1361.90
217.12	1419.24
217.34	1419.24
217.56	1351.66
217.78	1347.56
218.00	1378.28
218.22	1406.95
218.44	1361.90
218.66	1349.61
218.87	1443.82
219.09	1413.10
219.31	1396.71
219.53	1359.85
219.75	1288.17
219.97	1322.99
220.19	1413.10
220.41	1396.71
220.63	1390.57
220.85	1406.95
221.06	1382.38
221.28	1499.11
221.50	1413.10
221.72	1413.10
221.94	1400.81
222.16	1318.89
222.38	1425.39
222.60	1421.29
222.82	1339.37
223.03	1468.39
223.25	1322.99
223.47	1366.00
223.69	1443.82
223.91	1425.39
224.13	1437.67
224.35	1359.85
224.57	1411.05
224.78	1392.62
225.00	1392.62
225.22	1329.13
225.44	1347.56
225.66	1388.52
225.88	1320.94
226.10	1435.63
226.32	1294.32
226.53	1421.29
226.75	1419.24
226.97	1380.33
227.19	1351.66
227.41	1421.29
227.63	1341.42
227.85	1388.52
228.06	1320.94
228.28	1366.00
228.50	1452.01
228.72	1306.60
228.94	1351.66
229.16	1310.70
229.37	1333.23
229.59	1353.71
229.81	1402.86
230.03	1357.80
230.25	1370.09
230.47	1310.70
230.69	1312.75
230.90	1409.00
231.12	1363.95
231.34	1378.28
231.56	1366.00
231.78	1306.60
232.00	1349.61
232.21	1390.57
232.43	1322.99
232.65	1318.89
232.87	1339.37
233.09	1292.27
233.30	1353.71
233.52	1466.35
233.74	1384.43
233.96	1335.28
234.18	1390.57
234.40	1302.51
234.61	1435.63
234.83	1314.80
235.05	1310.70
235.27	1413.10
235.49	1372.14
235.70	1298.41
235.92	1409.00
236.14	1304.56
236.36	1443.82
236.58	1329.13
236.79	1409.00
237.01	1335.28
237.23	1366.00
237.45	1423.34
237.67	1339.37
237.88	1333.23
238.10	1441.77
238.32	1398.76
238.54	1335.28
238.76	1417.19
238.97	1386.47
239.19	1286.12
239.41	1441.77
239.63	1376.24
239.85	1355.76
240.06	1398.76
240.28	1351.66
240.50	1341.42
240.72	1411.05
240.93	1417.19
241.15	1439.72
241.37	1392.62
241.59	1468.39
241.81	1390.57
242.02	1333.23
242.24	1398.76
242.46	1339.37
242.68	1298.41
242.89	1415.15
243.11	1378.28
243.33	1388.52
243.55	1423.34
243.76	1421.29
243.98	1421.29
244.20	1353.71
244.42	1388.52
244.64	1390.57
244.85	1271.79
245.07	1347.56
245.29	1392.62
245.51	1380.33
245.72	1347.56
245.94	1439.72
246.16	1302.51
246.38	1445.87
246.59	1396.71
246.81	1351.66
247.03	1282.03
247.24	1335.28
247.46	1277.93
247.68	1423.34
247.90	1302.51
248.11	1271.79
248.33	1464.30
248.55	1400.81
248.77	1370.09
248.98	1368.04
249.20	1409.00
249.42	1329.13
249.64	1433.58
249.85	1347.56
250.07	1406.95
250.29	1427.43
250.50	1341.42
250.72	1292.27
250.94	1384.43
251.16	1472.49
251.37	1476.59
251.59	1419.24
251.81	1314.80
252.02	1413.10
252.24	1402.86
252.46	1427.43
252.68	1388.52
252.89	1322.99
253.11	1312.75
253.33	1382.38
253.54	1435.63
253.76	1327.08
253.98	1308.65
254.20	1388.52
254.41	1292.27
254.63	1390.57
254.85	1380.33
255.06	1353.71
255.28	1427.43
255.50	1347.56
255.71	1361.90
255.93	1398.76
256.15	1413.10
256.36	1400.81
256.58	1343.47
256.80	1368.04
257.02	1370.09
257.23	1300.46
257.45	1310.70
257.67	1409.00
257.88	1210.35
258.10	1370.09
258.32	1378.28
258.53	1415.15
258.75	1384.43
258.97	1366.00
259.18	1368.04
259.40	1351.66
259.62	1419.24
259.83	1439.72
260.05	1439.72
260.27	1517.54
260.48	1392.62
260.70	1378.28
260.92	1331.18
261.13	1374.19
261.35	1325.04
261.57	1355.76
261.78	1267.69
262.00	1347.56
262.22	1376.24
262.43	1380.33
262.65	1286.12
262.86	1351.66
263.08	1497.07
263.30	1357.80
263.51	1320.94
263.73	1318.89
263.95	1413.10
264.16	1402.86
264.38	1347.56
264.60	1394.67
264.81	1409.00
265.03	1396.71
265.25	1376.24
265.46	1429.48
265.68	1439.72
265.89	1378.28
266.11	1372.14
266.33	1423.34
266.54	1394.67
266.76	1357.80
266.98	1363.95
267.19	1445.87
267.41	1374.19
267.62	1376.24
267.84	1316.84
268.06	1388.52
268.27	1411.05
268.49	1472.49
268.70	1427.43
268.92	1359.85
269.14	1335.28
269.35	1314.80
269.57	1357.80
269.79	1388.52
270.00	1378.28
270.22	1470.44
270.43	1384.43
270.65	1286.12
270.87	1335.28
271.08	1337.32
271.30	1417.19
271.51	1443.82
271.73	1357.80
271.95	1470.44
272.16	1384.43
272.38	1366.00
272.59	1325.04
272.81	1378.28
273.02	1335.28
273.24	1425.39
273.46	1452.01
273.67	1265.64
273.89	1333.23
274.10	1327.08
274.32	1402.86
274.54	1390.57
274.75	1376.24
274.97	1374.19
275.18	1411.05
275.40	1374.19
275.61	1372.14
275.83	1400.81
276.05	1232.88
276.26	1429.48
276.48	1380.33
276.69	1333.23
276.91	1392.62
277.12	1425.39
277.34	1357.80
277.55	1384.43
277.77	1300.46
277.99	1427.43
278.20	1331.18
278.42	1341.42
278.63	1308.65
278.85	1347.56
279.06	1333.23
279.28	1404.91
279.49	1347.56
279.71	1384.43
279.93	1376.24
280.14	1347.56
280.36	1279.98
280.57	1380.33
280.79	1388.52
281.00	1372.14
281.22	1370.09
281.43	1370.09
281.65	1331.18
281.86	1380.33
282.08	1312.75
282.29	1404.91
282.51	1404.91
282.73	1394.67
282.94	1357.80
283.16	1411.05
283.37	1441.77
283.59	1341.42
283.80	1335.28
284.02	1406.95
284.23	1374.19
284.45	1363.95
284.66	1327.08
284.88	1314.80
285.09	1429.48
285.31	1363.95
285.52	1406.95
285.74	1335.28
285.95	1409.00
286.17	1402.86
286.38	1390.57
286.60	1341.42
286.81	1361.90
287.03	1290.22
287.24	1351.66
287.46	1306.60
287.67	1378.28
287.89	1480.68
288.10	1343.47
288.32	1277.93
288.53	1384.43
288.75	1316.84
288.96	1413.10
289.18	1296.36
289.39	1355.76
289.61	1320.94
289.82	1390.57
290.04	1447.91
290.25	1388.52
290.47	1335.28
290.68	1343.47
290.90	1380.33
291.11	1329.13
291.33	1421.29
291.54	1284.08
291.76	1339.37
291.97	1402.86
292.18	1386.47
292.40	1370.09
292.61	1353.71
292.83	1476.59
293.04	1402.86
293.26	1310.70
293.47	1361.90
293.69	1349.61
293.90	1388.52
294.12	1361.90
294.33	1312.75
294.55	1404.91
294.76	1363.95
294.97	1409.00
295.19	1433.58
295.40	1339.37
295.62	1413.10
295.83	1425.39
296.05	1310.70
296.26	1337.32
296.48	1302.51
296.69	1333.23
296.90	1357.80
297.12	1400.81
297.33	1507.30
297.55	1390.57
297.76	1306.60
297.98	1384.43
298.19	1339.37
298.41	1386.47
298.62	1363.95
298.83	1429.48
299.05	1363.95
299.26	1353.71
299.48	1271.79
299.69	1390.57
299.90	1404.91
300.12	1359.85
300.33	1499.11
300.55	1445.87
300.76	1423.34
300.98	1357.80
301.19	1429.48
301.40	1345.52
301.62	1333.23
301.83	1411.05
302.05	1400.81
302.26	1404.91
302.47	1325.04
302.69	1290.22
302.90	1339.37
303.12	1275.88
303.33	1349.61
303.54	1470.44
303.76	1378.28
303.97	1445.87
304.19	1443.82
304.40	1331.18
304.61	1429.48
304.83	1378.28
305.04	1417.19
305.26	1310.70
305.47	1251.31
305.68	1325.04
305.90	1341.42
306.11	1413.10
306.33	1306.60
306.54	1384.43
306.75	1347.56
306.97	1325.04
307.18	1329.13
307.39	1392.62
307.61	1421.29
307.82	1361.90
308.04	1390.57
308.25	1343.47
308.46	1380.33
308.68	1413.10
308.89	1341.42
309.10	1388.52
309.32	1415.15
309.53	1329.13
309.74	1339.37
309.96	1353.71
310.17	1413.10
310.39	1380.33
310.60	1300.46
310.81	1384.43
311.03	1290.22
311.24	1400.81
311.45	1337.32
311.67	1361.90
311.88	1355.76
312.09	1355.76
312.31	1368.04
312.52	1421.29
312.73	1331.18
312.95	1353.71
313.16	1345.52
313.37	1419.24
313.59	1370.09
313.80	1415.15
314.01	1386.47
314.23	1304.56
314.44	1349.61
314.65	1251.31
314.87	1302.51
315.08	1390.57
315.29	1329.13
315.51	1368.04
315.72	1241.07
315.93	1320.94
316.15	1396.71
316.36	1331.18
316.57	1388.52
316.79	1411.05
317.00	1366.00
317.21	1392.62
317.43	1343.47
317.64	1386.47
317.85	1445.87
318.07	1490.92
318.28	1521.64
318.49	1497.07
318.70	1675.24
318.92	1538.02
319.13	1499.11
319.34	1576.94
319.56	1445.87
319.77	1445.87
319.98	1480.68
320.20	1368.04
320.41	1417.19
320.62	1441.77
320.83	1370.09
321.05	1427.43
321.26	1322.99
321.47	1366.00
321.69	1345.52
321.90	1265.64
322.11	1372.14
322.32	1380.33
322.54	1417.19
322.75	1347.56
322.96	1435.63
323.18	1306.60
323.39	1325.04
323.60	1335.28
323.81	1386.47
324.03	1325.04
324.24	1366.00
324.45	1271.79
324.66	1335.28
324.88	1400.81
325.09	1366.00
325.30	1347.56
325.52	1349.61
325.73	1329.13
325.94	1302.51
326.15	1353.71
326.37	1308.65
326.58	1349.61
326.79	1445.87
327.00	1454.06
327.22	1382.38
327.43	1372.14
327.64	1370.09
327.85	1339.37
328.07	1351.66
328.28	1400.81
328.49	1413.10
328.70	1378.28
328.92	1351.66
329.13	1366.00
329.34	1322.99
329.55	1406.95
329.76	1423.34
329.98	1333.23
330.19	1353.71
330.40	1441.77
330.61	1378.28
330.83	1353.71
331.04	1409.00
331.25	1400.81
331.46	1380.33
331.68	1388.52
331.89	1458.15
332.10	1359.85
332.31	1359.85
332.52	1320.94
332.74	1339.37
332.95	1351.66
333.16	1376.24
333.37	1384.43
333.58	1318.89
333.80	1386.47
334.01	1265.64
334.22	1368.04
334.43	1300.46
334.64	1382.38
334.86	1318.89
335.07	1335.28
335.28	1388.52
335.49	1345.52
335.70	1325.04
335.92	1384.43
336.13	1413.10
336.34	1331.18
336.55	1396.71
336.76	1212.40
336.98	1304.56
337.19	1298.41
337.40	1388.52
337.61	1454.06
337.82	1361.90
338.04	1437.67
338.25	1320.94
338.46	1372.14
338.67	1259.50
338.88	1343.47
339.09	1327.08
339.31	1308.65
339.52	1273.84
339.73	1380.33
339.94	1341.42
340.15	1380.33
340.36	1329.13
340.58	1363.95
340.79	1312.75
341.00	1318.89
341.21	1296.36
341.42	1404.91
341.63	1353.71
341.85	1349.61
342.06	1353.71
342.27	1335.28
342.48	1419.24
342.69	1349.61
342.90	1335.28
343.12	1406.95
343.33	1392.62
343.54	1443.82
343.75	1458.15
343.96	1343.47
344.17	1241.07
344.38	1320.94
344.60	1390.57
344.81	1314.80
345.02	1279.98
345.23	1351.66
345.44	1449.96
345.65	1363.95
345.86	1411.05
346.07	1296.36
346.29	1357.80
346.50	1327.08
346.71	1388.52
346.92	1357.80
347.13	1439.72
347.34	1349.61
347.55	1366.00
347.76	1353.71
347.98	1320.94
348.19	1472.49
348.40	1394.67
348.61	1347.56
348.82	1509.35
349.03	1398.76
349.24	1339.37
349.45	1472.49
349.66	1376.24
349.88	1388.52
350.09	1378.28
350.30	1343.47
350.51	1366.00
350.72	1396.71
350.93	1472.49
351.14	1388.52
351.35	1374.19
351.56	1409.00
351.77	1322.99
351.99	1452.01
352.20	1433.58
352.41	1415.15
352.62	1308.65
352.83	1396.71
353.04	1310.70
353.25	1347.56
353.46	1458.15
353.67	1421.29
353.88	1355.76
354.09	1396.71
354.30	1363.95
354.52	1359.85
354.73	1413.10
354.94	1325.04
355.15	1419.24
355.36	1427.43
355.57	1259.50
355.78	1302.51
355.99	1331.18
356.20	1384.43
356.41	1431.53
356.62	1361.90
356.83	1345.52
357.04	1429.48
357.25	1284.08
357.46	1255.40
357.68	1322.99
357.89	1304.56
358.10	1353.71
358.31	1394.67
358.52	1370.09
358.73	1294.32
358.94	1351.66
359.15	1349.61
359.36	1357.80
359.57	1343.47
359.78	1431.53
359.99	1376.24
360.20	1277.93
360.41	1386.47
360.62	1392.62
360.83	1380.33
361.04	1376.24
361.25	1501.16
361.46	1441.77
361.67	1439.72
361.88	1427.43
362.09	1329.13
362.30	1404.91
362.51	1363.95
362.72	1390.57
362.93	1322.99
363.14	1322.99
363.35	1396.71
363.56	1290.22
363.78	1368.04
363.99	1404.91
364.20	1353.71
364.41	1349.61
364.62	1480.68
364.83	1423.34
365.04	1388.52
365.25	1339.37
365.46	1501.16
365.67	1322.99
365.88	1363.95
366.09	1374.19
366.30	1349.61
366.51	1343.47
366.72	1353.71
366.93	1359.85
367.14	1359.85
367.35	1347.56
367.56	1376.24
367.77	1499.11
367.98	1386.47
368.18	1402.86
368.39	1312.75
368.60	1390.57
368.81	1441.77
369.02	1394.67
369.23	1388.52
369.44	1308.65
369.65	1433.58
369.86	1341.42
370.07	1349.61
370.28	1402.86
370.49	1372.14
370.70	1357.80
370.91	1325.04
371.12	1392.62
371.33	1366.00
371.54	1458.15
371.75	1400.81
371.96	1292.27
372.17	1359.85
372.38	1292.27
372.59	1394.67
372.80	1413.10
373.01	1433.58
373.22	1433.58
373.43	1337.32
373.64	1337.32
373.85	1437.67
374.06	1427.43
374.26	1298.41
374.47	1386.47
374.68	1421.29
374.89	1372.14
375.10	1370.09
375.31	1404.91
375.52	1310.70
375.73	1355.76
375.94	1308.65
376.15	1402.86
376.36	1304.56
376.57	1427.43
376.78	1345.52
376.99	1400.81
377.20	1390.57
377.40	1329.13
377.61	1345.52
377.82	1368.04
378.03	1454.06
378.24	1425.39
378.45	1384.43
378.66	1300.46
378.87	1318.89
379.08	1341.42
379.29	1425.39
379.50	1345.52
379.71	1318.89
379.91	1421.29
380.12	1368.04
380.33	1353.71
380.54	1284.08
380.75	1396.71
380.96	1345.52
381.17	1511.40
381.38	1378.28
381.59	1437.67
381.80	1449.96
382.00	1445.87
382.21	1392.62
382.42	1462.25
382.63	1460.20
382.84	1392.62
383.05	1394.67
383.26	1513.45
383.47	1445.87
383.68	1386.47
383.88	1468.39
384.09	1398.76
384.30	1402.86
384.51	1462.25
384.72	1376.24
384.93	1361.90
385.14	1257.45
385.35	1368.04
385.55	1361.90
385.76	1406.95
385.97	1394.67
386.18	1378.28
386.39	1259.50
386.60	1392.62
386.81	1351.66
387.02	1386.47
387.22	1402.86
387.43	1499.11
387.64	1556.46
387.85	2328.54
388.06	5863.33
388.27	9533.29
388.48	11489.10
388.68	13195.06
388.89	13393.72
389.10	10674.01
389.31	9314.16
389.52	8449.92
389.73	7350.16
389.93	6963.09
390.14	6578.08
390.35	6010.79
390.56	5767.08
390.77	4687.80
390.98	3755.97
391.18	2709.46
391.39	2117.60
391.60	1654.76
391.81	1531.88
392.02	1445.87
392.23	1519.59
392.43	1355.76
392.64	1478.63
392.85	1372.14
393.06	1363.95
393.27	1431.53
393.47	1335.28
393.68	1366.00
393.89	1363.95
394.10	1380.33
394.31	1413.10
394.52	1378.28
394.72	1351.66
394.93	1435.63
395.14	1413.10
395.35	1392.62
395.56	1449.96
395.76	1474.54
395.97	1497.07
396.18	1595.37
396.39	1638.38
396.60	1644.52
396.80	1568.74
397.01	1458.15
397.22	1515.50
397.43	1454.06
397.64	1402.86
397.84	1460.20
398.05	1523.69
398.26	1413.10
398.47	1492.97
398.67	1521.64
398.88	1380.33
399.09	1357.80
399.30	1318.89
399.51	1404.91
399.71	1339.37
399.92	1361.90
400.13	1380.33
400.34	1341.42
400.54	1402.86
400.75	1454.06
400.96	1468.39
401.17	1486.83
401.37	1441.77
401.58	1449.96
401.79	1429.48
402.00	1628.14
402.21	1861.60
402.41	1730.53
402.62	1867.75
402.83	1626.09
403.04	1701.86
403.24	1654.76
403.45	1568.74
403.66	1685.48
403.87	1517.54
404.07	1523.69
404.28	1621.99
404.49	1570.79
404.70	1515.50
404.90	1419.24
405.11	1470.44
405.32	1443.82
405.52	1347.56
405.73	1386.47
405.94	1370.09
406.15	1363.95
406.35	1351.66
406.56	1329.13
406.77	1314.80
406.98	1439.72
407.18	1306.60
407.39	1392.62
407.60	1400.81
407.80	1425.39
408.01	1314.80
408.22	1366.00
408.43	1341.42
408.63	1388.52
408.84	1378.28
409.05	1437.67
409.25	1337.32
409.46	1345.52
409.67	1308.65
409.88	1388.52
410.08	1361.90
410.29	1386.47
410.50	1402.86
410.70	1445.87
410.91	1337.32
411.12	1363.95
411.32	1380.33
411.53	1386.47
411.74	1472.49
411.95	1482.73
412.15	1421.29
412.36	1431.53
412.57	1402.86
412.77	1474.54
412.98	1392.62
413.19	1396.71
413.39	1404.91
413.60	1437.67
413.81	1464.30
414.01	1390.57
414.22	1409.00
414.43	1404.91
414.63	1394.67
414.84	1343.47
415.05	1421.29
415.25	1363.95
415.46	1464.30
415.67	1361.90
415.87	1370.09
416.08	1464.30
416.29	1316.84
416.49	1398.76
416.70	1306.60
416.91	1325.04
417.11	1361.90
417.32	1394.67
417.53	1363.95
417.73	1396.71
417.94	1345.52
418.15	1402.86
418.35	1368.04
418.56	1437.67
418.77	1409.00
418.97	1390.57
419.18	1402.86
419.38	1312.75
419.59	1294.32
419.80	1374.19
420.00	1357.80
420.21	1435.63
420.42	1437.67
420.62	1376.24
420.83	1296.36
421.04	1392.62
421.24	1263.60
421.45	1386.47
421.65	1394.67
421.86	1335.28
422.07	1378.28
422.27	1363.95
422.48	1366.00
422.69	1357.80
422.89	1390.57
423.10	1345.52
423.30	1376.24
423.51	1368.04
423.72	1329.13
423.92	1404.91
424.13	1300.46
424.33	1374.19
424.54	1351.66
424.75	1409.00
424.95	1384.43
425.16	1316.84
425.36	1435.63
425.57	1419.24
425.78	1447.91
425.98	1462.25
426.19	1394.67
426.39	1335.28
426.60	1400.81
426.81	1396.71
427.01	1384.43
427.22	1345.52
427.42	1265.64
427.63	1411.05
427.83	1382.38
428.04	1361.90
428.25	1386.47
428.45	1425.39
428.66	1361.90
428.86	1314.80
429.07	1374.19
429.28	1378.28
429.48	1327.08
429.69	1366.00
429.89	1331.18
430.10	1327.08
430.30	1425.39
430.51	1378.28
430.71	1306.60
430.92	1392.62
431.13	1376.24
431.33	1368.04
431.54	1363.95
431.74	1454.06
431.95	1417.19
432.15	1331.18
432.36	1327.08
432.56	1372.14
432.77	1335.28
432.98	1458.15
433.18	1357.80
433.39	1277.93
433.59	1337.32
433.80	1509.35
434.00	1386.47
434.21	1454.06
434.41	1329.13
434.62	1470.44
434.82	1335.28
435.03	1249.26
435.23	1329.13
435.44	1290.22
435.64	1386.47
435.85	1402.86
436.06	1417.19
436.26	1361.90
436.47	1380.33
436.67	1390.57
436.88	1421.29
437.08	1425.39
437.29	1441.77
437.49	1304.56
437.70	1345.52
437.90	1409.00
438.11	1560.55
438.31	1466.35
438.52	1470.44
438.72	1644.52
438.93	1583.08
439.13	1456.11
439.34	1388.52
439.54	1427.43
439.75	1452.01
439.95	1484.78
440.16	1425.39
440.36	1476.59
440.57	1413.10
440.77	1441.77
440.98	1388.52
441.18	1427.43
441.39	1355.76
441.59	1394.67
441.80	1445.87
442.00	1372.14
442.21	1368.04
442.41	1333.23
442.62	1464.30
442.82	1361.90
443.02	1333.23
443.23	1372.14
443.43	1423.34
443.64	1431.53
443.84	1402.86
444.05	1437.67
444.25	1396.71
444.46	1347.56
444.66	1378.28
444.87	1443.82
445.07	1314.80
445.28	1394.67
445.48	1449.96
445.69	1366.00
445.89	1527.78
446.09	1544.17
446.30	2234.33
446.50	3708.87
446.71	4700.09
446.91	5312.43
447.12	5615.53
447.32	4960.18
447.53	4122.56
447.73	3946.44
447.93	3442.64
448.14	3272.65
448.34	3020.75
448.55	2908.12
448.75	2805.72
448.96	2678.74
449.16	2383.84
449.36	2283.49
449.57	1933.28
449.77	1746.92
449.98	1576.94
450.18	1527.78
450.39	1433.58
450.59	1449.96
450.79	1370.09
451.00	1351.66
451.20	1374.19
451.41	1304.56
451.61	1361.90
451.81	1431.53
452.02	1333.23
452.22	1347.56
452.43	1380.33
452.63	1376.24
452.84	1363.95
453.04	1366.00
453.24	1345.52
453.45	1366.00
453.65	1376.24
453.86	1400.81
454.06	1316.84
454.26	1415.15
454.47	1318.89
454.67	1484.78
454.87	1357.80
455.08	1411.05
455.28	1437.67
455.49	1335.28
455.69	1417.19
455.89	1501.16
456.10	1429.48
456.30	1351.66
456.51	1423.34
456.71	1335.28
456.91	1388.52
457.12	1353.71
457.32	1406.95
457.52	1298.41
457.73	1404.91
457.93	1421.29
458.14	1359.85
458.34	1275.88
458.54	1384.43
458.75	1382.38
458.95	1429.48
459.15	1396.71
459.36	1392.62
459.56	1361.90
459.76	1447.91
459.97	1357.80
460.17	1370.09
460.37	1462.25
460.58	1382.38
460.78	1359.85
460.99	1327.08
461.19	1345.52
461.39	1411.05
461.60	1421.29
461.80	1421.29
462.00	1337.32
462.21	1366.00
462.41	1308.65
462.61	1282.03
462.82	1273.84
463.02	1441.77
463.22	1355.76
463.43	1363.95
463.63	1357.80
463.83	1409.00
464.04	1343.47
464.24	1435.63
464.44	1322.99
464.64	1335.28
464.85	1388.52
465.05	1411.05
465.25	1386.47
465.46	1386.47
465.66	1392.62
465.86	1306.60
466.07	1415.15
466.27	1263.60
466.47	1277.93
466.68	1302.51
466.88	1400.81
467.08	1392.62
467.29	1411.05
467.49	1355.76
467.69	1380.33
467.89	1406.95
468.10	1413.10
468.30	1392.62
468.50	1427.43
468.71	1372.14
468.91	1349.61
469.11	1476.59
469.31	1318.89
469.52	1259.50
469.72	1388.52
469.92	1486.83
470.13	1349.61
470.33	1417.19
470.53	1693.67
470.73	2095.07
470.94	2217.95
471.14	2310.11
471.34	2516.95
471.54	2322.40
471.75	1964.00
471.95	1898.47
472.15	1734.63
472.36	1820.64
472.56	1771.49
472.76	1724.39
472.96	1669.09
473.17	1593.32
473.37	1638.38
473.57	1626.09
473.77	1542.12
473.98	1402.86
474.18	1366.00
474.38	1449.96
474.58	1478.63
474.79	1417.19
474.99	1378.28
475.19	1474.54
475.39	1302.51
475.60	1376.24
475.80	1490.92
476.00	1386.47
476.20	1400.81
476.41	1406.95
476.61	1372.14
476.81	1443.82
477.01	1374.19
477.21	1456.11
477.42	1429.48
477.62	1335.28
477.82	1425.39
478.02	1359.85
478.23	1368.04
478.43	1288.17
478.63	1361.90
478.83	1400.81
479.03	1392.62
479.24	1384.43
479.44	1458.15
479.64	1380.33
479.84	1310.70
480.04	1366.00
480.25	1427.43
480.45	1282.03
480.65	1388.52
480.85	1421.29
481.06	1325.04
481.26	1361.90
481.46	1394.67
481.66	1466.35
481.86	1363.95
482.06	1439.72
482.27	1431.53
482.47	1396.71
482.67	1402.86
482.87	1345.52
483.07	1492.97
483.28	1396.71
483.48	1292.27
483.68	1388.52
483.88	1331.18
484.08	1288.17
484.29	1366.00
484.49	1355.76
484.69	1263.60
484.89	1413.10
485.09	1458.15
485.29	1406.95
485.50	1452.01
485.70	1380.33
485.90	1454.06
486.10	1400.81
486.30	1380.33
486.50	1406.95
486.71	1390.57
486.91	1374.19
487.11	1406.95
487.31	1345.52
487.51	1419.24
487.71	1341.42
487.91	1368.04
488.12	1314.80
488.32	1249.26
488.52	1306.60
488.72	1331.18
488.92	1351.66
489.12	1437.67
489.32	1384.43
489.53	1402.86
489.73	1349.61
489.93	1443.82
490.13	1339.37
490.33	1290.22
490.53	1351.66
490.73	1495.02
490.94	1325.04
491.14	1425.39
491.34	1626.09
491.54	2217.95
491.74	2574.30
491.94	3082.19
492.14	3166.16
492.34	2998.23
492.54	2580.44
492.75	2359.26
492.95	2199.52
493.15	2158.56
493.35	2043.87
493.55	1910.75
493.75	1898.47
493.95	1898.47
494.15	1841.12
494.35	1642.47
494.56	1554.41
494.76	1556.46
494.96	1540.07
495.16	1456.11
495.36	1368.04
495.56	1382.38
495.76	1384.43
495.96	1347.56
496.16	1394.67
496.36	1458.15
496.56	1425.39
496.77	1325.04
496.97	1398.76
497.17	1423.34
497.37	1304.56
497.57	1484.78
497.77	1439.72
497.97	1310.70
498.17	1341.42
498.37	1417.19
498.57	1366.00
498.77	1378.28
498.97	1398.76
499.17	1462.25
499.38	1374.19
499.58	1425.39
499.78	1482.73
499.98	1439.72
500.18	1351.66
500.38	1384.43
500.58	1665.00
500.78	2912.21
500.98	5500.84
501.18	6989.72
501.38	8359.81
501.58	8675.20
501.78	7317.39
501.98	5830.57
502.18	5427.12
502.38	4515.77
502.58	4020.16
502.78	3684.30
502.98	3551.18
503.18	3465.16
503.38	3377.10
503.59	3033.04
503.79	2828.24
503.99	2582.49
504.19	2371.55
504.39	2129.89
504.59	2070.50
504.79	1877.99
504.99	1794.02
505.19	1619.94
505.39	1531.88
505.59	1615.85
505.79	1595.37
505.99	1529.83
506.19	1488.87
506.39	1474.54
506.59	1482.73
506.79	1404.91
506.99	1486.83
507.19	1433.58
507.39	1400.81
507.59	1329.13
507.79	1394.67
507.99	1337.32
508.19	1435.63
508.39	1384.43
508.59	1361.90
508.79	1415.15
508.99	1425.39
509.19	1351.66
509.39	1449.96
509.59	1308.65
509.79	1386.47
509.99	1351.66
510.19	1353.71
510.39	1447.91
510.59	1394.67
510.79	1363.95
510.99	1357.80
511.19	1402.86
511.39	1466.35
511.59	1390.57
511.79	1415.15
511.99	1337.32
512.19	1435.63
512.38	1380.33
512.58	1318.89
512.78	1404.91
512.98	1359.85
513.18	1449.96
513.38	1345.52
513.58	1409.00
513.78	1439.72
513.98	1396.71
514.18	1341.42
514.38	1374.19
514.58	1329.13
514.78	1351.66
514.98	1322.99
515.18	1329.13
515.38	1331.18
515.58	1355.76
515.78	1368.04
515.98	1380.33
516.18	1335.28
516.38	1298.41
516.57	1351.66
516.77	1314.80
516.97	1345.52
517.17	1437.67
517.37	1343.47
517.57	1411.05
517.77	1341.42
517.97	1351.66
518.17	1398.76
518.37	1347.56
518.57	1347.56
518.77	1413.10
518.97	1374.19
519.16	1433.58
519.36	1452.01
519.56	1359.85
519.76	1376.24
519.96	1400.81
520.16	1372.14
520.36	1271.79
520.56	1484.78
520.76	1333.23
520.96	1341.42
521.16	1435.63
521.35	1366.00
521.55	1456.11
521.75	1402.86
521.95	1327.08
522.15	1349.61
522.35	1306.60
522.55	1322.99
522.75	1427.43
522.95	1370.09
523.14	1355.76
523.34	1437.67
523.54	1343.47
523.74	1390.57
523.94	1378.28
524.14	1316.84
524.34	1433.58
524.54	1452.01
524.73	1378.28
524.93	1329.13
525.13	1325.04
525.33	1368.04
525.53	1464.30
525.73	1331.18
525.93	1322.99
526.13	1314.80
526.32	1374.19
526.52	1394.67
526.72	1345.52
526.92	1382.38
527.12	1306.60
527.32	1296.36
527.52	1378.28
527.71	1355.76
527.91	1378.28
528.11	1353.71
528.31	1347.56
528.51	1314.80
528.71	1423.34
528.90	1351.66
529.10	1437.67
529.30	1423.34
529.50	1341.42
529.70	1388.52
529.90	1310.70
530.09	1316.84
530.29	1368.04
530.49	1384.43
530.69	1353.71
530.89	1390.57
531.09	1378.28
531.28	1400.81
531.48	1382.38
531.68	1392.62
531.88	1322.99
532.08	1447.91
532.28	1445.87
532.47	1468.39
532.67	1376.24
532.87	1415.15
533.07	1353.71
533.27	1406.95
533.46	1429.48
533.66	1394.67
533.86	1404.91
534.06	1425.39
534.26	1409.00
534.45	1388.52
534.65	1413.10
534.85	1366.00
535.05	1363.95
535.25	1310.70
535.44	1335.28
535.64	1406.95
535.84	1470.44
536.04	1368.04
536.24	1361.90
536.43	1392.62
536.63	1423.34
536.83	1345.52
537.03	1476.59
537.22	1232.88
537.42	1355.76
537.62	1341.42
537.82	1357.80
538.02	1343.47
538.21	1363.95
538.41	1531.88
538.61	1452.01
538.81	1355.76
539.00	1435.63
539.20	1345.52
539.40	1372.14
539.60	1411.05
539.79	1363.95
539.99	1322.99
540.19	1392.62
540.39	1388.52
540.58	1402.86
540.78	1390.57
540.98	1449.96
541.18	1468.39
541.37	1396.71
541.57	1415.15
541.77	1478.63
541.97	1347.56
542.16	1286.12
542.36	1300.46
542.56	1359.85
542.76	1470.44
542.95	1394.67
543.15	1431.53
543.35	1396.71
543.54	1351.66
543.74	1388.52
543.94	1447.91
544.14	1335.28
544.33	1374.19
544.53	1314.80
544.73	1296.36
544.93	1353.71
545.12	1349.61
545.32	1325.04
545.52	1327.08
545.71	1337.32
545.91	1331.18
546.11	1433.58
546.30	1320.94
546.50	1370.09
546.70	1349.61
546.90	1402.86
547.09	1316.84
547.29	1388.52
547.49	1449.96
547.68	1423.34
547.88	1355.76
548.08	1437.67
548.27	1796.07
548.47	1386.47
548.67	1368.04
548.87	1310.70
549.06	1415.15
549.26	1402.86
549.46	1421.29
549.65	1394.67
549.85	1355.76
550.05	1452.01
550.24	1337.32
550.44	1421.29
550.64	1353.71
550.83	1378.28
551.03	1423.34
551.23	1355.76
551.42	1359.85
551.62	1325.04
551.82	1363.95
552.01	1329.13
552.21	1421.29
552.41	1423.34
552.60	1376.24
552.80	1372.14
553.00	1306.60
553.19	1386.47
553.39	1415.15
553.59	1333.23
553.78	1359.85
553.98	1337.32
554.17	1286.12
554.37	1359.85
554.57	1406.95
554.76	1296.36
554.96	1314.80
555.16	1312.75
555.35	1351.66
555.55	1404.91
555.75	1359.85
555.94	1402.86
556.14	1376.24
556.33	1331.18
556.53	1343.47
556.73	1355.76
556.92	1318.89
557.12	1402.86
557.32	1402.86
557.51	1378.28
557.71	1429.48
557.90	1437.67
558.10	1380.33
558.30	1318.89
558.49	1396.71
558.69	1359.85
558.88	1345.52
559.08	1411.05
559.28	1322.99
559.47	1376.24
559.67	1361.90
559.86	1396.71
560.06	1425.39
560.26	1392.62
560.45	1433.58
560.65	1363.95
560.84	1417.19
561.04	1345.52
561.24	1382.38
561.43	1341.42
561.63	1431.53
561.82	1404.91
562.02	1382.38
562.22	1361.90
562.41	1406.95
562.61	1329.13
562.80	1386.47
563.00	1478.63
563.19	1335.28
563.39	1337.32
563.59	1355.76
563.78	1320.94
563.98	1294.32
564.17	1286.12
564.37	1329.13
564.56	1390.57
564.76	1351.66
564.96	1509.35
565.15	1400.81
565.35	1511.40
565.54	1355.76
565.74	1445.87
565.93	1425.39
566.13	1409.00
566.32	1351.66
566.52	1443.82
566.71	1406.95
566.91	1325.04
567.11	1376.24
567.30	1361.90
567.50	1464.30
567.69	1390.57
567.89	1320.94
568.08	1380.33
568.28	1351.66
568.47	1421.29
568.67	1417.19
568.86	1329.13
569.06	1464.30
569.25	1423.34
569.45	1423.34
569.64	1341.42
569.84	1357.80
570.04	1329.13
570.23	1325.04
570.43	1390.57
570.62	1415.15
570.82	1425.39
571.01	1380.33
571.21	1361.90
571.40	1329.13
571.60	1452.01
571.79	1396.71
571.99	1417.19
572.18	1349.61
572.38	1445.87
572.57	1355.76
572.77	1384.43
572.96	1542.12
573.16	1435.63
573.35	1374.19
573.55	1531.88
573.74	1423.34
573.94	1376.24
574.13	1400.81
574.33	1433.58
574.52	1523.69
574.71	1429.48
574.91	1406.95
575.10	1357.80
575.30	1314.80
575.49	1302.51
575.69	1433.58
575.88	1431.53
576.08	1435.63
576.27	1458.15
576.47	1492.97
576.66	1544.17
576.86	1476.59
577.05	1429.48
577.25	1458.15
577.44	1454.06
577.64	1380.33
577.83	1544.17
578.02	1347.56
578.22	1470.44
578.41	1519.59
578.61	1402.86
578.80	1384.43
579.00	1445.87
579.19	1437.67
579.39	1464.30
579.58	1505.26
579.77	1353.71
579.97	1466.35
580.16	1511.40
580.36	1476.59
580.55	1435.63
580.75	1462.25
580.94	1568.74
581.13	1517.54
581.33	1447.91
581.52	1503.21
581.72	1509.35
581.91	1484.78
582.11	1488.87
582.30	1447.91
582.49	1435.63
582.69	1533.93
582.88	1386.47
583.08	1435.63
583.27	1488.87
583.47	1529.83
583.66	1406.95
583.85	1353.71
584.05	1429.48
584.24	1464.30
584.44	1443.82
584.63	1503.21
584.82	1548.26
585.02	1566.70
585.21	1646.57
585.41	1624.04
585.60	1648.61
585.79	1603.56
585.99	1646.57
586.18	1581.03
586.37	1890.28
586.57	2703.32
586.76	7948.17
586.96	24520.33
587.15	41432.46
587.34	52440.29
587.54	59960.43
587.73	59542.64
587.93	44991.83
588.12	33025.54
588.31	26730.09
588.51	22554.28
588.70	19975.89
588.89	18515.69
589.09	17204.99
589.28	15949.58
589.47	14231.33
589.67	12541.76
589.86	10608.48
590.06	8556.41
590.25	6653.85
590.44	4921.27
590.64	3737.54
590.83	2781.14
591.02	2183.13
591.22	1996.77
591.41	1679.33
591.60	1689.57
591.80	1585.13
591.99	1452.01
592.18	1492.97
592.38	1486.83
592.57	1535.98
592.76	1402.86
592.96	1445.87
593.15	1421.29
593.34	1472.49
593.54	1417.19
593.73	1462.25
593.92	1441.77
594.12	1439.72
594.31	1374.19
594.50	1452.01
594.70	1566.70
594.89	1509.35
595.08	1359.85
595.28	1441.77
595.47	1490.92
595.66	1415.15
595.86	1361.90
596.05	1478.63
596.24	1378.28
596.43	1456.11
596.63	1499.11
596.82	1486.83
597.01	1394.67
597.21	1490.92
597.40	1495.02
597.59	1404.91
597.79	1366.00
597.98	1452.01
598.17	1435.63
598.36	1423.34
598.56	1325.04
598.75	1404.91
598.94	1363.95
599.14	1343.47
599.33	1345.52
599.52	1511.40
599.71	1406.95
599.91	1437.67
600.10	1409.00
600.29	1306.60
600.48	1392.62
600.68	1435.63
600.87	1421.29
601.06	1443.82
601.26	1372.14
601.45	1400.81
601.64	1363.95
601.83	1386.47
602.03	1374.19
602.22	1394.67
602.41	1492.97
602.60	1466.35
602.80	1511.40
602.99	1413.10
603.18	1388.52
603.37	1380.33
603.57	1443.82
603.76	1421.29
603.95	1409.00
604.14	1298.41
604.34	1372.14
604.53	1413.10
604.72	1351.66
604.91	1415.15
605.10	1396.71
605.30	1363.95
605.49	1488.87
605.68	1357.80
605.87	1476.59
606.07	1372.14
606.26	1361.90
606.45	1417.19
606.64	1464.30
606.84	1468.39
607.03	1380.33
607.22	1486.83
607.41	1359.85
607.60	1392.62
607.80	1484.78
607.99	1372.14
608.18	1435.63
608.37	1409.00
608.56	1318.89
608.76	1535.98
608.95	1540.07
609.14	1501.16
609.33	1482.73
609.52	1554.41
609.72	1484.78
609.91	1476.59
610.10	1445.87
610.29	1433.58
610.48	1429.48
610.68	1421.29
610.87	1366.00
611.06	1464.30
611.25	1343.47
611.44	1429.48
611.63	1404.91
611.83	1468.39
612.02	1361.90
612.21	1413.10
612.40	1361.90
612.59	1372.14
612.79	1339.37
612.98	1314.80
613.17	1433.58
613.36	1421.29
613.55	1404.91
613.74	1443.82
613.93	1564.65
614.13	1552.36
614.32	1624.04
614.51	1601.51
614.70	1576.94
614.89	1460.20
615.08	1482.73
615.28	1716.20
615.47	1478.63
615.66	1452.01
615.85	1374.19
616.04	1542.12
616.23	1488.87
616.42	1452.01
616.62	1484.78
616.81	1445.87
617.00	1413.10
617.19	1441.77
617.38	1388.52
617.57	1404.91
617.76	1449.96
617.95	1359.85
618.15	1400.81
618.34	1435.63
618.53	1402.86
618.72	1333.23
618.91	1378.28
619.10	1517.54
619.29	1378.28
619.48	1394.67
619.68	1374.19
619.87	1386.47
620.06	1376.24
620.25	1400.81
620.44	1325.04
620.63	1386.47
620.82	1447.91
621.01	1361.90
621.20	1421.29
621.39	1396.71
621.59	1474.54
621.78	1388.52
621.97	1361.90
622.16	1355.76
622.35	1384.43
622.54	1312.75
622.73	1466.35
622.92	1341.42
623.11	1363.95
623.30	1327.08
623.49	1378.28
623.68	1363.95
623.88	1308.65
624.07	1402.86
624.26	1372.14
624.45	1306.60
624.64	1279.98
624.83	1341.42
625.02	1388.52
625.21	1343.47
625.40	1447.91
625.59	1402.86
625.78	1347.56
625.97	1466.35
626.16	1427.43
626.35	1468.39
626.54	1460.20
626.74	1556.46
626.93	1466.35
627.12	1464.30
627.31	1458.15
627.50	1406.95
627.69	1462.25
627.88	1396.71
628.07	1343.47
628.26	1337.32
628.45	1402.86
628.64	1318.89
628.83	1447.91
629.02	1349.61
629.21	1400.81
629.40	1306.60
629.59	1347.56
629.78	1382.38
629.97	1384.43
630.16	1386.47
630.35	1314.80
630.54	1396.71
630.73	1415.15
630.92	1431.53
631.11	1335.28
631.30	1376.24
631.49	1409.00
631.68	1386.47
631.87	1406.95
632.06	1374.19
632.25	1474.54
632.44	1390.57
632.63	1490.92
632.82	1386.47
633.01	1456.11
633.20	1527.78
633.39	1431.53
633.58	1497.07
633.77	1458.15
633.96	1478.63
634.15	1439.72
634.34	1368.04
634.53	1454.06
634.72	1392.62
634.91	1380.33
635.10	1429.48
635.29	1550.31
635.48	1372.14
635.67	1359.85
635.86	1388.52
636.05	1468.39
636.24	1337.32
636.43	1388.52
636.62	1429.48
636.81	1282.03
637.00	1372.14
637.19	1421.29
637.38	1363.95
637.57	1339.37
637.76	1449.96
637.95	1441.77
638.14	1503.21
638.33	1562.60
638.52	1433.58
638.71	1435.63
638.89	1435.63
639.08	1558.50
639.27	1441.77
639.46	1445.87
639.65	1683.43
639.84	1943.52
640.03	2023.39
640.22	2093.02
640.41	2119.65
640.60	1910.75
640.79	1761.25
640.98	1644.52
641.17	1654.76
641.36	1640.42
641.55	1544.17
641.74	1527.78
641.92	1576.94
642.11	1431.53
642.30	1509.35
642.49	1388.52
642.68	1400.81
642.87	1390.57
643.06	1411.05
643.25	1425.39
643.44	1374.19
643.63	1294.32
643.82	1402.86
644.00	1300.46
644.19	1380.33
644.38	1452.01
644.57	1417.19
644.76	1429.48
644.95	1359.85
645.14	1396.71
645.33	1351.66
645.52	1331.18
645.71	1337.32
645.89	1421.29
646.08	1331.18
646.27	1327.08
646.46	1394.67
646.65	1382.38
646.84	1388.52
647.03	1372.14
647.22	1394.67
647.40	1413.10
647.59	1372.14
647.78	1322.99
647.97	1304.56
648.16	1322.99
648.35	1484.78
648.54	1435.63
648.73	1402.86
648.91	1413.10
649.10	1322.99
649.29	1372.14
649.48	1320.94
649.67	1372.14
649.86	1400.81
650.05	1402.86
650.23	1503.21
650.42	1581.03
650.61	1589.22
650.80	1488.87
650.99	1583.08
651.18	1501.16
651.36	1478.63
651.55	1460.20
651.74	1437.67
651.93	1429.48
652.12	1441.77
652.31	1368.04
652.49	1411.05
652.68	1372.14
652.87	1454.06
653.06	1409.00
653.25	1480.68
653.44	1392.62
653.62	1521.64
653.81	1347.56
654.00	1376.24
654.19	1439.72
654.38	1488.87
654.56	1366.00
654.75	1370.09
654.94	1331.18
655.13	1429.48
655.32	1423.34
655.51	1333.23
655.69	1415.15
655.88	1452.01
656.07	1380.33
656.26	1351.66
656.45	1320.94
656.63	1329.13
656.82	1398.76
657.01	1423.34
657.20	1290.22
657.38	1435.63
657.57	1363.95
657.76	1224.69
657.95	1431.53
658.14	1423.34
658.32	1361.90
658.51	1341.42
658.70	1380.33
658.89	1386.47
659.08	1472.49
659.26	1452.01
659.45	1433.58
659.64	1445.87
659.83	1431.53
660.01	1480.68
660.20	1529.83
660.39	1462.25
660.58	1353.71
660.76	1396.71
660.95	1335.28
661.14	1378.28
661.33	1374.19
661.51	1376.24
661.70	1374.19
661.89	1425.39
662.08	1361.90
662.26	1388.52
662.45	1316.84
662.64	1531.88
662.83	1353.71
663.01	1445.87
663.20	1345.52
663.39	1472.49
663.58	1325.04
663.76	1402.86
663.95	1386.47
664.14	1308.65
664.32	1314.80
664.51	1380.33
664.70	1351.66
664.89	1378.28
665.07	1384.43
665.26	1404.91
665.45	1363.95
665.64	1363.95
665.82	1380.33
666.01	1437.67
666.20	1396.71
666.38	1507.30
666.57	1544.17
666.76	1429.48
666.95	2050.02
667.13	4288.45
667.32	11614.03
667.51	17878.77
667.69	21937.84
667.88	24848.00
668.07	24837.76
668.25	19046.11
668.44	13655.86
668.63	11198.29
668.81	9078.65
669.00	7972.74
669.19	7360.40
669.38	6885.27
669.56	6348.70
669.75	5744.55
669.94	4972.47
670.12	4165.57
670.31	3487.69
670.50	2869.20
670.68	2461.66
670.87	2090.98
671.06	1834.98
671.24	1714.15
671.43	1603.56
671.62	1531.88
671.80	1593.32
671.99	1533.93
672.18	1486.83
672.36	1478.63
672.55	1478.63
672.74	1366.00
672.92	1431.53
673.11	1439.72
673.29	1306.60
673.48	1415.15
673.67	1396.71
673.85	1423.34
674.04	1406.95
674.23	1400.81
674.41	1417.19
674.60	1349.61
674.79	1355.76
674.97	1417.19
675.16	1396.71
675.34	1363.95
675.53	1357.80
675.72	1363.95
675.90	1409.00
676.09	1341.42
676.28	1392.62
676.46	1314.80
676.65	1382.38
676.83	1366.00
677.02	1335.28
677.21	1359.85
677.39	1376.24
677.58	1325.04
677.77	1378.28
677.95	1390.57
678.14	1355.76
678.32	1290.22
678.51	1273.84
678.70	1476.59
678.88	1392.62
679.07	1400.81
679.25	1259.50
679.44	1357.80
679.63	1349.61
679.81	1378.28
680.00	1421.29
680.18	1335.28
680.37	1359.85
680.55	1386.47
680.74	1345.52
680.93	1337.32
681.11	1415.15
681.30	1476.59
681.48	1327.08
681.67	1452.01
681.85	1366.00
682.04	1404.91
682.23	1449.96
682.41	1325.04
682.60	1302.51
682.78	1388.52
682.97	1347.56
683.15	1372.14
683.34	1370.09
683.53	1378.28
683.71	1306.60
683.90	1413.10
684.08	1409.00
684.27	1464.30
684.45	1359.85
684.64	1368.04
684.82	1388.52
685.01	1374.19
685.19	1353.71
685.38	1447.91
685.57	1394.67
685.75	1331.18
685.94	1396.71
686.12	1386.47
686.31	1378.28
686.49	1495.02
686.68	1286.12
686.86	1472.49
687.05	1322.99
687.23	1386.47
687.42	1392.62
687.60	1351.66
687.79	1345.52
687.97	1449.96
688.16	1462.25
688.34	1433.58
688.53	1308.65
688.71	1429.48
688.90	1368.04
689.08	1304.56
689.27	1300.46
689.45	1406.95
689.64	1396.71
689.82	1392.62
690.01	1386.47
690.19	1368.04
690.38	1351.66
690.56	1468.39
690.75	1228.78
690.93	1351.66
691.12	1271.79
691.30	1359.85
691.49	1337.32
691.67	1320.94
691.86	1462.25
692.04	1390.57
692.23	1370.09
692.41	1462.25
692.60	1484.78
692.78	1488.87
692.97	1423.34
693.15	1472.49
693.34	1501.16
693.52	1472.49
693.71	1411.05
693.89	1353.71
694.08	1341.42
694.26	1433.58
694.44	1343.47
694.63	1370.09
694.81	1345.52
695.00	1441.77
695.18	1392.62
695.37	1535.98
695.55	1441.77
695.74	1447.91
695.92	1265.64
696.10	1269.74
696.29	1306.60
696.47	1314.80
696.66	1366.00
696.84	1376.24
697.03	1304.56
697.21	1482.73
697.40	1757.16
697.58	1452.01
697.76	1372.14
697.95	1320.94
698.13	1306.60
698.32	1398.76
698.50	1355.76
698.68	1437.67
698.87	1380.33
699.05	1458.15
699.24	1437.67
699.42	1411.05
699.61	1337.32
699.79	1413.10
699.97	1378.28
700.16	1306.60
700.34	1423.34
700.53	1325.04
700.71	1421.29
700.89	1359.85
701.08	1382.38
701.26	1386.47
701.45	1691.62
701.63	1460.20
701.81	1374.19
702.00	1357.80
702.18	1396.71
702.37	1402.86
702.55	1429.48
702.73	1445.87
702.92	1562.60
703.10	1607.66
703.28	1615.85
703.47	1613.80
703.65	1552.36
703.84	1613.80
704.02	1544.17
704.20	1568.74
704.39	1406.95
704.57	1439.72
704.75	1531.88
704.94	1507.30
705.12	1435.63
705.30	1404.91
705.49	1583.08
705.67	1867.75
705.86	3489.74
706.04	9324.40
706.22	16002.83
706.41	19947.22
706.59	22789.80
706.77	23725.72
706.96	19883.73
707.14	13981.48
707.32	11398.99
707.51	9289.59
707.69	8134.53
707.87	7307.15
708.06	6731.67
708.24	6154.15
708.42	4925.36
708.61	3987.40
708.79	3012.56
708.97	2480.09
709.16	2017.25
709.34	1732.58
709.52	1640.42
709.71	1507.30
709.89	1509.35
710.07	1445.87
710.26	1388.52
710.44	1427.43
710.62	1462.25
710.80	1363.95
710.99	1476.59
711.17	1509.35
711.35	1402.86
711.54	1347.56
711.72	1363.95
711.90	1454.06
712.09	1392.62
712.27	1372.14
712.45	1423.34
712.63	1355.76
712.82	1366.00
713.00	1363.95
713.18	1312.75
713.37	1341.42
713.55	1427.43
713.73	1392.62
713.91	1449.96
714.10	1341.42
714.28	1427.43
714.46	1384.43
714.65	1398.76
714.83	1411.05
715.01	1370.09
715.19	1376.24
715.38	1298.41
715.56	1372.14
715.74	1320.94
715.92	1372.14
716.11	1449.96
716.29	1390.57
716.47	1355.76
716.65	1384.43
716.84	1331.18
717.02	1421.29
717.20	1314.80
717.38	1363.95
717.57	1421.29
717.75	1318.89
717.93	1402.86
718.11	1353.71
718.30	1363.95
718.48	1421.29
718.66	1419.24
718.84	1439.72
719.03	1392.62
719.21	1304.56
719.39	1437.67
719.57	1355.76
719.75	1390.57
719.94	1363.95
720.12	1392.62
720.30	1339.37
720.48	1421.29
720.67	1361.90
720.85	1376.24
721.03	1335.28
721.21	1327.08
721.39	1427.43
721.58	1406.95
721.76	1363.95
721.94	1304.56
722.12	1456.11
722.30	1425.39
722.49	1351.66
722.67	1380.33
722.85	1325.04
723.03	1396.71
723.21	1370.09
723.40	1390.57
723.58	1476.59
723.76	1337.32
723.94	1406.95
724.12	1404.91
724.30	1490.92
724.49	1599.46
724.67	1456.11
724.85	1589.22
725.03	1341.42
725.21	1413.10
725.40	1392.62
725.58	1331.18
725.76	1470.44
725.94	1355.76
726.12	1404.91
726.30	1343.47
726.49	1343.47
726.67	1284.08
726.85	1396.71
727.03	1396.71
727.21	1447.91
727.39	1570.79
727.57	2129.89
727.76	3440.59
727.94	4458.43
728.12	4995.00
728.30	5304.24
728.48	5205.94
728.66	4177.86
728.84	3436.49
729.03	3147.73
729.21	2744.28
729.39	2545.63
729.57	2215.90
729.75	2025.44
729.93	1826.79
730.11	1654.76
730.30	1576.94
730.48	1499.11
730.66	1437.67
730.84	1345.52
731.02	1382.38
731.20	1333.23
731.38	1462.25
731.56	1341.42
731.74	1294.32
731.93	1411.05
732.11	1363.95
732.29	1322.99
732.47	1349.61
732.65	1372.14
732.83	1388.52
733.01	1339.37
733.19	1351.66
733.37	1449.96
733.56	1355.76
733.74	1341.42
733.92	1343.47
734.10	1261.55
734.28	1423.34
734.46	1284.08
734.64	1310.70
734.82	1302.51
735.00	1271.79
735.18	1370.09
735.36	1341.42
735.54	1343.47
735.73	1331.18
735.91	1402.86
736.09	1333.23
736.27	1376.24
736.45	1441.77
736.63	1218.54
736.81	1331.18
736.99	1419.24
737.17	1419.24
737.35	1417.19
737.53	1378.28
737.71	1294.32
737.89	1396.71
738.07	1353.71
738.25	1366.00
738.43	1208.30
738.61	1290.22
738.80	1320.94
738.98	1376.24
739.16	1382.38
739.34	1310.70
739.52	1368.04
739.70	1361.90
739.88	1400.81
740.06	1404.91
740.24	1269.74
740.42	1433.58
740.60	1398.76
740.78	1366.00
740.96	1282.03
741.14	1335.28
741.32	1349.61
741.50	1402.86
741.68	1482.73
741.86	1361.90
742.04	1296.36
742.22	1415.15
742.40	1413.10
742.58	1363.95
742.76	1337.32
742.94	1449.96
743.12	1314.80
743.30	1380.33
743.48	1380.33
743.66	1400.81
743.84	1443.82
744.02	1368.04
744.20	1409.00
744.38	1374.19
744.56	1263.60
744.74	1366.00
744.92	1474.54
745.10	1406.95
745.28	1415.15
745.46	1390.57
745.64	1409.00
745.82	1447.91
746.00	1404.91
746.18	1380.33
746.36	1327.08
746.54	1419.24
746.72	1325.04
746.90	1310.70
747.08	1456.11
747.26	1388.52
747.44	1400.81
747.62	1409.00
747.80	1386.47
747.98	1404.91
748.15	1398.76
748.33	1374.19
748.51	1413.10
748.69	1402.86
748.87	1351.66
749.05	1382.38
749.23	1413.10
749.41	1400.81
749.59	1298.41
749.77	1437.67
749.95	1402.86
750.13	1300.46
750.31	1349.61
750.49	1347.56
750.67	1400.81
750.85	1456.11
751.03	1372.14
751.20	1445.87
751.38	1388.52
751.56	1368.04
751.74	1290.22
751.92	1372.14
752.10	1325.04
752.28	1366.00
752.46	1333.23
752.64	1298.41
752.82	1368.04
753.00	1402.86
753.18	1396.71
753.35	1310.70
753.53	1372.14
753.71	1357.80
753.89	1390.57
754.07	1368.04
754.25	1390.57
754.43	1388.52
754.61	1374.19
754.79	1406.95
754.97	1359.85
755.14	1400.81
755.32	1357.80
755.50	1437.67
755.68	1308.65
755.86	1339.37
756.04	1318.89
756.22	1302.51
756.40	1390.57
756.57	1374.19
756.75	1396.71
756.93	1400.81
757.11	1341.42
757.29	1314.80
757.47	1333.23
757.65	1320.94
757.82	1343.47
758.00	1341.42
758.18	1331.18
758.36	1320.94
758.54	1458.15
758.72	1308.65
758.90	1370.09
759.07	1394.67
759.25	1339.37
759.43	1456.11
759.61	1339.37
759.79	1658.85
759.97	1417.19
760.15	1294.32
760.32	1286.12
760.50	1433.58
760.68	1357.80
760.86	1263.60
761.04	1452.01
761.22	1402.86
761.39	1372.14
761.57	1341.42
761.75	1363.95
761.93	1447.91
762.11	1331.18
762.28	1345.52
762.46	1322.99
762.64	1370.09
762.82	1370.09
763.00	1355.76
763.18	1388.52
763.35	1306.60
763.53	1423.34
763.71	1325.04
763.89	1396.71
764.07	1386.47
764.24	1427.43
764.42	1351.66
764.60	1318.89
764.78	1349.61
764.96	1331.18
765.13	1384.43
765.31	1413.10
765.49	1454.06
765.67	1345.52
765.84	1308.65
766.02	1380.33
766.20	1349.61
766.38	1378.28
766.56	1443.82
766.73	1370.09
766.91	1273.84
767.09	1374.19
767.27	1341.42
767.44	1271.79
767.62	1376.24
767.80	1372.14
767.98	1363.95
768.15	1318.89
768.33	1413.10
768.51	1339.37
768.69	1349.61
768.87	1421.29
769.04	1388.52
769.22	1445.87
769.40	1347.56
769.58	1443.82
769.75	1411.05
769.93	1390.57
770.11	1308.65
770.28	1351.66
770.46	1423.34
770.64	1329.13
770.82	1380.33
770.99	1376.24
771.17	1386.47
771.35	1355.76
771.53	1394.67
771.70	1361.90
771.88	1388.52
772.06	1359.85
772.23	1384.43
772.41	1376.24
772.59	1372.14
772.77	1255.40
772.94	1366.00
773.12	1320.94
773.30	1398.76
773.47	1400.81
773.65	1374.19
773.83	1400.81
774.01	1378.28
774.18	1245.16
774.36	1351.66
774.54	1361.90
774.71	1368.04
774.89	1302.51
775.07	1361.90
775.24	1335.28
775.42	1345.52
775.60	1535.98
775.78	1282.03
775.95	1265.64
776.13	1349.61
776.31	1255.40
776.48	1417.19
776.66	1454.06
776.84	1402.86
777.01	1312.75
777.19	1413.10
777.37	1351.66
777.54	1378.28
777.72	1454.06
777.90	1386.47
778.07	1363.95
778.25	1419.24
778.43	1402.86
778.60	1402.86
778.78	1409.00
778.96	1335.28
779.13	1318.89
779.31	1341.42
779.49	1402.86
779.66	1304.56
779.84	1386.47
780.01	1417.19
780.19	1366.00
780.37	1388.52
780.54	1366.00
780.72	1341.42
780.90	1380.33
781.07	1374.19
781.25	1380.33
781.43	1335.28
781.60	1322.99
781.78	1359.85
781.95	1417.19
782.13	1359.85
782.31	1361.90
782.48	1316.84
782.66	1325.04
782.83	1470.44
783.01	1411.05
783.19	1406.95
783.36	1372.14
783.54	1335.28
783.72	1445.87
783.89	1322.99
784.07	1353.71
784.24	1300.46
784.42	1392.62
784.60	1421.29
784.77	1390.57
784.95	1341.42
785.12	1314.80
785.30	1415.15
785.47	1304.56
785.65	1357.80
785.83	1386.47
786.00	1341.42
786.18	1284.08
786.35	1232.88
786.53	1363.95
786.71	1386.47
786.88	1361.90
787.06	1265.64
787.23	1353.71
787.41	1314.80
787.58	1404.91
787.76	1275.88
787.94	1363.95
788.11	1325.04
788.29	1368.04
788.46	1349.61
788.64	1310.70
788.81	1331.18
788.99	1347.56
789.16	1351.66
789.34	1341.42
789.52	1351.66
789.69	1359.85
789.87	1308.65
790.04	1273.84
790.22	1335.28
790.39	1427.43
790.57	1298.41
790.74	1339.37
790.92	1396.71
791.09	1341.42
791.27	1337.32
791.44	1388.52
791.62	1368.04
791.79	1378.28
791.97	1392.62
792.15	1445.87
792.32	1316.84
792.50	1390.57
792.67	1472.49
792.85	1370.09
793.02	1351.66
793.20	1322.99
793.37	1298.41
793.55	1402.86
793.72	1349.61
793.90	1380.33
794.07	1300.46
794.25	1333.23
794.42	1392.62
794.60	1343.47
794.77	1339.37
794.95	1411.05
795.12	1458.15
795.30	1390.57
795.47	1318.89
795.65	1478.63
795.82	1363.95
796.00	1327.08
796.17	1357.80
796.34	1304.56
796.52	1331.18
796.69	1398.76
796.87	1308.65
797.04	1366.00
797.22	1433.58
797.39	1411.05
797.57	1435.63
797.74	1351.66
797.92	1380.33
798.09	1304.56
798.27	1394.67
798.44	1282.03
798.62	1417.19
798.79	1347.56
798.96	1296.36
799.14	1376.24
799.31	1490.92
799.49	1409.00
799.66	1372.14
799.84	1441.77
800.01	1290.22
800.19	1386.47
800.36	1329.13
800.53	1345.52
800.71	1333.23
800.88	1433.58
801.06	1366.00
801.23	1304.56
801.41	1417.19
801.58	1312.75
801.75	1314.80
801.93	1347.56
802.10	1351.66
802.28	1318.89
802.45	1386.47
802.63	1400.81
802.80	1390.57
802.97	1386.47
803.15	1406.95
803.32	1386.47
803.50	1417.19
803.67	1339.37
803.84	1384.43
804.02	1400.81
804.19	1462.25
804.37	1288.17
804.54	1329.13
804.71	1382.38
804.89	1349.61
805.06	1306.60
805.24	1347.56
805.41	1370.09
805.58	1310.70
805.76	1409.00
805.93	1341.42
806.10	1484.78
806.28	1357.80
806.45	1347.56
806.63	1343.47
806.80	1398.76
806.97	1378.28
807.15	1423.34
807.32	1341.42
807.49	1355.76
807.67	1294.32
807.84	1361.90
808.01	1337.32
808.19	1415.15
808.36	1437.67
808.54	1363.95
808.71	1310.70
808.88	1400.81
809.06	1339.37
809.23	1404.91
809.40	1314.80
809.58	1382.38
809.75	1298.41
809.92	1376.24
810.10	1380.33
810.27	1345.52
810.44	1431.53
810.62	1304.56
810.79	1396.71
810.96	1411.05
811.14	1363.95
811.31	1312.75
811.48	1402.86
811.66	1275.88
811.83	1433.58
812.00	1380.33
812.18	1419.24
812.35	1380.33
812.52	1331.18
812.69	1337.32
812.87	1347.56
813.04	1329.13
813.21	1368.04
813.39	1351.66
813.56	1337.32
813.73	1454.06
813.91	1322.99
814.08	1409.00
814.25	1421.29
814.42	1347.56
814.60	1380.33
814.77	1322.99
814.94	1292.27
815.12	1327.08
815.29	1318.89
815.46	1349.61
815.63	1325.04
815.81	1359.85
815.98	1290.22
816.15	1452.01
816.33	1363.95
816.50	1372.14
816.67	1310.70
816.84	1372.14
817.02	1284.08
817.19	1355.76
817.36	1325.04
817.53	1425.39
817.71	1320.94
817.88	1370.09
818.05	1345.52
818.22	1361.90
818.40	1429.48
818.57	1331.18
818.74	1374.19
818.91	1400.81
819.09	1394.67
819.26	1409.00
819.43	1396.71
819.60	1370.09
819.78	1435.63
819.95	1413.10
820.12	1290.22
820.29	1374.19
820.47	1406.95
820.64	1388.52
820.81	1318.89
820.98	1329.13
821.15	1392.62
821.33	1306.60
821.50	1282.03
821.67	1433.58
821.84	1433.58
822.02	1372.14
822.19	1372.14
822.36	1374.19
822.53	1310.70
822.70	1341.42
822.88	1314.80
823.05	1370.09
823.22	1368.04
823.39	1382.38
823.56	1322.99
823.74	1392.62
823.91	1361.90
824.08	1382.38
824.25	1282.03
824.42	1341.42
824.60	1331.18
824.77	1402.86
824.94	1318.89
825.11	1413.10
825.28	1284.08
825.45	1396.71
825.63	1337.32
825.80	1316.84
825.97	1341.42
826.14	1349.61
826.31	1351.66
826.48	1427.43
826.66	1314.80
826.83	1368.04
827.00	1331.18
827.17	1345.52
827.34	1296.36
827.51	1345.52
827.69	1337.32
827.86	1386.47
828.03	1316.84
828.20	1376.24
828.37	1314.80
828.54	1394.67
828.71	1339.37
828.89	1447.91
829.06	1400.81
829.23	1361.90
829.40	1312.75
829.57	1370.09
829.74	1333.23
829.91	1304.56
830.09	1304.56
830.26	1456.11
830.43	1423.34
830.60	1417.19
830.77	1351.66
830.94	1335.28
831.11	1394.67
831.28	1314.80
831.46	1404.91
831.63	1359.85
831.80	1370.09
831.97	1390.57
832.14	1368.04
832.31	1435.63
832.48	1343.47
832.65	1359.85
832.82	1343.47
832.99	1331.18
833.17	1302.51
833.34	1398.76
833.51	1419.24
833.68	1263.60
833.85	1335.28
834.02	1314.80
834.19	1396.71
834.36	1294.32
834.53	1355.76
834.70	1374.19
834.87	1363.95
835.04	1368.04
835.22	1306.60
835.39	1402.86
835.56	1292.27
835.73	1357.80
835.90	1366.00
836.07	1279.98
836.24	1366.00
836.41	1337.32
836.58	1351.66
836.75	1454.06
836.92	1437.67
837.09	1314.80
837.26	1382.38
837.43	1310.70
837.60	1312.75
837.77	1376.24
837.94	1392.62
838.12	1370.09
838.29	1378.28
838.46	1429.48
838.63	1411.05
838.80	1507.30
838.97	1413.10
839.14	1370.09
839.31	1359.85
839.48	1388.52
839.65	1398.76
839.82	1472.49
839.99	1337.32
840.16	1372.14
840.33	1337.32
840.50	1314.80
840.67	1363.95
840.84	1277.93
841.01	1341.42
841.18	1384.43
841.35	1374.19
841.52	1396.71
841.69	1382.38
841.86	1275.88
842.03	1286.12
842.20	1452.01
842.37	1331.18
842.54	1390.57
842.71	1345.52
842.88	1339.37
843.05	1329.13
843.22	1339.37
843.39	1370.09
843.56	1296.36
843.73	1343.47
843.90	1390.57
844.07	1437.67
844.24	1421.29
844.41	1345.52
844.58	1413.10
844.75	1411.05
844.92	1419.24
845.09	1366.00
845.26	1279.98
845.43	1396.71
845.60	1409.00
845.77	1349.61
845.94	1273.84
846.10	1400.81
846.27	1298.41
846.44	1372.14
846.61	1306.60
846.78	1454.06
846.95	1355.76
847.12	1388.52
847.29	1347.56
847.46	1282.03
847.63	1376.24
847.80	1273.84
847.97	1339.37
848.14	1411.05
848.31	1357.80
848.48	1263.60
848.65	1366.00
848.82	1312.75
848.98	1445.87
849.15	1372.14
849.32	1370.09
849.49	1417.19
849.66	1437.67
849.83	1402.86
850.00	1341.42
850.17	1370.09
850.34	1271.79
850.51	1343.47
850.68	1400.81
850.85	1458.15
851.01	1425.39
851.18	1417.19
851.35	1357.80
851.52	1353.71
851.69	1429.48
851.86	1372.14
852.03	1363.95
852.20	1429.48
852.37	1396.71
852.53	1296.36
852.70	1372.14
852.87	1419.24
853.04	1411.05
853.21	1406.95
853.38	1366.00
853.55	1435.63
853.72	1349.61
853.89	1372.14
854.05	1394.67
854.22	1374.19
854.39	1314.80
854.56	1406.95
854.73	1460.20
854.90	1404.91
855.07	1396.71
855.23	1298.41
855.40	1357.80
855.57	1310.70
855.74	1210.35
855.91	1501.16
856.08	1394.67
856.25	1353.71
856.41	1413.10
856.58	1318.89
856.75	1296.36
856.92	1284.08
857.09	1368.04
857.26	1392.62
857.42	1300.46
857.59	1366.00
857.76	1378.28
857.93	1370.09
858.10	1376.24
858.27	1359.85
858.43	1400.81
858.60	1302.51
858.77	1234.93
858.94	1353.71
859.11	1431.53
859.27	1392.62
859.44	1415.15
859.61	1445.87
859.78	1396.71
859.95	1337.32
860.12	1382.38
860.28	1429.48
860.45	1355.76
860.62	1331.18
860.79	1339.37
860.95	1312.75
861.12	1361.90
861.29	1284.08
861.46	1320.94
861.63	1325.04
861.79	1329.13
861.96	1327.08
862.13	1339.37
862.30	1421.29
862.47	1351.66
862.63	1327.08
862.80	1425.39
862.97	1427.43
863.14	1419.24
863.30	1320.94
863.47	1331.18
863.64	1411.05
863.81	1411.05
863.97	1341.42
864.14	1384.43
864.31	1329.13
864.48	1361.90
864.65	1327.08
864.81	1339.37
864.98	1335.28
865.15	1341.42
865.32	1316.84
865.48	1452.01
865.65	1370.09
865.82	1406.95
865.98	1458.15
866.15	1378.28
866.32	1292.27
866.49	1409.00
866.65	1374.19
866.82	1327.08
866.99	1370.09
867.16	1345.52
867.32	1331.18
867.49	1409.00
867.66	1341.42
867.83	1288.17
867.99	1376.24
868.16	1333.23
868.33	1339.37
868.49	1355.76
868.66	1347.56
868.83	1427.43
868.99	1386.47
869.16	1394.67
869.33	1394.67
869.50	1415.15
869.66	1343.47
869.83	1376.24
870.00	1368.04
870.16	1404.91
870.33	1310.70
870.50	1363.95
870.66	1286.12
870.83	1495.02
871.00	1433.58
871.17	1314.80
871.33	1347.56
871.50	1304.56
871.67	1394.67
871.83	1343.47
872.00	1421.29
872.17	1441.77
872.33	1509.35
872.50	1390.57
872.67	1345.52
872.83	1370.09
873.00	1472.49
873.17	1355.76
873.33	1433.58
873.50	1382.38
873.67	1329.13
873.83	1355.76
874.00	1402.86
874.16	1392.62
874.33	1333.23
874.50	1337.32
874.66	1482.73
874.83	1337.32
875.00	1419.24
875.16	1413.10
875.33	1429.48
875.50	1220.59
875.66	1263.60
875.83	1339.37
875.99	1437.67
876.16	1318.89
876.33	1331.18
876.49	1353.71
876.66	1411.05
876.83	1331.18
876.99	1261.55
877.16	1359.85
877.32	1363.95
877.49	1304.56
877.66	1355.76
877.82	1503.21
877.99	1372.14
878.15	1353.71
878.32	1421.29
878.49	1402.86
878.65	1415.15
878.82	1449.96
878.98	1374.19
879.15	1368.04
879.32	1357.80
879.48	1325.04
879.65	1341.42
879.81	1290.22
879.98	1255.40
880.15	1380.33
880.31	1335.28
880.48	1304.56
880.64	1460.20
880.81	1361.90
880.97	1419.24
881.14	1368.04
881.31	1288.17
881.47	1503.21
881.64	1337.32
881.80	1343.47
881.97	1318.89
882.13	1435.63
882.30	1355.76
882.47	1320.94
882.63	1292.27
882.80	1302.51
882.96	1325.04
883.13	1431.53
883.29	1392.62
883.46	1443.82
883.62	1431.53
883.79	1322.99
883.95	1394.67
884.12	1353.71
884.29	1394.67
884.45	1357.80
884.62	1398.76
884.78	1341.42
884.95	1376.24
885.11	1388.52
885.28	1427.43
885.44	1339.37
885.61	1390.57
885.77	1372.14
885.94	1409.00
886.10	1402.86
886.27	1437.67
886.43	1439.72
886.60	1355.76
886.76	1392.62
886.93	1361.90
887.09	1382.38
887.26	1331.18
887.42	1351.66
887.59	1382.38
887.75	1425.39
887.92	1370.09
888.08	1345.52
888.25	1406.95
888.41	1456.11
888.58	1439.72
888.74	1302.51
888.91	1314.80
>>>>>End Processed Spectral Data<<<<<
