SpectraSuite Data File
++++++++++++++++++++++++++++++++++++
Date: Tue May 03 11:24:09 CEST 2016
User: root
Dark Spectrum Present: No
Reference Spectrum Present: No
Number of Sampled Component Spectra: 1
Spectrometers: USB4C02835
Integration Time (usec): 100000 (USB4C02835)
Spectra Averaged: 1 (USB4C02835)
Boxcar Smoothing: 0 (USB4C02835)
Correct for Electrical Dark: No (USB4C02835)
Strobe/Lamp Enabled: No (USB4C02835)
Correct for Detector Non-linearity: No (USB4C02835)
Correct for Stray Light: No (USB4C02835)
Number of Pixels in Processed Spectrum: 3648
>>>>>Begin Processed Spectral Data<<<<<
177.47	1261.55
177.69	1261.55
177.91	1261.55
178.13	1232.88
178.36	1206.25
178.58	1384.43
178.80	1396.71
179.02	1263.60
179.24	1331.18
179.46	1335.28
179.68	1402.86
179.90	1325.04
180.13	1267.69
180.35	1359.85
180.57	1423.34
180.79	1333.23
181.01	1380.33
181.23	1525.74
181.45	1443.82
181.67	1386.47
181.90	1398.76
182.12	1347.56
182.34	1359.85
182.56	1304.56
182.78	1380.33
183.00	1386.47
183.22	1314.80
183.44	1310.70
183.66	1445.87
183.89	1396.71
184.11	1413.10
184.33	1347.56
184.55	1400.81
184.77	1394.67
184.99	1423.34
185.21	1343.47
185.43	1402.86
185.65	1314.80
185.87	1464.30
186.10	1439.72
186.32	1363.95
186.54	1402.86
186.76	1376.24
186.98	1396.71
187.20	1337.32
187.42	1353.71
187.64	1411.05
187.86	1314.80
188.08	1296.36
188.30	1382.38
188.52	1286.12
188.75	1368.04
188.97	1357.80
189.19	1368.04
189.41	1372.14
189.63	1353.71
189.85	1382.38
190.07	1310.70
190.29	1304.56
190.51	1396.71
190.73	1312.75
190.95	1419.24
191.17	1359.85
191.39	1335.28
191.61	1322.99
191.84	1263.60
192.06	1376.24
192.28	1322.99
192.50	1468.39
192.72	1466.35
192.94	1361.90
193.16	1421.29
193.38	1304.56
193.60	1329.13
193.82	1329.13
194.04	1370.09
194.26	1370.09
194.48	1335.28
194.70	1320.94
194.92	1341.42
195.14	1386.47
195.36	1368.04
195.58	1361.90
195.80	1296.36
196.02	1322.99
196.24	1431.53
196.46	1376.24
196.69	1335.28
196.91	1523.69
197.13	1290.22
197.35	1388.52
197.57	1404.91
197.79	1298.41
198.01	1409.00
198.23	1413.10
198.45	1384.43
198.67	1337.32
198.89	1388.52
199.11	1347.56
199.33	1361.90
199.55	1302.51
199.77	1361.90
199.99	1394.67
200.21	1306.60
200.43	1376.24
200.65	1349.61
200.87	1247.21
201.09	1421.29
201.31	1361.90
201.53	1421.29
201.75	1406.95
201.97	1304.56
202.19	1366.00
202.41	1345.52
202.63	1474.54
202.85	1384.43
203.07	1384.43
203.29	1392.62
203.51	1322.99
203.73	1378.28
203.95	1464.30
204.17	1366.00
204.39	1376.24
204.61	1413.10
204.83	1415.15
205.05	1445.87
205.27	1419.24
205.49	1394.67
205.71	1378.28
205.93	1327.08
206.15	1378.28
206.37	1421.29
206.59	1339.37
206.81	1349.61
207.03	1374.19
207.25	1273.84
207.47	1400.81
207.69	1308.65
207.91	1482.73
208.13	1390.57
208.34	1411.05
208.56	1296.36
208.78	1363.95
209.00	1411.05
209.22	1347.56
209.44	1376.24
209.66	1271.79
209.88	1429.48
210.10	1386.47
210.32	1384.43
210.54	1390.57
210.76	1366.00
210.98	1462.25
211.20	1275.88
211.42	1376.24
211.64	1409.00
211.86	1417.19
212.08	1359.85
212.30	1374.19
212.52	1286.12
212.74	1394.67
212.96	1411.05
213.17	1439.72
213.39	1314.80
213.61	1388.52
213.83	1359.85
214.05	1392.62
214.27	1435.63
214.49	1277.93
214.71	1333.23
214.93	1361.90
215.15	1329.13
215.37	1335.28
215.59	1431.53
215.81	1396.71
216.03	1435.63
216.24	1370.09
216.46	1380.33
216.68	1421.29
216.90	1398.76
217.12	1400.81
217.34	1429.48
217.56	1402.86
217.78	1366.00
218.00	1419.24
218.22	1312.75
218.44	1357.80
218.66	1374.19
218.87	1386.47
219.09	1417.19
219.31	1347.56
219.53	1318.89
219.75	1298.41
219.97	1327.08
220.19	1417.19
220.41	1374.19
220.63	1423.34
220.85	1411.05
221.06	1370.09
221.28	1370.09
221.50	1441.77
221.72	1380.33
221.94	1359.85
222.16	1404.91
222.38	1392.62
222.60	1404.91
222.82	1368.04
223.03	1310.70
223.25	1302.51
223.47	1429.48
223.69	1413.10
223.91	1368.04
224.13	1370.09
224.35	1380.33
224.57	1468.39
224.78	1417.19
225.00	1316.84
225.22	1355.76
225.44	1427.43
225.66	1423.34
225.88	1341.42
226.10	1390.57
226.32	1486.83
226.53	1359.85
226.75	1400.81
226.97	1335.28
227.19	1423.34
227.41	1333.23
227.63	1427.43
227.85	1275.88
228.06	1384.43
228.28	1351.66
228.50	1396.71
228.72	1359.85
228.94	1314.80
229.16	1335.28
229.37	1343.47
229.59	1353.71
229.81	1484.78
230.03	1415.15
230.25	1353.71
230.47	1386.47
230.69	1292.27
230.90	1380.33
231.12	1359.85
231.34	1400.81
231.56	1355.76
231.78	1368.04
232.00	1382.38
232.21	1359.85
232.43	1343.47
232.65	1261.55
232.87	1386.47
233.09	1366.00
233.30	1269.74
233.52	1333.23
233.74	1374.19
233.96	1282.03
234.18	1370.09
234.40	1331.18
234.61	1523.69
234.83	1357.80
235.05	1320.94
235.27	1439.72
235.49	1447.91
235.70	1406.95
235.92	1394.67
236.14	1460.20
236.36	1456.11
236.58	1355.76
236.79	1429.48
237.01	1337.32
237.23	1359.85
237.45	1413.10
237.67	1409.00
237.88	1339.37
238.10	1460.20
238.32	1382.38
238.54	1370.09
238.76	1376.24
238.97	1368.04
239.19	1378.28
239.41	1486.83
239.63	1480.68
239.85	1308.65
240.06	1327.08
240.28	1372.14
240.50	1398.76
240.72	1435.63
240.93	1339.37
241.15	1390.57
241.37	1376.24
241.59	1443.82
241.81	1300.46
242.02	1308.65
242.24	1396.71
242.46	1345.52
242.68	1298.41
242.89	1445.87
243.11	1392.62
243.33	1366.00
243.55	1298.41
243.76	1404.91
243.98	1318.89
244.20	1361.90
244.42	1423.34
244.64	1392.62
244.85	1292.27
245.07	1314.80
245.29	1427.43
245.51	1396.71
245.72	1386.47
245.94	1335.28
246.16	1331.18
246.38	1372.14
246.59	1310.70
246.81	1282.03
247.03	1396.71
247.24	1286.12
247.46	1357.80
247.68	1363.95
247.90	1396.71
248.11	1327.08
248.33	1368.04
248.55	1347.56
248.77	1357.80
248.98	1433.58
249.20	1411.05
249.42	1374.19
249.64	1419.24
249.85	1357.80
250.07	1380.33
250.29	1337.32
250.50	1355.76
250.72	1347.56
250.94	1353.71
251.16	1390.57
251.37	1402.86
251.59	1409.00
251.81	1318.89
252.02	1402.86
252.24	1396.71
252.46	1392.62
252.68	1216.49
252.89	1372.14
253.11	1261.55
253.33	1417.19
253.54	1368.04
253.76	1288.17
253.98	1284.08
254.20	1386.47
254.41	1320.94
254.63	1390.57
254.85	1292.27
255.06	1388.52
255.28	1390.57
255.50	1421.29
255.71	1380.33
255.93	1263.60
256.15	1384.43
256.36	1351.66
256.58	1318.89
256.80	1427.43
257.02	1382.38
257.23	1304.56
257.45	1396.71
257.67	1386.47
257.88	1298.41
258.10	1327.08
258.32	1402.86
258.53	1306.60
258.75	1402.86
258.97	1318.89
259.18	1413.10
259.40	1386.47
259.62	1394.67
259.83	1425.39
260.05	1456.11
260.27	1574.89
260.48	1359.85
260.70	1357.80
260.92	1355.76
261.13	1355.76
261.35	1413.10
261.57	1398.76
261.78	1294.32
262.00	1312.75
262.22	1396.71
262.43	1353.71
262.65	1417.19
262.86	1378.28
263.08	1351.66
263.30	1427.43
263.51	1343.47
263.73	1347.56
263.95	1355.76
264.16	1327.08
264.38	1357.80
264.60	1314.80
264.81	1392.62
265.03	1441.77
265.25	1363.95
265.46	1357.80
265.68	1417.19
265.89	1386.47
266.11	1357.80
266.33	1376.24
266.54	1359.85
266.76	1363.95
266.98	1490.92
267.19	1372.14
267.41	1392.62
267.62	1337.32
267.84	1322.99
268.06	1386.47
268.27	1374.19
268.49	1433.58
268.70	1355.76
268.92	1429.48
269.14	1384.43
269.35	1320.94
269.57	1388.52
269.79	1419.24
270.00	1392.62
270.22	1398.76
270.43	1363.95
270.65	1322.99
270.87	1349.61
271.08	1343.47
271.30	1368.04
271.51	1361.90
271.73	1386.47
271.95	1345.52
272.16	1284.08
272.38	1419.24
272.59	1392.62
272.81	1372.14
273.02	1386.47
273.24	1419.24
273.46	1374.19
273.67	1355.76
273.89	1380.33
274.10	1292.27
274.32	1349.61
274.54	1415.15
274.75	1421.29
274.97	1314.80
275.18	1425.39
275.40	1398.76
275.61	1314.80
275.83	1411.05
276.05	1351.66
276.26	1288.17
276.48	1366.00
276.69	1337.32
276.91	1353.71
277.12	1394.67
277.34	1394.67
277.55	1345.52
277.77	1329.13
277.99	1421.29
278.20	1312.75
278.42	1310.70
278.63	1318.89
278.85	1325.04
279.06	1337.32
279.28	1378.28
279.49	1355.76
279.71	1347.56
279.93	1361.90
280.14	1339.37
280.36	1347.56
280.57	1452.01
280.79	1411.05
281.00	1392.62
281.22	1341.42
281.43	1431.53
281.65	1314.80
281.86	1341.42
282.08	1398.76
282.29	1411.05
282.51	1284.08
282.73	1333.23
282.94	1384.43
283.16	1431.53
283.37	1441.77
283.59	1353.71
283.80	1345.52
284.02	1378.28
284.23	1318.89
284.45	1427.43
284.66	1339.37
284.88	1339.37
285.09	1325.04
285.31	1431.53
285.52	1433.58
285.74	1325.04
285.95	1419.24
286.17	1337.32
286.38	1363.95
286.60	1320.94
286.81	1378.28
287.03	1345.52
287.24	1279.98
287.46	1390.57
287.67	1345.52
287.89	1355.76
288.10	1372.14
288.32	1310.70
288.53	1423.34
288.75	1443.82
288.96	1402.86
289.18	1292.27
289.39	1466.35
289.61	1413.10
289.82	1484.78
290.04	1435.63
290.25	1322.99
290.47	1349.61
290.68	1327.08
290.90	1411.05
291.11	1265.64
291.33	1402.86
291.54	1333.23
291.76	1386.47
291.97	1370.09
292.18	1429.48
292.40	1345.52
292.61	1402.86
292.83	1429.48
293.04	1388.52
293.26	1406.95
293.47	1345.52
293.69	1282.03
293.90	1355.76
294.12	1388.52
294.33	1376.24
294.55	1374.19
294.76	1343.47
294.97	1372.14
295.19	1511.40
295.40	1413.10
295.62	1357.80
295.83	1454.06
296.05	1331.18
296.26	1476.59
296.48	1320.94
296.69	1353.71
296.90	1312.75
297.12	1441.77
297.33	1390.57
297.55	1351.66
297.76	1429.48
297.98	1359.85
298.19	1353.71
298.41	1320.94
298.62	1331.18
298.83	1404.91
299.05	1345.52
299.26	1355.76
299.48	1351.66
299.69	1314.80
299.90	1345.52
300.12	1341.42
300.33	1357.80
300.55	1386.47
300.76	1388.52
300.98	1271.79
301.19	1419.24
301.40	1382.38
301.62	1380.33
301.83	1341.42
302.05	1337.32
302.26	1376.24
302.47	1296.36
302.69	1304.56
302.90	1343.47
303.12	1302.51
303.33	1357.80
303.54	1454.06
303.76	1310.70
303.97	1421.29
304.19	1353.71
304.40	1327.08
304.61	1386.47
304.83	1429.48
305.04	1394.67
305.26	1329.13
305.47	1398.76
305.68	1384.43
305.90	1345.52
306.11	1427.43
306.33	1335.28
306.54	1341.42
306.75	1286.12
306.97	1282.03
307.18	1329.13
307.39	1308.65
307.61	1437.67
307.82	1282.03
308.04	1449.96
308.25	1357.80
308.46	1351.66
308.68	1378.28
308.89	1327.08
309.10	1386.47
309.32	1409.00
309.53	1327.08
309.74	1355.76
309.96	1363.95
310.17	1392.62
310.39	1279.98
310.60	1394.67
310.81	1435.63
311.03	1320.94
311.24	1304.56
311.45	1320.94
311.67	1441.77
311.88	1431.53
312.09	1337.32
312.31	1327.08
312.52	1337.32
312.73	1331.18
312.95	1341.42
313.16	1304.56
313.37	1425.39
313.59	1241.07
313.80	1462.25
314.01	1421.29
314.23	1353.71
314.44	1347.56
314.65	1271.79
314.87	1292.27
315.08	1380.33
315.29	1419.24
315.51	1329.13
315.72	1363.95
315.93	1499.11
316.15	1413.10
316.36	1357.80
316.57	1380.33
316.79	1347.56
317.00	1320.94
317.21	1366.00
317.43	1310.70
317.64	1372.14
317.85	1372.14
318.07	1441.77
318.28	1576.94
318.49	1505.26
318.70	1656.81
318.92	1458.15
319.13	1431.53
319.34	1515.50
319.56	1445.87
319.77	1443.82
319.98	1423.34
320.20	1445.87
320.41	1433.58
320.62	1431.53
320.83	1314.80
321.05	1495.02
321.26	1419.24
321.47	1388.52
321.69	1384.43
321.90	1396.71
322.11	1388.52
322.32	1415.15
322.54	1454.06
322.75	1337.32
322.96	1423.34
323.18	1363.95
323.39	1265.64
323.60	1331.18
323.81	1355.76
324.03	1366.00
324.24	1357.80
324.45	1333.23
324.66	1357.80
324.88	1341.42
325.09	1380.33
325.30	1355.76
325.52	1372.14
325.73	1341.42
325.94	1402.86
326.15	1304.56
326.37	1322.99
326.58	1380.33
326.79	1470.44
327.00	1284.08
327.22	1396.71
327.43	1325.04
327.64	1419.24
327.85	1372.14
328.07	1325.04
328.28	1382.38
328.49	1347.56
328.70	1335.28
328.92	1335.28
329.13	1372.14
329.34	1228.78
329.55	1396.71
329.76	1413.10
329.98	1372.14
330.19	1394.67
330.40	1353.71
330.61	1368.04
330.83	1427.43
331.04	1347.56
331.25	1394.67
331.46	1345.52
331.68	1306.60
331.89	1394.67
332.10	1347.56
332.31	1337.32
332.52	1341.42
332.74	1398.76
332.95	1380.33
333.16	1392.62
333.37	1411.05
333.58	1394.67
333.80	1384.43
334.01	1318.89
334.22	1368.04
334.43	1300.46
334.64	1345.52
334.86	1288.17
335.07	1304.56
335.28	1382.38
335.49	1302.51
335.70	1329.13
335.92	1382.38
336.13	1433.58
336.34	1413.10
336.55	1406.95
336.76	1353.71
336.98	1296.36
337.19	1409.00
337.40	1443.82
337.61	1503.21
337.82	1312.75
338.04	1390.57
338.25	1304.56
338.46	1370.09
338.67	1331.18
338.88	1294.32
339.09	1314.80
339.31	1392.62
339.52	1372.14
339.73	1370.09
339.94	1325.04
340.15	1431.53
340.36	1411.05
340.58	1400.81
340.79	1298.41
341.00	1378.28
341.21	1396.71
341.42	1398.76
341.63	1331.18
341.85	1372.14
342.06	1318.89
342.27	1347.56
342.48	1454.06
342.69	1277.93
342.90	1359.85
343.12	1363.95
343.33	1306.60
343.54	1413.10
343.75	1425.39
343.96	1370.09
344.17	1370.09
344.38	1351.66
344.60	1366.00
344.81	1300.46
345.02	1339.37
345.23	1347.56
345.44	1501.16
345.65	1316.84
345.86	1413.10
346.07	1353.71
346.29	1339.37
346.50	1439.72
346.71	1351.66
346.92	1388.52
347.13	1406.95
347.34	1368.04
347.55	1394.67
347.76	1388.52
347.98	1298.41
348.19	1316.84
348.40	1376.24
348.61	1288.17
348.82	1421.29
349.03	1378.28
349.24	1370.09
349.45	1392.62
349.66	1259.50
349.88	1347.56
350.09	1363.95
350.30	1398.76
350.51	1398.76
350.72	1343.47
350.93	1357.80
351.14	1347.56
351.35	1425.39
351.56	1427.43
351.77	1431.53
351.99	1374.19
352.20	1363.95
352.41	1439.72
352.62	1366.00
352.83	1329.13
353.04	1302.51
353.25	1320.94
353.46	1376.24
353.67	1343.47
353.88	1396.71
354.09	1449.96
354.30	1351.66
354.52	1343.47
354.73	1275.88
354.94	1351.66
355.15	1384.43
355.36	1423.34
355.57	1345.52
355.78	1394.67
355.99	1339.37
356.20	1353.71
356.41	1386.47
356.62	1421.29
356.83	1443.82
357.04	1443.82
357.25	1310.70
357.46	1341.42
357.68	1345.52
357.89	1380.33
358.10	1400.81
358.31	1347.56
358.52	1363.95
358.73	1284.08
358.94	1329.13
359.15	1294.32
359.36	1501.16
359.57	1380.33
359.78	1349.61
359.99	1409.00
360.20	1333.23
360.41	1388.52
360.62	1376.24
360.83	1376.24
361.04	1314.80
361.25	1402.86
361.46	1396.71
361.67	1355.76
361.88	1478.63
362.09	1433.58
362.30	1331.18
362.51	1345.52
362.72	1423.34
362.93	1419.24
363.14	1411.05
363.35	1363.95
363.56	1353.71
363.78	1380.33
363.99	1318.89
364.20	1337.32
364.41	1449.96
364.62	1341.42
364.83	1380.33
365.04	1388.52
365.25	1431.53
365.46	1441.77
365.67	1394.67
365.88	1386.47
366.09	1423.34
366.30	1347.56
366.51	1386.47
366.72	1333.23
366.93	1386.47
367.14	1406.95
367.35	1396.71
367.56	1400.81
367.77	1425.39
367.98	1380.33
368.18	1456.11
368.39	1372.14
368.60	1298.41
368.81	1409.00
369.02	1329.13
369.23	1347.56
369.44	1316.84
369.65	1304.56
369.86	1400.81
370.07	1462.25
370.28	1341.42
370.49	1341.42
370.70	1415.15
370.91	1353.71
371.12	1368.04
371.33	1396.71
371.54	1359.85
371.75	1441.77
371.96	1269.74
372.17	1322.99
372.38	1302.51
372.59	1425.39
372.80	1386.47
373.01	1400.81
373.22	1363.95
373.43	1384.43
373.64	1314.80
373.85	1452.01
374.06	1486.83
374.26	1406.95
374.47	1402.86
374.68	1435.63
374.89	1429.48
375.10	1357.80
375.31	1445.87
375.52	1337.32
375.73	1476.59
375.94	1284.08
376.15	1378.28
376.36	1421.29
376.57	1355.76
376.78	1388.52
376.99	1425.39
377.20	1406.95
377.40	1327.08
377.61	1462.25
377.82	1396.71
378.03	1400.81
378.24	1400.81
378.45	1402.86
378.66	1378.28
378.87	1449.96
379.08	1306.60
379.29	1370.09
379.50	1427.43
379.71	1415.15
379.91	1411.05
380.12	1406.95
380.33	1441.77
380.54	1380.33
380.75	1343.47
380.96	1406.95
381.17	1402.86
381.38	1368.04
381.59	1462.25
381.80	1431.53
382.00	1501.16
382.21	1419.24
382.42	1458.15
382.63	1527.78
382.84	1419.24
383.05	1406.95
383.26	1390.57
383.47	1439.72
383.68	1427.43
383.88	1372.14
384.09	1462.25
384.30	1413.10
384.51	1441.77
384.72	1347.56
384.93	1327.08
385.14	1366.00
385.35	1368.04
385.55	1327.08
385.76	1431.53
385.97	1497.07
386.18	1351.66
386.39	1366.00
386.60	1402.86
386.81	1353.71
387.02	1345.52
387.22	1404.91
387.43	1556.46
387.64	1533.93
387.85	2297.82
388.06	5765.03
388.27	9473.90
388.48	11517.78
388.68	13137.72
388.89	13498.16
389.10	10588.00
389.31	9156.47
389.52	8601.47
389.73	7378.83
389.93	6854.55
390.14	6520.73
390.35	5867.43
390.56	5373.87
390.77	4556.73
390.98	3665.86
391.18	2813.91
391.39	2021.35
391.60	1748.97
391.81	1568.74
392.02	1343.47
392.23	1492.97
392.43	1400.81
392.64	1439.72
392.85	1396.71
393.06	1421.29
393.27	1404.91
393.47	1394.67
393.68	1363.95
393.89	1400.81
394.10	1431.53
394.31	1282.03
394.52	1296.36
394.72	1396.71
394.93	1458.15
395.14	1322.99
395.35	1404.91
395.56	1439.72
395.76	1445.87
395.97	1531.88
396.18	1517.54
396.39	1621.99
396.60	1679.33
396.80	1558.50
397.01	1552.36
397.22	1435.63
397.43	1509.35
397.64	1394.67
397.84	1562.60
398.05	1476.59
398.26	1431.53
398.47	1464.30
398.67	1423.34
398.88	1386.47
399.09	1404.91
399.30	1314.80
399.51	1392.62
399.71	1378.28
399.92	1296.36
400.13	1511.40
400.34	1294.32
400.54	1380.33
400.75	1384.43
400.96	1337.32
401.17	1413.10
401.37	1386.47
401.58	1437.67
401.79	1484.78
402.00	1761.25
402.21	1785.83
402.41	1771.49
402.62	1867.75
402.83	1728.49
403.04	1607.66
403.24	1761.25
403.45	1517.54
403.66	1558.50
403.87	1578.98
404.07	1558.50
404.28	1603.56
404.49	1609.70
404.70	1492.97
404.90	1478.63
405.11	1417.19
405.32	1466.35
405.52	1417.19
405.73	1339.37
405.94	1415.15
406.15	1372.14
406.35	1413.10
406.56	1454.06
406.77	1355.76
406.98	1396.71
407.18	1361.90
407.39	1400.81
407.60	1363.95
407.80	1427.43
408.01	1363.95
408.22	1337.32
408.43	1329.13
408.63	1404.91
408.84	1421.29
409.05	1372.14
409.25	1417.19
409.46	1339.37
409.67	1396.71
409.88	1318.89
410.08	1335.28
410.29	1337.32
410.50	1400.81
410.70	1380.33
410.91	1298.41
411.12	1423.34
411.32	1380.33
411.53	1439.72
411.74	1441.77
411.95	1607.66
412.15	1476.59
412.36	1366.00
412.57	1468.39
412.77	1431.53
412.98	1388.52
413.19	1361.90
413.39	1454.06
413.60	1376.24
413.81	1507.30
414.01	1402.86
414.22	1456.11
414.43	1517.54
414.63	1366.00
414.84	1482.73
415.05	1396.71
415.25	1359.85
415.46	1402.86
415.67	1400.81
415.87	1421.29
416.08	1409.00
416.29	1384.43
416.49	1427.43
416.70	1345.52
416.91	1308.65
417.11	1378.28
417.32	1349.61
417.53	1421.29
417.73	1423.34
417.94	1388.52
418.15	1304.56
418.35	1376.24
418.56	1331.18
418.77	1421.29
418.97	1357.80
419.18	1374.19
419.38	1226.73
419.59	1310.70
419.80	1415.15
420.00	1363.95
420.21	1339.37
420.42	1368.04
420.62	1404.91
420.83	1341.42
421.04	1370.09
421.24	1368.04
421.45	1357.80
421.65	1447.91
421.86	1335.28
422.07	1394.67
422.27	1353.71
422.48	1308.65
422.69	1292.27
422.89	1368.04
423.10	1308.65
423.30	1312.75
423.51	1366.00
423.72	1445.87
423.92	1376.24
424.13	1304.56
424.33	1421.29
424.54	1445.87
424.75	1316.84
424.95	1390.57
425.16	1382.38
425.36	1316.84
425.57	1404.91
425.78	1374.19
425.98	1339.37
426.19	1347.56
426.39	1308.65
426.60	1382.38
426.81	1464.30
427.01	1372.14
427.22	1378.28
427.42	1310.70
427.63	1370.09
427.83	1382.38
428.04	1404.91
428.25	1421.29
428.45	1435.63
428.66	1359.85
428.86	1347.56
429.07	1304.56
429.28	1339.37
429.48	1312.75
429.69	1298.41
429.89	1308.65
430.10	1368.04
430.30	1366.00
430.51	1394.67
430.71	1263.60
430.92	1333.23
431.13	1318.89
431.33	1310.70
431.54	1396.71
431.74	1400.81
431.95	1404.91
432.15	1261.55
432.36	1406.95
432.56	1460.20
432.77	1406.95
432.98	1392.62
433.18	1363.95
433.39	1347.56
433.59	1388.52
433.80	1417.19
434.00	1480.68
434.21	1302.51
434.41	1322.99
434.62	1411.05
434.82	1308.65
435.03	1347.56
435.23	1402.86
435.44	1306.60
435.64	1370.09
435.85	1390.57
436.06	1396.71
436.26	1515.50
436.47	1376.24
436.67	1351.66
436.88	1376.24
437.08	1366.00
437.29	1419.24
437.49	1380.33
437.70	1411.05
437.90	1484.78
438.11	1529.83
438.31	1443.82
438.52	1550.31
438.72	1554.41
438.93	1560.55
439.13	1439.72
439.34	1454.06
439.54	1404.91
439.75	1515.50
439.95	1425.39
440.16	1398.76
440.36	1384.43
440.57	1441.77
440.77	1384.43
440.98	1423.34
441.18	1452.01
441.39	1306.60
441.59	1294.32
441.80	1429.48
442.00	1417.19
442.21	1378.28
442.41	1312.75
442.62	1417.19
442.82	1380.33
443.02	1429.48
443.23	1488.87
443.43	1384.43
443.64	1406.95
443.84	1329.13
444.05	1501.16
444.25	1392.62
444.46	1347.56
444.66	1357.80
444.87	1404.91
445.07	1327.08
445.28	1429.48
445.48	1427.43
445.69	1427.43
445.89	1464.30
446.09	1474.54
446.30	2330.59
446.50	3616.71
446.71	4652.98
446.91	5314.48
447.12	5623.72
447.32	4990.90
447.53	4206.53
447.73	3786.69
447.93	3370.96
448.14	3207.12
448.34	3049.43
448.55	2785.24
448.75	2809.81
448.96	2693.08
449.16	2271.20
449.36	2230.24
449.57	1906.66
449.77	1705.96
449.98	1523.69
450.18	1560.55
450.39	1458.15
450.59	1388.52
450.79	1433.58
451.00	1417.19
451.20	1370.09
451.41	1415.15
451.61	1382.38
451.81	1417.19
452.02	1329.13
452.22	1325.04
452.43	1329.13
452.63	1357.80
452.84	1368.04
453.04	1406.95
453.24	1357.80
453.45	1335.28
453.65	1374.19
453.86	1320.94
454.06	1417.19
454.26	1363.95
454.47	1320.94
454.67	1447.91
454.87	1378.28
455.08	1404.91
455.28	1458.15
455.49	1390.57
455.69	1417.19
455.89	1386.47
456.10	1388.52
456.30	1325.04
456.51	1343.47
456.71	1388.52
456.91	1427.43
457.12	1415.15
457.32	1384.43
457.52	1282.03
457.73	1359.85
457.93	1361.90
458.14	1351.66
458.34	1345.52
458.54	1380.33
458.75	1345.52
458.95	1480.68
459.15	1404.91
459.36	1394.67
459.56	1316.84
459.76	1398.76
459.97	1427.43
460.17	1349.61
460.37	1376.24
460.58	1335.28
460.78	1366.00
460.99	1419.24
461.19	1363.95
461.39	1341.42
461.60	1370.09
461.80	1429.48
462.00	1304.56
462.21	1382.38
462.41	1331.18
462.61	1290.22
462.82	1357.80
463.02	1337.32
463.22	1329.13
463.43	1384.43
463.63	1345.52
463.83	1437.67
464.04	1370.09
464.24	1368.04
464.44	1396.71
464.64	1452.01
464.85	1429.48
465.05	1423.34
465.25	1376.24
465.46	1351.66
465.66	1335.28
465.86	1423.34
466.07	1341.42
466.27	1404.91
466.47	1314.80
466.68	1314.80
466.88	1419.24
467.08	1370.09
467.29	1456.11
467.49	1449.96
467.69	1404.91
467.89	1402.86
468.10	1411.05
468.30	1376.24
468.50	1411.05
468.71	1388.52
468.91	1329.13
469.11	1523.69
469.31	1376.24
469.52	1320.94
469.72	1517.54
469.92	1443.82
470.13	1458.15
470.33	1486.83
470.53	1685.48
470.73	2072.54
470.94	2244.57
471.14	2469.85
471.34	2387.93
471.54	2193.37
471.75	1964.00
471.95	2027.49
472.15	1859.56
472.36	1855.46
472.56	1808.36
472.76	1759.21
472.96	1802.21
473.17	1646.57
473.37	1605.61
473.57	1462.25
473.77	1544.17
473.98	1484.78
474.18	1447.91
474.38	1492.97
474.58	1378.28
474.79	1320.94
474.99	1425.39
475.19	1384.43
475.39	1316.84
475.60	1439.72
475.80	1357.80
476.00	1357.80
476.20	1343.47
476.41	1372.14
476.61	1460.20
476.81	1470.44
477.01	1298.41
477.21	1445.87
477.42	1419.24
477.62	1359.85
477.82	1394.67
478.02	1372.14
478.23	1257.45
478.43	1325.04
478.63	1361.90
478.83	1378.28
479.03	1429.48
479.24	1458.15
479.44	1417.19
479.64	1351.66
479.84	1296.36
480.04	1382.38
480.25	1368.04
480.45	1322.99
480.65	1454.06
480.85	1413.10
481.06	1372.14
481.26	1406.95
481.46	1396.71
481.66	1318.89
481.86	1347.56
482.06	1419.24
482.27	1331.18
482.47	1265.64
482.67	1406.95
482.87	1376.24
483.07	1331.18
483.28	1318.89
483.48	1320.94
483.68	1327.08
483.88	1318.89
484.08	1300.46
484.29	1361.90
484.49	1316.84
484.69	1355.76
484.89	1339.37
485.09	1411.05
485.29	1462.25
485.50	1429.48
485.70	1320.94
485.90	1423.34
486.10	1392.62
486.30	1439.72
486.50	1335.28
486.71	1394.67
486.91	1431.53
487.11	1458.15
487.31	1378.28
487.51	1296.36
487.71	1357.80
487.91	1327.08
488.12	1327.08
488.32	1349.61
488.52	1298.41
488.72	1386.47
488.92	1366.00
489.12	1390.57
489.32	1351.66
489.53	1398.76
489.73	1312.75
489.93	1433.58
490.13	1355.76
490.33	1310.70
490.53	1443.82
490.73	1359.85
490.94	1363.95
491.14	1439.72
491.34	1654.76
491.54	2138.08
491.74	2662.36
491.94	3018.71
492.14	3135.44
492.34	2987.99
492.54	2539.48
492.75	2406.36
492.95	2125.79
493.15	2050.02
493.35	2039.78
493.55	1906.66
493.75	1892.32
493.95	1933.28
494.15	1814.50
494.35	1714.15
494.56	1665.00
494.76	1570.79
494.96	1556.46
495.16	1472.49
495.36	1357.80
495.56	1445.87
495.76	1353.71
495.96	1331.18
496.16	1388.52
496.36	1417.19
496.56	1427.43
496.77	1349.61
496.97	1306.60
497.17	1490.92
497.37	1406.95
497.57	1411.05
497.77	1374.19
497.97	1263.60
498.17	1355.76
498.37	1347.56
498.57	1355.76
498.77	1402.86
498.97	1480.68
499.17	1429.48
499.38	1421.29
499.58	1431.53
499.78	1460.20
499.98	1439.72
500.18	1390.57
500.38	1472.49
500.58	1708.01
500.78	2901.97
500.98	5480.36
501.18	6971.29
501.38	8066.95
501.58	8437.63
501.78	7305.10
501.98	5738.41
502.18	5105.59
502.38	4605.88
502.58	4001.73
502.78	3629.00
502.98	3626.95
503.18	3450.83
503.38	3350.48
503.59	2987.99
503.79	2840.53
503.99	2508.76
504.19	2353.12
504.39	2187.23
504.59	2058.21
504.79	1943.52
504.99	1834.98
505.19	1667.05
505.39	1667.05
505.59	1564.65
505.79	1533.93
505.99	1535.98
506.19	1542.12
506.39	1523.69
506.59	1507.30
506.79	1441.77
506.99	1466.35
507.19	1445.87
507.39	1484.78
507.59	1370.09
507.79	1406.95
507.99	1415.15
508.19	1329.13
508.39	1372.14
508.59	1400.81
508.79	1421.29
508.99	1419.24
509.19	1382.38
509.39	1415.15
509.59	1406.95
509.79	1425.39
509.99	1384.43
510.19	1462.25
510.39	1347.56
510.59	1394.67
510.79	1435.63
510.99	1411.05
511.19	1398.76
511.39	1363.95
511.59	1406.95
511.79	1419.24
511.99	1398.76
512.19	1406.95
512.38	1400.81
512.58	1359.85
512.78	1351.66
512.98	1421.29
513.18	1394.67
513.38	1327.08
513.58	1409.00
513.78	1345.52
513.98	1488.87
514.18	1337.32
514.38	1357.80
514.58	1363.95
514.78	1329.13
514.98	1388.52
515.18	1337.32
515.38	1279.98
515.58	1499.11
515.78	1368.04
515.98	1404.91
516.18	1435.63
516.38	1382.38
516.57	1363.95
516.77	1400.81
516.97	1384.43
517.17	1443.82
517.37	1339.37
517.57	1384.43
517.77	1421.29
517.97	1355.76
518.17	1404.91
518.37	1386.47
518.57	1415.15
518.77	1372.14
518.97	1441.77
519.16	1413.10
519.36	1351.66
519.56	1380.33
519.76	1390.57
519.96	1394.67
520.16	1394.67
520.36	1310.70
520.56	1462.25
520.76	1380.33
520.96	1437.67
521.16	1361.90
521.35	1433.58
521.55	1449.96
521.75	1423.34
521.95	1339.37
522.15	1318.89
522.35	1351.66
522.55	1390.57
522.75	1458.15
522.95	1337.32
523.14	1409.00
523.34	1363.95
523.54	1329.13
523.74	1316.84
523.94	1400.81
524.14	1310.70
524.34	1439.72
524.54	1417.19
524.73	1345.52
524.93	1378.28
525.13	1406.95
525.33	1322.99
525.53	1423.34
525.73	1400.81
525.93	1314.80
526.13	1359.85
526.32	1398.76
526.52	1396.71
526.72	1404.91
526.92	1361.90
527.12	1329.13
527.32	1349.61
527.52	1443.82
527.71	1343.47
527.91	1363.95
528.11	1370.09
528.31	1404.91
528.51	1366.00
528.71	1425.39
528.90	1406.95
529.10	1417.19
529.30	1441.77
529.50	1368.04
529.70	1437.67
529.90	1380.33
530.09	1267.69
530.29	1257.45
530.49	1355.76
530.69	1435.63
530.89	1425.39
531.09	1394.67
531.28	1277.93
531.48	1456.11
531.68	1337.32
531.88	1382.38
532.08	1359.85
532.28	1363.95
532.47	1417.19
532.67	1415.15
532.87	1474.54
533.07	1384.43
533.27	1447.91
533.46	1406.95
533.66	1421.29
533.86	1372.14
534.06	1394.67
534.26	1421.29
534.45	1388.52
534.65	1402.86
534.85	1394.67
535.05	1331.18
535.25	1361.90
535.44	1396.71
535.64	1398.76
535.84	1347.56
536.04	1437.67
536.24	1329.13
536.43	1312.75
536.63	1427.43
536.83	1335.28
537.03	1320.94
537.22	1366.00
537.42	1325.04
537.62	1415.15
537.82	1353.71
538.02	1406.95
538.21	1413.10
538.41	1480.68
538.61	1384.43
538.81	1392.62
539.00	1355.76
539.20	1355.76
539.40	1304.56
539.60	1374.19
539.79	1331.18
539.99	1452.01
540.19	1322.99
540.39	1349.61
540.58	1368.04
540.78	1427.43
540.98	1347.56
541.18	1400.81
541.37	1421.29
541.57	1343.47
541.77	1413.10
541.97	1396.71
542.16	1335.28
542.36	1341.42
542.56	1546.22
542.76	1458.15
542.95	1380.33
543.15	1429.48
543.35	1384.43
543.54	1378.28
543.74	1396.71
543.94	1449.96
544.14	1353.71
544.33	1431.53
544.53	1378.28
544.73	1386.47
544.93	1423.34
545.12	1363.95
545.32	1386.47
545.52	1384.43
545.71	1406.95
545.91	1343.47
546.11	1363.95
546.30	1384.43
546.50	1392.62
546.70	1460.20
546.90	1411.05
547.09	1302.51
547.29	1388.52
547.49	1378.28
547.68	1400.81
547.88	1384.43
548.08	1345.52
548.27	1654.76
548.47	1437.67
548.67	1290.22
548.87	1366.00
549.06	1435.63
549.26	1427.43
549.46	1300.46
549.65	1423.34
549.85	1415.15
550.05	1447.91
550.24	1361.90
550.44	1433.58
550.64	1392.62
550.83	1339.37
551.03	1478.63
551.23	1382.38
551.42	1411.05
551.62	1386.47
551.82	1355.76
552.01	1366.00
552.21	1492.97
552.41	1329.13
552.60	1382.38
552.80	1402.86
553.00	1382.38
553.19	1376.24
553.39	1443.82
553.59	1388.52
553.78	1380.33
553.98	1419.24
554.17	1335.28
554.37	1380.33
554.57	1359.85
554.76	1392.62
554.96	1347.56
555.16	1495.02
555.35	1308.65
555.55	1359.85
555.75	1333.23
555.94	1425.39
556.14	1322.99
556.33	1368.04
556.53	1370.09
556.73	1345.52
556.92	1359.85
557.12	1413.10
557.32	1406.95
557.51	1419.24
557.71	1423.34
557.90	1427.43
558.10	1390.57
558.30	1298.41
558.49	1269.74
558.69	1380.33
558.88	1398.76
559.08	1423.34
559.28	1355.76
559.47	1351.66
559.67	1482.73
559.86	1417.19
560.06	1419.24
560.26	1404.91
560.45	1390.57
560.65	1392.62
560.84	1347.56
561.04	1382.38
561.24	1417.19
561.43	1302.51
561.63	1423.34
561.82	1437.67
562.02	1460.20
562.22	1298.41
562.41	1335.28
562.61	1411.05
562.80	1398.76
563.00	1447.91
563.19	1431.53
563.39	1394.67
563.59	1322.99
563.78	1279.98
563.98	1339.37
564.17	1329.13
564.37	1339.37
564.56	1449.96
564.76	1335.28
564.96	1425.39
565.15	1456.11
565.35	1460.20
565.54	1318.89
565.74	1331.18
565.93	1468.39
566.13	1380.33
566.32	1441.77
566.52	1419.24
566.71	1441.77
566.91	1388.52
567.11	1316.84
567.30	1304.56
567.50	1409.00
567.69	1404.91
567.89	1413.10
568.08	1404.91
568.28	1320.94
568.47	1314.80
568.67	1372.14
568.86	1419.24
569.06	1404.91
569.25	1378.28
569.45	1366.00
569.64	1372.14
569.84	1322.99
570.04	1435.63
570.23	1361.90
570.43	1419.24
570.62	1413.10
570.82	1523.69
571.01	1327.08
571.21	1363.95
571.40	1429.48
571.60	1390.57
571.79	1409.00
571.99	1470.44
572.18	1310.70
572.38	1443.82
572.57	1409.00
572.77	1445.87
572.96	1503.21
573.16	1370.09
573.35	1384.43
573.55	1464.30
573.74	1398.76
573.94	1312.75
574.13	1406.95
574.33	1460.20
574.52	1398.76
574.71	1458.15
574.91	1400.81
575.10	1429.48
575.30	1400.81
575.49	1396.71
575.69	1411.05
575.88	1370.09
576.08	1411.05
576.27	1552.36
576.47	1466.35
576.66	1447.91
576.86	1445.87
577.05	1484.78
577.25	1497.07
577.44	1544.17
577.64	1376.24
577.83	1492.97
578.02	1390.57
578.22	1472.49
578.41	1417.19
578.61	1314.80
578.80	1384.43
579.00	1468.39
579.19	1380.33
579.39	1521.64
579.58	1421.29
579.77	1396.71
579.97	1445.87
580.16	1564.65
580.36	1535.98
580.55	1503.21
580.75	1413.10
580.94	1452.01
581.13	1456.11
581.33	1560.55
581.52	1447.91
581.72	1480.68
581.91	1488.87
582.11	1443.82
582.30	1433.58
582.49	1386.47
582.69	1470.44
582.88	1462.25
583.08	1488.87
583.27	1511.40
583.47	1370.09
583.66	1390.57
583.85	1415.15
584.05	1492.97
584.24	1484.78
584.44	1378.28
584.63	1476.59
584.82	1529.83
585.02	1499.11
585.21	1484.78
585.41	1621.99
585.60	1650.66
585.79	1656.81
585.99	1634.28
586.18	1648.61
586.37	1929.19
586.57	2676.70
586.76	7960.45
586.96	24008.34
587.15	41153.93
587.34	51713.26
587.54	59100.28
587.73	58737.79
587.93	44811.60
588.12	32720.40
588.31	26535.53
588.51	22439.59
588.70	20041.42
588.89	18384.62
589.09	17114.87
589.28	15834.89
589.47	14245.67
589.67	12549.95
589.86	10592.09
590.06	8658.81
590.25	6633.37
590.44	4917.17
590.64	3727.30
590.83	2781.14
591.02	2306.01
591.22	2002.91
591.41	1771.49
591.60	1550.31
591.80	1621.99
591.99	1509.35
592.18	1527.78
592.38	1523.69
592.57	1400.81
592.76	1421.29
592.96	1503.21
593.15	1327.08
593.34	1470.44
593.54	1402.86
593.73	1421.29
593.92	1456.11
594.12	1468.39
594.31	1468.39
594.50	1568.74
594.70	1443.82
594.89	1554.41
595.08	1392.62
595.28	1495.02
595.47	1595.37
595.66	1503.21
595.86	1380.33
596.05	1404.91
596.24	1380.33
596.43	1439.72
596.63	1544.17
596.82	1421.29
597.01	1460.20
597.21	1468.39
597.40	1449.96
597.59	1431.53
597.79	1454.06
597.98	1421.29
598.17	1482.73
598.36	1501.16
598.56	1353.71
598.75	1427.43
598.94	1433.58
599.14	1413.10
599.33	1345.52
599.52	1447.91
599.71	1417.19
599.91	1337.32
600.10	1433.58
600.29	1445.87
600.48	1396.71
600.68	1345.52
600.87	1427.43
601.06	1335.28
601.26	1404.91
601.45	1394.67
601.64	1355.76
601.83	1413.10
602.03	1327.08
602.22	1296.36
602.41	1445.87
602.60	1476.59
602.80	1390.57
602.99	1470.44
603.18	1380.33
603.37	1404.91
603.57	1355.76
603.76	1447.91
603.95	1421.29
604.14	1345.52
604.34	1345.52
604.53	1351.66
604.72	1359.85
604.91	1384.43
605.10	1370.09
605.30	1402.86
605.49	1382.38
605.68	1394.67
605.87	1421.29
606.07	1376.24
606.26	1343.47
606.45	1404.91
606.64	1411.05
606.84	1441.77
607.03	1417.19
607.22	1460.20
607.41	1404.91
607.60	1382.38
607.80	1427.43
607.99	1406.95
608.18	1495.02
608.37	1400.81
608.56	1378.28
608.76	1447.91
608.95	1521.64
609.14	1429.48
609.33	1544.17
609.52	1527.78
609.72	1470.44
609.91	1515.50
610.10	1439.72
610.29	1462.25
610.48	1449.96
610.68	1474.54
610.87	1357.80
611.06	1419.24
611.25	1433.58
611.44	1484.78
611.63	1421.29
611.83	1423.34
612.02	1325.04
612.21	1456.11
612.40	1347.56
612.59	1406.95
612.79	1343.47
612.98	1429.48
613.17	1449.96
613.36	1361.90
613.55	1449.96
613.74	1427.43
613.93	1480.68
614.13	1523.69
614.32	1626.09
614.51	1613.80
614.70	1533.93
614.89	1454.06
615.08	1429.48
615.28	1681.38
615.47	1484.78
615.66	1486.83
615.85	1507.30
616.04	1621.99
616.23	1480.68
616.42	1437.67
616.62	1525.74
616.81	1486.83
617.00	1388.52
617.19	1411.05
617.38	1404.91
617.57	1470.44
617.76	1400.81
617.95	1363.95
618.15	1409.00
618.34	1427.43
618.53	1314.80
618.72	1409.00
618.91	1470.44
619.10	1447.91
619.29	1370.09
619.48	1441.77
619.68	1337.32
619.87	1316.84
620.06	1439.72
620.25	1378.28
620.44	1322.99
620.63	1380.33
620.82	1413.10
621.01	1341.42
621.20	1392.62
621.39	1394.67
621.59	1486.83
621.78	1447.91
621.97	1443.82
622.16	1429.48
622.35	1392.62
622.54	1333.23
622.73	1439.72
622.92	1378.28
623.11	1400.81
623.30	1396.71
623.49	1431.53
623.68	1347.56
623.88	1437.67
624.07	1316.84
624.26	1411.05
624.45	1376.24
624.64	1370.09
624.83	1404.91
625.02	1380.33
625.21	1445.87
625.40	1351.66
625.59	1425.39
625.78	1413.10
625.97	1425.39
626.16	1490.92
626.35	1462.25
626.54	1482.73
626.74	1486.83
626.93	1449.96
627.12	1445.87
627.31	1470.44
627.50	1445.87
627.69	1380.33
627.88	1329.13
628.07	1370.09
628.26	1384.43
628.45	1351.66
628.64	1349.61
628.83	1370.09
629.02	1376.24
629.21	1421.29
629.40	1413.10
629.59	1331.18
629.78	1392.62
629.97	1359.85
630.16	1392.62
630.35	1402.86
630.54	1361.90
630.73	1447.91
630.92	1370.09
631.11	1292.27
631.30	1337.32
631.49	1497.07
631.68	1400.81
631.87	1325.04
632.06	1398.76
632.25	1406.95
632.44	1402.86
632.63	1353.71
632.82	1353.71
633.01	1480.68
633.20	1456.11
633.39	1495.02
633.58	1538.02
633.77	1480.68
633.96	1447.91
634.15	1388.52
634.34	1452.01
634.53	1441.77
634.72	1413.10
634.91	1329.13
635.10	1435.63
635.29	1470.44
635.48	1351.66
635.67	1322.99
635.86	1322.99
636.05	1449.96
636.24	1417.19
636.43	1398.76
636.62	1468.39
636.81	1339.37
637.00	1337.32
637.19	1396.71
637.38	1443.82
637.57	1333.23
637.76	1462.25
637.95	1505.26
638.14	1492.97
638.33	1474.54
638.52	1429.48
638.71	1464.30
638.89	1394.67
639.08	1458.15
639.27	1425.39
639.46	1425.39
639.65	1703.91
639.84	1941.47
640.03	2027.49
640.22	2070.50
640.41	2072.54
640.60	1851.36
640.79	1791.97
640.98	1673.19
641.17	1613.80
641.36	1552.36
641.55	1599.46
641.74	1605.61
641.92	1460.20
642.11	1564.65
642.30	1488.87
642.49	1427.43
642.68	1409.00
642.87	1396.71
643.06	1415.15
643.25	1353.71
643.44	1366.00
643.63	1345.52
643.82	1409.00
644.00	1345.52
644.19	1423.34
644.38	1380.33
644.57	1449.96
644.76	1370.09
644.95	1355.76
645.14	1402.86
645.33	1419.24
645.52	1353.71
645.71	1368.04
645.89	1392.62
646.08	1386.47
646.27	1351.66
646.46	1503.21
646.65	1310.70
646.84	1366.00
647.03	1347.56
647.22	1423.34
647.40	1390.57
647.59	1370.09
647.78	1335.28
647.97	1361.90
648.16	1333.23
648.35	1318.89
648.54	1423.34
648.73	1329.13
648.91	1429.48
649.10	1337.32
649.29	1366.00
649.48	1239.02
649.67	1413.10
649.86	1368.04
650.05	1409.00
650.23	1517.54
650.42	1439.72
650.61	1615.85
650.80	1624.04
650.99	1648.61
651.18	1542.12
651.36	1486.83
651.55	1435.63
651.74	1488.87
651.93	1454.06
652.12	1361.90
652.31	1380.33
652.49	1374.19
652.68	1390.57
652.87	1464.30
653.06	1423.34
653.25	1546.22
653.44	1382.38
653.62	1464.30
653.81	1398.76
654.00	1384.43
654.19	1384.43
654.38	1488.87
654.56	1396.71
654.75	1329.13
654.94	1439.72
655.13	1388.52
655.32	1402.86
655.51	1378.28
655.69	1378.28
655.88	1374.19
656.07	1294.32
656.26	1417.19
656.45	1394.67
656.63	1456.11
656.82	1380.33
657.01	1390.57
657.20	1322.99
657.38	1486.83
657.57	1372.14
657.76	1384.43
657.95	1353.71
658.14	1343.47
658.32	1386.47
658.51	1351.66
658.70	1370.09
658.89	1437.67
659.08	1454.06
659.26	1380.33
659.45	1380.33
659.64	1437.67
659.83	1341.42
660.01	1509.35
660.20	1413.10
660.39	1517.54
660.58	1363.95
660.76	1423.34
660.95	1361.90
661.14	1394.67
661.33	1366.00
661.51	1359.85
661.70	1337.32
661.89	1413.10
662.08	1378.28
662.26	1376.24
662.45	1394.67
662.64	1419.24
662.83	1394.67
663.01	1341.42
663.20	1343.47
663.39	1435.63
663.58	1368.04
663.76	1355.76
663.95	1374.19
664.14	1382.38
664.32	1388.52
664.51	1302.51
664.70	1359.85
664.89	1404.91
665.07	1384.43
665.26	1409.00
665.45	1368.04
665.64	1484.78
665.82	1449.96
666.01	1421.29
666.20	1384.43
666.38	1425.39
666.57	1466.35
666.76	1583.08
666.95	1949.67
667.13	4458.43
667.32	11194.20
667.51	17911.53
667.69	21718.71
667.88	24745.61
668.07	24311.44
668.25	18984.67
668.44	13463.35
668.63	11329.36
668.81	9242.48
669.00	8087.43
669.19	7415.69
669.38	6793.11
669.56	6309.79
669.75	5435.31
669.94	4839.35
670.12	4321.21
670.31	3581.90
670.50	3014.61
670.68	2498.52
670.87	2017.25
671.06	1914.85
671.24	1732.58
671.43	1585.13
671.62	1519.59
671.80	1495.02
671.99	1507.30
672.18	1462.25
672.36	1449.96
672.55	1460.20
672.74	1456.11
672.92	1376.24
673.11	1464.30
673.29	1353.71
673.48	1447.91
673.67	1320.94
673.85	1406.95
674.04	1382.38
674.23	1456.11
674.41	1454.06
674.60	1417.19
674.79	1374.19
674.97	1333.23
675.16	1335.28
675.34	1398.76
675.53	1374.19
675.72	1396.71
675.90	1499.11
676.09	1306.60
676.28	1366.00
676.46	1339.37
676.65	1372.14
676.83	1345.52
677.02	1427.43
677.21	1370.09
677.39	1347.56
677.58	1304.56
677.77	1312.75
677.95	1396.71
678.14	1335.28
678.32	1454.06
678.51	1351.66
678.70	1452.01
678.88	1349.61
679.07	1413.10
679.25	1345.52
679.44	1372.14
679.63	1357.80
679.81	1345.52
680.00	1423.34
680.18	1470.44
680.37	1320.94
680.55	1386.47
680.74	1290.22
680.93	1351.66
681.11	1341.42
681.30	1327.08
681.48	1411.05
681.67	1286.12
681.85	1413.10
682.04	1458.15
682.23	1378.28
682.41	1335.28
682.60	1372.14
682.78	1437.67
682.97	1243.12
683.15	1400.81
683.34	1384.43
683.53	1355.76
683.71	1316.84
683.90	1472.49
684.08	1482.73
684.27	1329.13
684.45	1357.80
684.64	1476.59
684.82	1312.75
685.01	1366.00
685.19	1370.09
685.38	1427.43
685.57	1294.32
685.75	1372.14
685.94	1370.09
686.12	1411.05
686.31	1404.91
686.49	1382.38
686.68	1300.46
686.86	1402.86
687.05	1441.77
687.23	1376.24
687.42	1277.93
687.60	1318.89
687.79	1388.52
687.97	1409.00
688.16	1320.94
688.34	1439.72
688.53	1378.28
688.71	1355.76
688.90	1304.56
689.08	1372.14
689.27	1316.84
689.45	1427.43
689.64	1384.43
689.82	1380.33
690.01	1394.67
690.19	1353.71
690.38	1351.66
690.56	1372.14
690.75	1355.76
690.93	1382.38
691.12	1331.18
691.30	1329.13
691.49	1347.56
691.67	1363.95
691.86	1435.63
692.04	1376.24
692.23	1384.43
692.41	1339.37
692.60	1482.73
692.78	1503.21
692.97	1456.11
693.15	1546.22
693.34	1589.22
693.52	1462.25
693.71	1368.04
693.89	1363.95
694.08	1470.44
694.26	1388.52
694.44	1398.76
694.63	1478.63
694.81	1335.28
695.00	1378.28
695.18	1423.34
695.37	1445.87
695.55	1292.27
695.74	1376.24
695.92	1413.10
696.10	1466.35
696.29	1337.32
696.47	1322.99
696.66	1351.66
696.84	1384.43
697.03	1380.33
697.21	1478.63
697.40	1746.92
697.58	1374.19
697.76	1335.28
697.95	1279.98
698.13	1386.47
698.32	1378.28
698.50	1460.20
698.68	1429.48
698.87	1447.91
699.05	1388.52
699.24	1411.05
699.42	1339.37
699.61	1417.19
699.79	1429.48
699.97	1335.28
700.16	1325.04
700.34	1308.65
700.53	1353.71
700.71	1353.71
700.89	1456.11
701.08	1380.33
701.26	1333.23
701.45	1587.18
701.63	1361.90
701.81	1417.19
702.00	1417.19
702.18	1374.19
702.37	1333.23
702.55	1376.24
702.73	1517.54
702.92	1599.46
703.10	1628.14
703.28	1566.70
703.47	1662.95
703.65	1644.52
703.84	1638.38
704.02	1474.54
704.20	1525.74
704.39	1482.73
704.57	1437.67
704.75	1486.83
704.94	1443.82
705.12	1495.02
705.30	1490.92
705.49	1667.05
705.67	1865.70
705.86	3450.83
706.04	9074.55
706.22	16250.63
706.41	19515.09
706.59	22388.39
706.77	23471.77
706.96	19934.93
707.14	13829.93
707.32	11282.26
707.51	9224.05
707.69	8144.77
707.87	7288.72
708.06	6895.51
708.24	6074.28
708.42	5021.62
708.61	4067.27
708.79	2971.60
708.97	2471.90
709.16	2058.21
709.34	1718.25
709.52	1589.22
709.71	1503.21
709.89	1482.73
710.07	1435.63
710.26	1437.67
710.44	1423.34
710.62	1452.01
710.80	1390.57
710.99	1396.71
711.17	1421.29
711.35	1368.04
711.54	1394.67
711.72	1396.71
711.90	1355.76
712.09	1355.76
712.27	1417.19
712.45	1361.90
712.63	1415.15
712.82	1366.00
713.00	1318.89
713.18	1388.52
713.37	1386.47
713.55	1404.91
713.73	1486.83
713.91	1374.19
714.10	1413.10
714.28	1376.24
714.46	1429.48
714.65	1368.04
714.83	1402.86
715.01	1368.04
715.19	1343.47
715.38	1345.52
715.56	1425.39
715.74	1322.99
715.92	1314.80
716.11	1394.67
716.29	1361.90
716.47	1423.34
716.65	1425.39
716.84	1302.51
717.02	1384.43
717.20	1351.66
717.38	1353.71
717.57	1374.19
717.75	1445.87
717.93	1366.00
718.11	1413.10
718.30	1320.94
718.48	1316.84
718.66	1378.28
718.84	1335.28
719.03	1390.57
719.21	1396.71
719.39	1431.53
719.57	1400.81
719.75	1421.29
719.94	1368.04
720.12	1361.90
720.30	1411.05
720.48	1429.48
720.67	1456.11
720.85	1275.88
721.03	1374.19
721.21	1327.08
721.39	1396.71
721.58	1386.47
721.76	1394.67
721.94	1404.91
722.12	1380.33
722.30	1441.77
722.49	1310.70
722.67	1302.51
722.85	1316.84
723.03	1271.79
723.21	1343.47
723.40	1374.19
723.58	1370.09
723.76	1406.95
723.94	1470.44
724.12	1431.53
724.30	1431.53
724.49	1484.78
724.67	1464.30
724.85	1552.36
725.03	1374.19
725.21	1396.71
725.40	1460.20
725.58	1351.66
725.76	1521.64
725.94	1482.73
726.12	1449.96
726.30	1447.91
726.49	1404.91
726.67	1402.86
726.85	1402.86
727.03	1466.35
727.21	1556.46
727.39	1509.35
727.57	2097.12
727.76	3391.44
727.94	4435.90
728.12	5013.43
728.30	5281.71
728.48	5158.83
728.66	4188.10
728.84	3530.70
729.03	3092.43
729.21	2777.05
729.39	2582.49
729.57	2267.10
729.75	2039.78
729.93	1777.64
730.11	1603.56
730.30	1492.97
730.48	1398.76
730.66	1456.11
730.84	1413.10
731.02	1390.57
731.20	1378.28
731.38	1435.63
731.56	1357.80
731.74	1316.84
731.93	1376.24
732.11	1331.18
732.29	1353.71
732.47	1382.38
732.65	1372.14
732.83	1445.87
733.01	1361.90
733.19	1351.66
733.37	1423.34
733.56	1390.57
733.74	1419.24
733.92	1363.95
734.10	1456.11
734.28	1370.09
734.46	1314.80
734.64	1318.89
734.82	1390.57
735.00	1304.56
735.18	1396.71
735.36	1333.23
735.54	1380.33
735.73	1298.41
735.91	1345.52
736.09	1411.05
736.27	1366.00
736.45	1386.47
736.63	1314.80
736.81	1419.24
736.99	1386.47
737.17	1404.91
737.35	1380.33
737.53	1429.48
737.71	1349.61
737.89	1314.80
738.07	1286.12
738.25	1331.18
738.43	1366.00
738.61	1359.85
738.80	1359.85
738.98	1298.41
739.16	1282.03
739.34	1288.17
739.52	1386.47
739.70	1390.57
739.88	1378.28
740.06	1429.48
740.24	1273.84
740.42	1339.37
740.60	1298.41
740.78	1372.14
740.96	1325.04
741.14	1384.43
741.32	1396.71
741.50	1368.04
741.68	1404.91
741.86	1435.63
742.04	1376.24
742.22	1347.56
742.40	1376.24
742.58	1310.70
742.76	1357.80
742.94	1355.76
743.12	1320.94
743.30	1374.19
743.48	1421.29
743.66	1409.00
743.84	1409.00
744.02	1366.00
744.20	1394.67
744.38	1374.19
744.56	1325.04
744.74	1409.00
744.92	1439.72
745.10	1464.30
745.28	1386.47
745.46	1443.82
745.64	1341.42
745.82	1353.71
746.00	1302.51
746.18	1343.47
746.36	1329.13
746.54	1384.43
746.72	1421.29
746.90	1269.74
747.08	1437.67
747.26	1419.24
747.44	1443.82
747.62	1376.24
747.80	1339.37
747.98	1425.39
748.15	1304.56
748.33	1423.34
748.51	1368.04
748.69	1409.00
748.87	1304.56
749.05	1443.82
749.23	1331.18
749.41	1415.15
749.59	1357.80
749.77	1363.95
749.95	1331.18
750.13	1421.29
750.31	1372.14
750.49	1322.99
750.67	1363.95
750.85	1421.29
751.03	1413.10
751.20	1413.10
751.38	1394.67
751.56	1327.08
751.74	1388.52
751.92	1384.43
752.10	1376.24
752.28	1388.52
752.46	1413.10
752.64	1392.62
752.82	1310.70
753.00	1417.19
753.18	1380.33
753.35	1363.95
753.53	1402.86
753.71	1374.19
753.89	1445.87
754.07	1355.76
754.25	1402.86
754.43	1351.66
754.61	1335.28
754.79	1439.72
754.97	1294.32
755.14	1439.72
755.32	1302.51
755.50	1423.34
755.68	1402.86
755.86	1325.04
756.04	1382.38
756.22	1249.26
756.40	1335.28
756.57	1343.47
756.75	1363.95
756.93	1402.86
757.11	1359.85
757.29	1335.28
757.47	1331.18
757.65	1335.28
757.82	1300.46
758.00	1335.28
758.18	1349.61
758.36	1337.32
758.54	1353.71
758.72	1335.28
758.90	1417.19
759.07	1425.39
759.25	1343.47
759.43	1343.47
759.61	1361.90
759.79	1611.75
759.97	1384.43
760.15	1353.71
760.32	1398.76
760.50	1366.00
760.68	1458.15
760.86	1359.85
761.04	1431.53
761.22	1402.86
761.39	1380.33
761.57	1359.85
761.75	1386.47
761.93	1347.56
762.11	1409.00
762.28	1267.69
762.46	1374.19
762.64	1411.05
762.82	1355.76
763.00	1398.76
763.18	1419.24
763.35	1359.85
763.53	1482.73
763.71	1296.36
763.89	1460.20
764.07	1384.43
764.24	1343.47
764.42	1415.15
764.60	1345.52
764.78	1392.62
764.96	1353.71
765.13	1355.76
765.31	1452.01
765.49	1413.10
765.67	1355.76
765.84	1376.24
766.02	1353.71
766.20	1304.56
766.38	1425.39
766.56	1392.62
766.73	1320.94
766.91	1329.13
767.09	1298.41
767.27	1382.38
767.44	1361.90
767.62	1363.95
767.80	1372.14
767.98	1374.19
768.15	1396.71
768.33	1390.57
768.51	1306.60
768.69	1429.48
768.87	1382.38
769.04	1333.23
769.22	1437.67
769.40	1433.58
769.58	1515.50
769.75	1263.60
769.93	1279.98
770.11	1390.57
770.28	1404.91
770.46	1347.56
770.64	1349.61
770.82	1318.89
770.99	1361.90
771.17	1441.77
771.35	1331.18
771.53	1343.47
771.70	1415.15
771.88	1454.06
772.06	1388.52
772.23	1368.04
772.41	1415.15
772.59	1335.28
772.77	1413.10
772.94	1347.56
773.12	1437.67
773.30	1310.70
773.47	1394.67
773.65	1327.08
773.83	1413.10
774.01	1314.80
774.18	1265.64
774.36	1421.29
774.54	1363.95
774.71	1437.67
774.89	1331.18
775.07	1402.86
775.24	1337.32
775.42	1372.14
775.60	1366.00
775.78	1304.56
775.95	1329.13
776.13	1322.99
776.31	1322.99
776.48	1345.52
776.66	1454.06
776.84	1376.24
777.01	1296.36
777.19	1331.18
777.37	1345.52
777.54	1429.48
777.72	1355.76
777.90	1341.42
778.07	1282.03
778.25	1482.73
778.43	1372.14
778.60	1335.28
778.78	1425.39
778.96	1415.15
779.13	1255.40
779.31	1378.28
779.49	1366.00
779.66	1370.09
779.84	1359.85
780.01	1417.19
780.19	1343.47
780.37	1368.04
780.54	1341.42
780.72	1341.42
780.90	1398.76
781.07	1386.47
781.25	1372.14
781.43	1396.71
781.60	1351.66
781.78	1421.29
781.95	1441.77
782.13	1343.47
782.31	1314.80
782.48	1322.99
782.66	1341.42
782.83	1392.62
783.01	1331.18
783.19	1316.84
783.36	1394.67
783.54	1255.40
783.72	1417.19
783.89	1400.81
784.07	1337.32
784.24	1322.99
784.42	1476.59
784.60	1353.71
784.77	1366.00
784.95	1310.70
785.12	1327.08
785.30	1372.14
785.47	1386.47
785.65	1322.99
785.83	1388.52
786.00	1351.66
786.18	1413.10
786.35	1335.28
786.53	1337.32
786.71	1361.90
786.88	1400.81
787.06	1443.82
787.23	1335.28
787.41	1376.24
787.58	1355.76
787.76	1363.95
787.94	1431.53
788.11	1415.15
788.29	1427.43
788.46	1431.53
788.64	1310.70
788.81	1337.32
788.99	1425.39
789.16	1343.47
789.34	1220.59
789.52	1322.99
789.69	1366.00
789.87	1273.84
790.04	1419.24
790.22	1380.33
790.39	1413.10
790.57	1331.18
790.74	1343.47
790.92	1404.91
791.09	1269.74
791.27	1349.61
791.44	1394.67
791.62	1396.71
791.79	1404.91
791.97	1347.56
792.15	1415.15
792.32	1398.76
792.50	1462.25
792.67	1361.90
792.85	1286.12
793.02	1437.67
793.20	1357.80
793.37	1380.33
793.55	1331.18
793.72	1325.04
793.90	1417.19
794.07	1331.18
794.25	1304.56
794.42	1431.53
794.60	1343.47
794.77	1327.08
794.95	1363.95
795.12	1394.67
795.30	1386.47
795.47	1343.47
795.65	1470.44
795.82	1331.18
796.00	1347.56
796.17	1329.13
796.34	1370.09
796.52	1366.00
796.69	1388.52
796.87	1370.09
797.04	1318.89
797.22	1331.18
797.39	1325.04
797.57	1402.86
797.74	1337.32
797.92	1374.19
798.09	1269.74
798.27	1370.09
798.44	1341.42
798.62	1327.08
798.79	1370.09
798.96	1388.52
799.14	1439.72
799.31	1437.67
799.49	1372.14
799.66	1363.95
799.84	1341.42
800.01	1259.50
800.19	1331.18
800.36	1271.79
800.53	1421.29
800.71	1290.22
800.88	1388.52
801.06	1294.32
801.23	1349.61
801.41	1351.66
801.58	1368.04
801.75	1380.33
801.93	1409.00
802.10	1480.68
802.28	1298.41
802.45	1370.09
802.63	1441.77
802.80	1398.76
802.97	1396.71
803.15	1341.42
803.32	1372.14
803.50	1390.57
803.67	1312.75
803.84	1228.78
804.02	1351.66
804.19	1368.04
804.37	1363.95
804.54	1296.36
804.71	1376.24
804.89	1361.90
805.06	1380.33
805.24	1380.33
805.41	1304.56
805.58	1261.55
805.76	1349.61
805.93	1322.99
806.10	1466.35
806.28	1402.86
806.45	1345.52
806.63	1376.24
806.80	1394.67
806.97	1351.66
807.15	1351.66
807.32	1355.76
807.49	1318.89
807.67	1310.70
807.84	1435.63
808.01	1406.95
808.19	1538.02
808.36	1417.19
808.54	1294.32
808.71	1308.65
808.88	1333.23
809.06	1392.62
809.23	1439.72
809.40	1363.95
809.58	1437.67
809.75	1329.13
809.92	1312.75
810.10	1427.43
810.27	1345.52
810.44	1386.47
810.62	1427.43
810.79	1349.61
810.96	1341.42
811.14	1298.41
811.31	1337.32
811.48	1458.15
811.66	1339.37
811.83	1406.95
812.00	1437.67
812.18	1363.95
812.35	1515.50
812.52	1347.56
812.69	1421.29
812.87	1337.32
813.04	1325.04
813.21	1353.71
813.39	1296.36
813.56	1210.35
813.73	1419.24
813.91	1318.89
814.08	1388.52
814.25	1380.33
814.42	1376.24
814.60	1390.57
814.77	1312.75
814.94	1396.71
815.12	1339.37
815.29	1429.48
815.46	1378.28
815.63	1370.09
815.81	1374.19
815.98	1396.71
816.15	1322.99
816.33	1343.47
816.50	1343.47
816.67	1366.00
816.84	1355.76
817.02	1337.32
817.19	1402.86
817.36	1361.90
817.53	1425.39
817.71	1361.90
817.88	1384.43
818.05	1345.52
818.22	1296.36
818.40	1406.95
818.57	1404.91
818.74	1409.00
818.91	1372.14
819.09	1464.30
819.26	1363.95
819.43	1368.04
819.60	1376.24
819.78	1306.60
819.95	1484.78
820.12	1441.77
820.29	1351.66
820.47	1382.38
820.64	1322.99
820.81	1366.00
820.98	1380.33
821.15	1370.09
821.33	1445.87
821.50	1308.65
821.67	1402.86
821.84	1300.46
822.02	1345.52
822.19	1388.52
822.36	1343.47
822.53	1363.95
822.70	1337.32
822.88	1349.61
823.05	1417.19
823.22	1409.00
823.39	1359.85
823.56	1318.89
823.74	1402.86
823.91	1325.04
824.08	1374.19
824.25	1353.71
824.42	1482.73
824.60	1337.32
824.77	1417.19
824.94	1384.43
825.11	1388.52
825.28	1366.00
825.45	1413.10
825.63	1413.10
825.80	1325.04
825.97	1396.71
826.14	1368.04
826.31	1347.56
826.48	1488.87
826.66	1380.33
826.83	1331.18
827.00	1355.76
827.17	1386.47
827.34	1404.91
827.51	1347.56
827.69	1294.32
827.86	1339.37
828.03	1425.39
828.20	1378.28
828.37	1372.14
828.54	1443.82
828.71	1335.28
828.89	1398.76
829.06	1404.91
829.23	1415.15
829.40	1335.28
829.57	1331.18
829.74	1398.76
829.91	1300.46
830.09	1370.09
830.26	1476.59
830.43	1402.86
830.60	1388.52
830.77	1449.96
830.94	1386.47
831.11	1400.81
831.28	1402.86
831.46	1427.43
831.63	1400.81
831.80	1363.95
831.97	1368.04
832.14	1423.34
832.31	1400.81
832.48	1370.09
832.65	1452.01
832.82	1378.28
832.99	1384.43
833.17	1349.61
833.34	1452.01
833.51	1343.47
833.68	1249.26
833.85	1355.76
834.02	1290.22
834.19	1406.95
834.36	1300.46
834.53	1347.56
834.70	1349.61
834.87	1384.43
835.04	1396.71
835.22	1327.08
835.39	1380.33
835.56	1310.70
835.73	1353.71
835.90	1429.48
836.07	1394.67
836.24	1396.71
836.41	1378.28
836.58	1390.57
836.75	1431.53
836.92	1331.18
837.09	1366.00
837.26	1370.09
837.43	1329.13
837.60	1439.72
837.77	1370.09
837.94	1486.83
838.12	1546.22
838.29	1404.91
838.46	1366.00
838.63	1400.81
838.80	1427.43
838.97	1402.86
839.14	1359.85
839.31	1298.41
839.48	1378.28
839.65	1349.61
839.82	1384.43
839.99	1396.71
840.16	1413.10
840.33	1337.32
840.50	1372.14
840.67	1411.05
840.84	1347.56
841.01	1374.19
841.18	1400.81
841.35	1312.75
841.52	1419.24
841.69	1349.61
841.86	1382.38
842.03	1366.00
842.20	1466.35
842.37	1384.43
842.54	1427.43
842.71	1372.14
842.88	1331.18
843.05	1435.63
843.22	1343.47
843.39	1320.94
843.56	1335.28
843.73	1366.00
843.90	1288.17
844.07	1341.42
844.24	1339.37
844.41	1429.48
844.58	1380.33
844.75	1431.53
844.92	1355.76
845.09	1269.74
845.26	1376.24
845.43	1361.90
845.60	1331.18
845.77	1445.87
845.94	1402.86
846.10	1409.00
846.27	1298.41
846.44	1331.18
846.61	1327.08
846.78	1349.61
846.95	1286.12
847.12	1409.00
847.29	1310.70
847.46	1359.85
847.63	1363.95
847.80	1349.61
847.97	1349.61
848.14	1382.38
848.31	1384.43
848.48	1374.19
848.65	1306.60
848.82	1345.52
848.98	1394.67
849.15	1404.91
849.32	1314.80
849.49	1427.43
849.66	1380.33
849.83	1417.19
850.00	1345.52
850.17	1382.38
850.34	1294.32
850.51	1366.00
850.68	1396.71
850.85	1472.49
851.01	1298.41
851.18	1374.19
851.35	1329.13
851.52	1370.09
851.69	1460.20
851.86	1292.27
852.03	1363.95
852.20	1355.76
852.37	1396.71
852.53	1269.74
852.70	1435.63
852.87	1386.47
853.04	1249.26
853.21	1292.27
853.38	1343.47
853.55	1355.76
853.72	1466.35
853.89	1333.23
854.05	1372.14
854.22	1314.80
854.39	1341.42
854.56	1351.66
854.73	1411.05
854.90	1310.70
855.07	1359.85
855.23	1310.70
855.40	1339.37
855.57	1347.56
855.74	1325.04
855.91	1464.30
856.08	1333.23
856.25	1316.84
856.41	1386.47
856.58	1363.95
856.75	1384.43
856.92	1275.88
857.09	1380.33
857.26	1363.95
857.42	1347.56
857.59	1372.14
857.76	1353.71
857.93	1370.09
858.10	1394.67
858.27	1318.89
858.43	1339.37
858.60	1316.84
858.77	1347.56
858.94	1325.04
859.11	1419.24
859.27	1341.42
859.44	1320.94
859.61	1386.47
859.78	1417.19
859.95	1409.00
860.12	1359.85
860.28	1433.58
860.45	1443.82
860.62	1284.08
860.79	1368.04
860.95	1355.76
861.12	1243.12
861.29	1351.66
861.46	1310.70
861.63	1417.19
861.79	1396.71
861.96	1384.43
862.13	1300.46
862.30	1390.57
862.47	1368.04
862.63	1306.60
862.80	1388.52
862.97	1396.71
863.14	1398.76
863.30	1409.00
863.47	1318.89
863.64	1392.62
863.81	1347.56
863.97	1339.37
864.14	1449.96
864.31	1366.00
864.48	1378.28
864.65	1275.88
864.81	1363.95
864.98	1402.86
865.15	1366.00
865.32	1384.43
865.48	1388.52
865.65	1441.77
865.82	1376.24
865.98	1398.76
866.15	1357.80
866.32	1347.56
866.49	1361.90
866.65	1380.33
866.82	1331.18
866.99	1359.85
867.16	1404.91
867.32	1400.81
867.49	1337.32
867.66	1347.56
867.83	1304.56
867.99	1361.90
868.16	1359.85
868.33	1349.61
868.49	1376.24
868.66	1380.33
868.83	1423.34
868.99	1419.24
869.16	1361.90
869.33	1474.54
869.50	1435.63
869.66	1316.84
869.83	1454.06
870.00	1322.99
870.16	1396.71
870.33	1351.66
870.50	1314.80
870.66	1335.28
870.83	1482.73
871.00	1363.95
871.17	1368.04
871.33	1402.86
871.50	1306.60
871.67	1302.51
871.83	1286.12
872.00	1544.17
872.17	1427.43
872.33	1333.23
872.50	1384.43
872.67	1347.56
872.83	1398.76
873.00	1380.33
873.17	1460.20
873.33	1392.62
873.50	1366.00
873.67	1294.32
873.83	1306.60
874.00	1376.24
874.16	1357.80
874.33	1388.52
874.50	1339.37
874.66	1388.52
874.83	1349.61
875.00	1456.11
875.16	1320.94
875.33	1419.24
875.50	1314.80
875.66	1357.80
875.83	1417.19
875.99	1310.70
876.16	1425.39
876.33	1388.52
876.49	1374.19
876.66	1357.80
876.83	1380.33
876.99	1273.84
877.16	1335.28
877.32	1282.03
877.49	1370.09
877.66	1363.95
877.82	1423.34
877.99	1331.18
878.15	1335.28
878.32	1325.04
878.49	1368.04
878.65	1454.06
878.82	1406.95
878.98	1316.84
879.15	1355.76
879.32	1366.00
879.48	1290.22
879.65	1372.14
879.81	1304.56
879.98	1345.52
880.15	1363.95
880.31	1353.71
880.48	1316.84
880.64	1351.66
880.81	1476.59
880.97	1380.33
881.14	1339.37
881.31	1404.91
881.47	1437.67
881.64	1380.33
881.80	1306.60
881.97	1327.08
882.13	1406.95
882.30	1368.04
882.47	1273.84
882.63	1341.42
882.80	1368.04
882.96	1402.86
883.13	1394.67
883.29	1372.14
883.46	1347.56
883.62	1474.54
883.79	1372.14
883.95	1341.42
884.12	1388.52
884.29	1509.35
884.45	1343.47
884.62	1396.71
884.78	1302.51
884.95	1378.28
885.11	1308.65
885.28	1335.28
885.44	1335.28
885.61	1406.95
885.77	1419.24
885.94	1337.32
886.10	1349.61
886.27	1343.47
886.43	1443.82
886.60	1386.47
886.76	1347.56
886.93	1298.41
887.09	1447.91
887.26	1318.89
887.42	1368.04
887.59	1343.47
887.75	1507.30
887.92	1484.78
888.08	1435.63
888.25	1402.86
888.41	1419.24
888.58	1429.48
888.74	1343.47
888.91	1320.94
>>>>>End Processed Spectral Data<<<<<
