SpectraSuite Data File
++++++++++++++++++++++++++++++++++++
Date: Tue May 03 11:24:17 CEST 2016
User: root
Dark Spectrum Present: No
Reference Spectrum Present: No
Number of Sampled Component Spectra: 1
Spectrometers: USB4C02835
Integration Time (usec): 100000 (USB4C02835)
Spectra Averaged: 1 (USB4C02835)
Boxcar Smoothing: 0 (USB4C02835)
Correct for Electrical Dark: No (USB4C02835)
Strobe/Lamp Enabled: No (USB4C02835)
Correct for Detector Non-linearity: No (USB4C02835)
Correct for Stray Light: No (USB4C02835)
Number of Pixels in Processed Spectrum: 3648
>>>>>Begin Processed Spectral Data<<<<<
177.47	1259.50
177.69	1259.50
177.91	1259.50
178.13	1277.93
178.36	1230.83
178.58	1327.08
178.80	1359.85
179.02	1359.85
179.24	1312.75
179.46	1353.71
179.68	1417.19
179.90	1388.52
180.13	1406.95
180.35	1351.66
180.57	1322.99
180.79	1368.04
181.01	1333.23
181.23	1376.24
181.45	1509.35
181.67	1363.95
181.90	1404.91
182.12	1406.95
182.34	1359.85
182.56	1394.67
182.78	1456.11
183.00	1386.47
183.22	1347.56
183.44	1290.22
183.66	1523.69
183.89	1419.24
184.11	1359.85
184.33	1355.76
184.55	1411.05
184.77	1400.81
184.99	1355.76
185.21	1400.81
185.43	1419.24
185.65	1353.71
185.87	1417.19
186.10	1482.73
186.32	1394.67
186.54	1413.10
186.76	1449.96
186.98	1376.24
187.20	1376.24
187.42	1392.62
187.64	1329.13
187.86	1413.10
188.08	1368.04
188.30	1347.56
188.52	1382.38
188.75	1398.76
188.97	1353.71
189.19	1306.60
189.41	1345.52
189.63	1388.52
189.85	1312.75
190.07	1255.40
190.29	1275.88
190.51	1363.95
190.73	1329.13
190.95	1513.45
191.17	1345.52
191.39	1359.85
191.61	1322.99
191.84	1417.19
192.06	1359.85
192.28	1255.40
192.50	1458.15
192.72	1353.71
192.94	1339.37
193.16	1345.52
193.38	1398.76
193.60	1312.75
193.82	1366.00
194.04	1390.57
194.26	1372.14
194.48	1425.39
194.70	1388.52
194.92	1402.86
195.14	1394.67
195.36	1423.34
195.58	1415.15
195.80	1370.09
196.02	1421.29
196.24	1382.38
196.46	1396.71
196.69	1314.80
196.91	1376.24
197.13	1300.46
197.35	1368.04
197.57	1441.77
197.79	1374.19
198.01	1417.19
198.23	1343.47
198.45	1357.80
198.67	1382.38
198.89	1404.91
199.11	1361.90
199.33	1310.70
199.55	1366.00
199.77	1282.03
199.99	1400.81
200.21	1380.33
200.43	1339.37
200.65	1335.28
200.87	1345.52
201.09	1427.43
201.31	1329.13
201.53	1431.53
201.75	1474.54
201.97	1374.19
202.19	1353.71
202.41	1394.67
202.63	1398.76
202.85	1351.66
203.07	1398.76
203.29	1327.08
203.51	1282.03
203.73	1368.04
203.95	1474.54
204.17	1386.47
204.39	1351.66
204.61	1351.66
204.83	1320.94
205.05	1382.38
205.27	1380.33
205.49	1472.49
205.71	1368.04
205.93	1398.76
206.15	1386.47
206.37	1355.76
206.59	1361.90
206.81	1316.84
207.03	1378.28
207.25	1265.64
207.47	1329.13
207.69	1372.14
207.91	1366.00
208.13	1357.80
208.34	1335.28
208.56	1316.84
208.78	1404.91
209.00	1337.32
209.22	1366.00
209.44	1345.52
209.66	1404.91
209.88	1355.76
210.10	1402.86
210.32	1302.51
210.54	1351.66
210.76	1279.98
210.98	1376.24
211.20	1320.94
211.42	1378.28
211.64	1396.71
211.86	1302.51
212.08	1378.28
212.30	1476.59
212.52	1320.94
212.74	1409.00
212.96	1413.10
213.17	1339.37
213.39	1441.77
213.61	1384.43
213.83	1421.29
214.05	1327.08
214.27	1394.67
214.49	1308.65
214.71	1390.57
214.93	1413.10
215.15	1368.04
215.37	1386.47
215.59	1298.41
215.81	1390.57
216.03	1382.38
216.24	1306.60
216.46	1372.14
216.68	1419.24
216.90	1359.85
217.12	1421.29
217.34	1380.33
217.56	1378.28
217.78	1406.95
218.00	1396.71
218.22	1277.93
218.44	1386.47
218.66	1376.24
218.87	1456.11
219.09	1318.89
219.31	1351.66
219.53	1339.37
219.75	1380.33
219.97	1331.18
220.19	1363.95
220.41	1282.03
220.63	1404.91
220.85	1409.00
221.06	1421.29
221.28	1482.73
221.50	1464.30
221.72	1394.67
221.94	1318.89
222.16	1347.56
222.38	1402.86
222.60	1380.33
222.82	1372.14
223.03	1363.95
223.25	1339.37
223.47	1353.71
223.69	1433.58
223.91	1398.76
224.13	1349.61
224.35	1361.90
224.57	1439.72
224.78	1392.62
225.00	1355.76
225.22	1384.43
225.44	1402.86
225.66	1288.17
225.88	1343.47
226.10	1411.05
226.32	1390.57
226.53	1431.53
226.75	1343.47
226.97	1458.15
227.19	1310.70
227.41	1288.17
227.63	1329.13
227.85	1261.55
228.06	1380.33
228.28	1357.80
228.50	1406.95
228.72	1333.23
228.94	1404.91
229.16	1310.70
229.37	1318.89
229.59	1396.71
229.81	1456.11
230.03	1380.33
230.25	1351.66
230.47	1411.05
230.69	1347.56
230.90	1353.71
231.12	1329.13
231.34	1363.95
231.56	1480.68
231.78	1306.60
232.00	1329.13
232.21	1443.82
232.43	1339.37
232.65	1247.21
232.87	1370.09
233.09	1292.27
233.30	1308.65
233.52	1310.70
233.74	1320.94
233.96	1259.50
234.18	1300.46
234.40	1314.80
234.61	1417.19
234.83	1331.18
235.05	1333.23
235.27	1486.83
235.49	1404.91
235.70	1347.56
235.92	1404.91
236.14	1380.33
236.36	1488.87
236.58	1316.84
236.79	1308.65
237.01	1382.38
237.23	1257.45
237.45	1427.43
237.67	1359.85
237.88	1368.04
238.10	1406.95
238.32	1413.10
238.54	1441.77
238.76	1419.24
238.97	1353.71
239.19	1380.33
239.41	1472.49
239.63	1318.89
239.85	1357.80
240.06	1357.80
240.28	1337.32
240.50	1409.00
240.72	1345.52
240.93	1333.23
241.15	1449.96
241.37	1388.52
241.59	1357.80
241.81	1343.47
242.02	1343.47
242.24	1353.71
242.46	1478.63
242.68	1355.76
242.89	1386.47
243.11	1388.52
243.33	1419.24
243.55	1417.19
243.76	1456.11
243.98	1322.99
244.20	1394.67
244.42	1368.04
244.64	1363.95
244.85	1361.90
245.07	1320.94
245.29	1447.91
245.51	1347.56
245.72	1351.66
245.94	1363.95
246.16	1355.76
246.38	1339.37
246.59	1380.33
246.81	1390.57
247.03	1337.32
247.24	1318.89
247.46	1335.28
247.68	1404.91
247.90	1417.19
248.11	1312.75
248.33	1341.42
248.55	1304.56
248.77	1406.95
248.98	1366.00
249.20	1390.57
249.42	1316.84
249.64	1417.19
249.85	1390.57
250.07	1314.80
250.29	1437.67
250.50	1433.58
250.72	1277.93
250.94	1320.94
251.16	1470.44
251.37	1404.91
251.59	1427.43
251.81	1398.76
252.02	1355.76
252.24	1359.85
252.46	1404.91
252.68	1406.95
252.89	1345.52
253.11	1347.56
253.33	1454.06
253.54	1386.47
253.76	1329.13
253.98	1392.62
254.20	1347.56
254.41	1290.22
254.63	1366.00
254.85	1308.65
255.06	1355.76
255.28	1411.05
255.50	1409.00
255.71	1279.98
255.93	1316.84
256.15	1322.99
256.36	1419.24
256.58	1394.67
256.80	1396.71
257.02	1361.90
257.23	1363.95
257.45	1402.86
257.67	1386.47
257.88	1368.04
258.10	1380.33
258.32	1368.04
258.53	1435.63
258.75	1409.00
258.97	1296.36
259.18	1302.51
259.40	1314.80
259.62	1372.14
259.83	1404.91
260.05	1368.04
260.27	1523.69
260.48	1398.76
260.70	1322.99
260.92	1388.52
261.13	1318.89
261.35	1294.32
261.57	1435.63
261.78	1343.47
262.00	1329.13
262.22	1386.47
262.43	1314.80
262.65	1388.52
262.86	1445.87
263.08	1431.53
263.30	1390.57
263.51	1271.79
263.73	1355.76
263.95	1452.01
264.16	1359.85
264.38	1316.84
264.60	1445.87
264.81	1335.28
265.03	1411.05
265.25	1374.19
265.46	1400.81
265.68	1368.04
265.89	1376.24
266.11	1361.90
266.33	1363.95
266.54	1384.43
266.76	1392.62
266.98	1392.62
267.19	1449.96
267.41	1443.82
267.62	1359.85
267.84	1337.32
268.06	1368.04
268.27	1433.58
268.49	1486.83
268.70	1427.43
268.92	1433.58
269.14	1382.38
269.35	1343.47
269.57	1322.99
269.79	1495.02
270.00	1343.47
270.22	1374.19
270.43	1439.72
270.65	1337.32
270.87	1376.24
271.08	1376.24
271.30	1419.24
271.51	1411.05
271.73	1378.28
271.95	1411.05
272.16	1376.24
272.38	1380.33
272.59	1396.71
272.81	1380.33
273.02	1419.24
273.24	1312.75
273.46	1439.72
273.67	1310.70
273.89	1265.64
274.10	1312.75
274.32	1409.00
274.54	1368.04
274.75	1368.04
274.97	1374.19
275.18	1443.82
275.40	1361.90
275.61	1427.43
275.83	1370.09
276.05	1325.04
276.26	1331.18
276.48	1378.28
276.69	1345.52
276.91	1394.67
277.12	1374.19
277.34	1429.48
277.55	1363.95
277.77	1406.95
277.99	1347.56
278.20	1388.52
278.42	1400.81
278.63	1349.61
278.85	1378.28
279.06	1363.95
279.28	1421.29
279.49	1372.14
279.71	1318.89
279.93	1392.62
280.14	1331.18
280.36	1347.56
280.57	1316.84
280.79	1437.67
281.00	1388.52
281.22	1431.53
281.43	1429.48
281.65	1294.32
281.86	1329.13
282.08	1357.80
282.29	1431.53
282.51	1343.47
282.73	1339.37
282.94	1331.18
283.16	1413.10
283.37	1384.43
283.59	1351.66
283.80	1290.22
284.02	1411.05
284.23	1394.67
284.45	1390.57
284.66	1386.47
284.88	1316.84
285.09	1386.47
285.31	1376.24
285.52	1322.99
285.74	1343.47
285.95	1343.47
286.17	1304.56
286.38	1368.04
286.60	1343.47
286.81	1359.85
287.03	1335.28
287.24	1335.28
287.46	1400.81
287.67	1445.87
287.89	1511.40
288.10	1339.37
288.32	1458.15
288.53	1404.91
288.75	1413.10
288.96	1380.33
289.18	1304.56
289.39	1312.75
289.61	1435.63
289.82	1468.39
290.04	1435.63
290.25	1392.62
290.47	1376.24
290.68	1298.41
290.90	1400.81
291.11	1341.42
291.33	1378.28
291.54	1316.84
291.76	1312.75
291.97	1404.91
292.18	1368.04
292.40	1320.94
292.61	1304.56
292.83	1513.45
293.04	1386.47
293.26	1345.52
293.47	1435.63
293.69	1374.19
293.90	1265.64
294.12	1388.52
294.33	1325.04
294.55	1411.05
294.76	1402.86
294.97	1429.48
295.19	1443.82
295.40	1417.19
295.62	1341.42
295.83	1409.00
296.05	1230.83
296.26	1327.08
296.48	1376.24
296.69	1359.85
296.90	1372.14
297.12	1341.42
297.33	1357.80
297.55	1413.10
297.76	1380.33
297.98	1363.95
298.19	1386.47
298.41	1351.66
298.62	1325.04
298.83	1449.96
299.05	1345.52
299.26	1325.04
299.48	1314.80
299.69	1318.89
299.90	1396.71
300.12	1271.79
300.33	1378.28
300.55	1349.61
300.76	1347.56
300.98	1343.47
301.19	1343.47
301.40	1355.76
301.62	1318.89
301.83	1390.57
302.05	1370.09
302.26	1411.05
302.47	1392.62
302.69	1314.80
302.90	1368.04
303.12	1245.16
303.33	1495.02
303.54	1394.67
303.76	1296.36
303.97	1380.33
304.19	1525.74
304.40	1384.43
304.61	1441.77
304.83	1400.81
305.04	1439.72
305.26	1396.71
305.47	1310.70
305.68	1427.43
305.90	1347.56
306.11	1384.43
306.33	1353.71
306.54	1333.23
306.75	1333.23
306.97	1253.36
307.18	1339.37
307.39	1413.10
307.61	1388.52
307.82	1396.71
308.04	1357.80
308.25	1374.19
308.46	1441.77
308.68	1376.24
308.89	1376.24
309.10	1445.87
309.32	1386.47
309.53	1368.04
309.74	1400.81
309.96	1286.12
310.17	1380.33
310.39	1366.00
310.60	1361.90
310.81	1372.14
311.03	1312.75
311.24	1411.05
311.45	1339.37
311.67	1398.76
311.88	1392.62
312.09	1390.57
312.31	1392.62
312.52	1460.20
312.73	1359.85
312.95	1267.69
313.16	1361.90
313.37	1439.72
313.59	1396.71
313.80	1368.04
314.01	1394.67
314.23	1347.56
314.44	1370.09
314.65	1282.03
314.87	1320.94
315.08	1357.80
315.29	1322.99
315.51	1351.66
315.72	1386.47
315.93	1417.19
316.15	1400.81
316.36	1421.29
316.57	1404.91
316.79	1372.14
317.00	1337.32
317.21	1372.14
317.43	1357.80
317.64	1402.86
317.85	1417.19
318.07	1398.76
318.28	1439.72
318.49	1599.46
318.70	1601.51
318.92	1540.07
319.13	1517.54
319.34	1558.50
319.56	1509.35
319.77	1482.73
319.98	1464.30
320.20	1404.91
320.41	1378.28
320.62	1337.32
320.83	1409.00
321.05	1429.48
321.26	1271.79
321.47	1339.37
321.69	1470.44
321.90	1286.12
322.11	1363.95
322.32	1372.14
322.54	1439.72
322.75	1413.10
322.96	1337.32
323.18	1271.79
323.39	1273.84
323.60	1286.12
323.81	1380.33
324.03	1368.04
324.24	1376.24
324.45	1372.14
324.66	1339.37
324.88	1347.56
325.09	1320.94
325.30	1341.42
325.52	1398.76
325.73	1390.57
325.94	1357.80
326.15	1263.60
326.37	1386.47
326.58	1400.81
326.79	1404.91
327.00	1308.65
327.22	1404.91
327.43	1308.65
327.64	1329.13
327.85	1396.71
328.07	1374.19
328.28	1445.87
328.49	1355.76
328.70	1341.42
328.92	1329.13
329.13	1327.08
329.34	1384.43
329.55	1454.06
329.76	1390.57
329.98	1314.80
330.19	1370.09
330.40	1359.85
330.61	1349.61
330.83	1331.18
331.04	1343.47
331.25	1384.43
331.46	1402.86
331.68	1333.23
331.89	1376.24
332.10	1417.19
332.31	1359.85
332.52	1288.17
332.74	1427.43
332.95	1343.47
333.16	1359.85
333.37	1368.04
333.58	1388.52
333.80	1308.65
334.01	1284.08
334.22	1396.71
334.43	1322.99
334.64	1382.38
334.86	1345.52
335.07	1335.28
335.28	1396.71
335.49	1329.13
335.70	1468.39
335.92	1396.71
336.13	1488.87
336.34	1392.62
336.55	1380.33
336.76	1392.62
336.98	1300.46
337.19	1337.32
337.40	1431.53
337.61	1480.68
337.82	1376.24
338.04	1339.37
338.25	1357.80
338.46	1398.76
338.67	1349.61
338.88	1314.80
339.09	1279.98
339.31	1279.98
339.52	1353.71
339.73	1304.56
339.94	1322.99
340.15	1339.37
340.36	1298.41
340.58	1425.39
340.79	1294.32
341.00	1417.19
341.21	1366.00
341.42	1439.72
341.63	1413.10
341.85	1390.57
342.06	1374.19
342.27	1306.60
342.48	1398.76
342.69	1243.12
342.90	1392.62
343.12	1402.86
343.33	1351.66
343.54	1351.66
343.75	1484.78
343.96	1357.80
344.17	1322.99
344.38	1325.04
344.60	1361.90
344.81	1306.60
345.02	1396.71
345.23	1437.67
345.44	1456.11
345.65	1482.73
345.86	1380.33
346.07	1357.80
346.29	1331.18
346.50	1423.34
346.71	1419.24
346.92	1417.19
347.13	1478.63
347.34	1370.09
347.55	1376.24
347.76	1419.24
347.98	1335.28
348.19	1382.38
348.40	1437.67
348.61	1320.94
348.82	1427.43
349.03	1368.04
349.24	1380.33
349.45	1384.43
349.66	1320.94
349.88	1382.38
350.09	1316.84
350.30	1462.25
350.51	1380.33
350.72	1437.67
350.93	1353.71
351.14	1318.89
351.35	1402.86
351.56	1349.61
351.77	1286.12
351.99	1355.76
352.20	1433.58
352.41	1404.91
352.62	1343.47
352.83	1312.75
353.04	1388.52
353.25	1349.61
353.46	1419.24
353.67	1392.62
353.88	1271.79
354.09	1343.47
354.30	1378.28
354.52	1415.15
354.73	1378.28
354.94	1320.94
355.15	1441.77
355.36	1398.76
355.57	1275.88
355.78	1427.43
355.99	1378.28
356.20	1404.91
356.41	1499.11
356.62	1314.80
356.83	1357.80
357.04	1374.19
357.25	1320.94
357.46	1363.95
357.68	1341.42
357.89	1363.95
358.10	1282.03
358.31	1318.89
358.52	1392.62
358.73	1345.52
358.94	1300.46
359.15	1390.57
359.36	1429.48
359.57	1263.60
359.78	1318.89
359.99	1314.80
360.20	1384.43
360.41	1380.33
360.62	1409.00
360.83	1392.62
361.04	1423.34
361.25	1355.76
361.46	1417.19
361.67	1486.83
361.88	1423.34
362.09	1398.76
362.30	1398.76
362.51	1322.99
362.72	1406.95
362.93	1372.14
363.14	1421.29
363.35	1363.95
363.56	1368.04
363.78	1437.67
363.99	1437.67
364.20	1370.09
364.41	1398.76
364.62	1400.81
364.83	1435.63
365.04	1327.08
365.25	1359.85
365.46	1462.25
365.67	1363.95
365.88	1351.66
366.09	1333.23
366.30	1343.47
366.51	1374.19
366.72	1339.37
366.93	1409.00
367.14	1441.77
367.35	1386.47
367.56	1345.52
367.77	1411.05
367.98	1431.53
368.18	1337.32
368.39	1460.20
368.60	1310.70
368.81	1372.14
369.02	1400.81
369.23	1396.71
369.44	1378.28
369.65	1351.66
369.86	1380.33
370.07	1425.39
370.28	1290.22
370.49	1349.61
370.70	1370.09
370.91	1359.85
371.12	1335.28
371.33	1474.54
371.54	1347.56
371.75	1445.87
371.96	1269.74
372.17	1355.76
372.38	1370.09
372.59	1380.33
372.80	1390.57
373.01	1370.09
373.22	1404.91
373.43	1421.29
373.64	1378.28
373.85	1327.08
374.06	1374.19
374.26	1404.91
374.47	1343.47
374.68	1339.37
374.89	1343.47
375.10	1341.42
375.31	1402.86
375.52	1359.85
375.73	1370.09
375.94	1382.38
376.15	1370.09
376.36	1314.80
376.57	1341.42
376.78	1384.43
376.99	1343.47
377.20	1402.86
377.40	1306.60
377.61	1409.00
377.82	1343.47
378.03	1368.04
378.24	1413.10
378.45	1368.04
378.66	1372.14
378.87	1353.71
379.08	1370.09
379.29	1353.71
379.50	1431.53
379.71	1390.57
379.91	1392.62
380.12	1304.56
380.33	1392.62
380.54	1404.91
380.75	1400.81
380.96	1359.85
381.17	1458.15
381.38	1437.67
381.59	1445.87
381.80	1423.34
382.00	1544.17
382.21	1406.95
382.42	1513.45
382.63	1497.07
382.84	1454.06
383.05	1398.76
383.26	1466.35
383.47	1466.35
383.68	1462.25
383.88	1431.53
384.09	1357.80
384.30	1435.63
384.51	1388.52
384.72	1345.52
384.93	1376.24
385.14	1406.95
385.35	1419.24
385.55	1366.00
385.76	1447.91
385.97	1339.37
386.18	1327.08
386.39	1341.42
386.60	1404.91
386.81	1366.00
387.02	1443.82
387.22	1433.58
387.43	1556.46
387.64	1589.22
387.85	2289.63
388.06	5593.00
388.27	9666.41
388.48	11568.98
388.68	13283.13
388.89	13326.13
389.10	10692.44
389.31	9287.54
389.52	8388.48
389.73	7440.27
389.93	6934.42
390.14	6633.37
390.35	6215.59
390.56	5523.37
390.77	4599.74
390.98	3694.54
391.18	2959.31
391.39	2181.09
391.60	1734.63
391.81	1574.89
392.02	1470.44
392.23	1458.15
392.43	1406.95
392.64	1398.76
392.85	1347.56
393.06	1409.00
393.27	1396.71
393.47	1396.71
393.68	1339.37
393.89	1445.87
394.10	1380.33
394.31	1370.09
394.52	1372.14
394.72	1357.80
394.93	1419.24
395.14	1335.28
395.35	1370.09
395.56	1404.91
395.76	1447.91
395.97	1654.76
396.18	1597.42
396.39	1691.62
396.60	1679.33
396.80	1621.99
397.01	1519.59
397.22	1511.40
397.43	1458.15
397.64	1474.54
397.84	1464.30
398.05	1462.25
398.26	1445.87
398.47	1425.39
398.67	1468.39
398.88	1443.82
399.09	1378.28
399.30	1398.76
399.51	1421.29
399.71	1380.33
399.92	1363.95
400.13	1411.05
400.34	1390.57
400.54	1335.28
400.75	1462.25
400.96	1380.33
401.17	1400.81
401.37	1388.52
401.58	1392.62
401.79	1452.01
402.00	1744.87
402.21	1888.23
402.41	1890.28
402.62	1826.79
402.83	1701.86
403.04	1677.29
403.24	1738.73
403.45	1566.70
403.66	1552.36
403.87	1574.89
404.07	1593.32
404.28	1525.74
404.49	1611.75
404.70	1503.21
404.90	1392.62
405.11	1343.47
405.32	1445.87
405.52	1415.15
405.73	1353.71
405.94	1335.28
406.15	1409.00
406.35	1382.38
406.56	1347.56
406.77	1368.04
406.98	1357.80
407.18	1296.36
407.39	1413.10
407.60	1366.00
407.80	1384.43
408.01	1372.14
408.22	1425.39
408.43	1368.04
408.63	1378.28
408.84	1368.04
409.05	1404.91
409.25	1341.42
409.46	1314.80
409.67	1368.04
409.88	1314.80
410.08	1370.09
410.29	1298.41
410.50	1382.38
410.70	1378.28
410.91	1351.66
411.12	1357.80
411.32	1355.76
411.53	1404.91
411.74	1460.20
411.95	1474.54
412.15	1409.00
412.36	1488.87
412.57	1349.61
412.77	1462.25
412.98	1406.95
413.19	1339.37
413.39	1347.56
413.60	1386.47
413.81	1441.77
414.01	1372.14
414.22	1400.81
414.43	1390.57
414.63	1431.53
414.84	1380.33
415.05	1382.38
415.25	1343.47
415.46	1507.30
415.67	1349.61
415.87	1413.10
416.08	1415.15
416.29	1366.00
416.49	1368.04
416.70	1363.95
416.91	1372.14
417.11	1374.19
417.32	1327.08
417.53	1447.91
417.73	1343.47
417.94	1320.94
418.15	1372.14
418.35	1413.10
418.56	1363.95
418.77	1368.04
418.97	1333.23
419.18	1368.04
419.38	1322.99
419.59	1325.04
419.80	1400.81
420.00	1322.99
420.21	1411.05
420.42	1441.77
420.62	1404.91
420.83	1372.14
421.04	1411.05
421.24	1394.67
421.45	1339.37
421.65	1374.19
421.86	1349.61
422.07	1398.76
422.27	1392.62
422.48	1388.52
422.69	1341.42
422.89	1337.32
423.10	1368.04
423.30	1359.85
423.51	1376.24
423.72	1345.52
423.92	1441.77
424.13	1333.23
424.33	1345.52
424.54	1363.95
424.75	1296.36
424.95	1388.52
425.16	1347.56
425.36	1292.27
425.57	1474.54
425.78	1386.47
425.98	1382.38
426.19	1325.04
426.39	1300.46
426.60	1421.29
426.81	1363.95
427.01	1374.19
427.22	1335.28
427.42	1310.70
427.63	1335.28
427.83	1427.43
428.04	1411.05
428.25	1406.95
428.45	1433.58
428.66	1353.71
428.86	1417.19
429.07	1419.24
429.28	1359.85
429.48	1316.84
429.69	1294.32
429.89	1427.43
430.10	1355.76
430.30	1402.86
430.51	1429.48
430.71	1339.37
430.92	1372.14
431.13	1378.28
431.33	1341.42
431.54	1402.86
431.74	1386.47
431.95	1511.40
432.15	1357.80
432.36	1363.95
432.56	1445.87
432.77	1370.09
432.98	1462.25
433.18	1331.18
433.39	1376.24
433.59	1314.80
433.80	1398.76
434.00	1476.59
434.21	1288.17
434.41	1351.66
434.62	1433.58
434.82	1318.89
435.03	1284.08
435.23	1404.91
435.44	1363.95
435.64	1355.76
435.85	1380.33
436.06	1368.04
436.26	1368.04
436.47	1320.94
436.67	1392.62
436.88	1341.42
437.08	1400.81
437.29	1325.04
437.49	1333.23
437.70	1419.24
437.90	1460.20
438.11	1542.12
438.31	1441.77
438.52	1578.98
438.72	1581.03
438.93	1673.19
439.13	1423.34
439.34	1462.25
439.54	1400.81
439.75	1447.91
439.95	1431.53
440.16	1359.85
440.36	1402.86
440.57	1417.19
440.77	1400.81
440.98	1378.28
441.18	1390.57
441.39	1339.37
441.59	1302.51
441.80	1413.10
442.00	1427.43
442.21	1400.81
442.41	1349.61
442.62	1433.58
442.82	1322.99
443.02	1363.95
443.23	1445.87
443.43	1392.62
443.64	1388.52
443.84	1378.28
444.05	1486.83
444.25	1327.08
444.46	1322.99
444.66	1384.43
444.87	1437.67
445.07	1341.42
445.28	1331.18
445.48	1443.82
445.69	1388.52
445.89	1419.24
446.09	1605.61
446.30	2238.43
446.50	3788.74
446.71	4794.29
446.91	5326.77
447.12	5584.81
447.32	4982.71
447.53	4155.33
447.73	3829.70
447.93	3450.83
448.14	3207.12
448.34	2871.25
448.55	2834.39
448.75	2787.29
448.96	2650.07
449.16	2447.32
449.36	2117.60
449.57	1927.14
449.77	1677.29
449.98	1615.85
450.18	1423.34
450.39	1490.92
450.59	1413.10
450.79	1421.29
451.00	1380.33
451.20	1427.43
451.41	1404.91
451.61	1402.86
451.81	1417.19
452.02	1359.85
452.22	1349.61
452.43	1327.08
452.63	1357.80
452.84	1392.62
453.04	1409.00
453.24	1429.48
453.45	1421.29
453.65	1351.66
453.86	1417.19
454.06	1409.00
454.26	1335.28
454.47	1318.89
454.67	1402.86
454.87	1308.65
455.08	1351.66
455.28	1431.53
455.49	1388.52
455.69	1339.37
455.89	1501.16
456.10	1351.66
456.30	1310.70
456.51	1353.71
456.71	1357.80
456.91	1394.67
457.12	1423.34
457.32	1400.81
457.52	1325.04
457.73	1413.10
457.93	1421.29
458.14	1361.90
458.34	1310.70
458.54	1361.90
458.75	1404.91
458.95	1411.05
459.15	1404.91
459.36	1406.95
459.56	1374.19
459.76	1433.58
459.97	1382.38
460.17	1386.47
460.37	1406.95
460.58	1441.77
460.78	1288.17
460.99	1400.81
461.19	1400.81
461.39	1298.41
461.60	1376.24
461.80	1413.10
462.00	1347.56
462.21	1296.36
462.41	1339.37
462.61	1384.43
462.82	1322.99
463.02	1343.47
463.22	1310.70
463.43	1458.15
463.63	1380.33
463.83	1411.05
464.04	1396.71
464.24	1351.66
464.44	1378.28
464.64	1370.09
464.85	1470.44
465.05	1347.56
465.25	1462.25
465.46	1433.58
465.66	1376.24
465.86	1327.08
466.07	1359.85
466.27	1417.19
466.47	1322.99
466.68	1294.32
466.88	1433.58
467.08	1388.52
467.29	1374.19
467.49	1347.56
467.69	1359.85
467.89	1423.34
468.10	1296.36
468.30	1343.47
468.50	1384.43
468.71	1478.63
468.91	1357.80
469.11	1460.20
469.31	1404.91
469.52	1279.98
469.72	1413.10
469.92	1521.64
470.13	1402.86
470.33	1370.09
470.53	1636.33
470.73	2080.74
470.94	2299.87
471.14	2383.84
471.34	2598.87
471.54	2205.66
471.75	1986.53
471.95	1982.43
472.15	1877.99
472.36	1828.84
472.56	1705.96
472.76	1722.34
472.96	1837.03
473.17	1667.05
473.37	1634.28
473.57	1570.79
473.77	1507.30
473.98	1398.76
474.18	1357.80
474.38	1472.49
474.58	1288.17
474.79	1372.14
474.99	1382.38
475.19	1417.19
475.39	1322.99
475.60	1359.85
475.80	1351.66
476.00	1320.94
476.20	1353.71
476.41	1345.52
476.61	1388.52
476.81	1294.32
477.01	1325.04
477.21	1447.91
477.42	1421.29
477.62	1312.75
477.82	1396.71
478.02	1339.37
478.23	1361.90
478.43	1306.60
478.63	1357.80
478.83	1353.71
479.03	1380.33
479.24	1406.95
479.44	1439.72
479.64	1325.04
479.84	1298.41
480.04	1333.23
480.25	1366.00
480.45	1433.58
480.65	1314.80
480.85	1415.15
481.06	1312.75
481.26	1411.05
481.46	1495.02
481.66	1357.80
481.86	1390.57
482.06	1439.72
482.27	1345.52
482.47	1423.34
482.67	1411.05
482.87	1361.90
483.07	1484.78
483.28	1331.18
483.48	1333.23
483.68	1392.62
483.88	1390.57
484.08	1341.42
484.29	1363.95
484.49	1333.23
484.69	1374.19
484.89	1429.48
485.09	1294.32
485.29	1355.76
485.50	1466.35
485.70	1368.04
485.90	1415.15
486.10	1341.42
486.30	1376.24
486.50	1388.52
486.71	1404.91
486.91	1464.30
487.11	1411.05
487.31	1304.56
487.51	1376.24
487.71	1333.23
487.91	1351.66
488.12	1343.47
488.32	1273.84
488.52	1370.09
488.72	1329.13
488.92	1366.00
489.12	1441.77
489.32	1363.95
489.53	1398.76
489.73	1312.75
489.93	1390.57
490.13	1286.12
490.33	1339.37
490.53	1398.76
490.73	1468.39
490.94	1378.28
491.14	1439.72
491.34	1634.28
491.54	2203.61
491.74	2543.58
491.94	3004.37
492.14	3074.00
492.34	3018.71
492.54	2514.91
492.75	2338.78
492.95	2269.15
493.15	2154.46
493.35	2041.82
493.55	1939.43
493.75	1871.84
493.95	1886.18
494.15	1718.25
494.35	1667.05
494.56	1654.76
494.76	1513.45
494.96	1478.63
495.16	1456.11
495.36	1398.76
495.56	1388.52
495.76	1396.71
495.96	1320.94
496.16	1314.80
496.36	1437.67
496.56	1304.56
496.77	1443.82
496.97	1392.62
497.17	1409.00
497.37	1361.90
497.57	1409.00
497.77	1378.28
497.97	1388.52
498.17	1335.28
498.37	1368.04
498.57	1429.48
498.77	1329.13
498.97	1359.85
499.17	1462.25
499.38	1359.85
499.58	1359.85
499.78	1372.14
499.98	1531.88
500.18	1394.67
500.38	1499.11
500.58	1671.14
500.78	3024.85
500.98	5576.62
501.18	7004.05
501.38	8286.08
501.58	8677.24
501.78	7225.23
501.98	5775.27
502.18	5146.55
502.38	4489.15
502.58	4003.78
502.78	3803.08
502.98	3616.71
503.18	3483.59
503.38	3293.13
503.59	3041.23
503.79	2789.33
503.99	2611.16
504.19	2367.45
504.39	2234.33
504.59	2123.74
504.79	1886.18
504.99	1810.40
505.19	1642.47
505.39	1640.42
505.59	1591.27
505.79	1581.03
505.99	1585.13
506.19	1560.55
506.39	1490.92
506.59	1488.87
506.79	1386.47
506.99	1527.78
507.19	1501.16
507.39	1456.11
507.59	1279.98
507.79	1312.75
507.99	1409.00
508.19	1474.54
508.39	1378.28
508.59	1322.99
508.79	1480.68
508.99	1406.95
509.19	1304.56
509.39	1423.34
509.59	1378.28
509.79	1345.52
509.99	1425.39
510.19	1394.67
510.39	1376.24
510.59	1384.43
510.79	1421.29
510.99	1314.80
511.19	1329.13
511.39	1392.62
511.59	1431.53
511.79	1466.35
511.99	1425.39
512.19	1411.05
512.38	1370.09
512.58	1388.52
512.78	1433.58
512.98	1427.43
513.18	1427.43
513.38	1351.66
513.58	1452.01
513.78	1349.61
513.98	1439.72
514.18	1353.71
514.38	1353.71
514.58	1318.89
514.78	1400.81
514.98	1339.37
515.18	1449.96
515.38	1314.80
515.58	1417.19
515.78	1347.56
515.98	1343.47
516.18	1339.37
516.38	1396.71
516.57	1396.71
516.77	1341.42
516.97	1353.71
517.17	1390.57
517.37	1314.80
517.57	1417.19
517.77	1296.36
517.97	1413.10
518.17	1355.76
518.37	1343.47
518.57	1380.33
518.77	1345.52
518.97	1388.52
519.16	1406.95
519.36	1406.95
519.56	1380.33
519.76	1361.90
519.96	1349.61
520.16	1419.24
520.36	1351.66
520.56	1402.86
520.76	1345.52
520.96	1325.04
521.16	1378.28
521.35	1441.77
521.55	1497.07
521.75	1425.39
521.95	1388.52
522.15	1406.95
522.35	1368.04
522.55	1341.42
522.75	1318.89
522.95	1404.91
523.14	1329.13
523.34	1298.41
523.54	1347.56
523.74	1355.76
523.94	1337.32
524.14	1296.36
524.34	1404.91
524.54	1421.29
524.73	1345.52
524.93	1380.33
525.13	1396.71
525.33	1363.95
525.53	1501.16
525.73	1413.10
525.93	1355.76
526.13	1329.13
526.32	1351.66
526.52	1406.95
526.72	1372.14
526.92	1449.96
527.12	1376.24
527.32	1318.89
527.52	1445.87
527.71	1392.62
527.91	1282.03
528.11	1386.47
528.31	1413.10
528.51	1355.76
528.71	1402.86
528.90	1484.78
529.10	1413.10
529.30	1464.30
529.50	1322.99
529.70	1363.95
529.90	1366.00
530.09	1425.39
530.29	1355.76
530.49	1359.85
530.69	1476.59
530.89	1341.42
531.09	1355.76
531.28	1355.76
531.48	1359.85
531.68	1427.43
531.88	1318.89
532.08	1421.29
532.28	1357.80
532.47	1370.09
532.67	1470.44
532.87	1402.86
533.07	1406.95
533.27	1345.52
533.46	1439.72
533.66	1404.91
533.86	1335.28
534.06	1347.56
534.26	1353.71
534.45	1306.60
534.65	1441.77
534.85	1386.47
535.05	1392.62
535.25	1404.91
535.44	1392.62
535.64	1366.00
535.84	1400.81
536.04	1374.19
536.24	1341.42
536.43	1394.67
536.63	1341.42
536.83	1372.14
537.03	1384.43
537.22	1308.65
537.42	1296.36
537.62	1349.61
537.82	1419.24
538.02	1359.85
538.21	1417.19
538.41	1507.30
538.61	1425.39
538.81	1325.04
539.00	1443.82
539.20	1292.27
539.40	1349.61
539.60	1443.82
539.79	1462.25
539.99	1376.24
540.19	1411.05
540.39	1351.66
540.58	1363.95
540.78	1421.29
540.98	1351.66
541.18	1314.80
541.37	1406.95
541.57	1378.28
541.77	1361.90
541.97	1341.42
542.16	1249.26
542.36	1398.76
542.56	1431.53
542.76	1466.35
542.95	1441.77
543.15	1372.14
543.35	1312.75
543.54	1363.95
543.74	1376.24
543.94	1460.20
544.14	1349.61
544.33	1431.53
544.53	1398.76
544.73	1368.04
544.93	1368.04
545.12	1406.95
545.32	1318.89
545.52	1294.32
545.71	1236.97
545.91	1378.28
546.11	1320.94
546.30	1390.57
546.50	1384.43
546.70	1419.24
546.90	1445.87
547.09	1376.24
547.29	1382.38
547.49	1388.52
547.68	1384.43
547.88	1386.47
548.08	1468.39
548.27	1671.14
548.47	1361.90
548.67	1357.80
548.87	1419.24
549.06	1368.04
549.26	1363.95
549.46	1370.09
549.65	1333.23
549.85	1394.67
550.05	1421.29
550.24	1314.80
550.44	1392.62
550.64	1368.04
550.83	1431.53
551.03	1443.82
551.23	1484.78
551.42	1419.24
551.62	1378.28
551.82	1310.70
552.01	1337.32
552.21	1431.53
552.41	1363.95
552.60	1327.08
552.80	1300.46
553.00	1339.37
553.19	1376.24
553.39	1357.80
553.59	1378.28
553.78	1409.00
553.98	1415.15
554.17	1355.76
554.37	1386.47
554.57	1472.49
554.76	1372.14
554.96	1320.94
555.16	1445.87
555.35	1345.52
555.55	1466.35
555.75	1349.61
555.94	1404.91
556.14	1308.65
556.33	1447.91
556.53	1345.52
556.73	1415.15
556.92	1402.86
557.12	1415.15
557.32	1452.01
557.51	1374.19
557.71	1433.58
557.90	1503.21
558.10	1404.91
558.30	1378.28
558.49	1302.51
558.69	1417.19
558.88	1390.57
559.08	1421.29
559.28	1384.43
559.47	1347.56
559.67	1400.81
559.86	1452.01
560.06	1390.57
560.26	1288.17
560.45	1363.95
560.65	1372.14
560.84	1382.38
561.04	1359.85
561.24	1355.76
561.43	1402.86
561.63	1357.80
561.82	1337.32
562.02	1359.85
562.22	1372.14
562.41	1314.80
562.61	1337.32
562.80	1363.95
563.00	1554.41
563.19	1370.09
563.39	1435.63
563.59	1425.39
563.78	1363.95
563.98	1310.70
564.17	1372.14
564.37	1368.04
564.56	1337.32
564.76	1345.52
564.96	1431.53
565.15	1394.67
565.35	1447.91
565.54	1312.75
565.74	1456.11
565.93	1470.44
566.13	1359.85
566.32	1413.10
566.52	1374.19
566.71	1462.25
566.91	1302.51
567.11	1300.46
567.30	1378.28
567.50	1415.15
567.69	1433.58
567.89	1388.52
568.08	1339.37
568.28	1466.35
568.47	1431.53
568.67	1392.62
568.86	1376.24
569.06	1390.57
569.25	1402.86
569.45	1411.05
569.64	1355.76
569.84	1345.52
570.04	1419.24
570.23	1310.70
570.43	1396.71
570.62	1392.62
570.82	1349.61
571.01	1314.80
571.21	1380.33
571.40	1368.04
571.60	1390.57
571.79	1404.91
571.99	1394.67
572.18	1353.71
572.38	1394.67
572.57	1431.53
572.77	1423.34
572.96	1482.73
573.16	1366.00
573.35	1390.57
573.55	1439.72
573.74	1425.39
573.94	1417.19
574.13	1318.89
574.33	1460.20
574.52	1486.83
574.71	1286.12
574.91	1398.76
575.10	1343.47
575.30	1359.85
575.49	1259.50
575.69	1376.24
575.88	1394.67
576.08	1409.00
576.27	1521.64
576.47	1413.10
576.66	1482.73
576.86	1404.91
577.05	1425.39
577.25	1447.91
577.44	1413.10
577.64	1335.28
577.83	1458.15
578.02	1482.73
578.22	1445.87
578.41	1497.07
578.61	1349.61
578.80	1300.46
579.00	1374.19
579.19	1392.62
579.39	1417.19
579.58	1441.77
579.77	1445.87
579.97	1486.83
580.16	1511.40
580.36	1435.63
580.55	1421.29
580.75	1509.35
580.94	1394.67
581.13	1464.30
581.33	1476.59
581.52	1466.35
581.72	1531.88
581.91	1505.26
582.11	1441.77
582.30	1454.06
582.49	1439.72
582.69	1454.06
582.88	1488.87
583.08	1433.58
583.27	1472.49
583.47	1456.11
583.66	1423.34
583.85	1366.00
584.05	1484.78
584.24	1415.15
584.44	1417.19
584.63	1511.40
584.82	1593.32
585.02	1546.22
585.21	1630.18
585.41	1607.66
585.60	1601.51
585.79	1603.56
585.99	1634.28
586.18	1656.81
586.37	1816.55
586.57	2717.65
586.76	8050.57
586.96	24366.73
587.15	41897.34
587.34	52053.22
587.54	60060.78
587.73	60005.48
587.93	45352.27
588.12	33209.86
588.31	27090.53
588.51	23088.80
588.70	20115.15
588.89	18382.57
589.09	17215.23
589.28	16314.12
589.47	14468.90
589.67	12638.02
589.86	10735.45
590.06	8611.71
590.25	6565.79
590.44	4990.90
590.64	3809.22
590.83	2846.68
591.02	2314.20
591.22	1871.84
591.41	1787.88
591.60	1632.23
591.80	1736.68
591.99	1482.73
592.18	1492.97
592.38	1488.87
592.57	1404.91
592.76	1460.20
592.96	1458.15
593.15	1400.81
593.34	1445.87
593.54	1548.26
593.73	1437.67
593.92	1554.41
594.12	1486.83
594.31	1484.78
594.50	1511.40
594.70	1503.21
594.89	1476.59
595.08	1421.29
595.28	1503.21
595.47	1531.88
595.66	1460.20
595.86	1359.85
596.05	1394.67
596.24	1474.54
596.43	1454.06
596.63	1327.08
596.82	1368.04
597.01	1452.01
597.21	1501.16
597.40	1454.06
597.59	1445.87
597.79	1349.61
597.98	1441.77
598.17	1484.78
598.36	1392.62
598.56	1406.95
598.75	1402.86
598.94	1476.59
599.14	1445.87
599.33	1335.28
599.52	1376.24
599.71	1425.39
599.91	1439.72
600.10	1359.85
600.29	1396.71
600.48	1339.37
600.68	1421.29
600.87	1431.53
601.06	1361.90
601.26	1464.30
601.45	1409.00
601.64	1406.95
601.83	1357.80
602.03	1292.27
602.22	1370.09
602.41	1347.56
602.60	1443.82
602.80	1456.11
602.99	1413.10
603.18	1413.10
603.37	1515.50
603.57	1318.89
603.76	1466.35
603.95	1390.57
604.14	1302.51
604.34	1380.33
604.53	1376.24
604.72	1413.10
604.91	1452.01
605.10	1441.77
605.30	1353.71
605.49	1480.68
605.68	1335.28
605.87	1380.33
606.07	1370.09
606.26	1423.34
606.45	1361.90
606.64	1355.76
606.84	1359.85
607.03	1388.52
607.22	1361.90
607.41	1341.42
607.60	1474.54
607.80	1482.73
607.99	1320.94
608.18	1417.19
608.37	1398.76
608.56	1411.05
608.76	1435.63
608.95	1480.68
609.14	1490.92
609.33	1429.48
609.52	1558.50
609.72	1507.30
609.91	1433.58
610.10	1464.30
610.29	1554.41
610.48	1427.43
610.68	1413.10
610.87	1535.98
611.06	1462.25
611.25	1322.99
611.44	1439.72
611.63	1400.81
611.83	1435.63
612.02	1357.80
612.21	1462.25
612.40	1376.24
612.59	1406.95
612.79	1363.95
612.98	1413.10
613.17	1439.72
613.36	1337.32
613.55	1458.15
613.74	1431.53
613.93	1535.98
614.13	1589.22
614.32	1617.90
614.51	1634.28
614.70	1650.66
614.89	1429.48
615.08	1464.30
615.28	1705.96
615.47	1378.28
615.66	1447.91
615.85	1523.69
616.04	1501.16
616.23	1439.72
616.42	1460.20
616.62	1366.00
616.81	1447.91
617.00	1390.57
617.19	1486.83
617.38	1366.00
617.57	1347.56
617.76	1384.43
617.95	1406.95
618.15	1355.76
618.34	1409.00
618.53	1400.81
618.72	1445.87
618.91	1443.82
619.10	1435.63
619.29	1386.47
619.48	1409.00
619.68	1345.52
619.87	1404.91
620.06	1402.86
620.25	1402.86
620.44	1325.04
620.63	1351.66
620.82	1415.15
621.01	1363.95
621.20	1429.48
621.39	1372.14
621.59	1480.68
621.78	1331.18
621.97	1456.11
622.16	1427.43
622.35	1394.67
622.54	1394.67
622.73	1511.40
622.92	1411.05
623.11	1415.15
623.30	1372.14
623.49	1404.91
623.68	1343.47
623.88	1398.76
624.07	1378.28
624.26	1343.47
624.45	1409.00
624.64	1378.28
624.83	1353.71
625.02	1361.90
625.21	1370.09
625.40	1312.75
625.59	1466.35
625.78	1413.10
625.97	1441.77
626.16	1507.30
626.35	1488.87
626.54	1466.35
626.74	1476.59
626.93	1484.78
627.12	1406.95
627.31	1421.29
627.50	1505.26
627.69	1376.24
627.88	1333.23
628.07	1386.47
628.26	1382.38
628.45	1404.91
628.64	1339.37
628.83	1429.48
629.02	1361.90
629.21	1400.81
629.40	1413.10
629.59	1368.04
629.78	1400.81
629.97	1363.95
630.16	1411.05
630.35	1470.44
630.54	1396.71
630.73	1349.61
630.92	1372.14
631.11	1386.47
631.30	1322.99
631.49	1370.09
631.68	1429.48
631.87	1392.62
632.06	1288.17
632.25	1523.69
632.44	1294.32
632.63	1404.91
632.82	1419.24
633.01	1470.44
633.20	1425.39
633.39	1447.91
633.58	1429.48
633.77	1480.68
633.96	1472.49
634.15	1476.59
634.34	1419.24
634.53	1406.95
634.72	1454.06
634.91	1384.43
635.10	1380.33
635.29	1363.95
635.48	1392.62
635.67	1374.19
635.86	1417.19
636.05	1382.38
636.24	1374.19
636.43	1366.00
636.62	1349.61
636.81	1236.97
637.00	1406.95
637.19	1437.67
637.38	1314.80
637.57	1320.94
637.76	1374.19
637.95	1421.29
638.14	1433.58
638.33	1466.35
638.52	1503.21
638.71	1464.30
638.89	1384.43
639.08	1521.64
639.27	1425.39
639.46	1470.44
639.65	1681.38
639.84	1841.12
640.03	2023.39
640.22	2072.54
640.41	2133.98
640.60	1857.51
640.79	1712.10
640.98	1638.38
641.17	1654.76
641.36	1564.65
641.55	1605.61
641.74	1501.16
641.92	1443.82
642.11	1456.11
642.30	1531.88
642.49	1456.11
642.68	1435.63
642.87	1454.06
643.06	1441.77
643.25	1325.04
643.44	1372.14
643.63	1304.56
643.82	1429.48
644.00	1288.17
644.19	1337.32
644.38	1273.84
644.57	1380.33
644.76	1402.86
644.95	1482.73
645.14	1431.53
645.33	1390.57
645.52	1359.85
645.71	1331.18
645.89	1329.13
646.08	1361.90
646.27	1296.36
646.46	1378.28
646.65	1345.52
646.84	1415.15
647.03	1339.37
647.22	1482.73
647.40	1421.29
647.59	1345.52
647.78	1284.08
647.97	1388.52
648.16	1347.56
648.35	1370.09
648.54	1429.48
648.73	1423.34
648.91	1394.67
649.10	1409.00
649.29	1384.43
649.48	1343.47
649.67	1370.09
649.86	1374.19
650.05	1398.76
650.23	1505.26
650.42	1507.30
650.61	1585.13
650.80	1605.61
650.99	1621.99
651.18	1470.44
651.36	1474.54
651.55	1339.37
651.74	1429.48
651.93	1325.04
652.12	1429.48
652.31	1423.34
652.49	1421.29
652.68	1320.94
652.87	1509.35
653.06	1409.00
653.25	1484.78
653.44	1460.20
653.62	1517.54
653.81	1384.43
654.00	1400.81
654.19	1443.82
654.38	1435.63
654.56	1374.19
654.75	1398.76
654.94	1480.68
655.13	1279.98
655.32	1454.06
655.51	1419.24
655.69	1322.99
655.88	1370.09
656.07	1271.79
656.26	1404.91
656.45	1312.75
656.63	1337.32
656.82	1411.05
657.01	1482.73
657.20	1351.66
657.38	1443.82
657.57	1447.91
657.76	1345.52
657.95	1384.43
658.14	1372.14
658.32	1380.33
658.51	1257.45
658.70	1415.15
658.89	1411.05
659.08	1363.95
659.26	1449.96
659.45	1345.52
659.64	1427.43
659.83	1390.57
660.01	1523.69
660.20	1503.21
660.39	1404.91
660.58	1411.05
660.76	1366.00
660.95	1333.23
661.14	1413.10
661.33	1372.14
661.51	1392.62
661.70	1392.62
661.89	1290.22
662.08	1419.24
662.26	1331.18
662.45	1339.37
662.64	1427.43
662.83	1456.11
663.01	1310.70
663.20	1413.10
663.39	1404.91
663.58	1306.60
663.76	1314.80
663.95	1421.29
664.14	1415.15
664.32	1363.95
664.51	1361.90
664.70	1388.52
664.89	1339.37
665.07	1351.66
665.26	1460.20
665.45	1331.18
665.64	1427.43
665.82	1363.95
666.01	1425.39
666.20	1460.20
666.38	1456.11
666.57	1439.72
666.76	1521.64
666.95	2017.25
667.13	4474.81
667.32	11573.07
667.51	18226.92
667.69	21915.31
667.88	24995.46
668.07	24702.60
668.25	19222.23
668.44	13805.36
668.63	11198.29
668.81	9187.19
669.00	8404.86
669.19	7540.62
669.38	6821.78
669.56	6365.09
669.75	5531.56
669.94	4978.61
670.12	4284.35
670.31	3442.64
670.50	2901.97
670.68	2492.38
670.87	2050.02
671.06	1794.02
671.24	1708.01
671.43	1613.80
671.62	1595.37
671.80	1540.07
671.99	1505.26
672.18	1445.87
672.36	1406.95
672.55	1437.67
672.74	1437.67
672.92	1372.14
673.11	1478.63
673.29	1386.47
673.48	1435.63
673.67	1370.09
673.85	1447.91
674.04	1331.18
674.23	1310.70
674.41	1488.87
674.60	1368.04
674.79	1353.71
674.97	1308.65
675.16	1384.43
675.34	1370.09
675.53	1388.52
675.72	1429.48
675.90	1376.24
676.09	1380.33
676.28	1316.84
676.46	1341.42
676.65	1445.87
676.83	1361.90
677.02	1349.61
677.21	1322.99
677.39	1390.57
677.58	1316.84
677.77	1314.80
677.95	1331.18
678.14	1380.33
678.32	1343.47
678.51	1331.18
678.70	1439.72
678.88	1361.90
679.07	1333.23
679.25	1374.19
679.44	1382.38
679.63	1341.42
679.81	1370.09
680.00	1372.14
680.18	1398.76
680.37	1402.86
680.55	1298.41
680.74	1304.56
680.93	1294.32
681.11	1333.23
681.30	1361.90
681.48	1417.19
681.67	1261.55
681.85	1318.89
682.04	1325.04
682.23	1374.19
682.41	1435.63
682.60	1384.43
682.78	1327.08
682.97	1322.99
683.15	1345.52
683.34	1388.52
683.53	1429.48
683.71	1363.95
683.90	1513.45
684.08	1427.43
684.27	1351.66
684.45	1316.84
684.64	1409.00
684.82	1327.08
685.01	1433.58
685.19	1384.43
685.38	1439.72
685.57	1363.95
685.75	1306.60
685.94	1314.80
686.12	1322.99
686.31	1327.08
686.49	1458.15
686.68	1322.99
686.86	1318.89
687.05	1374.19
687.23	1456.11
687.42	1304.56
687.60	1306.60
687.79	1380.33
687.97	1462.25
688.16	1431.53
688.34	1386.47
688.53	1366.00
688.71	1353.71
688.90	1447.91
689.08	1411.05
689.27	1396.71
689.45	1400.81
689.64	1339.37
689.82	1396.71
690.01	1394.67
690.19	1433.58
690.38	1333.23
690.56	1400.81
690.75	1318.89
690.93	1404.91
691.12	1312.75
691.30	1423.34
691.49	1398.76
691.67	1406.95
691.86	1419.24
692.04	1333.23
692.23	1325.04
692.41	1392.62
692.60	1492.97
692.78	1488.87
692.97	1353.71
693.15	1452.01
693.34	1560.55
693.52	1404.91
693.71	1400.81
693.89	1372.14
694.08	1396.71
694.26	1404.91
694.44	1345.52
694.63	1388.52
694.81	1343.47
695.00	1318.89
695.18	1398.76
695.37	1529.83
695.55	1335.28
695.74	1355.76
695.92	1322.99
696.10	1427.43
696.29	1353.71
696.47	1325.04
696.66	1343.47
696.84	1314.80
697.03	1394.67
697.21	1525.74
697.40	1753.06
697.58	1394.67
697.76	1415.15
697.95	1302.51
698.13	1308.65
698.32	1388.52
698.50	1347.56
698.68	1458.15
698.87	1335.28
699.05	1396.71
699.24	1388.52
699.42	1341.42
699.61	1345.52
699.79	1404.91
699.97	1376.24
700.16	1306.60
700.34	1314.80
700.53	1386.47
700.71	1376.24
700.89	1382.38
701.08	1382.38
701.26	1388.52
701.45	1613.80
701.63	1368.04
701.81	1384.43
702.00	1419.24
702.18	1411.05
702.37	1421.29
702.55	1409.00
702.73	1435.63
702.92	1542.12
703.10	1560.55
703.28	1681.38
703.47	1601.51
703.65	1656.81
703.84	1671.14
704.02	1462.25
704.20	1538.02
704.39	1449.96
704.57	1402.86
704.75	1501.16
704.94	1423.34
705.12	1486.83
705.30	1521.64
705.49	1554.41
705.67	1783.78
705.86	3563.47
706.04	9150.32
706.22	16328.45
706.41	19594.96
706.59	22767.27
706.77	23989.91
706.96	20242.12
707.14	14012.20
707.32	11622.22
707.51	9295.73
707.69	8286.08
707.87	7360.40
708.06	6784.92
708.24	6240.16
708.42	5035.96
708.61	4014.02
708.79	3071.95
708.97	2418.65
709.16	1994.72
709.34	1732.58
709.52	1640.42
709.71	1538.02
709.89	1550.31
710.07	1452.01
710.26	1366.00
710.44	1423.34
710.62	1392.62
710.80	1335.28
710.99	1337.32
711.17	1452.01
711.35	1304.56
711.54	1384.43
711.72	1390.57
711.90	1390.57
712.09	1388.52
712.27	1337.32
712.45	1429.48
712.63	1423.34
712.82	1441.77
713.00	1339.37
713.18	1392.62
713.37	1392.62
713.55	1406.95
713.73	1398.76
713.91	1384.43
714.10	1337.32
714.28	1400.81
714.46	1406.95
714.65	1374.19
714.83	1355.76
715.01	1345.52
715.19	1417.19
715.38	1372.14
715.56	1355.76
715.74	1302.51
715.92	1279.98
716.11	1363.95
716.29	1331.18
716.47	1370.09
716.65	1366.00
716.84	1349.61
717.02	1392.62
717.20	1368.04
717.38	1341.42
717.57	1343.47
717.75	1376.24
717.93	1370.09
718.11	1415.15
718.30	1314.80
718.48	1396.71
718.66	1390.57
718.84	1427.43
719.03	1357.80
719.21	1308.65
719.39	1411.05
719.57	1337.32
719.75	1402.86
719.94	1329.13
720.12	1380.33
720.30	1427.43
720.48	1445.87
720.67	1329.13
720.85	1302.51
721.03	1400.81
721.21	1370.09
721.39	1394.67
721.58	1361.90
721.76	1437.67
721.94	1351.66
722.12	1302.51
722.30	1359.85
722.49	1390.57
722.67	1396.71
722.85	1447.91
723.03	1296.36
723.21	1411.05
723.40	1439.72
723.58	1419.24
723.76	1413.10
723.94	1452.01
724.12	1454.06
724.30	1468.39
724.49	1527.78
724.67	1490.92
724.85	1523.69
725.03	1331.18
725.21	1495.02
725.40	1409.00
725.58	1351.66
725.76	1488.87
725.94	1517.54
726.12	1378.28
726.30	1347.56
726.49	1378.28
726.67	1380.33
726.85	1304.56
727.03	1396.71
727.21	1454.06
727.39	1523.69
727.57	2146.27
727.76	3334.09
727.94	4372.41
728.12	4904.89
728.30	5244.85
728.48	5226.42
728.66	4396.99
728.84	3487.69
729.03	3135.44
729.21	2916.31
729.39	2559.96
729.57	2267.10
729.75	2019.30
729.93	1742.82
730.11	1609.70
730.30	1527.78
730.48	1490.92
730.66	1499.11
730.84	1384.43
731.02	1337.32
731.20	1384.43
731.38	1368.04
731.56	1318.89
731.74	1275.88
731.93	1429.48
732.11	1337.32
732.29	1349.61
732.47	1386.47
732.65	1394.67
732.83	1435.63
733.01	1343.47
733.19	1335.28
733.37	1452.01
733.56	1419.24
733.74	1390.57
733.92	1380.33
734.10	1382.38
734.28	1427.43
734.46	1306.60
734.64	1384.43
734.82	1335.28
735.00	1300.46
735.18	1320.94
735.36	1421.29
735.54	1361.90
735.73	1417.19
735.91	1396.71
736.09	1337.32
736.27	1355.76
736.45	1318.89
736.63	1322.99
736.81	1382.38
736.99	1374.19
737.17	1351.66
737.35	1325.04
737.53	1366.00
737.71	1415.15
737.89	1415.15
738.07	1302.51
738.25	1322.99
738.43	1341.42
738.61	1306.60
738.80	1361.90
738.98	1292.27
739.16	1331.18
739.34	1306.60
739.52	1361.90
739.70	1372.14
739.88	1361.90
740.06	1454.06
740.24	1331.18
740.42	1411.05
740.60	1296.36
740.78	1380.33
740.96	1322.99
741.14	1406.95
741.32	1345.52
741.50	1382.38
741.68	1468.39
741.86	1433.58
742.04	1335.28
742.22	1279.98
742.40	1372.14
742.58	1320.94
742.76	1282.03
742.94	1376.24
743.12	1282.03
743.30	1443.82
743.48	1337.32
743.66	1447.91
743.84	1452.01
744.02	1275.88
744.20	1312.75
744.38	1298.41
744.56	1325.04
744.74	1470.44
744.92	1355.76
745.10	1419.24
745.28	1417.19
745.46	1400.81
745.64	1372.14
745.82	1361.90
746.00	1409.00
746.18	1386.47
746.36	1347.56
746.54	1382.38
746.72	1353.71
746.90	1333.23
747.08	1411.05
747.26	1275.88
747.44	1400.81
747.62	1366.00
747.80	1404.91
747.98	1406.95
748.15	1310.70
748.33	1480.68
748.51	1392.62
748.69	1380.33
748.87	1325.04
749.05	1296.36
749.23	1439.72
749.41	1337.32
749.59	1318.89
749.77	1425.39
749.95	1394.67
750.13	1314.80
750.31	1415.15
750.49	1302.51
750.67	1386.47
750.85	1394.67
751.03	1425.39
751.20	1382.38
751.38	1402.86
751.56	1341.42
751.74	1368.04
751.92	1368.04
752.10	1314.80
752.28	1409.00
752.46	1392.62
752.64	1374.19
752.82	1372.14
753.00	1306.60
753.18	1337.32
753.35	1427.43
753.53	1411.05
753.71	1388.52
753.89	1343.47
754.07	1443.82
754.25	1429.48
754.43	1343.47
754.61	1316.84
754.79	1462.25
754.97	1402.86
755.14	1304.56
755.32	1257.45
755.50	1347.56
755.68	1380.33
755.86	1316.84
756.04	1409.00
756.22	1296.36
756.40	1347.56
756.57	1378.28
756.75	1333.23
756.93	1374.19
757.11	1413.10
757.29	1335.28
757.47	1284.08
757.65	1265.64
757.82	1273.84
758.00	1341.42
758.18	1372.14
758.36	1345.52
758.54	1388.52
758.72	1347.56
758.90	1441.77
759.07	1425.39
759.25	1372.14
759.43	1402.86
759.61	1290.22
759.79	1648.61
759.97	1353.71
760.15	1345.52
760.32	1294.32
760.50	1374.19
760.68	1402.86
760.86	1355.76
761.04	1337.32
761.22	1445.87
761.39	1394.67
761.57	1417.19
761.75	1402.86
761.93	1374.19
762.11	1378.28
762.28	1392.62
762.46	1388.52
762.64	1427.43
762.82	1359.85
763.00	1349.61
763.18	1460.20
763.35	1322.99
763.53	1413.10
763.71	1339.37
763.89	1421.29
764.07	1400.81
764.24	1353.71
764.42	1384.43
764.60	1380.33
764.78	1384.43
764.96	1347.56
765.13	1437.67
765.31	1302.51
765.49	1366.00
765.67	1413.10
765.84	1376.24
766.02	1320.94
766.20	1310.70
766.38	1359.85
766.56	1384.43
766.73	1380.33
766.91	1322.99
767.09	1359.85
767.27	1351.66
767.44	1316.84
767.62	1351.66
767.80	1386.47
767.98	1310.70
768.15	1394.67
768.33	1402.86
768.51	1347.56
768.69	1359.85
768.87	1320.94
769.04	1341.42
769.22	1509.35
769.40	1454.06
769.58	1431.53
769.75	1380.33
769.93	1376.24
770.11	1402.86
770.28	1378.28
770.46	1294.32
770.64	1398.76
770.82	1372.14
770.99	1351.66
771.17	1345.52
771.35	1353.71
771.53	1320.94
771.70	1400.81
771.88	1353.71
772.06	1312.75
772.23	1314.80
772.41	1296.36
772.59	1404.91
772.77	1308.65
772.94	1298.41
773.12	1343.47
773.30	1413.10
773.47	1386.47
773.65	1396.71
773.83	1429.48
774.01	1355.76
774.18	1304.56
774.36	1333.23
774.54	1331.18
774.71	1392.62
774.89	1425.39
775.07	1347.56
775.24	1325.04
775.42	1302.51
775.60	1427.43
775.78	1267.69
775.95	1224.69
776.13	1314.80
776.31	1302.51
776.48	1431.53
776.66	1376.24
776.84	1411.05
777.01	1296.36
777.19	1392.62
777.37	1310.70
777.54	1368.04
777.72	1433.58
777.90	1411.05
778.07	1265.64
778.25	1404.91
778.43	1427.43
778.60	1318.89
778.78	1380.33
778.96	1427.43
779.13	1318.89
779.31	1390.57
779.49	1363.95
779.66	1327.08
779.84	1347.56
780.01	1343.47
780.19	1302.51
780.37	1318.89
780.54	1417.19
780.72	1312.75
780.90	1386.47
781.07	1316.84
781.25	1341.42
781.43	1339.37
781.60	1265.64
781.78	1376.24
781.95	1413.10
782.13	1320.94
782.31	1413.10
782.48	1290.22
782.66	1374.19
782.83	1433.58
783.01	1339.37
783.19	1339.37
783.36	1376.24
783.54	1282.03
783.72	1378.28
783.89	1298.41
784.07	1349.61
784.24	1366.00
784.42	1421.29
784.60	1275.88
784.77	1337.32
784.95	1253.36
785.12	1396.71
785.30	1298.41
785.47	1333.23
785.65	1351.66
785.83	1359.85
786.00	1357.80
786.18	1353.71
786.35	1259.50
786.53	1425.39
786.71	1441.77
786.88	1415.15
787.06	1331.18
787.23	1349.61
787.41	1386.47
787.58	1413.10
787.76	1411.05
787.94	1443.82
788.11	1380.33
788.29	1423.34
788.46	1382.38
788.64	1341.42
788.81	1386.47
788.99	1325.04
789.16	1347.56
789.34	1415.15
789.52	1386.47
789.69	1390.57
789.87	1300.46
790.04	1370.09
790.22	1417.19
790.39	1421.29
790.57	1374.19
790.74	1345.52
790.92	1396.71
791.09	1296.36
791.27	1275.88
791.44	1343.47
791.62	1322.99
791.79	1361.90
791.97	1415.15
792.15	1417.19
792.32	1425.39
792.50	1357.80
792.67	1441.77
792.85	1339.37
793.02	1404.91
793.20	1341.42
793.37	1366.00
793.55	1298.41
793.72	1249.26
793.90	1370.09
794.07	1329.13
794.25	1343.47
794.42	1409.00
794.60	1366.00
794.77	1441.77
794.95	1396.71
795.12	1411.05
795.30	1335.28
795.47	1277.93
795.65	1486.83
795.82	1327.08
796.00	1347.56
796.17	1339.37
796.34	1335.28
796.52	1341.42
796.69	1386.47
796.87	1349.61
797.04	1333.23
797.22	1378.28
797.39	1378.28
797.57	1452.01
797.74	1370.09
797.92	1363.95
798.09	1349.61
798.27	1314.80
798.44	1306.60
798.62	1267.69
798.79	1384.43
798.96	1411.05
799.14	1253.36
799.31	1478.63
799.49	1361.90
799.66	1384.43
799.84	1427.43
800.01	1292.27
800.19	1384.43
800.36	1288.17
800.53	1361.90
800.71	1386.47
800.88	1421.29
801.06	1359.85
801.23	1429.48
801.41	1308.65
801.58	1314.80
801.75	1298.41
801.93	1427.43
802.10	1345.52
802.28	1372.14
802.45	1386.47
802.63	1402.86
802.80	1443.82
802.97	1443.82
803.15	1394.67
803.32	1335.28
803.50	1351.66
803.67	1417.19
803.84	1382.38
804.02	1421.29
804.19	1337.32
804.37	1261.55
804.54	1306.60
804.71	1396.71
804.89	1402.86
805.06	1372.14
805.24	1337.32
805.41	1310.70
805.58	1316.84
805.76	1472.49
805.93	1345.52
806.10	1435.63
806.28	1359.85
806.45	1396.71
806.63	1452.01
806.80	1419.24
806.97	1413.10
807.15	1406.95
807.32	1296.36
807.49	1288.17
807.67	1302.51
807.84	1396.71
808.01	1296.36
808.19	1411.05
808.36	1482.73
808.54	1337.32
808.71	1392.62
808.88	1359.85
809.06	1388.52
809.23	1495.02
809.40	1277.93
809.58	1353.71
809.75	1359.85
809.92	1370.09
810.10	1372.14
810.27	1265.64
810.44	1374.19
810.62	1400.81
810.79	1368.04
810.96	1372.14
811.14	1429.48
811.31	1390.57
811.48	1396.71
811.66	1380.33
811.83	1302.51
812.00	1347.56
812.18	1382.38
812.35	1452.01
812.52	1402.86
812.69	1396.71
812.87	1361.90
813.04	1419.24
813.21	1327.08
813.39	1394.67
813.56	1300.46
813.73	1384.43
813.91	1239.02
814.08	1402.86
814.25	1337.32
814.42	1327.08
814.60	1355.76
814.77	1392.62
814.94	1390.57
815.12	1388.52
815.29	1413.10
815.46	1294.32
815.63	1322.99
815.81	1406.95
815.98	1382.38
816.15	1314.80
816.33	1366.00
816.50	1341.42
816.67	1355.76
816.84	1337.32
817.02	1331.18
817.19	1339.37
817.36	1298.41
817.53	1398.76
817.71	1359.85
817.88	1462.25
818.05	1409.00
818.22	1296.36
818.40	1454.06
818.57	1337.32
818.74	1355.76
818.91	1347.56
819.09	1353.71
819.26	1454.06
819.43	1380.33
819.60	1335.28
819.78	1386.47
819.95	1361.90
820.12	1372.14
820.29	1357.80
820.47	1388.52
820.64	1273.84
820.81	1351.66
820.98	1380.33
821.15	1368.04
821.33	1460.20
821.50	1318.89
821.67	1353.71
821.84	1286.12
822.02	1320.94
822.19	1486.83
822.36	1382.38
822.53	1341.42
822.70	1269.74
822.88	1372.14
823.05	1396.71
823.22	1404.91
823.39	1347.56
823.56	1425.39
823.74	1415.15
823.91	1345.52
824.08	1370.09
824.25	1318.89
824.42	1390.57
824.60	1411.05
824.77	1355.76
824.94	1318.89
825.11	1368.04
825.28	1300.46
825.45	1423.34
825.63	1423.34
825.80	1396.71
825.97	1433.58
826.14	1398.76
826.31	1298.41
826.48	1318.89
826.66	1308.65
826.83	1327.08
827.00	1368.04
827.17	1423.34
827.34	1314.80
827.51	1316.84
827.69	1357.80
827.86	1251.31
828.03	1404.91
828.20	1349.61
828.37	1257.45
828.54	1376.24
828.71	1345.52
828.89	1411.05
829.06	1331.18
829.23	1384.43
829.40	1337.32
829.57	1312.75
829.74	1372.14
829.91	1411.05
830.09	1304.56
830.26	1429.48
830.43	1386.47
830.60	1349.61
830.77	1462.25
830.94	1361.90
831.11	1417.19
831.28	1363.95
831.46	1406.95
831.63	1306.60
831.80	1359.85
831.97	1329.13
832.14	1294.32
832.31	1417.19
832.48	1468.39
832.65	1429.48
832.82	1343.47
832.99	1349.61
833.17	1249.26
833.34	1390.57
833.51	1372.14
833.68	1349.61
833.85	1347.56
834.02	1310.70
834.19	1333.23
834.36	1290.22
834.53	1333.23
834.70	1404.91
834.87	1435.63
835.04	1339.37
835.22	1366.00
835.39	1355.76
835.56	1277.93
835.73	1308.65
835.90	1372.14
836.07	1349.61
836.24	1382.38
836.41	1368.04
836.58	1325.04
836.75	1478.63
836.92	1288.17
837.09	1378.28
837.26	1396.71
837.43	1376.24
837.60	1384.43
837.77	1433.58
837.94	1359.85
838.12	1392.62
838.29	1363.95
838.46	1232.88
838.63	1335.28
838.80	1468.39
838.97	1353.71
839.14	1374.19
839.31	1439.72
839.48	1390.57
839.65	1314.80
839.82	1386.47
839.99	1353.71
840.16	1384.43
840.33	1372.14
840.50	1396.71
840.67	1322.99
840.84	1308.65
841.01	1368.04
841.18	1333.23
841.35	1322.99
841.52	1449.96
841.69	1495.02
841.86	1359.85
842.03	1296.36
842.20	1349.61
842.37	1402.86
842.54	1361.90
842.71	1406.95
842.88	1378.28
843.05	1415.15
843.22	1372.14
843.39	1427.43
843.56	1351.66
843.73	1376.24
843.90	1361.90
844.07	1357.80
844.24	1392.62
844.41	1363.95
844.58	1374.19
844.75	1339.37
844.92	1376.24
845.09	1392.62
845.26	1400.81
845.43	1402.86
845.60	1351.66
845.77	1421.29
845.94	1384.43
846.10	1357.80
846.27	1310.70
846.44	1355.76
846.61	1355.76
846.78	1341.42
846.95	1400.81
847.12	1314.80
847.29	1351.66
847.46	1384.43
847.63	1386.47
847.80	1333.23
847.97	1333.23
848.14	1417.19
848.31	1366.00
848.48	1359.85
848.65	1363.95
848.82	1339.37
848.98	1388.52
849.15	1421.29
849.32	1368.04
849.49	1392.62
849.66	1357.80
849.83	1447.91
850.00	1380.33
850.17	1394.67
850.34	1363.95
850.51	1378.28
850.68	1392.62
850.85	1380.33
851.01	1386.47
851.18	1372.14
851.35	1392.62
851.52	1402.86
851.69	1482.73
851.86	1339.37
852.03	1380.33
852.20	1370.09
852.37	1320.94
852.53	1257.45
852.70	1390.57
852.87	1423.34
853.04	1388.52
853.21	1380.33
853.38	1411.05
853.55	1499.11
853.72	1396.71
853.89	1292.27
854.05	1374.19
854.22	1302.51
854.39	1411.05
854.56	1372.14
854.73	1382.38
854.90	1402.86
855.07	1406.95
855.23	1413.10
855.40	1347.56
855.57	1368.04
855.74	1343.47
855.91	1517.54
856.08	1310.70
856.25	1320.94
856.41	1361.90
856.58	1361.90
856.75	1312.75
856.92	1271.79
857.09	1441.77
857.26	1314.80
857.42	1353.71
857.59	1417.19
857.76	1279.98
857.93	1413.10
858.10	1349.61
858.27	1308.65
858.43	1345.52
858.60	1310.70
858.77	1318.89
858.94	1302.51
859.11	1310.70
859.27	1380.33
859.44	1370.09
859.61	1435.63
859.78	1396.71
859.95	1314.80
860.12	1386.47
860.28	1411.05
860.45	1515.50
860.62	1370.09
860.79	1347.56
860.95	1462.25
861.12	1341.42
861.29	1329.13
861.46	1409.00
861.63	1347.56
861.79	1484.78
861.96	1335.28
862.13	1396.71
862.30	1384.43
862.47	1353.71
862.63	1355.76
862.80	1409.00
862.97	1411.05
863.14	1366.00
863.30	1411.05
863.47	1345.52
863.64	1423.34
863.81	1411.05
863.97	1351.66
864.14	1404.91
864.31	1314.80
864.48	1318.89
864.65	1372.14
864.81	1439.72
864.98	1378.28
865.15	1335.28
865.32	1357.80
865.48	1361.90
865.65	1347.56
865.82	1378.28
865.98	1415.15
866.15	1425.39
866.32	1421.29
866.49	1353.71
866.65	1386.47
866.82	1310.70
866.99	1415.15
867.16	1322.99
867.32	1421.29
867.49	1355.76
867.66	1273.84
867.83	1290.22
867.99	1314.80
868.16	1404.91
868.33	1361.90
868.49	1351.66
868.66	1372.14
868.83	1347.56
868.99	1363.95
869.16	1337.32
869.33	1439.72
869.50	1329.13
869.66	1318.89
869.83	1284.08
870.00	1339.37
870.16	1445.87
870.33	1402.86
870.50	1380.33
870.66	1298.41
870.83	1437.67
871.00	1366.00
871.17	1361.90
871.33	1376.24
871.50	1435.63
871.67	1345.52
871.83	1318.89
872.00	1404.91
872.17	1351.66
872.33	1476.59
872.50	1402.86
872.67	1386.47
872.83	1359.85
873.00	1298.41
873.17	1310.70
873.33	1335.28
873.50	1406.95
873.67	1366.00
873.83	1298.41
874.00	1308.65
874.16	1454.06
874.33	1306.60
874.50	1363.95
874.66	1372.14
874.83	1366.00
875.00	1394.67
875.16	1386.47
875.33	1368.04
875.50	1304.56
875.66	1378.28
875.83	1368.04
875.99	1402.86
876.16	1370.09
876.33	1361.90
876.49	1417.19
876.66	1378.28
876.83	1273.84
876.99	1333.23
877.16	1400.81
877.32	1331.18
877.49	1304.56
877.66	1423.34
877.82	1433.58
877.99	1406.95
878.15	1322.99
878.32	1388.52
878.49	1378.28
878.65	1396.71
878.82	1470.44
878.98	1312.75
879.15	1396.71
879.32	1409.00
879.48	1386.47
879.65	1333.23
879.81	1390.57
879.98	1310.70
880.15	1363.95
880.31	1353.71
880.48	1329.13
880.64	1359.85
880.81	1370.09
880.97	1486.83
881.14	1390.57
881.31	1351.66
881.47	1521.64
881.64	1298.41
881.80	1286.12
881.97	1349.61
882.13	1396.71
882.30	1308.65
882.47	1277.93
882.63	1322.99
882.80	1351.66
882.96	1370.09
883.13	1363.95
883.29	1343.47
883.46	1386.47
883.62	1454.06
883.79	1388.52
883.95	1331.18
884.12	1322.99
884.29	1406.95
884.45	1396.71
884.62	1384.43
884.78	1345.52
884.95	1431.53
885.11	1331.18
885.28	1437.67
885.44	1357.80
885.61	1431.53
885.77	1355.76
885.94	1402.86
886.10	1370.09
886.27	1390.57
886.43	1421.29
886.60	1372.14
886.76	1404.91
886.93	1353.71
887.09	1337.32
887.26	1318.89
887.42	1308.65
887.59	1390.57
887.75	1460.20
887.92	1456.11
888.08	1409.00
888.25	1443.82
888.41	1343.47
888.58	1396.71
888.74	1288.17
888.91	1347.56
>>>>>End Processed Spectral Data<<<<<
