SpectraSuite Data File
++++++++++++++++++++++++++++++++++++
Date: Tue May 03 11:24:22 CEST 2016
User: root
Dark Spectrum Present: No
Reference Spectrum Present: No
Number of Sampled Component Spectra: 1
Spectrometers: USB4C02835
Integration Time (usec): 100000 (USB4C02835)
Spectra Averaged: 1 (USB4C02835)
Boxcar Smoothing: 0 (USB4C02835)
Correct for Electrical Dark: No (USB4C02835)
Strobe/Lamp Enabled: No (USB4C02835)
Correct for Detector Non-linearity: No (USB4C02835)
Correct for Stray Light: No (USB4C02835)
Number of Pixels in Processed Spectrum: 3648
>>>>>Begin Processed Spectral Data<<<<<
177.47	1208.30
177.69	1208.30
177.91	1208.30
178.13	1222.64
178.36	1173.49
178.58	1343.47
178.80	1357.80
179.02	1351.66
179.24	1302.51
179.46	1343.47
179.68	1402.86
179.90	1325.04
180.13	1372.14
180.35	1353.71
180.57	1347.56
180.79	1404.91
181.01	1335.28
181.23	1402.86
181.45	1351.66
181.67	1402.86
181.90	1384.43
182.12	1318.89
182.34	1308.65
182.56	1366.00
182.78	1376.24
183.00	1378.28
183.22	1318.89
183.44	1376.24
183.66	1474.54
183.89	1333.23
184.11	1269.74
184.33	1398.76
184.55	1322.99
184.77	1327.08
184.99	1343.47
185.21	1409.00
185.43	1443.82
185.65	1368.04
185.87	1327.08
186.10	1464.30
186.32	1449.96
186.54	1355.76
186.76	1359.85
186.98	1449.96
187.20	1333.23
187.42	1384.43
187.64	1363.95
187.86	1325.04
188.08	1368.04
188.30	1363.95
188.52	1386.47
188.75	1363.95
188.97	1427.43
189.19	1363.95
189.41	1308.65
189.63	1413.10
189.85	1392.62
190.07	1349.61
190.29	1304.56
190.51	1347.56
190.73	1304.56
190.95	1376.24
191.17	1392.62
191.39	1363.95
191.61	1355.76
191.84	1269.74
192.06	1449.96
192.28	1353.71
192.50	1417.19
192.72	1396.71
192.94	1339.37
193.16	1366.00
193.38	1378.28
193.60	1325.04
193.82	1343.47
194.04	1433.58
194.26	1445.87
194.48	1298.41
194.70	1339.37
194.92	1331.18
195.14	1372.14
195.36	1292.27
195.58	1327.08
195.80	1361.90
196.02	1290.22
196.24	1431.53
196.46	1337.32
196.69	1322.99
196.91	1439.72
197.13	1400.81
197.35	1363.95
197.57	1445.87
197.79	1378.28
198.01	1437.67
198.23	1427.43
198.45	1357.80
198.67	1331.18
198.89	1417.19
199.11	1331.18
199.33	1339.37
199.55	1322.99
199.77	1413.10
199.99	1464.30
200.21	1290.22
200.43	1411.05
200.65	1316.84
200.87	1337.32
201.09	1343.47
201.31	1347.56
201.53	1427.43
201.75	1388.52
201.97	1363.95
202.19	1333.23
202.41	1316.84
202.63	1503.21
202.85	1396.71
203.07	1347.56
203.29	1372.14
203.51	1335.28
203.73	1372.14
203.95	1452.01
204.17	1384.43
204.39	1425.39
204.61	1337.32
204.83	1396.71
205.05	1347.56
205.27	1359.85
205.49	1429.48
205.71	1402.86
205.93	1329.13
206.15	1366.00
206.37	1322.99
206.59	1368.04
206.81	1302.51
207.03	1310.70
207.25	1290.22
207.47	1339.37
207.69	1363.95
207.91	1497.07
208.13	1335.28
208.34	1435.63
208.56	1366.00
208.78	1488.87
209.00	1411.05
209.22	1308.65
209.44	1413.10
209.66	1318.89
209.88	1415.15
210.10	1282.03
210.32	1310.70
210.54	1429.48
210.76	1325.04
210.98	1409.00
211.20	1318.89
211.42	1320.94
211.64	1382.38
211.86	1345.52
212.08	1404.91
212.30	1396.71
212.52	1363.95
212.74	1404.91
212.96	1363.95
213.17	1372.14
213.39	1347.56
213.61	1468.39
213.83	1417.19
214.05	1394.67
214.27	1413.10
214.49	1298.41
214.71	1413.10
214.93	1433.58
215.15	1376.24
215.37	1392.62
215.59	1273.84
215.81	1376.24
216.03	1372.14
216.24	1333.23
216.46	1357.80
216.68	1349.61
216.90	1435.63
217.12	1411.05
217.34	1386.47
217.56	1288.17
217.78	1327.08
218.00	1366.00
218.22	1394.67
218.44	1370.09
218.66	1265.64
218.87	1363.95
219.09	1388.52
219.31	1437.67
219.53	1347.56
219.75	1343.47
219.97	1331.18
220.19	1421.29
220.41	1296.36
220.63	1382.38
220.85	1325.04
221.06	1378.28
221.28	1308.65
221.50	1316.84
221.72	1396.71
221.94	1378.28
222.16	1380.33
222.38	1400.81
222.60	1413.10
222.82	1329.13
223.03	1404.91
223.25	1386.47
223.47	1343.47
223.69	1462.25
223.91	1394.67
224.13	1366.00
224.35	1388.52
224.57	1388.52
224.78	1333.23
225.00	1384.43
225.22	1353.71
225.44	1363.95
225.66	1396.71
225.88	1359.85
226.10	1398.76
226.32	1355.76
226.53	1464.30
226.75	1314.80
226.97	1370.09
227.19	1386.47
227.41	1331.18
227.63	1366.00
227.85	1345.52
228.06	1398.76
228.28	1355.76
228.50	1265.64
228.72	1327.08
228.94	1355.76
229.16	1267.69
229.37	1245.16
229.59	1378.28
229.81	1470.44
230.03	1339.37
230.25	1302.51
230.47	1306.60
230.69	1312.75
230.90	1380.33
231.12	1288.17
231.34	1386.47
231.56	1505.26
231.78	1300.46
232.00	1366.00
232.21	1359.85
232.43	1374.19
232.65	1288.17
232.87	1466.35
233.09	1335.28
233.30	1417.19
233.52	1351.66
233.74	1386.47
233.96	1331.18
234.18	1400.81
234.40	1353.71
234.61	1478.63
234.83	1255.40
235.05	1308.65
235.27	1470.44
235.49	1429.48
235.70	1417.19
235.92	1437.67
236.14	1460.20
236.36	1449.96
236.58	1327.08
236.79	1400.81
237.01	1320.94
237.23	1286.12
237.45	1411.05
237.67	1239.02
237.88	1347.56
238.10	1511.40
238.32	1339.37
238.54	1370.09
238.76	1345.52
238.97	1322.99
239.19	1282.03
239.41	1361.90
239.63	1411.05
239.85	1363.95
240.06	1372.14
240.28	1361.90
240.50	1402.86
240.72	1390.57
240.93	1361.90
241.15	1429.48
241.37	1386.47
241.59	1386.47
241.81	1353.71
242.02	1361.90
242.24	1300.46
242.46	1388.52
242.68	1349.61
242.89	1370.09
243.11	1409.00
243.33	1380.33
243.55	1366.00
243.76	1478.63
243.98	1347.56
244.20	1368.04
244.42	1421.29
244.64	1396.71
244.85	1402.86
245.07	1314.80
245.29	1380.33
245.51	1390.57
245.72	1372.14
245.94	1331.18
246.16	1413.10
246.38	1382.38
246.59	1398.76
246.81	1306.60
247.03	1335.28
247.24	1306.60
247.46	1351.66
247.68	1400.81
247.90	1320.94
248.11	1347.56
248.33	1413.10
248.55	1386.47
248.77	1406.95
248.98	1357.80
249.20	1435.63
249.42	1349.61
249.64	1355.76
249.85	1277.93
250.07	1392.62
250.29	1335.28
250.50	1327.08
250.72	1366.00
250.94	1366.00
251.16	1314.80
251.37	1449.96
251.59	1378.28
251.81	1368.04
252.02	1419.24
252.24	1331.18
252.46	1404.91
252.68	1333.23
252.89	1359.85
253.11	1310.70
253.33	1419.24
253.54	1411.05
253.76	1355.76
253.98	1347.56
254.20	1370.09
254.41	1286.12
254.63	1380.33
254.85	1304.56
255.06	1322.99
255.28	1363.95
255.50	1333.23
255.71	1431.53
255.93	1351.66
256.15	1314.80
256.36	1406.95
256.58	1355.76
256.80	1337.32
257.02	1349.61
257.23	1355.76
257.45	1431.53
257.67	1421.29
257.88	1255.40
258.10	1366.00
258.32	1341.42
258.53	1353.71
258.75	1429.48
258.97	1353.71
259.18	1353.71
259.40	1427.43
259.62	1441.77
259.83	1445.87
260.05	1406.95
260.27	1560.55
260.48	1339.37
260.70	1460.20
260.92	1310.70
261.13	1368.04
261.35	1386.47
261.57	1396.71
261.78	1298.41
262.00	1302.51
262.22	1402.86
262.43	1378.28
262.65	1394.67
262.86	1322.99
263.08	1384.43
263.30	1400.81
263.51	1316.84
263.73	1363.95
263.95	1413.10
264.16	1359.85
264.38	1277.93
264.60	1378.28
264.81	1267.69
265.03	1445.87
265.25	1366.00
265.46	1390.57
265.68	1462.25
265.89	1382.38
266.11	1304.56
266.33	1382.38
266.54	1437.67
266.76	1400.81
266.98	1406.95
267.19	1396.71
267.41	1322.99
267.62	1368.04
267.84	1378.28
268.06	1345.52
268.27	1345.52
268.49	1376.24
268.70	1355.76
268.92	1316.84
269.14	1277.93
269.35	1222.64
269.57	1370.09
269.79	1404.91
270.00	1355.76
270.22	1409.00
270.43	1335.28
270.65	1359.85
270.87	1441.77
271.08	1421.29
271.30	1400.81
271.51	1460.20
271.73	1419.24
271.95	1492.97
272.16	1331.18
272.38	1390.57
272.59	1341.42
272.81	1300.46
273.02	1380.33
273.24	1431.53
273.46	1466.35
273.67	1386.47
273.89	1384.43
274.10	1314.80
274.32	1384.43
274.54	1433.58
274.75	1351.66
274.97	1335.28
275.18	1380.33
275.40	1339.37
275.61	1390.57
275.83	1322.99
276.05	1380.33
276.26	1329.13
276.48	1433.58
276.69	1368.04
276.91	1325.04
277.12	1361.90
277.34	1443.82
277.55	1320.94
277.77	1413.10
277.99	1347.56
278.20	1304.56
278.42	1335.28
278.63	1290.22
278.85	1320.94
279.06	1390.57
279.28	1374.19
279.49	1382.38
279.71	1384.43
279.93	1402.86
280.14	1398.76
280.36	1347.56
280.57	1411.05
280.79	1394.67
281.00	1400.81
281.22	1345.52
281.43	1413.10
281.65	1261.55
281.86	1361.90
282.08	1368.04
282.29	1347.56
282.51	1302.51
282.73	1331.18
282.94	1353.71
283.16	1392.62
283.37	1398.76
283.59	1343.47
283.80	1376.24
284.02	1413.10
284.23	1413.10
284.45	1378.28
284.66	1390.57
284.88	1335.28
285.09	1363.95
285.31	1411.05
285.52	1419.24
285.74	1286.12
285.95	1335.28
286.17	1404.91
286.38	1343.47
286.60	1343.47
286.81	1314.80
287.03	1341.42
287.24	1300.46
287.46	1335.28
287.67	1400.81
287.89	1423.34
288.10	1341.42
288.32	1261.55
288.53	1429.48
288.75	1355.76
288.96	1372.14
289.18	1353.71
289.39	1329.13
289.61	1421.29
289.82	1484.78
290.04	1476.59
290.25	1261.55
290.47	1322.99
290.68	1413.10
290.90	1419.24
291.11	1259.50
291.33	1320.94
291.54	1284.08
291.76	1327.08
291.97	1327.08
292.18	1343.47
292.40	1331.18
292.61	1376.24
292.83	1443.82
293.04	1419.24
293.26	1396.71
293.47	1339.37
293.69	1335.28
293.90	1402.86
294.12	1404.91
294.33	1357.80
294.55	1355.76
294.76	1462.25
294.97	1433.58
295.19	1396.71
295.40	1357.80
295.62	1298.41
295.83	1366.00
296.05	1339.37
296.26	1355.76
296.48	1384.43
296.69	1415.15
296.90	1339.37
297.12	1404.91
297.33	1384.43
297.55	1349.61
297.76	1378.28
297.98	1396.71
298.19	1378.28
298.41	1292.27
298.62	1337.32
298.83	1474.54
299.05	1298.41
299.26	1353.71
299.48	1394.67
299.69	1329.13
299.90	1441.77
300.12	1308.65
300.33	1370.09
300.55	1333.23
300.76	1433.58
300.98	1236.97
301.19	1363.95
301.40	1286.12
301.62	1327.08
301.83	1355.76
302.05	1374.19
302.26	1353.71
302.47	1368.04
302.69	1288.17
302.90	1404.91
303.12	1269.74
303.33	1421.29
303.54	1454.06
303.76	1331.18
303.97	1368.04
304.19	1423.34
304.40	1296.36
304.61	1394.67
304.83	1486.83
305.04	1396.71
305.26	1327.08
305.47	1386.47
305.68	1355.76
305.90	1292.27
306.11	1376.24
306.33	1339.37
306.54	1329.13
306.75	1337.32
306.97	1314.80
307.18	1337.32
307.39	1372.14
307.61	1355.76
307.82	1372.14
308.04	1402.86
308.25	1386.47
308.46	1435.63
308.68	1388.52
308.89	1372.14
309.10	1390.57
309.32	1347.56
309.53	1339.37
309.74	1318.89
309.96	1345.52
310.17	1380.33
310.39	1376.24
310.60	1333.23
310.81	1411.05
311.03	1368.04
311.24	1415.15
311.45	1327.08
311.67	1449.96
311.88	1376.24
312.09	1312.75
312.31	1282.03
312.52	1400.81
312.73	1388.52
312.95	1376.24
313.16	1318.89
313.37	1443.82
313.59	1376.24
313.80	1398.76
314.01	1413.10
314.23	1384.43
314.44	1394.67
314.65	1335.28
314.87	1304.56
315.08	1363.95
315.29	1380.33
315.51	1347.56
315.72	1249.26
315.93	1458.15
316.15	1409.00
316.36	1318.89
316.57	1390.57
316.79	1322.99
317.00	1341.42
317.21	1421.29
317.43	1331.18
317.64	1388.52
317.85	1359.85
318.07	1490.92
318.28	1538.02
318.49	1568.74
318.70	1626.09
318.92	1517.54
319.13	1531.88
319.34	1560.55
319.56	1554.41
319.77	1470.44
319.98	1568.74
320.20	1470.44
320.41	1464.30
320.62	1400.81
320.83	1382.38
321.05	1415.15
321.26	1423.34
321.47	1310.70
321.69	1441.77
321.90	1337.32
322.11	1302.51
322.32	1400.81
322.54	1396.71
322.75	1351.66
322.96	1425.39
323.18	1304.56
323.39	1341.42
323.60	1271.79
323.81	1345.52
324.03	1345.52
324.24	1300.46
324.45	1333.23
324.66	1368.04
324.88	1417.19
325.09	1347.56
325.30	1382.38
325.52	1402.86
325.73	1376.24
325.94	1363.95
326.15	1347.56
326.37	1378.28
326.58	1472.49
326.79	1390.57
327.00	1327.08
327.22	1386.47
327.43	1333.23
327.64	1325.04
327.85	1433.58
328.07	1357.80
328.28	1519.59
328.49	1439.72
328.70	1322.99
328.92	1265.64
329.13	1421.29
329.34	1390.57
329.55	1402.86
329.76	1431.53
329.98	1382.38
330.19	1476.59
330.40	1406.95
330.61	1421.29
330.83	1333.23
331.04	1445.87
331.25	1327.08
331.46	1345.52
331.68	1361.90
331.89	1398.76
332.10	1370.09
332.31	1314.80
332.52	1302.51
332.74	1396.71
332.95	1335.28
333.16	1361.90
333.37	1409.00
333.58	1267.69
333.80	1380.33
334.01	1294.32
334.22	1279.98
334.43	1423.34
334.64	1333.23
334.86	1384.43
335.07	1380.33
335.28	1312.75
335.49	1294.32
335.70	1357.80
335.92	1351.66
336.13	1452.01
336.34	1382.38
336.55	1398.76
336.76	1406.95
336.98	1257.45
337.19	1368.04
337.40	1447.91
337.61	1447.91
337.82	1380.33
338.04	1413.10
338.25	1363.95
338.46	1378.28
338.67	1376.24
338.88	1333.23
339.09	1333.23
339.31	1255.40
339.52	1378.28
339.73	1312.75
339.94	1355.76
340.15	1384.43
340.36	1386.47
340.58	1357.80
340.79	1349.61
341.00	1384.43
341.21	1310.70
341.42	1486.83
341.63	1355.76
341.85	1415.15
342.06	1429.48
342.27	1429.48
342.48	1441.77
342.69	1308.65
342.90	1316.84
343.12	1421.29
343.33	1404.91
343.54	1390.57
343.75	1374.19
343.96	1363.95
344.17	1409.00
344.38	1361.90
344.60	1339.37
344.81	1286.12
345.02	1359.85
345.23	1402.86
345.44	1425.39
345.65	1339.37
345.86	1411.05
346.07	1372.14
346.29	1337.32
346.50	1443.82
346.71	1312.75
346.92	1411.05
347.13	1454.06
347.34	1431.53
347.55	1322.99
347.76	1368.04
347.98	1329.13
348.19	1435.63
348.40	1454.06
348.61	1402.86
348.82	1474.54
349.03	1417.19
349.24	1445.87
349.45	1386.47
349.66	1302.51
349.88	1359.85
350.09	1394.67
350.30	1415.15
350.51	1378.28
350.72	1482.73
350.93	1380.33
351.14	1312.75
351.35	1361.90
351.56	1361.90
351.77	1339.37
351.99	1400.81
352.20	1425.39
352.41	1460.20
352.62	1300.46
352.83	1378.28
353.04	1310.70
353.25	1304.56
353.46	1359.85
353.67	1333.23
353.88	1312.75
354.09	1409.00
354.30	1411.05
354.52	1417.19
354.73	1378.28
354.94	1294.32
355.15	1310.70
355.36	1429.48
355.57	1345.52
355.78	1398.76
355.99	1308.65
356.20	1425.39
356.41	1392.62
356.62	1363.95
356.83	1382.38
357.04	1474.54
357.25	1298.41
357.46	1353.71
357.68	1286.12
357.89	1304.56
358.10	1366.00
358.31	1413.10
358.52	1374.19
358.73	1402.86
358.94	1370.09
359.15	1327.08
359.36	1372.14
359.57	1392.62
359.78	1341.42
359.99	1423.34
360.20	1341.42
360.41	1349.61
360.62	1413.10
360.83	1413.10
361.04	1353.71
361.25	1417.19
361.46	1466.35
361.67	1472.49
361.88	1335.28
362.09	1353.71
362.30	1427.43
362.51	1351.66
362.72	1370.09
362.93	1423.34
363.14	1406.95
363.35	1386.47
363.56	1357.80
363.78	1402.86
363.99	1445.87
364.20	1378.28
364.41	1361.90
364.62	1470.44
364.83	1345.52
365.04	1355.76
365.25	1294.32
365.46	1447.91
365.67	1372.14
365.88	1396.71
366.09	1329.13
366.30	1351.66
366.51	1298.41
366.72	1292.27
366.93	1337.32
367.14	1429.48
367.35	1378.28
367.56	1366.00
367.77	1423.34
367.98	1351.66
368.18	1429.48
368.39	1331.18
368.60	1382.38
368.81	1347.56
369.02	1417.19
369.23	1384.43
369.44	1284.08
369.65	1394.67
369.86	1445.87
370.07	1370.09
370.28	1363.95
370.49	1429.48
370.70	1331.18
370.91	1386.47
371.12	1370.09
371.33	1372.14
371.54	1331.18
371.75	1470.44
371.96	1261.55
372.17	1357.80
372.38	1349.61
372.59	1372.14
372.80	1339.37
373.01	1355.76
373.22	1357.80
373.43	1374.19
373.64	1419.24
373.85	1343.47
374.06	1425.39
374.26	1396.71
374.47	1341.42
374.68	1452.01
374.89	1398.76
375.10	1361.90
375.31	1355.76
375.52	1331.18
375.73	1347.56
375.94	1322.99
376.15	1406.95
376.36	1380.33
376.57	1349.61
376.78	1353.71
376.99	1339.37
377.20	1445.87
377.40	1372.14
377.61	1433.58
377.82	1322.99
378.03	1384.43
378.24	1439.72
378.45	1388.52
378.66	1423.34
378.87	1296.36
379.08	1322.99
379.29	1339.37
379.50	1325.04
379.71	1282.03
379.91	1417.19
380.12	1347.56
380.33	1411.05
380.54	1343.47
380.75	1413.10
380.96	1351.66
381.17	1460.20
381.38	1413.10
381.59	1433.58
381.80	1419.24
382.00	1441.77
382.21	1425.39
382.42	1425.39
382.63	1488.87
382.84	1402.86
383.05	1384.43
383.26	1447.91
383.47	1378.28
383.68	1413.10
383.88	1392.62
384.09	1402.86
384.30	1382.38
384.51	1363.95
384.72	1406.95
384.93	1398.76
385.14	1372.14
385.35	1386.47
385.55	1322.99
385.76	1458.15
385.97	1366.00
386.18	1368.04
386.39	1439.72
386.60	1333.23
386.81	1419.24
387.02	1396.71
387.22	1382.38
387.43	1486.83
387.64	1544.17
387.85	2201.57
388.06	5828.52
388.27	9496.43
388.48	11693.90
388.68	13160.25
388.89	13338.42
389.10	10604.38
389.31	9230.20
389.52	8456.06
389.73	7401.36
389.93	7131.03
390.14	6465.44
390.35	5947.30
390.56	5593.00
390.77	4757.43
390.98	3532.75
391.18	2787.29
391.39	2152.42
391.60	1810.40
391.81	1511.40
392.02	1449.96
392.23	1495.02
392.43	1474.54
392.64	1429.48
392.85	1347.56
393.06	1484.78
393.27	1329.13
393.47	1306.60
393.68	1374.19
393.89	1363.95
394.10	1449.96
394.31	1382.38
394.52	1327.08
394.72	1335.28
394.93	1421.29
395.14	1347.56
395.35	1288.17
395.56	1439.72
395.76	1529.83
395.97	1591.27
396.18	1677.29
396.39	1591.27
396.60	1701.86
396.80	1613.80
397.01	1425.39
397.22	1415.15
397.43	1527.78
397.64	1480.68
397.84	1585.13
398.05	1509.35
398.26	1402.86
398.47	1476.59
398.67	1449.96
398.88	1425.39
399.09	1345.52
399.30	1380.33
399.51	1441.77
399.71	1294.32
399.92	1384.43
400.13	1366.00
400.34	1384.43
400.54	1355.76
400.75	1345.52
400.96	1398.76
401.17	1435.63
401.37	1357.80
401.58	1316.84
401.79	1458.15
402.00	1703.91
402.21	1837.03
402.41	1812.45
402.62	1763.30
402.83	1738.73
403.04	1695.72
403.24	1730.53
403.45	1554.41
403.66	1607.66
403.87	1607.66
404.07	1615.85
404.28	1527.78
404.49	1609.70
404.70	1501.16
404.90	1423.34
405.11	1419.24
405.32	1443.82
405.52	1304.56
405.73	1390.57
405.94	1366.00
406.15	1404.91
406.35	1419.24
406.56	1409.00
406.77	1314.80
406.98	1347.56
407.18	1325.04
407.39	1439.72
407.60	1357.80
407.80	1380.33
408.01	1366.00
408.22	1445.87
408.43	1388.52
408.63	1447.91
408.84	1452.01
409.05	1458.15
409.25	1329.13
409.46	1318.89
409.67	1333.23
409.88	1345.52
410.08	1456.11
410.29	1331.18
410.50	1380.33
410.70	1376.24
410.91	1282.03
411.12	1441.77
411.32	1439.72
411.53	1404.91
411.74	1380.33
411.95	1523.69
412.15	1392.62
412.36	1482.73
412.57	1427.43
412.77	1464.30
412.98	1392.62
413.19	1386.47
413.39	1419.24
413.60	1372.14
413.81	1421.29
414.01	1345.52
414.22	1427.43
414.43	1411.05
414.63	1394.67
414.84	1380.33
415.05	1427.43
415.25	1310.70
415.46	1386.47
415.67	1382.38
415.87	1306.60
416.08	1343.47
416.29	1392.62
416.49	1411.05
416.70	1345.52
416.91	1392.62
417.11	1316.84
417.32	1429.48
417.53	1429.48
417.73	1376.24
417.94	1333.23
418.15	1388.52
418.35	1378.28
418.56	1421.29
418.77	1427.43
418.97	1325.04
419.18	1468.39
419.38	1374.19
419.59	1298.41
419.80	1415.15
420.00	1316.84
420.21	1337.32
420.42	1361.90
420.62	1419.24
420.83	1329.13
421.04	1345.52
421.24	1339.37
421.45	1343.47
421.65	1380.33
421.86	1314.80
422.07	1425.39
422.27	1396.71
422.48	1366.00
422.69	1363.95
422.89	1355.76
423.10	1357.80
423.30	1292.27
423.51	1261.55
423.72	1413.10
423.92	1390.57
424.13	1382.38
424.33	1372.14
424.54	1380.33
424.75	1396.71
424.95	1421.29
425.16	1314.80
425.36	1341.42
425.57	1462.25
425.78	1411.05
425.98	1413.10
426.19	1392.62
426.39	1400.81
426.60	1409.00
426.81	1413.10
427.01	1394.67
427.22	1343.47
427.42	1329.13
427.63	1329.13
427.83	1417.19
428.04	1392.62
428.25	1409.00
428.45	1376.24
428.66	1376.24
428.86	1349.61
429.07	1329.13
429.28	1404.91
429.48	1345.52
429.69	1353.71
429.89	1390.57
430.10	1282.03
430.30	1368.04
430.51	1400.81
430.71	1363.95
430.92	1433.58
431.13	1349.61
431.33	1359.85
431.54	1423.34
431.74	1392.62
431.95	1474.54
432.15	1396.71
432.36	1394.67
432.56	1370.09
432.77	1378.28
432.98	1435.63
433.18	1339.37
433.39	1359.85
433.59	1368.04
433.80	1449.96
434.00	1398.76
434.21	1378.28
434.41	1372.14
434.62	1482.73
434.82	1384.43
435.03	1366.00
435.23	1390.57
435.44	1306.60
435.64	1466.35
435.85	1318.89
436.06	1429.48
436.26	1296.36
436.47	1322.99
436.67	1376.24
436.88	1308.65
437.08	1335.28
437.29	1425.39
437.49	1388.52
437.70	1429.48
437.90	1431.53
438.11	1495.02
438.31	1529.83
438.52	1523.69
438.72	1527.78
438.93	1517.54
439.13	1437.67
439.34	1509.35
439.54	1435.63
439.75	1464.30
439.95	1476.59
440.16	1343.47
440.36	1427.43
440.57	1409.00
440.77	1366.00
440.98	1460.20
441.18	1413.10
441.39	1308.65
441.59	1327.08
441.80	1480.68
442.00	1388.52
442.21	1433.58
442.41	1396.71
442.62	1435.63
442.82	1339.37
443.02	1435.63
443.23	1363.95
443.43	1374.19
443.64	1521.64
443.84	1402.86
444.05	1490.92
444.25	1392.62
444.46	1382.38
444.66	1398.76
444.87	1484.78
445.07	1382.38
445.28	1435.63
445.48	1437.67
445.69	1452.01
445.89	1533.93
446.09	1552.36
446.30	2295.77
446.50	3698.63
446.71	4724.66
446.91	5353.39
447.12	5664.68
447.32	4872.12
447.53	4167.62
447.73	3803.08
447.93	3438.54
448.14	3190.74
448.34	2963.41
448.55	2766.81
448.75	2738.13
448.96	2596.82
449.16	2396.12
449.36	2228.19
449.57	1957.86
449.77	1757.16
449.98	1472.49
450.18	1460.20
450.39	1482.73
450.59	1458.15
450.79	1376.24
451.00	1320.94
451.20	1378.28
451.41	1443.82
451.61	1349.61
451.81	1366.00
452.02	1335.28
452.22	1355.76
452.43	1318.89
452.63	1394.67
452.84	1372.14
453.04	1277.93
453.24	1404.91
453.45	1286.12
453.65	1361.90
453.86	1310.70
454.06	1318.89
454.26	1335.28
454.47	1378.28
454.67	1402.86
454.87	1363.95
455.08	1409.00
455.28	1429.48
455.49	1357.80
455.69	1349.61
455.89	1400.81
456.10	1445.87
456.30	1366.00
456.51	1302.51
456.71	1363.95
456.91	1380.33
457.12	1372.14
457.32	1374.19
457.52	1331.18
457.73	1439.72
457.93	1449.96
458.14	1290.22
458.34	1282.03
458.54	1339.37
458.75	1351.66
458.95	1429.48
459.15	1374.19
459.36	1392.62
459.56	1396.71
459.76	1462.25
459.97	1413.10
460.17	1363.95
460.37	1376.24
460.58	1406.95
460.78	1351.66
460.99	1322.99
461.19	1306.60
461.39	1357.80
461.60	1345.52
461.80	1470.44
462.00	1335.28
462.21	1355.76
462.41	1388.52
462.61	1339.37
462.82	1298.41
463.02	1370.09
463.22	1376.24
463.43	1439.72
463.63	1415.15
463.83	1460.20
464.04	1392.62
464.24	1366.00
464.44	1372.14
464.64	1406.95
464.85	1458.15
465.05	1423.34
465.25	1368.04
465.46	1384.43
465.66	1423.34
465.86	1347.56
466.07	1437.67
466.27	1349.61
466.47	1308.65
466.68	1308.65
466.88	1460.20
467.08	1378.28
467.29	1419.24
467.49	1445.87
467.69	1325.04
467.89	1421.29
468.10	1298.41
468.30	1372.14
468.50	1449.96
468.71	1411.05
468.91	1345.52
469.11	1462.25
469.31	1322.99
469.52	1347.56
469.72	1454.06
469.92	1449.96
470.13	1388.52
470.33	1439.72
470.53	1708.01
470.73	2127.84
470.94	2176.99
471.14	2299.87
471.34	2535.39
471.54	2150.37
471.75	1959.91
471.95	1914.85
472.15	1910.75
472.36	1798.12
472.56	1843.17
472.76	1724.39
472.96	1740.77
473.17	1648.61
473.37	1605.61
473.57	1564.65
473.77	1538.02
473.98	1497.07
474.18	1331.18
474.38	1495.02
474.58	1402.86
474.79	1384.43
474.99	1361.90
475.19	1417.19
475.39	1329.13
475.60	1339.37
475.80	1320.94
476.00	1390.57
476.20	1406.95
476.41	1320.94
476.61	1445.87
476.81	1460.20
477.01	1261.55
477.21	1390.57
477.42	1357.80
477.62	1347.56
477.82	1419.24
478.02	1370.09
478.23	1390.57
478.43	1314.80
478.63	1290.22
478.83	1392.62
479.03	1318.89
479.24	1353.71
479.44	1452.01
479.64	1343.47
479.84	1300.46
480.04	1277.93
480.25	1366.00
480.45	1253.36
480.65	1388.52
480.85	1361.90
481.06	1341.42
481.26	1415.15
481.46	1458.15
481.66	1361.90
481.86	1388.52
482.06	1380.33
482.27	1316.84
482.47	1404.91
482.67	1277.93
482.87	1314.80
483.07	1409.00
483.28	1341.42
483.48	1353.71
483.68	1366.00
483.88	1306.60
484.08	1279.98
484.29	1308.65
484.49	1304.56
484.69	1402.86
484.89	1400.81
485.09	1419.24
485.29	1454.06
485.50	1447.91
485.70	1302.51
485.90	1492.97
486.10	1347.56
486.30	1486.83
486.50	1349.61
486.71	1421.29
486.91	1423.34
487.11	1429.48
487.31	1361.90
487.51	1357.80
487.71	1333.23
487.91	1294.32
488.12	1298.41
488.32	1259.50
488.52	1368.04
488.72	1320.94
488.92	1411.05
489.12	1433.58
489.32	1425.39
489.53	1445.87
489.73	1275.88
489.93	1468.39
490.13	1333.23
490.33	1374.19
490.53	1376.24
490.73	1402.86
490.94	1411.05
491.14	1380.33
491.34	1648.61
491.54	2144.22
491.74	2637.78
491.94	2979.79
492.14	3174.35
492.34	2977.75
492.54	2564.06
492.75	2254.81
492.95	2176.99
493.15	2045.92
493.35	1923.04
493.55	1925.09
493.75	1828.84
493.95	1877.99
494.15	1785.83
494.35	1595.37
494.56	1525.74
494.76	1581.03
494.96	1492.97
495.16	1470.44
495.36	1435.63
495.56	1351.66
495.76	1370.09
495.96	1366.00
496.16	1286.12
496.36	1488.87
496.56	1400.81
496.77	1478.63
496.97	1374.19
497.17	1327.08
497.37	1273.84
497.57	1409.00
497.77	1345.52
497.97	1331.18
498.17	1363.95
498.37	1390.57
498.57	1431.53
498.77	1335.28
498.97	1441.77
499.17	1445.87
499.38	1359.85
499.58	1347.56
499.78	1425.39
499.98	1472.49
500.18	1404.91
500.38	1429.48
500.58	1621.99
500.78	2910.16
500.98	5558.19
501.18	6827.93
501.38	8144.77
501.58	8617.85
501.78	7137.17
501.98	5597.10
502.18	5115.83
502.38	4585.40
502.58	4102.08
502.78	3694.54
502.98	3629.00
503.18	3598.28
503.38	3219.41
503.59	3057.62
503.79	2881.49
503.99	2570.20
504.19	2381.79
504.39	2146.27
504.59	2056.16
504.79	2041.82
504.99	1851.36
505.19	1658.85
505.39	1550.31
505.59	1552.36
505.79	1574.89
505.99	1499.11
506.19	1417.19
506.39	1482.73
506.59	1525.74
506.79	1404.91
506.99	1492.97
507.19	1378.28
507.39	1423.34
507.59	1402.86
507.79	1472.49
507.99	1345.52
508.19	1437.67
508.39	1366.00
508.59	1429.48
508.79	1445.87
508.99	1519.59
509.19	1361.90
509.39	1486.83
509.59	1361.90
509.79	1372.14
509.99	1378.28
510.19	1394.67
510.39	1413.10
510.59	1402.86
510.79	1368.04
510.99	1349.61
511.19	1398.76
511.39	1409.00
511.59	1478.63
511.79	1445.87
511.99	1404.91
512.19	1384.43
512.38	1411.05
512.58	1357.80
512.78	1394.67
512.98	1386.47
513.18	1380.33
513.38	1200.11
513.58	1363.95
513.78	1372.14
513.98	1372.14
514.18	1359.85
514.38	1351.66
514.58	1404.91
514.78	1366.00
514.98	1302.51
515.18	1368.04
515.38	1312.75
515.58	1490.92
515.78	1302.51
515.98	1390.57
516.18	1419.24
516.38	1411.05
516.57	1437.67
516.77	1384.43
516.97	1484.78
517.17	1427.43
517.37	1314.80
517.57	1404.91
517.77	1392.62
517.97	1294.32
518.17	1370.09
518.37	1302.51
518.57	1331.18
518.77	1363.95
518.97	1327.08
519.16	1372.14
519.36	1439.72
519.56	1443.82
519.76	1388.52
519.96	1368.04
520.16	1439.72
520.36	1322.99
520.56	1429.48
520.76	1343.47
520.96	1411.05
521.16	1386.47
521.35	1392.62
521.55	1435.63
521.75	1400.81
521.95	1335.28
522.15	1388.52
522.35	1318.89
522.55	1380.33
522.75	1419.24
522.95	1277.93
523.14	1292.27
523.34	1366.00
523.54	1351.66
523.74	1433.58
523.94	1413.10
524.14	1322.99
524.34	1429.48
524.54	1372.14
524.73	1343.47
524.93	1429.48
525.13	1286.12
525.33	1374.19
525.53	1480.68
525.73	1429.48
525.93	1404.91
526.13	1331.18
526.32	1382.38
526.52	1433.58
526.72	1349.61
526.92	1433.58
527.12	1327.08
527.32	1251.31
527.52	1316.84
527.71	1402.86
527.91	1300.46
528.11	1312.75
528.31	1310.70
528.51	1425.39
528.71	1480.68
528.90	1359.85
529.10	1361.90
529.30	1431.53
529.50	1363.95
529.70	1345.52
529.90	1406.95
530.09	1357.80
530.29	1333.23
530.49	1296.36
530.69	1505.26
530.89	1398.76
531.09	1378.28
531.28	1368.04
531.48	1460.20
531.68	1316.84
531.88	1411.05
532.08	1361.90
532.28	1376.24
532.47	1425.39
532.67	1372.14
532.87	1409.00
533.07	1372.14
533.27	1392.62
533.46	1423.34
533.66	1400.81
533.86	1394.67
534.06	1357.80
534.26	1427.43
534.45	1351.66
534.65	1402.86
534.85	1314.80
535.05	1320.94
535.25	1495.02
535.44	1327.08
535.64	1359.85
535.84	1374.19
536.04	1386.47
536.24	1353.71
536.43	1376.24
536.63	1402.86
536.83	1351.66
537.03	1398.76
537.22	1355.76
537.42	1347.56
537.62	1413.10
537.82	1339.37
538.02	1478.63
538.21	1482.73
538.41	1474.54
538.61	1372.14
538.81	1363.95
539.00	1421.29
539.20	1288.17
539.40	1306.60
539.60	1345.52
539.79	1366.00
539.99	1404.91
540.19	1337.32
540.39	1343.47
540.58	1363.95
540.78	1355.76
540.98	1372.14
541.18	1327.08
541.37	1363.95
541.57	1398.76
541.77	1392.62
541.97	1306.60
542.16	1267.69
542.36	1388.52
542.56	1382.38
542.76	1449.96
542.95	1402.86
543.15	1392.62
543.35	1390.57
543.54	1394.67
543.74	1388.52
543.94	1417.19
544.14	1402.86
544.33	1357.80
544.53	1345.52
544.73	1386.47
544.93	1353.71
545.12	1374.19
545.32	1359.85
545.52	1386.47
545.71	1376.24
545.91	1318.89
546.11	1345.52
546.30	1351.66
546.50	1392.62
546.70	1363.95
546.90	1339.37
547.09	1261.55
547.29	1345.52
547.49	1366.00
547.68	1388.52
547.88	1345.52
548.08	1380.33
548.27	1755.11
548.47	1374.19
548.67	1335.28
548.87	1296.36
549.06	1380.33
549.26	1353.71
549.46	1374.19
549.65	1447.91
549.85	1417.19
550.05	1374.19
550.24	1337.32
550.44	1380.33
550.64	1376.24
550.83	1345.52
551.03	1386.47
551.23	1423.34
551.42	1449.96
551.62	1435.63
551.82	1388.52
552.01	1359.85
552.21	1423.34
552.41	1400.81
552.60	1398.76
552.80	1333.23
553.00	1351.66
553.19	1288.17
553.39	1409.00
553.59	1306.60
553.78	1392.62
553.98	1363.95
554.17	1347.56
554.37	1374.19
554.57	1343.47
554.76	1427.43
554.96	1331.18
555.16	1419.24
555.35	1366.00
555.55	1454.06
555.75	1331.18
555.94	1413.10
556.14	1310.70
556.33	1415.15
556.53	1413.10
556.73	1398.76
556.92	1396.71
557.12	1394.67
557.32	1400.81
557.51	1363.95
557.71	1421.29
557.90	1484.78
558.10	1474.54
558.30	1351.66
558.49	1384.43
558.69	1423.34
558.88	1421.29
559.08	1310.70
559.28	1345.52
559.47	1306.60
559.67	1351.66
559.86	1423.34
560.06	1296.36
560.26	1302.51
560.45	1398.76
560.65	1337.32
560.84	1335.28
561.04	1378.28
561.24	1370.09
561.43	1327.08
561.63	1409.00
561.82	1382.38
562.02	1298.41
562.22	1359.85
562.41	1355.76
562.61	1353.71
562.80	1409.00
563.00	1427.43
563.19	1357.80
563.39	1404.91
563.59	1398.76
563.78	1345.52
563.98	1218.54
564.17	1398.76
564.37	1325.04
564.56	1382.38
564.76	1351.66
564.96	1435.63
565.15	1386.47
565.35	1413.10
565.54	1361.90
565.74	1372.14
565.93	1435.63
566.13	1411.05
566.32	1425.39
566.52	1349.61
566.71	1421.29
566.91	1353.71
567.11	1359.85
567.30	1394.67
567.50	1406.95
567.69	1443.82
567.89	1370.09
568.08	1370.09
568.28	1353.71
568.47	1347.56
568.67	1398.76
568.86	1304.56
569.06	1427.43
569.25	1409.00
569.45	1376.24
569.64	1341.42
569.84	1382.38
570.04	1415.15
570.23	1359.85
570.43	1378.28
570.62	1363.95
570.82	1454.06
571.01	1343.47
571.21	1345.52
571.40	1331.18
571.60	1376.24
571.79	1470.44
571.99	1470.44
572.18	1355.76
572.38	1437.67
572.57	1368.04
572.77	1441.77
572.96	1411.05
573.16	1413.10
573.35	1386.47
573.55	1478.63
573.74	1417.19
573.94	1390.57
574.13	1400.81
574.33	1470.44
574.52	1388.52
574.71	1454.06
574.91	1361.90
575.10	1341.42
575.30	1433.58
575.49	1372.14
575.69	1359.85
575.88	1503.21
576.08	1449.96
576.27	1472.49
576.47	1482.73
576.66	1415.15
576.86	1466.35
577.05	1478.63
577.25	1417.19
577.44	1443.82
577.64	1409.00
577.83	1398.76
578.02	1359.85
578.22	1411.05
578.41	1452.01
578.61	1443.82
578.80	1286.12
579.00	1322.99
579.19	1400.81
579.39	1427.43
579.58	1425.39
579.77	1445.87
579.97	1454.06
580.16	1492.97
580.36	1486.83
580.55	1441.77
580.75	1466.35
580.94	1486.83
581.13	1495.02
581.33	1415.15
581.52	1492.97
581.72	1527.78
581.91	1495.02
582.11	1445.87
582.30	1540.07
582.49	1374.19
582.69	1458.15
582.88	1462.25
583.08	1384.43
583.27	1482.73
583.47	1421.29
583.66	1404.91
583.85	1355.76
584.05	1417.19
584.24	1462.25
584.44	1523.69
584.63	1511.40
584.82	1525.74
585.02	1613.80
585.21	1568.74
585.41	1558.50
585.60	1656.81
585.79	1650.66
585.99	1642.47
586.18	1636.33
586.37	1828.84
586.57	2748.37
586.76	8077.19
586.96	24274.57
587.15	41268.62
587.34	51916.01
587.54	59898.99
587.73	58965.12
587.93	44727.64
588.12	32921.10
588.31	26457.71
588.51	22494.89
588.70	20264.65
588.89	18310.89
589.09	16944.89
589.28	15953.68
589.47	14364.45
589.67	12631.87
589.86	10614.62
590.06	8509.31
590.25	6504.35
590.44	4951.99
590.64	3698.63
590.83	2820.05
591.02	2254.81
591.22	1900.52
591.41	1726.44
591.60	1642.47
591.80	1646.57
591.99	1464.30
592.18	1445.87
592.38	1544.17
592.57	1437.67
592.76	1452.01
592.96	1431.53
593.15	1468.39
593.34	1441.77
593.54	1363.95
593.73	1433.58
593.92	1484.78
594.12	1503.21
594.31	1431.53
594.50	1533.93
594.70	1513.45
594.89	1486.83
595.08	1433.58
595.28	1437.67
595.47	1531.88
595.66	1378.28
595.86	1327.08
596.05	1413.10
596.24	1357.80
596.43	1484.78
596.63	1513.45
596.82	1378.28
597.01	1445.87
597.21	1515.50
597.40	1417.19
597.59	1462.25
597.79	1441.77
597.98	1433.58
598.17	1400.81
598.36	1411.05
598.56	1423.34
598.75	1300.46
598.94	1456.11
599.14	1382.38
599.33	1327.08
599.52	1507.30
599.71	1402.86
599.91	1474.54
600.10	1437.67
600.29	1390.57
600.48	1361.90
600.68	1380.33
600.87	1353.71
601.06	1427.43
601.26	1349.61
601.45	1437.67
601.64	1392.62
601.83	1376.24
602.03	1368.04
602.22	1363.95
602.41	1439.72
602.60	1517.54
602.80	1519.59
602.99	1423.34
603.18	1302.51
603.37	1478.63
603.57	1402.86
603.76	1372.14
603.95	1449.96
604.14	1429.48
604.34	1327.08
604.53	1386.47
604.72	1406.95
604.91	1417.19
605.10	1470.44
605.30	1345.52
605.49	1492.97
605.68	1327.08
605.87	1464.30
606.07	1378.28
606.26	1411.05
606.45	1421.29
606.64	1351.66
606.84	1404.91
607.03	1400.81
607.22	1552.36
607.41	1394.67
607.60	1409.00
607.80	1392.62
607.99	1517.54
608.18	1366.00
608.37	1374.19
608.56	1411.05
608.76	1460.20
608.95	1533.93
609.14	1462.25
609.33	1419.24
609.52	1495.02
609.72	1484.78
609.91	1529.83
610.10	1509.35
610.29	1435.63
610.48	1404.91
610.68	1443.82
610.87	1388.52
611.06	1372.14
611.25	1415.15
611.44	1456.11
611.63	1433.58
611.83	1423.34
612.02	1347.56
612.21	1452.01
612.40	1327.08
612.59	1316.84
612.79	1409.00
612.98	1402.86
613.17	1335.28
613.36	1419.24
613.55	1490.92
613.74	1415.15
613.93	1488.87
614.13	1535.98
614.32	1574.89
614.51	1656.81
614.70	1546.22
614.89	1519.59
615.08	1443.82
615.28	1691.62
615.47	1423.34
615.66	1462.25
615.85	1447.91
616.04	1603.56
616.23	1443.82
616.42	1515.50
616.62	1484.78
616.81	1425.39
617.00	1452.01
617.19	1396.71
617.38	1359.85
617.57	1415.15
617.76	1388.52
617.95	1433.58
618.15	1406.95
618.34	1449.96
618.53	1400.81
618.72	1421.29
618.91	1460.20
619.10	1439.72
619.29	1363.95
619.48	1372.14
619.68	1374.19
619.87	1337.32
620.06	1349.61
620.25	1384.43
620.44	1388.52
620.63	1452.01
620.82	1363.95
621.01	1384.43
621.20	1417.19
621.39	1380.33
621.59	1413.10
621.78	1435.63
621.97	1386.47
622.16	1390.57
622.35	1411.05
622.54	1390.57
622.73	1447.91
622.92	1398.76
623.11	1368.04
623.30	1361.90
623.49	1366.00
623.68	1351.66
623.88	1388.52
624.07	1349.61
624.26	1370.09
624.45	1402.86
624.64	1402.86
624.83	1386.47
625.02	1337.32
625.21	1437.67
625.40	1366.00
625.59	1423.34
625.78	1374.19
625.97	1374.19
626.16	1452.01
626.35	1525.74
626.54	1482.73
626.74	1535.98
626.93	1486.83
627.12	1429.48
627.31	1515.50
627.50	1490.92
627.69	1445.87
627.88	1374.19
628.07	1390.57
628.26	1384.43
628.45	1409.00
628.64	1351.66
628.83	1402.86
629.02	1353.71
629.21	1439.72
629.40	1349.61
629.59	1279.98
629.78	1427.43
629.97	1402.86
630.16	1404.91
630.35	1370.09
630.54	1388.52
630.73	1378.28
630.92	1419.24
631.11	1337.32
631.30	1398.76
631.49	1425.39
631.68	1413.10
631.87	1353.71
632.06	1286.12
632.25	1433.58
632.44	1392.62
632.63	1454.06
632.82	1396.71
633.01	1413.10
633.20	1505.26
633.39	1525.74
633.58	1400.81
633.77	1409.00
633.96	1427.43
634.15	1454.06
634.34	1423.34
634.53	1458.15
634.72	1406.95
634.91	1386.47
635.10	1417.19
635.29	1454.06
635.48	1361.90
635.67	1400.81
635.86	1265.64
636.05	1406.95
636.24	1357.80
636.43	1359.85
636.62	1384.43
636.81	1279.98
637.00	1384.43
637.19	1398.76
637.38	1359.85
637.57	1357.80
637.76	1447.91
637.95	1495.02
638.14	1525.74
638.33	1540.07
638.52	1460.20
638.71	1468.39
638.89	1423.34
639.08	1570.79
639.27	1427.43
639.46	1466.35
639.65	1685.48
639.84	1927.14
640.03	1949.67
640.22	2009.06
640.41	2113.50
640.60	1834.98
640.79	1746.92
640.98	1605.61
641.17	1673.19
641.36	1578.98
641.55	1542.12
641.74	1538.02
641.92	1478.63
642.11	1470.44
642.30	1458.15
642.49	1495.02
642.68	1472.49
642.87	1458.15
643.06	1427.43
643.25	1374.19
643.44	1368.04
643.63	1339.37
643.82	1400.81
644.00	1380.33
644.19	1384.43
644.38	1282.03
644.57	1376.24
644.76	1388.52
644.95	1335.28
645.14	1435.63
645.33	1404.91
645.52	1318.89
645.71	1331.18
645.89	1308.65
646.08	1349.61
646.27	1339.37
646.46	1490.92
646.65	1277.93
646.84	1366.00
647.03	1282.03
647.22	1382.38
647.40	1392.62
647.59	1363.95
647.78	1275.88
647.97	1277.93
648.16	1288.17
648.35	1447.91
648.54	1472.49
648.73	1378.28
648.91	1427.43
649.10	1351.66
649.29	1335.28
649.48	1409.00
649.67	1372.14
649.86	1322.99
650.05	1441.77
650.23	1527.78
650.42	1505.26
650.61	1597.42
650.80	1589.22
650.99	1576.94
651.18	1490.92
651.36	1427.43
651.55	1372.14
651.74	1437.67
651.93	1396.71
652.12	1425.39
652.31	1468.39
652.49	1353.71
652.68	1421.29
652.87	1458.15
653.06	1452.01
653.25	1492.97
653.44	1398.76
653.62	1374.19
653.81	1402.86
654.00	1390.57
654.19	1435.63
654.38	1470.44
654.56	1431.53
654.75	1343.47
654.94	1417.19
655.13	1429.48
655.32	1302.51
655.51	1447.91
655.69	1374.19
655.88	1445.87
656.07	1355.76
656.26	1419.24
656.45	1271.79
656.63	1347.56
656.82	1335.28
657.01	1417.19
657.20	1355.76
657.38	1388.52
657.57	1343.47
657.76	1271.79
657.95	1368.04
658.14	1361.90
658.32	1411.05
658.51	1322.99
658.70	1325.04
658.89	1363.95
659.08	1333.23
659.26	1380.33
659.45	1392.62
659.64	1388.52
659.83	1406.95
660.01	1568.74
660.20	1509.35
660.39	1533.93
660.58	1363.95
660.76	1435.63
660.95	1320.94
661.14	1394.67
661.33	1347.56
661.51	1378.28
661.70	1474.54
661.89	1503.21
662.08	1431.53
662.26	1286.12
662.45	1392.62
662.64	1411.05
662.83	1400.81
663.01	1415.15
663.20	1392.62
663.39	1546.22
663.58	1325.04
663.76	1384.43
663.95	1396.71
664.14	1320.94
664.32	1347.56
664.51	1318.89
664.70	1392.62
664.89	1388.52
665.07	1333.23
665.26	1366.00
665.45	1411.05
665.64	1404.91
665.82	1382.38
666.01	1409.00
666.20	1402.86
666.38	1523.69
666.57	1464.30
666.76	1523.69
666.95	2000.87
667.13	4349.89
667.32	11513.68
667.51	18079.47
667.69	21638.84
667.88	24419.98
668.07	24585.86
668.25	19316.44
668.44	13700.91
668.63	11222.87
668.81	9025.40
669.00	8134.53
669.19	7350.16
669.38	6834.07
669.56	6215.59
669.75	5535.66
669.94	4755.38
670.12	4296.64
670.31	3514.31
670.50	2916.31
670.68	2494.43
670.87	2066.40
671.06	1730.53
671.24	1677.29
671.43	1673.19
671.62	1468.39
671.80	1488.87
671.99	1488.87
672.18	1509.35
672.36	1468.39
672.55	1417.19
672.74	1415.15
672.92	1359.85
673.11	1447.91
673.29	1400.81
673.48	1421.29
673.67	1374.19
673.85	1361.90
674.04	1337.32
674.23	1394.67
674.41	1484.78
674.60	1370.09
674.79	1294.32
674.97	1445.87
675.16	1454.06
675.34	1378.28
675.53	1392.62
675.72	1394.67
675.90	1396.71
676.09	1394.67
676.28	1415.15
676.46	1431.53
676.65	1363.95
676.83	1372.14
677.02	1368.04
677.21	1339.37
677.39	1421.29
677.58	1341.42
677.77	1458.15
677.95	1279.98
678.14	1316.84
678.32	1284.08
678.51	1378.28
678.70	1402.86
678.88	1355.76
679.07	1406.95
679.25	1331.18
679.44	1343.47
679.63	1327.08
679.81	1409.00
680.00	1462.25
680.18	1380.33
680.37	1370.09
680.55	1384.43
680.74	1386.47
680.93	1277.93
681.11	1368.04
681.30	1404.91
681.48	1386.47
681.67	1345.52
681.85	1284.08
682.04	1331.18
682.23	1423.34
682.41	1400.81
682.60	1415.15
682.78	1353.71
682.97	1325.04
683.15	1443.82
683.34	1398.76
683.53	1402.86
683.71	1306.60
683.90	1437.67
684.08	1411.05
684.27	1363.95
684.45	1320.94
684.64	1439.72
684.82	1316.84
685.01	1417.19
685.19	1402.86
685.38	1318.89
685.57	1341.42
685.75	1322.99
685.94	1388.52
686.12	1304.56
686.31	1495.02
686.49	1411.05
686.68	1316.84
686.86	1368.04
687.05	1392.62
687.23	1372.14
687.42	1316.84
687.60	1337.32
687.79	1378.28
687.97	1411.05
688.16	1415.15
688.34	1458.15
688.53	1275.88
688.71	1402.86
688.90	1454.06
689.08	1302.51
689.27	1253.36
689.45	1419.24
689.64	1466.35
689.82	1445.87
690.01	1406.95
690.19	1318.89
690.38	1374.19
690.56	1445.87
690.75	1343.47
690.93	1339.37
691.12	1265.64
691.30	1382.38
691.49	1421.29
691.67	1339.37
691.86	1386.47
692.04	1329.13
692.23	1366.00
692.41	1355.76
692.60	1484.78
692.78	1556.46
692.97	1476.59
693.15	1488.87
693.34	1517.54
693.52	1570.79
693.71	1325.04
693.89	1398.76
694.08	1320.94
694.26	1433.58
694.44	1445.87
694.63	1445.87
694.81	1300.46
695.00	1288.17
695.18	1427.43
695.37	1445.87
695.55	1380.33
695.74	1398.76
695.92	1327.08
696.10	1413.10
696.29	1372.14
696.47	1279.98
696.66	1335.28
696.84	1300.46
697.03	1415.15
697.21	1441.77
697.40	1658.85
697.58	1433.58
697.76	1388.52
697.95	1380.33
698.13	1290.22
698.32	1359.85
698.50	1349.61
698.68	1359.85
698.87	1406.95
699.05	1484.78
699.24	1425.39
699.42	1290.22
699.61	1382.38
699.79	1392.62
699.97	1376.24
700.16	1286.12
700.34	1431.53
700.53	1388.52
700.71	1435.63
700.89	1433.58
701.08	1382.38
701.26	1396.71
701.45	1658.85
701.63	1382.38
701.81	1478.63
702.00	1331.18
702.18	1490.92
702.37	1443.82
702.55	1376.24
702.73	1472.49
702.92	1562.60
703.10	1699.81
703.28	1617.90
703.47	1601.51
703.65	1734.63
703.84	1525.74
704.02	1466.35
704.20	1558.50
704.39	1452.01
704.57	1406.95
704.75	1419.24
704.94	1458.15
705.12	1443.82
705.30	1435.63
705.49	1613.80
705.67	1816.55
705.86	3430.35
706.04	9037.69
706.22	16342.79
706.41	19713.75
706.59	22476.46
706.77	23824.02
706.96	19855.06
707.14	13924.14
707.32	11355.99
707.51	9283.44
707.69	8146.82
707.87	7421.84
708.06	6821.78
708.24	6113.19
708.42	5025.72
708.61	4067.27
708.79	3020.75
708.97	2455.51
709.16	1957.86
709.34	1716.20
709.52	1589.22
709.71	1515.50
709.89	1601.51
710.07	1515.50
710.26	1361.90
710.44	1445.87
710.62	1411.05
710.80	1357.80
710.99	1380.33
711.17	1406.95
711.35	1271.79
711.54	1294.32
711.72	1435.63
711.90	1404.91
712.09	1374.19
712.27	1429.48
712.45	1363.95
712.63	1372.14
712.82	1417.19
713.00	1339.37
713.18	1431.53
713.37	1413.10
713.55	1441.77
713.73	1396.71
713.91	1404.91
714.10	1388.52
714.28	1406.95
714.46	1372.14
714.65	1435.63
714.83	1357.80
715.01	1335.28
715.19	1361.90
715.38	1335.28
715.56	1404.91
715.74	1322.99
715.92	1318.89
716.11	1337.32
716.29	1325.04
716.47	1370.09
716.65	1398.76
716.84	1343.47
717.02	1509.35
717.20	1372.14
717.38	1368.04
717.57	1394.67
717.75	1404.91
717.93	1339.37
718.11	1308.65
718.30	1396.71
718.48	1341.42
718.66	1384.43
718.84	1392.62
719.03	1419.24
719.21	1357.80
719.39	1359.85
719.57	1415.15
719.75	1396.71
719.94	1392.62
720.12	1265.64
720.30	1415.15
720.48	1439.72
720.67	1417.19
720.85	1269.74
721.03	1302.51
721.21	1339.37
721.39	1429.48
721.58	1421.29
721.76	1329.13
721.94	1452.01
722.12	1435.63
722.30	1400.81
722.49	1298.41
722.67	1421.29
722.85	1427.43
723.03	1251.31
723.21	1337.32
723.40	1347.56
723.58	1361.90
723.76	1402.86
723.94	1472.49
724.12	1384.43
724.30	1447.91
724.49	1525.74
724.67	1431.53
724.85	1585.13
725.03	1349.61
725.21	1361.90
725.40	1492.97
725.58	1396.71
725.76	1396.71
725.94	1343.47
726.12	1359.85
726.30	1431.53
726.49	1376.24
726.67	1335.28
726.85	1437.67
727.03	1361.90
727.21	1525.74
727.39	1511.40
727.57	2101.22
727.76	3499.98
727.94	4483.00
728.12	4855.73
728.30	5257.14
728.48	5124.02
728.66	4241.34
728.84	3557.32
729.03	3131.34
729.21	2899.92
729.39	2512.86
729.57	2336.73
729.75	2023.39
729.93	1832.93
730.11	1660.90
730.30	1560.55
730.48	1470.44
730.66	1476.59
730.84	1480.68
731.02	1409.00
731.20	1415.15
731.38	1409.00
731.56	1384.43
731.74	1275.88
731.93	1343.47
732.11	1345.52
732.29	1390.57
732.47	1433.58
732.65	1454.06
732.83	1427.43
733.01	1413.10
733.19	1290.22
733.37	1437.67
733.56	1370.09
733.74	1304.56
733.92	1433.58
734.10	1402.86
734.28	1413.10
734.46	1279.98
734.64	1316.84
734.82	1322.99
735.00	1355.76
735.18	1349.61
735.36	1382.38
735.54	1314.80
735.73	1433.58
735.91	1402.86
736.09	1394.67
736.27	1376.24
736.45	1366.00
736.63	1296.36
736.81	1294.32
736.99	1382.38
737.17	1439.72
737.35	1292.27
737.53	1282.03
737.71	1404.91
737.89	1394.67
738.07	1370.09
738.25	1320.94
738.43	1320.94
738.61	1384.43
738.80	1286.12
738.98	1341.42
739.16	1404.91
739.34	1376.24
739.52	1411.05
739.70	1347.56
739.88	1435.63
740.06	1425.39
740.24	1349.61
740.42	1429.48
740.60	1279.98
740.78	1343.47
740.96	1249.26
741.14	1388.52
741.32	1353.71
741.50	1318.89
741.68	1411.05
741.86	1404.91
742.04	1380.33
742.22	1267.69
742.40	1351.66
742.58	1316.84
742.76	1304.56
742.94	1343.47
743.12	1279.98
743.30	1374.19
743.48	1388.52
743.66	1386.47
743.84	1361.90
744.02	1439.72
744.20	1378.28
744.38	1388.52
744.56	1355.76
744.74	1390.57
744.92	1355.76
745.10	1363.95
745.28	1382.38
745.46	1417.19
745.64	1325.04
745.82	1345.52
746.00	1431.53
746.18	1427.43
746.36	1298.41
746.54	1394.67
746.72	1388.52
746.90	1335.28
747.08	1435.63
747.26	1337.32
747.44	1415.15
747.62	1409.00
747.80	1329.13
747.98	1368.04
748.15	1456.11
748.33	1435.63
748.51	1351.66
748.69	1382.38
748.87	1339.37
749.05	1417.19
749.23	1468.39
749.41	1396.71
749.59	1366.00
749.77	1312.75
749.95	1404.91
750.13	1396.71
750.31	1329.13
750.49	1347.56
750.67	1378.28
750.85	1427.43
751.03	1347.56
751.20	1368.04
751.38	1406.95
751.56	1331.18
751.74	1378.28
751.92	1351.66
752.10	1282.03
752.28	1392.62
752.46	1435.63
752.64	1331.18
752.82	1339.37
753.00	1347.56
753.18	1398.76
753.35	1320.94
753.53	1402.86
753.71	1320.94
753.89	1497.07
754.07	1417.19
754.25	1437.67
754.43	1363.95
754.61	1335.28
754.79	1355.76
754.97	1417.19
755.14	1378.28
755.32	1380.33
755.50	1327.08
755.68	1431.53
755.86	1386.47
756.04	1341.42
756.22	1284.08
756.40	1380.33
756.57	1497.07
756.75	1390.57
756.93	1474.54
757.11	1474.54
757.29	1341.42
757.47	1415.15
757.65	1396.71
757.82	1376.24
758.00	1351.66
758.18	1337.32
758.36	1331.18
758.54	1458.15
758.72	1380.33
758.90	1396.71
759.07	1363.95
759.25	1325.04
759.43	1374.19
759.61	1263.60
759.79	1710.05
759.97	1411.05
760.15	1269.74
760.32	1279.98
760.50	1306.60
760.68	1437.67
760.86	1343.47
761.04	1452.01
761.22	1359.85
761.39	1343.47
761.57	1419.24
761.75	1404.91
761.93	1386.47
762.11	1376.24
762.28	1351.66
762.46	1366.00
762.64	1392.62
762.82	1337.32
763.00	1396.71
763.18	1427.43
763.35	1314.80
763.53	1396.71
763.71	1320.94
763.89	1400.81
764.07	1447.91
764.24	1394.67
764.42	1378.28
764.60	1417.19
764.78	1363.95
764.96	1402.86
765.13	1392.62
765.31	1329.13
765.49	1447.91
765.67	1290.22
765.84	1318.89
766.02	1433.58
766.20	1292.27
766.38	1355.76
766.56	1402.86
766.73	1484.78
766.91	1363.95
767.09	1368.04
767.27	1411.05
767.44	1335.28
767.62	1386.47
767.80	1402.86
767.98	1277.93
768.15	1347.56
768.33	1398.76
768.51	1404.91
768.69	1425.39
768.87	1368.04
769.04	1411.05
769.22	1402.86
769.40	1355.76
769.58	1492.97
769.75	1474.54
769.93	1359.85
770.11	1322.99
770.28	1361.90
770.46	1349.61
770.64	1361.90
770.82	1347.56
770.99	1337.32
771.17	1345.52
771.35	1314.80
771.53	1316.84
771.70	1413.10
771.88	1398.76
772.06	1359.85
772.23	1392.62
772.41	1329.13
772.59	1359.85
772.77	1318.89
772.94	1302.51
773.12	1413.10
773.30	1339.37
773.47	1384.43
773.65	1353.71
773.83	1482.73
774.01	1302.51
774.18	1261.55
774.36	1343.47
774.54	1337.32
774.71	1404.91
774.89	1361.90
775.07	1396.71
775.24	1386.47
775.42	1308.65
775.60	1394.67
775.78	1322.99
775.95	1355.76
776.13	1339.37
776.31	1245.16
776.48	1345.52
776.66	1445.87
776.84	1400.81
777.01	1312.75
777.19	1388.52
777.37	1368.04
777.54	1449.96
777.72	1423.34
777.90	1431.53
778.07	1388.52
778.25	1441.77
778.43	1398.76
778.60	1402.86
778.78	1439.72
778.96	1302.51
779.13	1370.09
779.31	1335.28
779.49	1409.00
779.66	1282.03
779.84	1388.52
780.01	1329.13
780.19	1421.29
780.37	1507.30
780.54	1394.67
780.72	1363.95
780.90	1363.95
781.07	1310.70
781.25	1331.18
781.43	1439.72
781.60	1409.00
781.78	1445.87
781.95	1402.86
782.13	1327.08
782.31	1372.14
782.48	1363.95
782.66	1351.66
782.83	1396.71
783.01	1355.76
783.19	1439.72
783.36	1388.52
783.54	1310.70
783.72	1404.91
783.89	1370.09
784.07	1345.52
784.24	1366.00
784.42	1421.29
784.60	1374.19
784.77	1406.95
784.95	1245.16
785.12	1392.62
785.30	1341.42
785.47	1388.52
785.65	1220.59
785.83	1327.08
786.00	1337.32
786.18	1353.71
786.35	1327.08
786.53	1396.71
786.71	1306.60
786.88	1409.00
787.06	1388.52
787.23	1329.13
787.41	1337.32
787.58	1427.43
787.76	1284.08
787.94	1376.24
788.11	1372.14
788.29	1392.62
788.46	1355.76
788.64	1372.14
788.81	1392.62
788.99	1368.04
789.16	1359.85
789.34	1394.67
789.52	1279.98
789.69	1409.00
789.87	1368.04
790.04	1335.28
790.22	1351.66
790.39	1466.35
790.57	1343.47
790.74	1329.13
790.92	1347.56
791.09	1337.32
791.27	1396.71
791.44	1427.43
791.62	1355.76
791.79	1388.52
791.97	1347.56
792.15	1525.74
792.32	1374.19
792.50	1366.00
792.67	1312.75
792.85	1394.67
793.02	1384.43
793.20	1368.04
793.37	1294.32
793.55	1329.13
793.72	1417.19
793.90	1449.96
794.07	1341.42
794.25	1382.38
794.42	1404.91
794.60	1368.04
794.77	1372.14
794.95	1394.67
795.12	1406.95
795.30	1370.09
795.47	1249.26
795.65	1548.26
795.82	1355.76
796.00	1363.95
796.17	1345.52
796.34	1325.04
796.52	1335.28
796.69	1398.76
796.87	1429.48
797.04	1355.76
797.22	1331.18
797.39	1318.89
797.57	1388.52
797.74	1449.96
797.92	1376.24
798.09	1411.05
798.27	1353.71
798.44	1357.80
798.62	1417.19
798.79	1357.80
798.96	1368.04
799.14	1378.28
799.31	1437.67
799.49	1404.91
799.66	1331.18
799.84	1437.67
800.01	1300.46
800.19	1331.18
800.36	1310.70
800.53	1335.28
800.71	1431.53
800.88	1411.05
801.06	1275.88
801.23	1294.32
801.41	1361.90
801.58	1314.80
801.75	1341.42
801.93	1341.42
802.10	1449.96
802.28	1374.19
802.45	1308.65
802.63	1386.47
802.80	1409.00
802.97	1353.71
803.15	1425.39
803.32	1413.10
803.50	1384.43
803.67	1320.94
803.84	1368.04
804.02	1339.37
804.19	1411.05
804.37	1308.65
804.54	1224.69
804.71	1325.04
804.89	1445.87
805.06	1300.46
805.24	1341.42
805.41	1370.09
805.58	1343.47
805.76	1478.63
805.93	1310.70
806.10	1333.23
806.28	1480.68
806.45	1398.76
806.63	1349.61
806.80	1361.90
806.97	1374.19
807.15	1449.96
807.32	1421.29
807.49	1398.76
807.67	1388.52
807.84	1413.10
808.01	1304.56
808.19	1484.78
808.36	1413.10
808.54	1398.76
808.71	1333.23
808.88	1308.65
809.06	1466.35
809.23	1398.76
809.40	1347.56
809.58	1488.87
809.75	1419.24
809.92	1357.80
810.10	1419.24
810.27	1433.58
810.44	1312.75
810.62	1433.58
810.79	1390.57
810.96	1329.13
811.14	1312.75
811.31	1351.66
811.48	1409.00
811.66	1345.52
811.83	1382.38
812.00	1421.29
812.18	1368.04
812.35	1441.77
812.52	1290.22
812.69	1284.08
812.87	1300.46
813.04	1341.42
813.21	1351.66
813.39	1357.80
813.56	1294.32
813.73	1392.62
813.91	1370.09
814.08	1339.37
814.25	1386.47
814.42	1239.02
814.60	1378.28
814.77	1368.04
814.94	1347.56
815.12	1363.95
815.29	1363.95
815.46	1288.17
815.63	1341.42
815.81	1372.14
815.98	1386.47
816.15	1337.32
816.33	1341.42
816.50	1445.87
816.67	1423.34
816.84	1325.04
817.02	1312.75
817.19	1337.32
817.36	1427.43
817.53	1398.76
817.71	1372.14
817.88	1337.32
818.05	1275.88
818.22	1265.64
818.40	1423.34
818.57	1386.47
818.74	1396.71
818.91	1443.82
819.09	1392.62
819.26	1423.34
819.43	1363.95
819.60	1372.14
819.78	1306.60
819.95	1355.76
820.12	1298.41
820.29	1484.78
820.47	1464.30
820.64	1277.93
820.81	1310.70
820.98	1261.55
821.15	1327.08
821.33	1404.91
821.50	1382.38
821.67	1329.13
821.84	1353.71
822.02	1327.08
822.19	1390.57
822.36	1363.95
822.53	1363.95
822.70	1357.80
822.88	1345.52
823.05	1378.28
823.22	1386.47
823.39	1413.10
823.56	1372.14
823.74	1366.00
823.91	1345.52
824.08	1329.13
824.25	1353.71
824.42	1357.80
824.60	1353.71
824.77	1394.67
824.94	1322.99
825.11	1355.76
825.28	1355.76
825.45	1396.71
825.63	1357.80
825.80	1327.08
825.97	1386.47
826.14	1376.24
826.31	1263.60
826.48	1351.66
826.66	1366.00
826.83	1277.93
827.00	1417.19
827.17	1345.52
827.34	1337.32
827.51	1279.98
827.69	1382.38
827.86	1308.65
828.03	1429.48
828.20	1415.15
828.37	1388.52
828.54	1351.66
828.71	1269.74
828.89	1529.83
829.06	1357.80
829.23	1468.39
829.40	1370.09
829.57	1322.99
829.74	1404.91
829.91	1310.70
830.09	1333.23
830.26	1462.25
830.43	1437.67
830.60	1402.86
830.77	1394.67
830.94	1439.72
831.11	1386.47
831.28	1394.67
831.46	1347.56
831.63	1308.65
831.80	1404.91
831.97	1335.28
832.14	1366.00
832.31	1454.06
832.48	1404.91
832.65	1382.38
832.82	1433.58
832.99	1322.99
833.17	1316.84
833.34	1468.39
833.51	1427.43
833.68	1292.27
833.85	1394.67
834.02	1343.47
834.19	1310.70
834.36	1306.60
834.53	1415.15
834.70	1449.96
834.87	1378.28
835.04	1447.91
835.22	1322.99
835.39	1363.95
835.56	1349.61
835.73	1347.56
835.90	1374.19
836.07	1318.89
836.24	1380.33
836.41	1282.03
836.58	1394.67
836.75	1331.18
836.92	1273.84
837.09	1343.47
837.26	1329.13
837.43	1359.85
837.60	1316.84
837.77	1409.00
837.94	1452.01
838.12	1429.48
838.29	1359.85
838.46	1400.81
838.63	1370.09
838.80	1390.57
838.97	1392.62
839.14	1366.00
839.31	1339.37
839.48	1417.19
839.65	1437.67
839.82	1398.76
839.99	1335.28
840.16	1384.43
840.33	1327.08
840.50	1265.64
840.67	1310.70
840.84	1341.42
841.01	1386.47
841.18	1359.85
841.35	1325.04
841.52	1417.19
841.69	1486.83
841.86	1306.60
842.03	1308.65
842.20	1292.27
842.37	1335.28
842.54	1368.04
842.71	1363.95
842.88	1320.94
843.05	1431.53
843.22	1331.18
843.39	1437.67
843.56	1308.65
843.73	1376.24
843.90	1388.52
844.07	1298.41
844.24	1349.61
844.41	1413.10
844.58	1374.19
844.75	1320.94
844.92	1372.14
845.09	1402.86
845.26	1359.85
845.43	1384.43
845.60	1378.28
845.77	1366.00
845.94	1333.23
846.10	1421.29
846.27	1302.51
846.44	1294.32
846.61	1339.37
846.78	1361.90
846.95	1404.91
847.12	1366.00
847.29	1329.13
847.46	1345.52
847.63	1363.95
847.80	1351.66
847.97	1368.04
848.14	1384.43
848.31	1363.95
848.48	1345.52
848.65	1353.71
848.82	1376.24
848.98	1402.86
849.15	1386.47
849.32	1353.71
849.49	1474.54
849.66	1325.04
849.83	1331.18
850.00	1329.13
850.17	1363.95
850.34	1357.80
850.51	1288.17
850.68	1349.61
850.85	1419.24
851.01	1378.28
851.18	1441.77
851.35	1357.80
851.52	1390.57
851.69	1400.81
851.86	1329.13
852.03	1363.95
852.20	1413.10
852.37	1370.09
852.53	1376.24
852.70	1382.38
852.87	1386.47
853.04	1390.57
853.21	1345.52
853.38	1406.95
853.55	1411.05
853.72	1402.86
853.89	1304.56
854.05	1368.04
854.22	1318.89
854.39	1349.61
854.56	1402.86
854.73	1394.67
854.90	1341.42
855.07	1361.90
855.23	1282.03
855.40	1333.23
855.57	1292.27
855.74	1261.55
855.91	1505.26
856.08	1322.99
856.25	1327.08
856.41	1335.28
856.58	1415.15
856.75	1396.71
856.92	1357.80
857.09	1409.00
857.26	1314.80
857.42	1378.28
857.59	1433.58
857.76	1372.14
857.93	1327.08
858.10	1355.76
858.27	1269.74
858.43	1337.32
858.60	1327.08
858.77	1226.73
858.94	1374.19
859.11	1419.24
859.27	1363.95
859.44	1351.66
859.61	1454.06
859.78	1417.19
859.95	1431.53
860.12	1310.70
860.28	1458.15
860.45	1392.62
860.62	1296.36
860.79	1382.38
860.95	1380.33
861.12	1310.70
861.29	1302.51
861.46	1273.84
861.63	1286.12
861.79	1425.39
861.96	1355.76
862.13	1277.93
862.30	1406.95
862.47	1345.52
862.63	1339.37
862.80	1429.48
862.97	1310.70
863.14	1378.28
863.30	1411.05
863.47	1310.70
863.64	1384.43
863.81	1404.91
863.97	1355.76
864.14	1275.88
864.31	1279.98
864.48	1370.09
864.65	1380.33
864.81	1427.43
864.98	1384.43
865.15	1388.52
865.32	1423.34
865.48	1382.38
865.65	1366.00
865.82	1382.38
865.98	1411.05
866.15	1351.66
866.32	1437.67
866.49	1361.90
866.65	1341.42
866.82	1249.26
866.99	1306.60
867.16	1279.98
867.32	1296.36
867.49	1368.04
867.66	1306.60
867.83	1353.71
867.99	1351.66
868.16	1304.56
868.33	1325.04
868.49	1316.84
868.66	1339.37
868.83	1417.19
868.99	1335.28
869.16	1363.95
869.33	1419.24
869.50	1398.76
869.66	1329.13
869.83	1429.48
870.00	1316.84
870.16	1320.94
870.33	1425.39
870.50	1372.14
870.66	1353.71
870.83	1394.67
871.00	1370.09
871.17	1402.86
871.33	1382.38
871.50	1320.94
871.67	1380.33
871.83	1282.03
872.00	1398.76
872.17	1370.09
872.33	1419.24
872.50	1544.17
872.67	1296.36
872.83	1300.46
873.00	1339.37
873.17	1355.76
873.33	1404.91
873.50	1413.10
873.67	1372.14
873.83	1316.84
874.00	1374.19
874.16	1386.47
874.33	1406.95
874.50	1282.03
874.66	1417.19
874.83	1353.71
875.00	1458.15
875.16	1449.96
875.33	1435.63
875.50	1267.69
875.66	1341.42
875.83	1363.95
875.99	1349.61
876.16	1421.29
876.33	1271.79
876.49	1386.47
876.66	1359.85
876.83	1376.24
876.99	1327.08
877.16	1368.04
877.32	1413.10
877.49	1421.29
877.66	1310.70
877.82	1396.71
877.99	1388.52
878.15	1359.85
878.32	1366.00
878.49	1265.64
878.65	1282.03
878.82	1488.87
878.98	1386.47
879.15	1337.32
879.32	1447.91
879.48	1347.56
879.65	1325.04
879.81	1347.56
879.98	1343.47
880.15	1343.47
880.31	1357.80
880.48	1331.18
880.64	1439.72
880.81	1382.38
880.97	1419.24
881.14	1404.91
881.31	1292.27
881.47	1476.59
881.64	1316.84
881.80	1267.69
881.97	1384.43
882.13	1406.95
882.30	1345.52
882.47	1294.32
882.63	1413.10
882.80	1322.99
882.96	1304.56
883.13	1349.61
883.29	1343.47
883.46	1392.62
883.62	1382.38
883.79	1398.76
883.95	1411.05
884.12	1380.33
884.29	1460.20
884.45	1351.66
884.62	1441.77
884.78	1394.67
884.95	1368.04
885.11	1359.85
885.28	1406.95
885.44	1372.14
885.61	1394.67
885.77	1417.19
885.94	1409.00
886.10	1359.85
886.27	1378.28
886.43	1490.92
886.60	1355.76
886.76	1333.23
886.93	1343.47
887.09	1327.08
887.26	1318.89
887.42	1366.00
887.59	1458.15
887.75	1437.67
887.92	1394.67
888.08	1372.14
888.25	1413.10
888.41	1380.33
888.58	1400.81
888.74	1327.08
888.91	1368.04
>>>>>End Processed Spectral Data<<<<<
