SpectraSuite Data File
++++++++++++++++++++++++++++++++++++
Date: Tue May 03 11:24:26 CEST 2016
User: root
Dark Spectrum Present: No
Reference Spectrum Present: No
Number of Sampled Component Spectra: 1
Spectrometers: USB4C02835
Integration Time (usec): 100000 (USB4C02835)
Spectra Averaged: 1 (USB4C02835)
Boxcar Smoothing: 0 (USB4C02835)
Correct for Electrical Dark: No (USB4C02835)
Strobe/Lamp Enabled: No (USB4C02835)
Correct for Detector Non-linearity: No (USB4C02835)
Correct for Stray Light: No (USB4C02835)
Number of Pixels in Processed Spectrum: 3648
>>>>>Begin Processed Spectral Data<<<<<
177.47	1187.82
177.69	1187.82
177.91	1187.82
178.13	1253.36
178.36	1230.83
178.58	1366.00
178.80	1433.58
179.02	1388.52
179.24	1300.46
179.46	1343.47
179.68	1353.71
179.90	1372.14
180.13	1419.24
180.35	1421.29
180.57	1359.85
180.79	1372.14
181.01	1423.34
181.23	1417.19
181.45	1386.47
181.67	1347.56
181.90	1390.57
182.12	1300.46
182.34	1343.47
182.56	1331.18
182.78	1392.62
183.00	1392.62
183.22	1374.19
183.44	1271.79
183.66	1427.43
183.89	1427.43
184.11	1376.24
184.33	1384.43
184.55	1366.00
184.77	1366.00
184.99	1460.20
185.21	1347.56
185.43	1443.82
185.65	1361.90
185.87	1345.52
186.10	1429.48
186.32	1474.54
186.54	1329.13
186.76	1427.43
186.98	1419.24
187.20	1312.75
187.42	1366.00
187.64	1363.95
187.86	1333.23
188.08	1353.71
188.30	1331.18
188.52	1308.65
188.75	1396.71
188.97	1380.33
189.19	1359.85
189.41	1392.62
189.63	1384.43
189.85	1312.75
190.07	1337.32
190.29	1279.98
190.51	1437.67
190.73	1388.52
190.95	1376.24
191.17	1429.48
191.39	1290.22
191.61	1306.60
191.84	1347.56
192.06	1347.56
192.28	1376.24
192.50	1462.25
192.72	1374.19
192.94	1337.32
193.16	1413.10
193.38	1341.42
193.60	1404.91
193.82	1445.87
194.04	1413.10
194.26	1402.86
194.48	1361.90
194.70	1302.51
194.92	1380.33
195.14	1329.13
195.36	1312.75
195.58	1394.67
195.80	1411.05
196.02	1304.56
196.24	1286.12
196.46	1417.19
196.69	1349.61
196.91	1478.63
197.13	1380.33
197.35	1316.84
197.57	1376.24
197.79	1347.56
198.01	1396.71
198.23	1370.09
198.45	1359.85
198.67	1312.75
198.89	1359.85
199.11	1394.67
199.33	1329.13
199.55	1320.94
199.77	1351.66
199.99	1415.15
200.21	1384.43
200.43	1388.52
200.65	1351.66
200.87	1339.37
201.09	1370.09
201.31	1361.90
201.53	1376.24
201.75	1392.62
201.97	1351.66
202.19	1300.46
202.41	1355.76
202.63	1400.81
202.85	1380.33
203.07	1386.47
203.29	1366.00
203.51	1327.08
203.73	1318.89
203.95	1458.15
204.17	1368.04
204.39	1370.09
204.61	1333.23
204.83	1374.19
205.05	1413.10
205.27	1423.34
205.49	1427.43
205.71	1337.32
205.93	1376.24
206.15	1288.17
206.37	1335.28
206.59	1327.08
206.81	1355.76
207.03	1308.65
207.25	1347.56
207.47	1331.18
207.69	1351.66
207.91	1435.63
208.13	1384.43
208.34	1329.13
208.56	1372.14
208.78	1361.90
209.00	1374.19
209.22	1322.99
209.44	1415.15
209.66	1308.65
209.88	1411.05
210.10	1376.24
210.32	1349.61
210.54	1476.59
210.76	1325.04
210.98	1376.24
211.20	1345.52
211.42	1404.91
211.64	1343.47
211.86	1386.47
212.08	1423.34
212.30	1353.71
212.52	1353.71
212.74	1333.23
212.96	1359.85
213.17	1419.24
213.39	1421.29
213.61	1421.29
213.83	1484.78
214.05	1298.41
214.27	1441.77
214.49	1290.22
214.71	1306.60
214.93	1445.87
215.15	1392.62
215.37	1339.37
215.59	1398.76
215.81	1357.80
216.03	1351.66
216.24	1419.24
216.46	1306.60
216.68	1355.76
216.90	1335.28
217.12	1439.72
217.34	1419.24
217.56	1400.81
217.78	1431.53
218.00	1349.61
218.22	1353.71
218.44	1376.24
218.66	1452.01
218.87	1466.35
219.09	1322.99
219.31	1419.24
219.53	1431.53
219.75	1306.60
219.97	1361.90
220.19	1392.62
220.41	1392.62
220.63	1327.08
220.85	1470.44
221.06	1396.71
221.28	1386.47
221.50	1359.85
221.72	1335.28
221.94	1312.75
222.16	1318.89
222.38	1366.00
222.60	1437.67
222.82	1353.71
223.03	1353.71
223.25	1339.37
223.47	1417.19
223.69	1482.73
223.91	1388.52
224.13	1343.47
224.35	1370.09
224.57	1335.28
224.78	1386.47
225.00	1357.80
225.22	1429.48
225.44	1404.91
225.66	1380.33
225.88	1333.23
226.10	1449.96
226.32	1445.87
226.53	1394.67
226.75	1341.42
226.97	1351.66
227.19	1378.28
227.41	1417.19
227.63	1337.32
227.85	1396.71
228.06	1294.32
228.28	1419.24
228.50	1404.91
228.72	1320.94
228.94	1320.94
229.16	1337.32
229.37	1277.93
229.59	1322.99
229.81	1449.96
230.03	1355.76
230.25	1310.70
230.47	1359.85
230.69	1343.47
230.90	1400.81
231.12	1376.24
231.34	1370.09
231.56	1363.95
231.78	1325.04
232.00	1325.04
232.21	1341.42
232.43	1308.65
232.65	1273.84
232.87	1359.85
233.09	1320.94
233.30	1368.04
233.52	1392.62
233.74	1409.00
233.96	1347.56
234.18	1398.76
234.40	1359.85
234.61	1458.15
234.83	1320.94
235.05	1265.64
235.27	1425.39
235.49	1396.71
235.70	1427.43
235.92	1511.40
236.14	1382.38
236.36	1394.67
236.58	1277.93
236.79	1359.85
237.01	1361.90
237.23	1361.90
237.45	1466.35
237.67	1400.81
237.88	1380.33
238.10	1427.43
238.32	1306.60
238.54	1357.80
238.76	1345.52
238.97	1320.94
239.19	1345.52
239.41	1409.00
239.63	1368.04
239.85	1339.37
240.06	1325.04
240.28	1335.28
240.50	1439.72
240.72	1386.47
240.93	1368.04
241.15	1314.80
241.37	1331.18
241.59	1392.62
241.81	1392.62
242.02	1331.18
242.24	1345.52
242.46	1341.42
242.68	1384.43
242.89	1386.47
243.11	1357.80
243.33	1400.81
243.55	1378.28
243.76	1394.67
243.98	1294.32
244.20	1374.19
244.42	1339.37
244.64	1380.33
244.85	1312.75
245.07	1357.80
245.29	1366.00
245.51	1374.19
245.72	1310.70
245.94	1400.81
246.16	1347.56
246.38	1409.00
246.59	1366.00
246.81	1417.19
247.03	1355.76
247.24	1359.85
247.46	1363.95
247.68	1411.05
247.90	1388.52
248.11	1359.85
248.33	1427.43
248.55	1421.29
248.77	1429.48
248.98	1345.52
249.20	1402.86
249.42	1404.91
249.64	1361.90
249.85	1398.76
250.07	1355.76
250.29	1415.15
250.50	1376.24
250.72	1374.19
250.94	1339.37
251.16	1331.18
251.37	1374.19
251.59	1435.63
251.81	1333.23
252.02	1462.25
252.24	1372.14
252.46	1322.99
252.68	1394.67
252.89	1357.80
253.11	1308.65
253.33	1421.29
253.54	1433.58
253.76	1275.88
253.98	1331.18
254.20	1402.86
254.41	1288.17
254.63	1394.67
254.85	1361.90
255.06	1368.04
255.28	1388.52
255.50	1386.47
255.71	1251.31
255.93	1372.14
256.15	1390.57
256.36	1390.57
256.58	1290.22
256.80	1421.29
257.02	1347.56
257.23	1341.42
257.45	1402.86
257.67	1394.67
257.88	1380.33
258.10	1322.99
258.32	1335.28
258.53	1394.67
258.75	1394.67
258.97	1347.56
259.18	1431.53
259.40	1347.56
259.62	1417.19
259.83	1425.39
260.05	1419.24
260.27	1574.89
260.48	1427.43
260.70	1327.08
260.92	1374.19
261.13	1400.81
261.35	1284.08
261.57	1372.14
261.78	1300.46
262.00	1331.18
262.22	1359.85
262.43	1374.19
262.65	1361.90
262.86	1312.75
263.08	1388.52
263.30	1359.85
263.51	1353.71
263.73	1292.27
263.95	1390.57
264.16	1361.90
264.38	1404.91
264.60	1398.76
264.81	1372.14
265.03	1329.13
265.25	1409.00
265.46	1370.09
265.68	1484.78
265.89	1388.52
266.11	1325.04
266.33	1404.91
266.54	1355.76
266.76	1437.67
266.98	1417.19
267.19	1406.95
267.41	1353.71
267.62	1417.19
267.84	1304.56
268.06	1320.94
268.27	1402.86
268.49	1396.71
268.70	1423.34
268.92	1304.56
269.14	1386.47
269.35	1290.22
269.57	1380.33
269.79	1398.76
270.00	1327.08
270.22	1357.80
270.43	1304.56
270.65	1400.81
270.87	1302.51
271.08	1409.00
271.30	1390.57
271.51	1404.91
271.73	1392.62
271.95	1325.04
272.16	1429.48
272.38	1357.80
272.59	1322.99
272.81	1425.39
273.02	1458.15
273.24	1331.18
273.46	1425.39
273.67	1320.94
273.89	1454.06
274.10	1318.89
274.32	1394.67
274.54	1380.33
274.75	1368.04
274.97	1382.38
275.18	1427.43
275.40	1339.37
275.61	1400.81
275.83	1404.91
276.05	1310.70
276.26	1372.14
276.48	1409.00
276.69	1302.51
276.91	1372.14
277.12	1335.28
277.34	1400.81
277.55	1392.62
277.77	1384.43
277.99	1384.43
278.20	1329.13
278.42	1331.18
278.63	1366.00
278.85	1431.53
279.06	1378.28
279.28	1392.62
279.49	1462.25
279.71	1449.96
279.93	1413.10
280.14	1390.57
280.36	1341.42
280.57	1411.05
280.79	1413.10
281.00	1400.81
281.22	1288.17
281.43	1443.82
281.65	1302.51
281.86	1302.51
282.08	1351.66
282.29	1392.62
282.51	1341.42
282.73	1374.19
282.94	1310.70
283.16	1386.47
283.37	1425.39
283.59	1357.80
283.80	1316.84
284.02	1394.67
284.23	1400.81
284.45	1298.41
284.66	1316.84
284.88	1343.47
285.09	1388.52
285.31	1435.63
285.52	1380.33
285.74	1292.27
285.95	1472.49
286.17	1433.58
286.38	1411.05
286.60	1314.80
286.81	1286.12
287.03	1304.56
287.24	1298.41
287.46	1382.38
287.67	1409.00
287.89	1359.85
288.10	1388.52
288.32	1394.67
288.53	1417.19
288.75	1404.91
288.96	1396.71
289.18	1359.85
289.39	1398.76
289.61	1388.52
289.82	1404.91
290.04	1374.19
290.25	1363.95
290.47	1331.18
290.68	1380.33
290.90	1396.71
291.11	1359.85
291.33	1480.68
291.54	1351.66
291.76	1366.00
291.97	1312.75
292.18	1322.99
292.40	1355.76
292.61	1380.33
292.83	1396.71
293.04	1406.95
293.26	1380.33
293.47	1353.71
293.69	1335.28
293.90	1411.05
294.12	1429.48
294.33	1437.67
294.55	1298.41
294.76	1370.09
294.97	1388.52
295.19	1366.00
295.40	1394.67
295.62	1368.04
295.83	1411.05
296.05	1320.94
296.26	1380.33
296.48	1322.99
296.69	1374.19
296.90	1396.71
297.12	1384.43
297.33	1396.71
297.55	1347.56
297.76	1415.15
297.98	1404.91
298.19	1417.19
298.41	1406.95
298.62	1372.14
298.83	1423.34
299.05	1376.24
299.26	1382.38
299.48	1277.93
299.69	1400.81
299.90	1394.67
300.12	1374.19
300.33	1437.67
300.55	1390.57
300.76	1363.95
300.98	1378.28
301.19	1419.24
301.40	1341.42
301.62	1392.62
301.83	1374.19
302.05	1368.04
302.26	1351.66
302.47	1306.60
302.69	1351.66
302.90	1353.71
303.12	1294.32
303.33	1368.04
303.54	1419.24
303.76	1384.43
303.97	1380.33
304.19	1435.63
304.40	1314.80
304.61	1355.76
304.83	1380.33
305.04	1474.54
305.26	1331.18
305.47	1378.28
305.68	1314.80
305.90	1458.15
306.11	1363.95
306.33	1388.52
306.54	1374.19
306.75	1361.90
306.97	1269.74
307.18	1357.80
307.39	1347.56
307.61	1366.00
307.82	1286.12
308.04	1421.29
308.25	1374.19
308.46	1390.57
308.68	1325.04
308.89	1302.51
309.10	1507.30
309.32	1380.33
309.53	1390.57
309.74	1314.80
309.96	1398.76
310.17	1349.61
310.39	1431.53
310.60	1398.76
310.81	1417.19
311.03	1343.47
311.24	1384.43
311.45	1396.71
311.67	1460.20
311.88	1396.71
312.09	1329.13
312.31	1425.39
312.52	1363.95
312.73	1363.95
312.95	1308.65
313.16	1331.18
313.37	1427.43
313.59	1460.20
313.80	1396.71
314.01	1495.02
314.23	1322.99
314.44	1331.18
314.65	1245.16
314.87	1327.08
315.08	1400.81
315.29	1339.37
315.51	1296.36
315.72	1351.66
315.93	1433.58
316.15	1456.11
316.36	1265.64
316.57	1353.71
316.79	1359.85
317.00	1402.86
317.21	1394.67
317.43	1343.47
317.64	1386.47
317.85	1370.09
318.07	1449.96
318.28	1519.59
318.49	1564.65
318.70	1566.70
318.92	1601.51
319.13	1470.44
319.34	1478.63
319.56	1515.50
319.77	1480.68
319.98	1445.87
320.20	1462.25
320.41	1409.00
320.62	1357.80
320.83	1357.80
321.05	1447.91
321.26	1368.04
321.47	1363.95
321.69	1402.86
321.90	1384.43
322.11	1429.48
322.32	1406.95
322.54	1462.25
322.75	1425.39
322.96	1460.20
323.18	1316.84
323.39	1343.47
323.60	1349.61
323.81	1454.06
324.03	1310.70
324.24	1386.47
324.45	1361.90
324.66	1380.33
324.88	1394.67
325.09	1435.63
325.30	1382.38
325.52	1380.33
325.73	1382.38
325.94	1361.90
326.15	1288.17
326.37	1376.24
326.58	1435.63
326.79	1443.82
327.00	1386.47
327.22	1329.13
327.43	1304.56
327.64	1380.33
327.85	1316.84
328.07	1409.00
328.28	1384.43
328.49	1413.10
328.70	1390.57
328.92	1361.90
329.13	1386.47
329.34	1415.15
329.55	1511.40
329.76	1413.10
329.98	1372.14
330.19	1462.25
330.40	1380.33
330.61	1388.52
330.83	1341.42
331.04	1331.18
331.25	1400.81
331.46	1396.71
331.68	1286.12
331.89	1396.71
332.10	1345.52
332.31	1312.75
332.52	1366.00
332.74	1439.72
332.95	1314.80
333.16	1335.28
333.37	1404.91
333.58	1351.66
333.80	1351.66
334.01	1294.32
334.22	1325.04
334.43	1406.95
334.64	1333.23
334.86	1345.52
335.07	1388.52
335.28	1363.95
335.49	1298.41
335.70	1462.25
335.92	1363.95
336.13	1435.63
336.34	1347.56
336.55	1372.14
336.76	1396.71
336.98	1284.08
337.19	1322.99
337.40	1394.67
337.61	1509.35
337.82	1296.36
338.04	1454.06
338.25	1331.18
338.46	1331.18
338.67	1378.28
338.88	1351.66
339.09	1370.09
339.31	1327.08
339.52	1325.04
339.73	1304.56
339.94	1345.52
340.15	1355.76
340.36	1368.04
340.58	1322.99
340.79	1345.52
341.00	1322.99
341.21	1376.24
341.42	1404.91
341.63	1304.56
341.85	1353.71
342.06	1390.57
342.27	1361.90
342.48	1396.71
342.69	1318.89
342.90	1353.71
343.12	1372.14
343.33	1394.67
343.54	1476.59
343.75	1380.33
343.96	1357.80
344.17	1261.55
344.38	1306.60
344.60	1363.95
344.81	1351.66
345.02	1392.62
345.23	1429.48
345.44	1441.77
345.65	1435.63
345.86	1417.19
346.07	1411.05
346.29	1372.14
346.50	1341.42
346.71	1388.52
346.92	1433.58
347.13	1460.20
347.34	1316.84
347.55	1337.32
347.76	1404.91
347.98	1273.84
348.19	1361.90
348.40	1396.71
348.61	1372.14
348.82	1429.48
349.03	1406.95
349.24	1343.47
349.45	1431.53
349.66	1374.19
349.88	1406.95
350.09	1302.51
350.30	1421.29
350.51	1400.81
350.72	1349.61
350.93	1351.66
351.14	1353.71
351.35	1316.84
351.56	1339.37
351.77	1388.52
351.99	1366.00
352.20	1452.01
352.41	1439.72
352.62	1310.70
352.83	1290.22
353.04	1396.71
353.25	1374.19
353.46	1366.00
353.67	1413.10
353.88	1312.75
354.09	1419.24
354.30	1363.95
354.52	1345.52
354.73	1413.10
354.94	1363.95
355.15	1386.47
355.36	1406.95
355.57	1359.85
355.78	1411.05
355.99	1353.71
356.20	1368.04
356.41	1402.86
356.62	1435.63
356.83	1361.90
357.04	1394.67
357.25	1335.28
357.46	1341.42
357.68	1288.17
357.89	1316.84
358.10	1392.62
358.31	1417.19
358.52	1351.66
358.73	1284.08
358.94	1351.66
359.15	1353.71
359.36	1419.24
359.57	1421.29
359.78	1384.43
359.99	1349.61
360.20	1327.08
360.41	1329.13
360.62	1374.19
360.83	1406.95
361.04	1437.67
361.25	1406.95
361.46	1468.39
361.67	1378.28
361.88	1441.77
362.09	1353.71
362.30	1345.52
362.51	1368.04
362.72	1411.05
362.93	1343.47
363.14	1413.10
363.35	1370.09
363.56	1343.47
363.78	1409.00
363.99	1409.00
364.20	1390.57
364.41	1355.76
364.62	1349.61
364.83	1380.33
365.04	1345.52
365.25	1376.24
365.46	1390.57
365.67	1357.80
365.88	1335.28
366.09	1308.65
366.30	1318.89
366.51	1333.23
366.72	1327.08
366.93	1325.04
367.14	1392.62
367.35	1431.53
367.56	1318.89
367.77	1421.29
367.98	1363.95
368.18	1368.04
368.39	1325.04
368.60	1339.37
368.81	1394.67
369.02	1366.00
369.23	1325.04
369.44	1376.24
369.65	1402.86
369.86	1372.14
370.07	1347.56
370.28	1390.57
370.49	1341.42
370.70	1398.76
370.91	1406.95
371.12	1404.91
371.33	1378.28
371.54	1431.53
371.75	1413.10
371.96	1384.43
372.17	1341.42
372.38	1384.43
372.59	1392.62
372.80	1351.66
373.01	1347.56
373.22	1349.61
373.43	1372.14
373.64	1378.28
373.85	1421.29
374.06	1419.24
374.26	1355.76
374.47	1339.37
374.68	1433.58
374.89	1366.00
375.10	1390.57
375.31	1445.87
375.52	1396.71
375.73	1322.99
375.94	1325.04
376.15	1335.28
376.36	1339.37
376.57	1337.32
376.78	1322.99
376.99	1380.33
377.20	1322.99
377.40	1329.13
377.61	1452.01
377.82	1388.52
378.03	1427.43
378.24	1320.94
378.45	1392.62
378.66	1355.76
378.87	1325.04
379.08	1329.13
379.29	1376.24
379.50	1415.15
379.71	1388.52
379.91	1306.60
380.12	1400.81
380.33	1398.76
380.54	1427.43
380.75	1357.80
380.96	1312.75
381.17	1441.77
381.38	1361.90
381.59	1421.29
381.80	1406.95
382.00	1507.30
382.21	1417.19
382.42	1554.41
382.63	1501.16
382.84	1355.76
383.05	1370.09
383.26	1388.52
383.47	1480.68
383.68	1394.67
383.88	1320.94
384.09	1355.76
384.30	1417.19
384.51	1411.05
384.72	1366.00
384.93	1325.04
385.14	1378.28
385.35	1445.87
385.55	1384.43
385.76	1370.09
385.97	1370.09
386.18	1349.61
386.39	1392.62
386.60	1372.14
386.81	1300.46
387.02	1402.86
387.22	1421.29
387.43	1533.93
387.64	1607.66
387.85	2224.09
388.06	5861.29
388.27	9582.45
388.48	11589.46
388.68	13201.21
388.89	13240.12
389.10	10645.34
389.31	9504.62
389.52	8431.49
389.73	7319.44
389.93	6819.74
390.14	6651.80
390.35	5869.48
390.56	5443.50
390.77	4702.14
390.98	3618.76
391.18	2830.29
391.39	2203.61
391.60	1710.05
391.81	1583.08
392.02	1439.72
392.23	1452.01
392.43	1441.77
392.64	1380.33
392.85	1322.99
393.06	1464.30
393.27	1413.10
393.47	1325.04
393.68	1353.71
393.89	1353.71
394.10	1443.82
394.31	1402.86
394.52	1288.17
394.72	1398.76
394.93	1431.53
395.14	1417.19
395.35	1390.57
395.56	1431.53
395.76	1466.35
395.97	1564.65
396.18	1615.85
396.39	1478.63
396.60	1658.85
396.80	1597.42
397.01	1583.08
397.22	1468.39
397.43	1505.26
397.64	1425.39
397.84	1507.30
398.05	1515.50
398.26	1445.87
398.47	1382.38
398.67	1466.35
398.88	1462.25
399.09	1398.76
399.30	1298.41
399.51	1429.48
399.71	1316.84
399.92	1296.36
400.13	1417.19
400.34	1327.08
400.54	1282.03
400.75	1464.30
400.96	1380.33
401.17	1429.48
401.37	1458.15
401.58	1413.10
401.79	1503.21
402.00	1656.81
402.21	1837.03
402.41	1806.31
402.62	1859.56
402.83	1677.29
403.04	1656.81
403.24	1697.77
403.45	1576.94
403.66	1482.73
403.87	1499.11
404.07	1572.84
404.28	1556.46
404.49	1511.40
404.70	1523.69
404.90	1464.30
405.11	1423.34
405.32	1490.92
405.52	1345.52
405.73	1376.24
405.94	1347.56
406.15	1380.33
406.35	1368.04
406.56	1404.91
406.77	1398.76
406.98	1402.86
407.18	1333.23
407.39	1443.82
407.60	1337.32
407.80	1363.95
408.01	1376.24
408.22	1380.33
408.43	1370.09
408.63	1378.28
408.84	1363.95
409.05	1462.25
409.25	1343.47
409.46	1368.04
409.67	1361.90
409.88	1318.89
410.08	1394.67
410.29	1335.28
410.50	1327.08
410.70	1398.76
410.91	1310.70
411.12	1392.62
411.32	1406.95
411.53	1361.90
411.74	1476.59
411.95	1605.61
412.15	1449.96
412.36	1363.95
412.57	1388.52
412.77	1517.54
412.98	1462.25
413.19	1380.33
413.39	1445.87
413.60	1366.00
413.81	1488.87
414.01	1368.04
414.22	1470.44
414.43	1392.62
414.63	1402.86
414.84	1378.28
415.05	1363.95
415.25	1298.41
415.46	1366.00
415.67	1322.99
415.87	1390.57
416.08	1443.82
416.29	1394.67
416.49	1413.10
416.70	1335.28
416.91	1370.09
417.11	1366.00
417.32	1402.86
417.53	1361.90
417.73	1429.48
417.94	1372.14
418.15	1419.24
418.35	1308.65
418.56	1431.53
418.77	1437.67
418.97	1347.56
419.18	1361.90
419.38	1322.99
419.59	1318.89
419.80	1482.73
420.00	1361.90
420.21	1404.91
420.42	1366.00
420.62	1437.67
420.83	1368.04
421.04	1400.81
421.24	1310.70
421.45	1363.95
421.65	1433.58
421.86	1355.76
422.07	1431.53
422.27	1361.90
422.48	1378.28
422.69	1370.09
422.89	1345.52
423.10	1404.91
423.30	1243.12
423.51	1435.63
423.72	1427.43
423.92	1409.00
424.13	1241.07
424.33	1314.80
424.54	1380.33
424.75	1378.28
424.95	1363.95
425.16	1382.38
425.36	1361.90
425.57	1404.91
425.78	1443.82
425.98	1368.04
426.19	1331.18
426.39	1288.17
426.60	1316.84
426.81	1368.04
427.01	1419.24
427.22	1386.47
427.42	1335.28
427.63	1329.13
427.83	1351.66
428.04	1421.29
428.25	1392.62
428.45	1452.01
428.66	1404.91
428.86	1296.36
429.07	1411.05
429.28	1402.86
429.48	1329.13
429.69	1339.37
429.89	1396.71
430.10	1327.08
430.30	1396.71
430.51	1366.00
430.71	1349.61
430.92	1361.90
431.13	1376.24
431.33	1380.33
431.54	1345.52
431.74	1449.96
431.95	1468.39
432.15	1339.37
432.36	1351.66
432.56	1384.43
432.77	1439.72
432.98	1425.39
433.18	1368.04
433.39	1368.04
433.59	1392.62
433.80	1441.77
434.00	1472.49
434.21	1322.99
434.41	1425.39
434.62	1468.39
434.82	1288.17
435.03	1388.52
435.23	1329.13
435.44	1318.89
435.64	1357.80
435.85	1392.62
436.06	1386.47
436.26	1419.24
436.47	1378.28
436.67	1339.37
436.88	1306.60
437.08	1398.76
437.29	1443.82
437.49	1374.19
437.70	1392.62
437.90	1404.91
438.11	1476.59
438.31	1503.21
438.52	1538.02
438.72	1556.46
438.93	1546.22
439.13	1488.87
439.34	1462.25
439.54	1433.58
439.75	1452.01
439.95	1363.95
440.16	1425.39
440.36	1464.30
440.57	1413.10
440.77	1366.00
440.98	1413.10
441.18	1409.00
441.39	1392.62
441.59	1398.76
441.80	1449.96
442.00	1411.05
442.21	1396.71
442.41	1277.93
442.62	1411.05
442.82	1380.33
443.02	1427.43
443.23	1333.23
443.43	1372.14
443.64	1462.25
443.84	1310.70
444.05	1435.63
444.25	1380.33
444.46	1335.28
444.66	1343.47
444.87	1492.97
445.07	1329.13
445.28	1310.70
445.48	1495.02
445.69	1435.63
445.89	1482.73
446.09	1548.26
446.30	2289.63
446.50	3624.90
446.71	4597.69
446.91	5314.48
447.12	5468.08
447.32	4894.65
447.53	4165.57
447.73	3737.54
447.93	3330.00
448.14	3203.02
448.34	3063.76
448.55	2766.81
448.75	2744.28
448.96	2623.45
449.16	2373.60
449.36	2224.09
449.57	2007.01
449.77	1662.95
449.98	1513.45
450.18	1482.73
450.39	1406.95
450.59	1382.38
450.79	1363.95
451.00	1384.43
451.20	1429.48
451.41	1423.34
451.61	1341.42
451.81	1380.33
452.02	1306.60
452.22	1384.43
452.43	1345.52
452.63	1353.71
452.84	1384.43
453.04	1357.80
453.24	1437.67
453.45	1400.81
453.65	1359.85
453.86	1380.33
454.06	1433.58
454.26	1273.84
454.47	1308.65
454.67	1404.91
454.87	1437.67
455.08	1339.37
455.28	1435.63
455.49	1460.20
455.69	1341.42
455.89	1476.59
456.10	1384.43
456.30	1325.04
456.51	1417.19
456.71	1372.14
456.91	1333.23
457.12	1378.28
457.32	1462.25
457.52	1265.64
457.73	1476.59
457.93	1421.29
458.14	1351.66
458.34	1277.93
458.54	1273.84
458.75	1386.47
458.95	1386.47
459.15	1382.38
459.36	1474.54
459.56	1421.29
459.76	1433.58
459.97	1460.20
460.17	1320.94
460.37	1406.95
460.58	1363.95
460.78	1404.91
460.99	1357.80
461.19	1439.72
461.39	1370.09
461.60	1392.62
461.80	1341.42
462.00	1372.14
462.21	1318.89
462.41	1290.22
462.61	1372.14
462.82	1390.57
463.02	1335.28
463.22	1290.22
463.43	1318.89
463.63	1329.13
463.83	1355.76
464.04	1372.14
464.24	1415.15
464.44	1290.22
464.64	1388.52
464.85	1431.53
465.05	1388.52
465.25	1325.04
465.46	1359.85
465.66	1452.01
465.86	1413.10
466.07	1286.12
466.27	1376.24
466.47	1368.04
466.68	1378.28
466.88	1398.76
467.08	1406.95
467.29	1404.91
467.49	1355.76
467.69	1421.29
467.89	1392.62
468.10	1357.80
468.30	1396.71
468.50	1454.06
468.71	1423.34
468.91	1378.28
469.11	1488.87
469.31	1378.28
469.52	1290.22
469.72	1419.24
469.92	1458.15
470.13	1380.33
470.33	1454.06
470.53	1636.33
470.73	2080.74
470.94	2381.79
471.14	2369.50
471.34	2475.99
471.54	2240.48
471.75	1939.43
471.95	1904.61
472.15	1796.07
472.36	1859.56
472.56	1771.49
472.76	1732.58
472.96	1691.62
473.17	1597.42
473.37	1621.99
473.57	1613.80
473.77	1570.79
473.98	1447.91
474.18	1431.53
474.38	1523.69
474.58	1312.75
474.79	1351.66
474.99	1316.84
475.19	1357.80
475.39	1269.74
475.60	1353.71
475.80	1355.76
476.00	1394.67
476.20	1339.37
476.41	1388.52
476.61	1378.28
476.81	1437.67
477.01	1347.56
477.21	1415.15
477.42	1406.95
477.62	1300.46
477.82	1398.76
478.02	1349.61
478.23	1345.52
478.43	1306.60
478.63	1355.76
478.83	1353.71
479.03	1378.28
479.24	1439.72
479.44	1413.10
479.64	1294.32
479.84	1390.57
480.04	1370.09
480.25	1406.95
480.45	1406.95
480.65	1327.08
480.85	1415.15
481.06	1413.10
481.26	1333.23
481.46	1376.24
481.66	1437.67
481.86	1351.66
482.06	1374.19
482.27	1345.52
482.47	1380.33
482.67	1394.67
482.87	1312.75
483.07	1409.00
483.28	1343.47
483.48	1345.52
483.68	1398.76
483.88	1296.36
484.08	1228.78
484.29	1404.91
484.49	1325.04
484.69	1304.56
484.89	1462.25
485.09	1400.81
485.29	1394.67
485.50	1462.25
485.70	1351.66
485.90	1417.19
486.10	1380.33
486.30	1415.15
486.50	1378.28
486.71	1355.76
486.91	1415.15
487.11	1480.68
487.31	1306.60
487.51	1386.47
487.71	1343.47
487.91	1275.88
488.12	1306.60
488.32	1312.75
488.52	1357.80
488.72	1294.32
488.92	1343.47
489.12	1355.76
489.32	1374.19
489.53	1388.52
489.73	1331.18
489.93	1394.67
490.13	1419.24
490.33	1400.81
490.53	1378.28
490.73	1394.67
490.94	1388.52
491.14	1533.93
491.34	1662.95
491.54	2207.71
491.74	2602.97
491.94	2957.27
492.14	3127.25
492.34	2957.27
492.54	2600.92
492.75	2320.35
492.95	2160.61
493.15	2045.92
493.35	2004.96
493.55	1984.48
493.75	1920.99
493.95	1785.83
494.15	1806.31
494.35	1634.28
494.56	1576.94
494.76	1478.63
494.96	1456.11
495.16	1529.83
495.36	1368.04
495.56	1447.91
495.76	1368.04
495.96	1466.35
496.16	1363.95
496.36	1402.86
496.56	1452.01
496.77	1345.52
496.97	1409.00
497.17	1413.10
497.37	1249.26
497.57	1355.76
497.77	1378.28
497.97	1421.29
498.17	1372.14
498.37	1368.04
498.57	1409.00
498.77	1394.67
498.97	1327.08
499.17	1507.30
499.38	1337.32
499.58	1402.86
499.78	1404.91
499.98	1413.10
500.18	1394.67
500.38	1458.15
500.58	1734.63
500.78	2983.89
500.98	5474.22
501.18	7051.16
501.38	8079.24
501.58	8714.11
501.78	7481.23
501.98	5640.11
502.18	5015.48
502.38	4487.10
502.58	4122.56
502.78	3788.74
502.98	3604.42
503.18	3479.50
503.38	3379.15
503.59	3030.99
503.79	2820.05
503.99	2623.45
504.19	2408.41
504.39	2170.85
504.59	2027.49
504.79	1900.52
504.99	1820.64
505.19	1617.90
505.39	1603.56
505.59	1595.37
505.79	1583.08
505.99	1509.35
506.19	1433.58
506.39	1492.97
506.59	1363.95
506.79	1472.49
506.99	1490.92
507.19	1439.72
507.39	1437.67
507.59	1359.85
507.79	1374.19
507.99	1419.24
508.19	1382.38
508.39	1370.09
508.59	1404.91
508.79	1501.16
508.99	1443.82
509.19	1337.32
509.39	1447.91
509.59	1413.10
509.79	1351.66
509.99	1345.52
510.19	1398.76
510.39	1335.28
510.59	1308.65
510.79	1304.56
510.99	1339.37
511.19	1386.47
511.39	1406.95
511.59	1445.87
511.79	1423.34
511.99	1339.37
512.19	1445.87
512.38	1386.47
512.58	1386.47
512.78	1374.19
512.98	1466.35
513.18	1501.16
513.38	1370.09
513.58	1398.76
513.78	1325.04
513.98	1456.11
514.18	1400.81
514.38	1486.83
514.58	1429.48
514.78	1290.22
514.98	1359.85
515.18	1435.63
515.38	1316.84
515.58	1499.11
515.78	1351.66
515.98	1409.00
516.18	1366.00
516.38	1366.00
516.57	1341.42
516.77	1353.71
516.97	1337.32
517.17	1343.47
517.37	1269.74
517.57	1437.67
517.77	1359.85
517.97	1396.71
518.17	1372.14
518.37	1335.28
518.57	1337.32
518.77	1318.89
518.97	1368.04
519.16	1388.52
519.36	1386.47
519.56	1357.80
519.76	1443.82
519.96	1363.95
520.16	1435.63
520.36	1380.33
520.56	1396.71
520.76	1404.91
520.96	1335.28
521.16	1368.04
521.35	1505.26
521.55	1374.19
521.75	1445.87
521.95	1404.91
522.15	1327.08
522.35	1349.61
522.55	1337.32
522.75	1361.90
522.95	1380.33
523.14	1409.00
523.34	1380.33
523.54	1368.04
523.74	1380.33
523.94	1396.71
524.14	1351.66
524.34	1366.00
524.54	1468.39
524.73	1370.09
524.93	1357.80
525.13	1366.00
525.33	1292.27
525.53	1456.11
525.73	1411.05
525.93	1421.29
526.13	1370.09
526.32	1384.43
526.52	1472.49
526.72	1480.68
526.92	1374.19
527.12	1271.79
527.32	1304.56
527.52	1394.67
527.71	1384.43
527.91	1419.24
528.11	1376.24
528.31	1368.04
528.51	1331.18
528.71	1390.57
528.90	1368.04
529.10	1423.34
529.30	1435.63
529.50	1245.16
529.70	1400.81
529.90	1429.48
530.09	1351.66
530.29	1368.04
530.49	1310.70
530.69	1470.44
530.89	1347.56
531.09	1411.05
531.28	1388.52
531.48	1400.81
531.68	1382.38
531.88	1357.80
532.08	1349.61
532.28	1417.19
532.47	1388.52
532.67	1454.06
532.87	1335.28
533.07	1347.56
533.27	1437.67
533.46	1419.24
533.66	1456.11
533.86	1345.52
534.06	1447.91
534.26	1333.23
534.45	1359.85
534.65	1478.63
534.85	1429.48
535.05	1396.71
535.25	1411.05
535.44	1347.56
535.64	1380.33
535.84	1361.90
536.04	1331.18
536.24	1398.76
536.43	1345.52
536.63	1372.14
536.83	1355.76
537.03	1357.80
537.22	1411.05
537.42	1286.12
537.62	1413.10
537.82	1333.23
538.02	1368.04
538.21	1380.33
538.41	1441.77
538.61	1351.66
538.81	1341.42
539.00	1441.77
539.20	1361.90
539.40	1390.57
539.60	1368.04
539.79	1378.28
539.99	1347.56
540.19	1320.94
540.39	1392.62
540.58	1363.95
540.78	1484.78
540.98	1427.43
541.18	1374.19
541.37	1370.09
541.57	1341.42
541.77	1404.91
541.97	1406.95
542.16	1304.56
542.36	1331.18
542.56	1380.33
542.76	1458.15
542.95	1359.85
543.15	1441.77
543.35	1474.54
543.54	1343.47
543.74	1249.26
543.94	1386.47
544.14	1361.90
544.33	1329.13
544.53	1388.52
544.73	1392.62
544.93	1366.00
545.12	1417.19
545.32	1394.67
545.52	1343.47
545.71	1384.43
545.91	1368.04
546.11	1388.52
546.30	1363.95
546.50	1372.14
546.70	1441.77
546.90	1386.47
547.09	1277.93
547.29	1421.29
547.49	1366.00
547.68	1337.32
547.88	1366.00
548.08	1413.10
548.27	1646.57
548.47	1316.84
548.67	1374.19
548.87	1363.95
549.06	1427.43
549.26	1429.48
549.46	1402.86
549.65	1337.32
549.85	1382.38
550.05	1396.71
550.24	1390.57
550.44	1433.58
550.64	1339.37
550.83	1374.19
551.03	1431.53
551.23	1382.38
551.42	1370.09
551.62	1335.28
551.82	1355.76
552.01	1374.19
552.21	1523.69
552.41	1396.71
552.60	1343.47
552.80	1409.00
553.00	1374.19
553.19	1361.90
553.39	1505.26
553.59	1345.52
553.78	1392.62
553.98	1409.00
554.17	1310.70
554.37	1409.00
554.57	1380.33
554.76	1337.32
554.96	1316.84
555.16	1296.36
555.35	1355.76
555.55	1437.67
555.75	1435.63
555.94	1349.61
556.14	1294.32
556.33	1390.57
556.53	1427.43
556.73	1378.28
556.92	1384.43
557.12	1384.43
557.32	1415.15
557.51	1355.76
557.71	1361.90
557.90	1435.63
558.10	1400.81
558.30	1341.42
558.49	1409.00
558.69	1374.19
558.88	1284.08
559.08	1386.47
559.28	1370.09
559.47	1388.52
559.67	1439.72
559.86	1445.87
560.06	1404.91
560.26	1452.01
560.45	1376.24
560.65	1343.47
560.84	1415.15
561.04	1314.80
561.24	1411.05
561.43	1275.88
561.63	1421.29
561.82	1376.24
562.02	1406.95
562.22	1329.13
562.41	1406.95
562.61	1269.74
562.80	1372.14
563.00	1454.06
563.19	1366.00
563.39	1400.81
563.59	1286.12
563.78	1302.51
563.98	1341.42
564.17	1296.36
564.37	1316.84
564.56	1366.00
564.76	1339.37
564.96	1527.78
565.15	1376.24
565.35	1431.53
565.54	1363.95
565.74	1458.15
565.93	1409.00
566.13	1384.43
566.32	1349.61
566.52	1419.24
566.71	1357.80
566.91	1347.56
567.11	1464.30
567.30	1398.76
567.50	1368.04
567.69	1386.47
567.89	1382.38
568.08	1396.71
568.28	1402.86
568.47	1353.71
568.67	1409.00
568.86	1374.19
569.06	1376.24
569.25	1413.10
569.45	1357.80
569.64	1339.37
569.84	1374.19
570.04	1409.00
570.23	1347.56
570.43	1413.10
570.62	1413.10
570.82	1419.24
571.01	1366.00
571.21	1396.71
571.40	1247.21
571.60	1404.91
571.79	1402.86
571.99	1421.29
572.18	1339.37
572.38	1316.84
572.57	1300.46
572.77	1452.01
572.96	1447.91
573.16	1443.82
573.35	1347.56
573.55	1386.47
573.74	1468.39
573.94	1386.47
574.13	1406.95
574.33	1384.43
574.52	1439.72
574.71	1396.71
574.91	1400.81
575.10	1380.33
575.30	1331.18
575.49	1441.77
575.69	1380.33
575.88	1378.28
576.08	1486.83
576.27	1484.78
576.47	1433.58
576.66	1505.26
576.86	1466.35
577.05	1478.63
577.25	1359.85
577.44	1429.48
577.64	1415.15
577.83	1445.87
578.02	1329.13
578.22	1435.63
578.41	1486.83
578.61	1374.19
578.80	1392.62
579.00	1449.96
579.19	1374.19
579.39	1363.95
579.58	1431.53
579.77	1419.24
579.97	1394.67
580.16	1468.39
580.36	1497.07
580.55	1449.96
580.75	1443.82
580.94	1411.05
581.13	1478.63
581.33	1527.78
581.52	1425.39
581.72	1499.11
581.91	1548.26
582.11	1411.05
582.30	1464.30
582.49	1378.28
582.69	1525.74
582.88	1488.87
583.08	1386.47
583.27	1525.74
583.47	1435.63
583.66	1431.53
583.85	1366.00
584.05	1468.39
584.24	1443.82
584.44	1402.86
584.63	1425.39
584.82	1511.40
585.02	1538.02
585.21	1593.32
585.41	1601.51
585.60	1621.99
585.79	1646.57
585.99	1611.75
586.18	1624.04
586.37	1822.69
586.57	2717.65
586.76	8126.34
586.96	24092.30
587.15	41147.79
587.34	51694.83
587.54	59933.81
587.73	59698.29
587.93	45030.74
588.12	32583.18
588.31	26300.01
588.51	22511.27
588.70	19795.67
588.89	18501.35
589.09	17073.92
589.28	15888.14
589.47	14112.55
589.67	12545.86
589.86	10788.70
590.06	8613.76
590.25	6520.73
590.44	4947.89
590.64	3583.95
590.83	2779.09
591.02	2353.12
591.22	1978.34
591.41	1808.36
591.60	1609.70
591.80	1656.81
591.99	1519.59
592.18	1546.22
592.38	1470.44
592.57	1521.64
592.76	1464.30
592.96	1464.30
593.15	1443.82
593.34	1468.39
593.54	1431.53
593.73	1449.96
593.92	1490.92
594.12	1464.30
594.31	1380.33
594.50	1546.22
594.70	1478.63
594.89	1478.63
595.08	1398.76
595.28	1394.67
595.47	1488.87
595.66	1501.16
595.86	1404.91
596.05	1380.33
596.24	1384.43
596.43	1495.02
596.63	1456.11
596.82	1394.67
597.01	1427.43
597.21	1513.45
597.40	1417.19
597.59	1449.96
597.79	1441.77
597.98	1349.61
598.17	1376.24
598.36	1435.63
598.56	1415.15
598.75	1411.05
598.94	1447.91
599.14	1449.96
599.33	1347.56
599.52	1509.35
599.71	1378.28
599.91	1429.48
600.10	1396.71
600.29	1378.28
600.48	1353.71
600.68	1390.57
600.87	1372.14
601.06	1347.56
601.26	1394.67
601.45	1392.62
601.64	1417.19
601.83	1400.81
602.03	1392.62
602.22	1339.37
602.41	1431.53
602.60	1431.53
602.80	1535.98
602.99	1458.15
603.18	1400.81
603.37	1411.05
603.57	1413.10
603.76	1456.11
603.95	1460.20
604.14	1339.37
604.34	1341.42
604.53	1355.76
604.72	1388.52
604.91	1417.19
605.10	1396.71
605.30	1304.56
605.49	1437.67
605.68	1464.30
605.87	1398.76
606.07	1312.75
606.26	1370.09
606.45	1388.52
606.64	1435.63
606.84	1345.52
607.03	1392.62
607.22	1472.49
607.41	1456.11
607.60	1441.77
607.80	1445.87
607.99	1433.58
608.18	1433.58
608.37	1429.48
608.56	1402.86
608.76	1470.44
608.95	1474.54
609.14	1413.10
609.33	1560.55
609.52	1540.07
609.72	1476.59
609.91	1488.87
610.10	1452.01
610.29	1402.86
610.48	1464.30
610.68	1384.43
610.87	1404.91
611.06	1400.81
611.25	1394.67
611.44	1441.77
611.63	1359.85
611.83	1472.49
612.02	1255.40
612.21	1472.49
612.40	1368.04
612.59	1394.67
612.79	1386.47
612.98	1318.89
613.17	1384.43
613.36	1382.38
613.55	1492.97
613.74	1472.49
613.93	1525.74
614.13	1619.94
614.32	1587.18
614.51	1578.98
614.70	1515.50
614.89	1466.35
615.08	1531.88
615.28	1720.29
615.47	1411.05
615.66	1574.89
615.85	1517.54
616.04	1574.89
616.23	1507.30
616.42	1466.35
616.62	1421.29
616.81	1535.98
617.00	1490.92
617.19	1460.20
617.38	1404.91
617.57	1429.48
617.76	1421.29
617.95	1482.73
618.15	1449.96
618.34	1525.74
618.53	1325.04
618.72	1392.62
618.91	1312.75
619.10	1429.48
619.29	1435.63
619.48	1343.47
619.68	1390.57
619.87	1398.76
620.06	1351.66
620.25	1427.43
620.44	1343.47
620.63	1429.48
620.82	1394.67
621.01	1437.67
621.20	1396.71
621.39	1413.10
621.59	1361.90
621.78	1402.86
621.97	1454.06
622.16	1425.39
622.35	1318.89
622.54	1456.11
622.73	1423.34
622.92	1298.41
623.11	1325.04
623.30	1325.04
623.49	1374.19
623.68	1431.53
623.88	1390.57
624.07	1398.76
624.26	1366.00
624.45	1366.00
624.64	1269.74
624.83	1384.43
625.02	1361.90
625.21	1335.28
625.40	1419.24
625.59	1431.53
625.78	1404.91
625.97	1495.02
626.16	1445.87
626.35	1535.98
626.54	1449.96
626.74	1535.98
626.93	1513.45
627.12	1464.30
627.31	1554.41
627.50	1425.39
627.69	1456.11
627.88	1413.10
628.07	1341.42
628.26	1361.90
628.45	1361.90
628.64	1359.85
628.83	1398.76
629.02	1456.11
629.21	1396.71
629.40	1443.82
629.59	1374.19
629.78	1429.48
629.97	1320.94
630.16	1488.87
630.35	1421.29
630.54	1454.06
630.73	1361.90
630.92	1333.23
631.11	1361.90
631.30	1374.19
631.49	1351.66
631.68	1427.43
631.87	1490.92
632.06	1284.08
632.25	1458.15
632.44	1359.85
632.63	1404.91
632.82	1433.58
633.01	1415.15
633.20	1505.26
633.39	1480.68
633.58	1441.77
633.77	1517.54
633.96	1431.53
634.15	1484.78
634.34	1462.25
634.53	1435.63
634.72	1394.67
634.91	1302.51
635.10	1423.34
635.29	1415.15
635.48	1390.57
635.67	1404.91
635.86	1380.33
636.05	1476.59
636.24	1400.81
636.43	1439.72
636.62	1415.15
636.81	1253.36
637.00	1374.19
637.19	1419.24
637.38	1249.26
637.57	1390.57
637.76	1398.76
637.95	1421.29
638.14	1404.91
638.33	1515.50
638.52	1527.78
638.71	1427.43
638.89	1388.52
639.08	1404.91
639.27	1398.76
639.46	1464.30
639.65	1699.81
639.84	1873.89
640.03	2027.49
640.22	2007.01
640.41	2160.61
640.60	1927.14
640.79	1777.64
640.98	1669.09
641.17	1587.18
641.36	1581.03
641.55	1576.94
641.74	1499.11
641.92	1497.07
642.11	1394.67
642.30	1533.93
642.49	1478.63
642.68	1452.01
642.87	1421.29
643.06	1435.63
643.25	1456.11
643.44	1347.56
643.63	1378.28
643.82	1400.81
644.00	1331.18
644.19	1400.81
644.38	1304.56
644.57	1380.33
644.76	1445.87
644.95	1368.04
645.14	1304.56
645.33	1390.57
645.52	1351.66
645.71	1384.43
645.89	1318.89
646.08	1380.33
646.27	1380.33
646.46	1415.15
646.65	1378.28
646.84	1380.33
647.03	1347.56
647.22	1417.19
647.40	1384.43
647.59	1331.18
647.78	1357.80
647.97	1392.62
648.16	1374.19
648.35	1372.14
648.54	1462.25
648.73	1415.15
648.91	1476.59
649.10	1345.52
649.29	1331.18
649.48	1423.34
649.67	1392.62
649.86	1357.80
650.05	1374.19
650.23	1517.54
650.42	1492.97
650.61	1662.95
650.80	1640.42
650.99	1650.66
651.18	1626.09
651.36	1480.68
651.55	1400.81
651.74	1464.30
651.93	1415.15
652.12	1419.24
652.31	1402.86
652.49	1411.05
652.68	1417.19
652.87	1427.43
653.06	1366.00
653.25	1581.03
653.44	1409.00
653.62	1417.19
653.81	1478.63
654.00	1388.52
654.19	1386.47
654.38	1441.77
654.56	1376.24
654.75	1398.76
654.94	1421.29
655.13	1404.91
655.32	1355.76
655.51	1429.48
655.69	1343.47
655.88	1384.43
656.07	1411.05
656.26	1423.34
656.45	1419.24
656.63	1382.38
656.82	1384.43
657.01	1392.62
657.20	1355.76
657.38	1462.25
657.57	1318.89
657.76	1312.75
657.95	1431.53
658.14	1406.95
658.32	1347.56
658.51	1380.33
658.70	1411.05
658.89	1390.57
659.08	1327.08
659.26	1392.62
659.45	1398.76
659.64	1486.83
659.83	1341.42
660.01	1552.36
660.20	1454.06
660.39	1527.78
660.58	1392.62
660.76	1368.04
660.95	1347.56
661.14	1363.95
661.33	1341.42
661.51	1370.09
661.70	1468.39
661.89	1417.19
662.08	1376.24
662.26	1382.38
662.45	1366.00
662.64	1472.49
662.83	1423.34
663.01	1384.43
663.20	1380.33
663.39	1359.85
663.58	1386.47
663.76	1370.09
663.95	1386.47
664.14	1335.28
664.32	1327.08
664.51	1312.75
664.70	1322.99
664.89	1359.85
665.07	1329.13
665.26	1345.52
665.45	1310.70
665.64	1411.05
665.82	1404.91
666.01	1327.08
666.20	1351.66
666.38	1443.82
666.57	1433.58
666.76	1529.83
666.95	2121.70
667.13	4396.99
667.32	11487.06
667.51	17917.68
667.69	21651.13
667.88	24946.31
668.07	24721.03
668.25	18960.09
668.44	13545.27
668.63	11132.76
668.81	9115.51
669.00	7892.87
669.19	7477.13
669.38	6967.19
669.56	6186.91
669.75	5377.97
669.94	4921.27
670.12	4241.34
670.31	3547.08
670.50	3026.90
670.68	2414.56
670.87	2105.31
671.06	1847.27
671.24	1667.05
671.43	1572.84
671.62	1566.70
671.80	1495.02
671.99	1497.07
672.18	1452.01
672.36	1474.54
672.55	1452.01
672.74	1384.43
672.92	1347.56
673.11	1392.62
673.29	1298.41
673.48	1464.30
673.67	1331.18
673.85	1396.71
674.04	1380.33
674.23	1335.28
674.41	1359.85
674.60	1355.76
674.79	1361.90
674.97	1415.15
675.16	1366.00
675.34	1351.66
675.53	1318.89
675.72	1327.08
675.90	1437.67
676.09	1361.90
676.28	1441.77
676.46	1318.89
676.65	1423.34
676.83	1294.32
677.02	1433.58
677.21	1411.05
677.39	1300.46
677.58	1351.66
677.77	1409.00
677.95	1333.23
678.14	1273.84
678.32	1363.95
678.51	1349.61
678.70	1413.10
678.88	1312.75
679.07	1376.24
679.25	1411.05
679.44	1378.28
679.63	1370.09
679.81	1378.28
680.00	1351.66
680.18	1423.34
680.37	1474.54
680.55	1382.38
680.74	1368.04
680.93	1290.22
681.11	1304.56
681.30	1441.77
681.48	1439.72
681.67	1353.71
681.85	1406.95
682.04	1359.85
682.23	1357.80
682.41	1392.62
682.60	1333.23
682.78	1433.58
682.97	1353.71
683.15	1286.12
683.34	1429.48
683.53	1396.71
683.71	1341.42
683.90	1445.87
684.08	1404.91
684.27	1361.90
684.45	1347.56
684.64	1363.95
684.82	1316.84
685.01	1372.14
685.19	1406.95
685.38	1452.01
685.57	1386.47
685.75	1339.37
685.94	1398.76
686.12	1282.03
686.31	1327.08
686.49	1351.66
686.68	1302.51
686.86	1419.24
687.05	1347.56
687.23	1402.86
687.42	1359.85
687.60	1329.13
687.79	1370.09
687.97	1437.67
688.16	1374.19
688.34	1380.33
688.53	1273.84
688.71	1370.09
688.90	1374.19
689.08	1378.28
689.27	1306.60
689.45	1339.37
689.64	1419.24
689.82	1366.00
690.01	1441.77
690.19	1388.52
690.38	1374.19
690.56	1458.15
690.75	1368.04
690.93	1355.76
691.12	1347.56
691.30	1374.19
691.49	1251.31
691.67	1396.71
691.86	1464.30
692.04	1376.24
692.23	1359.85
692.41	1292.27
692.60	1474.54
692.78	1495.02
692.97	1372.14
693.15	1495.02
693.34	1544.17
693.52	1533.93
693.71	1363.95
693.89	1359.85
694.08	1325.04
694.26	1366.00
694.44	1376.24
694.63	1388.52
694.81	1331.18
695.00	1388.52
695.18	1433.58
695.37	1484.78
695.55	1404.91
695.74	1413.10
695.92	1335.28
696.10	1417.19
696.29	1255.40
696.47	1327.08
696.66	1347.56
696.84	1325.04
697.03	1443.82
697.21	1419.24
697.40	1765.35
697.58	1388.52
697.76	1376.24
697.95	1372.14
698.13	1329.13
698.32	1419.24
698.50	1384.43
698.68	1425.39
698.87	1384.43
699.05	1409.00
699.24	1355.76
699.42	1378.28
699.61	1366.00
699.79	1386.47
699.97	1429.48
700.16	1318.89
700.34	1327.08
700.53	1370.09
700.71	1347.56
700.89	1310.70
701.08	1304.56
701.26	1445.87
701.45	1599.46
701.63	1398.76
701.81	1343.47
702.00	1411.05
702.18	1406.95
702.37	1378.28
702.55	1411.05
702.73	1439.72
702.92	1585.13
703.10	1699.81
703.28	1722.34
703.47	1699.81
703.65	1712.10
703.84	1572.84
704.02	1492.97
704.20	1525.74
704.39	1468.39
704.57	1492.97
704.75	1437.67
704.94	1468.39
705.12	1454.06
705.30	1480.68
705.49	1519.59
705.67	1718.25
705.86	3475.40
706.04	9248.63
706.22	16154.38
706.41	19863.25
706.59	22492.84
706.77	23615.13
706.96	19992.27
707.14	13827.88
707.32	11315.03
707.51	9197.43
707.69	8085.38
707.87	7407.50
708.06	6737.82
708.24	6141.86
708.42	5001.14
708.61	3952.58
708.79	3098.58
708.97	2330.59
709.16	2035.68
709.34	1804.26
709.52	1619.94
709.71	1591.27
709.89	1517.54
710.07	1386.47
710.26	1398.76
710.44	1372.14
710.62	1437.67
710.80	1378.28
710.99	1431.53
711.17	1458.15
711.35	1361.90
711.54	1404.91
711.72	1417.19
711.90	1513.45
712.09	1376.24
712.27	1353.71
712.45	1437.67
712.63	1366.00
712.82	1382.38
713.00	1386.47
713.18	1429.48
713.37	1406.95
713.55	1433.58
713.73	1400.81
713.91	1386.47
714.10	1353.71
714.28	1378.28
714.46	1417.19
714.65	1402.86
714.83	1351.66
715.01	1374.19
715.19	1351.66
715.38	1292.27
715.56	1325.04
715.74	1374.19
715.92	1331.18
716.11	1374.19
716.29	1290.22
716.47	1355.76
716.65	1374.19
716.84	1351.66
717.02	1376.24
717.20	1298.41
717.38	1331.18
717.57	1376.24
717.75	1392.62
717.93	1351.66
718.11	1378.28
718.30	1368.04
718.48	1433.58
718.66	1435.63
718.84	1419.24
719.03	1413.10
719.21	1279.98
719.39	1345.52
719.57	1417.19
719.75	1392.62
719.94	1366.00
720.12	1411.05
720.30	1259.50
720.48	1466.35
720.67	1374.19
720.85	1312.75
721.03	1314.80
721.21	1318.89
721.39	1441.77
721.58	1351.66
721.76	1345.52
721.94	1366.00
722.12	1366.00
722.30	1392.62
722.49	1406.95
722.67	1380.33
722.85	1411.05
723.03	1378.28
723.21	1316.84
723.40	1435.63
723.58	1404.91
723.76	1370.09
723.94	1331.18
724.12	1382.38
724.30	1486.83
724.49	1486.83
724.67	1480.68
724.85	1503.21
725.03	1413.10
725.21	1509.35
725.40	1343.47
725.58	1378.28
725.76	1415.15
725.94	1378.28
726.12	1329.13
726.30	1359.85
726.49	1423.34
726.67	1308.65
726.85	1349.61
727.03	1421.29
727.21	1439.72
727.39	1570.79
727.57	2068.45
727.76	3497.93
727.94	4435.90
728.12	4941.75
728.30	5382.06
728.48	4984.76
728.66	4237.25
728.84	3446.73
729.03	3117.01
729.21	2897.88
729.39	2514.91
729.57	2220.00
729.75	1902.56
729.93	1798.12
730.11	1624.04
730.30	1546.22
730.48	1523.69
730.66	1523.69
730.84	1402.86
731.02	1394.67
731.20	1312.75
731.38	1474.54
731.56	1316.84
731.74	1402.86
731.93	1320.94
732.11	1316.84
732.29	1411.05
732.47	1343.47
732.65	1441.77
732.83	1409.00
733.01	1355.76
733.19	1304.56
733.37	1390.57
733.56	1392.62
733.74	1355.76
733.92	1441.77
734.10	1382.38
734.28	1413.10
734.46	1318.89
734.64	1384.43
734.82	1343.47
735.00	1298.41
735.18	1366.00
735.36	1402.86
735.54	1337.32
735.73	1394.67
735.91	1347.56
736.09	1318.89
736.27	1347.56
736.45	1392.62
736.63	1306.60
736.81	1386.47
736.99	1296.36
737.17	1419.24
737.35	1347.56
737.53	1335.28
737.71	1316.84
737.89	1411.05
738.07	1335.28
738.25	1363.95
738.43	1341.42
738.61	1382.38
738.80	1363.95
738.98	1353.71
739.16	1331.18
739.34	1251.31
739.52	1431.53
739.70	1316.84
739.88	1433.58
740.06	1427.43
740.24	1316.84
740.42	1417.19
740.60	1300.46
740.78	1298.41
740.96	1304.56
741.14	1366.00
741.32	1423.34
741.50	1404.91
741.68	1447.91
741.86	1384.43
742.04	1331.18
742.22	1329.13
742.40	1429.48
742.58	1325.04
742.76	1333.23
742.94	1437.67
743.12	1341.42
743.30	1380.33
743.48	1421.29
743.66	1302.51
743.84	1368.04
744.02	1363.95
744.20	1331.18
744.38	1351.66
744.56	1458.15
744.74	1476.59
744.92	1419.24
745.10	1402.86
745.28	1415.15
745.46	1437.67
745.64	1351.66
745.82	1454.06
746.00	1347.56
746.18	1363.95
746.36	1366.00
746.54	1314.80
746.72	1458.15
746.90	1269.74
747.08	1419.24
747.26	1390.57
747.44	1363.95
747.62	1331.18
747.80	1445.87
747.98	1423.34
748.15	1351.66
748.33	1421.29
748.51	1339.37
748.69	1445.87
748.87	1343.47
749.05	1394.67
749.23	1386.47
749.41	1384.43
749.59	1370.09
749.77	1384.43
749.95	1386.47
750.13	1267.69
750.31	1382.38
750.49	1366.00
750.67	1396.71
750.85	1433.58
751.03	1378.28
751.20	1427.43
751.38	1372.14
751.56	1359.85
751.74	1329.13
751.92	1306.60
752.10	1359.85
752.28	1402.86
752.46	1292.27
752.64	1296.36
752.82	1370.09
753.00	1339.37
753.18	1386.47
753.35	1300.46
753.53	1390.57
753.71	1370.09
753.89	1411.05
754.07	1396.71
754.25	1384.43
754.43	1413.10
754.61	1320.94
754.79	1454.06
754.97	1353.71
755.14	1335.28
755.32	1363.95
755.50	1402.86
755.68	1400.81
755.86	1378.28
756.04	1320.94
756.22	1382.38
756.40	1329.13
756.57	1449.96
756.75	1296.36
756.93	1492.97
757.11	1472.49
757.29	1271.79
757.47	1409.00
757.65	1374.19
757.82	1331.18
758.00	1384.43
758.18	1314.80
758.36	1361.90
758.54	1370.09
758.72	1343.47
758.90	1413.10
759.07	1384.43
759.25	1327.08
759.43	1368.04
759.61	1284.08
759.79	1673.19
759.97	1345.52
760.15	1351.66
760.32	1273.84
760.50	1355.76
760.68	1421.29
760.86	1312.75
761.04	1378.28
761.22	1368.04
761.39	1388.52
761.57	1331.18
761.75	1361.90
761.93	1359.85
762.11	1363.95
762.28	1341.42
762.46	1374.19
762.64	1357.80
762.82	1286.12
763.00	1411.05
763.18	1386.47
763.35	1298.41
763.53	1355.76
763.71	1347.56
763.89	1357.80
764.07	1357.80
764.24	1353.71
764.42	1322.99
764.60	1380.33
764.78	1322.99
764.96	1318.89
765.13	1361.90
765.31	1394.67
765.49	1335.28
765.67	1380.33
765.84	1359.85
766.02	1345.52
766.20	1320.94
766.38	1370.09
766.56	1427.43
766.73	1406.95
766.91	1279.98
767.09	1337.32
767.27	1378.28
767.44	1308.65
767.62	1374.19
767.80	1431.53
767.98	1361.90
768.15	1372.14
768.33	1425.39
768.51	1394.67
768.69	1318.89
768.87	1404.91
769.04	1343.47
769.22	1429.48
769.40	1386.47
769.58	1564.65
769.75	1427.43
769.93	1413.10
770.11	1421.29
770.28	1296.36
770.46	1398.76
770.64	1327.08
770.82	1353.71
770.99	1361.90
771.17	1374.19
771.35	1310.70
771.53	1339.37
771.70	1388.52
771.88	1376.24
772.06	1312.75
772.23	1341.42
772.41	1396.71
772.59	1327.08
772.77	1298.41
772.94	1366.00
773.12	1345.52
773.30	1294.32
773.47	1325.04
773.65	1374.19
773.83	1327.08
774.01	1361.90
774.18	1263.60
774.36	1306.60
774.54	1314.80
774.71	1347.56
774.89	1325.04
775.07	1335.28
775.24	1331.18
775.42	1370.09
775.60	1349.61
775.78	1384.43
775.95	1288.17
776.13	1284.08
776.31	1290.22
776.48	1318.89
776.66	1404.91
776.84	1427.43
777.01	1361.90
777.19	1277.93
777.37	1347.56
777.54	1372.14
777.72	1404.91
777.90	1300.46
778.07	1388.52
778.25	1480.68
778.43	1400.81
778.60	1368.04
778.78	1374.19
778.96	1415.15
779.13	1337.32
779.31	1361.90
779.49	1327.08
779.66	1384.43
779.84	1390.57
780.01	1380.33
780.19	1318.89
780.37	1486.83
780.54	1341.42
780.72	1361.90
780.90	1380.33
781.07	1361.90
781.25	1357.80
781.43	1343.47
781.60	1345.52
781.78	1429.48
781.95	1409.00
782.13	1265.64
782.31	1359.85
782.48	1310.70
782.66	1363.95
782.83	1445.87
783.01	1318.89
783.19	1357.80
783.36	1435.63
783.54	1359.85
783.72	1390.57
783.89	1357.80
784.07	1386.47
784.24	1302.51
784.42	1425.39
784.60	1460.20
784.77	1382.38
784.95	1286.12
785.12	1376.24
785.30	1339.37
785.47	1357.80
785.65	1277.93
785.83	1337.32
786.00	1327.08
786.18	1261.55
786.35	1222.64
786.53	1318.89
786.71	1398.76
786.88	1341.42
787.06	1341.42
787.23	1357.80
787.41	1366.00
787.58	1454.06
787.76	1357.80
787.94	1351.66
788.11	1288.17
788.29	1435.63
788.46	1331.18
788.64	1359.85
788.81	1404.91
788.99	1273.84
789.16	1402.86
789.34	1382.38
789.52	1310.70
789.69	1327.08
789.87	1257.45
790.04	1296.36
790.22	1370.09
790.39	1447.91
790.57	1343.47
790.74	1413.10
790.92	1435.63
791.09	1333.23
791.27	1370.09
791.44	1413.10
791.62	1314.80
791.79	1419.24
791.97	1368.04
792.15	1484.78
792.32	1468.39
792.50	1351.66
792.67	1441.77
792.85	1357.80
793.02	1376.24
793.20	1380.33
793.37	1345.52
793.55	1370.09
793.72	1353.71
793.90	1421.29
794.07	1269.74
794.25	1353.71
794.42	1359.85
794.60	1339.37
794.77	1415.15
794.95	1366.00
795.12	1345.52
795.30	1366.00
795.47	1322.99
795.65	1462.25
795.82	1454.06
796.00	1327.08
796.17	1421.29
796.34	1294.32
796.52	1351.66
796.69	1349.61
796.87	1374.19
797.04	1308.65
797.22	1351.66
797.39	1339.37
797.57	1460.20
797.74	1296.36
797.92	1341.42
798.09	1300.46
798.27	1376.24
798.44	1372.14
798.62	1316.84
798.79	1366.00
798.96	1353.71
799.14	1398.76
799.31	1443.82
799.49	1345.52
799.66	1388.52
799.84	1423.34
800.01	1314.80
800.19	1378.28
800.36	1294.32
800.53	1386.47
800.71	1447.91
800.88	1396.71
801.06	1343.47
801.23	1290.22
801.41	1363.95
801.58	1363.95
801.75	1327.08
801.93	1409.00
802.10	1429.48
802.28	1310.70
802.45	1417.19
802.63	1359.85
802.80	1454.06
802.97	1368.04
803.15	1298.41
803.32	1341.42
803.50	1347.56
803.67	1286.12
803.84	1398.76
804.02	1298.41
804.19	1316.84
804.37	1320.94
804.54	1318.89
804.71	1359.85
804.89	1349.61
805.06	1275.88
805.24	1329.13
805.41	1355.76
805.58	1390.57
805.76	1458.15
805.93	1331.18
806.10	1413.10
806.28	1357.80
806.45	1435.63
806.63	1421.29
806.80	1409.00
806.97	1320.94
807.15	1419.24
807.32	1331.18
807.49	1372.14
807.67	1282.03
807.84	1400.81
808.01	1339.37
808.19	1499.11
808.36	1452.01
808.54	1355.76
808.71	1310.70
808.88	1345.52
809.06	1411.05
809.23	1380.33
809.40	1347.56
809.58	1468.39
809.75	1359.85
809.92	1355.76
810.10	1372.14
810.27	1384.43
810.44	1296.36
810.62	1392.62
810.79	1417.19
810.96	1339.37
811.14	1341.42
811.31	1353.71
811.48	1331.18
811.66	1386.47
811.83	1318.89
812.00	1409.00
812.18	1359.85
812.35	1384.43
812.52	1439.72
812.69	1392.62
812.87	1411.05
813.04	1312.75
813.21	1329.13
813.39	1310.70
813.56	1316.84
813.73	1343.47
813.91	1249.26
814.08	1347.56
814.25	1325.04
814.42	1353.71
814.60	1349.61
814.77	1374.19
814.94	1361.90
815.12	1337.32
815.29	1404.91
815.46	1372.14
815.63	1320.94
815.81	1298.41
815.98	1351.66
816.15	1404.91
816.33	1357.80
816.50	1378.28
816.67	1361.90
816.84	1380.33
817.02	1322.99
817.19	1454.06
817.36	1449.96
817.53	1378.28
817.71	1404.91
817.88	1361.90
818.05	1327.08
818.22	1298.41
818.40	1425.39
818.57	1318.89
818.74	1351.66
818.91	1304.56
819.09	1329.13
819.26	1386.47
819.43	1400.81
819.60	1415.15
819.78	1429.48
819.95	1361.90
820.12	1335.28
820.29	1425.39
820.47	1417.19
820.64	1409.00
820.81	1380.33
820.98	1322.99
821.15	1368.04
821.33	1470.44
821.50	1288.17
821.67	1370.09
821.84	1331.18
822.02	1413.10
822.19	1417.19
822.36	1284.08
822.53	1417.19
822.70	1355.76
822.88	1327.08
823.05	1374.19
823.22	1435.63
823.39	1322.99
823.56	1327.08
823.74	1452.01
823.91	1304.56
824.08	1337.32
824.25	1308.65
824.42	1366.00
824.60	1337.32
824.77	1413.10
824.94	1363.95
825.11	1380.33
825.28	1329.13
825.45	1333.23
825.63	1345.52
825.80	1320.94
825.97	1316.84
826.14	1437.67
826.31	1380.33
826.48	1386.47
826.66	1322.99
826.83	1355.76
827.00	1302.51
827.17	1345.52
827.34	1398.76
827.51	1335.28
827.69	1341.42
827.86	1320.94
828.03	1394.67
828.20	1411.05
828.37	1241.07
828.54	1382.38
828.71	1329.13
828.89	1447.91
829.06	1452.01
829.23	1427.43
829.40	1277.93
829.57	1327.08
829.74	1390.57
829.91	1284.08
830.09	1359.85
830.26	1441.77
830.43	1433.58
830.60	1366.00
830.77	1368.04
830.94	1449.96
831.11	1429.48
831.28	1353.71
831.46	1413.10
831.63	1279.98
831.80	1431.53
831.97	1306.60
832.14	1333.23
832.31	1429.48
832.48	1370.09
832.65	1431.53
832.82	1382.38
832.99	1333.23
833.17	1306.60
833.34	1439.72
833.51	1343.47
833.68	1337.32
833.85	1404.91
834.02	1378.28
834.19	1302.51
834.36	1241.07
834.53	1363.95
834.70	1396.71
834.87	1458.15
835.04	1406.95
835.22	1316.84
835.39	1378.28
835.56	1298.41
835.73	1288.17
835.90	1394.67
836.07	1259.50
836.24	1404.91
836.41	1378.28
836.58	1267.69
836.75	1404.91
836.92	1378.28
837.09	1300.46
837.26	1419.24
837.43	1372.14
837.60	1392.62
837.77	1409.00
837.94	1404.91
838.12	1396.71
838.29	1347.56
838.46	1327.08
838.63	1312.75
838.80	1474.54
838.97	1409.00
839.14	1310.70
839.31	1363.95
839.48	1357.80
839.65	1339.37
839.82	1378.28
839.99	1388.52
840.16	1370.09
840.33	1318.89
840.50	1431.53
840.67	1306.60
840.84	1275.88
841.01	1390.57
841.18	1339.37
841.35	1357.80
841.52	1435.63
841.69	1400.81
841.86	1380.33
842.03	1361.90
842.20	1331.18
842.37	1320.94
842.54	1355.76
842.71	1363.95
842.88	1288.17
843.05	1431.53
843.22	1329.13
843.39	1398.76
843.56	1335.28
843.73	1423.34
843.90	1322.99
844.07	1382.38
844.24	1404.91
844.41	1341.42
844.58	1339.37
844.75	1339.37
844.92	1406.95
845.09	1421.29
845.26	1368.04
845.43	1331.18
845.60	1300.46
845.77	1464.30
845.94	1421.29
846.10	1441.77
846.27	1320.94
846.44	1343.47
846.61	1384.43
846.78	1331.18
846.95	1427.43
847.12	1335.28
847.29	1351.66
847.46	1267.69
847.63	1380.33
847.80	1286.12
847.97	1388.52
848.14	1382.38
848.31	1359.85
848.48	1318.89
848.65	1425.39
848.82	1294.32
848.98	1435.63
849.15	1429.48
849.32	1452.01
849.49	1361.90
849.66	1316.84
849.83	1429.48
850.00	1286.12
850.17	1374.19
850.34	1363.95
850.51	1318.89
850.68	1361.90
850.85	1437.67
851.01	1406.95
851.18	1394.67
851.35	1335.28
851.52	1392.62
851.69	1400.81
851.86	1329.13
852.03	1349.61
852.20	1415.15
852.37	1376.24
852.53	1351.66
852.70	1325.04
852.87	1343.47
853.04	1435.63
853.21	1368.04
853.38	1425.39
853.55	1472.49
853.72	1421.29
853.89	1327.08
854.05	1279.98
854.22	1394.67
854.39	1361.90
854.56	1333.23
854.73	1402.86
854.90	1363.95
855.07	1339.37
855.23	1314.80
855.40	1339.37
855.57	1368.04
855.74	1316.84
855.91	1411.05
856.08	1368.04
856.25	1267.69
856.41	1320.94
856.58	1345.52
856.75	1322.99
856.92	1292.27
857.09	1382.38
857.26	1322.99
857.42	1355.76
857.59	1378.28
857.76	1425.39
857.93	1374.19
858.10	1452.01
858.27	1288.17
858.43	1339.37
858.60	1384.43
858.77	1239.02
858.94	1337.32
859.11	1433.58
859.27	1380.33
859.44	1372.14
859.61	1431.53
859.78	1296.36
859.95	1366.00
860.12	1322.99
860.28	1458.15
860.45	1386.47
860.62	1331.18
860.79	1370.09
860.95	1392.62
861.12	1339.37
861.29	1421.29
861.46	1302.51
861.63	1355.76
861.79	1359.85
861.96	1277.93
862.13	1372.14
862.30	1320.94
862.47	1398.76
862.63	1378.28
862.80	1443.82
862.97	1308.65
863.14	1353.71
863.30	1386.47
863.47	1337.32
863.64	1411.05
863.81	1386.47
863.97	1376.24
864.14	1357.80
864.31	1257.45
864.48	1386.47
864.65	1374.19
864.81	1353.71
864.98	1454.06
865.15	1368.04
865.32	1454.06
865.48	1415.15
865.65	1445.87
865.82	1325.04
865.98	1302.51
866.15	1370.09
866.32	1320.94
866.49	1366.00
866.65	1343.47
866.82	1331.18
866.99	1361.90
867.16	1372.14
867.32	1406.95
867.49	1337.32
867.66	1357.80
867.83	1404.91
867.99	1366.00
868.16	1314.80
868.33	1282.03
868.49	1372.14
868.66	1382.38
868.83	1351.66
868.99	1339.37
869.16	1396.71
869.33	1320.94
869.50	1411.05
869.66	1396.71
869.83	1400.81
870.00	1351.66
870.16	1417.19
870.33	1271.79
870.50	1425.39
870.66	1316.84
870.83	1353.71
871.00	1331.18
871.17	1396.71
871.33	1409.00
871.50	1400.81
871.67	1370.09
871.83	1359.85
872.00	1458.15
872.17	1347.56
872.33	1421.29
872.50	1417.19
872.67	1306.60
872.83	1404.91
873.00	1376.24
873.17	1347.56
873.33	1445.87
873.50	1372.14
873.67	1294.32
873.83	1366.00
874.00	1349.61
874.16	1460.20
874.33	1339.37
874.50	1359.85
874.66	1466.35
874.83	1413.10
875.00	1435.63
875.16	1439.72
875.33	1400.81
875.50	1259.50
875.66	1427.43
875.83	1329.13
875.99	1372.14
876.16	1382.38
876.33	1386.47
876.49	1361.90
876.66	1361.90
876.83	1366.00
876.99	1388.52
877.16	1366.00
877.32	1351.66
877.49	1331.18
877.66	1380.33
877.82	1396.71
877.99	1320.94
878.15	1443.82
878.32	1378.28
878.49	1378.28
878.65	1351.66
878.82	1394.67
878.98	1325.04
879.15	1382.38
879.32	1368.04
879.48	1431.53
879.65	1390.57
879.81	1361.90
879.98	1394.67
880.15	1449.96
880.31	1361.90
880.48	1288.17
880.64	1372.14
880.81	1404.91
880.97	1400.81
881.14	1458.15
881.31	1279.98
881.47	1421.29
881.64	1370.09
881.80	1333.23
881.97	1341.42
882.13	1400.81
882.30	1419.24
882.47	1368.04
882.63	1353.71
882.80	1341.42
882.96	1290.22
883.13	1466.35
883.29	1345.52
883.46	1386.47
883.62	1357.80
883.79	1339.37
883.95	1372.14
884.12	1359.85
884.29	1339.37
884.45	1347.56
884.62	1413.10
884.78	1288.17
884.95	1361.90
885.11	1353.71
885.28	1382.38
885.44	1304.56
885.61	1312.75
885.77	1368.04
885.94	1310.70
886.10	1376.24
886.27	1374.19
886.43	1472.49
886.60	1378.28
886.76	1347.56
886.93	1386.47
887.09	1411.05
887.26	1347.56
887.42	1374.19
887.59	1363.95
887.75	1374.19
887.92	1415.15
888.08	1339.37
888.25	1468.39
888.41	1386.47
888.58	1333.23
888.74	1372.14
888.91	1290.22
>>>>>End Processed Spectral Data<<<<<
