SpectraSuite Data File
++++++++++++++++++++++++++++++++++++
Date: Tue May 03 11:24:27 CEST 2016
User: root
Dark Spectrum Present: No
Reference Spectrum Present: No
Number of Sampled Component Spectra: 1
Spectrometers: USB4C02835
Integration Time (usec): 100000 (USB4C02835)
Spectra Averaged: 1 (USB4C02835)
Boxcar Smoothing: 0 (USB4C02835)
Correct for Electrical Dark: No (USB4C02835)
Strobe/Lamp Enabled: No (USB4C02835)
Correct for Detector Non-linearity: No (USB4C02835)
Correct for Stray Light: No (USB4C02835)
Number of Pixels in Processed Spectrum: 3648
>>>>>Begin Processed Spectral Data<<<<<
177.47	1228.78
177.69	1228.78
177.91	1228.78
178.13	1220.59
178.36	1265.64
178.58	1437.67
178.80	1388.52
179.02	1325.04
179.24	1327.08
179.46	1361.90
179.68	1421.29
179.90	1316.84
180.13	1376.24
180.35	1390.57
180.57	1386.47
180.79	1316.84
181.01	1380.33
181.23	1351.66
181.45	1421.29
181.67	1404.91
181.90	1372.14
182.12	1392.62
182.34	1382.38
182.56	1382.38
182.78	1355.76
183.00	1384.43
183.22	1417.19
183.44	1279.98
183.66	1503.21
183.89	1458.15
184.11	1386.47
184.33	1351.66
184.55	1445.87
184.77	1366.00
184.99	1406.95
185.21	1433.58
185.43	1427.43
185.65	1376.24
185.87	1402.86
186.10	1376.24
186.32	1390.57
186.54	1400.81
186.76	1388.52
186.98	1409.00
187.20	1308.65
187.42	1314.80
187.64	1347.56
187.86	1370.09
188.08	1353.71
188.30	1435.63
188.52	1359.85
188.75	1378.28
188.97	1402.86
189.19	1284.08
189.41	1370.09
189.63	1437.67
189.85	1359.85
190.07	1398.76
190.29	1304.56
190.51	1357.80
190.73	1296.36
190.95	1376.24
191.17	1357.80
191.39	1349.61
191.61	1294.32
191.84	1357.80
192.06	1419.24
192.28	1318.89
192.50	1482.73
192.72	1380.33
192.94	1265.64
193.16	1419.24
193.38	1376.24
193.60	1282.03
193.82	1363.95
194.04	1423.34
194.26	1363.95
194.48	1259.50
194.70	1368.04
194.92	1398.76
195.14	1314.80
195.36	1339.37
195.58	1320.94
195.80	1337.32
196.02	1415.15
196.24	1433.58
196.46	1427.43
196.69	1411.05
196.91	1460.20
197.13	1419.24
197.35	1396.71
197.57	1415.15
197.79	1443.82
198.01	1388.52
198.23	1449.96
198.45	1421.29
198.67	1302.51
198.89	1359.85
199.11	1384.43
199.33	1361.90
199.55	1308.65
199.77	1425.39
199.99	1384.43
200.21	1337.32
200.43	1380.33
200.65	1400.81
200.87	1306.60
201.09	1402.86
201.31	1363.95
201.53	1333.23
201.75	1363.95
201.97	1370.09
202.19	1355.76
202.41	1327.08
202.63	1460.20
202.85	1406.95
203.07	1366.00
203.29	1355.76
203.51	1339.37
203.73	1282.03
203.95	1425.39
204.17	1400.81
204.39	1378.28
204.61	1378.28
204.83	1333.23
205.05	1411.05
205.27	1406.95
205.49	1445.87
205.71	1322.99
205.93	1316.84
206.15	1404.91
206.37	1357.80
206.59	1320.94
206.81	1376.24
207.03	1282.03
207.25	1363.95
207.47	1359.85
207.69	1417.19
207.91	1347.56
208.13	1341.42
208.34	1345.52
208.56	1372.14
208.78	1347.56
209.00	1359.85
209.22	1304.56
209.44	1386.47
209.66	1306.60
209.88	1382.38
210.10	1263.60
210.32	1388.52
210.54	1398.76
210.76	1406.95
210.98	1433.58
211.20	1263.60
211.42	1370.09
211.64	1372.14
211.86	1390.57
212.08	1429.48
212.30	1353.71
212.52	1384.43
212.74	1415.15
212.96	1400.81
213.17	1370.09
213.39	1454.06
213.61	1462.25
213.83	1374.19
214.05	1327.08
214.27	1417.19
214.49	1345.52
214.71	1316.84
214.93	1384.43
215.15	1400.81
215.37	1417.19
215.59	1322.99
215.81	1351.66
216.03	1363.95
216.24	1429.48
216.46	1357.80
216.68	1361.90
216.90	1376.24
217.12	1378.28
217.34	1421.29
217.56	1355.76
217.78	1363.95
218.00	1390.57
218.22	1355.76
218.44	1312.75
218.66	1306.60
218.87	1378.28
219.09	1341.42
219.31	1384.43
219.53	1316.84
219.75	1400.81
219.97	1404.91
220.19	1318.89
220.41	1378.28
220.63	1472.49
220.85	1464.30
221.06	1314.80
221.28	1495.02
221.50	1402.86
221.72	1363.95
221.94	1406.95
222.16	1415.15
222.38	1325.04
222.60	1429.48
222.82	1366.00
223.03	1286.12
223.25	1327.08
223.47	1380.33
223.69	1474.54
223.91	1378.28
224.13	1351.66
224.35	1361.90
224.57	1499.11
224.78	1411.05
225.00	1351.66
225.22	1335.28
225.44	1353.71
225.66	1394.67
225.88	1374.19
226.10	1380.33
226.32	1363.95
226.53	1486.83
226.75	1398.76
226.97	1368.04
227.19	1361.90
227.41	1376.24
227.63	1310.70
227.85	1304.56
228.06	1349.61
228.28	1343.47
228.50	1316.84
228.72	1378.28
228.94	1292.27
229.16	1288.17
229.37	1335.28
229.59	1341.42
229.81	1495.02
230.03	1363.95
230.25	1396.71
230.47	1335.28
230.69	1286.12
230.90	1380.33
231.12	1363.95
231.34	1406.95
231.56	1423.34
231.78	1327.08
232.00	1382.38
232.21	1322.99
232.43	1296.36
232.65	1306.60
232.87	1376.24
233.09	1406.95
233.30	1400.81
233.52	1480.68
233.74	1366.00
233.96	1370.09
234.18	1341.42
234.40	1366.00
234.61	1429.48
234.83	1359.85
235.05	1335.28
235.27	1431.53
235.49	1460.20
235.70	1359.85
235.92	1460.20
236.14	1406.95
236.36	1419.24
236.58	1273.84
236.79	1384.43
237.01	1314.80
237.23	1349.61
237.45	1464.30
237.67	1263.60
237.88	1396.71
238.10	1394.67
238.32	1300.46
238.54	1402.86
238.76	1390.57
238.97	1419.24
239.19	1312.75
239.41	1501.16
239.63	1445.87
239.85	1372.14
240.06	1355.76
240.28	1314.80
240.50	1363.95
240.72	1396.71
240.93	1355.76
241.15	1400.81
241.37	1400.81
241.59	1468.39
241.81	1357.80
242.02	1445.87
242.24	1437.67
242.46	1380.33
242.68	1300.46
242.89	1357.80
243.11	1335.28
243.33	1409.00
243.55	1370.09
243.76	1380.33
243.98	1382.38
244.20	1357.80
244.42	1495.02
244.64	1308.65
244.85	1372.14
245.07	1304.56
245.29	1366.00
245.51	1421.29
245.72	1382.38
245.94	1411.05
246.16	1495.02
246.38	1419.24
246.59	1322.99
246.81	1341.42
247.03	1314.80
247.24	1370.09
247.46	1409.00
247.68	1388.52
247.90	1349.61
248.11	1361.90
248.33	1355.76
248.55	1282.03
248.77	1327.08
248.98	1349.61
249.20	1470.44
249.42	1298.41
249.64	1376.24
249.85	1374.19
250.07	1345.52
250.29	1359.85
250.50	1331.18
250.72	1312.75
250.94	1296.36
251.16	1413.10
251.37	1441.77
251.59	1452.01
251.81	1429.48
252.02	1402.86
252.24	1343.47
252.46	1394.67
252.68	1353.71
252.89	1347.56
253.11	1327.08
253.33	1460.20
253.54	1431.53
253.76	1312.75
253.98	1300.46
254.20	1378.28
254.41	1318.89
254.63	1349.61
254.85	1355.76
255.06	1368.04
255.28	1394.67
255.50	1329.13
255.71	1294.32
255.93	1368.04
256.15	1411.05
256.36	1404.91
256.58	1460.20
256.80	1388.52
257.02	1312.75
257.23	1378.28
257.45	1331.18
257.67	1435.63
257.88	1320.94
258.10	1433.58
258.32	1374.19
258.53	1388.52
258.75	1374.19
258.97	1421.29
259.18	1392.62
259.40	1390.57
259.62	1492.97
259.83	1384.43
260.05	1421.29
260.27	1562.60
260.48	1429.48
260.70	1353.71
260.92	1339.37
261.13	1314.80
261.35	1363.95
261.57	1388.52
261.78	1333.23
262.00	1363.95
262.22	1439.72
262.43	1359.85
262.65	1419.24
262.86	1386.47
263.08	1449.96
263.30	1349.61
263.51	1282.03
263.73	1341.42
263.95	1392.62
264.16	1304.56
264.38	1288.17
264.60	1421.29
264.81	1318.89
265.03	1378.28
265.25	1368.04
265.46	1351.66
265.68	1388.52
265.89	1343.47
266.11	1304.56
266.33	1413.10
266.54	1372.14
266.76	1380.33
266.98	1398.76
267.19	1409.00
267.41	1374.19
267.62	1413.10
267.84	1378.28
268.06	1333.23
268.27	1329.13
268.49	1370.09
268.70	1382.38
268.92	1353.71
269.14	1314.80
269.35	1337.32
269.57	1366.00
269.79	1472.49
270.00	1366.00
270.22	1382.38
270.43	1331.18
270.65	1349.61
270.87	1329.13
271.08	1423.34
271.30	1368.04
271.51	1409.00
271.73	1376.24
271.95	1400.81
272.16	1402.86
272.38	1402.86
272.59	1308.65
272.81	1374.19
273.02	1345.52
273.24	1388.52
273.46	1462.25
273.67	1345.52
273.89	1388.52
274.10	1351.66
274.32	1355.76
274.54	1349.61
274.75	1355.76
274.97	1312.75
275.18	1290.22
275.40	1347.56
275.61	1345.52
275.83	1366.00
276.05	1339.37
276.26	1343.47
276.48	1374.19
276.69	1296.36
276.91	1361.90
277.12	1429.48
277.34	1349.61
277.55	1380.33
277.77	1372.14
277.99	1370.09
278.20	1341.42
278.42	1384.43
278.63	1273.84
278.85	1380.33
279.06	1304.56
279.28	1353.71
279.49	1318.89
279.71	1413.10
279.93	1378.28
280.14	1394.67
280.36	1363.95
280.57	1404.91
280.79	1378.28
281.00	1390.57
281.22	1413.10
281.43	1454.06
281.65	1359.85
281.86	1359.85
282.08	1394.67
282.29	1394.67
282.51	1368.04
282.73	1390.57
282.94	1351.66
283.16	1409.00
283.37	1458.15
283.59	1333.23
283.80	1341.42
284.02	1302.51
284.23	1361.90
284.45	1404.91
284.66	1312.75
284.88	1329.13
285.09	1443.82
285.31	1429.48
285.52	1388.52
285.74	1282.03
285.95	1417.19
286.17	1361.90
286.38	1394.67
286.60	1267.69
286.81	1302.51
287.03	1357.80
287.24	1327.08
287.46	1411.05
287.67	1320.94
287.89	1445.87
288.10	1441.77
288.32	1359.85
288.53	1464.30
288.75	1282.03
288.96	1388.52
289.18	1267.69
289.39	1331.18
289.61	1421.29
289.82	1503.21
290.04	1386.47
290.25	1271.79
290.47	1382.38
290.68	1413.10
290.90	1370.09
291.11	1343.47
291.33	1318.89
291.54	1335.28
291.76	1325.04
291.97	1318.89
292.18	1409.00
292.40	1359.85
292.61	1372.14
292.83	1429.48
293.04	1441.77
293.26	1443.82
293.47	1298.41
293.69	1368.04
293.90	1357.80
294.12	1460.20
294.33	1357.80
294.55	1368.04
294.76	1394.67
294.97	1429.48
295.19	1386.47
295.40	1431.53
295.62	1386.47
295.83	1347.56
296.05	1402.86
296.26	1423.34
296.48	1343.47
296.69	1331.18
296.90	1355.76
297.12	1409.00
297.33	1372.14
297.55	1341.42
297.76	1318.89
297.98	1359.85
298.19	1427.43
298.41	1343.47
298.62	1374.19
298.83	1499.11
299.05	1376.24
299.26	1390.57
299.48	1349.61
299.69	1409.00
299.90	1353.71
300.12	1331.18
300.33	1372.14
300.55	1372.14
300.76	1413.10
300.98	1316.84
301.19	1413.10
301.40	1312.75
301.62	1368.04
301.83	1376.24
302.05	1341.42
302.26	1314.80
302.47	1396.71
302.69	1337.32
302.90	1456.11
303.12	1361.90
303.33	1366.00
303.54	1388.52
303.76	1390.57
303.97	1374.19
304.19	1388.52
304.40	1294.32
304.61	1347.56
304.83	1427.43
305.04	1417.19
305.26	1370.09
305.47	1394.67
305.68	1406.95
305.90	1335.28
306.11	1392.62
306.33	1359.85
306.54	1300.46
306.75	1374.19
306.97	1320.94
307.18	1351.66
307.39	1378.28
307.61	1353.71
307.82	1368.04
308.04	1386.47
308.25	1312.75
308.46	1337.32
308.68	1411.05
308.89	1316.84
309.10	1368.04
309.32	1400.81
309.53	1376.24
309.74	1343.47
309.96	1447.91
310.17	1384.43
310.39	1312.75
310.60	1419.24
310.81	1382.38
311.03	1335.28
311.24	1423.34
311.45	1368.04
311.67	1499.11
311.88	1345.52
312.09	1341.42
312.31	1398.76
312.52	1382.38
312.73	1349.61
312.95	1329.13
313.16	1337.32
313.37	1480.68
313.59	1439.72
313.80	1404.91
314.01	1427.43
314.23	1343.47
314.44	1345.52
314.65	1329.13
314.87	1335.28
315.08	1392.62
315.29	1386.47
315.51	1423.34
315.72	1288.17
315.93	1447.91
316.15	1409.00
316.36	1310.70
316.57	1273.84
316.79	1456.11
317.00	1411.05
317.21	1413.10
317.43	1372.14
317.64	1394.67
317.85	1417.19
318.07	1433.58
318.28	1495.02
318.49	1546.22
318.70	1589.22
318.92	1501.16
319.13	1533.93
319.34	1603.56
319.56	1435.63
319.77	1464.30
319.98	1449.96
320.20	1546.22
320.41	1468.39
320.62	1359.85
320.83	1372.14
321.05	1503.21
321.26	1472.49
321.47	1359.85
321.69	1419.24
321.90	1343.47
322.11	1374.19
322.32	1388.52
322.54	1322.99
322.75	1404.91
322.96	1427.43
323.18	1400.81
323.39	1257.45
323.60	1411.05
323.81	1406.95
324.03	1327.08
324.24	1409.00
324.45	1441.77
324.66	1351.66
324.88	1378.28
325.09	1472.49
325.30	1374.19
325.52	1363.95
325.73	1380.33
325.94	1298.41
326.15	1294.32
326.37	1370.09
326.58	1372.14
326.79	1359.85
327.00	1335.28
327.22	1404.91
327.43	1288.17
327.64	1349.61
327.85	1359.85
328.07	1292.27
328.28	1386.47
328.49	1316.84
328.70	1409.00
328.92	1443.82
329.13	1392.62
329.34	1372.14
329.55	1474.54
329.76	1427.43
329.98	1288.17
330.19	1431.53
330.40	1423.34
330.61	1402.86
330.83	1370.09
331.04	1294.32
331.25	1380.33
331.46	1361.90
331.68	1370.09
331.89	1390.57
332.10	1318.89
332.31	1363.95
332.52	1214.45
332.74	1466.35
332.95	1306.60
333.16	1366.00
333.37	1392.62
333.58	1398.76
333.80	1345.52
334.01	1310.70
334.22	1361.90
334.43	1322.99
334.64	1394.67
334.86	1308.65
335.07	1392.62
335.28	1392.62
335.49	1249.26
335.70	1314.80
335.92	1443.82
336.13	1445.87
336.34	1380.33
336.55	1392.62
336.76	1357.80
336.98	1347.56
337.19	1394.67
337.40	1433.58
337.61	1437.67
337.82	1331.18
338.04	1429.48
338.25	1368.04
338.46	1327.08
338.67	1425.39
338.88	1361.90
339.09	1343.47
339.31	1345.52
339.52	1341.42
339.73	1409.00
339.94	1398.76
340.15	1357.80
340.36	1376.24
340.58	1384.43
340.79	1370.09
341.00	1306.60
341.21	1331.18
341.42	1402.86
341.63	1370.09
341.85	1386.47
342.06	1443.82
342.27	1347.56
342.48	1472.49
342.69	1292.27
342.90	1392.62
343.12	1411.05
343.33	1361.90
343.54	1413.10
343.75	1370.09
343.96	1339.37
344.17	1368.04
344.38	1378.28
344.60	1374.19
344.81	1388.52
345.02	1306.60
345.23	1439.72
345.44	1382.38
345.65	1361.90
345.86	1310.70
346.07	1353.71
346.29	1353.71
346.50	1353.71
346.71	1402.86
346.92	1456.11
347.13	1449.96
347.34	1374.19
347.55	1386.47
347.76	1361.90
347.98	1304.56
348.19	1335.28
348.40	1400.81
348.61	1380.33
348.82	1398.76
349.03	1452.01
349.24	1302.51
349.45	1447.91
349.66	1339.37
349.88	1370.09
350.09	1304.56
350.30	1370.09
350.51	1476.59
350.72	1417.19
350.93	1298.41
351.14	1380.33
351.35	1284.08
351.56	1320.94
351.77	1374.19
351.99	1411.05
352.20	1462.25
352.41	1454.06
352.62	1288.17
352.83	1331.18
353.04	1327.08
353.25	1343.47
353.46	1339.37
353.67	1484.78
353.88	1312.75
354.09	1302.51
354.30	1374.19
354.52	1341.42
354.73	1353.71
354.94	1351.66
355.15	1341.42
355.36	1404.91
355.57	1363.95
355.78	1431.53
355.99	1372.14
356.20	1435.63
356.41	1390.57
356.62	1413.10
356.83	1357.80
357.04	1409.00
357.25	1308.65
357.46	1363.95
357.68	1312.75
357.89	1304.56
358.10	1343.47
358.31	1388.52
358.52	1435.63
358.73	1363.95
358.94	1339.37
359.15	1325.04
359.36	1445.87
359.57	1316.84
359.78	1355.76
359.99	1384.43
360.20	1335.28
360.41	1357.80
360.62	1370.09
360.83	1347.56
361.04	1400.81
361.25	1476.59
361.46	1419.24
361.67	1474.54
361.88	1386.47
362.09	1286.12
362.30	1376.24
362.51	1376.24
362.72	1339.37
362.93	1425.39
363.14	1351.66
363.35	1427.43
363.56	1361.90
363.78	1386.47
363.99	1333.23
364.20	1361.90
364.41	1376.24
364.62	1449.96
364.83	1370.09
365.04	1402.86
365.25	1359.85
365.46	1472.49
365.67	1378.28
365.88	1333.23
366.09	1411.05
366.30	1433.58
366.51	1402.86
366.72	1355.76
366.93	1366.00
367.14	1308.65
367.35	1423.34
367.56	1396.71
367.77	1417.19
367.98	1368.04
368.18	1314.80
368.39	1419.24
368.60	1286.12
368.81	1361.90
369.02	1378.28
369.23	1363.95
369.44	1402.86
369.65	1347.56
369.86	1427.43
370.07	1413.10
370.28	1357.80
370.49	1335.28
370.70	1361.90
370.91	1380.33
371.12	1306.60
371.33	1433.58
371.54	1402.86
371.75	1486.83
371.96	1339.37
372.17	1417.19
372.38	1404.91
372.59	1347.56
372.80	1236.97
373.01	1306.60
373.22	1355.76
373.43	1306.60
373.64	1390.57
373.85	1353.71
374.06	1454.06
374.26	1429.48
374.47	1406.95
374.68	1411.05
374.89	1431.53
375.10	1382.38
375.31	1388.52
375.52	1355.76
375.73	1380.33
375.94	1372.14
376.15	1495.02
376.36	1353.71
376.57	1376.24
376.78	1359.85
376.99	1396.71
377.20	1443.82
377.40	1396.71
377.61	1486.83
377.82	1333.23
378.03	1421.29
378.24	1394.67
378.45	1396.71
378.66	1394.67
378.87	1394.67
379.08	1337.32
379.29	1292.27
379.50	1368.04
379.71	1392.62
379.91	1423.34
380.12	1400.81
380.33	1349.61
380.54	1404.91
380.75	1415.15
380.96	1339.37
381.17	1454.06
381.38	1370.09
381.59	1542.12
381.80	1351.66
382.00	1486.83
382.21	1417.19
382.42	1454.06
382.63	1544.17
382.84	1400.81
383.05	1427.43
383.26	1413.10
383.47	1441.77
383.68	1433.58
383.88	1415.15
384.09	1312.75
384.30	1460.20
384.51	1359.85
384.72	1314.80
384.93	1331.18
385.14	1359.85
385.35	1435.63
385.55	1310.70
385.76	1329.13
385.97	1384.43
386.18	1355.76
386.39	1318.89
386.60	1359.85
386.81	1425.39
387.02	1409.00
387.22	1359.85
387.43	1454.06
387.64	1566.70
387.85	2244.57
388.06	5887.91
388.27	9512.81
388.48	11724.62
388.68	13348.66
388.89	13567.79
389.10	10741.60
389.31	9471.86
389.52	8456.06
389.73	7540.62
389.93	6956.95
390.14	6512.54
390.35	6012.84
390.56	5582.76
390.77	4753.34
390.98	3678.15
391.18	2842.58
391.39	2207.71
391.60	1718.25
391.81	1621.99
392.02	1452.01
392.23	1509.35
392.43	1443.82
392.64	1462.25
392.85	1370.09
393.06	1380.33
393.27	1325.04
393.47	1398.76
393.68	1413.10
393.89	1376.24
394.10	1427.43
394.31	1343.47
394.52	1298.41
394.72	1335.28
394.93	1441.77
395.14	1337.32
395.35	1460.20
395.56	1329.13
395.76	1501.16
395.97	1511.40
396.18	1591.27
396.39	1599.46
396.60	1699.81
396.80	1597.42
397.01	1519.59
397.22	1617.90
397.43	1464.30
397.64	1454.06
397.84	1495.02
398.05	1445.87
398.26	1411.05
398.47	1478.63
398.67	1435.63
398.88	1411.05
399.09	1406.95
399.30	1378.28
399.51	1329.13
399.71	1390.57
399.92	1314.80
400.13	1337.32
400.34	1361.90
400.54	1343.47
400.75	1441.77
400.96	1347.56
401.17	1376.24
401.37	1429.48
401.58	1415.15
401.79	1443.82
402.00	1673.19
402.21	1761.25
402.41	1834.98
402.62	1796.07
402.83	1726.44
403.04	1630.18
403.24	1751.01
403.45	1626.09
403.66	1591.27
403.87	1601.51
404.07	1611.75
404.28	1619.94
404.49	1581.03
404.70	1470.44
404.90	1484.78
405.11	1419.24
405.32	1447.91
405.52	1361.90
405.73	1386.47
405.94	1370.09
406.15	1382.38
406.35	1404.91
406.56	1413.10
406.77	1431.53
406.98	1413.10
407.18	1378.28
407.39	1439.72
407.60	1347.56
407.80	1337.32
408.01	1421.29
408.22	1355.76
408.43	1402.86
408.63	1415.15
408.84	1433.58
409.05	1366.00
409.25	1292.27
409.46	1368.04
409.67	1363.95
409.88	1445.87
410.08	1339.37
410.29	1353.71
410.50	1419.24
410.70	1441.77
410.91	1292.27
411.12	1409.00
411.32	1388.52
411.53	1443.82
411.74	1464.30
411.95	1560.55
412.15	1488.87
412.36	1374.19
412.57	1402.86
412.77	1437.67
412.98	1495.02
413.19	1363.95
413.39	1439.72
413.60	1484.78
413.81	1415.15
414.01	1495.02
414.22	1476.59
414.43	1433.58
414.63	1425.39
414.84	1439.72
415.05	1447.91
415.25	1335.28
415.46	1347.56
415.67	1421.29
415.87	1335.28
416.08	1437.67
416.29	1288.17
416.49	1331.18
416.70	1423.34
416.91	1382.38
417.11	1384.43
417.32	1415.15
417.53	1404.91
417.73	1456.11
417.94	1380.33
418.15	1374.19
418.35	1415.15
418.56	1380.33
418.77	1394.67
418.97	1363.95
419.18	1380.33
419.38	1308.65
419.59	1374.19
419.80	1454.06
420.00	1439.72
420.21	1335.28
420.42	1339.37
420.62	1329.13
420.83	1351.66
421.04	1376.24
421.24	1421.29
421.45	1380.33
421.65	1355.76
421.86	1339.37
422.07	1421.29
422.27	1341.42
422.48	1357.80
422.69	1361.90
422.89	1325.04
423.10	1380.33
423.30	1302.51
423.51	1413.10
423.72	1400.81
423.92	1363.95
424.13	1374.19
424.33	1310.70
424.54	1406.95
424.75	1292.27
424.95	1396.71
425.16	1271.79
425.36	1388.52
425.57	1419.24
425.78	1353.71
425.98	1449.96
426.19	1366.00
426.39	1390.57
426.60	1349.61
426.81	1427.43
427.01	1275.88
427.22	1413.10
427.42	1308.65
427.63	1347.56
427.83	1390.57
428.04	1480.68
428.25	1456.11
428.45	1406.95
428.66	1366.00
428.86	1388.52
429.07	1308.65
429.28	1394.67
429.48	1296.36
429.69	1339.37
429.89	1310.70
430.10	1241.07
430.30	1388.52
430.51	1425.39
430.71	1308.65
430.92	1384.43
431.13	1343.47
431.33	1427.43
431.54	1409.00
431.74	1384.43
431.95	1437.67
432.15	1411.05
432.36	1411.05
432.56	1351.66
432.77	1398.76
432.98	1447.91
433.18	1341.42
433.39	1396.71
433.59	1322.99
433.80	1427.43
434.00	1376.24
434.21	1359.85
434.41	1341.42
434.62	1456.11
434.82	1331.18
435.03	1359.85
435.23	1370.09
435.44	1318.89
435.64	1366.00
435.85	1404.91
436.06	1384.43
436.26	1366.00
436.47	1376.24
436.67	1339.37
436.88	1429.48
437.08	1368.04
437.29	1435.63
437.49	1363.95
437.70	1427.43
437.90	1390.57
438.11	1441.77
438.31	1570.79
438.52	1656.81
438.72	1470.44
438.93	1572.84
439.13	1445.87
439.34	1468.39
439.54	1417.19
439.75	1480.68
439.95	1464.30
440.16	1394.67
440.36	1466.35
440.57	1482.73
440.77	1425.39
440.98	1409.00
441.18	1415.15
441.39	1378.28
441.59	1376.24
441.80	1429.48
442.00	1353.71
442.21	1366.00
442.41	1312.75
442.62	1443.82
442.82	1419.24
443.02	1423.34
443.23	1404.91
443.43	1415.15
443.64	1437.67
443.84	1329.13
444.05	1411.05
444.25	1458.15
444.46	1363.95
444.66	1396.71
444.87	1433.58
445.07	1368.04
445.28	1396.71
445.48	1468.39
445.69	1452.01
445.89	1492.97
446.09	1560.55
446.30	2226.14
446.50	3764.17
446.71	4759.48
446.91	5459.88
447.12	5556.14
447.32	5062.58
447.53	4104.13
447.73	3876.80
447.93	3475.40
448.14	3293.13
448.34	3227.60
448.55	2852.82
448.75	2693.08
448.96	2682.84
449.16	2383.84
449.36	2215.90
449.57	1886.18
449.77	1685.48
449.98	1492.97
450.18	1480.68
450.39	1429.48
450.59	1402.86
450.79	1355.76
451.00	1345.52
451.20	1406.95
451.41	1378.28
451.61	1409.00
451.81	1419.24
452.02	1382.38
452.22	1363.95
452.43	1370.09
452.63	1355.76
452.84	1368.04
453.04	1331.18
453.24	1345.52
453.45	1302.51
453.65	1374.19
453.86	1384.43
454.06	1429.48
454.26	1370.09
454.47	1343.47
454.67	1390.57
454.87	1378.28
455.08	1384.43
455.28	1404.91
455.49	1347.56
455.69	1372.14
455.89	1396.71
456.10	1421.29
456.30	1402.86
456.51	1351.66
456.71	1380.33
456.91	1327.08
457.12	1380.33
457.32	1388.52
457.52	1368.04
457.73	1423.34
457.93	1490.92
458.14	1380.33
458.34	1327.08
458.54	1394.67
458.75	1372.14
458.95	1359.85
459.15	1398.76
459.36	1400.81
459.56	1388.52
459.76	1425.39
459.97	1370.09
460.17	1404.91
460.37	1445.87
460.58	1370.09
460.78	1384.43
460.99	1421.29
461.19	1374.19
461.39	1425.39
461.60	1347.56
461.80	1361.90
462.00	1337.32
462.21	1392.62
462.41	1398.76
462.61	1314.80
462.82	1337.32
463.02	1298.41
463.22	1327.08
463.43	1439.72
463.63	1345.52
463.83	1435.63
464.04	1345.52
464.24	1386.47
464.44	1308.65
464.64	1310.70
464.85	1378.28
465.05	1421.29
465.25	1353.71
465.46	1415.15
465.66	1343.47
465.86	1404.91
466.07	1445.87
466.27	1368.04
466.47	1273.84
466.68	1312.75
466.88	1423.34
467.08	1441.77
467.29	1341.42
467.49	1449.96
467.69	1396.71
467.89	1372.14
468.10	1353.71
468.30	1357.80
468.50	1429.48
468.71	1472.49
468.91	1372.14
469.11	1427.43
469.31	1331.18
469.52	1355.76
469.72	1476.59
469.92	1478.63
470.13	1443.82
470.33	1421.29
470.53	1558.50
470.73	2086.88
470.94	2301.92
471.14	2359.26
471.34	2437.08
471.54	2176.99
471.75	1994.72
471.95	1920.99
472.15	1798.12
472.36	1808.36
472.56	1843.17
472.76	1705.96
472.96	1755.11
473.17	1718.25
473.37	1638.38
473.57	1480.68
473.77	1535.98
473.98	1503.21
474.18	1386.47
474.38	1570.79
474.58	1392.62
474.79	1306.60
474.99	1343.47
475.19	1316.84
475.39	1355.76
475.60	1462.25
475.80	1322.99
476.00	1351.66
476.20	1378.28
476.41	1306.60
476.61	1460.20
476.81	1384.43
477.01	1333.23
477.21	1400.81
477.42	1388.52
477.62	1345.52
477.82	1400.81
478.02	1361.90
478.23	1374.19
478.43	1376.24
478.63	1382.38
478.83	1327.08
479.03	1310.70
479.24	1488.87
479.44	1449.96
479.64	1325.04
479.84	1349.61
480.04	1337.32
480.25	1277.93
480.45	1294.32
480.65	1400.81
480.85	1409.00
481.06	1406.95
481.26	1322.99
481.46	1363.95
481.66	1460.20
481.86	1339.37
482.06	1433.58
482.27	1374.19
482.47	1392.62
482.67	1380.33
482.87	1396.71
483.07	1331.18
483.28	1431.53
483.48	1392.62
483.68	1398.76
483.88	1370.09
484.08	1296.36
484.29	1345.52
484.49	1335.28
484.69	1386.47
484.89	1361.90
485.09	1370.09
485.29	1458.15
485.50	1415.15
485.70	1400.81
485.90	1396.71
486.10	1353.71
486.30	1423.34
486.50	1396.71
486.71	1345.52
486.91	1345.52
487.11	1449.96
487.31	1421.29
487.51	1429.48
487.71	1351.66
487.91	1255.40
488.12	1331.18
488.32	1251.31
488.52	1357.80
488.72	1269.74
488.92	1402.86
489.12	1423.34
489.32	1431.53
489.53	1388.52
489.73	1282.03
489.93	1468.39
490.13	1316.84
490.33	1265.64
490.53	1425.39
490.73	1466.35
490.94	1386.47
491.14	1376.24
491.34	1597.42
491.54	2176.99
491.74	2641.88
491.94	2977.75
492.14	3270.61
492.34	3016.66
492.54	2572.25
492.75	2332.64
492.95	2220.00
493.15	2117.60
493.35	2056.16
493.55	1859.56
493.75	1937.38
493.95	1894.37
494.15	1875.94
494.35	1695.72
494.56	1628.14
494.76	1552.36
494.96	1449.96
495.16	1429.48
495.36	1435.63
495.56	1419.24
495.76	1402.86
495.96	1470.44
496.16	1310.70
496.36	1447.91
496.56	1439.72
496.77	1388.52
496.97	1474.54
497.17	1423.34
497.37	1341.42
497.57	1398.76
497.77	1380.33
497.97	1366.00
498.17	1363.95
498.37	1402.86
498.57	1372.14
498.77	1308.65
498.97	1384.43
499.17	1361.90
499.38	1419.24
499.58	1425.39
499.78	1417.19
499.98	1423.34
500.18	1327.08
500.38	1449.96
500.58	1740.77
500.78	2973.65
500.98	5644.20
501.18	7221.14
501.38	8208.26
501.58	8695.68
501.78	7393.17
501.98	5693.35
502.18	5236.66
502.38	4663.22
502.58	4153.28
502.78	3672.01
502.98	3606.47
503.18	3405.77
503.38	3387.34
503.59	2918.36
503.79	2793.43
503.99	2668.50
504.19	2375.64
504.39	2168.80
504.59	2050.02
504.79	1994.72
504.99	1918.95
505.19	1638.38
505.39	1605.61
505.59	1583.08
505.79	1542.12
505.99	1597.42
506.19	1511.40
506.39	1542.12
506.59	1454.06
506.79	1427.43
506.99	1488.87
507.19	1462.25
507.39	1388.52
507.59	1359.85
507.79	1351.66
507.99	1353.71
508.19	1374.19
508.39	1312.75
508.59	1386.47
508.79	1509.35
508.99	1490.92
509.19	1409.00
509.39	1382.38
509.59	1320.94
509.79	1380.33
509.99	1329.13
510.19	1372.14
510.39	1396.71
510.59	1380.33
510.79	1372.14
510.99	1361.90
511.19	1363.95
511.39	1413.10
511.59	1447.91
511.79	1409.00
511.99	1355.76
512.19	1417.19
512.38	1357.80
512.58	1378.28
512.78	1374.19
512.98	1437.67
513.18	1337.32
513.38	1300.46
513.58	1400.81
513.78	1406.95
513.98	1345.52
514.18	1452.01
514.38	1398.76
514.58	1341.42
514.78	1376.24
514.98	1333.23
515.18	1339.37
515.38	1329.13
515.58	1411.05
515.78	1343.47
515.98	1390.57
516.18	1409.00
516.38	1304.56
516.57	1390.57
516.77	1361.90
516.97	1402.86
517.17	1394.67
517.37	1257.45
517.57	1445.87
517.77	1333.23
517.97	1382.38
518.17	1335.28
518.37	1331.18
518.57	1341.42
518.77	1347.56
518.97	1400.81
519.16	1390.57
519.36	1429.48
519.56	1372.14
519.76	1341.42
519.96	1398.76
520.16	1460.20
520.36	1306.60
520.56	1390.57
520.76	1390.57
520.96	1337.32
521.16	1415.15
521.35	1357.80
521.55	1431.53
521.75	1347.56
521.95	1331.18
522.15	1437.67
522.35	1345.52
522.55	1376.24
522.75	1388.52
522.95	1218.54
523.14	1306.60
523.34	1374.19
523.54	1421.29
523.74	1421.29
523.94	1470.44
524.14	1320.94
524.34	1413.10
524.54	1437.67
524.73	1456.11
524.93	1452.01
525.13	1349.61
525.33	1378.28
525.53	1462.25
525.73	1429.48
525.93	1331.18
526.13	1331.18
526.32	1468.39
526.52	1374.19
526.72	1316.84
526.92	1415.15
527.12	1345.52
527.32	1363.95
527.52	1462.25
527.71	1335.28
527.91	1376.24
528.11	1284.08
528.31	1339.37
528.51	1392.62
528.71	1376.24
528.90	1329.13
529.10	1384.43
529.30	1390.57
529.50	1347.56
529.70	1400.81
529.90	1378.28
530.09	1359.85
530.29	1345.52
530.49	1294.32
530.69	1456.11
530.89	1351.66
531.09	1304.56
531.28	1376.24
531.48	1431.53
531.68	1435.63
531.88	1437.67
532.08	1349.61
532.28	1402.86
532.47	1458.15
532.67	1398.76
532.87	1454.06
533.07	1390.57
533.27	1409.00
533.46	1378.28
533.66	1392.62
533.86	1452.01
534.06	1396.71
534.26	1454.06
534.45	1304.56
534.65	1417.19
534.85	1411.05
535.05	1390.57
535.25	1472.49
535.44	1351.66
535.64	1361.90
535.84	1355.76
536.04	1355.76
536.24	1366.00
536.43	1343.47
536.63	1492.97
536.83	1314.80
537.03	1351.66
537.22	1345.52
537.42	1286.12
537.62	1400.81
537.82	1419.24
538.02	1388.52
538.21	1345.52
538.41	1454.06
538.61	1335.28
538.81	1353.71
539.00	1378.28
539.20	1341.42
539.40	1376.24
539.60	1413.10
539.79	1427.43
539.99	1345.52
540.19	1390.57
540.39	1421.29
540.58	1435.63
540.78	1443.82
540.98	1400.81
541.18	1404.91
541.37	1363.95
541.57	1378.28
541.77	1329.13
541.97	1304.56
542.16	1298.41
542.36	1335.28
542.56	1411.05
542.76	1478.63
542.95	1390.57
543.15	1341.42
543.35	1357.80
543.54	1366.00
543.74	1355.76
543.94	1388.52
544.14	1382.38
544.33	1413.10
544.53	1376.24
544.73	1363.95
544.93	1378.28
545.12	1400.81
545.32	1349.61
545.52	1359.85
545.71	1355.76
545.91	1363.95
546.11	1394.67
546.30	1341.42
546.50	1472.49
546.70	1308.65
546.90	1359.85
547.09	1296.36
547.29	1275.88
547.49	1347.56
547.68	1382.38
547.88	1376.24
548.08	1425.39
548.27	1744.87
548.47	1368.04
548.67	1366.00
548.87	1409.00
549.06	1366.00
549.26	1419.24
549.46	1372.14
549.65	1322.99
549.85	1343.47
550.05	1435.63
550.24	1329.13
550.44	1409.00
550.64	1374.19
550.83	1312.75
551.03	1413.10
551.23	1380.33
551.42	1384.43
551.62	1380.33
551.82	1298.41
552.01	1380.33
552.21	1468.39
552.41	1425.39
552.60	1384.43
552.80	1386.47
553.00	1327.08
553.19	1419.24
553.39	1460.20
553.59	1353.71
553.78	1347.56
553.98	1368.04
554.17	1390.57
554.37	1347.56
554.57	1355.76
554.76	1296.36
554.96	1339.37
555.16	1409.00
555.35	1392.62
555.55	1382.38
555.75	1447.91
555.94	1431.53
556.14	1269.74
556.33	1449.96
556.53	1406.95
556.73	1411.05
556.92	1384.43
557.12	1409.00
557.32	1439.72
557.51	1390.57
557.71	1419.24
557.90	1361.90
558.10	1474.54
558.30	1396.71
558.49	1409.00
558.69	1439.72
558.88	1413.10
559.08	1347.56
559.28	1380.33
559.47	1359.85
559.67	1443.82
559.86	1474.54
560.06	1431.53
560.26	1386.47
560.45	1404.91
560.65	1339.37
560.84	1478.63
561.04	1396.71
561.24	1388.52
561.43	1357.80
561.63	1431.53
561.82	1339.37
562.02	1402.86
562.22	1335.28
562.41	1349.61
562.61	1398.76
562.80	1353.71
563.00	1519.59
563.19	1482.73
563.39	1355.76
563.59	1429.48
563.78	1400.81
563.98	1257.45
564.17	1339.37
564.37	1406.95
564.56	1417.19
564.76	1359.85
564.96	1427.43
565.15	1386.47
565.35	1478.63
565.54	1396.71
565.74	1402.86
565.93	1380.33
566.13	1458.15
566.32	1429.48
566.52	1380.33
566.71	1429.48
566.91	1449.96
567.11	1431.53
567.30	1339.37
567.50	1452.01
567.69	1359.85
567.89	1447.91
568.08	1363.95
568.28	1388.52
568.47	1314.80
568.67	1349.61
568.86	1431.53
569.06	1394.67
569.25	1394.67
569.45	1322.99
569.64	1384.43
569.84	1437.67
570.04	1339.37
570.23	1284.08
570.43	1390.57
570.62	1351.66
570.82	1415.15
571.01	1423.34
571.21	1363.95
571.40	1277.93
571.60	1423.34
571.79	1378.28
571.99	1370.09
572.18	1400.81
572.38	1396.71
572.57	1351.66
572.77	1400.81
572.96	1449.96
573.16	1394.67
573.35	1374.19
573.55	1425.39
573.74	1417.19
573.94	1378.28
574.13	1351.66
574.33	1452.01
574.52	1472.49
574.71	1347.56
574.91	1378.28
575.10	1363.95
575.30	1449.96
575.49	1345.52
575.69	1417.19
575.88	1384.43
576.08	1417.19
576.27	1462.25
576.47	1480.68
576.66	1529.83
576.86	1486.83
577.05	1372.14
577.25	1486.83
577.44	1474.54
577.64	1327.08
577.83	1417.19
578.02	1476.59
578.22	1409.00
578.41	1535.98
578.61	1456.11
578.80	1376.24
579.00	1388.52
579.19	1368.04
579.39	1419.24
579.58	1452.01
579.77	1507.30
579.97	1525.74
580.16	1476.59
580.36	1464.30
580.55	1548.26
580.75	1411.05
580.94	1488.87
581.13	1540.07
581.33	1527.78
581.52	1468.39
581.72	1581.03
581.91	1527.78
582.11	1478.63
582.30	1425.39
582.49	1419.24
582.69	1431.53
582.88	1433.58
583.08	1345.52
583.27	1495.02
583.47	1388.52
583.66	1501.16
583.85	1374.19
584.05	1429.48
584.24	1363.95
584.44	1468.39
584.63	1413.10
584.82	1544.17
585.02	1576.94
585.21	1527.78
585.41	1605.61
585.60	1595.37
585.79	1628.14
585.99	1730.53
586.18	1581.03
586.37	1798.12
586.57	2772.95
586.76	8163.20
586.96	24692.36
587.15	41942.40
587.34	52847.83
587.54	60279.91
587.73	59978.86
587.93	45425.99
588.12	33209.86
588.31	26697.32
588.51	22873.76
588.70	20438.73
588.89	18622.18
589.09	17407.73
589.28	16078.60
589.47	14397.22
589.67	12904.25
589.86	10661.73
590.06	8609.66
590.25	6703.00
590.44	5076.91
590.64	3694.54
590.83	2906.07
591.02	2326.49
591.22	1863.65
591.41	1720.29
591.60	1597.42
591.80	1597.42
591.99	1525.74
592.18	1533.93
592.38	1472.49
592.57	1427.43
592.76	1466.35
592.96	1421.29
593.15	1388.52
593.34	1509.35
593.54	1472.49
593.73	1443.82
593.92	1478.63
594.12	1445.87
594.31	1550.31
594.50	1503.21
594.70	1476.59
594.89	1503.21
595.08	1406.95
595.28	1490.92
595.47	1538.02
595.66	1396.71
595.86	1404.91
596.05	1370.09
596.24	1396.71
596.43	1519.59
596.63	1478.63
596.82	1417.19
597.01	1431.53
597.21	1443.82
597.40	1380.33
597.59	1366.00
597.79	1335.28
597.98	1372.14
598.17	1368.04
598.36	1419.24
598.56	1474.54
598.75	1421.29
598.94	1363.95
599.14	1433.58
599.33	1398.76
599.52	1421.29
599.71	1435.63
599.91	1423.34
600.10	1402.86
600.29	1366.00
600.48	1441.77
600.68	1400.81
600.87	1288.17
601.06	1425.39
601.26	1396.71
601.45	1318.89
601.64	1404.91
601.83	1394.67
602.03	1421.29
602.22	1322.99
602.41	1435.63
602.60	1501.16
602.80	1439.72
602.99	1421.29
603.18	1380.33
603.37	1419.24
603.57	1388.52
603.76	1404.91
603.95	1417.19
604.14	1351.66
604.34	1409.00
604.53	1417.19
604.72	1417.19
604.91	1421.29
605.10	1386.47
605.30	1366.00
605.49	1417.19
605.68	1427.43
605.87	1396.71
606.07	1404.91
606.26	1331.18
606.45	1409.00
606.64	1284.08
606.84	1460.20
607.03	1355.76
607.22	1495.02
607.41	1409.00
607.60	1390.57
607.80	1474.54
607.99	1331.18
608.18	1415.15
608.37	1386.47
608.56	1398.76
608.76	1433.58
608.95	1572.84
609.14	1423.34
609.33	1480.68
609.52	1462.25
609.72	1409.00
609.91	1570.79
610.10	1452.01
610.29	1464.30
610.48	1404.91
610.68	1363.95
610.87	1404.91
611.06	1386.47
611.25	1415.15
611.44	1421.29
611.63	1445.87
611.83	1490.92
612.02	1337.32
612.21	1429.48
612.40	1327.08
612.59	1347.56
612.79	1378.28
612.98	1384.43
613.17	1443.82
613.36	1380.33
613.55	1427.43
613.74	1482.73
613.93	1517.54
614.13	1640.42
614.32	1589.22
614.51	1669.09
614.70	1599.46
614.89	1540.07
615.08	1546.22
615.28	1742.82
615.47	1380.33
615.66	1462.25
615.85	1478.63
616.04	1605.61
616.23	1404.91
616.42	1441.77
616.62	1513.45
616.81	1474.54
617.00	1386.47
617.19	1396.71
617.38	1341.42
617.57	1474.54
617.76	1423.34
617.95	1462.25
618.15	1441.77
618.34	1449.96
618.53	1331.18
618.72	1480.68
618.91	1447.91
619.10	1462.25
619.29	1355.76
619.48	1380.33
619.68	1337.32
619.87	1411.05
620.06	1386.47
620.25	1312.75
620.44	1325.04
620.63	1415.15
620.82	1363.95
621.01	1318.89
621.20	1345.52
621.39	1398.76
621.59	1382.38
621.78	1355.76
621.97	1468.39
622.16	1427.43
622.35	1366.00
622.54	1396.71
622.73	1400.81
622.92	1300.46
623.11	1445.87
623.30	1372.14
623.49	1388.52
623.68	1322.99
623.88	1402.86
624.07	1306.60
624.26	1343.47
624.45	1378.28
624.64	1357.80
624.83	1449.96
625.02	1384.43
625.21	1437.67
625.40	1466.35
625.59	1402.86
625.78	1452.01
625.97	1382.38
626.16	1437.67
626.35	1462.25
626.54	1517.54
626.74	1503.21
626.93	1468.39
627.12	1476.59
627.31	1445.87
627.50	1499.11
627.69	1380.33
627.88	1380.33
628.07	1335.28
628.26	1337.32
628.45	1396.71
628.64	1374.19
628.83	1376.24
629.02	1345.52
629.21	1386.47
629.40	1370.09
629.59	1452.01
629.78	1404.91
629.97	1302.51
630.16	1413.10
630.35	1404.91
630.54	1435.63
630.73	1380.33
630.92	1366.00
631.11	1372.14
631.30	1456.11
631.49	1320.94
631.68	1386.47
631.87	1396.71
632.06	1351.66
632.25	1437.67
632.44	1398.76
632.63	1409.00
632.82	1390.57
633.01	1501.16
633.20	1482.73
633.39	1402.86
633.58	1443.82
633.77	1492.97
633.96	1343.47
634.15	1472.49
634.34	1382.38
634.53	1378.28
634.72	1400.81
634.91	1333.23
635.10	1404.91
635.29	1468.39
635.48	1411.05
635.67	1394.67
635.86	1312.75
636.05	1331.18
636.24	1427.43
636.43	1458.15
636.62	1406.95
636.81	1306.60
637.00	1320.94
637.19	1378.28
637.38	1343.47
637.57	1388.52
637.76	1417.19
637.95	1495.02
638.14	1462.25
638.33	1517.54
638.52	1470.44
638.71	1361.90
638.89	1396.71
639.08	1621.99
639.27	1464.30
639.46	1472.49
639.65	1705.96
639.84	1894.37
640.03	1929.19
640.22	2140.13
640.41	2201.57
640.60	1931.23
640.79	1808.36
640.98	1619.94
641.17	1589.22
641.36	1640.42
641.55	1581.03
641.74	1531.88
641.92	1513.45
642.11	1425.39
642.30	1472.49
642.49	1472.49
642.68	1343.47
642.87	1466.35
643.06	1441.77
643.25	1349.61
643.44	1337.32
643.63	1423.34
643.82	1411.05
644.00	1353.71
644.19	1351.66
644.38	1322.99
644.57	1363.95
644.76	1298.41
644.95	1417.19
645.14	1320.94
645.33	1339.37
645.52	1363.95
645.71	1347.56
645.89	1304.56
646.08	1429.48
646.27	1452.01
646.46	1492.97
646.65	1302.51
646.84	1488.87
647.03	1370.09
647.22	1320.94
647.40	1347.56
647.59	1388.52
647.78	1351.66
647.97	1343.47
648.16	1322.99
648.35	1452.01
648.54	1456.11
648.73	1355.76
648.91	1372.14
649.10	1312.75
649.29	1366.00
649.48	1333.23
649.67	1366.00
649.86	1415.15
650.05	1421.29
650.23	1542.12
650.42	1388.52
650.61	1540.07
650.80	1593.32
650.99	1695.72
651.18	1550.31
651.36	1495.02
651.55	1458.15
651.74	1445.87
651.93	1472.49
652.12	1415.15
652.31	1425.39
652.49	1441.77
652.68	1378.28
652.87	1511.40
653.06	1376.24
653.25	1478.63
653.44	1402.86
653.62	1484.78
653.81	1322.99
654.00	1439.72
654.19	1394.67
654.38	1492.97
654.56	1378.28
654.75	1386.47
654.94	1353.71
655.13	1404.91
655.32	1433.58
655.51	1394.67
655.69	1292.27
655.88	1413.10
656.07	1329.13
656.26	1449.96
656.45	1349.61
656.63	1435.63
656.82	1419.24
657.01	1382.38
657.20	1331.18
657.38	1361.90
657.57	1370.09
657.76	1318.89
657.95	1447.91
658.14	1341.42
658.32	1435.63
658.51	1333.23
658.70	1370.09
658.89	1468.39
659.08	1351.66
659.26	1439.72
659.45	1411.05
659.64	1458.15
659.83	1445.87
660.01	1546.22
660.20	1462.25
660.39	1495.02
660.58	1300.46
660.76	1396.71
660.95	1441.77
661.14	1376.24
661.33	1396.71
661.51	1355.76
661.70	1382.38
661.89	1378.28
662.08	1413.10
662.26	1337.32
662.45	1316.84
662.64	1384.43
662.83	1425.39
663.01	1353.71
663.20	1368.04
663.39	1370.09
663.58	1353.71
663.76	1316.84
663.95	1404.91
664.14	1302.51
664.32	1396.71
664.51	1400.81
664.70	1413.10
664.89	1372.14
665.07	1345.52
665.26	1363.95
665.45	1230.83
665.64	1384.43
665.82	1378.28
666.01	1464.30
666.20	1327.08
666.38	1546.22
666.57	1417.19
666.76	1523.69
666.95	2105.31
667.13	4427.71
667.32	11513.68
667.51	18026.22
667.69	21794.48
667.88	24938.12
668.07	24819.33
668.25	19312.35
668.44	13915.95
668.63	11284.31
668.81	9416.56
669.00	8193.92
669.19	7491.47
669.38	6881.18
669.56	6264.74
669.75	5566.38
669.94	4900.79
670.12	4251.58
670.31	3471.31
670.50	2924.50
670.68	2467.80
670.87	2090.98
671.06	1869.80
671.24	1699.81
671.43	1615.85
671.62	1644.52
671.80	1443.82
671.99	1574.89
672.18	1437.67
672.36	1470.44
672.55	1419.24
672.74	1388.52
672.92	1447.91
673.11	1384.43
673.29	1333.23
673.48	1435.63
673.67	1329.13
673.85	1452.01
674.04	1421.29
674.23	1382.38
674.41	1421.29
674.60	1331.18
674.79	1325.04
674.97	1337.32
675.16	1400.81
675.34	1503.21
675.53	1366.00
675.72	1454.06
675.90	1404.91
676.09	1415.15
676.28	1320.94
676.46	1337.32
676.65	1378.28
676.83	1366.00
677.02	1439.72
677.21	1363.95
677.39	1374.19
677.58	1359.85
677.77	1406.95
677.95	1394.67
678.14	1415.15
678.32	1406.95
678.51	1372.14
678.70	1503.21
678.88	1417.19
679.07	1353.71
679.25	1357.80
679.44	1341.42
679.63	1398.76
679.81	1316.84
680.00	1472.49
680.18	1363.95
680.37	1409.00
680.55	1339.37
680.74	1316.84
680.93	1437.67
681.11	1366.00
681.30	1300.46
681.48	1394.67
681.67	1406.95
681.85	1306.60
682.04	1339.37
682.23	1392.62
682.41	1378.28
682.60	1349.61
682.78	1361.90
682.97	1380.33
683.15	1368.04
683.34	1341.42
683.53	1388.52
683.71	1331.18
683.90	1388.52
684.08	1433.58
684.27	1349.61
684.45	1378.28
684.64	1386.47
684.82	1304.56
685.01	1341.42
685.19	1376.24
685.38	1501.16
685.57	1378.28
685.75	1302.51
685.94	1345.52
686.12	1363.95
686.31	1443.82
686.49	1427.43
686.68	1296.36
686.86	1431.53
687.05	1413.10
687.23	1370.09
687.42	1322.99
687.60	1363.95
687.79	1390.57
687.97	1413.10
688.16	1402.86
688.34	1409.00
688.53	1335.28
688.71	1361.90
688.90	1425.39
689.08	1329.13
689.27	1249.26
689.45	1406.95
689.64	1423.34
689.82	1366.00
690.01	1388.52
690.19	1392.62
690.38	1431.53
690.56	1423.34
690.75	1394.67
690.93	1351.66
691.12	1341.42
691.30	1372.14
691.49	1234.93
691.67	1314.80
691.86	1468.39
692.04	1398.76
692.23	1398.76
692.41	1392.62
692.60	1505.26
692.78	1388.52
692.97	1419.24
693.15	1427.43
693.34	1540.07
693.52	1449.96
693.71	1429.48
693.89	1378.28
694.08	1378.28
694.26	1398.76
694.44	1374.19
694.63	1501.16
694.81	1312.75
695.00	1396.71
695.18	1308.65
695.37	1435.63
695.55	1308.65
695.74	1439.72
695.92	1368.04
696.10	1398.76
696.29	1339.37
696.47	1386.47
696.66	1298.41
696.84	1343.47
697.03	1390.57
697.21	1433.58
697.40	1812.45
697.58	1425.39
697.76	1337.32
697.95	1372.14
698.13	1257.45
698.32	1368.04
698.50	1400.81
698.68	1361.90
698.87	1388.52
699.05	1478.63
699.24	1417.19
699.42	1361.90
699.61	1431.53
699.79	1370.09
699.97	1406.95
700.16	1361.90
700.34	1314.80
700.53	1329.13
700.71	1386.47
700.89	1359.85
701.08	1318.89
701.26	1361.90
701.45	1665.00
701.63	1406.95
701.81	1355.76
702.00	1271.79
702.18	1329.13
702.37	1380.33
702.55	1421.29
702.73	1495.02
702.92	1560.55
703.10	1703.91
703.28	1693.67
703.47	1697.77
703.65	1591.27
703.84	1488.87
704.02	1529.83
704.20	1533.93
704.39	1402.86
704.57	1406.95
704.75	1443.82
704.94	1484.78
705.12	1425.39
705.30	1492.97
705.49	1507.30
705.67	1755.11
705.86	3622.86
706.04	9168.76
706.22	16183.05
706.41	20027.09
706.59	22990.50
706.77	23881.36
706.96	20006.61
707.14	14059.31
707.32	11380.56
707.51	9422.70
707.69	8288.13
707.87	7456.65
708.06	6795.16
708.24	6016.93
708.42	5083.06
708.61	4034.50
708.79	3123.15
708.97	2418.65
709.16	1937.38
709.34	1763.30
709.52	1632.23
709.71	1523.69
709.89	1464.30
710.07	1386.47
710.26	1417.19
710.44	1380.33
710.62	1439.72
710.80	1417.19
710.99	1433.58
711.17	1443.82
711.35	1306.60
711.54	1327.08
711.72	1476.59
711.90	1419.24
712.09	1435.63
712.27	1308.65
712.45	1368.04
712.63	1353.71
712.82	1337.32
713.00	1439.72
713.18	1359.85
713.37	1366.00
713.55	1415.15
713.73	1419.24
713.91	1476.59
714.10	1386.47
714.28	1370.09
714.46	1374.19
714.65	1325.04
714.83	1357.80
715.01	1402.86
715.19	1392.62
715.38	1290.22
715.56	1386.47
715.74	1404.91
715.92	1318.89
716.11	1443.82
716.29	1327.08
716.47	1359.85
716.65	1339.37
716.84	1331.18
717.02	1439.72
717.20	1245.16
717.38	1386.47
717.57	1380.33
717.75	1366.00
717.93	1376.24
718.11	1372.14
718.30	1368.04
718.48	1406.95
718.66	1345.52
718.84	1435.63
719.03	1333.23
719.21	1359.85
719.39	1406.95
719.57	1359.85
719.75	1488.87
719.94	1341.42
720.12	1363.95
720.30	1400.81
720.48	1445.87
720.67	1400.81
720.85	1327.08
721.03	1347.56
721.21	1320.94
721.39	1413.10
721.58	1376.24
721.76	1363.95
721.94	1452.01
722.12	1370.09
722.30	1425.39
722.49	1388.52
722.67	1368.04
722.85	1406.95
723.03	1294.32
723.21	1310.70
723.40	1347.56
723.58	1431.53
723.76	1370.09
723.94	1480.68
724.12	1335.28
724.30	1484.78
724.49	1466.35
724.67	1503.21
724.85	1523.69
725.03	1398.76
725.21	1376.24
725.40	1425.39
725.58	1445.87
725.76	1425.39
725.94	1404.91
726.12	1380.33
726.30	1421.29
726.49	1314.80
726.67	1347.56
726.85	1359.85
727.03	1372.14
727.21	1478.63
727.39	1523.69
727.57	2056.16
727.76	3364.81
727.94	4505.53
728.12	4951.99
728.30	5324.72
728.48	5326.77
728.66	4376.51
728.84	3446.73
729.03	3086.29
729.21	2877.40
729.39	2590.68
729.57	2310.11
729.75	2023.39
729.93	1720.29
730.11	1542.12
730.30	1482.73
730.48	1437.67
730.66	1464.30
730.84	1437.67
731.02	1460.20
731.20	1359.85
731.38	1366.00
731.56	1304.56
731.74	1331.18
731.93	1378.28
732.11	1335.28
732.29	1341.42
732.47	1314.80
732.65	1435.63
732.83	1429.48
733.01	1343.47
733.19	1339.37
733.37	1404.91
733.56	1335.28
733.74	1347.56
733.92	1400.81
734.10	1368.04
734.28	1425.39
734.46	1314.80
734.64	1380.33
734.82	1425.39
735.00	1370.09
735.18	1359.85
735.36	1320.94
735.54	1413.10
735.73	1279.98
735.91	1394.67
736.09	1417.19
736.27	1390.57
736.45	1474.54
736.63	1335.28
736.81	1361.90
736.99	1318.89
737.17	1464.30
737.35	1366.00
737.53	1341.42
737.71	1347.56
737.89	1398.76
738.07	1310.70
738.25	1320.94
738.43	1265.64
738.61	1318.89
738.80	1378.28
738.98	1312.75
739.16	1359.85
739.34	1294.32
739.52	1417.19
739.70	1347.56
739.88	1384.43
740.06	1390.57
740.24	1308.65
740.42	1355.76
740.60	1351.66
740.78	1366.00
740.96	1345.52
741.14	1423.34
741.32	1343.47
741.50	1247.21
741.68	1443.82
741.86	1478.63
742.04	1335.28
742.22	1316.84
742.40	1402.86
742.58	1417.19
742.76	1337.32
742.94	1398.76
743.12	1216.49
743.30	1355.76
743.48	1386.47
743.66	1279.98
743.84	1392.62
744.02	1290.22
744.20	1396.71
744.38	1341.42
744.56	1388.52
744.74	1439.72
744.92	1435.63
745.10	1435.63
745.28	1374.19
745.46	1370.09
745.64	1413.10
745.82	1464.30
746.00	1390.57
746.18	1394.67
746.36	1339.37
746.54	1339.37
746.72	1316.84
746.90	1329.13
747.08	1468.39
747.26	1300.46
747.44	1413.10
747.62	1378.28
747.80	1413.10
747.98	1349.61
748.15	1298.41
748.33	1435.63
748.51	1435.63
748.69	1347.56
748.87	1357.80
749.05	1300.46
749.23	1443.82
749.41	1406.95
749.59	1417.19
749.77	1435.63
749.95	1427.43
750.13	1351.66
750.31	1382.38
750.49	1376.24
750.67	1478.63
750.85	1394.67
751.03	1320.94
751.20	1503.21
751.38	1308.65
751.56	1359.85
751.74	1429.48
751.92	1327.08
752.10	1386.47
752.28	1378.28
752.46	1284.08
752.64	1343.47
752.82	1327.08
753.00	1411.05
753.18	1392.62
753.35	1339.37
753.53	1361.90
753.71	1347.56
753.89	1427.43
754.07	1370.09
754.25	1427.43
754.43	1380.33
754.61	1355.76
754.79	1339.37
754.97	1359.85
755.14	1452.01
755.32	1329.13
755.50	1286.12
755.68	1370.09
755.86	1366.00
756.04	1398.76
756.22	1343.47
756.40	1318.89
756.57	1392.62
756.75	1372.14
756.93	1439.72
757.11	1398.76
757.29	1294.32
757.47	1388.52
757.65	1366.00
757.82	1261.55
758.00	1409.00
758.18	1343.47
758.36	1310.70
758.54	1431.53
758.72	1329.13
758.90	1456.11
759.07	1347.56
759.25	1345.52
759.43	1421.29
759.61	1308.65
759.79	1695.72
759.97	1439.72
760.15	1306.60
760.32	1327.08
760.50	1464.30
760.68	1419.24
760.86	1404.91
761.04	1445.87
761.22	1357.80
761.39	1366.00
761.57	1339.37
761.75	1425.39
761.93	1359.85
762.11	1312.75
762.28	1327.08
762.46	1429.48
762.64	1353.71
762.82	1282.03
763.00	1411.05
763.18	1454.06
763.35	1282.03
763.53	1456.11
763.71	1386.47
763.89	1374.19
764.07	1355.76
764.24	1363.95
764.42	1437.67
764.60	1400.81
764.78	1316.84
764.96	1398.76
765.13	1406.95
765.31	1382.38
765.49	1402.86
765.67	1331.18
765.84	1343.47
766.02	1386.47
766.20	1312.75
766.38	1409.00
766.56	1296.36
766.73	1396.71
766.91	1392.62
767.09	1386.47
767.27	1386.47
767.44	1339.37
767.62	1345.52
767.80	1314.80
767.98	1355.76
768.15	1359.85
768.33	1392.62
768.51	1404.91
768.69	1363.95
768.87	1409.00
769.04	1347.56
769.22	1388.52
769.40	1429.48
769.58	1458.15
769.75	1298.41
769.93	1378.28
770.11	1355.76
770.28	1443.82
770.46	1423.34
770.64	1398.76
770.82	1335.28
770.99	1345.52
771.17	1396.71
771.35	1392.62
771.53	1288.17
771.70	1382.38
771.88	1390.57
772.06	1398.76
772.23	1409.00
772.41	1462.25
772.59	1327.08
772.77	1310.70
772.94	1316.84
773.12	1357.80
773.30	1345.52
773.47	1394.67
773.65	1376.24
773.83	1447.91
774.01	1353.71
774.18	1284.08
774.36	1327.08
774.54	1273.84
774.71	1353.71
774.89	1333.23
775.07	1351.66
775.24	1370.09
775.42	1366.00
775.60	1372.14
775.78	1398.76
775.95	1337.32
776.13	1320.94
776.31	1271.79
776.48	1411.05
776.66	1396.71
776.84	1304.56
777.01	1320.94
777.19	1327.08
777.37	1290.22
777.54	1351.66
777.72	1452.01
777.90	1269.74
778.07	1390.57
778.25	1486.83
778.43	1372.14
778.60	1400.81
778.78	1413.10
778.96	1400.81
779.13	1331.18
779.31	1445.87
779.49	1390.57
779.66	1370.09
779.84	1312.75
780.01	1294.32
780.19	1329.13
780.37	1316.84
780.54	1437.67
780.72	1251.31
780.90	1370.09
781.07	1343.47
781.25	1394.67
781.43	1331.18
781.60	1345.52
781.78	1409.00
781.95	1413.10
782.13	1337.32
782.31	1345.52
782.48	1337.32
782.66	1333.23
782.83	1402.86
783.01	1363.95
783.19	1392.62
783.36	1353.71
783.54	1368.04
783.72	1425.39
783.89	1349.61
784.07	1468.39
784.24	1460.20
784.42	1402.86
784.60	1347.56
784.77	1380.33
784.95	1310.70
785.12	1320.94
785.30	1374.19
785.47	1325.04
785.65	1320.94
785.83	1372.14
786.00	1304.56
786.18	1386.47
786.35	1378.28
786.53	1355.76
786.71	1394.67
786.88	1402.86
787.06	1374.19
787.23	1329.13
787.41	1236.97
787.58	1425.39
787.76	1370.09
787.94	1384.43
788.11	1361.90
788.29	1357.80
788.46	1325.04
788.64	1312.75
788.81	1370.09
788.99	1343.47
789.16	1341.42
789.34	1396.71
789.52	1361.90
789.69	1374.19
789.87	1359.85
790.04	1468.39
790.22	1331.18
790.39	1445.87
790.57	1366.00
790.74	1341.42
790.92	1368.04
791.09	1372.14
791.27	1345.52
791.44	1415.15
791.62	1382.38
791.79	1384.43
791.97	1298.41
792.15	1425.39
792.32	1417.19
792.50	1433.58
792.67	1421.29
792.85	1361.90
793.02	1380.33
793.20	1363.95
793.37	1310.70
793.55	1337.32
793.72	1320.94
793.90	1357.80
794.07	1255.40
794.25	1370.09
794.42	1308.65
794.60	1409.00
794.77	1370.09
794.95	1376.24
795.12	1341.42
795.30	1417.19
795.47	1220.59
795.65	1476.59
795.82	1329.13
796.00	1353.71
796.17	1386.47
796.34	1333.23
796.52	1388.52
796.69	1322.99
796.87	1357.80
797.04	1378.28
797.22	1423.34
797.39	1343.47
797.57	1396.71
797.74	1409.00
797.92	1480.68
798.09	1292.27
798.27	1378.28
798.44	1398.76
798.62	1351.66
798.79	1298.41
798.96	1419.24
799.14	1374.19
799.31	1433.58
799.49	1290.22
799.66	1253.36
799.84	1415.15
800.01	1236.97
800.19	1384.43
800.36	1273.84
800.53	1382.38
800.71	1359.85
800.88	1411.05
801.06	1329.13
801.23	1384.43
801.41	1345.52
801.58	1484.78
801.75	1361.90
801.93	1353.71
802.10	1382.38
802.28	1298.41
802.45	1357.80
802.63	1343.47
802.80	1378.28
802.97	1355.76
803.15	1349.61
803.32	1374.19
803.50	1298.41
803.67	1347.56
803.84	1390.57
804.02	1349.61
804.19	1400.81
804.37	1320.94
804.54	1329.13
804.71	1372.14
804.89	1279.98
805.06	1308.65
805.24	1347.56
805.41	1292.27
805.58	1333.23
805.76	1402.86
805.93	1320.94
806.10	1431.53
806.28	1374.19
806.45	1347.56
806.63	1327.08
806.80	1415.15
806.97	1398.76
807.15	1386.47
807.32	1351.66
807.49	1384.43
807.67	1411.05
807.84	1359.85
808.01	1333.23
808.19	1413.10
808.36	1499.11
808.54	1331.18
808.71	1286.12
808.88	1357.80
809.06	1396.71
809.23	1499.11
809.40	1308.65
809.58	1484.78
809.75	1322.99
809.92	1355.76
810.10	1447.91
810.27	1357.80
810.44	1322.99
810.62	1363.95
810.79	1351.66
810.96	1345.52
811.14	1335.28
811.31	1384.43
811.48	1351.66
811.66	1335.28
811.83	1425.39
812.00	1376.24
812.18	1431.53
812.35	1343.47
812.52	1306.60
812.69	1411.05
812.87	1378.28
813.04	1378.28
813.21	1312.75
813.39	1331.18
813.56	1304.56
813.73	1411.05
813.91	1372.14
814.08	1398.76
814.25	1361.90
814.42	1306.60
814.60	1370.09
814.77	1396.71
814.94	1382.38
815.12	1429.48
815.29	1394.67
815.46	1320.94
815.63	1335.28
815.81	1357.80
815.98	1322.99
816.15	1398.76
816.33	1357.80
816.50	1382.38
816.67	1353.71
816.84	1386.47
817.02	1286.12
817.19	1384.43
817.36	1419.24
817.53	1435.63
817.71	1314.80
817.88	1431.53
818.05	1308.65
818.22	1390.57
818.40	1439.72
818.57	1314.80
818.74	1314.80
818.91	1429.48
819.09	1355.76
819.26	1345.52
819.43	1318.89
819.60	1306.60
819.78	1372.14
819.95	1452.01
820.12	1396.71
820.29	1415.15
820.47	1396.71
820.64	1304.56
820.81	1282.03
820.98	1312.75
821.15	1327.08
821.33	1382.38
821.50	1261.55
821.67	1361.90
821.84	1386.47
822.02	1417.19
822.19	1343.47
822.36	1402.86
822.53	1353.71
822.70	1337.32
822.88	1406.95
823.05	1495.02
823.22	1351.66
823.39	1370.09
823.56	1394.67
823.74	1429.48
823.91	1263.60
824.08	1292.27
824.25	1279.98
824.42	1378.28
824.60	1302.51
824.77	1376.24
824.94	1337.32
825.11	1331.18
825.28	1243.12
825.45	1380.33
825.63	1372.14
825.80	1355.76
825.97	1394.67
826.14	1372.14
826.31	1310.70
826.48	1314.80
826.66	1402.86
826.83	1357.80
827.00	1390.57
827.17	1394.67
827.34	1355.76
827.51	1357.80
827.69	1421.29
827.86	1312.75
828.03	1413.10
828.20	1351.66
828.37	1302.51
828.54	1404.91
828.71	1308.65
828.89	1458.15
829.06	1351.66
829.23	1396.71
829.40	1325.04
829.57	1331.18
829.74	1351.66
829.91	1359.85
830.09	1404.91
830.26	1368.04
830.43	1441.77
830.60	1347.56
830.77	1421.29
830.94	1374.19
831.11	1384.43
831.28	1390.57
831.46	1437.67
831.63	1343.47
831.80	1452.01
831.97	1388.52
832.14	1378.28
832.31	1376.24
832.48	1382.38
832.65	1318.89
832.82	1374.19
832.99	1384.43
833.17	1347.56
833.34	1343.47
833.51	1423.34
833.68	1290.22
833.85	1333.23
834.02	1355.76
834.19	1284.08
834.36	1320.94
834.53	1382.38
834.70	1396.71
834.87	1429.48
835.04	1347.56
835.22	1374.19
835.39	1359.85
835.56	1413.10
835.73	1339.37
835.90	1380.33
836.07	1419.24
836.24	1413.10
836.41	1345.52
836.58	1378.28
836.75	1427.43
836.92	1400.81
837.09	1411.05
837.26	1363.95
837.43	1359.85
837.60	1431.53
837.77	1331.18
837.94	1374.19
838.12	1368.04
838.29	1439.72
838.46	1331.18
838.63	1327.08
838.80	1421.29
838.97	1347.56
839.14	1419.24
839.31	1406.95
839.48	1363.95
839.65	1413.10
839.82	1415.15
839.99	1396.71
840.16	1320.94
840.33	1353.71
840.50	1431.53
840.67	1386.47
840.84	1329.13
841.01	1329.13
841.18	1439.72
841.35	1329.13
841.52	1462.25
841.69	1357.80
841.86	1343.47
842.03	1368.04
842.20	1449.96
842.37	1361.90
842.54	1361.90
842.71	1343.47
842.88	1337.32
843.05	1402.86
843.22	1320.94
843.39	1349.61
843.56	1380.33
843.73	1325.04
843.90	1341.42
844.07	1359.85
844.24	1343.47
844.41	1452.01
844.58	1437.67
844.75	1378.28
844.92	1396.71
845.09	1357.80
845.26	1378.28
845.43	1378.28
845.60	1378.28
845.77	1384.43
845.94	1374.19
846.10	1454.06
846.27	1329.13
846.44	1322.99
846.61	1265.64
846.78	1345.52
846.95	1384.43
847.12	1341.42
847.29	1322.99
847.46	1300.46
847.63	1372.14
847.80	1343.47
847.97	1325.04
848.14	1452.01
848.31	1370.09
848.48	1302.51
848.65	1421.29
848.82	1331.18
848.98	1388.52
849.15	1431.53
849.32	1406.95
849.49	1366.00
849.66	1409.00
849.83	1443.82
850.00	1325.04
850.17	1445.87
850.34	1392.62
850.51	1351.66
850.68	1359.85
850.85	1402.86
851.01	1419.24
851.18	1327.08
851.35	1404.91
851.52	1376.24
851.69	1411.05
851.86	1304.56
852.03	1351.66
852.20	1347.56
852.37	1421.29
852.53	1300.46
852.70	1357.80
852.87	1437.67
853.04	1363.95
853.21	1296.36
853.38	1396.71
853.55	1449.96
853.72	1396.71
853.89	1347.56
854.05	1306.60
854.22	1431.53
854.39	1406.95
854.56	1396.71
854.73	1402.86
854.90	1392.62
855.07	1386.47
855.23	1327.08
855.40	1390.57
855.57	1322.99
855.74	1382.38
855.91	1484.78
856.08	1325.04
856.25	1322.99
856.41	1351.66
856.58	1388.52
856.75	1337.32
856.92	1392.62
857.09	1343.47
857.26	1372.14
857.42	1378.28
857.59	1503.21
857.76	1380.33
857.93	1441.77
858.10	1443.82
858.27	1294.32
858.43	1320.94
858.60	1302.51
858.77	1329.13
858.94	1398.76
859.11	1464.30
859.27	1349.61
859.44	1402.86
859.61	1466.35
859.78	1357.80
859.95	1337.32
860.12	1339.37
860.28	1411.05
860.45	1460.20
860.62	1294.32
860.79	1318.89
860.95	1314.80
861.12	1284.08
861.29	1374.19
861.46	1388.52
861.63	1333.23
861.79	1320.94
861.96	1378.28
862.13	1353.71
862.30	1382.38
862.47	1302.51
862.63	1368.04
862.80	1437.67
862.97	1366.00
863.14	1417.19
863.30	1429.48
863.47	1411.05
863.64	1402.86
863.81	1425.39
863.97	1431.53
864.14	1394.67
864.31	1325.04
864.48	1366.00
864.65	1402.86
864.81	1335.28
864.98	1409.00
865.15	1372.14
865.32	1396.71
865.48	1429.48
865.65	1427.43
865.82	1347.56
865.98	1411.05
866.15	1363.95
866.32	1349.61
866.49	1386.47
866.65	1388.52
866.82	1306.60
866.99	1366.00
867.16	1347.56
867.32	1325.04
867.49	1361.90
867.66	1382.38
867.83	1398.76
867.99	1284.08
868.16	1337.32
868.33	1308.65
868.49	1376.24
868.66	1353.71
868.83	1429.48
868.99	1269.74
869.16	1415.15
869.33	1417.19
869.50	1443.82
869.66	1349.61
869.83	1503.21
870.00	1349.61
870.16	1482.73
870.33	1329.13
870.50	1447.91
870.66	1380.33
870.83	1486.83
871.00	1372.14
871.17	1368.04
871.33	1374.19
871.50	1275.88
871.67	1361.90
871.83	1335.28
872.00	1396.71
872.17	1271.79
872.33	1404.91
872.50	1441.77
872.67	1433.58
872.83	1404.91
873.00	1374.19
873.17	1419.24
873.33	1402.86
873.50	1380.33
873.67	1359.85
873.83	1290.22
874.00	1355.76
874.16	1359.85
874.33	1351.66
874.50	1298.41
874.66	1308.65
874.83	1372.14
875.00	1380.33
875.16	1404.91
875.33	1437.67
875.50	1345.52
875.66	1269.74
875.83	1411.05
875.99	1325.04
876.16	1345.52
876.33	1337.32
876.49	1355.76
876.66	1411.05
876.83	1325.04
876.99	1370.09
877.16	1404.91
877.32	1333.23
877.49	1345.52
877.66	1427.43
877.82	1439.72
877.99	1322.99
878.15	1388.52
878.32	1400.81
878.49	1396.71
878.65	1366.00
878.82	1409.00
878.98	1325.04
879.15	1460.20
879.32	1363.95
879.48	1447.91
879.65	1425.39
879.81	1437.67
879.98	1339.37
880.15	1341.42
880.31	1363.95
880.48	1310.70
880.64	1439.72
880.81	1335.28
880.97	1413.10
881.14	1439.72
881.31	1343.47
881.47	1480.68
881.64	1327.08
881.80	1331.18
881.97	1384.43
882.13	1406.95
882.30	1357.80
882.47	1335.28
882.63	1341.42
882.80	1241.07
882.96	1351.66
883.13	1437.67
883.29	1300.46
883.46	1398.76
883.62	1363.95
883.79	1368.04
883.95	1384.43
884.12	1388.52
884.29	1421.29
884.45	1325.04
884.62	1366.00
884.78	1355.76
884.95	1417.19
885.11	1402.86
885.28	1298.41
885.44	1296.36
885.61	1363.95
885.77	1384.43
885.94	1396.71
886.10	1394.67
886.27	1415.15
886.43	1413.10
886.60	1433.58
886.76	1304.56
886.93	1316.84
887.09	1318.89
887.26	1374.19
887.42	1300.46
887.59	1282.03
887.75	1441.77
887.92	1474.54
888.08	1398.76
888.25	1435.63
888.41	1376.24
888.58	1366.00
888.74	1267.69
888.91	1282.03
>>>>>End Processed Spectral Data<<<<<
