SpectraSuite Data File
++++++++++++++++++++++++++++++++++++
Date: Tue May 03 11:24:25 CEST 2016
User: root
Dark Spectrum Present: No
Reference Spectrum Present: No
Number of Sampled Component Spectra: 1
Spectrometers: USB4C02835
Integration Time (usec): 100000 (USB4C02835)
Spectra Averaged: 1 (USB4C02835)
Boxcar Smoothing: 0 (USB4C02835)
Correct for Electrical Dark: No (USB4C02835)
Strobe/Lamp Enabled: No (USB4C02835)
Correct for Detector Non-linearity: No (USB4C02835)
Correct for Stray Light: No (USB4C02835)
Number of Pixels in Processed Spectrum: 3648
>>>>>Begin Processed Spectral Data<<<<<
177.47	1210.35
177.69	1210.35
177.91	1210.35
178.13	1243.12
178.36	1173.49
178.58	1290.22
178.80	1292.27
179.02	1208.30
179.24	1386.47
179.46	1357.80
179.68	1427.43
179.90	1327.08
180.13	1406.95
180.35	1431.53
180.57	1380.33
180.79	1378.28
181.01	1357.80
181.23	1454.06
181.45	1431.53
181.67	1372.14
181.90	1351.66
182.12	1368.04
182.34	1333.23
182.56	1366.00
182.78	1404.91
183.00	1374.19
183.22	1306.60
183.44	1331.18
183.66	1470.44
183.89	1460.20
184.11	1322.99
184.33	1404.91
184.55	1392.62
184.77	1409.00
184.99	1409.00
185.21	1271.79
185.43	1460.20
185.65	1413.10
185.87	1437.67
186.10	1427.43
186.32	1482.73
186.54	1411.05
186.76	1425.39
186.98	1392.62
187.20	1384.43
187.42	1357.80
187.64	1374.19
187.86	1382.38
188.08	1394.67
188.30	1409.00
188.52	1331.18
188.75	1482.73
188.97	1363.95
189.19	1380.33
189.41	1392.62
189.63	1409.00
189.85	1400.81
190.07	1359.85
190.29	1355.76
190.51	1411.05
190.73	1363.95
190.95	1423.34
191.17	1376.24
191.39	1306.60
191.61	1361.90
191.84	1411.05
192.06	1331.18
192.28	1327.08
192.50	1462.25
192.72	1363.95
192.94	1320.94
193.16	1353.71
193.38	1359.85
193.60	1337.32
193.82	1384.43
194.04	1363.95
194.26	1370.09
194.48	1302.51
194.70	1370.09
194.92	1298.41
195.14	1265.64
195.36	1359.85
195.58	1322.99
195.80	1351.66
196.02	1394.67
196.24	1345.52
196.46	1298.41
196.69	1306.60
196.91	1447.91
197.13	1380.33
197.35	1325.04
197.57	1404.91
197.79	1460.20
198.01	1411.05
198.23	1378.28
198.45	1368.04
198.67	1366.00
198.89	1331.18
199.11	1413.10
199.33	1320.94
199.55	1331.18
199.77	1417.19
199.99	1406.95
200.21	1382.38
200.43	1382.38
200.65	1304.56
200.87	1320.94
201.09	1378.28
201.31	1292.27
201.53	1433.58
201.75	1374.19
201.97	1409.00
202.19	1308.65
202.41	1415.15
202.63	1437.67
202.85	1392.62
203.07	1366.00
203.29	1404.91
203.51	1275.88
203.73	1368.04
203.95	1452.01
204.17	1396.71
204.39	1380.33
204.61	1351.66
204.83	1331.18
205.05	1390.57
205.27	1357.80
205.49	1439.72
205.71	1427.43
205.93	1273.84
206.15	1347.56
206.37	1339.37
206.59	1372.14
206.81	1359.85
207.03	1304.56
207.25	1310.70
207.47	1394.67
207.69	1402.86
207.91	1402.86
208.13	1449.96
208.34	1378.28
208.56	1372.14
208.78	1402.86
209.00	1378.28
209.22	1345.52
209.44	1409.00
209.66	1372.14
209.88	1353.71
210.10	1327.08
210.32	1370.09
210.54	1394.67
210.76	1433.58
210.98	1419.24
211.20	1277.93
211.42	1363.95
211.64	1452.01
211.86	1384.43
212.08	1400.81
212.30	1458.15
212.52	1363.95
212.74	1429.48
212.96	1400.81
213.17	1390.57
213.39	1378.28
213.61	1396.71
213.83	1474.54
214.05	1294.32
214.27	1421.29
214.49	1355.76
214.71	1474.54
214.93	1335.28
215.15	1372.14
215.37	1402.86
215.59	1349.61
215.81	1429.48
216.03	1431.53
216.24	1363.95
216.46	1411.05
216.68	1355.76
216.90	1351.66
217.12	1466.35
217.34	1370.09
217.56	1425.39
217.78	1454.06
218.00	1445.87
218.22	1384.43
218.44	1372.14
218.66	1374.19
218.87	1427.43
219.09	1347.56
219.31	1390.57
219.53	1384.43
219.75	1337.32
219.97	1331.18
220.19	1376.24
220.41	1374.19
220.63	1456.11
220.85	1409.00
221.06	1386.47
221.28	1435.63
221.50	1449.96
221.72	1398.76
221.94	1386.47
222.16	1347.56
222.38	1437.67
222.60	1417.19
222.82	1292.27
223.03	1423.34
223.25	1351.66
223.47	1374.19
223.69	1431.53
223.91	1343.47
224.13	1378.28
224.35	1359.85
224.57	1419.24
224.78	1322.99
225.00	1384.43
225.22	1411.05
225.44	1349.61
225.66	1392.62
225.88	1335.28
226.10	1368.04
226.32	1347.56
226.53	1374.19
226.75	1374.19
226.97	1368.04
227.19	1353.71
227.41	1314.80
227.63	1374.19
227.85	1380.33
228.06	1411.05
228.28	1392.62
228.50	1384.43
228.72	1398.76
228.94	1345.52
229.16	1368.04
229.37	1318.89
229.59	1388.52
229.81	1366.00
230.03	1312.75
230.25	1288.17
230.47	1359.85
230.69	1286.12
230.90	1386.47
231.12	1292.27
231.34	1312.75
231.56	1359.85
231.78	1269.74
232.00	1359.85
232.21	1400.81
232.43	1345.52
232.65	1230.83
232.87	1353.71
233.09	1345.52
233.30	1331.18
233.52	1431.53
233.74	1392.62
233.96	1417.19
234.18	1456.11
234.40	1304.56
234.61	1398.76
234.83	1363.95
235.05	1292.27
235.27	1458.15
235.49	1382.38
235.70	1357.80
235.92	1402.86
236.14	1421.29
236.36	1476.59
236.58	1273.84
236.79	1370.09
237.01	1376.24
237.23	1404.91
237.45	1439.72
237.67	1359.85
237.88	1282.03
238.10	1445.87
238.32	1339.37
238.54	1343.47
238.76	1349.61
238.97	1273.84
239.19	1415.15
239.41	1374.19
239.63	1456.11
239.85	1279.98
240.06	1296.36
240.28	1363.95
240.50	1345.52
240.72	1406.95
240.93	1390.57
241.15	1382.38
241.37	1335.28
241.59	1361.90
241.81	1374.19
242.02	1394.67
242.24	1421.29
242.46	1353.71
242.68	1318.89
242.89	1478.63
243.11	1355.76
243.33	1378.28
243.55	1329.13
243.76	1347.56
243.98	1406.95
244.20	1318.89
244.42	1376.24
244.64	1421.29
244.85	1361.90
245.07	1366.00
245.29	1384.43
245.51	1396.71
245.72	1351.66
245.94	1476.59
246.16	1361.90
246.38	1423.34
246.59	1343.47
246.81	1292.27
247.03	1322.99
247.24	1292.27
247.46	1380.33
247.68	1378.28
247.90	1409.00
248.11	1431.53
248.33	1415.15
248.55	1372.14
248.77	1335.28
248.98	1368.04
249.20	1476.59
249.42	1351.66
249.64	1333.23
249.85	1353.71
250.07	1374.19
250.29	1417.19
250.50	1398.76
250.72	1339.37
250.94	1284.08
251.16	1462.25
251.37	1431.53
251.59	1376.24
251.81	1308.65
252.02	1386.47
252.24	1316.84
252.46	1378.28
252.68	1337.32
252.89	1413.10
253.11	1370.09
253.33	1464.30
253.54	1415.15
253.76	1409.00
253.98	1464.30
254.20	1306.60
254.41	1261.55
254.63	1265.64
254.85	1327.08
255.06	1390.57
255.28	1378.28
255.50	1333.23
255.71	1322.99
255.93	1355.76
256.15	1302.51
256.36	1423.34
256.58	1318.89
256.80	1372.14
257.02	1361.90
257.23	1325.04
257.45	1376.24
257.67	1400.81
257.88	1292.27
258.10	1349.61
258.32	1339.37
258.53	1402.86
258.75	1396.71
258.97	1296.36
259.18	1322.99
259.40	1447.91
259.62	1363.95
259.83	1382.38
260.05	1349.61
260.27	1544.17
260.48	1415.15
260.70	1263.60
260.92	1392.62
261.13	1400.81
261.35	1349.61
261.57	1409.00
261.78	1368.04
262.00	1429.48
262.22	1378.28
262.43	1329.13
262.65	1310.70
262.86	1351.66
263.08	1447.91
263.30	1396.71
263.51	1306.60
263.73	1357.80
263.95	1363.95
264.16	1372.14
264.38	1392.62
264.60	1464.30
264.81	1296.36
265.03	1411.05
265.25	1298.41
265.46	1437.67
265.68	1396.71
265.89	1361.90
266.11	1312.75
266.33	1376.24
266.54	1466.35
266.76	1384.43
266.98	1366.00
267.19	1466.35
267.41	1378.28
267.62	1339.37
267.84	1372.14
268.06	1380.33
268.27	1398.76
268.49	1429.48
268.70	1361.90
268.92	1404.91
269.14	1368.04
269.35	1361.90
269.57	1345.52
269.79	1372.14
270.00	1357.80
270.22	1439.72
270.43	1288.17
270.65	1255.40
270.87	1337.32
271.08	1347.56
271.30	1429.48
271.51	1437.67
271.73	1370.09
271.95	1404.91
272.16	1378.28
272.38	1396.71
272.59	1392.62
272.81	1404.91
273.02	1327.08
273.24	1443.82
273.46	1392.62
273.67	1359.85
273.89	1320.94
274.10	1382.38
274.32	1425.39
274.54	1382.38
274.75	1320.94
274.97	1394.67
275.18	1376.24
275.40	1339.37
275.61	1357.80
275.83	1357.80
276.05	1392.62
276.26	1357.80
276.48	1406.95
276.69	1261.55
276.91	1349.61
277.12	1435.63
277.34	1384.43
277.55	1406.95
277.77	1427.43
277.99	1337.32
278.20	1314.80
278.42	1275.88
278.63	1292.27
278.85	1296.36
279.06	1345.52
279.28	1378.28
279.49	1427.43
279.71	1363.95
279.93	1300.46
280.14	1370.09
280.36	1318.89
280.57	1413.10
280.79	1343.47
281.00	1368.04
281.22	1333.23
281.43	1363.95
281.65	1320.94
281.86	1308.65
282.08	1392.62
282.29	1449.96
282.51	1388.52
282.73	1368.04
282.94	1376.24
283.16	1388.52
283.37	1449.96
283.59	1355.76
283.80	1396.71
284.02	1372.14
284.23	1482.73
284.45	1341.42
284.66	1327.08
284.88	1241.07
285.09	1400.81
285.31	1314.80
285.52	1353.71
285.74	1312.75
285.95	1392.62
286.17	1368.04
286.38	1462.25
286.60	1333.23
286.81	1277.93
287.03	1394.67
287.24	1427.43
287.46	1445.87
287.67	1382.38
287.89	1419.24
288.10	1392.62
288.32	1386.47
288.53	1406.95
288.75	1413.10
288.96	1392.62
289.18	1282.03
289.39	1312.75
289.61	1460.20
289.82	1484.78
290.04	1419.24
290.25	1351.66
290.47	1363.95
290.68	1325.04
290.90	1488.87
291.11	1325.04
291.33	1400.81
291.54	1353.71
291.76	1331.18
291.97	1376.24
292.18	1402.86
292.40	1300.46
292.61	1349.61
292.83	1441.77
293.04	1374.19
293.26	1363.95
293.47	1312.75
293.69	1417.19
293.90	1361.90
294.12	1413.10
294.33	1339.37
294.55	1374.19
294.76	1335.28
294.97	1437.67
295.19	1411.05
295.40	1394.67
295.62	1310.70
295.83	1413.10
296.05	1427.43
296.26	1406.95
296.48	1335.28
296.69	1378.28
296.90	1366.00
297.12	1378.28
297.33	1449.96
297.55	1372.14
297.76	1394.67
297.98	1320.94
298.19	1396.71
298.41	1298.41
298.62	1333.23
298.83	1382.38
299.05	1372.14
299.26	1296.36
299.48	1322.99
299.69	1337.32
299.90	1349.61
300.12	1429.48
300.33	1384.43
300.55	1374.19
300.76	1445.87
300.98	1310.70
301.19	1431.53
301.40	1294.32
301.62	1351.66
301.83	1359.85
302.05	1361.90
302.26	1406.95
302.47	1322.99
302.69	1294.32
302.90	1343.47
303.12	1351.66
303.33	1380.33
303.54	1452.01
303.76	1361.90
303.97	1363.95
304.19	1466.35
304.40	1308.65
304.61	1312.75
304.83	1511.40
305.04	1497.07
305.26	1359.85
305.47	1310.70
305.68	1349.61
305.90	1312.75
306.11	1386.47
306.33	1398.76
306.54	1333.23
306.75	1398.76
306.97	1275.88
307.18	1411.05
307.39	1357.80
307.61	1374.19
307.82	1308.65
308.04	1413.10
308.25	1345.52
308.46	1355.76
308.68	1351.66
308.89	1327.08
309.10	1400.81
309.32	1345.52
309.53	1402.86
309.74	1359.85
309.96	1327.08
310.17	1398.76
310.39	1327.08
310.60	1343.47
310.81	1374.19
311.03	1273.84
311.24	1415.15
311.45	1261.55
311.67	1409.00
311.88	1347.56
312.09	1355.76
312.31	1390.57
312.52	1353.71
312.73	1386.47
312.95	1265.64
313.16	1347.56
313.37	1335.28
313.59	1392.62
313.80	1527.78
314.01	1409.00
314.23	1320.94
314.44	1378.28
314.65	1284.08
314.87	1339.37
315.08	1327.08
315.29	1406.95
315.51	1351.66
315.72	1298.41
315.93	1478.63
316.15	1413.10
316.36	1294.32
316.57	1384.43
316.79	1355.76
317.00	1351.66
317.21	1327.08
317.43	1396.71
317.64	1316.84
317.85	1419.24
318.07	1435.63
318.28	1511.40
318.49	1572.84
318.70	1685.48
318.92	1495.02
319.13	1501.16
319.34	1490.92
319.56	1476.59
319.77	1445.87
319.98	1505.26
320.20	1429.48
320.41	1413.10
320.62	1353.71
320.83	1343.47
321.05	1449.96
321.26	1429.48
321.47	1435.63
321.69	1458.15
321.90	1376.24
322.11	1429.48
322.32	1275.88
322.54	1439.72
322.75	1343.47
322.96	1382.38
323.18	1302.51
323.39	1314.80
323.60	1363.95
323.81	1392.62
324.03	1374.19
324.24	1464.30
324.45	1370.09
324.66	1376.24
324.88	1398.76
325.09	1445.87
325.30	1378.28
325.52	1357.80
325.73	1404.91
325.94	1341.42
326.15	1384.43
326.37	1357.80
326.58	1366.00
326.79	1388.52
327.00	1302.51
327.22	1359.85
327.43	1322.99
327.64	1322.99
327.85	1279.98
328.07	1265.64
328.28	1449.96
328.49	1435.63
328.70	1368.04
328.92	1380.33
329.13	1292.27
329.34	1425.39
329.55	1476.59
329.76	1396.71
329.98	1339.37
330.19	1402.86
330.40	1402.86
330.61	1374.19
330.83	1462.25
331.04	1361.90
331.25	1384.43
331.46	1411.05
331.68	1363.95
331.89	1400.81
332.10	1386.47
332.31	1298.41
332.52	1374.19
332.74	1466.35
332.95	1257.45
333.16	1382.38
333.37	1419.24
333.58	1333.23
333.80	1341.42
334.01	1241.07
334.22	1411.05
334.43	1363.95
334.64	1398.76
334.86	1243.12
335.07	1290.22
335.28	1452.01
335.49	1366.00
335.70	1413.10
335.92	1470.44
336.13	1435.63
336.34	1458.15
336.55	1449.96
336.76	1337.32
336.98	1286.12
337.19	1429.48
337.40	1421.29
337.61	1437.67
337.82	1296.36
338.04	1402.86
338.25	1335.28
338.46	1345.52
338.67	1325.04
338.88	1347.56
339.09	1349.61
339.31	1353.71
339.52	1388.52
339.73	1257.45
339.94	1400.81
340.15	1347.56
340.36	1347.56
340.58	1370.09
340.79	1343.47
341.00	1402.86
341.21	1359.85
341.42	1460.20
341.63	1372.14
341.85	1372.14
342.06	1370.09
342.27	1357.80
342.48	1429.48
342.69	1339.37
342.90	1357.80
343.12	1392.62
343.33	1347.56
343.54	1435.63
343.75	1435.63
343.96	1314.80
344.17	1357.80
344.38	1355.76
344.60	1370.09
344.81	1384.43
345.02	1433.58
345.23	1476.59
345.44	1396.71
345.65	1425.39
345.86	1374.19
346.07	1368.04
346.29	1347.56
346.50	1372.14
346.71	1392.62
346.92	1441.77
347.13	1409.00
347.34	1239.02
347.55	1372.14
347.76	1390.57
347.98	1294.32
348.19	1380.33
348.40	1404.91
348.61	1443.82
348.82	1390.57
349.03	1376.24
349.24	1314.80
349.45	1441.77
349.66	1312.75
349.88	1347.56
350.09	1404.91
350.30	1343.47
350.51	1411.05
350.72	1384.43
350.93	1411.05
351.14	1333.23
351.35	1366.00
351.56	1374.19
351.77	1402.86
351.99	1394.67
352.20	1456.11
352.41	1363.95
352.62	1337.32
352.83	1402.86
353.04	1341.42
353.25	1380.33
353.46	1472.49
353.67	1425.39
353.88	1282.03
354.09	1359.85
354.30	1302.51
354.52	1325.04
354.73	1421.29
354.94	1392.62
355.15	1382.38
355.36	1458.15
355.57	1382.38
355.78	1382.38
355.99	1353.71
356.20	1380.33
356.41	1384.43
356.62	1347.56
356.83	1378.28
357.04	1396.71
357.25	1259.50
357.46	1396.71
357.68	1349.61
357.89	1402.86
358.10	1394.67
358.31	1374.19
358.52	1406.95
358.73	1370.09
358.94	1320.94
359.15	1363.95
359.36	1339.37
359.57	1331.18
359.78	1384.43
359.99	1431.53
360.20	1337.32
360.41	1345.52
360.62	1423.34
360.83	1366.00
361.04	1396.71
361.25	1376.24
361.46	1452.01
361.67	1402.86
361.88	1421.29
362.09	1341.42
362.30	1503.21
362.51	1314.80
362.72	1380.33
362.93	1388.52
363.14	1456.11
363.35	1439.72
363.56	1302.51
363.78	1460.20
363.99	1486.83
364.20	1304.56
364.41	1374.19
364.62	1386.47
364.83	1388.52
365.04	1343.47
365.25	1361.90
365.46	1366.00
365.67	1361.90
365.88	1417.19
366.09	1351.66
366.30	1335.28
366.51	1368.04
366.72	1325.04
366.93	1396.71
367.14	1368.04
367.35	1376.24
367.56	1402.86
367.77	1411.05
367.98	1411.05
368.18	1376.24
368.39	1347.56
368.60	1361.90
368.81	1427.43
369.02	1337.32
369.23	1366.00
369.44	1284.08
369.65	1302.51
369.86	1411.05
370.07	1372.14
370.28	1351.66
370.49	1439.72
370.70	1433.58
370.91	1349.61
371.12	1363.95
371.33	1415.15
371.54	1386.47
371.75	1392.62
371.96	1318.89
372.17	1380.33
372.38	1439.72
372.59	1441.77
372.80	1390.57
373.01	1374.19
373.22	1361.90
373.43	1335.28
373.64	1306.60
373.85	1351.66
374.06	1429.48
374.26	1368.04
374.47	1445.87
374.68	1370.09
374.89	1314.80
375.10	1361.90
375.31	1302.51
375.52	1366.00
375.73	1355.76
375.94	1368.04
376.15	1411.05
376.36	1320.94
376.57	1400.81
376.78	1351.66
376.99	1378.28
377.20	1429.48
377.40	1437.67
377.61	1452.01
377.82	1314.80
378.03	1421.29
378.24	1402.86
378.45	1386.47
378.66	1433.58
378.87	1392.62
379.08	1353.71
379.29	1372.14
379.50	1464.30
379.71	1290.22
379.91	1400.81
380.12	1374.19
380.33	1380.33
380.54	1343.47
380.75	1429.48
380.96	1298.41
381.17	1517.54
381.38	1488.87
381.59	1392.62
381.80	1398.76
382.00	1525.74
382.21	1464.30
382.42	1452.01
382.63	1552.36
382.84	1370.09
383.05	1552.36
383.26	1443.82
383.47	1406.95
383.68	1429.48
383.88	1296.36
384.09	1402.86
384.30	1449.96
384.51	1400.81
384.72	1320.94
384.93	1292.27
385.14	1398.76
385.35	1382.38
385.55	1431.53
385.76	1466.35
385.97	1284.08
386.18	1382.38
386.39	1386.47
386.60	1495.02
386.81	1386.47
387.02	1296.36
387.22	1404.91
387.43	1492.97
387.64	1601.51
387.85	2303.96
388.06	5754.79
388.27	9461.62
388.48	11546.45
388.68	12898.11
388.89	13287.22
389.10	10458.98
389.31	9103.22
389.52	8333.18
389.73	7319.44
389.93	6993.81
390.14	6510.49
390.35	6002.60
390.56	5488.56
390.77	4575.16
390.98	3680.20
391.18	2897.88
391.39	2099.17
391.60	1654.76
391.81	1572.84
392.02	1495.02
392.23	1542.12
392.43	1353.71
392.64	1452.01
392.85	1347.56
393.06	1378.28
393.27	1345.52
393.47	1345.52
393.68	1392.62
393.89	1353.71
394.10	1406.95
394.31	1284.08
394.52	1370.09
394.72	1368.04
394.93	1392.62
395.14	1335.28
395.35	1394.67
395.56	1423.34
395.76	1482.73
395.97	1619.94
396.18	1591.27
396.39	1628.14
396.60	1632.23
396.80	1515.50
397.01	1550.31
397.22	1486.83
397.43	1492.97
397.64	1454.06
397.84	1480.68
398.05	1460.20
398.26	1409.00
398.47	1452.01
398.67	1419.24
398.88	1345.52
399.09	1355.76
399.30	1378.28
399.51	1388.52
399.71	1345.52
399.92	1466.35
400.13	1361.90
400.34	1413.10
400.54	1368.04
400.75	1325.04
400.96	1478.63
401.17	1454.06
401.37	1478.63
401.58	1359.85
401.79	1449.96
402.00	1665.00
402.21	1816.55
402.41	1785.83
402.62	1771.49
402.83	1695.72
403.04	1703.91
403.24	1691.62
403.45	1464.30
403.66	1591.27
403.87	1505.26
404.07	1531.88
404.28	1546.22
404.49	1519.59
404.70	1517.54
404.90	1562.60
405.11	1370.09
405.32	1415.15
405.52	1349.61
405.73	1314.80
405.94	1363.95
406.15	1361.90
406.35	1431.53
406.56	1437.67
406.77	1310.70
406.98	1374.19
407.18	1396.71
407.39	1441.77
407.60	1337.32
407.80	1447.91
408.01	1384.43
408.22	1388.52
408.43	1341.42
408.63	1396.71
408.84	1423.34
409.05	1406.95
409.25	1376.24
409.46	1282.03
409.67	1343.47
409.88	1361.90
410.08	1378.28
410.29	1320.94
410.50	1353.71
410.70	1370.09
410.91	1335.28
411.12	1341.42
411.32	1423.34
411.53	1392.62
411.74	1429.48
411.95	1476.59
412.15	1476.59
412.36	1413.10
412.57	1398.76
412.77	1384.43
412.98	1452.01
413.19	1390.57
413.39	1423.34
413.60	1421.29
413.81	1419.24
414.01	1380.33
414.22	1433.58
414.43	1421.29
414.63	1419.24
414.84	1404.91
415.05	1363.95
415.25	1277.93
415.46	1439.72
415.67	1402.86
415.87	1343.47
416.08	1435.63
416.29	1404.91
416.49	1394.67
416.70	1349.61
416.91	1417.19
417.11	1380.33
417.32	1384.43
417.53	1441.77
417.73	1331.18
417.94	1392.62
418.15	1347.56
418.35	1394.67
418.56	1380.33
418.77	1447.91
418.97	1314.80
419.18	1341.42
419.38	1316.84
419.59	1361.90
419.80	1423.34
420.00	1290.22
420.21	1312.75
420.42	1484.78
420.62	1437.67
420.83	1402.86
421.04	1329.13
421.24	1372.14
421.45	1464.30
421.65	1372.14
421.86	1429.48
422.07	1388.52
422.27	1402.86
422.48	1400.81
422.69	1269.74
422.89	1341.42
423.10	1380.33
423.30	1398.76
423.51	1368.04
423.72	1388.52
423.92	1435.63
424.13	1302.51
424.33	1357.80
424.54	1470.44
424.75	1400.81
424.95	1341.42
425.16	1359.85
425.36	1355.76
425.57	1382.38
425.78	1443.82
425.98	1406.95
426.19	1353.71
426.39	1351.66
426.60	1404.91
426.81	1490.92
427.01	1396.71
427.22	1312.75
427.42	1296.36
427.63	1329.13
427.83	1363.95
428.04	1443.82
428.25	1353.71
428.45	1335.28
428.66	1359.85
428.86	1406.95
429.07	1341.42
429.28	1318.89
429.48	1366.00
429.69	1441.77
429.89	1333.23
430.10	1306.60
430.30	1349.61
430.51	1343.47
430.71	1288.17
430.92	1394.67
431.13	1351.66
431.33	1380.33
431.54	1359.85
431.74	1488.87
431.95	1452.01
432.15	1286.12
432.36	1423.34
432.56	1406.95
432.77	1413.10
432.98	1359.85
433.18	1384.43
433.39	1339.37
433.59	1363.95
433.80	1488.87
434.00	1507.30
434.21	1312.75
434.41	1349.61
434.62	1476.59
434.82	1310.70
435.03	1392.62
435.23	1368.04
435.44	1294.32
435.64	1425.39
435.85	1355.76
436.06	1454.06
436.26	1411.05
436.47	1368.04
436.67	1368.04
436.88	1386.47
437.08	1404.91
437.29	1384.43
437.49	1329.13
437.70	1419.24
437.90	1392.62
438.11	1533.93
438.31	1458.15
438.52	1609.70
438.72	1566.70
438.93	1599.46
439.13	1470.44
439.34	1445.87
439.54	1468.39
439.75	1441.77
439.95	1372.14
440.16	1400.81
440.36	1400.81
440.57	1435.63
440.77	1421.29
440.98	1472.49
441.18	1509.35
441.39	1390.57
441.59	1411.05
441.80	1435.63
442.00	1366.00
442.21	1439.72
442.41	1355.76
442.62	1413.10
442.82	1355.76
443.02	1415.15
443.23	1353.71
443.43	1335.28
443.64	1456.11
443.84	1376.24
444.05	1449.96
444.25	1314.80
444.46	1380.33
444.66	1329.13
444.87	1433.58
445.07	1325.04
445.28	1413.10
445.48	1425.39
445.69	1429.48
445.89	1511.40
446.09	1441.77
446.30	2297.82
446.50	3747.78
446.71	4802.49
446.91	5400.49
447.12	5504.94
447.32	4960.18
447.53	4022.21
447.73	3778.50
447.93	3456.97
448.14	3035.09
448.34	3037.14
448.55	2809.81
448.75	2828.24
448.96	2643.93
449.16	2471.90
449.36	2217.95
449.57	1904.61
449.77	1685.48
449.98	1499.11
450.18	1527.78
450.39	1413.10
450.59	1456.11
450.79	1429.48
451.00	1355.76
451.20	1376.24
451.41	1404.91
451.61	1415.15
451.81	1345.52
452.02	1271.79
452.22	1378.28
452.43	1376.24
452.63	1398.76
452.84	1357.80
453.04	1310.70
453.24	1390.57
453.45	1353.71
453.65	1357.80
453.86	1392.62
454.06	1359.85
454.26	1337.32
454.47	1386.47
454.67	1374.19
454.87	1347.56
455.08	1333.23
455.28	1406.95
455.49	1409.00
455.69	1347.56
455.89	1470.44
456.10	1380.33
456.30	1335.28
456.51	1337.32
456.71	1429.48
456.91	1382.38
457.12	1355.76
457.32	1421.29
457.52	1308.65
457.73	1431.53
457.93	1423.34
458.14	1327.08
458.34	1282.03
458.54	1361.90
458.75	1306.60
458.95	1322.99
459.15	1396.71
459.36	1378.28
459.56	1316.84
459.76	1435.63
459.97	1361.90
460.17	1423.34
460.37	1380.33
460.58	1404.91
460.78	1402.86
460.99	1335.28
461.19	1368.04
461.39	1376.24
461.60	1384.43
461.80	1390.57
462.00	1322.99
462.21	1355.76
462.41	1386.47
462.61	1359.85
462.82	1304.56
463.02	1388.52
463.22	1363.95
463.43	1419.24
463.63	1361.90
463.83	1406.95
464.04	1417.19
464.24	1335.28
464.44	1331.18
464.64	1361.90
464.85	1376.24
465.05	1540.07
465.25	1357.80
465.46	1302.51
465.66	1355.76
465.86	1429.48
466.07	1425.39
466.27	1355.76
466.47	1308.65
466.68	1345.52
466.88	1443.82
467.08	1458.15
467.29	1411.05
467.49	1435.63
467.69	1378.28
467.89	1277.93
468.10	1359.85
468.30	1382.38
468.50	1386.47
468.71	1449.96
468.91	1335.28
469.11	1456.11
469.31	1345.52
469.52	1343.47
469.72	1404.91
469.92	1484.78
470.13	1402.86
470.33	1456.11
470.53	1665.00
470.73	1978.34
470.94	2220.00
471.14	2316.25
471.34	2529.24
471.54	2355.16
471.75	2107.36
471.95	1945.57
472.15	1902.56
472.36	1834.98
472.56	1810.40
472.76	1695.72
472.96	1712.10
473.17	1751.01
473.37	1683.43
473.57	1527.78
473.77	1490.92
473.98	1499.11
474.18	1353.71
474.38	1484.78
474.58	1359.85
474.79	1363.95
474.99	1402.86
475.19	1394.67
475.39	1345.52
475.60	1329.13
475.80	1376.24
476.00	1327.08
476.20	1353.71
476.41	1378.28
476.61	1425.39
476.81	1415.15
477.01	1404.91
477.21	1464.30
477.42	1376.24
477.62	1351.66
477.82	1454.06
478.02	1314.80
478.23	1372.14
478.43	1355.76
478.63	1366.00
478.83	1298.41
479.03	1372.14
479.24	1388.52
479.44	1355.76
479.64	1396.71
479.84	1341.42
480.04	1378.28
480.25	1380.33
480.45	1382.38
480.65	1361.90
480.85	1388.52
481.06	1380.33
481.26	1402.86
481.46	1437.67
481.66	1335.28
481.86	1345.52
482.06	1396.71
482.27	1411.05
482.47	1425.39
482.67	1390.57
482.87	1322.99
483.07	1497.07
483.28	1376.24
483.48	1316.84
483.68	1394.67
483.88	1357.80
484.08	1314.80
484.29	1388.52
484.49	1359.85
484.69	1345.52
484.89	1388.52
485.09	1437.67
485.29	1376.24
485.50	1347.56
485.70	1376.24
485.90	1394.67
486.10	1386.47
486.30	1421.29
486.50	1429.48
486.71	1417.19
486.91	1351.66
487.11	1396.71
487.31	1243.12
487.51	1347.56
487.71	1372.14
487.91	1357.80
488.12	1279.98
488.32	1255.40
488.52	1372.14
488.72	1384.43
488.92	1386.47
489.12	1411.05
489.32	1468.39
489.53	1460.20
489.73	1314.80
489.93	1425.39
490.13	1329.13
490.33	1337.32
490.53	1472.49
490.73	1425.39
490.94	1300.46
491.14	1472.49
491.34	1660.90
491.54	2123.74
491.74	2652.12
491.94	2936.79
492.14	3143.63
492.34	2971.60
492.54	2582.49
492.75	2258.91
492.95	2148.32
493.15	2043.87
493.35	1996.77
493.55	1916.90
493.75	1855.46
493.95	1800.16
494.15	1804.26
494.35	1703.91
494.56	1689.57
494.76	1646.57
494.96	1560.55
495.16	1490.92
495.36	1357.80
495.56	1447.91
495.76	1372.14
495.96	1390.57
496.16	1427.43
496.36	1417.19
496.56	1384.43
496.77	1372.14
496.97	1429.48
497.17	1452.01
497.37	1398.76
497.57	1478.63
497.77	1435.63
497.97	1335.28
498.17	1343.47
498.37	1384.43
498.57	1406.95
498.77	1449.96
498.97	1441.77
499.17	1464.30
499.38	1376.24
499.58	1343.47
499.78	1464.30
499.98	1417.19
500.18	1357.80
500.38	1417.19
500.58	1695.72
500.78	2863.06
500.98	5463.98
501.18	6965.14
501.38	8054.66
501.58	8689.53
501.78	7333.78
501.98	5687.21
502.18	5160.88
502.38	4591.55
502.58	4224.96
502.78	3743.69
502.98	3680.20
503.18	3450.83
503.38	3196.88
503.59	3028.95
503.79	2822.10
503.99	2635.74
504.19	2314.20
504.39	2101.22
504.59	1968.10
504.79	1941.47
504.99	1804.26
505.19	1703.91
505.39	1581.03
505.59	1578.98
505.79	1624.04
505.99	1521.64
506.19	1533.93
506.39	1503.21
506.59	1384.43
506.79	1427.43
506.99	1433.58
507.19	1447.91
507.39	1398.76
507.59	1359.85
507.79	1378.28
507.99	1413.10
508.19	1460.20
508.39	1435.63
508.59	1382.38
508.79	1454.06
508.99	1429.48
509.19	1382.38
509.39	1447.91
509.59	1361.90
509.79	1347.56
509.99	1384.43
510.19	1419.24
510.39	1374.19
510.59	1308.65
510.79	1306.60
510.99	1353.71
511.19	1464.30
511.39	1370.09
511.59	1417.19
511.79	1497.07
511.99	1349.61
512.19	1353.71
512.38	1333.23
512.58	1372.14
512.78	1402.86
512.98	1388.52
513.18	1435.63
513.38	1349.61
513.58	1361.90
513.78	1363.95
513.98	1368.04
514.18	1347.56
514.38	1415.15
514.58	1378.28
514.78	1298.41
514.98	1396.71
515.18	1396.71
515.38	1353.71
515.58	1468.39
515.78	1273.84
515.98	1368.04
516.18	1366.00
516.38	1394.67
516.57	1396.71
516.77	1341.42
516.97	1417.19
517.17	1392.62
517.37	1380.33
517.57	1409.00
517.77	1392.62
517.97	1345.52
518.17	1419.24
518.37	1404.91
518.57	1347.56
518.77	1452.01
518.97	1386.47
519.16	1343.47
519.36	1411.05
519.56	1409.00
519.76	1355.76
519.96	1372.14
520.16	1443.82
520.36	1333.23
520.56	1413.10
520.76	1392.62
520.96	1382.38
521.16	1425.39
521.35	1433.58
521.55	1390.57
521.75	1372.14
521.95	1368.04
522.15	1390.57
522.35	1366.00
522.55	1409.00
522.75	1341.42
522.95	1357.80
523.14	1255.40
523.34	1396.71
523.54	1345.52
523.74	1359.85
523.94	1378.28
524.14	1327.08
524.34	1413.10
524.54	1400.81
524.73	1265.64
524.93	1384.43
525.13	1347.56
525.33	1325.04
525.53	1505.26
525.73	1337.32
525.93	1445.87
526.13	1353.71
526.32	1382.38
526.52	1366.00
526.72	1374.19
526.92	1378.28
527.12	1269.74
527.32	1357.80
527.52	1361.90
527.71	1335.28
527.91	1376.24
528.11	1355.76
528.31	1380.33
528.51	1310.70
528.71	1372.14
528.90	1351.66
529.10	1466.35
529.30	1363.95
529.50	1396.71
529.70	1400.81
529.90	1302.51
530.09	1433.58
530.29	1370.09
530.49	1355.76
530.69	1511.40
530.89	1366.00
531.09	1372.14
531.28	1359.85
531.48	1425.39
531.68	1374.19
531.88	1386.47
532.08	1353.71
532.28	1284.08
532.47	1425.39
532.67	1484.78
532.87	1402.86
533.07	1353.71
533.27	1411.05
533.46	1386.47
533.66	1361.90
533.86	1370.09
534.06	1380.33
534.26	1488.87
534.45	1339.37
534.65	1480.68
534.85	1411.05
535.05	1343.47
535.25	1353.71
535.44	1390.57
535.64	1400.81
535.84	1339.37
536.04	1368.04
536.24	1298.41
536.43	1325.04
536.63	1396.71
536.83	1279.98
537.03	1339.37
537.22	1288.17
537.42	1310.70
537.62	1388.52
537.82	1341.42
538.02	1392.62
538.21	1482.73
538.41	1437.67
538.61	1411.05
538.81	1433.58
539.00	1406.95
539.20	1351.66
539.40	1312.75
539.60	1396.71
539.79	1404.91
539.99	1370.09
540.19	1380.33
540.39	1345.52
540.58	1382.38
540.78	1392.62
540.98	1353.71
541.18	1435.63
541.37	1384.43
541.57	1447.91
541.77	1322.99
541.97	1421.29
542.16	1386.47
542.36	1366.00
542.56	1464.30
542.76	1376.24
542.95	1384.43
543.15	1366.00
543.35	1458.15
543.54	1439.72
543.74	1329.13
543.94	1376.24
544.14	1368.04
544.33	1431.53
544.53	1329.13
544.73	1361.90
544.93	1415.15
545.12	1282.03
545.32	1433.58
545.52	1320.94
545.71	1312.75
545.91	1374.19
546.11	1357.80
546.30	1363.95
546.50	1351.66
546.70	1386.47
546.90	1509.35
547.09	1273.84
547.29	1327.08
547.49	1380.33
547.68	1359.85
547.88	1415.15
548.08	1337.32
548.27	1646.57
548.47	1382.38
548.67	1314.80
548.87	1427.43
549.06	1355.76
549.26	1423.34
549.46	1363.95
549.65	1322.99
549.85	1413.10
550.05	1353.71
550.24	1253.36
550.44	1331.18
550.64	1363.95
550.83	1306.60
551.03	1433.58
551.23	1439.72
551.42	1359.85
551.62	1431.53
551.82	1400.81
552.01	1378.28
552.21	1431.53
552.41	1331.18
552.60	1409.00
552.80	1392.62
553.00	1355.76
553.19	1255.40
553.39	1474.54
553.59	1269.74
553.78	1458.15
553.98	1394.67
554.17	1394.67
554.37	1398.76
554.57	1398.76
554.76	1351.66
554.96	1384.43
555.16	1380.33
555.35	1433.58
555.55	1353.71
555.75	1372.14
555.94	1388.52
556.14	1355.76
556.33	1392.62
556.53	1400.81
556.73	1339.37
556.92	1400.81
557.12	1386.47
557.32	1495.02
557.51	1400.81
557.71	1402.86
557.90	1527.78
558.10	1353.71
558.30	1351.66
558.49	1341.42
558.69	1384.43
558.88	1380.33
559.08	1320.94
559.28	1341.42
559.47	1376.24
559.67	1413.10
559.86	1486.83
560.06	1425.39
560.26	1325.04
560.45	1452.01
560.65	1329.13
560.84	1443.82
561.04	1384.43
561.24	1406.95
561.43	1366.00
561.63	1452.01
561.82	1343.47
562.02	1484.78
562.22	1333.23
562.41	1322.99
562.61	1284.08
562.80	1380.33
563.00	1425.39
563.19	1413.10
563.39	1329.13
563.59	1449.96
563.78	1376.24
563.98	1275.88
564.17	1343.47
564.37	1339.37
564.56	1320.94
564.76	1327.08
564.96	1476.59
565.15	1411.05
565.35	1396.71
565.54	1413.10
565.74	1404.91
565.93	1425.39
566.13	1400.81
566.32	1347.56
566.52	1419.24
566.71	1458.15
566.91	1429.48
567.11	1388.52
567.30	1325.04
567.50	1480.68
567.69	1384.43
567.89	1359.85
568.08	1343.47
568.28	1331.18
568.47	1359.85
568.67	1275.88
568.86	1349.61
569.06	1413.10
569.25	1433.58
569.45	1353.71
569.64	1361.90
569.84	1345.52
570.04	1374.19
570.23	1366.00
570.43	1396.71
570.62	1384.43
570.82	1460.20
571.01	1427.43
571.21	1396.71
571.40	1320.94
571.60	1425.39
571.79	1417.19
571.99	1445.87
572.18	1310.70
572.38	1376.24
572.57	1386.47
572.77	1368.04
572.96	1437.67
573.16	1394.67
573.35	1374.19
573.55	1376.24
573.74	1382.38
573.94	1345.52
574.13	1376.24
574.33	1472.49
574.52	1437.67
574.71	1345.52
574.91	1417.19
575.10	1417.19
575.30	1302.51
575.49	1357.80
575.69	1339.37
575.88	1486.83
576.08	1425.39
576.27	1503.21
576.47	1466.35
576.66	1599.46
576.86	1486.83
577.05	1456.11
577.25	1497.07
577.44	1423.34
577.64	1378.28
577.83	1390.57
578.02	1427.43
578.22	1456.11
578.41	1478.63
578.61	1380.33
578.80	1359.85
579.00	1468.39
579.19	1361.90
579.39	1421.29
579.58	1363.95
579.77	1409.00
579.97	1419.24
580.16	1398.76
580.36	1470.44
580.55	1468.39
580.75	1390.57
580.94	1445.87
581.13	1449.96
581.33	1501.16
581.52	1445.87
581.72	1503.21
581.91	1527.78
582.11	1478.63
582.30	1462.25
582.49	1482.73
582.69	1476.59
582.88	1462.25
583.08	1484.78
583.27	1417.19
583.47	1478.63
583.66	1427.43
583.85	1509.35
584.05	1413.10
584.24	1511.40
584.44	1472.49
584.63	1503.21
584.82	1447.91
585.02	1542.12
585.21	1640.42
585.41	1603.56
585.60	1540.07
585.79	1617.90
585.99	1691.62
586.18	1656.81
586.37	1933.28
586.57	2615.26
586.76	7886.73
586.96	24376.97
587.15	41131.40
587.34	51762.41
587.54	59686.00
587.73	59104.38
587.93	44389.72
588.12	32583.18
588.31	26760.81
588.51	22404.78
588.70	19834.58
588.89	18231.02
589.09	16934.65
589.28	15791.89
589.47	14192.42
589.67	12515.14
589.86	10682.20
590.06	8691.58
590.25	6590.36
590.44	4833.21
590.64	3641.29
590.83	2893.78
591.02	2297.82
591.22	1970.15
591.41	1691.62
591.60	1710.05
591.80	1593.32
591.99	1376.24
592.18	1431.53
592.38	1531.88
592.57	1466.35
592.76	1435.63
592.96	1404.91
593.15	1441.77
593.34	1486.83
593.54	1406.95
593.73	1454.06
593.92	1425.39
594.12	1503.21
594.31	1411.05
594.50	1513.45
594.70	1540.07
594.89	1486.83
595.08	1435.63
595.28	1454.06
595.47	1609.70
595.66	1511.40
595.86	1423.34
596.05	1466.35
596.24	1382.38
596.43	1515.50
596.63	1443.82
596.82	1466.35
597.01	1466.35
597.21	1511.40
597.40	1433.58
597.59	1423.34
597.79	1421.29
597.98	1488.87
598.17	1421.29
598.36	1449.96
598.56	1417.19
598.75	1400.81
598.94	1433.58
599.14	1452.01
599.33	1409.00
599.52	1415.15
599.71	1361.90
599.91	1417.19
600.10	1411.05
600.29	1409.00
600.48	1431.53
600.68	1437.67
600.87	1402.86
601.06	1361.90
601.26	1363.95
601.45	1370.09
601.64	1435.63
601.83	1456.11
602.03	1372.14
602.22	1304.56
602.41	1441.77
602.60	1449.96
602.80	1404.91
602.99	1370.09
603.18	1394.67
603.37	1368.04
603.57	1374.19
603.76	1435.63
603.95	1406.95
604.14	1368.04
604.34	1380.33
604.53	1382.38
604.72	1400.81
604.91	1386.47
605.10	1439.72
605.30	1312.75
605.49	1449.96
605.68	1370.09
605.87	1382.38
606.07	1388.52
606.26	1392.62
606.45	1347.56
606.64	1417.19
606.84	1390.57
607.03	1382.38
607.22	1484.78
607.41	1478.63
607.60	1454.06
607.80	1482.73
607.99	1372.14
608.18	1417.19
608.37	1470.44
608.56	1445.87
608.76	1441.77
608.95	1470.44
609.14	1525.74
609.33	1400.81
609.52	1542.12
609.72	1511.40
609.91	1503.21
610.10	1449.96
610.29	1501.16
610.48	1417.19
610.68	1435.63
610.87	1337.32
611.06	1460.20
611.25	1404.91
611.44	1503.21
611.63	1353.71
611.83	1427.43
612.02	1335.28
612.21	1462.25
612.40	1337.32
612.59	1339.37
612.79	1386.47
612.98	1355.76
613.17	1447.91
613.36	1417.19
613.55	1472.49
613.74	1413.10
613.93	1562.60
614.13	1533.93
614.32	1595.37
614.51	1683.43
614.70	1495.02
614.89	1419.24
615.08	1417.19
615.28	1593.32
615.47	1376.24
615.66	1361.90
615.85	1394.67
616.04	1523.69
616.23	1404.91
616.42	1456.11
616.62	1419.24
616.81	1486.83
617.00	1421.29
617.19	1439.72
617.38	1396.71
617.57	1335.28
617.76	1384.43
617.95	1413.10
618.15	1478.63
618.34	1445.87
618.53	1372.14
618.72	1431.53
618.91	1427.43
619.10	1437.67
619.29	1409.00
619.48	1425.39
619.68	1378.28
619.87	1392.62
620.06	1273.84
620.25	1394.67
620.44	1361.90
620.63	1433.58
620.82	1384.43
621.01	1445.87
621.20	1374.19
621.39	1374.19
621.59	1441.77
621.78	1406.95
621.97	1366.00
622.16	1402.86
622.35	1351.66
622.54	1413.10
622.73	1429.48
622.92	1308.65
623.11	1394.67
623.30	1320.94
623.49	1366.00
623.68	1361.90
623.88	1476.59
624.07	1425.39
624.26	1316.84
624.45	1316.84
624.64	1452.01
624.83	1421.29
625.02	1318.89
625.21	1345.52
625.40	1320.94
625.59	1433.58
625.78	1306.60
625.97	1447.91
626.16	1488.87
626.35	1488.87
626.54	1486.83
626.74	1511.40
626.93	1476.59
627.12	1476.59
627.31	1439.72
627.50	1427.43
627.69	1437.67
627.88	1337.32
628.07	1351.66
628.26	1421.29
628.45	1325.04
628.64	1386.47
628.83	1435.63
629.02	1392.62
629.21	1402.86
629.40	1372.14
629.59	1413.10
629.78	1325.04
629.97	1388.52
630.16	1400.81
630.35	1406.95
630.54	1380.33
630.73	1388.52
630.92	1380.33
631.11	1341.42
631.30	1390.57
631.49	1359.85
631.68	1449.96
631.87	1404.91
632.06	1333.23
632.25	1482.73
632.44	1339.37
632.63	1425.39
632.82	1423.34
633.01	1406.95
633.20	1480.68
633.39	1429.48
633.58	1423.34
633.77	1519.59
633.96	1419.24
634.15	1447.91
634.34	1462.25
634.53	1396.71
634.72	1335.28
634.91	1331.18
635.10	1464.30
635.29	1433.58
635.48	1386.47
635.67	1390.57
635.86	1376.24
636.05	1411.05
636.24	1388.52
636.43	1347.56
636.62	1411.05
636.81	1329.13
637.00	1366.00
637.19	1392.62
637.38	1394.67
637.57	1320.94
637.76	1425.39
637.95	1390.57
638.14	1515.50
638.33	1572.84
638.52	1507.30
638.71	1466.35
638.89	1431.53
639.08	1519.59
639.27	1456.11
639.46	1470.44
639.65	1669.09
639.84	1845.22
640.03	2029.54
640.22	2090.98
640.41	2209.76
640.60	1970.15
640.79	1771.49
640.98	1677.29
641.17	1642.47
641.36	1615.85
641.55	1587.18
641.74	1552.36
641.92	1445.87
642.11	1509.35
642.30	1542.12
642.49	1415.15
642.68	1390.57
642.87	1388.52
643.06	1411.05
643.25	1298.41
643.44	1417.19
643.63	1376.24
643.82	1454.06
644.00	1265.64
644.19	1415.15
644.38	1339.37
644.57	1501.16
644.76	1402.86
644.95	1398.76
645.14	1347.56
645.33	1355.76
645.52	1402.86
645.71	1322.99
645.89	1386.47
646.08	1335.28
646.27	1296.36
646.46	1441.77
646.65	1284.08
646.84	1290.22
647.03	1329.13
647.22	1443.82
647.40	1386.47
647.59	1378.28
647.78	1345.52
647.97	1402.86
648.16	1306.60
648.35	1368.04
648.54	1402.86
648.73	1372.14
648.91	1314.80
649.10	1351.66
649.29	1404.91
649.48	1411.05
649.67	1331.18
649.86	1357.80
650.05	1384.43
650.23	1548.26
650.42	1492.97
650.61	1574.89
650.80	1531.88
650.99	1607.66
651.18	1529.83
651.36	1495.02
651.55	1429.48
651.74	1515.50
651.93	1468.39
652.12	1411.05
652.31	1415.15
652.49	1435.63
652.68	1464.30
652.87	1394.67
653.06	1470.44
653.25	1515.50
653.44	1409.00
653.62	1460.20
653.81	1433.58
654.00	1370.09
654.19	1394.67
654.38	1488.87
654.56	1411.05
654.75	1439.72
654.94	1441.77
655.13	1366.00
655.32	1290.22
655.51	1476.59
655.69	1425.39
655.88	1462.25
656.07	1349.61
656.26	1413.10
656.45	1372.14
656.63	1445.87
656.82	1406.95
657.01	1425.39
657.20	1421.29
657.38	1396.71
657.57	1370.09
657.76	1265.64
657.95	1443.82
658.14	1312.75
658.32	1298.41
658.51	1406.95
658.70	1398.76
658.89	1409.00
659.08	1372.14
659.26	1413.10
659.45	1382.38
659.64	1421.29
659.83	1447.91
660.01	1605.61
660.20	1458.15
660.39	1517.54
660.58	1343.47
660.76	1359.85
660.95	1368.04
661.14	1380.33
661.33	1337.32
661.51	1366.00
661.70	1433.58
661.89	1402.86
662.08	1384.43
662.26	1384.43
662.45	1277.93
662.64	1452.01
662.83	1425.39
663.01	1296.36
663.20	1363.95
663.39	1431.53
663.58	1388.52
663.76	1347.56
663.95	1386.47
664.14	1376.24
664.32	1349.61
664.51	1357.80
664.70	1359.85
664.89	1376.24
665.07	1318.89
665.26	1421.29
665.45	1370.09
665.64	1380.33
665.82	1427.43
666.01	1386.47
666.20	1339.37
666.38	1396.71
666.57	1458.15
666.76	1673.19
666.95	2056.16
667.13	4308.93
667.32	11341.65
667.51	17587.96
667.69	21812.92
667.88	24637.06
668.07	24424.08
668.25	18697.95
668.44	13530.93
668.63	10985.30
668.81	8943.48
669.00	8064.90
669.19	7360.40
669.38	6725.53
669.56	6172.58
669.75	5658.54
669.94	4935.60
670.12	4296.64
670.31	3479.50
670.50	2901.97
670.68	2486.23
670.87	2185.18
671.06	1898.47
671.24	1660.90
671.43	1638.38
671.62	1609.70
671.80	1478.63
671.99	1484.78
672.18	1472.49
672.36	1363.95
672.55	1409.00
672.74	1351.66
672.92	1423.34
673.11	1445.87
673.29	1398.76
673.48	1394.67
673.67	1376.24
673.85	1386.47
674.04	1411.05
674.23	1380.33
674.41	1445.87
674.60	1294.32
674.79	1314.80
674.97	1363.95
675.16	1419.24
675.34	1306.60
675.53	1298.41
675.72	1404.91
675.90	1415.15
676.09	1355.76
676.28	1406.95
676.46	1310.70
676.65	1359.85
676.83	1380.33
677.02	1339.37
677.21	1339.37
677.39	1406.95
677.58	1421.29
677.77	1310.70
677.95	1437.67
678.14	1363.95
678.32	1331.18
678.51	1363.95
678.70	1427.43
678.88	1376.24
679.07	1402.86
679.25	1417.19
679.44	1474.54
679.63	1322.99
679.81	1392.62
680.00	1359.85
680.18	1431.53
680.37	1388.52
680.55	1343.47
680.74	1347.56
680.93	1294.32
681.11	1312.75
681.30	1386.47
681.48	1316.84
681.67	1368.04
681.85	1355.76
682.04	1322.99
682.23	1423.34
682.41	1366.00
682.60	1363.95
682.78	1327.08
682.97	1370.09
683.15	1370.09
683.34	1382.38
683.53	1417.19
683.71	1333.23
683.90	1388.52
684.08	1404.91
684.27	1282.03
684.45	1388.52
684.64	1423.34
684.82	1353.71
685.01	1398.76
685.19	1396.71
685.38	1396.71
685.57	1322.99
685.75	1345.52
685.94	1392.62
686.12	1335.28
686.31	1402.86
686.49	1392.62
686.68	1261.55
686.86	1386.47
687.05	1382.38
687.23	1441.77
687.42	1306.60
687.60	1345.52
687.79	1425.39
687.97	1386.47
688.16	1406.95
688.34	1415.15
688.53	1327.08
688.71	1417.19
688.90	1376.24
689.08	1349.61
689.27	1271.79
689.45	1374.19
689.64	1445.87
689.82	1378.28
690.01	1314.80
690.19	1361.90
690.38	1294.32
690.56	1349.61
690.75	1378.28
690.93	1386.47
691.12	1345.52
691.30	1349.61
691.49	1355.76
691.67	1322.99
691.86	1386.47
692.04	1304.56
692.23	1355.76
692.41	1349.61
692.60	1513.45
692.78	1449.96
692.97	1476.59
693.15	1501.16
693.34	1515.50
693.52	1476.59
693.71	1415.15
693.89	1359.85
694.08	1329.13
694.26	1421.29
694.44	1445.87
694.63	1402.86
694.81	1359.85
695.00	1298.41
695.18	1460.20
695.37	1495.02
695.55	1341.42
695.74	1409.00
695.92	1265.64
696.10	1404.91
696.29	1406.95
696.47	1447.91
696.66	1327.08
696.84	1327.08
697.03	1339.37
697.21	1433.58
697.40	1726.44
697.58	1437.67
697.76	1372.14
697.95	1372.14
698.13	1320.94
698.32	1337.32
698.50	1366.00
698.68	1372.14
698.87	1392.62
699.05	1437.67
699.24	1366.00
699.42	1282.03
699.61	1343.47
699.79	1404.91
699.97	1345.52
700.16	1312.75
700.34	1286.12
700.53	1380.33
700.71	1402.86
700.89	1386.47
701.08	1384.43
701.26	1417.19
701.45	1626.09
701.63	1347.56
701.81	1380.33
702.00	1437.67
702.18	1388.52
702.37	1372.14
702.55	1392.62
702.73	1460.20
702.92	1486.83
703.10	1617.90
703.28	1576.94
703.47	1656.81
703.65	1693.67
703.84	1619.94
704.02	1548.26
704.20	1562.60
704.39	1411.05
704.57	1411.05
704.75	1538.02
704.94	1550.31
705.12	1406.95
705.30	1495.02
705.49	1572.84
705.67	1820.64
705.86	3536.84
706.04	9080.69
706.22	15978.25
706.41	19431.13
706.59	22363.82
706.77	23451.29
706.96	19896.02
707.14	13928.24
707.32	11302.74
707.51	9344.88
707.69	8124.29
707.87	7147.41
708.06	6647.71
708.24	5951.40
708.42	5078.96
708.61	4003.78
708.79	3127.25
708.97	2396.12
709.16	1968.10
709.34	1845.22
709.52	1568.74
709.71	1527.78
709.89	1552.36
710.07	1415.15
710.26	1431.53
710.44	1374.19
710.62	1497.07
710.80	1363.95
710.99	1439.72
711.17	1406.95
711.35	1421.29
711.54	1304.56
711.72	1435.63
711.90	1396.71
712.09	1316.84
712.27	1406.95
712.45	1433.58
712.63	1294.32
712.82	1320.94
713.00	1396.71
713.18	1437.67
713.37	1445.87
713.55	1388.52
713.73	1470.44
713.91	1306.60
714.10	1384.43
714.28	1361.90
714.46	1370.09
714.65	1388.52
714.83	1409.00
715.01	1357.80
715.19	1370.09
715.38	1376.24
715.56	1361.90
715.74	1322.99
715.92	1400.81
716.11	1433.58
716.29	1376.24
716.47	1398.76
716.65	1353.71
716.84	1327.08
717.02	1380.33
717.20	1310.70
717.38	1355.76
717.57	1353.71
717.75	1443.82
717.93	1359.85
718.11	1366.00
718.30	1302.51
718.48	1449.96
718.66	1423.34
718.84	1462.25
719.03	1411.05
719.21	1390.57
719.39	1429.48
719.57	1390.57
719.75	1421.29
719.94	1341.42
720.12	1296.36
720.30	1388.52
720.48	1449.96
720.67	1372.14
720.85	1351.66
721.03	1314.80
721.21	1351.66
721.39	1402.86
721.58	1384.43
721.76	1419.24
721.94	1351.66
722.12	1431.53
722.30	1480.68
722.49	1304.56
722.67	1372.14
722.85	1409.00
723.03	1302.51
723.21	1314.80
723.40	1374.19
723.58	1355.76
723.76	1392.62
723.94	1384.43
724.12	1454.06
724.30	1470.44
724.49	1413.10
724.67	1382.38
724.85	1517.54
725.03	1431.53
725.21	1441.77
725.40	1449.96
725.58	1312.75
725.76	1392.62
725.94	1368.04
726.12	1339.37
726.30	1376.24
726.49	1419.24
726.67	1322.99
726.85	1398.76
727.03	1368.04
727.21	1437.67
727.39	1570.79
727.57	2131.94
727.76	3407.82
727.94	4458.43
728.12	4865.97
728.30	5345.20
728.48	5074.87
728.66	4179.90
728.84	3391.44
729.03	2985.94
729.21	2846.68
729.39	2559.96
729.57	2205.66
729.75	1964.00
729.93	1802.21
730.11	1599.46
730.30	1505.26
730.48	1435.63
730.66	1486.83
730.84	1439.72
731.02	1341.42
731.20	1359.85
731.38	1382.38
731.56	1409.00
731.74	1247.21
731.93	1388.52
732.11	1366.00
732.29	1347.56
732.47	1392.62
732.65	1423.34
732.83	1392.62
733.01	1366.00
733.19	1394.67
733.37	1419.24
733.56	1388.52
733.74	1339.37
733.92	1505.26
734.10	1273.84
734.28	1421.29
734.46	1298.41
734.64	1333.23
734.82	1286.12
735.00	1404.91
735.18	1388.52
735.36	1333.23
735.54	1404.91
735.73	1368.04
735.91	1396.71
736.09	1409.00
736.27	1316.84
736.45	1402.86
736.63	1247.21
736.81	1427.43
736.99	1372.14
737.17	1415.15
737.35	1267.69
737.53	1349.61
737.71	1349.61
737.89	1458.15
738.07	1316.84
738.25	1331.18
738.43	1316.84
738.61	1359.85
738.80	1368.04
738.98	1372.14
739.16	1368.04
739.34	1355.76
739.52	1406.95
739.70	1341.42
739.88	1392.62
740.06	1437.67
740.24	1327.08
740.42	1425.39
740.60	1341.42
740.78	1300.46
740.96	1290.22
741.14	1374.19
741.32	1327.08
741.50	1359.85
741.68	1384.43
741.86	1423.34
742.04	1386.47
742.22	1327.08
742.40	1427.43
742.58	1411.05
742.76	1339.37
742.94	1376.24
743.12	1306.60
743.30	1409.00
743.48	1417.19
743.66	1357.80
743.84	1431.53
744.02	1425.39
744.20	1400.81
744.38	1339.37
744.56	1304.56
744.74	1372.14
744.92	1402.86
745.10	1384.43
745.28	1306.60
745.46	1409.00
745.64	1351.66
745.82	1378.28
746.00	1380.33
746.18	1349.61
746.36	1355.76
746.54	1343.47
746.72	1329.13
746.90	1353.71
747.08	1400.81
747.26	1304.56
747.44	1452.01
747.62	1333.23
747.80	1376.24
747.98	1441.77
748.15	1335.28
748.33	1421.29
748.51	1380.33
748.69	1433.58
748.87	1386.47
749.05	1353.71
749.23	1331.18
749.41	1325.04
749.59	1366.00
749.77	1398.76
749.95	1374.19
750.13	1349.61
750.31	1320.94
750.49	1370.09
750.67	1423.34
750.85	1388.52
751.03	1325.04
751.20	1386.47
751.38	1415.15
751.56	1292.27
751.74	1368.04
751.92	1392.62
752.10	1349.61
752.28	1320.94
752.46	1282.03
752.64	1318.89
752.82	1337.32
753.00	1470.44
753.18	1382.38
753.35	1404.91
753.53	1411.05
753.71	1374.19
753.89	1445.87
754.07	1394.67
754.25	1394.67
754.43	1452.01
754.61	1357.80
754.79	1409.00
754.97	1378.28
755.14	1290.22
755.32	1288.17
755.50	1341.42
755.68	1347.56
755.86	1370.09
756.04	1357.80
756.22	1386.47
756.40	1406.95
756.57	1415.15
756.75	1363.95
756.93	1380.33
757.11	1392.62
757.29	1404.91
757.47	1411.05
757.65	1347.56
757.82	1320.94
758.00	1322.99
758.18	1380.33
758.36	1316.84
758.54	1374.19
758.72	1302.51
758.90	1398.76
759.07	1333.23
759.25	1253.36
759.43	1394.67
759.61	1296.36
759.79	1710.05
759.97	1400.81
760.15	1347.56
760.32	1347.56
760.50	1351.66
760.68	1415.15
760.86	1288.17
761.04	1400.81
761.22	1314.80
761.39	1286.12
761.57	1341.42
761.75	1394.67
761.93	1363.95
762.11	1384.43
762.28	1415.15
762.46	1353.71
762.64	1370.09
762.82	1335.28
763.00	1372.14
763.18	1413.10
763.35	1388.52
763.53	1400.81
763.71	1310.70
763.89	1368.04
764.07	1353.71
764.24	1286.12
764.42	1413.10
764.60	1353.71
764.78	1411.05
764.96	1398.76
765.13	1368.04
765.31	1382.38
765.49	1449.96
765.67	1304.56
765.84	1341.42
766.02	1333.23
766.20	1277.93
766.38	1329.13
766.56	1460.20
766.73	1380.33
766.91	1339.37
767.09	1312.75
767.27	1402.86
767.44	1396.71
767.62	1380.33
767.80	1396.71
767.98	1380.33
768.15	1320.94
768.33	1343.47
768.51	1439.72
768.69	1374.19
768.87	1386.47
769.04	1380.33
769.22	1394.67
769.40	1441.77
769.58	1392.62
769.75	1370.09
769.93	1398.76
770.11	1310.70
770.28	1322.99
770.46	1447.91
770.64	1318.89
770.82	1382.38
770.99	1394.67
771.17	1380.33
771.35	1363.95
771.53	1355.76
771.70	1372.14
771.88	1363.95
772.06	1347.56
772.23	1394.67
772.41	1423.34
772.59	1398.76
772.77	1359.85
772.94	1339.37
773.12	1382.38
773.30	1339.37
773.47	1411.05
773.65	1333.23
773.83	1445.87
774.01	1419.24
774.18	1341.42
774.36	1378.28
774.54	1335.28
774.71	1380.33
774.89	1277.93
775.07	1304.56
775.24	1368.04
775.42	1304.56
775.60	1462.25
775.78	1337.32
775.95	1443.82
776.13	1271.79
776.31	1198.06
776.48	1380.33
776.66	1341.42
776.84	1396.71
777.01	1308.65
777.19	1384.43
777.37	1345.52
777.54	1384.43
777.72	1400.81
777.90	1353.71
778.07	1363.95
778.25	1409.00
778.43	1386.47
778.60	1355.76
778.78	1468.39
778.96	1427.43
779.13	1298.41
779.31	1372.14
779.49	1357.80
779.66	1320.94
779.84	1382.38
780.01	1452.01
780.19	1382.38
780.37	1402.86
780.54	1376.24
780.72	1339.37
780.90	1372.14
781.07	1306.60
781.25	1413.10
781.43	1396.71
781.60	1351.66
781.78	1409.00
781.95	1294.32
782.13	1306.60
782.31	1406.95
782.48	1288.17
782.66	1374.19
782.83	1439.72
783.01	1339.37
783.19	1454.06
783.36	1282.03
783.54	1296.36
783.72	1339.37
783.89	1361.90
784.07	1392.62
784.24	1400.81
784.42	1353.71
784.60	1341.42
784.77	1351.66
784.95	1232.88
785.12	1357.80
785.30	1413.10
785.47	1282.03
785.65	1325.04
785.83	1366.00
786.00	1359.85
786.18	1454.06
786.35	1376.24
786.53	1353.71
786.71	1353.71
786.88	1341.42
787.06	1341.42
787.23	1452.01
787.41	1382.38
787.58	1372.14
787.76	1366.00
787.94	1341.42
788.11	1314.80
788.29	1339.37
788.46	1347.56
788.64	1318.89
788.81	1400.81
788.99	1288.17
789.16	1349.61
789.34	1413.10
789.52	1353.71
789.69	1363.95
789.87	1302.51
790.04	1314.80
790.22	1382.38
790.39	1439.72
790.57	1333.23
790.74	1380.33
790.92	1411.05
791.09	1269.74
791.27	1335.28
791.44	1538.02
791.62	1351.66
791.79	1337.32
791.97	1316.84
792.15	1476.59
792.32	1435.63
792.50	1413.10
792.67	1353.71
792.85	1331.18
793.02	1273.84
793.20	1314.80
793.37	1349.61
793.55	1343.47
793.72	1310.70
793.90	1413.10
794.07	1353.71
794.25	1322.99
794.42	1390.57
794.60	1402.86
794.77	1327.08
794.95	1411.05
795.12	1402.86
795.30	1347.56
795.47	1353.71
795.65	1490.92
795.82	1349.61
796.00	1392.62
796.17	1357.80
796.34	1409.00
796.52	1425.39
796.69	1366.00
796.87	1386.47
797.04	1478.63
797.22	1417.19
797.39	1322.99
797.57	1327.08
797.74	1492.97
797.92	1378.28
798.09	1398.76
798.27	1329.13
798.44	1357.80
798.62	1349.61
798.79	1376.24
798.96	1329.13
799.14	1392.62
799.31	1458.15
799.49	1355.76
799.66	1366.00
799.84	1345.52
800.01	1247.21
800.19	1443.82
800.36	1318.89
800.53	1279.98
800.71	1349.61
800.88	1415.15
801.06	1378.28
801.23	1349.61
801.41	1341.42
801.58	1339.37
801.75	1327.08
801.93	1456.11
802.10	1396.71
802.28	1363.95
802.45	1343.47
802.63	1386.47
802.80	1437.67
802.97	1341.42
803.15	1359.85
803.32	1339.37
803.50	1349.61
803.67	1353.71
803.84	1337.32
804.02	1347.56
804.19	1388.52
804.37	1349.61
804.54	1394.67
804.71	1363.95
804.89	1329.13
805.06	1282.03
805.24	1282.03
805.41	1302.51
805.58	1445.87
805.76	1425.39
805.93	1343.47
806.10	1441.77
806.28	1314.80
806.45	1368.04
806.63	1374.19
806.80	1384.43
806.97	1355.76
807.15	1359.85
807.32	1392.62
807.49	1452.01
807.67	1335.28
807.84	1394.67
808.01	1308.65
808.19	1437.67
808.36	1445.87
808.54	1306.60
808.71	1366.00
808.88	1353.71
809.06	1435.63
809.23	1460.20
809.40	1347.56
809.58	1404.91
809.75	1368.04
809.92	1337.32
810.10	1470.44
810.27	1329.13
810.44	1347.56
810.62	1427.43
810.79	1411.05
810.96	1376.24
811.14	1322.99
811.31	1404.91
811.48	1353.71
811.66	1409.00
811.83	1357.80
812.00	1433.58
812.18	1445.87
812.35	1421.29
812.52	1271.79
812.69	1390.57
812.87	1320.94
813.04	1325.04
813.21	1396.71
813.39	1357.80
813.56	1355.76
813.73	1349.61
813.91	1302.51
814.08	1396.71
814.25	1347.56
814.42	1296.36
814.60	1263.60
814.77	1376.24
814.94	1443.82
815.12	1419.24
815.29	1427.43
815.46	1388.52
815.63	1396.71
815.81	1292.27
815.98	1302.51
816.15	1374.19
816.33	1404.91
816.50	1404.91
816.67	1384.43
816.84	1353.71
817.02	1353.71
817.19	1335.28
817.36	1335.28
817.53	1425.39
817.71	1312.75
817.88	1306.60
818.05	1275.88
818.22	1396.71
818.40	1380.33
818.57	1279.98
818.74	1398.76
818.91	1368.04
819.09	1296.36
819.26	1490.92
819.43	1349.61
819.60	1325.04
819.78	1382.38
819.95	1419.24
820.12	1271.79
820.29	1419.24
820.47	1435.63
820.64	1314.80
820.81	1279.98
820.98	1263.60
821.15	1355.76
821.33	1396.71
821.50	1347.56
821.67	1402.86
821.84	1386.47
822.02	1320.94
822.19	1392.62
822.36	1277.93
822.53	1370.09
822.70	1304.56
822.88	1349.61
823.05	1435.63
823.22	1304.56
823.39	1390.57
823.56	1439.72
823.74	1398.76
823.91	1357.80
824.08	1337.32
824.25	1378.28
824.42	1396.71
824.60	1353.71
824.77	1400.81
824.94	1310.70
825.11	1349.61
825.28	1382.38
825.45	1363.95
825.63	1368.04
825.80	1347.56
825.97	1413.10
826.14	1394.67
826.31	1284.08
826.48	1386.47
826.66	1372.14
826.83	1384.43
827.00	1265.64
827.17	1406.95
827.34	1331.18
827.51	1370.09
827.69	1376.24
827.86	1345.52
828.03	1331.18
828.20	1286.12
828.37	1331.18
828.54	1296.36
828.71	1380.33
828.89	1415.15
829.06	1376.24
829.23	1355.76
829.40	1267.69
829.57	1353.71
829.74	1347.56
829.91	1429.48
830.09	1368.04
830.26	1388.52
830.43	1384.43
830.60	1425.39
830.77	1419.24
830.94	1394.67
831.11	1380.33
831.28	1400.81
831.46	1366.00
831.63	1355.76
831.80	1366.00
831.97	1345.52
832.14	1411.05
832.31	1368.04
832.48	1341.42
832.65	1421.29
832.82	1392.62
832.99	1329.13
833.17	1290.22
833.34	1363.95
833.51	1402.86
833.68	1327.08
833.85	1380.33
834.02	1322.99
834.19	1441.77
834.36	1314.80
834.53	1363.95
834.70	1380.33
834.87	1368.04
835.04	1429.48
835.22	1290.22
835.39	1388.52
835.56	1257.45
835.73	1347.56
835.90	1384.43
836.07	1302.51
836.24	1372.14
836.41	1368.04
836.58	1382.38
836.75	1363.95
836.92	1394.67
837.09	1363.95
837.26	1378.28
837.43	1398.76
837.60	1357.80
837.77	1316.84
837.94	1406.95
838.12	1394.67
838.29	1390.57
838.46	1304.56
838.63	1359.85
838.80	1437.67
838.97	1449.96
839.14	1378.28
839.31	1441.77
839.48	1394.67
839.65	1349.61
839.82	1421.29
839.99	1400.81
840.16	1449.96
840.33	1353.71
840.50	1349.61
840.67	1361.90
840.84	1296.36
841.01	1312.75
841.18	1390.57
841.35	1404.91
841.52	1488.87
841.69	1425.39
841.86	1370.09
842.03	1273.84
842.20	1398.76
842.37	1406.95
842.54	1439.72
842.71	1380.33
842.88	1335.28
843.05	1302.51
843.22	1370.09
843.39	1343.47
843.56	1267.69
843.73	1355.76
843.90	1378.28
844.07	1300.46
844.24	1376.24
844.41	1400.81
844.58	1388.52
844.75	1337.32
844.92	1388.52
845.09	1384.43
845.26	1351.66
845.43	1339.37
845.60	1384.43
845.77	1335.28
845.94	1370.09
846.10	1302.51
846.27	1306.60
846.44	1304.56
846.61	1320.94
846.78	1376.24
846.95	1411.05
847.12	1372.14
847.29	1329.13
847.46	1411.05
847.63	1357.80
847.80	1327.08
847.97	1355.76
848.14	1480.68
848.31	1337.32
848.48	1347.56
848.65	1396.71
848.82	1345.52
848.98	1447.91
849.15	1411.05
849.32	1437.67
849.49	1396.71
849.66	1396.71
849.83	1409.00
850.00	1327.08
850.17	1449.96
850.34	1404.91
850.51	1343.47
850.68	1400.81
850.85	1460.20
851.01	1363.95
851.18	1406.95
851.35	1384.43
851.52	1382.38
851.69	1351.66
851.86	1341.42
852.03	1345.52
852.20	1398.76
852.37	1411.05
852.53	1392.62
852.70	1265.64
852.87	1378.28
853.04	1421.29
853.21	1290.22
853.38	1392.62
853.55	1495.02
853.72	1458.15
853.89	1351.66
854.05	1396.71
854.22	1374.19
854.39	1378.28
854.56	1411.05
854.73	1359.85
854.90	1357.80
855.07	1363.95
855.23	1337.32
855.40	1339.37
855.57	1327.08
855.74	1300.46
855.91	1474.54
856.08	1355.76
856.25	1294.32
856.41	1390.57
856.58	1288.17
856.75	1380.33
856.92	1273.84
857.09	1437.67
857.26	1335.28
857.42	1398.76
857.59	1335.28
857.76	1314.80
857.93	1349.61
858.10	1353.71
858.27	1300.46
858.43	1366.00
858.60	1409.00
858.77	1294.32
858.94	1380.33
859.11	1400.81
859.27	1282.03
859.44	1355.76
859.61	1437.67
859.78	1402.86
859.95	1374.19
860.12	1318.89
860.28	1443.82
860.45	1415.15
860.62	1372.14
860.79	1345.52
860.95	1349.61
861.12	1437.67
861.29	1253.36
861.46	1372.14
861.63	1382.38
861.79	1411.05
861.96	1343.47
862.13	1347.56
862.30	1421.29
862.47	1353.71
862.63	1337.32
862.80	1439.72
862.97	1376.24
863.14	1376.24
863.30	1322.99
863.47	1347.56
863.64	1447.91
863.81	1419.24
863.97	1378.28
864.14	1343.47
864.31	1341.42
864.48	1433.58
864.65	1392.62
864.81	1425.39
864.98	1320.94
865.15	1378.28
865.32	1363.95
865.48	1368.04
865.65	1439.72
865.82	1374.19
865.98	1345.52
866.15	1462.25
866.32	1353.71
866.49	1355.76
866.65	1484.78
866.82	1345.52
866.99	1320.94
867.16	1329.13
867.32	1429.48
867.49	1370.09
867.66	1302.51
867.83	1378.28
867.99	1357.80
868.16	1411.05
868.33	1314.80
868.49	1402.86
868.66	1366.00
868.83	1419.24
868.99	1388.52
869.16	1347.56
869.33	1427.43
869.50	1396.71
869.66	1327.08
869.83	1357.80
870.00	1257.45
870.16	1318.89
870.33	1325.04
870.50	1427.43
870.66	1394.67
870.83	1449.96
871.00	1388.52
871.17	1402.86
871.33	1433.58
871.50	1327.08
871.67	1378.28
871.83	1327.08
872.00	1411.05
872.17	1349.61
872.33	1429.48
872.50	1437.67
872.67	1374.19
872.83	1413.10
873.00	1474.54
873.17	1413.10
873.33	1347.56
873.50	1404.91
873.67	1331.18
873.83	1366.00
874.00	1339.37
874.16	1331.18
874.33	1427.43
874.50	1357.80
874.66	1394.67
874.83	1413.10
875.00	1388.52
875.16	1347.56
875.33	1400.81
875.50	1290.22
875.66	1384.43
875.83	1394.67
875.99	1333.23
876.16	1382.38
876.33	1370.09
876.49	1339.37
876.66	1386.47
876.83	1298.41
876.99	1302.51
877.16	1413.10
877.32	1374.19
877.49	1396.71
877.66	1368.04
877.82	1384.43
877.99	1335.28
878.15	1415.15
878.32	1325.04
878.49	1331.18
878.65	1353.71
878.82	1462.25
878.98	1337.32
879.15	1482.73
879.32	1404.91
879.48	1409.00
879.65	1411.05
879.81	1349.61
879.98	1366.00
880.15	1339.37
880.31	1423.34
880.48	1343.47
880.64	1378.28
880.81	1376.24
880.97	1423.34
881.14	1372.14
881.31	1300.46
881.47	1443.82
881.64	1437.67
881.80	1253.36
881.97	1413.10
882.13	1433.58
882.30	1241.07
882.47	1318.89
882.63	1380.33
882.80	1304.56
882.96	1314.80
883.13	1355.76
883.29	1406.95
883.46	1357.80
883.62	1425.39
883.79	1378.28
883.95	1341.42
884.12	1368.04
884.29	1386.47
884.45	1361.90
884.62	1460.20
884.78	1320.94
884.95	1353.71
885.11	1337.32
885.28	1347.56
885.44	1361.90
885.61	1460.20
885.77	1458.15
885.94	1394.67
886.10	1322.99
886.27	1361.90
886.43	1464.30
886.60	1429.48
886.76	1341.42
886.93	1322.99
887.09	1396.71
887.26	1318.89
887.42	1347.56
887.59	1492.97
887.75	1462.25
887.92	1421.29
888.08	1388.52
888.25	1437.67
888.41	1290.22
888.58	1359.85
888.74	1386.47
888.91	1384.43
>>>>>End Processed Spectral Data<<<<<
