SpectraSuite Data File
++++++++++++++++++++++++++++++++++++
Date: Tue May 03 11:24:20 CEST 2016
User: root
Dark Spectrum Present: No
Reference Spectrum Present: No
Number of Sampled Component Spectra: 1
Spectrometers: USB4C02835
Integration Time (usec): 100000 (USB4C02835)
Spectra Averaged: 1 (USB4C02835)
Boxcar Smoothing: 0 (USB4C02835)
Correct for Electrical Dark: No (USB4C02835)
Strobe/Lamp Enabled: No (USB4C02835)
Correct for Detector Non-linearity: No (USB4C02835)
Correct for Stray Light: No (USB4C02835)
Number of Pixels in Processed Spectrum: 3648
>>>>>Begin Processed Spectral Data<<<<<
177.47	1273.84
177.69	1273.84
177.91	1273.84
178.13	1253.36
178.36	1200.11
178.58	1390.57
178.80	1411.05
179.02	1337.32
179.24	1335.28
179.46	1402.86
179.68	1413.10
179.90	1318.89
180.13	1396.71
180.35	1394.67
180.57	1355.76
180.79	1359.85
181.01	1429.48
181.23	1439.72
181.45	1415.15
181.67	1423.34
181.90	1433.58
182.12	1372.14
182.34	1282.03
182.56	1357.80
182.78	1378.28
183.00	1349.61
183.22	1372.14
183.44	1343.47
183.66	1470.44
183.89	1474.54
184.11	1345.52
184.33	1349.61
184.55	1388.52
184.77	1409.00
184.99	1351.66
185.21	1302.51
185.43	1452.01
185.65	1345.52
185.87	1316.84
186.10	1421.29
186.32	1443.82
186.54	1398.76
186.76	1300.46
186.98	1404.91
187.20	1314.80
187.42	1316.84
187.64	1388.52
187.86	1378.28
188.08	1396.71
188.30	1341.42
188.52	1409.00
188.75	1431.53
188.97	1419.24
189.19	1308.65
189.41	1347.56
189.63	1411.05
189.85	1359.85
190.07	1353.71
190.29	1308.65
190.51	1441.77
190.73	1322.99
190.95	1343.47
191.17	1396.71
191.39	1306.60
191.61	1398.76
191.84	1429.48
192.06	1386.47
192.28	1361.90
192.50	1452.01
192.72	1320.94
192.94	1339.37
193.16	1366.00
193.38	1355.76
193.60	1359.85
193.82	1359.85
194.04	1419.24
194.26	1296.36
194.48	1417.19
194.70	1343.47
194.92	1331.18
195.14	1382.38
195.36	1331.18
195.58	1316.84
195.80	1392.62
196.02	1372.14
196.24	1361.90
196.46	1355.76
196.69	1337.32
196.91	1423.34
197.13	1372.14
197.35	1366.00
197.57	1411.05
197.79	1351.66
198.01	1353.71
198.23	1396.71
198.45	1394.67
198.67	1329.13
198.89	1359.85
199.11	1415.15
199.33	1331.18
199.55	1298.41
199.77	1361.90
199.99	1386.47
200.21	1337.32
200.43	1357.80
200.65	1378.28
200.87	1320.94
201.09	1392.62
201.31	1355.76
201.53	1425.39
201.75	1425.39
201.97	1357.80
202.19	1345.52
202.41	1386.47
202.63	1388.52
202.85	1429.48
203.07	1384.43
203.29	1359.85
203.51	1304.56
203.73	1380.33
203.95	1501.16
204.17	1445.87
204.39	1314.80
204.61	1400.81
204.83	1314.80
205.05	1425.39
205.27	1443.82
205.49	1464.30
205.71	1320.94
205.93	1386.47
206.15	1277.93
206.37	1411.05
206.59	1359.85
206.81	1374.19
207.03	1329.13
207.25	1392.62
207.47	1394.67
207.69	1374.19
207.91	1400.81
208.13	1415.15
208.34	1290.22
208.56	1372.14
208.78	1445.87
209.00	1312.75
209.22	1327.08
209.44	1316.84
209.66	1310.70
209.88	1368.04
210.10	1398.76
210.32	1406.95
210.54	1419.24
210.76	1384.43
210.98	1394.67
211.20	1314.80
211.42	1363.95
211.64	1388.52
211.86	1411.05
212.08	1404.91
212.30	1400.81
212.52	1286.12
212.74	1413.10
212.96	1349.61
213.17	1386.47
213.39	1322.99
213.61	1449.96
213.83	1355.76
214.05	1417.19
214.27	1368.04
214.49	1394.67
214.71	1333.23
214.93	1456.11
215.15	1337.32
215.37	1380.33
215.59	1310.70
215.81	1347.56
216.03	1427.43
216.24	1425.39
216.46	1396.71
216.68	1316.84
216.90	1302.51
217.12	1443.82
217.34	1439.72
217.56	1394.67
217.78	1445.87
218.00	1363.95
218.22	1357.80
218.44	1390.57
218.66	1374.19
218.87	1406.95
219.09	1327.08
219.31	1421.29
219.53	1351.66
219.75	1386.47
219.97	1394.67
220.19	1480.68
220.41	1337.32
220.63	1347.56
220.85	1445.87
221.06	1357.80
221.28	1394.67
221.50	1398.76
221.72	1345.52
221.94	1388.52
222.16	1378.28
222.38	1368.04
222.60	1419.24
222.82	1353.71
223.03	1402.86
223.25	1333.23
223.47	1396.71
223.69	1421.29
223.91	1351.66
224.13	1279.98
224.35	1314.80
224.57	1452.01
224.78	1339.37
225.00	1300.46
225.22	1325.04
225.44	1359.85
225.66	1372.14
225.88	1413.10
226.10	1400.81
226.32	1355.76
226.53	1466.35
226.75	1331.18
226.97	1378.28
227.19	1429.48
227.41	1327.08
227.63	1355.76
227.85	1361.90
228.06	1320.94
228.28	1322.99
228.50	1413.10
228.72	1322.99
228.94	1386.47
229.16	1294.32
229.37	1282.03
229.59	1308.65
229.81	1417.19
230.03	1384.43
230.25	1341.42
230.47	1329.13
230.69	1347.56
230.90	1421.29
231.12	1409.00
231.34	1441.77
231.56	1503.21
231.78	1308.65
232.00	1363.95
232.21	1382.38
232.43	1425.39
232.65	1341.42
232.87	1445.87
233.09	1372.14
233.30	1282.03
233.52	1394.67
233.74	1378.28
233.96	1298.41
234.18	1345.52
234.40	1388.52
234.61	1482.73
234.83	1331.18
235.05	1306.60
235.27	1419.24
235.49	1441.77
235.70	1402.86
235.92	1437.67
236.14	1396.71
236.36	1427.43
236.58	1325.04
236.79	1419.24
237.01	1427.43
237.23	1368.04
237.45	1392.62
237.67	1339.37
237.88	1357.80
238.10	1415.15
238.32	1314.80
238.54	1433.58
238.76	1345.52
238.97	1308.65
239.19	1304.56
239.41	1488.87
239.63	1351.66
239.85	1437.67
240.06	1359.85
240.28	1349.61
240.50	1441.77
240.72	1376.24
240.93	1366.00
241.15	1427.43
241.37	1322.99
241.59	1443.82
241.81	1445.87
242.02	1361.90
242.24	1421.29
242.46	1474.54
242.68	1351.66
242.89	1398.76
243.11	1370.09
243.33	1374.19
243.55	1357.80
243.76	1402.86
243.98	1386.47
244.20	1320.94
244.42	1433.58
244.64	1390.57
244.85	1310.70
245.07	1357.80
245.29	1429.48
245.51	1368.04
245.72	1363.95
245.94	1382.38
246.16	1386.47
246.38	1372.14
246.59	1347.56
246.81	1312.75
247.03	1279.98
247.24	1310.70
247.46	1312.75
247.68	1361.90
247.90	1402.86
248.11	1292.27
248.33	1355.76
248.55	1347.56
248.77	1351.66
248.98	1417.19
249.20	1492.97
249.42	1298.41
249.64	1468.39
249.85	1390.57
250.07	1335.28
250.29	1376.24
250.50	1347.56
250.72	1337.32
250.94	1347.56
251.16	1435.63
251.37	1400.81
251.59	1413.10
251.81	1437.67
252.02	1415.15
252.24	1376.24
252.46	1374.19
252.68	1411.05
252.89	1345.52
253.11	1210.35
253.33	1429.48
253.54	1398.76
253.76	1304.56
253.98	1363.95
254.20	1341.42
254.41	1370.09
254.63	1322.99
254.85	1296.36
255.06	1370.09
255.28	1327.08
255.50	1277.93
255.71	1275.88
255.93	1322.99
256.15	1288.17
256.36	1382.38
256.58	1404.91
256.80	1462.25
257.02	1374.19
257.23	1421.29
257.45	1372.14
257.67	1437.67
257.88	1304.56
258.10	1388.52
258.32	1386.47
258.53	1347.56
258.75	1439.72
258.97	1290.22
259.18	1382.38
259.40	1404.91
259.62	1431.53
259.83	1366.00
260.05	1449.96
260.27	1509.35
260.48	1355.76
260.70	1351.66
260.92	1312.75
261.13	1335.28
261.35	1370.09
261.57	1376.24
261.78	1271.79
262.00	1314.80
262.22	1363.95
262.43	1345.52
262.65	1380.33
262.86	1355.76
263.08	1374.19
263.30	1359.85
263.51	1298.41
263.73	1366.00
263.95	1445.87
264.16	1312.75
264.38	1404.91
264.60	1380.33
264.81	1341.42
265.03	1343.47
265.25	1458.15
265.46	1372.14
265.68	1390.57
265.89	1474.54
266.11	1337.32
266.33	1454.06
266.54	1454.06
266.76	1345.52
266.98	1466.35
267.19	1435.63
267.41	1384.43
267.62	1413.10
267.84	1370.09
268.06	1433.58
268.27	1392.62
268.49	1351.66
268.70	1411.05
268.92	1439.72
269.14	1368.04
269.35	1345.52
269.57	1353.71
269.79	1413.10
270.00	1335.28
270.22	1376.24
270.43	1351.66
270.65	1351.66
270.87	1380.33
271.08	1421.29
271.30	1335.28
271.51	1376.24
271.73	1402.86
271.95	1392.62
272.16	1388.52
272.38	1390.57
272.59	1347.56
272.81	1363.95
273.02	1392.62
273.24	1378.28
273.46	1392.62
273.67	1298.41
273.89	1331.18
274.10	1409.00
274.32	1361.90
274.54	1341.42
274.75	1355.76
274.97	1298.41
275.18	1351.66
275.40	1431.53
275.61	1329.13
275.83	1370.09
276.05	1349.61
276.26	1343.47
276.48	1349.61
276.69	1421.29
276.91	1325.04
277.12	1394.67
277.34	1415.15
277.55	1353.71
277.77	1349.61
277.99	1353.71
278.20	1351.66
278.42	1320.94
278.63	1368.04
278.85	1382.38
279.06	1269.74
279.28	1394.67
279.49	1376.24
279.71	1460.20
279.93	1331.18
280.14	1402.86
280.36	1271.79
280.57	1386.47
280.79	1396.71
281.00	1382.38
281.22	1335.28
281.43	1355.76
281.65	1325.04
281.86	1322.99
282.08	1437.67
282.29	1376.24
282.51	1314.80
282.73	1298.41
282.94	1327.08
283.16	1462.25
283.37	1482.73
283.59	1378.28
283.80	1419.24
284.02	1423.34
284.23	1368.04
284.45	1388.52
284.66	1320.94
284.88	1402.86
285.09	1327.08
285.31	1337.32
285.52	1429.48
285.74	1347.56
285.95	1316.84
286.17	1331.18
286.38	1363.95
286.60	1345.52
286.81	1384.43
287.03	1329.13
287.24	1366.00
287.46	1343.47
287.67	1404.91
287.89	1400.81
288.10	1370.09
288.32	1298.41
288.53	1474.54
288.75	1404.91
288.96	1396.71
289.18	1378.28
289.39	1296.36
289.61	1368.04
289.82	1400.81
290.04	1320.94
290.25	1372.14
290.47	1380.33
290.68	1339.37
290.90	1363.95
291.11	1368.04
291.33	1353.71
291.54	1368.04
291.76	1339.37
291.97	1327.08
292.18	1333.23
292.40	1335.28
292.61	1290.22
292.83	1429.48
293.04	1368.04
293.26	1394.67
293.47	1339.37
293.69	1337.32
293.90	1380.33
294.12	1402.86
294.33	1390.57
294.55	1374.19
294.76	1398.76
294.97	1402.86
295.19	1370.09
295.40	1437.67
295.62	1411.05
295.83	1437.67
296.05	1396.71
296.26	1396.71
296.48	1374.19
296.69	1329.13
296.90	1404.91
297.12	1413.10
297.33	1476.59
297.55	1419.24
297.76	1380.33
297.98	1419.24
298.19	1411.05
298.41	1345.52
298.62	1380.33
298.83	1474.54
299.05	1345.52
299.26	1284.08
299.48	1341.42
299.69	1372.14
299.90	1337.32
300.12	1273.84
300.33	1413.10
300.55	1300.46
300.76	1394.67
300.98	1333.23
301.19	1300.46
301.40	1406.95
301.62	1320.94
301.83	1384.43
302.05	1378.28
302.26	1376.24
302.47	1398.76
302.69	1343.47
302.90	1386.47
303.12	1261.55
303.33	1361.90
303.54	1400.81
303.76	1329.13
303.97	1388.52
304.19	1425.39
304.40	1269.74
304.61	1378.28
304.83	1433.58
305.04	1452.01
305.26	1452.01
305.47	1372.14
305.68	1396.71
305.90	1361.90
306.11	1437.67
306.33	1382.38
306.54	1314.80
306.75	1337.32
306.97	1316.84
307.18	1300.46
307.39	1359.85
307.61	1396.71
307.82	1349.61
308.04	1394.67
308.25	1359.85
308.46	1339.37
308.68	1388.52
308.89	1347.56
309.10	1413.10
309.32	1435.63
309.53	1337.32
309.74	1384.43
309.96	1396.71
310.17	1347.56
310.39	1368.04
310.60	1396.71
310.81	1347.56
311.03	1279.98
311.24	1402.86
311.45	1353.71
311.67	1368.04
311.88	1345.52
312.09	1290.22
312.31	1273.84
312.52	1394.67
312.73	1292.27
312.95	1361.90
313.16	1292.27
313.37	1443.82
313.59	1413.10
313.80	1402.86
314.01	1370.09
314.23	1318.89
314.44	1366.00
314.65	1390.57
314.87	1320.94
315.08	1361.90
315.29	1335.28
315.51	1386.47
315.72	1277.93
315.93	1458.15
316.15	1363.95
316.36	1343.47
316.57	1380.33
316.79	1372.14
317.00	1368.04
317.21	1431.53
317.43	1349.61
317.64	1425.39
317.85	1421.29
318.07	1490.92
318.28	1519.59
318.49	1531.88
318.70	1624.04
318.92	1566.70
319.13	1507.30
319.34	1513.45
319.56	1572.84
319.77	1490.92
319.98	1435.63
320.20	1429.48
320.41	1443.82
320.62	1396.71
320.83	1329.13
321.05	1411.05
321.26	1392.62
321.47	1210.35
321.69	1413.10
321.90	1347.56
322.11	1394.67
322.32	1415.15
322.54	1413.10
322.75	1335.28
322.96	1398.76
323.18	1327.08
323.39	1339.37
323.60	1339.37
323.81	1284.08
324.03	1355.76
324.24	1288.17
324.45	1419.24
324.66	1390.57
324.88	1417.19
325.09	1449.96
325.30	1386.47
325.52	1429.48
325.73	1421.29
325.94	1302.51
326.15	1316.84
326.37	1384.43
326.58	1390.57
326.79	1400.81
327.00	1329.13
327.22	1402.86
327.43	1351.66
327.64	1341.42
327.85	1404.91
328.07	1327.08
328.28	1447.91
328.49	1333.23
328.70	1400.81
328.92	1355.76
329.13	1423.34
329.34	1349.61
329.55	1515.50
329.76	1452.01
329.98	1339.37
330.19	1452.01
330.40	1425.39
330.61	1359.85
330.83	1366.00
331.04	1372.14
331.25	1349.61
331.46	1386.47
331.68	1322.99
331.89	1409.00
332.10	1382.38
332.31	1343.47
332.52	1378.28
332.74	1447.91
332.95	1333.23
333.16	1351.66
333.37	1499.11
333.58	1273.84
333.80	1380.33
334.01	1327.08
334.22	1351.66
334.43	1284.08
334.64	1361.90
334.86	1351.66
335.07	1355.76
335.28	1439.72
335.49	1249.26
335.70	1417.19
335.92	1376.24
336.13	1322.99
336.34	1419.24
336.55	1380.33
336.76	1380.33
336.98	1257.45
337.19	1298.41
337.40	1439.72
337.61	1445.87
337.82	1267.69
338.04	1406.95
338.25	1263.60
338.46	1372.14
338.67	1376.24
338.88	1343.47
339.09	1363.95
339.31	1288.17
339.52	1327.08
339.73	1327.08
339.94	1370.09
340.15	1386.47
340.36	1279.98
340.58	1419.24
340.79	1366.00
341.00	1427.43
341.21	1351.66
341.42	1382.38
341.63	1296.36
341.85	1380.33
342.06	1345.52
342.27	1322.99
342.48	1400.81
342.69	1316.84
342.90	1339.37
343.12	1314.80
343.33	1339.37
343.54	1345.52
343.75	1427.43
343.96	1374.19
344.17	1380.33
344.38	1322.99
344.60	1386.47
344.81	1390.57
345.02	1353.71
345.23	1370.09
345.44	1517.54
345.65	1449.96
345.86	1409.00
346.07	1423.34
346.29	1314.80
346.50	1437.67
346.71	1363.95
346.92	1353.71
347.13	1452.01
347.34	1355.76
347.55	1363.95
347.76	1376.24
347.98	1343.47
348.19	1357.80
348.40	1417.19
348.61	1388.52
348.82	1384.43
349.03	1363.95
349.24	1413.10
349.45	1413.10
349.66	1312.75
349.88	1425.39
350.09	1445.87
350.30	1423.34
350.51	1454.06
350.72	1347.56
350.93	1413.10
351.14	1351.66
351.35	1372.14
351.56	1456.11
351.77	1357.80
351.99	1312.75
352.20	1447.91
352.41	1368.04
352.62	1306.60
352.83	1335.28
353.04	1376.24
353.25	1314.80
353.46	1409.00
353.67	1392.62
353.88	1249.26
354.09	1394.67
354.30	1398.76
354.52	1376.24
354.73	1333.23
354.94	1419.24
355.15	1312.75
355.36	1460.20
355.57	1370.09
355.78	1378.28
355.99	1392.62
356.20	1245.16
356.41	1331.18
356.62	1425.39
356.83	1341.42
357.04	1413.10
357.25	1384.43
357.46	1359.85
357.68	1363.95
357.89	1366.00
358.10	1345.52
358.31	1316.84
358.52	1327.08
358.73	1282.03
358.94	1306.60
359.15	1339.37
359.36	1396.71
359.57	1257.45
359.78	1288.17
359.99	1335.28
360.20	1310.70
360.41	1390.57
360.62	1423.34
360.83	1402.86
361.04	1353.71
361.25	1380.33
361.46	1517.54
361.67	1427.43
361.88	1411.05
362.09	1370.09
362.30	1394.67
362.51	1357.80
362.72	1417.19
362.93	1445.87
363.14	1411.05
363.35	1345.52
363.56	1353.71
363.78	1400.81
363.99	1337.32
364.20	1384.43
364.41	1411.05
364.62	1466.35
364.83	1396.71
365.04	1366.00
365.25	1435.63
365.46	1388.52
365.67	1394.67
365.88	1378.28
366.09	1292.27
366.30	1337.32
366.51	1325.04
366.72	1355.76
366.93	1329.13
367.14	1411.05
367.35	1404.91
367.56	1333.23
367.77	1433.58
367.98	1374.19
368.18	1390.57
368.39	1341.42
368.60	1347.56
368.81	1333.23
369.02	1339.37
369.23	1308.65
369.44	1322.99
369.65	1249.26
369.86	1355.76
370.07	1433.58
370.28	1343.47
370.49	1363.95
370.70	1339.37
370.91	1376.24
371.12	1347.56
371.33	1392.62
371.54	1433.58
371.75	1449.96
371.96	1271.79
372.17	1347.56
372.38	1374.19
372.59	1423.34
372.80	1368.04
373.01	1347.56
373.22	1382.38
373.43	1335.28
373.64	1316.84
373.85	1423.34
374.06	1380.33
374.26	1363.95
374.47	1419.24
374.68	1423.34
374.89	1368.04
375.10	1409.00
375.31	1386.47
375.52	1345.52
375.73	1292.27
375.94	1286.12
376.15	1392.62
376.36	1400.81
376.57	1411.05
376.78	1355.76
376.99	1368.04
377.20	1333.23
377.40	1339.37
377.61	1441.77
377.82	1333.23
378.03	1409.00
378.24	1445.87
378.45	1351.66
378.66	1417.19
378.87	1304.56
379.08	1290.22
379.29	1431.53
379.50	1445.87
379.71	1384.43
379.91	1390.57
380.12	1343.47
380.33	1404.91
380.54	1359.85
380.75	1380.33
380.96	1347.56
381.17	1363.95
381.38	1505.26
381.59	1398.76
381.80	1415.15
382.00	1585.13
382.21	1447.91
382.42	1497.07
382.63	1544.17
382.84	1456.11
383.05	1392.62
383.26	1499.11
383.47	1376.24
383.68	1359.85
383.88	1413.10
384.09	1437.67
384.30	1501.16
384.51	1402.86
384.72	1347.56
384.93	1388.52
385.14	1322.99
385.35	1384.43
385.55	1327.08
385.76	1509.35
385.97	1421.29
386.18	1425.39
386.39	1335.28
386.60	1341.42
386.81	1443.82
387.02	1384.43
387.22	1413.10
387.43	1402.86
387.64	1599.46
387.85	2330.59
388.06	5662.63
388.27	9465.71
388.48	11417.43
388.68	12830.52
388.89	13379.38
389.10	10544.99
389.31	9131.89
389.52	8159.11
389.73	7475.09
389.93	6766.49
390.14	6438.81
390.35	6057.89
390.56	5414.83
390.77	4562.87
390.98	3620.81
391.18	2787.29
391.39	2133.98
391.60	1742.82
391.81	1626.09
392.02	1466.35
392.23	1409.00
392.43	1460.20
392.64	1478.63
392.85	1419.24
393.06	1484.78
393.27	1345.52
393.47	1396.71
393.68	1437.67
393.89	1384.43
394.10	1370.09
394.31	1300.46
394.52	1359.85
394.72	1312.75
394.93	1486.83
395.14	1351.66
395.35	1384.43
395.56	1437.67
395.76	1542.12
395.97	1492.97
396.18	1556.46
396.39	1605.61
396.60	1634.28
396.80	1509.35
397.01	1517.54
397.22	1474.54
397.43	1470.44
397.64	1437.67
397.84	1452.01
398.05	1492.97
398.26	1486.83
398.47	1419.24
398.67	1456.11
398.88	1413.10
399.09	1427.43
399.30	1308.65
399.51	1482.73
399.71	1341.42
399.92	1304.56
400.13	1437.67
400.34	1363.95
400.54	1384.43
400.75	1437.67
400.96	1382.38
401.17	1445.87
401.37	1406.95
401.58	1396.71
401.79	1495.02
402.00	1728.49
402.21	1658.85
402.41	1849.32
402.62	1789.92
402.83	1734.63
403.04	1699.81
403.24	1708.01
403.45	1488.87
403.66	1572.84
403.87	1560.55
404.07	1540.07
404.28	1525.74
404.49	1525.74
404.70	1513.45
404.90	1460.20
405.11	1439.72
405.32	1443.82
405.52	1402.86
405.73	1435.63
405.94	1337.32
406.15	1349.61
406.35	1374.19
406.56	1437.67
406.77	1419.24
406.98	1382.38
407.18	1302.51
407.39	1370.09
407.60	1359.85
407.80	1402.86
408.01	1382.38
408.22	1372.14
408.43	1296.36
408.63	1376.24
408.84	1413.10
409.05	1404.91
409.25	1312.75
409.46	1296.36
409.67	1366.00
409.88	1335.28
410.08	1404.91
410.29	1345.52
410.50	1361.90
410.70	1445.87
410.91	1282.03
411.12	1415.15
411.32	1386.47
411.53	1419.24
411.74	1458.15
411.95	1474.54
412.15	1478.63
412.36	1533.93
412.57	1429.48
412.77	1462.25
412.98	1411.05
413.19	1372.14
413.39	1421.29
413.60	1400.81
413.81	1409.00
414.01	1374.19
414.22	1480.68
414.43	1497.07
414.63	1363.95
414.84	1458.15
415.05	1388.52
415.25	1329.13
415.46	1413.10
415.67	1290.22
415.87	1398.76
416.08	1316.84
416.29	1419.24
416.49	1490.92
416.70	1374.19
416.91	1372.14
417.11	1318.89
417.32	1359.85
417.53	1404.91
417.73	1322.99
417.94	1349.61
418.15	1402.86
418.35	1419.24
418.56	1388.52
418.77	1394.67
418.97	1310.70
419.18	1337.32
419.38	1288.17
419.59	1368.04
419.80	1351.66
420.00	1316.84
420.21	1404.91
420.42	1386.47
420.62	1376.24
420.83	1347.56
421.04	1382.38
421.24	1325.04
421.45	1402.86
421.65	1368.04
421.86	1376.24
422.07	1398.76
422.27	1398.76
422.48	1318.89
422.69	1400.81
422.89	1406.95
423.10	1347.56
423.30	1335.28
423.51	1419.24
423.72	1372.14
423.92	1454.06
424.13	1402.86
424.33	1372.14
424.54	1318.89
424.75	1394.67
424.95	1452.01
425.16	1435.63
425.36	1396.71
425.57	1419.24
425.78	1439.72
425.98	1392.62
426.19	1380.33
426.39	1308.65
426.60	1400.81
426.81	1361.90
427.01	1384.43
427.22	1302.51
427.42	1284.08
427.63	1427.43
427.83	1490.92
428.04	1474.54
428.25	1404.91
428.45	1376.24
428.66	1439.72
428.86	1415.15
429.07	1388.52
429.28	1298.41
429.48	1290.22
429.69	1339.37
429.89	1392.62
430.10	1411.05
430.30	1413.10
430.51	1392.62
430.71	1394.67
430.92	1384.43
431.13	1370.09
431.33	1363.95
431.54	1396.71
431.74	1452.01
431.95	1445.87
432.15	1368.04
432.36	1314.80
432.56	1474.54
432.77	1421.29
432.98	1415.15
433.18	1392.62
433.39	1415.15
433.59	1384.43
433.80	1353.71
434.00	1474.54
434.21	1298.41
434.41	1353.71
434.62	1400.81
434.82	1378.28
435.03	1327.08
435.23	1378.28
435.44	1339.37
435.64	1386.47
435.85	1357.80
436.06	1439.72
436.26	1431.53
436.47	1355.76
436.67	1392.62
436.88	1388.52
437.08	1402.86
437.29	1402.86
437.49	1415.15
437.70	1378.28
437.90	1370.09
438.11	1523.69
438.31	1429.48
438.52	1607.66
438.72	1533.93
438.93	1538.02
439.13	1480.68
439.34	1406.95
439.54	1435.63
439.75	1484.78
439.95	1476.59
440.16	1484.78
440.36	1425.39
440.57	1378.28
440.77	1478.63
440.98	1372.14
441.18	1474.54
441.39	1376.24
441.59	1316.84
441.80	1452.01
442.00	1382.38
442.21	1413.10
442.41	1320.94
442.62	1374.19
442.82	1359.85
443.02	1421.29
443.23	1413.10
443.43	1382.38
443.64	1443.82
443.84	1347.56
444.05	1370.09
444.25	1398.76
444.46	1394.67
444.66	1398.76
444.87	1515.50
445.07	1341.42
445.28	1386.47
445.48	1437.67
445.69	1411.05
445.89	1525.74
446.09	1503.21
446.30	2269.15
446.50	3635.14
446.71	4435.90
446.91	5263.28
447.12	5490.60
447.32	5046.20
447.53	4253.63
447.73	3729.35
447.93	3428.30
448.14	3112.91
448.34	3012.56
448.55	2852.82
448.75	2801.62
448.96	2621.40
449.16	2396.12
449.36	2138.08
449.57	1964.00
449.77	1708.01
449.98	1505.26
450.18	1540.07
450.39	1402.86
450.59	1460.20
450.79	1357.80
451.00	1368.04
451.20	1423.34
451.41	1335.28
451.61	1431.53
451.81	1409.00
452.02	1310.70
452.22	1370.09
452.43	1298.41
452.63	1380.33
452.84	1400.81
453.04	1353.71
453.24	1396.71
453.45	1339.37
453.65	1349.61
453.86	1427.43
454.06	1431.53
454.26	1388.52
454.47	1347.56
454.67	1388.52
454.87	1382.38
455.08	1425.39
455.28	1429.48
455.49	1349.61
455.69	1361.90
455.89	1421.29
456.10	1441.77
456.30	1388.52
456.51	1384.43
456.71	1398.76
456.91	1372.14
457.12	1372.14
457.32	1355.76
457.52	1296.36
457.73	1413.10
457.93	1482.73
458.14	1400.81
458.34	1304.56
458.54	1353.71
458.75	1411.05
458.95	1304.56
459.15	1370.09
459.36	1320.94
459.56	1447.91
459.76	1413.10
459.97	1353.71
460.17	1353.71
460.37	1361.90
460.58	1327.08
460.78	1376.24
460.99	1396.71
461.19	1363.95
461.39	1312.75
461.60	1419.24
461.80	1421.29
462.00	1402.86
462.21	1349.61
462.41	1282.03
462.61	1290.22
462.82	1320.94
463.02	1357.80
463.22	1327.08
463.43	1355.76
463.63	1357.80
463.83	1341.42
464.04	1341.42
464.24	1382.38
464.44	1361.90
464.64	1318.89
464.85	1419.24
465.05	1429.48
465.25	1409.00
465.46	1339.37
465.66	1382.38
465.86	1308.65
466.07	1433.58
466.27	1419.24
466.47	1445.87
466.68	1310.70
466.88	1380.33
467.08	1325.04
467.29	1386.47
467.49	1415.15
467.69	1316.84
467.89	1394.67
468.10	1331.18
468.30	1333.23
468.50	1497.07
468.71	1349.61
468.91	1325.04
469.11	1439.72
469.31	1388.52
469.52	1318.89
469.72	1398.76
469.92	1511.40
470.13	1378.28
470.33	1464.30
470.53	1669.09
470.73	1988.58
470.94	2238.43
471.14	2355.16
471.34	2428.89
471.54	2254.81
471.75	1992.67
471.95	2045.92
472.15	1787.88
472.36	1820.64
472.56	1824.74
472.76	1693.67
472.96	1718.25
473.17	1710.05
473.37	1533.93
473.57	1558.50
473.77	1452.01
473.98	1484.78
474.18	1396.71
474.38	1482.73
474.58	1335.28
474.79	1382.38
474.99	1449.96
475.19	1370.09
475.39	1275.88
475.60	1370.09
475.80	1382.38
476.00	1386.47
476.20	1361.90
476.41	1359.85
476.61	1386.47
476.81	1419.24
477.01	1406.95
477.21	1439.72
477.42	1359.85
477.62	1398.76
477.82	1445.87
478.02	1390.57
478.23	1374.19
478.43	1378.28
478.63	1368.04
478.83	1396.71
479.03	1366.00
479.24	1437.67
479.44	1466.35
479.64	1347.56
479.84	1388.52
480.04	1310.70
480.25	1339.37
480.45	1282.03
480.65	1318.89
480.85	1445.87
481.06	1441.77
481.26	1361.90
481.46	1435.63
481.66	1374.19
481.86	1347.56
482.06	1347.56
482.27	1312.75
482.47	1298.41
482.67	1363.95
482.87	1265.64
483.07	1413.10
483.28	1386.47
483.48	1380.33
483.68	1359.85
483.88	1341.42
484.08	1265.64
484.29	1355.76
484.49	1390.57
484.69	1382.38
484.89	1425.39
485.09	1417.19
485.29	1357.80
485.50	1337.32
485.70	1384.43
485.90	1462.25
486.10	1390.57
486.30	1437.67
486.50	1388.52
486.71	1296.36
486.91	1425.39
487.11	1419.24
487.31	1355.76
487.51	1376.24
487.71	1366.00
487.91	1355.76
488.12	1314.80
488.32	1255.40
488.52	1320.94
488.72	1277.93
488.92	1458.15
489.12	1333.23
489.32	1386.47
489.53	1386.47
489.73	1345.52
489.93	1413.10
490.13	1351.66
490.33	1343.47
490.53	1449.96
490.73	1413.10
490.94	1296.36
491.14	1384.43
491.34	1660.90
491.54	2150.37
491.74	2680.79
491.94	2936.79
492.14	3200.98
492.34	2877.40
492.54	2539.48
492.75	2260.96
492.95	2117.60
493.15	2113.50
493.35	2000.87
493.55	2045.92
493.75	1912.80
493.95	1912.80
494.15	1755.11
494.35	1781.73
494.56	1632.23
494.76	1456.11
494.96	1531.88
495.16	1497.07
495.36	1359.85
495.56	1415.15
495.76	1370.09
495.96	1347.56
496.16	1392.62
496.36	1490.92
496.56	1368.04
496.77	1390.57
496.97	1337.32
497.17	1404.91
497.37	1273.84
497.57	1380.33
497.77	1470.44
497.97	1402.86
498.17	1402.86
498.37	1423.34
498.57	1376.24
498.77	1419.24
498.97	1394.67
499.17	1382.38
499.38	1396.71
499.58	1462.25
499.78	1468.39
499.98	1462.25
500.18	1400.81
500.38	1386.47
500.58	1712.10
500.78	2856.92
500.98	5611.43
501.18	6979.48
501.38	8028.04
501.58	8566.65
501.78	7423.89
501.98	5812.14
502.18	5070.77
502.38	4546.49
502.58	4036.55
502.78	3729.35
502.98	3702.73
503.18	3405.77
503.38	3186.64
503.59	2961.36
503.79	2824.15
503.99	2621.40
504.19	2324.44
504.39	2136.03
504.59	2029.54
504.79	1966.05
504.99	1794.02
505.19	1689.57
505.39	1595.37
505.59	1624.04
505.79	1509.35
505.99	1564.65
506.19	1497.07
506.39	1535.98
506.59	1468.39
506.79	1394.67
506.99	1462.25
507.19	1425.39
507.39	1361.90
507.59	1423.34
507.79	1429.48
507.99	1419.24
508.19	1445.87
508.39	1380.33
508.59	1343.47
508.79	1484.78
508.99	1429.48
509.19	1325.04
509.39	1462.25
509.59	1347.56
509.79	1396.71
509.99	1355.76
510.19	1349.61
510.39	1386.47
510.59	1392.62
510.79	1366.00
510.99	1396.71
511.19	1351.66
511.39	1460.20
511.59	1433.58
511.79	1505.26
511.99	1433.58
512.19	1443.82
512.38	1404.91
512.58	1322.99
512.78	1378.28
512.98	1380.33
513.18	1462.25
513.38	1300.46
513.58	1368.04
513.78	1322.99
513.98	1384.43
514.18	1372.14
514.38	1345.52
514.58	1429.48
514.78	1310.70
514.98	1312.75
515.18	1431.53
515.38	1349.61
515.58	1484.78
515.78	1382.38
515.98	1394.67
516.18	1345.52
516.38	1386.47
516.57	1333.23
516.77	1378.28
516.97	1374.19
517.17	1366.00
517.37	1239.02
517.57	1372.14
517.77	1359.85
517.97	1419.24
518.17	1402.86
518.37	1300.46
518.57	1335.28
518.77	1302.51
518.97	1374.19
519.16	1435.63
519.36	1437.67
519.56	1316.84
519.76	1413.10
519.96	1402.86
520.16	1476.59
520.36	1322.99
520.56	1404.91
520.76	1329.13
520.96	1312.75
521.16	1372.14
521.35	1413.10
521.55	1357.80
521.75	1341.42
521.95	1378.28
522.15	1300.46
522.35	1320.94
522.55	1445.87
522.75	1415.15
522.95	1374.19
523.14	1363.95
523.34	1370.09
523.54	1349.61
523.74	1406.95
523.94	1406.95
524.14	1310.70
524.34	1366.00
524.54	1425.39
524.73	1288.17
524.93	1355.76
525.13	1372.14
525.33	1322.99
525.53	1456.11
525.73	1409.00
525.93	1454.06
526.13	1341.42
526.32	1398.76
526.52	1368.04
526.72	1488.87
526.92	1380.33
527.12	1339.37
527.32	1409.00
527.52	1390.57
527.71	1445.87
527.91	1384.43
528.11	1374.19
528.31	1347.56
528.51	1384.43
528.71	1421.29
528.90	1470.44
529.10	1431.53
529.30	1409.00
529.50	1261.55
529.70	1388.52
529.90	1402.86
530.09	1380.33
530.29	1394.67
530.49	1320.94
530.69	1484.78
530.89	1333.23
531.09	1314.80
531.28	1374.19
531.48	1400.81
531.68	1404.91
531.88	1325.04
532.08	1361.90
532.28	1359.85
532.47	1374.19
532.67	1433.58
532.87	1384.43
533.07	1415.15
533.27	1439.72
533.46	1411.05
533.66	1394.67
533.86	1404.91
534.06	1359.85
534.26	1370.09
534.45	1443.82
534.65	1402.86
534.85	1425.39
535.05	1372.14
535.25	1462.25
535.44	1347.56
535.64	1411.05
535.84	1343.47
536.04	1294.32
536.24	1322.99
536.43	1378.28
536.63	1378.28
536.83	1406.95
537.03	1386.47
537.22	1325.04
537.42	1314.80
537.62	1392.62
537.82	1337.32
538.02	1456.11
538.21	1380.33
538.41	1468.39
538.61	1413.10
538.81	1366.00
539.00	1439.72
539.20	1400.81
539.40	1361.90
539.60	1312.75
539.79	1409.00
539.99	1322.99
540.19	1279.98
540.39	1402.86
540.58	1382.38
540.78	1378.28
540.98	1345.52
541.18	1374.19
541.37	1363.95
541.57	1398.76
541.77	1417.19
541.97	1431.53
542.16	1376.24
542.36	1282.03
542.56	1441.77
542.76	1452.01
542.95	1386.47
543.15	1396.71
543.35	1366.00
543.54	1304.56
543.74	1341.42
543.94	1392.62
544.14	1361.90
544.33	1359.85
544.53	1296.36
544.73	1353.71
544.93	1378.28
545.12	1445.87
545.32	1331.18
545.52	1359.85
545.71	1300.46
545.91	1355.76
546.11	1390.57
546.30	1288.17
546.50	1331.18
546.70	1363.95
546.90	1423.34
547.09	1282.03
547.29	1363.95
547.49	1337.32
547.68	1374.19
547.88	1357.80
548.08	1345.52
548.27	1699.81
548.47	1370.09
548.67	1394.67
548.87	1439.72
549.06	1409.00
549.26	1357.80
549.46	1423.34
549.65	1404.91
549.85	1380.33
550.05	1411.05
550.24	1298.41
550.44	1355.76
550.64	1388.52
550.83	1378.28
551.03	1476.59
551.23	1392.62
551.42	1427.43
551.62	1372.14
551.82	1392.62
552.01	1320.94
552.21	1406.95
552.41	1454.06
552.60	1361.90
552.80	1366.00
553.00	1277.93
553.19	1415.15
553.39	1386.47
553.59	1361.90
553.78	1421.29
553.98	1417.19
554.17	1318.89
554.37	1378.28
554.57	1353.71
554.76	1370.09
554.96	1243.12
555.16	1411.05
555.35	1439.72
555.55	1437.67
555.75	1351.66
555.94	1390.57
556.14	1312.75
556.33	1429.48
556.53	1359.85
556.73	1359.85
556.92	1406.95
557.12	1431.53
557.32	1466.35
557.51	1425.39
557.71	1460.20
557.90	1443.82
558.10	1488.87
558.30	1378.28
558.49	1396.71
558.69	1304.56
558.88	1421.29
559.08	1402.86
559.28	1359.85
559.47	1363.95
559.67	1382.38
559.86	1417.19
560.06	1447.91
560.26	1390.57
560.45	1503.21
560.65	1337.32
560.84	1361.90
561.04	1421.29
561.24	1417.19
561.43	1374.19
561.63	1470.44
561.82	1392.62
562.02	1413.10
562.22	1296.36
562.41	1314.80
562.61	1361.90
562.80	1372.14
563.00	1402.86
563.19	1384.43
563.39	1419.24
563.59	1333.23
563.78	1363.95
563.98	1331.18
564.17	1359.85
564.37	1236.97
564.56	1452.01
564.76	1366.00
564.96	1462.25
565.15	1449.96
565.35	1456.11
565.54	1261.55
565.74	1468.39
565.93	1398.76
566.13	1384.43
566.32	1368.04
566.52	1353.71
566.71	1427.43
566.91	1380.33
567.11	1394.67
567.30	1404.91
567.50	1378.28
567.69	1445.87
567.89	1370.09
568.08	1374.19
568.28	1386.47
568.47	1394.67
568.67	1372.14
568.86	1376.24
569.06	1378.28
569.25	1411.05
569.45	1376.24
569.64	1409.00
569.84	1363.95
570.04	1425.39
570.23	1282.03
570.43	1376.24
570.62	1396.71
570.82	1400.81
571.01	1341.42
571.21	1347.56
571.40	1411.05
571.60	1415.15
571.79	1417.19
571.99	1435.63
572.18	1333.23
572.38	1419.24
572.57	1378.28
572.77	1351.66
572.96	1544.17
573.16	1406.95
573.35	1386.47
573.55	1423.34
573.74	1400.81
573.94	1386.47
574.13	1429.48
574.33	1345.52
574.52	1400.81
574.71	1318.89
574.91	1474.54
575.10	1376.24
575.30	1396.71
575.49	1398.76
575.69	1437.67
575.88	1452.01
576.08	1429.48
576.27	1456.11
576.47	1437.67
576.66	1495.02
576.86	1486.83
577.05	1417.19
577.25	1462.25
577.44	1427.43
577.64	1351.66
577.83	1466.35
578.02	1380.33
578.22	1413.10
578.41	1439.72
578.61	1427.43
578.80	1366.00
579.00	1372.14
579.19	1376.24
579.39	1398.76
579.58	1466.35
579.77	1380.33
579.97	1501.16
580.16	1486.83
580.36	1449.96
580.55	1482.73
580.75	1409.00
580.94	1370.09
581.13	1411.05
581.33	1540.07
581.52	1499.11
581.72	1527.78
581.91	1538.02
582.11	1406.95
582.30	1480.68
582.49	1368.04
582.69	1447.91
582.88	1529.83
583.08	1443.82
583.27	1468.39
583.47	1388.52
583.66	1380.33
583.85	1402.86
584.05	1445.87
584.24	1474.54
584.44	1435.63
584.63	1503.21
584.82	1550.31
585.02	1581.03
585.21	1548.26
585.41	1581.03
585.60	1617.90
585.79	1624.04
585.99	1607.66
586.18	1638.38
586.37	1877.99
586.57	2639.83
586.76	7944.07
586.96	24106.64
587.15	40734.10
587.34	51307.76
587.54	59196.54
587.73	58809.47
587.93	44217.69
588.12	32626.19
588.31	26490.48
588.51	22335.15
588.70	19883.73
588.89	18394.86
589.09	16838.40
589.28	15695.63
589.47	14069.55
589.67	12457.79
589.86	10473.31
590.06	8529.79
590.25	6590.36
590.44	4855.73
590.64	3745.73
590.83	2740.18
591.02	2316.25
591.22	1966.05
591.41	1744.87
591.60	1585.13
591.80	1574.89
591.99	1476.59
592.18	1363.95
592.38	1503.21
592.57	1431.53
592.76	1435.63
592.96	1449.96
593.15	1505.26
593.34	1492.97
593.54	1409.00
593.73	1351.66
593.92	1417.19
594.12	1429.48
594.31	1531.88
594.50	1458.15
594.70	1396.71
594.89	1521.64
595.08	1347.56
595.28	1474.54
595.47	1462.25
595.66	1443.82
595.86	1386.47
596.05	1419.24
596.24	1351.66
596.43	1505.26
596.63	1482.73
596.82	1404.91
597.01	1427.43
597.21	1564.65
597.40	1423.34
597.59	1460.20
597.79	1368.04
597.98	1413.10
598.17	1417.19
598.36	1413.10
598.56	1409.00
598.75	1406.95
598.94	1400.81
599.14	1411.05
599.33	1431.53
599.52	1388.52
599.71	1402.86
599.91	1421.29
600.10	1431.53
600.29	1347.56
600.48	1398.76
600.68	1437.67
600.87	1400.81
601.06	1300.46
601.26	1392.62
601.45	1341.42
601.64	1402.86
601.83	1357.80
602.03	1357.80
602.22	1372.14
602.41	1433.58
602.60	1495.02
602.80	1476.59
602.99	1419.24
603.18	1439.72
603.37	1449.96
603.57	1417.19
603.76	1445.87
603.95	1419.24
604.14	1341.42
604.34	1396.71
604.53	1454.06
604.72	1382.38
604.91	1431.53
605.10	1312.75
605.30	1404.91
605.49	1441.77
605.68	1361.90
605.87	1345.52
606.07	1347.56
606.26	1478.63
606.45	1337.32
606.64	1431.53
606.84	1429.48
607.03	1495.02
607.22	1411.05
607.41	1402.86
607.60	1468.39
607.80	1474.54
607.99	1423.34
608.18	1386.47
608.37	1458.15
608.56	1427.43
608.76	1427.43
608.95	1437.67
609.14	1398.76
609.33	1523.69
609.52	1550.31
609.72	1413.10
609.91	1501.16
610.10	1449.96
610.29	1482.73
610.48	1452.01
610.68	1474.54
610.87	1454.06
611.06	1413.10
611.25	1409.00
611.44	1411.05
611.63	1419.24
611.83	1429.48
612.02	1372.14
612.21	1503.21
612.40	1335.28
612.59	1370.09
612.79	1306.60
612.98	1449.96
613.17	1406.95
613.36	1464.30
613.55	1411.05
613.74	1474.54
613.93	1566.70
614.13	1570.79
614.32	1589.22
614.51	1626.09
614.70	1540.07
614.89	1495.02
615.08	1501.16
615.28	1681.38
615.47	1415.15
615.66	1468.39
615.85	1409.00
616.04	1515.50
616.23	1492.97
616.42	1441.77
616.62	1445.87
616.81	1445.87
617.00	1398.76
617.19	1437.67
617.38	1322.99
617.57	1411.05
617.76	1484.78
617.95	1443.82
618.15	1386.47
618.34	1394.67
618.53	1355.76
618.72	1425.39
618.91	1445.87
619.10	1476.59
619.29	1409.00
619.48	1394.67
619.68	1359.85
619.87	1380.33
620.06	1402.86
620.25	1353.71
620.44	1435.63
620.63	1396.71
620.82	1386.47
621.01	1402.86
621.20	1392.62
621.39	1318.89
621.59	1386.47
621.78	1413.10
621.97	1404.91
622.16	1419.24
622.35	1441.77
622.54	1404.91
622.73	1411.05
622.92	1347.56
623.11	1388.52
623.30	1417.19
623.49	1396.71
623.68	1312.75
623.88	1384.43
624.07	1411.05
624.26	1304.56
624.45	1404.91
624.64	1286.12
624.83	1390.57
625.02	1417.19
625.21	1419.24
625.40	1394.67
625.59	1439.72
625.78	1345.52
625.97	1478.63
626.16	1392.62
626.35	1540.07
626.54	1443.82
626.74	1415.15
626.93	1402.86
627.12	1458.15
627.31	1499.11
627.50	1384.43
627.69	1413.10
627.88	1400.81
628.07	1347.56
628.26	1339.37
628.45	1341.42
628.64	1351.66
628.83	1341.42
629.02	1333.23
629.21	1409.00
629.40	1363.95
629.59	1492.97
629.78	1345.52
629.97	1347.56
630.16	1427.43
630.35	1351.66
630.54	1351.66
630.73	1361.90
630.92	1368.04
631.11	1417.19
631.30	1382.38
631.49	1431.53
631.68	1411.05
631.87	1433.58
632.06	1314.80
632.25	1427.43
632.44	1443.82
632.63	1421.29
632.82	1470.44
633.01	1427.43
633.20	1568.74
633.39	1499.11
633.58	1468.39
633.77	1503.21
633.96	1497.07
634.15	1427.43
634.34	1333.23
634.53	1429.48
634.72	1396.71
634.91	1310.70
635.10	1396.71
635.29	1439.72
635.48	1390.57
635.67	1349.61
635.86	1376.24
636.05	1400.81
636.24	1361.90
636.43	1394.67
636.62	1419.24
636.81	1335.28
637.00	1429.48
637.19	1427.43
637.38	1380.33
637.57	1318.89
637.76	1404.91
637.95	1552.36
638.14	1449.96
638.33	1533.93
638.52	1535.98
638.71	1415.15
638.89	1437.67
639.08	1357.80
639.27	1366.00
639.46	1464.30
639.65	1699.81
639.84	1894.37
640.03	2123.74
640.22	2080.74
640.41	2072.54
640.60	1933.28
640.79	1763.30
640.98	1617.90
641.17	1728.49
641.36	1652.71
641.55	1570.79
641.74	1552.36
641.92	1449.96
642.11	1460.20
642.30	1538.02
642.49	1458.15
642.68	1417.19
642.87	1411.05
643.06	1394.67
643.25	1417.19
643.44	1318.89
643.63	1402.86
643.82	1429.48
644.00	1351.66
644.19	1394.67
644.38	1355.76
644.57	1368.04
644.76	1370.09
644.95	1376.24
645.14	1400.81
645.33	1349.61
645.52	1294.32
645.71	1320.94
645.89	1368.04
646.08	1376.24
646.27	1353.71
646.46	1411.05
646.65	1261.55
646.84	1388.52
647.03	1357.80
647.22	1433.58
647.40	1374.19
647.59	1396.71
647.78	1316.84
647.97	1273.84
648.16	1380.33
648.35	1484.78
648.54	1439.72
648.73	1388.52
648.91	1431.53
649.10	1406.95
649.29	1384.43
649.48	1335.28
649.67	1400.81
649.86	1351.66
650.05	1439.72
650.23	1472.49
650.42	1529.83
650.61	1556.46
650.80	1587.18
650.99	1667.05
651.18	1548.26
651.36	1519.59
651.55	1501.16
651.74	1462.25
651.93	1402.86
652.12	1413.10
652.31	1370.09
652.49	1404.91
652.68	1435.63
652.87	1435.63
653.06	1447.91
653.25	1495.02
653.44	1361.90
653.62	1443.82
653.81	1357.80
654.00	1366.00
654.19	1413.10
654.38	1503.21
654.56	1347.56
654.75	1378.28
654.94	1345.52
655.13	1372.14
655.32	1388.52
655.51	1480.68
655.69	1374.19
655.88	1384.43
656.07	1339.37
656.26	1409.00
656.45	1292.27
656.63	1368.04
656.82	1312.75
657.01	1437.67
657.20	1277.93
657.38	1456.11
657.57	1331.18
657.76	1359.85
657.95	1374.19
658.14	1427.43
658.32	1400.81
658.51	1286.12
658.70	1382.38
658.89	1400.81
659.08	1406.95
659.26	1363.95
659.45	1339.37
659.64	1462.25
659.83	1392.62
660.01	1533.93
660.20	1437.67
660.39	1507.30
660.58	1380.33
660.76	1339.37
660.95	1329.13
661.14	1456.11
661.33	1402.86
661.51	1359.85
661.70	1366.00
661.89	1384.43
662.08	1363.95
662.26	1386.47
662.45	1370.09
662.64	1499.11
662.83	1384.43
663.01	1300.46
663.20	1282.03
663.39	1400.81
663.58	1337.32
663.76	1394.67
663.95	1406.95
664.14	1357.80
664.32	1331.18
664.51	1396.71
664.70	1257.45
664.89	1419.24
665.07	1368.04
665.26	1445.87
665.45	1325.04
665.64	1433.58
665.82	1345.52
666.01	1394.67
666.20	1370.09
666.38	1394.67
666.57	1515.50
666.76	1550.31
666.95	2050.02
667.13	4472.76
667.32	11284.31
667.51	17778.42
667.69	21282.49
667.88	24577.67
668.07	24352.40
668.25	19005.15
668.44	13551.41
668.63	11083.61
668.81	9011.06
669.00	8003.46
669.19	7438.22
669.38	6901.65
669.56	6123.43
669.75	5603.24
669.94	4814.77
670.12	4245.44
670.31	3442.64
670.50	2957.27
670.68	2578.39
670.87	2025.44
671.06	1806.31
671.24	1763.30
671.43	1679.33
671.62	1581.03
671.80	1484.78
671.99	1517.54
672.18	1490.92
672.36	1509.35
672.55	1437.67
672.74	1417.19
672.92	1384.43
673.11	1429.48
673.29	1312.75
673.48	1454.06
673.67	1445.87
673.85	1435.63
674.04	1429.48
674.23	1292.27
674.41	1468.39
674.60	1361.90
674.79	1300.46
674.97	1292.27
675.16	1452.01
675.34	1449.96
675.53	1388.52
675.72	1384.43
675.90	1495.02
676.09	1392.62
676.28	1286.12
676.46	1286.12
676.65	1398.76
676.83	1290.22
677.02	1396.71
677.21	1378.28
677.39	1343.47
677.58	1368.04
677.77	1400.81
677.95	1380.33
678.14	1368.04
678.32	1314.80
678.51	1273.84
678.70	1415.15
678.88	1388.52
679.07	1449.96
679.25	1322.99
679.44	1353.71
679.63	1341.42
679.81	1398.76
680.00	1435.63
680.18	1419.24
680.37	1484.78
680.55	1363.95
680.74	1355.76
680.93	1308.65
681.11	1359.85
681.30	1353.71
681.48	1378.28
681.67	1394.67
681.85	1341.42
682.04	1329.13
682.23	1433.58
682.41	1288.17
682.60	1277.93
682.78	1331.18
682.97	1374.19
683.15	1486.83
683.34	1388.52
683.53	1452.01
683.71	1310.70
683.90	1472.49
684.08	1406.95
684.27	1363.95
684.45	1372.14
684.64	1378.28
684.82	1329.13
685.01	1427.43
685.19	1310.70
685.38	1413.10
685.57	1378.28
685.75	1370.09
685.94	1411.05
686.12	1286.12
686.31	1343.47
686.49	1368.04
686.68	1277.93
686.86	1363.95
687.05	1359.85
687.23	1433.58
687.42	1390.57
687.60	1314.80
687.79	1372.14
687.97	1456.11
688.16	1427.43
688.34	1519.59
688.53	1277.93
688.71	1419.24
688.90	1376.24
689.08	1363.95
689.27	1343.47
689.45	1437.67
689.64	1411.05
689.82	1329.13
690.01	1380.33
690.19	1421.29
690.38	1316.84
690.56	1400.81
690.75	1331.18
690.93	1361.90
691.12	1417.19
691.30	1392.62
691.49	1343.47
691.67	1396.71
691.86	1374.19
692.04	1447.91
692.23	1335.28
692.41	1349.61
692.60	1482.73
692.78	1478.63
692.97	1351.66
693.15	1503.21
693.34	1513.45
693.52	1478.63
693.71	1402.86
693.89	1366.00
694.08	1292.27
694.26	1474.54
694.44	1456.11
694.63	1398.76
694.81	1318.89
695.00	1374.19
695.18	1376.24
695.37	1462.25
695.55	1417.19
695.74	1349.61
695.92	1409.00
696.10	1396.71
696.29	1380.33
696.47	1347.56
696.66	1310.70
696.84	1363.95
697.03	1374.19
697.21	1415.15
697.40	1775.59
697.58	1470.44
697.76	1384.43
697.95	1331.18
698.13	1329.13
698.32	1363.95
698.50	1406.95
698.68	1380.33
698.87	1431.53
699.05	1478.63
699.24	1304.56
699.42	1329.13
699.61	1382.38
699.79	1427.43
699.97	1370.09
700.16	1292.27
700.34	1271.79
700.53	1339.37
700.71	1386.47
700.89	1388.52
701.08	1370.09
701.26	1411.05
701.45	1546.22
701.63	1370.09
701.81	1470.44
702.00	1370.09
702.18	1413.10
702.37	1425.39
702.55	1449.96
702.73	1456.11
702.92	1535.98
703.10	1634.28
703.28	1656.81
703.47	1654.76
703.65	1671.14
703.84	1525.74
704.02	1484.78
704.20	1499.11
704.39	1452.01
704.57	1480.68
704.75	1445.87
704.94	1572.84
705.12	1464.30
705.30	1519.59
705.49	1568.74
705.67	1822.69
705.86	3575.75
706.04	8902.52
706.22	16111.37
706.41	19379.93
706.59	22412.97
706.77	23576.22
706.96	19703.51
707.14	13756.21
707.32	11210.58
707.51	9125.75
707.69	8212.35
707.87	7274.38
708.06	6668.19
708.24	6070.18
708.42	4804.53
708.61	4046.79
708.79	2942.93
708.97	2351.07
709.16	1964.00
709.34	1746.92
709.52	1665.00
709.71	1503.21
709.89	1509.35
710.07	1388.52
710.26	1413.10
710.44	1435.63
710.62	1447.91
710.80	1368.04
710.99	1492.97
711.17	1423.34
711.35	1398.76
711.54	1445.87
711.72	1423.34
711.90	1423.34
712.09	1384.43
712.27	1318.89
712.45	1415.15
712.63	1302.51
712.82	1353.71
713.00	1337.32
713.18	1429.48
713.37	1392.62
713.55	1372.14
713.73	1398.76
713.91	1443.82
714.10	1312.75
714.28	1382.38
714.46	1366.00
714.65	1396.71
714.83	1366.00
715.01	1404.91
715.19	1411.05
715.38	1333.23
715.56	1378.28
715.74	1294.32
715.92	1368.04
716.11	1413.10
716.29	1322.99
716.47	1343.47
716.65	1380.33
716.84	1294.32
717.02	1423.34
717.20	1351.66
717.38	1304.56
717.57	1349.61
717.75	1355.76
717.93	1388.52
718.11	1406.95
718.30	1368.04
718.48	1454.06
718.66	1425.39
718.84	1456.11
719.03	1427.43
719.21	1304.56
719.39	1388.52
719.57	1363.95
719.75	1454.06
719.94	1298.41
720.12	1355.76
720.30	1363.95
720.48	1501.16
720.67	1388.52
720.85	1376.24
721.03	1345.52
721.21	1331.18
721.39	1411.05
721.58	1378.28
721.76	1363.95
721.94	1402.86
722.12	1421.29
722.30	1474.54
722.49	1318.89
722.67	1378.28
722.85	1361.90
723.03	1335.28
723.21	1269.74
723.40	1343.47
723.58	1452.01
723.76	1413.10
723.94	1409.00
724.12	1376.24
724.30	1460.20
724.49	1480.68
724.67	1452.01
724.85	1490.92
725.03	1409.00
725.21	1417.19
725.40	1454.06
725.58	1396.71
725.76	1423.34
725.94	1435.63
726.12	1372.14
726.30	1341.42
726.49	1390.57
726.67	1388.52
726.85	1351.66
727.03	1380.33
727.21	1482.73
727.39	1517.54
727.57	2082.78
727.76	3321.81
727.94	4315.07
728.12	4827.06
728.30	5035.96
728.48	5167.03
728.66	4200.38
728.84	3395.53
729.03	3074.00
729.21	2791.38
729.39	2621.40
729.57	2246.62
729.75	2002.91
729.93	1765.35
730.11	1599.46
730.30	1460.20
730.48	1462.25
730.66	1478.63
730.84	1478.63
731.02	1363.95
731.20	1374.19
731.38	1386.47
731.56	1433.58
731.74	1294.32
731.93	1419.24
732.11	1353.71
732.29	1333.23
732.47	1370.09
732.65	1396.71
732.83	1427.43
733.01	1384.43
733.19	1366.00
733.37	1345.52
733.56	1398.76
733.74	1296.36
733.92	1382.38
734.10	1359.85
734.28	1411.05
734.46	1314.80
734.64	1363.95
734.82	1366.00
735.00	1374.19
735.18	1396.71
735.36	1376.24
735.54	1370.09
735.73	1355.76
735.91	1404.91
736.09	1427.43
736.27	1433.58
736.45	1400.81
736.63	1308.65
736.81	1353.71
736.99	1404.91
737.17	1415.15
737.35	1290.22
737.53	1388.52
737.71	1318.89
737.89	1492.97
738.07	1300.46
738.25	1304.56
738.43	1353.71
738.61	1320.94
738.80	1257.45
738.98	1292.27
739.16	1359.85
739.34	1384.43
739.52	1388.52
739.70	1331.18
739.88	1308.65
740.06	1308.65
740.24	1257.45
740.42	1402.86
740.60	1368.04
740.78	1394.67
740.96	1314.80
741.14	1406.95
741.32	1357.80
741.50	1337.32
741.68	1447.91
741.86	1347.56
742.04	1310.70
742.22	1363.95
742.40	1351.66
742.58	1396.71
742.76	1304.56
742.94	1380.33
743.12	1355.76
743.30	1404.91
743.48	1316.84
743.66	1296.36
743.84	1439.72
744.02	1411.05
744.20	1380.33
744.38	1312.75
744.56	1376.24
744.74	1439.72
744.92	1415.15
745.10	1388.52
745.28	1445.87
745.46	1413.10
745.64	1347.56
745.82	1359.85
746.00	1376.24
746.18	1378.28
746.36	1368.04
746.54	1398.76
746.72	1384.43
746.90	1271.79
747.08	1374.19
747.26	1363.95
747.44	1343.47
747.62	1445.87
747.80	1380.33
747.98	1396.71
748.15	1384.43
748.33	1413.10
748.51	1370.09
748.69	1370.09
748.87	1374.19
749.05	1402.86
749.23	1441.77
749.41	1404.91
749.59	1443.82
749.77	1386.47
749.95	1376.24
750.13	1335.28
750.31	1384.43
750.49	1376.24
750.67	1327.08
750.85	1409.00
751.03	1404.91
751.20	1384.43
751.38	1378.28
751.56	1310.70
751.74	1318.89
751.92	1419.24
752.10	1388.52
752.28	1433.58
752.46	1290.22
752.64	1376.24
752.82	1345.52
753.00	1386.47
753.18	1335.28
753.35	1429.48
753.53	1378.28
753.71	1363.95
753.89	1347.56
754.07	1366.00
754.25	1427.43
754.43	1386.47
754.61	1441.77
754.79	1378.28
754.97	1388.52
755.14	1384.43
755.32	1327.08
755.50	1357.80
755.68	1343.47
755.86	1265.64
756.04	1396.71
756.22	1302.51
756.40	1306.60
756.57	1417.19
756.75	1406.95
756.93	1398.76
757.11	1349.61
757.29	1310.70
757.47	1406.95
757.65	1320.94
757.82	1284.08
758.00	1390.57
758.18	1359.85
758.36	1304.56
758.54	1484.78
758.72	1286.12
758.90	1353.71
759.07	1363.95
759.25	1339.37
759.43	1366.00
759.61	1374.19
759.79	1665.00
759.97	1413.10
760.15	1361.90
760.32	1306.60
760.50	1396.71
760.68	1472.49
760.86	1380.33
761.04	1390.57
761.22	1357.80
761.39	1351.66
761.57	1472.49
761.75	1402.86
761.93	1331.18
762.11	1390.57
762.28	1370.09
762.46	1374.19
762.64	1415.15
762.82	1339.37
763.00	1351.66
763.18	1425.39
763.35	1314.80
763.53	1378.28
763.71	1339.37
763.89	1380.33
764.07	1425.39
764.24	1429.48
764.42	1368.04
764.60	1361.90
764.78	1411.05
764.96	1363.95
765.13	1382.38
765.31	1316.84
765.49	1382.38
765.67	1292.27
765.84	1343.47
766.02	1357.80
766.20	1318.89
766.38	1392.62
766.56	1413.10
766.73	1404.91
766.91	1327.08
767.09	1406.95
767.27	1402.86
767.44	1372.14
767.62	1388.52
767.80	1404.91
767.98	1298.41
768.15	1339.37
768.33	1411.05
768.51	1382.38
768.69	1322.99
768.87	1357.80
769.04	1333.23
769.22	1437.67
769.40	1368.04
769.58	1468.39
769.75	1376.24
769.93	1423.34
770.11	1345.52
770.28	1296.36
770.46	1419.24
770.64	1327.08
770.82	1314.80
770.99	1353.71
771.17	1386.47
771.35	1310.70
771.53	1411.05
771.70	1347.56
771.88	1392.62
772.06	1363.95
772.23	1357.80
772.41	1380.33
772.59	1308.65
772.77	1372.14
772.94	1357.80
773.12	1366.00
773.30	1312.75
773.47	1337.32
773.65	1300.46
773.83	1482.73
774.01	1337.32
774.18	1320.94
774.36	1363.95
774.54	1286.12
774.71	1425.39
774.89	1343.47
775.07	1406.95
775.24	1468.39
775.42	1351.66
775.60	1409.00
775.78	1384.43
775.95	1306.60
776.13	1257.45
776.31	1222.64
776.48	1417.19
776.66	1398.76
776.84	1339.37
777.01	1398.76
777.19	1298.41
777.37	1314.80
777.54	1370.09
777.72	1339.37
777.90	1374.19
778.07	1277.93
778.25	1417.19
778.43	1425.39
778.60	1306.60
778.78	1431.53
778.96	1460.20
779.13	1384.43
779.31	1501.16
779.49	1349.61
779.66	1366.00
779.84	1329.13
780.01	1374.19
780.19	1239.02
780.37	1376.24
780.54	1306.60
780.72	1339.37
780.90	1357.80
781.07	1306.60
781.25	1347.56
781.43	1341.42
781.60	1345.52
781.78	1335.28
781.95	1353.71
782.13	1286.12
782.31	1402.86
782.48	1327.08
782.66	1423.34
782.83	1490.92
783.01	1380.33
783.19	1388.52
783.36	1320.94
783.54	1292.27
783.72	1349.61
783.89	1355.76
784.07	1306.60
784.24	1339.37
784.42	1380.33
784.60	1325.04
784.77	1372.14
784.95	1325.04
785.12	1331.18
785.30	1337.32
785.47	1361.90
785.65	1335.28
785.83	1370.09
786.00	1345.52
786.18	1388.52
786.35	1345.52
786.53	1347.56
786.71	1396.71
786.88	1353.71
787.06	1333.23
787.23	1366.00
787.41	1353.71
787.58	1294.32
787.76	1376.24
787.94	1368.04
788.11	1370.09
788.29	1304.56
788.46	1374.19
788.64	1312.75
788.81	1368.04
788.99	1333.23
789.16	1314.80
789.34	1327.08
789.52	1310.70
789.69	1361.90
789.87	1282.03
790.04	1394.67
790.22	1351.66
790.39	1429.48
790.57	1322.99
790.74	1329.13
790.92	1392.62
791.09	1279.98
791.27	1409.00
791.44	1445.87
791.62	1347.56
791.79	1355.76
791.97	1370.09
792.15	1404.91
792.32	1368.04
792.50	1325.04
792.67	1380.33
792.85	1376.24
793.02	1304.56
793.20	1329.13
793.37	1306.60
793.55	1452.01
793.72	1388.52
793.90	1370.09
794.07	1290.22
794.25	1261.55
794.42	1388.52
794.60	1335.28
794.77	1372.14
794.95	1380.33
795.12	1337.32
795.30	1312.75
795.47	1392.62
795.65	1425.39
795.82	1290.22
796.00	1331.18
796.17	1382.38
796.34	1347.56
796.52	1357.80
796.69	1396.71
796.87	1384.43
797.04	1345.52
797.22	1370.09
797.39	1353.71
797.57	1353.71
797.74	1394.67
797.92	1343.47
798.09	1320.94
798.27	1308.65
798.44	1382.38
798.62	1370.09
798.79	1282.03
798.96	1429.48
799.14	1370.09
799.31	1431.53
799.49	1372.14
799.66	1437.67
799.84	1431.53
800.01	1327.08
800.19	1347.56
800.36	1314.80
800.53	1339.37
800.71	1456.11
800.88	1425.39
801.06	1363.95
801.23	1357.80
801.41	1388.52
801.58	1320.94
801.75	1368.04
801.93	1361.90
802.10	1402.86
802.28	1368.04
802.45	1372.14
802.63	1363.95
802.80	1390.57
802.97	1392.62
803.15	1239.02
803.32	1363.95
803.50	1339.37
803.67	1279.98
803.84	1382.38
804.02	1380.33
804.19	1341.42
804.37	1304.56
804.54	1247.21
804.71	1394.67
804.89	1421.29
805.06	1341.42
805.24	1327.08
805.41	1357.80
805.58	1337.32
805.76	1400.81
805.93	1380.33
806.10	1361.90
806.28	1300.46
806.45	1341.42
806.63	1443.82
806.80	1355.76
806.97	1380.33
807.15	1343.47
807.32	1380.33
807.49	1378.28
807.67	1357.80
807.84	1368.04
808.01	1269.74
808.19	1406.95
808.36	1535.98
808.54	1341.42
808.71	1415.15
808.88	1298.41
809.06	1400.81
809.23	1419.24
809.40	1363.95
809.58	1462.25
809.75	1388.52
809.92	1322.99
810.10	1511.40
810.27	1464.30
810.44	1415.15
810.62	1351.66
810.79	1341.42
810.96	1322.99
811.14	1359.85
811.31	1314.80
811.48	1392.62
811.66	1366.00
811.83	1363.95
812.00	1378.28
812.18	1341.42
812.35	1400.81
812.52	1357.80
812.69	1363.95
812.87	1380.33
813.04	1370.09
813.21	1390.57
813.39	1296.36
813.56	1347.56
813.73	1390.57
813.91	1363.95
814.08	1378.28
814.25	1384.43
814.42	1327.08
814.60	1394.67
814.77	1347.56
814.94	1343.47
815.12	1370.09
815.29	1386.47
815.46	1308.65
815.63	1325.04
815.81	1347.56
815.98	1363.95
816.15	1361.90
816.33	1302.51
816.50	1372.14
816.67	1335.28
816.84	1304.56
817.02	1333.23
817.19	1341.42
817.36	1314.80
817.53	1361.90
817.71	1314.80
817.88	1423.34
818.05	1361.90
818.22	1368.04
818.40	1437.67
818.57	1302.51
818.74	1374.19
818.91	1380.33
819.09	1337.32
819.26	1370.09
819.43	1288.17
819.60	1368.04
819.78	1335.28
819.95	1449.96
820.12	1421.29
820.29	1425.39
820.47	1400.81
820.64	1339.37
820.81	1312.75
820.98	1304.56
821.15	1345.52
821.33	1409.00
821.50	1347.56
821.67	1425.39
821.84	1366.00
822.02	1402.86
822.19	1452.01
822.36	1376.24
822.53	1347.56
822.70	1290.22
822.88	1322.99
823.05	1409.00
823.22	1406.95
823.39	1345.52
823.56	1378.28
823.74	1398.76
823.91	1316.84
824.08	1310.70
824.25	1368.04
824.42	1392.62
824.60	1339.37
824.77	1341.42
824.94	1322.99
825.11	1454.06
825.28	1306.60
825.45	1460.20
825.63	1314.80
825.80	1386.47
825.97	1398.76
826.14	1353.71
826.31	1341.42
826.48	1429.48
826.66	1376.24
826.83	1325.04
827.00	1415.15
827.17	1361.90
827.34	1366.00
827.51	1388.52
827.69	1363.95
827.86	1331.18
828.03	1398.76
828.20	1363.95
828.37	1366.00
828.54	1409.00
828.71	1357.80
828.89	1445.87
829.06	1411.05
829.23	1419.24
829.40	1333.23
829.57	1296.36
829.74	1347.56
829.91	1351.66
830.09	1343.47
830.26	1337.32
830.43	1466.35
830.60	1302.51
830.77	1411.05
830.94	1398.76
831.11	1447.91
831.28	1392.62
831.46	1351.66
831.63	1380.33
831.80	1345.52
831.97	1345.52
832.14	1308.65
832.31	1396.71
832.48	1409.00
832.65	1353.71
832.82	1380.33
832.99	1351.66
833.17	1220.59
833.34	1431.53
833.51	1421.29
833.68	1339.37
833.85	1380.33
834.02	1339.37
834.19	1349.61
834.36	1398.76
834.53	1320.94
834.70	1372.14
834.87	1425.39
835.04	1380.33
835.22	1290.22
835.39	1413.10
835.56	1378.28
835.73	1427.43
835.90	1355.76
836.07	1292.27
836.24	1368.04
836.41	1347.56
836.58	1370.09
836.75	1382.38
836.92	1396.71
837.09	1370.09
837.26	1339.37
837.43	1335.28
837.60	1400.81
837.77	1382.38
837.94	1347.56
838.12	1370.09
838.29	1347.56
838.46	1343.47
838.63	1329.13
838.80	1456.11
838.97	1404.91
839.14	1404.91
839.31	1355.76
839.48	1363.95
839.65	1355.76
839.82	1423.34
839.99	1382.38
840.16	1339.37
840.33	1380.33
840.50	1357.80
840.67	1376.24
840.84	1222.64
841.01	1384.43
841.18	1347.56
841.35	1380.33
841.52	1402.86
841.69	1478.63
841.86	1386.47
842.03	1347.56
842.20	1411.05
842.37	1353.71
842.54	1347.56
842.71	1363.95
842.88	1351.66
843.05	1406.95
843.22	1306.60
843.39	1394.67
843.56	1331.18
843.73	1413.10
843.90	1361.90
844.07	1312.75
844.24	1388.52
844.41	1454.06
844.58	1466.35
844.75	1353.71
844.92	1322.99
845.09	1310.70
845.26	1372.14
845.43	1421.29
845.60	1363.95
845.77	1386.47
845.94	1400.81
846.10	1427.43
846.27	1329.13
846.44	1277.93
846.61	1380.33
846.78	1372.14
846.95	1349.61
847.12	1382.38
847.29	1343.47
847.46	1290.22
847.63	1404.91
847.80	1284.08
847.97	1337.32
848.14	1484.78
848.31	1392.62
848.48	1335.28
848.65	1382.38
848.82	1296.36
848.98	1505.26
849.15	1447.91
849.32	1439.72
849.49	1402.86
849.66	1351.66
849.83	1351.66
850.00	1335.28
850.17	1329.13
850.34	1310.70
850.51	1286.12
850.68	1355.76
850.85	1427.43
851.01	1349.61
851.18	1368.04
851.35	1357.80
851.52	1396.71
851.69	1423.34
851.86	1298.41
852.03	1361.90
852.20	1325.04
852.37	1363.95
852.53	1320.94
852.70	1413.10
852.87	1384.43
853.04	1359.85
853.21	1386.47
853.38	1396.71
853.55	1400.81
853.72	1357.80
853.89	1327.08
854.05	1351.66
854.22	1271.79
854.39	1386.47
854.56	1415.15
854.73	1382.38
854.90	1341.42
855.07	1329.13
855.23	1314.80
855.40	1409.00
855.57	1331.18
855.74	1288.17
855.91	1423.34
856.08	1329.13
856.25	1327.08
856.41	1347.56
856.58	1349.61
856.75	1396.71
856.92	1337.32
857.09	1404.91
857.26	1304.56
857.42	1390.57
857.59	1327.08
857.76	1339.37
857.93	1347.56
858.10	1388.52
858.27	1333.23
858.43	1335.28
858.60	1368.04
858.77	1351.66
858.94	1363.95
859.11	1357.80
859.27	1345.52
859.44	1394.67
859.61	1507.30
859.78	1351.66
859.95	1384.43
860.12	1339.37
860.28	1413.10
860.45	1480.68
860.62	1419.24
860.79	1396.71
860.95	1306.60
861.12	1386.47
861.29	1322.99
861.46	1394.67
861.63	1279.98
861.79	1292.27
861.96	1392.62
862.13	1361.90
862.30	1402.86
862.47	1363.95
862.63	1372.14
862.80	1402.86
862.97	1310.70
863.14	1449.96
863.30	1452.01
863.47	1357.80
863.64	1431.53
863.81	1372.14
863.97	1380.33
864.14	1423.34
864.31	1421.29
864.48	1398.76
864.65	1370.09
864.81	1374.19
864.98	1349.61
865.15	1386.47
865.32	1441.77
865.48	1382.38
865.65	1396.71
865.82	1331.18
865.98	1443.82
866.15	1386.47
866.32	1343.47
866.49	1341.42
866.65	1366.00
866.82	1304.56
866.99	1322.99
867.16	1318.89
867.32	1366.00
867.49	1337.32
867.66	1292.27
867.83	1343.47
867.99	1224.69
868.16	1298.41
868.33	1253.36
868.49	1314.80
868.66	1415.15
868.83	1370.09
868.99	1376.24
869.16	1294.32
869.33	1415.15
869.50	1361.90
869.66	1363.95
869.83	1306.60
870.00	1316.84
870.16	1374.19
870.33	1306.60
870.50	1363.95
870.66	1370.09
870.83	1480.68
871.00	1335.28
871.17	1355.76
871.33	1380.33
871.50	1378.28
871.67	1345.52
871.83	1265.64
872.00	1460.20
872.17	1345.52
872.33	1505.26
872.50	1396.71
872.67	1378.28
872.83	1329.13
873.00	1433.58
873.17	1353.71
873.33	1431.53
873.50	1374.19
873.67	1378.28
873.83	1349.61
874.00	1296.36
874.16	1386.47
874.33	1402.86
874.50	1304.56
874.66	1347.56
874.83	1429.48
875.00	1445.87
875.16	1394.67
875.33	1415.15
875.50	1263.60
875.66	1269.74
875.83	1372.14
875.99	1386.47
876.16	1345.52
876.33	1361.90
876.49	1363.95
876.66	1425.39
876.83	1372.14
876.99	1320.94
877.16	1343.47
877.32	1378.28
877.49	1308.65
877.66	1341.42
877.82	1468.39
877.99	1413.10
878.15	1398.76
878.32	1366.00
878.49	1357.80
878.65	1290.22
878.82	1396.71
878.98	1302.51
879.15	1460.20
879.32	1329.13
879.48	1296.36
879.65	1273.84
879.81	1361.90
879.98	1341.42
880.15	1374.19
880.31	1404.91
880.48	1331.18
880.64	1427.43
880.81	1363.95
880.97	1435.63
881.14	1374.19
881.31	1400.81
881.47	1468.39
881.64	1312.75
881.80	1331.18
881.97	1329.13
882.13	1353.71
882.30	1320.94
882.47	1331.18
882.63	1390.57
882.80	1417.19
882.96	1355.76
883.13	1415.15
883.29	1325.04
883.46	1320.94
883.62	1503.21
883.79	1394.67
883.95	1384.43
884.12	1427.43
884.29	1404.91
884.45	1417.19
884.62	1368.04
884.78	1294.32
884.95	1413.10
885.11	1290.22
885.28	1413.10
885.44	1396.71
885.61	1425.39
885.77	1454.06
885.94	1398.76
886.10	1310.70
886.27	1372.14
886.43	1406.95
886.60	1452.01
886.76	1347.56
886.93	1345.52
887.09	1345.52
887.26	1282.03
887.42	1353.71
887.59	1402.86
887.75	1370.09
887.92	1384.43
888.08	1392.62
888.25	1359.85
888.41	1339.37
888.58	1366.00
888.74	1382.38
888.91	1271.79
>>>>>End Processed Spectral Data<<<<<
