SpectraSuite Data File
++++++++++++++++++++++++++++++++++++
Date: Tue May 03 11:24:21 CEST 2016
User: root
Dark Spectrum Present: No
Reference Spectrum Present: No
Number of Sampled Component Spectra: 1
Spectrometers: USB4C02835
Integration Time (usec): 100000 (USB4C02835)
Spectra Averaged: 1 (USB4C02835)
Boxcar Smoothing: 0 (USB4C02835)
Correct for Electrical Dark: No (USB4C02835)
Strobe/Lamp Enabled: No (USB4C02835)
Correct for Detector Non-linearity: No (USB4C02835)
Correct for Stray Light: No (USB4C02835)
Number of Pixels in Processed Spectrum: 3648
>>>>>Begin Processed Spectral Data<<<<<
177.47	1159.15
177.69	1159.15
177.91	1159.15
178.13	1179.63
178.36	1216.49
178.58	1331.18
178.80	1341.42
179.02	1292.27
179.24	1308.65
179.46	1347.56
179.68	1509.35
179.90	1329.13
180.13	1312.75
180.35	1306.60
180.57	1345.52
180.79	1370.09
181.01	1363.95
181.23	1329.13
181.45	1437.67
181.67	1312.75
181.90	1284.08
182.12	1318.89
182.34	1263.60
182.56	1406.95
182.78	1343.47
183.00	1331.18
183.22	1343.47
183.44	1294.32
183.66	1443.82
183.89	1366.00
184.11	1415.15
184.33	1314.80
184.55	1341.42
184.77	1396.71
184.99	1409.00
185.21	1349.61
185.43	1495.02
185.65	1255.40
185.87	1435.63
186.10	1482.73
186.32	1382.38
186.54	1368.04
186.76	1347.56
186.98	1304.56
187.20	1419.24
187.42	1329.13
187.64	1353.71
187.86	1409.00
188.08	1359.85
188.30	1370.09
188.52	1445.87
188.75	1417.19
188.97	1380.33
189.19	1380.33
189.41	1320.94
189.63	1351.66
189.85	1304.56
190.07	1290.22
190.29	1298.41
190.51	1417.19
190.73	1298.41
190.95	1437.67
191.17	1337.32
191.39	1347.56
191.61	1372.14
191.84	1325.04
192.06	1361.90
192.28	1243.12
192.50	1484.78
192.72	1400.81
192.94	1388.52
193.16	1435.63
193.38	1396.71
193.60	1382.38
193.82	1357.80
194.04	1429.48
194.26	1421.29
194.48	1394.67
194.70	1427.43
194.92	1351.66
195.14	1392.62
195.36	1320.94
195.58	1437.67
195.80	1316.84
196.02	1361.90
196.24	1331.18
196.46	1306.60
196.69	1363.95
196.91	1478.63
197.13	1337.32
197.35	1441.77
197.57	1341.42
197.79	1411.05
198.01	1366.00
198.23	1341.42
198.45	1396.71
198.67	1314.80
198.89	1374.19
199.11	1292.27
199.33	1329.13
199.55	1288.17
199.77	1370.09
199.99	1429.48
200.21	1415.15
200.43	1355.76
200.65	1372.14
200.87	1398.76
201.09	1361.90
201.31	1347.56
201.53	1409.00
201.75	1413.10
201.97	1388.52
202.19	1322.99
202.41	1341.42
202.63	1468.39
202.85	1372.14
203.07	1349.61
203.29	1290.22
203.51	1331.18
203.73	1374.19
203.95	1411.05
204.17	1353.71
204.39	1388.52
204.61	1349.61
204.83	1417.19
205.05	1433.58
205.27	1363.95
205.49	1394.67
205.71	1370.09
205.93	1345.52
206.15	1372.14
206.37	1398.76
206.59	1363.95
206.81	1298.41
207.03	1411.05
207.25	1284.08
207.47	1329.13
207.69	1370.09
207.91	1447.91
208.13	1433.58
208.34	1357.80
208.56	1300.46
208.78	1419.24
209.00	1370.09
209.22	1331.18
209.44	1431.53
209.66	1372.14
209.88	1296.36
210.10	1345.52
210.32	1368.04
210.54	1380.33
210.76	1335.28
210.98	1425.39
211.20	1255.40
211.42	1347.56
211.64	1390.57
211.86	1427.43
212.08	1378.28
212.30	1370.09
212.52	1333.23
212.74	1425.39
212.96	1347.56
213.17	1419.24
213.39	1476.59
213.61	1392.62
213.83	1355.76
214.05	1353.71
214.27	1380.33
214.49	1294.32
214.71	1318.89
214.93	1409.00
215.15	1388.52
215.37	1271.79
215.59	1290.22
215.81	1421.29
216.03	1437.67
216.24	1396.71
216.46	1331.18
216.68	1331.18
216.90	1462.25
217.12	1423.34
217.34	1355.76
217.56	1384.43
217.78	1388.52
218.00	1374.19
218.22	1300.46
218.44	1402.86
218.66	1427.43
218.87	1394.67
219.09	1374.19
219.31	1376.24
219.53	1363.95
219.75	1290.22
219.97	1318.89
220.19	1347.56
220.41	1288.17
220.63	1435.63
220.85	1441.77
221.06	1339.37
221.28	1495.02
221.50	1390.57
221.72	1363.95
221.94	1380.33
222.16	1314.80
222.38	1388.52
222.60	1445.87
222.82	1322.99
223.03	1351.66
223.25	1357.80
223.47	1411.05
223.69	1456.11
223.91	1417.19
224.13	1474.54
224.35	1353.71
224.57	1384.43
224.78	1476.59
225.00	1345.52
225.22	1363.95
225.44	1380.33
225.66	1388.52
225.88	1388.52
226.10	1396.71
226.32	1409.00
226.53	1386.47
226.75	1384.43
226.97	1390.57
227.19	1384.43
227.41	1415.15
227.63	1368.04
227.85	1253.36
228.06	1372.14
228.28	1398.76
228.50	1419.24
228.72	1409.00
228.94	1423.34
229.16	1302.51
229.37	1322.99
229.59	1335.28
229.81	1443.82
230.03	1304.56
230.25	1347.56
230.47	1347.56
230.69	1290.22
230.90	1361.90
231.12	1372.14
231.34	1368.04
231.56	1349.61
231.78	1351.66
232.00	1337.32
232.21	1376.24
232.43	1339.37
232.65	1269.74
232.87	1349.61
233.09	1402.86
233.30	1302.51
233.52	1353.71
233.74	1353.71
233.96	1378.28
234.18	1423.34
234.40	1384.43
234.61	1404.91
234.83	1304.56
235.05	1353.71
235.27	1437.67
235.49	1404.91
235.70	1345.52
235.92	1394.67
236.14	1388.52
236.36	1443.82
236.58	1372.14
236.79	1382.38
237.01	1333.23
237.23	1359.85
237.45	1433.58
237.67	1357.80
237.88	1363.95
238.10	1466.35
238.32	1335.28
238.54	1329.13
238.76	1361.90
238.97	1320.94
239.19	1263.60
239.41	1386.47
239.63	1404.91
239.85	1366.00
240.06	1398.76
240.28	1322.99
240.50	1392.62
240.72	1409.00
240.93	1400.81
241.15	1370.09
241.37	1417.19
241.59	1345.52
241.81	1413.10
242.02	1318.89
242.24	1390.57
242.46	1433.58
242.68	1335.28
242.89	1363.95
243.11	1331.18
243.33	1388.52
243.55	1366.00
243.76	1363.95
243.98	1310.70
244.20	1347.56
244.42	1359.85
244.64	1419.24
244.85	1341.42
245.07	1347.56
245.29	1419.24
245.51	1372.14
245.72	1357.80
245.94	1429.48
246.16	1413.10
246.38	1437.67
246.59	1312.75
246.81	1310.70
247.03	1411.05
247.24	1339.37
247.46	1374.19
247.68	1355.76
247.90	1421.29
248.11	1296.36
248.33	1355.76
248.55	1380.33
248.77	1370.09
248.98	1392.62
249.20	1476.59
249.42	1396.71
249.64	1413.10
249.85	1355.76
250.07	1331.18
250.29	1339.37
250.50	1345.52
250.72	1331.18
250.94	1394.67
251.16	1492.97
251.37	1429.48
251.59	1384.43
251.81	1447.91
252.02	1439.72
252.24	1327.08
252.46	1363.95
252.68	1349.61
252.89	1273.84
253.11	1320.94
253.33	1435.63
253.54	1425.39
253.76	1333.23
253.98	1392.62
254.20	1306.60
254.41	1339.37
254.63	1325.04
254.85	1302.51
255.06	1366.00
255.28	1366.00
255.50	1372.14
255.71	1318.89
255.93	1363.95
256.15	1316.84
256.36	1382.38
256.58	1421.29
256.80	1441.77
257.02	1308.65
257.23	1374.19
257.45	1335.28
257.67	1370.09
257.88	1376.24
258.10	1386.47
258.32	1400.81
258.53	1429.48
258.75	1445.87
258.97	1353.71
259.18	1286.12
259.40	1339.37
259.62	1384.43
259.83	1386.47
260.05	1388.52
260.27	1452.01
260.48	1366.00
260.70	1306.60
260.92	1329.13
261.13	1388.52
261.35	1386.47
261.57	1318.89
261.78	1300.46
262.00	1320.94
262.22	1417.19
262.43	1351.66
262.65	1351.66
262.86	1359.85
263.08	1384.43
263.30	1318.89
263.51	1327.08
263.73	1312.75
263.95	1421.29
264.16	1325.04
264.38	1415.15
264.60	1380.33
264.81	1308.65
265.03	1458.15
265.25	1419.24
265.46	1335.28
265.68	1552.36
265.89	1337.32
266.11	1372.14
266.33	1492.97
266.54	1374.19
266.76	1382.38
266.98	1445.87
267.19	1411.05
267.41	1466.35
267.62	1378.28
267.84	1284.08
268.06	1361.90
268.27	1388.52
268.49	1380.33
268.70	1423.34
268.92	1413.10
269.14	1409.00
269.35	1314.80
269.57	1372.14
269.79	1398.76
270.00	1368.04
270.22	1394.67
270.43	1314.80
270.65	1286.12
270.87	1384.43
271.08	1394.67
271.30	1392.62
271.51	1366.00
271.73	1398.76
271.95	1318.89
272.16	1355.76
272.38	1441.77
272.59	1370.09
272.81	1353.71
273.02	1372.14
273.24	1495.02
273.46	1378.28
273.67	1263.60
273.89	1419.24
274.10	1368.04
274.32	1409.00
274.54	1370.09
274.75	1382.38
274.97	1325.04
275.18	1468.39
275.40	1402.86
275.61	1404.91
275.83	1380.33
276.05	1329.13
276.26	1353.71
276.48	1413.10
276.69	1394.67
276.91	1341.42
277.12	1429.48
277.34	1421.29
277.55	1406.95
277.77	1296.36
277.99	1357.80
278.20	1298.41
278.42	1341.42
278.63	1292.27
278.85	1359.85
279.06	1337.32
279.28	1353.71
279.49	1402.86
279.71	1441.77
279.93	1329.13
280.14	1382.38
280.36	1363.95
280.57	1363.95
280.79	1482.73
281.00	1314.80
281.22	1411.05
281.43	1363.95
281.65	1312.75
281.86	1306.60
282.08	1396.71
282.29	1392.62
282.51	1339.37
282.73	1390.57
282.94	1337.32
283.16	1380.33
283.37	1449.96
283.59	1394.67
283.80	1382.38
284.02	1347.56
284.23	1341.42
284.45	1339.37
284.66	1327.08
284.88	1384.43
285.09	1386.47
285.31	1390.57
285.52	1337.32
285.74	1333.23
285.95	1404.91
286.17	1398.76
286.38	1394.67
286.60	1394.67
286.81	1351.66
287.03	1320.94
287.24	1335.28
287.46	1368.04
287.67	1355.76
287.89	1413.10
288.10	1327.08
288.32	1380.33
288.53	1361.90
288.75	1372.14
288.96	1363.95
289.18	1382.38
289.39	1404.91
289.61	1384.43
289.82	1419.24
290.04	1404.91
290.25	1314.80
290.47	1370.09
290.68	1388.52
290.90	1400.81
291.11	1302.51
291.33	1437.67
291.54	1359.85
291.76	1271.79
291.97	1388.52
292.18	1386.47
292.40	1368.04
292.61	1357.80
292.83	1433.58
293.04	1411.05
293.26	1380.33
293.47	1439.72
293.69	1302.51
293.90	1331.18
294.12	1394.67
294.33	1388.52
294.55	1376.24
294.76	1433.58
294.97	1351.66
295.19	1503.21
295.40	1345.52
295.62	1333.23
295.83	1386.47
296.05	1339.37
296.26	1363.95
296.48	1302.51
296.69	1322.99
296.90	1306.60
297.12	1314.80
297.33	1372.14
297.55	1339.37
297.76	1462.25
297.98	1368.04
298.19	1333.23
298.41	1382.38
298.62	1322.99
298.83	1351.66
299.05	1404.91
299.26	1327.08
299.48	1282.03
299.69	1400.81
299.90	1382.38
300.12	1304.56
300.33	1406.95
300.55	1376.24
300.76	1421.29
300.98	1388.52
301.19	1425.39
301.40	1355.76
301.62	1394.67
301.83	1396.71
302.05	1331.18
302.26	1398.76
302.47	1396.71
302.69	1263.60
302.90	1361.90
303.12	1277.93
303.33	1378.28
303.54	1454.06
303.76	1314.80
303.97	1396.71
304.19	1372.14
304.40	1413.10
304.61	1390.57
304.83	1429.48
305.04	1394.67
305.26	1378.28
305.47	1341.42
305.68	1357.80
305.90	1333.23
306.11	1390.57
306.33	1267.69
306.54	1339.37
306.75	1306.60
306.97	1359.85
307.18	1314.80
307.39	1325.04
307.61	1382.38
307.82	1333.23
308.04	1415.15
308.25	1345.52
308.46	1345.52
308.68	1335.28
308.89	1372.14
309.10	1404.91
309.32	1419.24
309.53	1378.28
309.74	1421.29
309.96	1314.80
310.17	1421.29
310.39	1380.33
310.60	1335.28
310.81	1394.67
311.03	1380.33
311.24	1390.57
311.45	1366.00
311.67	1404.91
311.88	1376.24
312.09	1331.18
312.31	1376.24
312.52	1376.24
312.73	1390.57
312.95	1251.31
313.16	1327.08
313.37	1359.85
313.59	1386.47
313.80	1368.04
314.01	1363.95
314.23	1345.52
314.44	1353.71
314.65	1304.56
314.87	1376.24
315.08	1433.58
315.29	1361.90
315.51	1290.22
315.72	1304.56
315.93	1409.00
316.15	1458.15
316.36	1376.24
316.57	1349.61
316.79	1353.71
317.00	1363.95
317.21	1370.09
317.43	1376.24
317.64	1406.95
317.85	1419.24
318.07	1468.39
318.28	1568.74
318.49	1544.17
318.70	1644.52
318.92	1468.39
319.13	1427.43
319.34	1548.26
319.56	1495.02
319.77	1415.15
319.98	1486.83
320.20	1429.48
320.41	1466.35
320.62	1413.10
320.83	1398.76
321.05	1427.43
321.26	1345.52
321.47	1363.95
321.69	1388.52
321.90	1298.41
322.11	1325.04
322.32	1372.14
322.54	1437.67
322.75	1308.65
322.96	1337.32
323.18	1355.76
323.39	1243.12
323.60	1341.42
323.81	1372.14
324.03	1394.67
324.24	1322.99
324.45	1355.76
324.66	1318.89
324.88	1415.15
325.09	1374.19
325.30	1288.17
325.52	1404.91
325.73	1310.70
325.94	1339.37
326.15	1273.84
326.37	1318.89
326.58	1363.95
326.79	1380.33
327.00	1335.28
327.22	1347.56
327.43	1368.04
327.64	1384.43
327.85	1380.33
328.07	1427.43
328.28	1406.95
328.49	1347.56
328.70	1331.18
328.92	1382.38
329.13	1351.66
329.34	1370.09
329.55	1454.06
329.76	1456.11
329.98	1394.67
330.19	1394.67
330.40	1384.43
330.61	1384.43
330.83	1351.66
331.04	1353.71
331.25	1435.63
331.46	1396.71
331.68	1400.81
331.89	1429.48
332.10	1366.00
332.31	1363.95
332.52	1363.95
332.74	1398.76
332.95	1368.04
333.16	1298.41
333.37	1409.00
333.58	1331.18
333.80	1359.85
334.01	1306.60
334.22	1343.47
334.43	1390.57
334.64	1343.47
334.86	1382.38
335.07	1273.84
335.28	1404.91
335.49	1400.81
335.70	1382.38
335.92	1327.08
336.13	1470.44
336.34	1411.05
336.55	1370.09
336.76	1472.49
336.98	1279.98
337.19	1388.52
337.40	1396.71
337.61	1433.58
337.82	1327.08
338.04	1372.14
338.25	1380.33
338.46	1353.71
338.67	1349.61
338.88	1314.80
339.09	1335.28
339.31	1339.37
339.52	1353.71
339.73	1349.61
339.94	1306.60
340.15	1368.04
340.36	1353.71
340.58	1417.19
340.79	1376.24
341.00	1378.28
341.21	1353.71
341.42	1437.67
341.63	1333.23
341.85	1413.10
342.06	1404.91
342.27	1263.60
342.48	1388.52
342.69	1394.67
342.90	1382.38
343.12	1388.52
343.33	1316.84
343.54	1417.19
343.75	1355.76
343.96	1355.76
344.17	1282.03
344.38	1288.17
344.60	1402.86
344.81	1386.47
345.02	1394.67
345.23	1415.15
345.44	1413.10
345.65	1368.04
345.86	1374.19
346.07	1308.65
346.29	1353.71
346.50	1470.44
346.71	1374.19
346.92	1388.52
347.13	1429.48
347.34	1322.99
347.55	1429.48
347.76	1415.15
347.98	1396.71
348.19	1259.50
348.40	1495.02
348.61	1413.10
348.82	1325.04
349.03	1464.30
349.24	1372.14
349.45	1441.77
349.66	1312.75
349.88	1435.63
350.09	1343.47
350.30	1396.71
350.51	1419.24
350.72	1376.24
350.93	1386.47
351.14	1331.18
351.35	1402.86
351.56	1378.28
351.77	1464.30
351.99	1376.24
352.20	1398.76
352.41	1359.85
352.62	1314.80
352.83	1310.70
353.04	1447.91
353.25	1384.43
353.46	1421.29
353.67	1411.05
353.88	1325.04
354.09	1355.76
354.30	1273.84
354.52	1390.57
354.73	1380.33
354.94	1380.33
355.15	1378.28
355.36	1411.05
355.57	1361.90
355.78	1322.99
355.99	1351.66
356.20	1314.80
356.41	1460.20
356.62	1370.09
356.83	1306.60
357.04	1357.80
357.25	1343.47
357.46	1343.47
357.68	1298.41
357.89	1353.71
358.10	1327.08
358.31	1357.80
358.52	1400.81
358.73	1339.37
358.94	1318.89
359.15	1314.80
359.36	1380.33
359.57	1366.00
359.78	1409.00
359.99	1415.15
360.20	1325.04
360.41	1349.61
360.62	1370.09
360.83	1423.34
361.04	1409.00
361.25	1351.66
361.46	1357.80
361.67	1386.47
361.88	1390.57
362.09	1376.24
362.30	1413.10
362.51	1318.89
362.72	1349.61
362.93	1433.58
363.14	1415.15
363.35	1347.56
363.56	1349.61
363.78	1380.33
363.99	1337.32
364.20	1304.56
364.41	1378.28
364.62	1394.67
364.83	1337.32
365.04	1423.34
365.25	1378.28
365.46	1425.39
365.67	1302.51
365.88	1361.90
366.09	1267.69
366.30	1378.28
366.51	1413.10
366.72	1302.51
366.93	1279.98
367.14	1458.15
367.35	1486.83
367.56	1390.57
367.77	1421.29
367.98	1419.24
368.18	1497.07
368.39	1398.76
368.60	1316.84
368.81	1359.85
369.02	1347.56
369.23	1355.76
369.44	1275.88
369.65	1394.67
369.86	1411.05
370.07	1435.63
370.28	1402.86
370.49	1466.35
370.70	1382.38
370.91	1380.33
371.12	1322.99
371.33	1429.48
371.54	1279.98
371.75	1415.15
371.96	1236.97
372.17	1439.72
372.38	1357.80
372.59	1406.95
372.80	1376.24
373.01	1435.63
373.22	1425.39
373.43	1357.80
373.64	1327.08
373.85	1306.60
374.06	1456.11
374.26	1439.72
374.47	1406.95
374.68	1322.99
374.89	1474.54
375.10	1335.28
375.31	1429.48
375.52	1372.14
375.73	1357.80
375.94	1392.62
376.15	1411.05
376.36	1366.00
376.57	1419.24
376.78	1349.61
376.99	1380.33
377.20	1425.39
377.40	1327.08
377.61	1415.15
377.82	1353.71
378.03	1449.96
378.24	1357.80
378.45	1327.08
378.66	1404.91
378.87	1310.70
379.08	1306.60
379.29	1382.38
379.50	1419.24
379.71	1368.04
379.91	1337.32
380.12	1347.56
380.33	1292.27
380.54	1388.52
380.75	1374.19
380.96	1452.01
381.17	1452.01
381.38	1435.63
381.59	1431.53
381.80	1388.52
382.00	1591.27
382.21	1419.24
382.42	1452.01
382.63	1470.44
382.84	1437.67
383.05	1447.91
383.26	1409.00
383.47	1294.32
383.68	1437.67
383.88	1388.52
384.09	1327.08
384.30	1499.11
384.51	1394.67
384.72	1302.51
384.93	1337.32
385.14	1421.29
385.35	1462.25
385.55	1339.37
385.76	1439.72
385.97	1441.77
386.18	1378.28
386.39	1458.15
386.60	1372.14
386.81	1431.53
387.02	1476.59
387.22	1402.86
387.43	1474.54
387.64	1517.54
387.85	2269.15
388.06	5687.21
388.27	9383.79
388.48	11382.61
388.68	12885.82
388.89	13322.04
389.10	10571.61
389.31	8953.72
389.52	8212.35
389.73	7403.41
389.93	6729.63
390.14	6328.22
390.35	6055.84
390.56	5431.21
390.77	4652.98
390.98	3659.72
391.18	2758.61
391.39	2156.51
391.60	1763.30
391.81	1552.36
392.02	1529.83
392.23	1472.49
392.43	1468.39
392.64	1398.76
392.85	1382.38
393.06	1413.10
393.27	1318.89
393.47	1366.00
393.68	1372.14
393.89	1409.00
394.10	1437.67
394.31	1271.79
394.52	1314.80
394.72	1269.74
394.93	1470.44
395.14	1335.28
395.35	1368.04
395.56	1400.81
395.76	1554.41
395.97	1476.59
396.18	1576.94
396.39	1605.61
396.60	1703.91
396.80	1497.07
397.01	1535.98
397.22	1535.98
397.43	1470.44
397.64	1484.78
397.84	1499.11
398.05	1542.12
398.26	1435.63
398.47	1441.77
398.67	1517.54
398.88	1386.47
399.09	1400.81
399.30	1353.71
399.51	1423.34
399.71	1343.47
399.92	1404.91
400.13	1386.47
400.34	1320.94
400.54	1347.56
400.75	1447.91
400.96	1411.05
401.17	1366.00
401.37	1433.58
401.58	1335.28
401.79	1513.45
402.00	1642.47
402.21	1814.50
402.41	1705.96
402.62	1753.06
402.83	1708.01
403.04	1595.37
403.24	1701.86
403.45	1562.60
403.66	1587.18
403.87	1585.13
404.07	1521.64
404.28	1533.93
404.49	1634.28
404.70	1460.20
404.90	1380.33
405.11	1347.56
405.32	1335.28
405.52	1400.81
405.73	1363.95
405.94	1366.00
406.15	1329.13
406.35	1439.72
406.56	1470.44
406.77	1361.90
406.98	1441.77
407.18	1376.24
407.39	1466.35
407.60	1474.54
407.80	1413.10
408.01	1437.67
408.22	1372.14
408.43	1409.00
408.63	1460.20
408.84	1441.77
409.05	1404.91
409.25	1329.13
409.46	1396.71
409.67	1322.99
409.88	1363.95
410.08	1351.66
410.29	1411.05
410.50	1431.53
410.70	1421.29
410.91	1318.89
411.12	1427.43
411.32	1335.28
411.53	1468.39
411.74	1464.30
411.95	1454.06
412.15	1431.53
412.36	1486.83
412.57	1351.66
412.77	1458.15
412.98	1335.28
413.19	1396.71
413.39	1384.43
413.60	1421.29
413.81	1458.15
414.01	1368.04
414.22	1406.95
414.43	1427.43
414.63	1368.04
414.84	1421.29
415.05	1378.28
415.25	1292.27
415.46	1415.15
415.67	1347.56
415.87	1396.71
416.08	1402.86
416.29	1429.48
416.49	1429.48
416.70	1320.94
416.91	1306.60
417.11	1413.10
417.32	1411.05
417.53	1363.95
417.73	1380.33
417.94	1349.61
418.15	1392.62
418.35	1380.33
418.56	1359.85
418.77	1421.29
418.97	1417.19
419.18	1327.08
419.38	1267.69
419.59	1370.09
419.80	1476.59
420.00	1343.47
420.21	1331.18
420.42	1423.34
420.62	1353.71
420.83	1345.52
421.04	1357.80
421.24	1382.38
421.45	1449.96
421.65	1431.53
421.86	1370.09
422.07	1370.09
422.27	1359.85
422.48	1343.47
422.69	1339.37
422.89	1372.14
423.10	1290.22
423.30	1353.71
423.51	1425.39
423.72	1378.28
423.92	1382.38
424.13	1368.04
424.33	1368.04
424.54	1343.47
424.75	1411.05
424.95	1353.71
425.16	1343.47
425.36	1392.62
425.57	1353.71
425.78	1386.47
425.98	1402.86
426.19	1398.76
426.39	1294.32
426.60	1409.00
426.81	1419.24
427.01	1366.00
427.22	1353.71
427.42	1314.80
427.63	1359.85
427.83	1423.34
428.04	1456.11
428.25	1443.82
428.45	1386.47
428.66	1318.89
428.86	1366.00
429.07	1316.84
429.28	1322.99
429.48	1308.65
429.69	1357.80
429.89	1386.47
430.10	1349.61
430.30	1417.19
430.51	1380.33
430.71	1286.12
430.92	1355.76
431.13	1492.97
431.33	1429.48
431.54	1425.39
431.74	1474.54
431.95	1425.39
432.15	1325.04
432.36	1425.39
432.56	1505.26
432.77	1394.67
432.98	1449.96
433.18	1427.43
433.39	1411.05
433.59	1296.36
433.80	1355.76
434.00	1472.49
434.21	1382.38
434.41	1398.76
434.62	1423.34
434.82	1273.84
435.03	1380.33
435.23	1427.43
435.44	1298.41
435.64	1363.95
435.85	1353.71
436.06	1419.24
436.26	1388.52
436.47	1363.95
436.67	1261.55
436.88	1331.18
437.08	1425.39
437.29	1394.67
437.49	1441.77
437.70	1396.71
437.90	1361.90
438.11	1542.12
438.31	1427.43
438.52	1640.42
438.72	1482.73
438.93	1527.78
439.13	1435.63
439.34	1484.78
439.54	1370.09
439.75	1497.07
439.95	1476.59
440.16	1431.53
440.36	1423.34
440.57	1486.83
440.77	1347.56
440.98	1394.67
441.18	1400.81
441.39	1351.66
441.59	1318.89
441.80	1423.34
442.00	1433.58
442.21	1372.14
442.41	1392.62
442.62	1368.04
442.82	1343.47
443.02	1357.80
443.23	1417.19
443.43	1370.09
443.64	1449.96
443.84	1384.43
444.05	1421.29
444.25	1472.49
444.46	1357.80
444.66	1404.91
444.87	1449.96
445.07	1304.56
445.28	1343.47
445.48	1402.86
445.69	1409.00
445.89	1511.40
446.09	1511.40
446.30	2357.21
446.50	3637.19
446.71	4673.46
446.91	5359.53
447.12	5472.17
447.32	4962.23
447.53	4245.44
447.73	3839.94
447.93	3370.96
448.14	3178.45
448.34	3086.29
448.55	2779.09
448.75	2766.81
448.96	2707.41
449.16	2363.36
449.36	2187.23
449.57	1996.77
449.77	1658.85
449.98	1568.74
450.18	1525.74
450.39	1449.96
450.59	1392.62
450.79	1411.05
451.00	1388.52
451.20	1380.33
451.41	1415.15
451.61	1372.14
451.81	1327.08
452.02	1298.41
452.22	1361.90
452.43	1310.70
452.63	1345.52
452.84	1404.91
453.04	1421.29
453.24	1400.81
453.45	1361.90
453.65	1333.23
453.86	1357.80
454.06	1370.09
454.26	1435.63
454.47	1316.84
454.67	1476.59
454.87	1368.04
455.08	1376.24
455.28	1474.54
455.49	1388.52
455.69	1361.90
455.89	1492.97
456.10	1452.01
456.30	1353.71
456.51	1499.11
456.71	1322.99
456.91	1417.19
457.12	1429.48
457.32	1425.39
457.52	1388.52
457.73	1351.66
457.93	1402.86
458.14	1327.08
458.34	1357.80
458.54	1318.89
458.75	1386.47
458.95	1404.91
459.15	1335.28
459.36	1417.19
459.56	1327.08
459.76	1417.19
459.97	1372.14
460.17	1396.71
460.37	1372.14
460.58	1343.47
460.78	1409.00
460.99	1392.62
461.19	1282.03
461.39	1349.61
461.60	1404.91
461.80	1384.43
462.00	1363.95
462.21	1392.62
462.41	1331.18
462.61	1306.60
462.82	1279.98
463.02	1329.13
463.22	1398.76
463.43	1441.77
463.63	1353.71
463.83	1409.00
464.04	1400.81
464.24	1376.24
464.44	1306.60
464.64	1394.67
464.85	1456.11
465.05	1427.43
465.25	1400.81
465.46	1355.76
465.66	1411.05
465.86	1351.66
466.07	1429.48
466.27	1357.80
466.47	1290.22
466.68	1347.56
466.88	1351.66
467.08	1394.67
467.29	1437.67
467.49	1429.48
467.69	1363.95
467.89	1357.80
468.10	1370.09
468.30	1296.36
468.50	1415.15
468.71	1396.71
468.91	1368.04
469.11	1449.96
469.31	1415.15
469.52	1343.47
469.72	1411.05
469.92	1449.96
470.13	1409.00
470.33	1482.73
470.53	1695.72
470.73	2021.35
470.94	2295.77
471.14	2320.35
471.34	2465.75
471.54	2205.66
471.75	1894.37
471.95	1851.36
472.15	1818.60
472.36	1808.36
472.56	1812.45
472.76	1718.25
472.96	1748.97
473.17	1650.66
473.37	1671.14
473.57	1490.92
473.77	1564.65
473.98	1429.48
474.18	1386.47
474.38	1505.26
474.58	1374.19
474.79	1302.51
474.99	1423.34
475.19	1460.20
475.39	1294.32
475.60	1370.09
475.80	1435.63
476.00	1398.76
476.20	1288.17
476.41	1386.47
476.61	1417.19
476.81	1488.87
477.01	1282.03
477.21	1449.96
477.42	1394.67
477.62	1331.18
477.82	1531.88
478.02	1296.36
478.23	1423.34
478.43	1378.28
478.63	1351.66
478.83	1396.71
479.03	1318.89
479.24	1370.09
479.44	1409.00
479.64	1343.47
479.84	1271.79
480.04	1335.28
480.25	1447.91
480.45	1366.00
480.65	1339.37
480.85	1445.87
481.06	1322.99
481.26	1423.34
481.46	1437.67
481.66	1290.22
481.86	1269.74
482.06	1314.80
482.27	1359.85
482.47	1374.19
482.67	1400.81
482.87	1331.18
483.07	1392.62
483.28	1306.60
483.48	1314.80
483.68	1411.05
483.88	1343.47
484.08	1282.03
484.29	1372.14
484.49	1411.05
484.69	1394.67
484.89	1380.33
485.09	1423.34
485.29	1386.47
485.50	1400.81
485.70	1333.23
485.90	1429.48
486.10	1279.98
486.30	1331.18
486.50	1382.38
486.71	1368.04
486.91	1372.14
487.11	1427.43
487.31	1368.04
487.51	1390.57
487.71	1327.08
487.91	1404.91
488.12	1394.67
488.32	1306.60
488.52	1400.81
488.72	1314.80
488.92	1370.09
489.12	1415.15
489.32	1419.24
489.53	1425.39
489.73	1390.57
489.93	1355.76
490.13	1345.52
490.33	1382.38
490.53	1366.00
490.73	1425.39
490.94	1349.61
491.14	1503.21
491.34	1638.38
491.54	2101.22
491.74	2469.85
491.94	3028.95
492.14	3160.02
492.34	2947.03
492.54	2457.56
492.75	2346.97
492.95	2181.09
493.15	2140.13
493.35	2000.87
493.55	1972.19
493.75	1845.22
493.95	1873.89
494.15	1884.13
494.35	1669.09
494.56	1626.09
494.76	1669.09
494.96	1474.54
495.16	1456.11
495.36	1411.05
495.56	1376.24
495.76	1394.67
495.96	1390.57
496.16	1294.32
496.36	1478.63
496.56	1355.76
496.77	1413.10
496.97	1372.14
497.17	1419.24
497.37	1357.80
497.57	1357.80
497.77	1359.85
497.97	1298.41
498.17	1413.10
498.37	1370.09
498.57	1400.81
498.77	1335.28
498.97	1396.71
499.17	1425.39
499.38	1415.15
499.58	1380.33
499.78	1310.70
499.98	1443.82
500.18	1286.12
500.38	1431.53
500.58	1669.09
500.78	2944.98
500.98	5261.23
501.18	7004.05
501.38	8052.61
501.58	8255.36
501.78	7247.76
501.98	5713.83
502.18	5144.50
502.38	4528.06
502.58	4075.46
502.78	3839.94
502.98	3620.81
503.18	3436.49
503.38	3305.42
503.59	2928.60
503.79	2633.69
503.99	2539.48
504.19	2441.18
504.39	2146.27
504.59	2088.93
504.79	1978.34
504.99	1761.25
505.19	1609.70
505.39	1599.46
505.59	1648.61
505.79	1503.21
505.99	1484.78
506.19	1490.92
506.39	1454.06
506.59	1488.87
506.79	1447.91
506.99	1503.21
507.19	1447.91
507.39	1411.05
507.59	1337.32
507.79	1378.28
507.99	1386.47
508.19	1478.63
508.39	1378.28
508.59	1402.86
508.79	1413.10
508.99	1478.63
509.19	1398.76
509.39	1400.81
509.59	1335.28
509.79	1419.24
509.99	1306.60
510.19	1458.15
510.39	1396.71
510.59	1363.95
510.79	1363.95
510.99	1439.72
511.19	1476.59
511.39	1421.29
511.59	1431.53
511.79	1478.63
511.99	1404.91
512.19	1509.35
512.38	1368.04
512.58	1400.81
512.78	1409.00
512.98	1335.28
513.18	1421.29
513.38	1288.17
513.58	1458.15
513.78	1388.52
513.98	1376.24
514.18	1398.76
514.38	1409.00
514.58	1392.62
514.78	1363.95
514.98	1351.66
515.18	1345.52
515.38	1361.90
515.58	1454.06
515.78	1406.95
515.98	1271.79
516.18	1398.76
516.38	1396.71
516.57	1406.95
516.77	1271.79
516.97	1312.75
517.17	1312.75
517.37	1320.94
517.57	1368.04
517.77	1345.52
517.97	1353.71
518.17	1372.14
518.37	1349.61
518.57	1398.76
518.77	1331.18
518.97	1353.71
519.16	1421.29
519.36	1413.10
519.56	1435.63
519.76	1374.19
519.96	1384.43
520.16	1380.33
520.36	1312.75
520.56	1417.19
520.76	1361.90
520.96	1378.28
521.16	1376.24
521.35	1361.90
521.55	1464.30
521.75	1423.34
521.95	1380.33
522.15	1329.13
522.35	1298.41
522.55	1322.99
522.75	1431.53
522.95	1329.13
523.14	1359.85
523.34	1429.48
523.54	1351.66
523.74	1431.53
523.94	1404.91
524.14	1304.56
524.34	1368.04
524.54	1548.26
524.73	1394.67
524.93	1392.62
525.13	1337.32
525.33	1361.90
525.53	1396.71
525.73	1333.23
525.93	1374.19
526.13	1286.12
526.32	1374.19
526.52	1452.01
526.72	1478.63
526.92	1294.32
527.12	1370.09
527.32	1355.76
527.52	1347.56
527.71	1380.33
527.91	1376.24
528.11	1357.80
528.31	1333.23
528.51	1320.94
528.71	1380.33
528.90	1376.24
529.10	1460.20
529.30	1476.59
529.50	1286.12
529.70	1423.34
529.90	1333.23
530.09	1447.91
530.29	1331.18
530.49	1312.75
530.69	1443.82
530.89	1427.43
531.09	1390.57
531.28	1382.38
531.48	1415.15
531.68	1409.00
531.88	1384.43
532.08	1361.90
532.28	1425.39
532.47	1445.87
532.67	1359.85
532.87	1421.29
533.07	1384.43
533.27	1460.20
533.46	1372.14
533.66	1452.01
533.86	1462.25
534.06	1439.72
534.26	1439.72
534.45	1431.53
534.65	1431.53
534.85	1366.00
535.05	1425.39
535.25	1320.94
535.44	1341.42
535.64	1404.91
535.84	1400.81
536.04	1398.76
536.24	1419.24
536.43	1349.61
536.63	1413.10
536.83	1380.33
537.03	1447.91
537.22	1355.76
537.42	1339.37
537.62	1363.95
537.82	1325.04
538.02	1413.10
538.21	1384.43
538.41	1501.16
538.61	1335.28
538.81	1402.86
539.00	1437.67
539.20	1306.60
539.40	1355.76
539.60	1351.66
539.79	1454.06
539.99	1314.80
540.19	1331.18
540.39	1380.33
540.58	1335.28
540.78	1472.49
540.98	1378.28
541.18	1402.86
541.37	1298.41
541.57	1390.57
541.77	1404.91
541.97	1372.14
542.16	1345.52
542.36	1357.80
542.56	1466.35
542.76	1421.29
542.95	1413.10
543.15	1429.48
543.35	1366.00
543.54	1331.18
543.74	1337.32
543.94	1406.95
544.14	1288.17
544.33	1402.86
544.53	1302.51
544.73	1359.85
544.93	1314.80
545.12	1271.79
545.32	1378.28
545.52	1372.14
545.71	1396.71
545.91	1363.95
546.11	1476.59
546.30	1339.37
546.50	1382.38
546.70	1388.52
546.90	1470.44
547.09	1347.56
547.29	1384.43
547.49	1417.19
547.68	1384.43
547.88	1329.13
548.08	1400.81
548.27	1691.62
548.47	1269.74
548.67	1370.09
548.87	1372.14
549.06	1382.38
549.26	1394.67
549.46	1376.24
549.65	1374.19
549.85	1349.61
550.05	1374.19
550.24	1312.75
550.44	1435.63
550.64	1384.43
550.83	1404.91
551.03	1447.91
551.23	1468.39
551.42	1409.00
551.62	1351.66
551.82	1390.57
552.01	1439.72
552.21	1384.43
552.41	1380.33
552.60	1501.16
552.80	1441.77
553.00	1288.17
553.19	1363.95
553.39	1433.58
553.59	1316.84
553.78	1437.67
553.98	1425.39
554.17	1284.08
554.37	1384.43
554.57	1359.85
554.76	1349.61
554.96	1318.89
555.16	1400.81
555.35	1392.62
555.55	1398.76
555.75	1402.86
555.94	1433.58
556.14	1308.65
556.33	1388.52
556.53	1314.80
556.73	1347.56
556.92	1363.95
557.12	1419.24
557.32	1406.95
557.51	1454.06
557.71	1372.14
557.90	1478.63
558.10	1492.97
558.30	1351.66
558.49	1443.82
558.69	1423.34
558.88	1359.85
559.08	1341.42
559.28	1370.09
559.47	1374.19
559.67	1345.52
559.86	1425.39
560.06	1302.51
560.26	1374.19
560.45	1392.62
560.65	1331.18
560.84	1353.71
561.04	1370.09
561.24	1490.92
561.43	1363.95
561.63	1421.29
561.82	1368.04
562.02	1357.80
562.22	1380.33
562.41	1341.42
562.61	1353.71
562.80	1329.13
563.00	1503.21
563.19	1462.25
563.39	1368.04
563.59	1372.14
563.78	1353.71
563.98	1335.28
564.17	1357.80
564.37	1382.38
564.56	1339.37
564.76	1406.95
564.96	1359.85
565.15	1441.77
565.35	1431.53
565.54	1327.08
565.74	1449.96
565.93	1386.47
566.13	1366.00
566.32	1441.77
566.52	1398.76
566.71	1388.52
566.91	1388.52
567.11	1368.04
567.30	1312.75
567.50	1445.87
567.69	1431.53
567.89	1347.56
568.08	1308.65
568.28	1435.63
568.47	1374.19
568.67	1394.67
568.86	1351.66
569.06	1423.34
569.25	1380.33
569.45	1382.38
569.64	1357.80
569.84	1333.23
570.04	1470.44
570.23	1347.56
570.43	1357.80
570.62	1341.42
570.82	1394.67
571.01	1322.99
571.21	1314.80
571.40	1355.76
571.60	1398.76
571.79	1382.38
571.99	1417.19
572.18	1390.57
572.38	1380.33
572.57	1398.76
572.77	1421.29
572.96	1380.33
573.16	1327.08
573.35	1366.00
573.55	1439.72
573.74	1339.37
573.94	1427.43
574.13	1470.44
574.33	1495.02
574.52	1427.43
574.71	1439.72
574.91	1495.02
575.10	1372.14
575.30	1331.18
575.49	1372.14
575.69	1400.81
575.88	1419.24
576.08	1439.72
576.27	1464.30
576.47	1468.39
576.66	1474.54
576.86	1411.05
577.05	1449.96
577.25	1417.19
577.44	1476.59
577.64	1392.62
577.83	1478.63
578.02	1357.80
578.22	1509.35
578.41	1439.72
578.61	1400.81
578.80	1400.81
579.00	1343.47
579.19	1376.24
579.39	1490.92
579.58	1456.11
579.77	1417.19
579.97	1478.63
580.16	1445.87
580.36	1437.67
580.55	1525.74
580.75	1368.04
580.94	1429.48
581.13	1501.16
581.33	1470.44
581.52	1495.02
581.72	1413.10
581.91	1525.74
582.11	1458.15
582.30	1523.69
582.49	1495.02
582.69	1576.94
582.88	1378.28
583.08	1335.28
583.27	1513.45
583.47	1433.58
583.66	1406.95
583.85	1495.02
584.05	1462.25
584.24	1400.81
584.44	1462.25
584.63	1505.26
584.82	1535.98
585.02	1628.14
585.21	1535.98
585.41	1558.50
585.60	1544.17
585.79	1595.37
585.99	1619.94
586.18	1607.66
586.37	1814.50
586.57	2795.48
586.76	7835.53
586.96	24004.24
587.15	40906.13
587.34	51856.62
587.54	59278.46
587.73	58864.77
587.93	44066.14
588.12	32257.56
588.31	26148.46
588.51	22073.01
588.70	20018.89
588.89	18374.38
589.09	16758.53
589.28	15552.27
589.47	14184.23
589.67	12562.24
589.86	10549.09
590.06	8632.19
590.25	6555.55
590.44	4958.13
590.64	3674.06
590.83	2863.06
591.02	2297.82
591.22	1863.65
591.41	1744.87
591.60	1525.74
591.80	1593.32
591.99	1503.21
592.18	1521.64
592.38	1415.15
592.57	1419.24
592.76	1488.87
592.96	1462.25
593.15	1454.06
593.34	1490.92
593.54	1445.87
593.73	1449.96
593.92	1519.59
594.12	1462.25
594.31	1425.39
594.50	1519.59
594.70	1527.78
594.89	1576.94
595.08	1370.09
595.28	1329.13
595.47	1454.06
595.66	1419.24
595.86	1386.47
596.05	1368.04
596.24	1386.47
596.43	1441.77
596.63	1402.86
596.82	1433.58
597.01	1437.67
597.21	1486.83
597.40	1511.40
597.59	1466.35
597.79	1435.63
597.98	1417.19
598.17	1478.63
598.36	1415.15
598.56	1462.25
598.75	1400.81
598.94	1437.67
599.14	1443.82
599.33	1376.24
599.52	1415.15
599.71	1411.05
599.91	1419.24
600.10	1368.04
600.29	1452.01
600.48	1400.81
600.68	1421.29
600.87	1378.28
601.06	1380.33
601.26	1374.19
601.45	1396.71
601.64	1390.57
601.83	1359.85
602.03	1366.00
602.22	1310.70
602.41	1411.05
602.60	1501.16
602.80	1361.90
602.99	1540.07
603.18	1368.04
603.37	1411.05
603.57	1390.57
603.76	1357.80
603.95	1476.59
604.14	1411.05
604.34	1378.28
604.53	1390.57
604.72	1355.76
604.91	1378.28
605.10	1390.57
605.30	1249.26
605.49	1470.44
605.68	1515.50
605.87	1402.86
606.07	1413.10
606.26	1404.91
606.45	1382.38
606.64	1337.32
606.84	1343.47
607.03	1351.66
607.22	1511.40
607.41	1384.43
607.60	1425.39
607.80	1409.00
607.99	1378.28
608.18	1345.52
608.37	1388.52
608.56	1363.95
608.76	1462.25
608.95	1531.88
609.14	1449.96
609.33	1531.88
609.52	1527.78
609.72	1501.16
609.91	1535.98
610.10	1486.83
610.29	1490.92
610.48	1503.21
610.68	1419.24
610.87	1458.15
611.06	1511.40
611.25	1409.00
611.44	1499.11
611.63	1413.10
611.83	1474.54
612.02	1335.28
612.21	1411.05
612.40	1224.69
612.59	1398.76
612.79	1314.80
612.98	1423.34
613.17	1429.48
613.36	1400.81
613.55	1519.59
613.74	1413.10
613.93	1464.30
614.13	1607.66
614.32	1646.57
614.51	1640.42
614.70	1548.26
614.89	1540.07
615.08	1466.35
615.28	1724.39
615.47	1427.43
615.66	1447.91
615.85	1402.86
616.04	1564.65
616.23	1482.73
616.42	1495.02
616.62	1529.83
616.81	1349.61
617.00	1460.20
617.19	1386.47
617.38	1400.81
617.57	1396.71
617.76	1427.43
617.95	1386.47
618.15	1445.87
618.34	1478.63
618.53	1415.15
618.72	1433.58
618.91	1462.25
619.10	1470.44
619.29	1398.76
619.48	1333.23
619.68	1282.03
619.87	1361.90
620.06	1298.41
620.25	1423.34
620.44	1376.24
620.63	1345.52
620.82	1419.24
621.01	1443.82
621.20	1406.95
621.39	1437.67
621.59	1554.41
621.78	1388.52
621.97	1384.43
622.16	1499.11
622.35	1380.33
622.54	1363.95
622.73	1462.25
622.92	1343.47
623.11	1421.29
623.30	1437.67
623.49	1425.39
623.68	1376.24
623.88	1452.01
624.07	1331.18
624.26	1349.61
624.45	1404.91
624.64	1333.23
624.83	1302.51
625.02	1355.76
625.21	1366.00
625.40	1333.23
625.59	1449.96
625.78	1417.19
625.97	1458.15
626.16	1449.96
626.35	1445.87
626.54	1466.35
626.74	1568.74
626.93	1443.82
627.12	1470.44
627.31	1507.30
627.50	1482.73
627.69	1429.48
627.88	1374.19
628.07	1454.06
628.26	1337.32
628.45	1325.04
628.64	1339.37
628.83	1456.11
629.02	1298.41
629.21	1421.29
629.40	1363.95
629.59	1388.52
629.78	1304.56
629.97	1429.48
630.16	1372.14
630.35	1443.82
630.54	1441.77
630.73	1366.00
630.92	1404.91
631.11	1320.94
631.30	1478.63
631.49	1384.43
631.68	1419.24
631.87	1302.51
632.06	1310.70
632.25	1488.87
632.44	1419.24
632.63	1406.95
632.82	1423.34
633.01	1462.25
633.20	1523.69
633.39	1380.33
633.58	1488.87
633.77	1505.26
633.96	1490.92
634.15	1482.73
634.34	1447.91
634.53	1374.19
634.72	1392.62
634.91	1355.76
635.10	1437.67
635.29	1505.26
635.48	1347.56
635.67	1398.76
635.86	1351.66
636.05	1335.28
636.24	1370.09
636.43	1347.56
636.62	1398.76
636.81	1306.60
637.00	1314.80
637.19	1415.15
637.38	1304.56
637.57	1409.00
637.76	1435.63
637.95	1484.78
638.14	1488.87
638.33	1495.02
638.52	1470.44
638.71	1392.62
638.89	1411.05
639.08	1452.01
639.27	1535.98
639.46	1505.26
639.65	1763.30
639.84	1841.12
640.03	2068.45
640.22	2078.69
640.41	2215.90
640.60	1863.65
640.79	1880.04
640.98	1671.14
641.17	1619.94
641.36	1452.01
641.55	1585.13
641.74	1492.97
641.92	1492.97
642.11	1488.87
642.30	1423.34
642.49	1392.62
642.68	1452.01
642.87	1421.29
643.06	1472.49
643.25	1337.32
643.44	1372.14
643.63	1370.09
643.82	1359.85
644.00	1382.38
644.19	1265.64
644.38	1290.22
644.57	1320.94
644.76	1345.52
644.95	1378.28
645.14	1372.14
645.33	1357.80
645.52	1404.91
645.71	1359.85
645.89	1308.65
646.08	1304.56
646.27	1296.36
646.46	1449.96
646.65	1304.56
646.84	1320.94
647.03	1382.38
647.22	1390.57
647.40	1320.94
647.59	1337.32
647.78	1357.80
647.97	1400.81
648.16	1335.28
648.35	1499.11
648.54	1443.82
648.73	1331.18
648.91	1388.52
649.10	1320.94
649.29	1353.71
649.48	1331.18
649.67	1361.90
649.86	1355.76
650.05	1392.62
650.23	1452.01
650.42	1529.83
650.61	1566.70
650.80	1669.09
650.99	1675.24
651.18	1527.78
651.36	1495.02
651.55	1417.19
651.74	1490.92
651.93	1384.43
652.12	1421.29
652.31	1337.32
652.49	1423.34
652.68	1372.14
652.87	1470.44
653.06	1421.29
653.25	1490.92
653.44	1423.34
653.62	1468.39
653.81	1433.58
654.00	1419.24
654.19	1396.71
654.38	1427.43
654.56	1343.47
654.75	1445.87
654.94	1411.05
655.13	1351.66
655.32	1368.04
655.51	1386.47
655.69	1402.86
655.88	1435.63
656.07	1398.76
656.26	1417.19
656.45	1286.12
656.63	1445.87
656.82	1415.15
657.01	1402.86
657.20	1298.41
657.38	1386.47
657.57	1439.72
657.76	1304.56
657.95	1370.09
658.14	1339.37
658.32	1433.58
658.51	1343.47
658.70	1425.39
658.89	1400.81
659.08	1386.47
659.26	1454.06
659.45	1474.54
659.64	1345.52
659.83	1380.33
660.01	1472.49
660.20	1392.62
660.39	1486.83
660.58	1409.00
660.76	1415.15
660.95	1382.38
661.14	1433.58
661.33	1282.03
661.51	1429.48
661.70	1384.43
661.89	1490.92
662.08	1392.62
662.26	1327.08
662.45	1275.88
662.64	1476.59
662.83	1427.43
663.01	1400.81
663.20	1325.04
663.39	1454.06
663.58	1314.80
663.76	1363.95
663.95	1359.85
664.14	1406.95
664.32	1339.37
664.51	1359.85
664.70	1292.27
664.89	1366.00
665.07	1314.80
665.26	1406.95
665.45	1341.42
665.64	1359.85
665.82	1441.77
666.01	1425.39
666.20	1310.70
666.38	1499.11
666.57	1482.73
666.76	1550.31
666.95	2009.06
667.13	4472.76
667.32	11255.64
667.51	17876.72
667.69	21552.82
667.88	24536.71
668.07	24067.73
668.25	18753.25
668.44	13676.34
668.63	10995.54
668.81	9105.27
669.00	8093.57
669.19	7327.63
669.38	6961.05
669.56	6209.44
669.75	5429.17
669.94	4995.00
670.12	4091.84
670.31	3475.40
670.50	2854.87
670.68	2463.71
670.87	2119.65
671.06	1794.02
671.24	1648.61
671.43	1636.33
671.62	1578.98
671.80	1509.35
671.99	1521.64
672.18	1443.82
672.36	1517.54
672.55	1566.70
672.74	1331.18
672.92	1421.29
673.11	1421.29
673.29	1361.90
673.48	1374.19
673.67	1378.28
673.85	1445.87
674.04	1425.39
674.23	1390.57
674.41	1384.43
674.60	1296.36
674.79	1333.23
674.97	1398.76
675.16	1390.57
675.34	1413.10
675.53	1357.80
675.72	1380.33
675.90	1390.57
676.09	1386.47
676.28	1320.94
676.46	1288.17
676.65	1470.44
676.83	1296.36
677.02	1331.18
677.21	1359.85
677.39	1388.52
677.58	1353.71
677.77	1265.64
677.95	1282.03
678.14	1325.04
678.32	1314.80
678.51	1308.65
678.70	1425.39
678.88	1409.00
679.07	1417.19
679.25	1392.62
679.44	1378.28
679.63	1331.18
679.81	1333.23
680.00	1349.61
680.18	1357.80
680.37	1421.29
680.55	1331.18
680.74	1368.04
680.93	1361.90
681.11	1376.24
681.30	1363.95
681.48	1327.08
681.67	1443.82
681.85	1392.62
682.04	1343.47
682.23	1425.39
682.41	1361.90
682.60	1359.85
682.78	1345.52
682.97	1339.37
683.15	1429.48
683.34	1384.43
683.53	1417.19
683.71	1341.42
683.90	1519.59
684.08	1497.07
684.27	1363.95
684.45	1398.76
684.64	1378.28
684.82	1298.41
685.01	1417.19
685.19	1316.84
685.38	1435.63
685.57	1345.52
685.75	1314.80
685.94	1353.71
686.12	1304.56
686.31	1370.09
686.49	1466.35
686.68	1372.14
686.86	1384.43
687.05	1335.28
687.23	1452.01
687.42	1312.75
687.60	1386.47
687.79	1417.19
687.97	1431.53
688.16	1447.91
688.34	1447.91
688.53	1320.94
688.71	1390.57
688.90	1409.00
689.08	1415.15
689.27	1378.28
689.45	1413.10
689.64	1363.95
689.82	1421.29
690.01	1353.71
690.19	1372.14
690.38	1429.48
690.56	1429.48
690.75	1370.09
690.93	1419.24
691.12	1353.71
691.30	1312.75
691.49	1396.71
691.67	1351.66
691.86	1341.42
692.04	1314.80
692.23	1415.15
692.41	1452.01
692.60	1552.36
692.78	1456.11
692.97	1425.39
693.15	1527.78
693.34	1490.92
693.52	1505.26
693.71	1439.72
693.89	1421.29
694.08	1255.40
694.26	1437.67
694.44	1458.15
694.63	1441.77
694.81	1337.32
695.00	1320.94
695.18	1359.85
695.37	1452.01
695.55	1331.18
695.74	1370.09
695.92	1290.22
696.10	1478.63
696.29	1267.69
696.47	1386.47
696.66	1402.86
696.84	1382.38
697.03	1345.52
697.21	1486.83
697.40	1726.44
697.58	1497.07
697.76	1351.66
697.95	1273.84
698.13	1255.40
698.32	1331.18
698.50	1429.48
698.68	1439.72
698.87	1368.04
699.05	1447.91
699.24	1439.72
699.42	1341.42
699.61	1357.80
699.79	1296.36
699.97	1298.41
700.16	1345.52
700.34	1314.80
700.53	1452.01
700.71	1423.34
700.89	1454.06
701.08	1361.90
701.26	1370.09
701.45	1601.51
701.63	1353.71
701.81	1417.19
702.00	1433.58
702.18	1341.42
702.37	1355.76
702.55	1449.96
702.73	1507.30
702.92	1529.83
703.10	1710.05
703.28	1683.43
703.47	1603.56
703.65	1593.32
703.84	1556.46
704.02	1507.30
704.20	1482.73
704.39	1503.21
704.57	1396.71
704.75	1423.34
704.94	1488.87
705.12	1486.83
705.30	1499.11
705.49	1490.92
705.67	1691.62
705.86	3502.03
706.04	9004.92
706.22	16047.88
706.41	19384.02
706.59	22318.76
706.77	23479.96
706.96	19355.35
707.14	13682.48
707.32	11206.48
707.51	9318.26
707.69	8015.75
707.87	7344.02
708.06	6750.10
708.24	6016.93
708.42	5033.91
708.61	4026.31
708.79	2928.60
708.97	2418.65
709.16	1982.43
709.34	1746.92
709.52	1621.99
709.71	1523.69
709.89	1527.78
710.07	1435.63
710.26	1376.24
710.44	1423.34
710.62	1409.00
710.80	1349.61
710.99	1363.95
711.17	1443.82
711.35	1400.81
711.54	1318.89
711.72	1419.24
711.90	1480.68
712.09	1425.39
712.27	1384.43
712.45	1415.15
712.63	1429.48
712.82	1343.47
713.00	1370.09
713.18	1376.24
713.37	1470.44
713.55	1353.71
713.73	1421.29
713.91	1335.28
714.10	1322.99
714.28	1406.95
714.46	1380.33
714.65	1445.87
714.83	1396.71
715.01	1386.47
715.19	1337.32
715.38	1372.14
715.56	1363.95
715.74	1355.76
715.92	1304.56
716.11	1402.86
716.29	1388.52
716.47	1409.00
716.65	1400.81
716.84	1269.74
717.02	1456.11
717.20	1363.95
717.38	1374.19
717.57	1423.34
717.75	1404.91
717.93	1290.22
718.11	1398.76
718.30	1363.95
718.48	1368.04
718.66	1400.81
718.84	1429.48
719.03	1386.47
719.21	1302.51
719.39	1406.95
719.57	1400.81
719.75	1456.11
719.94	1378.28
720.12	1382.38
720.30	1392.62
720.48	1454.06
720.67	1374.19
720.85	1384.43
721.03	1316.84
721.21	1331.18
721.39	1392.62
721.58	1402.86
721.76	1433.58
721.94	1378.28
722.12	1273.84
722.30	1384.43
722.49	1374.19
722.67	1400.81
722.85	1441.77
723.03	1374.19
723.21	1388.52
723.40	1427.43
723.58	1398.76
723.76	1335.28
723.94	1376.24
724.12	1431.53
724.30	1419.24
724.49	1511.40
724.67	1413.10
724.85	1476.59
725.03	1398.76
725.21	1517.54
725.40	1443.82
725.58	1431.53
725.76	1413.10
725.94	1433.58
726.12	1335.28
726.30	1411.05
726.49	1347.56
726.67	1339.37
726.85	1462.25
727.03	1411.05
727.21	1458.15
727.39	1550.31
727.57	2142.18
727.76	3284.94
727.94	4304.83
728.12	4829.11
728.30	5318.57
728.48	5132.21
728.66	4165.57
728.84	3272.65
729.03	3145.68
729.21	2891.73
729.39	2547.67
729.57	2222.05
729.75	1908.71
729.93	1802.21
730.11	1542.12
730.30	1513.45
730.48	1509.35
730.66	1482.73
730.84	1386.47
731.02	1378.28
731.20	1454.06
731.38	1329.13
731.56	1327.08
731.74	1359.85
731.93	1386.47
732.11	1400.81
732.29	1314.80
732.47	1366.00
732.65	1384.43
732.83	1351.66
733.01	1398.76
733.19	1306.60
733.37	1423.34
733.56	1400.81
733.74	1386.47
733.92	1441.77
734.10	1396.71
734.28	1372.14
734.46	1341.42
734.64	1345.52
734.82	1394.67
735.00	1339.37
735.18	1372.14
735.36	1353.71
735.54	1363.95
735.73	1320.94
735.91	1398.76
736.09	1347.56
736.27	1386.47
736.45	1449.96
736.63	1318.89
736.81	1382.38
736.99	1394.67
737.17	1443.82
737.35	1390.57
737.53	1294.32
737.71	1347.56
737.89	1425.39
738.07	1304.56
738.25	1329.13
738.43	1345.52
738.61	1417.19
738.80	1343.47
738.98	1333.23
739.16	1331.18
739.34	1370.09
739.52	1406.95
739.70	1435.63
739.88	1361.90
740.06	1429.48
740.24	1396.71
740.42	1376.24
740.60	1300.46
740.78	1398.76
740.96	1374.19
741.14	1228.78
741.32	1394.67
741.50	1306.60
741.68	1433.58
741.86	1353.71
742.04	1380.33
742.22	1318.89
742.40	1318.89
742.58	1310.70
742.76	1366.00
742.94	1404.91
743.12	1392.62
743.30	1349.61
743.48	1458.15
743.66	1427.43
743.84	1400.81
744.02	1423.34
744.20	1378.28
744.38	1368.04
744.56	1357.80
744.74	1464.30
744.92	1419.24
745.10	1527.78
745.28	1304.56
745.46	1380.33
745.64	1361.90
745.82	1425.39
746.00	1347.56
746.18	1384.43
746.36	1312.75
746.54	1380.33
746.72	1411.05
746.90	1353.71
747.08	1404.91
747.26	1366.00
747.44	1404.91
747.62	1396.71
747.80	1300.46
747.98	1413.10
748.15	1396.71
748.33	1370.09
748.51	1376.24
748.69	1394.67
748.87	1394.67
749.05	1419.24
749.23	1345.52
749.41	1361.90
749.59	1345.52
749.77	1386.47
749.95	1388.52
750.13	1404.91
750.31	1441.77
750.49	1423.34
750.67	1435.63
750.85	1388.52
751.03	1449.96
751.20	1400.81
751.38	1374.19
751.56	1355.76
751.74	1423.34
751.92	1400.81
752.10	1271.79
752.28	1357.80
752.46	1376.24
752.64	1376.24
752.82	1257.45
753.00	1363.95
753.18	1425.39
753.35	1370.09
753.53	1353.71
753.71	1413.10
753.89	1400.81
754.07	1386.47
754.25	1390.57
754.43	1394.67
754.61	1304.56
754.79	1394.67
754.97	1380.33
755.14	1413.10
755.32	1427.43
755.50	1429.48
755.68	1298.41
755.86	1372.14
756.04	1359.85
756.22	1322.99
756.40	1392.62
756.57	1421.29
756.75	1296.36
756.93	1396.71
757.11	1345.52
757.29	1431.53
757.47	1316.84
757.65	1363.95
757.82	1310.70
758.00	1382.38
758.18	1427.43
758.36	1378.28
758.54	1474.54
758.72	1288.17
758.90	1366.00
759.07	1398.76
759.25	1337.32
759.43	1470.44
759.61	1345.52
759.79	1665.00
759.97	1384.43
760.15	1384.43
760.32	1353.71
760.50	1392.62
760.68	1439.72
760.86	1322.99
761.04	1302.51
761.22	1443.82
761.39	1462.25
761.57	1366.00
761.75	1413.10
761.93	1415.15
762.11	1282.03
762.28	1380.33
762.46	1333.23
762.64	1427.43
762.82	1298.41
763.00	1343.47
763.18	1413.10
763.35	1433.58
763.53	1372.14
763.71	1327.08
763.89	1361.90
764.07	1349.61
764.24	1347.56
764.42	1363.95
764.60	1380.33
764.78	1353.71
764.96	1427.43
765.13	1413.10
765.31	1357.80
765.49	1431.53
765.67	1343.47
765.84	1284.08
766.02	1370.09
766.20	1417.19
766.38	1433.58
766.56	1423.34
766.73	1378.28
766.91	1380.33
767.09	1386.47
767.27	1411.05
767.44	1296.36
767.62	1357.80
767.80	1406.95
767.98	1353.71
768.15	1359.85
768.33	1390.57
768.51	1396.71
768.69	1339.37
768.87	1335.28
769.04	1327.08
769.22	1511.40
769.40	1417.19
769.58	1437.67
769.75	1394.67
769.93	1472.49
770.11	1337.32
770.28	1337.32
770.46	1378.28
770.64	1302.51
770.82	1380.33
770.99	1363.95
771.17	1404.91
771.35	1329.13
771.53	1380.33
771.70	1441.77
771.88	1359.85
772.06	1284.08
772.23	1363.95
772.41	1322.99
772.59	1335.28
772.77	1351.66
772.94	1335.28
773.12	1366.00
773.30	1339.37
773.47	1433.58
773.65	1320.94
773.83	1402.86
774.01	1380.33
774.18	1300.46
774.36	1353.71
774.54	1318.89
774.71	1329.13
774.89	1331.18
775.07	1394.67
775.24	1339.37
775.42	1265.64
775.60	1417.19
775.78	1351.66
775.95	1310.70
776.13	1263.60
776.31	1257.45
776.48	1292.27
776.66	1372.14
776.84	1370.09
777.01	1396.71
777.19	1353.71
777.37	1341.42
777.54	1368.04
777.72	1421.29
777.90	1357.80
778.07	1361.90
778.25	1417.19
778.43	1404.91
778.60	1345.52
778.78	1409.00
778.96	1419.24
779.13	1357.80
779.31	1361.90
779.49	1361.90
779.66	1316.84
779.84	1269.74
780.01	1441.77
780.19	1304.56
780.37	1347.56
780.54	1458.15
780.72	1341.42
780.90	1282.03
781.07	1368.04
781.25	1343.47
781.43	1380.33
781.60	1380.33
781.78	1390.57
781.95	1392.62
782.13	1417.19
782.31	1335.28
782.48	1288.17
782.66	1452.01
782.83	1417.19
783.01	1361.90
783.19	1370.09
783.36	1363.95
783.54	1380.33
783.72	1394.67
783.89	1398.76
784.07	1292.27
784.24	1327.08
784.42	1441.77
784.60	1300.46
784.77	1437.67
784.95	1263.60
785.12	1327.08
785.30	1353.71
785.47	1335.28
785.65	1378.28
785.83	1361.90
786.00	1374.19
786.18	1355.76
786.35	1343.47
786.53	1310.70
786.71	1363.95
786.88	1413.10
787.06	1382.38
787.23	1380.33
787.41	1243.12
787.58	1302.51
787.76	1353.71
787.94	1363.95
788.11	1390.57
788.29	1386.47
788.46	1331.18
788.64	1335.28
788.81	1415.15
788.99	1331.18
789.16	1322.99
789.34	1300.46
789.52	1368.04
789.69	1263.60
789.87	1304.56
790.04	1413.10
790.22	1376.24
790.39	1452.01
790.57	1290.22
790.74	1255.40
790.92	1439.72
791.09	1273.84
791.27	1327.08
791.44	1396.71
791.62	1284.08
791.79	1435.63
791.97	1343.47
792.15	1490.92
792.32	1372.14
792.50	1349.61
792.67	1431.53
792.85	1370.09
793.02	1357.80
793.20	1380.33
793.37	1294.32
793.55	1333.23
793.72	1327.08
793.90	1398.76
794.07	1318.89
794.25	1275.88
794.42	1433.58
794.60	1339.37
794.77	1443.82
794.95	1441.77
795.12	1380.33
795.30	1333.23
795.47	1310.70
795.65	1464.30
795.82	1409.00
796.00	1232.88
796.17	1353.71
796.34	1353.71
796.52	1351.66
796.69	1388.52
796.87	1347.56
797.04	1351.66
797.22	1396.71
797.39	1398.76
797.57	1378.28
797.74	1349.61
797.92	1312.75
798.09	1316.84
798.27	1368.04
798.44	1421.29
798.62	1345.52
798.79	1382.38
798.96	1421.29
799.14	1400.81
799.31	1345.52
799.49	1384.43
799.66	1380.33
799.84	1376.24
800.01	1388.52
800.19	1406.95
800.36	1327.08
800.53	1417.19
800.71	1337.32
800.88	1441.77
801.06	1345.52
801.23	1353.71
801.41	1402.86
801.58	1404.91
801.75	1361.90
801.93	1435.63
802.10	1402.86
802.28	1388.52
802.45	1302.51
802.63	1359.85
802.80	1425.39
802.97	1359.85
803.15	1327.08
803.32	1404.91
803.50	1343.47
803.67	1425.39
803.84	1359.85
804.02	1376.24
804.19	1351.66
804.37	1322.99
804.54	1310.70
804.71	1437.67
804.89	1413.10
805.06	1310.70
805.24	1333.23
805.41	1275.88
805.58	1357.80
805.76	1402.86
805.93	1331.18
806.10	1384.43
806.28	1419.24
806.45	1302.51
806.63	1366.00
806.80	1386.47
806.97	1376.24
807.15	1341.42
807.32	1454.06
807.49	1333.23
807.67	1302.51
807.84	1468.39
808.01	1320.94
808.19	1452.01
808.36	1495.02
808.54	1347.56
808.71	1296.36
808.88	1423.34
809.06	1427.43
809.23	1382.38
809.40	1368.04
809.58	1400.81
809.75	1343.47
809.92	1314.80
810.10	1464.30
810.27	1306.60
810.44	1347.56
810.62	1341.42
810.79	1388.52
810.96	1327.08
811.14	1388.52
811.31	1341.42
811.48	1390.57
811.66	1325.04
811.83	1419.24
812.00	1402.86
812.18	1400.81
812.35	1441.77
812.52	1337.32
812.69	1363.95
812.87	1363.95
813.04	1357.80
813.21	1376.24
813.39	1312.75
813.56	1345.52
813.73	1458.15
813.91	1292.27
814.08	1341.42
814.25	1392.62
814.42	1345.52
814.60	1298.41
814.77	1382.38
814.94	1290.22
815.12	1411.05
815.29	1388.52
815.46	1374.19
815.63	1435.63
815.81	1304.56
815.98	1376.24
816.15	1345.52
816.33	1349.61
816.50	1337.32
816.67	1325.04
816.84	1374.19
817.02	1390.57
817.19	1331.18
817.36	1351.66
817.53	1425.39
817.71	1353.71
817.88	1337.32
818.05	1345.52
818.22	1361.90
818.40	1445.87
818.57	1357.80
818.74	1435.63
818.91	1329.13
819.09	1347.56
819.26	1380.33
819.43	1417.19
819.60	1376.24
819.78	1372.14
819.95	1413.10
820.12	1368.04
820.29	1374.19
820.47	1460.20
820.64	1282.03
820.81	1302.51
820.98	1351.66
821.15	1316.84
821.33	1345.52
821.50	1290.22
821.67	1396.71
821.84	1374.19
822.02	1443.82
822.19	1404.91
822.36	1374.19
822.53	1417.19
822.70	1427.43
822.88	1363.95
823.05	1427.43
823.22	1335.28
823.39	1380.33
823.56	1322.99
823.74	1421.29
823.91	1390.57
824.08	1327.08
824.25	1411.05
824.42	1392.62
824.60	1351.66
824.77	1345.52
824.94	1284.08
825.11	1419.24
825.28	1284.08
825.45	1337.32
825.63	1388.52
825.80	1288.17
825.97	1421.29
826.14	1380.33
826.31	1363.95
826.48	1386.47
826.66	1333.23
826.83	1355.76
827.00	1310.70
827.17	1337.32
827.34	1411.05
827.51	1304.56
827.69	1366.00
827.86	1388.52
828.03	1351.66
828.20	1392.62
828.37	1322.99
828.54	1470.44
828.71	1331.18
828.89	1474.54
829.06	1386.47
829.23	1378.28
829.40	1322.99
829.57	1413.10
829.74	1427.43
829.91	1318.89
830.09	1292.27
830.26	1409.00
830.43	1355.76
830.60	1363.95
830.77	1447.91
830.94	1400.81
831.11	1439.72
831.28	1290.22
831.46	1409.00
831.63	1316.84
831.80	1357.80
831.97	1351.66
832.14	1349.61
832.31	1456.11
832.48	1333.23
832.65	1355.76
832.82	1368.04
832.99	1357.80
833.17	1337.32
833.34	1386.47
833.51	1433.58
833.68	1331.18
833.85	1398.76
834.02	1349.61
834.19	1366.00
834.36	1308.65
834.53	1339.37
834.70	1355.76
834.87	1400.81
835.04	1322.99
835.22	1298.41
835.39	1372.14
835.56	1386.47
835.73	1417.19
835.90	1384.43
836.07	1380.33
836.24	1421.29
836.41	1333.23
836.58	1368.04
836.75	1413.10
836.92	1374.19
837.09	1355.76
837.26	1417.19
837.43	1413.10
837.60	1466.35
837.77	1445.87
837.94	1443.82
838.12	1409.00
838.29	1476.59
838.46	1298.41
838.63	1329.13
838.80	1449.96
838.97	1402.86
839.14	1378.28
839.31	1343.47
839.48	1390.57
839.65	1320.94
839.82	1359.85
839.99	1425.39
840.16	1331.18
840.33	1368.04
840.50	1357.80
840.67	1370.09
840.84	1275.88
841.01	1339.37
841.18	1382.38
841.35	1341.42
841.52	1472.49
841.69	1372.14
841.86	1441.77
842.03	1349.61
842.20	1413.10
842.37	1392.62
842.54	1345.52
842.71	1413.10
842.88	1279.98
843.05	1441.77
843.22	1388.52
843.39	1406.95
843.56	1325.04
843.73	1316.84
843.90	1394.67
844.07	1312.75
844.24	1380.33
844.41	1380.33
844.58	1372.14
844.75	1310.70
844.92	1443.82
845.09	1380.33
845.26	1363.95
845.43	1341.42
845.60	1308.65
845.77	1374.19
845.94	1349.61
846.10	1318.89
846.27	1251.31
846.44	1347.56
846.61	1388.52
846.78	1355.76
846.95	1382.38
847.12	1370.09
847.29	1351.66
847.46	1382.38
847.63	1388.52
847.80	1341.42
847.97	1341.42
848.14	1421.29
848.31	1404.91
848.48	1359.85
848.65	1310.70
848.82	1425.39
848.98	1437.67
849.15	1447.91
849.32	1394.67
849.49	1359.85
849.66	1339.37
849.83	1404.91
850.00	1331.18
850.17	1337.32
850.34	1347.56
850.51	1279.98
850.68	1394.67
850.85	1488.87
851.01	1376.24
851.18	1449.96
851.35	1402.86
851.52	1386.47
851.69	1441.77
851.86	1286.12
852.03	1411.05
852.20	1380.33
852.37	1265.64
852.53	1292.27
852.70	1341.42
852.87	1431.53
853.04	1318.89
853.21	1394.67
853.38	1454.06
853.55	1386.47
853.72	1370.09
853.89	1349.61
854.05	1363.95
854.22	1345.52
854.39	1413.10
854.56	1363.95
854.73	1449.96
854.90	1417.19
855.07	1427.43
855.23	1320.94
855.40	1275.88
855.57	1437.67
855.74	1322.99
855.91	1488.87
856.08	1386.47
856.25	1251.31
856.41	1282.03
856.58	1378.28
856.75	1380.33
856.92	1339.37
857.09	1292.27
857.26	1374.19
857.42	1368.04
857.59	1480.68
857.76	1333.23
857.93	1449.96
858.10	1372.14
858.27	1304.56
858.43	1302.51
858.60	1294.32
858.77	1318.89
858.94	1370.09
859.11	1394.67
859.27	1322.99
859.44	1388.52
859.61	1449.96
859.78	1343.47
859.95	1384.43
860.12	1349.61
860.28	1435.63
860.45	1452.01
860.62	1310.70
860.79	1318.89
860.95	1298.41
861.12	1419.24
861.29	1308.65
861.46	1347.56
861.63	1361.90
861.79	1335.28
861.96	1308.65
862.13	1386.47
862.30	1429.48
862.47	1363.95
862.63	1368.04
862.80	1386.47
862.97	1433.58
863.14	1372.14
863.30	1314.80
863.47	1394.67
863.64	1415.15
863.81	1368.04
863.97	1327.08
864.14	1394.67
864.31	1341.42
864.48	1411.05
864.65	1286.12
864.81	1425.39
864.98	1347.56
865.15	1441.77
865.32	1372.14
865.48	1384.43
865.65	1431.53
865.82	1409.00
865.98	1423.34
866.15	1382.38
866.32	1376.24
866.49	1409.00
866.65	1402.86
866.82	1320.94
866.99	1372.14
867.16	1425.39
867.32	1341.42
867.49	1339.37
867.66	1349.61
867.83	1353.71
867.99	1292.27
868.16	1273.84
868.33	1368.04
868.49	1347.56
868.66	1392.62
868.83	1380.33
868.99	1368.04
869.16	1374.19
869.33	1368.04
869.50	1345.52
869.66	1458.15
869.83	1376.24
870.00	1298.41
870.16	1417.19
870.33	1312.75
870.50	1366.00
870.66	1431.53
870.83	1431.53
871.00	1312.75
871.17	1400.81
871.33	1406.95
871.50	1443.82
871.67	1390.57
871.83	1273.84
872.00	1361.90
872.17	1306.60
872.33	1347.56
872.50	1449.96
872.67	1347.56
872.83	1359.85
873.00	1406.95
873.17	1378.28
873.33	1378.28
873.50	1380.33
873.67	1337.32
873.83	1325.04
874.00	1273.84
874.16	1425.39
874.33	1435.63
874.50	1341.42
874.66	1433.58
874.83	1382.38
875.00	1458.15
875.16	1456.11
875.33	1372.14
875.50	1275.88
875.66	1288.17
875.83	1390.57
875.99	1417.19
876.16	1380.33
876.33	1378.28
876.49	1331.18
876.66	1368.04
876.83	1372.14
876.99	1298.41
877.16	1366.00
877.32	1370.09
877.49	1415.15
877.66	1380.33
877.82	1443.82
877.99	1366.00
878.15	1386.47
878.32	1355.76
878.49	1282.03
878.65	1286.12
878.82	1452.01
878.98	1327.08
879.15	1372.14
879.32	1394.67
879.48	1390.57
879.65	1345.52
879.81	1370.09
879.98	1386.47
880.15	1361.90
880.31	1349.61
880.48	1372.14
880.64	1398.76
880.81	1396.71
880.97	1413.10
881.14	1327.08
881.31	1394.67
881.47	1486.83
881.64	1339.37
881.80	1351.66
881.97	1372.14
882.13	1509.35
882.30	1312.75
882.47	1368.04
882.63	1320.94
882.80	1331.18
882.96	1318.89
883.13	1370.09
883.29	1335.28
883.46	1372.14
883.62	1462.25
883.79	1337.32
883.95	1441.77
884.12	1415.15
884.29	1343.47
884.45	1443.82
884.62	1374.19
884.78	1363.95
884.95	1318.89
885.11	1337.32
885.28	1419.24
885.44	1308.65
885.61	1349.61
885.77	1456.11
885.94	1398.76
886.10	1386.47
886.27	1304.56
886.43	1404.91
886.60	1366.00
886.76	1404.91
886.93	1339.37
887.09	1402.86
887.26	1357.80
887.42	1396.71
887.59	1421.29
887.75	1372.14
887.92	1476.59
888.08	1394.67
888.25	1509.35
888.41	1429.48
888.58	1337.32
888.74	1337.32
888.91	1335.28
>>>>>End Processed Spectral Data<<<<<
