SpectraSuite Data File
++++++++++++++++++++++++++++++++++++
Date: Tue May 03 11:24:19 CEST 2016
User: root
Dark Spectrum Present: No
Reference Spectrum Present: No
Number of Sampled Component Spectra: 1
Spectrometers: USB4C02835
Integration Time (usec): 100000 (USB4C02835)
Spectra Averaged: 1 (USB4C02835)
Boxcar Smoothing: 0 (USB4C02835)
Correct for Electrical Dark: No (USB4C02835)
Strobe/Lamp Enabled: No (USB4C02835)
Correct for Detector Non-linearity: No (USB4C02835)
Correct for Stray Light: No (USB4C02835)
Number of Pixels in Processed Spectrum: 3648
>>>>>Begin Processed Spectral Data<<<<<
177.47	1150.96
177.69	1150.96
177.91	1150.96
178.13	1218.54
178.36	1177.58
178.58	1302.51
178.80	1384.43
179.02	1308.65
179.24	1341.42
179.46	1421.29
179.68	1421.29
179.90	1320.94
180.13	1406.95
180.35	1298.41
180.57	1402.86
180.79	1427.43
181.01	1327.08
181.23	1345.52
181.45	1478.63
181.67	1400.81
181.90	1419.24
182.12	1372.14
182.34	1378.28
182.56	1380.33
182.78	1292.27
183.00	1380.33
183.22	1425.39
183.44	1261.55
183.66	1468.39
183.89	1363.95
184.11	1413.10
184.33	1282.03
184.55	1413.10
184.77	1396.71
184.99	1398.76
185.21	1335.28
185.43	1468.39
185.65	1353.71
185.87	1411.05
186.10	1460.20
186.32	1425.39
186.54	1441.77
186.76	1337.32
186.98	1382.38
187.20	1372.14
187.42	1368.04
187.64	1386.47
187.86	1409.00
188.08	1456.11
188.30	1351.66
188.52	1320.94
188.75	1392.62
188.97	1378.28
189.19	1363.95
189.41	1327.08
189.63	1380.33
189.85	1343.47
190.07	1267.69
190.29	1265.64
190.51	1386.47
190.73	1310.70
190.95	1406.95
191.17	1392.62
191.39	1325.04
191.61	1351.66
191.84	1359.85
192.06	1347.56
192.28	1271.79
192.50	1470.44
192.72	1443.82
192.94	1433.58
193.16	1378.28
193.38	1333.23
193.60	1409.00
193.82	1296.36
194.04	1390.57
194.26	1325.04
194.48	1447.91
194.70	1388.52
194.92	1314.80
195.14	1306.60
195.36	1351.66
195.58	1411.05
195.80	1409.00
196.02	1320.94
196.24	1265.64
196.46	1341.42
196.69	1372.14
196.91	1484.78
197.13	1411.05
197.35	1443.82
197.57	1423.34
197.79	1433.58
198.01	1339.37
198.23	1435.63
198.45	1384.43
198.67	1339.37
198.89	1429.48
199.11	1398.76
199.33	1359.85
199.55	1312.75
199.77	1398.76
199.99	1339.37
200.21	1312.75
200.43	1271.79
200.65	1322.99
200.87	1312.75
201.09	1372.14
201.31	1372.14
201.53	1423.34
201.75	1429.48
201.97	1370.09
202.19	1351.66
202.41	1413.10
202.63	1486.83
202.85	1433.58
203.07	1329.13
203.29	1351.66
203.51	1431.53
203.73	1417.19
203.95	1458.15
204.17	1433.58
204.39	1376.24
204.61	1341.42
204.83	1314.80
205.05	1441.77
205.27	1411.05
205.49	1413.10
205.71	1394.67
205.93	1370.09
206.15	1366.00
206.37	1394.67
206.59	1386.47
206.81	1343.47
207.03	1294.32
207.25	1349.61
207.47	1333.23
207.69	1366.00
207.91	1429.48
208.13	1366.00
208.34	1339.37
208.56	1370.09
208.78	1437.67
209.00	1404.91
209.22	1286.12
209.44	1409.00
209.66	1370.09
209.88	1359.85
210.10	1347.56
210.32	1411.05
210.54	1376.24
210.76	1329.13
210.98	1306.60
211.20	1282.03
211.42	1394.67
211.64	1396.71
211.86	1351.66
212.08	1345.52
212.30	1413.10
212.52	1329.13
212.74	1363.95
212.96	1368.04
213.17	1435.63
213.39	1343.47
213.61	1415.15
213.83	1374.19
214.05	1304.56
214.27	1413.10
214.49	1310.70
214.71	1351.66
214.93	1460.20
215.15	1316.84
215.37	1406.95
215.59	1314.80
215.81	1429.48
216.03	1445.87
216.24	1366.00
216.46	1339.37
216.68	1335.28
216.90	1290.22
217.12	1423.34
217.34	1366.00
217.56	1402.86
217.78	1325.04
218.00	1386.47
218.22	1300.46
218.44	1458.15
218.66	1349.61
218.87	1482.73
219.09	1327.08
219.31	1347.56
219.53	1378.28
219.75	1361.90
219.97	1325.04
220.19	1429.48
220.41	1312.75
220.63	1413.10
220.85	1421.29
221.06	1445.87
221.28	1372.14
221.50	1351.66
221.72	1404.91
221.94	1388.52
222.16	1454.06
222.38	1402.86
222.60	1361.90
222.82	1376.24
223.03	1333.23
223.25	1335.28
223.47	1443.82
223.69	1404.91
223.91	1394.67
224.13	1382.38
224.35	1349.61
224.57	1388.52
224.78	1402.86
225.00	1376.24
225.22	1398.76
225.44	1382.38
225.66	1298.41
225.88	1312.75
226.10	1415.15
226.32	1378.28
226.53	1454.06
226.75	1290.22
226.97	1376.24
227.19	1392.62
227.41	1370.09
227.63	1337.32
227.85	1251.31
228.06	1359.85
228.28	1322.99
228.50	1376.24
228.72	1361.90
228.94	1329.13
229.16	1406.95
229.37	1349.61
229.59	1322.99
229.81	1476.59
230.03	1339.37
230.25	1312.75
230.47	1359.85
230.69	1314.80
230.90	1449.96
231.12	1282.03
231.34	1433.58
231.56	1406.95
231.78	1282.03
232.00	1296.36
232.21	1413.10
232.43	1341.42
232.65	1325.04
232.87	1366.00
233.09	1333.23
233.30	1331.18
233.52	1329.13
233.74	1370.09
233.96	1296.36
234.18	1378.28
234.40	1378.28
234.61	1411.05
234.83	1335.28
235.05	1306.60
235.27	1466.35
235.49	1419.24
235.70	1411.05
235.92	1394.67
236.14	1374.19
236.36	1472.49
236.58	1316.84
236.79	1396.71
237.01	1404.91
237.23	1337.32
237.45	1460.20
237.67	1335.28
237.88	1406.95
238.10	1374.19
238.32	1345.52
238.54	1288.17
238.76	1374.19
238.97	1322.99
239.19	1310.70
239.41	1380.33
239.63	1425.39
239.85	1329.13
240.06	1327.08
240.28	1302.51
240.50	1368.04
240.72	1318.89
240.93	1421.29
241.15	1429.48
241.37	1345.52
241.59	1370.09
241.81	1388.52
242.02	1404.91
242.24	1427.43
242.46	1425.39
242.68	1357.80
242.89	1429.48
243.11	1376.24
243.33	1345.52
243.55	1398.76
243.76	1359.85
243.98	1306.60
244.20	1402.86
244.42	1368.04
244.64	1421.29
244.85	1314.80
245.07	1343.47
245.29	1392.62
245.51	1361.90
245.72	1415.15
245.94	1458.15
246.16	1433.58
246.38	1427.43
246.59	1333.23
246.81	1351.66
247.03	1404.91
247.24	1300.46
247.46	1253.36
247.68	1351.66
247.90	1382.38
248.11	1378.28
248.33	1390.57
248.55	1337.32
248.77	1341.42
248.98	1359.85
249.20	1429.48
249.42	1339.37
249.64	1361.90
249.85	1329.13
250.07	1378.28
250.29	1431.53
250.50	1437.67
250.72	1292.27
250.94	1325.04
251.16	1417.19
251.37	1404.91
251.59	1384.43
251.81	1298.41
252.02	1429.48
252.24	1384.43
252.46	1372.14
252.68	1347.56
252.89	1400.81
253.11	1347.56
253.33	1474.54
253.54	1421.29
253.76	1282.03
253.98	1304.56
254.20	1345.52
254.41	1314.80
254.63	1380.33
254.85	1359.85
255.06	1466.35
255.28	1353.71
255.50	1372.14
255.71	1370.09
255.93	1271.79
256.15	1290.22
256.36	1433.58
256.58	1331.18
256.80	1386.47
257.02	1366.00
257.23	1304.56
257.45	1282.03
257.67	1341.42
257.88	1366.00
258.10	1355.76
258.32	1413.10
258.53	1361.90
258.75	1474.54
258.97	1372.14
259.18	1370.09
259.40	1345.52
259.62	1468.39
259.83	1366.00
260.05	1415.15
260.27	1517.54
260.48	1355.76
260.70	1308.65
260.92	1366.00
261.13	1284.08
261.35	1402.86
261.57	1339.37
261.78	1345.52
262.00	1353.71
262.22	1427.43
262.43	1404.91
262.65	1335.28
262.86	1361.90
263.08	1445.87
263.30	1447.91
263.51	1304.56
263.73	1376.24
263.95	1425.39
264.16	1333.23
264.38	1331.18
264.60	1452.01
264.81	1349.61
265.03	1363.95
265.25	1482.73
265.46	1349.61
265.68	1368.04
265.89	1386.47
266.11	1279.98
266.33	1335.28
266.54	1423.34
266.76	1402.86
266.98	1435.63
267.19	1429.48
267.41	1404.91
267.62	1357.80
267.84	1384.43
268.06	1380.33
268.27	1372.14
268.49	1351.66
268.70	1470.44
268.92	1359.85
269.14	1409.00
269.35	1228.78
269.57	1421.29
269.79	1386.47
270.00	1355.76
270.22	1384.43
270.43	1337.32
270.65	1337.32
270.87	1404.91
271.08	1335.28
271.30	1423.34
271.51	1284.08
271.73	1337.32
271.95	1396.71
272.16	1333.23
272.38	1382.38
272.59	1302.51
272.81	1363.95
273.02	1357.80
273.24	1423.34
273.46	1376.24
273.67	1314.80
273.89	1376.24
274.10	1392.62
274.32	1388.52
274.54	1402.86
274.75	1368.04
274.97	1378.28
275.18	1380.33
275.40	1368.04
275.61	1370.09
275.83	1390.57
276.05	1290.22
276.26	1398.76
276.48	1409.00
276.69	1368.04
276.91	1310.70
277.12	1429.48
277.34	1447.91
277.55	1421.29
277.77	1374.19
277.99	1339.37
278.20	1388.52
278.42	1333.23
278.63	1314.80
278.85	1286.12
279.06	1349.61
279.28	1335.28
279.49	1394.67
279.71	1378.28
279.93	1349.61
280.14	1339.37
280.36	1331.18
280.57	1460.20
280.79	1402.86
281.00	1318.89
281.22	1339.37
281.43	1433.58
281.65	1331.18
281.86	1306.60
282.08	1406.95
282.29	1429.48
282.51	1290.22
282.73	1331.18
282.94	1290.22
283.16	1329.13
283.37	1419.24
283.59	1396.71
283.80	1322.99
284.02	1372.14
284.23	1404.91
284.45	1304.56
284.66	1308.65
284.88	1314.80
285.09	1429.48
285.31	1398.76
285.52	1327.08
285.74	1417.19
285.95	1392.62
286.17	1374.19
286.38	1378.28
286.60	1259.50
286.81	1331.18
287.03	1304.56
287.24	1310.70
287.46	1339.37
287.67	1302.51
287.89	1404.91
288.10	1337.32
288.32	1400.81
288.53	1490.92
288.75	1294.32
288.96	1474.54
289.18	1368.04
289.39	1314.80
289.61	1452.01
289.82	1460.20
290.04	1345.52
290.25	1327.08
290.47	1349.61
290.68	1376.24
290.90	1480.68
291.11	1312.75
291.33	1435.63
291.54	1300.46
291.76	1261.55
291.97	1368.04
292.18	1413.10
292.40	1298.41
292.61	1282.03
292.83	1454.06
293.04	1437.67
293.26	1296.36
293.47	1363.95
293.69	1349.61
293.90	1361.90
294.12	1370.09
294.33	1361.90
294.55	1394.67
294.76	1411.05
294.97	1376.24
295.19	1501.16
295.40	1421.29
295.62	1306.60
295.83	1370.09
296.05	1294.32
296.26	1396.71
296.48	1380.33
296.69	1376.24
296.90	1363.95
297.12	1355.76
297.33	1357.80
297.55	1441.77
297.76	1417.19
297.98	1386.47
298.19	1339.37
298.41	1277.93
298.62	1361.90
298.83	1427.43
299.05	1370.09
299.26	1327.08
299.48	1320.94
299.69	1327.08
299.90	1404.91
300.12	1296.36
300.33	1368.04
300.55	1435.63
300.76	1394.67
300.98	1288.17
301.19	1392.62
301.40	1286.12
301.62	1322.99
301.83	1322.99
302.05	1341.42
302.26	1421.29
302.47	1308.65
302.69	1343.47
302.90	1351.66
303.12	1247.21
303.33	1370.09
303.54	1425.39
303.76	1406.95
303.97	1337.32
304.19	1427.43
304.40	1308.65
304.61	1335.28
304.83	1419.24
305.04	1370.09
305.26	1400.81
305.47	1366.00
305.68	1368.04
305.90	1322.99
306.11	1406.95
306.33	1333.23
306.54	1349.61
306.75	1320.94
306.97	1322.99
307.18	1275.88
307.39	1308.65
307.61	1345.52
307.82	1349.61
308.04	1339.37
308.25	1298.41
308.46	1347.56
308.68	1343.47
308.89	1384.43
309.10	1456.11
309.32	1406.95
309.53	1363.95
309.74	1366.00
309.96	1353.71
310.17	1398.76
310.39	1347.56
310.60	1392.62
310.81	1363.95
311.03	1343.47
311.24	1421.29
311.45	1470.44
311.67	1415.15
311.88	1402.86
312.09	1392.62
312.31	1353.71
312.52	1386.47
312.73	1345.52
312.95	1282.03
313.16	1327.08
313.37	1372.14
313.59	1337.32
313.80	1370.09
314.01	1429.48
314.23	1341.42
314.44	1421.29
314.65	1243.12
314.87	1351.66
315.08	1355.76
315.29	1347.56
315.51	1325.04
315.72	1331.18
315.93	1409.00
316.15	1361.90
316.36	1329.13
316.57	1333.23
316.79	1396.71
317.00	1282.03
317.21	1372.14
317.43	1421.29
317.64	1359.85
317.85	1339.37
318.07	1431.53
318.28	1546.22
318.49	1533.93
318.70	1540.07
318.92	1542.12
319.13	1540.07
319.34	1578.98
319.56	1452.01
319.77	1544.17
319.98	1449.96
320.20	1480.68
320.41	1490.92
320.62	1388.52
320.83	1441.77
321.05	1449.96
321.26	1443.82
321.47	1411.05
321.69	1372.14
321.90	1333.23
322.11	1327.08
322.32	1413.10
322.54	1316.84
322.75	1288.17
322.96	1417.19
323.18	1320.94
323.39	1345.52
323.60	1351.66
323.81	1445.87
324.03	1361.90
324.24	1314.80
324.45	1380.33
324.66	1429.48
324.88	1409.00
325.09	1384.43
325.30	1310.70
325.52	1433.58
325.73	1355.76
325.94	1404.91
326.15	1333.23
326.37	1370.09
326.58	1380.33
326.79	1396.71
327.00	1339.37
327.22	1409.00
327.43	1322.99
327.64	1343.47
327.85	1349.61
328.07	1294.32
328.28	1406.95
328.49	1429.48
328.70	1279.98
328.92	1411.05
329.13	1378.28
329.34	1337.32
329.55	1447.91
329.76	1392.62
329.98	1241.07
330.19	1419.24
330.40	1413.10
330.61	1380.33
330.83	1388.52
331.04	1322.99
331.25	1404.91
331.46	1366.00
331.68	1265.64
331.89	1398.76
332.10	1353.71
332.31	1345.52
332.52	1355.76
332.74	1341.42
332.95	1372.14
333.16	1363.95
333.37	1339.37
333.58	1421.29
333.80	1370.09
334.01	1327.08
334.22	1378.28
334.43	1275.88
334.64	1376.24
334.86	1335.28
335.07	1277.93
335.28	1462.25
335.49	1347.56
335.70	1380.33
335.92	1402.86
336.13	1413.10
336.34	1294.32
336.55	1431.53
336.76	1445.87
336.98	1316.84
337.19	1357.80
337.40	1476.59
337.61	1478.63
337.82	1355.76
338.04	1374.19
338.25	1357.80
338.46	1368.04
338.67	1415.15
338.88	1368.04
339.09	1322.99
339.31	1376.24
339.52	1437.67
339.73	1257.45
339.94	1374.19
340.15	1366.00
340.36	1353.71
340.58	1441.77
340.79	1435.63
341.00	1339.37
341.21	1318.89
341.42	1392.62
341.63	1386.47
341.85	1372.14
342.06	1368.04
342.27	1376.24
342.48	1386.47
342.69	1275.88
342.90	1394.67
343.12	1339.37
343.33	1347.56
343.54	1472.49
343.75	1411.05
343.96	1359.85
344.17	1290.22
344.38	1366.00
344.60	1300.46
344.81	1345.52
345.02	1417.19
345.23	1429.48
345.44	1388.52
345.65	1427.43
345.86	1343.47
346.07	1351.66
346.29	1421.29
346.50	1349.61
346.71	1351.66
346.92	1406.95
347.13	1396.71
347.34	1372.14
347.55	1378.28
347.76	1470.44
347.98	1322.99
348.19	1345.52
348.40	1443.82
348.61	1339.37
348.82	1390.57
349.03	1345.52
349.24	1343.47
349.45	1470.44
349.66	1269.74
349.88	1388.52
350.09	1322.99
350.30	1314.80
350.51	1449.96
350.72	1372.14
350.93	1452.01
351.14	1347.56
351.35	1368.04
351.56	1406.95
351.77	1376.24
351.99	1478.63
352.20	1372.14
352.41	1349.61
352.62	1331.18
352.83	1347.56
353.04	1335.28
353.25	1345.52
353.46	1429.48
353.67	1452.01
353.88	1343.47
354.09	1370.09
354.30	1390.57
354.52	1425.39
354.73	1456.11
354.94	1288.17
355.15	1402.86
355.36	1402.86
355.57	1290.22
355.78	1386.47
355.99	1384.43
356.20	1339.37
356.41	1353.71
356.62	1366.00
356.83	1394.67
357.04	1413.10
357.25	1368.04
357.46	1296.36
357.68	1279.98
357.89	1396.71
358.10	1327.08
358.31	1372.14
358.52	1388.52
358.73	1368.04
358.94	1380.33
359.15	1345.52
359.36	1394.67
359.57	1339.37
359.78	1363.95
359.99	1363.95
360.20	1363.95
360.41	1325.04
360.62	1380.33
360.83	1353.71
361.04	1386.47
361.25	1368.04
361.46	1411.05
361.67	1427.43
361.88	1390.57
362.09	1318.89
362.30	1378.28
362.51	1417.19
362.72	1378.28
362.93	1378.28
363.14	1421.29
363.35	1310.70
363.56	1370.09
363.78	1382.38
363.99	1370.09
364.20	1308.65
364.41	1400.81
364.62	1443.82
364.83	1267.69
365.04	1325.04
365.25	1325.04
365.46	1419.24
365.67	1378.28
365.88	1351.66
366.09	1294.32
366.30	1337.32
366.51	1421.29
366.72	1400.81
366.93	1390.57
367.14	1361.90
367.35	1398.76
367.56	1322.99
367.77	1445.87
367.98	1333.23
368.18	1282.03
368.39	1355.76
368.60	1312.75
368.81	1359.85
369.02	1310.70
369.23	1380.33
369.44	1390.57
369.65	1341.42
369.86	1374.19
370.07	1419.24
370.28	1282.03
370.49	1372.14
370.70	1398.76
370.91	1413.10
371.12	1304.56
371.33	1411.05
371.54	1351.66
371.75	1423.34
371.96	1359.85
372.17	1449.96
372.38	1261.55
372.59	1435.63
372.80	1429.48
373.01	1327.08
373.22	1417.19
373.43	1329.13
373.64	1290.22
373.85	1370.09
374.06	1488.87
374.26	1394.67
374.47	1396.71
374.68	1374.19
374.89	1361.90
375.10	1425.39
375.31	1394.67
375.52	1388.52
375.73	1429.48
375.94	1322.99
376.15	1406.95
376.36	1296.36
376.57	1316.84
376.78	1417.19
376.99	1435.63
377.20	1366.00
377.40	1327.08
377.61	1478.63
377.82	1384.43
378.03	1406.95
378.24	1419.24
378.45	1372.14
378.66	1421.29
378.87	1359.85
379.08	1294.32
379.29	1406.95
379.50	1476.59
379.71	1310.70
379.91	1335.28
380.12	1322.99
380.33	1282.03
380.54	1382.38
380.75	1402.86
380.96	1337.32
381.17	1464.30
381.38	1415.15
381.59	1425.39
381.80	1366.00
382.00	1574.89
382.21	1429.48
382.42	1474.54
382.63	1505.26
382.84	1452.01
383.05	1454.06
383.26	1423.34
383.47	1368.04
383.68	1357.80
383.88	1363.95
384.09	1351.66
384.30	1433.58
384.51	1449.96
384.72	1329.13
384.93	1325.04
385.14	1380.33
385.35	1353.71
385.55	1341.42
385.76	1406.95
385.97	1394.67
386.18	1363.95
386.39	1302.51
386.60	1419.24
386.81	1454.06
387.02	1335.28
387.22	1372.14
387.43	1478.63
387.64	1601.51
387.85	2256.86
388.06	5590.95
388.27	9660.27
388.48	11491.15
388.68	13008.70
388.89	13367.09
389.10	10815.32
389.31	9131.89
389.52	8347.52
389.73	7413.65
389.93	6975.38
390.14	6700.95
390.35	6219.68
390.56	5623.72
390.77	4589.50
390.98	3674.06
391.18	2834.39
391.39	2136.03
391.60	1724.39
391.81	1529.83
392.02	1380.33
392.23	1458.15
392.43	1470.44
392.64	1409.00
392.85	1435.63
393.06	1474.54
393.27	1380.33
393.47	1363.95
393.68	1388.52
393.89	1374.19
394.10	1394.67
394.31	1316.84
394.52	1341.42
394.72	1339.37
394.93	1449.96
395.14	1331.18
395.35	1439.72
395.56	1386.47
395.76	1449.96
395.97	1556.46
396.18	1562.60
396.39	1572.84
396.60	1603.56
396.80	1544.17
397.01	1484.78
397.22	1503.21
397.43	1495.02
397.64	1406.95
397.84	1486.83
398.05	1562.60
398.26	1462.25
398.47	1421.29
398.67	1462.25
398.88	1322.99
399.09	1423.34
399.30	1363.95
399.51	1388.52
399.71	1341.42
399.92	1380.33
400.13	1435.63
400.34	1363.95
400.54	1341.42
400.75	1423.34
400.96	1439.72
401.17	1370.09
401.37	1361.90
401.58	1337.32
401.79	1544.17
402.00	1740.77
402.21	1779.68
402.41	1892.32
402.62	1830.88
402.83	1677.29
403.04	1636.33
403.24	1800.16
403.45	1423.34
403.66	1624.04
403.87	1613.80
404.07	1609.70
404.28	1585.13
404.49	1605.61
404.70	1505.26
404.90	1388.52
405.11	1413.10
405.32	1523.69
405.52	1372.14
405.73	1351.66
405.94	1429.48
406.15	1476.59
406.35	1423.34
406.56	1355.76
406.77	1355.76
406.98	1390.57
407.18	1298.41
407.39	1351.66
407.60	1355.76
407.80	1353.71
408.01	1314.80
408.22	1388.52
408.43	1304.56
408.63	1345.52
408.84	1376.24
409.05	1353.71
409.25	1343.47
409.46	1366.00
409.67	1374.19
409.88	1370.09
410.08	1282.03
410.29	1316.84
410.50	1380.33
410.70	1415.15
410.91	1359.85
411.12	1396.71
411.32	1363.95
411.53	1472.49
411.74	1511.40
411.95	1509.35
412.15	1484.78
412.36	1402.86
412.57	1454.06
412.77	1486.83
412.98	1421.29
413.19	1380.33
413.39	1376.24
413.60	1429.48
413.81	1406.95
414.01	1310.70
414.22	1427.43
414.43	1404.91
414.63	1413.10
414.84	1449.96
415.05	1314.80
415.25	1316.84
415.46	1376.24
415.67	1388.52
415.87	1376.24
416.08	1400.81
416.29	1370.09
416.49	1361.90
416.70	1347.56
416.91	1316.84
417.11	1406.95
417.32	1374.19
417.53	1417.19
417.73	1458.15
417.94	1349.61
418.15	1337.32
418.35	1322.99
418.56	1380.33
418.77	1456.11
418.97	1372.14
419.18	1413.10
419.38	1279.98
419.59	1384.43
419.80	1380.33
420.00	1300.46
420.21	1376.24
420.42	1427.43
420.62	1347.56
420.83	1312.75
421.04	1318.89
421.24	1341.42
421.45	1345.52
421.65	1308.65
421.86	1370.09
422.07	1462.25
422.27	1409.00
422.48	1390.57
422.69	1265.64
422.89	1353.71
423.10	1298.41
423.30	1390.57
423.51	1400.81
423.72	1382.38
423.92	1329.13
424.13	1394.67
424.33	1372.14
424.54	1341.42
424.75	1409.00
424.95	1478.63
425.16	1480.68
425.36	1392.62
425.57	1382.38
425.78	1423.34
425.98	1312.75
426.19	1384.43
426.39	1236.97
426.60	1398.76
426.81	1404.91
427.01	1398.76
427.22	1339.37
427.42	1353.71
427.63	1388.52
427.83	1376.24
428.04	1462.25
428.25	1359.85
428.45	1396.71
428.66	1417.19
428.86	1406.95
429.07	1355.76
429.28	1425.39
429.48	1320.94
429.69	1398.76
429.89	1398.76
430.10	1343.47
430.30	1312.75
430.51	1392.62
430.71	1396.71
430.92	1333.23
431.13	1351.66
431.33	1359.85
431.54	1347.56
431.74	1529.83
431.95	1411.05
432.15	1290.22
432.36	1345.52
432.56	1372.14
432.77	1458.15
432.98	1400.81
433.18	1325.04
433.39	1392.62
433.59	1386.47
433.80	1343.47
434.00	1511.40
434.21	1335.28
434.41	1316.84
434.62	1431.53
434.82	1298.41
435.03	1265.64
435.23	1374.19
435.44	1386.47
435.64	1343.47
435.85	1361.90
436.06	1380.33
436.26	1382.38
436.47	1355.76
436.67	1421.29
436.88	1357.80
437.08	1349.61
437.29	1415.15
437.49	1327.08
437.70	1458.15
437.90	1370.09
438.11	1554.41
438.31	1443.82
438.52	1552.36
438.72	1626.09
438.93	1515.50
439.13	1441.77
439.34	1486.83
439.54	1445.87
439.75	1449.96
439.95	1427.43
440.16	1374.19
440.36	1435.63
440.57	1474.54
440.77	1382.38
440.98	1343.47
441.18	1437.67
441.39	1388.52
441.59	1368.04
441.80	1439.72
442.00	1394.67
442.21	1411.05
442.41	1363.95
442.62	1421.29
442.82	1363.95
443.02	1382.38
443.23	1449.96
443.43	1419.24
443.64	1478.63
443.84	1374.19
444.05	1368.04
444.25	1257.45
444.46	1349.61
444.66	1337.32
444.87	1464.30
445.07	1359.85
445.28	1277.93
445.48	1482.73
445.69	1374.19
445.89	1484.78
446.09	1437.67
446.30	2297.82
446.50	3735.50
446.71	4550.59
446.91	5296.05
447.12	5564.33
447.32	4966.32
447.53	4118.47
447.73	3874.76
447.93	3448.78
448.14	3182.54
448.34	3137.49
448.55	2799.57
448.75	2686.94
448.96	2680.79
449.16	2318.30
449.36	2250.72
449.57	1959.91
449.77	1703.91
449.98	1531.88
450.18	1603.56
450.39	1466.35
450.59	1406.95
450.79	1423.34
451.00	1347.56
451.20	1478.63
451.41	1363.95
451.61	1394.67
451.81	1435.63
452.02	1441.77
452.22	1388.52
452.43	1339.37
452.63	1359.85
452.84	1374.19
453.04	1298.41
453.24	1294.32
453.45	1337.32
453.65	1386.47
453.86	1409.00
454.06	1347.56
454.26	1413.10
454.47	1390.57
454.67	1419.24
454.87	1394.67
455.08	1322.99
455.28	1464.30
455.49	1380.33
455.69	1347.56
455.89	1456.11
456.10	1466.35
456.30	1363.95
456.51	1402.86
456.71	1363.95
456.91	1374.19
457.12	1353.71
457.32	1386.47
457.52	1376.24
457.73	1404.91
457.93	1363.95
458.14	1394.67
458.34	1253.36
458.54	1269.74
458.75	1343.47
458.95	1417.19
459.15	1306.60
459.36	1386.47
459.56	1415.15
459.76	1486.83
459.97	1372.14
460.17	1411.05
460.37	1411.05
460.58	1333.23
460.78	1376.24
460.99	1400.81
461.19	1327.08
461.39	1361.90
461.60	1376.24
461.80	1312.75
462.00	1359.85
462.21	1361.90
462.41	1325.04
462.61	1345.52
462.82	1357.80
463.02	1392.62
463.22	1335.28
463.43	1449.96
463.63	1363.95
463.83	1488.87
464.04	1452.01
464.24	1374.19
464.44	1308.65
464.64	1335.28
464.85	1396.71
465.05	1394.67
465.25	1417.19
465.46	1380.33
465.66	1372.14
465.86	1378.28
466.07	1396.71
466.27	1404.91
466.47	1308.65
466.68	1320.94
466.88	1464.30
467.08	1366.00
467.29	1378.28
467.49	1437.67
467.69	1411.05
467.89	1464.30
468.10	1357.80
468.30	1353.71
468.50	1417.19
468.71	1443.82
468.91	1343.47
469.11	1402.86
469.31	1398.76
469.52	1370.09
469.72	1452.01
469.92	1462.25
470.13	1402.86
470.33	1431.53
470.53	1642.47
470.73	2070.50
470.94	2308.06
471.14	2314.20
471.34	2570.20
471.54	2252.77
471.75	1986.53
471.95	1906.66
472.15	1908.71
472.36	1839.08
472.56	1773.54
472.76	1736.68
472.96	1761.25
473.17	1703.91
473.37	1578.98
473.57	1607.66
473.77	1540.07
473.98	1415.15
474.18	1312.75
474.38	1452.01
474.58	1378.28
474.79	1314.80
474.99	1374.19
475.19	1331.18
475.39	1349.61
475.60	1396.71
475.80	1452.01
476.00	1406.95
476.20	1404.91
476.41	1386.47
476.61	1423.34
476.81	1368.04
477.01	1282.03
477.21	1452.01
477.42	1382.38
477.62	1314.80
477.82	1392.62
478.02	1333.23
478.23	1390.57
478.43	1343.47
478.63	1355.76
478.83	1411.05
479.03	1368.04
479.24	1392.62
479.44	1486.83
479.64	1318.89
479.84	1314.80
480.04	1318.89
480.25	1345.52
480.45	1452.01
480.65	1366.00
480.85	1345.52
481.06	1417.19
481.26	1347.56
481.46	1343.47
481.66	1386.47
481.86	1296.36
482.06	1460.20
482.27	1382.38
482.47	1335.28
482.67	1404.91
482.87	1300.46
483.07	1427.43
483.28	1359.85
483.48	1273.84
483.68	1298.41
483.88	1357.80
484.08	1335.28
484.29	1382.38
484.49	1370.09
484.69	1388.52
484.89	1433.58
485.09	1370.09
485.29	1374.19
485.50	1345.52
485.70	1357.80
485.90	1460.20
486.10	1345.52
486.30	1437.67
486.50	1363.95
486.71	1366.00
486.91	1433.58
487.11	1429.48
487.31	1263.60
487.51	1302.51
487.71	1333.23
487.91	1312.75
488.12	1363.95
488.32	1269.74
488.52	1355.76
488.72	1347.56
488.92	1345.52
489.12	1441.77
489.32	1355.76
489.53	1419.24
489.73	1335.28
489.93	1472.49
490.13	1427.43
490.33	1300.46
490.53	1441.77
490.73	1443.82
490.94	1376.24
491.14	1413.10
491.34	1621.99
491.54	2164.70
491.74	2602.97
491.94	2854.87
492.14	3131.34
492.34	2971.60
492.54	2527.19
492.75	2246.62
492.95	2103.26
493.15	2041.82
493.35	1994.72
493.55	2031.58
493.75	1892.32
493.95	1882.08
494.15	1871.84
494.35	1722.34
494.56	1630.18
494.76	1499.11
494.96	1562.60
495.16	1468.39
495.36	1423.34
495.56	1497.07
495.76	1372.14
495.96	1331.18
496.16	1337.32
496.36	1402.86
496.56	1359.85
496.77	1370.09
496.97	1359.85
497.17	1495.02
497.37	1318.89
497.57	1349.61
497.77	1402.86
497.97	1370.09
498.17	1363.95
498.37	1349.61
498.57	1368.04
498.77	1341.42
498.97	1419.24
499.17	1456.11
499.38	1341.42
499.58	1411.05
499.78	1458.15
499.98	1425.39
500.18	1400.81
500.38	1433.58
500.58	1632.23
500.78	2947.03
500.98	5447.60
501.18	6959.00
501.38	8165.25
501.58	8425.34
501.78	7554.96
501.98	5799.85
502.18	5083.06
502.38	4595.64
502.58	4085.70
502.78	3835.85
502.98	3645.38
503.18	3450.83
503.38	3307.47
503.59	3051.47
503.79	2842.58
503.99	2600.92
504.19	2379.74
504.39	2158.56
504.59	2070.50
504.79	1904.61
504.99	1841.12
505.19	1605.61
505.39	1519.59
505.59	1648.61
505.79	1566.70
505.99	1464.30
506.19	1415.15
506.39	1570.79
506.59	1490.92
506.79	1470.44
506.99	1495.02
507.19	1468.39
507.39	1413.10
507.59	1402.86
507.79	1355.76
507.99	1355.76
508.19	1296.36
508.39	1443.82
508.59	1460.20
508.79	1433.58
508.99	1435.63
509.19	1366.00
509.39	1372.14
509.59	1322.99
509.79	1277.93
509.99	1378.28
510.19	1398.76
510.39	1443.82
510.59	1394.67
510.79	1366.00
510.99	1380.33
511.19	1433.58
511.39	1460.20
511.59	1419.24
511.79	1421.29
511.99	1353.71
512.19	1404.91
512.38	1359.85
512.58	1359.85
512.78	1335.28
512.98	1474.54
513.18	1447.91
513.38	1339.37
513.58	1406.95
513.78	1394.67
513.98	1327.08
514.18	1374.19
514.38	1394.67
514.58	1402.86
514.78	1292.27
514.98	1396.71
515.18	1288.17
515.38	1327.08
515.58	1386.47
515.78	1298.41
515.98	1306.60
516.18	1402.86
516.38	1394.67
516.57	1376.24
516.77	1372.14
516.97	1353.71
517.17	1329.13
517.37	1273.84
517.57	1388.52
517.77	1376.24
517.97	1394.67
518.17	1337.32
518.37	1353.71
518.57	1327.08
518.77	1404.91
518.97	1331.18
519.16	1452.01
519.36	1413.10
519.56	1302.51
519.76	1341.42
519.96	1454.06
520.16	1435.63
520.36	1312.75
520.56	1464.30
520.76	1357.80
520.96	1368.04
521.16	1421.29
521.35	1394.67
521.55	1492.97
521.75	1386.47
521.95	1392.62
522.15	1406.95
522.35	1404.91
522.55	1339.37
522.75	1431.53
522.95	1316.84
523.14	1370.09
523.34	1417.19
523.54	1308.65
523.74	1484.78
523.94	1378.28
524.14	1361.90
524.34	1435.63
524.54	1345.52
524.73	1345.52
524.93	1363.95
525.13	1322.99
525.33	1310.70
525.53	1390.57
525.73	1413.10
525.93	1413.10
526.13	1400.81
526.32	1314.80
526.52	1411.05
526.72	1413.10
526.92	1359.85
527.12	1314.80
527.32	1409.00
527.52	1411.05
527.71	1320.94
527.91	1314.80
528.11	1331.18
528.31	1425.39
528.51	1337.32
528.71	1355.76
528.90	1392.62
529.10	1427.43
529.30	1363.95
529.50	1316.84
529.70	1423.34
529.90	1337.32
530.09	1316.84
530.29	1331.18
530.49	1294.32
530.69	1505.26
530.89	1384.43
531.09	1372.14
531.28	1343.47
531.48	1355.76
531.68	1335.28
531.88	1421.29
532.08	1400.81
532.28	1380.33
532.47	1372.14
532.67	1359.85
532.87	1400.81
533.07	1413.10
533.27	1374.19
533.46	1454.06
533.66	1376.24
533.86	1378.28
534.06	1437.67
534.26	1443.82
534.45	1409.00
534.65	1492.97
534.85	1374.19
535.05	1402.86
535.25	1374.19
535.44	1286.12
535.64	1409.00
535.84	1380.33
536.04	1292.27
536.24	1339.37
536.43	1380.33
536.63	1339.37
536.83	1351.66
537.03	1411.05
537.22	1300.46
537.42	1312.75
537.62	1378.28
537.82	1361.90
538.02	1361.90
538.21	1417.19
538.41	1480.68
538.61	1380.33
538.81	1388.52
539.00	1499.11
539.20	1300.46
539.40	1368.04
539.60	1406.95
539.79	1366.00
539.99	1304.56
540.19	1363.95
540.39	1439.72
540.58	1347.56
540.78	1435.63
540.98	1396.71
541.18	1409.00
541.37	1427.43
541.57	1314.80
541.77	1374.19
541.97	1351.66
542.16	1372.14
542.36	1411.05
542.56	1331.18
542.76	1370.09
542.95	1282.03
543.15	1366.00
543.35	1419.24
543.54	1277.93
543.74	1396.71
543.94	1361.90
544.14	1331.18
544.33	1411.05
544.53	1376.24
544.73	1327.08
544.93	1370.09
545.12	1390.57
545.32	1394.67
545.52	1392.62
545.71	1406.95
545.91	1456.11
546.11	1286.12
546.30	1402.86
546.50	1492.97
546.70	1437.67
546.90	1374.19
547.09	1312.75
547.29	1376.24
547.49	1376.24
547.68	1413.10
547.88	1363.95
548.08	1437.67
548.27	1669.09
548.47	1341.42
548.67	1322.99
548.87	1425.39
549.06	1368.04
549.26	1380.33
549.46	1372.14
549.65	1357.80
549.85	1333.23
550.05	1470.44
550.24	1300.46
550.44	1376.24
550.64	1439.72
550.83	1386.47
551.03	1433.58
551.23	1415.15
551.42	1359.85
551.62	1335.28
551.82	1398.76
552.01	1392.62
552.21	1433.58
552.41	1370.09
552.60	1406.95
552.80	1406.95
553.00	1415.15
553.19	1355.76
553.39	1470.44
553.59	1320.94
553.78	1368.04
553.98	1447.91
554.17	1288.17
554.37	1415.15
554.57	1312.75
554.76	1345.52
554.96	1355.76
555.16	1261.55
555.35	1359.85
555.55	1437.67
555.75	1435.63
555.94	1347.56
556.14	1316.84
556.33	1384.43
556.53	1361.90
556.73	1361.90
556.92	1406.95
557.12	1394.67
557.32	1449.96
557.51	1396.71
557.71	1394.67
557.90	1357.80
558.10	1370.09
558.30	1423.34
558.49	1452.01
558.69	1400.81
558.88	1413.10
559.08	1415.15
559.28	1353.71
559.47	1335.28
559.67	1384.43
559.86	1382.38
560.06	1421.29
560.26	1325.04
560.45	1372.14
560.65	1372.14
560.84	1361.90
561.04	1378.28
561.24	1413.10
561.43	1425.39
561.63	1419.24
561.82	1402.86
562.02	1468.39
562.22	1296.36
562.41	1279.98
562.61	1357.80
562.80	1380.33
563.00	1474.54
563.19	1374.19
563.39	1388.52
563.59	1398.76
563.78	1320.94
563.98	1345.52
564.17	1355.76
564.37	1306.60
564.56	1343.47
564.76	1345.52
564.96	1411.05
565.15	1392.62
565.35	1472.49
565.54	1464.30
565.74	1415.15
565.93	1421.29
566.13	1357.80
566.32	1366.00
566.52	1429.48
566.71	1380.33
566.91	1312.75
567.11	1406.95
567.30	1296.36
567.50	1386.47
567.69	1468.39
567.89	1396.71
568.08	1343.47
568.28	1406.95
568.47	1368.04
568.67	1370.09
568.86	1359.85
569.06	1345.52
569.25	1366.00
569.45	1439.72
569.64	1343.47
569.84	1347.56
570.04	1409.00
570.23	1316.84
570.43	1386.47
570.62	1439.72
570.82	1394.67
571.01	1357.80
571.21	1347.56
571.40	1368.04
571.60	1374.19
571.79	1398.76
571.99	1421.29
572.18	1392.62
572.38	1320.94
572.57	1427.43
572.77	1384.43
572.96	1441.77
573.16	1423.34
573.35	1482.73
573.55	1447.91
573.74	1361.90
573.94	1390.57
574.13	1335.28
574.33	1480.68
574.52	1437.67
574.71	1411.05
574.91	1392.62
575.10	1314.80
575.30	1339.37
575.49	1386.47
575.69	1435.63
575.88	1456.11
576.08	1460.20
576.27	1425.39
576.47	1351.66
576.66	1495.02
576.86	1474.54
577.05	1521.64
577.25	1466.35
577.44	1544.17
577.64	1359.85
577.83	1439.72
578.02	1425.39
578.22	1431.53
578.41	1392.62
578.61	1372.14
578.80	1357.80
579.00	1411.05
579.19	1466.35
579.39	1503.21
579.58	1464.30
579.77	1484.78
579.97	1404.91
580.16	1478.63
580.36	1480.68
580.55	1544.17
580.75	1382.38
580.94	1443.82
581.13	1492.97
581.33	1482.73
581.52	1462.25
581.72	1470.44
581.91	1468.39
582.11	1415.15
582.30	1398.76
582.49	1443.82
582.69	1478.63
582.88	1484.78
583.08	1478.63
583.27	1433.58
583.47	1449.96
583.66	1454.06
583.85	1359.85
584.05	1392.62
584.24	1486.83
584.44	1329.13
584.63	1454.06
584.82	1456.11
585.02	1429.48
585.21	1581.03
585.41	1626.09
585.60	1587.18
585.79	1525.74
585.99	1603.56
586.18	1667.05
586.37	1763.30
586.57	2672.60
586.76	8003.46
586.96	24174.22
587.15	41688.45
587.34	52335.84
587.54	60019.82
587.73	59640.95
587.93	45221.20
588.12	33142.28
588.31	26734.18
588.51	22527.66
588.70	20326.09
588.89	18431.72
589.09	17198.84
589.28	15982.35
589.47	14450.47
589.67	12627.78
589.86	10522.46
590.06	8605.56
590.25	6766.49
590.44	4917.17
590.64	3674.06
590.83	2797.53
591.02	2172.89
591.22	1947.62
591.41	1822.69
591.60	1642.47
591.80	1636.33
591.99	1507.30
592.18	1570.79
592.38	1456.11
592.57	1452.01
592.76	1423.34
592.96	1386.47
593.15	1435.63
593.34	1445.87
593.54	1429.48
593.73	1386.47
593.92	1456.11
594.12	1486.83
594.31	1468.39
594.50	1482.73
594.70	1540.07
594.89	1505.26
595.08	1374.19
595.28	1349.61
595.47	1476.59
595.66	1433.58
595.86	1355.76
596.05	1413.10
596.24	1372.14
596.43	1331.18
596.63	1511.40
596.82	1488.87
597.01	1433.58
597.21	1519.59
597.40	1423.34
597.59	1374.19
597.79	1400.81
597.98	1484.78
598.17	1429.48
598.36	1458.15
598.56	1370.09
598.75	1429.48
598.94	1400.81
599.14	1417.19
599.33	1357.80
599.52	1476.59
599.71	1417.19
599.91	1396.71
600.10	1441.77
600.29	1409.00
600.48	1421.29
600.68	1359.85
600.87	1345.52
601.06	1355.76
601.26	1366.00
601.45	1462.25
601.64	1337.32
601.83	1421.29
602.03	1382.38
602.22	1294.32
602.41	1370.09
602.60	1439.72
602.80	1482.73
602.99	1433.58
603.18	1353.71
603.37	1347.56
603.57	1310.70
603.76	1372.14
603.95	1443.82
604.14	1404.91
604.34	1394.67
604.53	1363.95
604.72	1351.66
604.91	1390.57
605.10	1396.71
605.30	1325.04
605.49	1454.06
605.68	1417.19
605.87	1394.67
606.07	1339.37
606.26	1325.04
606.45	1484.78
606.64	1384.43
606.84	1421.29
607.03	1427.43
607.22	1462.25
607.41	1394.67
607.60	1351.66
607.80	1452.01
607.99	1347.56
608.18	1488.87
608.37	1406.95
608.56	1347.56
608.76	1425.39
608.95	1519.59
609.14	1363.95
609.33	1488.87
609.52	1478.63
609.72	1505.26
609.91	1452.01
610.10	1447.91
610.29	1454.06
610.48	1470.44
610.68	1402.86
610.87	1388.52
611.06	1359.85
611.25	1386.47
611.44	1404.91
611.63	1425.39
611.83	1472.49
612.02	1310.70
612.21	1449.96
612.40	1312.75
612.59	1376.24
612.79	1318.89
612.98	1413.10
613.17	1454.06
613.36	1445.87
613.55	1511.40
613.74	1470.44
613.93	1513.45
614.13	1634.28
614.32	1538.02
614.51	1560.55
614.70	1591.27
614.89	1490.92
615.08	1478.63
615.28	1691.62
615.47	1415.15
615.66	1427.43
615.85	1447.91
616.04	1468.39
616.23	1427.43
616.42	1472.49
616.62	1474.54
616.81	1454.06
617.00	1484.78
617.19	1441.77
617.38	1441.77
617.57	1388.52
617.76	1431.53
617.95	1306.60
618.15	1413.10
618.34	1484.78
618.53	1390.57
618.72	1384.43
618.91	1409.00
619.10	1525.74
619.29	1429.48
619.48	1480.68
619.68	1353.71
619.87	1363.95
620.06	1302.51
620.25	1372.14
620.44	1384.43
620.63	1384.43
620.82	1435.63
621.01	1425.39
621.20	1363.95
621.39	1406.95
621.59	1486.83
621.78	1392.62
621.97	1454.06
622.16	1472.49
622.35	1388.52
622.54	1361.90
622.73	1435.63
622.92	1259.50
623.11	1366.00
623.30	1384.43
623.49	1378.28
623.68	1394.67
623.88	1454.06
624.07	1325.04
624.26	1296.36
624.45	1384.43
624.64	1298.41
624.83	1329.13
625.02	1347.56
625.21	1394.67
625.40	1345.52
625.59	1454.06
625.78	1370.09
625.97	1529.83
626.16	1517.54
626.35	1406.95
626.54	1478.63
626.74	1548.26
626.93	1400.81
627.12	1441.77
627.31	1460.20
627.50	1499.11
627.69	1409.00
627.88	1435.63
628.07	1390.57
628.26	1370.09
628.45	1349.61
628.64	1427.43
628.83	1388.52
629.02	1322.99
629.21	1474.54
629.40	1372.14
629.59	1415.15
629.78	1409.00
629.97	1472.49
630.16	1404.91
630.35	1361.90
630.54	1394.67
630.73	1490.92
630.92	1320.94
631.11	1335.28
631.30	1304.56
631.49	1413.10
631.68	1325.04
631.87	1398.76
632.06	1314.80
632.25	1548.26
632.44	1402.86
632.63	1386.47
632.82	1394.67
633.01	1368.04
633.20	1507.30
633.39	1400.81
633.58	1411.05
633.77	1482.73
633.96	1429.48
634.15	1435.63
634.34	1443.82
634.53	1421.29
634.72	1320.94
634.91	1247.21
635.10	1339.37
635.29	1394.67
635.48	1392.62
635.67	1333.23
635.86	1327.08
636.05	1409.00
636.24	1386.47
636.43	1349.61
636.62	1423.34
636.81	1290.22
637.00	1351.66
637.19	1400.81
637.38	1429.48
637.57	1376.24
637.76	1470.44
637.95	1554.41
638.14	1433.58
638.33	1521.64
638.52	1429.48
638.71	1402.86
638.89	1406.95
639.08	1550.31
639.27	1431.53
639.46	1449.96
639.65	1742.82
639.84	1886.18
640.03	2035.68
640.22	2017.25
640.41	2148.32
640.60	1912.80
640.79	1755.11
640.98	1638.38
641.17	1646.57
641.36	1624.04
641.55	1587.18
641.74	1505.26
641.92	1497.07
642.11	1441.77
642.30	1505.26
642.49	1359.85
642.68	1460.20
642.87	1409.00
643.06	1443.82
643.25	1370.09
643.44	1343.47
643.63	1386.47
643.82	1411.05
644.00	1357.80
644.19	1306.60
644.38	1331.18
644.57	1419.24
644.76	1423.34
644.95	1400.81
645.14	1464.30
645.33	1347.56
645.52	1349.61
645.71	1341.42
645.89	1394.67
646.08	1349.61
646.27	1343.47
646.46	1382.38
646.65	1343.47
646.84	1404.91
647.03	1413.10
647.22	1382.38
647.40	1355.76
647.59	1353.71
647.78	1355.76
647.97	1363.95
648.16	1333.23
648.35	1413.10
648.54	1445.87
648.73	1351.66
648.91	1388.52
649.10	1390.57
649.29	1357.80
649.48	1294.32
649.67	1304.56
649.86	1378.28
650.05	1445.87
650.23	1466.35
650.42	1519.59
650.61	1605.61
650.80	1542.12
650.99	1609.70
651.18	1513.45
651.36	1495.02
651.55	1402.86
651.74	1478.63
651.93	1425.39
652.12	1404.91
652.31	1441.77
652.49	1349.61
652.68	1452.01
652.87	1492.97
653.06	1429.48
653.25	1484.78
653.44	1421.29
653.62	1452.01
653.81	1435.63
654.00	1351.66
654.19	1427.43
654.38	1386.47
654.56	1435.63
654.75	1370.09
654.94	1507.30
655.13	1404.91
655.32	1349.61
655.51	1400.81
655.69	1413.10
655.88	1363.95
656.07	1386.47
656.26	1427.43
656.45	1419.24
656.63	1347.56
656.82	1378.28
657.01	1462.25
657.20	1355.76
657.38	1366.00
657.57	1316.84
657.76	1400.81
657.95	1400.81
658.14	1275.88
658.32	1318.89
658.51	1339.37
658.70	1413.10
658.89	1392.62
659.08	1417.19
659.26	1392.62
659.45	1302.51
659.64	1478.63
659.83	1431.53
660.01	1607.66
660.20	1431.53
660.39	1478.63
660.58	1347.56
660.76	1462.25
660.95	1392.62
661.14	1357.80
661.33	1374.19
661.51	1372.14
661.70	1370.09
661.89	1419.24
662.08	1343.47
662.26	1325.04
662.45	1396.71
662.64	1396.71
662.83	1411.05
663.01	1351.66
663.20	1331.18
663.39	1464.30
663.58	1394.67
663.76	1325.04
663.95	1447.91
664.14	1413.10
664.32	1456.11
664.51	1241.07
664.70	1277.93
664.89	1337.32
665.07	1320.94
665.26	1376.24
665.45	1320.94
665.64	1439.72
665.82	1361.90
666.01	1394.67
666.20	1368.04
666.38	1409.00
666.57	1468.39
666.76	1601.51
666.95	2062.30
667.13	4448.19
667.32	11648.85
667.51	17889.01
667.69	22093.49
667.88	24741.51
668.07	24505.99
668.25	18927.33
668.44	13782.83
668.63	11286.36
668.81	9097.08
669.00	8253.31
669.19	7415.69
669.38	6952.85
669.56	6274.98
669.75	5574.57
669.94	4966.32
670.12	4118.47
670.31	3540.94
670.50	2930.64
670.68	2498.52
670.87	2131.94
671.06	1867.75
671.24	1767.40
671.43	1710.05
671.62	1527.78
671.80	1462.25
671.99	1535.98
672.18	1501.16
672.36	1513.45
672.55	1423.34
672.74	1458.15
672.92	1503.21
673.11	1380.33
673.29	1361.90
673.48	1458.15
673.67	1341.42
673.85	1374.19
674.04	1357.80
674.23	1396.71
674.41	1449.96
674.60	1390.57
674.79	1376.24
674.97	1366.00
675.16	1406.95
675.34	1435.63
675.53	1308.65
675.72	1413.10
675.90	1380.33
676.09	1349.61
676.28	1398.76
676.46	1366.00
676.65	1388.52
676.83	1325.04
677.02	1423.34
677.21	1339.37
677.39	1413.10
677.58	1372.14
677.77	1363.95
677.95	1308.65
678.14	1380.33
678.32	1390.57
678.51	1341.42
678.70	1419.24
678.88	1394.67
679.07	1290.22
679.25	1392.62
679.44	1345.52
679.63	1312.75
679.81	1419.24
680.00	1406.95
680.18	1423.34
680.37	1353.71
680.55	1402.86
680.74	1296.36
680.93	1355.76
681.11	1400.81
681.30	1392.62
681.48	1439.72
681.67	1363.95
681.85	1357.80
682.04	1306.60
682.23	1357.80
682.41	1413.10
682.60	1374.19
682.78	1349.61
682.97	1370.09
683.15	1427.43
683.34	1363.95
683.53	1382.38
683.71	1314.80
683.90	1423.34
684.08	1376.24
684.27	1419.24
684.45	1370.09
684.64	1458.15
684.82	1331.18
685.01	1353.71
685.19	1378.28
685.38	1384.43
685.57	1224.69
685.75	1329.13
685.94	1333.23
686.12	1331.18
686.31	1372.14
686.49	1413.10
686.68	1255.40
686.86	1413.10
687.05	1409.00
687.23	1456.11
687.42	1378.28
687.60	1288.17
687.79	1366.00
687.97	1441.77
688.16	1415.15
688.34	1425.39
688.53	1288.17
688.71	1345.52
688.90	1404.91
689.08	1390.57
689.27	1265.64
689.45	1406.95
689.64	1480.68
689.82	1361.90
690.01	1390.57
690.19	1402.86
690.38	1427.43
690.56	1361.90
690.75	1308.65
690.93	1361.90
691.12	1370.09
691.30	1300.46
691.49	1384.43
691.67	1339.37
691.86	1447.91
692.04	1376.24
692.23	1372.14
692.41	1374.19
692.60	1503.21
692.78	1433.58
692.97	1454.06
693.15	1406.95
693.34	1478.63
693.52	1511.40
693.71	1368.04
693.89	1394.67
694.08	1304.56
694.26	1413.10
694.44	1390.57
694.63	1404.91
694.81	1470.44
695.00	1331.18
695.18	1417.19
695.37	1525.74
695.55	1419.24
695.74	1361.90
695.92	1366.00
696.10	1462.25
696.29	1378.28
696.47	1353.71
696.66	1253.36
696.84	1361.90
697.03	1396.71
697.21	1470.44
697.40	1742.82
697.58	1445.87
697.76	1320.94
697.95	1320.94
698.13	1298.41
698.32	1404.91
698.50	1378.28
698.68	1382.38
698.87	1363.95
699.05	1404.91
699.24	1388.52
699.42	1353.71
699.61	1392.62
699.79	1382.38
699.97	1331.18
700.16	1363.95
700.34	1335.28
700.53	1390.57
700.71	1380.33
700.89	1353.71
701.08	1392.62
701.26	1327.08
701.45	1652.71
701.63	1388.52
701.81	1273.84
702.00	1308.65
702.18	1400.81
702.37	1411.05
702.55	1470.44
702.73	1449.96
702.92	1474.54
703.10	1568.74
703.28	1660.90
703.47	1648.61
703.65	1597.42
703.84	1601.51
704.02	1527.78
704.20	1488.87
704.39	1398.76
704.57	1474.54
704.75	1550.31
704.94	1492.97
705.12	1468.39
705.30	1439.72
705.49	1626.09
705.67	1839.08
705.86	3618.76
706.04	9162.61
706.22	16277.26
706.41	19826.39
706.59	22660.77
706.77	23787.16
706.96	20039.37
707.14	13979.43
707.32	11505.49
707.51	9359.22
707.69	8220.55
707.87	7278.48
708.06	6725.53
708.24	6064.04
708.42	5072.82
708.61	4044.74
708.79	3018.71
708.97	2414.56
709.16	1957.86
709.34	1777.64
709.52	1646.57
709.71	1605.61
709.89	1517.54
710.07	1462.25
710.26	1322.99
710.44	1464.30
710.62	1400.81
710.80	1341.42
710.99	1419.24
711.17	1476.59
711.35	1474.54
711.54	1388.52
711.72	1449.96
711.90	1445.87
712.09	1431.53
712.27	1302.51
712.45	1384.43
712.63	1413.10
712.82	1429.48
713.00	1359.85
713.18	1275.88
713.37	1359.85
713.55	1370.09
713.73	1325.04
713.91	1396.71
714.10	1355.76
714.28	1329.13
714.46	1335.28
714.65	1347.56
714.83	1406.95
715.01	1392.62
715.19	1337.32
715.38	1343.47
715.56	1402.86
715.74	1322.99
715.92	1402.86
716.11	1460.20
716.29	1290.22
716.47	1359.85
716.65	1325.04
716.84	1318.89
717.02	1431.53
717.20	1339.37
717.38	1310.70
717.57	1372.14
717.75	1327.08
717.93	1396.71
718.11	1429.48
718.30	1288.17
718.48	1404.91
718.66	1466.35
718.84	1357.80
719.03	1361.90
719.21	1372.14
719.39	1376.24
719.57	1454.06
719.75	1402.86
719.94	1370.09
720.12	1329.13
720.30	1419.24
720.48	1478.63
720.67	1320.94
720.85	1382.38
721.03	1363.95
721.21	1366.00
721.39	1460.20
721.58	1398.76
721.76	1361.90
721.94	1339.37
722.12	1394.67
722.30	1433.58
722.49	1368.04
722.67	1331.18
722.85	1400.81
723.03	1322.99
723.21	1415.15
723.40	1363.95
723.58	1331.18
723.76	1335.28
723.94	1378.28
724.12	1421.29
724.30	1533.93
724.49	1476.59
724.67	1476.59
724.85	1501.16
725.03	1402.86
725.21	1425.39
725.40	1452.01
725.58	1302.51
725.76	1413.10
725.94	1409.00
726.12	1380.33
726.30	1425.39
726.49	1335.28
726.67	1355.76
726.85	1445.87
727.03	1384.43
727.21	1435.63
727.39	1550.31
727.57	2058.21
727.76	3461.07
727.94	4360.13
728.12	4988.85
728.30	5298.10
728.48	5273.52
728.66	4272.06
728.84	3454.92
729.03	3069.91
729.21	2805.72
729.39	2490.33
729.57	2246.62
729.75	1988.58
729.93	1736.68
730.11	1601.51
730.30	1433.58
730.48	1435.63
730.66	1423.34
730.84	1433.58
731.02	1349.61
731.20	1384.43
731.38	1456.11
731.56	1347.56
731.74	1349.61
731.93	1366.00
732.11	1402.86
732.29	1347.56
732.47	1409.00
732.65	1359.85
732.83	1320.94
733.01	1394.67
733.19	1322.99
733.37	1437.67
733.56	1331.18
733.74	1449.96
733.92	1445.87
734.10	1359.85
734.28	1421.29
734.46	1331.18
734.64	1339.37
734.82	1382.38
735.00	1314.80
735.18	1423.34
735.36	1357.80
735.54	1394.67
735.73	1366.00
735.91	1368.04
736.09	1435.63
736.27	1349.61
736.45	1396.71
736.63	1308.65
736.81	1339.37
736.99	1437.67
737.17	1445.87
737.35	1331.18
737.53	1341.42
737.71	1398.76
737.89	1429.48
738.07	1331.18
738.25	1382.38
738.43	1325.04
738.61	1378.28
738.80	1318.89
738.98	1316.84
739.16	1392.62
739.34	1431.53
739.52	1415.15
739.70	1355.76
739.88	1466.35
740.06	1286.12
740.24	1249.26
740.42	1345.52
740.60	1247.21
740.78	1322.99
740.96	1292.27
741.14	1310.70
741.32	1435.63
741.50	1271.79
741.68	1449.96
741.86	1302.51
742.04	1310.70
742.22	1298.41
742.40	1392.62
742.58	1380.33
742.76	1388.52
742.94	1411.05
743.12	1314.80
743.30	1349.61
743.48	1314.80
743.66	1368.04
743.84	1345.52
744.02	1357.80
744.20	1419.24
744.38	1363.95
744.56	1236.97
744.74	1413.10
744.92	1390.57
745.10	1421.29
745.28	1411.05
745.46	1486.83
745.64	1347.56
745.82	1331.18
746.00	1427.43
746.18	1423.34
746.36	1392.62
746.54	1421.29
746.72	1376.24
746.90	1419.24
747.08	1396.71
747.26	1380.33
747.44	1376.24
747.62	1384.43
747.80	1421.29
747.98	1386.47
748.15	1382.38
748.33	1402.86
748.51	1374.19
748.69	1355.76
748.87	1300.46
749.05	1359.85
749.23	1439.72
749.41	1388.52
749.59	1349.61
749.77	1322.99
749.95	1331.18
750.13	1363.95
750.31	1378.28
750.49	1327.08
750.67	1402.86
750.85	1427.43
751.03	1370.09
751.20	1449.96
751.38	1370.09
751.56	1337.32
751.74	1421.29
751.92	1343.47
752.10	1320.94
752.28	1486.83
752.46	1351.66
752.64	1345.52
752.82	1370.09
753.00	1462.25
753.18	1406.95
753.35	1382.38
753.53	1386.47
753.71	1325.04
753.89	1413.10
754.07	1372.14
754.25	1349.61
754.43	1384.43
754.61	1339.37
754.79	1409.00
754.97	1337.32
755.14	1417.19
755.32	1306.60
755.50	1384.43
755.68	1396.71
755.86	1308.65
756.04	1265.64
756.22	1357.80
756.40	1439.72
756.57	1492.97
756.75	1320.94
756.93	1456.11
757.11	1376.24
757.29	1347.56
757.47	1368.04
757.65	1308.65
757.82	1341.42
758.00	1265.64
758.18	1284.08
758.36	1368.04
758.54	1396.71
758.72	1314.80
758.90	1363.95
759.07	1398.76
759.25	1380.33
759.43	1425.39
759.61	1304.56
759.79	1687.53
759.97	1366.00
760.15	1361.90
760.32	1347.56
760.50	1392.62
760.68	1449.96
760.86	1314.80
761.04	1396.71
761.22	1394.67
761.39	1372.14
761.57	1447.91
761.75	1394.67
761.93	1419.24
762.11	1329.13
762.28	1398.76
762.46	1322.99
762.64	1415.15
762.82	1316.84
763.00	1376.24
763.18	1355.76
763.35	1419.24
763.53	1347.56
763.71	1359.85
763.89	1353.71
764.07	1406.95
764.24	1427.43
764.42	1427.43
764.60	1349.61
764.78	1318.89
764.96	1345.52
765.13	1329.13
765.31	1386.47
765.49	1396.71
765.67	1310.70
765.84	1314.80
766.02	1361.90
766.20	1282.03
766.38	1421.29
766.56	1380.33
766.73	1372.14
766.91	1409.00
767.09	1384.43
767.27	1357.80
767.44	1271.79
767.62	1376.24
767.80	1396.71
767.98	1300.46
768.15	1320.94
768.33	1409.00
768.51	1402.86
768.69	1449.96
768.87	1400.81
769.04	1341.42
769.22	1439.72
769.40	1490.92
769.58	1495.02
769.75	1427.43
769.93	1462.25
770.11	1429.48
770.28	1372.14
770.46	1355.76
770.64	1361.90
770.82	1304.56
770.99	1415.15
771.17	1384.43
771.35	1337.32
771.53	1382.38
771.70	1409.00
771.88	1421.29
772.06	1366.00
772.23	1409.00
772.41	1370.09
772.59	1406.95
772.77	1290.22
772.94	1396.71
773.12	1396.71
773.30	1366.00
773.47	1404.91
773.65	1361.90
773.83	1370.09
774.01	1402.86
774.18	1337.32
774.36	1359.85
774.54	1345.52
774.71	1406.95
774.89	1306.60
775.07	1339.37
775.24	1322.99
775.42	1318.89
775.60	1435.63
775.78	1304.56
775.95	1357.80
776.13	1302.51
776.31	1255.40
776.48	1388.52
776.66	1435.63
776.84	1345.52
777.01	1376.24
777.19	1316.84
777.37	1331.18
777.54	1409.00
777.72	1413.10
777.90	1437.67
778.07	1308.65
778.25	1466.35
778.43	1349.61
778.60	1341.42
778.78	1310.70
778.96	1366.00
779.13	1286.12
779.31	1312.75
779.49	1363.95
779.66	1386.47
779.84	1341.42
780.01	1384.43
780.19	1347.56
780.37	1404.91
780.54	1331.18
780.72	1335.28
780.90	1327.08
781.07	1366.00
781.25	1294.32
781.43	1382.38
781.60	1318.89
781.78	1449.96
781.95	1376.24
782.13	1359.85
782.31	1400.81
782.48	1251.31
782.66	1363.95
782.83	1441.77
783.01	1353.71
783.19	1374.19
783.36	1370.09
783.54	1308.65
783.72	1415.15
783.89	1331.18
784.07	1386.47
784.24	1449.96
784.42	1402.86
784.60	1386.47
784.77	1372.14
784.95	1380.33
785.12	1290.22
785.30	1341.42
785.47	1329.13
785.65	1343.47
785.83	1396.71
786.00	1388.52
786.18	1370.09
786.35	1337.32
786.53	1259.50
786.71	1378.28
786.88	1314.80
787.06	1355.76
787.23	1363.95
787.41	1380.33
787.58	1339.37
787.76	1337.32
787.94	1445.87
788.11	1302.51
788.29	1366.00
788.46	1355.76
788.64	1329.13
788.81	1343.47
788.99	1366.00
789.16	1327.08
789.34	1398.76
789.52	1382.38
789.69	1380.33
789.87	1282.03
790.04	1378.28
790.22	1318.89
790.39	1435.63
790.57	1357.80
790.74	1359.85
790.92	1456.11
791.09	1343.47
791.27	1275.88
791.44	1443.82
791.62	1329.13
791.79	1392.62
791.97	1339.37
792.15	1447.91
792.32	1396.71
792.50	1400.81
792.67	1417.19
792.85	1376.24
793.02	1304.56
793.20	1339.37
793.37	1259.50
793.55	1417.19
793.72	1390.57
793.90	1351.66
794.07	1294.32
794.25	1392.62
794.42	1343.47
794.60	1298.41
794.77	1284.08
794.95	1394.67
795.12	1363.95
795.30	1316.84
795.47	1310.70
795.65	1419.24
795.82	1398.76
796.00	1402.86
796.17	1374.19
796.34	1279.98
796.52	1357.80
796.69	1368.04
796.87	1378.28
797.04	1398.76
797.22	1476.59
797.39	1331.18
797.57	1404.91
797.74	1376.24
797.92	1339.37
798.09	1343.47
798.27	1363.95
798.44	1423.34
798.62	1380.33
798.79	1378.28
798.96	1390.57
799.14	1314.80
799.31	1449.96
799.49	1400.81
799.66	1363.95
799.84	1370.09
800.01	1345.52
800.19	1425.39
800.36	1288.17
800.53	1327.08
800.71	1296.36
800.88	1380.33
801.06	1329.13
801.23	1366.00
801.41	1376.24
801.58	1347.56
801.75	1353.71
801.93	1370.09
802.10	1353.71
802.28	1392.62
802.45	1312.75
802.63	1409.00
802.80	1380.33
802.97	1400.81
803.15	1347.56
803.32	1337.32
803.50	1355.76
803.67	1288.17
803.84	1320.94
804.02	1341.42
804.19	1306.60
804.37	1212.40
804.54	1263.60
804.71	1368.04
804.89	1376.24
805.06	1380.33
805.24	1353.71
805.41	1353.71
805.58	1372.14
805.76	1413.10
805.93	1388.52
806.10	1452.01
806.28	1366.00
806.45	1415.15
806.63	1433.58
806.80	1394.67
806.97	1421.29
807.15	1443.82
807.32	1417.19
807.49	1357.80
807.67	1384.43
807.84	1404.91
808.01	1316.84
808.19	1380.33
808.36	1462.25
808.54	1392.62
808.71	1298.41
808.88	1359.85
809.06	1437.67
809.23	1460.20
809.40	1353.71
809.58	1419.24
809.75	1374.19
809.92	1329.13
810.10	1396.71
810.27	1388.52
810.44	1322.99
810.62	1384.43
810.79	1345.52
810.96	1331.18
811.14	1361.90
811.31	1345.52
811.48	1404.91
811.66	1413.10
811.83	1449.96
812.00	1347.56
812.18	1359.85
812.35	1441.77
812.52	1382.38
812.69	1312.75
812.87	1331.18
813.04	1361.90
813.21	1376.24
813.39	1370.09
813.56	1302.51
813.73	1433.58
813.91	1294.32
814.08	1310.70
814.25	1415.15
814.42	1318.89
814.60	1325.04
814.77	1374.19
814.94	1398.76
815.12	1316.84
815.29	1421.29
815.46	1363.95
815.63	1333.23
815.81	1429.48
815.98	1433.58
816.15	1363.95
816.33	1355.76
816.50	1433.58
816.67	1368.04
816.84	1361.90
817.02	1353.71
817.19	1386.47
817.36	1353.71
817.53	1380.33
817.71	1265.64
817.88	1402.86
818.05	1335.28
818.22	1361.90
818.40	1398.76
818.57	1335.28
818.74	1400.81
818.91	1411.05
819.09	1355.76
819.26	1378.28
819.43	1366.00
819.60	1384.43
819.78	1402.86
819.95	1413.10
820.12	1361.90
820.29	1341.42
820.47	1386.47
820.64	1331.18
820.81	1292.27
820.98	1355.76
821.15	1318.89
821.33	1394.67
821.50	1292.27
821.67	1388.52
821.84	1310.70
822.02	1347.56
822.19	1419.24
822.36	1267.69
822.53	1327.08
822.70	1366.00
822.88	1345.52
823.05	1495.02
823.22	1355.76
823.39	1427.43
823.56	1388.52
823.74	1460.20
823.91	1372.14
824.08	1355.76
824.25	1366.00
824.42	1495.02
824.60	1322.99
824.77	1411.05
824.94	1300.46
825.11	1359.85
825.28	1374.19
825.45	1386.47
825.63	1366.00
825.80	1318.89
825.97	1386.47
826.14	1376.24
826.31	1249.26
826.48	1394.67
826.66	1368.04
826.83	1359.85
827.00	1322.99
827.17	1314.80
827.34	1406.95
827.51	1347.56
827.69	1370.09
827.86	1376.24
828.03	1310.70
828.20	1384.43
828.37	1386.47
828.54	1380.33
828.71	1300.46
828.89	1409.00
829.06	1333.23
829.23	1396.71
829.40	1292.27
829.57	1300.46
829.74	1372.14
829.91	1366.00
830.09	1193.97
830.26	1347.56
830.43	1462.25
830.60	1357.80
830.77	1413.10
830.94	1427.43
831.11	1437.67
831.28	1322.99
831.46	1425.39
831.63	1292.27
831.80	1449.96
831.97	1359.85
832.14	1329.13
832.31	1370.09
832.48	1329.13
832.65	1419.24
832.82	1329.13
832.99	1409.00
833.17	1257.45
833.34	1380.33
833.51	1382.38
833.68	1275.88
833.85	1396.71
834.02	1327.08
834.19	1329.13
834.36	1314.80
834.53	1417.19
834.70	1400.81
834.87	1386.47
835.04	1335.28
835.22	1384.43
835.39	1312.75
835.56	1378.28
835.73	1345.52
835.90	1427.43
836.07	1376.24
836.24	1456.11
836.41	1359.85
836.58	1368.04
836.75	1372.14
836.92	1421.29
837.09	1345.52
837.26	1380.33
837.43	1429.48
837.60	1347.56
837.77	1288.17
837.94	1366.00
838.12	1370.09
838.29	1388.52
838.46	1343.47
838.63	1351.66
838.80	1394.67
838.97	1384.43
839.14	1370.09
839.31	1327.08
839.48	1310.70
839.65	1331.18
839.82	1443.82
839.99	1355.76
840.16	1423.34
840.33	1267.69
840.50	1386.47
840.67	1345.52
840.84	1251.31
841.01	1349.61
841.18	1363.95
841.35	1370.09
841.52	1335.28
841.69	1476.59
841.86	1372.14
842.03	1406.95
842.20	1380.33
842.37	1355.76
842.54	1343.47
842.71	1329.13
842.88	1290.22
843.05	1343.47
843.22	1376.24
843.39	1390.57
843.56	1314.80
843.73	1396.71
843.90	1347.56
844.07	1343.47
844.24	1355.76
844.41	1380.33
844.58	1394.67
844.75	1339.37
844.92	1353.71
845.09	1366.00
845.26	1331.18
845.43	1398.76
845.60	1359.85
845.77	1462.25
845.94	1337.32
846.10	1400.81
846.27	1349.61
846.44	1343.47
846.61	1374.19
846.78	1368.04
846.95	1404.91
847.12	1257.45
847.29	1435.63
847.46	1357.80
847.63	1404.91
847.80	1312.75
847.97	1265.64
848.14	1495.02
848.31	1286.12
848.48	1400.81
848.65	1409.00
848.82	1304.56
848.98	1402.86
849.15	1355.76
849.32	1490.92
849.49	1435.63
849.66	1421.29
849.83	1411.05
850.00	1329.13
850.17	1341.42
850.34	1335.28
850.51	1413.10
850.68	1271.79
850.85	1413.10
851.01	1345.52
851.18	1411.05
851.35	1400.81
851.52	1409.00
851.69	1404.91
851.86	1327.08
852.03	1376.24
852.20	1353.71
852.37	1368.04
852.53	1363.95
852.70	1441.77
852.87	1351.66
853.04	1435.63
853.21	1308.65
853.38	1396.71
853.55	1456.11
853.72	1390.57
853.89	1404.91
854.05	1347.56
854.22	1363.95
854.39	1335.28
854.56	1355.76
854.73	1419.24
854.90	1327.08
855.07	1427.43
855.23	1331.18
855.40	1372.14
855.57	1314.80
855.74	1308.65
855.91	1470.44
856.08	1355.76
856.25	1325.04
856.41	1384.43
856.58	1331.18
856.75	1382.38
856.92	1351.66
857.09	1458.15
857.26	1327.08
857.42	1294.32
857.59	1413.10
857.76	1386.47
857.93	1368.04
858.10	1337.32
858.27	1363.95
858.43	1372.14
858.60	1290.22
858.77	1320.94
858.94	1353.71
859.11	1429.48
859.27	1335.28
859.44	1363.95
859.61	1423.34
859.78	1460.20
859.95	1325.04
860.12	1320.94
860.28	1478.63
860.45	1495.02
860.62	1372.14
860.79	1345.52
860.95	1400.81
861.12	1355.76
861.29	1331.18
861.46	1314.80
861.63	1257.45
861.79	1347.56
861.96	1312.75
862.13	1357.80
862.30	1376.24
862.47	1384.43
862.63	1355.76
862.80	1411.05
862.97	1339.37
863.14	1380.33
863.30	1402.86
863.47	1382.38
863.64	1372.14
863.81	1372.14
863.97	1339.37
864.14	1386.47
864.31	1355.76
864.48	1335.28
864.65	1314.80
864.81	1366.00
864.98	1372.14
865.15	1443.82
865.32	1304.56
865.48	1376.24
865.65	1404.91
865.82	1363.95
865.98	1402.86
866.15	1439.72
866.32	1337.32
866.49	1429.48
866.65	1378.28
866.82	1333.23
866.99	1400.81
867.16	1329.13
867.32	1363.95
867.49	1382.38
867.66	1380.33
867.83	1355.76
867.99	1421.29
868.16	1380.33
868.33	1327.08
868.49	1388.52
868.66	1345.52
868.83	1447.91
868.99	1335.28
869.16	1392.62
869.33	1347.56
869.50	1449.96
869.66	1441.77
869.83	1339.37
870.00	1294.32
870.16	1341.42
870.33	1292.27
870.50	1357.80
870.66	1349.61
870.83	1452.01
871.00	1322.99
871.17	1380.33
871.33	1304.56
871.50	1429.48
871.67	1353.71
871.83	1370.09
872.00	1480.68
872.17	1335.28
872.33	1394.67
872.50	1349.61
872.67	1374.19
872.83	1302.51
873.00	1370.09
873.17	1411.05
873.33	1417.19
873.50	1417.19
873.67	1341.42
873.83	1363.95
874.00	1402.86
874.16	1421.29
874.33	1366.00
874.50	1351.66
874.66	1380.33
874.83	1347.56
875.00	1378.28
875.16	1363.95
875.33	1470.44
875.50	1329.13
875.66	1376.24
875.83	1335.28
875.99	1341.42
876.16	1359.85
876.33	1320.94
876.49	1396.71
876.66	1402.86
876.83	1292.27
876.99	1337.32
877.16	1396.71
877.32	1306.60
877.49	1380.33
877.66	1466.35
877.82	1411.05
877.99	1353.71
878.15	1474.54
878.32	1349.61
878.49	1431.53
878.65	1409.00
878.82	1478.63
878.98	1368.04
879.15	1404.91
879.32	1433.58
879.48	1353.71
879.65	1322.99
879.81	1337.32
879.98	1331.18
880.15	1286.12
880.31	1347.56
880.48	1298.41
880.64	1331.18
880.81	1437.67
880.97	1386.47
881.14	1406.95
881.31	1296.36
881.47	1486.83
881.64	1447.91
881.80	1312.75
881.97	1415.15
882.13	1413.10
882.30	1275.88
882.47	1390.57
882.63	1370.09
882.80	1386.47
882.96	1349.61
883.13	1380.33
883.29	1333.23
883.46	1398.76
883.62	1361.90
883.79	1325.04
883.95	1452.01
884.12	1363.95
884.29	1374.19
884.45	1298.41
884.62	1329.13
884.78	1345.52
884.95	1363.95
885.11	1400.81
885.28	1402.86
885.44	1359.85
885.61	1384.43
885.77	1374.19
885.94	1349.61
886.10	1392.62
886.27	1327.08
886.43	1394.67
886.60	1429.48
886.76	1413.10
886.93	1279.98
887.09	1413.10
887.26	1269.74
887.42	1347.56
887.59	1433.58
887.75	1484.78
887.92	1421.29
888.08	1439.72
888.25	1396.71
888.41	1398.76
888.58	1394.67
888.74	1378.28
888.91	1390.57
>>>>>End Processed Spectral Data<<<<<
