SpectraSuite Data File
++++++++++++++++++++++++++++++++++++
Date: Tue May 03 11:24:23 CEST 2016
User: root
Dark Spectrum Present: No
Reference Spectrum Present: No
Number of Sampled Component Spectra: 1
Spectrometers: USB4C02835
Integration Time (usec): 100000 (USB4C02835)
Spectra Averaged: 1 (USB4C02835)
Boxcar Smoothing: 0 (USB4C02835)
Correct for Electrical Dark: No (USB4C02835)
Strobe/Lamp Enabled: No (USB4C02835)
Correct for Detector Non-linearity: No (USB4C02835)
Correct for Stray Light: No (USB4C02835)
Number of Pixels in Processed Spectrum: 3648
>>>>>Begin Processed Spectral Data<<<<<
177.47	1269.74
177.69	1269.74
177.91	1269.74
178.13	1212.40
178.36	1257.45
178.58	1361.90
178.80	1345.52
179.02	1300.46
179.24	1359.85
179.46	1339.37
179.68	1423.34
179.90	1372.14
180.13	1380.33
180.35	1298.41
180.57	1363.95
180.79	1335.28
181.01	1404.91
181.23	1396.71
181.45	1359.85
181.67	1404.91
181.90	1353.71
182.12	1372.14
182.34	1273.84
182.56	1392.62
182.78	1419.24
183.00	1392.62
183.22	1349.61
183.44	1329.13
183.66	1427.43
183.89	1452.01
184.11	1384.43
184.33	1402.86
184.55	1433.58
184.77	1345.52
184.99	1394.67
185.21	1357.80
185.43	1452.01
185.65	1353.71
185.87	1458.15
186.10	1441.77
186.32	1443.82
186.54	1402.86
186.76	1361.90
186.98	1378.28
187.20	1312.75
187.42	1329.13
187.64	1402.86
187.86	1384.43
188.08	1341.42
188.30	1333.23
188.52	1366.00
188.75	1384.43
188.97	1390.57
189.19	1368.04
189.41	1376.24
189.63	1396.71
189.85	1345.52
190.07	1290.22
190.29	1355.76
190.51	1376.24
190.73	1380.33
190.95	1429.48
191.17	1247.21
191.39	1288.17
191.61	1298.41
191.84	1402.86
192.06	1355.76
192.28	1306.60
192.50	1466.35
192.72	1361.90
192.94	1445.87
193.16	1372.14
193.38	1341.42
193.60	1357.80
193.82	1363.95
194.04	1392.62
194.26	1368.04
194.48	1413.10
194.70	1413.10
194.92	1314.80
195.14	1409.00
195.36	1353.71
195.58	1378.28
195.80	1363.95
196.02	1335.28
196.24	1312.75
196.46	1351.66
196.69	1374.19
196.91	1357.80
197.13	1374.19
197.35	1359.85
197.57	1427.43
197.79	1409.00
198.01	1417.19
198.23	1421.29
198.45	1357.80
198.67	1345.52
198.89	1304.56
199.11	1345.52
199.33	1353.71
199.55	1331.18
199.77	1355.76
199.99	1445.87
200.21	1288.17
200.43	1327.08
200.65	1345.52
200.87	1304.56
201.09	1443.82
201.31	1390.57
201.53	1392.62
201.75	1337.32
201.97	1241.07
202.19	1380.33
202.41	1361.90
202.63	1378.28
202.85	1327.08
203.07	1380.33
203.29	1374.19
203.51	1292.27
203.73	1396.71
203.95	1492.97
204.17	1411.05
204.39	1359.85
204.61	1284.08
204.83	1361.90
205.05	1427.43
205.27	1396.71
205.49	1419.24
205.71	1382.38
205.93	1331.18
206.15	1306.60
206.37	1368.04
206.59	1413.10
206.81	1347.56
207.03	1400.81
207.25	1331.18
207.47	1419.24
207.69	1318.89
207.91	1429.48
208.13	1472.49
208.34	1376.24
208.56	1349.61
208.78	1390.57
209.00	1372.14
209.22	1351.66
209.44	1386.47
209.66	1318.89
209.88	1300.46
210.10	1318.89
210.32	1355.76
210.54	1345.52
210.76	1404.91
210.98	1460.20
211.20	1294.32
211.42	1411.05
211.64	1394.67
211.86	1310.70
212.08	1331.18
212.30	1409.00
212.52	1325.04
212.74	1402.86
212.96	1308.65
213.17	1378.28
213.39	1357.80
213.61	1472.49
213.83	1343.47
214.05	1341.42
214.27	1384.43
214.49	1351.66
214.71	1329.13
214.93	1409.00
215.15	1243.12
215.37	1423.34
215.59	1363.95
215.81	1404.91
216.03	1345.52
216.24	1366.00
216.46	1345.52
216.68	1384.43
216.90	1351.66
217.12	1368.04
217.34	1404.91
217.56	1351.66
217.78	1447.91
218.00	1370.09
218.22	1392.62
218.44	1339.37
218.66	1349.61
218.87	1429.48
219.09	1421.29
219.31	1396.71
219.53	1368.04
219.75	1339.37
219.97	1265.64
220.19	1337.32
220.41	1343.47
220.63	1396.71
220.85	1437.67
221.06	1402.86
221.28	1404.91
221.50	1394.67
221.72	1447.91
221.94	1337.32
222.16	1386.47
222.38	1402.86
222.60	1347.56
222.82	1337.32
223.03	1370.09
223.25	1347.56
223.47	1409.00
223.69	1488.87
223.91	1411.05
224.13	1394.67
224.35	1368.04
224.57	1429.48
224.78	1351.66
225.00	1349.61
225.22	1386.47
225.44	1347.56
225.66	1355.76
225.88	1343.47
226.10	1392.62
226.32	1361.90
226.53	1388.52
226.75	1320.94
226.97	1359.85
227.19	1394.67
227.41	1376.24
227.63	1355.76
227.85	1325.04
228.06	1452.01
228.28	1449.96
228.50	1435.63
228.72	1339.37
228.94	1320.94
229.16	1327.08
229.37	1257.45
229.59	1376.24
229.81	1472.49
230.03	1376.24
230.25	1341.42
230.47	1390.57
230.69	1257.45
230.90	1363.95
231.12	1376.24
231.34	1388.52
231.56	1327.08
231.78	1327.08
232.00	1378.28
232.21	1339.37
232.43	1384.43
232.65	1294.32
232.87	1394.67
233.09	1347.56
233.30	1392.62
233.52	1433.58
233.74	1353.71
233.96	1312.75
234.18	1376.24
234.40	1355.76
234.61	1447.91
234.83	1318.89
235.05	1275.88
235.27	1492.97
235.49	1394.67
235.70	1431.53
235.92	1437.67
236.14	1368.04
236.36	1409.00
236.58	1363.95
236.79	1390.57
237.01	1343.47
237.23	1292.27
237.45	1423.34
237.67	1329.13
237.88	1361.90
238.10	1392.62
238.32	1372.14
238.54	1376.24
238.76	1384.43
238.97	1339.37
239.19	1363.95
239.41	1376.24
239.63	1431.53
239.85	1325.04
240.06	1380.33
240.28	1388.52
240.50	1329.13
240.72	1370.09
240.93	1388.52
241.15	1421.29
241.37	1333.23
241.59	1384.43
241.81	1325.04
242.02	1333.23
242.24	1370.09
242.46	1380.33
242.68	1343.47
242.89	1388.52
243.11	1384.43
243.33	1320.94
243.55	1388.52
243.76	1347.56
243.98	1296.36
244.20	1304.56
244.42	1318.89
244.64	1484.78
244.85	1245.16
245.07	1456.11
245.29	1349.61
245.51	1437.67
245.72	1361.90
245.94	1361.90
246.16	1427.43
246.38	1439.72
246.59	1275.88
246.81	1284.08
247.03	1327.08
247.24	1284.08
247.46	1308.65
247.68	1386.47
247.90	1417.19
248.11	1345.52
248.33	1386.47
248.55	1380.33
248.77	1409.00
248.98	1394.67
249.20	1331.18
249.42	1390.57
249.64	1380.33
249.85	1380.33
250.07	1343.47
250.29	1318.89
250.50	1357.80
250.72	1394.67
250.94	1361.90
251.16	1431.53
251.37	1361.90
251.59	1492.97
251.81	1388.52
252.02	1378.28
252.24	1349.61
252.46	1460.20
252.68	1343.47
252.89	1347.56
253.11	1322.99
253.33	1437.67
253.54	1396.71
253.76	1318.89
253.98	1351.66
254.20	1366.00
254.41	1316.84
254.63	1355.76
254.85	1329.13
255.06	1386.47
255.28	1339.37
255.50	1349.61
255.71	1329.13
255.93	1331.18
256.15	1359.85
256.36	1335.28
256.58	1298.41
256.80	1441.77
257.02	1417.19
257.23	1331.18
257.45	1419.24
257.67	1411.05
257.88	1265.64
258.10	1345.52
258.32	1374.19
258.53	1392.62
258.75	1425.39
258.97	1388.52
259.18	1361.90
259.40	1341.42
259.62	1445.87
259.83	1404.91
260.05	1419.24
260.27	1558.50
260.48	1406.95
260.70	1357.80
260.92	1286.12
261.13	1370.09
261.35	1368.04
261.57	1351.66
261.78	1279.98
262.00	1286.12
262.22	1413.10
262.43	1331.18
262.65	1394.67
262.86	1347.56
263.08	1388.52
263.30	1361.90
263.51	1359.85
263.73	1396.71
263.95	1333.23
264.16	1394.67
264.38	1271.79
264.60	1347.56
264.81	1386.47
265.03	1335.28
265.25	1409.00
265.46	1310.70
265.68	1396.71
265.89	1382.38
266.11	1312.75
266.33	1339.37
266.54	1343.47
266.76	1400.81
266.98	1368.04
267.19	1495.02
267.41	1380.33
267.62	1349.61
267.84	1322.99
268.06	1335.28
268.27	1363.95
268.49	1417.19
268.70	1406.95
268.92	1298.41
269.14	1288.17
269.35	1370.09
269.57	1409.00
269.79	1427.43
270.00	1314.80
270.22	1386.47
270.43	1329.13
270.65	1273.84
270.87	1341.42
271.08	1404.91
271.30	1349.61
271.51	1370.09
271.73	1368.04
271.95	1376.24
272.16	1288.17
272.38	1302.51
272.59	1335.28
272.81	1370.09
273.02	1404.91
273.24	1406.95
273.46	1402.86
273.67	1279.98
273.89	1341.42
274.10	1409.00
274.32	1394.67
274.54	1339.37
274.75	1316.84
274.97	1382.38
275.18	1363.95
275.40	1374.19
275.61	1392.62
275.83	1462.25
276.05	1294.32
276.26	1349.61
276.48	1452.01
276.69	1355.76
276.91	1378.28
277.12	1376.24
277.34	1490.92
277.55	1421.29
277.77	1419.24
277.99	1347.56
278.20	1370.09
278.42	1325.04
278.63	1322.99
278.85	1322.99
279.06	1316.84
279.28	1388.52
279.49	1374.19
279.71	1445.87
279.93	1339.37
280.14	1337.32
280.36	1372.14
280.57	1439.72
280.79	1433.58
281.00	1382.38
281.22	1329.13
281.43	1361.90
281.65	1261.55
281.86	1341.42
282.08	1316.84
282.29	1497.07
282.51	1359.85
282.73	1279.98
282.94	1404.91
283.16	1456.11
283.37	1376.24
283.59	1394.67
283.80	1374.19
284.02	1284.08
284.23	1390.57
284.45	1310.70
284.66	1374.19
284.88	1353.71
285.09	1333.23
285.31	1392.62
285.52	1445.87
285.74	1355.76
285.95	1419.24
286.17	1366.00
286.38	1423.34
286.60	1345.52
286.81	1314.80
287.03	1376.24
287.24	1316.84
287.46	1398.76
287.67	1409.00
287.89	1431.53
288.10	1388.52
288.32	1370.09
288.53	1454.06
288.75	1374.19
288.96	1417.19
289.18	1423.34
289.39	1331.18
289.61	1417.19
289.82	1415.15
290.04	1425.39
290.25	1353.71
290.47	1347.56
290.68	1312.75
290.90	1331.18
291.11	1345.52
291.33	1359.85
291.54	1366.00
291.76	1355.76
291.97	1304.56
292.18	1423.34
292.40	1394.67
292.61	1343.47
292.83	1402.86
293.04	1314.80
293.26	1460.20
293.47	1406.95
293.69	1394.67
293.90	1378.28
294.12	1384.43
294.33	1388.52
294.55	1368.04
294.76	1359.85
294.97	1374.19
295.19	1486.83
295.40	1402.86
295.62	1386.47
295.83	1462.25
296.05	1380.33
296.26	1417.19
296.48	1347.56
296.69	1320.94
296.90	1337.32
297.12	1404.91
297.33	1322.99
297.55	1282.03
297.76	1396.71
297.98	1419.24
298.19	1333.23
298.41	1366.00
298.62	1271.79
298.83	1368.04
299.05	1306.60
299.26	1333.23
299.48	1355.76
299.69	1394.67
299.90	1349.61
300.12	1312.75
300.33	1404.91
300.55	1320.94
300.76	1363.95
300.98	1337.32
301.19	1359.85
301.40	1359.85
301.62	1339.37
301.83	1372.14
302.05	1400.81
302.26	1400.81
302.47	1376.24
302.69	1273.84
302.90	1308.65
303.12	1327.08
303.33	1415.15
303.54	1452.01
303.76	1376.24
303.97	1370.09
304.19	1353.71
304.40	1335.28
304.61	1361.90
304.83	1394.67
305.04	1454.06
305.26	1300.46
305.47	1337.32
305.68	1445.87
305.90	1314.80
306.11	1433.58
306.33	1400.81
306.54	1392.62
306.75	1302.51
306.97	1400.81
307.18	1345.52
307.39	1351.66
307.61	1425.39
307.82	1431.53
308.04	1384.43
308.25	1316.84
308.46	1325.04
308.68	1329.13
308.89	1378.28
309.10	1380.33
309.32	1355.76
309.53	1339.37
309.74	1366.00
309.96	1349.61
310.17	1546.22
310.39	1394.67
310.60	1402.86
310.81	1402.86
311.03	1351.66
311.24	1359.85
311.45	1351.66
311.67	1423.34
311.88	1402.86
312.09	1306.60
312.31	1329.13
312.52	1322.99
312.73	1378.28
312.95	1370.09
313.16	1347.56
313.37	1439.72
313.59	1351.66
313.80	1417.19
314.01	1396.71
314.23	1366.00
314.44	1312.75
314.65	1339.37
314.87	1284.08
315.08	1318.89
315.29	1331.18
315.51	1304.56
315.72	1366.00
315.93	1374.19
316.15	1396.71
316.36	1400.81
316.57	1349.61
316.79	1406.95
317.00	1335.28
317.21	1404.91
317.43	1353.71
317.64	1378.28
317.85	1370.09
318.07	1392.62
318.28	1546.22
318.49	1552.36
318.70	1585.13
318.92	1501.16
319.13	1492.97
319.34	1474.54
319.56	1501.16
319.77	1540.07
319.98	1486.83
320.20	1423.34
320.41	1419.24
320.62	1443.82
320.83	1419.24
321.05	1472.49
321.26	1449.96
321.47	1437.67
321.69	1441.77
321.90	1357.80
322.11	1370.09
322.32	1384.43
322.54	1411.05
322.75	1380.33
322.96	1404.91
323.18	1415.15
323.39	1318.89
323.60	1370.09
323.81	1359.85
324.03	1366.00
324.24	1423.34
324.45	1374.19
324.66	1382.38
324.88	1433.58
325.09	1456.11
325.30	1351.66
325.52	1388.52
325.73	1452.01
325.94	1288.17
326.15	1318.89
326.37	1355.76
326.58	1384.43
326.79	1343.47
327.00	1339.37
327.22	1382.38
327.43	1337.32
327.64	1277.93
327.85	1357.80
328.07	1398.76
328.28	1388.52
328.49	1353.71
328.70	1413.10
328.92	1312.75
329.13	1361.90
329.34	1388.52
329.55	1449.96
329.76	1435.63
329.98	1396.71
330.19	1470.44
330.40	1370.09
330.61	1370.09
330.83	1335.28
331.04	1341.42
331.25	1304.56
331.46	1320.94
331.68	1318.89
331.89	1419.24
332.10	1447.91
332.31	1372.14
332.52	1382.38
332.74	1411.05
332.95	1300.46
333.16	1398.76
333.37	1343.47
333.58	1308.65
333.80	1347.56
334.01	1320.94
334.22	1411.05
334.43	1282.03
334.64	1349.61
334.86	1273.84
335.07	1312.75
335.28	1386.47
335.49	1282.03
335.70	1435.63
335.92	1398.76
336.13	1490.92
336.34	1380.33
336.55	1425.39
336.76	1380.33
336.98	1347.56
337.19	1366.00
337.40	1341.42
337.61	1363.95
337.82	1349.61
338.04	1351.66
338.25	1282.03
338.46	1335.28
338.67	1353.71
338.88	1329.13
339.09	1288.17
339.31	1300.46
339.52	1343.47
339.73	1368.04
339.94	1308.65
340.15	1394.67
340.36	1400.81
340.58	1318.89
340.79	1361.90
341.00	1366.00
341.21	1300.46
341.42	1296.36
341.63	1378.28
341.85	1374.19
342.06	1411.05
342.27	1382.38
342.48	1386.47
342.69	1396.71
342.90	1396.71
343.12	1376.24
343.33	1386.47
343.54	1392.62
343.75	1361.90
343.96	1316.84
344.17	1353.71
344.38	1308.65
344.60	1355.76
344.81	1378.28
345.02	1415.15
345.23	1427.43
345.44	1400.81
345.65	1316.84
345.86	1372.14
346.07	1347.56
346.29	1339.37
346.50	1339.37
346.71	1456.11
346.92	1480.68
347.13	1413.10
347.34	1343.47
347.55	1361.90
347.76	1304.56
347.98	1279.98
348.19	1409.00
348.40	1384.43
348.61	1322.99
348.82	1320.94
349.03	1439.72
349.24	1366.00
349.45	1386.47
349.66	1357.80
349.88	1343.47
350.09	1386.47
350.30	1431.53
350.51	1404.91
350.72	1404.91
350.93	1429.48
351.14	1406.95
351.35	1445.87
351.56	1376.24
351.77	1370.09
351.99	1353.71
352.20	1435.63
352.41	1415.15
352.62	1359.85
352.83	1394.67
353.04	1298.41
353.25	1294.32
353.46	1417.19
353.67	1316.84
353.88	1308.65
354.09	1376.24
354.30	1421.29
354.52	1406.95
354.73	1347.56
354.94	1325.04
355.15	1394.67
355.36	1462.25
355.57	1327.08
355.78	1302.51
355.99	1357.80
356.20	1359.85
356.41	1345.52
356.62	1404.91
356.83	1314.80
357.04	1359.85
357.25	1247.21
357.46	1355.76
357.68	1327.08
357.89	1308.65
358.10	1396.71
358.31	1341.42
358.52	1406.95
358.73	1316.84
358.94	1327.08
359.15	1370.09
359.36	1390.57
359.57	1400.81
359.78	1347.56
359.99	1366.00
360.20	1331.18
360.41	1406.95
360.62	1425.39
360.83	1359.85
361.04	1404.91
361.25	1335.28
361.46	1423.34
361.67	1339.37
361.88	1406.95
362.09	1380.33
362.30	1445.87
362.51	1388.52
362.72	1339.37
362.93	1370.09
363.14	1390.57
363.35	1378.28
363.56	1255.40
363.78	1376.24
363.99	1466.35
364.20	1310.70
364.41	1355.76
364.62	1409.00
364.83	1386.47
365.04	1376.24
365.25	1370.09
365.46	1363.95
365.67	1363.95
365.88	1337.32
366.09	1374.19
366.30	1327.08
366.51	1394.67
366.72	1353.71
366.93	1331.18
367.14	1335.28
367.35	1411.05
367.56	1382.38
367.77	1345.52
367.98	1376.24
368.18	1394.67
368.39	1333.23
368.60	1366.00
368.81	1425.39
369.02	1411.05
369.23	1427.43
369.44	1370.09
369.65	1355.76
369.86	1406.95
370.07	1474.54
370.28	1394.67
370.49	1423.34
370.70	1439.72
370.91	1306.60
371.12	1376.24
371.33	1396.71
371.54	1333.23
371.75	1464.30
371.96	1353.71
372.17	1384.43
372.38	1390.57
372.59	1351.66
372.80	1308.65
373.01	1374.19
373.22	1388.52
373.43	1378.28
373.64	1329.13
373.85	1433.58
374.06	1396.71
374.26	1406.95
374.47	1396.71
374.68	1398.76
374.89	1421.29
375.10	1406.95
375.31	1452.01
375.52	1349.61
375.73	1398.76
375.94	1392.62
376.15	1415.15
376.36	1304.56
376.57	1396.71
376.78	1384.43
376.99	1411.05
377.20	1411.05
377.40	1392.62
377.61	1439.72
377.82	1378.28
378.03	1429.48
378.24	1366.00
378.45	1357.80
378.66	1480.68
378.87	1333.23
379.08	1318.89
379.29	1325.04
379.50	1492.97
379.71	1286.12
379.91	1454.06
380.12	1384.43
380.33	1398.76
380.54	1361.90
380.75	1298.41
380.96	1333.23
381.17	1460.20
381.38	1517.54
381.59	1490.92
381.80	1435.63
382.00	1470.44
382.21	1388.52
382.42	1474.54
382.63	1531.88
382.84	1419.24
383.05	1363.95
383.26	1445.87
383.47	1359.85
383.68	1435.63
383.88	1437.67
384.09	1419.24
384.30	1402.86
384.51	1339.37
384.72	1361.90
384.93	1406.95
385.14	1390.57
385.35	1486.83
385.55	1368.04
385.76	1468.39
385.97	1380.33
386.18	1363.95
386.39	1347.56
386.60	1449.96
386.81	1372.14
387.02	1343.47
387.22	1370.09
387.43	1456.11
387.64	1560.55
387.85	2363.36
388.06	5758.89
388.27	9607.02
388.48	11654.99
388.68	13334.32
388.89	13332.28
389.10	10606.43
389.31	9281.39
389.52	8515.45
389.73	7370.64
389.93	6897.56
390.14	6432.67
390.35	6203.30
390.56	5445.55
390.77	4489.15
390.98	3741.64
391.18	2795.48
391.39	2111.46
391.60	1679.33
391.81	1621.99
392.02	1398.76
392.23	1386.47
392.43	1447.91
392.64	1435.63
392.85	1404.91
393.06	1372.14
393.27	1406.95
393.47	1361.90
393.68	1368.04
393.89	1353.71
394.10	1409.00
394.31	1390.57
394.52	1349.61
394.72	1290.22
394.93	1413.10
395.14	1351.66
395.35	1415.15
395.56	1374.19
395.76	1470.44
395.97	1533.93
396.18	1605.61
396.39	1630.18
396.60	1638.38
396.80	1505.26
397.01	1527.78
397.22	1492.97
397.43	1478.63
397.64	1462.25
397.84	1558.50
398.05	1507.30
398.26	1413.10
398.47	1392.62
398.67	1425.39
398.88	1458.15
399.09	1458.15
399.30	1392.62
399.51	1421.29
399.71	1329.13
399.92	1472.49
400.13	1384.43
400.34	1355.76
400.54	1384.43
400.75	1464.30
400.96	1351.66
401.17	1417.19
401.37	1368.04
401.58	1398.76
401.79	1581.03
402.00	1695.72
402.21	1845.22
402.41	1806.31
402.62	1820.64
402.83	1757.16
403.04	1654.76
403.24	1724.39
403.45	1574.89
403.66	1509.35
403.87	1535.98
404.07	1560.55
404.28	1574.89
404.49	1626.09
404.70	1503.21
404.90	1488.87
405.11	1388.52
405.32	1390.57
405.52	1400.81
405.73	1339.37
405.94	1351.66
406.15	1347.56
406.35	1355.76
406.56	1337.32
406.77	1417.19
406.98	1353.71
407.18	1331.18
407.39	1406.95
407.60	1433.58
407.80	1447.91
408.01	1388.52
408.22	1425.39
408.43	1363.95
408.63	1431.53
408.84	1415.15
409.05	1423.34
409.25	1308.65
409.46	1366.00
409.67	1335.28
409.88	1316.84
410.08	1445.87
410.29	1325.04
410.50	1376.24
410.70	1390.57
410.91	1394.67
411.12	1372.14
411.32	1425.39
411.53	1394.67
411.74	1484.78
411.95	1468.39
412.15	1396.71
412.36	1425.39
412.57	1431.53
412.77	1486.83
412.98	1337.32
413.19	1368.04
413.39	1388.52
413.60	1419.24
413.81	1396.71
414.01	1343.47
414.22	1363.95
414.43	1435.63
414.63	1370.09
414.84	1384.43
415.05	1423.34
415.25	1351.66
415.46	1458.15
415.67	1312.75
415.87	1351.66
416.08	1351.66
416.29	1357.80
416.49	1443.82
416.70	1400.81
416.91	1394.67
417.11	1343.47
417.32	1376.24
417.53	1413.10
417.73	1409.00
417.94	1363.95
418.15	1402.86
418.35	1386.47
418.56	1388.52
418.77	1538.02
418.97	1335.28
419.18	1372.14
419.38	1308.65
419.59	1335.28
419.80	1402.86
420.00	1372.14
420.21	1419.24
420.42	1476.59
420.62	1320.94
420.83	1380.33
421.04	1331.18
421.24	1390.57
421.45	1345.52
421.65	1441.77
421.86	1282.03
422.07	1468.39
422.27	1370.09
422.48	1335.28
422.69	1296.36
422.89	1337.32
423.10	1409.00
423.30	1308.65
423.51	1294.32
423.72	1425.39
423.92	1413.10
424.13	1308.65
424.33	1396.71
424.54	1447.91
424.75	1398.76
424.95	1495.02
425.16	1357.80
425.36	1357.80
425.57	1409.00
425.78	1359.85
425.98	1402.86
426.19	1302.51
426.39	1335.28
426.60	1398.76
426.81	1374.19
427.01	1384.43
427.22	1302.51
427.42	1366.00
427.63	1445.87
427.83	1329.13
428.04	1474.54
428.25	1458.15
428.45	1433.58
428.66	1415.15
428.86	1322.99
429.07	1355.76
429.28	1374.19
429.48	1353.71
429.69	1370.09
429.89	1406.95
430.10	1339.37
430.30	1366.00
430.51	1388.52
430.71	1374.19
430.92	1357.80
431.13	1376.24
431.33	1380.33
431.54	1380.33
431.74	1390.57
431.95	1468.39
432.15	1376.24
432.36	1318.89
432.56	1409.00
432.77	1462.25
432.98	1447.91
433.18	1413.10
433.39	1378.28
433.59	1345.52
433.80	1447.91
434.00	1447.91
434.21	1396.71
434.41	1314.80
434.62	1460.20
434.82	1361.90
435.03	1335.28
435.23	1355.76
435.44	1271.79
435.64	1386.47
435.85	1322.99
436.06	1396.71
436.26	1392.62
436.47	1366.00
436.67	1460.20
436.88	1359.85
437.08	1396.71
437.29	1452.01
437.49	1409.00
437.70	1449.96
437.90	1503.21
438.11	1527.78
438.31	1593.32
438.52	1544.17
438.72	1548.26
438.93	1556.46
439.13	1456.11
439.34	1384.43
439.54	1445.87
439.75	1415.15
439.95	1495.02
440.16	1372.14
440.36	1501.16
440.57	1380.33
440.77	1390.57
440.98	1374.19
441.18	1380.33
441.39	1302.51
441.59	1386.47
441.80	1415.15
442.00	1359.85
442.21	1427.43
442.41	1251.31
442.62	1441.77
442.82	1386.47
443.02	1419.24
443.23	1441.77
443.43	1396.71
443.64	1402.86
443.84	1359.85
444.05	1402.86
444.25	1417.19
444.46	1374.19
444.66	1370.09
444.87	1433.58
445.07	1341.42
445.28	1413.10
445.48	1458.15
445.69	1484.78
445.89	1527.78
446.09	1470.44
446.30	2338.78
446.50	3770.31
446.71	4710.33
446.91	5347.25
447.12	5576.62
447.32	5003.19
447.53	4130.75
447.73	3856.33
447.93	3387.34
448.14	3221.45
448.34	3063.76
448.55	2869.20
448.75	2820.05
448.96	2707.41
449.16	2389.98
449.36	2142.18
449.57	1927.14
449.77	1740.77
449.98	1490.92
450.18	1413.10
450.39	1423.34
450.59	1427.43
450.79	1480.68
451.00	1353.71
451.20	1394.67
451.41	1320.94
451.61	1411.05
451.81	1449.96
452.02	1376.24
452.22	1312.75
452.43	1363.95
452.63	1404.91
452.84	1398.76
453.04	1312.75
453.24	1380.33
453.45	1454.06
453.65	1392.62
453.86	1370.09
454.06	1357.80
454.26	1427.43
454.47	1339.37
454.67	1464.30
454.87	1392.62
455.08	1380.33
455.28	1421.29
455.49	1386.47
455.69	1376.24
455.89	1406.95
456.10	1435.63
456.30	1400.81
456.51	1394.67
456.71	1380.33
456.91	1423.34
457.12	1368.04
457.32	1411.05
457.52	1343.47
457.73	1433.58
457.93	1380.33
458.14	1304.56
458.34	1333.23
458.54	1288.17
458.75	1411.05
458.95	1380.33
459.15	1474.54
459.36	1331.18
459.56	1386.47
459.76	1429.48
459.97	1429.48
460.17	1409.00
460.37	1370.09
460.58	1339.37
460.78	1427.43
460.99	1372.14
461.19	1400.81
461.39	1380.33
461.60	1382.38
461.80	1439.72
462.00	1298.41
462.21	1449.96
462.41	1312.75
462.61	1394.67
462.82	1290.22
463.02	1482.73
463.22	1443.82
463.43	1441.77
463.63	1374.19
463.83	1386.47
464.04	1400.81
464.24	1396.71
464.44	1327.08
464.64	1353.71
464.85	1380.33
465.05	1376.24
465.25	1433.58
465.46	1357.80
465.66	1376.24
465.86	1331.18
466.07	1411.05
466.27	1380.33
466.47	1392.62
466.68	1302.51
466.88	1445.87
467.08	1406.95
467.29	1468.39
467.49	1427.43
467.69	1417.19
467.89	1415.15
468.10	1327.08
468.30	1386.47
468.50	1404.91
468.71	1396.71
468.91	1341.42
469.11	1452.01
469.31	1376.24
469.52	1292.27
469.72	1425.39
469.92	1458.15
470.13	1404.91
470.33	1445.87
470.53	1611.75
470.73	2101.22
470.94	2176.99
471.14	2211.81
471.34	2424.80
471.54	2156.51
471.75	2093.02
471.95	1947.62
472.15	1798.12
472.36	1820.64
472.56	1796.07
472.76	1728.49
472.96	1681.38
473.17	1703.91
473.37	1648.61
473.57	1638.38
473.77	1449.96
473.98	1392.62
474.18	1507.30
474.38	1531.88
474.58	1366.00
474.79	1273.84
474.99	1415.15
475.19	1406.95
475.39	1322.99
475.60	1396.71
475.80	1392.62
476.00	1300.46
476.20	1353.71
476.41	1382.38
476.61	1417.19
476.81	1454.06
477.01	1339.37
477.21	1460.20
477.42	1431.53
477.62	1380.33
477.82	1490.92
478.02	1441.77
478.23	1413.10
478.43	1286.12
478.63	1406.95
478.83	1327.08
479.03	1380.33
479.24	1300.46
479.44	1501.16
479.64	1380.33
479.84	1361.90
480.04	1294.32
480.25	1441.77
480.45	1378.28
480.65	1292.27
480.85	1441.77
481.06	1386.47
481.26	1370.09
481.46	1363.95
481.66	1460.20
481.86	1370.09
482.06	1441.77
482.27	1370.09
482.47	1392.62
482.67	1366.00
482.87	1357.80
483.07	1441.77
483.28	1353.71
483.48	1322.99
483.68	1386.47
483.88	1310.70
484.08	1349.61
484.29	1372.14
484.49	1427.43
484.69	1382.38
484.89	1423.34
485.09	1415.15
485.29	1363.95
485.50	1396.71
485.70	1345.52
485.90	1456.11
486.10	1400.81
486.30	1378.28
486.50	1419.24
486.71	1345.52
486.91	1353.71
487.11	1402.86
487.31	1345.52
487.51	1437.67
487.71	1335.28
487.91	1314.80
488.12	1269.74
488.32	1234.93
488.52	1349.61
488.72	1378.28
488.92	1329.13
489.12	1447.91
489.32	1359.85
489.53	1474.54
489.73	1376.24
489.93	1447.91
490.13	1431.53
490.33	1441.77
490.53	1359.85
490.73	1392.62
490.94	1366.00
491.14	1495.02
491.34	1605.61
491.54	2142.18
491.74	2506.71
491.94	2969.55
492.14	3151.82
492.34	2965.46
492.54	2586.58
492.75	2308.06
492.95	2269.15
493.15	1974.24
493.35	2007.01
493.55	1937.38
493.75	1904.61
493.95	1847.27
494.15	1771.49
494.35	1714.15
494.56	1535.98
494.76	1548.26
494.96	1458.15
495.16	1513.45
495.36	1359.85
495.56	1349.61
495.76	1421.29
495.96	1406.95
496.16	1384.43
496.36	1441.77
496.56	1329.13
496.77	1409.00
496.97	1417.19
497.17	1435.63
497.37	1361.90
497.57	1423.34
497.77	1347.56
497.97	1351.66
498.17	1363.95
498.37	1384.43
498.57	1409.00
498.77	1372.14
498.97	1441.77
499.17	1486.83
499.38	1325.04
499.58	1359.85
499.78	1370.09
499.98	1445.87
500.18	1447.91
500.38	1447.91
500.58	1724.39
500.78	3024.85
500.98	5636.01
501.18	6907.80
501.38	8179.59
501.58	8624.00
501.78	7276.43
501.98	5875.62
502.18	5078.96
502.38	4497.34
502.58	4132.80
502.78	3741.64
502.98	3600.33
503.18	3493.83
503.38	3364.81
503.59	2992.08
503.79	2842.58
503.99	2658.26
504.19	2375.64
504.39	2158.56
504.59	2004.96
504.79	1933.28
504.99	1808.36
505.19	1615.85
505.39	1509.35
505.59	1560.55
505.79	1523.69
505.99	1542.12
506.19	1468.39
506.39	1595.37
506.59	1443.82
506.79	1441.77
506.99	1521.64
507.19	1449.96
507.39	1439.72
507.59	1355.76
507.79	1390.57
507.99	1376.24
508.19	1339.37
508.39	1337.32
508.59	1376.24
508.79	1411.05
508.99	1433.58
509.19	1335.28
509.39	1396.71
509.59	1378.28
509.79	1275.88
509.99	1335.28
510.19	1439.72
510.39	1394.67
510.59	1484.78
510.79	1314.80
510.99	1396.71
511.19	1390.57
511.39	1368.04
511.59	1423.34
511.79	1382.38
511.99	1329.13
512.19	1368.04
512.38	1374.19
512.58	1247.21
512.78	1355.76
512.98	1495.02
513.18	1396.71
513.38	1322.99
513.58	1409.00
513.78	1357.80
513.98	1427.43
514.18	1411.05
514.38	1310.70
514.58	1400.81
514.78	1380.33
514.98	1382.38
515.18	1347.56
515.38	1355.76
515.58	1478.63
515.78	1349.61
515.98	1449.96
516.18	1419.24
516.38	1320.94
516.57	1366.00
516.77	1492.97
516.97	1411.05
517.17	1390.57
517.37	1331.18
517.57	1345.52
517.77	1396.71
517.97	1339.37
518.17	1433.58
518.37	1347.56
518.57	1343.47
518.77	1406.95
518.97	1409.00
519.16	1368.04
519.36	1396.71
519.56	1357.80
519.76	1331.18
519.96	1335.28
520.16	1413.10
520.36	1355.76
520.56	1452.01
520.76	1298.41
520.96	1312.75
521.16	1456.11
521.35	1339.37
521.55	1347.56
521.75	1402.86
521.95	1415.15
522.15	1388.52
522.35	1374.19
522.55	1398.76
522.75	1384.43
522.95	1357.80
523.14	1302.51
523.34	1437.67
523.54	1312.75
523.74	1402.86
523.94	1390.57
524.14	1312.75
524.34	1366.00
524.54	1419.24
524.73	1394.67
524.93	1351.66
525.13	1404.91
525.33	1396.71
525.53	1462.25
525.73	1366.00
525.93	1396.71
526.13	1341.42
526.32	1363.95
526.52	1388.52
526.72	1378.28
526.92	1312.75
527.12	1366.00
527.32	1329.13
527.52	1302.51
527.71	1398.76
527.91	1390.57
528.11	1380.33
528.31	1376.24
528.51	1384.43
528.71	1343.47
528.90	1357.80
529.10	1441.77
529.30	1392.62
529.50	1271.79
529.70	1445.87
529.90	1335.28
530.09	1406.95
530.29	1368.04
530.49	1322.99
530.69	1525.74
530.89	1329.13
531.09	1390.57
531.28	1376.24
531.48	1435.63
531.68	1370.09
531.88	1429.48
532.08	1404.91
532.28	1339.37
532.47	1431.53
532.67	1419.24
532.87	1378.28
533.07	1343.47
533.27	1402.86
533.46	1495.02
533.66	1400.81
533.86	1472.49
534.06	1386.47
534.26	1423.34
534.45	1417.19
534.65	1429.48
534.85	1366.00
535.05	1312.75
535.25	1372.14
535.44	1296.36
535.64	1372.14
535.84	1400.81
536.04	1443.82
536.24	1310.70
536.43	1376.24
536.63	1394.67
536.83	1396.71
537.03	1320.94
537.22	1351.66
537.42	1331.18
537.62	1392.62
537.82	1290.22
538.02	1409.00
538.21	1378.28
538.41	1505.26
538.61	1400.81
538.81	1304.56
539.00	1449.96
539.20	1361.90
539.40	1329.13
539.60	1359.85
539.79	1415.15
539.99	1402.86
540.19	1415.15
540.39	1386.47
540.58	1429.48
540.78	1406.95
540.98	1406.95
541.18	1402.86
541.37	1402.86
541.57	1431.53
541.77	1361.90
541.97	1343.47
542.16	1304.56
542.36	1351.66
542.56	1372.14
542.76	1462.25
542.95	1437.67
543.15	1396.71
543.35	1443.82
543.54	1302.51
543.74	1347.56
543.94	1462.25
544.14	1331.18
544.33	1363.95
544.53	1282.03
544.73	1376.24
544.93	1413.10
545.12	1343.47
545.32	1337.32
545.52	1368.04
545.71	1353.71
545.91	1273.84
546.11	1263.60
546.30	1316.84
546.50	1396.71
546.70	1368.04
546.90	1382.38
547.09	1341.42
547.29	1339.37
547.49	1425.39
547.68	1392.62
547.88	1400.81
548.08	1427.43
548.27	1585.13
548.47	1398.76
548.67	1388.52
548.87	1359.85
549.06	1353.71
549.26	1478.63
549.46	1300.46
549.65	1314.80
549.85	1302.51
550.05	1404.91
550.24	1388.52
550.44	1318.89
550.64	1292.27
550.83	1423.34
551.03	1351.66
551.23	1417.19
551.42	1490.92
551.62	1306.60
551.82	1411.05
552.01	1327.08
552.21	1431.53
552.41	1339.37
552.60	1433.58
552.80	1406.95
553.00	1359.85
553.19	1331.18
553.39	1378.28
553.59	1353.71
553.78	1388.52
553.98	1363.95
554.17	1288.17
554.37	1458.15
554.57	1368.04
554.76	1384.43
554.96	1427.43
555.16	1466.35
555.35	1400.81
555.55	1484.78
555.75	1345.52
555.94	1390.57
556.14	1347.56
556.33	1388.52
556.53	1355.76
556.73	1341.42
556.92	1396.71
557.12	1437.67
557.32	1441.77
557.51	1347.56
557.71	1370.09
557.90	1452.01
558.10	1394.67
558.30	1366.00
558.49	1355.76
558.69	1417.19
558.88	1335.28
559.08	1376.24
559.28	1374.19
559.47	1359.85
559.67	1427.43
559.86	1380.33
560.06	1445.87
560.26	1384.43
560.45	1406.95
560.65	1435.63
560.84	1415.15
561.04	1327.08
561.24	1398.76
561.43	1425.39
561.63	1429.48
561.82	1339.37
562.02	1382.38
562.22	1333.23
562.41	1390.57
562.61	1345.52
562.80	1355.76
563.00	1478.63
563.19	1398.76
563.39	1402.86
563.59	1355.76
563.78	1386.47
563.98	1300.46
564.17	1363.95
564.37	1343.47
564.56	1314.80
564.76	1318.89
564.96	1380.33
565.15	1359.85
565.35	1413.10
565.54	1398.76
565.74	1447.91
565.93	1406.95
566.13	1443.82
566.32	1458.15
566.52	1458.15
566.71	1390.57
566.91	1454.06
567.11	1261.55
567.30	1363.95
567.50	1392.62
567.69	1351.66
567.89	1304.56
568.08	1398.76
568.28	1372.14
568.47	1331.18
568.67	1361.90
568.86	1353.71
569.06	1482.73
569.25	1380.33
569.45	1359.85
569.64	1380.33
569.84	1341.42
570.04	1433.58
570.23	1359.85
570.43	1378.28
570.62	1351.66
570.82	1343.47
571.01	1339.37
571.21	1372.14
571.40	1370.09
571.60	1411.05
571.79	1433.58
571.99	1462.25
572.18	1374.19
572.38	1398.76
572.57	1413.10
572.77	1433.58
572.96	1449.96
573.16	1433.58
573.35	1437.67
573.55	1419.24
573.74	1327.08
573.94	1337.32
574.13	1390.57
574.33	1435.63
574.52	1470.44
574.71	1388.52
574.91	1409.00
575.10	1398.76
575.30	1425.39
575.49	1363.95
575.69	1368.04
575.88	1404.91
576.08	1488.87
576.27	1429.48
576.47	1394.67
576.66	1527.78
576.86	1433.58
577.05	1517.54
577.25	1390.57
577.44	1427.43
577.64	1423.34
577.83	1544.17
578.02	1411.05
578.22	1488.87
578.41	1525.74
578.61	1431.53
578.80	1363.95
579.00	1439.72
579.19	1431.53
579.39	1402.86
579.58	1460.20
579.77	1421.29
579.97	1560.55
580.16	1482.73
580.36	1531.88
580.55	1601.51
580.75	1441.77
580.94	1374.19
581.13	1505.26
581.33	1507.30
581.52	1433.58
581.72	1464.30
581.91	1523.69
582.11	1447.91
582.30	1439.72
582.49	1419.24
582.69	1488.87
582.88	1425.39
583.08	1398.76
583.27	1564.65
583.47	1449.96
583.66	1415.15
583.85	1357.80
584.05	1421.29
584.24	1484.78
584.44	1437.67
584.63	1517.54
584.82	1597.42
585.02	1597.42
585.21	1544.17
585.41	1556.46
585.60	1560.55
585.79	1667.05
585.99	1576.94
586.18	1601.51
586.37	1972.19
586.57	2662.36
586.76	7798.66
586.96	24409.74
587.15	41344.39
587.34	52430.05
587.54	60023.92
587.73	59122.81
587.93	44830.04
588.12	32892.43
588.31	26443.37
588.51	22535.85
588.70	19969.74
588.89	18347.75
589.09	17325.82
589.28	15875.85
589.47	14186.28
589.67	12539.71
589.86	10456.93
590.06	8617.85
590.25	6573.98
590.44	4921.27
590.64	3780.55
590.83	2840.53
591.02	2256.86
591.22	1923.04
591.41	1818.60
591.60	1662.95
591.80	1529.83
591.99	1566.70
592.18	1419.24
592.38	1458.15
592.57	1478.63
592.76	1478.63
592.96	1396.71
593.15	1406.95
593.34	1452.01
593.54	1400.81
593.73	1421.29
593.92	1435.63
594.12	1394.67
594.31	1413.10
594.50	1531.88
594.70	1443.82
594.89	1474.54
595.08	1433.58
595.28	1409.00
595.47	1562.60
595.66	1417.19
595.86	1351.66
596.05	1402.86
596.24	1382.38
596.43	1505.26
596.63	1427.43
596.82	1396.71
597.01	1429.48
597.21	1460.20
597.40	1478.63
597.59	1413.10
597.79	1466.35
597.98	1460.20
598.17	1533.93
598.36	1411.05
598.56	1452.01
598.75	1382.38
598.94	1452.01
599.14	1429.48
599.33	1388.52
599.52	1462.25
599.71	1470.44
599.91	1417.19
600.10	1419.24
600.29	1353.71
600.48	1413.10
600.68	1406.95
600.87	1337.32
601.06	1294.32
601.26	1390.57
601.45	1427.43
601.64	1406.95
601.83	1400.81
602.03	1431.53
602.22	1374.19
602.41	1431.53
602.60	1409.00
602.80	1378.28
602.99	1386.47
603.18	1318.89
603.37	1366.00
603.57	1363.95
603.76	1374.19
603.95	1406.95
604.14	1441.77
604.34	1343.47
604.53	1456.11
604.72	1406.95
604.91	1372.14
605.10	1425.39
605.30	1378.28
605.49	1445.87
605.68	1452.01
605.87	1396.71
606.07	1411.05
606.26	1320.94
606.45	1366.00
606.64	1374.19
606.84	1388.52
607.03	1431.53
607.22	1429.48
607.41	1396.71
607.60	1404.91
607.80	1423.34
607.99	1390.57
608.18	1374.19
608.37	1363.95
608.56	1413.10
608.76	1433.58
608.95	1527.78
609.14	1486.83
609.33	1433.58
609.52	1540.07
609.72	1533.93
609.91	1517.54
610.10	1507.30
610.29	1472.49
610.48	1384.43
610.68	1501.16
610.87	1339.37
611.06	1458.15
611.25	1452.01
611.44	1439.72
611.63	1421.29
611.83	1478.63
612.02	1413.10
612.21	1363.95
612.40	1314.80
612.59	1409.00
612.79	1310.70
612.98	1482.73
613.17	1396.71
613.36	1435.63
613.55	1454.06
613.74	1511.40
613.93	1550.31
614.13	1638.38
614.32	1634.28
614.51	1564.65
614.70	1495.02
614.89	1490.92
615.08	1482.73
615.28	1646.57
615.47	1413.10
615.66	1468.39
615.85	1429.48
616.04	1511.40
616.23	1443.82
616.42	1484.78
616.62	1474.54
616.81	1372.14
617.00	1402.86
617.19	1480.68
617.38	1458.15
617.57	1417.19
617.76	1333.23
617.95	1437.67
618.15	1359.85
618.34	1437.67
618.53	1304.56
618.72	1468.39
618.91	1505.26
619.10	1460.20
619.29	1437.67
619.48	1337.32
619.68	1333.23
619.87	1380.33
620.06	1277.93
620.25	1316.84
620.44	1347.56
620.63	1427.43
620.82	1386.47
621.01	1404.91
621.20	1372.14
621.39	1382.38
621.59	1439.72
621.78	1439.72
621.97	1439.72
622.16	1421.29
622.35	1425.39
622.54	1449.96
622.73	1396.71
622.92	1320.94
623.11	1366.00
623.30	1368.04
623.49	1413.10
623.68	1380.33
623.88	1357.80
624.07	1378.28
624.26	1423.34
624.45	1429.48
624.64	1378.28
624.83	1427.43
625.02	1325.04
625.21	1351.66
625.40	1382.38
625.59	1437.67
625.78	1394.67
625.97	1378.28
626.16	1495.02
626.35	1368.04
626.54	1484.78
626.74	1583.08
626.93	1427.43
627.12	1435.63
627.31	1466.35
627.50	1468.39
627.69	1386.47
627.88	1353.71
628.07	1306.60
628.26	1284.08
628.45	1349.61
628.64	1431.53
628.83	1458.15
629.02	1411.05
629.21	1495.02
629.40	1327.08
629.59	1339.37
629.78	1400.81
629.97	1443.82
630.16	1484.78
630.35	1384.43
630.54	1417.19
630.73	1421.29
630.92	1386.47
631.11	1435.63
631.30	1454.06
631.49	1384.43
631.68	1378.28
631.87	1351.66
632.06	1361.90
632.25	1447.91
632.44	1419.24
632.63	1437.67
632.82	1521.64
633.01	1425.39
633.20	1445.87
633.39	1409.00
633.58	1400.81
633.77	1419.24
633.96	1427.43
634.15	1445.87
634.34	1454.06
634.53	1441.77
634.72	1341.42
634.91	1384.43
635.10	1386.47
635.29	1396.71
635.48	1411.05
635.67	1392.62
635.86	1253.36
636.05	1427.43
636.24	1464.30
636.43	1394.67
636.62	1361.90
636.81	1349.61
637.00	1357.80
637.19	1396.71
637.38	1433.58
637.57	1349.61
637.76	1421.29
637.95	1482.73
638.14	1456.11
638.33	1511.40
638.52	1488.87
638.71	1390.57
638.89	1417.19
639.08	1554.41
639.27	1435.63
639.46	1437.67
639.65	1675.24
639.84	1834.98
640.03	2060.26
640.22	2072.54
640.41	2201.57
640.60	1955.81
640.79	1763.30
640.98	1626.09
641.17	1669.09
641.36	1538.02
641.55	1529.83
641.74	1509.35
641.92	1525.74
642.11	1409.00
642.30	1495.02
642.49	1361.90
642.68	1366.00
642.87	1468.39
643.06	1378.28
643.25	1402.86
643.44	1419.24
643.63	1329.13
643.82	1318.89
644.00	1288.17
644.19	1292.27
644.38	1359.85
644.57	1415.15
644.76	1394.67
644.95	1413.10
645.14	1335.28
645.33	1390.57
645.52	1411.05
645.71	1335.28
645.89	1306.60
646.08	1458.15
646.27	1396.71
646.46	1431.53
646.65	1304.56
646.84	1404.91
647.03	1437.67
647.22	1372.14
647.40	1366.00
647.59	1351.66
647.78	1275.88
647.97	1353.71
648.16	1370.09
648.35	1454.06
648.54	1380.33
648.73	1337.32
648.91	1331.18
649.10	1386.47
649.29	1335.28
649.48	1318.89
649.67	1341.42
649.86	1366.00
650.05	1404.91
650.23	1517.54
650.42	1542.12
650.61	1642.47
650.80	1658.85
650.99	1601.51
651.18	1533.93
651.36	1427.43
651.55	1406.95
651.74	1413.10
651.93	1421.29
652.12	1368.04
652.31	1384.43
652.49	1404.91
652.68	1386.47
652.87	1437.67
653.06	1439.72
653.25	1476.59
653.44	1398.76
653.62	1425.39
653.81	1417.19
654.00	1394.67
654.19	1435.63
654.38	1431.53
654.56	1394.67
654.75	1314.80
654.94	1402.86
655.13	1368.04
655.32	1359.85
655.51	1468.39
655.69	1464.30
655.88	1320.94
656.07	1347.56
656.26	1468.39
656.45	1349.61
656.63	1378.28
656.82	1417.19
657.01	1409.00
657.20	1386.47
657.38	1357.80
657.57	1398.76
657.76	1320.94
657.95	1411.05
658.14	1366.00
658.32	1386.47
658.51	1341.42
658.70	1431.53
658.89	1376.24
659.08	1423.34
659.26	1417.19
659.45	1437.67
659.64	1400.81
659.83	1419.24
660.01	1470.44
660.20	1433.58
660.39	1509.35
660.58	1347.56
660.76	1441.77
660.95	1382.38
661.14	1431.53
661.33	1370.09
661.51	1347.56
661.70	1302.51
661.89	1406.95
662.08	1372.14
662.26	1370.09
662.45	1378.28
662.64	1464.30
662.83	1382.38
663.01	1273.84
663.20	1361.90
663.39	1435.63
663.58	1347.56
663.76	1380.33
663.95	1421.29
664.14	1368.04
664.32	1392.62
664.51	1374.19
664.70	1327.08
664.89	1411.05
665.07	1310.70
665.26	1396.71
665.45	1325.04
665.64	1511.40
665.82	1370.09
666.01	1478.63
666.20	1445.87
666.38	1439.72
666.57	1400.81
666.76	1576.94
666.95	2017.25
667.13	4374.46
667.32	11478.86
667.51	17921.77
667.69	21608.12
667.88	24780.42
668.07	24544.91
668.25	18960.09
668.44	13692.72
668.63	11120.47
668.81	9115.51
669.00	8040.33
669.19	7577.48
669.38	6727.58
669.56	6383.52
669.75	5478.32
669.94	4802.49
670.12	4159.42
670.31	3459.02
670.50	2926.55
670.68	2488.28
670.87	2142.18
671.06	1839.08
671.24	1636.33
671.43	1566.70
671.62	1605.61
671.80	1495.02
671.99	1550.31
672.18	1472.49
672.36	1421.29
672.55	1476.59
672.74	1409.00
672.92	1456.11
673.11	1445.87
673.29	1400.81
673.48	1404.91
673.67	1308.65
673.85	1390.57
674.04	1380.33
674.23	1386.47
674.41	1419.24
674.60	1372.14
674.79	1300.46
674.97	1380.33
675.16	1404.91
675.34	1392.62
675.53	1382.38
675.72	1386.47
675.90	1363.95
676.09	1386.47
676.28	1351.66
676.46	1363.95
676.65	1366.00
676.83	1320.94
677.02	1413.10
677.21	1327.08
677.39	1394.67
677.58	1296.36
677.77	1400.81
677.95	1265.64
678.14	1404.91
678.32	1374.19
678.51	1300.46
678.70	1433.58
678.88	1355.76
679.07	1421.29
679.25	1363.95
679.44	1376.24
679.63	1327.08
679.81	1392.62
680.00	1406.95
680.18	1370.09
680.37	1392.62
680.55	1329.13
680.74	1347.56
680.93	1349.61
681.11	1366.00
681.30	1411.05
681.48	1421.29
681.67	1396.71
681.85	1339.37
682.04	1370.09
682.23	1433.58
682.41	1370.09
682.60	1322.99
682.78	1335.28
682.97	1357.80
683.15	1363.95
683.34	1310.70
683.53	1400.81
683.71	1347.56
683.90	1409.00
684.08	1443.82
684.27	1298.41
684.45	1439.72
684.64	1337.32
684.82	1376.24
685.01	1372.14
685.19	1443.82
685.38	1421.29
685.57	1353.71
685.75	1363.95
685.94	1335.28
686.12	1390.57
686.31	1343.47
686.49	1452.01
686.68	1363.95
686.86	1411.05
687.05	1273.84
687.23	1411.05
687.42	1382.38
687.60	1404.91
687.79	1380.33
687.97	1417.19
688.16	1376.24
688.34	1363.95
688.53	1263.60
688.71	1433.58
688.90	1437.67
689.08	1425.39
689.27	1304.56
689.45	1361.90
689.64	1425.39
689.82	1392.62
690.01	1337.32
690.19	1361.90
690.38	1363.95
690.56	1468.39
690.75	1349.61
690.93	1390.57
691.12	1327.08
691.30	1347.56
691.49	1384.43
691.67	1357.80
691.86	1466.35
692.04	1357.80
692.23	1398.76
692.41	1322.99
692.60	1509.35
692.78	1490.92
692.97	1421.29
693.15	1464.30
693.34	1519.59
693.52	1525.74
693.71	1439.72
693.89	1402.86
694.08	1366.00
694.26	1458.15
694.44	1427.43
694.63	1378.28
694.81	1400.81
695.00	1347.56
695.18	1470.44
695.37	1411.05
695.55	1466.35
695.74	1376.24
695.92	1347.56
696.10	1333.23
696.29	1331.18
696.47	1322.99
696.66	1333.23
696.84	1337.32
697.03	1357.80
697.21	1429.48
697.40	1693.67
697.58	1495.02
697.76	1372.14
697.95	1382.38
698.13	1316.84
698.32	1355.76
698.50	1427.43
698.68	1398.76
698.87	1396.71
699.05	1417.19
699.24	1452.01
699.42	1359.85
699.61	1337.32
699.79	1402.86
699.97	1374.19
700.16	1312.75
700.34	1394.67
700.53	1398.76
700.71	1490.92
700.89	1314.80
701.08	1327.08
701.26	1361.90
701.45	1638.38
701.63	1417.19
701.81	1398.76
702.00	1429.48
702.18	1427.43
702.37	1353.71
702.55	1368.04
702.73	1464.30
702.92	1513.45
703.10	1609.70
703.28	1626.09
703.47	1642.47
703.65	1675.24
703.84	1595.37
704.02	1427.43
704.20	1423.34
704.39	1431.53
704.57	1542.12
704.75	1544.17
704.94	1497.07
705.12	1458.15
705.30	1511.40
705.49	1517.54
705.67	1744.87
705.86	3481.55
706.04	9058.17
706.22	16219.91
706.41	19955.41
706.59	22683.30
706.77	23654.04
706.96	20100.81
707.14	13793.07
707.32	11474.77
707.51	9222.00
707.69	8308.61
707.87	7419.79
708.06	6768.54
708.24	6029.22
708.42	5052.34
708.61	3983.30
708.79	3067.86
708.97	2400.22
709.16	1982.43
709.34	1857.51
709.52	1576.94
709.71	1511.40
709.89	1431.53
710.07	1363.95
710.26	1320.94
710.44	1380.33
710.62	1439.72
710.80	1357.80
710.99	1480.68
711.17	1386.47
711.35	1355.76
711.54	1327.08
711.72	1419.24
711.90	1406.95
712.09	1372.14
712.27	1355.76
712.45	1425.39
712.63	1335.28
712.82	1384.43
713.00	1384.43
713.18	1400.81
713.37	1361.90
713.55	1425.39
713.73	1417.19
713.91	1505.26
714.10	1376.24
714.28	1376.24
714.46	1431.53
714.65	1341.42
714.83	1370.09
715.01	1314.80
715.19	1366.00
715.38	1363.95
715.56	1372.14
715.74	1327.08
715.92	1310.70
716.11	1398.76
716.29	1322.99
716.47	1318.89
716.65	1359.85
716.84	1284.08
717.02	1437.67
717.20	1279.98
717.38	1490.92
717.57	1411.05
717.75	1402.86
717.93	1443.82
718.11	1394.67
718.30	1265.64
718.48	1372.14
718.66	1419.24
718.84	1419.24
719.03	1374.19
719.21	1292.27
719.39	1396.71
719.57	1398.76
719.75	1370.09
719.94	1394.67
720.12	1359.85
720.30	1421.29
720.48	1417.19
720.67	1347.56
720.85	1308.65
721.03	1333.23
721.21	1368.04
721.39	1370.09
721.58	1355.76
721.76	1488.87
721.94	1349.61
722.12	1316.84
722.30	1421.29
722.49	1361.90
722.67	1327.08
722.85	1394.67
723.03	1296.36
723.21	1325.04
723.40	1325.04
723.58	1490.92
723.76	1435.63
723.94	1431.53
724.12	1398.76
724.30	1513.45
724.49	1507.30
724.67	1484.78
724.85	1456.11
725.03	1396.71
725.21	1472.49
725.40	1437.67
725.58	1400.81
725.76	1419.24
725.94	1396.71
726.12	1370.09
726.30	1294.32
726.49	1339.37
726.67	1300.46
726.85	1314.80
727.03	1357.80
727.21	1507.30
727.39	1492.97
727.57	2064.35
727.76	3348.43
727.94	4657.08
728.12	4925.36
728.30	5322.67
728.48	5210.03
728.66	4274.11
728.84	3489.74
729.03	3102.67
729.21	2836.44
729.39	2605.02
729.57	2236.38
729.75	1978.34
729.93	1822.69
730.11	1605.61
730.30	1478.63
730.48	1503.21
730.66	1490.92
730.84	1415.15
731.02	1380.33
731.20	1349.61
731.38	1329.13
731.56	1255.40
731.74	1302.51
731.93	1402.86
732.11	1339.37
732.29	1372.14
732.47	1325.04
732.65	1331.18
732.83	1505.26
733.01	1441.77
733.19	1396.71
733.37	1374.19
733.56	1400.81
733.74	1396.71
733.92	1417.19
734.10	1386.47
734.28	1353.71
734.46	1310.70
734.64	1380.33
734.82	1454.06
735.00	1361.90
735.18	1355.76
735.36	1345.52
735.54	1380.33
735.73	1355.76
735.91	1325.04
736.09	1345.52
736.27	1390.57
736.45	1372.14
736.63	1253.36
736.81	1382.38
736.99	1392.62
737.17	1372.14
737.35	1288.17
737.53	1322.99
737.71	1372.14
737.89	1456.11
738.07	1355.76
738.25	1341.42
738.43	1290.22
738.61	1337.32
738.80	1343.47
738.98	1415.15
739.16	1404.91
739.34	1345.52
739.52	1374.19
739.70	1413.10
739.88	1353.71
740.06	1421.29
740.24	1294.32
740.42	1421.29
740.60	1357.80
740.78	1368.04
740.96	1271.79
741.14	1370.09
741.32	1359.85
741.50	1329.13
741.68	1417.19
741.86	1349.61
742.04	1294.32
742.22	1239.02
742.40	1386.47
742.58	1322.99
742.76	1339.37
742.94	1419.24
743.12	1320.94
743.30	1343.47
743.48	1298.41
743.66	1298.41
743.84	1431.53
744.02	1347.56
744.20	1341.42
744.38	1275.88
744.56	1359.85
744.74	1435.63
744.92	1404.91
745.10	1361.90
745.28	1353.71
745.46	1437.67
745.64	1337.32
745.82	1343.47
746.00	1456.11
746.18	1370.09
746.36	1361.90
746.54	1429.48
746.72	1441.77
746.90	1345.52
747.08	1378.28
747.26	1306.60
747.44	1406.95
747.62	1388.52
747.80	1378.28
747.98	1441.77
748.15	1339.37
748.33	1456.11
748.51	1425.39
748.69	1378.28
748.87	1411.05
749.05	1380.33
749.23	1374.19
749.41	1390.57
749.59	1339.37
749.77	1376.24
749.95	1380.33
750.13	1363.95
750.31	1333.23
750.49	1329.13
750.67	1421.29
750.85	1269.74
751.03	1372.14
751.20	1454.06
751.38	1349.61
751.56	1398.76
751.74	1425.39
751.92	1339.37
752.10	1368.04
752.28	1417.19
752.46	1417.19
752.64	1366.00
752.82	1454.06
753.00	1411.05
753.18	1431.53
753.35	1386.47
753.53	1376.24
753.71	1376.24
753.89	1390.57
754.07	1421.29
754.25	1370.09
754.43	1429.48
754.61	1396.71
754.79	1480.68
754.97	1382.38
755.14	1425.39
755.32	1304.56
755.50	1374.19
755.68	1390.57
755.86	1390.57
756.04	1320.94
756.22	1273.84
756.40	1398.76
756.57	1402.86
756.75	1400.81
756.93	1361.90
757.11	1382.38
757.29	1320.94
757.47	1396.71
757.65	1329.13
757.82	1249.26
758.00	1339.37
758.18	1409.00
758.36	1349.61
758.54	1386.47
758.72	1329.13
758.90	1392.62
759.07	1400.81
759.25	1271.79
759.43	1372.14
759.61	1290.22
759.79	1658.85
759.97	1400.81
760.15	1304.56
760.32	1308.65
760.50	1363.95
760.68	1384.43
760.86	1347.56
761.04	1415.15
761.22	1382.38
761.39	1322.99
761.57	1390.57
761.75	1380.33
761.93	1421.29
762.11	1427.43
762.28	1425.39
762.46	1298.41
762.64	1400.81
762.82	1337.32
763.00	1257.45
763.18	1382.38
763.35	1345.52
763.53	1363.95
763.71	1335.28
763.89	1345.52
764.07	1361.90
764.24	1370.09
764.42	1372.14
764.60	1386.47
764.78	1353.71
764.96	1386.47
765.13	1370.09
765.31	1351.66
765.49	1388.52
765.67	1433.58
765.84	1327.08
766.02	1425.39
766.20	1337.32
766.38	1406.95
766.56	1384.43
766.73	1372.14
766.91	1378.28
767.09	1402.86
767.27	1425.39
767.44	1327.08
767.62	1366.00
767.80	1396.71
767.98	1384.43
768.15	1411.05
768.33	1366.00
768.51	1366.00
768.69	1353.71
768.87	1423.34
769.04	1355.76
769.22	1478.63
769.40	1492.97
769.58	1449.96
769.75	1437.67
769.93	1406.95
770.11	1329.13
770.28	1341.42
770.46	1415.15
770.64	1419.24
770.82	1376.24
770.99	1339.37
771.17	1415.15
771.35	1413.10
771.53	1308.65
771.70	1378.28
771.88	1341.42
772.06	1331.18
772.23	1322.99
772.41	1382.38
772.59	1384.43
772.77	1402.86
772.94	1322.99
773.12	1411.05
773.30	1341.42
773.47	1409.00
773.65	1353.71
773.83	1396.71
774.01	1351.66
774.18	1359.85
774.36	1374.19
774.54	1259.50
774.71	1384.43
774.89	1290.22
775.07	1337.32
775.24	1439.72
775.42	1392.62
775.60	1486.83
775.78	1406.95
775.95	1380.33
776.13	1298.41
776.31	1234.93
776.48	1347.56
776.66	1404.91
776.84	1327.08
777.01	1304.56
777.19	1341.42
777.37	1353.71
777.54	1325.04
777.72	1378.28
777.90	1382.38
778.07	1396.71
778.25	1449.96
778.43	1431.53
778.60	1228.78
778.78	1351.66
778.96	1454.06
779.13	1298.41
779.31	1402.86
779.49	1400.81
779.66	1449.96
779.84	1402.86
780.01	1357.80
780.19	1282.03
780.37	1372.14
780.54	1443.82
780.72	1318.89
780.90	1331.18
781.07	1366.00
781.25	1392.62
781.43	1390.57
781.60	1322.99
781.78	1370.09
781.95	1413.10
782.13	1345.52
782.31	1413.10
782.48	1333.23
782.66	1435.63
782.83	1382.38
783.01	1347.56
783.19	1339.37
783.36	1417.19
783.54	1288.17
783.72	1427.43
783.89	1374.19
784.07	1435.63
784.24	1402.86
784.42	1396.71
784.60	1347.56
784.77	1439.72
784.95	1318.89
785.12	1255.40
785.30	1327.08
785.47	1388.52
785.65	1320.94
785.83	1427.43
786.00	1308.65
786.18	1443.82
786.35	1290.22
786.53	1325.04
786.71	1396.71
786.88	1355.76
787.06	1355.76
787.23	1302.51
787.41	1277.93
787.58	1355.76
787.76	1411.05
787.94	1355.76
788.11	1368.04
788.29	1378.28
788.46	1382.38
788.64	1335.28
788.81	1286.12
788.99	1392.62
789.16	1329.13
789.34	1396.71
789.52	1396.71
789.69	1339.37
789.87	1312.75
790.04	1370.09
790.22	1417.19
790.39	1441.77
790.57	1331.18
790.74	1386.47
790.92	1400.81
791.09	1269.74
791.27	1347.56
791.44	1425.39
791.62	1302.51
791.79	1359.85
791.97	1370.09
792.15	1503.21
792.32	1294.32
792.50	1409.00
792.67	1447.91
792.85	1445.87
793.02	1337.32
793.20	1314.80
793.37	1380.33
793.55	1298.41
793.72	1388.52
793.90	1456.11
794.07	1300.46
794.25	1306.60
794.42	1454.06
794.60	1335.28
794.77	1374.19
794.95	1370.09
795.12	1378.28
795.30	1380.33
795.47	1249.26
795.65	1421.29
795.82	1366.00
796.00	1345.52
796.17	1429.48
796.34	1355.76
796.52	1343.47
796.69	1456.11
796.87	1429.48
797.04	1331.18
797.22	1380.33
797.39	1390.57
797.57	1400.81
797.74	1357.80
797.92	1384.43
798.09	1345.52
798.27	1409.00
798.44	1392.62
798.62	1273.84
798.79	1339.37
798.96	1435.63
799.14	1353.71
799.31	1529.83
799.49	1357.80
799.66	1382.38
799.84	1331.18
800.01	1337.32
800.19	1345.52
800.36	1378.28
800.53	1368.04
800.71	1406.95
800.88	1503.21
801.06	1388.52
801.23	1251.31
801.41	1413.10
801.58	1392.62
801.75	1363.95
801.93	1425.39
802.10	1372.14
802.28	1300.46
802.45	1312.75
802.63	1384.43
802.80	1384.43
802.97	1370.09
803.15	1435.63
803.32	1341.42
803.50	1390.57
803.67	1363.95
803.84	1331.18
804.02	1353.71
804.19	1361.90
804.37	1302.51
804.54	1382.38
804.71	1333.23
804.89	1355.76
805.06	1275.88
805.24	1353.71
805.41	1406.95
805.58	1345.52
805.76	1402.86
805.93	1333.23
806.10	1396.71
806.28	1265.64
806.45	1363.95
806.63	1353.71
806.80	1329.13
806.97	1404.91
807.15	1353.71
807.32	1396.71
807.49	1386.47
807.67	1312.75
807.84	1361.90
808.01	1337.32
808.19	1406.95
808.36	1425.39
808.54	1353.71
808.71	1374.19
808.88	1394.67
809.06	1366.00
809.23	1427.43
809.40	1335.28
809.58	1368.04
809.75	1359.85
809.92	1390.57
810.10	1464.30
810.27	1329.13
810.44	1366.00
810.62	1386.47
810.79	1353.71
810.96	1370.09
811.14	1378.28
811.31	1304.56
811.48	1382.38
811.66	1249.26
811.83	1411.05
812.00	1390.57
812.18	1363.95
812.35	1380.33
812.52	1320.94
812.69	1404.91
812.87	1263.60
813.04	1366.00
813.21	1374.19
813.39	1390.57
813.56	1273.84
813.73	1400.81
813.91	1316.84
814.08	1394.67
814.25	1368.04
814.42	1296.36
814.60	1355.76
814.77	1404.91
814.94	1355.76
815.12	1411.05
815.29	1449.96
815.46	1372.14
815.63	1347.56
815.81	1380.33
815.98	1325.04
816.15	1386.47
816.33	1380.33
816.50	1400.81
816.67	1327.08
816.84	1366.00
817.02	1325.04
817.19	1351.66
817.36	1402.86
817.53	1333.23
817.71	1331.18
817.88	1415.15
818.05	1456.11
818.22	1343.47
818.40	1400.81
818.57	1419.24
818.74	1413.10
818.91	1394.67
819.09	1339.37
819.26	1404.91
819.43	1368.04
819.60	1361.90
819.78	1452.01
819.95	1406.95
820.12	1372.14
820.29	1363.95
820.47	1419.24
820.64	1310.70
820.81	1347.56
820.98	1282.03
821.15	1357.80
821.33	1306.60
821.50	1333.23
821.67	1386.47
821.84	1312.75
822.02	1351.66
822.19	1447.91
822.36	1314.80
822.53	1310.70
822.70	1318.89
822.88	1351.66
823.05	1413.10
823.22	1306.60
823.39	1320.94
823.56	1370.09
823.74	1413.10
823.91	1361.90
824.08	1351.66
824.25	1341.42
824.42	1447.91
824.60	1290.22
824.77	1353.71
824.94	1425.39
825.11	1384.43
825.28	1359.85
825.45	1380.33
825.63	1318.89
825.80	1314.80
825.97	1370.09
826.14	1419.24
826.31	1349.61
826.48	1404.91
826.66	1366.00
826.83	1370.09
827.00	1376.24
827.17	1411.05
827.34	1380.33
827.51	1392.62
827.69	1378.28
827.86	1261.55
828.03	1374.19
828.20	1318.89
828.37	1370.09
828.54	1345.52
828.71	1226.73
828.89	1413.10
829.06	1392.62
829.23	1423.34
829.40	1298.41
829.57	1398.76
829.74	1404.91
829.91	1343.47
830.09	1314.80
830.26	1355.76
830.43	1376.24
830.60	1411.05
830.77	1445.87
830.94	1384.43
831.11	1368.04
831.28	1363.95
831.46	1421.29
831.63	1392.62
831.80	1386.47
831.97	1284.08
832.14	1402.86
832.31	1413.10
832.48	1490.92
832.65	1370.09
832.82	1255.40
832.99	1372.14
833.17	1318.89
833.34	1359.85
833.51	1374.19
833.68	1290.22
833.85	1437.67
834.02	1376.24
834.19	1384.43
834.36	1331.18
834.53	1406.95
834.70	1402.86
834.87	1359.85
835.04	1366.00
835.22	1368.04
835.39	1372.14
835.56	1345.52
835.73	1382.38
835.90	1322.99
836.07	1363.95
836.24	1394.67
836.41	1312.75
836.58	1374.19
836.75	1423.34
836.92	1359.85
837.09	1429.48
837.26	1454.06
837.43	1449.96
837.60	1433.58
837.77	1400.81
837.94	1409.00
838.12	1357.80
838.29	1454.06
838.46	1282.03
838.63	1388.52
838.80	1435.63
838.97	1413.10
839.14	1376.24
839.31	1390.57
839.48	1411.05
839.65	1308.65
839.82	1429.48
839.99	1370.09
840.16	1353.71
840.33	1351.66
840.50	1400.81
840.67	1335.28
840.84	1216.49
841.01	1306.60
841.18	1318.89
841.35	1298.41
841.52	1421.29
841.69	1406.95
841.86	1411.05
842.03	1370.09
842.20	1386.47
842.37	1355.76
842.54	1306.60
842.71	1322.99
842.88	1282.03
843.05	1411.05
843.22	1322.99
843.39	1325.04
843.56	1314.80
843.73	1437.67
843.90	1353.71
844.07	1376.24
844.24	1474.54
844.41	1363.95
844.58	1327.08
844.75	1312.75
844.92	1361.90
845.09	1390.57
845.26	1314.80
845.43	1300.46
845.60	1374.19
845.77	1390.57
845.94	1404.91
846.10	1437.67
846.27	1370.09
846.44	1341.42
846.61	1263.60
846.78	1308.65
846.95	1421.29
847.12	1322.99
847.29	1363.95
847.46	1318.89
847.63	1314.80
847.80	1296.36
847.97	1267.69
848.14	1310.70
848.31	1378.28
848.48	1339.37
848.65	1370.09
848.82	1333.23
848.98	1398.76
849.15	1380.33
849.32	1388.52
849.49	1368.04
849.66	1361.90
849.83	1394.67
850.00	1355.76
850.17	1320.94
850.34	1308.65
850.51	1343.47
850.68	1378.28
850.85	1456.11
851.01	1343.47
851.18	1394.67
851.35	1400.81
851.52	1329.13
851.69	1427.43
851.86	1318.89
852.03	1376.24
852.20	1341.42
852.37	1325.04
852.53	1208.30
852.70	1370.09
852.87	1347.56
853.04	1390.57
853.21	1368.04
853.38	1388.52
853.55	1384.43
853.72	1388.52
853.89	1353.71
854.05	1380.33
854.22	1361.90
854.39	1372.14
854.56	1388.52
854.73	1452.01
854.90	1404.91
855.07	1345.52
855.23	1376.24
855.40	1337.32
855.57	1337.32
855.74	1419.24
855.91	1486.83
856.08	1345.52
856.25	1376.24
856.41	1353.71
856.58	1419.24
856.75	1390.57
856.92	1329.13
857.09	1423.34
857.26	1335.28
857.42	1394.67
857.59	1449.96
857.76	1400.81
857.93	1370.09
858.10	1421.29
858.27	1286.12
858.43	1353.71
858.60	1335.28
858.77	1241.07
858.94	1376.24
859.11	1456.11
859.27	1349.61
859.44	1345.52
859.61	1396.71
859.78	1357.80
859.95	1376.24
860.12	1292.27
860.28	1388.52
860.45	1378.28
860.62	1325.04
860.79	1329.13
860.95	1404.91
861.12	1345.52
861.29	1316.84
861.46	1343.47
861.63	1376.24
861.79	1312.75
861.96	1359.85
862.13	1345.52
862.30	1437.67
862.47	1382.38
862.63	1333.23
862.80	1404.91
862.97	1368.04
863.14	1372.14
863.30	1400.81
863.47	1417.19
863.64	1390.57
863.81	1347.56
863.97	1259.50
864.14	1359.85
864.31	1382.38
864.48	1345.52
864.65	1347.56
864.81	1337.32
864.98	1419.24
865.15	1351.66
865.32	1384.43
865.48	1402.86
865.65	1339.37
865.82	1343.47
865.98	1394.67
866.15	1411.05
866.32	1368.04
866.49	1347.56
866.65	1462.25
866.82	1359.85
866.99	1394.67
867.16	1396.71
867.32	1374.19
867.49	1388.52
867.66	1396.71
867.83	1380.33
867.99	1302.51
868.16	1314.80
868.33	1312.75
868.49	1404.91
868.66	1386.47
868.83	1400.81
868.99	1316.84
869.16	1398.76
869.33	1359.85
869.50	1439.72
869.66	1366.00
869.83	1316.84
870.00	1306.60
870.16	1425.39
870.33	1310.70
870.50	1423.34
870.66	1363.95
870.83	1533.93
871.00	1325.04
871.17	1402.86
871.33	1314.80
871.50	1353.71
871.67	1322.99
871.83	1327.08
872.00	1411.05
872.17	1357.80
872.33	1409.00
872.50	1421.29
872.67	1357.80
872.83	1386.47
873.00	1394.67
873.17	1298.41
873.33	1431.53
873.50	1345.52
873.67	1327.08
873.83	1341.42
874.00	1404.91
874.16	1343.47
874.33	1339.37
874.50	1335.28
874.66	1355.76
874.83	1370.09
875.00	1398.76
875.16	1409.00
875.33	1357.80
875.50	1265.64
875.66	1384.43
875.83	1355.76
875.99	1400.81
876.16	1325.04
876.33	1396.71
876.49	1286.12
876.66	1417.19
876.83	1298.41
876.99	1345.52
877.16	1271.79
877.32	1392.62
877.49	1374.19
877.66	1322.99
877.82	1400.81
877.99	1343.47
878.15	1396.71
878.32	1349.61
878.49	1390.57
878.65	1329.13
878.82	1404.91
878.98	1339.37
879.15	1445.87
879.32	1419.24
879.48	1370.09
879.65	1368.04
879.81	1370.09
879.98	1249.26
880.15	1314.80
880.31	1396.71
880.48	1288.17
880.64	1429.48
880.81	1398.76
880.97	1402.86
881.14	1396.71
881.31	1312.75
881.47	1437.67
881.64	1363.95
881.80	1331.18
881.97	1380.33
882.13	1474.54
882.30	1355.76
882.47	1337.32
882.63	1427.43
882.80	1386.47
882.96	1343.47
883.13	1386.47
883.29	1443.82
883.46	1406.95
883.62	1394.67
883.79	1392.62
883.95	1392.62
884.12	1277.93
884.29	1437.67
884.45	1331.18
884.62	1363.95
884.78	1310.70
884.95	1417.19
885.11	1320.94
885.28	1396.71
885.44	1335.28
885.61	1406.95
885.77	1386.47
885.94	1361.90
886.10	1409.00
886.27	1355.76
886.43	1396.71
886.60	1331.18
886.76	1374.19
886.93	1269.74
887.09	1372.14
887.26	1273.84
887.42	1308.65
887.59	1396.71
887.75	1429.48
887.92	1386.47
888.08	1437.67
888.25	1400.81
888.41	1484.78
888.58	1316.84
888.74	1501.16
888.91	1366.00
>>>>>End Processed Spectral Data<<<<<
