SpectraSuite Data File
++++++++++++++++++++++++++++++++++++
Date: Tue May 03 11:24:37 CEST 2016
User: root
Dark Spectrum Present: No
Reference Spectrum Present: No
Number of Sampled Component Spectra: 1
Spectrometers: USB4C02835
Integration Time (usec): 100000 (USB4C02835)
Spectra Averaged: 1 (USB4C02835)
Boxcar Smoothing: 0 (USB4C02835)
Correct for Electrical Dark: No (USB4C02835)
Strobe/Lamp Enabled: No (USB4C02835)
Correct for Detector Non-linearity: No (USB4C02835)
Correct for Stray Light: No (USB4C02835)
Number of Pixels in Processed Spectrum: 3648
>>>>>Begin Processed Spectral Data<<<<<
177.47	1243.12
177.69	1243.12
177.91	1243.12
178.13	1216.49
178.36	1279.98
178.58	1290.22
178.80	1361.90
179.02	1368.04
179.24	1310.70
179.46	1388.52
179.68	1396.71
179.90	1411.05
180.13	1449.96
180.35	1363.95
180.57	1398.76
180.79	1366.00
181.01	1382.38
181.23	1374.19
181.45	1415.15
181.67	1370.09
181.90	1347.56
182.12	1255.40
182.34	1327.08
182.56	1339.37
182.78	1378.28
183.00	1343.47
183.22	1296.36
183.44	1282.03
183.66	1384.43
183.89	1472.49
184.11	1423.34
184.33	1376.24
184.55	1363.95
184.77	1341.42
184.99	1394.67
185.21	1372.14
185.43	1443.82
185.65	1400.81
185.87	1345.52
186.10	1417.19
186.32	1490.92
186.54	1400.81
186.76	1419.24
186.98	1404.91
187.20	1372.14
187.42	1374.19
187.64	1427.43
187.86	1423.34
188.08	1409.00
188.30	1372.14
188.52	1386.47
188.75	1409.00
188.97	1413.10
189.19	1366.00
189.41	1386.47
189.63	1392.62
189.85	1370.09
190.07	1298.41
190.29	1314.80
190.51	1298.41
190.73	1275.88
190.95	1462.25
191.17	1400.81
191.39	1275.88
191.61	1308.65
191.84	1372.14
192.06	1392.62
192.28	1341.42
192.50	1478.63
192.72	1402.86
192.94	1349.61
193.16	1378.28
193.38	1392.62
193.60	1406.95
193.82	1337.32
194.04	1427.43
194.26	1329.13
194.48	1386.47
194.70	1292.27
194.92	1316.84
195.14	1411.05
195.36	1263.60
195.58	1349.61
195.80	1419.24
196.02	1314.80
196.24	1404.91
196.46	1331.18
196.69	1302.51
196.91	1454.06
197.13	1363.95
197.35	1394.67
197.57	1423.34
197.79	1421.29
198.01	1355.76
198.23	1349.61
198.45	1396.71
198.67	1363.95
198.89	1372.14
199.11	1372.14
199.33	1370.09
199.55	1304.56
199.77	1417.19
199.99	1347.56
200.21	1370.09
200.43	1361.90
200.65	1320.94
200.87	1351.66
201.09	1282.03
201.31	1376.24
201.53	1413.10
201.75	1327.08
201.97	1378.28
202.19	1318.89
202.41	1380.33
202.63	1476.59
202.85	1343.47
203.07	1310.70
203.29	1378.28
203.51	1310.70
203.73	1335.28
203.95	1476.59
204.17	1279.98
204.39	1419.24
204.61	1300.46
204.83	1345.52
205.05	1380.33
205.27	1380.33
205.49	1454.06
205.71	1306.60
205.93	1302.51
206.15	1300.46
206.37	1347.56
206.59	1339.37
206.81	1335.28
207.03	1318.89
207.25	1308.65
207.47	1419.24
207.69	1374.19
207.91	1415.15
208.13	1394.67
208.34	1400.81
208.56	1343.47
208.78	1429.48
209.00	1310.70
209.22	1302.51
209.44	1366.00
209.66	1361.90
209.88	1353.71
210.10	1343.47
210.32	1374.19
210.54	1456.11
210.76	1368.04
210.98	1443.82
211.20	1316.84
211.42	1363.95
211.64	1335.28
211.86	1347.56
212.08	1382.38
212.30	1363.95
212.52	1316.84
212.74	1390.57
212.96	1331.18
213.17	1458.15
213.39	1386.47
213.61	1402.86
213.83	1441.77
214.05	1349.61
214.27	1402.86
214.49	1296.36
214.71	1312.75
214.93	1406.95
215.15	1351.66
215.37	1374.19
215.59	1296.36
215.81	1333.23
216.03	1400.81
216.24	1361.90
216.46	1327.08
216.68	1351.66
216.90	1345.52
217.12	1394.67
217.34	1343.47
217.56	1343.47
217.78	1353.71
218.00	1355.76
218.22	1384.43
218.44	1380.33
218.66	1419.24
218.87	1449.96
219.09	1351.66
219.31	1445.87
219.53	1382.38
219.75	1376.24
219.97	1372.14
220.19	1374.19
220.41	1402.86
220.63	1402.86
220.85	1388.52
221.06	1273.84
221.28	1363.95
221.50	1409.00
221.72	1363.95
221.94	1363.95
222.16	1335.28
222.38	1435.63
222.60	1415.15
222.82	1355.76
223.03	1298.41
223.25	1404.91
223.47	1421.29
223.69	1497.07
223.91	1359.85
224.13	1361.90
224.35	1341.42
224.57	1361.90
224.78	1304.56
225.00	1312.75
225.22	1335.28
225.44	1425.39
225.66	1402.86
225.88	1351.66
226.10	1449.96
226.32	1476.59
226.53	1474.54
226.75	1402.86
226.97	1331.18
227.19	1355.76
227.41	1318.89
227.63	1396.71
227.85	1284.08
228.06	1339.37
228.28	1333.23
228.50	1406.95
228.72	1296.36
228.94	1290.22
229.16	1351.66
229.37	1355.76
229.59	1314.80
229.81	1449.96
230.03	1312.75
230.25	1331.18
230.47	1345.52
230.69	1335.28
230.90	1419.24
231.12	1359.85
231.34	1341.42
231.56	1357.80
231.78	1439.72
232.00	1368.04
232.21	1417.19
232.43	1335.28
232.65	1320.94
232.87	1409.00
233.09	1329.13
233.30	1351.66
233.52	1478.63
233.74	1329.13
233.96	1419.24
234.18	1396.71
234.40	1363.95
234.61	1472.49
234.83	1349.61
235.05	1331.18
235.27	1402.86
235.49	1419.24
235.70	1431.53
235.92	1404.91
236.14	1325.04
236.36	1462.25
236.58	1310.70
236.79	1370.09
237.01	1310.70
237.23	1411.05
237.45	1427.43
237.67	1339.37
237.88	1390.57
238.10	1433.58
238.32	1378.28
238.54	1359.85
238.76	1298.41
238.97	1372.14
239.19	1277.93
239.41	1402.86
239.63	1361.90
239.85	1327.08
240.06	1355.76
240.28	1361.90
240.50	1376.24
240.72	1312.75
240.93	1384.43
241.15	1415.15
241.37	1388.52
241.59	1400.81
241.81	1339.37
242.02	1331.18
242.24	1345.52
242.46	1331.18
242.68	1325.04
242.89	1363.95
243.11	1376.24
243.33	1357.80
243.55	1404.91
243.76	1339.37
243.98	1363.95
244.20	1394.67
244.42	1318.89
244.64	1427.43
244.85	1243.12
245.07	1331.18
245.29	1343.47
245.51	1347.56
245.72	1331.18
245.94	1458.15
246.16	1429.48
246.38	1406.95
246.59	1320.94
246.81	1314.80
247.03	1380.33
247.24	1355.76
247.46	1306.60
247.68	1417.19
247.90	1409.00
248.11	1253.36
248.33	1462.25
248.55	1261.55
248.77	1333.23
248.98	1345.52
249.20	1437.67
249.42	1361.90
249.64	1339.37
249.85	1427.43
250.07	1345.52
250.29	1374.19
250.50	1290.22
250.72	1277.93
250.94	1406.95
251.16	1366.00
251.37	1443.82
251.59	1409.00
251.81	1374.19
252.02	1452.01
252.24	1361.90
252.46	1421.29
252.68	1294.32
252.89	1331.18
253.11	1277.93
253.33	1462.25
253.54	1417.19
253.76	1396.71
253.98	1372.14
254.20	1296.36
254.41	1318.89
254.63	1378.28
254.85	1382.38
255.06	1411.05
255.28	1329.13
255.50	1355.76
255.71	1347.56
255.93	1419.24
256.15	1378.28
256.36	1419.24
256.58	1462.25
256.80	1419.24
257.02	1361.90
257.23	1351.66
257.45	1437.67
257.67	1345.52
257.88	1347.56
258.10	1419.24
258.32	1404.91
258.53	1449.96
258.75	1431.53
258.97	1318.89
259.18	1404.91
259.40	1386.47
259.62	1349.61
259.83	1413.10
260.05	1480.68
260.27	1585.13
260.48	1378.28
260.70	1388.52
260.92	1322.99
261.13	1411.05
261.35	1351.66
261.57	1357.80
261.78	1359.85
262.00	1339.37
262.22	1400.81
262.43	1314.80
262.65	1384.43
262.86	1363.95
263.08	1458.15
263.30	1306.60
263.51	1325.04
263.73	1452.01
263.95	1486.83
264.16	1349.61
264.38	1372.14
264.60	1363.95
264.81	1290.22
265.03	1306.60
265.25	1433.58
265.46	1380.33
265.68	1462.25
265.89	1439.72
266.11	1349.61
266.33	1339.37
266.54	1368.04
266.76	1380.33
266.98	1435.63
267.19	1454.06
267.41	1392.62
267.62	1347.56
267.84	1306.60
268.06	1370.09
268.27	1431.53
268.49	1400.81
268.70	1390.57
268.92	1353.71
269.14	1370.09
269.35	1318.89
269.57	1325.04
269.79	1458.15
270.00	1347.56
270.22	1417.19
270.43	1370.09
270.65	1247.21
270.87	1366.00
271.08	1392.62
271.30	1384.43
271.51	1318.89
271.73	1337.32
271.95	1402.86
272.16	1374.19
272.38	1380.33
272.59	1275.88
272.81	1351.66
273.02	1388.52
273.24	1445.87
273.46	1380.33
273.67	1339.37
273.89	1327.08
274.10	1290.22
274.32	1466.35
274.54	1345.52
274.75	1388.52
274.97	1390.57
275.18	1343.47
275.40	1415.15
275.61	1347.56
275.83	1347.56
276.05	1333.23
276.26	1380.33
276.48	1406.95
276.69	1378.28
276.91	1331.18
277.12	1470.44
277.34	1398.76
277.55	1382.38
277.77	1345.52
277.99	1333.23
278.20	1322.99
278.42	1320.94
278.63	1263.60
278.85	1413.10
279.06	1322.99
279.28	1337.32
279.49	1484.78
279.71	1427.43
279.93	1327.08
280.14	1392.62
280.36	1292.27
280.57	1392.62
280.79	1484.78
281.00	1390.57
281.22	1409.00
281.43	1425.39
281.65	1304.56
281.86	1370.09
282.08	1376.24
282.29	1394.67
282.51	1392.62
282.73	1396.71
282.94	1288.17
283.16	1355.76
283.37	1433.58
283.59	1413.10
283.80	1341.42
284.02	1386.47
284.23	1404.91
284.45	1415.15
284.66	1409.00
284.88	1292.27
285.09	1306.60
285.31	1378.28
285.52	1388.52
285.74	1372.14
285.95	1392.62
286.17	1322.99
286.38	1363.95
286.60	1306.60
286.81	1349.61
287.03	1327.08
287.24	1331.18
287.46	1402.86
287.67	1406.95
287.89	1406.95
288.10	1337.32
288.32	1351.66
288.53	1458.15
288.75	1357.80
288.96	1347.56
289.18	1300.46
289.39	1347.56
289.61	1355.76
289.82	1464.30
290.04	1337.32
290.25	1357.80
290.47	1368.04
290.68	1298.41
290.90	1406.95
291.11	1273.84
291.33	1419.24
291.54	1361.90
291.76	1306.60
291.97	1282.03
292.18	1363.95
292.40	1390.57
292.61	1372.14
292.83	1466.35
293.04	1343.47
293.26	1413.10
293.47	1456.11
293.69	1322.99
293.90	1251.31
294.12	1441.77
294.33	1355.76
294.55	1345.52
294.76	1411.05
294.97	1417.19
295.19	1411.05
295.40	1366.00
295.62	1411.05
295.83	1374.19
296.05	1273.84
296.26	1456.11
296.48	1304.56
296.69	1370.09
296.90	1374.19
297.12	1415.15
297.33	1384.43
297.55	1345.52
297.76	1335.28
297.98	1378.28
298.19	1421.29
298.41	1341.42
298.62	1394.67
298.83	1427.43
299.05	1363.95
299.26	1306.60
299.48	1359.85
299.69	1382.38
299.90	1357.80
300.12	1335.28
300.33	1488.87
300.55	1355.76
300.76	1343.47
300.98	1318.89
301.19	1402.86
301.40	1390.57
301.62	1302.51
301.83	1409.00
302.05	1409.00
302.26	1404.91
302.47	1322.99
302.69	1316.84
302.90	1355.76
303.12	1337.32
303.33	1345.52
303.54	1368.04
303.76	1325.04
303.97	1402.86
304.19	1425.39
304.40	1325.04
304.61	1349.61
304.83	1478.63
305.04	1318.89
305.26	1384.43
305.47	1374.19
305.68	1339.37
305.90	1366.00
306.11	1425.39
306.33	1394.67
306.54	1333.23
306.75	1327.08
306.97	1368.04
307.18	1302.51
307.39	1318.89
307.61	1384.43
307.82	1318.89
308.04	1359.85
308.25	1337.32
308.46	1413.10
308.68	1421.29
308.89	1425.39
309.10	1472.49
309.32	1421.29
309.53	1294.32
309.74	1363.95
309.96	1394.67
310.17	1433.58
310.39	1341.42
310.60	1333.23
310.81	1419.24
311.03	1351.66
311.24	1400.81
311.45	1327.08
311.67	1411.05
311.88	1288.17
312.09	1322.99
312.31	1349.61
312.52	1300.46
312.73	1384.43
312.95	1355.76
313.16	1359.85
313.37	1398.76
313.59	1437.67
313.80	1380.33
314.01	1425.39
314.23	1366.00
314.44	1400.81
314.65	1327.08
314.87	1296.36
315.08	1331.18
315.29	1335.28
315.51	1302.51
315.72	1378.28
315.93	1359.85
316.15	1396.71
316.36	1351.66
316.57	1290.22
316.79	1425.39
317.00	1357.80
317.21	1417.19
317.43	1380.33
317.64	1419.24
317.85	1409.00
318.07	1445.87
318.28	1501.16
318.49	1507.30
318.70	1642.47
318.92	1505.26
319.13	1609.70
319.34	1570.79
319.56	1429.48
319.77	1490.92
319.98	1447.91
320.20	1400.81
320.41	1398.76
320.62	1368.04
320.83	1314.80
321.05	1480.68
321.26	1388.52
321.47	1314.80
321.69	1392.62
321.90	1316.84
322.11	1322.99
322.32	1374.19
322.54	1386.47
322.75	1423.34
322.96	1441.77
323.18	1363.95
323.39	1345.52
323.60	1290.22
323.81	1359.85
324.03	1368.04
324.24	1429.48
324.45	1413.10
324.66	1390.57
324.88	1322.99
325.09	1419.24
325.30	1363.95
325.52	1349.61
325.73	1314.80
325.94	1292.27
326.15	1265.64
326.37	1329.13
326.58	1417.19
326.79	1392.62
327.00	1294.32
327.22	1396.71
327.43	1357.80
327.64	1347.56
327.85	1406.95
328.07	1437.67
328.28	1435.63
328.49	1333.23
328.70	1396.71
328.92	1361.90
329.13	1341.42
329.34	1372.14
329.55	1505.26
329.76	1478.63
329.98	1429.48
330.19	1394.67
330.40	1382.38
330.61	1392.62
330.83	1327.08
331.04	1331.18
331.25	1322.99
331.46	1359.85
331.68	1357.80
331.89	1413.10
332.10	1339.37
332.31	1296.36
332.52	1337.32
332.74	1388.52
332.95	1349.61
333.16	1390.57
333.37	1353.71
333.58	1322.99
333.80	1376.24
334.01	1368.04
334.22	1411.05
334.43	1370.09
334.64	1304.56
334.86	1443.82
335.07	1425.39
335.28	1390.57
335.49	1284.08
335.70	1429.48
335.92	1409.00
336.13	1427.43
336.34	1394.67
336.55	1415.15
336.76	1392.62
336.98	1320.94
337.19	1337.32
337.40	1503.21
337.61	1382.38
337.82	1439.72
338.04	1421.29
338.25	1298.41
338.46	1239.02
338.67	1298.41
338.88	1361.90
339.09	1351.66
339.31	1279.98
339.52	1380.33
339.73	1382.38
339.94	1445.87
340.15	1294.32
340.36	1372.14
340.58	1355.76
340.79	1265.64
341.00	1394.67
341.21	1296.36
341.42	1404.91
341.63	1398.76
341.85	1406.95
342.06	1386.47
342.27	1363.95
342.48	1351.66
342.69	1363.95
342.90	1374.19
343.12	1361.90
343.33	1394.67
343.54	1376.24
343.75	1484.78
343.96	1372.14
344.17	1396.71
344.38	1425.39
344.60	1374.19
344.81	1335.28
345.02	1361.90
345.23	1329.13
345.44	1425.39
345.65	1394.67
345.86	1339.37
346.07	1351.66
346.29	1374.19
346.50	1435.63
346.71	1415.15
346.92	1462.25
347.13	1431.53
347.34	1421.29
347.55	1404.91
347.76	1271.79
347.98	1318.89
348.19	1378.28
348.40	1517.54
348.61	1322.99
348.82	1370.09
349.03	1368.04
349.24	1366.00
349.45	1402.86
349.66	1312.75
349.88	1355.76
350.09	1363.95
350.30	1421.29
350.51	1394.67
350.72	1361.90
350.93	1396.71
351.14	1355.76
351.35	1411.05
351.56	1439.72
351.77	1374.19
351.99	1288.17
352.20	1402.86
352.41	1402.86
352.62	1306.60
352.83	1347.56
353.04	1404.91
353.25	1357.80
353.46	1390.57
353.67	1388.52
353.88	1300.46
354.09	1388.52
354.30	1331.18
354.52	1308.65
354.73	1390.57
354.94	1329.13
355.15	1341.42
355.36	1417.19
355.57	1320.94
355.78	1390.57
355.99	1308.65
356.20	1400.81
356.41	1370.09
356.62	1349.61
356.83	1378.28
357.04	1429.48
357.25	1372.14
357.46	1335.28
357.68	1341.42
357.89	1318.89
358.10	1343.47
358.31	1339.37
358.52	1386.47
358.73	1310.70
358.94	1273.84
359.15	1333.23
359.36	1361.90
359.57	1374.19
359.78	1454.06
359.99	1421.29
360.20	1325.04
360.41	1357.80
360.62	1392.62
360.83	1368.04
361.04	1370.09
361.25	1349.61
361.46	1411.05
361.67	1384.43
361.88	1374.19
362.09	1390.57
362.30	1425.39
362.51	1312.75
362.72	1357.80
362.93	1376.24
363.14	1394.67
363.35	1421.29
363.56	1349.61
363.78	1404.91
363.99	1347.56
364.20	1316.84
364.41	1325.04
364.62	1452.01
364.83	1363.95
365.04	1425.39
365.25	1277.93
365.46	1433.58
365.67	1404.91
365.88	1392.62
366.09	1363.95
366.30	1390.57
366.51	1279.98
366.72	1335.28
366.93	1388.52
367.14	1331.18
367.35	1472.49
367.56	1347.56
367.77	1472.49
367.98	1421.29
368.18	1386.47
368.39	1372.14
368.60	1445.87
368.81	1449.96
369.02	1470.44
369.23	1411.05
369.44	1314.80
369.65	1388.52
369.86	1413.10
370.07	1372.14
370.28	1351.66
370.49	1404.91
370.70	1406.95
370.91	1292.27
371.12	1376.24
371.33	1394.67
371.54	1335.28
371.75	1476.59
371.96	1310.70
372.17	1447.91
372.38	1386.47
372.59	1386.47
372.80	1380.33
373.01	1368.04
373.22	1296.36
373.43	1386.47
373.64	1286.12
373.85	1390.57
374.06	1474.54
374.26	1370.09
374.47	1427.43
374.68	1435.63
374.89	1349.61
375.10	1359.85
375.31	1470.44
375.52	1425.39
375.73	1392.62
375.94	1298.41
376.15	1474.54
376.36	1380.33
376.57	1402.86
376.78	1359.85
376.99	1339.37
377.20	1468.39
377.40	1306.60
377.61	1474.54
377.82	1310.70
378.03	1370.09
378.24	1382.38
378.45	1406.95
378.66	1312.75
378.87	1331.18
379.08	1247.21
379.29	1460.20
379.50	1415.15
379.71	1359.85
379.91	1396.71
380.12	1304.56
380.33	1386.47
380.54	1388.52
380.75	1343.47
380.96	1409.00
381.17	1402.86
381.38	1435.63
381.59	1445.87
381.80	1458.15
382.00	1472.49
382.21	1423.34
382.42	1443.82
382.63	1427.43
382.84	1460.20
383.05	1441.77
383.26	1417.19
383.47	1374.19
383.68	1419.24
383.88	1411.05
384.09	1400.81
384.30	1468.39
384.51	1374.19
384.72	1345.52
384.93	1374.19
385.14	1331.18
385.35	1454.06
385.55	1288.17
385.76	1470.44
385.97	1327.08
386.18	1343.47
386.39	1462.25
386.60	1499.11
386.81	1404.91
387.02	1421.29
387.22	1325.04
387.43	1447.91
387.64	1640.42
387.85	2328.54
388.06	5754.79
388.27	9647.98
388.48	11546.45
388.68	13172.54
388.89	13172.54
389.10	10620.77
389.31	9269.11
389.52	8427.39
389.73	7446.41
389.93	6934.42
390.14	6670.23
390.35	6102.95
390.56	5547.95
390.77	4571.07
390.98	3602.38
391.18	2799.57
391.39	2072.54
391.60	1716.20
391.81	1560.55
392.02	1431.53
392.23	1492.97
392.43	1374.19
392.64	1425.39
392.85	1433.58
393.06	1433.58
393.27	1406.95
393.47	1421.29
393.68	1353.71
393.89	1345.52
394.10	1452.01
394.31	1337.32
394.52	1359.85
394.72	1353.71
394.93	1406.95
395.14	1376.24
395.35	1370.09
395.56	1366.00
395.76	1476.59
395.97	1521.64
396.18	1581.03
396.39	1597.42
396.60	1650.66
396.80	1548.26
397.01	1519.59
397.22	1429.48
397.43	1495.02
397.64	1423.34
397.84	1492.97
398.05	1474.54
398.26	1429.48
398.47	1474.54
398.67	1462.25
398.88	1370.09
399.09	1396.71
399.30	1376.24
399.51	1402.86
399.71	1331.18
399.92	1392.62
400.13	1353.71
400.34	1329.13
400.54	1396.71
400.75	1462.25
400.96	1380.33
401.17	1466.35
401.37	1447.91
401.58	1433.58
401.79	1495.02
402.00	1708.01
402.21	1812.45
402.41	1761.25
402.62	1771.49
402.83	1734.63
403.04	1673.19
403.24	1759.21
403.45	1583.08
403.66	1654.76
403.87	1568.74
404.07	1538.02
404.28	1595.37
404.49	1527.78
404.70	1519.59
404.90	1458.15
405.11	1345.52
405.32	1429.48
405.52	1454.06
405.73	1318.89
405.94	1398.76
406.15	1452.01
406.35	1335.28
406.56	1394.67
406.77	1308.65
406.98	1378.28
407.18	1339.37
407.39	1347.56
407.60	1392.62
407.80	1339.37
408.01	1325.04
408.22	1380.33
408.43	1400.81
408.63	1363.95
408.84	1388.52
409.05	1374.19
409.25	1359.85
409.46	1409.00
409.67	1277.93
409.88	1441.77
410.08	1359.85
410.29	1308.65
410.50	1282.03
410.70	1374.19
410.91	1353.71
411.12	1462.25
411.32	1372.14
411.53	1370.09
411.74	1447.91
411.95	1441.77
412.15	1452.01
412.36	1386.47
412.57	1376.24
412.77	1464.30
412.98	1406.95
413.19	1341.42
413.39	1355.76
413.60	1447.91
413.81	1503.21
414.01	1398.76
414.22	1400.81
414.43	1439.72
414.63	1398.76
414.84	1419.24
415.05	1386.47
415.25	1363.95
415.46	1421.29
415.67	1404.91
415.87	1417.19
416.08	1419.24
416.29	1458.15
416.49	1388.52
416.70	1327.08
416.91	1370.09
417.11	1343.47
417.32	1396.71
417.53	1411.05
417.73	1454.06
417.94	1396.71
418.15	1398.76
418.35	1396.71
418.56	1386.47
418.77	1492.97
418.97	1312.75
419.18	1406.95
419.38	1265.64
419.59	1396.71
419.80	1417.19
420.00	1363.95
420.21	1402.86
420.42	1423.34
420.62	1322.99
420.83	1366.00
421.04	1288.17
421.24	1331.18
421.45	1376.24
421.65	1411.05
421.86	1429.48
422.07	1374.19
422.27	1398.76
422.48	1382.38
422.69	1337.32
422.89	1413.10
423.10	1417.19
423.30	1349.61
423.51	1413.10
423.72	1429.48
423.92	1363.95
424.13	1376.24
424.33	1337.32
424.54	1384.43
424.75	1347.56
424.95	1456.11
425.16	1423.34
425.36	1374.19
425.57	1406.95
425.78	1374.19
425.98	1353.71
426.19	1437.67
426.39	1398.76
426.60	1388.52
426.81	1449.96
427.01	1425.39
427.22	1388.52
427.42	1259.50
427.63	1316.84
427.83	1425.39
428.04	1425.39
428.25	1398.76
428.45	1392.62
428.66	1376.24
428.86	1353.71
429.07	1296.36
429.28	1380.33
429.48	1388.52
429.69	1265.64
429.89	1384.43
430.10	1275.88
430.30	1380.33
430.51	1337.32
430.71	1398.76
430.92	1337.32
431.13	1345.52
431.33	1337.32
431.54	1306.60
431.74	1402.86
431.95	1462.25
432.15	1318.89
432.36	1376.24
432.56	1398.76
432.77	1441.77
432.98	1480.68
433.18	1411.05
433.39	1370.09
433.59	1329.13
433.80	1406.95
434.00	1509.35
434.21	1312.75
434.41	1341.42
434.62	1437.67
434.82	1409.00
435.03	1409.00
435.23	1327.08
435.44	1306.60
435.64	1433.58
435.85	1419.24
436.06	1409.00
436.26	1382.38
436.47	1368.04
436.67	1386.47
436.88	1384.43
437.08	1339.37
437.29	1464.30
437.49	1382.38
437.70	1378.28
437.90	1468.39
438.11	1484.78
438.31	1548.26
438.52	1535.98
438.72	1460.20
438.93	1597.42
439.13	1388.52
439.34	1558.50
439.54	1406.95
439.75	1396.71
439.95	1421.29
440.16	1316.84
440.36	1376.24
440.57	1449.96
440.77	1380.33
440.98	1437.67
441.18	1417.19
441.39	1363.95
441.59	1353.71
441.80	1388.52
442.00	1349.61
442.21	1478.63
442.41	1320.94
442.62	1419.24
442.82	1359.85
443.02	1406.95
443.23	1470.44
443.43	1345.52
443.64	1462.25
443.84	1406.95
444.05	1478.63
444.25	1433.58
444.46	1345.52
444.66	1372.14
444.87	1443.82
445.07	1320.94
445.28	1384.43
445.48	1454.06
445.69	1468.39
445.89	1449.96
446.09	1501.16
446.30	2189.28
446.50	3665.86
446.71	4796.34
446.91	5380.01
447.12	5584.81
447.32	4974.52
447.53	4116.42
447.73	3862.47
447.93	3471.31
448.14	3123.15
448.34	3104.72
448.55	2883.54
448.75	2801.62
448.96	2629.59
449.16	2256.86
449.36	2215.90
449.57	1851.36
449.77	1648.61
449.98	1552.36
450.18	1507.30
450.39	1486.83
450.59	1378.28
450.79	1353.71
451.00	1386.47
451.20	1378.28
451.41	1349.61
451.61	1331.18
451.81	1331.18
452.02	1351.66
452.22	1415.15
452.43	1310.70
452.63	1372.14
452.84	1415.15
453.04	1386.47
453.24	1443.82
453.45	1380.33
453.65	1368.04
453.86	1349.61
454.06	1370.09
454.26	1378.28
454.47	1314.80
454.67	1409.00
454.87	1343.47
455.08	1386.47
455.28	1517.54
455.49	1337.32
455.69	1394.67
455.89	1486.83
456.10	1443.82
456.30	1423.34
456.51	1417.19
456.71	1445.87
456.91	1351.66
457.12	1353.71
457.32	1423.34
457.52	1322.99
457.73	1386.47
457.93	1363.95
458.14	1374.19
458.34	1370.09
458.54	1388.52
458.75	1431.53
458.95	1406.95
459.15	1310.70
459.36	1300.46
459.56	1374.19
459.76	1378.28
459.97	1388.52
460.17	1279.98
460.37	1402.86
460.58	1398.76
460.78	1366.00
460.99	1382.38
461.19	1394.67
461.39	1333.23
461.60	1349.61
461.80	1355.76
462.00	1310.70
462.21	1388.52
462.41	1314.80
462.61	1366.00
462.82	1351.66
463.02	1404.91
463.22	1329.13
463.43	1497.07
463.63	1486.83
463.83	1454.06
464.04	1394.67
464.24	1384.43
464.44	1286.12
464.64	1316.84
464.85	1411.05
465.05	1425.39
465.25	1415.15
465.46	1415.15
465.66	1419.24
465.86	1374.19
466.07	1376.24
466.27	1359.85
466.47	1327.08
466.68	1349.61
466.88	1398.76
467.08	1366.00
467.29	1372.14
467.49	1406.95
467.69	1355.76
467.89	1378.28
468.10	1415.15
468.30	1380.33
468.50	1437.67
468.71	1460.20
468.91	1413.10
469.11	1423.34
469.31	1339.37
469.52	1349.61
469.72	1492.97
469.92	1421.29
470.13	1312.75
470.33	1437.67
470.53	1624.04
470.73	2101.22
470.94	2258.91
471.14	2373.60
471.34	2545.63
471.54	2158.56
471.75	2004.96
471.95	1904.61
472.15	1894.37
472.36	1791.97
472.56	1781.73
472.76	1724.39
472.96	1740.77
473.17	1617.90
473.37	1689.57
473.57	1578.98
473.77	1515.50
473.98	1402.86
474.18	1454.06
474.38	1505.26
474.58	1388.52
474.79	1370.09
474.99	1433.58
475.19	1435.63
475.39	1339.37
475.60	1398.76
475.80	1427.43
476.00	1359.85
476.20	1370.09
476.41	1380.33
476.61	1447.91
476.81	1443.82
477.01	1318.89
477.21	1421.29
477.42	1445.87
477.62	1337.32
477.82	1456.11
478.02	1343.47
478.23	1337.32
478.43	1349.61
478.63	1415.15
478.83	1390.57
479.03	1372.14
479.24	1388.52
479.44	1372.14
479.64	1404.91
479.84	1376.24
480.04	1345.52
480.25	1441.77
480.45	1370.09
480.65	1298.41
480.85	1452.01
481.06	1341.42
481.26	1435.63
481.46	1361.90
481.66	1396.71
481.86	1343.47
482.06	1380.33
482.27	1308.65
482.47	1431.53
482.67	1402.86
482.87	1411.05
483.07	1458.15
483.28	1390.57
483.48	1351.66
483.68	1357.80
483.88	1359.85
484.08	1279.98
484.29	1366.00
484.49	1445.87
484.69	1325.04
484.89	1439.72
485.09	1421.29
485.29	1458.15
485.50	1419.24
485.70	1386.47
485.90	1460.20
486.10	1382.38
486.30	1353.71
486.50	1378.28
486.71	1394.67
486.91	1421.29
487.11	1425.39
487.31	1318.89
487.51	1431.53
487.71	1275.88
487.91	1351.66
488.12	1316.84
488.32	1273.84
488.52	1290.22
488.72	1394.67
488.92	1402.86
489.12	1468.39
489.32	1431.53
489.53	1366.00
489.73	1329.13
489.93	1445.87
490.13	1382.38
490.33	1292.27
490.53	1343.47
490.73	1445.87
490.94	1316.84
491.14	1439.72
491.34	1621.99
491.54	2097.12
491.74	2654.17
491.94	2901.97
492.14	3209.17
492.34	3033.04
492.54	2631.64
492.75	2256.86
492.95	2224.09
493.15	2162.66
493.35	2002.91
493.55	1974.24
493.75	1933.28
493.95	1953.76
494.15	1832.93
494.35	1751.01
494.56	1716.20
494.76	1474.54
494.96	1476.59
495.16	1495.02
495.36	1331.18
495.56	1427.43
495.76	1417.19
495.96	1314.80
496.16	1390.57
496.36	1478.63
496.56	1359.85
496.77	1435.63
496.97	1331.18
497.17	1464.30
497.37	1353.71
497.57	1413.10
497.77	1351.66
497.97	1363.95
498.17	1378.28
498.37	1355.76
498.57	1386.47
498.77	1431.53
498.97	1435.63
499.17	1454.06
499.38	1417.19
499.58	1507.30
499.78	1458.15
499.98	1411.05
500.18	1357.80
500.38	1394.67
500.58	1650.66
500.78	2992.08
500.98	5541.80
501.18	7008.15
501.38	8206.21
501.58	8722.30
501.78	7710.60
501.98	5758.89
502.18	5183.41
502.38	4542.39
502.58	4097.99
502.78	3893.19
502.98	3596.23
503.18	3489.74
503.38	3256.27
503.59	3035.09
503.79	2916.31
503.99	2609.11
504.19	2336.73
504.39	2179.04
504.59	2045.92
504.79	1861.60
504.99	1828.84
505.19	1689.57
505.39	1611.75
505.59	1650.66
505.79	1572.84
505.99	1523.69
506.19	1472.49
506.39	1556.46
506.59	1425.39
506.79	1427.43
506.99	1540.07
507.19	1445.87
507.39	1425.39
507.59	1378.28
507.79	1355.76
507.99	1396.71
508.19	1382.38
508.39	1310.70
508.59	1339.37
508.79	1406.95
508.99	1409.00
509.19	1366.00
509.39	1329.13
509.59	1372.14
509.79	1312.75
509.99	1388.52
510.19	1402.86
510.39	1411.05
510.59	1347.56
510.79	1372.14
510.99	1269.74
511.19	1361.90
511.39	1458.15
511.59	1413.10
511.79	1406.95
511.99	1376.24
512.19	1439.72
512.38	1347.56
512.58	1427.43
512.78	1382.38
512.98	1429.48
513.18	1384.43
513.38	1406.95
513.58	1363.95
513.78	1292.27
513.98	1249.26
514.18	1380.33
514.38	1427.43
514.58	1347.56
514.78	1333.23
514.98	1366.00
515.18	1335.28
515.38	1380.33
515.58	1476.59
515.78	1429.48
515.98	1368.04
516.18	1396.71
516.38	1292.27
516.57	1421.29
516.77	1382.38
516.97	1361.90
517.17	1402.86
517.37	1359.85
517.57	1386.47
517.77	1327.08
517.97	1329.13
518.17	1441.77
518.37	1411.05
518.57	1310.70
518.77	1335.28
518.97	1400.81
519.16	1415.15
519.36	1445.87
519.56	1314.80
519.76	1333.23
519.96	1361.90
520.16	1458.15
520.36	1341.42
520.56	1452.01
520.76	1386.47
520.96	1361.90
521.16	1370.09
521.35	1396.71
521.55	1347.56
521.75	1402.86
521.95	1353.71
522.15	1402.86
522.35	1378.28
522.55	1368.04
522.75	1374.19
522.95	1390.57
523.14	1376.24
523.34	1382.38
523.54	1345.52
523.74	1404.91
523.94	1421.29
524.14	1286.12
524.34	1431.53
524.54	1421.29
524.73	1404.91
524.93	1339.37
525.13	1310.70
525.33	1304.56
525.53	1460.20
525.73	1304.56
525.93	1394.67
526.13	1396.71
526.32	1331.18
526.52	1331.18
526.72	1308.65
526.92	1366.00
527.12	1402.86
527.32	1378.28
527.52	1374.19
527.71	1427.43
527.91	1339.37
528.11	1300.46
528.31	1320.94
528.51	1284.08
528.71	1445.87
528.90	1380.33
529.10	1404.91
529.30	1429.48
529.50	1288.17
529.70	1392.62
529.90	1320.94
530.09	1376.24
530.29	1294.32
530.49	1396.71
530.69	1470.44
530.89	1443.82
531.09	1433.58
531.28	1378.28
531.48	1353.71
531.68	1368.04
531.88	1388.52
532.08	1355.76
532.28	1366.00
532.47	1376.24
532.67	1462.25
532.87	1443.82
533.07	1351.66
533.27	1439.72
533.46	1380.33
533.66	1372.14
533.86	1386.47
534.06	1443.82
534.26	1404.91
534.45	1392.62
534.65	1452.01
534.85	1394.67
535.05	1353.71
535.25	1374.19
535.44	1345.52
535.64	1404.91
535.84	1353.71
536.04	1376.24
536.24	1380.33
536.43	1386.47
536.63	1429.48
536.83	1404.91
537.03	1429.48
537.22	1314.80
537.42	1384.43
537.62	1388.52
537.82	1359.85
538.02	1386.47
538.21	1443.82
538.41	1476.59
538.61	1380.33
538.81	1361.90
539.00	1363.95
539.20	1376.24
539.40	1316.84
539.60	1279.98
539.79	1462.25
539.99	1320.94
540.19	1327.08
540.39	1374.19
540.58	1400.81
540.78	1480.68
540.98	1345.52
541.18	1464.30
541.37	1441.77
541.57	1363.95
541.77	1404.91
541.97	1419.24
542.16	1347.56
542.36	1394.67
542.56	1394.67
542.76	1439.72
542.95	1437.67
543.15	1419.24
543.35	1380.33
543.54	1343.47
543.74	1314.80
543.94	1347.56
544.14	1304.56
544.33	1351.66
544.53	1347.56
544.73	1425.39
544.93	1304.56
545.12	1396.71
545.32	1449.96
545.52	1409.00
545.71	1370.09
545.91	1333.23
546.11	1384.43
546.30	1411.05
546.50	1413.10
546.70	1363.95
546.90	1400.81
547.09	1284.08
547.29	1347.56
547.49	1380.33
547.68	1374.19
547.88	1320.94
548.08	1423.34
548.27	1650.66
548.47	1302.51
548.67	1298.41
548.87	1347.56
549.06	1380.33
549.26	1443.82
549.46	1363.95
549.65	1378.28
549.85	1398.76
550.05	1417.19
550.24	1355.76
550.44	1452.01
550.64	1376.24
550.83	1341.42
551.03	1368.04
551.23	1452.01
551.42	1392.62
551.62	1361.90
551.82	1329.13
552.01	1378.28
552.21	1396.71
552.41	1392.62
552.60	1382.38
552.80	1353.71
553.00	1335.28
553.19	1384.43
553.39	1452.01
553.59	1404.91
553.78	1388.52
553.98	1452.01
554.17	1415.15
554.37	1413.10
554.57	1368.04
554.76	1314.80
554.96	1435.63
555.16	1400.81
555.35	1390.57
555.55	1421.29
555.75	1400.81
555.94	1441.77
556.14	1265.64
556.33	1449.96
556.53	1392.62
556.73	1380.33
556.92	1392.62
557.12	1306.60
557.32	1468.39
557.51	1460.20
557.71	1378.28
557.90	1396.71
558.10	1404.91
558.30	1437.67
558.49	1380.33
558.69	1363.95
558.88	1411.05
559.08	1382.38
559.28	1390.57
559.47	1361.90
559.67	1388.52
559.86	1378.28
560.06	1402.86
560.26	1411.05
560.45	1437.67
560.65	1413.10
560.84	1437.67
561.04	1435.63
561.24	1454.06
561.43	1376.24
561.63	1415.15
561.82	1314.80
562.02	1386.47
562.22	1415.15
562.41	1402.86
562.61	1380.33
562.80	1370.09
563.00	1490.92
563.19	1366.00
563.39	1380.33
563.59	1394.67
563.78	1304.56
563.98	1282.03
564.17	1421.29
564.37	1275.88
564.56	1378.28
564.76	1339.37
564.96	1435.63
565.15	1392.62
565.35	1468.39
565.54	1429.48
565.74	1460.20
565.93	1378.28
566.13	1380.33
566.32	1382.38
566.52	1441.77
566.71	1374.19
566.91	1415.15
567.11	1411.05
567.30	1400.81
567.50	1376.24
567.69	1361.90
567.89	1320.94
568.08	1370.09
568.28	1380.33
568.47	1368.04
568.67	1363.95
568.86	1361.90
569.06	1368.04
569.25	1439.72
569.45	1355.76
569.64	1349.61
569.84	1378.28
570.04	1335.28
570.23	1392.62
570.43	1353.71
570.62	1452.01
570.82	1400.81
571.01	1396.71
571.21	1361.90
571.40	1372.14
571.60	1396.71
571.79	1417.19
571.99	1462.25
572.18	1300.46
572.38	1419.24
572.57	1384.43
572.77	1374.19
572.96	1492.97
573.16	1456.11
573.35	1345.52
573.55	1445.87
573.74	1388.52
573.94	1306.60
574.13	1363.95
574.33	1421.29
574.52	1497.07
574.71	1363.95
574.91	1458.15
575.10	1396.71
575.30	1363.95
575.49	1443.82
575.69	1372.14
575.88	1376.24
576.08	1413.10
576.27	1478.63
576.47	1507.30
576.66	1544.17
576.86	1482.73
577.05	1398.76
577.25	1499.11
577.44	1460.20
577.64	1429.48
577.83	1439.72
578.02	1415.15
578.22	1431.53
578.41	1456.11
578.61	1454.06
578.80	1355.76
579.00	1452.01
579.19	1427.43
579.39	1474.54
579.58	1454.06
579.77	1476.59
579.97	1441.77
580.16	1499.11
580.36	1398.76
580.55	1499.11
580.75	1449.96
580.94	1413.10
581.13	1474.54
581.33	1499.11
581.52	1411.05
581.72	1538.02
581.91	1413.10
582.11	1454.06
582.30	1490.92
582.49	1447.91
582.69	1540.07
582.88	1390.57
583.08	1392.62
583.27	1472.49
583.47	1462.25
583.66	1482.73
583.85	1382.38
584.05	1478.63
584.24	1419.24
584.44	1443.82
584.63	1523.69
584.82	1538.02
585.02	1533.93
585.21	1603.56
585.41	1607.66
585.60	1585.13
585.79	1613.80
585.99	1669.09
586.18	1634.28
586.37	1818.60
586.57	2766.81
586.76	8099.72
586.96	24319.63
587.15	41608.58
587.34	52241.63
587.54	60177.51
587.73	59677.81
587.93	45016.40
588.12	33093.13
588.31	27014.76
588.51	22691.49
588.70	20152.01
588.89	18583.27
589.09	17309.43
589.28	16170.76
589.47	14303.01
589.67	12748.61
589.86	10897.24
590.06	8437.63
590.25	6694.81
590.44	4878.26
590.64	3747.78
590.83	2928.60
591.02	2312.16
591.22	1945.57
591.41	1693.67
591.60	1593.32
591.80	1621.99
591.99	1490.92
592.18	1480.68
592.38	1437.67
592.57	1419.24
592.76	1431.53
592.96	1419.24
593.15	1384.43
593.34	1574.89
593.54	1480.68
593.73	1447.91
593.92	1445.87
594.12	1507.30
594.31	1452.01
594.50	1535.98
594.70	1499.11
594.89	1517.54
595.08	1394.67
595.28	1390.57
595.47	1519.59
595.66	1492.97
595.86	1331.18
596.05	1470.44
596.24	1472.49
596.43	1523.69
596.63	1413.10
596.82	1359.85
597.01	1427.43
597.21	1490.92
597.40	1380.33
597.59	1480.68
597.79	1443.82
597.98	1482.73
598.17	1400.81
598.36	1366.00
598.56	1429.48
598.75	1402.86
598.94	1429.48
599.14	1425.39
599.33	1386.47
599.52	1478.63
599.71	1437.67
599.91	1353.71
600.10	1429.48
600.29	1298.41
600.48	1452.01
600.68	1384.43
600.87	1390.57
601.06	1337.32
601.26	1337.32
601.45	1380.33
601.64	1339.37
601.83	1476.59
602.03	1374.19
602.22	1390.57
602.41	1421.29
602.60	1419.24
602.80	1482.73
602.99	1456.11
603.18	1423.34
603.37	1396.71
603.57	1427.43
603.76	1460.20
603.95	1437.67
604.14	1363.95
604.34	1333.23
604.53	1359.85
604.72	1306.60
604.91	1363.95
605.10	1402.86
605.30	1355.76
605.49	1472.49
605.68	1409.00
605.87	1404.91
606.07	1351.66
606.26	1341.42
606.45	1380.33
606.64	1329.13
606.84	1353.71
607.03	1413.10
607.22	1400.81
607.41	1435.63
607.60	1396.71
607.80	1505.26
607.99	1427.43
608.18	1380.33
608.37	1476.59
608.56	1413.10
608.76	1447.91
608.95	1454.06
609.14	1509.35
609.33	1535.98
609.52	1488.87
609.72	1527.78
609.91	1552.36
610.10	1402.86
610.29	1593.32
610.48	1419.24
610.68	1447.91
610.87	1329.13
611.06	1468.39
611.25	1372.14
611.44	1447.91
611.63	1380.33
611.83	1525.74
612.02	1327.08
612.21	1521.64
612.40	1409.00
612.59	1312.75
612.79	1310.70
612.98	1396.71
613.17	1449.96
613.36	1351.66
613.55	1445.87
613.74	1409.00
613.93	1556.46
614.13	1576.94
614.32	1603.56
614.51	1642.47
614.70	1523.69
614.89	1499.11
615.08	1468.39
615.28	1712.10
615.47	1460.20
615.66	1402.86
615.85	1558.50
616.04	1447.91
616.23	1525.74
616.42	1468.39
616.62	1490.92
616.81	1402.86
617.00	1386.47
617.19	1423.34
617.38	1384.43
617.57	1378.28
617.76	1519.59
617.95	1474.54
618.15	1433.58
618.34	1380.33
618.53	1353.71
618.72	1433.58
618.91	1421.29
619.10	1447.91
619.29	1327.08
619.48	1382.38
619.68	1345.52
619.87	1376.24
620.06	1345.52
620.25	1402.86
620.44	1335.28
620.63	1392.62
620.82	1421.29
621.01	1388.52
621.20	1368.04
621.39	1458.15
621.59	1413.10
621.78	1398.76
621.97	1380.33
622.16	1445.87
622.35	1394.67
622.54	1452.01
622.73	1462.25
622.92	1329.13
623.11	1472.49
623.30	1376.24
623.49	1384.43
623.68	1380.33
623.88	1425.39
624.07	1411.05
624.26	1417.19
624.45	1327.08
624.64	1302.51
624.83	1355.76
625.02	1327.08
625.21	1411.05
625.40	1406.95
625.59	1368.04
625.78	1357.80
625.97	1454.06
626.16	1431.53
626.35	1495.02
626.54	1486.83
626.74	1578.98
626.93	1488.87
627.12	1443.82
627.31	1443.82
627.50	1394.67
627.69	1445.87
627.88	1425.39
628.07	1433.58
628.26	1320.94
628.45	1404.91
628.64	1353.71
628.83	1390.57
629.02	1382.38
629.21	1419.24
629.40	1345.52
629.59	1411.05
629.78	1368.04
629.97	1388.52
630.16	1316.84
630.35	1353.71
630.54	1409.00
630.73	1355.76
630.92	1372.14
631.11	1370.09
631.30	1441.77
631.49	1368.04
631.68	1347.56
631.87	1390.57
632.06	1327.08
632.25	1460.20
632.44	1314.80
632.63	1433.58
632.82	1409.00
633.01	1449.96
633.20	1415.15
633.39	1513.45
633.58	1474.54
633.77	1429.48
633.96	1441.77
634.15	1468.39
634.34	1452.01
634.53	1427.43
634.72	1380.33
634.91	1372.14
635.10	1394.67
635.29	1423.34
635.48	1431.53
635.67	1353.71
635.86	1366.00
636.05	1322.99
636.24	1429.48
636.43	1404.91
636.62	1409.00
636.81	1275.88
637.00	1402.86
637.19	1454.06
637.38	1390.57
637.57	1363.95
637.76	1378.28
637.95	1462.25
638.14	1492.97
638.33	1499.11
638.52	1521.64
638.71	1470.44
638.89	1419.24
639.08	1527.78
639.27	1492.97
639.46	1437.67
639.65	1691.62
639.84	1820.64
640.03	2093.02
640.22	2054.11
640.41	2158.56
640.60	1972.19
640.79	1789.92
640.98	1646.57
641.17	1621.99
641.36	1630.18
641.55	1681.38
641.74	1564.65
641.92	1570.79
642.11	1452.01
642.30	1538.02
642.49	1413.10
642.68	1435.63
642.87	1501.16
643.06	1574.89
643.25	1406.95
643.44	1275.88
643.63	1359.85
643.82	1384.43
644.00	1368.04
644.19	1374.19
644.38	1322.99
644.57	1478.63
644.76	1400.81
644.95	1318.89
645.14	1439.72
645.33	1380.33
645.52	1374.19
645.71	1337.32
645.89	1314.80
646.08	1347.56
646.27	1368.04
646.46	1421.29
646.65	1349.61
646.84	1339.37
647.03	1329.13
647.22	1374.19
647.40	1374.19
647.59	1322.99
647.78	1316.84
647.97	1314.80
648.16	1361.90
648.35	1441.77
648.54	1441.77
648.73	1302.51
648.91	1411.05
649.10	1366.00
649.29	1271.79
649.48	1355.76
649.67	1363.95
649.86	1435.63
650.05	1417.19
650.23	1460.20
650.42	1531.88
650.61	1595.37
650.80	1646.57
650.99	1628.14
651.18	1568.74
651.36	1531.88
651.55	1421.29
651.74	1433.58
651.93	1429.48
652.12	1363.95
652.31	1437.67
652.49	1421.29
652.68	1413.10
652.87	1462.25
653.06	1452.01
653.25	1452.01
653.44	1386.47
653.62	1468.39
653.81	1452.01
654.00	1411.05
654.19	1404.91
654.38	1390.57
654.56	1429.48
654.75	1271.79
654.94	1421.29
655.13	1376.24
655.32	1343.47
655.51	1439.72
655.69	1349.61
655.88	1445.87
656.07	1390.57
656.26	1396.71
656.45	1337.32
656.63	1452.01
656.82	1325.04
657.01	1415.15
657.20	1359.85
657.38	1384.43
657.57	1335.28
657.76	1320.94
657.95	1413.10
658.14	1325.04
658.32	1380.33
658.51	1359.85
658.70	1417.19
658.89	1411.05
659.08	1363.95
659.26	1445.87
659.45	1349.61
659.64	1472.49
659.83	1413.10
660.01	1638.38
660.20	1470.44
660.39	1517.54
660.58	1372.14
660.76	1394.67
660.95	1357.80
661.14	1417.19
661.33	1314.80
661.51	1376.24
661.70	1331.18
661.89	1411.05
662.08	1372.14
662.26	1304.56
662.45	1388.52
662.64	1480.68
662.83	1421.29
663.01	1359.85
663.20	1249.26
663.39	1515.50
663.58	1333.23
663.76	1329.13
663.95	1406.95
664.14	1351.66
664.32	1398.76
664.51	1310.70
664.70	1347.56
664.89	1343.47
665.07	1306.60
665.26	1402.86
665.45	1355.76
665.64	1386.47
665.82	1380.33
666.01	1411.05
666.20	1368.04
666.38	1495.02
666.57	1501.16
666.76	1595.37
666.95	2095.07
667.13	4466.62
667.32	11487.06
667.51	18056.94
667.69	21876.40
667.88	25179.78
668.07	24632.97
668.25	19171.04
668.44	13821.74
668.63	11255.64
668.81	9217.91
669.00	8062.85
669.19	7460.75
669.38	6864.79
669.56	6299.55
669.75	5564.33
669.94	4970.42
670.12	4300.73
670.31	3520.46
670.50	2979.79
670.68	2486.23
670.87	2125.79
671.06	1759.21
671.24	1699.81
671.43	1638.38
671.62	1527.78
671.80	1527.78
671.99	1529.83
672.18	1462.25
672.36	1449.96
672.55	1404.91
672.74	1396.71
672.92	1296.36
673.11	1443.82
673.29	1402.86
673.48	1400.81
673.67	1329.13
673.85	1320.94
674.04	1333.23
674.23	1433.58
674.41	1421.29
674.60	1394.67
674.79	1415.15
674.97	1396.71
675.16	1378.28
675.34	1396.71
675.53	1374.19
675.72	1351.66
675.90	1322.99
676.09	1343.47
676.28	1325.04
676.46	1249.26
676.65	1337.32
676.83	1304.56
677.02	1384.43
677.21	1341.42
677.39	1376.24
677.58	1351.66
677.77	1318.89
677.95	1339.37
678.14	1353.71
678.32	1366.00
678.51	1394.67
678.70	1454.06
678.88	1335.28
679.07	1433.58
679.25	1390.57
679.44	1400.81
679.63	1368.04
679.81	1404.91
680.00	1468.39
680.18	1466.35
680.37	1402.86
680.55	1368.04
680.74	1251.31
680.93	1394.67
681.11	1392.62
681.30	1382.38
681.48	1439.72
681.67	1306.60
681.85	1366.00
682.04	1310.70
682.23	1404.91
682.41	1409.00
682.60	1310.70
682.78	1355.76
682.97	1312.75
683.15	1413.10
683.34	1357.80
683.53	1462.25
683.71	1267.69
683.90	1521.64
684.08	1435.63
684.27	1394.67
684.45	1425.39
684.64	1370.09
684.82	1345.52
685.01	1370.09
685.19	1347.56
685.38	1452.01
685.57	1349.61
685.75	1294.32
685.94	1433.58
686.12	1341.42
686.31	1363.95
686.49	1447.91
686.68	1380.33
686.86	1406.95
687.05	1413.10
687.23	1462.25
687.42	1355.76
687.60	1292.27
687.79	1382.38
687.97	1542.12
688.16	1445.87
688.34	1443.82
688.53	1308.65
688.71	1429.48
688.90	1384.43
689.08	1378.28
689.27	1261.55
689.45	1357.80
689.64	1409.00
689.82	1421.29
690.01	1351.66
690.19	1388.52
690.38	1433.58
690.56	1462.25
690.75	1302.51
690.93	1433.58
691.12	1329.13
691.30	1386.47
691.49	1325.04
691.67	1388.52
691.86	1400.81
692.04	1402.86
692.23	1392.62
692.41	1402.86
692.60	1482.73
692.78	1429.48
692.97	1437.67
693.15	1501.16
693.34	1529.83
693.52	1525.74
693.71	1486.83
693.89	1423.34
694.08	1372.14
694.26	1437.67
694.44	1372.14
694.63	1406.95
694.81	1339.37
695.00	1402.86
695.18	1392.62
695.37	1501.16
695.55	1337.32
695.74	1437.67
695.92	1347.56
696.10	1478.63
696.29	1322.99
696.47	1312.75
696.66	1288.17
696.84	1349.61
697.03	1415.15
697.21	1464.30
697.40	1796.07
697.58	1386.47
697.76	1345.52
697.95	1361.90
698.13	1413.10
698.32	1372.14
698.50	1415.15
698.68	1349.61
698.87	1329.13
699.05	1423.34
699.24	1306.60
699.42	1380.33
699.61	1366.00
699.79	1415.15
699.97	1353.71
700.16	1372.14
700.34	1302.51
700.53	1411.05
700.71	1425.39
700.89	1433.58
701.08	1398.76
701.26	1370.09
701.45	1662.95
701.63	1320.94
701.81	1447.91
702.00	1386.47
702.18	1400.81
702.37	1417.19
702.55	1478.63
702.73	1429.48
702.92	1445.87
703.10	1654.76
703.28	1683.43
703.47	1636.33
703.65	1677.29
703.84	1576.94
704.02	1476.59
704.20	1515.50
704.39	1400.81
704.57	1443.82
704.75	1527.78
704.94	1439.72
705.12	1441.77
705.30	1445.87
705.49	1550.31
705.67	1837.03
705.86	3549.13
706.04	9285.49
706.22	16299.78
706.41	19482.33
706.59	22679.21
706.77	23611.03
706.96	20270.79
707.14	13967.15
707.32	11392.85
707.51	9410.42
707.69	8292.23
707.87	7501.71
708.06	6682.52
708.24	6131.62
708.42	5064.63
708.61	4046.79
708.79	3004.37
708.97	2488.28
709.16	2062.30
709.34	1791.97
709.52	1581.03
709.71	1583.08
709.89	1482.73
710.07	1509.35
710.26	1433.58
710.44	1423.34
710.62	1392.62
710.80	1433.58
710.99	1366.00
711.17	1359.85
711.35	1363.95
711.54	1384.43
711.72	1439.72
711.90	1394.67
712.09	1351.66
712.27	1327.08
712.45	1423.34
712.63	1359.85
712.82	1331.18
713.00	1372.14
713.18	1355.76
713.37	1409.00
713.55	1415.15
713.73	1374.19
713.91	1361.90
714.10	1413.10
714.28	1312.75
714.46	1413.10
714.65	1437.67
714.83	1372.14
715.01	1406.95
715.19	1415.15
715.38	1318.89
715.56	1378.28
715.74	1368.04
715.92	1290.22
716.11	1361.90
716.29	1325.04
716.47	1331.18
716.65	1411.05
716.84	1333.23
717.02	1361.90
717.20	1376.24
717.38	1396.71
717.57	1370.09
717.75	1339.37
717.93	1384.43
718.11	1335.28
718.30	1366.00
718.48	1359.85
718.66	1394.67
718.84	1447.91
719.03	1341.42
719.21	1382.38
719.39	1421.29
719.57	1376.24
719.75	1425.39
719.94	1366.00
720.12	1396.71
720.30	1363.95
720.48	1468.39
720.67	1353.71
720.85	1320.94
721.03	1327.08
721.21	1267.69
721.39	1439.72
721.58	1402.86
721.76	1402.86
721.94	1380.33
722.12	1355.76
722.30	1437.67
722.49	1337.32
722.67	1351.66
722.85	1386.47
723.03	1382.38
723.21	1333.23
723.40	1384.43
723.58	1435.63
723.76	1368.04
723.94	1425.39
724.12	1423.34
724.30	1456.11
724.49	1429.48
724.67	1443.82
724.85	1535.98
725.03	1421.29
725.21	1454.06
725.40	1439.72
725.58	1374.19
725.76	1470.44
725.94	1443.82
726.12	1361.90
726.30	1443.82
726.49	1439.72
726.67	1378.28
726.85	1298.41
727.03	1386.47
727.21	1503.21
727.39	1585.13
727.57	2086.88
727.76	3436.49
727.94	4542.39
728.12	4954.04
728.30	5275.57
728.48	5269.42
728.66	4255.68
728.84	3542.99
729.03	3143.63
729.21	2856.92
729.39	2578.39
729.57	2326.49
729.75	1982.43
729.93	1708.01
730.11	1607.66
730.30	1409.00
730.48	1449.96
730.66	1542.12
730.84	1419.24
731.02	1368.04
731.20	1370.09
731.38	1402.86
731.56	1322.99
731.74	1402.86
731.93	1441.77
732.11	1411.05
732.29	1366.00
732.47	1429.48
732.65	1437.67
732.83	1335.28
733.01	1417.19
733.19	1353.71
733.37	1396.71
733.56	1357.80
733.74	1343.47
733.92	1402.86
734.10	1386.47
734.28	1376.24
734.46	1290.22
734.64	1382.38
734.82	1439.72
735.00	1363.95
735.18	1359.85
735.36	1443.82
735.54	1374.19
735.73	1380.33
735.91	1353.71
736.09	1409.00
736.27	1349.61
736.45	1388.52
736.63	1288.17
736.81	1327.08
736.99	1366.00
737.17	1486.83
737.35	1366.00
737.53	1339.37
737.71	1357.80
737.89	1372.14
738.07	1427.43
738.25	1411.05
738.43	1325.04
738.61	1374.19
738.80	1378.28
738.98	1329.13
739.16	1345.52
739.34	1341.42
739.52	1402.86
739.70	1290.22
739.88	1443.82
740.06	1433.58
740.24	1257.45
740.42	1439.72
740.60	1296.36
740.78	1431.53
740.96	1275.88
741.14	1351.66
741.32	1417.19
741.50	1314.80
741.68	1427.43
741.86	1411.05
742.04	1329.13
742.22	1372.14
742.40	1347.56
742.58	1370.09
742.76	1249.26
742.94	1406.95
743.12	1349.61
743.30	1423.34
743.48	1368.04
743.66	1378.28
743.84	1425.39
744.02	1372.14
744.20	1345.52
744.38	1333.23
744.56	1351.66
744.74	1460.20
744.92	1337.32
745.10	1339.37
745.28	1429.48
745.46	1404.91
745.64	1384.43
745.82	1382.38
746.00	1363.95
746.18	1372.14
746.36	1273.84
746.54	1398.76
746.72	1415.15
746.90	1370.09
747.08	1339.37
747.26	1415.15
747.44	1466.35
747.62	1390.57
747.80	1359.85
747.98	1376.24
748.15	1366.00
748.33	1419.24
748.51	1406.95
748.69	1396.71
748.87	1425.39
749.05	1368.04
749.23	1292.27
749.41	1495.02
749.59	1359.85
749.77	1392.62
749.95	1374.19
750.13	1318.89
750.31	1368.04
750.49	1378.28
750.67	1388.52
750.85	1433.58
751.03	1384.43
751.20	1470.44
751.38	1345.52
751.56	1325.04
751.74	1347.56
751.92	1372.14
752.10	1361.90
752.28	1392.62
752.46	1298.41
752.64	1386.47
752.82	1409.00
753.00	1322.99
753.18	1316.84
753.35	1329.13
753.53	1402.86
753.71	1460.20
753.89	1374.19
754.07	1402.86
754.25	1427.43
754.43	1366.00
754.61	1341.42
754.79	1382.38
754.97	1382.38
755.14	1417.19
755.32	1314.80
755.50	1402.86
755.68	1333.23
755.86	1304.56
756.04	1406.95
756.22	1394.67
756.40	1325.04
756.57	1402.86
756.75	1300.46
756.93	1456.11
757.11	1380.33
757.29	1372.14
757.47	1366.00
757.65	1292.27
757.82	1208.30
758.00	1331.18
758.18	1384.43
758.36	1347.56
758.54	1437.67
758.72	1337.32
758.90	1447.91
759.07	1376.24
759.25	1304.56
759.43	1429.48
759.61	1384.43
759.79	1708.01
759.97	1439.72
760.15	1288.17
760.32	1296.36
760.50	1386.47
760.68	1404.91
760.86	1320.94
761.04	1314.80
761.22	1445.87
761.39	1421.29
761.57	1370.09
761.75	1316.84
761.93	1439.72
762.11	1392.62
762.28	1380.33
762.46	1318.89
762.64	1425.39
762.82	1341.42
763.00	1347.56
763.18	1425.39
763.35	1290.22
763.53	1353.71
763.71	1308.65
763.89	1380.33
764.07	1396.71
764.24	1359.85
764.42	1343.47
764.60	1337.32
764.78	1357.80
764.96	1429.48
765.13	1382.38
765.31	1380.33
765.49	1421.29
765.67	1306.60
765.84	1421.29
766.02	1333.23
766.20	1306.60
766.38	1368.04
766.56	1390.57
766.73	1386.47
766.91	1419.24
767.09	1458.15
767.27	1347.56
767.44	1327.08
767.62	1335.28
767.80	1341.42
767.98	1370.09
768.15	1404.91
768.33	1357.80
768.51	1366.00
768.69	1392.62
768.87	1363.95
769.04	1384.43
769.22	1392.62
769.40	1464.30
769.58	1472.49
769.75	1409.00
769.93	1374.19
770.11	1411.05
770.28	1398.76
770.46	1390.57
770.64	1384.43
770.82	1357.80
770.99	1335.28
771.17	1374.19
771.35	1378.28
771.53	1388.52
771.70	1339.37
771.88	1347.56
772.06	1359.85
772.23	1308.65
772.41	1449.96
772.59	1355.76
772.77	1388.52
772.94	1279.98
773.12	1396.71
773.30	1345.52
773.47	1337.32
773.65	1400.81
773.83	1380.33
774.01	1468.39
774.18	1277.93
774.36	1290.22
774.54	1290.22
774.71	1374.19
774.89	1333.23
775.07	1355.76
775.24	1378.28
775.42	1341.42
775.60	1370.09
775.78	1312.75
775.95	1327.08
776.13	1269.74
776.31	1279.98
776.48	1337.32
776.66	1417.19
776.84	1304.56
777.01	1318.89
777.19	1347.56
777.37	1341.42
777.54	1413.10
777.72	1445.87
777.90	1370.09
778.07	1357.80
778.25	1402.86
778.43	1312.75
778.60	1374.19
778.78	1363.95
778.96	1357.80
779.13	1265.64
779.31	1431.53
779.49	1382.38
779.66	1411.05
779.84	1259.50
780.01	1366.00
780.19	1343.47
780.37	1347.56
780.54	1413.10
780.72	1392.62
780.90	1351.66
781.07	1384.43
781.25	1310.70
781.43	1439.72
781.60	1390.57
781.78	1370.09
781.95	1363.95
782.13	1308.65
782.31	1306.60
782.48	1286.12
782.66	1306.60
782.83	1353.71
783.01	1374.19
783.19	1341.42
783.36	1347.56
783.54	1279.98
783.72	1417.19
783.89	1304.56
784.07	1363.95
784.24	1384.43
784.42	1449.96
784.60	1382.38
784.77	1398.76
784.95	1329.13
785.12	1388.52
785.30	1390.57
785.47	1355.76
785.65	1355.76
785.83	1267.69
786.00	1384.43
786.18	1427.43
786.35	1273.84
786.53	1261.55
786.71	1363.95
786.88	1411.05
787.06	1380.33
787.23	1374.19
787.41	1372.14
787.58	1357.80
787.76	1325.04
787.94	1282.03
788.11	1400.81
788.29	1404.91
788.46	1294.32
788.64	1370.09
788.81	1273.84
788.99	1400.81
789.16	1335.28
789.34	1325.04
789.52	1359.85
789.69	1300.46
789.87	1259.50
790.04	1306.60
790.22	1347.56
790.39	1429.48
790.57	1349.61
790.74	1314.80
790.92	1372.14
791.09	1347.56
791.27	1382.38
791.44	1318.89
791.62	1392.62
791.79	1363.95
791.97	1398.76
792.15	1490.92
792.32	1333.23
792.50	1443.82
792.67	1427.43
792.85	1445.87
793.02	1380.33
793.20	1349.61
793.37	1333.23
793.55	1353.71
793.72	1327.08
793.90	1337.32
794.07	1388.52
794.25	1366.00
794.42	1363.95
794.60	1378.28
794.77	1396.71
794.95	1409.00
795.12	1366.00
795.30	1402.86
795.47	1329.13
795.65	1482.73
795.82	1314.80
796.00	1361.90
796.17	1298.41
796.34	1413.10
796.52	1357.80
796.69	1402.86
796.87	1390.57
797.04	1290.22
797.22	1374.19
797.39	1417.19
797.57	1318.89
797.74	1331.18
797.92	1331.18
798.09	1343.47
798.27	1357.80
798.44	1400.81
798.62	1363.95
798.79	1392.62
798.96	1380.33
799.14	1382.38
799.31	1509.35
799.49	1374.19
799.66	1304.56
799.84	1400.81
800.01	1292.27
800.19	1396.71
800.36	1357.80
800.53	1355.76
800.71	1353.71
800.88	1398.76
801.06	1341.42
801.23	1378.28
801.41	1368.04
801.58	1374.19
801.75	1425.39
801.93	1341.42
802.10	1343.47
802.28	1335.28
802.45	1409.00
802.63	1304.56
802.80	1470.44
802.97	1302.51
803.15	1306.60
803.32	1409.00
803.50	1351.66
803.67	1370.09
803.84	1351.66
804.02	1337.32
804.19	1495.02
804.37	1347.56
804.54	1351.66
804.71	1245.16
804.89	1345.52
805.06	1333.23
805.24	1339.37
805.41	1337.32
805.58	1349.61
805.76	1503.21
805.93	1378.28
806.10	1347.56
806.28	1411.05
806.45	1394.67
806.63	1304.56
806.80	1396.71
806.97	1413.10
807.15	1402.86
807.32	1376.24
807.49	1445.87
807.67	1337.32
807.84	1370.09
808.01	1255.40
808.19	1419.24
808.36	1505.26
808.54	1359.85
808.71	1333.23
808.88	1380.33
809.06	1353.71
809.23	1486.83
809.40	1308.65
809.58	1384.43
809.75	1394.67
809.92	1314.80
810.10	1458.15
810.27	1353.71
810.44	1417.19
810.62	1257.45
810.79	1363.95
810.96	1390.57
811.14	1355.76
811.31	1380.33
811.48	1454.06
811.66	1359.85
811.83	1392.62
812.00	1368.04
812.18	1402.86
812.35	1464.30
812.52	1329.13
812.69	1306.60
812.87	1294.32
813.04	1345.52
813.21	1400.81
813.39	1320.94
813.56	1277.93
813.73	1427.43
813.91	1361.90
814.08	1359.85
814.25	1355.76
814.42	1378.28
814.60	1310.70
814.77	1429.48
814.94	1327.08
815.12	1419.24
815.29	1419.24
815.46	1345.52
815.63	1372.14
815.81	1335.28
815.98	1388.52
816.15	1343.47
816.33	1337.32
816.50	1282.03
816.67	1363.95
816.84	1429.48
817.02	1261.55
817.19	1378.28
817.36	1318.89
817.53	1341.42
817.71	1347.56
817.88	1376.24
818.05	1413.10
818.22	1339.37
818.40	1439.72
818.57	1388.52
818.74	1327.08
818.91	1312.75
819.09	1357.80
819.26	1417.19
819.43	1343.47
819.60	1402.86
819.78	1370.09
819.95	1396.71
820.12	1314.80
820.29	1435.63
820.47	1333.23
820.64	1413.10
820.81	1298.41
820.98	1253.36
821.15	1298.41
821.33	1507.30
821.50	1368.04
821.67	1335.28
821.84	1325.04
822.02	1325.04
822.19	1406.95
822.36	1277.93
822.53	1396.71
822.70	1304.56
822.88	1337.32
823.05	1394.67
823.22	1296.36
823.39	1376.24
823.56	1392.62
823.74	1394.67
823.91	1378.28
824.08	1327.08
824.25	1294.32
824.42	1478.63
824.60	1337.32
824.77	1351.66
824.94	1329.13
825.11	1351.66
825.28	1378.28
825.45	1429.48
825.63	1333.23
825.80	1419.24
825.97	1394.67
826.14	1337.32
826.31	1318.89
826.48	1363.95
826.66	1288.17
826.83	1322.99
827.00	1384.43
827.17	1341.42
827.34	1345.52
827.51	1378.28
827.69	1372.14
827.86	1298.41
828.03	1384.43
828.20	1372.14
828.37	1372.14
828.54	1296.36
828.71	1384.43
828.89	1441.77
829.06	1327.08
829.23	1443.82
829.40	1406.95
829.57	1368.04
829.74	1372.14
829.91	1320.94
830.09	1300.46
830.26	1435.63
830.43	1435.63
830.60	1370.09
830.77	1449.96
830.94	1380.33
831.11	1474.54
831.28	1302.51
831.46	1331.18
831.63	1306.60
831.80	1447.91
831.97	1357.80
832.14	1300.46
832.31	1433.58
832.48	1417.19
832.65	1404.91
832.82	1337.32
832.99	1388.52
833.17	1351.66
833.34	1390.57
833.51	1343.47
833.68	1298.41
833.85	1363.95
834.02	1349.61
834.19	1331.18
834.36	1335.28
834.53	1345.52
834.70	1361.90
834.87	1413.10
835.04	1388.52
835.22	1294.32
835.39	1357.80
835.56	1384.43
835.73	1368.04
835.90	1435.63
836.07	1359.85
836.24	1374.19
836.41	1357.80
836.58	1335.28
836.75	1404.91
836.92	1370.09
837.09	1353.71
837.26	1400.81
837.43	1308.65
837.60	1392.62
837.77	1435.63
837.94	1417.19
838.12	1370.09
838.29	1419.24
838.46	1320.94
838.63	1294.32
838.80	1452.01
838.97	1404.91
839.14	1363.95
839.31	1359.85
839.48	1374.19
839.65	1388.52
839.82	1386.47
839.99	1421.29
840.16	1316.84
840.33	1347.56
840.50	1382.38
840.67	1368.04
840.84	1267.69
841.01	1259.50
841.18	1386.47
841.35	1404.91
841.52	1411.05
841.69	1380.33
841.86	1386.47
842.03	1435.63
842.20	1335.28
842.37	1419.24
842.54	1386.47
842.71	1370.09
842.88	1224.69
843.05	1443.82
843.22	1366.00
843.39	1347.56
843.56	1409.00
843.73	1396.71
843.90	1337.32
844.07	1322.99
844.24	1404.91
844.41	1351.66
844.58	1376.24
844.75	1445.87
844.92	1388.52
845.09	1261.55
845.26	1345.52
845.43	1390.57
845.60	1337.32
845.77	1376.24
845.94	1411.05
846.10	1322.99
846.27	1271.79
846.44	1372.14
846.61	1409.00
846.78	1363.95
846.95	1413.10
847.12	1396.71
847.29	1370.09
847.46	1259.50
847.63	1351.66
847.80	1396.71
847.97	1357.80
848.14	1368.04
848.31	1329.13
848.48	1335.28
848.65	1409.00
848.82	1343.47
848.98	1452.01
849.15	1374.19
849.32	1396.71
849.49	1445.87
849.66	1353.71
849.83	1429.48
850.00	1322.99
850.17	1366.00
850.34	1429.48
850.51	1406.95
850.68	1314.80
850.85	1392.62
851.01	1370.09
851.18	1370.09
851.35	1429.48
851.52	1429.48
851.69	1425.39
851.86	1273.84
852.03	1370.09
852.20	1435.63
852.37	1376.24
852.53	1316.84
852.70	1359.85
852.87	1396.71
853.04	1353.71
853.21	1345.52
853.38	1423.34
853.55	1435.63
853.72	1439.72
853.89	1351.66
854.05	1312.75
854.22	1413.10
854.39	1366.00
854.56	1353.71
854.73	1398.76
854.90	1415.15
855.07	1339.37
855.23	1372.14
855.40	1347.56
855.57	1359.85
855.74	1267.69
855.91	1396.71
856.08	1370.09
856.25	1316.84
856.41	1368.04
856.58	1273.84
856.75	1398.76
856.92	1343.47
857.09	1452.01
857.26	1370.09
857.42	1386.47
857.59	1333.23
857.76	1236.97
857.93	1353.71
858.10	1386.47
858.27	1320.94
858.43	1392.62
858.60	1312.75
858.77	1282.03
858.94	1267.69
859.11	1398.76
859.27	1409.00
859.44	1288.17
859.61	1404.91
859.78	1345.52
859.95	1347.56
860.12	1318.89
860.28	1423.34
860.45	1449.96
860.62	1419.24
860.79	1363.95
860.95	1400.81
861.12	1353.71
861.29	1343.47
861.46	1409.00
861.63	1347.56
861.79	1400.81
861.96	1368.04
862.13	1341.42
862.30	1402.86
862.47	1322.99
862.63	1263.60
862.80	1417.19
862.97	1376.24
863.14	1384.43
863.30	1368.04
863.47	1353.71
863.64	1421.29
863.81	1347.56
863.97	1372.14
864.14	1376.24
864.31	1353.71
864.48	1363.95
864.65	1378.28
864.81	1347.56
864.98	1411.05
865.15	1404.91
865.32	1380.33
865.48	1415.15
865.65	1427.43
865.82	1400.81
865.98	1382.38
866.15	1390.57
866.32	1349.61
866.49	1322.99
866.65	1380.33
866.82	1361.90
866.99	1363.95
867.16	1388.52
867.32	1302.51
867.49	1335.28
867.66	1368.04
867.83	1339.37
867.99	1318.89
868.16	1349.61
868.33	1425.39
868.49	1439.72
868.66	1386.47
868.83	1419.24
868.99	1406.95
869.16	1411.05
869.33	1499.11
869.50	1470.44
869.66	1355.76
869.83	1322.99
870.00	1277.93
870.16	1380.33
870.33	1370.09
870.50	1394.67
870.66	1331.18
870.83	1433.58
871.00	1355.76
871.17	1427.43
871.33	1400.81
871.50	1398.76
871.67	1404.91
871.83	1314.80
872.00	1370.09
872.17	1421.29
872.33	1386.47
872.50	1445.87
872.67	1357.80
872.83	1435.63
873.00	1380.33
873.17	1382.38
873.33	1427.43
873.50	1392.62
873.67	1355.76
873.83	1427.43
874.00	1357.80
874.16	1374.19
874.33	1318.89
874.50	1333.23
874.66	1449.96
874.83	1388.52
875.00	1466.35
875.16	1439.72
875.33	1425.39
875.50	1259.50
875.66	1327.08
875.83	1378.28
875.99	1406.95
876.16	1347.56
876.33	1302.51
876.49	1349.61
876.66	1363.95
876.83	1366.00
876.99	1316.84
877.16	1370.09
877.32	1320.94
877.49	1372.14
877.66	1253.36
877.82	1482.73
877.99	1380.33
878.15	1452.01
878.32	1386.47
878.49	1370.09
878.65	1347.56
878.82	1388.52
878.98	1318.89
879.15	1433.58
879.32	1384.43
879.48	1355.76
879.65	1368.04
879.81	1374.19
879.98	1404.91
880.15	1304.56
880.31	1425.39
880.48	1269.74
880.64	1384.43
880.81	1343.47
880.97	1505.26
881.14	1376.24
881.31	1331.18
881.47	1351.66
881.64	1404.91
881.80	1265.64
881.97	1380.33
882.13	1361.90
882.30	1310.70
882.47	1347.56
882.63	1329.13
882.80	1361.90
882.96	1320.94
883.13	1460.20
883.29	1302.51
883.46	1335.28
883.62	1431.53
883.79	1427.43
883.95	1318.89
884.12	1357.80
884.29	1388.52
884.45	1449.96
884.62	1443.82
884.78	1382.38
884.95	1374.19
885.11	1349.61
885.28	1439.72
885.44	1322.99
885.61	1409.00
885.77	1363.95
885.94	1366.00
886.10	1398.76
886.27	1316.84
886.43	1392.62
886.60	1386.47
886.76	1314.80
886.93	1304.56
887.09	1423.34
887.26	1310.70
887.42	1282.03
887.59	1447.91
887.75	1454.06
887.92	1398.76
888.08	1380.33
888.25	1394.67
888.41	1398.76
888.58	1347.56
888.74	1351.66
888.91	1331.18
>>>>>End Processed Spectral Data<<<<<
