SpectraSuite Data File
++++++++++++++++++++++++++++++++++++
Date: Tue May 03 11:24:32 CEST 2016
User: root
Dark Spectrum Present: No
Reference Spectrum Present: No
Number of Sampled Component Spectra: 1
Spectrometers: USB4C02835
Integration Time (usec): 100000 (USB4C02835)
Spectra Averaged: 1 (USB4C02835)
Boxcar Smoothing: 0 (USB4C02835)
Correct for Electrical Dark: No (USB4C02835)
Strobe/Lamp Enabled: No (USB4C02835)
Correct for Detector Non-linearity: No (USB4C02835)
Correct for Stray Light: No (USB4C02835)
Number of Pixels in Processed Spectrum: 3648
>>>>>Begin Processed Spectral Data<<<<<
177.47	1273.84
177.69	1273.84
177.91	1273.84
178.13	1226.73
178.36	1212.40
178.58	1361.90
178.80	1366.00
179.02	1304.56
179.24	1308.65
179.46	1339.37
179.68	1415.15
179.90	1320.94
180.13	1361.90
180.35	1361.90
180.57	1304.56
180.79	1417.19
181.01	1333.23
181.23	1382.38
181.45	1437.67
181.67	1353.71
181.90	1427.43
182.12	1363.95
182.34	1296.36
182.56	1380.33
182.78	1380.33
183.00	1409.00
183.22	1396.71
183.44	1277.93
183.66	1435.63
183.89	1415.15
184.11	1376.24
184.33	1419.24
184.55	1394.67
184.77	1386.47
184.99	1488.87
185.21	1349.61
185.43	1462.25
185.65	1304.56
185.87	1325.04
186.10	1392.62
186.32	1425.39
186.54	1435.63
186.76	1380.33
186.98	1511.40
187.20	1370.09
187.42	1374.19
187.64	1402.86
187.86	1345.52
188.08	1468.39
188.30	1435.63
188.52	1349.61
188.75	1349.61
188.97	1439.72
189.19	1339.37
189.41	1337.32
189.63	1284.08
189.85	1355.76
190.07	1320.94
190.29	1325.04
190.51	1368.04
190.73	1298.41
190.95	1544.17
191.17	1368.04
191.39	1306.60
191.61	1363.95
191.84	1437.67
192.06	1380.33
192.28	1368.04
192.50	1497.07
192.72	1382.38
192.94	1259.50
193.16	1415.15
193.38	1445.87
193.60	1343.47
193.82	1402.86
194.04	1419.24
194.26	1267.69
194.48	1398.76
194.70	1388.52
194.92	1337.32
195.14	1386.47
195.36	1349.61
195.58	1411.05
195.80	1359.85
196.02	1325.04
196.24	1249.26
196.46	1359.85
196.69	1372.14
196.91	1495.02
197.13	1406.95
197.35	1335.28
197.57	1417.19
197.79	1392.62
198.01	1398.76
198.23	1404.91
198.45	1333.23
198.67	1353.71
198.89	1380.33
199.11	1411.05
199.33	1355.76
199.55	1370.09
199.77	1392.62
199.99	1368.04
200.21	1374.19
200.43	1409.00
200.65	1335.28
200.87	1259.50
201.09	1347.56
201.31	1320.94
201.53	1363.95
201.75	1417.19
201.97	1368.04
202.19	1392.62
202.41	1312.75
202.63	1480.68
202.85	1374.19
203.07	1337.32
203.29	1351.66
203.51	1329.13
203.73	1398.76
203.95	1421.29
204.17	1396.71
204.39	1339.37
204.61	1413.10
204.83	1413.10
205.05	1411.05
205.27	1351.66
205.49	1449.96
205.71	1380.33
205.93	1327.08
206.15	1263.60
206.37	1361.90
206.59	1427.43
206.81	1380.33
207.03	1341.42
207.25	1243.12
207.47	1419.24
207.69	1366.00
207.91	1380.33
208.13	1437.67
208.34	1329.13
208.56	1337.32
208.78	1388.52
209.00	1310.70
209.22	1427.43
209.44	1345.52
209.66	1320.94
209.88	1347.56
210.10	1394.67
210.32	1441.77
210.54	1429.48
210.76	1394.67
210.98	1402.86
211.20	1333.23
211.42	1421.29
211.64	1490.92
211.86	1363.95
212.08	1437.67
212.30	1417.19
212.52	1308.65
212.74	1400.81
212.96	1370.09
213.17	1398.76
213.39	1306.60
213.61	1406.95
213.83	1413.10
214.05	1298.41
214.27	1419.24
214.49	1284.08
214.71	1380.33
214.93	1419.24
215.15	1449.96
215.37	1347.56
215.59	1392.62
215.81	1400.81
216.03	1382.38
216.24	1411.05
216.46	1368.04
216.68	1347.56
216.90	1466.35
217.12	1441.77
217.34	1388.52
217.56	1380.33
217.78	1445.87
218.00	1349.61
218.22	1390.57
218.44	1343.47
218.66	1419.24
218.87	1404.91
219.09	1386.47
219.31	1406.95
219.53	1384.43
219.75	1292.27
219.97	1370.09
220.19	1396.71
220.41	1359.85
220.63	1419.24
220.85	1325.04
221.06	1384.43
221.28	1370.09
221.50	1345.52
221.72	1314.80
221.94	1335.28
222.16	1363.95
222.38	1370.09
222.60	1468.39
222.82	1314.80
223.03	1302.51
223.25	1318.89
223.47	1429.48
223.69	1406.95
223.91	1392.62
224.13	1413.10
224.35	1355.76
224.57	1386.47
224.78	1404.91
225.00	1310.70
225.22	1353.71
225.44	1361.90
225.66	1466.35
225.88	1292.27
226.10	1378.28
226.32	1390.57
226.53	1443.82
226.75	1357.80
226.97	1327.08
227.19	1378.28
227.41	1374.19
227.63	1345.52
227.85	1298.41
228.06	1333.23
228.28	1349.61
228.50	1435.63
228.72	1341.42
228.94	1351.66
229.16	1325.04
229.37	1327.08
229.59	1435.63
229.81	1454.06
230.03	1288.17
230.25	1378.28
230.47	1318.89
230.69	1306.60
230.90	1488.87
231.12	1302.51
231.34	1361.90
231.56	1376.24
231.78	1318.89
232.00	1370.09
232.21	1382.38
232.43	1404.91
232.65	1282.03
232.87	1331.18
233.09	1294.32
233.30	1331.18
233.52	1325.04
233.74	1325.04
233.96	1335.28
234.18	1376.24
234.40	1343.47
234.61	1411.05
234.83	1304.56
235.05	1333.23
235.27	1478.63
235.49	1460.20
235.70	1433.58
235.92	1484.78
236.14	1345.52
236.36	1458.15
236.58	1294.32
236.79	1331.18
237.01	1351.66
237.23	1380.33
237.45	1392.62
237.67	1331.18
237.88	1331.18
238.10	1398.76
238.32	1325.04
238.54	1298.41
238.76	1411.05
238.97	1372.14
239.19	1370.09
239.41	1363.95
239.63	1409.00
239.85	1339.37
240.06	1363.95
240.28	1320.94
240.50	1425.39
240.72	1433.58
240.93	1361.90
241.15	1415.15
241.37	1320.94
241.59	1396.71
241.81	1447.91
242.02	1314.80
242.24	1413.10
242.46	1388.52
242.68	1417.19
242.89	1417.19
243.11	1349.61
243.33	1384.43
243.55	1353.71
243.76	1415.15
243.98	1314.80
244.20	1359.85
244.42	1351.66
244.64	1294.32
244.85	1296.36
245.07	1355.76
245.29	1378.28
245.51	1423.34
245.72	1329.13
245.94	1372.14
246.16	1460.20
246.38	1355.76
246.59	1361.90
246.81	1374.19
247.03	1341.42
247.24	1404.91
247.46	1347.56
247.68	1349.61
247.90	1316.84
248.11	1339.37
248.33	1376.24
248.55	1376.24
248.77	1318.89
248.98	1433.58
249.20	1429.48
249.42	1392.62
249.64	1382.38
249.85	1361.90
250.07	1384.43
250.29	1290.22
250.50	1411.05
250.72	1339.37
250.94	1302.51
251.16	1521.64
251.37	1435.63
251.59	1419.24
251.81	1300.46
252.02	1515.50
252.24	1359.85
252.46	1462.25
252.68	1343.47
252.89	1415.15
253.11	1359.85
253.33	1525.74
253.54	1409.00
253.76	1335.28
253.98	1339.37
254.20	1488.87
254.41	1343.47
254.63	1415.15
254.85	1370.09
255.06	1355.76
255.28	1351.66
255.50	1372.14
255.71	1382.38
255.93	1376.24
256.15	1378.28
256.36	1384.43
256.58	1454.06
256.80	1411.05
257.02	1343.47
257.23	1359.85
257.45	1304.56
257.67	1380.33
257.88	1392.62
258.10	1355.76
258.32	1341.42
258.53	1419.24
258.75	1439.72
258.97	1300.46
259.18	1386.47
259.40	1372.14
259.62	1390.57
259.83	1409.00
260.05	1468.39
260.27	1464.30
260.48	1435.63
260.70	1333.23
260.92	1296.36
261.13	1361.90
261.35	1423.34
261.57	1396.71
261.78	1345.52
262.00	1325.04
262.22	1351.66
262.43	1363.95
262.65	1378.28
262.86	1298.41
263.08	1388.52
263.30	1394.67
263.51	1349.61
263.73	1435.63
263.95	1437.67
264.16	1290.22
264.38	1431.53
264.60	1400.81
264.81	1382.38
265.03	1378.28
265.25	1419.24
265.46	1357.80
265.68	1466.35
265.89	1386.47
266.11	1284.08
266.33	1449.96
266.54	1443.82
266.76	1392.62
266.98	1415.15
267.19	1484.78
267.41	1363.95
267.62	1351.66
267.84	1304.56
268.06	1322.99
268.27	1431.53
268.49	1396.71
268.70	1402.86
268.92	1359.85
269.14	1372.14
269.35	1357.80
269.57	1284.08
269.79	1351.66
270.00	1320.94
270.22	1392.62
270.43	1351.66
270.65	1271.79
270.87	1345.52
271.08	1374.19
271.30	1435.63
271.51	1316.84
271.73	1437.67
271.95	1376.24
272.16	1433.58
272.38	1390.57
272.59	1302.51
272.81	1394.67
273.02	1449.96
273.24	1361.90
273.46	1474.54
273.67	1370.09
273.89	1378.28
274.10	1341.42
274.32	1445.87
274.54	1437.67
274.75	1368.04
274.97	1339.37
275.18	1419.24
275.40	1406.95
275.61	1355.76
275.83	1433.58
276.05	1349.61
276.26	1386.47
276.48	1269.74
276.69	1361.90
276.91	1404.91
277.12	1411.05
277.34	1363.95
277.55	1429.48
277.77	1394.67
277.99	1306.60
278.20	1314.80
278.42	1347.56
278.63	1349.61
278.85	1343.47
279.06	1351.66
279.28	1366.00
279.49	1447.91
279.71	1402.86
279.93	1433.58
280.14	1384.43
280.36	1392.62
280.57	1359.85
280.79	1374.19
281.00	1318.89
281.22	1333.23
281.43	1392.62
281.65	1302.51
281.86	1327.08
282.08	1353.71
282.29	1511.40
282.51	1349.61
282.73	1370.09
282.94	1349.61
283.16	1488.87
283.37	1347.56
283.59	1382.38
283.80	1419.24
284.02	1425.39
284.23	1402.86
284.45	1456.11
284.66	1308.65
284.88	1445.87
285.09	1310.70
285.31	1406.95
285.52	1413.10
285.74	1372.14
285.95	1396.71
286.17	1423.34
286.38	1415.15
286.60	1392.62
286.81	1409.00
287.03	1361.90
287.24	1337.32
287.46	1363.95
287.67	1396.71
287.89	1411.05
288.10	1372.14
288.32	1320.94
288.53	1415.15
288.75	1296.36
288.96	1458.15
289.18	1335.28
289.39	1380.33
289.61	1376.24
289.82	1433.58
290.04	1376.24
290.25	1359.85
290.47	1400.81
290.68	1396.71
290.90	1415.15
291.11	1308.65
291.33	1419.24
291.54	1318.89
291.76	1292.27
291.97	1353.71
292.18	1398.76
292.40	1308.65
292.61	1370.09
292.83	1468.39
293.04	1382.38
293.26	1404.91
293.47	1380.33
293.69	1316.84
293.90	1439.72
294.12	1382.38
294.33	1378.28
294.55	1456.11
294.76	1435.63
294.97	1329.13
295.19	1386.47
295.40	1413.10
295.62	1376.24
295.83	1466.35
296.05	1339.37
296.26	1445.87
296.48	1339.37
296.69	1345.52
296.90	1384.43
297.12	1374.19
297.33	1423.34
297.55	1437.67
297.76	1372.14
297.98	1449.96
298.19	1406.95
298.41	1337.32
298.62	1378.28
298.83	1396.71
299.05	1449.96
299.26	1384.43
299.48	1353.71
299.69	1454.06
299.90	1376.24
300.12	1433.58
300.33	1402.86
300.55	1339.37
300.76	1290.22
300.98	1322.99
301.19	1409.00
301.40	1343.47
301.62	1392.62
301.83	1406.95
302.05	1343.47
302.26	1386.47
302.47	1306.60
302.69	1343.47
302.90	1425.39
303.12	1304.56
303.33	1421.29
303.54	1429.48
303.76	1349.61
303.97	1398.76
304.19	1337.32
304.40	1345.52
304.61	1400.81
304.83	1419.24
305.04	1370.09
305.26	1406.95
305.47	1366.00
305.68	1376.24
305.90	1275.88
306.11	1470.44
306.33	1345.52
306.54	1337.32
306.75	1363.95
306.97	1333.23
307.18	1392.62
307.39	1409.00
307.61	1427.43
307.82	1380.33
308.04	1372.14
308.25	1312.75
308.46	1437.67
308.68	1366.00
308.89	1345.52
309.10	1417.19
309.32	1406.95
309.53	1409.00
309.74	1335.28
309.96	1368.04
310.17	1441.77
310.39	1337.32
310.60	1355.76
310.81	1357.80
311.03	1327.08
311.24	1316.84
311.45	1361.90
311.67	1427.43
311.88	1376.24
312.09	1298.41
312.31	1331.18
312.52	1380.33
312.73	1374.19
312.95	1376.24
313.16	1361.90
313.37	1409.00
313.59	1363.95
313.80	1427.43
314.01	1302.51
314.23	1374.19
314.44	1335.28
314.65	1322.99
314.87	1349.61
315.08	1380.33
315.29	1333.23
315.51	1404.91
315.72	1331.18
315.93	1406.95
316.15	1404.91
316.36	1306.60
316.57	1419.24
316.79	1374.19
317.00	1363.95
317.21	1402.86
317.43	1277.93
317.64	1413.10
317.85	1337.32
318.07	1474.54
318.28	1478.63
318.49	1509.35
318.70	1691.62
318.92	1499.11
319.13	1529.83
319.34	1556.46
319.56	1439.72
319.77	1441.77
319.98	1484.78
320.20	1454.06
320.41	1492.97
320.62	1409.00
320.83	1288.17
321.05	1470.44
321.26	1417.19
321.47	1415.15
321.69	1454.06
321.90	1296.36
322.11	1357.80
322.32	1386.47
322.54	1396.71
322.75	1380.33
322.96	1421.29
323.18	1404.91
323.39	1243.12
323.60	1347.56
323.81	1353.71
324.03	1361.90
324.24	1343.47
324.45	1325.04
324.66	1380.33
324.88	1433.58
325.09	1423.34
325.30	1478.63
325.52	1398.76
325.73	1394.67
325.94	1355.76
326.15	1294.32
326.37	1376.24
326.58	1388.52
326.79	1394.67
327.00	1329.13
327.22	1368.04
327.43	1351.66
327.64	1322.99
327.85	1341.42
328.07	1300.46
328.28	1372.14
328.49	1282.03
328.70	1396.71
328.92	1390.57
329.13	1363.95
329.34	1409.00
329.55	1359.85
329.76	1394.67
329.98	1396.71
330.19	1351.66
330.40	1339.37
330.61	1267.69
330.83	1470.44
331.04	1378.28
331.25	1343.47
331.46	1396.71
331.68	1361.90
331.89	1376.24
332.10	1394.67
332.31	1296.36
332.52	1376.24
332.74	1382.38
332.95	1378.28
333.16	1376.24
333.37	1406.95
333.58	1404.91
333.80	1406.95
334.01	1357.80
334.22	1378.28
334.43	1355.76
334.64	1392.62
334.86	1351.66
335.07	1394.67
335.28	1417.19
335.49	1384.43
335.70	1380.33
335.92	1431.53
336.13	1462.25
336.34	1398.76
336.55	1372.14
336.76	1406.95
336.98	1353.71
337.19	1355.76
337.40	1427.43
337.61	1427.43
337.82	1243.12
338.04	1351.66
338.25	1312.75
338.46	1349.61
338.67	1327.08
338.88	1343.47
339.09	1294.32
339.31	1320.94
339.52	1341.42
339.73	1308.65
339.94	1314.80
340.15	1316.84
340.36	1333.23
340.58	1355.76
340.79	1390.57
341.00	1409.00
341.21	1421.29
341.42	1431.53
341.63	1394.67
341.85	1388.52
342.06	1347.56
342.27	1259.50
342.48	1437.67
342.69	1433.58
342.90	1372.14
343.12	1384.43
343.33	1339.37
343.54	1368.04
343.75	1394.67
343.96	1347.56
344.17	1320.94
344.38	1417.19
344.60	1337.32
344.81	1374.19
345.02	1316.84
345.23	1464.30
345.44	1417.19
345.65	1435.63
345.86	1429.48
346.07	1386.47
346.29	1374.19
346.50	1423.34
346.71	1433.58
346.92	1388.52
347.13	1415.15
347.34	1390.57
347.55	1425.39
347.76	1337.32
347.98	1306.60
348.19	1429.48
348.40	1398.76
348.61	1390.57
348.82	1345.52
349.03	1329.13
349.24	1392.62
349.45	1404.91
349.66	1359.85
349.88	1413.10
350.09	1357.80
350.30	1345.52
350.51	1419.24
350.72	1372.14
350.93	1437.67
351.14	1413.10
351.35	1388.52
351.56	1382.38
351.77	1396.71
351.99	1396.71
352.20	1390.57
352.41	1454.06
352.62	1380.33
352.83	1341.42
353.04	1275.88
353.25	1382.38
353.46	1409.00
353.67	1384.43
353.88	1314.80
354.09	1366.00
354.30	1363.95
354.52	1396.71
354.73	1402.86
354.94	1378.28
355.15	1345.52
355.36	1421.29
355.57	1419.24
355.78	1454.06
355.99	1308.65
356.20	1345.52
356.41	1378.28
356.62	1337.32
356.83	1411.05
357.04	1411.05
357.25	1306.60
357.46	1372.14
357.68	1372.14
357.89	1335.28
358.10	1392.62
358.31	1372.14
358.52	1351.66
358.73	1374.19
358.94	1394.67
359.15	1421.29
359.36	1378.28
359.57	1370.09
359.78	1318.89
359.99	1423.34
360.20	1404.91
360.41	1384.43
360.62	1392.62
360.83	1339.37
361.04	1304.56
361.25	1392.62
361.46	1497.07
361.67	1392.62
361.88	1431.53
362.09	1386.47
362.30	1363.95
362.51	1363.95
362.72	1413.10
362.93	1382.38
363.14	1361.90
363.35	1404.91
363.56	1327.08
363.78	1409.00
363.99	1388.52
364.20	1357.80
364.41	1390.57
364.62	1353.71
364.83	1421.29
365.04	1372.14
365.25	1409.00
365.46	1396.71
365.67	1363.95
365.88	1374.19
366.09	1361.90
366.30	1318.89
366.51	1337.32
366.72	1359.85
366.93	1398.76
367.14	1345.52
367.35	1406.95
367.56	1378.28
367.77	1402.86
367.98	1296.36
368.18	1447.91
368.39	1417.19
368.60	1331.18
368.81	1333.23
369.02	1339.37
369.23	1368.04
369.44	1372.14
369.65	1327.08
369.86	1380.33
370.07	1415.15
370.28	1355.76
370.49	1359.85
370.70	1404.91
370.91	1406.95
371.12	1351.66
371.33	1456.11
371.54	1316.84
371.75	1441.77
371.96	1277.93
372.17	1404.91
372.38	1380.33
372.59	1406.95
372.80	1257.45
373.01	1406.95
373.22	1425.39
373.43	1400.81
373.64	1325.04
373.85	1368.04
374.06	1398.76
374.26	1441.77
374.47	1363.95
374.68	1413.10
374.89	1462.25
375.10	1290.22
375.31	1433.58
375.52	1415.15
375.73	1413.10
375.94	1306.60
376.15	1409.00
376.36	1384.43
376.57	1325.04
376.78	1429.48
376.99	1402.86
377.20	1396.71
377.40	1335.28
377.61	1535.98
377.82	1345.52
378.03	1427.43
378.24	1443.82
378.45	1378.28
378.66	1429.48
378.87	1331.18
379.08	1388.52
379.29	1454.06
379.50	1456.11
379.71	1376.24
379.91	1378.28
380.12	1361.90
380.33	1402.86
380.54	1392.62
380.75	1413.10
380.96	1370.09
381.17	1441.77
381.38	1449.96
381.59	1425.39
381.80	1398.76
382.00	1492.97
382.21	1439.72
382.42	1476.59
382.63	1542.12
382.84	1341.42
383.05	1382.38
383.26	1363.95
383.47	1380.33
383.68	1396.71
383.88	1456.11
384.09	1437.67
384.30	1347.56
384.51	1431.53
384.72	1302.51
384.93	1279.98
385.14	1388.52
385.35	1398.76
385.55	1325.04
385.76	1421.29
385.97	1392.62
386.18	1374.19
386.39	1366.00
386.60	1415.15
386.81	1353.71
387.02	1394.67
387.22	1454.06
387.43	1478.63
387.64	1533.93
387.85	2359.26
388.06	5885.86
388.27	9731.95
388.48	11747.15
388.68	13244.21
388.89	13272.89
389.10	10678.11
389.31	9211.76
389.52	8312.71
389.73	7366.54
389.93	6909.85
390.14	6406.05
390.35	6164.39
390.56	5459.88
390.77	4702.14
390.98	3698.63
391.18	2910.16
391.39	2162.66
391.60	1794.02
391.81	1587.18
392.02	1460.20
392.23	1484.78
392.43	1452.01
392.64	1449.96
392.85	1443.82
393.06	1433.58
393.27	1394.67
393.47	1363.95
393.68	1400.81
393.89	1349.61
394.10	1378.28
394.31	1327.08
394.52	1357.80
394.72	1394.67
394.93	1527.78
395.14	1304.56
395.35	1443.82
395.56	1380.33
395.76	1548.26
395.97	1638.38
396.18	1566.70
396.39	1617.90
396.60	1699.81
396.80	1589.22
397.01	1495.02
397.22	1490.92
397.43	1554.41
397.64	1431.53
397.84	1406.95
398.05	1492.97
398.26	1372.14
398.47	1488.87
398.67	1376.24
398.88	1382.38
399.09	1476.59
399.30	1277.93
399.51	1370.09
399.71	1368.04
399.92	1402.86
400.13	1388.52
400.34	1366.00
400.54	1314.80
400.75	1396.71
400.96	1349.61
401.17	1423.34
401.37	1413.10
401.58	1376.24
401.79	1486.83
402.00	1705.96
402.21	1771.49
402.41	1818.60
402.62	1810.40
402.83	1755.11
403.04	1726.44
403.24	1753.06
403.45	1556.46
403.66	1560.55
403.87	1527.78
404.07	1558.50
404.28	1562.60
404.49	1560.55
404.70	1443.82
404.90	1435.63
405.11	1374.19
405.32	1458.15
405.52	1322.99
405.73	1273.84
405.94	1402.86
406.15	1333.23
406.35	1449.96
406.56	1394.67
406.77	1314.80
406.98	1392.62
407.18	1355.76
407.39	1449.96
407.60	1363.95
407.80	1431.53
408.01	1390.57
408.22	1419.24
408.43	1351.66
408.63	1480.68
408.84	1382.38
409.05	1439.72
409.25	1388.52
409.46	1394.67
409.67	1318.89
409.88	1320.94
410.08	1327.08
410.29	1380.33
410.50	1376.24
410.70	1419.24
410.91	1286.12
411.12	1443.82
411.32	1386.47
411.53	1390.57
411.74	1460.20
411.95	1486.83
412.15	1445.87
412.36	1501.16
412.57	1341.42
412.77	1392.62
412.98	1454.06
413.19	1355.76
413.39	1431.53
413.60	1437.67
413.81	1468.39
414.01	1400.81
414.22	1421.29
414.43	1404.91
414.63	1384.43
414.84	1398.76
415.05	1421.29
415.25	1394.67
415.46	1372.14
415.67	1378.28
415.87	1507.30
416.08	1363.95
416.29	1353.71
416.49	1443.82
416.70	1329.13
416.91	1335.28
417.11	1314.80
417.32	1322.99
417.53	1388.52
417.73	1447.91
417.94	1409.00
418.15	1431.53
418.35	1355.76
418.56	1460.20
418.77	1478.63
418.97	1316.84
419.18	1361.90
419.38	1296.36
419.59	1396.71
419.80	1441.77
420.00	1296.36
420.21	1363.95
420.42	1398.76
420.62	1376.24
420.83	1312.75
421.04	1341.42
421.24	1257.45
421.45	1431.53
421.65	1368.04
421.86	1325.04
422.07	1413.10
422.27	1353.71
422.48	1318.89
422.69	1349.61
422.89	1363.95
423.10	1382.38
423.30	1343.47
423.51	1345.52
423.72	1366.00
423.92	1392.62
424.13	1327.08
424.33	1423.34
424.54	1413.10
424.75	1415.15
424.95	1400.81
425.16	1359.85
425.36	1378.28
425.57	1413.10
425.78	1363.95
425.98	1370.09
426.19	1292.27
426.39	1396.71
426.60	1396.71
426.81	1404.91
427.01	1388.52
427.22	1341.42
427.42	1376.24
427.63	1341.42
427.83	1361.90
428.04	1460.20
428.25	1376.24
428.45	1411.05
428.66	1402.86
428.86	1392.62
429.07	1325.04
429.28	1376.24
429.48	1359.85
429.69	1359.85
429.89	1382.38
430.10	1302.51
430.30	1394.67
430.51	1411.05
430.71	1294.32
430.92	1337.32
431.13	1388.52
431.33	1435.63
431.54	1417.19
431.74	1452.01
431.95	1396.71
432.15	1425.39
432.36	1417.19
432.56	1388.52
432.77	1400.81
432.98	1386.47
433.18	1386.47
433.39	1318.89
433.59	1376.24
433.80	1470.44
434.00	1478.63
434.21	1347.56
434.41	1329.13
434.62	1406.95
434.82	1308.65
435.03	1384.43
435.23	1409.00
435.44	1380.33
435.64	1351.66
435.85	1394.67
436.06	1374.19
436.26	1374.19
436.47	1402.86
436.67	1349.61
436.88	1370.09
437.08	1466.35
437.29	1439.72
437.49	1345.52
437.70	1396.71
437.90	1370.09
438.11	1495.02
438.31	1538.02
438.52	1480.68
438.72	1533.93
438.93	1611.75
439.13	1419.24
439.34	1406.95
439.54	1480.68
439.75	1447.91
439.95	1452.01
440.16	1437.67
440.36	1431.53
440.57	1345.52
440.77	1396.71
440.98	1421.29
441.18	1427.43
441.39	1443.82
441.59	1357.80
441.80	1474.54
442.00	1388.52
442.21	1511.40
442.41	1275.88
442.62	1419.24
442.82	1376.24
443.02	1351.66
443.23	1394.67
443.43	1421.29
443.64	1468.39
443.84	1288.17
444.05	1468.39
444.25	1488.87
444.46	1406.95
444.66	1322.99
444.87	1419.24
445.07	1345.52
445.28	1361.90
445.48	1468.39
445.69	1411.05
445.89	1527.78
446.09	1609.70
446.30	2324.44
446.50	3803.08
446.71	4689.85
446.91	5310.38
447.12	5623.72
447.32	4927.41
447.53	4222.91
447.73	3774.41
447.93	3545.03
448.14	3170.26
448.34	3076.05
448.55	2906.07
448.75	2734.04
448.96	2717.65
449.16	2363.36
449.36	2213.85
449.57	1916.90
449.77	1699.81
449.98	1542.12
450.18	1476.59
450.39	1490.92
450.59	1404.91
450.79	1370.09
451.00	1312.75
451.20	1359.85
451.41	1341.42
451.61	1363.95
451.81	1314.80
452.02	1406.95
452.22	1357.80
452.43	1402.86
452.63	1370.09
452.84	1331.18
453.04	1409.00
453.24	1361.90
453.45	1288.17
453.65	1331.18
453.86	1454.06
454.06	1355.76
454.26	1409.00
454.47	1372.14
454.67	1499.11
454.87	1376.24
455.08	1400.81
455.28	1447.91
455.49	1456.11
455.69	1423.34
455.89	1486.83
456.10	1437.67
456.30	1316.84
456.51	1372.14
456.71	1341.42
456.91	1431.53
457.12	1454.06
457.32	1437.67
457.52	1282.03
457.73	1415.15
457.93	1439.72
458.14	1366.00
458.34	1273.84
458.54	1322.99
458.75	1361.90
458.95	1392.62
459.15	1327.08
459.36	1267.69
459.56	1466.35
459.76	1452.01
459.97	1320.94
460.17	1374.19
460.37	1378.28
460.58	1425.39
460.78	1355.76
460.99	1341.42
461.19	1363.95
461.39	1345.52
461.60	1312.75
461.80	1464.30
462.00	1308.65
462.21	1456.11
462.41	1394.67
462.61	1376.24
462.82	1345.52
463.02	1370.09
463.22	1380.33
463.43	1400.81
463.63	1452.01
463.83	1380.33
464.04	1388.52
464.24	1372.14
464.44	1380.33
464.64	1398.76
464.85	1343.47
465.05	1425.39
465.25	1411.05
465.46	1359.85
465.66	1370.09
465.86	1351.66
466.07	1363.95
466.27	1437.67
466.47	1394.67
466.68	1249.26
466.88	1464.30
467.08	1374.19
467.29	1353.71
467.49	1384.43
467.69	1335.28
467.89	1394.67
468.10	1370.09
468.30	1386.47
468.50	1429.48
468.71	1376.24
468.91	1363.95
469.11	1421.29
469.31	1394.67
469.52	1339.37
469.72	1404.91
469.92	1425.39
470.13	1415.15
470.33	1372.14
470.53	1615.85
470.73	2115.55
470.94	2246.62
471.14	2310.11
471.34	2463.71
471.54	2236.38
471.75	2062.30
471.95	1923.04
472.15	1892.32
472.36	1834.98
472.56	1769.44
472.76	1798.12
472.96	1667.05
473.17	1677.29
473.37	1714.15
473.57	1521.64
473.77	1566.70
473.98	1411.05
474.18	1452.01
474.38	1558.50
474.58	1384.43
474.79	1392.62
474.99	1429.48
475.19	1454.06
475.39	1357.80
475.60	1433.58
475.80	1353.71
476.00	1396.71
476.20	1439.72
476.41	1406.95
476.61	1394.67
476.81	1431.53
477.01	1345.52
477.21	1470.44
477.42	1349.61
477.62	1386.47
477.82	1331.18
478.02	1378.28
478.23	1404.91
478.43	1382.38
478.63	1363.95
478.83	1290.22
479.03	1329.13
479.24	1374.19
479.44	1460.20
479.64	1351.66
479.84	1241.07
480.04	1361.90
480.25	1421.29
480.45	1347.56
480.65	1325.04
480.85	1394.67
481.06	1400.81
481.26	1304.56
481.46	1452.01
481.66	1355.76
481.86	1345.52
482.06	1425.39
482.27	1384.43
482.47	1353.71
482.67	1312.75
482.87	1335.28
483.07	1366.00
483.28	1327.08
483.48	1368.04
483.68	1343.47
483.88	1322.99
484.08	1275.88
484.29	1312.75
484.49	1386.47
484.69	1374.19
484.89	1406.95
485.09	1368.04
485.29	1384.43
485.50	1384.43
485.70	1355.76
485.90	1452.01
486.10	1413.10
486.30	1411.05
486.50	1400.81
486.71	1384.43
486.91	1363.95
487.11	1392.62
487.31	1335.28
487.51	1351.66
487.71	1298.41
487.91	1359.85
488.12	1339.37
488.32	1290.22
488.52	1363.95
488.72	1294.32
488.92	1452.01
489.12	1341.42
489.32	1396.71
489.53	1396.71
489.73	1376.24
489.93	1402.86
490.13	1359.85
490.33	1398.76
490.53	1486.83
490.73	1327.08
490.94	1318.89
491.14	1492.97
491.34	1679.33
491.54	2295.77
491.74	2533.34
491.94	3039.19
492.14	3155.92
492.34	3010.51
492.54	2600.92
492.75	2303.96
492.95	2250.72
493.15	2099.17
493.35	2011.11
493.55	1943.52
493.75	2015.20
493.95	1845.22
494.15	1746.92
494.35	1728.49
494.56	1605.61
494.76	1564.65
494.96	1546.22
495.16	1484.78
495.36	1366.00
495.56	1425.39
495.76	1443.82
495.96	1296.36
496.16	1392.62
496.36	1490.92
496.56	1380.33
496.77	1380.33
496.97	1423.34
497.17	1402.86
497.37	1310.70
497.57	1394.67
497.77	1361.90
497.97	1286.12
498.17	1454.06
498.37	1386.47
498.57	1325.04
498.77	1363.95
498.97	1443.82
499.17	1464.30
499.38	1322.99
499.58	1325.04
499.78	1486.83
499.98	1456.11
500.18	1331.18
500.38	1353.71
500.58	1705.96
500.78	2920.40
500.98	5418.93
501.18	6991.77
501.38	8296.32
501.58	8490.88
501.78	7493.52
501.98	5705.64
502.18	5328.81
502.38	4554.68
502.58	4163.52
502.78	3798.98
502.98	3733.45
503.18	3442.64
503.38	3297.23
503.59	3071.95
503.79	2852.82
503.99	2594.78
504.19	2406.36
504.39	2131.94
504.59	2066.40
504.79	1920.99
504.99	1814.50
505.19	1640.42
505.39	1683.43
505.59	1634.28
505.79	1568.74
505.99	1583.08
506.19	1423.34
506.39	1568.74
506.59	1468.39
506.79	1427.43
506.99	1509.35
507.19	1462.25
507.39	1482.73
507.59	1327.08
507.79	1388.52
507.99	1445.87
508.19	1400.81
508.39	1368.04
508.59	1374.19
508.79	1372.14
508.99	1439.72
509.19	1320.94
509.39	1359.85
509.59	1308.65
509.79	1343.47
509.99	1409.00
510.19	1445.87
510.39	1449.96
510.59	1392.62
510.79	1374.19
510.99	1355.76
511.19	1366.00
511.39	1441.77
511.59	1359.85
511.79	1355.76
511.99	1349.61
512.19	1380.33
512.38	1392.62
512.58	1415.15
512.78	1337.32
512.98	1437.67
513.18	1488.87
513.38	1279.98
513.58	1441.77
513.78	1322.99
513.98	1370.09
514.18	1310.70
514.38	1314.80
514.58	1435.63
514.78	1376.24
514.98	1400.81
515.18	1361.90
515.38	1363.95
515.58	1499.11
515.78	1382.38
515.98	1380.33
516.18	1251.31
516.38	1345.52
516.57	1411.05
516.77	1327.08
516.97	1411.05
517.17	1353.71
517.37	1286.12
517.57	1290.22
517.77	1290.22
517.97	1345.52
518.17	1499.11
518.37	1351.66
518.57	1374.19
518.77	1402.86
518.97	1366.00
519.16	1337.32
519.36	1433.58
519.56	1304.56
519.76	1396.71
519.96	1406.95
520.16	1464.30
520.36	1327.08
520.56	1406.95
520.76	1306.60
520.96	1384.43
521.16	1386.47
521.35	1472.49
521.55	1501.16
521.75	1378.28
521.95	1322.99
522.15	1363.95
522.35	1322.99
522.55	1378.28
522.75	1394.67
522.95	1353.71
523.14	1322.99
523.34	1343.47
523.54	1329.13
523.74	1431.53
523.94	1402.86
524.14	1339.37
524.34	1363.95
524.54	1394.67
524.73	1380.33
524.93	1366.00
525.13	1404.91
525.33	1339.37
525.53	1468.39
525.73	1325.04
525.93	1388.52
526.13	1376.24
526.32	1357.80
526.52	1411.05
526.72	1396.71
526.92	1390.57
527.12	1363.95
527.32	1370.09
527.52	1423.34
527.71	1347.56
527.91	1355.76
528.11	1400.81
528.31	1331.18
528.51	1374.19
528.71	1380.33
528.90	1441.77
529.10	1347.56
529.30	1452.01
529.50	1306.60
529.70	1376.24
529.90	1368.04
530.09	1327.08
530.29	1380.33
530.49	1357.80
530.69	1468.39
530.89	1386.47
531.09	1429.48
531.28	1386.47
531.48	1449.96
531.68	1382.38
531.88	1347.56
532.08	1382.38
532.28	1392.62
532.47	1351.66
532.67	1460.20
532.87	1402.86
533.07	1296.36
533.27	1409.00
533.46	1337.32
533.66	1382.38
533.86	1378.28
534.06	1443.82
534.26	1452.01
534.45	1390.57
534.65	1449.96
534.85	1363.95
535.05	1400.81
535.25	1380.33
535.44	1290.22
535.64	1390.57
535.84	1386.47
536.04	1318.89
536.24	1314.80
536.43	1314.80
536.63	1372.14
536.83	1351.66
537.03	1374.19
537.22	1400.81
537.42	1325.04
537.62	1370.09
537.82	1353.71
538.02	1382.38
538.21	1495.02
538.41	1406.95
538.61	1429.48
538.81	1394.67
539.00	1378.28
539.20	1310.70
539.40	1402.86
539.60	1353.71
539.79	1456.11
539.99	1320.94
540.19	1372.14
540.39	1357.80
540.58	1437.67
540.78	1374.19
540.98	1386.47
541.18	1415.15
541.37	1361.90
541.57	1380.33
541.77	1427.43
541.97	1333.23
542.16	1333.23
542.36	1279.98
542.56	1435.63
542.76	1421.29
542.95	1394.67
543.15	1404.91
543.35	1454.06
543.54	1355.76
543.74	1411.05
543.94	1400.81
544.14	1359.85
544.33	1382.38
544.53	1384.43
544.73	1318.89
544.93	1325.04
545.12	1427.43
545.32	1310.70
545.52	1327.08
545.71	1374.19
545.91	1343.47
546.11	1380.33
546.30	1314.80
546.50	1318.89
546.70	1382.38
546.90	1445.87
547.09	1349.61
547.29	1316.84
547.49	1382.38
547.68	1345.52
547.88	1337.32
548.08	1396.71
548.27	1759.21
548.47	1331.18
548.67	1394.67
548.87	1429.48
549.06	1322.99
549.26	1327.08
549.46	1345.52
549.65	1329.13
549.85	1449.96
550.05	1413.10
550.24	1349.61
550.44	1341.42
550.64	1347.56
550.83	1361.90
551.03	1359.85
551.23	1363.95
551.42	1382.38
551.62	1366.00
551.82	1404.91
552.01	1382.38
552.21	1390.57
552.41	1429.48
552.60	1329.13
552.80	1468.39
553.00	1376.24
553.19	1388.52
553.39	1384.43
553.59	1370.09
553.78	1359.85
553.98	1312.75
554.17	1349.61
554.37	1409.00
554.57	1347.56
554.76	1345.52
554.96	1366.00
555.16	1363.95
555.35	1376.24
555.55	1382.38
555.75	1347.56
555.94	1392.62
556.14	1239.02
556.33	1363.95
556.53	1392.62
556.73	1366.00
556.92	1345.52
557.12	1423.34
557.32	1484.78
557.51	1406.95
557.71	1439.72
557.90	1419.24
558.10	1478.63
558.30	1394.67
558.49	1325.04
558.69	1372.14
558.88	1390.57
559.08	1382.38
559.28	1406.95
559.47	1361.90
559.67	1366.00
559.86	1478.63
560.06	1376.24
560.26	1392.62
560.45	1413.10
560.65	1419.24
560.84	1384.43
561.04	1310.70
561.24	1447.91
561.43	1337.32
561.63	1357.80
561.82	1359.85
562.02	1396.71
562.22	1411.05
562.41	1277.93
562.61	1347.56
562.80	1402.86
563.00	1421.29
563.19	1327.08
563.39	1392.62
563.59	1400.81
563.78	1304.56
563.98	1366.00
564.17	1322.99
564.37	1279.98
564.56	1341.42
564.76	1314.80
564.96	1335.28
565.15	1421.29
565.35	1499.11
565.54	1421.29
565.74	1423.34
565.93	1402.86
566.13	1394.67
566.32	1439.72
566.52	1402.86
566.71	1386.47
566.91	1390.57
567.11	1333.23
567.30	1441.77
567.50	1439.72
567.69	1445.87
567.89	1339.37
568.08	1345.52
568.28	1355.76
568.47	1359.85
568.67	1439.72
568.86	1300.46
569.06	1388.52
569.25	1413.10
569.45	1384.43
569.64	1308.65
569.84	1376.24
570.04	1349.61
570.23	1351.66
570.43	1439.72
570.62	1415.15
570.82	1396.71
571.01	1372.14
571.21	1392.62
571.40	1359.85
571.60	1421.29
571.79	1409.00
571.99	1443.82
572.18	1382.38
572.38	1372.14
572.57	1382.38
572.77	1507.30
572.96	1492.97
573.16	1484.78
573.35	1374.19
573.55	1482.73
573.74	1370.09
573.94	1439.72
574.13	1464.30
574.33	1406.95
574.52	1394.67
574.71	1400.81
574.91	1355.76
575.10	1372.14
575.30	1470.44
575.49	1343.47
575.69	1433.58
575.88	1411.05
576.08	1417.19
576.27	1513.45
576.47	1531.88
576.66	1540.07
576.86	1476.59
577.05	1417.19
577.25	1464.30
577.44	1452.01
577.64	1443.82
577.83	1427.43
578.02	1409.00
578.22	1452.01
578.41	1452.01
578.61	1402.86
578.80	1343.47
579.00	1482.73
579.19	1415.15
579.39	1488.87
579.58	1521.64
579.77	1417.19
579.97	1468.39
580.16	1427.43
580.36	1449.96
580.55	1437.67
580.75	1437.67
580.94	1400.81
581.13	1468.39
581.33	1484.78
581.52	1460.20
581.72	1517.54
581.91	1513.45
582.11	1454.06
582.30	1468.39
582.49	1486.83
582.69	1486.83
582.88	1468.39
583.08	1464.30
583.27	1431.53
583.47	1474.54
583.66	1456.11
583.85	1419.24
584.05	1501.16
584.24	1480.68
584.44	1554.41
584.63	1521.64
584.82	1503.21
585.02	1568.74
585.21	1568.74
585.41	1576.94
585.60	1667.05
585.79	1673.19
585.99	1632.23
586.18	1597.42
586.37	1824.74
586.57	2762.71
586.76	8114.05
586.96	24571.53
587.15	41776.51
587.34	52471.01
587.54	60189.80
587.73	59808.88
587.93	45317.45
588.12	32947.72
588.31	26879.59
588.51	22939.30
588.70	19918.54
588.89	18577.12
589.09	17239.80
589.28	16033.55
589.47	14352.16
589.67	12549.95
589.86	10579.81
590.06	8570.75
590.25	6709.15
590.44	4960.18
590.64	3782.60
590.83	2887.64
591.02	2252.77
591.22	1920.99
591.41	1708.01
591.60	1632.23
591.80	1654.76
591.99	1509.35
592.18	1503.21
592.38	1456.11
592.57	1433.58
592.76	1429.48
592.96	1460.20
593.15	1443.82
593.34	1431.53
593.54	1402.86
593.73	1413.10
593.92	1484.78
594.12	1492.97
594.31	1499.11
594.50	1466.35
594.70	1505.26
594.89	1523.69
595.08	1366.00
595.28	1495.02
595.47	1458.15
595.66	1515.50
595.86	1366.00
596.05	1472.49
596.24	1406.95
596.43	1542.12
596.63	1433.58
596.82	1484.78
597.01	1419.24
597.21	1523.69
597.40	1456.11
597.59	1464.30
597.79	1456.11
597.98	1509.35
598.17	1351.66
598.36	1357.80
598.56	1382.38
598.75	1378.28
598.94	1439.72
599.14	1441.77
599.33	1425.39
599.52	1492.97
599.71	1390.57
599.91	1441.77
600.10	1411.05
600.29	1425.39
600.48	1394.67
600.68	1419.24
600.87	1452.01
601.06	1361.90
601.26	1314.80
601.45	1484.78
601.64	1382.38
601.83	1382.38
602.03	1366.00
602.22	1322.99
602.41	1384.43
602.60	1460.20
602.80	1443.82
602.99	1429.48
603.18	1384.43
603.37	1439.72
603.57	1398.76
603.76	1501.16
603.95	1458.15
604.14	1396.71
604.34	1294.32
604.53	1359.85
604.72	1406.95
604.91	1427.43
605.10	1357.80
605.30	1355.76
605.49	1462.25
605.68	1366.00
605.87	1462.25
606.07	1394.67
606.26	1386.47
606.45	1417.19
606.64	1359.85
606.84	1437.67
607.03	1474.54
607.22	1503.21
607.41	1398.76
607.60	1423.34
607.80	1429.48
607.99	1357.80
608.18	1460.20
608.37	1359.85
608.56	1400.81
608.76	1427.43
608.95	1552.36
609.14	1437.67
609.33	1443.82
609.52	1578.98
609.72	1462.25
609.91	1456.11
610.10	1427.43
610.29	1495.02
610.48	1441.77
610.68	1376.24
610.87	1398.76
611.06	1378.28
611.25	1406.95
611.44	1511.40
611.63	1357.80
611.83	1417.19
612.02	1404.91
612.21	1421.29
612.40	1310.70
612.59	1380.33
612.79	1380.33
612.98	1447.91
613.17	1445.87
613.36	1417.19
613.55	1388.52
613.74	1486.83
613.93	1515.50
614.13	1495.02
614.32	1642.47
614.51	1705.96
614.70	1503.21
614.89	1519.59
615.08	1527.78
615.28	1669.09
615.47	1415.15
615.66	1421.29
615.85	1423.34
616.04	1564.65
616.23	1415.15
616.42	1460.20
616.62	1499.11
616.81	1550.31
617.00	1429.48
617.19	1384.43
617.38	1380.33
617.57	1378.28
617.76	1376.24
617.95	1374.19
618.15	1437.67
618.34	1460.20
618.53	1396.71
618.72	1411.05
618.91	1460.20
619.10	1433.58
619.29	1419.24
619.48	1396.71
619.68	1357.80
619.87	1396.71
620.06	1314.80
620.25	1406.95
620.44	1427.43
620.63	1337.32
620.82	1316.84
621.01	1366.00
621.20	1390.57
621.39	1431.53
621.59	1480.68
621.78	1339.37
621.97	1335.28
622.16	1370.09
622.35	1400.81
622.54	1372.14
622.73	1357.80
622.92	1361.90
623.11	1427.43
623.30	1384.43
623.49	1445.87
623.68	1384.43
623.88	1415.15
624.07	1411.05
624.26	1282.03
624.45	1437.67
624.64	1359.85
624.83	1413.10
625.02	1339.37
625.21	1417.19
625.40	1419.24
625.59	1392.62
625.78	1361.90
625.97	1439.72
626.16	1372.14
626.35	1523.69
626.54	1456.11
626.74	1638.38
626.93	1490.92
627.12	1466.35
627.31	1437.67
627.50	1388.52
627.69	1396.71
627.88	1394.67
628.07	1343.47
628.26	1380.33
628.45	1374.19
628.64	1372.14
628.83	1409.00
629.02	1331.18
629.21	1402.86
629.40	1445.87
629.59	1331.18
629.78	1398.76
629.97	1388.52
630.16	1376.24
630.35	1325.04
630.54	1343.47
630.73	1335.28
630.92	1431.53
631.11	1298.41
631.30	1464.30
631.49	1439.72
631.68	1302.51
631.87	1396.71
632.06	1314.80
632.25	1460.20
632.44	1310.70
632.63	1368.04
632.82	1372.14
633.01	1409.00
633.20	1458.15
633.39	1529.83
633.58	1402.86
633.77	1378.28
633.96	1566.70
634.15	1445.87
634.34	1402.86
634.53	1363.95
634.72	1406.95
634.91	1406.95
635.10	1435.63
635.29	1454.06
635.48	1445.87
635.67	1390.57
635.86	1394.67
636.05	1470.44
636.24	1322.99
636.43	1437.67
636.62	1380.33
636.81	1282.03
637.00	1388.52
637.19	1433.58
637.38	1386.47
637.57	1392.62
637.76	1470.44
637.95	1509.35
638.14	1513.45
638.33	1501.16
638.52	1472.49
638.71	1396.71
638.89	1341.42
639.08	1468.39
639.27	1492.97
639.46	1488.87
639.65	1656.81
639.84	1767.40
640.03	1916.90
640.22	2113.50
640.41	2123.74
640.60	1851.36
640.79	1771.49
640.98	1658.85
641.17	1652.71
641.36	1597.42
641.55	1591.27
641.74	1484.78
641.92	1550.31
642.11	1464.30
642.30	1370.09
642.49	1366.00
642.68	1372.14
642.87	1368.04
643.06	1372.14
643.25	1413.10
643.44	1366.00
643.63	1372.14
643.82	1396.71
644.00	1366.00
644.19	1370.09
644.38	1384.43
644.57	1327.08
644.76	1339.37
644.95	1359.85
645.14	1355.76
645.33	1339.37
645.52	1380.33
645.71	1288.17
645.89	1359.85
646.08	1406.95
646.27	1292.27
646.46	1431.53
646.65	1308.65
646.84	1425.39
647.03	1275.88
647.22	1388.52
647.40	1380.33
647.59	1329.13
647.78	1286.12
647.97	1306.60
648.16	1337.32
648.35	1495.02
648.54	1308.65
648.73	1318.89
648.91	1472.49
649.10	1419.24
649.29	1327.08
649.48	1331.18
649.67	1402.86
649.86	1314.80
650.05	1411.05
650.23	1452.01
650.42	1421.29
650.61	1621.99
650.80	1535.98
650.99	1634.28
651.18	1507.30
651.36	1464.30
651.55	1433.58
651.74	1486.83
651.93	1415.15
652.12	1417.19
652.31	1304.56
652.49	1380.33
652.68	1390.57
652.87	1441.77
653.06	1419.24
653.25	1509.35
653.44	1404.91
653.62	1464.30
653.81	1447.91
654.00	1454.06
654.19	1466.35
654.38	1486.83
654.56	1400.81
654.75	1409.00
654.94	1396.71
655.13	1363.95
655.32	1357.80
655.51	1404.91
655.69	1378.28
655.88	1363.95
656.07	1392.62
656.26	1374.19
656.45	1390.57
656.63	1396.71
656.82	1439.72
657.01	1425.39
657.20	1359.85
657.38	1503.21
657.57	1333.23
657.76	1427.43
657.95	1361.90
658.14	1368.04
658.32	1363.95
658.51	1351.66
658.70	1374.19
658.89	1376.24
659.08	1355.76
659.26	1458.15
659.45	1452.01
659.64	1466.35
659.83	1441.77
660.01	1589.22
660.20	1527.78
660.39	1495.02
660.58	1388.52
660.76	1474.54
660.95	1402.86
661.14	1423.34
661.33	1343.47
661.51	1394.67
661.70	1402.86
661.89	1409.00
662.08	1366.00
662.26	1366.00
662.45	1396.71
662.64	1458.15
662.83	1439.72
663.01	1349.61
663.20	1370.09
663.39	1388.52
663.58	1396.71
663.76	1394.67
663.95	1415.15
664.14	1347.56
664.32	1366.00
664.51	1376.24
664.70	1310.70
664.89	1421.29
665.07	1318.89
665.26	1447.91
665.45	1357.80
665.64	1513.45
665.82	1370.09
666.01	1413.10
666.20	1396.71
666.38	1449.96
666.57	1423.34
666.76	1574.89
666.95	2054.11
667.13	4476.86
667.32	11718.48
667.51	18185.96
667.69	21817.01
667.88	24874.63
668.07	24618.63
668.25	19138.27
668.44	13831.98
668.63	11130.71
668.81	9125.75
669.00	8083.33
669.19	7446.41
669.38	6879.13
669.56	6410.14
669.75	5689.26
669.94	4874.17
670.12	4270.01
670.31	3553.23
670.50	2938.84
670.68	2449.37
670.87	2064.35
671.06	1804.26
671.24	1744.87
671.43	1613.80
671.62	1558.50
671.80	1511.40
671.99	1562.60
672.18	1503.21
672.36	1468.39
672.55	1480.68
672.74	1386.47
672.92	1372.14
673.11	1433.58
673.29	1361.90
673.48	1437.67
673.67	1406.95
673.85	1400.81
674.04	1329.13
674.23	1404.91
674.41	1431.53
674.60	1404.91
674.79	1325.04
674.97	1402.86
675.16	1443.82
675.34	1359.85
675.53	1296.36
675.72	1445.87
675.90	1466.35
676.09	1388.52
676.28	1343.47
676.46	1298.41
676.65	1384.43
676.83	1273.84
677.02	1382.38
677.21	1384.43
677.39	1433.58
677.58	1351.66
677.77	1378.28
677.95	1316.84
678.14	1382.38
678.32	1404.91
678.51	1355.76
678.70	1435.63
678.88	1382.38
679.07	1376.24
679.25	1370.09
679.44	1384.43
679.63	1376.24
679.81	1404.91
680.00	1409.00
680.18	1347.56
680.37	1394.67
680.55	1437.67
680.74	1314.80
680.93	1224.69
681.11	1363.95
681.30	1445.87
681.48	1409.00
681.67	1400.81
681.85	1392.62
682.04	1314.80
682.23	1413.10
682.41	1310.70
682.60	1400.81
682.78	1310.70
682.97	1406.95
683.15	1388.52
683.34	1402.86
683.53	1433.58
683.71	1341.42
683.90	1351.66
684.08	1384.43
684.27	1343.47
684.45	1423.34
684.64	1384.43
684.82	1329.13
685.01	1441.77
685.19	1382.38
685.38	1445.87
685.57	1361.90
685.75	1353.71
685.94	1419.24
686.12	1302.51
686.31	1411.05
686.49	1435.63
686.68	1294.32
686.86	1355.76
687.05	1331.18
687.23	1437.67
687.42	1404.91
687.60	1318.89
687.79	1417.19
687.97	1406.95
688.16	1507.30
688.34	1468.39
688.53	1234.93
688.71	1359.85
688.90	1378.28
689.08	1411.05
689.27	1378.28
689.45	1361.90
689.64	1449.96
689.82	1380.33
690.01	1349.61
690.19	1452.01
690.38	1232.88
690.56	1351.66
690.75	1372.14
690.93	1341.42
691.12	1355.76
691.30	1386.47
691.49	1404.91
691.67	1335.28
691.86	1390.57
692.04	1406.95
692.23	1398.76
692.41	1411.05
692.60	1460.20
692.78	1449.96
692.97	1456.11
693.15	1435.63
693.34	1562.60
693.52	1476.59
693.71	1366.00
693.89	1386.47
694.08	1351.66
694.26	1458.15
694.44	1421.29
694.63	1437.67
694.81	1357.80
695.00	1406.95
695.18	1374.19
695.37	1509.35
695.55	1386.47
695.74	1339.37
695.92	1406.95
696.10	1388.52
696.29	1316.84
696.47	1366.00
696.66	1320.94
696.84	1400.81
697.03	1376.24
697.21	1525.74
697.40	1685.48
697.58	1400.81
697.76	1286.12
697.95	1411.05
698.13	1361.90
698.32	1308.65
698.50	1351.66
698.68	1409.00
698.87	1445.87
699.05	1396.71
699.24	1404.91
699.42	1345.52
699.61	1406.95
699.79	1322.99
699.97	1374.19
700.16	1320.94
700.34	1345.52
700.53	1374.19
700.71	1413.10
700.89	1415.15
701.08	1441.77
701.26	1468.39
701.45	1650.66
701.63	1363.95
701.81	1435.63
702.00	1415.15
702.18	1458.15
702.37	1427.43
702.55	1480.68
702.73	1482.73
702.92	1533.93
703.10	1656.81
703.28	1671.14
703.47	1675.24
703.65	1597.42
703.84	1550.31
704.02	1492.97
704.20	1511.40
704.39	1443.82
704.57	1400.81
704.75	1505.26
704.94	1531.88
705.12	1435.63
705.30	1441.77
705.49	1544.17
705.67	1777.64
705.86	3487.69
706.04	8990.58
706.22	16297.74
706.41	19834.58
706.59	22736.55
706.77	23740.05
706.96	19850.96
707.14	14051.11
707.32	11564.88
707.51	9047.93
707.69	8226.69
707.87	7511.95
708.06	6885.27
708.24	6191.01
708.42	5083.06
708.61	4007.87
708.79	3100.62
708.97	2295.77
709.16	1986.53
709.34	1738.73
709.52	1597.42
709.71	1527.78
709.89	1503.21
710.07	1474.54
710.26	1419.24
710.44	1378.28
710.62	1429.48
710.80	1396.71
710.99	1402.86
711.17	1421.29
711.35	1366.00
711.54	1415.15
711.72	1529.83
711.90	1478.63
712.09	1402.86
712.27	1372.14
712.45	1413.10
712.63	1402.86
712.82	1380.33
713.00	1454.06
713.18	1400.81
713.37	1421.29
713.55	1337.32
713.73	1312.75
713.91	1400.81
714.10	1382.38
714.28	1355.76
714.46	1390.57
714.65	1409.00
714.83	1431.53
715.01	1279.98
715.19	1351.66
715.38	1304.56
715.56	1456.11
715.74	1392.62
715.92	1329.13
716.11	1458.15
716.29	1294.32
716.47	1310.70
716.65	1404.91
716.84	1269.74
717.02	1402.86
717.20	1302.51
717.38	1388.52
717.57	1384.43
717.75	1425.39
717.93	1374.19
718.11	1431.53
718.30	1316.84
718.48	1417.19
718.66	1406.95
718.84	1495.02
719.03	1396.71
719.21	1241.07
719.39	1411.05
719.57	1357.80
719.75	1429.48
719.94	1374.19
720.12	1273.84
720.30	1374.19
720.48	1392.62
720.67	1347.56
720.85	1433.58
721.03	1370.09
721.21	1337.32
721.39	1374.19
721.58	1398.76
721.76	1320.94
721.94	1359.85
722.12	1378.28
722.30	1402.86
722.49	1390.57
722.67	1400.81
722.85	1345.52
723.03	1257.45
723.21	1386.47
723.40	1392.62
723.58	1499.11
723.76	1402.86
723.94	1443.82
724.12	1456.11
724.30	1527.78
724.49	1507.30
724.67	1427.43
724.85	1527.78
725.03	1396.71
725.21	1435.63
725.40	1478.63
725.58	1322.99
725.76	1388.52
725.94	1396.71
726.12	1406.95
726.30	1390.57
726.49	1404.91
726.67	1359.85
726.85	1454.06
727.03	1429.48
727.21	1460.20
727.39	1564.65
727.57	2074.59
727.76	3411.92
727.94	4296.64
728.12	4923.32
728.30	5382.06
728.48	5083.06
728.66	4237.25
728.84	3463.12
729.03	3016.66
729.21	2832.34
729.39	2549.72
729.57	2359.26
729.75	1912.80
729.93	1871.84
730.11	1550.31
730.30	1566.70
730.48	1478.63
730.66	1480.68
730.84	1484.78
731.02	1314.80
731.20	1366.00
731.38	1347.56
731.56	1380.33
731.74	1431.53
731.93	1380.33
732.11	1468.39
732.29	1400.81
732.47	1366.00
732.65	1359.85
732.83	1357.80
733.01	1396.71
733.19	1286.12
733.37	1431.53
733.56	1372.14
733.74	1374.19
733.92	1357.80
734.10	1300.46
734.28	1468.39
734.46	1386.47
734.64	1337.32
734.82	1304.56
735.00	1353.71
735.18	1417.19
735.36	1288.17
735.54	1357.80
735.73	1292.27
735.91	1351.66
736.09	1417.19
736.27	1396.71
736.45	1421.29
736.63	1316.84
736.81	1349.61
736.99	1458.15
737.17	1470.44
737.35	1259.50
737.53	1366.00
737.71	1312.75
737.89	1429.48
738.07	1277.93
738.25	1312.75
738.43	1366.00
738.61	1449.96
738.80	1337.32
738.98	1331.18
739.16	1282.03
739.34	1335.28
739.52	1433.58
739.70	1388.52
739.88	1337.32
740.06	1423.34
740.24	1335.28
740.42	1415.15
740.60	1376.24
740.78	1322.99
740.96	1329.13
741.14	1341.42
741.32	1282.03
741.50	1396.71
741.68	1470.44
741.86	1480.68
742.04	1400.81
742.22	1314.80
742.40	1396.71
742.58	1398.76
742.76	1327.08
742.94	1472.49
743.12	1306.60
743.30	1390.57
743.48	1345.52
743.66	1376.24
743.84	1355.76
744.02	1409.00
744.20	1394.67
744.38	1306.60
744.56	1341.42
744.74	1484.78
744.92	1439.72
745.10	1417.19
745.28	1433.58
745.46	1357.80
745.64	1337.32
745.82	1384.43
746.00	1454.06
746.18	1372.14
746.36	1413.10
746.54	1370.09
746.72	1402.86
746.90	1314.80
747.08	1419.24
747.26	1351.66
747.44	1396.71
747.62	1390.57
747.80	1452.01
747.98	1454.06
748.15	1380.33
748.33	1435.63
748.51	1325.04
748.69	1462.25
748.87	1263.60
749.05	1445.87
749.23	1320.94
749.41	1425.39
749.59	1372.14
749.77	1339.37
749.95	1406.95
750.13	1419.24
750.31	1378.28
750.49	1396.71
750.67	1384.43
750.85	1386.47
751.03	1411.05
751.20	1406.95
751.38	1396.71
751.56	1382.38
751.74	1396.71
751.92	1249.26
752.10	1316.84
752.28	1378.28
752.46	1322.99
752.64	1404.91
752.82	1400.81
753.00	1421.29
753.18	1398.76
753.35	1325.04
753.53	1390.57
753.71	1347.56
753.89	1394.67
754.07	1386.47
754.25	1441.77
754.43	1439.72
754.61	1380.33
754.79	1355.76
754.97	1368.04
755.14	1443.82
755.32	1322.99
755.50	1361.90
755.68	1298.41
755.86	1355.76
756.04	1273.84
756.22	1312.75
756.40	1413.10
756.57	1443.82
756.75	1341.42
756.93	1402.86
757.11	1366.00
757.29	1370.09
757.47	1267.69
757.65	1325.04
757.82	1269.74
758.00	1345.52
758.18	1339.37
758.36	1386.47
758.54	1458.15
758.72	1325.04
758.90	1382.38
759.07	1368.04
759.25	1306.60
759.43	1329.13
759.61	1345.52
759.79	1681.38
759.97	1404.91
760.15	1341.42
760.32	1345.52
760.50	1447.91
760.68	1333.23
760.86	1327.08
761.04	1423.34
761.22	1366.00
761.39	1304.56
761.57	1406.95
761.75	1384.43
761.93	1361.90
762.11	1331.18
762.28	1445.87
762.46	1335.28
762.64	1394.67
762.82	1298.41
763.00	1359.85
763.18	1447.91
763.35	1245.16
763.53	1441.77
763.71	1327.08
763.89	1325.04
764.07	1419.24
764.24	1462.25
764.42	1392.62
764.60	1363.95
764.78	1306.60
764.96	1470.44
765.13	1419.24
765.31	1331.18
765.49	1310.70
765.67	1339.37
765.84	1396.71
766.02	1304.56
766.20	1292.27
766.38	1378.28
766.56	1447.91
766.73	1339.37
766.91	1415.15
767.09	1396.71
767.27	1351.66
767.44	1273.84
767.62	1312.75
767.80	1396.71
767.98	1329.13
768.15	1361.90
768.33	1363.95
768.51	1394.67
768.69	1439.72
768.87	1411.05
769.04	1376.24
769.22	1468.39
769.40	1382.38
769.58	1449.96
769.75	1419.24
769.93	1439.72
770.11	1368.04
770.28	1347.56
770.46	1396.71
770.64	1433.58
770.82	1376.24
770.99	1361.90
771.17	1361.90
771.35	1396.71
771.53	1308.65
771.70	1331.18
771.88	1363.95
772.06	1363.95
772.23	1345.52
772.41	1394.67
772.59	1277.93
772.77	1368.04
772.94	1345.52
773.12	1353.71
773.30	1392.62
773.47	1417.19
773.65	1386.47
773.83	1443.82
774.01	1359.85
774.18	1368.04
774.36	1345.52
774.54	1329.13
774.71	1437.67
774.89	1302.51
775.07	1314.80
775.24	1300.46
775.42	1372.14
775.60	1378.28
775.78	1310.70
775.95	1378.28
776.13	1314.80
776.31	1300.46
776.48	1400.81
776.66	1351.66
776.84	1400.81
777.01	1425.39
777.19	1331.18
777.37	1384.43
777.54	1368.04
777.72	1433.58
777.90	1406.95
778.07	1335.28
778.25	1437.67
778.43	1417.19
778.60	1382.38
778.78	1345.52
778.96	1419.24
779.13	1327.08
779.31	1400.81
779.49	1413.10
779.66	1372.14
779.84	1363.95
780.01	1411.05
780.19	1232.88
780.37	1376.24
780.54	1394.67
780.72	1355.76
780.90	1368.04
781.07	1343.47
781.25	1339.37
781.43	1439.72
781.60	1337.32
781.78	1236.97
781.95	1404.91
782.13	1312.75
782.31	1327.08
782.48	1273.84
782.66	1435.63
782.83	1449.96
783.01	1437.67
783.19	1409.00
783.36	1329.13
783.54	1349.61
783.72	1327.08
783.89	1351.66
784.07	1370.09
784.24	1445.87
784.42	1384.43
784.60	1378.28
784.77	1286.12
784.95	1314.80
785.12	1372.14
785.30	1345.52
785.47	1325.04
785.65	1331.18
785.83	1302.51
786.00	1380.33
786.18	1378.28
786.35	1359.85
786.53	1351.66
786.71	1400.81
786.88	1402.86
787.06	1445.87
787.23	1390.57
787.41	1396.71
787.58	1310.70
787.76	1288.17
787.94	1363.95
788.11	1404.91
788.29	1327.08
788.46	1374.19
788.64	1322.99
788.81	1331.18
788.99	1296.36
789.16	1443.82
789.34	1355.76
789.52	1288.17
789.69	1310.70
789.87	1296.36
790.04	1386.47
790.22	1384.43
790.39	1445.87
790.57	1363.95
790.74	1355.76
790.92	1394.67
791.09	1298.41
791.27	1394.67
791.44	1427.43
791.62	1363.95
791.79	1386.47
791.97	1341.42
792.15	1466.35
792.32	1441.77
792.50	1384.43
792.67	1386.47
792.85	1345.52
793.02	1384.43
793.20	1331.18
793.37	1353.71
793.55	1419.24
793.72	1380.33
793.90	1374.19
794.07	1351.66
794.25	1390.57
794.42	1370.09
794.60	1437.67
794.77	1402.86
794.95	1386.47
795.12	1363.95
795.30	1304.56
795.47	1286.12
795.65	1447.91
795.82	1433.58
796.00	1384.43
796.17	1421.29
796.34	1366.00
796.52	1396.71
796.69	1347.56
796.87	1390.57
797.04	1421.29
797.22	1351.66
797.39	1355.76
797.57	1388.52
797.74	1411.05
797.92	1333.23
798.09	1310.70
798.27	1415.15
798.44	1341.42
798.62	1411.05
798.79	1366.00
798.96	1374.19
799.14	1372.14
799.31	1415.15
799.49	1417.19
799.66	1359.85
799.84	1402.86
800.01	1286.12
800.19	1382.38
800.36	1261.55
800.53	1402.86
800.71	1331.18
800.88	1409.00
801.06	1388.52
801.23	1302.51
801.41	1366.00
801.58	1417.19
801.75	1359.85
801.93	1335.28
802.10	1376.24
802.28	1306.60
802.45	1392.62
802.63	1370.09
802.80	1458.15
802.97	1353.71
803.15	1384.43
803.32	1349.61
803.50	1359.85
803.67	1341.42
803.84	1302.51
804.02	1329.13
804.19	1355.76
804.37	1261.55
804.54	1284.08
804.71	1400.81
804.89	1351.66
805.06	1368.04
805.24	1325.04
805.41	1372.14
805.58	1378.28
805.76	1460.20
805.93	1398.76
806.10	1404.91
806.28	1341.42
806.45	1361.90
806.63	1370.09
806.80	1347.56
806.97	1435.63
807.15	1386.47
807.32	1368.04
807.49	1388.52
807.67	1290.22
807.84	1435.63
808.01	1413.10
808.19	1406.95
808.36	1480.68
808.54	1390.57
808.71	1335.28
808.88	1310.70
809.06	1329.13
809.23	1409.00
809.40	1392.62
809.58	1421.29
809.75	1384.43
809.92	1343.47
810.10	1433.58
810.27	1347.56
810.44	1390.57
810.62	1282.03
810.79	1366.00
810.96	1357.80
811.14	1351.66
811.31	1431.53
811.48	1402.86
811.66	1394.67
811.83	1452.01
812.00	1374.19
812.18	1308.65
812.35	1376.24
812.52	1359.85
812.69	1374.19
812.87	1292.27
813.04	1320.94
813.21	1376.24
813.39	1474.54
813.56	1409.00
813.73	1429.48
813.91	1341.42
814.08	1347.56
814.25	1474.54
814.42	1355.76
814.60	1363.95
814.77	1370.09
814.94	1345.52
815.12	1396.71
815.29	1449.96
815.46	1382.38
815.63	1368.04
815.81	1374.19
815.98	1341.42
816.15	1363.95
816.33	1400.81
816.50	1380.33
816.67	1306.60
816.84	1376.24
817.02	1384.43
817.19	1359.85
817.36	1333.23
817.53	1384.43
817.71	1288.17
817.88	1441.77
818.05	1335.28
818.22	1335.28
818.40	1378.28
818.57	1441.77
818.74	1419.24
818.91	1325.04
819.09	1404.91
819.26	1437.67
819.43	1314.80
819.60	1310.70
819.78	1417.19
819.95	1460.20
820.12	1402.86
820.29	1503.21
820.47	1388.52
820.64	1331.18
820.81	1417.19
820.98	1370.09
821.15	1320.94
821.33	1388.52
821.50	1343.47
821.67	1320.94
821.84	1439.72
822.02	1439.72
822.19	1398.76
822.36	1366.00
822.53	1390.57
822.70	1290.22
822.88	1335.28
823.05	1492.97
823.22	1314.80
823.39	1460.20
823.56	1298.41
823.74	1413.10
823.91	1320.94
824.08	1306.60
824.25	1359.85
824.42	1398.76
824.60	1372.14
824.77	1398.76
824.94	1245.16
825.11	1392.62
825.28	1298.41
825.45	1425.39
825.63	1312.75
825.80	1345.52
825.97	1474.54
826.14	1384.43
826.31	1255.40
826.48	1449.96
826.66	1341.42
826.83	1378.28
827.00	1409.00
827.17	1398.76
827.34	1404.91
827.51	1380.33
827.69	1433.58
827.86	1339.37
828.03	1353.71
828.20	1331.18
828.37	1312.75
828.54	1388.52
828.71	1316.84
828.89	1419.24
829.06	1402.86
829.23	1359.85
829.40	1406.95
829.57	1376.24
829.74	1361.90
829.91	1337.32
830.09	1419.24
830.26	1370.09
830.43	1499.11
830.60	1363.95
830.77	1376.24
830.94	1312.75
831.11	1370.09
831.28	1361.90
831.46	1351.66
831.63	1345.52
831.80	1345.52
831.97	1447.91
832.14	1394.67
832.31	1411.05
832.48	1366.00
832.65	1357.80
832.82	1359.85
832.99	1394.67
833.17	1320.94
833.34	1458.15
833.51	1359.85
833.68	1306.60
833.85	1374.19
834.02	1396.71
834.19	1306.60
834.36	1224.69
834.53	1312.75
834.70	1374.19
834.87	1398.76
835.04	1423.34
835.22	1361.90
835.39	1320.94
835.56	1333.23
835.73	1255.40
835.90	1374.19
836.07	1261.55
836.24	1394.67
836.41	1302.51
836.58	1384.43
836.75	1429.48
836.92	1343.47
837.09	1294.32
837.26	1353.71
837.43	1376.24
837.60	1294.32
837.77	1312.75
837.94	1441.77
838.12	1474.54
838.29	1406.95
838.46	1339.37
838.63	1345.52
838.80	1443.82
838.97	1368.04
839.14	1366.00
839.31	1339.37
839.48	1361.90
839.65	1355.76
839.82	1376.24
839.99	1411.05
840.16	1363.95
840.33	1275.88
840.50	1380.33
840.67	1314.80
840.84	1273.84
841.01	1341.42
841.18	1421.29
841.35	1390.57
841.52	1351.66
841.69	1497.07
841.86	1351.66
842.03	1327.08
842.20	1402.86
842.37	1320.94
842.54	1288.17
842.71	1378.28
842.88	1316.84
843.05	1462.25
843.22	1376.24
843.39	1400.81
843.56	1400.81
843.73	1409.00
843.90	1376.24
844.07	1425.39
844.24	1404.91
844.41	1347.56
844.58	1415.15
844.75	1341.42
844.92	1366.00
845.09	1359.85
845.26	1359.85
845.43	1413.10
845.60	1384.43
845.77	1480.68
845.94	1396.71
846.10	1376.24
846.27	1294.32
846.44	1343.47
846.61	1390.57
846.78	1380.33
846.95	1404.91
847.12	1331.18
847.29	1327.08
847.46	1325.04
847.63	1322.99
847.80	1382.38
847.97	1329.13
848.14	1507.30
848.31	1359.85
848.48	1392.62
848.65	1382.38
848.82	1312.75
848.98	1376.24
849.15	1327.08
849.32	1409.00
849.49	1427.43
849.66	1433.58
849.83	1359.85
850.00	1394.67
850.17	1458.15
850.34	1333.23
850.51	1314.80
850.68	1263.60
850.85	1466.35
851.01	1361.90
851.18	1384.43
851.35	1394.67
851.52	1392.62
851.69	1468.39
851.86	1366.00
852.03	1456.11
852.20	1298.41
852.37	1359.85
852.53	1286.12
852.70	1398.76
852.87	1402.86
853.04	1435.63
853.21	1378.28
853.38	1378.28
853.55	1304.56
853.72	1392.62
853.89	1347.56
854.05	1290.22
854.22	1300.46
854.39	1331.18
854.56	1425.39
854.73	1372.14
854.90	1413.10
855.07	1337.32
855.23	1341.42
855.40	1292.27
855.57	1302.51
855.74	1273.84
855.91	1472.49
856.08	1357.80
856.25	1353.71
856.41	1464.30
856.58	1347.56
856.75	1310.70
856.92	1267.69
857.09	1433.58
857.26	1333.23
857.42	1392.62
857.59	1402.86
857.76	1351.66
857.93	1306.60
858.10	1349.61
858.27	1337.32
858.43	1413.10
858.60	1398.76
858.77	1349.61
858.94	1341.42
859.11	1435.63
859.27	1318.89
859.44	1345.52
859.61	1404.91
859.78	1406.95
859.95	1370.09
860.12	1357.80
860.28	1452.01
860.45	1458.15
860.62	1359.85
860.79	1376.24
860.95	1353.71
861.12	1372.14
861.29	1376.24
861.46	1349.61
861.63	1345.52
861.79	1372.14
861.96	1361.90
862.13	1337.32
862.30	1400.81
862.47	1286.12
862.63	1355.76
862.80	1392.62
862.97	1404.91
863.14	1347.56
863.30	1417.19
863.47	1347.56
863.64	1402.86
863.81	1353.71
863.97	1275.88
864.14	1443.82
864.31	1380.33
864.48	1353.71
864.65	1355.76
864.81	1394.67
864.98	1421.29
865.15	1386.47
865.32	1400.81
865.48	1456.11
865.65	1355.76
865.82	1380.33
865.98	1368.04
866.15	1429.48
866.32	1437.67
866.49	1255.40
866.65	1411.05
866.82	1290.22
866.99	1368.04
867.16	1361.90
867.32	1425.39
867.49	1427.43
867.66	1415.15
867.83	1341.42
867.99	1343.47
868.16	1361.90
868.33	1341.42
868.49	1255.40
868.66	1290.22
868.83	1388.52
868.99	1335.28
869.16	1316.84
869.33	1370.09
869.50	1435.63
869.66	1361.90
869.83	1441.77
870.00	1290.22
870.16	1343.47
870.33	1378.28
870.50	1386.47
870.66	1302.51
870.83	1427.43
871.00	1374.19
871.17	1355.76
871.33	1423.34
871.50	1306.60
871.67	1433.58
871.83	1337.32
872.00	1470.44
872.17	1376.24
872.33	1460.20
872.50	1337.32
872.67	1384.43
872.83	1353.71
873.00	1404.91
873.17	1339.37
873.33	1441.77
873.50	1411.05
873.67	1359.85
873.83	1349.61
874.00	1390.57
874.16	1456.11
874.33	1404.91
874.50	1337.32
874.66	1427.43
874.83	1347.56
875.00	1380.33
875.16	1415.15
875.33	1341.42
875.50	1343.47
875.66	1347.56
875.83	1378.28
875.99	1402.86
876.16	1388.52
876.33	1322.99
876.49	1355.76
876.66	1435.63
876.83	1335.28
876.99	1265.64
877.16	1345.52
877.32	1394.67
877.49	1361.90
877.66	1378.28
877.82	1363.95
877.99	1355.76
878.15	1398.76
878.32	1339.37
878.49	1361.90
878.65	1310.70
878.82	1388.52
878.98	1376.24
879.15	1441.77
879.32	1398.76
879.48	1337.32
879.65	1331.18
879.81	1370.09
879.98	1304.56
880.15	1294.32
880.31	1400.81
880.48	1304.56
880.64	1437.67
880.81	1370.09
880.97	1415.15
881.14	1390.57
881.31	1294.32
881.47	1394.67
881.64	1366.00
881.80	1320.94
881.97	1388.52
882.13	1433.58
882.30	1294.32
882.47	1310.70
882.63	1306.60
882.80	1306.60
882.96	1327.08
883.13	1400.81
883.29	1335.28
883.46	1390.57
883.62	1476.59
883.79	1409.00
883.95	1329.13
884.12	1445.87
884.29	1378.28
884.45	1337.32
884.62	1439.72
884.78	1384.43
884.95	1423.34
885.11	1318.89
885.28	1374.19
885.44	1290.22
885.61	1353.71
885.77	1388.52
885.94	1335.28
886.10	1380.33
886.27	1314.80
886.43	1361.90
886.60	1359.85
886.76	1325.04
886.93	1388.52
887.09	1392.62
887.26	1376.24
887.42	1429.48
887.59	1417.19
887.75	1429.48
887.92	1413.10
888.08	1288.17
888.25	1366.00
888.41	1388.52
888.58	1386.47
888.74	1396.71
888.91	1341.42
>>>>>End Processed Spectral Data<<<<<
