SpectraSuite Data File
++++++++++++++++++++++++++++++++++++
Date: Tue May 03 11:24:29 CEST 2016
User: root
Dark Spectrum Present: No
Reference Spectrum Present: No
Number of Sampled Component Spectra: 1
Spectrometers: USB4C02835
Integration Time (usec): 100000 (USB4C02835)
Spectra Averaged: 1 (USB4C02835)
Boxcar Smoothing: 0 (USB4C02835)
Correct for Electrical Dark: No (USB4C02835)
Strobe/Lamp Enabled: No (USB4C02835)
Correct for Detector Non-linearity: No (USB4C02835)
Correct for Stray Light: No (USB4C02835)
Number of Pixels in Processed Spectrum: 3648
>>>>>Begin Processed Spectral Data<<<<<
177.47	1208.30
177.69	1208.30
177.91	1208.30
178.13	1212.40
178.36	1286.12
178.58	1388.52
178.80	1298.41
179.02	1359.85
179.24	1296.36
179.46	1347.56
179.68	1443.82
179.90	1376.24
180.13	1388.52
180.35	1372.14
180.57	1402.86
180.79	1368.04
181.01	1325.04
181.23	1462.25
181.45	1314.80
181.67	1378.28
181.90	1425.39
182.12	1302.51
182.34	1304.56
182.56	1392.62
182.78	1314.80
183.00	1396.71
183.22	1449.96
183.44	1282.03
183.66	1468.39
183.89	1413.10
184.11	1333.23
184.33	1413.10
184.55	1396.71
184.77	1392.62
184.99	1394.67
185.21	1349.61
185.43	1437.67
185.65	1378.28
185.87	1288.17
186.10	1480.68
186.32	1435.63
186.54	1402.86
186.76	1380.33
186.98	1376.24
187.20	1402.86
187.42	1443.82
187.64	1325.04
187.86	1292.27
188.08	1425.39
188.30	1322.99
188.52	1361.90
188.75	1413.10
188.97	1419.24
189.19	1409.00
189.41	1370.09
189.63	1382.38
189.85	1376.24
190.07	1327.08
190.29	1288.17
190.51	1370.09
190.73	1374.19
190.95	1406.95
191.17	1423.34
191.39	1335.28
191.61	1343.47
191.84	1361.90
192.06	1357.80
192.28	1337.32
192.50	1525.74
192.72	1437.67
192.94	1269.74
193.16	1376.24
193.38	1368.04
193.60	1318.89
193.82	1380.33
194.04	1423.34
194.26	1341.42
194.48	1431.53
194.70	1400.81
194.92	1234.93
195.14	1343.47
195.36	1341.42
195.58	1308.65
195.80	1310.70
196.02	1388.52
196.24	1329.13
196.46	1355.76
196.69	1341.42
196.91	1466.35
197.13	1415.15
197.35	1316.84
197.57	1406.95
197.79	1458.15
198.01	1439.72
198.23	1419.24
198.45	1402.86
198.67	1255.40
198.89	1322.99
199.11	1363.95
199.33	1265.64
199.55	1314.80
199.77	1310.70
199.99	1409.00
200.21	1400.81
200.43	1409.00
200.65	1314.80
200.87	1357.80
201.09	1419.24
201.31	1337.32
201.53	1409.00
201.75	1378.28
201.97	1349.61
202.19	1392.62
202.41	1447.91
202.63	1429.48
202.85	1419.24
203.07	1400.81
203.29	1320.94
203.51	1320.94
203.73	1353.71
203.95	1452.01
204.17	1433.58
204.39	1429.48
204.61	1333.23
204.83	1335.28
205.05	1320.94
205.27	1435.63
205.49	1429.48
205.71	1327.08
205.93	1335.28
206.15	1376.24
206.37	1357.80
206.59	1374.19
206.81	1312.75
207.03	1335.28
207.25	1306.60
207.47	1376.24
207.69	1345.52
207.91	1417.19
208.13	1441.77
208.34	1415.15
208.56	1400.81
208.78	1363.95
209.00	1341.42
209.22	1333.23
209.44	1322.99
209.66	1335.28
209.88	1378.28
210.10	1339.37
210.32	1411.05
210.54	1466.35
210.76	1411.05
210.98	1351.66
211.20	1337.32
211.42	1355.76
211.64	1409.00
211.86	1394.67
212.08	1462.25
212.30	1376.24
212.52	1343.47
212.74	1409.00
212.96	1406.95
213.17	1335.28
213.39	1427.43
213.61	1355.76
213.83	1429.48
214.05	1318.89
214.27	1402.86
214.49	1279.98
214.71	1366.00
214.93	1445.87
215.15	1314.80
215.37	1452.01
215.59	1302.51
215.81	1427.43
216.03	1329.13
216.24	1329.13
216.46	1325.04
216.68	1380.33
216.90	1429.48
217.12	1370.09
217.34	1355.76
217.56	1425.39
217.78	1443.82
218.00	1382.38
218.22	1366.00
218.44	1402.86
218.66	1384.43
218.87	1359.85
219.09	1361.90
219.31	1478.63
219.53	1411.05
219.75	1325.04
219.97	1386.47
220.19	1314.80
220.41	1331.18
220.63	1413.10
220.85	1376.24
221.06	1415.15
221.28	1380.33
221.50	1372.14
221.72	1392.62
221.94	1372.14
222.16	1327.08
222.38	1374.19
222.60	1429.48
222.82	1349.61
223.03	1476.59
223.25	1343.47
223.47	1456.11
223.69	1445.87
223.91	1421.29
224.13	1413.10
224.35	1370.09
224.57	1468.39
224.78	1312.75
225.00	1386.47
225.22	1335.28
225.44	1411.05
225.66	1404.91
225.88	1361.90
226.10	1458.15
226.32	1419.24
226.53	1409.00
226.75	1359.85
226.97	1359.85
227.19	1343.47
227.41	1406.95
227.63	1327.08
227.85	1310.70
228.06	1423.34
228.28	1331.18
228.50	1406.95
228.72	1312.75
228.94	1312.75
229.16	1320.94
229.37	1337.32
229.59	1398.76
229.81	1382.38
230.03	1282.03
230.25	1376.24
230.47	1241.07
230.69	1286.12
230.90	1347.56
231.12	1335.28
231.34	1396.71
231.56	1394.67
231.78	1380.33
232.00	1335.28
232.21	1372.14
232.43	1300.46
232.65	1298.41
232.87	1394.67
233.09	1337.32
233.30	1345.52
233.52	1335.28
233.74	1429.48
233.96	1357.80
234.18	1353.71
234.40	1343.47
234.61	1441.77
234.83	1277.93
235.05	1345.52
235.27	1478.63
235.49	1417.19
235.70	1322.99
235.92	1402.86
236.14	1419.24
236.36	1427.43
236.58	1331.18
236.79	1363.95
237.01	1386.47
237.23	1363.95
237.45	1427.43
237.67	1372.14
237.88	1310.70
238.10	1470.44
238.32	1341.42
238.54	1421.29
238.76	1349.61
238.97	1335.28
239.19	1400.81
239.41	1294.32
239.63	1398.76
239.85	1327.08
240.06	1429.48
240.28	1337.32
240.50	1394.67
240.72	1347.56
240.93	1396.71
241.15	1406.95
241.37	1284.08
241.59	1370.09
241.81	1322.99
242.02	1376.24
242.24	1404.91
242.46	1353.71
242.68	1349.61
242.89	1404.91
243.11	1394.67
243.33	1384.43
243.55	1425.39
243.76	1347.56
243.98	1327.08
244.20	1357.80
244.42	1390.57
244.64	1445.87
244.85	1343.47
245.07	1370.09
245.29	1374.19
245.51	1318.89
245.72	1396.71
245.94	1378.28
246.16	1402.86
246.38	1378.28
246.59	1361.90
246.81	1314.80
247.03	1355.76
247.24	1331.18
247.46	1392.62
247.68	1376.24
247.90	1392.62
248.11	1355.76
248.33	1386.47
248.55	1404.91
248.77	1427.43
248.98	1415.15
249.20	1388.52
249.42	1312.75
249.64	1413.10
249.85	1339.37
250.07	1404.91
250.29	1411.05
250.50	1343.47
250.72	1282.03
250.94	1400.81
251.16	1402.86
251.37	1366.00
251.59	1406.95
251.81	1454.06
252.02	1452.01
252.24	1390.57
252.46	1316.84
252.68	1331.18
252.89	1439.72
253.11	1337.32
253.33	1411.05
253.54	1398.76
253.76	1314.80
253.98	1351.66
254.20	1337.32
254.41	1347.56
254.63	1382.38
254.85	1314.80
255.06	1349.61
255.28	1331.18
255.50	1396.71
255.71	1275.88
255.93	1312.75
256.15	1370.09
256.36	1411.05
256.58	1363.95
256.80	1468.39
257.02	1378.28
257.23	1419.24
257.45	1306.60
257.67	1347.56
257.88	1257.45
258.10	1396.71
258.32	1396.71
258.53	1359.85
258.75	1460.20
258.97	1347.56
259.18	1382.38
259.40	1443.82
259.62	1439.72
259.83	1447.91
260.05	1398.76
260.27	1535.98
260.48	1267.69
260.70	1345.52
260.92	1384.43
261.13	1376.24
261.35	1415.15
261.57	1382.38
261.78	1308.65
262.00	1357.80
262.22	1368.04
262.43	1357.80
262.65	1415.15
262.86	1355.76
263.08	1490.92
263.30	1396.71
263.51	1337.32
263.73	1282.03
263.95	1439.72
264.16	1320.94
264.38	1296.36
264.60	1374.19
264.81	1355.76
265.03	1400.81
265.25	1331.18
265.46	1345.52
265.68	1480.68
265.89	1327.08
266.11	1359.85
266.33	1429.48
266.54	1415.15
266.76	1413.10
266.98	1388.52
267.19	1374.19
267.41	1388.52
267.62	1433.58
267.84	1357.80
268.06	1474.54
268.27	1363.95
268.49	1433.58
268.70	1396.71
268.92	1361.90
269.14	1388.52
269.35	1316.84
269.57	1406.95
269.79	1402.86
270.00	1314.80
270.22	1396.71
270.43	1409.00
270.65	1359.85
270.87	1363.95
271.08	1372.14
271.30	1327.08
271.51	1382.38
271.73	1386.47
271.95	1357.80
272.16	1433.58
272.38	1335.28
272.59	1349.61
272.81	1394.67
273.02	1466.35
273.24	1396.71
273.46	1396.71
273.67	1339.37
273.89	1359.85
274.10	1353.71
274.32	1480.68
274.54	1345.52
274.75	1361.90
274.97	1337.32
275.18	1347.56
275.40	1396.71
275.61	1402.86
275.83	1337.32
276.05	1320.94
276.26	1304.56
276.48	1402.86
276.69	1343.47
276.91	1355.76
277.12	1423.34
277.34	1390.57
277.55	1398.76
277.77	1454.06
277.99	1386.47
278.20	1343.47
278.42	1325.04
278.63	1316.84
278.85	1357.80
279.06	1316.84
279.28	1470.44
279.49	1406.95
279.71	1435.63
279.93	1372.14
280.14	1394.67
280.36	1357.80
280.57	1394.67
280.79	1284.08
281.00	1232.88
281.22	1343.47
281.43	1402.86
281.65	1359.85
281.86	1314.80
282.08	1409.00
282.29	1392.62
282.51	1363.95
282.73	1361.90
282.94	1392.62
283.16	1390.57
283.37	1476.59
283.59	1345.52
283.80	1402.86
284.02	1376.24
284.23	1349.61
284.45	1372.14
284.66	1327.08
284.88	1382.38
285.09	1490.92
285.31	1404.91
285.52	1300.46
285.74	1265.64
285.95	1429.48
286.17	1316.84
286.38	1427.43
286.60	1411.05
286.81	1347.56
287.03	1398.76
287.24	1333.23
287.46	1361.90
287.67	1339.37
287.89	1472.49
288.10	1333.23
288.32	1396.71
288.53	1445.87
288.75	1374.19
288.96	1402.86
289.18	1320.94
289.39	1343.47
289.61	1384.43
289.82	1478.63
290.04	1423.34
290.25	1339.37
290.47	1409.00
290.68	1312.75
290.90	1415.15
291.11	1298.41
291.33	1329.13
291.54	1388.52
291.76	1294.32
291.97	1345.52
292.18	1417.19
292.40	1380.33
292.61	1230.83
292.83	1462.25
293.04	1384.43
293.26	1368.04
293.47	1394.67
293.69	1310.70
293.90	1331.18
294.12	1394.67
294.33	1398.76
294.55	1376.24
294.76	1376.24
294.97	1396.71
295.19	1488.87
295.40	1347.56
295.62	1402.86
295.83	1335.28
296.05	1349.61
296.26	1476.59
296.48	1349.61
296.69	1433.58
296.90	1366.00
297.12	1409.00
297.33	1419.24
297.55	1439.72
297.76	1335.28
297.98	1449.96
298.19	1400.81
298.41	1341.42
298.62	1368.04
298.83	1423.34
299.05	1298.41
299.26	1384.43
299.48	1372.14
299.69	1361.90
299.90	1398.76
300.12	1320.94
300.33	1394.67
300.55	1386.47
300.76	1404.91
300.98	1316.84
301.19	1322.99
301.40	1355.76
301.62	1314.80
301.83	1402.86
302.05	1386.47
302.26	1409.00
302.47	1386.47
302.69	1406.95
302.90	1449.96
303.12	1290.22
303.33	1384.43
303.54	1384.43
303.76	1357.80
303.97	1341.42
304.19	1413.10
304.40	1390.57
304.61	1404.91
304.83	1368.04
305.04	1411.05
305.26	1388.52
305.47	1347.56
305.68	1411.05
305.90	1316.84
306.11	1327.08
306.33	1339.37
306.54	1333.23
306.75	1400.81
306.97	1306.60
307.18	1296.36
307.39	1316.84
307.61	1353.71
307.82	1269.74
308.04	1370.09
308.25	1411.05
308.46	1351.66
308.68	1413.10
308.89	1372.14
309.10	1480.68
309.32	1417.19
309.53	1370.09
309.74	1308.65
309.96	1384.43
310.17	1417.19
310.39	1337.32
310.60	1353.71
310.81	1388.52
311.03	1308.65
311.24	1394.67
311.45	1310.70
311.67	1394.67
311.88	1372.14
312.09	1419.24
312.31	1370.09
312.52	1417.19
312.73	1333.23
312.95	1366.00
313.16	1443.82
313.37	1388.52
313.59	1402.86
313.80	1421.29
314.01	1357.80
314.23	1304.56
314.44	1345.52
314.65	1347.56
314.87	1302.51
315.08	1337.32
315.29	1390.57
315.51	1392.62
315.72	1331.18
315.93	1456.11
316.15	1392.62
316.36	1339.37
316.57	1320.94
316.79	1400.81
317.00	1345.52
317.21	1402.86
317.43	1327.08
317.64	1462.25
317.85	1341.42
318.07	1449.96
318.28	1392.62
318.49	1605.61
318.70	1673.19
318.92	1548.26
319.13	1495.02
319.34	1673.19
319.56	1454.06
319.77	1509.35
319.98	1497.07
320.20	1484.78
320.41	1474.54
320.62	1486.83
320.83	1386.47
321.05	1406.95
321.26	1486.83
321.47	1357.80
321.69	1345.52
321.90	1400.81
322.11	1355.76
322.32	1388.52
322.54	1372.14
322.75	1329.13
322.96	1421.29
323.18	1325.04
323.39	1345.52
323.60	1351.66
323.81	1363.95
324.03	1349.61
324.24	1380.33
324.45	1394.67
324.66	1421.29
324.88	1398.76
325.09	1454.06
325.30	1318.89
325.52	1382.38
325.73	1318.89
325.94	1308.65
326.15	1312.75
326.37	1417.19
326.58	1370.09
326.79	1402.86
327.00	1331.18
327.22	1378.28
327.43	1363.95
327.64	1263.60
327.85	1355.76
328.07	1331.18
328.28	1394.67
328.49	1343.47
328.70	1366.00
328.92	1413.10
329.13	1347.56
329.34	1363.95
329.55	1445.87
329.76	1425.39
329.98	1343.47
330.19	1447.91
330.40	1359.85
330.61	1363.95
330.83	1499.11
331.04	1331.18
331.25	1396.71
331.46	1394.67
331.68	1239.02
331.89	1411.05
332.10	1400.81
332.31	1288.17
332.52	1380.33
332.74	1447.91
332.95	1263.60
333.16	1372.14
333.37	1378.28
333.58	1355.76
333.80	1425.39
334.01	1337.32
334.22	1398.76
334.43	1376.24
334.64	1366.00
334.86	1333.23
335.07	1327.08
335.28	1437.67
335.49	1392.62
335.70	1406.95
335.92	1413.10
336.13	1443.82
336.34	1368.04
336.55	1437.67
336.76	1347.56
336.98	1255.40
337.19	1409.00
337.40	1447.91
337.61	1468.39
337.82	1337.32
338.04	1431.53
338.25	1372.14
338.46	1384.43
338.67	1382.38
338.88	1363.95
339.09	1341.42
339.31	1423.34
339.52	1402.86
339.73	1380.33
339.94	1339.37
340.15	1394.67
340.36	1327.08
340.58	1337.32
340.79	1380.33
341.00	1427.43
341.21	1304.56
341.42	1390.57
341.63	1372.14
341.85	1433.58
342.06	1343.47
342.27	1298.41
342.48	1339.37
342.69	1363.95
342.90	1419.24
343.12	1361.90
343.33	1302.51
343.54	1398.76
343.75	1384.43
343.96	1316.84
344.17	1308.65
344.38	1331.18
344.60	1382.38
344.81	1374.19
345.02	1427.43
345.23	1320.94
345.44	1359.85
345.65	1380.33
345.86	1411.05
346.07	1468.39
346.29	1370.09
346.50	1380.33
346.71	1402.86
346.92	1394.67
347.13	1464.30
347.34	1431.53
347.55	1398.76
347.76	1400.81
347.98	1304.56
348.19	1376.24
348.40	1394.67
348.61	1363.95
348.82	1390.57
349.03	1351.66
349.24	1322.99
349.45	1409.00
349.66	1277.93
349.88	1304.56
350.09	1421.29
350.30	1347.56
350.51	1423.34
350.72	1359.85
350.93	1411.05
351.14	1361.90
351.35	1425.39
351.56	1380.33
351.77	1335.28
351.99	1425.39
352.20	1470.44
352.41	1392.62
352.62	1263.60
352.83	1357.80
353.04	1353.71
353.25	1353.71
353.46	1437.67
353.67	1427.43
353.88	1335.28
354.09	1351.66
354.30	1349.61
354.52	1435.63
354.73	1372.14
354.94	1390.57
355.15	1368.04
355.36	1415.15
355.57	1341.42
355.78	1398.76
355.99	1386.47
356.20	1312.75
356.41	1423.34
356.62	1464.30
356.83	1355.76
357.04	1327.08
357.25	1308.65
357.46	1331.18
357.68	1347.56
357.89	1380.33
358.10	1310.70
358.31	1314.80
358.52	1400.81
358.73	1339.37
358.94	1308.65
359.15	1351.66
359.36	1339.37
359.57	1331.18
359.78	1363.95
359.99	1359.85
360.20	1372.14
360.41	1376.24
360.62	1363.95
360.83	1425.39
361.04	1374.19
361.25	1464.30
361.46	1466.35
361.67	1400.81
361.88	1396.71
362.09	1406.95
362.30	1411.05
362.51	1339.37
362.72	1458.15
362.93	1359.85
363.14	1398.76
363.35	1474.54
363.56	1345.52
363.78	1394.67
363.99	1454.06
364.20	1363.95
364.41	1392.62
364.62	1433.58
364.83	1347.56
365.04	1300.46
365.25	1361.90
365.46	1460.20
365.67	1329.13
365.88	1456.11
366.09	1376.24
366.30	1318.89
366.51	1345.52
366.72	1331.18
366.93	1341.42
367.14	1380.33
367.35	1404.91
367.56	1382.38
367.77	1327.08
367.98	1345.52
368.18	1396.71
368.39	1314.80
368.60	1273.84
368.81	1322.99
369.02	1370.09
369.23	1341.42
369.44	1331.18
369.65	1335.28
369.86	1409.00
370.07	1429.48
370.28	1445.87
370.49	1353.71
370.70	1376.24
370.91	1378.28
371.12	1345.52
371.33	1419.24
371.54	1314.80
371.75	1435.63
371.96	1308.65
372.17	1435.63
372.38	1343.47
372.59	1417.19
372.80	1388.52
373.01	1318.89
373.22	1406.95
373.43	1349.61
373.64	1404.91
373.85	1433.58
374.06	1437.67
374.26	1363.95
374.47	1409.00
374.68	1349.61
374.89	1333.23
375.10	1370.09
375.31	1454.06
375.52	1357.80
375.73	1363.95
375.94	1413.10
376.15	1433.58
376.36	1333.23
376.57	1318.89
376.78	1464.30
376.99	1409.00
377.20	1355.76
377.40	1343.47
377.61	1413.10
377.82	1337.32
378.03	1439.72
378.24	1402.86
378.45	1329.13
378.66	1470.44
378.87	1282.03
379.08	1409.00
379.29	1427.43
379.50	1409.00
379.71	1396.71
379.91	1345.52
380.12	1437.67
380.33	1347.56
380.54	1443.82
380.75	1380.33
380.96	1378.28
381.17	1437.67
381.38	1486.83
381.59	1460.20
381.80	1460.20
382.00	1576.94
382.21	1497.07
382.42	1445.87
382.63	1476.59
382.84	1433.58
383.05	1396.71
383.26	1492.97
383.47	1331.18
383.68	1386.47
383.88	1429.48
384.09	1384.43
384.30	1458.15
384.51	1380.33
384.72	1349.61
384.93	1347.56
385.14	1335.28
385.35	1435.63
385.55	1339.37
385.76	1413.10
385.97	1415.15
386.18	1419.24
386.39	1306.60
386.60	1417.19
386.81	1386.47
387.02	1327.08
387.22	1347.56
387.43	1439.72
387.64	1568.74
387.85	2349.02
388.06	5679.02
388.27	9424.75
388.48	11388.75
388.68	13070.14
388.89	13231.93
389.10	10588.00
389.31	9154.42
389.52	8281.99
389.73	7440.27
389.93	6989.72
390.14	6541.21
390.35	5992.36
390.56	5517.23
390.77	4628.41
390.98	3647.43
391.18	2811.86
391.39	2224.09
391.60	1650.66
391.81	1574.89
392.02	1351.66
392.23	1527.78
392.43	1394.67
392.64	1488.87
392.85	1331.18
393.06	1417.19
393.27	1404.91
393.47	1404.91
393.68	1382.38
393.89	1310.70
394.10	1433.58
394.31	1343.47
394.52	1304.56
394.72	1312.75
394.93	1417.19
395.14	1265.64
395.35	1353.71
395.56	1402.86
395.76	1484.78
395.97	1583.08
396.18	1632.23
396.39	1589.22
396.60	1699.81
396.80	1527.78
397.01	1505.26
397.22	1411.05
397.43	1439.72
397.64	1374.19
397.84	1484.78
398.05	1566.70
398.26	1404.91
398.47	1433.58
398.67	1454.06
398.88	1441.77
399.09	1361.90
399.30	1339.37
399.51	1343.47
399.71	1277.93
399.92	1320.94
400.13	1384.43
400.34	1394.67
400.54	1318.89
400.75	1409.00
400.96	1402.86
401.17	1437.67
401.37	1411.05
401.58	1409.00
401.79	1535.98
402.00	1642.47
402.21	1818.60
402.41	1787.88
402.62	1763.30
402.83	1775.59
403.04	1613.80
403.24	1675.24
403.45	1599.46
403.66	1531.88
403.87	1570.79
404.07	1570.79
404.28	1574.89
404.49	1517.54
404.70	1425.39
404.90	1452.01
405.11	1413.10
405.32	1425.39
405.52	1447.91
405.73	1384.43
405.94	1329.13
406.15	1355.76
406.35	1427.43
406.56	1421.29
406.77	1382.38
406.98	1404.91
407.18	1335.28
407.39	1417.19
407.60	1402.86
407.80	1355.76
408.01	1347.56
408.22	1341.42
408.43	1398.76
408.63	1402.86
408.84	1394.67
409.05	1392.62
409.25	1302.51
409.46	1300.46
409.67	1253.36
409.88	1359.85
410.08	1357.80
410.29	1318.89
410.50	1376.24
410.70	1406.95
410.91	1308.65
411.12	1454.06
411.32	1363.95
411.53	1421.29
411.74	1507.30
411.95	1476.59
412.15	1486.83
412.36	1429.48
412.57	1503.21
412.77	1431.53
412.98	1409.00
413.19	1411.05
413.39	1458.15
413.60	1445.87
413.81	1458.15
414.01	1368.04
414.22	1363.95
414.43	1452.01
414.63	1337.32
414.84	1388.52
415.05	1347.56
415.25	1306.60
415.46	1429.48
415.67	1355.76
415.87	1376.24
416.08	1374.19
416.29	1277.93
416.49	1409.00
416.70	1345.52
416.91	1314.80
417.11	1310.70
417.32	1294.32
417.53	1447.91
417.73	1325.04
417.94	1384.43
418.15	1345.52
418.35	1378.28
418.56	1441.77
418.77	1404.91
418.97	1388.52
419.18	1382.38
419.38	1304.56
419.59	1404.91
419.80	1425.39
420.00	1325.04
420.21	1390.57
420.42	1386.47
420.62	1347.56
420.83	1279.98
421.04	1400.81
421.24	1333.23
421.45	1425.39
421.65	1472.49
421.86	1333.23
422.07	1472.49
422.27	1392.62
422.48	1441.77
422.69	1351.66
422.89	1241.07
423.10	1345.52
423.30	1345.52
423.51	1366.00
423.72	1310.70
423.92	1435.63
424.13	1296.36
424.33	1409.00
424.54	1372.14
424.75	1435.63
424.95	1447.91
425.16	1384.43
425.36	1351.66
425.57	1484.78
425.78	1378.28
425.98	1308.65
426.19	1402.86
426.39	1359.85
426.60	1400.81
426.81	1380.33
427.01	1320.94
427.22	1306.60
427.42	1300.46
427.63	1322.99
427.83	1343.47
428.04	1452.01
428.25	1351.66
428.45	1429.48
428.66	1409.00
428.86	1400.81
429.07	1271.79
429.28	1382.38
429.48	1288.17
429.69	1363.95
429.89	1382.38
430.10	1314.80
430.30	1421.29
430.51	1454.06
430.71	1396.71
430.92	1347.56
431.13	1333.23
431.33	1312.75
431.54	1392.62
431.74	1415.15
431.95	1357.80
432.15	1370.09
432.36	1406.95
432.56	1394.67
432.77	1400.81
432.98	1419.24
433.18	1380.33
433.39	1419.24
433.59	1409.00
433.80	1411.05
434.00	1406.95
434.21	1431.53
434.41	1378.28
434.62	1470.44
434.82	1327.08
435.03	1247.21
435.23	1398.76
435.44	1316.84
435.64	1400.81
435.85	1349.61
436.06	1378.28
436.26	1427.43
436.47	1402.86
436.67	1384.43
436.88	1415.15
437.08	1376.24
437.29	1429.48
437.49	1423.34
437.70	1386.47
437.90	1372.14
438.11	1492.97
438.31	1509.35
438.52	1511.40
438.72	1523.69
438.93	1560.55
439.13	1384.43
439.34	1476.59
439.54	1366.00
439.75	1533.93
439.95	1499.11
440.16	1390.57
440.36	1394.67
440.57	1447.91
440.77	1431.53
440.98	1454.06
441.18	1470.44
441.39	1353.71
441.59	1302.51
441.80	1492.97
442.00	1394.67
442.21	1447.91
442.41	1363.95
442.62	1400.81
442.82	1363.95
443.02	1394.67
443.23	1388.52
443.43	1413.10
443.64	1490.92
443.84	1300.46
444.05	1409.00
444.25	1462.25
444.46	1349.61
444.66	1366.00
444.87	1466.35
445.07	1363.95
445.28	1417.19
445.48	1472.49
445.69	1503.21
445.89	1441.77
446.09	1558.50
446.30	2209.76
446.50	3655.62
446.71	4659.13
446.91	5347.25
447.12	5578.67
447.32	4980.66
447.53	4108.23
447.73	3815.37
447.93	3432.40
448.14	3190.74
448.34	3012.56
448.55	2926.55
448.75	2781.14
448.96	2723.80
449.16	2398.17
449.36	2215.90
449.57	1847.27
449.77	1740.77
449.98	1611.75
450.18	1535.98
450.39	1462.25
450.59	1447.91
450.79	1368.04
451.00	1361.90
451.20	1382.38
451.41	1433.58
451.61	1384.43
451.81	1378.28
452.02	1337.32
452.22	1351.66
452.43	1355.76
452.63	1361.90
452.84	1310.70
453.04	1392.62
453.24	1357.80
453.45	1394.67
453.65	1282.03
453.86	1443.82
454.06	1316.84
454.26	1363.95
454.47	1388.52
454.67	1456.11
454.87	1380.33
455.08	1351.66
455.28	1439.72
455.49	1361.90
455.69	1259.50
455.89	1517.54
456.10	1431.53
456.30	1388.52
456.51	1419.24
456.71	1343.47
456.91	1394.67
457.12	1370.09
457.32	1378.28
457.52	1331.18
457.73	1411.05
457.93	1427.43
458.14	1413.10
458.34	1355.76
458.54	1310.70
458.75	1368.04
458.95	1452.01
459.15	1386.47
459.36	1394.67
459.56	1417.19
459.76	1490.92
459.97	1370.09
460.17	1341.42
460.37	1404.91
460.58	1359.85
460.78	1382.38
460.99	1329.13
461.19	1396.71
461.39	1343.47
461.60	1298.41
461.80	1470.44
462.00	1353.71
462.21	1366.00
462.41	1318.89
462.61	1382.38
462.82	1366.00
463.02	1374.19
463.22	1361.90
463.43	1404.91
463.63	1392.62
463.83	1394.67
464.04	1415.15
464.24	1355.76
464.44	1386.47
464.64	1398.76
464.85	1382.38
465.05	1335.28
465.25	1353.71
465.46	1366.00
465.66	1449.96
465.86	1417.19
466.07	1372.14
466.27	1421.29
466.47	1388.52
466.68	1339.37
466.88	1392.62
467.08	1390.57
467.29	1441.77
467.49	1417.19
467.69	1361.90
467.89	1409.00
468.10	1400.81
468.30	1349.61
468.50	1419.24
468.71	1372.14
468.91	1310.70
469.11	1419.24
469.31	1341.42
469.52	1318.89
469.72	1425.39
469.92	1374.19
470.13	1404.91
470.33	1472.49
470.53	1695.72
470.73	2082.78
470.94	2244.57
471.14	2289.63
471.34	2338.78
471.54	2181.09
471.75	2045.92
471.95	1910.75
472.15	1800.16
472.36	1841.12
472.56	1798.12
472.76	1726.44
472.96	1734.63
473.17	1687.53
473.37	1636.33
473.57	1503.21
473.77	1509.35
473.98	1474.54
474.18	1378.28
474.38	1531.88
474.58	1361.90
474.79	1331.18
474.99	1357.80
475.19	1368.04
475.39	1290.22
475.60	1441.77
475.80	1390.57
476.00	1398.76
476.20	1392.62
476.41	1400.81
476.61	1429.48
476.81	1386.47
477.01	1331.18
477.21	1437.67
477.42	1370.09
477.62	1306.60
477.82	1454.06
478.02	1400.81
478.23	1396.71
478.43	1341.42
478.63	1359.85
478.83	1382.38
479.03	1337.32
479.24	1392.62
479.44	1441.77
479.64	1290.22
479.84	1279.98
480.04	1300.46
480.25	1429.48
480.45	1312.75
480.65	1269.74
480.85	1400.81
481.06	1376.24
481.26	1394.67
481.46	1378.28
481.66	1402.86
481.86	1325.04
482.06	1380.33
482.27	1331.18
482.47	1411.05
482.67	1341.42
482.87	1402.86
483.07	1419.24
483.28	1234.93
483.48	1331.18
483.68	1333.23
483.88	1325.04
484.08	1257.45
484.29	1333.23
484.49	1318.89
484.69	1376.24
484.89	1433.58
485.09	1390.57
485.29	1445.87
485.50	1437.67
485.70	1388.52
485.90	1361.90
486.10	1382.38
486.30	1435.63
486.50	1335.28
486.71	1363.95
486.91	1441.77
487.11	1421.29
487.31	1347.56
487.51	1425.39
487.71	1411.05
487.91	1331.18
488.12	1363.95
488.32	1292.27
488.52	1331.18
488.72	1290.22
488.92	1337.32
489.12	1392.62
489.32	1443.82
489.53	1423.34
489.73	1314.80
489.93	1413.10
490.13	1322.99
490.33	1390.57
490.53	1363.95
490.73	1462.25
490.94	1322.99
491.14	1413.10
491.34	1599.46
491.54	2185.18
491.74	2635.74
491.94	2938.84
492.14	3055.57
492.34	3012.56
492.54	2562.01
492.75	2291.68
492.95	2260.96
493.15	2017.25
493.35	2025.44
493.55	1910.75
493.75	1880.04
493.95	1869.80
494.15	1796.07
494.35	1689.57
494.56	1568.74
494.76	1552.36
494.96	1466.35
495.16	1550.31
495.36	1370.09
495.56	1392.62
495.76	1316.84
495.96	1435.63
496.16	1312.75
496.36	1372.14
496.56	1349.61
496.77	1320.94
496.97	1433.58
497.17	1443.82
497.37	1275.88
497.57	1353.71
497.77	1368.04
497.97	1386.47
498.17	1331.18
498.37	1345.52
498.57	1433.58
498.77	1347.56
498.97	1427.43
499.17	1404.91
499.38	1298.41
499.58	1402.86
499.78	1361.90
499.98	1449.96
500.18	1374.19
500.38	1423.34
500.58	1734.63
500.78	2879.44
500.98	5580.71
501.18	6928.28
501.38	8159.11
501.58	8540.03
501.78	7268.24
501.98	5793.70
502.18	5097.39
502.38	4419.52
502.58	4030.40
502.78	3727.30
502.98	3641.29
503.18	3557.32
503.38	3332.05
503.59	2916.31
503.79	2916.31
503.99	2564.06
504.19	2303.96
504.39	2054.11
504.59	2086.88
504.79	1945.57
504.99	1755.11
505.19	1574.89
505.39	1581.03
505.59	1617.90
505.79	1578.98
505.99	1482.73
506.19	1513.45
506.39	1517.54
506.59	1445.87
506.79	1435.63
506.99	1488.87
507.19	1474.54
507.39	1497.07
507.59	1423.34
507.79	1366.00
507.99	1363.95
508.19	1359.85
508.39	1368.04
508.59	1343.47
508.79	1372.14
508.99	1409.00
509.19	1394.67
509.39	1376.24
509.59	1355.76
509.79	1384.43
509.99	1421.29
510.19	1312.75
510.39	1415.15
510.59	1325.04
510.79	1282.03
510.99	1304.56
511.19	1409.00
511.39	1411.05
511.59	1435.63
511.79	1441.77
511.99	1435.63
512.19	1388.52
512.38	1445.87
512.58	1404.91
512.78	1433.58
512.98	1402.86
513.18	1433.58
513.38	1351.66
513.58	1378.28
513.78	1322.99
513.98	1398.76
514.18	1388.52
514.38	1380.33
514.58	1374.19
514.78	1318.89
514.98	1374.19
515.18	1386.47
515.38	1284.08
515.58	1499.11
515.78	1320.94
515.98	1390.57
516.18	1439.72
516.38	1449.96
516.57	1343.47
516.77	1386.47
516.97	1460.20
517.17	1329.13
517.37	1339.37
517.57	1370.09
517.77	1413.10
517.97	1325.04
518.17	1441.77
518.37	1361.90
518.57	1357.80
518.77	1322.99
518.97	1382.38
519.16	1435.63
519.36	1409.00
519.56	1382.38
519.76	1390.57
519.96	1368.04
520.16	1429.48
520.36	1259.50
520.56	1419.24
520.76	1363.95
520.96	1351.66
521.16	1415.15
521.35	1462.25
521.55	1458.15
521.75	1347.56
521.95	1320.94
522.15	1322.99
522.35	1427.43
522.55	1382.38
522.75	1380.33
522.95	1404.91
523.14	1284.08
523.34	1380.33
523.54	1427.43
523.74	1382.38
523.94	1392.62
524.14	1359.85
524.34	1415.15
524.54	1331.18
524.73	1325.04
524.93	1394.67
525.13	1349.61
525.33	1396.71
525.53	1470.44
525.73	1269.74
525.93	1425.39
526.13	1335.28
526.32	1419.24
526.52	1458.15
526.72	1400.81
526.92	1460.20
527.12	1329.13
527.32	1355.76
527.52	1376.24
527.71	1325.04
527.91	1411.05
528.11	1402.86
528.31	1423.34
528.51	1288.17
528.71	1361.90
528.90	1415.15
529.10	1413.10
529.30	1359.85
529.50	1294.32
529.70	1372.14
529.90	1376.24
530.09	1396.71
530.29	1429.48
530.49	1349.61
530.69	1550.31
530.89	1406.95
531.09	1361.90
531.28	1368.04
531.48	1445.87
531.68	1366.00
531.88	1368.04
532.08	1394.67
532.28	1329.13
532.47	1443.82
532.67	1470.44
532.87	1421.29
533.07	1378.28
533.27	1507.30
533.46	1501.16
533.66	1382.38
533.86	1363.95
534.06	1398.76
534.26	1398.76
534.45	1370.09
534.65	1482.73
534.85	1396.71
535.05	1386.47
535.25	1394.67
535.44	1282.03
535.64	1394.67
535.84	1421.29
536.04	1388.52
536.24	1312.75
536.43	1409.00
536.63	1406.95
536.83	1421.29
537.03	1382.38
537.22	1355.76
537.42	1370.09
537.62	1341.42
537.82	1423.34
538.02	1482.73
538.21	1470.44
538.41	1468.39
538.61	1370.09
538.81	1345.52
539.00	1421.29
539.20	1335.28
539.40	1361.90
539.60	1394.67
539.79	1404.91
539.99	1329.13
540.19	1370.09
540.39	1427.43
540.58	1363.95
540.78	1394.67
540.98	1368.04
541.18	1384.43
541.37	1380.33
541.57	1304.56
541.77	1345.52
541.97	1349.61
542.16	1378.28
542.36	1413.10
542.56	1429.48
542.76	1370.09
542.95	1478.63
543.15	1351.66
543.35	1435.63
543.54	1314.80
543.74	1345.52
543.94	1370.09
544.14	1384.43
544.33	1449.96
544.53	1390.57
544.73	1357.80
544.93	1452.01
545.12	1388.52
545.32	1310.70
545.52	1425.39
545.71	1320.94
545.91	1355.76
546.11	1374.19
546.30	1314.80
546.50	1415.15
546.70	1353.71
546.90	1376.24
547.09	1327.08
547.29	1419.24
547.49	1380.33
547.68	1433.58
547.88	1314.80
548.08	1398.76
548.27	1691.62
548.47	1390.57
548.67	1275.88
548.87	1396.71
549.06	1376.24
549.26	1402.86
549.46	1335.28
549.65	1353.71
549.85	1400.81
550.05	1441.77
550.24	1359.85
550.44	1339.37
550.64	1392.62
550.83	1409.00
551.03	1409.00
551.23	1331.18
551.42	1456.11
551.62	1380.33
551.82	1378.28
552.01	1386.47
552.21	1470.44
552.41	1415.15
552.60	1445.87
552.80	1454.06
553.00	1335.28
553.19	1423.34
553.39	1445.87
553.59	1366.00
553.78	1366.00
553.98	1390.57
554.17	1355.76
554.37	1361.90
554.57	1427.43
554.76	1314.80
554.96	1402.86
555.16	1390.57
555.35	1296.36
555.55	1476.59
555.75	1402.86
555.94	1476.59
556.14	1409.00
556.33	1386.47
556.53	1322.99
556.73	1411.05
556.92	1413.10
557.12	1390.57
557.32	1445.87
557.51	1478.63
557.71	1386.47
557.90	1443.82
558.10	1363.95
558.30	1368.04
558.49	1363.95
558.69	1376.24
558.88	1409.00
559.08	1302.51
559.28	1343.47
559.47	1370.09
559.67	1425.39
559.86	1384.43
560.06	1409.00
560.26	1384.43
560.45	1460.20
560.65	1431.53
560.84	1437.67
561.04	1361.90
561.24	1380.33
561.43	1380.33
561.63	1540.07
561.82	1484.78
562.02	1296.36
562.22	1370.09
562.41	1322.99
562.61	1247.21
562.80	1359.85
563.00	1488.87
563.19	1374.19
563.39	1400.81
563.59	1421.29
563.78	1349.61
563.98	1359.85
564.17	1363.95
564.37	1327.08
564.56	1404.91
564.76	1292.27
564.96	1409.00
565.15	1431.53
565.35	1470.44
565.54	1392.62
565.74	1427.43
565.93	1413.10
566.13	1423.34
566.32	1406.95
566.52	1433.58
566.71	1392.62
566.91	1427.43
567.11	1355.76
567.30	1296.36
567.50	1380.33
567.69	1355.76
567.89	1431.53
568.08	1404.91
568.28	1339.37
568.47	1331.18
568.67	1318.89
568.86	1417.19
569.06	1482.73
569.25	1310.70
569.45	1359.85
569.64	1357.80
569.84	1368.04
570.04	1447.91
570.23	1439.72
570.43	1308.65
570.62	1413.10
570.82	1404.91
571.01	1376.24
571.21	1400.81
571.40	1394.67
571.60	1454.06
571.79	1378.28
571.99	1435.63
572.18	1361.90
572.38	1409.00
572.57	1322.99
572.77	1372.14
572.96	1523.69
573.16	1359.85
573.35	1363.95
573.55	1478.63
573.74	1310.70
573.94	1370.09
574.13	1394.67
574.33	1423.34
574.52	1441.77
574.71	1382.38
574.91	1404.91
575.10	1351.66
575.30	1394.67
575.49	1277.93
575.69	1341.42
575.88	1445.87
576.08	1443.82
576.27	1544.17
576.47	1409.00
576.66	1511.40
576.86	1443.82
577.05	1472.49
577.25	1460.20
577.44	1546.22
577.64	1394.67
577.83	1535.98
578.02	1425.39
578.22	1449.96
578.41	1435.63
578.61	1468.39
578.80	1366.00
579.00	1394.67
579.19	1343.47
579.39	1443.82
579.58	1398.76
579.77	1398.76
579.97	1540.07
580.16	1449.96
580.36	1486.83
580.55	1501.16
580.75	1411.05
580.94	1423.34
581.13	1511.40
581.33	1497.07
581.52	1378.28
581.72	1449.96
581.91	1546.22
582.11	1449.96
582.30	1439.72
582.49	1445.87
582.69	1472.49
582.88	1490.92
583.08	1445.87
583.27	1419.24
583.47	1396.71
583.66	1374.19
583.85	1376.24
584.05	1359.85
584.24	1515.50
584.44	1449.96
584.63	1456.11
584.82	1464.30
585.02	1503.21
585.21	1562.60
585.41	1492.97
585.60	1548.26
585.79	1683.43
585.99	1691.62
586.18	1624.04
586.37	1798.12
586.57	2637.78
586.76	7894.92
586.96	24489.61
587.15	41088.40
587.34	51707.12
587.54	59458.68
587.73	59247.74
587.93	44696.92
588.12	32613.90
588.31	26404.46
588.51	22447.79
588.70	20059.85
588.89	18228.97
589.09	16928.51
589.28	15769.36
589.47	14161.70
589.67	12562.24
589.86	10334.05
590.06	8445.82
590.25	6582.17
590.44	4913.08
590.64	3753.93
590.83	2740.18
591.02	2205.66
591.22	1992.67
591.41	1748.97
591.60	1603.56
591.80	1701.86
591.99	1492.97
592.18	1507.30
592.38	1570.79
592.57	1476.59
592.76	1411.05
592.96	1411.05
593.15	1488.87
593.34	1480.68
593.54	1421.29
593.73	1468.39
593.92	1454.06
594.12	1486.83
594.31	1478.63
594.50	1568.74
594.70	1486.83
594.89	1478.63
595.08	1384.43
595.28	1476.59
595.47	1505.26
595.66	1501.16
595.86	1388.52
596.05	1433.58
596.24	1413.10
596.43	1454.06
596.63	1458.15
596.82	1384.43
597.01	1503.21
597.21	1478.63
597.40	1417.19
597.59	1347.56
597.79	1482.73
597.98	1366.00
598.17	1460.20
598.36	1478.63
598.56	1474.54
598.75	1439.72
598.94	1404.91
599.14	1402.86
599.33	1394.67
599.52	1404.91
599.71	1423.34
599.91	1421.29
600.10	1359.85
600.29	1380.33
600.48	1386.47
600.68	1357.80
600.87	1359.85
601.06	1400.81
601.26	1339.37
601.45	1396.71
601.64	1390.57
601.83	1396.71
602.03	1384.43
602.22	1398.76
602.41	1361.90
602.60	1501.16
602.80	1460.20
602.99	1435.63
603.18	1415.15
603.37	1423.34
603.57	1478.63
603.76	1468.39
603.95	1310.70
604.14	1312.75
604.34	1417.19
604.53	1406.95
604.72	1468.39
604.91	1413.10
605.10	1462.25
605.30	1288.17
605.49	1460.20
605.68	1400.81
605.87	1425.39
606.07	1394.67
606.26	1339.37
606.45	1361.90
606.64	1460.20
606.84	1294.32
607.03	1349.61
607.22	1400.81
607.41	1404.91
607.60	1345.52
607.80	1480.68
607.99	1374.19
608.18	1411.05
608.37	1343.47
608.56	1402.86
608.76	1435.63
608.95	1445.87
609.14	1454.06
609.33	1474.54
609.52	1490.92
609.72	1527.78
609.91	1501.16
610.10	1454.06
610.29	1509.35
610.48	1347.56
610.68	1376.24
610.87	1376.24
611.06	1427.43
611.25	1380.33
611.44	1466.35
611.63	1368.04
611.83	1359.85
612.02	1349.61
612.21	1431.53
612.40	1296.36
612.59	1394.67
612.79	1366.00
612.98	1396.71
613.17	1402.86
613.36	1368.04
613.55	1439.72
613.74	1519.59
613.93	1546.22
614.13	1521.64
614.32	1703.91
614.51	1687.53
614.70	1468.39
614.89	1462.25
615.08	1466.35
615.28	1755.11
615.47	1421.29
615.66	1490.92
615.85	1427.43
616.04	1548.26
616.23	1454.06
616.42	1576.94
616.62	1445.87
616.81	1402.86
617.00	1443.82
617.19	1476.59
617.38	1347.56
617.57	1341.42
617.76	1417.19
617.95	1507.30
618.15	1470.44
618.34	1484.78
618.53	1392.62
618.72	1425.39
618.91	1484.78
619.10	1363.95
619.29	1388.52
619.48	1443.82
619.68	1339.37
619.87	1402.86
620.06	1452.01
620.25	1468.39
620.44	1376.24
620.63	1361.90
620.82	1349.61
621.01	1478.63
621.20	1345.52
621.39	1380.33
621.59	1402.86
621.78	1454.06
621.97	1376.24
622.16	1349.61
622.35	1404.91
622.54	1406.95
622.73	1363.95
622.92	1376.24
623.11	1361.90
623.30	1335.28
623.49	1372.14
623.68	1400.81
623.88	1423.34
624.07	1437.67
624.26	1417.19
624.45	1380.33
624.64	1339.37
624.83	1382.38
625.02	1275.88
625.21	1437.67
625.40	1353.71
625.59	1458.15
625.78	1380.33
625.97	1431.53
626.16	1472.49
626.35	1456.11
626.54	1558.50
626.74	1503.21
626.93	1464.30
627.12	1435.63
627.31	1423.34
627.50	1421.29
627.69	1433.58
627.88	1439.72
628.07	1347.56
628.26	1378.28
628.45	1314.80
628.64	1333.23
628.83	1341.42
629.02	1288.17
629.21	1447.91
629.40	1382.38
629.59	1378.28
629.78	1437.67
629.97	1413.10
630.16	1404.91
630.35	1378.28
630.54	1372.14
630.73	1374.19
630.92	1454.06
631.11	1413.10
631.30	1411.05
631.49	1370.09
631.68	1312.75
631.87	1331.18
632.06	1314.80
632.25	1521.64
632.44	1437.67
632.63	1345.52
632.82	1454.06
633.01	1419.24
633.20	1456.11
633.39	1388.52
633.58	1525.74
633.77	1589.22
633.96	1441.77
634.15	1460.20
634.34	1429.48
634.53	1460.20
634.72	1396.71
634.91	1347.56
635.10	1396.71
635.29	1374.19
635.48	1419.24
635.67	1388.52
635.86	1406.95
636.05	1482.73
636.24	1370.09
636.43	1353.71
636.62	1374.19
636.81	1273.84
637.00	1347.56
637.19	1331.18
637.38	1351.66
637.57	1366.00
637.76	1349.61
637.95	1472.49
638.14	1482.73
638.33	1511.40
638.52	1427.43
638.71	1415.15
638.89	1429.48
639.08	1495.02
639.27	1421.29
639.46	1423.34
639.65	1681.38
639.84	1834.98
640.03	2015.20
640.22	1988.58
640.41	2142.18
640.60	1867.75
640.79	1773.54
640.98	1638.38
641.17	1794.02
641.36	1589.22
641.55	1554.41
641.74	1529.83
641.92	1517.54
642.11	1546.22
642.30	1570.79
642.49	1503.21
642.68	1400.81
642.87	1382.38
643.06	1472.49
643.25	1318.89
643.44	1417.19
643.63	1290.22
643.82	1417.19
644.00	1368.04
644.19	1355.76
644.38	1314.80
644.57	1386.47
644.76	1413.10
644.95	1409.00
645.14	1322.99
645.33	1370.09
645.52	1392.62
645.71	1396.71
645.89	1351.66
646.08	1316.84
646.27	1329.13
646.46	1472.49
646.65	1312.75
646.84	1327.08
647.03	1343.47
647.22	1464.30
647.40	1386.47
647.59	1406.95
647.78	1331.18
647.97	1298.41
648.16	1333.23
648.35	1425.39
648.54	1449.96
648.73	1374.19
648.91	1398.76
649.10	1382.38
649.29	1339.37
649.48	1361.90
649.67	1302.51
649.86	1359.85
650.05	1429.48
650.23	1552.36
650.42	1492.97
650.61	1552.36
650.80	1621.99
650.99	1644.52
651.18	1554.41
651.36	1550.31
651.55	1394.67
651.74	1429.48
651.93	1400.81
652.12	1402.86
652.31	1413.10
652.49	1425.39
652.68	1316.84
652.87	1423.34
653.06	1417.19
653.25	1486.83
653.44	1464.30
653.62	1482.73
653.81	1411.05
654.00	1423.34
654.19	1437.67
654.38	1460.20
654.56	1357.80
654.75	1419.24
654.94	1409.00
655.13	1402.86
655.32	1400.81
655.51	1402.86
655.69	1400.81
655.88	1392.62
656.07	1341.42
656.26	1349.61
656.45	1304.56
656.63	1376.24
656.82	1380.33
657.01	1478.63
657.20	1343.47
657.38	1433.58
657.57	1370.09
657.76	1292.27
657.95	1419.24
658.14	1339.37
658.32	1392.62
658.51	1402.86
658.70	1349.61
658.89	1374.19
659.08	1390.57
659.26	1454.06
659.45	1400.81
659.64	1419.24
659.83	1376.24
660.01	1601.51
660.20	1509.35
660.39	1486.83
660.58	1304.56
660.76	1388.52
660.95	1415.15
661.14	1404.91
661.33	1396.71
661.51	1345.52
661.70	1327.08
661.89	1370.09
662.08	1380.33
662.26	1396.71
662.45	1359.85
662.64	1409.00
662.83	1341.42
663.01	1322.99
663.20	1388.52
663.39	1452.01
663.58	1351.66
663.76	1363.95
663.95	1402.86
664.14	1349.61
664.32	1366.00
664.51	1312.75
664.70	1337.32
664.89	1380.33
665.07	1304.56
665.26	1492.97
665.45	1335.28
665.64	1345.52
665.82	1431.53
666.01	1474.54
666.20	1310.70
666.38	1517.54
666.57	1531.88
666.76	1562.60
666.95	2039.78
667.13	4394.94
667.32	11452.24
667.51	17673.97
667.69	21638.84
667.88	24434.32
668.07	24260.24
668.25	19138.27
668.44	13659.95
668.63	11157.33
668.81	9328.50
669.00	8046.47
669.19	7407.50
669.38	6782.87
669.56	6352.80
669.75	5650.35
669.94	5050.29
670.12	4169.66
670.31	3567.56
670.50	2918.36
670.68	2430.94
670.87	2068.45
671.06	1785.83
671.24	1708.01
671.43	1658.85
671.62	1484.78
671.80	1447.91
671.99	1527.78
672.18	1384.43
672.36	1503.21
672.55	1527.78
672.74	1419.24
672.92	1386.47
673.11	1492.97
673.29	1415.15
673.48	1429.48
673.67	1484.78
673.85	1388.52
674.04	1368.04
674.23	1337.32
674.41	1447.91
674.60	1355.76
674.79	1298.41
674.97	1357.80
675.16	1386.47
675.34	1380.33
675.53	1347.56
675.72	1386.47
675.90	1380.33
676.09	1380.33
676.28	1333.23
676.46	1335.28
676.65	1433.58
676.83	1265.64
677.02	1337.32
677.21	1357.80
677.39	1329.13
677.58	1349.61
677.77	1380.33
677.95	1310.70
678.14	1341.42
678.32	1357.80
678.51	1353.71
678.70	1419.24
678.88	1402.86
679.07	1413.10
679.25	1386.47
679.44	1349.61
679.63	1380.33
679.81	1427.43
680.00	1376.24
680.18	1456.11
680.37	1425.39
680.55	1427.43
680.74	1322.99
680.93	1368.04
681.11	1392.62
681.30	1345.52
681.48	1384.43
681.67	1359.85
681.85	1380.33
682.04	1347.56
682.23	1406.95
682.41	1423.34
682.60	1310.70
682.78	1390.57
682.97	1339.37
683.15	1390.57
683.34	1396.71
683.53	1413.10
683.71	1384.43
683.90	1413.10
684.08	1398.76
684.27	1372.14
684.45	1431.53
684.64	1347.56
684.82	1327.08
685.01	1390.57
685.19	1413.10
685.38	1449.96
685.57	1411.05
685.75	1245.16
685.94	1376.24
686.12	1380.33
686.31	1302.51
686.49	1478.63
686.68	1279.98
686.86	1370.09
687.05	1363.95
687.23	1439.72
687.42	1386.47
687.60	1337.32
687.79	1343.47
687.97	1384.43
688.16	1355.76
688.34	1437.67
688.53	1343.47
688.71	1400.81
688.90	1460.20
689.08	1361.90
689.27	1320.94
689.45	1306.60
689.64	1458.15
689.82	1359.85
690.01	1462.25
690.19	1404.91
690.38	1380.33
690.56	1464.30
690.75	1329.13
690.93	1394.67
691.12	1380.33
691.30	1390.57
691.49	1366.00
691.67	1294.32
691.86	1460.20
692.04	1421.29
692.23	1322.99
692.41	1423.34
692.60	1505.26
692.78	1476.59
692.97	1433.58
693.15	1527.78
693.34	1542.12
693.52	1472.49
693.71	1431.53
693.89	1390.57
694.08	1388.52
694.26	1417.19
694.44	1417.19
694.63	1398.76
694.81	1331.18
695.00	1282.03
695.18	1372.14
695.37	1509.35
695.55	1376.24
695.74	1351.66
695.92	1363.95
696.10	1357.80
696.29	1284.08
696.47	1359.85
696.66	1372.14
696.84	1368.04
697.03	1355.76
697.21	1472.49
697.40	1722.34
697.58	1476.59
697.76	1363.95
697.95	1384.43
698.13	1425.39
698.32	1345.52
698.50	1441.77
698.68	1421.29
698.87	1374.19
699.05	1478.63
699.24	1398.76
699.42	1337.32
699.61	1378.28
699.79	1279.98
699.97	1300.46
700.16	1343.47
700.34	1339.37
700.53	1339.37
700.71	1441.77
700.89	1400.81
701.08	1415.15
701.26	1425.39
701.45	1613.80
701.63	1347.56
701.81	1386.47
702.00	1337.32
702.18	1384.43
702.37	1376.24
702.55	1482.73
702.73	1458.15
702.92	1531.88
703.10	1644.52
703.28	1679.33
703.47	1619.94
703.65	1603.56
703.84	1552.36
704.02	1486.83
704.20	1507.30
704.39	1517.54
704.57	1458.15
704.75	1439.72
704.94	1533.93
705.12	1433.58
705.30	1458.15
705.49	1535.98
705.67	1763.30
705.86	3571.66
706.04	8976.25
706.22	16330.50
706.41	19603.16
706.59	22564.52
706.77	23383.71
706.96	19775.19
707.14	13772.59
707.32	11384.66
707.51	9101.17
707.69	8081.28
707.87	7393.17
708.06	6676.38
708.24	5937.06
708.42	5031.86
708.61	4079.55
708.79	2981.84
708.97	2465.75
709.16	1974.24
709.34	1726.44
709.52	1599.46
709.71	1482.73
709.89	1476.59
710.07	1402.86
710.26	1388.52
710.44	1484.78
710.62	1449.96
710.80	1386.47
710.99	1421.29
711.17	1501.16
711.35	1331.18
711.54	1427.43
711.72	1415.15
711.90	1419.24
712.09	1464.30
712.27	1370.09
712.45	1357.80
712.63	1386.47
712.82	1445.87
713.00	1396.71
713.18	1380.33
713.37	1398.76
713.55	1441.77
713.73	1376.24
713.91	1413.10
714.10	1363.95
714.28	1372.14
714.46	1400.81
714.65	1398.76
714.83	1304.56
715.01	1337.32
715.19	1363.95
715.38	1411.05
715.56	1351.66
715.74	1339.37
715.92	1339.37
716.11	1404.91
716.29	1349.61
716.47	1265.64
716.65	1372.14
716.84	1296.36
717.02	1413.10
717.20	1318.89
717.38	1312.75
717.57	1409.00
717.75	1386.47
717.93	1433.58
718.11	1331.18
718.30	1282.03
718.48	1368.04
718.66	1429.48
718.84	1409.00
719.03	1388.52
719.21	1318.89
719.39	1390.57
719.57	1282.03
719.75	1421.29
719.94	1435.63
720.12	1392.62
720.30	1363.95
720.48	1427.43
720.67	1329.13
720.85	1382.38
721.03	1378.28
721.21	1390.57
721.39	1411.05
721.58	1384.43
721.76	1394.67
721.94	1376.24
722.12	1398.76
722.30	1449.96
722.49	1339.37
722.67	1433.58
722.85	1435.63
723.03	1282.03
723.21	1378.28
723.40	1392.62
723.58	1290.22
723.76	1380.33
723.94	1427.43
724.12	1456.11
724.30	1558.50
724.49	1474.54
724.67	1411.05
724.85	1449.96
725.03	1443.82
725.21	1431.53
725.40	1449.96
725.58	1318.89
725.76	1490.92
725.94	1431.53
726.12	1327.08
726.30	1435.63
726.49	1329.13
726.67	1411.05
726.85	1449.96
727.03	1394.67
727.21	1525.74
727.39	1615.85
727.57	2080.74
727.76	3465.16
727.94	4476.86
728.12	4829.11
728.30	5265.33
728.48	5062.58
728.66	4200.38
728.84	3430.35
729.03	2998.23
729.21	2826.20
729.39	2553.82
729.57	2226.14
729.75	2015.20
729.93	1875.94
730.11	1607.66
730.30	1501.16
730.48	1443.82
730.66	1521.64
730.84	1355.76
731.02	1376.24
731.20	1394.67
731.38	1320.94
731.56	1382.38
731.74	1400.81
731.93	1394.67
732.11	1423.34
732.29	1370.09
732.47	1466.35
732.65	1380.33
732.83	1380.33
733.01	1400.81
733.19	1357.80
733.37	1415.15
733.56	1353.71
733.74	1392.62
733.92	1415.15
734.10	1402.86
734.28	1443.82
734.46	1298.41
734.64	1361.90
734.82	1382.38
735.00	1386.47
735.18	1351.66
735.36	1349.61
735.54	1425.39
735.73	1359.85
735.91	1429.48
736.09	1468.39
736.27	1357.80
736.45	1345.52
736.63	1251.31
736.81	1376.24
736.99	1347.56
737.17	1390.57
737.35	1351.66
737.53	1499.11
737.71	1322.99
737.89	1341.42
738.07	1392.62
738.25	1312.75
738.43	1298.41
738.61	1333.23
738.80	1294.32
738.98	1380.33
739.16	1353.71
739.34	1347.56
739.52	1476.59
739.70	1392.62
739.88	1429.48
740.06	1398.76
740.24	1286.12
740.42	1421.29
740.60	1363.95
740.78	1314.80
740.96	1363.95
741.14	1382.38
741.32	1331.18
741.50	1304.56
741.68	1456.11
741.86	1327.08
742.04	1357.80
742.22	1353.71
742.40	1421.29
742.58	1355.76
742.76	1349.61
742.94	1388.52
743.12	1290.22
743.30	1441.77
743.48	1363.95
743.66	1351.66
743.84	1458.15
744.02	1435.63
744.20	1361.90
744.38	1341.42
744.56	1345.52
744.74	1437.67
744.92	1357.80
745.10	1439.72
745.28	1349.61
745.46	1443.82
745.64	1347.56
745.82	1409.00
746.00	1343.47
746.18	1302.51
746.36	1300.46
746.54	1419.24
746.72	1386.47
746.90	1361.90
747.08	1376.24
747.26	1400.81
747.44	1435.63
747.62	1427.43
747.80	1400.81
747.98	1462.25
748.15	1368.04
748.33	1366.00
748.51	1290.22
748.69	1419.24
748.87	1368.04
749.05	1382.38
749.23	1357.80
749.41	1411.05
749.59	1392.62
749.77	1482.73
749.95	1320.94
750.13	1372.14
750.31	1331.18
750.49	1341.42
750.67	1394.67
750.85	1413.10
751.03	1302.51
751.20	1503.21
751.38	1337.32
751.56	1279.98
751.74	1316.84
751.92	1413.10
752.10	1298.41
752.28	1439.72
752.46	1325.04
752.64	1316.84
752.82	1335.28
753.00	1398.76
753.18	1380.33
753.35	1378.28
753.53	1409.00
753.71	1308.65
753.89	1445.87
754.07	1353.71
754.25	1443.82
754.43	1353.71
754.61	1310.70
754.79	1327.08
754.97	1366.00
755.14	1341.42
755.32	1347.56
755.50	1394.67
755.68	1370.09
755.86	1306.60
756.04	1341.42
756.22	1347.56
756.40	1413.10
756.57	1435.63
756.75	1386.47
756.93	1388.52
757.11	1294.32
757.29	1392.62
757.47	1361.90
757.65	1353.71
757.82	1322.99
758.00	1325.04
758.18	1366.00
758.36	1357.80
758.54	1327.08
758.72	1337.32
758.90	1460.20
759.07	1421.29
759.25	1357.80
759.43	1380.33
759.61	1341.42
759.79	1724.39
759.97	1423.34
760.15	1380.33
760.32	1380.33
760.50	1361.90
760.68	1464.30
760.86	1306.60
761.04	1460.20
761.22	1366.00
761.39	1454.06
761.57	1394.67
761.75	1355.76
761.93	1327.08
762.11	1306.60
762.28	1345.52
762.46	1372.14
762.64	1421.29
762.82	1351.66
763.00	1351.66
763.18	1388.52
763.35	1306.60
763.53	1298.41
763.71	1339.37
763.89	1398.76
764.07	1296.36
764.24	1329.13
764.42	1363.95
764.60	1331.18
764.78	1392.62
764.96	1359.85
765.13	1316.84
765.31	1372.14
765.49	1335.28
765.67	1310.70
765.84	1396.71
766.02	1333.23
766.20	1271.79
766.38	1439.72
766.56	1427.43
766.73	1423.34
766.91	1310.70
767.09	1474.54
767.27	1394.67
767.44	1339.37
767.62	1427.43
767.80	1372.14
767.98	1327.08
768.15	1347.56
768.33	1409.00
768.51	1384.43
768.69	1427.43
768.87	1339.37
769.04	1316.84
769.22	1443.82
769.40	1466.35
769.58	1439.72
769.75	1370.09
769.93	1419.24
770.11	1351.66
770.28	1351.66
770.46	1404.91
770.64	1271.79
770.82	1325.04
770.99	1339.37
771.17	1341.42
771.35	1345.52
771.53	1402.86
771.70	1355.76
771.88	1409.00
772.06	1355.76
772.23	1366.00
772.41	1425.39
772.59	1390.57
772.77	1347.56
772.94	1398.76
773.12	1396.71
773.30	1357.80
773.47	1359.85
773.65	1359.85
773.83	1435.63
774.01	1351.66
774.18	1314.80
774.36	1275.88
774.54	1331.18
774.71	1449.96
774.89	1351.66
775.07	1300.46
775.24	1388.52
775.42	1292.27
775.60	1458.15
775.78	1366.00
775.95	1306.60
776.13	1353.71
776.31	1261.55
776.48	1361.90
776.66	1413.10
776.84	1380.33
777.01	1409.00
777.19	1312.75
777.37	1304.56
777.54	1355.76
777.72	1425.39
777.90	1392.62
778.07	1302.51
778.25	1499.11
778.43	1318.89
778.60	1366.00
778.78	1372.14
778.96	1400.81
779.13	1314.80
779.31	1353.71
779.49	1333.23
779.66	1392.62
779.84	1363.95
780.01	1443.82
780.19	1329.13
780.37	1351.66
780.54	1478.63
780.72	1331.18
780.90	1331.18
781.07	1345.52
781.25	1312.75
781.43	1390.57
781.60	1419.24
781.78	1384.43
781.95	1376.24
782.13	1347.56
782.31	1411.05
782.48	1271.79
782.66	1368.04
782.83	1425.39
783.01	1378.28
783.19	1388.52
783.36	1335.28
783.54	1359.85
783.72	1351.66
783.89	1294.32
784.07	1339.37
784.24	1392.62
784.42	1470.44
784.60	1337.32
784.77	1331.18
784.95	1269.74
785.12	1366.00
785.30	1351.66
785.47	1382.38
785.65	1366.00
785.83	1355.76
786.00	1392.62
786.18	1447.91
786.35	1316.84
786.53	1380.33
786.71	1392.62
786.88	1392.62
787.06	1304.56
787.23	1411.05
787.41	1423.34
787.58	1409.00
787.76	1427.43
787.94	1300.46
788.11	1353.71
788.29	1343.47
788.46	1359.85
788.64	1288.17
788.81	1294.32
788.99	1366.00
789.16	1329.13
789.34	1331.18
789.52	1370.09
789.69	1355.76
789.87	1308.65
790.04	1331.18
790.22	1337.32
790.39	1452.01
790.57	1292.27
790.74	1337.32
790.92	1415.15
791.09	1331.18
791.27	1384.43
791.44	1378.28
791.62	1357.80
791.79	1378.28
791.97	1355.76
792.15	1445.87
792.32	1380.33
792.50	1406.95
792.67	1413.10
792.85	1386.47
793.02	1335.28
793.20	1355.76
793.37	1308.65
793.55	1357.80
793.72	1384.43
793.90	1396.71
794.07	1314.80
794.25	1372.14
794.42	1335.28
794.60	1265.64
794.77	1361.90
794.95	1406.95
795.12	1429.48
795.30	1368.04
795.47	1261.55
795.65	1517.54
795.82	1380.33
796.00	1298.41
796.17	1353.71
796.34	1302.51
796.52	1400.81
796.69	1366.00
796.87	1468.39
797.04	1437.67
797.22	1380.33
797.39	1419.24
797.57	1400.81
797.74	1380.33
797.92	1345.52
798.09	1388.52
798.27	1417.19
798.44	1366.00
798.62	1353.71
798.79	1341.42
798.96	1394.67
799.14	1437.67
799.31	1429.48
799.49	1390.57
799.66	1322.99
799.84	1441.77
800.01	1325.04
800.19	1400.81
800.36	1370.09
800.53	1374.19
800.71	1306.60
800.88	1382.38
801.06	1333.23
801.23	1339.37
801.41	1368.04
801.58	1441.77
801.75	1357.80
801.93	1396.71
802.10	1374.19
802.28	1374.19
802.45	1341.42
802.63	1380.33
802.80	1339.37
802.97	1290.22
803.15	1388.52
803.32	1423.34
803.50	1361.90
803.67	1322.99
803.84	1388.52
804.02	1327.08
804.19	1374.19
804.37	1249.26
804.54	1353.71
804.71	1376.24
804.89	1411.05
805.06	1372.14
805.24	1382.38
805.41	1370.09
805.58	1284.08
805.76	1380.33
805.93	1310.70
806.10	1449.96
806.28	1388.52
806.45	1398.76
806.63	1380.33
806.80	1423.34
806.97	1331.18
807.15	1349.61
807.32	1335.28
807.49	1304.56
807.67	1318.89
807.84	1406.95
808.01	1292.27
808.19	1480.68
808.36	1497.07
808.54	1355.76
808.71	1347.56
808.88	1435.63
809.06	1357.80
809.23	1404.91
809.40	1308.65
809.58	1406.95
809.75	1314.80
809.92	1411.05
810.10	1445.87
810.27	1294.32
810.44	1322.99
810.62	1372.14
810.79	1454.06
810.96	1300.46
811.14	1361.90
811.31	1341.42
811.48	1327.08
811.66	1372.14
811.83	1404.91
812.00	1402.86
812.18	1300.46
812.35	1441.77
812.52	1374.19
812.69	1337.32
812.87	1402.86
813.04	1396.71
813.21	1378.28
813.39	1320.94
813.56	1302.51
813.73	1431.53
813.91	1341.42
814.08	1345.52
814.25	1466.35
814.42	1294.32
814.60	1304.56
814.77	1374.19
814.94	1390.57
815.12	1351.66
815.29	1382.38
815.46	1327.08
815.63	1331.18
815.81	1443.82
815.98	1339.37
816.15	1384.43
816.33	1353.71
816.50	1433.58
816.67	1388.52
816.84	1384.43
817.02	1331.18
817.19	1306.60
817.36	1409.00
817.53	1372.14
817.71	1361.90
817.88	1372.14
818.05	1386.47
818.22	1366.00
818.40	1431.53
818.57	1419.24
818.74	1382.38
818.91	1302.51
819.09	1378.28
819.26	1443.82
819.43	1331.18
819.60	1316.84
819.78	1427.43
819.95	1515.50
820.12	1310.70
820.29	1378.28
820.47	1445.87
820.64	1370.09
820.81	1316.84
820.98	1390.57
821.15	1296.36
821.33	1449.96
821.50	1257.45
821.67	1337.32
821.84	1304.56
822.02	1445.87
822.19	1490.92
822.36	1331.18
822.53	1306.60
822.70	1359.85
822.88	1396.71
823.05	1404.91
823.22	1320.94
823.39	1419.24
823.56	1396.71
823.74	1431.53
823.91	1400.81
824.08	1292.27
824.25	1335.28
824.42	1478.63
824.60	1335.28
824.77	1413.10
824.94	1449.96
825.11	1341.42
825.28	1308.65
825.45	1359.85
825.63	1421.29
825.80	1376.24
825.97	1302.51
826.14	1320.94
826.31	1284.08
826.48	1419.24
826.66	1282.03
826.83	1316.84
827.00	1380.33
827.17	1312.75
827.34	1390.57
827.51	1374.19
827.69	1345.52
827.86	1343.47
828.03	1376.24
828.20	1417.19
828.37	1355.76
828.54	1349.61
828.71	1353.71
828.89	1443.82
829.06	1382.38
829.23	1411.05
829.40	1296.36
829.57	1363.95
829.74	1310.70
829.91	1339.37
830.09	1372.14
830.26	1431.53
830.43	1361.90
830.60	1378.28
830.77	1384.43
830.94	1413.10
831.11	1478.63
831.28	1314.80
831.46	1402.86
831.63	1374.19
831.80	1320.94
831.97	1353.71
832.14	1333.23
832.31	1325.04
832.48	1400.81
832.65	1337.32
832.82	1366.00
832.99	1423.34
833.17	1353.71
833.34	1404.91
833.51	1437.67
833.68	1308.65
833.85	1406.95
834.02	1298.41
834.19	1368.04
834.36	1298.41
834.53	1322.99
834.70	1423.34
834.87	1333.23
835.04	1404.91
835.22	1384.43
835.39	1320.94
835.56	1366.00
835.73	1359.85
835.90	1429.48
836.07	1363.95
836.24	1476.59
836.41	1361.90
836.58	1341.42
836.75	1433.58
836.92	1378.28
837.09	1255.40
837.26	1468.39
837.43	1304.56
837.60	1466.35
837.77	1370.09
837.94	1474.54
838.12	1415.15
838.29	1394.67
838.46	1368.04
838.63	1343.47
838.80	1431.53
838.97	1382.38
839.14	1433.58
839.31	1449.96
839.48	1400.81
839.65	1325.04
839.82	1388.52
839.99	1435.63
840.16	1355.76
840.33	1263.60
840.50	1345.52
840.67	1275.88
840.84	1331.18
841.01	1372.14
841.18	1312.75
841.35	1349.61
841.52	1370.09
841.69	1413.10
841.86	1329.13
842.03	1409.00
842.20	1406.95
842.37	1402.86
842.54	1359.85
842.71	1388.52
842.88	1341.42
843.05	1458.15
843.22	1400.81
843.39	1353.71
843.56	1304.56
843.73	1370.09
843.90	1366.00
844.07	1337.32
844.24	1460.20
844.41	1396.71
844.58	1425.39
844.75	1290.22
844.92	1380.33
845.09	1388.52
845.26	1322.99
845.43	1378.28
845.60	1349.61
845.77	1390.57
845.94	1368.04
846.10	1351.66
846.27	1306.60
846.44	1366.00
846.61	1322.99
846.78	1431.53
846.95	1398.76
847.12	1409.00
847.29	1286.12
847.46	1347.56
847.63	1374.19
847.80	1265.64
847.97	1355.76
848.14	1417.19
848.31	1400.81
848.48	1353.71
848.65	1409.00
848.82	1382.38
848.98	1482.73
849.15	1374.19
849.32	1437.67
849.49	1361.90
849.66	1374.19
849.83	1421.29
850.00	1335.28
850.17	1384.43
850.34	1370.09
850.51	1329.13
850.68	1380.33
850.85	1486.83
851.01	1396.71
851.18	1345.52
851.35	1359.85
851.52	1345.52
851.69	1488.87
851.86	1302.51
852.03	1349.61
852.20	1363.95
852.37	1378.28
852.53	1386.47
852.70	1363.95
852.87	1382.38
853.04	1359.85
853.21	1339.37
853.38	1404.91
853.55	1398.76
853.72	1482.73
853.89	1312.75
854.05	1347.56
854.22	1329.13
854.39	1320.94
854.56	1394.67
854.73	1357.80
854.90	1331.18
855.07	1368.04
855.23	1335.28
855.40	1398.76
855.57	1382.38
855.74	1282.03
855.91	1499.11
856.08	1306.60
856.25	1368.04
856.41	1378.28
856.58	1366.00
856.75	1372.14
856.92	1320.94
857.09	1406.95
857.26	1292.27
857.42	1390.57
857.59	1363.95
857.76	1318.89
857.93	1372.14
858.10	1366.00
858.27	1304.56
858.43	1312.75
858.60	1357.80
858.77	1327.08
858.94	1300.46
859.11	1386.47
859.27	1345.52
859.44	1353.71
859.61	1447.91
859.78	1339.37
859.95	1327.08
860.12	1413.10
860.28	1437.67
860.45	1380.33
860.62	1298.41
860.79	1443.82
860.95	1329.13
861.12	1294.32
861.29	1421.29
861.46	1284.08
861.63	1359.85
861.79	1374.19
861.96	1411.05
862.13	1398.76
862.30	1347.56
862.47	1355.76
862.63	1308.65
862.80	1380.33
862.97	1402.86
863.14	1361.90
863.30	1271.79
863.47	1329.13
863.64	1417.19
863.81	1378.28
863.97	1300.46
864.14	1333.23
864.31	1355.76
864.48	1355.76
864.65	1372.14
864.81	1353.71
864.98	1353.71
865.15	1406.95
865.32	1378.28
865.48	1402.86
865.65	1312.75
865.82	1376.24
865.98	1396.71
866.15	1394.67
866.32	1402.86
866.49	1337.32
866.65	1423.34
866.82	1337.32
866.99	1341.42
867.16	1351.66
867.32	1376.24
867.49	1378.28
867.66	1333.23
867.83	1355.76
867.99	1290.22
868.16	1417.19
868.33	1304.56
868.49	1351.66
868.66	1359.85
868.83	1439.72
868.99	1341.42
869.16	1400.81
869.33	1357.80
869.50	1363.95
869.66	1302.51
869.83	1339.37
870.00	1372.14
870.16	1396.71
870.33	1349.61
870.50	1423.34
870.66	1310.70
870.83	1423.34
871.00	1429.48
871.17	1363.95
871.33	1390.57
871.50	1445.87
871.67	1376.24
871.83	1413.10
872.00	1427.43
872.17	1370.09
872.33	1400.81
872.50	1376.24
872.67	1421.29
872.83	1310.70
873.00	1363.95
873.17	1292.27
873.33	1388.52
873.50	1406.95
873.67	1327.08
873.83	1374.19
874.00	1357.80
874.16	1462.25
874.33	1322.99
874.50	1331.18
874.66	1415.15
874.83	1372.14
875.00	1390.57
875.16	1392.62
875.33	1363.95
875.50	1331.18
875.66	1355.76
875.83	1380.33
875.99	1370.09
876.16	1294.32
876.33	1359.85
876.49	1347.56
876.66	1355.76
876.83	1322.99
876.99	1294.32
877.16	1437.67
877.32	1411.05
877.49	1409.00
877.66	1347.56
877.82	1378.28
877.99	1388.52
878.15	1284.08
878.32	1363.95
878.49	1386.47
878.65	1318.89
878.82	1443.82
878.98	1316.84
879.15	1396.71
879.32	1345.52
879.48	1386.47
879.65	1308.65
879.81	1298.41
879.98	1394.67
880.15	1345.52
880.31	1396.71
880.48	1306.60
880.64	1449.96
880.81	1390.57
880.97	1419.24
881.14	1404.91
881.31	1370.09
881.47	1460.20
881.64	1298.41
881.80	1275.88
881.97	1392.62
882.13	1347.56
882.30	1368.04
882.47	1374.19
882.63	1398.76
882.80	1357.80
882.96	1429.48
883.13	1378.28
883.29	1361.90
883.46	1384.43
883.62	1396.71
883.79	1351.66
883.95	1398.76
884.12	1425.39
884.29	1431.53
884.45	1380.33
884.62	1406.95
884.78	1263.60
884.95	1413.10
885.11	1284.08
885.28	1419.24
885.44	1394.67
885.61	1409.00
885.77	1361.90
885.94	1423.34
886.10	1359.85
886.27	1398.76
886.43	1345.52
886.60	1429.48
886.76	1390.57
886.93	1306.60
887.09	1322.99
887.26	1335.28
887.42	1331.18
887.59	1447.91
887.75	1447.91
887.92	1406.95
888.08	1361.90
888.25	1386.47
888.41	1454.06
888.58	1363.95
888.74	1413.10
888.91	1359.85
>>>>>End Processed Spectral Data<<<<<
