SpectraSuite Data File
++++++++++++++++++++++++++++++++++++
Date: Tue May 03 11:24:28 CEST 2016
User: root
Dark Spectrum Present: No
Reference Spectrum Present: No
Number of Sampled Component Spectra: 1
Spectrometers: USB4C02835
Integration Time (usec): 100000 (USB4C02835)
Spectra Averaged: 1 (USB4C02835)
Boxcar Smoothing: 0 (USB4C02835)
Correct for Electrical Dark: No (USB4C02835)
Strobe/Lamp Enabled: No (USB4C02835)
Correct for Detector Non-linearity: No (USB4C02835)
Correct for Stray Light: No (USB4C02835)
Number of Pixels in Processed Spectrum: 3648
>>>>>Begin Processed Spectral Data<<<<<
177.47	1226.73
177.69	1226.73
177.91	1226.73
178.13	1187.82
178.36	1294.32
178.58	1290.22
178.80	1425.39
179.02	1298.41
179.24	1314.80
179.46	1353.71
179.68	1427.43
179.90	1351.66
180.13	1384.43
180.35	1294.32
180.57	1431.53
180.79	1433.58
181.01	1300.46
181.23	1462.25
181.45	1409.00
181.67	1423.34
181.90	1415.15
182.12	1374.19
182.34	1275.88
182.56	1353.71
182.78	1353.71
183.00	1333.23
183.22	1386.47
183.44	1245.16
183.66	1484.78
183.89	1372.14
184.11	1398.76
184.33	1343.47
184.55	1466.35
184.77	1402.86
184.99	1425.39
185.21	1306.60
185.43	1449.96
185.65	1376.24
185.87	1388.52
186.10	1374.19
186.32	1423.34
186.54	1435.63
186.76	1398.76
186.98	1406.95
187.20	1359.85
187.42	1378.28
187.64	1421.29
187.86	1423.34
188.08	1341.42
188.30	1372.14
188.52	1339.37
188.75	1392.62
188.97	1458.15
189.19	1351.66
189.41	1298.41
189.63	1427.43
189.85	1417.19
190.07	1388.52
190.29	1363.95
190.51	1390.57
190.73	1290.22
190.95	1398.76
191.17	1331.18
191.39	1370.09
191.61	1329.13
191.84	1388.52
192.06	1421.29
192.28	1265.64
192.50	1427.43
192.72	1368.04
192.94	1333.23
193.16	1386.47
193.38	1396.71
193.60	1343.47
193.82	1320.94
194.04	1374.19
194.26	1298.41
194.48	1339.37
194.70	1376.24
194.92	1302.51
195.14	1394.67
195.36	1392.62
195.58	1419.24
195.80	1335.28
196.02	1370.09
196.24	1355.76
196.46	1345.52
196.69	1288.17
196.91	1380.33
197.13	1304.56
197.35	1372.14
197.57	1490.92
197.79	1382.38
198.01	1409.00
198.23	1404.91
198.45	1345.52
198.67	1382.38
198.89	1398.76
199.11	1386.47
199.33	1347.56
199.55	1279.98
199.77	1322.99
199.99	1441.77
200.21	1327.08
200.43	1341.42
200.65	1425.39
200.87	1290.22
201.09	1349.61
201.31	1472.49
201.53	1439.72
201.75	1404.91
201.97	1335.28
202.19	1361.90
202.41	1394.67
202.63	1462.25
202.85	1361.90
203.07	1464.30
203.29	1398.76
203.51	1409.00
203.73	1339.37
203.95	1392.62
204.17	1384.43
204.39	1366.00
204.61	1417.19
204.83	1372.14
205.05	1406.95
205.27	1370.09
205.49	1458.15
205.71	1392.62
205.93	1296.36
206.15	1320.94
206.37	1427.43
206.59	1402.86
206.81	1376.24
207.03	1404.91
207.25	1382.38
207.47	1429.48
207.69	1320.94
207.91	1413.10
208.13	1435.63
208.34	1331.18
208.56	1361.90
208.78	1474.54
209.00	1310.70
209.22	1329.13
209.44	1357.80
209.66	1433.58
209.88	1343.47
210.10	1288.17
210.32	1437.67
210.54	1486.83
210.76	1384.43
210.98	1435.63
211.20	1318.89
211.42	1411.05
211.64	1439.72
211.86	1396.71
212.08	1382.38
212.30	1425.39
212.52	1327.08
212.74	1382.38
212.96	1378.28
213.17	1400.81
213.39	1380.33
213.61	1419.24
213.83	1406.95
214.05	1398.76
214.27	1380.33
214.49	1325.04
214.71	1329.13
214.93	1495.02
215.15	1337.32
215.37	1421.29
215.59	1411.05
215.81	1441.77
216.03	1503.21
216.24	1314.80
216.46	1411.05
216.68	1402.86
216.90	1380.33
217.12	1439.72
217.34	1343.47
217.56	1370.09
217.78	1447.91
218.00	1363.95
218.22	1388.52
218.44	1378.28
218.66	1386.47
218.87	1419.24
219.09	1368.04
219.31	1425.39
219.53	1376.24
219.75	1292.27
219.97	1320.94
220.19	1411.05
220.41	1279.98
220.63	1413.10
220.85	1322.99
221.06	1337.32
221.28	1282.03
221.50	1349.61
221.72	1376.24
221.94	1460.20
222.16	1329.13
222.38	1396.71
222.60	1386.47
222.82	1366.00
223.03	1366.00
223.25	1273.84
223.47	1421.29
223.69	1458.15
223.91	1437.67
224.13	1396.71
224.35	1349.61
224.57	1386.47
224.78	1370.09
225.00	1267.69
225.22	1331.18
225.44	1310.70
225.66	1447.91
225.88	1398.76
226.10	1402.86
226.32	1409.00
226.53	1351.66
226.75	1337.32
226.97	1427.43
227.19	1331.18
227.41	1349.61
227.63	1347.56
227.85	1423.34
228.06	1366.00
228.28	1349.61
228.50	1339.37
228.72	1335.28
228.94	1298.41
229.16	1288.17
229.37	1296.36
229.59	1349.61
229.81	1372.14
230.03	1329.13
230.25	1341.42
230.47	1359.85
230.69	1316.84
230.90	1368.04
231.12	1419.24
231.34	1386.47
231.56	1394.67
231.78	1374.19
232.00	1409.00
232.21	1384.43
232.43	1333.23
232.65	1282.03
232.87	1400.81
233.09	1277.93
233.30	1413.10
233.52	1392.62
233.74	1306.60
233.96	1316.84
234.18	1370.09
234.40	1372.14
234.61	1449.96
234.83	1386.47
235.05	1320.94
235.27	1505.26
235.49	1339.37
235.70	1394.67
235.92	1427.43
236.14	1392.62
236.36	1441.77
236.58	1306.60
236.79	1435.63
237.01	1406.95
237.23	1294.32
237.45	1388.52
237.67	1314.80
237.88	1357.80
238.10	1333.23
238.32	1294.32
238.54	1394.67
238.76	1411.05
238.97	1368.04
239.19	1335.28
239.41	1384.43
239.63	1376.24
239.85	1386.47
240.06	1380.33
240.28	1413.10
240.50	1386.47
240.72	1341.42
240.93	1376.24
241.15	1413.10
241.37	1312.75
241.59	1396.71
241.81	1406.95
242.02	1361.90
242.24	1394.67
242.46	1282.03
242.68	1347.56
242.89	1390.57
243.11	1345.52
243.33	1368.04
243.55	1374.19
243.76	1398.76
243.98	1394.67
244.20	1302.51
244.42	1314.80
244.64	1419.24
244.85	1312.75
245.07	1304.56
245.29	1509.35
245.51	1361.90
245.72	1366.00
245.94	1378.28
246.16	1351.66
246.38	1314.80
246.59	1380.33
246.81	1353.71
247.03	1376.24
247.24	1302.51
247.46	1327.08
247.68	1386.47
247.90	1417.19
248.11	1394.67
248.33	1357.80
248.55	1404.91
248.77	1464.30
248.98	1353.71
249.20	1454.06
249.42	1345.52
249.64	1421.29
249.85	1400.81
250.07	1335.28
250.29	1363.95
250.50	1417.19
250.72	1353.71
250.94	1341.42
251.16	1505.26
251.37	1441.77
251.59	1404.91
251.81	1429.48
252.02	1429.48
252.24	1308.65
252.46	1429.48
252.68	1322.99
252.89	1353.71
253.11	1374.19
253.33	1478.63
253.54	1355.76
253.76	1382.38
253.98	1335.28
254.20	1378.28
254.41	1392.62
254.63	1353.71
254.85	1318.89
255.06	1325.04
255.28	1400.81
255.50	1400.81
255.71	1398.76
255.93	1392.62
256.15	1279.98
256.36	1370.09
256.58	1380.33
256.80	1400.81
257.02	1310.70
257.23	1447.91
257.45	1304.56
257.67	1398.76
257.88	1351.66
258.10	1370.09
258.32	1409.00
258.53	1312.75
258.75	1431.53
258.97	1421.29
259.18	1376.24
259.40	1368.04
259.62	1415.15
259.83	1386.47
260.05	1406.95
260.27	1525.74
260.48	1415.15
260.70	1294.32
260.92	1421.29
261.13	1419.24
261.35	1366.00
261.57	1368.04
261.78	1275.88
262.00	1308.65
262.22	1355.76
262.43	1322.99
262.65	1318.89
262.86	1404.91
263.08	1495.02
263.30	1343.47
263.51	1363.95
263.73	1320.94
263.95	1445.87
264.16	1286.12
264.38	1376.24
264.60	1376.24
264.81	1331.18
265.03	1316.84
265.25	1398.76
265.46	1359.85
265.68	1388.52
265.89	1388.52
266.11	1331.18
266.33	1409.00
266.54	1478.63
266.76	1368.04
266.98	1376.24
267.19	1464.30
267.41	1398.76
267.62	1386.47
267.84	1247.21
268.06	1355.76
268.27	1331.18
268.49	1351.66
268.70	1400.81
268.92	1392.62
269.14	1380.33
269.35	1329.13
269.57	1366.00
269.79	1351.66
270.00	1277.93
270.22	1443.82
270.43	1310.70
270.65	1380.33
270.87	1294.32
271.08	1466.35
271.30	1415.15
271.51	1411.05
271.73	1355.76
271.95	1341.42
272.16	1376.24
272.38	1406.95
272.59	1349.61
272.81	1460.20
273.02	1351.66
273.24	1388.52
273.46	1382.38
273.67	1355.76
273.89	1366.00
274.10	1318.89
274.32	1394.67
274.54	1327.08
274.75	1415.15
274.97	1361.90
275.18	1359.85
275.40	1431.53
275.61	1341.42
275.83	1384.43
276.05	1386.47
276.26	1415.15
276.48	1361.90
276.69	1359.85
276.91	1370.09
277.12	1361.90
277.34	1337.32
277.55	1361.90
277.77	1372.14
277.99	1372.14
278.20	1329.13
278.42	1372.14
278.63	1294.32
278.85	1363.95
279.06	1290.22
279.28	1490.92
279.49	1312.75
279.71	1392.62
279.93	1329.13
280.14	1329.13
280.36	1392.62
280.57	1380.33
280.79	1421.29
281.00	1331.18
281.22	1384.43
281.43	1363.95
281.65	1308.65
281.86	1343.47
282.08	1349.61
282.29	1423.34
282.51	1298.41
282.73	1247.21
282.94	1296.36
283.16	1388.52
283.37	1372.14
283.59	1382.38
283.80	1390.57
284.02	1306.60
284.23	1429.48
284.45	1370.09
284.66	1310.70
284.88	1406.95
285.09	1386.47
285.31	1351.66
285.52	1316.84
285.74	1333.23
285.95	1388.52
286.17	1374.19
286.38	1361.90
286.60	1357.80
286.81	1302.51
287.03	1372.14
287.24	1343.47
287.46	1351.66
287.67	1374.19
287.89	1392.62
288.10	1335.28
288.32	1384.43
288.53	1368.04
288.75	1325.04
288.96	1363.95
289.18	1339.37
289.39	1341.42
289.61	1394.67
289.82	1366.00
290.04	1437.67
290.25	1316.84
290.47	1390.57
290.68	1363.95
290.90	1329.13
291.11	1333.23
291.33	1345.52
291.54	1310.70
291.76	1275.88
291.97	1333.23
292.18	1413.10
292.40	1312.75
292.61	1333.23
292.83	1439.72
293.04	1368.04
293.26	1363.95
293.47	1331.18
293.69	1335.28
293.90	1322.99
294.12	1435.63
294.33	1359.85
294.55	1359.85
294.76	1404.91
294.97	1441.77
295.19	1388.52
295.40	1386.47
295.62	1380.33
295.83	1359.85
296.05	1339.37
296.26	1427.43
296.48	1384.43
296.69	1345.52
296.90	1370.09
297.12	1370.09
297.33	1449.96
297.55	1394.67
297.76	1380.33
297.98	1460.20
298.19	1404.91
298.41	1355.76
298.62	1351.66
298.83	1382.38
299.05	1417.19
299.26	1384.43
299.48	1290.22
299.69	1378.28
299.90	1337.32
300.12	1304.56
300.33	1404.91
300.55	1343.47
300.76	1368.04
300.98	1273.84
301.19	1409.00
301.40	1419.24
301.62	1404.91
301.83	1388.52
302.05	1411.05
302.26	1441.77
302.47	1310.70
302.69	1411.05
302.90	1374.19
303.12	1320.94
303.33	1415.15
303.54	1392.62
303.76	1386.47
303.97	1388.52
304.19	1384.43
304.40	1359.85
304.61	1368.04
304.83	1415.15
305.04	1347.56
305.26	1421.29
305.47	1357.80
305.68	1370.09
305.90	1302.51
306.11	1476.59
306.33	1308.65
306.54	1329.13
306.75	1339.37
306.97	1290.22
307.18	1349.61
307.39	1353.71
307.61	1476.59
307.82	1392.62
308.04	1345.52
308.25	1363.95
308.46	1372.14
308.68	1404.91
308.89	1378.28
309.10	1359.85
309.32	1415.15
309.53	1343.47
309.74	1366.00
309.96	1384.43
310.17	1488.87
310.39	1253.36
310.60	1327.08
310.81	1462.25
311.03	1298.41
311.24	1376.24
311.45	1382.38
311.67	1402.86
311.88	1474.54
312.09	1378.28
312.31	1370.09
312.52	1374.19
312.73	1320.94
312.95	1345.52
313.16	1404.91
313.37	1445.87
313.59	1392.62
313.80	1445.87
314.01	1452.01
314.23	1329.13
314.44	1310.70
314.65	1361.90
314.87	1257.45
315.08	1269.74
315.29	1308.65
315.51	1355.76
315.72	1327.08
315.93	1425.39
316.15	1447.91
316.36	1370.09
316.57	1363.95
316.79	1382.38
317.00	1345.52
317.21	1402.86
317.43	1388.52
317.64	1376.24
317.85	1413.10
318.07	1445.87
318.28	1513.45
318.49	1517.54
318.70	1599.46
318.92	1478.63
319.13	1544.17
319.34	1587.18
319.56	1482.73
319.77	1464.30
319.98	1533.93
320.20	1374.19
320.41	1378.28
320.62	1351.66
320.83	1376.24
321.05	1484.78
321.26	1398.76
321.47	1345.52
321.69	1445.87
321.90	1265.64
322.11	1335.28
322.32	1366.00
322.54	1495.02
322.75	1298.41
322.96	1413.10
323.18	1337.32
323.39	1318.89
323.60	1378.28
323.81	1447.91
324.03	1296.36
324.24	1359.85
324.45	1466.35
324.66	1359.85
324.88	1396.71
325.09	1388.52
325.30	1382.38
325.52	1404.91
325.73	1353.71
325.94	1361.90
326.15	1327.08
326.37	1286.12
326.58	1372.14
326.79	1406.95
327.00	1355.76
327.22	1333.23
327.43	1357.80
327.64	1380.33
327.85	1308.65
328.07	1404.91
328.28	1437.67
328.49	1333.23
328.70	1394.67
328.92	1325.04
329.13	1288.17
329.34	1370.09
329.55	1380.33
329.76	1384.43
329.98	1421.29
330.19	1390.57
330.40	1331.18
330.61	1290.22
330.83	1382.38
331.04	1447.91
331.25	1380.33
331.46	1343.47
331.68	1376.24
331.89	1437.67
332.10	1290.22
332.31	1265.64
332.52	1370.09
332.74	1413.10
332.95	1230.83
333.16	1400.81
333.37	1443.82
333.58	1437.67
333.80	1363.95
334.01	1396.71
334.22	1396.71
334.43	1325.04
334.64	1368.04
334.86	1347.56
335.07	1339.37
335.28	1406.95
335.49	1341.42
335.70	1402.86
335.92	1363.95
336.13	1382.38
336.34	1384.43
336.55	1406.95
336.76	1460.20
336.98	1292.27
337.19	1304.56
337.40	1417.19
337.61	1454.06
337.82	1372.14
338.04	1341.42
338.25	1351.66
338.46	1376.24
338.67	1429.48
338.88	1343.47
339.09	1392.62
339.31	1347.56
339.52	1279.98
339.73	1314.80
339.94	1333.23
340.15	1390.57
340.36	1376.24
340.58	1284.08
340.79	1357.80
341.00	1394.67
341.21	1345.52
341.42	1380.33
341.63	1304.56
341.85	1384.43
342.06	1390.57
342.27	1296.36
342.48	1359.85
342.69	1359.85
342.90	1415.15
343.12	1359.85
343.33	1347.56
343.54	1398.76
343.75	1415.15
343.96	1316.84
344.17	1259.50
344.38	1380.33
344.60	1370.09
344.81	1294.32
345.02	1363.95
345.23	1409.00
345.44	1419.24
345.65	1388.52
345.86	1443.82
346.07	1409.00
346.29	1302.51
346.50	1339.37
346.71	1347.56
346.92	1292.27
347.13	1462.25
347.34	1404.91
347.55	1415.15
347.76	1363.95
347.98	1349.61
348.19	1388.52
348.40	1417.19
348.61	1279.98
348.82	1439.72
349.03	1271.79
349.24	1359.85
349.45	1396.71
349.66	1325.04
349.88	1433.58
350.09	1329.13
350.30	1458.15
350.51	1425.39
350.72	1413.10
350.93	1363.95
351.14	1361.90
351.35	1304.56
351.56	1361.90
351.77	1392.62
351.99	1402.86
352.20	1437.67
352.41	1419.24
352.62	1333.23
352.83	1366.00
353.04	1368.04
353.25	1322.99
353.46	1423.34
353.67	1384.43
353.88	1290.22
354.09	1421.29
354.30	1355.76
354.52	1366.00
354.73	1337.32
354.94	1382.38
355.15	1290.22
355.36	1400.81
355.57	1366.00
355.78	1368.04
355.99	1304.56
356.20	1343.47
356.41	1470.44
356.62	1329.13
356.83	1413.10
357.04	1441.77
357.25	1333.23
357.46	1325.04
357.68	1331.18
357.89	1366.00
358.10	1357.80
358.31	1406.95
358.52	1296.36
358.73	1384.43
358.94	1366.00
359.15	1318.89
359.36	1400.81
359.57	1337.32
359.78	1392.62
359.99	1392.62
360.20	1359.85
360.41	1380.33
360.62	1437.67
360.83	1347.56
361.04	1406.95
361.25	1351.66
361.46	1423.34
361.67	1404.91
361.88	1419.24
362.09	1411.05
362.30	1372.14
362.51	1370.09
362.72	1394.67
362.93	1396.71
363.14	1366.00
363.35	1370.09
363.56	1353.71
363.78	1462.25
363.99	1402.86
364.20	1341.42
364.41	1423.34
364.62	1400.81
364.83	1421.29
365.04	1372.14
365.25	1368.04
365.46	1421.29
365.67	1316.84
365.88	1314.80
366.09	1363.95
366.30	1302.51
366.51	1409.00
366.72	1363.95
366.93	1347.56
367.14	1349.61
367.35	1341.42
367.56	1302.51
367.77	1492.97
367.98	1357.80
368.18	1320.94
368.39	1345.52
368.60	1417.19
368.81	1421.29
369.02	1435.63
369.23	1378.28
369.44	1318.89
369.65	1337.32
369.86	1390.57
370.07	1417.19
370.28	1320.94
370.49	1359.85
370.70	1351.66
370.91	1304.56
371.12	1271.79
371.33	1374.19
371.54	1437.67
371.75	1425.39
371.96	1302.51
372.17	1425.39
372.38	1337.32
372.59	1396.71
372.80	1419.24
373.01	1386.47
373.22	1339.37
373.43	1396.71
373.64	1355.76
373.85	1386.47
374.06	1517.54
374.26	1427.43
374.47	1351.66
374.68	1488.87
374.89	1449.96
375.10	1341.42
375.31	1452.01
375.52	1411.05
375.73	1429.48
375.94	1353.71
376.15	1394.67
376.36	1314.80
376.57	1341.42
376.78	1314.80
376.99	1421.29
377.20	1339.37
377.40	1337.32
377.61	1449.96
377.82	1306.60
378.03	1406.95
378.24	1378.28
378.45	1363.95
378.66	1337.32
378.87	1290.22
379.08	1322.99
379.29	1382.38
379.50	1382.38
379.71	1308.65
379.91	1427.43
380.12	1343.47
380.33	1370.09
380.54	1374.19
380.75	1372.14
380.96	1388.52
381.17	1507.30
381.38	1415.15
381.59	1462.25
381.80	1406.95
382.00	1538.02
382.21	1439.72
382.42	1488.87
382.63	1552.36
382.84	1392.62
383.05	1392.62
383.26	1449.96
383.47	1433.58
383.68	1423.34
383.88	1366.00
384.09	1447.91
384.30	1452.01
384.51	1433.58
384.72	1415.15
384.93	1298.41
385.14	1406.95
385.35	1314.80
385.55	1368.04
385.76	1429.48
385.97	1429.48
386.18	1370.09
386.39	1363.95
386.60	1431.53
386.81	1425.39
387.02	1370.09
387.22	1357.80
387.43	1527.78
387.64	1619.94
387.85	2265.05
388.06	5461.93
388.27	9289.59
388.48	11317.08
388.68	12951.35
388.89	13174.58
389.10	10454.88
389.31	9146.23
389.52	8251.27
389.73	7251.86
389.93	6891.41
390.14	6479.77
390.35	6084.52
390.56	5420.97
390.77	4530.11
390.98	3583.95
391.18	2740.18
391.39	2086.88
391.60	1699.81
391.81	1527.78
392.02	1359.85
392.23	1433.58
392.43	1396.71
392.64	1454.06
392.85	1452.01
393.06	1425.39
393.27	1349.61
393.47	1372.14
393.68	1404.91
393.89	1370.09
394.10	1429.48
394.31	1333.23
394.52	1292.27
394.72	1396.71
394.93	1406.95
395.14	1355.76
395.35	1435.63
395.56	1415.15
395.76	1529.83
395.97	1554.41
396.18	1636.33
396.39	1585.13
396.60	1720.29
396.80	1531.88
397.01	1560.55
397.22	1480.68
397.43	1470.44
397.64	1431.53
397.84	1517.54
398.05	1548.26
398.26	1382.38
398.47	1484.78
398.67	1402.86
398.88	1353.71
399.09	1400.81
399.30	1312.75
399.51	1396.71
399.71	1370.09
399.92	1331.18
400.13	1417.19
400.34	1363.95
400.54	1300.46
400.75	1519.59
400.96	1366.00
401.17	1409.00
401.37	1363.95
401.58	1435.63
401.79	1519.59
402.00	1701.86
402.21	1853.41
402.41	1742.82
402.62	1769.44
402.83	1708.01
403.04	1695.72
403.24	1746.92
403.45	1542.12
403.66	1654.76
403.87	1626.09
404.07	1576.94
404.28	1654.76
404.49	1597.42
404.70	1501.16
404.90	1482.73
405.11	1511.40
405.32	1372.14
405.52	1363.95
405.73	1341.42
405.94	1296.36
406.15	1435.63
406.35	1349.61
406.56	1380.33
406.77	1419.24
406.98	1419.24
407.18	1284.08
407.39	1449.96
407.60	1392.62
407.80	1316.84
408.01	1411.05
408.22	1400.81
408.43	1466.35
408.63	1390.57
408.84	1359.85
409.05	1417.19
409.25	1417.19
409.46	1310.70
409.67	1335.28
409.88	1347.56
410.08	1353.71
410.29	1376.24
410.50	1355.76
410.70	1376.24
410.91	1343.47
411.12	1320.94
411.32	1404.91
411.53	1335.28
411.74	1466.35
411.95	1411.05
412.15	1517.54
412.36	1378.28
412.57	1449.96
412.77	1441.77
412.98	1398.76
413.19	1443.82
413.39	1376.24
413.60	1411.05
413.81	1474.54
414.01	1337.32
414.22	1449.96
414.43	1429.48
414.63	1417.19
414.84	1402.86
415.05	1366.00
415.25	1310.70
415.46	1374.19
415.67	1392.62
415.87	1378.28
416.08	1388.52
416.29	1355.76
416.49	1409.00
416.70	1355.76
416.91	1363.95
417.11	1345.52
417.32	1396.71
417.53	1396.71
417.73	1456.11
417.94	1290.22
418.15	1361.90
418.35	1372.14
418.56	1353.71
418.77	1413.10
418.97	1374.19
419.18	1433.58
419.38	1298.41
419.59	1353.71
419.80	1470.44
420.00	1415.15
420.21	1380.33
420.42	1372.14
420.62	1419.24
420.83	1380.33
421.04	1363.95
421.24	1437.67
421.45	1394.67
421.65	1359.85
421.86	1376.24
422.07	1380.33
422.27	1327.08
422.48	1368.04
422.69	1314.80
422.89	1402.86
423.10	1413.10
423.30	1327.08
423.51	1349.61
423.72	1361.90
423.92	1363.95
424.13	1361.90
424.33	1322.99
424.54	1380.33
424.75	1456.11
424.95	1390.57
425.16	1370.09
425.36	1388.52
425.57	1421.29
425.78	1419.24
425.98	1460.20
426.19	1370.09
426.39	1378.28
426.60	1458.15
426.81	1423.34
427.01	1378.28
427.22	1380.33
427.42	1333.23
427.63	1370.09
427.83	1396.71
428.04	1472.49
428.25	1419.24
428.45	1443.82
428.66	1372.14
428.86	1406.95
429.07	1382.38
429.28	1421.29
429.48	1335.28
429.69	1429.48
429.89	1415.15
430.10	1322.99
430.30	1417.19
430.51	1441.77
430.71	1353.71
430.92	1304.56
431.13	1388.52
431.33	1406.95
431.54	1380.33
431.74	1484.78
431.95	1425.39
432.15	1396.71
432.36	1331.18
432.56	1386.47
432.77	1384.43
432.98	1460.20
433.18	1306.60
433.39	1411.05
433.59	1374.19
433.80	1445.87
434.00	1486.83
434.21	1347.56
434.41	1337.32
434.62	1372.14
434.82	1347.56
435.03	1343.47
435.23	1392.62
435.44	1249.26
435.64	1351.66
435.85	1380.33
436.06	1409.00
436.26	1386.47
436.47	1378.28
436.67	1320.94
436.88	1335.28
437.08	1353.71
437.29	1419.24
437.49	1458.15
437.70	1413.10
437.90	1392.62
438.11	1564.65
438.31	1615.85
438.52	1552.36
438.72	1505.26
438.93	1535.98
439.13	1470.44
439.34	1484.78
439.54	1388.52
439.75	1445.87
439.95	1507.30
440.16	1339.37
440.36	1443.82
440.57	1363.95
440.77	1439.72
440.98	1378.28
441.18	1409.00
441.39	1337.32
441.59	1335.28
441.80	1466.35
442.00	1331.18
442.21	1441.77
442.41	1384.43
442.62	1359.85
442.82	1413.10
443.02	1357.80
443.23	1400.81
443.43	1376.24
443.64	1437.67
443.84	1322.99
444.05	1456.11
444.25	1388.52
444.46	1294.32
444.66	1384.43
444.87	1429.48
445.07	1351.66
445.28	1382.38
445.48	1421.29
445.69	1478.63
445.89	1445.87
446.09	1572.84
446.30	2359.26
446.50	3764.17
446.71	4616.12
446.91	5330.86
447.12	5597.10
447.32	4980.66
447.53	4171.71
447.73	3786.69
447.93	3418.06
448.14	3174.35
448.34	3039.19
448.55	2871.25
448.75	2731.99
448.96	2611.16
449.16	2445.27
449.36	2109.41
449.57	1955.81
449.77	1705.96
449.98	1556.46
450.18	1488.87
450.39	1433.58
450.59	1394.67
450.79	1347.56
451.00	1368.04
451.20	1372.14
451.41	1411.05
451.61	1433.58
451.81	1380.33
452.02	1337.32
452.22	1368.04
452.43	1327.08
452.63	1333.23
452.84	1398.76
453.04	1396.71
453.24	1423.34
453.45	1325.04
453.65	1425.39
453.86	1335.28
454.06	1409.00
454.26	1411.05
454.47	1265.64
454.67	1435.63
454.87	1456.11
455.08	1374.19
455.28	1492.97
455.49	1449.96
455.69	1300.46
455.89	1449.96
456.10	1380.33
456.30	1417.19
456.51	1345.52
456.71	1402.86
456.91	1439.72
457.12	1396.71
457.32	1382.38
457.52	1273.84
457.73	1359.85
457.93	1421.29
458.14	1363.95
458.34	1310.70
458.54	1320.94
458.75	1329.13
458.95	1378.28
459.15	1353.71
459.36	1386.47
459.56	1370.09
459.76	1388.52
459.97	1292.27
460.17	1390.57
460.37	1429.48
460.58	1390.57
460.78	1398.76
460.99	1298.41
461.19	1423.34
461.39	1335.28
461.60	1376.24
461.80	1366.00
462.00	1368.04
462.21	1421.29
462.41	1304.56
462.61	1337.32
462.82	1390.57
463.02	1325.04
463.22	1355.76
463.43	1411.05
463.63	1458.15
463.83	1495.02
464.04	1384.43
464.24	1394.67
464.44	1320.94
464.64	1335.28
464.85	1406.95
465.05	1447.91
465.25	1433.58
465.46	1345.52
465.66	1402.86
465.86	1327.08
466.07	1329.13
466.27	1390.57
466.47	1318.89
466.68	1298.41
466.88	1394.67
467.08	1464.30
467.29	1355.76
467.49	1351.66
467.69	1345.52
467.89	1368.04
468.10	1368.04
468.30	1308.65
468.50	1458.15
468.71	1443.82
468.91	1347.56
469.11	1382.38
469.31	1353.71
469.52	1306.60
469.72	1404.91
469.92	1488.87
470.13	1370.09
470.33	1429.48
470.53	1652.71
470.73	2097.12
470.94	2263.01
471.14	2256.86
471.34	2396.12
471.54	2215.90
471.75	1976.29
471.95	2023.39
472.15	1830.88
472.36	1705.96
472.56	1779.68
472.76	1736.68
472.96	1728.49
473.17	1712.10
473.37	1693.67
473.57	1615.85
473.77	1476.59
473.98	1421.29
474.18	1460.20
474.38	1492.97
474.58	1386.47
474.79	1386.47
474.99	1347.56
475.19	1421.29
475.39	1325.04
475.60	1300.46
475.80	1392.62
476.00	1368.04
476.20	1417.19
476.41	1353.71
476.61	1462.25
476.81	1503.21
477.01	1390.57
477.21	1464.30
477.42	1495.02
477.62	1392.62
477.82	1394.67
478.02	1302.51
478.23	1359.85
478.43	1349.61
478.63	1388.52
478.83	1386.47
479.03	1505.26
479.24	1392.62
479.44	1439.72
479.64	1357.80
479.84	1296.36
480.04	1339.37
480.25	1370.09
480.45	1306.60
480.65	1419.24
480.85	1404.91
481.06	1306.60
481.26	1439.72
481.46	1370.09
481.66	1427.43
481.86	1394.67
482.06	1429.48
482.27	1388.52
482.47	1359.85
482.67	1363.95
482.87	1304.56
483.07	1433.58
483.28	1322.99
483.48	1339.37
483.68	1314.80
483.88	1320.94
484.08	1320.94
484.29	1374.19
484.49	1378.28
484.69	1374.19
484.89	1435.63
485.09	1462.25
485.29	1351.66
485.50	1370.09
485.70	1366.00
485.90	1447.91
486.10	1386.47
486.30	1404.91
486.50	1388.52
486.71	1351.66
486.91	1454.06
487.11	1376.24
487.31	1273.84
487.51	1454.06
487.71	1351.66
487.91	1376.24
488.12	1318.89
488.32	1273.84
488.52	1370.09
488.72	1341.42
488.92	1392.62
489.12	1372.14
489.32	1382.38
489.53	1480.68
489.73	1341.42
489.93	1388.52
490.13	1380.33
490.33	1386.47
490.53	1314.80
490.73	1404.91
490.94	1427.43
491.14	1490.92
491.34	1572.84
491.54	2099.17
491.74	2699.22
491.94	2883.54
492.14	3088.34
492.34	2977.75
492.54	2463.71
492.75	2277.34
492.95	2183.13
493.15	2076.64
493.35	1939.43
493.55	1894.37
493.75	2007.01
493.95	1904.61
494.15	1798.12
494.35	1695.72
494.56	1667.05
494.76	1503.21
494.96	1531.88
495.16	1456.11
495.36	1474.54
495.56	1419.24
495.76	1409.00
495.96	1413.10
496.16	1363.95
496.36	1449.96
496.56	1345.52
496.77	1378.28
496.97	1382.38
497.17	1413.10
497.37	1419.24
497.57	1409.00
497.77	1331.18
497.97	1339.37
498.17	1368.04
498.37	1390.57
498.57	1406.95
498.77	1339.37
498.97	1415.15
499.17	1474.54
499.38	1390.57
499.58	1396.71
499.78	1445.87
499.98	1480.68
500.18	1417.19
500.38	1429.48
500.58	1708.01
500.78	2971.60
500.98	5474.22
501.18	6793.11
501.38	7952.26
501.58	8597.37
501.78	7387.02
501.98	5787.56
502.18	5152.69
502.38	4386.75
502.58	4054.98
502.78	3719.11
502.98	3663.82
503.18	3571.66
503.38	3258.32
503.59	3037.14
503.79	2824.15
503.99	2637.78
504.19	2324.44
504.39	2191.33
504.59	1986.53
504.79	1927.14
504.99	1890.28
505.19	1716.20
505.39	1572.84
505.59	1570.79
505.79	1595.37
505.99	1521.64
506.19	1495.02
506.39	1525.74
506.59	1355.76
506.79	1480.68
506.99	1452.01
507.19	1427.43
507.39	1439.72
507.59	1464.30
507.79	1406.95
507.99	1419.24
508.19	1316.84
508.39	1357.80
508.59	1374.19
508.79	1468.39
508.99	1482.73
509.19	1392.62
509.39	1429.48
509.59	1415.15
509.79	1355.76
509.99	1398.76
510.19	1462.25
510.39	1433.58
510.59	1335.28
510.79	1349.61
510.99	1398.76
511.19	1388.52
511.39	1402.86
511.59	1429.48
511.79	1472.49
511.99	1368.04
512.19	1415.15
512.38	1298.41
512.58	1384.43
512.78	1341.42
512.98	1419.24
513.18	1347.56
513.38	1406.95
513.58	1378.28
513.78	1341.42
513.98	1409.00
514.18	1378.28
514.38	1361.90
514.58	1366.00
514.78	1294.32
514.98	1320.94
515.18	1355.76
515.38	1331.18
515.58	1415.15
515.78	1306.60
515.98	1411.05
516.18	1357.80
516.38	1441.77
516.57	1318.89
516.77	1355.76
516.97	1400.81
517.17	1353.71
517.37	1325.04
517.57	1366.00
517.77	1322.99
517.97	1400.81
518.17	1384.43
518.37	1320.94
518.57	1368.04
518.77	1386.47
518.97	1462.25
519.16	1392.62
519.36	1353.71
519.56	1390.57
519.76	1298.41
519.96	1388.52
520.16	1460.20
520.36	1349.61
520.56	1398.76
520.76	1351.66
520.96	1353.71
521.16	1386.47
521.35	1392.62
521.55	1447.91
521.75	1417.19
521.95	1419.24
522.15	1308.65
522.35	1333.23
522.55	1294.32
522.75	1378.28
522.95	1355.76
523.14	1353.71
523.34	1421.29
523.54	1351.66
523.74	1402.86
523.94	1388.52
524.14	1353.71
524.34	1380.33
524.54	1464.30
524.73	1386.47
524.93	1392.62
525.13	1363.95
525.33	1353.71
525.53	1544.17
525.73	1404.91
525.93	1312.75
526.13	1363.95
526.32	1370.09
526.52	1388.52
526.72	1425.39
526.92	1304.56
527.12	1372.14
527.32	1300.46
527.52	1470.44
527.71	1361.90
527.91	1343.47
528.11	1382.38
528.31	1382.38
528.51	1349.61
528.71	1378.28
528.90	1417.19
529.10	1372.14
529.30	1447.91
529.50	1353.71
529.70	1402.86
529.90	1296.36
530.09	1443.82
530.29	1333.23
530.49	1351.66
530.69	1445.87
530.89	1419.24
531.09	1423.34
531.28	1347.56
531.48	1411.05
531.68	1335.28
531.88	1384.43
532.08	1359.85
532.28	1390.57
532.47	1355.76
532.67	1468.39
532.87	1425.39
533.07	1386.47
533.27	1474.54
533.46	1413.10
533.66	1396.71
533.86	1359.85
534.06	1404.91
534.26	1404.91
534.45	1322.99
534.65	1361.90
534.85	1396.71
535.05	1413.10
535.25	1449.96
535.44	1431.53
535.64	1392.62
535.84	1361.90
536.04	1402.86
536.24	1329.13
536.43	1345.52
536.63	1327.08
536.83	1316.84
537.03	1390.57
537.22	1306.60
537.42	1339.37
537.62	1411.05
537.82	1353.71
538.02	1478.63
538.21	1398.76
538.41	1591.27
538.61	1396.71
538.81	1361.90
539.00	1400.81
539.20	1398.76
539.40	1230.83
539.60	1409.00
539.79	1456.11
539.99	1374.19
540.19	1372.14
540.39	1337.32
540.58	1376.24
540.78	1402.86
540.98	1368.04
541.18	1363.95
541.37	1378.28
541.57	1386.47
541.77	1382.38
541.97	1341.42
542.16	1343.47
542.36	1415.15
542.56	1421.29
542.76	1456.11
542.95	1394.67
543.15	1380.33
543.35	1415.15
543.54	1366.00
543.74	1411.05
543.94	1447.91
544.14	1390.57
544.33	1374.19
544.53	1417.19
544.73	1388.52
544.93	1411.05
545.12	1388.52
545.32	1390.57
545.52	1398.76
545.71	1423.34
545.91	1355.76
546.11	1384.43
546.30	1357.80
546.50	1400.81
546.70	1384.43
546.90	1339.37
547.09	1247.21
547.29	1388.52
547.49	1417.19
547.68	1335.28
547.88	1318.89
548.08	1374.19
548.27	1742.82
548.47	1372.14
548.67	1204.21
548.87	1413.10
549.06	1327.08
549.26	1415.15
549.46	1402.86
549.65	1306.60
549.85	1351.66
550.05	1316.84
550.24	1320.94
550.44	1409.00
550.64	1341.42
550.83	1400.81
551.03	1388.52
551.23	1449.96
551.42	1339.37
551.62	1413.10
551.82	1353.71
552.01	1417.19
552.21	1394.67
552.41	1355.76
552.60	1366.00
552.80	1357.80
553.00	1394.67
553.19	1460.20
553.39	1423.34
553.59	1265.64
553.78	1347.56
553.98	1376.24
554.17	1294.32
554.37	1429.48
554.57	1468.39
554.76	1374.19
554.96	1341.42
555.16	1384.43
555.35	1411.05
555.55	1374.19
555.75	1251.31
555.94	1343.47
556.14	1392.62
556.33	1427.43
556.53	1425.39
556.73	1396.71
556.92	1384.43
557.12	1290.22
557.32	1454.06
557.51	1329.13
557.71	1374.19
557.90	1441.77
558.10	1431.53
558.30	1292.27
558.49	1380.33
558.69	1361.90
558.88	1343.47
559.08	1343.47
559.28	1370.09
559.47	1345.52
559.67	1378.28
559.86	1382.38
560.06	1409.00
560.26	1318.89
560.45	1388.52
560.65	1474.54
560.84	1372.14
561.04	1341.42
561.24	1402.86
561.43	1351.66
561.63	1449.96
561.82	1380.33
562.02	1376.24
562.22	1384.43
562.41	1335.28
562.61	1374.19
562.80	1349.61
563.00	1466.35
563.19	1347.56
563.39	1341.42
563.59	1409.00
563.78	1331.18
563.98	1339.37
564.17	1368.04
564.37	1298.41
564.56	1335.28
564.76	1304.56
564.96	1452.01
565.15	1388.52
565.35	1441.77
565.54	1370.09
565.74	1370.09
565.93	1359.85
566.13	1378.28
566.32	1417.19
566.52	1353.71
566.71	1378.28
566.91	1290.22
567.11	1415.15
567.30	1349.61
567.50	1406.95
567.69	1357.80
567.89	1400.81
568.08	1312.75
568.28	1392.62
568.47	1366.00
568.67	1404.91
568.86	1456.11
569.06	1458.15
569.25	1357.80
569.45	1372.14
569.64	1380.33
569.84	1392.62
570.04	1345.52
570.23	1347.56
570.43	1339.37
570.62	1398.76
570.82	1449.96
571.01	1284.08
571.21	1413.10
571.40	1290.22
571.60	1363.95
571.79	1378.28
571.99	1386.47
572.18	1249.26
572.38	1443.82
572.57	1380.33
572.77	1460.20
572.96	1492.97
573.16	1363.95
573.35	1437.67
573.55	1427.43
573.74	1394.67
573.94	1370.09
574.13	1366.00
574.33	1501.16
574.52	1519.59
574.71	1347.56
574.91	1400.81
575.10	1392.62
575.30	1419.24
575.49	1318.89
575.69	1376.24
575.88	1433.58
576.08	1437.67
576.27	1511.40
576.47	1472.49
576.66	1503.21
576.86	1484.78
577.05	1439.72
577.25	1376.24
577.44	1523.69
577.64	1413.10
577.83	1368.04
578.02	1474.54
578.22	1392.62
578.41	1466.35
578.61	1462.25
578.80	1329.13
579.00	1376.24
579.19	1396.71
579.39	1445.87
579.58	1470.44
579.77	1413.10
579.97	1486.83
580.16	1507.30
580.36	1497.07
580.55	1511.40
580.75	1511.40
580.94	1417.19
581.13	1443.82
581.33	1544.17
581.52	1419.24
581.72	1497.07
581.91	1523.69
582.11	1484.78
582.30	1482.73
582.49	1392.62
582.69	1486.83
582.88	1409.00
583.08	1390.57
583.27	1458.15
583.47	1464.30
583.66	1417.19
583.85	1368.04
584.05	1394.67
584.24	1464.30
584.44	1445.87
584.63	1482.73
584.82	1480.68
585.02	1546.22
585.21	1642.47
585.41	1619.94
585.60	1638.38
585.79	1667.05
585.99	1724.39
586.18	1658.85
586.37	1886.18
586.57	2686.94
586.76	7774.09
586.96	23971.47
587.15	41221.52
587.34	51404.02
587.54	59272.31
587.73	58442.88
587.93	44262.75
588.12	32517.65
588.31	26125.94
588.51	22277.80
588.70	19799.76
588.89	18132.72
589.09	16897.79
589.28	15531.80
589.47	14094.12
589.67	12463.94
589.86	10524.51
590.06	8591.23
590.25	6541.21
590.44	4767.67
590.64	3751.88
590.83	2766.81
591.02	2256.86
591.22	1953.76
591.41	1732.58
591.60	1689.57
591.80	1607.66
591.99	1476.59
592.18	1521.64
592.38	1482.73
592.57	1439.72
592.76	1411.05
592.96	1492.97
593.15	1449.96
593.34	1452.01
593.54	1464.30
593.73	1454.06
593.92	1466.35
594.12	1445.87
594.31	1425.39
594.50	1540.07
594.70	1445.87
594.89	1558.50
595.08	1480.68
595.28	1460.20
595.47	1529.83
595.66	1517.54
595.86	1357.80
596.05	1404.91
596.24	1419.24
596.43	1464.30
596.63	1435.63
596.82	1431.53
597.01	1476.59
597.21	1460.20
597.40	1466.35
597.59	1478.63
597.79	1454.06
597.98	1437.67
598.17	1415.15
598.36	1419.24
598.56	1417.19
598.75	1335.28
598.94	1492.97
599.14	1372.14
599.33	1431.53
599.52	1429.48
599.71	1402.86
599.91	1435.63
600.10	1382.38
600.29	1409.00
600.48	1392.62
600.68	1419.24
600.87	1411.05
601.06	1386.47
601.26	1417.19
601.45	1357.80
601.64	1327.08
601.83	1429.48
602.03	1343.47
602.22	1404.91
602.41	1427.43
602.60	1495.02
602.80	1468.39
602.99	1400.81
603.18	1454.06
603.37	1357.80
603.57	1384.43
603.76	1406.95
603.95	1427.43
604.14	1355.76
604.34	1413.10
604.53	1351.66
604.72	1411.05
604.91	1370.09
605.10	1466.35
605.30	1443.82
605.49	1411.05
605.68	1370.09
605.87	1320.94
606.07	1306.60
606.26	1320.94
606.45	1347.56
606.64	1378.28
606.84	1388.52
607.03	1376.24
607.22	1501.16
607.41	1452.01
607.60	1484.78
607.80	1366.00
607.99	1445.87
608.18	1415.15
608.37	1351.66
608.56	1310.70
608.76	1452.01
608.95	1452.01
609.14	1441.77
609.33	1454.06
609.52	1544.17
609.72	1546.22
609.91	1511.40
610.10	1406.95
610.29	1495.02
610.48	1429.48
610.68	1445.87
610.87	1486.83
611.06	1447.91
611.25	1388.52
611.44	1396.71
611.63	1374.19
611.83	1452.01
612.02	1406.95
612.21	1388.52
612.40	1394.67
612.59	1402.86
612.79	1298.41
612.98	1339.37
613.17	1419.24
613.36	1378.28
613.55	1425.39
613.74	1431.53
613.93	1505.26
614.13	1574.89
614.32	1615.85
614.51	1587.18
614.70	1538.02
614.89	1441.77
615.08	1415.15
615.28	1546.22
615.47	1388.52
615.66	1443.82
615.85	1478.63
616.04	1464.30
616.23	1472.49
616.42	1505.26
616.62	1486.83
616.81	1484.78
617.00	1398.76
617.19	1433.58
617.38	1380.33
617.57	1419.24
617.76	1411.05
617.95	1435.63
618.15	1380.33
618.34	1521.64
618.53	1441.77
618.72	1421.29
618.91	1394.67
619.10	1462.25
619.29	1374.19
619.48	1337.32
619.68	1372.14
619.87	1275.88
620.06	1404.91
620.25	1411.05
620.44	1363.95
620.63	1376.24
620.82	1456.11
621.01	1353.71
621.20	1423.34
621.39	1363.95
621.59	1353.71
621.78	1374.19
621.97	1392.62
622.16	1449.96
622.35	1374.19
622.54	1421.29
622.73	1462.25
622.92	1353.71
623.11	1435.63
623.30	1329.13
623.49	1400.81
623.68	1345.52
623.88	1368.04
624.07	1320.94
624.26	1390.57
624.45	1304.56
624.64	1357.80
624.83	1435.63
625.02	1353.71
625.21	1378.28
625.40	1357.80
625.59	1462.25
625.78	1335.28
625.97	1460.20
626.16	1476.59
626.35	1435.63
626.54	1402.86
626.74	1540.07
626.93	1470.44
627.12	1423.34
627.31	1501.16
627.50	1423.34
627.69	1458.15
627.88	1359.85
628.07	1421.29
628.26	1290.22
628.45	1322.99
628.64	1361.90
628.83	1380.33
629.02	1372.14
629.21	1386.47
629.40	1413.10
629.59	1406.95
629.78	1368.04
629.97	1351.66
630.16	1417.19
630.35	1462.25
630.54	1370.09
630.73	1279.98
630.92	1372.14
631.11	1353.71
631.30	1366.00
631.49	1468.39
631.68	1413.10
631.87	1322.99
632.06	1322.99
632.25	1425.39
632.44	1404.91
632.63	1368.04
632.82	1435.63
633.01	1486.83
633.20	1429.48
633.39	1517.54
633.58	1449.96
633.77	1431.53
633.96	1511.40
634.15	1462.25
634.34	1429.48
634.53	1314.80
634.72	1355.76
634.91	1339.37
635.10	1431.53
635.29	1378.28
635.48	1413.10
635.67	1370.09
635.86	1370.09
636.05	1499.11
636.24	1337.32
636.43	1404.91
636.62	1454.06
636.81	1316.84
637.00	1400.81
637.19	1386.47
637.38	1396.71
637.57	1353.71
637.76	1429.48
637.95	1466.35
638.14	1452.01
638.33	1482.73
638.52	1509.35
638.71	1447.91
638.89	1413.10
639.08	1474.54
639.27	1425.39
639.46	1488.87
639.65	1708.01
639.84	1906.66
640.03	2009.06
640.22	2072.54
640.41	2060.26
640.60	1953.76
640.79	1742.82
640.98	1703.91
641.17	1648.61
641.36	1576.94
641.55	1564.65
641.74	1509.35
641.92	1509.35
642.11	1433.58
642.30	1458.15
642.49	1470.44
642.68	1482.73
642.87	1427.43
643.06	1445.87
643.25	1392.62
643.44	1429.48
643.63	1376.24
643.82	1392.62
644.00	1312.75
644.19	1386.47
644.38	1282.03
644.57	1353.71
644.76	1343.47
644.95	1363.95
645.14	1368.04
645.33	1415.15
645.52	1363.95
645.71	1302.51
645.89	1339.37
646.08	1308.65
646.27	1337.32
646.46	1437.67
646.65	1302.51
646.84	1376.24
647.03	1392.62
647.22	1447.91
647.40	1404.91
647.59	1386.47
647.78	1386.47
647.97	1341.42
648.16	1413.10
648.35	1390.57
648.54	1359.85
648.73	1335.28
648.91	1425.39
649.10	1372.14
649.29	1406.95
649.48	1318.89
649.67	1402.86
649.86	1322.99
650.05	1433.58
650.23	1521.64
650.42	1400.81
650.61	1638.38
650.80	1599.46
650.99	1587.18
651.18	1466.35
651.36	1443.82
651.55	1396.71
651.74	1437.67
651.93	1466.35
652.12	1441.77
652.31	1482.73
652.49	1316.84
652.68	1419.24
652.87	1429.48
653.06	1435.63
653.25	1439.72
653.44	1402.86
653.62	1423.34
653.81	1400.81
654.00	1361.90
654.19	1458.15
654.38	1456.11
654.56	1370.09
654.75	1273.84
654.94	1333.23
655.13	1306.60
655.32	1298.41
655.51	1363.95
655.69	1374.19
655.88	1376.24
656.07	1368.04
656.26	1327.08
656.45	1298.41
656.63	1400.81
656.82	1368.04
657.01	1380.33
657.20	1353.71
657.38	1396.71
657.57	1288.17
657.76	1271.79
657.95	1347.56
658.14	1290.22
658.32	1351.66
658.51	1308.65
658.70	1396.71
658.89	1411.05
659.08	1380.33
659.26	1449.96
659.45	1454.06
659.64	1476.59
659.83	1406.95
660.01	1513.45
660.20	1458.15
660.39	1550.31
660.58	1261.55
660.76	1423.34
660.95	1345.52
661.14	1333.23
661.33	1400.81
661.51	1380.33
661.70	1368.04
661.89	1406.95
662.08	1384.43
662.26	1380.33
662.45	1316.84
662.64	1427.43
662.83	1402.86
663.01	1368.04
663.20	1322.99
663.39	1411.05
663.58	1343.47
663.76	1378.28
663.95	1372.14
664.14	1382.38
664.32	1382.38
664.51	1343.47
664.70	1269.74
664.89	1363.95
665.07	1413.10
665.26	1449.96
665.45	1359.85
665.64	1425.39
665.82	1380.33
666.01	1429.48
666.20	1366.00
666.38	1462.25
666.57	1452.01
666.76	1548.26
666.95	2117.60
667.13	4347.84
667.32	11102.04
667.51	17749.75
667.69	21522.10
667.88	24614.54
668.07	24487.56
668.25	18886.37
668.44	13772.59
668.63	11038.55
668.81	9039.73
669.00	7899.02
669.19	7378.83
669.38	6897.56
669.56	6166.43
669.75	5566.38
669.94	4947.89
670.12	4069.31
670.31	3479.50
670.50	2895.83
670.68	2500.57
670.87	2093.02
671.06	1861.60
671.24	1771.49
671.43	1581.03
671.62	1538.02
671.80	1503.21
671.99	1544.17
672.18	1390.57
672.36	1404.91
672.55	1388.52
672.74	1427.43
672.92	1353.71
673.11	1357.80
673.29	1378.28
673.48	1462.25
673.67	1380.33
673.85	1501.16
674.04	1347.56
674.23	1343.47
674.41	1458.15
674.60	1402.86
674.79	1349.61
674.97	1345.52
675.16	1376.24
675.34	1413.10
675.53	1429.48
675.72	1398.76
675.90	1495.02
676.09	1409.00
676.28	1363.95
676.46	1273.84
676.65	1423.34
676.83	1296.36
677.02	1339.37
677.21	1310.70
677.39	1329.13
677.58	1333.23
677.77	1345.52
677.95	1306.60
678.14	1406.95
678.32	1380.33
678.51	1322.99
678.70	1462.25
678.88	1366.00
679.07	1363.95
679.25	1349.61
679.44	1421.29
679.63	1320.94
679.81	1390.57
680.00	1415.15
680.18	1421.29
680.37	1482.73
680.55	1425.39
680.74	1312.75
680.93	1339.37
681.11	1351.66
681.30	1492.97
681.48	1374.19
681.67	1402.86
681.85	1343.47
682.04	1310.70
682.23	1376.24
682.41	1341.42
682.60	1384.43
682.78	1374.19
682.97	1380.33
683.15	1337.32
683.34	1409.00
683.53	1429.48
683.71	1349.61
683.90	1433.58
684.08	1447.91
684.27	1415.15
684.45	1437.67
684.64	1437.67
684.82	1380.33
685.01	1419.24
685.19	1314.80
685.38	1441.77
685.57	1388.52
685.75	1396.71
685.94	1359.85
686.12	1310.70
686.31	1294.32
686.49	1462.25
686.68	1318.89
686.86	1406.95
687.05	1372.14
687.23	1396.71
687.42	1357.80
687.60	1370.09
687.79	1472.49
687.97	1454.06
688.16	1472.49
688.34	1372.14
688.53	1298.41
688.71	1402.86
688.90	1449.96
689.08	1341.42
689.27	1333.23
689.45	1433.58
689.64	1349.61
689.82	1486.83
690.01	1341.42
690.19	1435.63
690.38	1394.67
690.56	1443.82
690.75	1417.19
690.93	1441.77
691.12	1368.04
691.30	1372.14
691.49	1363.95
691.67	1345.52
691.86	1427.43
692.04	1306.60
692.23	1349.61
692.41	1394.67
692.60	1566.70
692.78	1445.87
692.97	1411.05
693.15	1468.39
693.34	1578.98
693.52	1499.11
693.71	1400.81
693.89	1390.57
694.08	1462.25
694.26	1421.29
694.44	1404.91
694.63	1429.48
694.81	1310.70
695.00	1329.13
695.18	1372.14
695.37	1456.11
695.55	1345.52
695.74	1331.18
695.92	1353.71
696.10	1460.20
696.29	1335.28
696.47	1359.85
696.66	1376.24
696.84	1341.42
697.03	1357.80
697.21	1423.34
697.40	1771.49
697.58	1374.19
697.76	1425.39
697.95	1378.28
698.13	1349.61
698.32	1363.95
698.50	1316.84
698.68	1441.77
698.87	1421.29
699.05	1531.88
699.24	1370.09
699.42	1357.80
699.61	1320.94
699.79	1409.00
699.97	1372.14
700.16	1355.76
700.34	1392.62
700.53	1370.09
700.71	1425.39
700.89	1388.52
701.08	1327.08
701.26	1329.13
701.45	1669.09
701.63	1302.51
701.81	1361.90
702.00	1396.71
702.18	1413.10
702.37	1372.14
702.55	1421.29
702.73	1445.87
702.92	1525.74
703.10	1601.51
703.28	1644.52
703.47	1697.77
703.65	1591.27
703.84	1548.26
704.02	1515.50
704.20	1531.88
704.39	1478.63
704.57	1394.67
704.75	1597.42
704.94	1535.98
705.12	1501.16
705.30	1429.48
705.49	1570.79
705.67	1845.22
705.86	3581.90
706.04	9029.49
706.22	15998.73
706.41	19330.78
706.59	22310.57
706.77	23350.94
706.96	19406.55
707.14	13702.96
707.32	11130.71
707.51	9201.52
707.69	8177.54
707.87	7311.25
708.06	6598.56
708.24	5965.73
708.42	5044.15
708.61	3981.25
708.79	3051.47
708.97	2369.50
709.16	2023.39
709.34	1751.01
709.52	1585.13
709.71	1535.98
709.89	1519.59
710.07	1396.71
710.26	1376.24
710.44	1425.39
710.62	1435.63
710.80	1396.71
710.99	1431.53
711.17	1415.15
711.35	1335.28
711.54	1306.60
711.72	1425.39
711.90	1406.95
712.09	1402.86
712.27	1359.85
712.45	1419.24
712.63	1349.61
712.82	1353.71
713.00	1396.71
713.18	1423.34
713.37	1409.00
713.55	1402.86
713.73	1404.91
713.91	1396.71
714.10	1357.80
714.28	1413.10
714.46	1351.66
714.65	1423.34
714.83	1372.14
715.01	1392.62
715.19	1372.14
715.38	1417.19
715.56	1335.28
715.74	1372.14
715.92	1331.18
716.11	1398.76
716.29	1312.75
716.47	1341.42
716.65	1431.53
716.84	1290.22
717.02	1372.14
717.20	1368.04
717.38	1292.27
717.57	1355.76
717.75	1449.96
717.93	1427.43
718.11	1388.52
718.30	1388.52
718.48	1357.80
718.66	1392.62
718.84	1429.48
719.03	1308.65
719.21	1320.94
719.39	1380.33
719.57	1419.24
719.75	1454.06
719.94	1288.17
720.12	1355.76
720.30	1333.23
720.48	1429.48
720.67	1345.52
720.85	1353.71
721.03	1357.80
721.21	1335.28
721.39	1492.97
721.58	1282.03
721.76	1398.76
721.94	1376.24
722.12	1398.76
722.30	1464.30
722.49	1322.99
722.67	1439.72
722.85	1458.15
723.03	1359.85
723.21	1329.13
723.40	1357.80
723.58	1464.30
723.76	1411.05
723.94	1413.10
724.12	1388.52
724.30	1589.22
724.49	1486.83
724.67	1437.67
724.85	1538.02
725.03	1392.62
725.21	1413.10
725.40	1497.07
725.58	1429.48
725.76	1409.00
725.94	1441.77
726.12	1329.13
726.30	1294.32
726.49	1343.47
726.67	1361.90
726.85	1312.75
727.03	1411.05
727.21	1417.19
727.39	1435.63
727.57	2074.59
727.76	3350.48
727.94	4282.30
728.12	4788.15
728.30	5205.94
728.48	5160.88
728.66	4212.67
728.84	3426.25
729.03	3074.00
729.21	2731.99
729.39	2541.53
729.57	2273.25
729.75	2021.35
729.93	1824.74
730.11	1617.90
730.30	1505.26
730.48	1439.72
730.66	1478.63
730.84	1521.64
731.02	1406.95
731.20	1304.56
731.38	1396.71
731.56	1343.47
731.74	1345.52
731.93	1421.29
732.11	1417.19
732.29	1454.06
732.47	1347.56
732.65	1347.56
732.83	1449.96
733.01	1394.67
733.19	1310.70
733.37	1363.95
733.56	1273.84
733.74	1351.66
733.92	1423.34
734.10	1425.39
734.28	1329.13
734.46	1372.14
734.64	1298.41
734.82	1288.17
735.00	1290.22
735.18	1452.01
735.36	1419.24
735.54	1374.19
735.73	1376.24
735.91	1482.73
736.09	1429.48
736.27	1269.74
736.45	1400.81
736.63	1282.03
736.81	1370.09
736.99	1345.52
737.17	1390.57
737.35	1345.52
737.53	1400.81
737.71	1275.88
737.89	1421.29
738.07	1378.28
738.25	1411.05
738.43	1333.23
738.61	1376.24
738.80	1288.17
738.98	1339.37
739.16	1331.18
739.34	1357.80
739.52	1329.13
739.70	1318.89
739.88	1372.14
740.06	1392.62
740.24	1335.28
740.42	1361.90
740.60	1304.56
740.78	1316.84
740.96	1298.41
741.14	1335.28
741.32	1409.00
741.50	1398.76
741.68	1427.43
741.86	1366.00
742.04	1404.91
742.22	1351.66
742.40	1363.95
742.58	1388.52
742.76	1341.42
742.94	1384.43
743.12	1314.80
743.30	1437.67
743.48	1382.38
743.66	1404.91
743.84	1370.09
744.02	1343.47
744.20	1384.43
744.38	1400.81
744.56	1331.18
744.74	1415.15
744.92	1413.10
745.10	1482.73
745.28	1388.52
745.46	1386.47
745.64	1361.90
745.82	1374.19
746.00	1327.08
746.18	1425.39
746.36	1292.27
746.54	1368.04
746.72	1331.18
746.90	1366.00
747.08	1456.11
747.26	1419.24
747.44	1413.10
747.62	1351.66
747.80	1404.91
747.98	1359.85
748.15	1329.13
748.33	1413.10
748.51	1390.57
748.69	1378.28
748.87	1333.23
749.05	1386.47
749.23	1396.71
749.41	1423.34
749.59	1404.91
749.77	1396.71
749.95	1337.32
750.13	1341.42
750.31	1380.33
750.49	1339.37
750.67	1470.44
750.85	1390.57
751.03	1372.14
751.20	1406.95
751.38	1353.71
751.56	1275.88
751.74	1374.19
751.92	1335.28
752.10	1349.61
752.28	1439.72
752.46	1394.67
752.64	1322.99
752.82	1366.00
753.00	1417.19
753.18	1435.63
753.35	1456.11
753.53	1331.18
753.71	1386.47
753.89	1355.76
754.07	1400.81
754.25	1443.82
754.43	1380.33
754.61	1306.60
754.79	1300.46
754.97	1366.00
755.14	1396.71
755.32	1331.18
755.50	1390.57
755.68	1368.04
755.86	1294.32
756.04	1337.32
756.22	1382.38
756.40	1452.01
756.57	1355.76
756.75	1454.06
756.93	1415.15
757.11	1386.47
757.29	1331.18
757.47	1372.14
757.65	1345.52
757.82	1296.36
758.00	1384.43
758.18	1359.85
758.36	1335.28
758.54	1447.91
758.72	1361.90
758.90	1427.43
759.07	1372.14
759.25	1361.90
759.43	1329.13
759.61	1347.56
759.79	1603.56
759.97	1411.05
760.15	1302.51
760.32	1333.23
760.50	1374.19
760.68	1431.53
760.86	1310.70
761.04	1437.67
761.22	1415.15
761.39	1320.94
761.57	1349.61
761.75	1357.80
761.93	1337.32
762.11	1374.19
762.28	1359.85
762.46	1316.84
762.64	1398.76
762.82	1292.27
763.00	1327.08
763.18	1394.67
763.35	1288.17
763.53	1392.62
763.71	1376.24
763.89	1355.76
764.07	1409.00
764.24	1394.67
764.42	1376.24
764.60	1329.13
764.78	1419.24
764.96	1413.10
765.13	1388.52
765.31	1320.94
765.49	1402.86
765.67	1296.36
765.84	1306.60
766.02	1304.56
766.20	1320.94
766.38	1353.71
766.56	1355.76
766.73	1363.95
766.91	1406.95
767.09	1382.38
767.27	1406.95
767.44	1368.04
767.62	1456.11
767.80	1331.18
767.98	1304.56
768.15	1384.43
768.33	1396.71
768.51	1388.52
768.69	1384.43
768.87	1341.42
769.04	1466.35
769.22	1490.92
769.40	1396.71
769.58	1462.25
769.75	1386.47
769.93	1355.76
770.11	1361.90
770.28	1282.03
770.46	1368.04
770.64	1380.33
770.82	1325.04
770.99	1372.14
771.17	1427.43
771.35	1320.94
771.53	1425.39
771.70	1413.10
771.88	1325.04
772.06	1366.00
772.23	1357.80
772.41	1343.47
772.59	1335.28
772.77	1361.90
772.94	1339.37
773.12	1366.00
773.30	1386.47
773.47	1490.92
773.65	1337.32
773.83	1443.82
774.01	1353.71
774.18	1261.55
774.36	1322.99
774.54	1312.75
774.71	1359.85
774.89	1372.14
775.07	1378.28
775.24	1388.52
775.42	1339.37
775.60	1439.72
775.78	1349.61
775.95	1320.94
776.13	1245.16
776.31	1259.50
776.48	1409.00
776.66	1312.75
776.84	1361.90
777.01	1312.75
777.19	1357.80
777.37	1478.63
777.54	1366.00
777.72	1478.63
777.90	1443.82
778.07	1406.95
778.25	1492.97
778.43	1378.28
778.60	1320.94
778.78	1404.91
778.96	1380.33
779.13	1380.33
779.31	1394.67
779.49	1392.62
779.66	1314.80
779.84	1310.70
780.01	1363.95
780.19	1322.99
780.37	1335.28
780.54	1357.80
780.72	1349.61
780.90	1366.00
781.07	1421.29
781.25	1398.76
781.43	1404.91
781.60	1400.81
781.78	1400.81
781.95	1421.29
782.13	1363.95
782.31	1380.33
782.48	1333.23
782.66	1394.67
782.83	1480.68
783.01	1343.47
783.19	1390.57
783.36	1376.24
783.54	1333.23
783.72	1439.72
783.89	1449.96
784.07	1343.47
784.24	1466.35
784.42	1400.81
784.60	1384.43
784.77	1372.14
784.95	1228.78
785.12	1341.42
785.30	1322.99
785.47	1314.80
785.65	1282.03
785.83	1400.81
786.00	1329.13
786.18	1353.71
786.35	1337.32
786.53	1353.71
786.71	1404.91
786.88	1404.91
787.06	1363.95
787.23	1382.38
787.41	1384.43
787.58	1327.08
787.76	1335.28
787.94	1345.52
788.11	1343.47
788.29	1384.43
788.46	1406.95
788.64	1306.60
788.81	1339.37
788.99	1333.23
789.16	1247.21
789.34	1429.48
789.52	1363.95
789.69	1345.52
789.87	1290.22
790.04	1415.15
790.22	1370.09
790.39	1511.40
790.57	1380.33
790.74	1361.90
790.92	1368.04
791.09	1247.21
791.27	1409.00
791.44	1431.53
791.62	1413.10
791.79	1394.67
791.97	1314.80
792.15	1435.63
792.32	1366.00
792.50	1382.38
792.67	1437.67
792.85	1413.10
793.02	1355.76
793.20	1394.67
793.37	1222.64
793.55	1425.39
793.72	1345.52
793.90	1390.57
794.07	1361.90
794.25	1335.28
794.42	1322.99
794.60	1384.43
794.77	1345.52
794.95	1400.81
795.12	1341.42
795.30	1413.10
795.47	1255.40
795.65	1484.78
795.82	1370.09
796.00	1368.04
796.17	1343.47
796.34	1380.33
796.52	1370.09
796.69	1372.14
796.87	1390.57
797.04	1419.24
797.22	1388.52
797.39	1429.48
797.57	1437.67
797.74	1390.57
797.92	1433.58
798.09	1316.84
798.27	1363.95
798.44	1320.94
798.62	1345.52
798.79	1396.71
798.96	1400.81
799.14	1368.04
799.31	1466.35
799.49	1359.85
799.66	1349.61
799.84	1406.95
800.01	1353.71
800.19	1435.63
800.36	1322.99
800.53	1325.04
800.71	1368.04
800.88	1376.24
801.06	1363.95
801.23	1327.08
801.41	1382.38
801.58	1339.37
801.75	1388.52
801.93	1411.05
802.10	1316.84
802.28	1337.32
802.45	1359.85
802.63	1474.54
802.80	1404.91
802.97	1380.33
803.15	1370.09
803.32	1351.66
803.50	1404.91
803.67	1376.24
803.84	1294.32
804.02	1378.28
804.19	1335.28
804.37	1322.99
804.54	1298.41
804.71	1372.14
804.89	1359.85
805.06	1259.50
805.24	1366.00
805.41	1419.24
805.58	1345.52
805.76	1452.01
805.93	1411.05
806.10	1443.82
806.28	1445.87
806.45	1388.52
806.63	1290.22
806.80	1374.19
806.97	1406.95
807.15	1322.99
807.32	1400.81
807.49	1388.52
807.67	1374.19
807.84	1406.95
808.01	1429.48
808.19	1435.63
808.36	1437.67
808.54	1361.90
808.71	1402.86
808.88	1363.95
809.06	1380.33
809.23	1361.90
809.40	1333.23
809.58	1419.24
809.75	1316.84
809.92	1298.41
810.10	1466.35
810.27	1318.89
810.44	1368.04
810.62	1390.57
810.79	1411.05
810.96	1376.24
811.14	1261.55
811.31	1355.76
811.48	1298.41
811.66	1339.37
811.83	1359.85
812.00	1390.57
812.18	1374.19
812.35	1378.28
812.52	1316.84
812.69	1335.28
812.87	1353.71
813.04	1275.88
813.21	1421.29
813.39	1376.24
813.56	1298.41
813.73	1437.67
813.91	1300.46
814.08	1331.18
814.25	1357.80
814.42	1298.41
814.60	1357.80
814.77	1390.57
814.94	1368.04
815.12	1388.52
815.29	1341.42
815.46	1345.52
815.63	1331.18
815.81	1339.37
815.98	1347.56
816.15	1341.42
816.33	1353.71
816.50	1320.94
816.67	1404.91
816.84	1339.37
817.02	1382.38
817.19	1337.32
817.36	1421.29
817.53	1394.67
817.71	1257.45
817.88	1318.89
818.05	1382.38
818.22	1304.56
818.40	1429.48
818.57	1341.42
818.74	1415.15
818.91	1388.52
819.09	1449.96
819.26	1402.86
819.43	1368.04
819.60	1386.47
819.78	1382.38
819.95	1376.24
820.12	1302.51
820.29	1425.39
820.47	1398.76
820.64	1320.94
820.81	1325.04
820.98	1353.71
821.15	1290.22
821.33	1413.10
821.50	1353.71
821.67	1429.48
821.84	1370.09
822.02	1363.95
822.19	1458.15
822.36	1329.13
822.53	1415.15
822.70	1370.09
822.88	1308.65
823.05	1372.14
823.22	1343.47
823.39	1343.47
823.56	1345.52
823.74	1449.96
823.91	1353.71
824.08	1345.52
824.25	1353.71
824.42	1415.15
824.60	1351.66
824.77	1355.76
824.94	1298.41
825.11	1396.71
825.28	1302.51
825.45	1363.95
825.63	1361.90
825.80	1267.69
825.97	1312.75
826.14	1423.34
826.31	1298.41
826.48	1378.28
826.66	1312.75
826.83	1366.00
827.00	1376.24
827.17	1370.09
827.34	1339.37
827.51	1312.75
827.69	1376.24
827.86	1320.94
828.03	1335.28
828.20	1370.09
828.37	1370.09
828.54	1388.52
828.71	1347.56
828.89	1392.62
829.06	1347.56
829.23	1411.05
829.40	1361.90
829.57	1378.28
829.74	1359.85
829.91	1376.24
830.09	1331.18
830.26	1409.00
830.43	1445.87
830.60	1368.04
830.77	1421.29
830.94	1404.91
831.11	1349.61
831.28	1411.05
831.46	1413.10
831.63	1331.18
831.80	1417.19
831.97	1327.08
832.14	1322.99
832.31	1404.91
832.48	1380.33
832.65	1411.05
832.82	1314.80
832.99	1337.32
833.17	1347.56
833.34	1447.91
833.51	1423.34
833.68	1292.27
833.85	1443.82
834.02	1294.32
834.19	1310.70
834.36	1357.80
834.53	1335.28
834.70	1409.00
834.87	1394.67
835.04	1335.28
835.22	1343.47
835.39	1353.71
835.56	1275.88
835.73	1320.94
835.90	1400.81
836.07	1322.99
836.24	1372.14
836.41	1355.76
836.58	1339.37
836.75	1320.94
836.92	1372.14
837.09	1320.94
837.26	1374.19
837.43	1359.85
837.60	1409.00
837.77	1366.00
837.94	1345.52
838.12	1511.40
838.29	1417.19
838.46	1275.88
838.63	1327.08
838.80	1437.67
838.97	1484.78
839.14	1359.85
839.31	1316.84
839.48	1384.43
839.65	1294.32
839.82	1370.09
839.99	1368.04
840.16	1468.39
840.33	1388.52
840.50	1320.94
840.67	1366.00
840.84	1265.64
841.01	1341.42
841.18	1349.61
841.35	1322.99
841.52	1390.57
841.69	1435.63
841.86	1329.13
842.03	1368.04
842.20	1417.19
842.37	1357.80
842.54	1361.90
842.71	1343.47
842.88	1361.90
843.05	1355.76
843.22	1398.76
843.39	1464.30
843.56	1339.37
843.73	1370.09
843.90	1468.39
844.07	1415.15
844.24	1478.63
844.41	1294.32
844.58	1398.76
844.75	1343.47
844.92	1454.06
845.09	1322.99
845.26	1347.56
845.43	1388.52
845.60	1333.23
845.77	1400.81
845.94	1359.85
846.10	1384.43
846.27	1271.79
846.44	1325.04
846.61	1353.71
846.78	1320.94
846.95	1390.57
847.12	1353.71
847.29	1396.71
847.46	1357.80
847.63	1417.19
847.80	1374.19
847.97	1392.62
848.14	1396.71
848.31	1277.93
848.48	1372.14
848.65	1382.38
848.82	1298.41
848.98	1472.49
849.15	1322.99
849.32	1417.19
849.49	1325.04
849.66	1335.28
849.83	1357.80
850.00	1271.79
850.17	1335.28
850.34	1417.19
850.51	1312.75
850.68	1335.28
850.85	1380.33
851.01	1396.71
851.18	1296.36
851.35	1400.81
851.52	1406.95
851.69	1505.26
851.86	1310.70
852.03	1310.70
852.20	1404.91
852.37	1355.76
852.53	1294.32
852.70	1345.52
852.87	1466.35
853.04	1419.24
853.21	1349.61
853.38	1394.67
853.55	1380.33
853.72	1433.58
853.89	1339.37
854.05	1257.45
854.22	1404.91
854.39	1445.87
854.56	1368.04
854.73	1374.19
854.90	1355.76
855.07	1427.43
855.23	1361.90
855.40	1363.95
855.57	1267.69
855.74	1318.89
855.91	1370.09
856.08	1331.18
856.25	1331.18
856.41	1314.80
856.58	1380.33
856.75	1380.33
856.92	1304.56
857.09	1380.33
857.26	1345.52
857.42	1363.95
857.59	1368.04
857.76	1304.56
857.93	1421.29
858.10	1398.76
858.27	1427.43
858.43	1353.71
858.60	1284.08
858.77	1339.37
858.94	1400.81
859.11	1345.52
859.27	1335.28
859.44	1341.42
859.61	1429.48
859.78	1327.08
859.95	1347.56
860.12	1376.24
860.28	1419.24
860.45	1394.67
860.62	1271.79
860.79	1357.80
860.95	1359.85
861.12	1329.13
861.29	1388.52
861.46	1394.67
861.63	1335.28
861.79	1318.89
861.96	1366.00
862.13	1325.04
862.30	1376.24
862.47	1306.60
862.63	1308.65
862.80	1445.87
862.97	1390.57
863.14	1368.04
863.30	1357.80
863.47	1361.90
863.64	1433.58
863.81	1413.10
863.97	1392.62
864.14	1406.95
864.31	1320.94
864.48	1337.32
864.65	1366.00
864.81	1376.24
864.98	1415.15
865.15	1368.04
865.32	1392.62
865.48	1351.66
865.65	1398.76
865.82	1331.18
865.98	1394.67
866.15	1452.01
866.32	1320.94
866.49	1392.62
866.65	1411.05
866.82	1306.60
866.99	1347.56
867.16	1390.57
867.32	1325.04
867.49	1392.62
867.66	1370.09
867.83	1333.23
867.99	1353.71
868.16	1417.19
868.33	1275.88
868.49	1308.65
868.66	1341.42
868.83	1421.29
868.99	1411.05
869.16	1378.28
869.33	1421.29
869.50	1380.33
869.66	1384.43
869.83	1349.61
870.00	1298.41
870.16	1386.47
870.33	1398.76
870.50	1363.95
870.66	1359.85
870.83	1396.71
871.00	1329.13
871.17	1394.67
871.33	1398.76
871.50	1394.67
871.67	1314.80
871.83	1329.13
872.00	1404.91
872.17	1322.99
872.33	1331.18
872.50	1404.91
872.67	1322.99
872.83	1331.18
873.00	1384.43
873.17	1396.71
873.33	1409.00
873.50	1425.39
873.67	1318.89
873.83	1279.98
874.00	1394.67
874.16	1337.32
874.33	1409.00
874.50	1378.28
874.66	1417.19
874.83	1351.66
875.00	1366.00
875.16	1384.43
875.33	1404.91
875.50	1347.56
875.66	1343.47
875.83	1400.81
875.99	1443.82
876.16	1339.37
876.33	1347.56
876.49	1396.71
876.66	1413.10
876.83	1406.95
876.99	1269.74
877.16	1343.47
877.32	1406.95
877.49	1259.50
877.66	1351.66
877.82	1363.95
877.99	1329.13
878.15	1419.24
878.32	1339.37
878.49	1310.70
878.65	1343.47
878.82	1427.43
878.98	1298.41
879.15	1396.71
879.32	1490.92
879.48	1447.91
879.65	1404.91
879.81	1279.98
879.98	1347.56
880.15	1351.66
880.31	1368.04
880.48	1337.32
880.64	1452.01
880.81	1439.72
880.97	1427.43
881.14	1361.90
881.31	1302.51
881.47	1437.67
881.64	1347.56
881.80	1306.60
881.97	1402.86
882.13	1372.14
882.30	1298.41
882.47	1357.80
882.63	1298.41
882.80	1384.43
882.96	1318.89
883.13	1355.76
883.29	1425.39
883.46	1417.19
883.62	1400.81
883.79	1400.81
883.95	1380.33
884.12	1320.94
884.29	1413.10
884.45	1333.23
884.62	1447.91
884.78	1341.42
884.95	1363.95
885.11	1359.85
885.28	1396.71
885.44	1357.80
885.61	1460.20
885.77	1445.87
885.94	1437.67
886.10	1335.28
886.27	1421.29
886.43	1392.62
886.60	1435.63
886.76	1318.89
886.93	1310.70
887.09	1314.80
887.26	1343.47
887.42	1388.52
887.59	1421.29
887.75	1394.67
887.92	1380.33
888.08	1398.76
888.25	1468.39
888.41	1413.10
888.58	1449.96
888.74	1292.27
888.91	1366.00
>>>>>End Processed Spectral Data<<<<<
