SpectraSuite Data File
++++++++++++++++++++++++++++++++++++
Date: Tue May 03 11:24:34 CEST 2016
User: root
Dark Spectrum Present: No
Reference Spectrum Present: No
Number of Sampled Component Spectra: 1
Spectrometers: USB4C02835
Integration Time (usec): 100000 (USB4C02835)
Spectra Averaged: 1 (USB4C02835)
Boxcar Smoothing: 0 (USB4C02835)
Correct for Electrical Dark: No (USB4C02835)
Strobe/Lamp Enabled: No (USB4C02835)
Correct for Detector Non-linearity: No (USB4C02835)
Correct for Stray Light: No (USB4C02835)
Number of Pixels in Processed Spectrum: 3648
>>>>>Begin Processed Spectral Data<<<<<
177.47	1200.11
177.69	1200.11
177.91	1200.11
178.13	1284.08
178.36	1185.77
178.58	1351.66
178.80	1327.08
179.02	1368.04
179.24	1294.32
179.46	1353.71
179.68	1392.62
179.90	1236.97
180.13	1374.19
180.35	1433.58
180.57	1341.42
180.79	1372.14
181.01	1390.57
181.23	1372.14
181.45	1417.19
181.67	1388.52
181.90	1355.76
182.12	1343.47
182.34	1361.90
182.56	1380.33
182.78	1417.19
183.00	1370.09
183.22	1392.62
183.44	1318.89
183.66	1419.24
183.89	1511.40
184.11	1441.77
184.33	1296.36
184.55	1384.43
184.77	1452.01
184.99	1435.63
185.21	1288.17
185.43	1388.52
185.65	1345.52
185.87	1345.52
186.10	1398.76
186.32	1427.43
186.54	1394.67
186.76	1372.14
186.98	1384.43
187.20	1329.13
187.42	1337.32
187.64	1476.59
187.86	1345.52
188.08	1390.57
188.30	1392.62
188.52	1388.52
188.75	1439.72
188.97	1370.09
189.19	1392.62
189.41	1361.90
189.63	1374.19
189.85	1359.85
190.07	1304.56
190.29	1380.33
190.51	1345.52
190.73	1298.41
190.95	1355.76
191.17	1357.80
191.39	1318.89
191.61	1265.64
191.84	1341.42
192.06	1351.66
192.28	1312.75
192.50	1415.15
192.72	1308.65
192.94	1341.42
193.16	1335.28
193.38	1380.33
193.60	1353.71
193.82	1380.33
194.04	1396.71
194.26	1374.19
194.48	1310.70
194.70	1343.47
194.92	1400.81
195.14	1380.33
195.36	1388.52
195.58	1284.08
195.80	1404.91
196.02	1329.13
196.24	1343.47
196.46	1419.24
196.69	1298.41
196.91	1472.49
197.13	1359.85
197.35	1306.60
197.57	1337.32
197.79	1396.71
198.01	1439.72
198.23	1476.59
198.45	1347.56
198.67	1347.56
198.89	1363.95
199.11	1429.48
199.33	1347.56
199.55	1314.80
199.77	1302.51
199.99	1413.10
200.21	1286.12
200.43	1406.95
200.65	1333.23
200.87	1327.08
201.09	1351.66
201.31	1384.43
201.53	1437.67
201.75	1396.71
201.97	1411.05
202.19	1296.36
202.41	1404.91
202.63	1339.37
202.85	1392.62
203.07	1353.71
203.29	1382.38
203.51	1345.52
203.73	1421.29
203.95	1505.26
204.17	1376.24
204.39	1390.57
204.61	1363.95
204.83	1325.04
205.05	1433.58
205.27	1370.09
205.49	1433.58
205.71	1347.56
205.93	1351.66
206.15	1306.60
206.37	1398.76
206.59	1345.52
206.81	1300.46
207.03	1363.95
207.25	1337.32
207.47	1382.38
207.69	1433.58
207.91	1415.15
208.13	1472.49
208.34	1316.84
208.56	1292.27
208.78	1341.42
209.00	1406.95
209.22	1370.09
209.44	1425.39
209.66	1325.04
209.88	1327.08
210.10	1273.84
210.32	1304.56
210.54	1404.91
210.76	1368.04
210.98	1431.53
211.20	1296.36
211.42	1382.38
211.64	1404.91
211.86	1380.33
212.08	1359.85
212.30	1306.60
212.52	1355.76
212.74	1341.42
212.96	1349.61
213.17	1396.71
213.39	1462.25
213.61	1474.54
213.83	1443.82
214.05	1306.60
214.27	1335.28
214.49	1329.13
214.71	1318.89
214.93	1411.05
215.15	1374.19
215.37	1363.95
215.59	1314.80
215.81	1474.54
216.03	1419.24
216.24	1368.04
216.46	1353.71
216.68	1351.66
216.90	1347.56
217.12	1396.71
217.34	1368.04
217.56	1325.04
217.78	1419.24
218.00	1372.14
218.22	1363.95
218.44	1419.24
218.66	1353.71
218.87	1419.24
219.09	1341.42
219.31	1449.96
219.53	1386.47
219.75	1386.47
219.97	1402.86
220.19	1462.25
220.41	1300.46
220.63	1402.86
220.85	1400.81
221.06	1372.14
221.28	1421.29
221.50	1384.43
221.72	1417.19
221.94	1366.00
222.16	1370.09
222.38	1433.58
222.60	1443.82
222.82	1361.90
223.03	1402.86
223.25	1286.12
223.47	1499.11
223.69	1443.82
223.91	1363.95
224.13	1400.81
224.35	1378.28
224.57	1398.76
224.78	1329.13
225.00	1282.03
225.22	1413.10
225.44	1329.13
225.66	1396.71
225.88	1372.14
226.10	1443.82
226.32	1372.14
226.53	1417.19
226.75	1322.99
226.97	1406.95
227.19	1310.70
227.41	1366.00
227.63	1394.67
227.85	1345.52
228.06	1296.36
228.28	1353.71
228.50	1458.15
228.72	1361.90
228.94	1361.90
229.16	1345.52
229.37	1343.47
229.59	1372.14
229.81	1388.52
230.03	1288.17
230.25	1296.36
230.47	1308.65
230.69	1320.94
230.90	1421.29
231.12	1378.28
231.34	1366.00
231.56	1409.00
231.78	1388.52
232.00	1351.66
232.21	1427.43
232.43	1363.95
232.65	1261.55
232.87	1392.62
233.09	1290.22
233.30	1376.24
233.52	1351.66
233.74	1329.13
233.96	1413.10
234.18	1320.94
234.40	1349.61
234.61	1390.57
234.83	1306.60
235.05	1284.08
235.27	1458.15
235.49	1439.72
235.70	1409.00
235.92	1411.05
236.14	1316.84
236.36	1382.38
236.58	1290.22
236.79	1331.18
237.01	1288.17
237.23	1343.47
237.45	1368.04
237.67	1384.43
237.88	1312.75
238.10	1404.91
238.32	1318.89
238.54	1345.52
238.76	1402.86
238.97	1378.28
239.19	1355.76
239.41	1363.95
239.63	1433.58
239.85	1435.63
240.06	1331.18
240.28	1384.43
240.50	1392.62
240.72	1388.52
240.93	1433.58
241.15	1347.56
241.37	1322.99
241.59	1505.26
241.81	1314.80
242.02	1363.95
242.24	1464.30
242.46	1351.66
242.68	1370.09
242.89	1366.00
243.11	1333.23
243.33	1361.90
243.55	1427.43
243.76	1468.39
243.98	1257.45
244.20	1423.34
244.42	1411.05
244.64	1404.91
244.85	1409.00
245.07	1292.27
245.29	1419.24
245.51	1331.18
245.72	1419.24
245.94	1296.36
246.16	1322.99
246.38	1415.15
246.59	1335.28
246.81	1347.56
247.03	1314.80
247.24	1357.80
247.46	1353.71
247.68	1402.86
247.90	1331.18
248.11	1325.04
248.33	1501.16
248.55	1421.29
248.77	1353.71
248.98	1386.47
249.20	1411.05
249.42	1337.32
249.64	1413.10
249.85	1363.95
250.07	1331.18
250.29	1400.81
250.50	1370.09
250.72	1411.05
250.94	1390.57
251.16	1433.58
251.37	1351.66
251.59	1423.34
251.81	1345.52
252.02	1288.17
252.24	1275.88
252.46	1400.81
252.68	1275.88
252.89	1366.00
253.11	1312.75
253.33	1466.35
253.54	1396.71
253.76	1316.84
253.98	1347.56
254.20	1406.95
254.41	1255.40
254.63	1341.42
254.85	1392.62
255.06	1368.04
255.28	1310.70
255.50	1318.89
255.71	1361.90
255.93	1316.84
256.15	1310.70
256.36	1413.10
256.58	1327.08
256.80	1396.71
257.02	1400.81
257.23	1402.86
257.45	1376.24
257.67	1366.00
257.88	1347.56
258.10	1431.53
258.32	1349.61
258.53	1368.04
258.75	1439.72
258.97	1320.94
259.18	1486.83
259.40	1404.91
259.62	1390.57
259.83	1374.19
260.05	1396.71
260.27	1482.73
260.48	1382.38
260.70	1290.22
260.92	1390.57
261.13	1431.53
261.35	1423.34
261.57	1290.22
261.78	1255.40
262.00	1357.80
262.22	1345.52
262.43	1335.28
262.65	1374.19
262.86	1382.38
263.08	1456.11
263.30	1337.32
263.51	1335.28
263.73	1345.52
263.95	1372.14
264.16	1331.18
264.38	1318.89
264.60	1337.32
264.81	1355.76
265.03	1378.28
265.25	1376.24
265.46	1382.38
265.68	1361.90
265.89	1345.52
266.11	1425.39
266.33	1361.90
266.54	1417.19
266.76	1351.66
266.98	1417.19
267.19	1372.14
267.41	1361.90
267.62	1380.33
267.84	1357.80
268.06	1435.63
268.27	1431.53
268.49	1357.80
268.70	1409.00
268.92	1333.23
269.14	1347.56
269.35	1378.28
269.57	1437.67
269.79	1392.62
270.00	1355.76
270.22	1454.06
270.43	1380.33
270.65	1273.84
270.87	1398.76
271.08	1411.05
271.30	1345.52
271.51	1351.66
271.73	1406.95
271.95	1454.06
272.16	1480.68
272.38	1355.76
272.59	1351.66
272.81	1320.94
273.02	1296.36
273.24	1384.43
273.46	1322.99
273.67	1325.04
273.89	1349.61
274.10	1314.80
274.32	1345.52
274.54	1370.09
274.75	1415.15
274.97	1382.38
275.18	1366.00
275.40	1327.08
275.61	1458.15
275.83	1372.14
276.05	1327.08
276.26	1406.95
276.48	1388.52
276.69	1357.80
276.91	1292.27
277.12	1404.91
277.34	1347.56
277.55	1421.29
277.77	1406.95
277.99	1359.85
278.20	1325.04
278.42	1366.00
278.63	1322.99
278.85	1380.33
279.06	1384.43
279.28	1374.19
279.49	1351.66
279.71	1374.19
279.93	1372.14
280.14	1411.05
280.36	1331.18
280.57	1316.84
280.79	1382.38
281.00	1374.19
281.22	1359.85
281.43	1419.24
281.65	1294.32
281.86	1277.93
282.08	1402.86
282.29	1361.90
282.51	1437.67
282.73	1310.70
282.94	1329.13
283.16	1398.76
283.37	1425.39
283.59	1357.80
283.80	1409.00
284.02	1331.18
284.23	1384.43
284.45	1388.52
284.66	1292.27
284.88	1275.88
285.09	1361.90
285.31	1322.99
285.52	1327.08
285.74	1306.60
285.95	1402.86
286.17	1347.56
286.38	1349.61
286.60	1304.56
286.81	1372.14
287.03	1396.71
287.24	1353.71
287.46	1394.67
287.67	1384.43
287.89	1462.25
288.10	1392.62
288.32	1368.04
288.53	1488.87
288.75	1427.43
288.96	1351.66
289.18	1363.95
289.39	1349.61
289.61	1400.81
289.82	1517.54
290.04	1437.67
290.25	1372.14
290.47	1376.24
290.68	1269.74
290.90	1370.09
291.11	1353.71
291.33	1470.44
291.54	1294.32
291.76	1329.13
291.97	1425.39
292.18	1355.76
292.40	1351.66
292.61	1413.10
292.83	1421.29
293.04	1435.63
293.26	1370.09
293.47	1312.75
293.69	1374.19
293.90	1372.14
294.12	1327.08
294.33	1378.28
294.55	1370.09
294.76	1406.95
294.97	1380.33
295.19	1472.49
295.40	1396.71
295.62	1392.62
295.83	1425.39
296.05	1355.76
296.26	1392.62
296.48	1316.84
296.69	1388.52
296.90	1388.52
297.12	1419.24
297.33	1370.09
297.55	1300.46
297.76	1390.57
297.98	1392.62
298.19	1314.80
298.41	1363.95
298.62	1372.14
298.83	1421.29
299.05	1329.13
299.26	1320.94
299.48	1396.71
299.69	1320.94
299.90	1396.71
300.12	1349.61
300.33	1443.82
300.55	1388.52
300.76	1404.91
300.98	1302.51
301.19	1331.18
301.40	1392.62
301.62	1308.65
301.83	1417.19
302.05	1349.61
302.26	1366.00
302.47	1368.04
302.69	1370.09
302.90	1368.04
303.12	1294.32
303.33	1470.44
303.54	1396.71
303.76	1372.14
303.97	1406.95
304.19	1404.91
304.40	1351.66
304.61	1388.52
304.83	1458.15
305.04	1435.63
305.26	1325.04
305.47	1357.80
305.68	1347.56
305.90	1333.23
306.11	1394.67
306.33	1318.89
306.54	1335.28
306.75	1316.84
306.97	1335.28
307.18	1335.28
307.39	1370.09
307.61	1372.14
307.82	1366.00
308.04	1378.28
308.25	1333.23
308.46	1329.13
308.68	1388.52
308.89	1341.42
309.10	1380.33
309.32	1316.84
309.53	1339.37
309.74	1361.90
309.96	1300.46
310.17	1402.86
310.39	1357.80
310.60	1363.95
310.81	1404.91
311.03	1345.52
311.24	1400.81
311.45	1335.28
311.67	1359.85
311.88	1370.09
312.09	1312.75
312.31	1345.52
312.52	1421.29
312.73	1316.84
312.95	1306.60
313.16	1368.04
313.37	1476.59
313.59	1413.10
313.80	1355.76
314.01	1398.76
314.23	1380.33
314.44	1341.42
314.65	1361.90
314.87	1335.28
315.08	1363.95
315.29	1327.08
315.51	1343.47
315.72	1337.32
315.93	1415.15
316.15	1302.51
316.36	1329.13
316.57	1347.56
316.79	1454.06
317.00	1320.94
317.21	1411.05
317.43	1425.39
317.64	1359.85
317.85	1435.63
318.07	1400.81
318.28	1591.27
318.49	1578.98
318.70	1656.81
318.92	1556.46
319.13	1492.97
319.34	1523.69
319.56	1431.53
319.77	1495.02
319.98	1464.30
320.20	1433.58
320.41	1423.34
320.62	1396.71
320.83	1372.14
321.05	1425.39
321.26	1337.32
321.47	1310.70
321.69	1351.66
321.90	1345.52
322.11	1366.00
322.32	1400.81
322.54	1396.71
322.75	1398.76
322.96	1421.29
323.18	1327.08
323.39	1349.61
323.60	1376.24
323.81	1357.80
324.03	1347.56
324.24	1359.85
324.45	1335.28
324.66	1349.61
324.88	1378.28
325.09	1417.19
325.30	1376.24
325.52	1370.09
325.73	1355.76
325.94	1290.22
326.15	1370.09
326.37	1296.36
326.58	1470.44
326.79	1396.71
327.00	1345.52
327.22	1404.91
327.43	1347.56
327.64	1271.79
327.85	1374.19
328.07	1421.29
328.28	1468.39
328.49	1419.24
328.70	1333.23
328.92	1394.67
329.13	1359.85
329.34	1386.47
329.55	1429.48
329.76	1380.33
329.98	1337.32
330.19	1409.00
330.40	1314.80
330.61	1353.71
330.83	1366.00
331.04	1366.00
331.25	1382.38
331.46	1349.61
331.68	1312.75
331.89	1435.63
332.10	1398.76
332.31	1312.75
332.52	1335.28
332.74	1402.86
332.95	1353.71
333.16	1398.76
333.37	1366.00
333.58	1372.14
333.80	1372.14
334.01	1353.71
334.22	1384.43
334.43	1300.46
334.64	1400.81
334.86	1312.75
335.07	1353.71
335.28	1394.67
335.49	1282.03
335.70	1396.71
335.92	1419.24
336.13	1423.34
336.34	1406.95
336.55	1439.72
336.76	1363.95
336.98	1372.14
337.19	1345.52
337.40	1437.67
337.61	1441.77
337.82	1337.32
338.04	1386.47
338.25	1331.18
338.46	1392.62
338.67	1306.60
338.88	1386.47
339.09	1378.28
339.31	1394.67
339.52	1296.36
339.73	1398.76
339.94	1402.86
340.15	1458.15
340.36	1423.34
340.58	1423.34
340.79	1306.60
341.00	1359.85
341.21	1378.28
341.42	1396.71
341.63	1396.71
341.85	1396.71
342.06	1357.80
342.27	1322.99
342.48	1343.47
342.69	1310.70
342.90	1370.09
343.12	1351.66
343.33	1374.19
343.54	1386.47
343.75	1443.82
343.96	1386.47
344.17	1390.57
344.38	1368.04
344.60	1388.52
344.81	1349.61
345.02	1327.08
345.23	1380.33
345.44	1478.63
345.65	1411.05
345.86	1413.10
346.07	1366.00
346.29	1335.28
346.50	1380.33
346.71	1296.36
346.92	1464.30
347.13	1404.91
347.34	1345.52
347.55	1392.62
347.76	1382.38
347.98	1345.52
348.19	1351.66
348.40	1478.63
348.61	1335.28
348.82	1409.00
349.03	1308.65
349.24	1333.23
349.45	1429.48
349.66	1318.89
349.88	1341.42
350.09	1337.32
350.30	1409.00
350.51	1445.87
350.72	1419.24
350.93	1419.24
351.14	1327.08
351.35	1380.33
351.56	1361.90
351.77	1372.14
351.99	1308.65
352.20	1404.91
352.41	1421.29
352.62	1316.84
352.83	1347.56
353.04	1339.37
353.25	1312.75
353.46	1386.47
353.67	1400.81
353.88	1236.97
354.09	1378.28
354.30	1275.88
354.52	1359.85
354.73	1320.94
354.94	1345.52
355.15	1380.33
355.36	1437.67
355.57	1277.93
355.78	1376.24
355.99	1325.04
356.20	1345.52
356.41	1431.53
356.62	1400.81
356.83	1347.56
357.04	1454.06
357.25	1378.28
357.46	1345.52
357.68	1316.84
357.89	1368.04
358.10	1386.47
358.31	1339.37
358.52	1398.76
358.73	1296.36
358.94	1366.00
359.15	1359.85
359.36	1361.90
359.57	1349.61
359.78	1380.33
359.99	1316.84
360.20	1363.95
360.41	1445.87
360.62	1427.43
360.83	1411.05
361.04	1400.81
361.25	1327.08
361.46	1509.35
361.67	1376.24
361.88	1431.53
362.09	1392.62
362.30	1384.43
362.51	1406.95
362.72	1353.71
362.93	1382.38
363.14	1398.76
363.35	1462.25
363.56	1304.56
363.78	1419.24
363.99	1384.43
364.20	1347.56
364.41	1409.00
364.62	1488.87
364.83	1433.58
365.04	1370.09
365.25	1345.52
365.46	1423.34
365.67	1292.27
365.88	1345.52
366.09	1396.71
366.30	1353.71
366.51	1421.29
366.72	1368.04
366.93	1353.71
367.14	1329.13
367.35	1363.95
367.56	1351.66
367.77	1433.58
367.98	1335.28
368.18	1390.57
368.39	1341.42
368.60	1400.81
368.81	1396.71
369.02	1374.19
369.23	1316.84
369.44	1370.09
369.65	1378.28
369.86	1370.09
370.07	1374.19
370.28	1382.38
370.49	1404.91
370.70	1443.82
370.91	1355.76
371.12	1341.42
371.33	1400.81
371.54	1384.43
371.75	1464.30
371.96	1298.41
372.17	1363.95
372.38	1327.08
372.59	1355.76
372.80	1294.32
373.01	1345.52
373.22	1249.26
373.43	1425.39
373.64	1343.47
373.85	1355.76
374.06	1435.63
374.26	1497.07
374.47	1415.15
374.68	1363.95
374.89	1378.28
375.10	1355.76
375.31	1454.06
375.52	1380.33
375.73	1460.20
375.94	1302.51
376.15	1447.91
376.36	1300.46
376.57	1394.67
376.78	1331.18
376.99	1349.61
377.20	1458.15
377.40	1308.65
377.61	1464.30
377.82	1322.99
378.03	1441.77
378.24	1406.95
378.45	1382.38
378.66	1454.06
378.87	1312.75
379.08	1271.79
379.29	1413.10
379.50	1378.28
379.71	1390.57
379.91	1353.71
380.12	1343.47
380.33	1400.81
380.54	1390.57
380.75	1335.28
380.96	1341.42
381.17	1470.44
381.38	1439.72
381.59	1492.97
381.80	1384.43
382.00	1552.36
382.21	1435.63
382.42	1411.05
382.63	1458.15
382.84	1474.54
383.05	1464.30
383.26	1452.01
383.47	1409.00
383.68	1421.29
383.88	1447.91
384.09	1357.80
384.30	1437.67
384.51	1378.28
384.72	1361.90
384.93	1390.57
385.14	1384.43
385.35	1400.81
385.55	1337.32
385.76	1437.67
385.97	1322.99
386.18	1353.71
386.39	1423.34
386.60	1454.06
386.81	1316.84
387.02	1441.77
387.22	1400.81
387.43	1460.20
387.64	1624.04
387.85	2346.97
388.06	5805.99
388.27	9449.33
388.48	11499.34
388.68	13209.40
388.89	13311.80
389.10	10686.30
389.31	9301.87
389.52	8363.90
389.73	7255.95
389.93	6875.03
390.14	6508.44
390.35	6025.12
390.56	5449.64
390.77	4597.69
390.98	3770.31
391.18	2842.58
391.39	2172.89
391.60	1697.77
391.81	1585.13
392.02	1423.34
392.23	1495.02
392.43	1429.48
392.64	1421.29
392.85	1357.80
393.06	1417.19
393.27	1370.09
393.47	1335.28
393.68	1396.71
393.89	1368.04
394.10	1392.62
394.31	1413.10
394.52	1417.19
394.72	1325.04
394.93	1462.25
395.14	1322.99
395.35	1359.85
395.56	1435.63
395.76	1544.17
395.97	1552.36
396.18	1581.03
396.39	1642.47
396.60	1789.92
396.80	1560.55
397.01	1509.35
397.22	1621.99
397.43	1558.50
397.64	1478.63
397.84	1474.54
398.05	1552.36
398.26	1439.72
398.47	1468.39
398.67	1509.35
398.88	1349.61
399.09	1456.11
399.30	1398.76
399.51	1368.04
399.71	1361.90
399.92	1349.61
400.13	1398.76
400.34	1380.33
400.54	1411.05
400.75	1468.39
400.96	1374.19
401.17	1343.47
401.37	1411.05
401.58	1372.14
401.79	1564.65
402.00	1708.01
402.21	1777.64
402.41	1783.78
402.62	1839.08
402.83	1689.57
403.04	1673.19
403.24	1734.63
403.45	1595.37
403.66	1617.90
403.87	1519.59
404.07	1548.26
404.28	1617.90
404.49	1583.08
404.70	1415.15
404.90	1419.24
405.11	1374.19
405.32	1460.20
405.52	1368.04
405.73	1363.95
405.94	1392.62
406.15	1372.14
406.35	1316.84
406.56	1435.63
406.77	1441.77
406.98	1370.09
407.18	1374.19
407.39	1380.33
407.60	1263.60
407.80	1304.56
408.01	1310.70
408.22	1361.90
408.43	1282.03
408.63	1341.42
408.84	1419.24
409.05	1439.72
409.25	1343.47
409.46	1404.91
409.67	1322.99
409.88	1318.89
410.08	1415.15
410.29	1384.43
410.50	1417.19
410.70	1372.14
410.91	1290.22
411.12	1431.53
411.32	1402.86
411.53	1388.52
411.74	1497.07
411.95	1429.48
412.15	1499.11
412.36	1511.40
412.57	1482.73
412.77	1474.54
412.98	1347.56
413.19	1380.33
413.39	1447.91
413.60	1380.33
413.81	1474.54
414.01	1429.48
414.22	1366.00
414.43	1462.25
414.63	1409.00
414.84	1353.71
415.05	1372.14
415.25	1318.89
415.46	1445.87
415.67	1413.10
415.87	1370.09
416.08	1419.24
416.29	1337.32
416.49	1386.47
416.70	1343.47
416.91	1370.09
417.11	1359.85
417.32	1376.24
417.53	1380.33
417.73	1415.15
417.94	1429.48
418.15	1345.52
418.35	1359.85
418.56	1409.00
418.77	1464.30
418.97	1372.14
419.18	1413.10
419.38	1284.08
419.59	1376.24
419.80	1462.25
420.00	1392.62
420.21	1355.76
420.42	1396.71
420.62	1433.58
420.83	1314.80
421.04	1353.71
421.24	1353.71
421.45	1355.76
421.65	1349.61
421.86	1286.12
422.07	1357.80
422.27	1314.80
422.48	1380.33
422.69	1370.09
422.89	1456.11
423.10	1320.94
423.30	1318.89
423.51	1374.19
423.72	1282.03
423.92	1413.10
424.13	1284.08
424.33	1419.24
424.54	1382.38
424.75	1347.56
424.95	1400.81
425.16	1394.67
425.36	1345.52
425.57	1388.52
425.78	1372.14
425.98	1447.91
426.19	1382.38
426.39	1349.61
426.60	1388.52
426.81	1445.87
427.01	1445.87
427.22	1345.52
427.42	1310.70
427.63	1345.52
427.83	1427.43
428.04	1472.49
428.25	1425.39
428.45	1394.67
428.66	1359.85
428.86	1368.04
429.07	1284.08
429.28	1363.95
429.48	1361.90
429.69	1337.32
429.89	1341.42
430.10	1329.13
430.30	1320.94
430.51	1361.90
430.71	1400.81
430.92	1339.37
431.13	1310.70
431.33	1370.09
431.54	1388.52
431.74	1492.97
431.95	1445.87
432.15	1370.09
432.36	1339.37
432.56	1419.24
432.77	1419.24
432.98	1509.35
433.18	1376.24
433.39	1386.47
433.59	1357.80
433.80	1404.91
434.00	1429.48
434.21	1353.71
434.41	1400.81
434.62	1482.73
434.82	1361.90
435.03	1271.79
435.23	1322.99
435.44	1396.71
435.64	1333.23
435.85	1339.37
436.06	1406.95
436.26	1417.19
436.47	1347.56
436.67	1316.84
436.88	1425.39
437.08	1398.76
437.29	1322.99
437.49	1402.86
437.70	1492.97
437.90	1427.43
438.11	1433.58
438.31	1413.10
438.52	1576.94
438.72	1484.78
438.93	1603.56
439.13	1507.30
439.34	1439.72
439.54	1445.87
439.75	1503.21
439.95	1390.57
440.16	1421.29
440.36	1484.78
440.57	1413.10
440.77	1390.57
440.98	1417.19
441.18	1431.53
441.39	1398.76
441.59	1308.65
441.80	1499.11
442.00	1372.14
442.21	1417.19
442.41	1363.95
442.62	1478.63
442.82	1335.28
443.02	1386.47
443.23	1382.38
443.43	1396.71
443.64	1409.00
443.84	1363.95
444.05	1478.63
444.25	1382.38
444.46	1413.10
444.66	1345.52
444.87	1466.35
445.07	1343.47
445.28	1380.33
445.48	1411.05
445.69	1437.67
445.89	1511.40
446.09	1533.93
446.30	2232.29
446.50	3594.19
446.71	4741.05
446.91	5306.29
447.12	5636.01
447.32	4863.93
447.53	4179.90
447.73	3835.85
447.93	3424.20
448.14	3092.43
448.34	3041.23
448.55	2770.90
448.75	2746.33
448.96	2641.88
449.16	2392.03
449.36	2246.62
449.57	1994.72
449.77	1710.05
449.98	1527.78
450.18	1535.98
450.39	1474.54
450.59	1415.15
450.79	1409.00
451.00	1372.14
451.20	1380.33
451.41	1396.71
451.61	1433.58
451.81	1419.24
452.02	1368.04
452.22	1386.47
452.43	1318.89
452.63	1384.43
452.84	1374.19
453.04	1320.94
453.24	1368.04
453.45	1339.37
453.65	1314.80
453.86	1345.52
454.06	1335.28
454.26	1339.37
454.47	1388.52
454.67	1431.53
454.87	1335.28
455.08	1339.37
455.28	1415.15
455.49	1429.48
455.69	1329.13
455.89	1470.44
456.10	1413.10
456.30	1429.48
456.51	1411.05
456.71	1409.00
456.91	1329.13
457.12	1425.39
457.32	1449.96
457.52	1329.13
457.73	1421.29
457.93	1398.76
458.14	1343.47
458.34	1277.93
458.54	1378.28
458.75	1419.24
458.95	1398.76
459.15	1406.95
459.36	1322.99
459.56	1443.82
459.76	1476.59
459.97	1355.76
460.17	1308.65
460.37	1437.67
460.58	1392.62
460.78	1429.48
460.99	1357.80
461.19	1320.94
461.39	1298.41
461.60	1386.47
461.80	1431.53
462.00	1396.71
462.21	1376.24
462.41	1279.98
462.61	1271.79
462.82	1279.98
463.02	1380.33
463.22	1380.33
463.43	1316.84
463.63	1368.04
463.83	1409.00
464.04	1425.39
464.24	1333.23
464.44	1411.05
464.64	1253.36
464.85	1429.48
465.05	1458.15
465.25	1366.00
465.46	1372.14
465.66	1435.63
465.86	1433.58
466.07	1314.80
466.27	1431.53
466.47	1353.71
466.68	1394.67
466.88	1431.53
467.08	1388.52
467.29	1462.25
467.49	1409.00
467.69	1351.66
467.89	1325.04
468.10	1396.71
468.30	1355.76
468.50	1413.10
468.71	1411.05
468.91	1359.85
469.11	1435.63
469.31	1406.95
469.52	1304.56
469.72	1421.29
469.92	1464.30
470.13	1355.76
470.33	1454.06
470.53	1632.23
470.73	2052.06
470.94	2289.63
471.14	2344.92
471.34	2439.13
471.54	2199.52
471.75	2068.45
471.95	1892.32
472.15	1839.08
472.36	1761.25
472.56	1794.02
472.76	1834.98
472.96	1740.77
473.17	1746.92
473.37	1566.70
473.57	1542.12
473.77	1544.17
473.98	1404.91
474.18	1394.67
474.38	1521.64
474.58	1378.28
474.79	1376.24
474.99	1357.80
475.19	1355.76
475.39	1355.76
475.60	1370.09
475.80	1355.76
476.00	1396.71
476.20	1366.00
476.41	1468.39
476.61	1439.72
476.81	1413.10
477.01	1357.80
477.21	1452.01
477.42	1460.20
477.62	1359.85
477.82	1435.63
478.02	1404.91
478.23	1460.20
478.43	1411.05
478.63	1331.18
478.83	1355.76
479.03	1357.80
479.24	1339.37
479.44	1497.07
479.64	1329.13
479.84	1275.88
480.04	1355.76
480.25	1390.57
480.45	1327.08
480.65	1343.47
480.85	1452.01
481.06	1370.09
481.26	1404.91
481.46	1413.10
481.66	1363.95
481.86	1366.00
482.06	1353.71
482.27	1331.18
482.47	1392.62
482.67	1380.33
482.87	1327.08
483.07	1366.00
483.28	1413.10
483.48	1396.71
483.68	1368.04
483.88	1282.03
484.08	1363.95
484.29	1374.19
484.49	1411.05
484.69	1386.47
484.89	1331.18
485.09	1402.86
485.29	1343.47
485.50	1333.23
485.70	1376.24
485.90	1337.32
486.10	1429.48
486.30	1437.67
486.50	1392.62
486.71	1392.62
486.91	1462.25
487.11	1411.05
487.31	1366.00
487.51	1419.24
487.71	1316.84
487.91	1361.90
488.12	1357.80
488.32	1253.36
488.52	1370.09
488.72	1271.79
488.92	1419.24
489.12	1378.28
489.32	1357.80
489.53	1423.34
489.73	1318.89
489.93	1380.33
490.13	1386.47
490.33	1363.95
490.53	1402.86
490.73	1419.24
490.94	1327.08
491.14	1400.81
491.34	1634.28
491.54	2164.70
491.74	2629.59
491.94	3008.47
492.14	3160.02
492.34	3057.62
492.54	2570.20
492.75	2263.01
492.95	2191.33
493.15	2103.26
493.35	1953.76
493.55	1986.53
493.75	1898.47
493.95	1882.08
494.15	1806.31
494.35	1708.01
494.56	1607.66
494.76	1535.98
494.96	1499.11
495.16	1456.11
495.36	1445.87
495.56	1427.43
495.76	1382.38
495.96	1384.43
496.16	1398.76
496.36	1492.97
496.56	1380.33
496.77	1347.56
496.97	1380.33
497.17	1452.01
497.37	1343.47
497.57	1366.00
497.77	1337.32
497.97	1333.23
498.17	1392.62
498.37	1339.37
498.57	1386.47
498.77	1351.66
498.97	1390.57
499.17	1470.44
499.38	1396.71
499.58	1462.25
499.78	1409.00
499.98	1439.72
500.18	1386.47
500.38	1470.44
500.58	1748.97
500.78	2891.73
500.98	5482.41
501.18	6842.26
501.38	8259.46
501.58	8494.97
501.78	7378.83
501.98	5734.31
502.18	5171.12
502.38	4548.54
502.58	4124.61
502.78	3813.32
502.98	3600.33
503.18	3362.76
503.38	3317.71
503.59	3049.43
503.79	2783.19
503.99	2570.20
504.19	2420.70
504.39	2054.11
504.59	2070.50
504.79	1970.15
504.99	1732.58
505.19	1591.27
505.39	1495.02
505.59	1611.75
505.79	1542.12
505.99	1554.41
506.19	1529.83
506.39	1544.17
506.59	1464.30
506.79	1431.53
506.99	1380.33
507.19	1452.01
507.39	1439.72
507.59	1363.95
507.79	1335.28
507.99	1437.67
508.19	1368.04
508.39	1322.99
508.59	1406.95
508.79	1449.96
508.99	1529.83
509.19	1394.67
509.39	1357.80
509.59	1357.80
509.79	1376.24
509.99	1363.95
510.19	1509.35
510.39	1404.91
510.59	1384.43
510.79	1392.62
510.99	1302.51
511.19	1470.44
511.39	1404.91
511.59	1398.76
511.79	1351.66
511.99	1421.29
512.19	1439.72
512.38	1398.76
512.58	1398.76
512.78	1372.14
512.98	1433.58
513.18	1331.18
513.38	1269.74
513.58	1378.28
513.78	1304.56
513.98	1398.76
514.18	1331.18
514.38	1386.47
514.58	1394.67
514.78	1347.56
514.98	1351.66
515.18	1396.71
515.38	1386.47
515.58	1466.35
515.78	1378.28
515.98	1339.37
516.18	1345.52
516.38	1413.10
516.57	1327.08
516.77	1368.04
516.97	1384.43
517.17	1398.76
517.37	1308.65
517.57	1337.32
517.77	1388.52
517.97	1388.52
518.17	1382.38
518.37	1376.24
518.57	1322.99
518.77	1404.91
518.97	1388.52
519.16	1423.34
519.36	1339.37
519.56	1351.66
519.76	1361.90
519.96	1384.43
520.16	1488.87
520.36	1337.32
520.56	1443.82
520.76	1398.76
520.96	1435.63
521.16	1384.43
521.35	1380.33
521.55	1402.86
521.75	1351.66
521.95	1378.28
522.15	1351.66
522.35	1322.99
522.55	1368.04
522.75	1355.76
522.95	1296.36
523.14	1404.91
523.34	1359.85
523.54	1372.14
523.74	1409.00
523.94	1396.71
524.14	1236.97
524.34	1400.81
524.54	1417.19
524.73	1302.51
524.93	1456.11
525.13	1398.76
525.33	1282.03
525.53	1421.29
525.73	1380.33
525.93	1386.47
526.13	1380.33
526.32	1398.76
526.52	1320.94
526.72	1374.19
526.92	1357.80
527.12	1390.57
527.32	1339.37
527.52	1390.57
527.71	1423.34
527.91	1406.95
528.11	1386.47
528.31	1341.42
528.51	1384.43
528.71	1325.04
528.90	1370.09
529.10	1433.58
529.30	1390.57
529.50	1363.95
529.70	1359.85
529.90	1390.57
530.09	1421.29
530.29	1368.04
530.49	1322.99
530.69	1427.43
530.89	1413.10
531.09	1474.54
531.28	1409.00
531.48	1396.71
531.68	1370.09
531.88	1394.67
532.08	1421.29
532.28	1380.33
532.47	1396.71
532.67	1386.47
532.87	1372.14
533.07	1402.86
533.27	1394.67
533.46	1439.72
533.66	1449.96
533.86	1478.63
534.06	1363.95
534.26	1380.33
534.45	1286.12
534.65	1392.62
534.85	1413.10
535.05	1374.19
535.25	1368.04
535.44	1429.48
535.64	1431.53
535.84	1372.14
536.04	1382.38
536.24	1331.18
536.43	1349.61
536.63	1468.39
536.83	1331.18
537.03	1271.79
537.22	1353.71
537.42	1359.85
537.62	1437.67
537.82	1347.56
538.02	1335.28
538.21	1474.54
538.41	1454.06
538.61	1454.06
538.81	1345.52
539.00	1443.82
539.20	1284.08
539.40	1470.44
539.60	1413.10
539.79	1482.73
539.99	1384.43
540.19	1329.13
540.39	1396.71
540.58	1462.25
540.78	1409.00
540.98	1452.01
541.18	1413.10
541.37	1384.43
541.57	1343.47
541.77	1468.39
541.97	1290.22
542.16	1322.99
542.36	1320.94
542.56	1429.48
542.76	1435.63
542.95	1349.61
543.15	1462.25
543.35	1386.47
543.54	1318.89
543.74	1310.70
543.94	1421.29
544.14	1347.56
544.33	1402.86
544.53	1351.66
544.73	1361.90
544.93	1363.95
545.12	1347.56
545.32	1388.52
545.52	1302.51
545.71	1335.28
545.91	1372.14
546.11	1310.70
546.30	1339.37
546.50	1396.71
546.70	1437.67
546.90	1361.90
547.09	1388.52
547.29	1382.38
547.49	1374.19
547.68	1386.47
547.88	1316.84
548.08	1415.15
548.27	1787.88
548.47	1294.32
548.67	1359.85
548.87	1361.90
549.06	1402.86
549.26	1390.57
549.46	1396.71
549.65	1296.36
549.85	1433.58
550.05	1413.10
550.24	1331.18
550.44	1380.33
550.64	1402.86
550.83	1388.52
551.03	1357.80
551.23	1447.91
551.42	1382.38
551.62	1325.04
551.82	1343.47
552.01	1376.24
552.21	1382.38
552.41	1449.96
552.60	1392.62
552.80	1411.05
553.00	1376.24
553.19	1374.19
553.39	1396.71
553.59	1306.60
553.78	1388.52
553.98	1413.10
554.17	1327.08
554.37	1402.86
554.57	1400.81
554.76	1372.14
554.96	1310.70
555.16	1392.62
555.35	1368.04
555.55	1384.43
555.75	1337.32
555.94	1339.37
556.14	1351.66
556.33	1406.95
556.53	1398.76
556.73	1331.18
556.92	1361.90
557.12	1509.35
557.32	1452.01
557.51	1476.59
557.71	1353.71
557.90	1441.77
558.10	1409.00
558.30	1433.58
558.49	1355.76
558.69	1376.24
558.88	1406.95
559.08	1392.62
559.28	1388.52
559.47	1419.24
559.67	1431.53
559.86	1404.91
560.06	1361.90
560.26	1421.29
560.45	1415.15
560.65	1425.39
560.84	1484.78
561.04	1339.37
561.24	1357.80
561.43	1267.69
561.63	1423.34
561.82	1443.82
562.02	1425.39
562.22	1386.47
562.41	1327.08
562.61	1337.32
562.80	1312.75
563.00	1452.01
563.19	1361.90
563.39	1415.15
563.59	1488.87
563.78	1329.13
563.98	1318.89
564.17	1296.36
564.37	1341.42
564.56	1378.28
564.76	1337.32
564.96	1349.61
565.15	1333.23
565.35	1382.38
565.54	1480.68
565.74	1355.76
565.93	1384.43
566.13	1382.38
566.32	1423.34
566.52	1316.84
566.71	1355.76
566.91	1333.23
567.11	1374.19
567.30	1368.04
567.50	1386.47
567.69	1366.00
567.89	1439.72
568.08	1318.89
568.28	1359.85
568.47	1386.47
568.67	1413.10
568.86	1288.17
569.06	1370.09
569.25	1353.71
569.45	1404.91
569.64	1419.24
569.84	1359.85
570.04	1396.71
570.23	1355.76
570.43	1310.70
570.62	1452.01
570.82	1341.42
571.01	1378.28
571.21	1402.86
571.40	1335.28
571.60	1413.10
571.79	1404.91
571.99	1456.11
572.18	1312.75
572.38	1339.37
572.57	1316.84
572.77	1421.29
572.96	1507.30
573.16	1460.20
573.35	1404.91
573.55	1437.67
573.74	1411.05
573.94	1433.58
574.13	1429.48
574.33	1398.76
574.52	1433.58
574.71	1458.15
574.91	1386.47
575.10	1402.86
575.30	1431.53
575.49	1337.32
575.69	1437.67
575.88	1490.92
576.08	1398.76
576.27	1499.11
576.47	1462.25
576.66	1556.46
576.86	1452.01
577.05	1429.48
577.25	1501.16
577.44	1413.10
577.64	1361.90
577.83	1507.30
578.02	1398.76
578.22	1378.28
578.41	1474.54
578.61	1386.47
578.80	1421.29
579.00	1394.67
579.19	1366.00
579.39	1376.24
579.58	1464.30
579.77	1302.51
579.97	1505.26
580.16	1478.63
580.36	1503.21
580.55	1443.82
580.75	1472.49
580.94	1355.76
581.13	1466.35
581.33	1558.50
581.52	1437.67
581.72	1515.50
581.91	1466.35
582.11	1404.91
582.30	1472.49
582.49	1433.58
582.69	1492.97
582.88	1492.97
583.08	1495.02
583.27	1415.15
583.47	1370.09
583.66	1372.14
583.85	1314.80
584.05	1419.24
584.24	1443.82
584.44	1433.58
584.63	1533.93
584.82	1495.02
585.02	1568.74
585.21	1558.50
585.41	1617.90
585.60	1564.65
585.79	1642.47
585.99	1701.86
586.18	1589.22
586.37	1849.32
586.57	2772.95
586.76	7911.30
586.96	24243.85
587.15	41084.30
587.34	52225.25
587.54	59499.64
587.73	59231.35
587.93	44442.97
588.12	32579.09
588.31	26871.40
588.51	22640.29
588.70	19912.40
588.89	18269.93
589.09	17241.85
589.28	15992.59
589.47	14464.80
589.67	12605.25
589.86	10633.05
590.06	8597.37
590.25	6694.81
590.44	5101.49
590.64	3655.62
590.83	2842.58
591.02	2295.77
591.22	1961.95
591.41	1705.96
591.60	1611.75
591.80	1599.46
591.99	1509.35
592.18	1511.40
592.38	1495.02
592.57	1382.38
592.76	1458.15
592.96	1456.11
593.15	1411.05
593.34	1538.02
593.54	1435.63
593.73	1402.86
593.92	1540.07
594.12	1423.34
594.31	1452.01
594.50	1527.78
594.70	1447.91
594.89	1519.59
595.08	1378.28
595.28	1456.11
595.47	1482.73
595.66	1404.91
595.86	1417.19
596.05	1449.96
596.24	1413.10
596.43	1402.86
596.63	1470.44
596.82	1447.91
597.01	1548.26
597.21	1433.58
597.40	1486.83
597.59	1476.59
597.79	1404.91
597.98	1474.54
598.17	1398.76
598.36	1441.77
598.56	1468.39
598.75	1382.38
598.94	1423.34
599.14	1382.38
599.33	1413.10
599.52	1505.26
599.71	1413.10
599.91	1454.06
600.10	1423.34
600.29	1392.62
600.48	1333.23
600.68	1433.58
600.87	1374.19
601.06	1304.56
601.26	1429.48
601.45	1443.82
601.64	1376.24
601.83	1468.39
602.03	1366.00
602.22	1337.32
602.41	1456.11
602.60	1425.39
602.80	1396.71
602.99	1368.04
603.18	1396.71
603.37	1435.63
603.57	1417.19
603.76	1492.97
603.95	1423.34
604.14	1421.29
604.34	1380.33
604.53	1402.86
604.72	1380.33
604.91	1378.28
605.10	1429.48
605.30	1304.56
605.49	1429.48
605.68	1339.37
605.87	1427.43
606.07	1322.99
606.26	1402.86
606.45	1409.00
606.64	1361.90
606.84	1366.00
607.03	1433.58
607.22	1449.96
607.41	1409.00
607.60	1501.16
607.80	1447.91
607.99	1441.77
608.18	1396.71
608.37	1366.00
608.56	1384.43
608.76	1427.43
608.95	1466.35
609.14	1429.48
609.33	1501.16
609.52	1454.06
609.72	1425.39
609.91	1556.46
610.10	1423.34
610.29	1437.67
610.48	1429.48
610.68	1411.05
610.87	1439.72
611.06	1466.35
611.25	1392.62
611.44	1435.63
611.63	1417.19
611.83	1449.96
612.02	1347.56
612.21	1437.67
612.40	1347.56
612.59	1355.76
612.79	1439.72
612.98	1333.23
613.17	1476.59
613.36	1409.00
613.55	1554.41
613.74	1452.01
613.93	1550.31
614.13	1570.79
614.32	1658.85
614.51	1650.66
614.70	1548.26
614.89	1513.45
615.08	1417.19
615.28	1626.09
615.47	1306.60
615.66	1421.29
615.85	1435.63
616.04	1511.40
616.23	1427.43
616.42	1472.49
616.62	1431.53
616.81	1454.06
617.00	1441.77
617.19	1355.76
617.38	1382.38
617.57	1427.43
617.76	1331.18
617.95	1376.24
618.15	1470.44
618.34	1417.19
618.53	1421.29
618.72	1390.57
618.91	1425.39
619.10	1480.68
619.29	1417.19
619.48	1368.04
619.68	1333.23
619.87	1396.71
620.06	1366.00
620.25	1454.06
620.44	1302.51
620.63	1368.04
620.82	1329.13
621.01	1370.09
621.20	1372.14
621.39	1417.19
621.59	1427.43
621.78	1415.15
621.97	1388.52
622.16	1374.19
622.35	1429.48
622.54	1392.62
622.73	1382.38
622.92	1277.93
623.11	1417.19
623.30	1347.56
623.49	1476.59
623.68	1390.57
623.88	1386.47
624.07	1384.43
624.26	1386.47
624.45	1413.10
624.64	1353.71
624.83	1409.00
625.02	1355.76
625.21	1400.81
625.40	1310.70
625.59	1372.14
625.78	1390.57
625.97	1449.96
626.16	1517.54
626.35	1468.39
626.54	1456.11
626.74	1484.78
626.93	1439.72
627.12	1392.62
627.31	1441.77
627.50	1476.59
627.69	1452.01
627.88	1409.00
628.07	1359.85
628.26	1390.57
628.45	1390.57
628.64	1396.71
628.83	1386.47
629.02	1386.47
629.21	1396.71
629.40	1347.56
629.59	1431.53
629.78	1361.90
629.97	1349.61
630.16	1394.67
630.35	1349.61
630.54	1425.39
630.73	1404.91
630.92	1404.91
631.11	1359.85
631.30	1406.95
631.49	1411.05
631.68	1286.12
631.87	1390.57
632.06	1302.51
632.25	1447.91
632.44	1394.67
632.63	1357.80
632.82	1398.76
633.01	1411.05
633.20	1542.12
633.39	1497.07
633.58	1470.44
633.77	1429.48
633.96	1474.54
634.15	1456.11
634.34	1406.95
634.53	1421.29
634.72	1382.38
634.91	1277.93
635.10	1394.67
635.29	1435.63
635.48	1452.01
635.67	1363.95
635.86	1386.47
636.05	1447.91
636.24	1437.67
636.43	1349.61
636.62	1427.43
636.81	1355.76
637.00	1378.28
637.19	1400.81
637.38	1423.34
637.57	1398.76
637.76	1347.56
637.95	1480.68
638.14	1540.07
638.33	1476.59
638.52	1406.95
638.71	1466.35
638.89	1470.44
639.08	1513.45
639.27	1544.17
639.46	1429.48
639.65	1757.16
639.84	1914.85
640.03	1918.95
640.22	2162.66
640.41	2179.04
640.60	1900.52
640.79	1773.54
640.98	1669.09
641.17	1644.52
641.36	1560.55
641.55	1595.37
641.74	1482.73
641.92	1517.54
642.11	1486.83
642.30	1460.20
642.49	1513.45
642.68	1454.06
642.87	1392.62
643.06	1439.72
643.25	1396.71
643.44	1343.47
643.63	1470.44
643.82	1339.37
644.00	1413.10
644.19	1374.19
644.38	1406.95
644.57	1419.24
644.76	1449.96
644.95	1353.71
645.14	1368.04
645.33	1339.37
645.52	1378.28
645.71	1378.28
645.89	1310.70
646.08	1286.12
646.27	1312.75
646.46	1503.21
646.65	1349.61
646.84	1308.65
647.03	1306.60
647.22	1484.78
647.40	1402.86
647.59	1341.42
647.78	1308.65
647.97	1396.71
648.16	1322.99
648.35	1523.69
648.54	1419.24
648.73	1368.04
648.91	1415.15
649.10	1398.76
649.29	1343.47
649.48	1376.24
649.67	1406.95
649.86	1413.10
650.05	1363.95
650.23	1540.07
650.42	1425.39
650.61	1533.93
650.80	1560.55
650.99	1621.99
651.18	1490.92
651.36	1454.06
651.55	1472.49
651.74	1398.76
651.93	1413.10
652.12	1437.67
652.31	1406.95
652.49	1368.04
652.68	1404.91
652.87	1458.15
653.06	1435.63
653.25	1443.82
653.44	1400.81
653.62	1429.48
653.81	1417.19
654.00	1439.72
654.19	1437.67
654.38	1427.43
654.56	1398.76
654.75	1290.22
654.94	1353.71
655.13	1298.41
655.32	1439.72
655.51	1464.30
655.69	1409.00
655.88	1458.15
656.07	1263.60
656.26	1335.28
656.45	1404.91
656.63	1384.43
656.82	1415.15
657.01	1413.10
657.20	1363.95
657.38	1404.91
657.57	1290.22
657.76	1296.36
657.95	1363.95
658.14	1318.89
658.32	1392.62
658.51	1314.80
658.70	1382.38
658.89	1402.86
659.08	1396.71
659.26	1538.02
659.45	1355.76
659.64	1359.85
659.83	1441.77
660.01	1550.31
660.20	1517.54
660.39	1435.63
660.58	1384.43
660.76	1439.72
660.95	1331.18
661.14	1433.58
661.33	1327.08
661.51	1296.36
661.70	1404.91
661.89	1443.82
662.08	1394.67
662.26	1290.22
662.45	1382.38
662.64	1409.00
662.83	1388.52
663.01	1302.51
663.20	1347.56
663.39	1462.25
663.58	1355.76
663.76	1370.09
663.95	1390.57
664.14	1378.28
664.32	1390.57
664.51	1318.89
664.70	1322.99
664.89	1351.66
665.07	1349.61
665.26	1363.95
665.45	1376.24
665.64	1380.33
665.82	1363.95
666.01	1458.15
666.20	1355.76
666.38	1468.39
666.57	1390.57
666.76	1599.46
666.95	1988.58
667.13	4450.24
667.32	11321.17
667.51	18005.74
667.69	21782.20
667.88	24776.33
668.07	24632.97
668.25	19003.10
668.44	13688.62
668.63	11343.70
668.81	9459.57
669.00	8142.72
669.19	7579.53
669.38	7042.96
669.56	6360.99
669.75	5480.36
669.94	4943.80
670.12	4272.06
670.31	3551.18
670.50	2981.84
670.68	2541.53
670.87	2039.78
671.06	1861.60
671.24	1683.43
671.43	1621.99
671.62	1570.79
671.80	1554.41
671.99	1486.83
672.18	1421.29
672.36	1472.49
672.55	1411.05
672.74	1417.19
672.92	1322.99
673.11	1490.92
673.29	1368.04
673.48	1470.44
673.67	1423.34
673.85	1390.57
674.04	1388.52
674.23	1409.00
674.41	1480.68
674.60	1355.76
674.79	1353.71
674.97	1398.76
675.16	1349.61
675.34	1376.24
675.53	1394.67
675.72	1439.72
675.90	1396.71
676.09	1355.76
676.28	1439.72
676.46	1353.71
676.65	1445.87
676.83	1400.81
677.02	1406.95
677.21	1431.53
677.39	1421.29
677.58	1355.76
677.77	1396.71
677.95	1406.95
678.14	1347.56
678.32	1347.56
678.51	1310.70
678.70	1447.91
678.88	1361.90
679.07	1353.71
679.25	1390.57
679.44	1347.56
679.63	1337.32
679.81	1376.24
680.00	1372.14
680.18	1470.44
680.37	1413.10
680.55	1392.62
680.74	1382.38
680.93	1300.46
681.11	1378.28
681.30	1325.04
681.48	1376.24
681.67	1347.56
681.85	1411.05
682.04	1345.52
682.23	1433.58
682.41	1349.61
682.60	1425.39
682.78	1413.10
682.97	1322.99
683.15	1353.71
683.34	1327.08
683.53	1402.86
683.71	1304.56
683.90	1366.00
684.08	1331.18
684.27	1310.70
684.45	1312.75
684.64	1402.86
684.82	1275.88
685.01	1458.15
685.19	1406.95
685.38	1443.82
685.57	1382.38
685.75	1284.08
685.94	1314.80
686.12	1394.67
686.31	1300.46
686.49	1406.95
686.68	1363.95
686.86	1419.24
687.05	1413.10
687.23	1404.91
687.42	1406.95
687.60	1329.13
687.79	1480.68
687.97	1361.90
688.16	1433.58
688.34	1449.96
688.53	1312.75
688.71	1343.47
688.90	1431.53
689.08	1327.08
689.27	1327.08
689.45	1404.91
689.64	1421.29
689.82	1361.90
690.01	1409.00
690.19	1363.95
690.38	1347.56
690.56	1415.15
690.75	1406.95
690.93	1343.47
691.12	1382.38
691.30	1400.81
691.49	1353.71
691.67	1372.14
691.86	1443.82
692.04	1339.37
692.23	1378.28
692.41	1368.04
692.60	1513.45
692.78	1468.39
692.97	1470.44
693.15	1507.30
693.34	1490.92
693.52	1378.28
693.71	1386.47
693.89	1378.28
694.08	1384.43
694.26	1427.43
694.44	1355.76
694.63	1400.81
694.81	1331.18
695.00	1363.95
695.18	1458.15
695.37	1476.59
695.55	1372.14
695.74	1306.60
695.92	1353.71
696.10	1396.71
696.29	1355.76
696.47	1394.67
696.66	1286.12
696.84	1357.80
697.03	1353.71
697.21	1396.71
697.40	1730.53
697.58	1423.34
697.76	1404.91
697.95	1279.98
698.13	1320.94
698.32	1341.42
698.50	1370.09
698.68	1370.09
698.87	1310.70
699.05	1478.63
699.24	1345.52
699.42	1261.55
699.61	1368.04
699.79	1370.09
699.97	1380.33
700.16	1341.42
700.34	1337.32
700.53	1349.61
700.71	1392.62
700.89	1355.76
701.08	1347.56
701.26	1402.86
701.45	1679.33
701.63	1347.56
701.81	1429.48
702.00	1404.91
702.18	1359.85
702.37	1372.14
702.55	1413.10
702.73	1462.25
702.92	1503.21
703.10	1656.81
703.28	1665.00
703.47	1576.94
703.65	1640.42
703.84	1548.26
704.02	1464.30
704.20	1466.35
704.39	1478.63
704.57	1535.98
704.75	1454.06
704.94	1431.53
705.12	1378.28
705.30	1460.20
705.49	1556.46
705.67	1730.53
705.86	3592.14
706.04	8994.68
706.22	16166.67
706.41	19973.84
706.59	22494.89
706.77	23348.89
706.96	20000.46
707.14	13881.13
707.32	11298.64
707.51	9207.67
707.69	8206.21
707.87	7411.60
708.06	6899.61
708.24	6076.32
708.42	5040.05
708.61	4011.97
708.79	3137.49
708.97	2426.84
709.16	2025.44
709.34	1771.49
709.52	1550.31
709.71	1490.92
709.89	1542.12
710.07	1443.82
710.26	1398.76
710.44	1341.42
710.62	1466.35
710.80	1370.09
710.99	1404.91
711.17	1392.62
711.35	1411.05
711.54	1327.08
711.72	1415.15
711.90	1464.30
712.09	1384.43
712.27	1329.13
712.45	1402.86
712.63	1429.48
712.82	1404.91
713.00	1429.48
713.18	1376.24
713.37	1447.91
713.55	1378.28
713.73	1363.95
713.91	1382.38
714.10	1359.85
714.28	1474.54
714.46	1388.52
714.65	1429.48
714.83	1425.39
715.01	1363.95
715.19	1351.66
715.38	1339.37
715.56	1433.58
715.74	1370.09
715.92	1382.38
716.11	1355.76
716.29	1296.36
716.47	1329.13
716.65	1386.47
716.84	1384.43
717.02	1443.82
717.20	1363.95
717.38	1357.80
717.57	1366.00
717.75	1390.57
717.93	1335.28
718.11	1429.48
718.30	1372.14
718.48	1290.22
718.66	1406.95
718.84	1390.57
719.03	1368.04
719.21	1226.73
719.39	1437.67
719.57	1419.24
719.75	1370.09
719.94	1359.85
720.12	1267.69
720.30	1386.47
720.48	1464.30
720.67	1415.15
720.85	1341.42
721.03	1363.95
721.21	1349.61
721.39	1380.33
721.58	1413.10
721.76	1310.70
721.94	1413.10
722.12	1368.04
722.30	1413.10
722.49	1361.90
722.67	1423.34
722.85	1400.81
723.03	1347.56
723.21	1355.76
723.40	1349.61
723.58	1335.28
723.76	1419.24
723.94	1396.71
724.12	1400.81
724.30	1443.82
724.49	1449.96
724.67	1396.71
724.85	1538.02
725.03	1402.86
725.21	1433.58
725.40	1415.15
725.58	1370.09
725.76	1458.15
725.94	1359.85
726.12	1404.91
726.30	1353.71
726.49	1372.14
726.67	1345.52
726.85	1376.24
727.03	1456.11
727.21	1478.63
727.39	1568.74
727.57	2082.78
727.76	3389.39
727.94	4601.79
728.12	4853.69
728.30	5289.90
728.48	4990.90
728.66	4194.24
728.84	3426.25
729.03	3057.62
729.21	2904.02
729.39	2486.23
729.57	2158.56
729.75	2068.45
729.93	1761.25
730.11	1546.22
730.30	1470.44
730.48	1406.95
730.66	1458.15
730.84	1486.83
731.02	1322.99
731.20	1322.99
731.38	1322.99
731.56	1380.33
731.74	1359.85
731.93	1355.76
732.11	1372.14
732.29	1413.10
732.47	1384.43
732.65	1351.66
732.83	1431.53
733.01	1329.13
733.19	1370.09
733.37	1437.67
733.56	1384.43
733.74	1337.32
733.92	1413.10
734.10	1273.84
734.28	1318.89
734.46	1257.45
734.64	1345.52
734.82	1366.00
735.00	1394.67
735.18	1378.28
735.36	1419.24
735.54	1370.09
735.73	1394.67
735.91	1443.82
736.09	1286.12
736.27	1421.29
736.45	1398.76
736.63	1402.86
736.81	1327.08
736.99	1343.47
737.17	1351.66
737.35	1312.75
737.53	1437.67
737.71	1359.85
737.89	1421.29
738.07	1390.57
738.25	1380.33
738.43	1327.08
738.61	1363.95
738.80	1396.71
738.98	1353.71
739.16	1372.14
739.34	1298.41
739.52	1435.63
739.70	1452.01
739.88	1427.43
740.06	1341.42
740.24	1294.32
740.42	1372.14
740.60	1335.28
740.78	1298.41
740.96	1269.74
741.14	1376.24
741.32	1382.38
741.50	1294.32
741.68	1431.53
741.86	1384.43
742.04	1349.61
742.22	1406.95
742.40	1392.62
742.58	1347.56
742.76	1269.74
742.94	1466.35
743.12	1327.08
743.30	1374.19
743.48	1359.85
743.66	1296.36
743.84	1351.66
744.02	1384.43
744.20	1441.77
744.38	1423.34
744.56	1380.33
744.74	1460.20
744.92	1374.19
745.10	1355.76
745.28	1429.48
745.46	1366.00
745.64	1384.43
745.82	1464.30
746.00	1409.00
746.18	1460.20
746.36	1374.19
746.54	1417.19
746.72	1302.51
746.90	1337.32
747.08	1423.34
747.26	1333.23
747.44	1298.41
747.62	1353.71
747.80	1382.38
747.98	1388.52
748.15	1376.24
748.33	1445.87
748.51	1372.14
748.69	1409.00
748.87	1368.04
749.05	1388.52
749.23	1392.62
749.41	1413.10
749.59	1363.95
749.77	1353.71
749.95	1363.95
750.13	1282.03
750.31	1404.91
750.49	1374.19
750.67	1359.85
750.85	1310.70
751.03	1417.19
751.20	1460.20
751.38	1327.08
751.56	1347.56
751.74	1318.89
751.92	1335.28
752.10	1331.18
752.28	1431.53
752.46	1380.33
752.64	1296.36
752.82	1372.14
753.00	1470.44
753.18	1366.00
753.35	1374.19
753.53	1417.19
753.71	1382.38
753.89	1394.67
754.07	1398.76
754.25	1390.57
754.43	1439.72
754.61	1361.90
754.79	1312.75
754.97	1368.04
755.14	1372.14
755.32	1325.04
755.50	1368.04
755.68	1378.28
755.86	1374.19
756.04	1433.58
756.22	1359.85
756.40	1402.86
756.57	1499.11
756.75	1368.04
756.93	1363.95
757.11	1423.34
757.29	1396.71
757.47	1349.61
757.65	1368.04
757.82	1343.47
758.00	1374.19
758.18	1329.13
758.36	1353.71
758.54	1452.01
758.72	1331.18
758.90	1392.62
759.07	1353.71
759.25	1333.23
759.43	1343.47
759.61	1372.14
759.79	1636.33
759.97	1419.24
760.15	1325.04
760.32	1345.52
760.50	1327.08
760.68	1390.57
760.86	1327.08
761.04	1345.52
761.22	1314.80
761.39	1327.08
761.57	1400.81
761.75	1409.00
761.93	1337.32
762.11	1308.65
762.28	1413.10
762.46	1402.86
762.64	1392.62
762.82	1310.70
763.00	1357.80
763.18	1468.39
763.35	1363.95
763.53	1460.20
763.71	1363.95
763.89	1443.82
764.07	1335.28
764.24	1314.80
764.42	1415.15
764.60	1366.00
764.78	1318.89
764.96	1404.91
765.13	1431.53
765.31	1253.36
765.49	1355.76
765.67	1337.32
765.84	1339.37
766.02	1290.22
766.20	1314.80
766.38	1345.52
766.56	1353.71
766.73	1374.19
766.91	1355.76
767.09	1384.43
767.27	1347.56
767.44	1331.18
767.62	1349.61
767.80	1351.66
767.98	1343.47
768.15	1351.66
768.33	1357.80
768.51	1329.13
768.69	1437.67
768.87	1355.76
769.04	1282.03
769.22	1476.59
769.40	1439.72
769.58	1409.00
769.75	1359.85
769.93	1404.91
770.11	1398.76
770.28	1368.04
770.46	1425.39
770.64	1325.04
770.82	1310.70
770.99	1370.09
771.17	1357.80
771.35	1353.71
771.53	1339.37
771.70	1380.33
771.88	1376.24
772.06	1378.28
772.23	1404.91
772.41	1335.28
772.59	1282.03
772.77	1343.47
772.94	1296.36
773.12	1370.09
773.30	1347.56
773.47	1409.00
773.65	1322.99
773.83	1419.24
774.01	1359.85
774.18	1402.86
774.36	1331.18
774.54	1343.47
774.71	1376.24
774.89	1298.41
775.07	1433.58
775.24	1337.32
775.42	1335.28
775.60	1452.01
775.78	1263.60
775.95	1300.46
776.13	1322.99
776.31	1292.27
776.48	1386.47
776.66	1468.39
776.84	1253.36
777.01	1239.02
777.19	1376.24
777.37	1427.43
777.54	1400.81
777.72	1339.37
777.90	1378.28
778.07	1320.94
778.25	1404.91
778.43	1366.00
778.60	1298.41
778.78	1482.73
778.96	1374.19
779.13	1294.32
779.31	1347.56
779.49	1273.84
779.66	1361.90
779.84	1396.71
780.01	1308.65
780.19	1337.32
780.37	1335.28
780.54	1398.76
780.72	1384.43
780.90	1284.08
781.07	1388.52
781.25	1314.80
781.43	1390.57
781.60	1359.85
781.78	1413.10
781.95	1341.42
782.13	1320.94
782.31	1394.67
782.48	1304.56
782.66	1327.08
782.83	1468.39
783.01	1419.24
783.19	1372.14
783.36	1384.43
783.54	1357.80
783.72	1406.95
783.89	1351.66
784.07	1396.71
784.24	1351.66
784.42	1327.08
784.60	1398.76
784.77	1327.08
784.95	1355.76
785.12	1296.36
785.30	1394.67
785.47	1345.52
785.65	1255.40
785.83	1394.67
786.00	1345.52
786.18	1322.99
786.35	1353.71
786.53	1329.13
786.71	1282.03
786.88	1355.76
787.06	1388.52
787.23	1312.75
787.41	1363.95
787.58	1320.94
787.76	1269.74
787.94	1277.93
788.11	1359.85
788.29	1368.04
788.46	1322.99
788.64	1327.08
788.81	1363.95
788.99	1214.45
789.16	1394.67
789.34	1398.76
789.52	1325.04
789.69	1312.75
789.87	1349.61
790.04	1351.66
790.22	1394.67
790.39	1462.25
790.57	1349.61
790.74	1347.56
790.92	1382.38
791.09	1275.88
791.27	1357.80
791.44	1396.71
791.62	1335.28
791.79	1378.28
791.97	1366.00
792.15	1484.78
792.32	1406.95
792.50	1437.67
792.67	1417.19
792.85	1282.03
793.02	1409.00
793.20	1339.37
793.37	1361.90
793.55	1368.04
793.72	1320.94
793.90	1363.95
794.07	1425.39
794.25	1329.13
794.42	1386.47
794.60	1370.09
794.77	1376.24
794.95	1409.00
795.12	1396.71
795.30	1259.50
795.47	1349.61
795.65	1452.01
795.82	1415.15
796.00	1417.19
796.17	1322.99
796.34	1310.70
796.52	1347.56
796.69	1423.34
796.87	1372.14
797.04	1353.71
797.22	1396.71
797.39	1353.71
797.57	1386.47
797.74	1349.61
797.92	1318.89
798.09	1333.23
798.27	1404.91
798.44	1302.51
798.62	1382.38
798.79	1341.42
798.96	1361.90
799.14	1361.90
799.31	1406.95
799.49	1341.42
799.66	1386.47
799.84	1347.56
800.01	1335.28
800.19	1411.05
800.36	1316.84
800.53	1390.57
800.71	1337.32
800.88	1488.87
801.06	1302.51
801.23	1396.71
801.41	1341.42
801.58	1349.61
801.75	1363.95
801.93	1398.76
802.10	1351.66
802.28	1406.95
802.45	1380.33
802.63	1337.32
802.80	1503.21
802.97	1282.03
803.15	1427.43
803.32	1355.76
803.50	1327.08
803.67	1288.17
803.84	1314.80
804.02	1378.28
804.19	1308.65
804.37	1320.94
804.54	1355.76
804.71	1314.80
804.89	1341.42
805.06	1347.56
805.24	1327.08
805.41	1359.85
805.58	1333.23
805.76	1452.01
805.93	1443.82
806.10	1404.91
806.28	1384.43
806.45	1322.99
806.63	1398.76
806.80	1388.52
806.97	1441.77
807.15	1398.76
807.32	1308.65
807.49	1337.32
807.67	1312.75
807.84	1345.52
808.01	1325.04
808.19	1429.48
808.36	1462.25
808.54	1380.33
808.71	1310.70
808.88	1421.29
809.06	1423.34
809.23	1394.67
809.40	1333.23
809.58	1447.91
809.75	1419.24
809.92	1322.99
810.10	1419.24
810.27	1339.37
810.44	1353.71
810.62	1370.09
810.79	1394.67
810.96	1368.04
811.14	1306.60
811.31	1355.76
811.48	1396.71
811.66	1335.28
811.83	1419.24
812.00	1341.42
812.18	1333.23
812.35	1425.39
812.52	1310.70
812.69	1314.80
812.87	1370.09
813.04	1322.99
813.21	1353.71
813.39	1331.18
813.56	1308.65
813.73	1351.66
813.91	1325.04
814.08	1382.38
814.25	1394.67
814.42	1294.32
814.60	1265.64
814.77	1368.04
814.94	1419.24
815.12	1339.37
815.29	1404.91
815.46	1429.48
815.63	1355.76
815.81	1312.75
815.98	1396.71
816.15	1396.71
816.33	1361.90
816.50	1355.76
816.67	1290.22
816.84	1308.65
817.02	1306.60
817.19	1363.95
817.36	1411.05
817.53	1476.59
817.71	1378.28
817.88	1388.52
818.05	1312.75
818.22	1327.08
818.40	1413.10
818.57	1304.56
818.74	1380.33
818.91	1355.76
819.09	1384.43
819.26	1331.18
819.43	1335.28
819.60	1386.47
819.78	1490.92
819.95	1314.80
820.12	1312.75
820.29	1419.24
820.47	1435.63
820.64	1294.32
820.81	1298.41
820.98	1257.45
821.15	1331.18
821.33	1417.19
821.50	1370.09
821.67	1417.19
821.84	1331.18
822.02	1380.33
822.19	1366.00
822.36	1409.00
822.53	1363.95
822.70	1329.13
822.88	1386.47
823.05	1372.14
823.22	1327.08
823.39	1378.28
823.56	1310.70
823.74	1400.81
823.91	1316.84
824.08	1361.90
824.25	1318.89
824.42	1431.53
824.60	1363.95
824.77	1374.19
824.94	1372.14
825.11	1394.67
825.28	1337.32
825.45	1417.19
825.63	1413.10
825.80	1394.67
825.97	1388.52
826.14	1386.47
826.31	1339.37
826.48	1368.04
826.66	1310.70
826.83	1245.16
827.00	1335.28
827.17	1355.76
827.34	1339.37
827.51	1347.56
827.69	1396.71
827.86	1355.76
828.03	1398.76
828.20	1384.43
828.37	1347.56
828.54	1363.95
828.71	1339.37
828.89	1488.87
829.06	1341.42
829.23	1411.05
829.40	1308.65
829.57	1347.56
829.74	1355.76
829.91	1314.80
830.09	1308.65
830.26	1470.44
830.43	1374.19
830.60	1386.47
830.77	1384.43
830.94	1380.33
831.11	1423.34
831.28	1359.85
831.46	1374.19
831.63	1378.28
831.80	1419.24
831.97	1386.47
832.14	1388.52
832.31	1339.37
832.48	1378.28
832.65	1306.60
832.82	1454.06
832.99	1382.38
833.17	1279.98
833.34	1394.67
833.51	1378.28
833.68	1368.04
833.85	1402.86
834.02	1361.90
834.19	1327.08
834.36	1390.57
834.53	1419.24
834.70	1415.15
834.87	1429.48
835.04	1343.47
835.22	1290.22
835.39	1363.95
835.56	1308.65
835.73	1351.66
835.90	1423.34
836.07	1359.85
836.24	1384.43
836.41	1296.36
836.58	1339.37
836.75	1462.25
836.92	1345.52
837.09	1349.61
837.26	1449.96
837.43	1345.52
837.60	1355.76
837.77	1366.00
837.94	1343.47
838.12	1370.09
838.29	1415.15
838.46	1361.90
838.63	1345.52
838.80	1476.59
838.97	1439.72
839.14	1376.24
839.31	1339.37
839.48	1456.11
839.65	1388.52
839.82	1366.00
839.99	1347.56
840.16	1398.76
840.33	1368.04
840.50	1445.87
840.67	1296.36
840.84	1312.75
841.01	1421.29
841.18	1357.80
841.35	1421.29
841.52	1374.19
841.69	1388.52
841.86	1392.62
842.03	1400.81
842.20	1456.11
842.37	1359.85
842.54	1427.43
842.71	1341.42
842.88	1329.13
843.05	1386.47
843.22	1439.72
843.39	1421.29
843.56	1386.47
843.73	1396.71
843.90	1372.14
844.07	1322.99
844.24	1380.33
844.41	1382.38
844.58	1370.09
844.75	1353.71
844.92	1345.52
845.09	1388.52
845.26	1363.95
845.43	1359.85
845.60	1351.66
845.77	1417.19
845.94	1337.32
846.10	1368.04
846.27	1396.71
846.44	1363.95
846.61	1361.90
846.78	1396.71
846.95	1368.04
847.12	1353.71
847.29	1390.57
847.46	1343.47
847.63	1443.82
847.80	1366.00
847.97	1384.43
848.14	1486.83
848.31	1345.52
848.48	1298.41
848.65	1390.57
848.82	1298.41
848.98	1421.29
849.15	1351.66
849.32	1394.67
849.49	1415.15
849.66	1363.95
849.83	1460.20
850.00	1337.32
850.17	1329.13
850.34	1347.56
850.51	1378.28
850.68	1380.33
850.85	1433.58
851.01	1296.36
851.18	1409.00
851.35	1368.04
851.52	1398.76
851.69	1374.19
851.86	1349.61
852.03	1331.18
852.20	1388.52
852.37	1363.95
852.53	1347.56
852.70	1345.52
852.87	1327.08
853.04	1294.32
853.21	1390.57
853.38	1347.56
853.55	1419.24
853.72	1423.34
853.89	1368.04
854.05	1282.03
854.22	1411.05
854.39	1372.14
854.56	1394.67
854.73	1437.67
854.90	1392.62
855.07	1347.56
855.23	1337.32
855.40	1378.28
855.57	1386.47
855.74	1284.08
855.91	1501.16
856.08	1382.38
856.25	1343.47
856.41	1372.14
856.58	1355.76
856.75	1384.43
856.92	1337.32
857.09	1357.80
857.26	1335.28
857.42	1312.75
857.59	1421.29
857.76	1335.28
857.93	1347.56
858.10	1406.95
858.27	1368.04
858.43	1351.66
858.60	1306.60
858.77	1304.56
858.94	1353.71
859.11	1396.71
859.27	1325.04
859.44	1370.09
859.61	1452.01
859.78	1359.85
859.95	1374.19
860.12	1378.28
860.28	1406.95
860.45	1402.86
860.62	1380.33
860.79	1398.76
860.95	1423.34
861.12	1339.37
861.29	1351.66
861.46	1411.05
861.63	1406.95
861.79	1341.42
861.96	1335.28
862.13	1331.18
862.30	1382.38
862.47	1339.37
862.63	1343.47
862.80	1452.01
862.97	1361.90
863.14	1392.62
863.30	1343.47
863.47	1310.70
863.64	1441.77
863.81	1413.10
863.97	1388.52
864.14	1347.56
864.31	1306.60
864.48	1374.19
864.65	1376.24
864.81	1411.05
864.98	1386.47
865.15	1402.86
865.32	1384.43
865.48	1435.63
865.65	1366.00
865.82	1341.42
865.98	1454.06
866.15	1413.10
866.32	1357.80
866.49	1261.55
866.65	1419.24
866.82	1353.71
866.99	1394.67
867.16	1275.88
867.32	1329.13
867.49	1361.90
867.66	1366.00
867.83	1302.51
867.99	1343.47
868.16	1341.42
868.33	1368.04
868.49	1347.56
868.66	1361.90
868.83	1341.42
868.99	1304.56
869.16	1339.37
869.33	1355.76
869.50	1378.28
869.66	1302.51
869.83	1329.13
870.00	1349.61
870.16	1353.71
870.33	1316.84
870.50	1347.56
870.66	1353.71
870.83	1497.07
871.00	1452.01
871.17	1339.37
871.33	1447.91
871.50	1400.81
871.67	1372.14
871.83	1318.89
872.00	1435.63
872.17	1366.00
872.33	1415.15
872.50	1513.45
872.67	1273.84
872.83	1361.90
873.00	1404.91
873.17	1363.95
873.33	1392.62
873.50	1437.67
873.67	1353.71
873.83	1345.52
874.00	1400.81
874.16	1404.91
874.33	1290.22
874.50	1384.43
874.66	1353.71
874.83	1372.14
875.00	1452.01
875.16	1347.56
875.33	1355.76
875.50	1302.51
875.66	1374.19
875.83	1396.71
875.99	1382.38
876.16	1384.43
876.33	1298.41
876.49	1345.52
876.66	1341.42
876.83	1404.91
876.99	1298.41
877.16	1351.66
877.32	1402.86
877.49	1357.80
877.66	1345.52
877.82	1478.63
877.99	1452.01
878.15	1339.37
878.32	1396.71
878.49	1359.85
878.65	1361.90
878.82	1359.85
878.98	1337.32
879.15	1353.71
879.32	1392.62
879.48	1337.32
879.65	1406.95
879.81	1398.76
879.98	1378.28
880.15	1347.56
880.31	1439.72
880.48	1259.50
880.64	1452.01
880.81	1320.94
880.97	1419.24
881.14	1452.01
881.31	1329.13
881.47	1495.02
881.64	1363.95
881.80	1271.79
881.97	1357.80
882.13	1406.95
882.30	1363.95
882.47	1316.84
882.63	1353.71
882.80	1337.32
882.96	1314.80
883.13	1374.19
883.29	1247.21
883.46	1382.38
883.62	1425.39
883.79	1396.71
883.95	1425.39
884.12	1329.13
884.29	1273.84
884.45	1404.91
884.62	1329.13
884.78	1327.08
884.95	1327.08
885.11	1296.36
885.28	1339.37
885.44	1355.76
885.61	1347.56
885.77	1318.89
885.94	1409.00
886.10	1331.18
886.27	1355.76
886.43	1458.15
886.60	1411.05
886.76	1359.85
886.93	1345.52
887.09	1425.39
887.26	1331.18
887.42	1304.56
887.59	1406.95
887.75	1474.54
887.92	1390.57
888.08	1384.43
888.25	1441.77
888.41	1433.58
888.58	1314.80
888.74	1314.80
888.91	1333.23
>>>>>End Processed Spectral Data<<<<<
