SpectraSuite Data File
++++++++++++++++++++++++++++++++++++
Date: Tue May 03 11:24:35 CEST 2016
User: root
Dark Spectrum Present: No
Reference Spectrum Present: No
Number of Sampled Component Spectra: 1
Spectrometers: USB4C02835
Integration Time (usec): 100000 (USB4C02835)
Spectra Averaged: 1 (USB4C02835)
Boxcar Smoothing: 0 (USB4C02835)
Correct for Electrical Dark: No (USB4C02835)
Strobe/Lamp Enabled: No (USB4C02835)
Correct for Detector Non-linearity: No (USB4C02835)
Correct for Stray Light: No (USB4C02835)
Number of Pixels in Processed Spectrum: 3648
>>>>>Begin Processed Spectral Data<<<<<
177.47	1232.88
177.69	1232.88
177.91	1232.88
178.13	1118.19
178.36	1232.88
178.58	1261.55
178.80	1366.00
179.02	1374.19
179.24	1331.18
179.46	1318.89
179.68	1402.86
179.90	1341.42
180.13	1370.09
180.35	1388.52
180.57	1392.62
180.79	1406.95
181.01	1370.09
181.23	1374.19
181.45	1492.97
181.67	1443.82
181.90	1409.00
182.12	1366.00
182.34	1380.33
182.56	1366.00
182.78	1390.57
183.00	1366.00
183.22	1353.71
183.44	1314.80
183.66	1466.35
183.89	1417.19
184.11	1347.56
184.33	1394.67
184.55	1429.48
184.77	1322.99
184.99	1368.04
185.21	1398.76
185.43	1425.39
185.65	1382.38
185.87	1386.47
186.10	1406.95
186.32	1394.67
186.54	1353.71
186.76	1431.53
186.98	1425.39
187.20	1322.99
187.42	1331.18
187.64	1404.91
187.86	1339.37
188.08	1406.95
188.30	1402.86
188.52	1396.71
188.75	1490.92
188.97	1404.91
189.19	1331.18
189.41	1339.37
189.63	1388.52
189.85	1257.45
190.07	1368.04
190.29	1368.04
190.51	1341.42
190.73	1304.56
190.95	1353.71
191.17	1388.52
191.39	1363.95
191.61	1359.85
191.84	1363.95
192.06	1413.10
192.28	1372.14
192.50	1486.83
192.72	1380.33
192.94	1394.67
193.16	1445.87
193.38	1370.09
193.60	1374.19
193.82	1386.47
194.04	1400.81
194.26	1390.57
194.48	1417.19
194.70	1382.38
194.92	1396.71
195.14	1343.47
195.36	1370.09
195.58	1425.39
195.80	1327.08
196.02	1314.80
196.24	1335.28
196.46	1421.29
196.69	1357.80
196.91	1427.43
197.13	1431.53
197.35	1380.33
197.57	1449.96
197.79	1355.76
198.01	1382.38
198.23	1404.91
198.45	1417.19
198.67	1337.32
198.89	1327.08
199.11	1345.52
199.33	1370.09
199.55	1347.56
199.77	1411.05
199.99	1445.87
200.21	1380.33
200.43	1378.28
200.65	1333.23
200.87	1329.13
201.09	1353.71
201.31	1345.52
201.53	1372.14
201.75	1359.85
201.97	1368.04
202.19	1316.84
202.41	1429.48
202.63	1433.58
202.85	1388.52
203.07	1409.00
203.29	1409.00
203.51	1363.95
203.73	1339.37
203.95	1435.63
204.17	1374.19
204.39	1372.14
204.61	1337.32
204.83	1378.28
205.05	1419.24
205.27	1490.92
205.49	1462.25
205.71	1378.28
205.93	1357.80
206.15	1347.56
206.37	1312.75
206.59	1361.90
206.81	1363.95
207.03	1355.76
207.25	1370.09
207.47	1318.89
207.69	1386.47
207.91	1384.43
208.13	1349.61
208.34	1351.66
208.56	1347.56
208.78	1417.19
209.00	1327.08
209.22	1263.60
209.44	1333.23
209.66	1335.28
209.88	1390.57
210.10	1294.32
210.32	1374.19
210.54	1363.95
210.76	1415.15
210.98	1355.76
211.20	1308.65
211.42	1466.35
211.64	1394.67
211.86	1404.91
212.08	1454.06
212.30	1402.86
212.52	1380.33
212.74	1392.62
212.96	1384.43
213.17	1396.71
213.39	1388.52
213.61	1476.59
213.83	1431.53
214.05	1363.95
214.27	1386.47
214.49	1302.51
214.71	1335.28
214.93	1374.19
215.15	1361.90
215.37	1378.28
215.59	1271.79
215.81	1392.62
216.03	1429.48
216.24	1402.86
216.46	1398.76
216.68	1462.25
216.90	1409.00
217.12	1445.87
217.34	1398.76
217.56	1406.95
217.78	1454.06
218.00	1351.66
218.22	1388.52
218.44	1388.52
218.66	1437.67
218.87	1400.81
219.09	1437.67
219.31	1406.95
219.53	1359.85
219.75	1331.18
219.97	1388.52
220.19	1347.56
220.41	1386.47
220.63	1331.18
220.85	1421.29
221.06	1343.47
221.28	1337.32
221.50	1419.24
221.72	1390.57
221.94	1388.52
222.16	1310.70
222.38	1392.62
222.60	1380.33
222.82	1370.09
223.03	1392.62
223.25	1269.74
223.47	1372.14
223.69	1437.67
223.91	1404.91
224.13	1345.52
224.35	1445.87
224.57	1411.05
224.78	1361.90
225.00	1363.95
225.22	1296.36
225.44	1406.95
225.66	1476.59
225.88	1327.08
226.10	1470.44
226.32	1310.70
226.53	1361.90
226.75	1282.03
226.97	1374.19
227.19	1384.43
227.41	1318.89
227.63	1320.94
227.85	1284.08
228.06	1329.13
228.28	1329.13
228.50	1437.67
228.72	1347.56
228.94	1363.95
229.16	1355.76
229.37	1355.76
229.59	1396.71
229.81	1411.05
230.03	1359.85
230.25	1294.32
230.47	1322.99
230.69	1380.33
230.90	1415.15
231.12	1331.18
231.34	1355.76
231.56	1406.95
231.78	1366.00
232.00	1331.18
232.21	1329.13
232.43	1314.80
232.65	1241.07
232.87	1415.15
233.09	1417.19
233.30	1368.04
233.52	1396.71
233.74	1372.14
233.96	1380.33
234.18	1363.95
234.40	1380.33
234.61	1462.25
234.83	1302.51
235.05	1327.08
235.27	1435.63
235.49	1404.91
235.70	1398.76
235.92	1454.06
236.14	1464.30
236.36	1468.39
236.58	1349.61
236.79	1355.76
237.01	1427.43
237.23	1341.42
237.45	1441.77
237.67	1388.52
237.88	1310.70
238.10	1374.19
238.32	1345.52
238.54	1333.23
238.76	1390.57
238.97	1384.43
239.19	1380.33
239.41	1322.99
239.63	1378.28
239.85	1355.76
240.06	1411.05
240.28	1320.94
240.50	1366.00
240.72	1376.24
240.93	1392.62
241.15	1417.19
241.37	1394.67
241.59	1329.13
241.81	1400.81
242.02	1343.47
242.24	1327.08
242.46	1327.08
242.68	1390.57
242.89	1433.58
243.11	1347.56
243.33	1396.71
243.55	1394.67
243.76	1341.42
243.98	1327.08
244.20	1437.67
244.42	1392.62
244.64	1396.71
244.85	1312.75
245.07	1288.17
245.29	1454.06
245.51	1361.90
245.72	1380.33
245.94	1476.59
246.16	1316.84
246.38	1386.47
246.59	1353.71
246.81	1275.88
247.03	1331.18
247.24	1355.76
247.46	1396.71
247.68	1359.85
247.90	1382.38
248.11	1396.71
248.33	1437.67
248.55	1294.32
248.77	1374.19
248.98	1415.15
249.20	1490.92
249.42	1337.32
249.64	1376.24
249.85	1363.95
250.07	1349.61
250.29	1392.62
250.50	1505.26
250.72	1241.07
250.94	1470.44
251.16	1468.39
251.37	1486.83
251.59	1380.33
251.81	1378.28
252.02	1492.97
252.24	1368.04
252.46	1400.81
252.68	1316.84
252.89	1353.71
253.11	1325.04
253.33	1449.96
253.54	1353.71
253.76	1279.98
253.98	1361.90
254.20	1423.34
254.41	1380.33
254.63	1378.28
254.85	1261.55
255.06	1409.00
255.28	1351.66
255.50	1337.32
255.71	1378.28
255.93	1275.88
256.15	1361.90
256.36	1359.85
256.58	1435.63
256.80	1392.62
257.02	1351.66
257.23	1384.43
257.45	1409.00
257.67	1433.58
257.88	1345.52
258.10	1357.80
258.32	1339.37
258.53	1437.67
258.75	1382.38
258.97	1363.95
259.18	1388.52
259.40	1320.94
259.62	1439.72
259.83	1380.33
260.05	1372.14
260.27	1544.17
260.48	1345.52
260.70	1271.79
260.92	1386.47
261.13	1380.33
261.35	1382.38
261.57	1406.95
261.78	1316.84
262.00	1359.85
262.22	1404.91
262.43	1331.18
262.65	1333.23
262.86	1345.52
263.08	1429.48
263.30	1376.24
263.51	1363.95
263.73	1370.09
263.95	1355.76
264.16	1298.41
264.38	1339.37
264.60	1390.57
264.81	1368.04
265.03	1411.05
265.25	1366.00
265.46	1388.52
265.68	1421.29
265.89	1415.15
266.11	1366.00
266.33	1386.47
266.54	1376.24
266.76	1466.35
266.98	1312.75
267.19	1437.67
267.41	1411.05
267.62	1404.91
267.84	1372.14
268.06	1333.23
268.27	1345.52
268.49	1409.00
268.70	1429.48
268.92	1372.14
269.14	1294.32
269.35	1339.37
269.57	1425.39
269.79	1386.47
270.00	1341.42
270.22	1390.57
270.43	1333.23
270.65	1314.80
270.87	1402.86
271.08	1378.28
271.30	1374.19
271.51	1341.42
271.73	1402.86
271.95	1439.72
272.16	1419.24
272.38	1390.57
272.59	1390.57
272.81	1472.49
273.02	1382.38
273.24	1366.00
273.46	1470.44
273.67	1374.19
273.89	1314.80
274.10	1368.04
274.32	1429.48
274.54	1380.33
274.75	1396.71
274.97	1322.99
275.18	1382.38
275.40	1411.05
275.61	1341.42
275.83	1347.56
276.05	1310.70
276.26	1296.36
276.48	1368.04
276.69	1347.56
276.91	1388.52
277.12	1441.77
277.34	1437.67
277.55	1335.28
277.77	1382.38
277.99	1355.76
278.20	1345.52
278.42	1370.09
278.63	1343.47
278.85	1378.28
279.06	1337.32
279.28	1382.38
279.49	1388.52
279.71	1378.28
279.93	1390.57
280.14	1329.13
280.36	1257.45
280.57	1411.05
280.79	1378.28
281.00	1329.13
281.22	1388.52
281.43	1357.80
281.65	1292.27
281.86	1304.56
282.08	1370.09
282.29	1435.63
282.51	1404.91
282.73	1302.51
282.94	1302.51
283.16	1302.51
283.37	1476.59
283.59	1394.67
283.80	1423.34
284.02	1325.04
284.23	1406.95
284.45	1368.04
284.66	1298.41
284.88	1419.24
285.09	1431.53
285.31	1411.05
285.52	1417.19
285.74	1331.18
285.95	1384.43
286.17	1312.75
286.38	1331.18
286.60	1411.05
286.81	1378.28
287.03	1384.43
287.24	1337.32
287.46	1347.56
287.67	1300.46
287.89	1419.24
288.10	1355.76
288.32	1384.43
288.53	1398.76
288.75	1361.90
288.96	1380.33
289.18	1353.71
289.39	1353.71
289.61	1404.91
289.82	1470.44
290.04	1423.34
290.25	1327.08
290.47	1435.63
290.68	1376.24
290.90	1396.71
291.11	1353.71
291.33	1495.02
291.54	1308.65
291.76	1380.33
291.97	1404.91
292.18	1468.39
292.40	1368.04
292.61	1359.85
292.83	1468.39
293.04	1320.94
293.26	1372.14
293.47	1341.42
293.69	1337.32
293.90	1368.04
294.12	1433.58
294.33	1359.85
294.55	1359.85
294.76	1359.85
294.97	1435.63
295.19	1460.20
295.40	1386.47
295.62	1314.80
295.83	1409.00
296.05	1325.04
296.26	1396.71
296.48	1378.28
296.69	1347.56
296.90	1427.43
297.12	1417.19
297.33	1368.04
297.55	1339.37
297.76	1394.67
297.98	1400.81
298.19	1372.14
298.41	1353.71
298.62	1298.41
298.83	1374.19
299.05	1384.43
299.26	1431.53
299.48	1304.56
299.69	1363.95
299.90	1388.52
300.12	1308.65
300.33	1386.47
300.55	1435.63
300.76	1409.00
300.98	1320.94
301.19	1357.80
301.40	1345.52
301.62	1380.33
301.83	1363.95
302.05	1429.48
302.26	1429.48
302.47	1394.67
302.69	1316.84
302.90	1355.76
303.12	1322.99
303.33	1417.19
303.54	1431.53
303.76	1415.15
303.97	1384.43
304.19	1386.47
304.40	1282.03
304.61	1380.33
304.83	1394.67
305.04	1368.04
305.26	1386.47
305.47	1406.95
305.68	1382.38
305.90	1294.32
306.11	1415.15
306.33	1355.76
306.54	1411.05
306.75	1396.71
306.97	1267.69
307.18	1353.71
307.39	1333.23
307.61	1460.20
307.82	1376.24
308.04	1419.24
308.25	1327.08
308.46	1441.77
308.68	1347.56
308.89	1396.71
309.10	1456.11
309.32	1404.91
309.53	1435.63
309.74	1411.05
309.96	1325.04
310.17	1361.90
310.39	1388.52
310.60	1468.39
310.81	1370.09
311.03	1318.89
311.24	1433.58
311.45	1357.80
311.67	1445.87
311.88	1415.15
312.09	1374.19
312.31	1359.85
312.52	1417.19
312.73	1286.12
312.95	1349.61
313.16	1368.04
313.37	1421.29
313.59	1339.37
313.80	1402.86
314.01	1484.78
314.23	1308.65
314.44	1404.91
314.65	1288.17
314.87	1314.80
315.08	1413.10
315.29	1376.24
315.51	1282.03
315.72	1316.84
315.93	1460.20
316.15	1478.63
316.36	1329.13
316.57	1314.80
316.79	1394.67
317.00	1415.15
317.21	1456.11
317.43	1370.09
317.64	1370.09
317.85	1411.05
318.07	1406.95
318.28	1462.25
318.49	1560.55
318.70	1640.42
318.92	1482.73
319.13	1462.25
319.34	1566.70
319.56	1568.74
319.77	1472.49
319.98	1507.30
320.20	1337.32
320.41	1464.30
320.62	1374.19
320.83	1355.76
321.05	1503.21
321.26	1394.67
321.47	1392.62
321.69	1525.74
321.90	1247.21
322.11	1378.28
322.32	1349.61
322.54	1462.25
322.75	1392.62
322.96	1456.11
323.18	1308.65
323.39	1333.23
323.60	1345.52
323.81	1413.10
324.03	1316.84
324.24	1331.18
324.45	1335.28
324.66	1357.80
324.88	1390.57
325.09	1388.52
325.30	1388.52
325.52	1380.33
325.73	1320.94
325.94	1378.28
326.15	1347.56
326.37	1345.52
326.58	1439.72
326.79	1396.71
327.00	1267.69
327.22	1400.81
327.43	1273.84
327.64	1339.37
327.85	1429.48
328.07	1398.76
328.28	1359.85
328.49	1388.52
328.70	1368.04
328.92	1327.08
329.13	1372.14
329.34	1427.43
329.55	1329.13
329.76	1447.91
329.98	1355.76
330.19	1382.38
330.40	1327.08
330.61	1380.33
330.83	1320.94
331.04	1290.22
331.25	1372.14
331.46	1329.13
331.68	1376.24
331.89	1366.00
332.10	1302.51
332.31	1296.36
332.52	1376.24
332.74	1392.62
332.95	1366.00
333.16	1372.14
333.37	1402.86
333.58	1394.67
333.80	1374.19
334.01	1347.56
334.22	1335.28
334.43	1320.94
334.64	1259.50
334.86	1419.24
335.07	1355.76
335.28	1423.34
335.49	1349.61
335.70	1433.58
335.92	1374.19
336.13	1413.10
336.34	1415.15
336.55	1335.28
336.76	1429.48
336.98	1310.70
337.19	1341.42
337.40	1503.21
337.61	1472.49
337.82	1388.52
338.04	1421.29
338.25	1327.08
338.46	1355.76
338.67	1331.18
338.88	1343.47
339.09	1310.70
339.31	1341.42
339.52	1388.52
339.73	1306.60
339.94	1454.06
340.15	1378.28
340.36	1318.89
340.58	1411.05
340.79	1292.27
341.00	1333.23
341.21	1384.43
341.42	1419.24
341.63	1388.52
341.85	1380.33
342.06	1355.76
342.27	1327.08
342.48	1425.39
342.69	1351.66
342.90	1322.99
343.12	1347.56
343.33	1390.57
343.54	1400.81
343.75	1443.82
343.96	1374.19
344.17	1275.88
344.38	1421.29
344.60	1359.85
344.81	1333.23
345.02	1335.28
345.23	1400.81
345.44	1388.52
345.65	1378.28
345.86	1411.05
346.07	1320.94
346.29	1322.99
346.50	1335.28
346.71	1382.38
346.92	1466.35
347.13	1404.91
347.34	1333.23
347.55	1454.06
347.76	1429.48
347.98	1359.85
348.19	1357.80
348.40	1503.21
348.61	1353.71
348.82	1460.20
349.03	1413.10
349.24	1316.84
349.45	1394.67
349.66	1349.61
349.88	1316.84
350.09	1355.76
350.30	1433.58
350.51	1419.24
350.72	1359.85
350.93	1363.95
351.14	1388.52
351.35	1394.67
351.56	1419.24
351.77	1406.95
351.99	1394.67
352.20	1411.05
352.41	1452.01
352.62	1302.51
352.83	1380.33
353.04	1398.76
353.25	1363.95
353.46	1476.59
353.67	1337.32
353.88	1327.08
354.09	1343.47
354.30	1425.39
354.52	1409.00
354.73	1404.91
354.94	1423.34
355.15	1327.08
355.36	1497.07
355.57	1349.61
355.78	1437.67
355.99	1318.89
356.20	1312.75
356.41	1400.81
356.62	1372.14
356.83	1355.76
357.04	1480.68
357.25	1359.85
357.46	1361.90
357.68	1325.04
357.89	1400.81
358.10	1394.67
358.31	1368.04
358.52	1396.71
358.73	1322.99
358.94	1341.42
359.15	1388.52
359.36	1378.28
359.57	1333.23
359.78	1443.82
359.99	1386.47
360.20	1433.58
360.41	1341.42
360.62	1394.67
360.83	1392.62
361.04	1394.67
361.25	1439.72
361.46	1384.43
361.67	1386.47
361.88	1421.29
362.09	1454.06
362.30	1322.99
362.51	1351.66
362.72	1384.43
362.93	1413.10
363.14	1400.81
363.35	1372.14
363.56	1378.28
363.78	1376.24
363.99	1456.11
364.20	1353.71
364.41	1431.53
364.62	1519.59
364.83	1335.28
365.04	1378.28
365.25	1433.58
365.46	1441.77
365.67	1366.00
365.88	1347.56
366.09	1318.89
366.30	1345.52
366.51	1396.71
366.72	1341.42
366.93	1312.75
367.14	1429.48
367.35	1363.95
367.56	1394.67
367.77	1542.12
367.98	1374.19
368.18	1406.95
368.39	1435.63
368.60	1341.42
368.81	1398.76
369.02	1363.95
369.23	1277.93
369.44	1335.28
369.65	1396.71
369.86	1366.00
370.07	1306.60
370.28	1376.24
370.49	1380.33
370.70	1454.06
370.91	1263.60
371.12	1368.04
371.33	1431.53
371.54	1310.70
371.75	1423.34
371.96	1329.13
372.17	1419.24
372.38	1376.24
372.59	1427.43
372.80	1388.52
373.01	1339.37
373.22	1337.32
373.43	1417.19
373.64	1345.52
373.85	1427.43
374.06	1400.81
374.26	1386.47
374.47	1347.56
374.68	1368.04
374.89	1368.04
375.10	1390.57
375.31	1386.47
375.52	1355.76
375.73	1411.05
375.94	1378.28
376.15	1437.67
376.36	1329.13
376.57	1353.71
376.78	1366.00
376.99	1409.00
377.20	1445.87
377.40	1392.62
377.61	1445.87
377.82	1314.80
378.03	1447.91
378.24	1409.00
378.45	1286.12
378.66	1464.30
378.87	1304.56
379.08	1216.49
379.29	1312.75
379.50	1458.15
379.71	1400.81
379.91	1449.96
380.12	1368.04
380.33	1392.62
380.54	1404.91
380.75	1433.58
380.96	1359.85
381.17	1384.43
381.38	1417.19
381.59	1421.29
381.80	1419.24
382.00	1521.64
382.21	1406.95
382.42	1449.96
382.63	1490.92
382.84	1376.24
383.05	1449.96
383.26	1433.58
383.47	1368.04
383.68	1409.00
383.88	1423.34
384.09	1402.86
384.30	1507.30
384.51	1421.29
384.72	1404.91
384.93	1327.08
385.14	1347.56
385.35	1472.49
385.55	1374.19
385.76	1404.91
385.97	1415.15
386.18	1396.71
386.39	1351.66
386.60	1335.28
386.81	1327.08
387.02	1443.82
387.22	1345.52
387.43	1437.67
387.64	1630.18
387.85	2312.16
388.06	5717.93
388.27	9297.78
388.48	11419.47
388.68	13113.14
388.89	13283.13
389.10	10768.22
389.31	9056.12
389.52	8329.09
389.73	7258.00
389.93	7032.72
390.14	6479.77
390.35	6018.98
390.56	5654.44
390.77	4667.32
390.98	3764.17
391.18	2818.00
391.39	2084.83
391.60	1736.68
391.81	1621.99
392.02	1462.25
392.23	1501.16
392.43	1427.43
392.64	1449.96
392.85	1482.73
393.06	1411.05
393.27	1337.32
393.47	1353.71
393.68	1312.75
393.89	1376.24
394.10	1470.44
394.31	1372.14
394.52	1343.47
394.72	1363.95
394.93	1406.95
395.14	1322.99
395.35	1396.71
395.56	1388.52
395.76	1548.26
395.97	1650.66
396.18	1556.46
396.39	1619.94
396.60	1683.43
396.80	1560.55
397.01	1560.55
397.22	1548.26
397.43	1585.13
397.64	1423.34
397.84	1466.35
398.05	1472.49
398.26	1437.67
398.47	1382.38
398.67	1468.39
398.88	1423.34
399.09	1384.43
399.30	1306.60
399.51	1376.24
399.71	1337.32
399.92	1441.77
400.13	1380.33
400.34	1347.56
400.54	1327.08
400.75	1447.91
400.96	1394.67
401.17	1441.77
401.37	1458.15
401.58	1343.47
401.79	1517.54
402.00	1744.87
402.21	1763.30
402.41	1708.01
402.62	1761.25
402.83	1714.15
403.04	1578.98
403.24	1783.78
403.45	1562.60
403.66	1552.36
403.87	1574.89
404.07	1560.55
404.28	1660.90
404.49	1548.26
404.70	1460.20
404.90	1495.02
405.11	1409.00
405.32	1386.47
405.52	1304.56
405.73	1396.71
405.94	1388.52
406.15	1335.28
406.35	1404.91
406.56	1339.37
406.77	1394.67
406.98	1388.52
407.18	1384.43
407.39	1400.81
407.60	1423.34
407.80	1361.90
408.01	1370.09
408.22	1392.62
408.43	1427.43
408.63	1466.35
408.84	1404.91
409.05	1363.95
409.25	1322.99
409.46	1322.99
409.67	1372.14
409.88	1345.52
410.08	1443.82
410.29	1411.05
410.50	1431.53
410.70	1368.04
410.91	1378.28
411.12	1437.67
411.32	1390.57
411.53	1349.61
411.74	1454.06
411.95	1470.44
412.15	1406.95
412.36	1431.53
412.57	1320.94
412.77	1398.76
412.98	1447.91
413.19	1441.77
413.39	1378.28
413.60	1429.48
413.81	1476.59
414.01	1386.47
414.22	1443.82
414.43	1429.48
414.63	1484.78
414.84	1339.37
415.05	1359.85
415.25	1339.37
415.46	1472.49
415.67	1413.10
415.87	1402.86
416.08	1357.80
416.29	1368.04
416.49	1423.34
416.70	1341.42
416.91	1423.34
417.11	1341.42
417.32	1411.05
417.53	1409.00
417.73	1355.76
417.94	1382.38
418.15	1413.10
418.35	1341.42
418.56	1406.95
418.77	1443.82
418.97	1388.52
419.18	1335.28
419.38	1257.45
419.59	1318.89
419.80	1423.34
420.00	1343.47
420.21	1351.66
420.42	1437.67
420.62	1339.37
420.83	1300.46
421.04	1327.08
421.24	1372.14
421.45	1382.38
421.65	1359.85
421.86	1376.24
422.07	1333.23
422.27	1322.99
422.48	1398.76
422.69	1312.75
422.89	1370.09
423.10	1363.95
423.30	1333.23
423.51	1337.32
423.72	1343.47
423.92	1378.28
424.13	1363.95
424.33	1372.14
424.54	1284.08
424.75	1470.44
424.95	1415.15
425.16	1413.10
425.36	1312.75
425.57	1409.00
425.78	1386.47
425.98	1378.28
426.19	1357.80
426.39	1275.88
426.60	1314.80
426.81	1374.19
427.01	1368.04
427.22	1337.32
427.42	1361.90
427.63	1413.10
427.83	1372.14
428.04	1439.72
428.25	1415.15
428.45	1427.43
428.66	1423.34
428.86	1370.09
429.07	1388.52
429.28	1437.67
429.48	1310.70
429.69	1306.60
429.89	1347.56
430.10	1296.36
430.30	1341.42
430.51	1419.24
430.71	1359.85
430.92	1363.95
431.13	1372.14
431.33	1388.52
431.54	1466.35
431.74	1370.09
431.95	1384.43
432.15	1394.67
432.36	1290.22
432.56	1423.34
432.77	1454.06
432.98	1435.63
433.18	1394.67
433.39	1351.66
433.59	1310.70
433.80	1480.68
434.00	1460.20
434.21	1419.24
434.41	1269.74
434.62	1470.44
434.82	1316.84
435.03	1341.42
435.23	1345.52
435.44	1290.22
435.64	1370.09
435.85	1411.05
436.06	1445.87
436.26	1433.58
436.47	1382.38
436.67	1345.52
436.88	1406.95
437.08	1378.28
437.29	1468.39
437.49	1454.06
437.70	1400.81
437.90	1419.24
438.11	1519.59
438.31	1548.26
438.52	1648.61
438.72	1517.54
438.93	1568.74
439.13	1470.44
439.34	1462.25
439.54	1454.06
439.75	1423.34
439.95	1445.87
440.16	1343.47
440.36	1376.24
440.57	1439.72
440.77	1413.10
440.98	1351.66
441.18	1423.34
441.39	1343.47
441.59	1333.23
441.80	1447.91
442.00	1415.15
442.21	1378.28
442.41	1290.22
442.62	1409.00
442.82	1404.91
443.02	1361.90
443.23	1435.63
443.43	1445.87
443.64	1507.30
443.84	1316.84
444.05	1464.30
444.25	1429.48
444.46	1366.00
444.66	1366.00
444.87	1531.88
445.07	1363.95
445.28	1394.67
445.48	1484.78
445.69	1454.06
445.89	1437.67
446.09	1396.71
446.30	2267.10
446.50	3764.17
446.71	4620.22
446.91	5365.68
447.12	5576.62
447.32	5003.19
447.53	4136.90
447.73	3770.31
447.93	3551.18
448.14	3127.25
448.34	2953.17
448.55	2772.95
448.75	2660.31
448.96	2633.69
449.16	2445.27
449.36	2191.33
449.57	1929.19
449.77	1652.71
449.98	1540.07
450.18	1544.17
450.39	1507.30
450.59	1386.47
450.79	1429.48
451.00	1347.56
451.20	1298.41
451.41	1329.13
451.61	1415.15
451.81	1355.76
452.02	1441.77
452.22	1435.63
452.43	1333.23
452.63	1335.28
452.84	1331.18
453.04	1290.22
453.24	1308.65
453.45	1304.56
453.65	1398.76
453.86	1363.95
454.06	1454.06
454.26	1363.95
454.47	1286.12
454.67	1421.29
454.87	1447.91
455.08	1402.86
455.28	1429.48
455.49	1376.24
455.69	1361.90
455.89	1439.72
456.10	1445.87
456.30	1421.29
456.51	1392.62
456.71	1347.56
456.91	1368.04
457.12	1390.57
457.32	1409.00
457.52	1345.52
457.73	1429.48
457.93	1400.81
458.14	1411.05
458.34	1286.12
458.54	1353.71
458.75	1386.47
458.95	1384.43
459.15	1392.62
459.36	1411.05
459.56	1441.77
459.76	1413.10
459.97	1349.61
460.17	1337.32
460.37	1413.10
460.58	1413.10
460.78	1320.94
460.99	1306.60
461.19	1329.13
461.39	1353.71
461.60	1394.67
461.80	1322.99
462.00	1345.52
462.21	1271.79
462.41	1320.94
462.61	1361.90
462.82	1351.66
463.02	1314.80
463.22	1470.44
463.43	1404.91
463.63	1310.70
463.83	1363.95
464.04	1361.90
464.24	1417.19
464.44	1376.24
464.64	1390.57
464.85	1363.95
465.05	1449.96
465.25	1439.72
465.46	1386.47
465.66	1480.68
465.86	1359.85
466.07	1460.20
466.27	1320.94
466.47	1363.95
466.68	1341.42
466.88	1431.53
467.08	1349.61
467.29	1333.23
467.49	1394.67
467.69	1361.90
467.89	1384.43
468.10	1382.38
468.30	1345.52
468.50	1413.10
468.71	1460.20
468.91	1384.43
469.11	1521.64
469.31	1402.86
469.52	1277.93
469.72	1411.05
469.92	1466.35
470.13	1331.18
470.33	1433.58
470.53	1675.24
470.73	2054.11
470.94	2269.15
471.14	2344.92
471.34	2443.23
471.54	2211.81
471.75	1964.00
471.95	1898.47
472.15	1802.21
472.36	1693.67
472.56	1841.12
472.76	1712.10
472.96	1730.53
473.17	1693.67
473.37	1714.15
473.57	1525.74
473.77	1495.02
473.98	1445.87
474.18	1382.38
474.38	1413.10
474.58	1423.34
474.79	1380.33
474.99	1409.00
475.19	1398.76
475.39	1318.89
475.60	1435.63
475.80	1353.71
476.00	1406.95
476.20	1378.28
476.41	1318.89
476.61	1468.39
476.81	1445.87
477.01	1312.75
477.21	1351.66
477.42	1425.39
477.62	1353.71
477.82	1425.39
478.02	1302.51
478.23	1404.91
478.43	1263.60
478.63	1296.36
478.83	1411.05
479.03	1404.91
479.24	1415.15
479.44	1478.63
479.64	1388.52
479.84	1320.94
480.04	1345.52
480.25	1427.43
480.45	1325.04
480.65	1345.52
480.85	1454.06
481.06	1386.47
481.26	1396.71
481.46	1452.01
481.66	1427.43
481.86	1322.99
482.06	1449.96
482.27	1351.66
482.47	1322.99
482.67	1425.39
482.87	1417.19
483.07	1441.77
483.28	1374.19
483.48	1361.90
483.68	1411.05
483.88	1267.69
484.08	1380.33
484.29	1372.14
484.49	1411.05
484.69	1380.33
484.89	1427.43
485.09	1327.08
485.29	1486.83
485.50	1404.91
485.70	1400.81
485.90	1431.53
486.10	1341.42
486.30	1443.82
486.50	1419.24
486.71	1361.90
486.91	1435.63
487.11	1343.47
487.31	1368.04
487.51	1421.29
487.71	1300.46
487.91	1361.90
488.12	1335.28
488.32	1290.22
488.52	1394.67
488.72	1368.04
488.92	1406.95
489.12	1331.18
489.32	1394.67
489.53	1339.37
489.73	1388.52
489.93	1404.91
490.13	1384.43
490.33	1345.52
490.53	1374.19
490.73	1507.30
490.94	1394.67
491.14	1445.87
491.34	1617.90
491.54	2220.00
491.74	2592.73
491.94	2940.88
492.14	3164.11
492.34	3098.58
492.54	2516.95
492.75	2342.88
492.95	2207.71
493.15	2072.54
493.35	1955.81
493.55	1976.29
493.75	1851.36
493.95	1978.34
494.15	1830.88
494.35	1665.00
494.56	1581.03
494.76	1624.04
494.96	1478.63
495.16	1521.64
495.36	1327.08
495.56	1398.76
495.76	1353.71
495.96	1306.60
496.16	1343.47
496.36	1443.82
496.56	1415.15
496.77	1353.71
496.97	1327.08
497.17	1449.96
497.37	1355.76
497.57	1363.95
497.77	1361.90
497.97	1417.19
498.17	1320.94
498.37	1449.96
498.57	1396.71
498.77	1398.76
498.97	1427.43
499.17	1456.11
499.38	1372.14
499.58	1429.48
499.78	1435.63
499.98	1415.15
500.18	1421.29
500.38	1501.16
500.58	1642.47
500.78	2940.88
500.98	5601.19
501.18	6815.64
501.38	8226.69
501.58	8566.65
501.78	7348.11
501.98	5748.65
502.18	5017.52
502.38	4462.52
502.58	4100.03
502.78	3786.69
502.98	3620.81
503.18	3606.47
503.38	3194.83
503.59	3018.71
503.79	2809.81
503.99	2543.58
504.19	2269.15
504.39	2150.37
504.59	2009.06
504.79	1941.47
504.99	1779.68
505.19	1705.96
505.39	1574.89
505.59	1576.94
505.79	1546.22
505.99	1527.78
506.19	1499.11
506.39	1490.92
506.59	1433.58
506.79	1392.62
506.99	1404.91
507.19	1443.82
507.39	1388.52
507.59	1353.71
507.79	1388.52
507.99	1353.71
508.19	1343.47
508.39	1378.28
508.59	1398.76
508.79	1423.34
508.99	1423.34
509.19	1339.37
509.39	1302.51
509.59	1376.24
509.79	1359.85
509.99	1404.91
510.19	1456.11
510.39	1460.20
510.59	1411.05
510.79	1370.09
510.99	1316.84
511.19	1392.62
511.39	1429.48
511.59	1492.97
511.79	1339.37
511.99	1396.71
512.19	1499.11
512.38	1374.19
512.58	1423.34
512.78	1411.05
512.98	1376.24
513.18	1472.49
513.38	1327.08
513.58	1402.86
513.78	1333.23
513.98	1382.38
514.18	1394.67
514.38	1421.29
514.58	1384.43
514.78	1333.23
514.98	1345.52
515.18	1378.28
515.38	1263.60
515.58	1486.83
515.78	1316.84
515.98	1435.63
516.18	1318.89
516.38	1419.24
516.57	1322.99
516.77	1363.95
516.97	1419.24
517.17	1345.52
517.37	1302.51
517.57	1347.56
517.77	1372.14
517.97	1349.61
518.17	1427.43
518.37	1341.42
518.57	1386.47
518.77	1409.00
518.97	1406.95
519.16	1398.76
519.36	1515.50
519.56	1335.28
519.76	1404.91
519.96	1384.43
520.16	1380.33
520.36	1386.47
520.56	1423.34
520.76	1345.52
520.96	1378.28
521.16	1406.95
521.35	1488.87
521.55	1470.44
521.75	1406.95
521.95	1331.18
522.15	1339.37
522.35	1322.99
522.55	1294.32
522.75	1411.05
522.95	1357.80
523.14	1380.33
523.34	1310.70
523.54	1429.48
523.74	1433.58
523.94	1396.71
524.14	1282.03
524.34	1345.52
524.54	1509.35
524.73	1335.28
524.93	1394.67
525.13	1347.56
525.33	1355.76
525.53	1447.91
525.73	1310.70
525.93	1361.90
526.13	1329.13
526.32	1404.91
526.52	1421.29
526.72	1378.28
526.92	1398.76
527.12	1368.04
527.32	1349.61
527.52	1392.62
527.71	1425.39
527.91	1429.48
528.11	1322.99
528.31	1353.71
528.51	1361.90
528.71	1341.42
528.90	1376.24
529.10	1314.80
529.30	1366.00
529.50	1341.42
529.70	1353.71
529.90	1394.67
530.09	1423.34
530.29	1341.42
530.49	1363.95
530.69	1488.87
530.89	1327.08
531.09	1456.11
531.28	1318.89
531.48	1411.05
531.68	1339.37
531.88	1431.53
532.08	1423.34
532.28	1476.59
532.47	1353.71
532.67	1427.43
532.87	1400.81
533.07	1476.59
533.27	1431.53
533.46	1411.05
533.66	1404.91
533.86	1409.00
534.06	1447.91
534.26	1415.15
534.45	1314.80
534.65	1437.67
534.85	1384.43
535.05	1361.90
535.25	1415.15
535.44	1396.71
535.64	1368.04
535.84	1386.47
536.04	1320.94
536.24	1339.37
536.43	1372.14
536.63	1382.38
536.83	1419.24
537.03	1390.57
537.22	1339.37
537.42	1247.21
537.62	1425.39
537.82	1333.23
538.02	1411.05
538.21	1439.72
538.41	1484.78
538.61	1392.62
538.81	1361.90
539.00	1452.01
539.20	1314.80
539.40	1343.47
539.60	1327.08
539.79	1406.95
539.99	1433.58
540.19	1329.13
540.39	1437.67
540.58	1327.08
540.78	1417.19
540.98	1394.67
541.18	1441.77
541.37	1447.91
541.57	1366.00
541.77	1351.66
541.97	1273.84
542.16	1322.99
542.36	1218.54
542.56	1392.62
542.76	1417.19
542.95	1290.22
543.15	1343.47
543.35	1394.67
543.54	1359.85
543.74	1366.00
543.94	1380.33
544.14	1398.76
544.33	1378.28
544.53	1382.38
544.73	1345.52
544.93	1325.04
545.12	1288.17
545.32	1316.84
545.52	1390.57
545.71	1347.56
545.91	1353.71
546.11	1355.76
546.30	1310.70
546.50	1427.43
546.70	1439.72
546.90	1335.28
547.09	1343.47
547.29	1337.32
547.49	1351.66
547.68	1345.52
547.88	1310.70
548.08	1400.81
548.27	1673.19
548.47	1361.90
548.67	1392.62
548.87	1370.09
549.06	1402.86
549.26	1372.14
549.46	1417.19
549.65	1400.81
549.85	1335.28
550.05	1316.84
550.24	1380.33
550.44	1378.28
550.64	1396.71
550.83	1392.62
551.03	1415.15
551.23	1482.73
551.42	1374.19
551.62	1335.28
551.82	1376.24
552.01	1345.52
552.21	1398.76
552.41	1394.67
552.60	1368.04
552.80	1423.34
553.00	1310.70
553.19	1316.84
553.39	1429.48
553.59	1339.37
553.78	1366.00
553.98	1413.10
554.17	1335.28
554.37	1361.90
554.57	1400.81
554.76	1400.81
554.96	1345.52
555.16	1378.28
555.35	1335.28
555.55	1386.47
555.75	1396.71
555.94	1425.39
556.14	1327.08
556.33	1349.61
556.53	1329.13
556.73	1357.80
556.92	1329.13
557.12	1392.62
557.32	1486.83
557.51	1435.63
557.71	1398.76
557.90	1439.72
558.10	1353.71
558.30	1429.48
558.49	1363.95
558.69	1386.47
558.88	1441.77
559.08	1419.24
559.28	1394.67
559.47	1327.08
559.67	1366.00
559.86	1398.76
560.06	1411.05
560.26	1368.04
560.45	1456.11
560.65	1368.04
560.84	1425.39
561.04	1347.56
561.24	1396.71
561.43	1388.52
561.63	1443.82
561.82	1372.14
562.02	1392.62
562.22	1318.89
562.41	1347.56
562.61	1349.61
562.80	1441.77
563.00	1445.87
563.19	1445.87
563.39	1404.91
563.59	1472.49
563.78	1316.84
563.98	1304.56
564.17	1322.99
564.37	1284.08
564.56	1413.10
564.76	1353.71
564.96	1470.44
565.15	1474.54
565.35	1419.24
565.54	1382.38
565.74	1318.89
565.93	1449.96
566.13	1376.24
566.32	1378.28
566.52	1394.67
566.71	1406.95
566.91	1396.71
567.11	1429.48
567.30	1372.14
567.50	1404.91
567.69	1404.91
567.89	1425.39
568.08	1247.21
568.28	1310.70
568.47	1353.71
568.67	1318.89
568.86	1339.37
569.06	1382.38
569.25	1351.66
569.45	1329.13
569.64	1370.09
569.84	1333.23
570.04	1429.48
570.23	1351.66
570.43	1316.84
570.62	1445.87
570.82	1402.86
571.01	1392.62
571.21	1345.52
571.40	1322.99
571.60	1470.44
571.79	1353.71
571.99	1421.29
572.18	1306.60
572.38	1390.57
572.57	1378.28
572.77	1402.86
572.96	1503.21
573.16	1327.08
573.35	1427.43
573.55	1515.50
573.74	1474.54
573.94	1413.10
574.13	1423.34
574.33	1429.48
574.52	1482.73
574.71	1290.22
574.91	1431.53
575.10	1308.65
575.30	1382.38
575.49	1417.19
575.69	1392.62
575.88	1462.25
576.08	1411.05
576.27	1425.39
576.47	1419.24
576.66	1523.69
576.86	1490.92
577.05	1439.72
577.25	1454.06
577.44	1480.68
577.64	1335.28
577.83	1392.62
578.02	1376.24
578.22	1445.87
578.41	1449.96
578.61	1413.10
578.80	1386.47
579.00	1449.96
579.19	1392.62
579.39	1419.24
579.58	1359.85
579.77	1384.43
579.97	1509.35
580.16	1425.39
580.36	1478.63
580.55	1472.49
580.75	1437.67
580.94	1460.20
581.13	1535.98
581.33	1488.87
581.52	1478.63
581.72	1583.08
581.91	1554.41
582.11	1441.77
582.30	1472.49
582.49	1499.11
582.69	1492.97
582.88	1415.15
583.08	1396.71
583.27	1499.11
583.47	1431.53
583.66	1435.63
583.85	1417.19
584.05	1357.80
584.24	1505.26
584.44	1415.15
584.63	1452.01
584.82	1503.21
585.02	1568.74
585.21	1583.08
585.41	1601.51
585.60	1572.84
585.79	1654.76
585.99	1660.90
586.18	1572.84
586.37	1880.04
586.57	2736.09
586.76	8075.14
586.96	24211.09
587.15	41241.99
587.34	51948.78
587.54	59276.41
587.73	58774.66
587.93	45122.90
588.12	32988.68
588.31	26394.22
588.51	22470.31
588.70	19723.99
588.89	18405.10
589.09	17100.54
589.28	15888.14
589.47	14294.82
589.67	12576.58
589.86	10631.01
590.06	8517.50
590.25	6444.96
590.44	5017.52
590.64	3602.38
590.83	2752.47
591.02	2328.54
591.22	1877.99
591.41	1763.30
591.60	1650.66
591.80	1591.27
591.99	1499.11
592.18	1513.45
592.38	1482.73
592.57	1423.34
592.76	1452.01
592.96	1427.43
593.15	1474.54
593.34	1398.76
593.54	1406.95
593.73	1431.53
593.92	1554.41
594.12	1417.19
594.31	1501.16
594.50	1507.30
594.70	1439.72
594.89	1460.20
595.08	1263.60
595.28	1523.69
595.47	1533.93
595.66	1415.15
595.86	1339.37
596.05	1435.63
596.24	1421.29
596.43	1443.82
596.63	1458.15
596.82	1480.68
597.01	1415.15
597.21	1429.48
597.40	1456.11
597.59	1501.16
597.79	1454.06
597.98	1445.87
598.17	1413.10
598.36	1476.59
598.56	1456.11
598.75	1415.15
598.94	1402.86
599.14	1505.26
599.33	1380.33
599.52	1357.80
599.71	1390.57
599.91	1339.37
600.10	1409.00
600.29	1409.00
600.48	1429.48
600.68	1359.85
600.87	1394.67
601.06	1368.04
601.26	1419.24
601.45	1368.04
601.64	1439.72
601.83	1409.00
602.03	1384.43
602.22	1433.58
602.41	1417.19
602.60	1452.01
602.80	1445.87
602.99	1454.06
603.18	1351.66
603.37	1341.42
603.57	1376.24
603.76	1386.47
603.95	1366.00
604.14	1357.80
604.34	1394.67
604.53	1347.56
604.72	1386.47
604.91	1417.19
605.10	1478.63
605.30	1298.41
605.49	1439.72
605.68	1370.09
605.87	1390.57
606.07	1327.08
606.26	1361.90
606.45	1466.35
606.64	1419.24
606.84	1402.86
607.03	1404.91
607.22	1460.20
607.41	1413.10
607.60	1429.48
607.80	1441.77
607.99	1501.16
608.18	1368.04
608.37	1392.62
608.56	1421.29
608.76	1445.87
608.95	1456.11
609.14	1437.67
609.33	1474.54
609.52	1462.25
609.72	1525.74
609.91	1474.54
610.10	1486.83
610.29	1468.39
610.48	1468.39
610.68	1415.15
610.87	1458.15
611.06	1415.15
611.25	1419.24
611.44	1435.63
611.63	1421.29
611.83	1425.39
612.02	1316.84
612.21	1359.85
612.40	1294.32
612.59	1359.85
612.79	1378.28
612.98	1372.14
613.17	1445.87
613.36	1333.23
613.55	1417.19
613.74	1376.24
613.93	1527.78
614.13	1578.98
614.32	1601.51
614.51	1634.28
614.70	1603.56
614.89	1533.93
615.08	1464.30
615.28	1636.33
615.47	1388.52
615.66	1505.26
615.85	1488.87
616.04	1523.69
616.23	1474.54
616.42	1478.63
616.62	1470.44
616.81	1452.01
617.00	1366.00
617.19	1476.59
617.38	1363.95
617.57	1355.76
617.76	1322.99
617.95	1357.80
618.15	1374.19
618.34	1486.83
618.53	1468.39
618.72	1415.15
618.91	1441.77
619.10	1501.16
619.29	1439.72
619.48	1396.71
619.68	1331.18
619.87	1384.43
620.06	1286.12
620.25	1392.62
620.44	1347.56
620.63	1380.33
620.82	1396.71
621.01	1388.52
621.20	1327.08
621.39	1402.86
621.59	1333.23
621.78	1454.06
621.97	1372.14
622.16	1439.72
622.35	1380.33
622.54	1404.91
622.73	1394.67
622.92	1300.46
623.11	1482.73
623.30	1353.71
623.49	1368.04
623.68	1357.80
623.88	1411.05
624.07	1359.85
624.26	1419.24
624.45	1355.76
624.64	1325.04
624.83	1351.66
625.02	1337.32
625.21	1331.18
625.40	1425.39
625.59	1363.95
625.78	1322.99
625.97	1372.14
626.16	1337.32
626.35	1462.25
626.54	1409.00
626.74	1576.94
626.93	1429.48
627.12	1423.34
627.31	1431.53
627.50	1355.76
627.69	1503.21
627.88	1376.24
628.07	1406.95
628.26	1339.37
628.45	1372.14
628.64	1425.39
628.83	1415.15
629.02	1370.09
629.21	1437.67
629.40	1347.56
629.59	1322.99
629.78	1339.37
629.97	1351.66
630.16	1347.56
630.35	1425.39
630.54	1345.52
630.73	1255.40
630.92	1470.44
631.11	1302.51
631.30	1376.24
631.49	1386.47
631.68	1331.18
631.87	1370.09
632.06	1331.18
632.25	1490.92
632.44	1380.33
632.63	1396.71
632.82	1456.11
633.01	1433.58
633.20	1409.00
633.39	1511.40
633.58	1490.92
633.77	1535.98
633.96	1466.35
634.15	1511.40
634.34	1505.26
634.53	1378.28
634.72	1425.39
634.91	1331.18
635.10	1376.24
635.29	1361.90
635.48	1413.10
635.67	1415.15
635.86	1318.89
636.05	1421.29
636.24	1372.14
636.43	1316.84
636.62	1345.52
636.81	1282.03
637.00	1413.10
637.19	1320.94
637.38	1282.03
637.57	1351.66
637.76	1468.39
637.95	1423.34
638.14	1499.11
638.33	1515.50
638.52	1517.54
638.71	1382.38
638.89	1439.72
639.08	1540.07
639.27	1460.20
639.46	1480.68
639.65	1791.97
639.84	1900.52
640.03	1920.99
640.22	2088.93
640.41	2133.98
640.60	1925.09
640.79	1710.05
640.98	1718.25
641.17	1611.75
641.36	1535.98
641.55	1576.94
641.74	1458.15
641.92	1456.11
642.11	1413.10
642.30	1454.06
642.49	1460.20
642.68	1384.43
642.87	1456.11
643.06	1411.05
643.25	1343.47
643.44	1406.95
643.63	1337.32
643.82	1435.63
644.00	1382.38
644.19	1343.47
644.38	1363.95
644.57	1404.91
644.76	1394.67
644.95	1380.33
645.14	1398.76
645.33	1370.09
645.52	1339.37
645.71	1331.18
645.89	1308.65
646.08	1400.81
646.27	1357.80
646.46	1400.81
646.65	1411.05
646.84	1415.15
647.03	1318.89
647.22	1452.01
647.40	1341.42
647.59	1343.47
647.78	1294.32
647.97	1345.52
648.16	1355.76
648.35	1400.81
648.54	1404.91
648.73	1378.28
648.91	1374.19
649.10	1341.42
649.29	1314.80
649.48	1368.04
649.67	1341.42
649.86	1382.38
650.05	1394.67
650.23	1464.30
650.42	1449.96
650.61	1544.17
650.80	1515.50
650.99	1570.79
651.18	1488.87
651.36	1499.11
651.55	1353.71
651.74	1441.77
651.93	1433.58
652.12	1396.71
652.31	1439.72
652.49	1413.10
652.68	1372.14
652.87	1466.35
653.06	1501.16
653.25	1476.59
653.44	1456.11
653.62	1394.67
653.81	1366.00
654.00	1433.58
654.19	1482.73
654.38	1497.07
654.56	1406.95
654.75	1372.14
654.94	1341.42
655.13	1433.58
655.32	1445.87
655.51	1392.62
655.69	1363.95
655.88	1392.62
656.07	1355.76
656.26	1396.71
656.45	1282.03
656.63	1388.52
656.82	1333.23
657.01	1429.48
657.20	1380.33
657.38	1462.25
657.57	1325.04
657.76	1294.32
657.95	1425.39
658.14	1339.37
658.32	1390.57
658.51	1384.43
658.70	1384.43
658.89	1372.14
659.08	1318.89
659.26	1468.39
659.45	1347.56
659.64	1484.78
659.83	1449.96
660.01	1576.94
660.20	1437.67
660.39	1527.78
660.58	1363.95
660.76	1392.62
660.95	1386.47
661.14	1421.29
661.33	1431.53
661.51	1370.09
661.70	1400.81
661.89	1359.85
662.08	1376.24
662.26	1392.62
662.45	1308.65
662.64	1445.87
662.83	1394.67
663.01	1431.53
663.20	1445.87
663.39	1380.33
663.58	1363.95
663.76	1357.80
663.95	1419.24
664.14	1331.18
664.32	1392.62
664.51	1447.91
664.70	1310.70
664.89	1409.00
665.07	1370.09
665.26	1435.63
665.45	1417.19
665.64	1372.14
665.82	1316.84
666.01	1466.35
666.20	1433.58
666.38	1501.16
666.57	1366.00
666.76	1509.35
666.95	1974.24
667.13	4421.56
667.32	11331.41
667.51	18120.43
667.69	21786.29
667.88	24579.72
668.07	24198.80
668.25	18869.98
668.44	13532.98
668.63	11208.53
668.81	9252.72
669.00	8124.29
669.19	7335.82
669.38	6807.45
669.56	6217.63
669.75	5531.56
669.94	4937.65
670.12	4132.80
670.31	3360.72
670.50	2838.48
670.68	2504.67
670.87	2082.78
671.06	1871.84
671.24	1720.29
671.43	1599.46
671.62	1556.46
671.80	1558.50
671.99	1515.50
672.18	1456.11
672.36	1400.81
672.55	1390.57
672.74	1468.39
672.92	1374.19
673.11	1415.15
673.29	1445.87
673.48	1470.44
673.67	1402.86
673.85	1396.71
674.04	1423.34
674.23	1312.75
674.41	1499.11
674.60	1462.25
674.79	1327.08
674.97	1302.51
675.16	1392.62
675.34	1392.62
675.53	1400.81
675.72	1419.24
675.90	1488.87
676.09	1339.37
676.28	1265.64
676.46	1312.75
676.65	1417.19
676.83	1318.89
677.02	1411.05
677.21	1406.95
677.39	1400.81
677.58	1329.13
677.77	1361.90
677.95	1339.37
678.14	1327.08
678.32	1347.56
678.51	1368.04
678.70	1452.01
678.88	1368.04
679.07	1355.76
679.25	1312.75
679.44	1372.14
679.63	1322.99
679.81	1335.28
680.00	1380.33
680.18	1445.87
680.37	1427.43
680.55	1386.47
680.74	1302.51
680.93	1325.04
681.11	1374.19
681.30	1349.61
681.48	1390.57
681.67	1312.75
681.85	1384.43
682.04	1380.33
682.23	1376.24
682.41	1468.39
682.60	1304.56
682.78	1347.56
682.97	1269.74
683.15	1355.76
683.34	1345.52
683.53	1474.54
683.71	1296.36
683.90	1441.77
684.08	1415.15
684.27	1322.99
684.45	1284.08
684.64	1411.05
684.82	1339.37
685.01	1380.33
685.19	1429.48
685.38	1449.96
685.57	1421.29
685.75	1392.62
685.94	1339.37
686.12	1343.47
686.31	1357.80
686.49	1439.72
686.68	1290.22
686.86	1413.10
687.05	1429.48
687.23	1400.81
687.42	1292.27
687.60	1361.90
687.79	1390.57
687.97	1492.97
688.16	1388.52
688.34	1413.10
688.53	1318.89
688.71	1415.15
688.90	1413.10
689.08	1370.09
689.27	1304.56
689.45	1376.24
689.64	1363.95
689.82	1368.04
690.01	1357.80
690.19	1318.89
690.38	1392.62
690.56	1415.15
690.75	1351.66
690.93	1398.76
691.12	1339.37
691.30	1341.42
691.49	1337.32
691.67	1404.91
691.86	1419.24
692.04	1349.61
692.23	1339.37
692.41	1402.86
692.60	1552.36
692.78	1495.02
692.97	1517.54
693.15	1470.44
693.34	1554.41
693.52	1472.49
693.71	1447.91
693.89	1382.38
694.08	1382.38
694.26	1472.49
694.44	1478.63
694.63	1378.28
694.81	1296.36
695.00	1351.66
695.18	1409.00
695.37	1417.19
695.55	1466.35
695.74	1411.05
695.92	1282.03
696.10	1478.63
696.29	1329.13
696.47	1372.14
696.66	1357.80
696.84	1286.12
697.03	1335.28
697.21	1433.58
697.40	1740.77
697.58	1429.48
697.76	1388.52
697.95	1386.47
698.13	1306.60
698.32	1343.47
698.50	1368.04
698.68	1415.15
698.87	1316.84
699.05	1462.25
699.24	1394.67
699.42	1333.23
699.61	1337.32
699.79	1382.38
699.97	1316.84
700.16	1355.76
700.34	1384.43
700.53	1335.28
700.71	1443.82
700.89	1378.28
701.08	1411.05
701.26	1382.38
701.45	1626.09
701.63	1331.18
701.81	1372.14
702.00	1435.63
702.18	1400.81
702.37	1314.80
702.55	1445.87
702.73	1509.35
702.92	1529.83
703.10	1601.51
703.28	1599.46
703.47	1566.70
703.65	1529.83
703.84	1599.46
704.02	1560.55
704.20	1509.35
704.39	1435.63
704.57	1478.63
704.75	1525.74
704.94	1482.73
705.12	1492.97
705.30	1482.73
705.49	1587.18
705.67	1789.92
705.86	3514.31
706.04	9121.65
706.22	15861.52
706.41	19556.05
706.59	22496.94
706.77	23266.97
706.96	19730.13
707.14	13920.04
707.32	11284.31
707.51	9535.34
707.69	8191.88
707.87	7253.91
708.06	6711.19
708.24	6068.13
708.42	4954.04
708.61	4073.41
708.79	3035.09
708.97	2437.08
709.16	2007.01
709.34	1798.12
709.52	1648.61
709.71	1542.12
709.89	1503.21
710.07	1392.62
710.26	1380.33
710.44	1468.39
710.62	1439.72
710.80	1400.81
710.99	1460.20
711.17	1396.71
711.35	1316.84
711.54	1302.51
711.72	1425.39
711.90	1363.95
712.09	1370.09
712.27	1296.36
712.45	1396.71
712.63	1302.51
712.82	1345.52
713.00	1351.66
713.18	1425.39
713.37	1306.60
713.55	1404.91
713.73	1357.80
713.91	1388.52
714.10	1415.15
714.28	1380.33
714.46	1320.94
714.65	1406.95
714.83	1413.10
715.01	1302.51
715.19	1425.39
715.38	1343.47
715.56	1366.00
715.74	1267.69
715.92	1347.56
716.11	1368.04
716.29	1378.28
716.47	1421.29
716.65	1361.90
716.84	1333.23
717.02	1353.71
717.20	1298.41
717.38	1292.27
717.57	1456.11
717.75	1353.71
717.93	1335.28
718.11	1447.91
718.30	1341.42
718.48	1396.71
718.66	1351.66
718.84	1445.87
719.03	1302.51
719.21	1372.14
719.39	1470.44
719.57	1380.33
719.75	1384.43
719.94	1335.28
720.12	1310.70
720.30	1376.24
720.48	1447.91
720.67	1271.79
720.85	1366.00
721.03	1322.99
721.21	1380.33
721.39	1345.52
721.58	1366.00
721.76	1423.34
721.94	1357.80
722.12	1390.57
722.30	1474.54
722.49	1404.91
722.67	1392.62
722.85	1376.24
723.03	1290.22
723.21	1320.94
723.40	1425.39
723.58	1388.52
723.76	1409.00
723.94	1454.06
724.12	1425.39
724.30	1538.02
724.49	1572.84
724.67	1468.39
724.85	1476.59
725.03	1460.20
725.21	1480.68
725.40	1427.43
725.58	1386.47
725.76	1464.30
725.94	1409.00
726.12	1345.52
726.30	1421.29
726.49	1361.90
726.67	1347.56
726.85	1404.91
727.03	1425.39
727.21	1456.11
727.39	1476.59
727.57	2148.32
727.76	3301.33
727.94	4460.48
728.12	4841.40
728.30	5232.56
728.48	5150.64
728.66	4296.64
728.84	3440.59
729.03	3106.77
729.21	2764.76
729.39	2541.53
729.57	2265.05
729.75	1957.86
729.93	1777.64
730.11	1597.42
730.30	1560.55
730.48	1454.06
730.66	1406.95
730.84	1529.83
731.02	1359.85
731.20	1376.24
731.38	1386.47
731.56	1396.71
731.74	1374.19
731.93	1384.43
732.11	1396.71
732.29	1320.94
732.47	1443.82
732.65	1370.09
732.83	1482.73
733.01	1376.24
733.19	1298.41
733.37	1423.34
733.56	1374.19
733.74	1345.52
733.92	1433.58
734.10	1390.57
734.28	1314.80
734.46	1302.51
734.64	1386.47
734.82	1355.76
735.00	1316.84
735.18	1359.85
735.36	1384.43
735.54	1359.85
735.73	1386.47
735.91	1347.56
736.09	1376.24
736.27	1345.52
736.45	1384.43
736.63	1290.22
736.81	1353.71
736.99	1411.05
737.17	1386.47
737.35	1376.24
737.53	1337.32
737.71	1429.48
737.89	1376.24
738.07	1396.71
738.25	1304.56
738.43	1314.80
738.61	1355.76
738.80	1331.18
738.98	1284.08
739.16	1366.00
739.34	1368.04
739.52	1386.47
739.70	1357.80
739.88	1382.38
740.06	1425.39
740.24	1300.46
740.42	1376.24
740.60	1386.47
740.78	1368.04
740.96	1322.99
741.14	1363.95
741.32	1349.61
741.50	1298.41
741.68	1423.34
741.86	1421.29
742.04	1366.00
742.22	1312.75
742.40	1339.37
742.58	1361.90
742.76	1318.89
742.94	1409.00
743.12	1296.36
743.30	1366.00
743.48	1411.05
743.66	1273.84
743.84	1415.15
744.02	1341.42
744.20	1415.15
744.38	1353.71
744.56	1357.80
744.74	1495.02
744.92	1429.48
745.10	1474.54
745.28	1390.57
745.46	1474.54
745.64	1402.86
745.82	1384.43
746.00	1378.28
746.18	1409.00
746.36	1331.18
746.54	1427.43
746.72	1298.41
746.90	1300.46
747.08	1398.76
747.26	1337.32
747.44	1355.76
747.62	1384.43
747.80	1386.47
747.98	1400.81
748.15	1327.08
748.33	1447.91
748.51	1325.04
748.69	1404.91
748.87	1335.28
749.05	1318.89
749.23	1437.67
749.41	1310.70
749.59	1349.61
749.77	1388.52
749.95	1366.00
750.13	1384.43
750.31	1468.39
750.49	1388.52
750.67	1392.62
750.85	1443.82
751.03	1404.91
751.20	1484.78
751.38	1409.00
751.56	1351.66
751.74	1308.65
751.92	1294.32
752.10	1351.66
752.28	1378.28
752.46	1337.32
752.64	1337.32
752.82	1335.28
753.00	1341.42
753.18	1415.15
753.35	1378.28
753.53	1327.08
753.71	1329.13
753.89	1462.25
754.07	1310.70
754.25	1409.00
754.43	1341.42
754.61	1376.24
754.79	1349.61
754.97	1363.95
755.14	1437.67
755.32	1243.12
755.50	1415.15
755.68	1318.89
755.86	1417.19
756.04	1343.47
756.22	1368.04
756.40	1452.01
756.57	1417.19
756.75	1327.08
756.93	1374.19
757.11	1376.24
757.29	1341.42
757.47	1376.24
757.65	1314.80
757.82	1255.40
758.00	1228.78
758.18	1380.33
758.36	1345.52
758.54	1390.57
758.72	1341.42
758.90	1388.52
759.07	1380.33
759.25	1288.17
759.43	1329.13
759.61	1361.90
759.79	1679.33
759.97	1331.18
760.15	1359.85
760.32	1380.33
760.50	1388.52
760.68	1505.26
760.86	1322.99
761.04	1279.98
761.22	1368.04
761.39	1398.76
761.57	1314.80
761.75	1386.47
761.93	1366.00
762.11	1404.91
762.28	1406.95
762.46	1312.75
762.64	1429.48
762.82	1296.36
763.00	1337.32
763.18	1384.43
763.35	1277.93
763.53	1370.09
763.71	1310.70
763.89	1413.10
764.07	1388.52
764.24	1320.94
764.42	1388.52
764.60	1378.28
764.78	1351.66
764.96	1435.63
765.13	1390.57
765.31	1310.70
765.49	1359.85
765.67	1406.95
765.84	1363.95
766.02	1345.52
766.20	1310.70
766.38	1298.41
766.56	1343.47
766.73	1445.87
766.91	1327.08
767.09	1341.42
767.27	1437.67
767.44	1404.91
767.62	1370.09
767.80	1392.62
767.98	1290.22
768.15	1380.33
768.33	1421.29
768.51	1443.82
768.69	1396.71
768.87	1431.53
769.04	1382.38
769.22	1458.15
769.40	1462.25
769.58	1521.64
769.75	1331.18
769.93	1388.52
770.11	1462.25
770.28	1325.04
770.46	1376.24
770.64	1357.80
770.82	1345.52
770.99	1392.62
771.17	1421.29
771.35	1247.21
771.53	1413.10
771.70	1392.62
771.88	1406.95
772.06	1380.33
772.23	1339.37
772.41	1392.62
772.59	1333.23
772.77	1337.32
772.94	1349.61
773.12	1394.67
773.30	1333.23
773.47	1435.63
773.65	1329.13
773.83	1378.28
774.01	1390.57
774.18	1294.32
774.36	1406.95
774.54	1322.99
774.71	1417.19
774.89	1325.04
775.07	1296.36
775.24	1322.99
775.42	1341.42
775.60	1363.95
775.78	1386.47
775.95	1347.56
776.13	1320.94
776.31	1263.60
776.48	1341.42
776.66	1419.24
776.84	1341.42
777.01	1290.22
777.19	1363.95
777.37	1341.42
777.54	1433.58
777.72	1462.25
777.90	1392.62
778.07	1337.32
778.25	1417.19
778.43	1404.91
778.60	1353.71
778.78	1427.43
778.96	1456.11
779.13	1271.79
779.31	1343.47
779.49	1394.67
779.66	1390.57
779.84	1349.61
780.01	1368.04
780.19	1345.52
780.37	1335.28
780.54	1443.82
780.72	1294.32
780.90	1353.71
781.07	1394.67
781.25	1302.51
781.43	1388.52
781.60	1378.28
781.78	1363.95
781.95	1361.90
782.13	1441.77
782.31	1320.94
782.48	1279.98
782.66	1423.34
782.83	1441.77
783.01	1368.04
783.19	1402.86
783.36	1386.47
783.54	1345.52
783.72	1409.00
783.89	1290.22
784.07	1316.84
784.24	1380.33
784.42	1421.29
784.60	1437.67
784.77	1343.47
784.95	1398.76
785.12	1368.04
785.30	1339.37
785.47	1378.28
785.65	1380.33
785.83	1378.28
786.00	1363.95
786.18	1363.95
786.35	1312.75
786.53	1355.76
786.71	1370.09
786.88	1396.71
787.06	1353.71
787.23	1265.64
787.41	1353.71
787.58	1441.77
787.76	1243.12
787.94	1392.62
788.11	1402.86
788.29	1388.52
788.46	1259.50
788.64	1304.56
788.81	1284.08
788.99	1314.80
789.16	1212.40
789.34	1347.56
789.52	1325.04
789.69	1306.60
789.87	1341.42
790.04	1370.09
790.22	1431.53
790.39	1429.48
790.57	1296.36
790.74	1337.32
790.92	1447.91
791.09	1329.13
791.27	1402.86
791.44	1343.47
791.62	1269.74
791.79	1404.91
791.97	1290.22
792.15	1400.81
792.32	1353.71
792.50	1386.47
792.67	1411.05
792.85	1392.62
793.02	1449.96
793.20	1292.27
793.37	1327.08
793.55	1368.04
793.72	1380.33
793.90	1314.80
794.07	1376.24
794.25	1329.13
794.42	1345.52
794.60	1386.47
794.77	1312.75
794.95	1331.18
795.12	1320.94
795.30	1378.28
795.47	1298.41
795.65	1511.40
795.82	1382.38
796.00	1325.04
796.17	1347.56
796.34	1370.09
796.52	1294.32
796.69	1380.33
796.87	1376.24
797.04	1425.39
797.22	1406.95
797.39	1400.81
797.57	1452.01
797.74	1427.43
797.92	1359.85
798.09	1308.65
798.27	1449.96
798.44	1370.09
798.62	1378.28
798.79	1347.56
798.96	1333.23
799.14	1363.95
799.31	1458.15
799.49	1347.56
799.66	1359.85
799.84	1433.58
800.01	1273.84
800.19	1384.43
800.36	1331.18
800.53	1300.46
800.71	1357.80
800.88	1427.43
801.06	1335.28
801.23	1368.04
801.41	1308.65
801.58	1359.85
801.75	1349.61
801.93	1413.10
802.10	1417.19
802.28	1292.27
802.45	1392.62
802.63	1443.82
802.80	1447.91
802.97	1343.47
803.15	1392.62
803.32	1392.62
803.50	1304.56
803.67	1331.18
803.84	1302.51
804.02	1347.56
804.19	1351.66
804.37	1282.03
804.54	1267.69
804.71	1341.42
804.89	1427.43
805.06	1435.63
805.24	1318.89
805.41	1312.75
805.58	1339.37
805.76	1462.25
805.93	1366.00
806.10	1345.52
806.28	1406.95
806.45	1431.53
806.63	1335.28
806.80	1370.09
806.97	1337.32
807.15	1363.95
807.32	1386.47
807.49	1378.28
807.67	1306.60
807.84	1380.33
808.01	1314.80
808.19	1435.63
808.36	1486.83
808.54	1325.04
808.71	1384.43
808.88	1351.66
809.06	1339.37
809.23	1404.91
809.40	1308.65
809.58	1335.28
809.75	1363.95
809.92	1382.38
810.10	1409.00
810.27	1353.71
810.44	1386.47
810.62	1345.52
810.79	1355.76
810.96	1437.67
811.14	1312.75
811.31	1351.66
811.48	1314.80
811.66	1329.13
811.83	1363.95
812.00	1384.43
812.18	1427.43
812.35	1388.52
812.52	1357.80
812.69	1322.99
812.87	1271.79
813.04	1351.66
813.21	1327.08
813.39	1390.57
813.56	1292.27
813.73	1396.71
813.91	1341.42
814.08	1372.14
814.25	1398.76
814.42	1331.18
814.60	1376.24
814.77	1386.47
814.94	1320.94
815.12	1404.91
815.29	1388.52
815.46	1316.84
815.63	1316.84
815.81	1357.80
815.98	1314.80
816.15	1366.00
816.33	1380.33
816.50	1376.24
816.67	1296.36
816.84	1378.28
817.02	1335.28
817.19	1361.90
817.36	1265.64
817.53	1351.66
817.71	1310.70
817.88	1468.39
818.05	1378.28
818.22	1361.90
818.40	1423.34
818.57	1296.36
818.74	1374.19
818.91	1347.56
819.09	1421.29
819.26	1333.23
819.43	1404.91
819.60	1339.37
819.78	1366.00
819.95	1394.67
820.12	1396.71
820.29	1431.53
820.47	1366.00
820.64	1402.86
820.81	1394.67
820.98	1355.76
821.15	1267.69
821.33	1388.52
821.50	1304.56
821.67	1445.87
821.84	1308.65
822.02	1345.52
822.19	1370.09
822.36	1343.47
822.53	1366.00
822.70	1353.71
822.88	1370.09
823.05	1372.14
823.22	1345.52
823.39	1398.76
823.56	1335.28
823.74	1449.96
823.91	1290.22
824.08	1331.18
824.25	1333.23
824.42	1462.25
824.60	1331.18
824.77	1331.18
824.94	1331.18
825.11	1343.47
825.28	1212.40
825.45	1372.14
825.63	1417.19
825.80	1288.17
825.97	1331.18
826.14	1318.89
826.31	1355.76
826.48	1370.09
826.66	1370.09
826.83	1320.94
827.00	1431.53
827.17	1292.27
827.34	1298.41
827.51	1398.76
827.69	1447.91
827.86	1374.19
828.03	1286.12
828.20	1378.28
828.37	1333.23
828.54	1384.43
828.71	1353.71
828.89	1396.71
829.06	1419.24
829.23	1396.71
829.40	1322.99
829.57	1378.28
829.74	1347.56
829.91	1445.87
830.09	1345.52
830.26	1370.09
830.43	1402.86
830.60	1374.19
830.77	1363.95
830.94	1384.43
831.11	1349.61
831.28	1374.19
831.46	1380.33
831.63	1294.32
831.80	1415.15
831.97	1392.62
832.14	1382.38
832.31	1343.47
832.48	1406.95
832.65	1413.10
832.82	1331.18
832.99	1402.86
833.17	1370.09
833.34	1427.43
833.51	1411.05
833.68	1259.50
833.85	1368.04
834.02	1339.37
834.19	1384.43
834.36	1355.76
834.53	1361.90
834.70	1359.85
834.87	1456.11
835.04	1322.99
835.22	1337.32
835.39	1400.81
835.56	1363.95
835.73	1353.71
835.90	1314.80
836.07	1396.71
836.24	1361.90
836.41	1363.95
836.58	1335.28
836.75	1382.38
836.92	1425.39
837.09	1302.51
837.26	1355.76
837.43	1347.56
837.60	1339.37
837.77	1312.75
837.94	1427.43
838.12	1400.81
838.29	1318.89
838.46	1370.09
838.63	1314.80
838.80	1441.77
838.97	1355.76
839.14	1409.00
839.31	1384.43
839.48	1372.14
839.65	1333.23
839.82	1415.15
839.99	1417.19
840.16	1357.80
840.33	1355.76
840.50	1339.37
840.67	1322.99
840.84	1337.32
841.01	1366.00
841.18	1378.28
841.35	1359.85
841.52	1386.47
841.69	1353.71
841.86	1409.00
842.03	1347.56
842.20	1435.63
842.37	1378.28
842.54	1357.80
842.71	1325.04
842.88	1265.64
843.05	1435.63
843.22	1339.37
843.39	1361.90
843.56	1320.94
843.73	1380.33
843.90	1351.66
844.07	1359.85
844.24	1427.43
844.41	1398.76
844.58	1396.71
844.75	1355.76
844.92	1370.09
845.09	1411.05
845.26	1277.93
845.43	1388.52
845.60	1382.38
845.77	1357.80
845.94	1411.05
846.10	1359.85
846.27	1394.67
846.44	1343.47
846.61	1370.09
846.78	1347.56
846.95	1409.00
847.12	1363.95
847.29	1290.22
847.46	1372.14
847.63	1394.67
847.80	1374.19
847.97	1476.59
848.14	1368.04
848.31	1415.15
848.48	1345.52
848.65	1368.04
848.82	1376.24
848.98	1474.54
849.15	1392.62
849.32	1431.53
849.49	1359.85
849.66	1437.67
849.83	1394.67
850.00	1355.76
850.17	1392.62
850.34	1308.65
850.51	1273.84
850.68	1322.99
850.85	1419.24
851.01	1384.43
851.18	1396.71
851.35	1320.94
851.52	1427.43
851.69	1478.63
851.86	1310.70
852.03	1376.24
852.20	1329.13
852.37	1378.28
852.53	1277.93
852.70	1374.19
852.87	1345.52
853.04	1402.86
853.21	1363.95
853.38	1406.95
853.55	1374.19
853.72	1402.86
853.89	1325.04
854.05	1357.80
854.22	1331.18
854.39	1320.94
854.56	1388.52
854.73	1419.24
854.90	1427.43
855.07	1363.95
855.23	1429.48
855.40	1308.65
855.57	1398.76
855.74	1269.74
855.91	1488.87
856.08	1318.89
856.25	1361.90
856.41	1337.32
856.58	1413.10
856.75	1417.19
856.92	1245.16
857.09	1427.43
857.26	1318.89
857.42	1353.71
857.59	1390.57
857.76	1396.71
857.93	1380.33
858.10	1449.96
858.27	1277.93
858.43	1392.62
858.60	1314.80
858.77	1282.03
858.94	1374.19
859.11	1394.67
859.27	1372.14
859.44	1378.28
859.61	1482.73
859.78	1431.53
859.95	1347.56
860.12	1417.19
860.28	1417.19
860.45	1468.39
860.62	1353.71
860.79	1376.24
860.95	1345.52
861.12	1411.05
861.29	1380.33
861.46	1388.52
861.63	1351.66
861.79	1415.15
861.96	1318.89
862.13	1400.81
862.30	1478.63
862.47	1372.14
862.63	1349.61
862.80	1402.86
862.97	1363.95
863.14	1409.00
863.30	1368.04
863.47	1417.19
863.64	1478.63
863.81	1415.15
863.97	1437.67
864.14	1445.87
864.31	1421.29
864.48	1363.95
864.65	1398.76
864.81	1441.77
864.98	1402.86
865.15	1273.84
865.32	1378.28
865.48	1308.65
865.65	1384.43
865.82	1376.24
865.98	1310.70
866.15	1384.43
866.32	1382.38
866.49	1361.90
866.65	1386.47
866.82	1341.42
866.99	1425.39
867.16	1316.84
867.32	1355.76
867.49	1333.23
867.66	1359.85
867.83	1302.51
867.99	1292.27
868.16	1357.80
868.33	1370.09
868.49	1357.80
868.66	1345.52
868.83	1419.24
868.99	1382.38
869.16	1345.52
869.33	1361.90
869.50	1447.91
869.66	1349.61
869.83	1400.81
870.00	1355.76
870.16	1359.85
870.33	1378.28
870.50	1417.19
870.66	1355.76
870.83	1394.67
871.00	1433.58
871.17	1415.15
871.33	1406.95
871.50	1294.32
871.67	1327.08
871.83	1347.56
872.00	1363.95
872.17	1320.94
872.33	1386.47
872.50	1361.90
872.67	1433.58
872.83	1429.48
873.00	1390.57
873.17	1325.04
873.33	1361.90
873.50	1417.19
873.67	1329.13
873.83	1331.18
874.00	1322.99
874.16	1445.87
874.33	1349.61
874.50	1322.99
874.66	1337.32
874.83	1355.76
875.00	1390.57
875.16	1492.97
875.33	1392.62
875.50	1325.04
875.66	1279.98
875.83	1361.90
875.99	1343.47
876.16	1290.22
876.33	1292.27
876.49	1316.84
876.66	1353.71
876.83	1370.09
876.99	1304.56
877.16	1380.33
877.32	1327.08
877.49	1316.84
877.66	1431.53
877.82	1423.34
877.99	1421.29
878.15	1419.24
878.32	1333.23
878.49	1312.75
878.65	1236.97
878.82	1322.99
878.98	1404.91
879.15	1372.14
879.32	1386.47
879.48	1400.81
879.65	1402.86
879.81	1374.19
879.98	1335.28
880.15	1339.37
880.31	1447.91
880.48	1355.76
880.64	1353.71
880.81	1380.33
880.97	1437.67
881.14	1345.52
881.31	1355.76
881.47	1452.01
881.64	1316.84
881.80	1325.04
881.97	1359.85
882.13	1400.81
882.30	1345.52
882.47	1351.66
882.63	1275.88
882.80	1378.28
882.96	1341.42
883.13	1423.34
883.29	1380.33
883.46	1261.55
883.62	1464.30
883.79	1372.14
883.95	1337.32
884.12	1335.28
884.29	1351.66
884.45	1400.81
884.62	1363.95
884.78	1378.28
884.95	1392.62
885.11	1325.04
885.28	1441.77
885.44	1298.41
885.61	1435.63
885.77	1470.44
885.94	1417.19
886.10	1402.86
886.27	1337.32
886.43	1419.24
886.60	1466.35
886.76	1347.56
886.93	1386.47
887.09	1357.80
887.26	1368.04
887.42	1335.28
887.59	1435.63
887.75	1415.15
887.92	1366.00
888.08	1402.86
888.25	1458.15
888.41	1345.52
888.58	1417.19
888.74	1341.42
888.91	1353.71
>>>>>End Processed Spectral Data<<<<<
