SpectraSuite Data File
++++++++++++++++++++++++++++++++++++
Date: Tue May 03 11:24:33 CEST 2016
User: root
Dark Spectrum Present: No
Reference Spectrum Present: No
Number of Sampled Component Spectra: 1
Spectrometers: USB4C02835
Integration Time (usec): 100000 (USB4C02835)
Spectra Averaged: 1 (USB4C02835)
Boxcar Smoothing: 0 (USB4C02835)
Correct for Electrical Dark: No (USB4C02835)
Strobe/Lamp Enabled: No (USB4C02835)
Correct for Detector Non-linearity: No (USB4C02835)
Correct for Stray Light: No (USB4C02835)
Number of Pixels in Processed Spectrum: 3648
>>>>>Begin Processed Spectral Data<<<<<
177.47	1183.73
177.69	1183.73
177.91	1183.73
178.13	1253.36
178.36	1216.49
178.58	1345.52
178.80	1380.33
179.02	1290.22
179.24	1366.00
179.46	1325.04
179.68	1411.05
179.90	1406.95
180.13	1341.42
180.35	1388.52
180.57	1398.76
180.79	1388.52
181.01	1341.42
181.23	1417.19
181.45	1460.20
181.67	1396.71
181.90	1388.52
182.12	1415.15
182.34	1339.37
182.56	1359.85
182.78	1415.15
183.00	1325.04
183.22	1347.56
183.44	1304.56
183.66	1480.68
183.89	1411.05
184.11	1429.48
184.33	1282.03
184.55	1392.62
184.77	1394.67
184.99	1435.63
185.21	1374.19
185.43	1452.01
185.65	1357.80
185.87	1318.89
186.10	1374.19
186.32	1390.57
186.54	1339.37
186.76	1382.38
186.98	1353.71
187.20	1314.80
187.42	1368.04
187.64	1390.57
187.86	1429.48
188.08	1376.24
188.30	1361.90
188.52	1392.62
188.75	1351.66
188.97	1361.90
189.19	1284.08
189.41	1347.56
189.63	1357.80
189.85	1380.33
190.07	1308.65
190.29	1327.08
190.51	1374.19
190.73	1345.52
190.95	1374.19
191.17	1357.80
191.39	1343.47
191.61	1345.52
191.84	1392.62
192.06	1355.76
192.28	1298.41
192.50	1482.73
192.72	1359.85
192.94	1396.71
193.16	1437.67
193.38	1335.28
193.60	1316.84
193.82	1378.28
194.04	1427.43
194.26	1376.24
194.48	1327.08
194.70	1353.71
194.92	1398.76
195.14	1384.43
195.36	1327.08
195.58	1400.81
195.80	1325.04
196.02	1355.76
196.24	1353.71
196.46	1437.67
196.69	1421.29
196.91	1488.87
197.13	1345.52
197.35	1314.80
197.57	1452.01
197.79	1372.14
198.01	1406.95
198.23	1370.09
198.45	1349.61
198.67	1335.28
198.89	1368.04
199.11	1431.53
199.33	1382.38
199.55	1290.22
199.77	1329.13
199.99	1382.38
200.21	1368.04
200.43	1384.43
200.65	1290.22
200.87	1277.93
201.09	1425.39
201.31	1329.13
201.53	1327.08
201.75	1353.71
201.97	1331.18
202.19	1445.87
202.41	1406.95
202.63	1474.54
202.85	1413.10
203.07	1368.04
203.29	1353.71
203.51	1320.94
203.73	1322.99
203.95	1525.74
204.17	1409.00
204.39	1435.63
204.61	1333.23
204.83	1325.04
205.05	1398.76
205.27	1390.57
205.49	1490.92
205.71	1374.19
205.93	1300.46
206.15	1349.61
206.37	1304.56
206.59	1361.90
206.81	1335.28
207.03	1304.56
207.25	1333.23
207.47	1404.91
207.69	1345.52
207.91	1331.18
208.13	1435.63
208.34	1380.33
208.56	1359.85
208.78	1333.23
209.00	1243.12
209.22	1341.42
209.44	1329.13
209.66	1378.28
209.88	1429.48
210.10	1292.27
210.32	1458.15
210.54	1402.86
210.76	1398.76
210.98	1298.41
211.20	1341.42
211.42	1331.18
211.64	1390.57
211.86	1431.53
212.08	1386.47
212.30	1394.67
212.52	1355.76
212.74	1439.72
212.96	1366.00
213.17	1345.52
213.39	1357.80
213.61	1396.71
213.83	1413.10
214.05	1376.24
214.27	1439.72
214.49	1322.99
214.71	1312.75
214.93	1388.52
215.15	1376.24
215.37	1419.24
215.59	1296.36
215.81	1378.28
216.03	1429.48
216.24	1357.80
216.46	1353.71
216.68	1388.52
216.90	1409.00
217.12	1363.95
217.34	1302.51
217.56	1372.14
217.78	1423.34
218.00	1353.71
218.22	1402.86
218.44	1392.62
218.66	1327.08
218.87	1335.28
219.09	1372.14
219.31	1363.95
219.53	1406.95
219.75	1269.74
219.97	1368.04
220.19	1329.13
220.41	1378.28
220.63	1406.95
220.85	1363.95
221.06	1290.22
221.28	1406.95
221.50	1374.19
221.72	1355.76
221.94	1439.72
222.16	1398.76
222.38	1456.11
222.60	1423.34
222.82	1396.71
223.03	1427.43
223.25	1357.80
223.47	1378.28
223.69	1386.47
223.91	1349.61
224.13	1343.47
224.35	1388.52
224.57	1366.00
224.78	1355.76
225.00	1296.36
225.22	1376.24
225.44	1384.43
225.66	1351.66
225.88	1294.32
226.10	1322.99
226.32	1361.90
226.53	1415.15
226.75	1363.95
226.97	1423.34
227.19	1376.24
227.41	1347.56
227.63	1380.33
227.85	1345.52
228.06	1429.48
228.28	1331.18
228.50	1347.56
228.72	1421.29
228.94	1390.57
229.16	1341.42
229.37	1353.71
229.59	1265.64
229.81	1464.30
230.03	1378.28
230.25	1368.04
230.47	1357.80
230.69	1292.27
230.90	1372.14
231.12	1404.91
231.34	1318.89
231.56	1460.20
231.78	1312.75
232.00	1419.24
232.21	1357.80
232.43	1290.22
232.65	1339.37
232.87	1433.58
233.09	1366.00
233.30	1353.71
233.52	1392.62
233.74	1339.37
233.96	1349.61
234.18	1380.33
234.40	1361.90
234.61	1402.86
234.83	1335.28
235.05	1304.56
235.27	1435.63
235.49	1347.56
235.70	1394.67
235.92	1388.52
236.14	1337.32
236.36	1400.81
236.58	1347.56
236.79	1347.56
237.01	1343.47
237.23	1322.99
237.45	1445.87
237.67	1425.39
237.88	1359.85
238.10	1429.48
238.32	1279.98
238.54	1310.70
238.76	1396.71
238.97	1318.89
239.19	1374.19
239.41	1454.06
239.63	1380.33
239.85	1400.81
240.06	1361.90
240.28	1353.71
240.50	1333.23
240.72	1361.90
240.93	1341.42
241.15	1468.39
241.37	1378.28
241.59	1445.87
241.81	1449.96
242.02	1341.42
242.24	1335.28
242.46	1458.15
242.68	1368.04
242.89	1386.47
243.11	1386.47
243.33	1370.09
243.55	1390.57
243.76	1400.81
243.98	1318.89
244.20	1359.85
244.42	1282.03
244.64	1380.33
244.85	1314.80
245.07	1353.71
245.29	1413.10
245.51	1415.15
245.72	1423.34
245.94	1382.38
246.16	1425.39
246.38	1425.39
246.59	1318.89
246.81	1275.88
247.03	1347.56
247.24	1345.52
247.46	1318.89
247.68	1409.00
247.90	1298.41
248.11	1261.55
248.33	1388.52
248.55	1396.71
248.77	1327.08
248.98	1427.43
249.20	1454.06
249.42	1376.24
249.64	1400.81
249.85	1388.52
250.07	1425.39
250.29	1425.39
250.50	1396.71
250.72	1286.12
250.94	1394.67
251.16	1470.44
251.37	1361.90
251.59	1388.52
251.81	1443.82
252.02	1447.91
252.24	1417.19
252.46	1431.53
252.68	1363.95
252.89	1347.56
253.11	1265.64
253.33	1574.89
253.54	1425.39
253.76	1322.99
253.98	1304.56
254.20	1327.08
254.41	1343.47
254.63	1372.14
254.85	1353.71
255.06	1366.00
255.28	1316.84
255.50	1366.00
255.71	1325.04
255.93	1312.75
256.15	1374.19
256.36	1341.42
256.58	1353.71
256.80	1382.38
257.02	1331.18
257.23	1333.23
257.45	1378.28
257.67	1390.57
257.88	1433.58
258.10	1351.66
258.32	1466.35
258.53	1380.33
258.75	1445.87
258.97	1396.71
259.18	1302.51
259.40	1345.52
259.62	1437.67
259.83	1411.05
260.05	1349.61
260.27	1570.79
260.48	1322.99
260.70	1402.86
260.92	1349.61
261.13	1376.24
261.35	1447.91
261.57	1351.66
261.78	1279.98
262.00	1282.03
262.22	1370.09
262.43	1378.28
262.65	1402.86
262.86	1282.03
263.08	1396.71
263.30	1392.62
263.51	1411.05
263.73	1380.33
263.95	1490.92
264.16	1363.95
264.38	1279.98
264.60	1380.33
264.81	1366.00
265.03	1357.80
265.25	1384.43
265.46	1343.47
265.68	1406.95
265.89	1361.90
266.11	1359.85
266.33	1484.78
266.54	1292.27
266.76	1413.10
266.98	1337.32
267.19	1419.24
267.41	1359.85
267.62	1320.94
267.84	1347.56
268.06	1363.95
268.27	1390.57
268.49	1366.00
268.70	1445.87
268.92	1402.86
269.14	1396.71
269.35	1337.32
269.57	1398.76
269.79	1345.52
270.00	1404.91
270.22	1435.63
270.43	1386.47
270.65	1331.18
270.87	1380.33
271.08	1333.23
271.30	1413.10
271.51	1312.75
271.73	1376.24
271.95	1478.63
272.16	1411.05
272.38	1396.71
272.59	1345.52
272.81	1378.28
273.02	1390.57
273.24	1380.33
273.46	1304.56
273.67	1322.99
273.89	1396.71
274.10	1415.15
274.32	1447.91
274.54	1411.05
274.75	1409.00
274.97	1320.94
275.18	1363.95
275.40	1413.10
275.61	1314.80
275.83	1396.71
276.05	1310.70
276.26	1347.56
276.48	1347.56
276.69	1331.18
276.91	1337.32
277.12	1357.80
277.34	1312.75
277.55	1435.63
277.77	1376.24
277.99	1314.80
278.20	1288.17
278.42	1298.41
278.63	1314.80
278.85	1376.24
279.06	1327.08
279.28	1318.89
279.49	1437.67
279.71	1402.86
279.93	1337.32
280.14	1378.28
280.36	1347.56
280.57	1406.95
280.79	1333.23
281.00	1296.36
281.22	1372.14
281.43	1345.52
281.65	1282.03
281.86	1294.32
282.08	1337.32
282.29	1423.34
282.51	1396.71
282.73	1361.90
282.94	1370.09
283.16	1310.70
283.37	1470.44
283.59	1398.76
283.80	1400.81
284.02	1394.67
284.23	1419.24
284.45	1333.23
284.66	1284.08
284.88	1390.57
285.09	1394.67
285.31	1380.33
285.52	1353.71
285.74	1335.28
285.95	1406.95
286.17	1409.00
286.38	1415.15
286.60	1329.13
286.81	1353.71
287.03	1265.64
287.24	1413.10
287.46	1382.38
287.67	1343.47
287.89	1445.87
288.10	1331.18
288.32	1447.91
288.53	1404.91
288.75	1427.43
288.96	1396.71
289.18	1384.43
289.39	1413.10
289.61	1382.38
289.82	1480.68
290.04	1445.87
290.25	1347.56
290.47	1296.36
290.68	1357.80
290.90	1409.00
291.11	1351.66
291.33	1378.28
291.54	1341.42
291.76	1292.27
291.97	1394.67
292.18	1406.95
292.40	1343.47
292.61	1380.33
292.83	1472.49
293.04	1374.19
293.26	1357.80
293.47	1322.99
293.69	1382.38
293.90	1355.76
294.12	1392.62
294.33	1372.14
294.55	1388.52
294.76	1411.05
294.97	1411.05
295.19	1435.63
295.40	1398.76
295.62	1357.80
295.83	1402.86
296.05	1370.09
296.26	1363.95
296.48	1390.57
296.69	1374.19
296.90	1437.67
297.12	1394.67
297.33	1439.72
297.55	1345.52
297.76	1392.62
297.98	1406.95
298.19	1361.90
298.41	1366.00
298.62	1376.24
298.83	1413.10
299.05	1361.90
299.26	1447.91
299.48	1310.70
299.69	1390.57
299.90	1427.43
300.12	1329.13
300.33	1419.24
300.55	1347.56
300.76	1337.32
300.98	1277.93
301.19	1337.32
301.40	1314.80
301.62	1351.66
301.83	1312.75
302.05	1400.81
302.26	1411.05
302.47	1347.56
302.69	1388.52
302.90	1388.52
303.12	1329.13
303.33	1419.24
303.54	1406.95
303.76	1316.84
303.97	1353.71
304.19	1404.91
304.40	1343.47
304.61	1388.52
304.83	1441.77
305.04	1419.24
305.26	1406.95
305.47	1351.66
305.68	1419.24
305.90	1349.61
306.11	1413.10
306.33	1284.08
306.54	1361.90
306.75	1282.03
306.97	1333.23
307.18	1335.28
307.39	1380.33
307.61	1421.29
307.82	1347.56
308.04	1388.52
308.25	1331.18
308.46	1413.10
308.68	1398.76
308.89	1359.85
309.10	1370.09
309.32	1409.00
309.53	1353.71
309.74	1439.72
309.96	1322.99
310.17	1404.91
310.39	1333.23
310.60	1329.13
310.81	1411.05
311.03	1329.13
311.24	1374.19
311.45	1437.67
311.67	1433.58
311.88	1353.71
312.09	1380.33
312.31	1312.75
312.52	1398.76
312.73	1296.36
312.95	1296.36
313.16	1318.89
313.37	1439.72
313.59	1335.28
313.80	1398.76
314.01	1437.67
314.23	1396.71
314.44	1376.24
314.65	1335.28
314.87	1349.61
315.08	1335.28
315.29	1409.00
315.51	1241.07
315.72	1409.00
315.93	1429.48
316.15	1316.84
316.36	1312.75
316.57	1277.93
316.79	1413.10
317.00	1351.66
317.21	1415.15
317.43	1359.85
317.64	1474.54
317.85	1437.67
318.07	1468.39
318.28	1572.84
318.49	1587.18
318.70	1601.51
318.92	1497.07
319.13	1472.49
319.34	1531.88
319.56	1433.58
319.77	1540.07
319.98	1460.20
320.20	1441.77
320.41	1413.10
320.62	1417.19
320.83	1394.67
321.05	1443.82
321.26	1458.15
321.47	1341.42
321.69	1466.35
321.90	1347.56
322.11	1368.04
322.32	1363.95
322.54	1425.39
322.75	1345.52
322.96	1468.39
323.18	1310.70
323.39	1308.65
323.60	1388.52
323.81	1351.66
324.03	1398.76
324.24	1304.56
324.45	1370.09
324.66	1314.80
324.88	1396.71
325.09	1486.83
325.30	1304.56
325.52	1417.19
325.73	1390.57
325.94	1368.04
326.15	1329.13
326.37	1306.60
326.58	1454.06
326.79	1406.95
327.00	1343.47
327.22	1325.04
327.43	1343.47
327.64	1290.22
327.85	1404.91
328.07	1392.62
328.28	1322.99
328.49	1290.22
328.70	1353.71
328.92	1396.71
329.13	1417.19
329.34	1306.60
329.55	1435.63
329.76	1363.95
329.98	1345.52
330.19	1478.63
330.40	1419.24
330.61	1394.67
330.83	1366.00
331.04	1286.12
331.25	1413.10
331.46	1384.43
331.68	1343.47
331.89	1425.39
332.10	1355.76
332.31	1355.76
332.52	1411.05
332.74	1380.33
332.95	1322.99
333.16	1294.32
333.37	1322.99
333.58	1384.43
333.80	1417.19
334.01	1212.40
334.22	1388.52
334.43	1335.28
334.64	1378.28
334.86	1382.38
335.07	1370.09
335.28	1411.05
335.49	1300.46
335.70	1374.19
335.92	1421.29
336.13	1460.20
336.34	1320.94
336.55	1361.90
336.76	1368.04
336.98	1339.37
337.19	1359.85
337.40	1429.48
337.61	1484.78
337.82	1312.75
338.04	1486.83
338.25	1222.64
338.46	1337.32
338.67	1363.95
338.88	1376.24
339.09	1335.28
339.31	1361.90
339.52	1259.50
339.73	1288.17
339.94	1437.67
340.15	1396.71
340.36	1417.19
340.58	1419.24
340.79	1286.12
341.00	1322.99
341.21	1337.32
341.42	1423.34
341.63	1347.56
341.85	1476.59
342.06	1417.19
342.27	1386.47
342.48	1421.29
342.69	1400.81
342.90	1384.43
343.12	1361.90
343.33	1359.85
343.54	1366.00
343.75	1419.24
343.96	1351.66
344.17	1355.76
344.38	1462.25
344.60	1406.95
344.81	1329.13
345.02	1417.19
345.23	1339.37
345.44	1445.87
345.65	1404.91
345.86	1341.42
346.07	1368.04
346.29	1327.08
346.50	1382.38
346.71	1382.38
346.92	1409.00
347.13	1460.20
347.34	1413.10
347.55	1425.39
347.76	1380.33
347.98	1329.13
348.19	1337.32
348.40	1474.54
348.61	1351.66
348.82	1355.76
349.03	1382.38
349.24	1337.32
349.45	1456.11
349.66	1275.88
349.88	1398.76
350.09	1372.14
350.30	1466.35
350.51	1447.91
350.72	1388.52
350.93	1345.52
351.14	1316.84
351.35	1341.42
351.56	1292.27
351.77	1318.89
351.99	1370.09
352.20	1394.67
352.41	1386.47
352.62	1374.19
352.83	1454.06
353.04	1337.32
353.25	1425.39
353.46	1472.49
353.67	1394.67
353.88	1320.94
354.09	1331.18
354.30	1394.67
354.52	1376.24
354.73	1411.05
354.94	1335.28
355.15	1351.66
355.36	1417.19
355.57	1357.80
355.78	1429.48
355.99	1353.71
356.20	1361.90
356.41	1413.10
356.62	1345.52
356.83	1363.95
357.04	1396.71
357.25	1275.88
357.46	1396.71
357.68	1310.70
357.89	1316.84
358.10	1337.32
358.31	1284.08
358.52	1372.14
358.73	1265.64
358.94	1380.33
359.15	1357.80
359.36	1439.72
359.57	1400.81
359.78	1372.14
359.99	1333.23
360.20	1329.13
360.41	1396.71
360.62	1363.95
360.83	1452.01
361.04	1441.77
361.25	1392.62
361.46	1429.48
361.67	1435.63
361.88	1419.24
362.09	1380.33
362.30	1423.34
362.51	1341.42
362.72	1335.28
362.93	1355.76
363.14	1421.29
363.35	1318.89
363.56	1372.14
363.78	1355.76
363.99	1409.00
364.20	1343.47
364.41	1402.86
364.62	1378.28
364.83	1335.28
365.04	1339.37
365.25	1413.10
365.46	1443.82
365.67	1327.08
365.88	1388.52
366.09	1314.80
366.30	1425.39
366.51	1372.14
366.72	1327.08
366.93	1380.33
367.14	1271.79
367.35	1419.24
367.56	1353.71
367.77	1480.68
367.98	1376.24
368.18	1333.23
368.39	1378.28
368.60	1290.22
368.81	1343.47
369.02	1394.67
369.23	1282.03
369.44	1312.75
369.65	1327.08
369.86	1386.47
370.07	1402.86
370.28	1363.95
370.49	1370.09
370.70	1380.33
370.91	1308.65
371.12	1322.99
371.33	1429.48
371.54	1361.90
371.75	1415.15
371.96	1345.52
372.17	1353.71
372.38	1345.52
372.59	1310.70
372.80	1353.71
373.01	1325.04
373.22	1435.63
373.43	1351.66
373.64	1386.47
373.85	1347.56
374.06	1388.52
374.26	1402.86
374.47	1320.94
374.68	1396.71
374.89	1359.85
375.10	1398.76
375.31	1454.06
375.52	1349.61
375.73	1462.25
375.94	1374.19
376.15	1409.00
376.36	1366.00
376.57	1343.47
376.78	1366.00
376.99	1411.05
377.20	1329.13
377.40	1415.15
377.61	1445.87
377.82	1302.51
378.03	1462.25
378.24	1343.47
378.45	1333.23
378.66	1331.18
378.87	1255.40
379.08	1306.60
379.29	1470.44
379.50	1376.24
379.71	1357.80
379.91	1423.34
380.12	1294.32
380.33	1400.81
380.54	1331.18
380.75	1351.66
380.96	1394.67
381.17	1478.63
381.38	1359.85
381.59	1433.58
381.80	1443.82
382.00	1460.20
382.21	1429.48
382.42	1433.58
382.63	1531.88
382.84	1445.87
383.05	1439.72
383.26	1347.56
383.47	1499.11
383.68	1492.97
383.88	1388.52
384.09	1404.91
384.30	1447.91
384.51	1368.04
384.72	1359.85
384.93	1298.41
385.14	1441.77
385.35	1320.94
385.55	1386.47
385.76	1419.24
385.97	1443.82
386.18	1322.99
386.39	1409.00
386.60	1421.29
386.81	1331.18
387.02	1409.00
387.22	1337.32
387.43	1413.10
387.64	1558.50
387.85	2279.39
388.06	5693.35
388.27	9500.53
388.48	11597.65
388.68	13027.13
388.89	13575.98
389.10	10637.15
389.31	9181.04
389.52	8314.75
389.73	7536.52
389.93	6981.53
390.14	6606.75
390.35	6064.04
390.56	5537.71
390.77	4767.67
390.98	3817.41
391.18	2764.76
391.39	2203.61
391.60	1724.39
391.81	1470.44
392.02	1421.29
392.23	1507.30
392.43	1441.77
392.64	1406.95
392.85	1318.89
393.06	1429.48
393.27	1398.76
393.47	1406.95
393.68	1347.56
393.89	1417.19
394.10	1472.49
394.31	1368.04
394.52	1339.37
394.72	1351.66
394.93	1441.77
395.14	1357.80
395.35	1398.76
395.56	1402.86
395.76	1456.11
395.97	1585.13
396.18	1546.22
396.39	1646.57
396.60	1611.75
396.80	1548.26
397.01	1503.21
397.22	1517.54
397.43	1503.21
397.64	1382.38
397.84	1464.30
398.05	1503.21
398.26	1540.07
398.47	1482.73
398.67	1468.39
398.88	1421.29
399.09	1443.82
399.30	1413.10
399.51	1363.95
399.71	1329.13
399.92	1363.95
400.13	1406.95
400.34	1441.77
400.54	1460.20
400.75	1378.28
400.96	1429.48
401.17	1433.58
401.37	1435.63
401.58	1429.48
401.79	1511.40
402.00	1593.32
402.21	1800.16
402.41	1816.55
402.62	1847.27
402.83	1775.59
403.04	1687.53
403.24	1714.15
403.45	1511.40
403.66	1576.94
403.87	1517.54
404.07	1558.50
404.28	1605.61
404.49	1519.59
404.70	1386.47
404.90	1452.01
405.11	1439.72
405.32	1402.86
405.52	1335.28
405.73	1322.99
405.94	1325.04
406.15	1292.27
406.35	1353.71
406.56	1415.15
406.77	1392.62
406.98	1404.91
407.18	1363.95
407.39	1490.92
407.60	1384.43
407.80	1341.42
408.01	1361.90
408.22	1402.86
408.43	1265.64
408.63	1361.90
408.84	1361.90
409.05	1306.60
409.25	1335.28
409.46	1337.32
409.67	1372.14
409.88	1378.28
410.08	1413.10
410.29	1370.09
410.50	1366.00
410.70	1406.95
410.91	1347.56
411.12	1425.39
411.32	1337.32
411.53	1335.28
411.74	1406.95
411.95	1507.30
412.15	1505.26
412.36	1460.20
412.57	1400.81
412.77	1478.63
412.98	1402.86
413.19	1355.76
413.39	1437.67
413.60	1402.86
413.81	1425.39
414.01	1388.52
414.22	1431.53
414.43	1447.91
414.63	1380.33
414.84	1443.82
415.05	1388.52
415.25	1361.90
415.46	1388.52
415.67	1419.24
415.87	1380.33
416.08	1437.67
416.29	1396.71
416.49	1380.33
416.70	1298.41
416.91	1363.95
417.11	1363.95
417.32	1378.28
417.53	1406.95
417.73	1390.57
417.94	1345.52
418.15	1370.09
418.35	1329.13
418.56	1441.77
418.77	1499.11
418.97	1404.91
419.18	1372.14
419.38	1318.89
419.59	1331.18
419.80	1435.63
420.00	1366.00
420.21	1372.14
420.42	1419.24
420.62	1380.33
420.83	1400.81
421.04	1320.94
421.24	1343.47
421.45	1396.71
421.65	1409.00
421.86	1363.95
422.07	1366.00
422.27	1390.57
422.48	1376.24
422.69	1355.76
422.89	1423.34
423.10	1355.76
423.30	1347.56
423.51	1452.01
423.72	1411.05
423.92	1486.83
424.13	1320.94
424.33	1361.90
424.54	1366.00
424.75	1476.59
424.95	1384.43
425.16	1380.33
425.36	1343.47
425.57	1368.04
425.78	1421.29
425.98	1337.32
426.19	1349.61
426.39	1349.61
426.60	1363.95
426.81	1404.91
427.01	1357.80
427.22	1409.00
427.42	1427.43
427.63	1380.33
427.83	1359.85
428.04	1488.87
428.25	1366.00
428.45	1464.30
428.66	1376.24
428.86	1361.90
429.07	1433.58
429.28	1349.61
429.48	1310.70
429.69	1341.42
429.89	1306.60
430.10	1337.32
430.30	1353.71
430.51	1382.38
430.71	1320.94
430.92	1337.32
431.13	1374.19
431.33	1404.91
431.54	1478.63
431.74	1366.00
431.95	1400.81
432.15	1388.52
432.36	1316.84
432.56	1421.29
432.77	1398.76
432.98	1382.38
433.18	1296.36
433.39	1355.76
433.59	1423.34
433.80	1503.21
434.00	1384.43
434.21	1322.99
434.41	1372.14
434.62	1474.54
434.82	1392.62
435.03	1312.75
435.23	1421.29
435.44	1310.70
435.64	1355.76
435.85	1304.56
436.06	1380.33
436.26	1368.04
436.47	1337.32
436.67	1366.00
436.88	1290.22
437.08	1388.52
437.29	1417.19
437.49	1366.00
437.70	1417.19
437.90	1394.67
438.11	1468.39
438.31	1499.11
438.52	1560.55
438.72	1478.63
438.93	1511.40
439.13	1460.20
439.34	1529.83
439.54	1390.57
439.75	1376.24
439.95	1468.39
440.16	1437.67
440.36	1419.24
440.57	1386.47
440.77	1501.16
440.98	1460.20
441.18	1406.95
441.39	1394.67
441.59	1386.47
441.80	1478.63
442.00	1382.38
442.21	1460.20
442.41	1335.28
442.62	1394.67
442.82	1314.80
443.02	1431.53
443.23	1419.24
443.43	1476.59
443.64	1495.02
443.84	1355.76
444.05	1415.15
444.25	1411.05
444.46	1320.94
444.66	1439.72
444.87	1470.44
445.07	1376.24
445.28	1404.91
445.48	1425.39
445.69	1421.29
445.89	1513.45
446.09	1490.92
446.30	2318.30
446.50	3684.30
446.71	4718.52
446.91	5240.75
447.12	5517.23
447.32	5074.87
447.53	4116.42
447.73	3729.35
447.93	3323.85
448.14	3268.56
448.34	3160.02
448.55	2729.94
448.75	2758.61
448.96	2688.98
449.16	2271.20
449.36	2170.85
449.57	1941.47
449.77	1675.24
449.98	1578.98
450.18	1488.87
450.39	1452.01
450.59	1437.67
450.79	1386.47
451.00	1349.61
451.20	1386.47
451.41	1404.91
451.61	1421.29
451.81	1421.29
452.02	1300.46
452.22	1417.19
452.43	1394.67
452.63	1370.09
452.84	1349.61
453.04	1255.40
453.24	1404.91
453.45	1329.13
453.65	1347.56
453.86	1409.00
454.06	1384.43
454.26	1374.19
454.47	1275.88
454.67	1353.71
454.87	1368.04
455.08	1353.71
455.28	1445.87
455.49	1355.76
455.69	1368.04
455.89	1480.68
456.10	1378.28
456.30	1357.80
456.51	1417.19
456.71	1318.89
456.91	1347.56
457.12	1415.15
457.32	1468.39
457.52	1355.76
457.73	1388.52
457.93	1406.95
458.14	1325.04
458.34	1345.52
458.54	1359.85
458.75	1361.90
458.95	1374.19
459.15	1353.71
459.36	1378.28
459.56	1388.52
459.76	1470.44
459.97	1476.59
460.17	1427.43
460.37	1404.91
460.58	1376.24
460.78	1413.10
460.99	1349.61
461.19	1331.18
461.39	1474.54
461.60	1402.86
461.80	1382.38
462.00	1322.99
462.21	1316.84
462.41	1337.32
462.61	1370.09
462.82	1288.17
463.02	1361.90
463.22	1341.42
463.43	1429.48
463.63	1347.56
463.83	1421.29
464.04	1351.66
464.24	1337.32
464.44	1396.71
464.64	1335.28
464.85	1382.38
465.05	1409.00
465.25	1394.67
465.46	1392.62
465.66	1400.81
465.86	1370.09
466.07	1445.87
466.27	1359.85
466.47	1380.33
466.68	1345.52
466.88	1501.16
467.08	1378.28
467.29	1372.14
467.49	1429.48
467.69	1339.37
467.89	1331.18
468.10	1325.04
468.30	1345.52
468.50	1445.87
468.71	1384.43
468.91	1341.42
469.11	1511.40
469.31	1386.47
469.52	1368.04
469.72	1413.10
469.92	1482.73
470.13	1413.10
470.33	1441.77
470.53	1667.05
470.73	2035.68
470.94	2322.40
471.14	2340.83
471.34	2400.22
471.54	2240.48
471.75	2099.17
471.95	1955.81
472.15	1826.79
472.36	1765.35
472.56	1851.36
472.76	1728.49
472.96	1730.53
473.17	1665.00
473.37	1636.33
473.57	1546.22
473.77	1501.16
473.98	1460.20
474.18	1482.73
474.38	1478.63
474.58	1454.06
474.79	1370.09
474.99	1343.47
475.19	1435.63
475.39	1306.60
475.60	1398.76
475.80	1404.91
476.00	1394.67
476.20	1437.67
476.41	1370.09
476.61	1406.95
476.81	1396.71
477.01	1351.66
477.21	1411.05
477.42	1458.15
477.62	1355.76
477.82	1398.76
478.02	1347.56
478.23	1382.38
478.43	1322.99
478.63	1349.61
478.83	1447.91
479.03	1386.47
479.24	1464.30
479.44	1486.83
479.64	1392.62
479.84	1376.24
480.04	1366.00
480.25	1357.80
480.45	1351.66
480.65	1374.19
480.85	1384.43
481.06	1351.66
481.26	1355.76
481.46	1337.32
481.66	1318.89
481.86	1298.41
482.06	1382.38
482.27	1368.04
482.47	1351.66
482.67	1402.86
482.87	1333.23
483.07	1421.29
483.28	1353.71
483.48	1337.32
483.68	1378.28
483.88	1343.47
484.08	1331.18
484.29	1318.89
484.49	1353.71
484.69	1282.03
484.89	1378.28
485.09	1390.57
485.29	1454.06
485.50	1372.14
485.70	1335.28
485.90	1404.91
486.10	1396.71
486.30	1345.52
486.50	1454.06
486.71	1376.24
486.91	1458.15
487.11	1495.02
487.31	1349.61
487.51	1394.67
487.71	1294.32
487.91	1320.94
488.12	1343.47
488.32	1337.32
488.52	1398.76
488.72	1359.85
488.92	1376.24
489.12	1445.87
489.32	1388.52
489.53	1396.71
489.73	1347.56
489.93	1402.86
490.13	1325.04
490.33	1329.13
490.53	1402.86
490.73	1355.76
490.94	1314.80
491.14	1417.19
491.34	1638.38
491.54	2209.76
491.74	2607.06
491.94	2985.94
492.14	3137.49
492.34	2967.51
492.54	2506.71
492.75	2295.77
492.95	2238.43
493.15	2062.30
493.35	2011.11
493.55	1970.15
493.75	1955.81
493.95	1914.85
494.15	1818.60
494.35	1673.19
494.56	1636.33
494.76	1525.74
494.96	1552.36
495.16	1388.52
495.36	1382.38
495.56	1392.62
495.76	1361.90
495.96	1314.80
496.16	1359.85
496.36	1394.67
496.56	1384.43
496.77	1314.80
496.97	1386.47
497.17	1415.15
497.37	1359.85
497.57	1390.57
497.77	1349.61
497.97	1396.71
498.17	1449.96
498.37	1370.09
498.57	1370.09
498.77	1427.43
498.97	1419.24
499.17	1427.43
499.38	1402.86
499.58	1445.87
499.78	1480.68
499.98	1462.25
500.18	1374.19
500.38	1329.13
500.58	1650.66
500.78	3074.00
500.98	5609.39
501.18	6891.41
501.38	8230.79
501.58	8683.39
501.78	7337.87
501.98	5844.90
502.18	5197.74
502.38	4339.65
502.58	4173.76
502.78	3758.02
502.98	3661.77
503.18	3518.41
503.38	3346.38
503.59	3024.85
503.79	2832.34
503.99	2660.31
504.19	2330.59
504.39	2144.22
504.59	2074.59
504.79	2015.20
504.99	1843.17
505.19	1646.57
505.39	1667.05
505.59	1665.00
505.79	1495.02
505.99	1511.40
506.19	1449.96
506.39	1562.60
506.59	1390.57
506.79	1486.83
506.99	1460.20
507.19	1525.74
507.39	1492.97
507.59	1378.28
507.79	1304.56
507.99	1394.67
508.19	1386.47
508.39	1374.19
508.59	1441.77
508.79	1431.53
508.99	1492.97
509.19	1421.29
509.39	1333.23
509.59	1384.43
509.79	1329.13
509.99	1318.89
510.19	1380.33
510.39	1380.33
510.59	1382.38
510.79	1366.00
510.99	1349.61
511.19	1394.67
511.39	1374.19
511.59	1427.43
511.79	1361.90
511.99	1284.08
512.19	1433.58
512.38	1429.48
512.58	1353.71
512.78	1400.81
512.98	1452.01
513.18	1478.63
513.38	1320.94
513.58	1386.47
513.78	1345.52
513.98	1396.71
514.18	1404.91
514.38	1341.42
514.58	1413.10
514.78	1413.10
514.98	1302.51
515.18	1386.47
515.38	1345.52
515.58	1404.91
515.78	1423.34
515.98	1452.01
516.18	1449.96
516.38	1308.65
516.57	1374.19
516.77	1386.47
516.97	1359.85
517.17	1417.19
517.37	1257.45
517.57	1363.95
517.77	1357.80
517.97	1419.24
518.17	1421.29
518.37	1314.80
518.57	1382.38
518.77	1339.37
518.97	1384.43
519.16	1368.04
519.36	1390.57
519.56	1284.08
519.76	1320.94
519.96	1400.81
520.16	1427.43
520.36	1386.47
520.56	1382.38
520.76	1359.85
520.96	1384.43
521.16	1394.67
521.35	1452.01
521.55	1441.77
521.75	1316.84
521.95	1353.71
522.15	1394.67
522.35	1417.19
522.55	1335.28
522.75	1437.67
522.95	1298.41
523.14	1378.28
523.34	1349.61
523.54	1345.52
523.74	1413.10
523.94	1423.34
524.14	1284.08
524.34	1396.71
524.54	1460.20
524.73	1394.67
524.93	1445.87
525.13	1386.47
525.33	1370.09
525.53	1454.06
525.73	1404.91
525.93	1419.24
526.13	1372.14
526.32	1339.37
526.52	1402.86
526.72	1357.80
526.92	1370.09
527.12	1325.04
527.32	1429.48
527.52	1400.81
527.71	1363.95
527.91	1302.51
528.11	1341.42
528.31	1433.58
528.51	1288.17
528.71	1384.43
528.90	1394.67
529.10	1353.71
529.30	1449.96
529.50	1279.98
529.70	1349.61
529.90	1372.14
530.09	1386.47
530.29	1347.56
530.49	1353.71
530.69	1474.54
530.89	1396.71
531.09	1421.29
531.28	1347.56
531.48	1361.90
531.68	1394.67
531.88	1400.81
532.08	1441.77
532.28	1306.60
532.47	1351.66
532.67	1417.19
532.87	1378.28
533.07	1337.32
533.27	1363.95
533.46	1402.86
533.66	1396.71
533.86	1419.24
534.06	1390.57
534.26	1394.67
534.45	1337.32
534.65	1368.04
534.85	1396.71
535.05	1380.33
535.25	1468.39
535.44	1314.80
535.64	1470.44
535.84	1423.34
536.04	1421.29
536.24	1359.85
536.43	1372.14
536.63	1378.28
536.83	1447.91
537.03	1454.06
537.22	1374.19
537.42	1288.17
537.62	1341.42
537.82	1351.66
538.02	1513.45
538.21	1421.29
538.41	1462.25
538.61	1359.85
538.81	1396.71
539.00	1398.76
539.20	1343.47
539.40	1400.81
539.60	1329.13
539.79	1429.48
539.99	1335.28
540.19	1378.28
540.39	1335.28
540.58	1380.33
540.78	1413.10
540.98	1421.29
541.18	1435.63
541.37	1429.48
541.57	1404.91
541.77	1355.76
541.97	1386.47
542.16	1335.28
542.36	1366.00
542.56	1478.63
542.76	1419.24
542.95	1419.24
543.15	1349.61
543.35	1404.91
543.54	1339.37
543.74	1394.67
543.94	1460.20
544.14	1322.99
544.33	1419.24
544.53	1372.14
544.73	1366.00
544.93	1409.00
545.12	1413.10
545.32	1363.95
545.52	1345.52
545.71	1312.75
545.91	1331.18
546.11	1353.71
546.30	1347.56
546.50	1327.08
546.70	1349.61
546.90	1335.28
547.09	1308.65
547.29	1386.47
547.49	1460.20
547.68	1402.86
547.88	1380.33
548.08	1380.33
548.27	1656.81
548.47	1353.71
548.67	1347.56
548.87	1322.99
549.06	1374.19
549.26	1390.57
549.46	1384.43
549.65	1419.24
549.85	1433.58
550.05	1366.00
550.24	1333.23
550.44	1402.86
550.64	1417.19
550.83	1396.71
551.03	1447.91
551.23	1347.56
551.42	1359.85
551.62	1392.62
551.82	1392.62
552.01	1300.46
552.21	1431.53
552.41	1400.81
552.60	1349.61
552.80	1372.14
553.00	1353.71
553.19	1347.56
553.39	1363.95
553.59	1355.76
553.78	1406.95
553.98	1486.83
554.17	1382.38
554.37	1386.47
554.57	1421.29
554.76	1433.58
554.96	1298.41
555.16	1349.61
555.35	1406.95
555.55	1361.90
555.75	1374.19
555.94	1361.90
556.14	1275.88
556.33	1435.63
556.53	1279.98
556.73	1413.10
556.92	1423.34
557.12	1392.62
557.32	1409.00
557.51	1476.59
557.71	1370.09
557.90	1429.48
558.10	1488.87
558.30	1361.90
558.49	1421.29
558.69	1343.47
558.88	1357.80
559.08	1527.78
559.28	1337.32
559.47	1341.42
559.67	1435.63
559.86	1400.81
560.06	1380.33
560.26	1452.01
560.45	1409.00
560.65	1363.95
560.84	1392.62
561.04	1378.28
561.24	1439.72
561.43	1277.93
561.63	1435.63
561.82	1388.52
562.02	1417.19
562.22	1318.89
562.41	1343.47
562.61	1384.43
562.80	1359.85
563.00	1378.28
563.19	1464.30
563.39	1415.15
563.59	1421.29
563.78	1267.69
563.98	1335.28
564.17	1325.04
564.37	1349.61
564.56	1447.91
564.76	1320.94
564.96	1464.30
565.15	1388.52
565.35	1460.20
565.54	1329.13
565.74	1462.25
565.93	1357.80
566.13	1417.19
566.32	1454.06
566.52	1351.66
566.71	1396.71
566.91	1388.52
567.11	1394.67
567.30	1282.03
567.50	1382.38
567.69	1445.87
567.89	1437.67
568.08	1347.56
568.28	1398.76
568.47	1329.13
568.67	1363.95
568.86	1363.95
569.06	1460.20
569.25	1351.66
569.45	1325.04
569.64	1341.42
569.84	1306.60
570.04	1363.95
570.23	1359.85
570.43	1366.00
570.62	1392.62
570.82	1411.05
571.01	1359.85
571.21	1372.14
571.40	1310.70
571.60	1488.87
571.79	1460.20
571.99	1292.27
572.18	1370.09
572.38	1404.91
572.57	1415.15
572.77	1484.78
572.96	1427.43
573.16	1374.19
573.35	1370.09
573.55	1339.37
573.74	1396.71
573.94	1337.32
574.13	1355.76
574.33	1519.59
574.52	1441.77
574.71	1464.30
574.91	1474.54
575.10	1390.57
575.30	1347.56
575.49	1384.43
575.69	1370.09
575.88	1503.21
576.08	1402.86
576.27	1519.59
576.47	1490.92
576.66	1478.63
576.86	1452.01
577.05	1482.73
577.25	1501.16
577.44	1507.30
577.64	1355.76
577.83	1437.67
578.02	1439.72
578.22	1460.20
578.41	1413.10
578.61	1331.18
578.80	1406.95
579.00	1337.32
579.19	1390.57
579.39	1419.24
579.58	1486.83
579.77	1421.29
579.97	1413.10
580.16	1470.44
580.36	1429.48
580.55	1509.35
580.75	1472.49
580.94	1435.63
581.13	1474.54
581.33	1484.78
581.52	1333.23
581.72	1449.96
581.91	1542.12
582.11	1458.15
582.30	1431.53
582.49	1511.40
582.69	1409.00
582.88	1454.06
583.08	1380.33
583.27	1447.91
583.47	1386.47
583.66	1384.43
583.85	1413.10
584.05	1441.77
584.24	1492.97
584.44	1427.43
584.63	1490.92
584.82	1529.83
585.02	1538.02
585.21	1654.76
585.41	1613.80
585.60	1587.18
585.79	1658.85
585.99	1699.81
586.18	1595.37
586.37	1873.89
586.57	2713.56
586.76	7985.03
586.96	24391.31
587.15	41497.99
587.34	51848.42
587.54	59780.21
587.73	59278.46
587.93	45043.02
588.12	33166.85
588.31	26476.14
588.51	22709.93
588.70	19846.87
588.89	18212.59
589.09	17235.70
589.28	15798.03
589.47	14298.92
589.67	12527.42
589.86	10852.19
590.06	8677.24
590.25	6473.63
590.44	4929.46
590.64	3696.58
590.83	2650.07
591.02	2320.35
591.22	1953.76
591.41	1730.53
591.60	1599.46
591.80	1638.38
591.99	1482.73
592.18	1480.68
592.38	1417.19
592.57	1366.00
592.76	1490.92
592.96	1441.77
593.15	1359.85
593.34	1421.29
593.54	1400.81
593.73	1499.11
593.92	1470.44
594.12	1470.44
594.31	1378.28
594.50	1507.30
594.70	1478.63
594.89	1529.83
595.08	1421.29
595.28	1456.11
595.47	1527.78
595.66	1441.77
595.86	1415.15
596.05	1409.00
596.24	1341.42
596.43	1511.40
596.63	1429.48
596.82	1495.02
597.01	1523.69
597.21	1538.02
597.40	1482.73
597.59	1443.82
597.79	1472.49
597.98	1433.58
598.17	1406.95
598.36	1454.06
598.56	1490.92
598.75	1327.08
598.94	1454.06
599.14	1472.49
599.33	1366.00
599.52	1447.91
599.71	1353.71
599.91	1460.20
600.10	1464.30
600.29	1495.02
600.48	1417.19
600.68	1468.39
600.87	1437.67
601.06	1425.39
601.26	1372.14
601.45	1374.19
601.64	1398.76
601.83	1411.05
602.03	1433.58
602.22	1327.08
602.41	1396.71
602.60	1370.09
602.80	1394.67
602.99	1366.00
603.18	1374.19
603.37	1411.05
603.57	1370.09
603.76	1406.95
603.95	1456.11
604.14	1380.33
604.34	1361.90
604.53	1320.94
604.72	1382.38
604.91	1470.44
605.10	1392.62
605.30	1304.56
605.49	1499.11
605.68	1402.86
605.87	1331.18
606.07	1347.56
606.26	1345.52
606.45	1392.62
606.64	1439.72
606.84	1445.87
607.03	1322.99
607.22	1443.82
607.41	1492.97
607.60	1478.63
607.80	1400.81
607.99	1441.77
608.18	1386.47
608.37	1449.96
608.56	1310.70
608.76	1386.47
608.95	1517.54
609.14	1478.63
609.33	1488.87
609.52	1558.50
609.72	1482.73
609.91	1474.54
610.10	1437.67
610.29	1538.02
610.48	1398.76
610.68	1335.28
610.87	1380.33
611.06	1488.87
611.25	1370.09
611.44	1486.83
611.63	1384.43
611.83	1509.35
612.02	1396.71
612.21	1392.62
612.40	1368.04
612.59	1333.23
612.79	1349.61
612.98	1337.32
613.17	1472.49
613.36	1404.91
613.55	1499.11
613.74	1449.96
613.93	1568.74
614.13	1535.98
614.32	1662.95
614.51	1615.85
614.70	1572.84
614.89	1542.12
615.08	1495.02
615.28	1636.33
615.47	1441.77
615.66	1472.49
615.85	1447.91
616.04	1564.65
616.23	1519.59
616.42	1470.44
616.62	1417.19
616.81	1550.31
617.00	1454.06
617.19	1415.15
617.38	1411.05
617.57	1363.95
617.76	1439.72
617.95	1419.24
618.15	1431.53
618.34	1462.25
618.53	1314.80
618.72	1415.15
618.91	1411.05
619.10	1413.10
619.29	1349.61
619.48	1357.80
619.68	1386.47
619.87	1392.62
620.06	1347.56
620.25	1392.62
620.44	1304.56
620.63	1462.25
620.82	1327.08
621.01	1417.19
621.20	1447.91
621.39	1366.00
621.59	1454.06
621.78	1411.05
621.97	1406.95
622.16	1437.67
622.35	1411.05
622.54	1417.19
622.73	1480.68
622.92	1400.81
623.11	1406.95
623.30	1409.00
623.49	1361.90
623.68	1331.18
623.88	1443.82
624.07	1425.39
624.26	1312.75
624.45	1386.47
624.64	1335.28
624.83	1419.24
625.02	1390.57
625.21	1361.90
625.40	1316.84
625.59	1466.35
625.78	1322.99
625.97	1417.19
626.16	1429.48
626.35	1464.30
626.54	1499.11
626.74	1464.30
626.93	1505.26
627.12	1443.82
627.31	1476.59
627.50	1501.16
627.69	1466.35
627.88	1411.05
628.07	1380.33
628.26	1359.85
628.45	1388.52
628.64	1353.71
628.83	1427.43
629.02	1386.47
629.21	1384.43
629.40	1396.71
629.59	1427.43
629.78	1347.56
629.97	1437.67
630.16	1435.63
630.35	1413.10
630.54	1402.86
630.73	1413.10
630.92	1374.19
631.11	1378.28
631.30	1433.58
631.49	1394.67
631.68	1388.52
631.87	1417.19
632.06	1380.33
632.25	1482.73
632.44	1351.66
632.63	1316.84
632.82	1384.43
633.01	1372.14
633.20	1513.45
633.39	1529.83
633.58	1454.06
633.77	1517.54
633.96	1503.21
634.15	1421.29
634.34	1447.91
634.53	1417.19
634.72	1370.09
634.91	1443.82
635.10	1443.82
635.29	1425.39
635.48	1337.32
635.67	1421.29
635.86	1353.71
636.05	1429.48
636.24	1353.71
636.43	1433.58
636.62	1435.63
636.81	1275.88
637.00	1406.95
637.19	1482.73
637.38	1339.37
637.57	1359.85
637.76	1423.34
637.95	1433.58
638.14	1415.15
638.33	1546.22
638.52	1501.16
638.71	1398.76
638.89	1396.71
639.08	1439.72
639.27	1470.44
639.46	1509.35
639.65	1761.25
639.84	1865.70
640.03	1990.63
640.22	2050.02
640.41	2125.79
640.60	1886.18
640.79	1757.16
640.98	1701.86
641.17	1673.19
641.36	1636.33
641.55	1642.47
641.74	1484.78
641.92	1466.35
642.11	1482.73
642.30	1484.78
642.49	1490.92
642.68	1454.06
642.87	1452.01
643.06	1456.11
643.25	1306.60
643.44	1429.48
643.63	1376.24
643.82	1359.85
644.00	1355.76
644.19	1380.33
644.38	1290.22
644.57	1449.96
644.76	1404.91
644.95	1372.14
645.14	1431.53
645.33	1361.90
645.52	1345.52
645.71	1374.19
645.89	1294.32
646.08	1370.09
646.27	1417.19
646.46	1435.63
646.65	1312.75
646.84	1376.24
647.03	1355.76
647.22	1388.52
647.40	1374.19
647.59	1363.95
647.78	1329.13
647.97	1372.14
648.16	1327.08
648.35	1433.58
648.54	1372.14
648.73	1312.75
648.91	1409.00
649.10	1388.52
649.29	1415.15
649.48	1413.10
649.67	1308.65
649.86	1505.26
650.05	1386.47
650.23	1572.84
650.42	1460.20
650.61	1554.41
650.80	1560.55
650.99	1576.94
651.18	1546.22
651.36	1476.59
651.55	1427.43
651.74	1456.11
651.93	1411.05
652.12	1404.91
652.31	1462.25
652.49	1341.42
652.68	1316.84
652.87	1398.76
653.06	1415.15
653.25	1394.67
653.44	1388.52
653.62	1396.71
653.81	1452.01
654.00	1423.34
654.19	1333.23
654.38	1482.73
654.56	1411.05
654.75	1392.62
654.94	1366.00
655.13	1396.71
655.32	1380.33
655.51	1392.62
655.69	1314.80
655.88	1347.56
656.07	1339.37
656.26	1392.62
656.45	1331.18
656.63	1363.95
656.82	1386.47
657.01	1429.48
657.20	1359.85
657.38	1411.05
657.57	1372.14
657.76	1325.04
657.95	1413.10
658.14	1288.17
658.32	1366.00
658.51	1327.08
658.70	1298.41
658.89	1394.67
659.08	1343.47
659.26	1396.71
659.45	1329.13
659.64	1507.30
659.83	1374.19
660.01	1566.70
660.20	1435.63
660.39	1474.54
660.58	1343.47
660.76	1425.39
660.95	1380.33
661.14	1413.10
661.33	1370.09
661.51	1396.71
661.70	1413.10
661.89	1488.87
662.08	1368.04
662.26	1349.61
662.45	1380.33
662.64	1470.44
662.83	1372.14
663.01	1314.80
663.20	1357.80
663.39	1404.91
663.58	1359.85
663.76	1363.95
663.95	1417.19
664.14	1437.67
664.32	1376.24
664.51	1333.23
664.70	1265.64
664.89	1380.33
665.07	1331.18
665.26	1435.63
665.45	1400.81
665.64	1390.57
665.82	1419.24
666.01	1423.34
666.20	1320.94
666.38	1382.38
666.57	1505.26
666.76	1576.94
666.95	2045.92
667.13	4523.96
667.32	11554.64
667.51	17788.66
667.69	21677.75
667.88	24940.16
668.07	24635.02
668.25	18996.96
668.44	13651.76
668.63	11358.03
668.81	9326.45
669.00	7987.08
669.19	7403.41
669.38	6944.66
669.56	6283.17
669.75	5552.04
669.94	4962.23
670.12	4284.35
670.31	3473.36
670.50	2926.55
670.68	2410.46
670.87	2136.03
671.06	1877.99
671.24	1652.71
671.43	1564.65
671.62	1558.50
671.80	1476.59
671.99	1540.07
672.18	1417.19
672.36	1505.26
672.55	1513.45
672.74	1413.10
672.92	1433.58
673.11	1402.86
673.29	1429.48
673.48	1486.83
673.67	1429.48
673.85	1398.76
674.04	1452.01
674.23	1386.47
674.41	1423.34
674.60	1325.04
674.79	1339.37
674.97	1359.85
675.16	1435.63
675.34	1351.66
675.53	1355.76
675.72	1404.91
675.90	1415.15
676.09	1384.43
676.28	1409.00
676.46	1312.75
676.65	1425.39
676.83	1435.63
677.02	1382.38
677.21	1454.06
677.39	1431.53
677.58	1392.62
677.77	1368.04
677.95	1361.90
678.14	1343.47
678.32	1372.14
678.51	1359.85
678.70	1394.67
678.88	1361.90
679.07	1409.00
679.25	1409.00
679.44	1320.94
679.63	1357.80
679.81	1462.25
680.00	1376.24
680.18	1402.86
680.37	1394.67
680.55	1308.65
680.74	1322.99
680.93	1370.09
681.11	1357.80
681.30	1337.32
681.48	1374.19
681.67	1400.81
681.85	1380.33
682.04	1337.32
682.23	1368.04
682.41	1355.76
682.60	1411.05
682.78	1339.37
682.97	1376.24
683.15	1318.89
683.34	1394.67
683.53	1400.81
683.71	1261.55
683.90	1417.19
684.08	1437.67
684.27	1419.24
684.45	1398.76
684.64	1466.35
684.82	1304.56
685.01	1398.76
685.19	1386.47
685.38	1441.77
685.57	1433.58
685.75	1343.47
685.94	1359.85
686.12	1413.10
686.31	1359.85
686.49	1495.02
686.68	1331.18
686.86	1445.87
687.05	1386.47
687.23	1415.15
687.42	1318.89
687.60	1290.22
687.79	1454.06
687.97	1347.56
688.16	1394.67
688.34	1433.58
688.53	1341.42
688.71	1366.00
688.90	1447.91
689.08	1363.95
689.27	1341.42
689.45	1417.19
689.64	1421.29
689.82	1468.39
690.01	1409.00
690.19	1409.00
690.38	1353.71
690.56	1400.81
690.75	1394.67
690.93	1460.20
691.12	1322.99
691.30	1394.67
691.49	1355.76
691.67	1372.14
691.86	1331.18
692.04	1374.19
692.23	1376.24
692.41	1390.57
692.60	1484.78
692.78	1409.00
692.97	1468.39
693.15	1433.58
693.34	1531.88
693.52	1468.39
693.71	1398.76
693.89	1263.60
694.08	1298.41
694.26	1478.63
694.44	1417.19
694.63	1429.48
694.81	1314.80
695.00	1353.71
695.18	1384.43
695.37	1415.15
695.55	1441.77
695.74	1470.44
695.92	1353.71
696.10	1423.34
696.29	1275.88
696.47	1320.94
696.66	1257.45
696.84	1406.95
697.03	1394.67
697.21	1429.48
697.40	1744.87
697.58	1460.20
697.76	1308.65
697.95	1339.37
698.13	1271.79
698.32	1325.04
698.50	1292.27
698.68	1380.33
698.87	1386.47
699.05	1449.96
699.24	1429.48
699.42	1388.52
699.61	1427.43
699.79	1372.14
699.97	1439.72
700.16	1433.58
700.34	1361.90
700.53	1368.04
700.71	1419.24
700.89	1343.47
701.08	1355.76
701.26	1392.62
701.45	1716.20
701.63	1417.19
701.81	1388.52
702.00	1331.18
702.18	1370.09
702.37	1394.67
702.55	1394.67
702.73	1484.78
702.92	1556.46
703.10	1642.47
703.28	1593.32
703.47	1656.81
703.65	1601.51
703.84	1621.99
704.02	1511.40
704.20	1509.35
704.39	1439.72
704.57	1439.72
704.75	1513.45
704.94	1484.78
705.12	1480.68
705.30	1462.25
705.49	1626.09
705.67	1828.84
705.86	3526.60
706.04	9062.26
706.22	16140.04
706.41	19582.68
706.59	22382.25
706.77	23617.18
706.96	19691.22
707.14	13838.12
707.32	11161.43
707.51	9287.54
707.69	8275.84
707.87	7399.31
708.06	6684.57
708.24	5975.97
708.42	5064.63
708.61	4108.23
708.79	3000.27
708.97	2459.61
709.16	1988.58
709.34	1769.44
709.52	1595.37
709.71	1556.46
709.89	1535.98
710.07	1427.43
710.26	1392.62
710.44	1335.28
710.62	1515.50
710.80	1322.99
710.99	1452.01
711.17	1513.45
711.35	1378.28
711.54	1445.87
711.72	1462.25
711.90	1482.73
712.09	1398.76
712.27	1308.65
712.45	1392.62
712.63	1409.00
712.82	1468.39
713.00	1394.67
713.18	1400.81
713.37	1380.33
713.55	1411.05
713.73	1392.62
713.91	1366.00
714.10	1357.80
714.28	1345.52
714.46	1310.70
714.65	1419.24
714.83	1390.57
715.01	1343.47
715.19	1320.94
715.38	1335.28
715.56	1419.24
715.74	1357.80
715.92	1337.32
716.11	1325.04
716.29	1288.17
716.47	1466.35
716.65	1366.00
716.84	1417.19
717.02	1486.83
717.20	1261.55
717.38	1398.76
717.57	1370.09
717.75	1343.47
717.93	1400.81
718.11	1359.85
718.30	1298.41
718.48	1316.84
718.66	1376.24
718.84	1427.43
719.03	1402.86
719.21	1359.85
719.39	1441.77
719.57	1411.05
719.75	1372.14
719.94	1275.88
720.12	1318.89
720.30	1347.56
720.48	1376.24
720.67	1345.52
720.85	1296.36
721.03	1392.62
721.21	1343.47
721.39	1460.20
721.58	1349.61
721.76	1347.56
721.94	1327.08
722.12	1335.28
722.30	1355.76
722.49	1390.57
722.67	1392.62
722.85	1306.60
723.03	1304.56
723.21	1318.89
723.40	1396.71
723.58	1497.07
723.76	1368.04
723.94	1433.58
724.12	1464.30
724.30	1435.63
724.49	1423.34
724.67	1419.24
724.85	1560.55
725.03	1329.13
725.21	1409.00
725.40	1415.15
725.58	1357.80
725.76	1435.63
725.94	1452.01
726.12	1341.42
726.30	1318.89
726.49	1359.85
726.67	1413.10
726.85	1415.15
727.03	1388.52
727.21	1519.59
727.39	1517.54
727.57	2156.51
727.76	3530.70
727.94	4349.89
728.12	4804.53
728.30	5240.75
728.48	5111.73
728.66	4163.52
728.84	3547.08
729.03	3243.98
729.21	2863.06
729.39	2691.03
729.57	2248.67
729.75	2084.83
729.93	1802.21
730.11	1570.79
730.30	1478.63
730.48	1482.73
730.66	1478.63
730.84	1505.26
731.02	1443.82
731.20	1386.47
731.38	1378.28
731.56	1361.90
731.74	1318.89
731.93	1353.71
732.11	1355.76
732.29	1382.38
732.47	1449.96
732.65	1345.52
732.83	1437.67
733.01	1337.32
733.19	1357.80
733.37	1411.05
733.56	1404.91
733.74	1363.95
733.92	1392.62
734.10	1390.57
734.28	1474.54
734.46	1253.36
734.64	1327.08
734.82	1392.62
735.00	1314.80
735.18	1456.11
735.36	1409.00
735.54	1300.46
735.73	1331.18
735.91	1351.66
736.09	1359.85
736.27	1335.28
736.45	1429.48
736.63	1279.98
736.81	1353.71
736.99	1425.39
737.17	1368.04
737.35	1380.33
737.53	1392.62
737.71	1277.93
737.89	1464.30
738.07	1402.86
738.25	1372.14
738.43	1331.18
738.61	1288.17
738.80	1390.57
738.98	1392.62
739.16	1294.32
739.34	1312.75
739.52	1437.67
739.70	1343.47
739.88	1380.33
740.06	1392.62
740.24	1347.56
740.42	1427.43
740.60	1400.81
740.78	1329.13
740.96	1337.32
741.14	1337.32
741.32	1423.34
741.50	1361.90
741.68	1421.29
741.86	1478.63
742.04	1339.37
742.22	1316.84
742.40	1359.85
742.58	1398.76
742.76	1398.76
742.94	1394.67
743.12	1271.79
743.30	1322.99
743.48	1349.61
743.66	1384.43
743.84	1359.85
744.02	1347.56
744.20	1366.00
744.38	1400.81
744.56	1363.95
744.74	1380.33
744.92	1351.66
745.10	1421.29
745.28	1478.63
745.46	1443.82
745.64	1392.62
745.82	1396.71
746.00	1386.47
746.18	1368.04
746.36	1288.17
746.54	1351.66
746.72	1419.24
746.90	1392.62
747.08	1370.09
747.26	1454.06
747.44	1439.72
747.62	1411.05
747.80	1425.39
747.98	1339.37
748.15	1431.53
748.33	1390.57
748.51	1329.13
748.69	1417.19
748.87	1476.59
749.05	1351.66
749.23	1288.17
749.41	1380.33
749.59	1378.28
749.77	1409.00
749.95	1329.13
750.13	1351.66
750.31	1366.00
750.49	1294.32
750.67	1378.28
750.85	1374.19
751.03	1361.90
751.20	1499.11
751.38	1366.00
751.56	1277.93
751.74	1361.90
751.92	1386.47
752.10	1335.28
752.28	1460.20
752.46	1376.24
752.64	1363.95
752.82	1302.51
753.00	1411.05
753.18	1378.28
753.35	1392.62
753.53	1331.18
753.71	1343.47
753.89	1421.29
754.07	1370.09
754.25	1384.43
754.43	1411.05
754.61	1339.37
754.79	1417.19
754.97	1345.52
755.14	1394.67
755.32	1316.84
755.50	1386.47
755.68	1361.90
755.86	1337.32
756.04	1347.56
756.22	1372.14
756.40	1388.52
756.57	1400.81
756.75	1310.70
756.93	1394.67
757.11	1396.71
757.29	1318.89
757.47	1361.90
757.65	1386.47
757.82	1277.93
758.00	1300.46
758.18	1290.22
758.36	1294.32
758.54	1470.44
758.72	1288.17
758.90	1390.57
759.07	1327.08
759.25	1282.03
759.43	1409.00
759.61	1265.64
759.79	1654.76
759.97	1361.90
760.15	1361.90
760.32	1339.37
760.50	1445.87
760.68	1495.02
760.86	1327.08
761.04	1521.64
761.22	1386.47
761.39	1423.34
761.57	1351.66
761.75	1347.56
761.93	1400.81
762.11	1382.38
762.28	1345.52
762.46	1374.19
762.64	1347.56
762.82	1318.89
763.00	1394.67
763.18	1357.80
763.35	1331.18
763.53	1404.91
763.71	1392.62
763.89	1423.34
764.07	1363.95
764.24	1366.00
764.42	1411.05
764.60	1435.63
764.78	1400.81
764.96	1458.15
765.13	1454.06
765.31	1400.81
765.49	1423.34
765.67	1392.62
765.84	1390.57
766.02	1331.18
766.20	1376.24
766.38	1388.52
766.56	1320.94
766.73	1347.56
766.91	1322.99
767.09	1349.61
767.27	1363.95
767.44	1333.23
767.62	1312.75
767.80	1345.52
767.98	1345.52
768.15	1400.81
768.33	1419.24
768.51	1298.41
768.69	1476.59
768.87	1406.95
769.04	1349.61
769.22	1417.19
769.40	1435.63
769.58	1400.81
769.75	1361.90
769.93	1458.15
770.11	1361.90
770.28	1271.79
770.46	1380.33
770.64	1402.86
770.82	1316.84
770.99	1363.95
771.17	1363.95
771.35	1296.36
771.53	1425.39
771.70	1415.15
771.88	1333.23
772.06	1329.13
772.23	1411.05
772.41	1372.14
772.59	1351.66
772.77	1322.99
772.94	1386.47
773.12	1331.18
773.30	1327.08
773.47	1380.33
773.65	1411.05
773.83	1476.59
774.01	1345.52
774.18	1306.60
774.36	1341.42
774.54	1345.52
774.71	1423.34
774.89	1370.09
775.07	1349.61
775.24	1363.95
775.42	1343.47
775.60	1425.39
775.78	1372.14
775.95	1376.24
776.13	1259.50
776.31	1366.00
776.48	1398.76
776.66	1386.47
776.84	1333.23
777.01	1386.47
777.19	1341.42
777.37	1310.70
777.54	1368.04
777.72	1411.05
777.90	1337.32
778.07	1343.47
778.25	1427.43
778.43	1423.34
778.60	1341.42
778.78	1392.62
778.96	1366.00
779.13	1314.80
779.31	1447.91
779.49	1341.42
779.66	1312.75
779.84	1337.32
780.01	1394.67
780.19	1318.89
780.37	1370.09
780.54	1337.32
780.72	1318.89
780.90	1341.42
781.07	1353.71
781.25	1329.13
781.43	1374.19
781.60	1419.24
781.78	1439.72
781.95	1413.10
782.13	1335.28
782.31	1372.14
782.48	1374.19
782.66	1359.85
782.83	1476.59
783.01	1345.52
783.19	1404.91
783.36	1394.67
783.54	1363.95
783.72	1320.94
783.89	1335.28
784.07	1296.36
784.24	1333.23
784.42	1431.53
784.60	1339.37
784.77	1341.42
784.95	1318.89
785.12	1331.18
785.30	1368.04
785.47	1384.43
785.65	1325.04
785.83	1271.79
786.00	1314.80
786.18	1404.91
786.35	1357.80
786.53	1322.99
786.71	1445.87
786.88	1400.81
787.06	1376.24
787.23	1370.09
787.41	1384.43
787.58	1288.17
787.76	1384.43
787.94	1390.57
788.11	1421.29
788.29	1310.70
788.46	1316.84
788.64	1411.05
788.81	1384.43
788.99	1357.80
789.16	1384.43
789.34	1384.43
789.52	1355.76
789.69	1343.47
789.87	1353.71
790.04	1347.56
790.22	1372.14
790.39	1474.54
790.57	1298.41
790.74	1329.13
790.92	1427.43
791.09	1314.80
791.27	1312.75
791.44	1378.28
791.62	1306.60
791.79	1406.95
791.97	1400.81
792.15	1505.26
792.32	1409.00
792.50	1392.62
792.67	1421.29
792.85	1329.13
793.02	1400.81
793.20	1370.09
793.37	1286.12
793.55	1349.61
793.72	1292.27
793.90	1347.56
794.07	1409.00
794.25	1388.52
794.42	1339.37
794.60	1368.04
794.77	1411.05
794.95	1429.48
795.12	1329.13
795.30	1384.43
795.47	1265.64
795.65	1425.39
795.82	1345.52
796.00	1310.70
796.17	1333.23
796.34	1357.80
796.52	1318.89
796.69	1343.47
796.87	1411.05
797.04	1406.95
797.22	1374.19
797.39	1357.80
797.57	1329.13
797.74	1298.41
797.92	1335.28
798.09	1331.18
798.27	1404.91
798.44	1353.71
798.62	1277.93
798.79	1290.22
798.96	1357.80
799.14	1382.38
799.31	1497.07
799.49	1359.85
799.66	1329.13
799.84	1398.76
800.01	1325.04
800.19	1429.48
800.36	1263.60
800.53	1359.85
800.71	1349.61
800.88	1429.48
801.06	1353.71
801.23	1337.32
801.41	1447.91
801.58	1363.95
801.75	1359.85
801.93	1282.03
802.10	1347.56
802.28	1255.40
802.45	1308.65
802.63	1421.29
802.80	1351.66
802.97	1363.95
803.15	1337.32
803.32	1306.60
803.50	1390.57
803.67	1370.09
803.84	1409.00
804.02	1398.76
804.19	1466.35
804.37	1304.56
804.54	1325.04
804.71	1349.61
804.89	1386.47
805.06	1345.52
805.24	1361.90
805.41	1343.47
805.58	1310.70
805.76	1431.53
805.93	1368.04
806.10	1449.96
806.28	1337.32
806.45	1398.76
806.63	1351.66
806.80	1353.71
806.97	1382.38
807.15	1386.47
807.32	1345.52
807.49	1337.32
807.67	1378.28
807.84	1466.35
808.01	1294.32
808.19	1464.30
808.36	1419.24
808.54	1349.61
808.71	1290.22
808.88	1353.71
809.06	1406.95
809.23	1404.91
809.40	1406.95
809.58	1386.47
809.75	1314.80
809.92	1308.65
810.10	1437.67
810.27	1394.67
810.44	1376.24
810.62	1325.04
810.79	1439.72
810.96	1343.47
811.14	1347.56
811.31	1339.37
811.48	1394.67
811.66	1302.51
811.83	1388.52
812.00	1378.28
812.18	1384.43
812.35	1511.40
812.52	1322.99
812.69	1339.37
812.87	1335.28
813.04	1322.99
813.21	1392.62
813.39	1269.74
813.56	1320.94
813.73	1355.76
813.91	1368.04
814.08	1419.24
814.25	1366.00
814.42	1310.70
814.60	1322.99
814.77	1437.67
814.94	1398.76
815.12	1329.13
815.29	1388.52
815.46	1372.14
815.63	1380.33
815.81	1419.24
815.98	1316.84
816.15	1398.76
816.33	1400.81
816.50	1298.41
816.67	1300.46
816.84	1359.85
817.02	1468.39
817.19	1357.80
817.36	1343.47
817.53	1490.92
817.71	1359.85
817.88	1409.00
818.05	1392.62
818.22	1347.56
818.40	1413.10
818.57	1394.67
818.74	1302.51
818.91	1445.87
819.09	1359.85
819.26	1429.48
819.43	1329.13
819.60	1363.95
819.78	1361.90
819.95	1392.62
820.12	1382.38
820.29	1378.28
820.47	1394.67
820.64	1341.42
820.81	1345.52
820.98	1370.09
821.15	1292.27
821.33	1314.80
821.50	1310.70
821.67	1343.47
821.84	1374.19
822.02	1353.71
822.19	1421.29
822.36	1329.13
822.53	1339.37
822.70	1294.32
822.88	1357.80
823.05	1345.52
823.22	1359.85
823.39	1374.19
823.56	1316.84
823.74	1386.47
823.91	1339.37
824.08	1320.94
824.25	1322.99
824.42	1421.29
824.60	1329.13
824.77	1370.09
824.94	1318.89
825.11	1388.52
825.28	1298.41
825.45	1419.24
825.63	1409.00
825.80	1366.00
825.97	1402.86
826.14	1327.08
826.31	1310.70
826.48	1421.29
826.66	1339.37
826.83	1366.00
827.00	1349.61
827.17	1368.04
827.34	1351.66
827.51	1337.32
827.69	1384.43
827.86	1335.28
828.03	1300.46
828.20	1345.52
828.37	1318.89
828.54	1445.87
828.71	1306.60
828.89	1443.82
829.06	1363.95
829.23	1435.63
829.40	1339.37
829.57	1392.62
829.74	1413.10
829.91	1331.18
830.09	1300.46
830.26	1380.33
830.43	1427.43
830.60	1388.52
830.77	1388.52
830.94	1433.58
831.11	1415.15
831.28	1341.42
831.46	1400.81
831.63	1353.71
831.80	1421.29
831.97	1353.71
832.14	1370.09
832.31	1349.61
832.48	1468.39
832.65	1441.77
832.82	1322.99
832.99	1368.04
833.17	1316.84
833.34	1470.44
833.51	1433.58
833.68	1304.56
833.85	1409.00
834.02	1292.27
834.19	1339.37
834.36	1304.56
834.53	1396.71
834.70	1366.00
834.87	1421.29
835.04	1396.71
835.22	1316.84
835.39	1331.18
835.56	1263.60
835.73	1363.95
835.90	1443.82
836.07	1398.76
836.24	1402.86
836.41	1279.98
836.58	1357.80
836.75	1402.86
836.92	1378.28
837.09	1392.62
837.26	1382.38
837.43	1419.24
837.60	1368.04
837.77	1404.91
837.94	1431.53
838.12	1374.19
838.29	1409.00
838.46	1282.03
838.63	1384.43
838.80	1380.33
838.97	1402.86
839.14	1316.84
839.31	1351.66
839.48	1372.14
839.65	1421.29
839.82	1355.76
839.99	1374.19
840.16	1316.84
840.33	1347.56
840.50	1378.28
840.67	1294.32
840.84	1368.04
841.01	1353.71
841.18	1431.53
841.35	1351.66
841.52	1320.94
841.69	1472.49
841.86	1372.14
842.03	1411.05
842.20	1411.05
842.37	1347.56
842.54	1437.67
842.71	1310.70
842.88	1331.18
843.05	1392.62
843.22	1419.24
843.39	1404.91
843.56	1368.04
843.73	1382.38
843.90	1329.13
844.07	1431.53
844.24	1423.34
844.41	1368.04
844.58	1429.48
844.75	1355.76
844.92	1349.61
845.09	1322.99
845.26	1331.18
845.43	1394.67
845.60	1312.75
845.77	1392.62
845.94	1460.20
846.10	1447.91
846.27	1322.99
846.44	1273.84
846.61	1325.04
846.78	1353.71
846.95	1433.58
847.12	1359.85
847.29	1306.60
847.46	1335.28
847.63	1329.13
847.80	1404.91
847.97	1349.61
848.14	1374.19
848.31	1355.76
848.48	1290.22
848.65	1392.62
848.82	1286.12
848.98	1462.25
849.15	1359.85
849.32	1447.91
849.49	1378.28
849.66	1380.33
849.83	1376.24
850.00	1284.08
850.17	1366.00
850.34	1404.91
850.51	1374.19
850.68	1396.71
850.85	1376.24
851.01	1425.39
851.18	1345.52
851.35	1304.56
851.52	1431.53
851.69	1443.82
851.86	1343.47
852.03	1345.52
852.20	1382.38
852.37	1370.09
852.53	1271.79
852.70	1345.52
852.87	1306.60
853.04	1374.19
853.21	1349.61
853.38	1394.67
853.55	1366.00
853.72	1402.86
853.89	1341.42
854.05	1355.76
854.22	1333.23
854.39	1335.28
854.56	1384.43
854.73	1445.87
854.90	1349.61
855.07	1437.67
855.23	1388.52
855.40	1421.29
855.57	1361.90
855.74	1239.02
855.91	1466.35
856.08	1310.70
856.25	1347.56
856.41	1347.56
856.58	1347.56
856.75	1345.52
856.92	1345.52
857.09	1349.61
857.26	1351.66
857.42	1308.65
857.59	1374.19
857.76	1394.67
857.93	1351.66
858.10	1343.47
858.27	1339.37
858.43	1400.81
858.60	1288.17
858.77	1298.41
858.94	1341.42
859.11	1439.72
859.27	1374.19
859.44	1398.76
859.61	1363.95
859.78	1409.00
859.95	1380.33
860.12	1357.80
860.28	1388.52
860.45	1542.12
860.62	1394.67
860.79	1396.71
860.95	1335.28
861.12	1273.84
861.29	1316.84
861.46	1320.94
861.63	1351.66
861.79	1372.14
861.96	1308.65
862.13	1386.47
862.30	1421.29
862.47	1351.66
862.63	1370.09
862.80	1411.05
862.97	1380.33
863.14	1386.47
863.30	1372.14
863.47	1347.56
863.64	1384.43
863.81	1402.86
863.97	1376.24
864.14	1372.14
864.31	1343.47
864.48	1394.67
864.65	1411.05
864.81	1386.47
864.98	1452.01
865.15	1359.85
865.32	1392.62
865.48	1341.42
865.65	1390.57
865.82	1341.42
865.98	1382.38
866.15	1380.33
866.32	1398.76
866.49	1329.13
866.65	1359.85
866.82	1292.27
866.99	1343.47
867.16	1329.13
867.32	1290.22
867.49	1394.67
867.66	1398.76
867.83	1370.09
867.99	1335.28
868.16	1345.52
868.33	1265.64
868.49	1386.47
868.66	1404.91
868.83	1363.95
868.99	1333.23
869.16	1355.76
869.33	1443.82
869.50	1386.47
869.66	1363.95
869.83	1386.47
870.00	1347.56
870.16	1329.13
870.33	1423.34
870.50	1343.47
870.66	1382.38
870.83	1437.67
871.00	1347.56
871.17	1394.67
871.33	1388.52
871.50	1374.19
871.67	1417.19
871.83	1341.42
872.00	1388.52
872.17	1400.81
872.33	1398.76
872.50	1372.14
872.67	1349.61
872.83	1388.52
873.00	1366.00
873.17	1396.71
873.33	1406.95
873.50	1462.25
873.67	1273.84
873.83	1333.23
874.00	1353.71
874.16	1382.38
874.33	1396.71
874.50	1347.56
874.66	1411.05
874.83	1372.14
875.00	1396.71
875.16	1429.48
875.33	1429.48
875.50	1279.98
875.66	1376.24
875.83	1413.10
875.99	1341.42
876.16	1366.00
876.33	1345.52
876.49	1353.71
876.66	1413.10
876.83	1411.05
876.99	1431.53
877.16	1388.52
877.32	1310.70
877.49	1378.28
877.66	1329.13
877.82	1355.76
877.99	1396.71
878.15	1443.82
878.32	1402.86
878.49	1341.42
878.65	1370.09
878.82	1452.01
878.98	1290.22
879.15	1468.39
879.32	1427.43
879.48	1384.43
879.65	1402.86
879.81	1337.32
879.98	1349.61
880.15	1382.38
880.31	1363.95
880.48	1329.13
880.64	1404.91
880.81	1386.47
880.97	1419.24
881.14	1400.81
881.31	1394.67
881.47	1452.01
881.64	1325.04
881.80	1322.99
881.97	1370.09
882.13	1419.24
882.30	1359.85
882.47	1394.67
882.63	1402.86
882.80	1370.09
882.96	1302.51
883.13	1386.47
883.29	1417.19
883.46	1427.43
883.62	1431.53
883.79	1343.47
883.95	1298.41
884.12	1331.18
884.29	1402.86
884.45	1335.28
884.62	1370.09
884.78	1271.79
884.95	1376.24
885.11	1327.08
885.28	1417.19
885.44	1374.19
885.61	1409.00
885.77	1288.17
885.94	1343.47
886.10	1345.52
886.27	1359.85
886.43	1406.95
886.60	1417.19
886.76	1329.13
886.93	1361.90
887.09	1452.01
887.26	1353.71
887.42	1327.08
887.59	1419.24
887.75	1443.82
887.92	1378.28
888.08	1374.19
888.25	1409.00
888.41	1306.60
888.58	1454.06
888.74	1306.60
888.91	1327.08
>>>>>End Processed Spectral Data<<<<<
