SpectraSuite Data File
++++++++++++++++++++++++++++++++++++
Date: Tue May 03 11:24:47 CEST 2016
User: root
Dark Spectrum Present: No
Reference Spectrum Present: No
Number of Sampled Component Spectra: 1
Spectrometers: USB4C02835
Integration Time (usec): 100000 (USB4C02835)
Spectra Averaged: 1 (USB4C02835)
Boxcar Smoothing: 0 (USB4C02835)
Correct for Electrical Dark: No (USB4C02835)
Strobe/Lamp Enabled: No (USB4C02835)
Correct for Detector Non-linearity: No (USB4C02835)
Correct for Stray Light: No (USB4C02835)
Number of Pixels in Processed Spectrum: 3648
>>>>>Begin Processed Spectral Data<<<<<
177.47	1193.97
177.69	1193.97
177.91	1193.97
178.13	1204.21
178.36	1253.36
178.58	1320.94
178.80	1386.47
179.02	1261.55
179.24	1372.14
179.46	1341.42
179.68	1439.72
179.90	1415.15
180.13	1419.24
180.35	1325.04
180.57	1320.94
180.79	1443.82
181.01	1370.09
181.23	1480.68
181.45	1462.25
181.67	1404.91
181.90	1386.47
182.12	1349.61
182.34	1302.51
182.56	1355.76
182.78	1349.61
183.00	1417.19
183.22	1347.56
183.44	1345.52
183.66	1425.39
183.89	1437.67
184.11	1439.72
184.33	1398.76
184.55	1341.42
184.77	1380.33
184.99	1378.28
185.21	1322.99
185.43	1529.83
185.65	1394.67
185.87	1343.47
186.10	1472.49
186.32	1476.59
186.54	1423.34
186.76	1433.58
186.98	1343.47
187.20	1366.00
187.42	1406.95
187.64	1392.62
187.86	1419.24
188.08	1386.47
188.30	1316.84
188.52	1404.91
188.75	1380.33
188.97	1458.15
189.19	1320.94
189.41	1343.47
189.63	1394.67
189.85	1333.23
190.07	1329.13
190.29	1267.69
190.51	1327.08
190.73	1406.95
190.95	1470.44
191.17	1361.90
191.39	1351.66
191.61	1363.95
191.84	1343.47
192.06	1394.67
192.28	1267.69
192.50	1452.01
192.72	1413.10
192.94	1372.14
193.16	1378.28
193.38	1329.13
193.60	1318.89
193.82	1368.04
194.04	1376.24
194.26	1417.19
194.48	1376.24
194.70	1343.47
194.92	1310.70
195.14	1378.28
195.36	1368.04
195.58	1353.71
195.80	1394.67
196.02	1396.71
196.24	1415.15
196.46	1318.89
196.69	1331.18
196.91	1411.05
197.13	1456.11
197.35	1322.99
197.57	1413.10
197.79	1392.62
198.01	1419.24
198.23	1376.24
198.45	1441.77
198.67	1423.34
198.89	1347.56
199.11	1406.95
199.33	1263.60
199.55	1335.28
199.77	1359.85
199.99	1427.43
200.21	1439.72
200.43	1409.00
200.65	1288.17
200.87	1298.41
201.09	1396.71
201.31	1361.90
201.53	1361.90
201.75	1431.53
201.97	1318.89
202.19	1427.43
202.41	1378.28
202.63	1468.39
202.85	1406.95
203.07	1431.53
203.29	1302.51
203.51	1304.56
203.73	1335.28
203.95	1468.39
204.17	1382.38
204.39	1343.47
204.61	1347.56
204.83	1363.95
205.05	1439.72
205.27	1366.00
205.49	1423.34
205.71	1378.28
205.93	1357.80
206.15	1372.14
206.37	1386.47
206.59	1421.29
206.81	1271.79
207.03	1363.95
207.25	1331.18
207.47	1425.39
207.69	1331.18
207.91	1404.91
208.13	1359.85
208.34	1331.18
208.56	1335.28
208.78	1392.62
209.00	1404.91
209.22	1331.18
209.44	1363.95
209.66	1312.75
209.88	1368.04
210.10	1218.54
210.32	1284.08
210.54	1394.67
210.76	1366.00
210.98	1394.67
211.20	1331.18
211.42	1337.32
211.64	1355.76
211.86	1370.09
212.08	1423.34
212.30	1378.28
212.52	1372.14
212.74	1431.53
212.96	1337.32
213.17	1394.67
213.39	1388.52
213.61	1406.95
213.83	1474.54
214.05	1357.80
214.27	1411.05
214.49	1445.87
214.71	1304.56
214.93	1445.87
215.15	1312.75
215.37	1286.12
215.59	1384.43
215.81	1380.33
216.03	1413.10
216.24	1359.85
216.46	1322.99
216.68	1394.67
216.90	1427.43
217.12	1386.47
217.34	1411.05
217.56	1396.71
217.78	1325.04
218.00	1402.86
218.22	1341.42
218.44	1349.61
218.66	1349.61
218.87	1495.02
219.09	1361.90
219.31	1472.49
219.53	1509.35
219.75	1296.36
219.97	1339.37
220.19	1392.62
220.41	1390.57
220.63	1339.37
220.85	1376.24
221.06	1331.18
221.28	1402.86
221.50	1433.58
221.72	1366.00
221.94	1347.56
222.16	1290.22
222.38	1347.56
222.60	1396.71
222.82	1349.61
223.03	1427.43
223.25	1390.57
223.47	1392.62
223.69	1390.57
223.91	1333.23
224.13	1370.09
224.35	1325.04
224.57	1404.91
224.78	1384.43
225.00	1275.88
225.22	1341.42
225.44	1372.14
225.66	1392.62
225.88	1357.80
226.10	1355.76
226.32	1380.33
226.53	1474.54
226.75	1349.61
226.97	1341.42
227.19	1388.52
227.41	1447.91
227.63	1341.42
227.85	1329.13
228.06	1343.47
228.28	1341.42
228.50	1374.19
228.72	1325.04
228.94	1396.71
229.16	1271.79
229.37	1302.51
229.59	1384.43
229.81	1363.95
230.03	1361.90
230.25	1327.08
230.47	1341.42
230.69	1388.52
230.90	1320.94
231.12	1282.03
231.34	1335.28
231.56	1378.28
231.78	1302.51
232.00	1415.15
232.21	1376.24
232.43	1417.19
232.65	1275.88
232.87	1343.47
233.09	1298.41
233.30	1368.04
233.52	1396.71
233.74	1413.10
233.96	1380.33
234.18	1329.13
234.40	1357.80
234.61	1423.34
234.83	1402.86
235.05	1341.42
235.27	1382.38
235.49	1435.63
235.70	1474.54
235.92	1411.05
236.14	1370.09
236.36	1464.30
236.58	1306.60
236.79	1361.90
237.01	1366.00
237.23	1290.22
237.45	1404.91
237.67	1429.48
237.88	1361.90
238.10	1306.60
238.32	1302.51
238.54	1327.08
238.76	1423.34
238.97	1380.33
239.19	1398.76
239.41	1388.52
239.63	1337.32
239.85	1400.81
240.06	1415.15
240.28	1355.76
240.50	1388.52
240.72	1298.41
240.93	1396.71
241.15	1470.44
241.37	1341.42
241.59	1404.91
241.81	1341.42
242.02	1341.42
242.24	1404.91
242.46	1396.71
242.68	1302.51
242.89	1386.47
243.11	1378.28
243.33	1378.28
243.55	1372.14
243.76	1402.86
243.98	1353.71
244.20	1333.23
244.42	1441.77
244.64	1421.29
244.85	1298.41
245.07	1316.84
245.29	1433.58
245.51	1417.19
245.72	1361.90
245.94	1449.96
246.16	1355.76
246.38	1368.04
246.59	1404.91
246.81	1361.90
247.03	1406.95
247.24	1300.46
247.46	1359.85
247.68	1343.47
247.90	1357.80
248.11	1316.84
248.33	1413.10
248.55	1345.52
248.77	1355.76
248.98	1361.90
249.20	1452.01
249.42	1404.91
249.64	1378.28
249.85	1478.63
250.07	1396.71
250.29	1417.19
250.50	1470.44
250.72	1388.52
250.94	1398.76
251.16	1476.59
251.37	1355.76
251.59	1376.24
251.81	1359.85
252.02	1464.30
252.24	1380.33
252.46	1337.32
252.68	1314.80
252.89	1378.28
253.11	1322.99
253.33	1517.54
253.54	1363.95
253.76	1357.80
253.98	1331.18
254.20	1327.08
254.41	1353.71
254.63	1329.13
254.85	1384.43
255.06	1402.86
255.28	1433.58
255.50	1466.35
255.71	1353.71
255.93	1388.52
256.15	1298.41
256.36	1376.24
256.58	1374.19
256.80	1421.29
257.02	1355.76
257.23	1372.14
257.45	1460.20
257.67	1427.43
257.88	1314.80
258.10	1439.72
258.32	1388.52
258.53	1413.10
258.75	1439.72
258.97	1320.94
259.18	1351.66
259.40	1298.41
259.62	1382.38
259.83	1435.63
260.05	1366.00
260.27	1568.74
260.48	1406.95
260.70	1288.17
260.92	1396.71
261.13	1370.09
261.35	1415.15
261.57	1398.76
261.78	1353.71
262.00	1279.98
262.22	1398.76
262.43	1349.61
262.65	1286.12
262.86	1449.96
263.08	1404.91
263.30	1388.52
263.51	1290.22
263.73	1384.43
263.95	1431.53
264.16	1368.04
264.38	1357.80
264.60	1390.57
264.81	1349.61
265.03	1419.24
265.25	1335.28
265.46	1320.94
265.68	1419.24
265.89	1363.95
266.11	1255.40
266.33	1380.33
266.54	1425.39
266.76	1339.37
266.98	1368.04
267.19	1314.80
267.41	1368.04
267.62	1374.19
267.84	1343.47
268.06	1398.76
268.27	1388.52
268.49	1406.95
268.70	1398.76
268.92	1351.66
269.14	1314.80
269.35	1339.37
269.57	1320.94
269.79	1437.67
270.00	1378.28
270.22	1454.06
270.43	1279.98
270.65	1312.75
270.87	1376.24
271.08	1400.81
271.30	1388.52
271.51	1435.63
271.73	1388.52
271.95	1415.15
272.16	1406.95
272.38	1419.24
272.59	1390.57
272.81	1382.38
273.02	1413.10
273.24	1400.81
273.46	1415.15
273.67	1374.19
273.89	1378.28
274.10	1339.37
274.32	1392.62
274.54	1396.71
274.75	1351.66
274.97	1290.22
275.18	1402.86
275.40	1294.32
275.61	1368.04
275.83	1372.14
276.05	1239.02
276.26	1376.24
276.48	1380.33
276.69	1325.04
276.91	1429.48
277.12	1394.67
277.34	1398.76
277.55	1378.28
277.77	1331.18
277.99	1355.76
278.20	1335.28
278.42	1392.62
278.63	1275.88
278.85	1411.05
279.06	1302.51
279.28	1425.39
279.49	1376.24
279.71	1390.57
279.93	1443.82
280.14	1353.71
280.36	1261.55
280.57	1343.47
280.79	1425.39
281.00	1341.42
281.22	1429.48
281.43	1361.90
281.65	1261.55
281.86	1300.46
282.08	1374.19
282.29	1435.63
282.51	1300.46
282.73	1341.42
282.94	1300.46
283.16	1329.13
283.37	1431.53
283.59	1376.24
283.80	1388.52
284.02	1357.80
284.23	1468.39
284.45	1329.13
284.66	1339.37
284.88	1359.85
285.09	1398.76
285.31	1329.13
285.52	1380.33
285.74	1357.80
285.95	1433.58
286.17	1404.91
286.38	1427.43
286.60	1284.08
286.81	1339.37
287.03	1366.00
287.24	1419.24
287.46	1314.80
287.67	1386.47
287.89	1349.61
288.10	1351.66
288.32	1335.28
288.53	1392.62
288.75	1339.37
288.96	1402.86
289.18	1355.76
289.39	1314.80
289.61	1372.14
289.82	1368.04
290.04	1380.33
290.25	1355.76
290.47	1384.43
290.68	1353.71
290.90	1394.67
291.11	1306.60
291.33	1318.89
291.54	1376.24
291.76	1382.38
291.97	1419.24
292.18	1357.80
292.40	1310.70
292.61	1402.86
292.83	1425.39
293.04	1452.01
293.26	1275.88
293.47	1386.47
293.69	1347.56
293.90	1388.52
294.12	1411.05
294.33	1406.95
294.55	1318.89
294.76	1343.47
294.97	1386.47
295.19	1505.26
295.40	1343.47
295.62	1370.09
295.83	1376.24
296.05	1331.18
296.26	1411.05
296.48	1302.51
296.69	1314.80
296.90	1368.04
297.12	1386.47
297.33	1353.71
297.55	1333.23
297.76	1355.76
297.98	1394.67
298.19	1419.24
298.41	1372.14
298.62	1349.61
298.83	1425.39
299.05	1349.61
299.26	1341.42
299.48	1329.13
299.69	1413.10
299.90	1409.00
300.12	1310.70
300.33	1363.95
300.55	1314.80
300.76	1423.34
300.98	1366.00
301.19	1413.10
301.40	1316.84
301.62	1386.47
301.83	1411.05
302.05	1282.03
302.26	1425.39
302.47	1347.56
302.69	1370.09
302.90	1318.89
303.12	1355.76
303.33	1404.91
303.54	1431.53
303.76	1322.99
303.97	1382.38
304.19	1370.09
304.40	1415.15
304.61	1380.33
304.83	1441.77
305.04	1378.28
305.26	1306.60
305.47	1290.22
305.68	1386.47
305.90	1320.94
306.11	1409.00
306.33	1363.95
306.54	1366.00
306.75	1296.36
306.97	1335.28
307.18	1394.67
307.39	1322.99
307.61	1366.00
307.82	1386.47
308.04	1388.52
308.25	1300.46
308.46	1406.95
308.68	1359.85
308.89	1394.67
309.10	1466.35
309.32	1435.63
309.53	1421.29
309.74	1382.38
309.96	1435.63
310.17	1431.53
310.39	1386.47
310.60	1423.34
310.81	1394.67
311.03	1273.84
311.24	1384.43
311.45	1329.13
311.67	1413.10
311.88	1302.51
312.09	1382.38
312.31	1345.52
312.52	1329.13
312.73	1290.22
312.95	1333.23
313.16	1351.66
313.37	1435.63
313.59	1394.67
313.80	1359.85
314.01	1386.47
314.23	1386.47
314.44	1331.18
314.65	1310.70
314.87	1286.12
315.08	1304.56
315.29	1345.52
315.51	1329.13
315.72	1241.07
315.93	1460.20
316.15	1427.43
316.36	1337.32
316.57	1353.71
316.79	1404.91
317.00	1353.71
317.21	1402.86
317.43	1386.47
317.64	1390.57
317.85	1370.09
318.07	1480.68
318.28	1447.91
318.49	1572.84
318.70	1574.89
318.92	1515.50
319.13	1441.77
319.34	1529.83
319.56	1476.59
319.77	1454.06
319.98	1478.63
320.20	1421.29
320.41	1357.80
320.62	1386.47
320.83	1279.98
321.05	1466.35
321.26	1359.85
321.47	1310.70
321.69	1462.25
321.90	1292.27
322.11	1320.94
322.32	1396.71
322.54	1361.90
322.75	1306.60
322.96	1488.87
323.18	1335.28
323.39	1292.27
323.60	1331.18
323.81	1421.29
324.03	1404.91
324.24	1347.56
324.45	1337.32
324.66	1302.51
324.88	1447.91
325.09	1439.72
325.30	1339.37
325.52	1343.47
325.73	1253.36
325.94	1308.65
326.15	1327.08
326.37	1357.80
326.58	1331.18
326.79	1372.14
327.00	1392.62
327.22	1380.33
327.43	1318.89
327.64	1357.80
327.85	1454.06
328.07	1380.33
328.28	1429.48
328.49	1306.60
328.70	1335.28
328.92	1370.09
329.13	1337.32
329.34	1353.71
329.55	1472.49
329.76	1400.81
329.98	1310.70
330.19	1359.85
330.40	1419.24
330.61	1372.14
330.83	1386.47
331.04	1310.70
331.25	1347.56
331.46	1318.89
331.68	1234.93
331.89	1409.00
332.10	1300.46
332.31	1345.52
332.52	1388.52
332.74	1366.00
332.95	1318.89
333.16	1384.43
333.37	1411.05
333.58	1337.32
333.80	1368.04
334.01	1357.80
334.22	1380.33
334.43	1327.08
334.64	1333.23
334.86	1304.56
335.07	1341.42
335.28	1353.71
335.49	1376.24
335.70	1400.81
335.92	1427.43
336.13	1456.11
336.34	1398.76
336.55	1462.25
336.76	1368.04
336.98	1374.19
337.19	1300.46
337.40	1409.00
337.61	1427.43
337.82	1351.66
338.04	1437.67
338.25	1357.80
338.46	1347.56
338.67	1314.80
338.88	1316.84
339.09	1341.42
339.31	1376.24
339.52	1275.88
339.73	1388.52
339.94	1333.23
340.15	1380.33
340.36	1423.34
340.58	1384.43
340.79	1333.23
341.00	1353.71
341.21	1337.32
341.42	1464.30
341.63	1361.90
341.85	1355.76
342.06	1376.24
342.27	1347.56
342.48	1378.28
342.69	1247.21
342.90	1339.37
343.12	1406.95
343.33	1329.13
343.54	1464.30
343.75	1419.24
343.96	1366.00
344.17	1380.33
344.38	1359.85
344.60	1304.56
344.81	1337.32
345.02	1372.14
345.23	1349.61
345.44	1452.01
345.65	1435.63
345.86	1409.00
346.07	1357.80
346.29	1376.24
346.50	1415.15
346.71	1404.91
346.92	1386.47
347.13	1413.10
347.34	1347.56
347.55	1353.71
347.76	1288.17
347.98	1290.22
348.19	1359.85
348.40	1454.06
348.61	1402.86
348.82	1359.85
349.03	1363.95
349.24	1353.71
349.45	1398.76
349.66	1329.13
349.88	1327.08
350.09	1394.67
350.30	1431.53
350.51	1380.33
350.72	1306.60
350.93	1476.59
351.14	1394.67
351.35	1343.47
351.56	1345.52
351.77	1359.85
351.99	1372.14
352.20	1443.82
352.41	1425.39
352.62	1339.37
352.83	1380.33
353.04	1413.10
353.25	1355.76
353.46	1329.13
353.67	1415.15
353.88	1312.75
354.09	1366.00
354.30	1392.62
354.52	1372.14
354.73	1343.47
354.94	1325.04
355.15	1331.18
355.36	1404.91
355.57	1318.89
355.78	1294.32
355.99	1384.43
356.20	1388.52
356.41	1417.19
356.62	1374.19
356.83	1357.80
357.04	1429.48
357.25	1314.80
357.46	1378.28
357.68	1263.60
357.89	1353.71
358.10	1353.71
358.31	1400.81
358.52	1378.28
358.73	1386.47
358.94	1296.36
359.15	1370.09
359.36	1363.95
359.57	1341.42
359.78	1325.04
359.99	1394.67
360.20	1331.18
360.41	1339.37
360.62	1335.28
360.83	1349.61
361.04	1398.76
361.25	1404.91
361.46	1353.71
361.67	1376.24
361.88	1361.90
362.09	1413.10
362.30	1472.49
362.51	1380.33
362.72	1392.62
362.93	1337.32
363.14	1329.13
363.35	1331.18
363.56	1351.66
363.78	1357.80
363.99	1509.35
364.20	1359.85
364.41	1394.67
364.62	1425.39
364.83	1415.15
365.04	1345.52
365.25	1376.24
365.46	1501.16
365.67	1261.55
365.88	1331.18
366.09	1345.52
366.30	1380.33
366.51	1310.70
366.72	1404.91
366.93	1370.09
367.14	1409.00
367.35	1355.76
367.56	1384.43
367.77	1443.82
367.98	1331.18
368.18	1415.15
368.39	1394.67
368.60	1380.33
368.81	1378.28
369.02	1392.62
369.23	1378.28
369.44	1249.26
369.65	1308.65
369.86	1337.32
370.07	1437.67
370.28	1304.56
370.49	1355.76
370.70	1458.15
370.91	1349.61
371.12	1400.81
371.33	1454.06
371.54	1398.76
371.75	1384.43
371.96	1298.41
372.17	1419.24
372.38	1347.56
372.59	1413.10
372.80	1366.00
373.01	1409.00
373.22	1388.52
373.43	1366.00
373.64	1353.71
373.85	1388.52
374.06	1308.65
374.26	1366.00
374.47	1355.76
374.68	1400.81
374.89	1427.43
375.10	1351.66
375.31	1441.77
375.52	1396.71
375.73	1380.33
375.94	1388.52
376.15	1361.90
376.36	1341.42
376.57	1372.14
376.78	1337.32
376.99	1413.10
377.20	1470.44
377.40	1411.05
377.61	1480.68
377.82	1322.99
378.03	1421.29
378.24	1335.28
378.45	1331.18
378.66	1355.76
378.87	1327.08
379.08	1320.94
379.29	1378.28
379.50	1411.05
379.71	1355.76
379.91	1384.43
380.12	1361.90
380.33	1376.24
380.54	1366.00
380.75	1357.80
380.96	1318.89
381.17	1499.11
381.38	1372.14
381.59	1452.01
381.80	1439.72
382.00	1515.50
382.21	1392.62
382.42	1439.72
382.63	1433.58
382.84	1458.15
383.05	1478.63
383.26	1454.06
383.47	1411.05
383.68	1460.20
383.88	1417.19
384.09	1357.80
384.30	1523.69
384.51	1409.00
384.72	1363.95
384.93	1370.09
385.14	1363.95
385.35	1374.19
385.55	1366.00
385.76	1445.87
385.97	1437.67
386.18	1337.32
386.39	1419.24
386.60	1378.28
386.81	1478.63
387.02	1363.95
387.22	1415.15
387.43	1474.54
387.64	1523.69
387.85	2232.29
388.06	5785.51
388.27	9531.25
388.48	11671.37
388.68	12853.05
388.89	13025.08
389.10	10764.12
389.31	9240.44
389.52	8333.18
389.73	7421.84
389.93	7053.20
390.14	6502.30
390.35	5971.88
390.56	5461.93
390.77	4722.62
390.98	3694.54
391.18	2834.39
391.39	2078.69
391.60	1685.48
391.81	1470.44
392.02	1437.67
392.23	1452.01
392.43	1460.20
392.64	1392.62
392.85	1335.28
393.06	1460.20
393.27	1433.58
393.47	1312.75
393.68	1341.42
393.89	1384.43
394.10	1380.33
394.31	1355.76
394.52	1384.43
394.72	1398.76
394.93	1345.52
395.14	1406.95
395.35	1425.39
395.56	1370.09
395.76	1542.12
395.97	1538.02
396.18	1595.37
396.39	1632.23
396.60	1665.00
396.80	1535.98
397.01	1578.98
397.22	1484.78
397.43	1564.65
397.64	1454.06
397.84	1433.58
398.05	1515.50
398.26	1398.76
398.47	1445.87
398.67	1566.70
398.88	1380.33
399.09	1421.29
399.30	1378.28
399.51	1384.43
399.71	1339.37
399.92	1411.05
400.13	1447.91
400.34	1355.76
400.54	1347.56
400.75	1492.97
400.96	1374.19
401.17	1404.91
401.37	1423.34
401.58	1421.29
401.79	1452.01
402.00	1753.06
402.21	1746.92
402.41	1748.97
402.62	1779.68
402.83	1703.91
403.04	1628.14
403.24	1720.29
403.45	1578.98
403.66	1591.27
403.87	1679.33
404.07	1624.04
404.28	1613.80
404.49	1544.17
404.70	1499.11
404.90	1460.20
405.11	1370.09
405.32	1425.39
405.52	1357.80
405.73	1390.57
405.94	1320.94
406.15	1359.85
406.35	1361.90
406.56	1388.52
406.77	1363.95
406.98	1376.24
407.18	1341.42
407.39	1413.10
407.60	1392.62
407.80	1370.09
408.01	1376.24
408.22	1388.52
408.43	1341.42
408.63	1384.43
408.84	1400.81
409.05	1359.85
409.25	1345.52
409.46	1339.37
409.67	1314.80
409.88	1345.52
410.08	1378.28
410.29	1394.67
410.50	1347.56
410.70	1443.82
410.91	1355.76
411.12	1370.09
411.32	1515.50
411.53	1486.83
411.74	1431.53
411.95	1484.78
412.15	1404.91
412.36	1402.86
412.57	1411.05
412.77	1417.19
412.98	1282.03
413.19	1404.91
413.39	1433.58
413.60	1427.43
413.81	1394.67
414.01	1388.52
414.22	1394.67
414.43	1398.76
414.63	1359.85
414.84	1386.47
415.05	1380.33
415.25	1314.80
415.46	1456.11
415.67	1320.94
415.87	1331.18
416.08	1331.18
416.29	1413.10
416.49	1341.42
416.70	1382.38
416.91	1378.28
417.11	1363.95
417.32	1441.77
417.53	1439.72
417.73	1417.19
417.94	1439.72
418.15	1339.37
418.35	1439.72
418.56	1372.14
418.77	1492.97
418.97	1363.95
419.18	1351.66
419.38	1331.18
419.59	1388.52
419.80	1449.96
420.00	1331.18
420.21	1339.37
420.42	1439.72
420.62	1386.47
420.83	1343.47
421.04	1333.23
421.24	1452.01
421.45	1380.33
421.65	1386.47
421.86	1337.32
422.07	1347.56
422.27	1306.60
422.48	1388.52
422.69	1404.91
422.89	1394.67
423.10	1314.80
423.30	1310.70
423.51	1406.95
423.72	1386.47
423.92	1382.38
424.13	1275.88
424.33	1345.52
424.54	1423.34
424.75	1349.61
424.95	1394.67
425.16	1378.28
425.36	1376.24
425.57	1372.14
425.78	1312.75
425.98	1427.43
426.19	1411.05
426.39	1314.80
426.60	1357.80
426.81	1429.48
427.01	1351.66
427.22	1333.23
427.42	1361.90
427.63	1366.00
427.83	1372.14
428.04	1486.83
428.25	1409.00
428.45	1396.71
428.66	1458.15
428.86	1427.43
429.07	1449.96
429.28	1341.42
429.48	1388.52
429.69	1312.75
429.89	1337.32
430.10	1372.14
430.30	1413.10
430.51	1390.57
430.71	1316.84
430.92	1378.28
431.13	1310.70
431.33	1404.91
431.54	1378.28
431.74	1374.19
431.95	1456.11
432.15	1322.99
432.36	1339.37
432.56	1353.71
432.77	1452.01
432.98	1411.05
433.18	1400.81
433.39	1298.41
433.59	1337.32
433.80	1429.48
434.00	1478.63
434.21	1386.47
434.41	1384.43
434.62	1466.35
434.82	1335.28
435.03	1314.80
435.23	1363.95
435.44	1376.24
435.64	1370.09
435.85	1400.81
436.06	1390.57
436.26	1421.29
436.47	1380.33
436.67	1347.56
436.88	1284.08
437.08	1406.95
437.29	1470.44
437.49	1382.38
437.70	1431.53
437.90	1433.58
438.11	1488.87
438.31	1499.11
438.52	1570.79
438.72	1529.83
438.93	1548.26
439.13	1445.87
439.34	1435.63
439.54	1396.71
439.75	1492.97
439.95	1509.35
440.16	1380.33
440.36	1368.04
440.57	1382.38
440.77	1429.48
440.98	1394.67
441.18	1398.76
441.39	1409.00
441.59	1386.47
441.80	1495.02
442.00	1447.91
442.21	1443.82
442.41	1366.00
442.62	1437.67
442.82	1386.47
443.02	1335.28
443.23	1357.80
443.43	1392.62
443.64	1427.43
443.84	1337.32
444.05	1468.39
444.25	1402.86
444.46	1396.71
444.66	1452.01
444.87	1511.40
445.07	1298.41
445.28	1298.41
445.48	1478.63
445.69	1345.52
445.89	1499.11
446.09	1437.67
446.30	2209.76
446.50	3792.84
446.71	4648.89
446.91	5326.77
447.12	5613.48
447.32	5089.20
447.53	4122.56
447.73	3790.79
447.93	3489.74
448.14	3164.11
448.34	3024.85
448.55	2854.87
448.75	2762.71
448.96	2645.98
449.16	2379.74
449.36	2199.52
449.57	1957.86
449.77	1728.49
449.98	1535.98
450.18	1574.89
450.39	1435.63
450.59	1488.87
450.79	1308.65
451.00	1388.52
451.20	1421.29
451.41	1396.71
451.61	1316.84
451.81	1390.57
452.02	1382.38
452.22	1396.71
452.43	1345.52
452.63	1314.80
452.84	1386.47
453.04	1306.60
453.24	1339.37
453.45	1308.65
453.65	1320.94
453.86	1386.47
454.06	1339.37
454.26	1343.47
454.47	1378.28
454.67	1368.04
454.87	1359.85
455.08	1335.28
455.28	1411.05
455.49	1402.86
455.69	1282.03
455.89	1478.63
456.10	1411.05
456.30	1400.81
456.51	1335.28
456.71	1427.43
456.91	1335.28
457.12	1366.00
457.32	1359.85
457.52	1390.57
457.73	1406.95
457.93	1462.25
458.14	1302.51
458.34	1404.91
458.54	1396.71
458.75	1320.94
458.95	1427.43
459.15	1413.10
459.36	1322.99
459.56	1404.91
459.76	1431.53
459.97	1394.67
460.17	1404.91
460.37	1376.24
460.58	1355.76
460.78	1361.90
460.99	1345.52
461.19	1318.89
461.39	1429.48
461.60	1380.33
461.80	1462.25
462.00	1312.75
462.21	1359.85
462.41	1304.56
462.61	1417.19
462.82	1349.61
463.02	1431.53
463.22	1380.33
463.43	1415.15
463.63	1335.28
463.83	1366.00
464.04	1439.72
464.24	1400.81
464.44	1374.19
464.64	1443.82
464.85	1423.34
465.05	1347.56
465.25	1425.39
465.46	1312.75
465.66	1402.86
465.86	1409.00
466.07	1388.52
466.27	1265.64
466.47	1353.71
466.68	1331.18
466.88	1466.35
467.08	1398.76
467.29	1423.34
467.49	1490.92
467.69	1288.17
467.89	1409.00
468.10	1306.60
468.30	1388.52
468.50	1415.15
468.71	1443.82
468.91	1427.43
469.11	1480.68
469.31	1290.22
469.52	1339.37
469.72	1376.24
469.92	1501.16
470.13	1390.57
470.33	1460.20
470.53	1748.97
470.73	1998.82
470.94	2236.38
471.14	2316.25
471.34	2394.08
471.54	2111.46
471.75	2064.35
471.95	1906.66
472.15	1771.49
472.36	1785.83
472.56	1789.92
472.76	1777.64
472.96	1621.99
473.17	1642.47
473.37	1617.90
473.57	1566.70
473.77	1470.44
473.98	1419.24
474.18	1376.24
474.38	1538.02
474.58	1394.67
474.79	1341.42
474.99	1357.80
475.19	1267.69
475.39	1294.32
475.60	1380.33
475.80	1355.76
476.00	1372.14
476.20	1353.71
476.41	1384.43
476.61	1417.19
476.81	1445.87
477.01	1374.19
477.21	1480.68
477.42	1378.28
477.62	1370.09
477.82	1415.15
478.02	1386.47
478.23	1353.71
478.43	1347.56
478.63	1402.86
478.83	1359.85
479.03	1390.57
479.24	1404.91
479.44	1380.33
479.64	1366.00
479.84	1322.99
480.04	1335.28
480.25	1452.01
480.45	1409.00
480.65	1406.95
480.85	1402.86
481.06	1279.98
481.26	1382.38
481.46	1400.81
481.66	1406.95
481.86	1382.38
482.06	1441.77
482.27	1314.80
482.47	1439.72
482.67	1447.91
482.87	1374.19
483.07	1437.67
483.28	1411.05
483.48	1300.46
483.68	1402.86
483.88	1423.34
484.08	1294.32
484.29	1294.32
484.49	1353.71
484.69	1361.90
484.89	1404.91
485.09	1470.44
485.29	1468.39
485.50	1351.66
485.70	1380.33
485.90	1431.53
486.10	1341.42
486.30	1427.43
486.50	1413.10
486.71	1431.53
486.91	1380.33
487.11	1441.77
487.31	1372.14
487.51	1355.76
487.71	1400.81
487.91	1341.42
488.12	1386.47
488.32	1353.71
488.52	1415.15
488.72	1345.52
488.92	1460.20
489.12	1343.47
489.32	1363.95
489.53	1400.81
489.73	1300.46
489.93	1386.47
490.13	1316.84
490.33	1413.10
490.53	1425.39
490.73	1413.10
490.94	1357.80
491.14	1394.67
491.34	1638.38
491.54	2160.61
491.74	2568.15
491.94	2957.27
492.14	3182.54
492.34	2961.36
492.54	2631.64
492.75	2295.77
492.95	2197.47
493.15	2119.65
493.35	1978.34
493.55	2019.30
493.75	1855.46
493.95	1818.60
494.15	1767.40
494.35	1673.19
494.56	1718.25
494.76	1497.07
494.96	1497.07
495.16	1376.24
495.36	1382.38
495.56	1339.37
495.76	1372.14
495.96	1304.56
496.16	1343.47
496.36	1435.63
496.56	1337.32
496.77	1460.20
496.97	1372.14
497.17	1454.06
497.37	1380.33
497.57	1386.47
497.77	1415.15
497.97	1341.42
498.17	1413.10
498.37	1345.52
498.57	1454.06
498.77	1345.52
498.97	1353.71
499.17	1468.39
499.38	1386.47
499.58	1433.58
499.78	1443.82
499.98	1388.52
500.18	1406.95
500.38	1409.00
500.58	1742.82
500.78	2953.17
500.98	5474.22
501.18	6938.52
501.38	8296.32
501.58	8439.68
501.78	7491.47
501.98	5894.05
502.18	5076.91
502.38	4591.55
502.58	4104.13
502.78	3811.27
502.98	3651.53
503.18	3428.30
503.38	3301.33
503.59	3092.43
503.79	2758.61
503.99	2543.58
504.19	2385.88
504.39	2154.46
504.59	2045.92
504.79	1941.47
504.99	1736.68
505.19	1591.27
505.39	1662.95
505.59	1572.84
505.79	1478.63
505.99	1583.08
506.19	1552.36
506.39	1509.35
506.59	1476.59
506.79	1490.92
506.99	1480.68
507.19	1413.10
507.39	1386.47
507.59	1413.10
507.79	1357.80
507.99	1390.57
508.19	1359.85
508.39	1327.08
508.59	1380.33
508.79	1472.49
508.99	1437.67
509.19	1372.14
509.39	1404.91
509.59	1290.22
509.79	1421.29
509.99	1370.09
510.19	1435.63
510.39	1357.80
510.59	1335.28
510.79	1413.10
510.99	1322.99
511.19	1415.15
511.39	1441.77
511.59	1396.71
511.79	1382.38
511.99	1400.81
512.19	1507.30
512.38	1384.43
512.58	1357.80
512.78	1380.33
512.98	1318.89
513.18	1404.91
513.38	1343.47
513.58	1396.71
513.78	1343.47
513.98	1349.61
514.18	1363.95
514.38	1441.77
514.58	1466.35
514.78	1327.08
514.98	1396.71
515.18	1355.76
515.38	1339.37
515.58	1462.25
515.78	1437.67
515.98	1382.38
516.18	1372.14
516.38	1339.37
516.57	1431.53
516.77	1363.95
516.97	1374.19
517.17	1325.04
517.37	1243.12
517.57	1380.33
517.77	1366.00
517.97	1415.15
518.17	1415.15
518.37	1331.18
518.57	1347.56
518.77	1445.87
518.97	1382.38
519.16	1452.01
519.36	1378.28
519.56	1388.52
519.76	1372.14
519.96	1327.08
520.16	1409.00
520.36	1335.28
520.56	1421.29
520.76	1411.05
520.96	1390.57
521.16	1447.91
521.35	1464.30
521.55	1433.58
521.75	1370.09
521.95	1419.24
522.15	1396.71
522.35	1320.94
522.55	1298.41
522.75	1437.67
522.95	1351.66
523.14	1406.95
523.34	1359.85
523.54	1478.63
523.74	1388.52
523.94	1366.00
524.14	1380.33
524.34	1343.47
524.54	1394.67
524.73	1316.84
524.93	1400.81
525.13	1390.57
525.33	1298.41
525.53	1404.91
525.73	1439.72
525.93	1345.52
526.13	1388.52
526.32	1409.00
526.52	1435.63
526.72	1347.56
526.92	1370.09
527.12	1400.81
527.32	1392.62
527.52	1376.24
527.71	1351.66
527.91	1396.71
528.11	1378.28
528.31	1400.81
528.51	1333.23
528.71	1427.43
528.90	1400.81
529.10	1402.86
529.30	1445.87
529.50	1312.75
529.70	1372.14
529.90	1368.04
530.09	1357.80
530.29	1300.46
530.49	1355.76
530.69	1386.47
530.89	1382.38
531.09	1417.19
531.28	1421.29
531.48	1470.44
531.68	1462.25
531.88	1394.67
532.08	1406.95
532.28	1361.90
532.47	1505.26
532.67	1333.23
532.87	1464.30
533.07	1320.94
533.27	1525.74
533.46	1460.20
533.66	1398.76
533.86	1368.04
534.06	1353.71
534.26	1447.91
534.45	1429.48
534.65	1439.72
534.85	1415.15
535.05	1372.14
535.25	1454.06
535.44	1310.70
535.64	1454.06
535.84	1376.24
536.04	1337.32
536.24	1277.93
536.43	1335.28
536.63	1390.57
536.83	1306.60
537.03	1435.63
537.22	1345.52
537.42	1312.75
537.62	1366.00
537.82	1339.37
538.02	1388.52
538.21	1429.48
538.41	1464.30
538.61	1445.87
538.81	1372.14
539.00	1523.69
539.20	1335.28
539.40	1382.38
539.60	1400.81
539.79	1306.60
539.99	1275.88
540.19	1359.85
540.39	1417.19
540.58	1394.67
540.78	1396.71
540.98	1402.86
541.18	1466.35
541.37	1449.96
541.57	1394.67
541.77	1394.67
541.97	1306.60
542.16	1255.40
542.36	1462.25
542.56	1404.91
542.76	1409.00
542.95	1411.05
543.15	1374.19
543.35	1392.62
543.54	1376.24
543.74	1357.80
543.94	1402.86
544.14	1355.76
544.33	1411.05
544.53	1368.04
544.73	1327.08
544.93	1335.28
545.12	1368.04
545.32	1376.24
545.52	1392.62
545.71	1335.28
545.91	1462.25
546.11	1392.62
546.30	1296.36
546.50	1435.63
546.70	1370.09
546.90	1380.33
547.09	1312.75
547.29	1392.62
547.49	1279.98
547.68	1339.37
547.88	1308.65
548.08	1398.76
548.27	1718.25
548.47	1382.38
548.67	1372.14
548.87	1396.71
549.06	1386.47
549.26	1361.90
549.46	1306.60
549.65	1423.34
549.85	1368.04
550.05	1390.57
550.24	1316.84
550.44	1413.10
550.64	1431.53
550.83	1433.58
551.03	1435.63
551.23	1376.24
551.42	1400.81
551.62	1351.66
551.82	1392.62
552.01	1372.14
552.21	1372.14
552.41	1388.52
552.60	1437.67
552.80	1409.00
553.00	1361.90
553.19	1355.76
553.39	1421.29
553.59	1396.71
553.78	1423.34
553.98	1396.71
554.17	1339.37
554.37	1384.43
554.57	1370.09
554.76	1331.18
554.96	1296.36
555.16	1349.61
555.35	1366.00
555.55	1314.80
555.75	1435.63
555.94	1419.24
556.14	1337.32
556.33	1337.32
556.53	1376.24
556.73	1400.81
556.92	1441.77
557.12	1456.11
557.32	1476.59
557.51	1396.71
557.71	1423.34
557.90	1382.38
558.10	1409.00
558.30	1349.61
558.49	1384.43
558.69	1411.05
558.88	1271.79
559.08	1363.95
559.28	1320.94
559.47	1363.95
559.67	1441.77
559.86	1419.24
560.06	1413.10
560.26	1331.18
560.45	1294.32
560.65	1363.95
560.84	1417.19
561.04	1312.75
561.24	1435.63
561.43	1394.67
561.63	1400.81
561.82	1409.00
562.02	1460.20
562.22	1298.41
562.41	1316.84
562.61	1370.09
562.80	1396.71
563.00	1591.27
563.19	1431.53
563.39	1404.91
563.59	1372.14
563.78	1341.42
563.98	1259.50
564.17	1304.56
564.37	1333.23
564.56	1425.39
564.76	1353.71
564.96	1386.47
565.15	1355.76
565.35	1505.26
565.54	1355.76
565.74	1394.67
565.93	1372.14
566.13	1378.28
566.32	1306.60
566.52	1396.71
566.71	1421.29
566.91	1445.87
567.11	1437.67
567.30	1382.38
567.50	1374.19
567.69	1454.06
567.89	1333.23
568.08	1318.89
568.28	1456.11
568.47	1343.47
568.67	1419.24
568.86	1363.95
569.06	1390.57
569.25	1353.71
569.45	1304.56
569.64	1335.28
569.84	1380.33
570.04	1386.47
570.23	1388.52
570.43	1339.37
570.62	1443.82
570.82	1363.95
571.01	1341.42
571.21	1337.32
571.40	1343.47
571.60	1378.28
571.79	1400.81
571.99	1419.24
572.18	1370.09
572.38	1374.19
572.57	1388.52
572.77	1464.30
572.96	1517.54
573.16	1347.56
573.35	1327.08
573.55	1449.96
573.74	1388.52
573.94	1312.75
574.13	1427.43
574.33	1392.62
574.52	1478.63
574.71	1466.35
574.91	1495.02
575.10	1306.60
575.30	1388.52
575.49	1341.42
575.69	1392.62
575.88	1517.54
576.08	1476.59
576.27	1486.83
576.47	1492.97
576.66	1597.42
576.86	1490.92
577.05	1503.21
577.25	1505.26
577.44	1437.67
577.64	1404.91
577.83	1425.39
578.02	1374.19
578.22	1413.10
578.41	1503.21
578.61	1400.81
578.80	1406.95
579.00	1415.15
579.19	1388.52
579.39	1402.86
579.58	1515.50
579.77	1431.53
579.97	1492.97
580.16	1503.21
580.36	1495.02
580.55	1527.78
580.75	1589.22
580.94	1425.39
581.13	1464.30
581.33	1535.98
581.52	1372.14
581.72	1443.82
581.91	1570.79
582.11	1517.54
582.30	1495.02
582.49	1415.15
582.69	1533.93
582.88	1456.11
583.08	1468.39
583.27	1429.48
583.47	1435.63
583.66	1419.24
583.85	1452.01
584.05	1411.05
584.24	1490.92
584.44	1480.68
584.63	1509.35
584.82	1542.12
585.02	1525.74
585.21	1644.52
585.41	1581.03
585.60	1525.74
585.79	1656.81
585.99	1621.99
586.18	1624.04
586.37	1894.37
586.57	2758.61
586.76	8064.90
586.96	24524.43
587.15	41258.38
587.34	52153.57
587.54	59653.23
587.73	59493.49
587.93	44770.64
588.12	33007.11
588.31	26705.51
588.51	22591.14
588.70	19922.64
588.89	18335.46
589.09	17387.25
589.28	15951.63
589.47	14042.92
589.67	12646.21
589.86	10508.13
590.06	8689.53
590.25	6565.79
590.44	5017.52
590.64	3712.97
590.83	2824.15
591.02	2240.48
591.22	1910.75
591.41	1746.92
591.60	1558.50
591.80	1585.13
591.99	1509.35
592.18	1433.58
592.38	1585.13
592.57	1306.60
592.76	1445.87
592.96	1394.67
593.15	1447.91
593.34	1404.91
593.54	1368.04
593.73	1495.02
593.92	1492.97
594.12	1480.68
594.31	1464.30
594.50	1519.59
594.70	1507.30
594.89	1476.59
595.08	1382.38
595.28	1544.17
595.47	1533.93
595.66	1441.77
595.86	1431.53
596.05	1406.95
596.24	1302.51
596.43	1458.15
596.63	1523.69
596.82	1501.16
597.01	1486.83
597.21	1468.39
597.40	1470.44
597.59	1460.20
597.79	1470.44
597.98	1454.06
598.17	1404.91
598.36	1454.06
598.56	1437.67
598.75	1398.76
598.94	1462.25
599.14	1386.47
599.33	1417.19
599.52	1386.47
599.71	1411.05
599.91	1439.72
600.10	1486.83
600.29	1331.18
600.48	1449.96
600.68	1363.95
600.87	1392.62
601.06	1335.28
601.26	1351.66
601.45	1417.19
601.64	1374.19
601.83	1392.62
602.03	1390.57
602.22	1386.47
602.41	1390.57
602.60	1482.73
602.80	1374.19
602.99	1386.47
603.18	1349.61
603.37	1325.04
603.57	1413.10
603.76	1449.96
603.95	1417.19
604.14	1390.57
604.34	1406.95
604.53	1380.33
604.72	1400.81
604.91	1390.57
605.10	1415.15
605.30	1374.19
605.49	1452.01
605.68	1441.77
605.87	1435.63
606.07	1404.91
606.26	1304.56
606.45	1355.76
606.64	1361.90
606.84	1386.47
607.03	1462.25
607.22	1495.02
607.41	1349.61
607.60	1464.30
607.80	1484.78
607.99	1402.86
608.18	1452.01
608.37	1404.91
608.56	1359.85
608.76	1433.58
608.95	1462.25
609.14	1454.06
609.33	1529.83
609.52	1517.54
609.72	1499.11
609.91	1544.17
610.10	1433.58
610.29	1511.40
610.48	1474.54
610.68	1472.49
610.87	1376.24
611.06	1484.78
611.25	1435.63
611.44	1480.68
611.63	1351.66
611.83	1392.62
612.02	1343.47
612.21	1378.28
612.40	1368.04
612.59	1386.47
612.79	1384.43
612.98	1347.56
613.17	1396.71
613.36	1386.47
613.55	1439.72
613.74	1476.59
613.93	1521.64
614.13	1566.70
614.32	1632.23
614.51	1708.01
614.70	1492.97
614.89	1527.78
615.08	1509.35
615.28	1669.09
615.47	1378.28
615.66	1470.44
615.85	1468.39
616.04	1476.59
616.23	1454.06
616.42	1456.11
616.62	1521.64
616.81	1497.07
617.00	1421.29
617.19	1423.34
617.38	1411.05
617.57	1382.38
617.76	1441.77
617.95	1447.91
618.15	1406.95
618.34	1437.67
618.53	1345.52
618.72	1452.01
618.91	1409.00
619.10	1507.30
619.29	1417.19
619.48	1349.61
619.68	1390.57
619.87	1388.52
620.06	1345.52
620.25	1320.94
620.44	1361.90
620.63	1452.01
620.82	1357.80
621.01	1331.18
621.20	1370.09
621.39	1421.29
621.59	1402.86
621.78	1368.04
621.97	1445.87
622.16	1341.42
622.35	1409.00
622.54	1456.11
622.73	1415.15
622.92	1411.05
623.11	1462.25
623.30	1325.04
623.49	1339.37
623.68	1411.05
623.88	1449.96
624.07	1392.62
624.26	1341.42
624.45	1335.28
624.64	1322.99
624.83	1265.64
625.02	1296.36
625.21	1396.71
625.40	1349.61
625.59	1386.47
625.78	1380.33
625.97	1384.43
626.16	1452.01
626.35	1447.91
626.54	1484.78
626.74	1509.35
626.93	1478.63
627.12	1404.91
627.31	1411.05
627.50	1419.24
627.69	1376.24
627.88	1363.95
628.07	1388.52
628.26	1314.80
628.45	1409.00
628.64	1366.00
628.83	1437.67
629.02	1308.65
629.21	1394.67
629.40	1409.00
629.59	1421.29
629.78	1415.15
629.97	1288.17
630.16	1417.19
630.35	1413.10
630.54	1427.43
630.73	1411.05
630.92	1409.00
631.11	1355.76
631.30	1392.62
631.49	1394.67
631.68	1394.67
631.87	1425.39
632.06	1396.71
632.25	1478.63
632.44	1327.08
632.63	1464.30
632.82	1429.48
633.01	1419.24
633.20	1476.59
633.39	1490.92
633.58	1523.69
633.77	1480.68
633.96	1482.73
634.15	1406.95
634.34	1488.87
634.53	1437.67
634.72	1445.87
634.91	1318.89
635.10	1402.86
635.29	1351.66
635.48	1368.04
635.67	1343.47
635.86	1378.28
636.05	1388.52
636.24	1392.62
636.43	1380.33
636.62	1437.67
636.81	1304.56
637.00	1372.14
637.19	1470.44
637.38	1339.37
637.57	1392.62
637.76	1374.19
637.95	1462.25
638.14	1425.39
638.33	1488.87
638.52	1527.78
638.71	1464.30
638.89	1402.86
639.08	1480.68
639.27	1484.78
639.46	1392.62
639.65	1615.85
639.84	1888.23
640.03	1980.39
640.22	2086.88
640.41	2138.08
640.60	1912.80
640.79	1816.55
640.98	1720.29
641.17	1613.80
641.36	1585.13
641.55	1564.65
641.74	1443.82
641.92	1495.02
642.11	1460.20
642.30	1501.16
642.49	1488.87
642.68	1472.49
642.87	1474.54
643.06	1437.67
643.25	1329.13
643.44	1368.04
643.63	1402.86
643.82	1374.19
644.00	1347.56
644.19	1388.52
644.38	1316.84
644.57	1382.38
644.76	1366.00
644.95	1370.09
645.14	1359.85
645.33	1392.62
645.52	1359.85
645.71	1277.93
645.89	1320.94
646.08	1355.76
646.27	1374.19
646.46	1402.86
646.65	1376.24
646.84	1376.24
647.03	1296.36
647.22	1460.20
647.40	1398.76
647.59	1329.13
647.78	1341.42
647.97	1322.99
648.16	1353.71
648.35	1419.24
648.54	1421.29
648.73	1458.15
648.91	1415.15
649.10	1372.14
649.29	1308.65
649.48	1372.14
649.67	1380.33
649.86	1345.52
650.05	1378.28
650.23	1495.02
650.42	1505.26
650.61	1511.40
650.80	1630.18
650.99	1650.66
651.18	1546.22
651.36	1476.59
651.55	1443.82
651.74	1488.87
651.93	1419.24
652.12	1429.48
652.31	1439.72
652.49	1361.90
652.68	1386.47
652.87	1458.15
653.06	1419.24
653.25	1499.11
653.44	1404.91
653.62	1400.81
653.81	1370.09
654.00	1396.71
654.19	1411.05
654.38	1476.59
654.56	1359.85
654.75	1458.15
654.94	1509.35
655.13	1406.95
655.32	1296.36
655.51	1318.89
655.69	1294.32
655.88	1398.76
656.07	1378.28
656.26	1382.38
656.45	1304.56
656.63	1374.19
656.82	1449.96
657.01	1327.08
657.20	1355.76
657.38	1456.11
657.57	1351.66
657.76	1351.66
657.95	1462.25
658.14	1331.18
658.32	1366.00
658.51	1388.52
658.70	1339.37
658.89	1370.09
659.08	1357.80
659.26	1449.96
659.45	1345.52
659.64	1495.02
659.83	1314.80
660.01	1542.12
660.20	1482.73
660.39	1507.30
660.58	1277.93
660.76	1392.62
660.95	1429.48
661.14	1454.06
661.33	1347.56
661.51	1447.91
661.70	1335.28
661.89	1374.19
662.08	1409.00
662.26	1282.03
662.45	1343.47
662.64	1460.20
662.83	1370.09
663.01	1341.42
663.20	1353.71
663.39	1370.09
663.58	1368.04
663.76	1388.52
663.95	1398.76
664.14	1335.28
664.32	1339.37
664.51	1343.47
664.70	1271.79
664.89	1398.76
665.07	1380.33
665.26	1454.06
665.45	1368.04
665.64	1460.20
665.82	1406.95
666.01	1409.00
666.20	1343.47
666.38	1445.87
666.57	1398.76
666.76	1529.83
666.95	2068.45
667.13	4394.94
667.32	11409.23
667.51	18163.43
667.69	21687.99
667.88	24819.33
668.07	24331.92
668.25	19125.98
668.44	13541.17
668.63	11052.89
668.81	9172.85
669.00	8062.85
669.19	7446.41
669.38	6729.63
669.56	6332.32
669.75	5621.67
669.94	4960.18
670.12	4249.54
670.31	3491.79
670.50	2834.39
670.68	2576.34
670.87	2037.73
671.06	1845.22
671.24	1665.00
671.43	1589.22
671.62	1540.07
671.80	1425.39
671.99	1476.59
672.18	1437.67
672.36	1466.35
672.55	1419.24
672.74	1396.71
672.92	1312.75
673.11	1429.48
673.29	1339.37
673.48	1497.07
673.67	1318.89
673.85	1478.63
674.04	1370.09
674.23	1378.28
674.41	1458.15
674.60	1351.66
674.79	1294.32
674.97	1363.95
675.16	1343.47
675.34	1388.52
675.53	1320.94
675.72	1411.05
675.90	1462.25
676.09	1376.24
676.28	1421.29
676.46	1294.32
676.65	1406.95
676.83	1331.18
677.02	1302.51
677.21	1384.43
677.39	1400.81
677.58	1404.91
677.77	1335.28
677.95	1368.04
678.14	1325.04
678.32	1345.52
678.51	1302.51
678.70	1511.40
678.88	1339.37
679.07	1437.67
679.25	1411.05
679.44	1411.05
679.63	1361.90
679.81	1429.48
680.00	1429.48
680.18	1411.05
680.37	1396.71
680.55	1312.75
680.74	1257.45
680.93	1316.84
681.11	1396.71
681.30	1361.90
681.48	1468.39
681.67	1329.13
681.85	1345.52
682.04	1345.52
682.23	1415.15
682.41	1388.52
682.60	1394.67
682.78	1288.17
682.97	1380.33
683.15	1353.71
683.34	1325.04
683.53	1406.95
683.71	1363.95
683.90	1447.91
684.08	1425.39
684.27	1353.71
684.45	1386.47
684.64	1402.86
684.82	1404.91
685.01	1359.85
685.19	1386.47
685.38	1480.68
685.57	1406.95
685.75	1429.48
685.94	1327.08
686.12	1376.24
686.31	1341.42
686.49	1478.63
686.68	1327.08
686.86	1398.76
687.05	1376.24
687.23	1499.11
687.42	1347.56
687.60	1349.61
687.79	1433.58
687.97	1517.54
688.16	1353.71
688.34	1409.00
688.53	1296.36
688.71	1429.48
688.90	1411.05
689.08	1380.33
689.27	1372.14
689.45	1355.76
689.64	1366.00
689.82	1452.01
690.01	1470.44
690.19	1388.52
690.38	1331.18
690.56	1394.67
690.75	1392.62
690.93	1429.48
691.12	1380.33
691.30	1384.43
691.49	1378.28
691.67	1353.71
691.86	1456.11
692.04	1366.00
692.23	1290.22
692.41	1378.28
692.60	1515.50
692.78	1486.83
692.97	1470.44
693.15	1462.25
693.34	1562.60
693.52	1406.95
693.71	1380.33
693.89	1331.18
694.08	1333.23
694.26	1429.48
694.44	1384.43
694.63	1480.68
694.81	1345.52
695.00	1378.28
695.18	1398.76
695.37	1492.97
695.55	1419.24
695.74	1378.28
695.92	1384.43
696.10	1445.87
696.29	1341.42
696.47	1449.96
696.66	1314.80
696.84	1345.52
697.03	1409.00
697.21	1478.63
697.40	1773.54
697.58	1445.87
697.76	1359.85
697.95	1402.86
698.13	1366.00
698.32	1390.57
698.50	1409.00
698.68	1411.05
698.87	1388.52
699.05	1441.77
699.24	1363.95
699.42	1415.15
699.61	1296.36
699.79	1322.99
699.97	1359.85
700.16	1411.05
700.34	1322.99
700.53	1357.80
700.71	1413.10
700.89	1460.20
701.08	1404.91
701.26	1411.05
701.45	1595.37
701.63	1380.33
701.81	1345.52
702.00	1345.52
702.18	1370.09
702.37	1390.57
702.55	1394.67
702.73	1468.39
702.92	1562.60
703.10	1632.23
703.28	1656.81
703.47	1566.70
703.65	1728.49
703.84	1581.03
704.02	1456.11
704.20	1566.70
704.39	1486.83
704.57	1454.06
704.75	1513.45
704.94	1507.30
705.12	1548.26
705.30	1460.20
705.49	1552.36
705.67	1687.53
705.86	3438.54
706.04	9109.36
706.22	16244.49
706.41	19687.12
706.59	22478.50
706.77	23774.87
706.96	20100.81
707.14	13719.34
707.32	11364.18
707.51	9414.51
707.69	8335.23
707.87	7481.23
708.06	6741.91
708.24	6098.85
708.42	5072.82
708.61	4067.27
708.79	3088.34
708.97	2418.65
709.16	1955.81
709.34	1779.68
709.52	1560.55
709.71	1509.35
709.89	1554.41
710.07	1390.57
710.26	1359.85
710.44	1423.34
710.62	1419.24
710.80	1419.24
710.99	1419.24
711.17	1394.67
711.35	1343.47
711.54	1376.24
711.72	1400.81
711.90	1382.38
712.09	1425.39
712.27	1370.09
712.45	1327.08
712.63	1320.94
712.82	1429.48
713.00	1351.66
713.18	1400.81
713.37	1370.09
713.55	1314.80
713.73	1370.09
713.91	1443.82
714.10	1378.28
714.28	1339.37
714.46	1433.58
714.65	1325.04
714.83	1363.95
715.01	1402.86
715.19	1449.96
715.38	1322.99
715.56	1357.80
715.74	1380.33
715.92	1318.89
716.11	1390.57
716.29	1345.52
716.47	1370.09
716.65	1320.94
716.84	1374.19
717.02	1392.62
717.20	1380.33
717.38	1374.19
717.57	1443.82
717.75	1433.58
717.93	1298.41
718.11	1355.76
718.30	1392.62
718.48	1429.48
718.66	1439.72
718.84	1431.53
719.03	1339.37
719.21	1329.13
719.39	1441.77
719.57	1347.56
719.75	1439.72
719.94	1376.24
720.12	1300.46
720.30	1374.19
720.48	1464.30
720.67	1386.47
720.85	1329.13
721.03	1404.91
721.21	1347.56
721.39	1443.82
721.58	1378.28
721.76	1413.10
721.94	1437.67
722.12	1388.52
722.30	1476.59
722.49	1372.14
722.67	1363.95
722.85	1409.00
723.03	1382.38
723.21	1366.00
723.40	1343.47
723.58	1441.77
723.76	1382.38
723.94	1447.91
724.12	1406.95
724.30	1460.20
724.49	1482.73
724.67	1443.82
724.85	1460.20
725.03	1458.15
725.21	1452.01
725.40	1476.59
725.58	1392.62
725.76	1423.34
725.94	1386.47
726.12	1398.76
726.30	1355.76
726.49	1372.14
726.67	1351.66
726.85	1327.08
727.03	1429.48
727.21	1470.44
727.39	1535.98
727.57	2109.41
727.76	3409.87
727.94	4368.32
728.12	5046.20
728.30	5234.61
728.48	5298.10
728.66	4257.73
728.84	3397.58
729.03	3108.82
729.21	2764.76
729.39	2553.82
729.57	2297.82
729.75	1970.15
729.93	1849.32
730.11	1519.59
730.30	1484.78
730.48	1390.57
730.66	1507.30
730.84	1449.96
731.02	1392.62
731.20	1413.10
731.38	1366.00
731.56	1378.28
731.74	1366.00
731.93	1366.00
732.11	1359.85
732.29	1374.19
732.47	1411.05
732.65	1366.00
732.83	1413.10
733.01	1390.57
733.19	1366.00
733.37	1429.48
733.56	1495.02
733.74	1353.71
733.92	1464.30
734.10	1359.85
734.28	1439.72
734.46	1327.08
734.64	1349.61
734.82	1392.62
735.00	1310.70
735.18	1343.47
735.36	1425.39
735.54	1445.87
735.73	1388.52
735.91	1390.57
736.09	1378.28
736.27	1417.19
736.45	1419.24
736.63	1343.47
736.81	1351.66
736.99	1310.70
737.17	1497.07
737.35	1310.70
737.53	1404.91
737.71	1425.39
737.89	1406.95
738.07	1320.94
738.25	1388.52
738.43	1339.37
738.61	1347.56
738.80	1388.52
738.98	1359.85
739.16	1361.90
739.34	1331.18
739.52	1409.00
739.70	1359.85
739.88	1419.24
740.06	1433.58
740.24	1286.12
740.42	1368.04
740.60	1300.46
740.78	1361.90
740.96	1347.56
741.14	1372.14
741.32	1396.71
741.50	1302.51
741.68	1413.10
741.86	1413.10
742.04	1355.76
742.22	1374.19
742.40	1388.52
742.58	1392.62
742.76	1359.85
742.94	1439.72
743.12	1296.36
743.30	1347.56
743.48	1384.43
743.66	1417.19
743.84	1404.91
744.02	1339.37
744.20	1372.14
744.38	1349.61
744.56	1359.85
744.74	1540.07
744.92	1392.62
745.10	1409.00
745.28	1421.29
745.46	1423.34
745.64	1339.37
745.82	1392.62
746.00	1322.99
746.18	1380.33
746.36	1347.56
746.54	1376.24
746.72	1347.56
746.90	1329.13
747.08	1404.91
747.26	1351.66
747.44	1376.24
747.62	1411.05
747.80	1374.19
747.98	1392.62
748.15	1402.86
748.33	1363.95
748.51	1333.23
748.69	1423.34
748.87	1333.23
749.05	1363.95
749.23	1433.58
749.41	1384.43
749.59	1476.59
749.77	1406.95
749.95	1320.94
750.13	1384.43
750.31	1331.18
750.49	1404.91
750.67	1349.61
750.85	1398.76
751.03	1343.47
751.20	1409.00
751.38	1337.32
751.56	1333.23
751.74	1349.61
751.92	1318.89
752.10	1220.59
752.28	1439.72
752.46	1368.04
752.64	1345.52
752.82	1343.47
753.00	1411.05
753.18	1386.47
753.35	1339.37
753.53	1292.27
753.71	1382.38
753.89	1392.62
754.07	1331.18
754.25	1337.32
754.43	1363.95
754.61	1396.71
754.79	1382.38
754.97	1417.19
755.14	1458.15
755.32	1322.99
755.50	1382.38
755.68	1376.24
755.86	1279.98
756.04	1320.94
756.22	1314.80
756.40	1427.43
756.57	1406.95
756.75	1406.95
756.93	1404.91
757.11	1359.85
757.29	1363.95
757.47	1376.24
757.65	1257.45
757.82	1300.46
758.00	1386.47
758.18	1302.51
758.36	1343.47
758.54	1400.81
758.72	1253.36
758.90	1378.28
759.07	1359.85
759.25	1355.76
759.43	1308.65
759.61	1353.71
759.79	1699.81
759.97	1445.87
760.15	1378.28
760.32	1343.47
760.50	1404.91
760.68	1368.04
760.86	1355.76
761.04	1370.09
761.22	1400.81
761.39	1351.66
761.57	1302.51
761.75	1382.38
761.93	1437.67
762.11	1345.52
762.28	1417.19
762.46	1349.61
762.64	1380.33
762.82	1282.03
763.00	1378.28
763.18	1433.58
763.35	1347.56
763.53	1394.67
763.71	1333.23
763.89	1406.95
764.07	1308.65
764.24	1384.43
764.42	1351.66
764.60	1333.23
764.78	1355.76
764.96	1392.62
765.13	1396.71
765.31	1388.52
765.49	1372.14
765.67	1347.56
765.84	1382.38
766.02	1400.81
766.20	1353.71
766.38	1298.41
766.56	1318.89
766.73	1394.67
766.91	1339.37
767.09	1335.28
767.27	1331.18
767.44	1302.51
767.62	1376.24
767.80	1417.19
767.98	1284.08
768.15	1392.62
768.33	1400.81
768.51	1359.85
768.69	1392.62
768.87	1370.09
769.04	1306.60
769.22	1413.10
769.40	1445.87
769.58	1427.43
769.75	1417.19
769.93	1419.24
770.11	1333.23
770.28	1353.71
770.46	1419.24
770.64	1415.15
770.82	1370.09
770.99	1322.99
771.17	1349.61
771.35	1380.33
771.53	1318.89
771.70	1404.91
771.88	1349.61
772.06	1335.28
772.23	1396.71
772.41	1372.14
772.59	1322.99
772.77	1290.22
772.94	1282.03
773.12	1312.75
773.30	1333.23
773.47	1386.47
773.65	1347.56
773.83	1413.10
774.01	1359.85
774.18	1335.28
774.36	1380.33
774.54	1312.75
774.71	1402.86
774.89	1327.08
775.07	1351.66
775.24	1396.71
775.42	1318.89
775.60	1370.09
775.78	1388.52
775.95	1366.00
776.13	1239.02
776.31	1273.84
776.48	1341.42
776.66	1388.52
776.84	1320.94
777.01	1335.28
777.19	1388.52
777.37	1372.14
777.54	1343.47
777.72	1466.35
777.90	1368.04
778.07	1351.66
778.25	1468.39
778.43	1390.57
778.60	1316.84
778.78	1447.91
778.96	1353.71
779.13	1343.47
779.31	1384.43
779.49	1366.00
779.66	1368.04
779.84	1402.86
780.01	1386.47
780.19	1368.04
780.37	1423.34
780.54	1419.24
780.72	1390.57
780.90	1357.80
781.07	1331.18
781.25	1370.09
781.43	1431.53
781.60	1316.84
781.78	1411.05
781.95	1374.19
782.13	1404.91
782.31	1331.18
782.48	1302.51
782.66	1388.52
782.83	1482.73
783.01	1394.67
783.19	1378.28
783.36	1325.04
783.54	1314.80
783.72	1398.76
783.89	1325.04
784.07	1368.04
784.24	1368.04
784.42	1427.43
784.60	1378.28
784.77	1409.00
784.95	1302.51
785.12	1345.52
785.30	1298.41
785.47	1335.28
785.65	1345.52
785.83	1343.47
786.00	1312.75
786.18	1382.38
786.35	1355.76
786.53	1322.99
786.71	1384.43
786.88	1437.67
787.06	1439.72
787.23	1339.37
787.41	1310.70
787.58	1349.61
787.76	1292.27
787.94	1355.76
788.11	1380.33
788.29	1310.70
788.46	1269.74
788.64	1279.98
788.81	1327.08
788.99	1302.51
789.16	1368.04
789.34	1409.00
789.52	1394.67
789.69	1322.99
789.87	1290.22
790.04	1359.85
790.22	1343.47
790.39	1513.45
790.57	1322.99
790.74	1232.88
790.92	1417.19
791.09	1310.70
791.27	1382.38
791.44	1460.20
791.62	1413.10
791.79	1423.34
791.97	1411.05
792.15	1505.26
792.32	1296.36
792.50	1380.33
792.67	1406.95
792.85	1435.63
793.02	1380.33
793.20	1402.86
793.37	1314.80
793.55	1464.30
793.72	1372.14
793.90	1402.86
794.07	1359.85
794.25	1349.61
794.42	1310.70
794.60	1368.04
794.77	1470.44
794.95	1411.05
795.12	1355.76
795.30	1366.00
795.47	1320.94
795.65	1421.29
795.82	1366.00
796.00	1404.91
796.17	1333.23
796.34	1368.04
796.52	1406.95
796.69	1370.09
796.87	1396.71
797.04	1413.10
797.22	1425.39
797.39	1357.80
797.57	1392.62
797.74	1392.62
797.92	1388.52
798.09	1292.27
798.27	1370.09
798.44	1417.19
798.62	1392.62
798.79	1388.52
798.96	1427.43
799.14	1363.95
799.31	1415.15
799.49	1370.09
799.66	1314.80
799.84	1353.71
800.01	1277.93
800.19	1384.43
800.36	1265.64
800.53	1339.37
800.71	1452.01
800.88	1492.97
801.06	1355.76
801.23	1263.60
801.41	1398.76
801.58	1386.47
801.75	1318.89
801.93	1404.91
802.10	1417.19
802.28	1339.37
802.45	1361.90
802.63	1368.04
802.80	1435.63
802.97	1355.76
803.15	1343.47
803.32	1314.80
803.50	1374.19
803.67	1355.76
803.84	1396.71
804.02	1355.76
804.19	1404.91
804.37	1263.60
804.54	1368.04
804.71	1337.32
804.89	1331.18
805.06	1347.56
805.24	1359.85
805.41	1349.61
805.58	1335.28
805.76	1441.77
805.93	1353.71
806.10	1439.72
806.28	1361.90
806.45	1366.00
806.63	1331.18
806.80	1308.65
806.97	1400.81
807.15	1357.80
807.32	1404.91
807.49	1327.08
807.67	1390.57
807.84	1353.71
808.01	1290.22
808.19	1511.40
808.36	1376.24
808.54	1359.85
808.71	1298.41
808.88	1314.80
809.06	1341.42
809.23	1374.19
809.40	1363.95
809.58	1392.62
809.75	1316.84
809.92	1312.75
810.10	1372.14
810.27	1353.71
810.44	1374.19
810.62	1310.70
810.79	1425.39
810.96	1388.52
811.14	1370.09
811.31	1382.38
811.48	1402.86
811.66	1390.57
811.83	1325.04
812.00	1368.04
812.18	1359.85
812.35	1386.47
812.52	1359.85
812.69	1347.56
812.87	1370.09
813.04	1314.80
813.21	1335.28
813.39	1327.08
813.56	1353.71
813.73	1372.14
813.91	1304.56
814.08	1368.04
814.25	1349.61
814.42	1277.93
814.60	1398.76
814.77	1409.00
814.94	1359.85
815.12	1421.29
815.29	1417.19
815.46	1370.09
815.63	1359.85
815.81	1279.98
815.98	1380.33
816.15	1392.62
816.33	1345.52
816.50	1355.76
816.67	1372.14
816.84	1339.37
817.02	1372.14
817.19	1411.05
817.36	1341.42
817.53	1368.04
817.71	1345.52
817.88	1411.05
818.05	1386.47
818.22	1320.94
818.40	1439.72
818.57	1398.76
818.74	1312.75
818.91	1353.71
819.09	1271.79
819.26	1417.19
819.43	1327.08
819.60	1341.42
819.78	1341.42
819.95	1415.15
820.12	1320.94
820.29	1390.57
820.47	1366.00
820.64	1355.76
820.81	1296.36
820.98	1359.85
821.15	1341.42
821.33	1417.19
821.50	1234.93
821.67	1427.43
821.84	1378.28
822.02	1349.61
822.19	1370.09
822.36	1421.29
822.53	1431.53
822.70	1314.80
822.88	1349.61
823.05	1417.19
823.22	1378.28
823.39	1337.32
823.56	1378.28
823.74	1468.39
823.91	1329.13
824.08	1345.52
824.25	1257.45
824.42	1390.57
824.60	1376.24
824.77	1372.14
824.94	1308.65
825.11	1411.05
825.28	1320.94
825.45	1386.47
825.63	1351.66
825.80	1349.61
825.97	1347.56
826.14	1423.34
826.31	1255.40
826.48	1322.99
826.66	1263.60
826.83	1322.99
827.00	1331.18
827.17	1374.19
827.34	1368.04
827.51	1298.41
827.69	1341.42
827.86	1372.14
828.03	1392.62
828.20	1376.24
828.37	1329.13
828.54	1392.62
828.71	1366.00
828.89	1464.30
829.06	1376.24
829.23	1452.01
829.40	1263.60
829.57	1380.33
829.74	1325.04
829.91	1302.51
830.09	1335.28
830.26	1458.15
830.43	1390.57
830.60	1353.71
830.77	1392.62
830.94	1382.38
831.11	1484.78
831.28	1433.58
831.46	1415.15
831.63	1347.56
831.80	1454.06
831.97	1382.38
832.14	1306.60
832.31	1409.00
832.48	1347.56
832.65	1396.71
832.82	1427.43
832.99	1347.56
833.17	1263.60
833.34	1411.05
833.51	1363.95
833.68	1357.80
833.85	1394.67
834.02	1374.19
834.19	1374.19
834.36	1333.23
834.53	1322.99
834.70	1417.19
834.87	1439.72
835.04	1296.36
835.22	1331.18
835.39	1345.52
835.56	1273.84
835.73	1337.32
835.90	1437.67
836.07	1339.37
836.24	1443.82
836.41	1329.13
836.58	1382.38
836.75	1411.05
836.92	1349.61
837.09	1357.80
837.26	1445.87
837.43	1353.71
837.60	1411.05
837.77	1390.57
837.94	1384.43
838.12	1402.86
838.29	1402.86
838.46	1325.04
838.63	1421.29
838.80	1452.01
838.97	1337.32
839.14	1404.91
839.31	1347.56
839.48	1429.48
839.65	1380.33
839.82	1392.62
839.99	1353.71
840.16	1443.82
840.33	1327.08
840.50	1382.38
840.67	1378.28
840.84	1325.04
841.01	1470.44
841.18	1345.52
841.35	1390.57
841.52	1439.72
841.69	1415.15
841.86	1404.91
842.03	1382.38
842.20	1345.52
842.37	1404.91
842.54	1404.91
842.71	1421.29
842.88	1288.17
843.05	1349.61
843.22	1384.43
843.39	1361.90
843.56	1374.19
843.73	1333.23
843.90	1306.60
844.07	1361.90
844.24	1390.57
844.41	1292.27
844.58	1316.84
844.75	1388.52
844.92	1380.33
845.09	1314.80
845.26	1306.60
845.43	1454.06
845.60	1368.04
845.77	1339.37
845.94	1277.93
846.10	1398.76
846.27	1329.13
846.44	1314.80
846.61	1322.99
846.78	1382.38
846.95	1384.43
847.12	1374.19
847.29	1329.13
847.46	1406.95
847.63	1366.00
847.80	1454.06
847.97	1366.00
848.14	1368.04
848.31	1376.24
848.48	1366.00
848.65	1363.95
848.82	1402.86
848.98	1396.71
849.15	1384.43
849.32	1427.43
849.49	1380.33
849.66	1380.33
849.83	1384.43
850.00	1370.09
850.17	1329.13
850.34	1359.85
850.51	1335.28
850.68	1302.51
850.85	1441.77
851.01	1413.10
851.18	1314.80
851.35	1345.52
851.52	1343.47
851.69	1398.76
851.86	1282.03
852.03	1343.47
852.20	1341.42
852.37	1419.24
852.53	1322.99
852.70	1376.24
852.87	1368.04
853.04	1325.04
853.21	1351.66
853.38	1343.47
853.55	1304.56
853.72	1433.58
853.89	1347.56
854.05	1343.47
854.22	1392.62
854.39	1437.67
854.56	1366.00
854.73	1490.92
854.90	1327.08
855.07	1396.71
855.23	1380.33
855.40	1386.47
855.57	1378.28
855.74	1296.36
855.91	1462.25
856.08	1331.18
856.25	1296.36
856.41	1404.91
856.58	1339.37
856.75	1404.91
856.92	1277.93
857.09	1425.39
857.26	1300.46
857.42	1288.17
857.59	1347.56
857.76	1302.51
857.93	1333.23
858.10	1388.52
858.27	1351.66
858.43	1374.19
858.60	1298.41
858.77	1296.36
858.94	1308.65
859.11	1347.56
859.27	1368.04
859.44	1329.13
859.61	1437.67
859.78	1409.00
859.95	1331.18
860.12	1318.89
860.28	1378.28
860.45	1431.53
860.62	1361.90
860.79	1337.32
860.95	1376.24
861.12	1345.52
861.29	1370.09
861.46	1361.90
861.63	1275.88
861.79	1398.76
861.96	1363.95
862.13	1339.37
862.30	1355.76
862.47	1327.08
862.63	1396.71
862.80	1431.53
862.97	1372.14
863.14	1343.47
863.30	1384.43
863.47	1388.52
863.64	1423.34
863.81	1376.24
863.97	1366.00
864.14	1361.90
864.31	1322.99
864.48	1306.60
864.65	1421.29
864.81	1339.37
864.98	1419.24
865.15	1415.15
865.32	1351.66
865.48	1382.38
865.65	1331.18
865.82	1374.19
865.98	1409.00
866.15	1443.82
866.32	1363.95
866.49	1398.76
866.65	1454.06
866.82	1386.47
866.99	1376.24
867.16	1339.37
867.32	1286.12
867.49	1382.38
867.66	1382.38
867.83	1343.47
867.99	1380.33
868.16	1312.75
868.33	1335.28
868.49	1411.05
868.66	1355.76
868.83	1427.43
868.99	1398.76
869.16	1392.62
869.33	1351.66
869.50	1406.95
869.66	1347.56
869.83	1359.85
870.00	1359.85
870.16	1417.19
870.33	1409.00
870.50	1404.91
870.66	1288.17
870.83	1482.73
871.00	1380.33
871.17	1398.76
871.33	1392.62
871.50	1411.05
871.67	1429.48
871.83	1267.69
872.00	1427.43
872.17	1419.24
872.33	1441.77
872.50	1404.91
872.67	1312.75
872.83	1384.43
873.00	1368.04
873.17	1345.52
873.33	1458.15
873.50	1390.57
873.67	1277.93
873.83	1464.30
874.00	1378.28
874.16	1435.63
874.33	1290.22
874.50	1298.41
874.66	1392.62
874.83	1370.09
875.00	1441.77
875.16	1388.52
875.33	1415.15
875.50	1255.40
875.66	1400.81
875.83	1411.05
875.99	1378.28
876.16	1306.60
876.33	1349.61
876.49	1413.10
876.66	1343.47
876.83	1331.18
876.99	1333.23
877.16	1343.47
877.32	1409.00
877.49	1347.56
877.66	1374.19
877.82	1437.67
877.99	1320.94
878.15	1363.95
878.32	1347.56
878.49	1345.52
878.65	1386.47
878.82	1361.90
878.98	1341.42
879.15	1419.24
879.32	1402.86
879.48	1339.37
879.65	1386.47
879.81	1351.66
879.98	1333.23
880.15	1296.36
880.31	1417.19
880.48	1325.04
880.64	1411.05
880.81	1384.43
880.97	1380.33
881.14	1519.59
881.31	1345.52
881.47	1456.11
881.64	1339.37
881.80	1359.85
881.97	1341.42
882.13	1462.25
882.30	1351.66
882.47	1312.75
882.63	1425.39
882.80	1294.32
882.96	1449.96
883.13	1351.66
883.29	1386.47
883.46	1337.32
883.62	1482.73
883.79	1400.81
883.95	1339.37
884.12	1421.29
884.29	1406.95
884.45	1378.28
884.62	1333.23
884.78	1329.13
884.95	1355.76
885.11	1378.28
885.28	1368.04
885.44	1320.94
885.61	1341.42
885.77	1443.82
885.94	1406.95
886.10	1335.28
886.27	1331.18
886.43	1378.28
886.60	1355.76
886.76	1310.70
886.93	1320.94
887.09	1419.24
887.26	1406.95
887.42	1386.47
887.59	1417.19
887.75	1355.76
887.92	1400.81
888.08	1472.49
888.25	1329.13
888.41	1435.63
888.58	1396.71
888.74	1368.04
888.91	1366.00
>>>>>End Processed Spectral Data<<<<<
