SpectraSuite Data File
++++++++++++++++++++++++++++++++++++
Date: Tue May 03 11:24:40 CEST 2016
User: root
Dark Spectrum Present: No
Reference Spectrum Present: No
Number of Sampled Component Spectra: 1
Spectrometers: USB4C02835
Integration Time (usec): 100000 (USB4C02835)
Spectra Averaged: 1 (USB4C02835)
Boxcar Smoothing: 0 (USB4C02835)
Correct for Electrical Dark: No (USB4C02835)
Strobe/Lamp Enabled: No (USB4C02835)
Correct for Detector Non-linearity: No (USB4C02835)
Correct for Stray Light: No (USB4C02835)
Number of Pixels in Processed Spectrum: 3648
>>>>>Begin Processed Spectral Data<<<<<
177.47	1232.88
177.69	1232.88
177.91	1232.88
178.13	1196.01
178.36	1216.49
178.58	1300.46
178.80	1482.73
179.02	1279.98
179.24	1300.46
179.46	1331.18
179.68	1456.11
179.90	1376.24
180.13	1394.67
180.35	1337.32
180.57	1404.91
180.79	1302.51
181.01	1341.42
181.23	1474.54
181.45	1406.95
181.67	1402.86
181.90	1390.57
182.12	1339.37
182.34	1361.90
182.56	1417.19
182.78	1376.24
183.00	1359.85
183.22	1386.47
183.44	1349.61
183.66	1449.96
183.89	1413.10
184.11	1378.28
184.33	1294.32
184.55	1353.71
184.77	1437.67
184.99	1439.72
185.21	1308.65
185.43	1476.59
185.65	1380.33
185.87	1380.33
186.10	1402.86
186.32	1425.39
186.54	1386.47
186.76	1372.14
186.98	1437.67
187.20	1345.52
187.42	1286.12
187.64	1417.19
187.86	1441.77
188.08	1435.63
188.30	1394.67
188.52	1390.57
188.75	1359.85
188.97	1378.28
189.19	1366.00
189.41	1368.04
189.63	1368.04
189.85	1318.89
190.07	1406.95
190.29	1325.04
190.51	1355.76
190.73	1390.57
190.95	1429.48
191.17	1390.57
191.39	1337.32
191.61	1292.27
191.84	1378.28
192.06	1429.48
192.28	1376.24
192.50	1495.02
192.72	1361.90
192.94	1329.13
193.16	1474.54
193.38	1382.38
193.60	1386.47
193.82	1345.52
194.04	1402.86
194.26	1392.62
194.48	1318.89
194.70	1400.81
194.92	1378.28
195.14	1419.24
195.36	1322.99
195.58	1327.08
195.80	1345.52
196.02	1269.74
196.24	1386.47
196.46	1366.00
196.69	1361.90
196.91	1499.11
197.13	1378.28
197.35	1417.19
197.57	1402.86
197.79	1329.13
198.01	1413.10
198.23	1419.24
198.45	1386.47
198.67	1359.85
198.89	1366.00
199.11	1427.43
199.33	1333.23
199.55	1288.17
199.77	1353.71
199.99	1374.19
200.21	1347.56
200.43	1480.68
200.65	1275.88
200.87	1249.26
201.09	1429.48
201.31	1394.67
201.53	1366.00
201.75	1384.43
201.97	1396.71
202.19	1386.47
202.41	1443.82
202.63	1433.58
202.85	1435.63
203.07	1386.47
203.29	1304.56
203.51	1320.94
203.73	1316.84
203.95	1411.05
204.17	1359.85
204.39	1347.56
204.61	1374.19
204.83	1392.62
205.05	1341.42
205.27	1435.63
205.49	1425.39
205.71	1376.24
205.93	1368.04
206.15	1378.28
206.37	1359.85
206.59	1318.89
206.81	1325.04
207.03	1378.28
207.25	1351.66
207.47	1404.91
207.69	1370.09
207.91	1378.28
208.13	1376.24
208.34	1380.33
208.56	1273.84
208.78	1456.11
209.00	1341.42
209.22	1406.95
209.44	1261.55
209.66	1413.10
209.88	1384.43
210.10	1310.70
210.32	1400.81
210.54	1415.15
210.76	1347.56
210.98	1372.14
211.20	1333.23
211.42	1445.87
211.64	1421.29
211.86	1419.24
212.08	1415.15
212.30	1396.71
212.52	1343.47
212.74	1366.00
212.96	1343.47
213.17	1429.48
213.39	1380.33
213.61	1458.15
213.83	1404.91
214.05	1382.38
214.27	1413.10
214.49	1325.04
214.71	1406.95
214.93	1374.19
215.15	1363.95
215.37	1398.76
215.59	1355.76
215.81	1404.91
216.03	1376.24
216.24	1329.13
216.46	1308.65
216.68	1441.77
216.90	1357.80
217.12	1372.14
217.34	1423.34
217.56	1388.52
217.78	1404.91
218.00	1456.11
218.22	1353.71
218.44	1372.14
218.66	1329.13
218.87	1415.15
219.09	1316.84
219.31	1363.95
219.53	1345.52
219.75	1306.60
219.97	1343.47
220.19	1361.90
220.41	1394.67
220.63	1411.05
220.85	1370.09
221.06	1400.81
221.28	1380.33
221.50	1417.19
221.72	1380.33
221.94	1386.47
222.16	1265.64
222.38	1402.86
222.60	1456.11
222.82	1329.13
223.03	1400.81
223.25	1372.14
223.47	1456.11
223.69	1525.74
223.91	1372.14
224.13	1351.66
224.35	1409.00
224.57	1409.00
224.78	1460.20
225.00	1380.33
225.22	1347.56
225.44	1505.26
225.66	1376.24
225.88	1363.95
226.10	1333.23
226.32	1456.11
226.53	1425.39
226.75	1333.23
226.97	1335.28
227.19	1370.09
227.41	1392.62
227.63	1361.90
227.85	1355.76
228.06	1329.13
228.28	1343.47
228.50	1382.38
228.72	1409.00
228.94	1325.04
229.16	1302.51
229.37	1380.33
229.59	1347.56
229.81	1376.24
230.03	1314.80
230.25	1392.62
230.47	1347.56
230.69	1302.51
230.90	1417.19
231.12	1329.13
231.34	1392.62
231.56	1359.85
231.78	1333.23
232.00	1368.04
232.21	1392.62
232.43	1374.19
232.65	1312.75
232.87	1454.06
233.09	1339.37
233.30	1351.66
233.52	1390.57
233.74	1427.43
233.96	1366.00
234.18	1353.71
234.40	1376.24
234.61	1396.71
234.83	1322.99
235.05	1314.80
235.27	1482.73
235.49	1513.45
235.70	1361.90
235.92	1394.67
236.14	1347.56
236.36	1413.10
236.58	1343.47
236.79	1415.15
237.01	1406.95
237.23	1386.47
237.45	1468.39
237.67	1396.71
237.88	1376.24
238.10	1449.96
238.32	1343.47
238.54	1380.33
238.76	1396.71
238.97	1312.75
239.19	1376.24
239.41	1478.63
239.63	1486.83
239.85	1384.43
240.06	1388.52
240.28	1388.52
240.50	1363.95
240.72	1382.38
240.93	1366.00
241.15	1419.24
241.37	1359.85
241.59	1419.24
241.81	1402.86
242.02	1398.76
242.24	1382.38
242.46	1400.81
242.68	1380.33
242.89	1388.52
243.11	1409.00
243.33	1314.80
243.55	1349.61
243.76	1460.20
243.98	1411.05
244.20	1425.39
244.42	1325.04
244.64	1402.86
244.85	1322.99
245.07	1402.86
245.29	1380.33
245.51	1421.29
245.72	1419.24
245.94	1357.80
246.16	1349.61
246.38	1349.61
246.59	1294.32
246.81	1374.19
247.03	1288.17
247.24	1331.18
247.46	1392.62
247.68	1318.89
247.90	1347.56
248.11	1339.37
248.33	1413.10
248.55	1355.76
248.77	1398.76
248.98	1394.67
249.20	1421.29
249.42	1320.94
249.64	1400.81
249.85	1329.13
250.07	1347.56
250.29	1347.56
250.50	1368.04
250.72	1277.93
250.94	1357.80
251.16	1429.48
251.37	1398.76
251.59	1349.61
251.81	1427.43
252.02	1368.04
252.24	1327.08
252.46	1417.19
252.68	1269.74
252.89	1355.76
253.11	1351.66
253.33	1400.81
253.54	1374.19
253.76	1370.09
253.98	1329.13
254.20	1304.56
254.41	1318.89
254.63	1372.14
254.85	1339.37
255.06	1265.64
255.28	1386.47
255.50	1347.56
255.71	1366.00
255.93	1339.37
256.15	1335.28
256.36	1374.19
256.58	1318.89
256.80	1351.66
257.02	1304.56
257.23	1359.85
257.45	1341.42
257.67	1417.19
257.88	1402.86
258.10	1423.34
258.32	1378.28
258.53	1419.24
258.75	1464.30
258.97	1331.18
259.18	1400.81
259.40	1394.67
259.62	1404.91
259.83	1486.83
260.05	1325.04
260.27	1593.32
260.48	1310.70
260.70	1363.95
260.92	1357.80
261.13	1394.67
261.35	1343.47
261.57	1361.90
261.78	1306.60
262.00	1335.28
262.22	1382.38
262.43	1306.60
262.65	1312.75
262.86	1378.28
263.08	1413.10
263.30	1355.76
263.51	1347.56
263.73	1320.94
263.95	1388.52
264.16	1296.36
264.38	1413.10
264.60	1388.52
264.81	1349.61
265.03	1388.52
265.25	1363.95
265.46	1368.04
265.68	1392.62
265.89	1372.14
266.11	1370.09
266.33	1404.91
266.54	1427.43
266.76	1359.85
266.98	1368.04
267.19	1454.06
267.41	1402.86
267.62	1292.27
267.84	1304.56
268.06	1388.52
268.27	1359.85
268.49	1398.76
268.70	1437.67
268.92	1372.14
269.14	1337.32
269.35	1314.80
269.57	1298.41
269.79	1404.91
270.00	1378.28
270.22	1443.82
270.43	1333.23
270.65	1282.03
270.87	1290.22
271.08	1376.24
271.30	1417.19
271.51	1382.38
271.73	1419.24
271.95	1421.29
272.16	1398.76
272.38	1368.04
272.59	1343.47
272.81	1388.52
273.02	1402.86
273.24	1366.00
273.46	1402.86
273.67	1400.81
273.89	1316.84
274.10	1353.71
274.32	1314.80
274.54	1378.28
274.75	1349.61
274.97	1327.08
275.18	1439.72
275.40	1382.38
275.61	1363.95
275.83	1357.80
276.05	1284.08
276.26	1343.47
276.48	1415.15
276.69	1415.15
276.91	1322.99
277.12	1361.90
277.34	1423.34
277.55	1452.01
277.77	1394.67
277.99	1329.13
278.20	1343.47
278.42	1394.67
278.63	1333.23
278.85	1394.67
279.06	1345.52
279.28	1341.42
279.49	1386.47
279.71	1372.14
279.93	1355.76
280.14	1423.34
280.36	1343.47
280.57	1366.00
280.79	1456.11
281.00	1310.70
281.22	1325.04
281.43	1415.15
281.65	1320.94
281.86	1320.94
282.08	1445.87
282.29	1423.34
282.51	1327.08
282.73	1267.69
282.94	1359.85
283.16	1368.04
283.37	1445.87
283.59	1366.00
283.80	1421.29
284.02	1310.70
284.23	1392.62
284.45	1402.86
284.66	1378.28
284.88	1396.71
285.09	1337.32
285.31	1341.42
285.52	1308.65
285.74	1312.75
285.95	1296.36
286.17	1402.86
286.38	1443.82
286.60	1357.80
286.81	1341.42
287.03	1290.22
287.24	1359.85
287.46	1353.71
287.67	1329.13
287.89	1413.10
288.10	1343.47
288.32	1341.42
288.53	1427.43
288.75	1249.26
288.96	1288.17
289.18	1363.95
289.39	1361.90
289.61	1421.29
289.82	1476.59
290.04	1486.83
290.25	1349.61
290.47	1415.15
290.68	1351.66
290.90	1353.71
291.11	1255.40
291.33	1376.24
291.54	1327.08
291.76	1404.91
291.97	1290.22
292.18	1392.62
292.40	1300.46
292.61	1347.56
292.83	1478.63
293.04	1431.53
293.26	1394.67
293.47	1304.56
293.69	1302.51
293.90	1382.38
294.12	1363.95
294.33	1417.19
294.55	1331.18
294.76	1318.89
294.97	1339.37
295.19	1411.05
295.40	1449.96
295.62	1402.86
295.83	1322.99
296.05	1409.00
296.26	1388.52
296.48	1343.47
296.69	1402.86
296.90	1333.23
297.12	1402.86
297.33	1396.71
297.55	1366.00
297.76	1337.32
297.98	1359.85
298.19	1341.42
298.41	1331.18
298.62	1388.52
298.83	1406.95
299.05	1400.81
299.26	1398.76
299.48	1327.08
299.69	1374.19
299.90	1363.95
300.12	1339.37
300.33	1380.33
300.55	1415.15
300.76	1384.43
300.98	1341.42
301.19	1378.28
301.40	1366.00
301.62	1327.08
301.83	1464.30
302.05	1316.84
302.26	1384.43
302.47	1325.04
302.69	1361.90
302.90	1361.90
303.12	1275.88
303.33	1443.82
303.54	1490.92
303.76	1345.52
303.97	1429.48
304.19	1462.25
304.40	1386.47
304.61	1341.42
304.83	1411.05
305.04	1472.49
305.26	1351.66
305.47	1345.52
305.68	1355.76
305.90	1306.60
306.11	1476.59
306.33	1443.82
306.54	1314.80
306.75	1306.60
306.97	1253.36
307.18	1292.27
307.39	1296.36
307.61	1425.39
307.82	1298.41
308.04	1312.75
308.25	1306.60
308.46	1396.71
308.68	1327.08
308.89	1339.37
309.10	1509.35
309.32	1384.43
309.53	1363.95
309.74	1400.81
309.96	1386.47
310.17	1452.01
310.39	1382.38
310.60	1339.37
310.81	1363.95
311.03	1282.03
311.24	1363.95
311.45	1298.41
311.67	1372.14
311.88	1296.36
312.09	1370.09
312.31	1390.57
312.52	1380.33
312.73	1298.41
312.95	1302.51
313.16	1318.89
313.37	1370.09
313.59	1388.52
313.80	1304.56
314.01	1413.10
314.23	1300.46
314.44	1318.89
314.65	1327.08
314.87	1390.57
315.08	1294.32
315.29	1312.75
315.51	1359.85
315.72	1355.76
315.93	1411.05
316.15	1431.53
316.36	1404.91
316.57	1398.76
316.79	1339.37
317.00	1310.70
317.21	1376.24
317.43	1470.44
317.64	1425.39
317.85	1384.43
318.07	1472.49
318.28	1527.78
318.49	1484.78
318.70	1601.51
318.92	1581.03
319.13	1468.39
319.34	1630.18
319.56	1511.40
319.77	1415.15
319.98	1468.39
320.20	1400.81
320.41	1452.01
320.62	1398.76
320.83	1402.86
321.05	1419.24
321.26	1370.09
321.47	1429.48
321.69	1388.52
321.90	1368.04
322.11	1394.67
322.32	1341.42
322.54	1406.95
322.75	1296.36
322.96	1402.86
323.18	1363.95
323.39	1296.36
323.60	1322.99
323.81	1460.20
324.03	1357.80
324.24	1331.18
324.45	1421.29
324.66	1335.28
324.88	1382.38
325.09	1402.86
325.30	1400.81
325.52	1472.49
325.73	1310.70
325.94	1296.36
326.15	1277.93
326.37	1374.19
326.58	1429.48
326.79	1486.83
327.00	1372.14
327.22	1413.10
327.43	1322.99
327.64	1325.04
327.85	1390.57
328.07	1343.47
328.28	1413.10
328.49	1353.71
328.70	1392.62
328.92	1341.42
329.13	1337.32
329.34	1376.24
329.55	1382.38
329.76	1400.81
329.98	1357.80
330.19	1406.95
330.40	1347.56
330.61	1374.19
330.83	1419.24
331.04	1288.17
331.25	1335.28
331.46	1384.43
331.68	1345.52
331.89	1427.43
332.10	1310.70
332.31	1390.57
332.52	1298.41
332.74	1355.76
332.95	1271.79
333.16	1333.23
333.37	1374.19
333.58	1359.85
333.80	1349.61
334.01	1302.51
334.22	1284.08
334.43	1331.18
334.64	1302.51
334.86	1372.14
335.07	1269.74
335.28	1392.62
335.49	1290.22
335.70	1349.61
335.92	1415.15
336.13	1361.90
336.34	1458.15
336.55	1366.00
336.76	1329.13
336.98	1318.89
337.19	1359.85
337.40	1443.82
337.61	1482.73
337.82	1329.13
338.04	1400.81
338.25	1341.42
338.46	1380.33
338.67	1331.18
338.88	1353.71
339.09	1363.95
339.31	1327.08
339.52	1322.99
339.73	1396.71
339.94	1402.86
340.15	1382.38
340.36	1357.80
340.58	1300.46
340.79	1370.09
341.00	1353.71
341.21	1347.56
341.42	1396.71
341.63	1425.39
341.85	1378.28
342.06	1366.00
342.27	1357.80
342.48	1370.09
342.69	1320.94
342.90	1439.72
343.12	1308.65
343.33	1372.14
343.54	1361.90
343.75	1335.28
343.96	1388.52
344.17	1361.90
344.38	1392.62
344.60	1359.85
344.81	1368.04
345.02	1386.47
345.23	1460.20
345.44	1417.19
345.65	1363.95
345.86	1363.95
346.07	1425.39
346.29	1335.28
346.50	1406.95
346.71	1437.67
346.92	1376.24
347.13	1456.11
347.34	1400.81
347.55	1372.14
347.76	1415.15
347.98	1351.66
348.19	1243.12
348.40	1452.01
348.61	1363.95
348.82	1445.87
349.03	1347.56
349.24	1366.00
349.45	1368.04
349.66	1386.47
349.88	1404.91
350.09	1339.37
350.30	1345.52
350.51	1488.87
350.72	1439.72
350.93	1333.23
351.14	1343.47
351.35	1415.15
351.56	1384.43
351.77	1384.43
351.99	1419.24
352.20	1447.91
352.41	1425.39
352.62	1292.27
352.83	1376.24
353.04	1339.37
353.25	1333.23
353.46	1370.09
353.67	1409.00
353.88	1341.42
354.09	1398.76
354.30	1449.96
354.52	1359.85
354.73	1304.56
354.94	1372.14
355.15	1374.19
355.36	1466.35
355.57	1284.08
355.78	1423.34
355.99	1343.47
356.20	1392.62
356.41	1427.43
356.62	1359.85
356.83	1402.86
357.04	1411.05
357.25	1294.32
357.46	1388.52
357.68	1308.65
357.89	1308.65
358.10	1384.43
358.31	1372.14
358.52	1327.08
358.73	1325.04
358.94	1327.08
359.15	1341.42
359.36	1468.39
359.57	1402.86
359.78	1411.05
359.99	1361.90
360.20	1349.61
360.41	1349.61
360.62	1339.37
360.83	1359.85
361.04	1396.71
361.25	1265.64
361.46	1468.39
361.67	1335.28
361.88	1406.95
362.09	1386.47
362.30	1411.05
362.51	1337.32
362.72	1390.57
362.93	1456.11
363.14	1486.83
363.35	1325.04
363.56	1335.28
363.78	1400.81
363.99	1331.18
364.20	1355.76
364.41	1386.47
364.62	1464.30
364.83	1322.99
365.04	1380.33
365.25	1372.14
365.46	1431.53
365.67	1351.66
365.88	1347.56
366.09	1406.95
366.30	1404.91
366.51	1353.71
366.72	1392.62
366.93	1392.62
367.14	1427.43
367.35	1435.63
367.56	1339.37
367.77	1435.63
367.98	1327.08
368.18	1343.47
368.39	1359.85
368.60	1370.09
368.81	1396.71
369.02	1396.71
369.23	1382.38
369.44	1376.24
369.65	1333.23
369.86	1368.04
370.07	1415.15
370.28	1310.70
370.49	1427.43
370.70	1394.67
370.91	1445.87
371.12	1300.46
371.33	1476.59
371.54	1353.71
371.75	1486.83
371.96	1304.56
372.17	1359.85
372.38	1370.09
372.59	1386.47
372.80	1300.46
373.01	1411.05
373.22	1406.95
373.43	1300.46
373.64	1290.22
373.85	1507.30
374.06	1400.81
374.26	1409.00
374.47	1372.14
374.68	1380.33
374.89	1300.46
375.10	1347.56
375.31	1357.80
375.52	1376.24
375.73	1345.52
375.94	1294.32
376.15	1419.24
376.36	1304.56
376.57	1308.65
376.78	1302.51
376.99	1337.32
377.20	1472.49
377.40	1312.75
377.61	1495.02
377.82	1345.52
378.03	1372.14
378.24	1333.23
378.45	1406.95
378.66	1355.76
378.87	1275.88
379.08	1347.56
379.29	1413.10
379.50	1339.37
379.71	1325.04
379.91	1409.00
380.12	1351.66
380.33	1306.60
380.54	1343.47
380.75	1306.60
380.96	1277.93
381.17	1368.04
381.38	1355.76
381.59	1417.19
381.80	1441.77
382.00	1490.92
382.21	1495.02
382.42	1456.11
382.63	1429.48
382.84	1449.96
383.05	1415.15
383.26	1464.30
383.47	1390.57
383.68	1452.01
383.88	1462.25
384.09	1392.62
384.30	1402.86
384.51	1482.73
384.72	1398.76
384.93	1423.34
385.14	1378.28
385.35	1421.29
385.55	1386.47
385.76	1466.35
385.97	1433.58
386.18	1351.66
386.39	1390.57
386.60	1411.05
386.81	1404.91
387.02	1394.67
387.22	1380.33
387.43	1466.35
387.64	1538.02
387.85	2289.63
388.06	5781.42
388.27	9303.92
388.48	11396.95
388.68	13084.47
388.89	13346.61
389.10	10448.74
389.31	8998.77
389.52	8220.55
389.73	7495.57
389.93	6969.24
390.14	6682.52
390.35	6104.99
390.56	5412.78
390.77	4581.31
390.98	3651.53
391.18	2877.40
391.39	2158.56
391.60	1746.92
391.81	1546.22
392.02	1411.05
392.23	1486.83
392.43	1404.91
392.64	1419.24
392.85	1357.80
393.06	1445.87
393.27	1380.33
393.47	1427.43
393.68	1331.18
393.89	1355.76
394.10	1398.76
394.31	1378.28
394.52	1345.52
394.72	1382.38
394.93	1490.92
395.14	1386.47
395.35	1445.87
395.56	1349.61
395.76	1492.97
395.97	1546.22
396.18	1576.94
396.39	1572.84
396.60	1718.25
396.80	1538.02
397.01	1503.21
397.22	1531.88
397.43	1548.26
397.64	1437.67
397.84	1404.91
398.05	1499.11
398.26	1437.67
398.47	1507.30
398.67	1423.34
398.88	1390.57
399.09	1372.14
399.30	1384.43
399.51	1370.09
399.71	1370.09
399.92	1241.07
400.13	1361.90
400.34	1423.34
400.54	1318.89
400.75	1433.58
400.96	1404.91
401.17	1480.68
401.37	1366.00
401.58	1392.62
401.79	1478.63
402.00	1701.86
402.21	1877.99
402.41	1746.92
402.62	1931.23
402.83	1722.34
403.04	1634.28
403.24	1728.49
403.45	1425.39
403.66	1564.65
403.87	1568.74
404.07	1609.70
404.28	1611.75
404.49	1652.71
404.70	1501.16
404.90	1445.87
405.11	1427.43
405.32	1392.62
405.52	1368.04
405.73	1312.75
405.94	1339.37
406.15	1337.32
406.35	1402.86
406.56	1433.58
406.77	1435.63
406.98	1331.18
407.18	1329.13
407.39	1398.76
407.60	1329.13
407.80	1314.80
408.01	1331.18
408.22	1374.19
408.43	1343.47
408.63	1380.33
408.84	1357.80
409.05	1415.15
409.25	1343.47
409.46	1423.34
409.67	1349.61
409.88	1392.62
410.08	1398.76
410.29	1366.00
410.50	1454.06
410.70	1349.61
410.91	1335.28
411.12	1345.52
411.32	1372.14
411.53	1363.95
411.74	1421.29
411.95	1492.97
412.15	1415.15
412.36	1456.11
412.57	1437.67
412.77	1462.25
412.98	1427.43
413.19	1361.90
413.39	1366.00
413.60	1441.77
413.81	1460.20
414.01	1404.91
414.22	1474.54
414.43	1425.39
414.63	1394.67
414.84	1368.04
415.05	1380.33
415.25	1394.67
415.46	1402.86
415.67	1302.51
415.87	1388.52
416.08	1431.53
416.29	1421.29
416.49	1437.67
416.70	1343.47
416.91	1366.00
417.11	1378.28
417.32	1316.84
417.53	1433.58
417.73	1345.52
417.94	1427.43
418.15	1392.62
418.35	1359.85
418.56	1378.28
418.77	1404.91
418.97	1339.37
419.18	1292.27
419.38	1247.21
419.59	1341.42
419.80	1355.76
420.00	1310.70
420.21	1374.19
420.42	1458.15
420.62	1378.28
420.83	1341.42
421.04	1357.80
421.24	1329.13
421.45	1417.19
421.65	1452.01
421.86	1372.14
422.07	1501.16
422.27	1404.91
422.48	1425.39
422.69	1325.04
422.89	1386.47
423.10	1361.90
423.30	1318.89
423.51	1380.33
423.72	1382.38
423.92	1406.95
424.13	1294.32
424.33	1386.47
424.54	1376.24
424.75	1349.61
424.95	1419.24
425.16	1406.95
425.36	1343.47
425.57	1427.43
425.78	1355.76
425.98	1402.86
426.19	1376.24
426.39	1337.32
426.60	1392.62
426.81	1394.67
427.01	1347.56
427.22	1368.04
427.42	1376.24
427.63	1290.22
427.83	1409.00
428.04	1394.67
428.25	1423.34
428.45	1435.63
428.66	1329.13
428.86	1382.38
429.07	1441.77
429.28	1286.12
429.48	1423.34
429.69	1411.05
429.89	1400.81
430.10	1382.38
430.30	1409.00
430.51	1417.19
430.71	1384.43
430.92	1302.51
431.13	1339.37
431.33	1400.81
431.54	1429.48
431.74	1409.00
431.95	1427.43
432.15	1335.28
432.36	1351.66
432.56	1421.29
432.77	1406.95
432.98	1474.54
433.18	1290.22
433.39	1298.41
433.59	1402.86
433.80	1355.76
434.00	1447.91
434.21	1347.56
434.41	1329.13
434.62	1445.87
434.82	1318.89
435.03	1329.13
435.23	1380.33
435.44	1351.66
435.64	1341.42
435.85	1368.04
436.06	1460.20
436.26	1462.25
436.47	1351.66
436.67	1337.32
436.88	1351.66
437.08	1388.52
437.29	1394.67
437.49	1411.05
437.70	1433.58
437.90	1378.28
438.11	1460.20
438.31	1511.40
438.52	1542.12
438.72	1509.35
438.93	1568.74
439.13	1423.34
439.34	1443.82
439.54	1466.35
439.75	1431.53
439.95	1458.15
440.16	1363.95
440.36	1423.34
440.57	1366.00
440.77	1492.97
440.98	1337.32
441.18	1458.15
441.39	1337.32
441.59	1329.13
441.80	1421.29
442.00	1425.39
442.21	1417.19
442.41	1390.57
442.62	1343.47
442.82	1345.52
443.02	1449.96
443.23	1394.67
443.43	1339.37
443.64	1398.76
443.84	1388.52
444.05	1480.68
444.25	1411.05
444.46	1415.15
444.66	1318.89
444.87	1400.81
445.07	1353.71
445.28	1355.76
445.48	1423.34
445.69	1435.63
445.89	1523.69
446.09	1564.65
446.30	2224.09
446.50	3639.24
446.71	4722.62
446.91	5150.64
447.12	5638.06
447.32	4917.17
447.53	4190.14
447.73	3831.75
447.93	3276.75
448.14	3276.75
448.34	3082.19
448.55	2707.41
448.75	2815.96
448.96	2750.42
449.16	2336.73
449.36	2217.95
449.57	2019.30
449.77	1687.53
449.98	1570.79
450.18	1425.39
450.39	1441.77
450.59	1466.35
450.79	1339.37
451.00	1404.91
451.20	1456.11
451.41	1380.33
451.61	1390.57
451.81	1386.47
452.02	1361.90
452.22	1300.46
452.43	1388.52
452.63	1279.98
452.84	1347.56
453.04	1357.80
453.24	1366.00
453.45	1431.53
453.65	1392.62
453.86	1366.00
454.06	1404.91
454.26	1335.28
454.47	1308.65
454.67	1413.10
454.87	1404.91
455.08	1384.43
455.28	1402.86
455.49	1314.80
455.69	1366.00
455.89	1423.34
456.10	1476.59
456.30	1409.00
456.51	1425.39
456.71	1419.24
456.91	1415.15
457.12	1443.82
457.32	1310.70
457.52	1374.19
457.73	1370.09
457.93	1331.18
458.14	1325.04
458.34	1312.75
458.54	1378.28
458.75	1302.51
458.95	1388.52
459.15	1411.05
459.36	1439.72
459.56	1386.47
459.76	1447.91
459.97	1409.00
460.17	1411.05
460.37	1409.00
460.58	1445.87
460.78	1462.25
460.99	1331.18
461.19	1384.43
461.39	1417.19
461.60	1366.00
461.80	1380.33
462.00	1322.99
462.21	1355.76
462.41	1347.56
462.61	1341.42
462.82	1376.24
463.02	1363.95
463.22	1304.56
463.43	1525.74
463.63	1394.67
463.83	1413.10
464.04	1417.19
464.24	1370.09
464.44	1339.37
464.64	1327.08
464.85	1370.09
465.05	1472.49
465.25	1419.24
465.46	1351.66
465.66	1425.39
465.86	1388.52
466.07	1351.66
466.27	1505.26
466.47	1331.18
466.68	1368.04
466.88	1458.15
467.08	1437.67
467.29	1431.53
467.49	1435.63
467.69	1357.80
467.89	1335.28
468.10	1370.09
468.30	1394.67
468.50	1361.90
468.71	1419.24
468.91	1396.71
469.11	1411.05
469.31	1366.00
469.52	1363.95
469.72	1470.44
469.92	1447.91
470.13	1335.28
470.33	1480.68
470.53	1689.57
470.73	2041.82
470.94	2375.64
471.14	2338.78
471.34	2398.17
471.54	2295.77
471.75	2007.01
471.95	1953.76
472.15	1757.16
472.36	1871.84
472.56	1822.69
472.76	1701.86
472.96	1671.14
473.17	1687.53
473.37	1675.24
473.57	1538.02
473.77	1513.45
473.98	1443.82
474.18	1380.33
474.38	1472.49
474.58	1363.95
474.79	1400.81
474.99	1415.15
475.19	1380.33
475.39	1361.90
475.60	1413.10
475.80	1398.76
476.00	1404.91
476.20	1298.41
476.41	1378.28
476.61	1345.52
476.81	1413.10
477.01	1361.90
477.21	1392.62
477.42	1474.54
477.62	1347.56
477.82	1368.04
478.02	1327.08
478.23	1359.85
478.43	1359.85
478.63	1314.80
478.83	1376.24
479.03	1372.14
479.24	1378.28
479.44	1454.06
479.64	1347.56
479.84	1339.37
480.04	1361.90
480.25	1357.80
480.45	1368.04
480.65	1437.67
480.85	1382.38
481.06	1294.32
481.26	1402.86
481.46	1374.19
481.66	1353.71
481.86	1415.15
482.06	1439.72
482.27	1275.88
482.47	1327.08
482.67	1368.04
482.87	1329.13
483.07	1384.43
483.28	1355.76
483.48	1306.60
483.68	1345.52
483.88	1368.04
484.08	1413.10
484.29	1337.32
484.49	1419.24
484.69	1363.95
484.89	1421.29
485.09	1417.19
485.29	1402.86
485.50	1392.62
485.70	1345.52
485.90	1413.10
486.10	1368.04
486.30	1466.35
486.50	1439.72
486.71	1392.62
486.91	1435.63
487.11	1484.78
487.31	1349.61
487.51	1421.29
487.71	1310.70
487.91	1384.43
488.12	1312.75
488.32	1296.36
488.52	1456.11
488.72	1265.64
488.92	1306.60
489.12	1327.08
489.32	1415.15
489.53	1402.86
489.73	1415.15
489.93	1384.43
490.13	1394.67
490.33	1296.36
490.53	1341.42
490.73	1386.47
490.94	1304.56
491.14	1435.63
491.34	1556.46
491.54	2129.89
491.74	2600.92
491.94	2944.98
492.14	3049.43
492.34	3045.33
492.54	2500.57
492.75	2199.52
492.95	2144.22
493.15	2084.83
493.35	1992.67
493.55	1910.75
493.75	1859.56
493.95	1929.19
494.15	1775.59
494.35	1683.43
494.56	1638.38
494.76	1544.17
494.96	1454.06
495.16	1509.35
495.36	1394.67
495.56	1462.25
495.76	1435.63
495.96	1406.95
496.16	1388.52
496.36	1484.78
496.56	1359.85
496.77	1345.52
496.97	1378.28
497.17	1429.48
497.37	1345.52
497.57	1449.96
497.77	1347.56
497.97	1255.40
498.17	1384.43
498.37	1409.00
498.57	1388.52
498.77	1421.29
498.97	1411.05
499.17	1531.88
499.38	1337.32
499.58	1415.15
499.78	1435.63
499.98	1452.01
500.18	1423.34
500.38	1445.87
500.58	1718.25
500.78	2887.64
500.98	5425.07
501.18	6932.37
501.38	8144.77
501.58	8439.68
501.78	7516.05
501.98	5681.07
502.18	5191.60
502.38	4495.29
502.58	4032.45
502.78	3862.47
502.98	3549.13
503.18	3487.69
503.38	3323.85
503.59	2961.36
503.79	2768.85
503.99	2553.82
504.19	2482.14
504.39	2150.37
504.59	2082.78
504.79	1927.14
504.99	1705.96
505.19	1667.05
505.39	1613.80
505.59	1570.79
505.79	1501.16
505.99	1495.02
506.19	1460.20
506.39	1468.39
506.59	1431.53
506.79	1384.43
506.99	1437.67
507.19	1404.91
507.39	1398.76
507.59	1411.05
507.79	1337.32
507.99	1353.71
508.19	1370.09
508.39	1363.95
508.59	1439.72
508.79	1482.73
508.99	1447.91
509.19	1318.89
509.39	1486.83
509.59	1341.42
509.79	1388.52
509.99	1370.09
510.19	1382.38
510.39	1454.06
510.59	1417.19
510.79	1327.08
510.99	1296.36
511.19	1376.24
511.39	1472.49
511.59	1382.38
511.79	1409.00
511.99	1396.71
512.19	1368.04
512.38	1331.18
512.58	1382.38
512.78	1396.71
512.98	1376.24
513.18	1394.67
513.38	1347.56
513.58	1480.68
513.78	1351.66
513.98	1374.19
514.18	1409.00
514.38	1378.28
514.58	1310.70
514.78	1322.99
514.98	1355.76
515.18	1316.84
515.38	1310.70
515.58	1503.21
515.78	1351.66
515.98	1361.90
516.18	1378.28
516.38	1394.67
516.57	1392.62
516.77	1329.13
516.97	1329.13
517.17	1462.25
517.37	1337.32
517.57	1411.05
517.77	1282.03
517.97	1349.61
518.17	1437.67
518.37	1372.14
518.57	1339.37
518.77	1421.29
518.97	1370.09
519.16	1357.80
519.36	1454.06
519.56	1316.84
519.76	1353.71
519.96	1409.00
520.16	1476.59
520.36	1282.03
520.56	1466.35
520.76	1378.28
520.96	1372.14
521.16	1406.95
521.35	1439.72
521.55	1415.15
521.75	1406.95
521.95	1343.47
522.15	1388.52
522.35	1316.84
522.55	1320.94
522.75	1411.05
522.95	1325.04
523.14	1370.09
523.34	1355.76
523.54	1304.56
523.74	1402.86
523.94	1429.48
524.14	1380.33
524.34	1380.33
524.54	1449.96
524.73	1396.71
524.93	1419.24
525.13	1421.29
525.33	1349.61
525.53	1521.64
525.73	1431.53
525.93	1355.76
526.13	1406.95
526.32	1406.95
526.52	1378.28
526.72	1492.97
526.92	1378.28
527.12	1329.13
527.32	1339.37
527.52	1386.47
527.71	1398.76
527.91	1388.52
528.11	1400.81
528.31	1306.60
528.51	1333.23
528.71	1339.37
528.90	1368.04
529.10	1425.39
529.30	1431.53
529.50	1265.64
529.70	1320.94
529.90	1378.28
530.09	1370.09
530.29	1337.32
530.49	1318.89
530.69	1437.67
530.89	1345.52
531.09	1454.06
531.28	1318.89
531.48	1380.33
531.68	1501.16
531.88	1351.66
532.08	1447.91
532.28	1368.04
532.47	1447.91
532.67	1431.53
532.87	1482.73
533.07	1345.52
533.27	1357.80
533.46	1466.35
533.66	1419.24
533.86	1347.56
534.06	1409.00
534.26	1402.86
534.45	1380.33
534.65	1402.86
534.85	1425.39
535.05	1380.33
535.25	1415.15
535.44	1425.39
535.64	1392.62
535.84	1314.80
536.04	1400.81
536.24	1392.62
536.43	1335.28
536.63	1433.58
536.83	1402.86
537.03	1353.71
537.22	1300.46
537.42	1329.13
537.62	1415.15
537.82	1314.80
538.02	1474.54
538.21	1427.43
538.41	1515.50
538.61	1394.67
538.81	1269.74
539.00	1443.82
539.20	1361.90
539.40	1417.19
539.60	1406.95
539.79	1478.63
539.99	1396.71
540.19	1388.52
540.39	1366.00
540.58	1404.91
540.78	1404.91
540.98	1435.63
541.18	1421.29
541.37	1427.43
541.57	1372.14
541.77	1341.42
541.97	1284.08
542.16	1322.99
542.36	1398.76
542.56	1456.11
542.76	1427.43
542.95	1314.80
543.15	1429.48
543.35	1409.00
543.54	1357.80
543.74	1413.10
543.94	1409.00
544.14	1316.84
544.33	1482.73
544.53	1478.63
544.73	1431.53
544.93	1368.04
545.12	1411.05
545.32	1400.81
545.52	1388.52
545.71	1398.76
545.91	1331.18
546.11	1380.33
546.30	1353.71
546.50	1376.24
546.70	1417.19
546.90	1454.06
547.09	1398.76
547.29	1378.28
547.49	1351.66
547.68	1347.56
547.88	1355.76
548.08	1374.19
548.27	1630.18
548.47	1327.08
548.67	1353.71
548.87	1357.80
549.06	1320.94
549.26	1427.43
549.46	1384.43
549.65	1445.87
549.85	1353.71
550.05	1400.81
550.24	1355.76
550.44	1427.43
550.64	1427.43
550.83	1445.87
551.03	1394.67
551.23	1355.76
551.42	1398.76
551.62	1347.56
551.82	1331.18
552.01	1386.47
552.21	1396.71
552.41	1402.86
552.60	1429.48
552.80	1279.98
553.00	1339.37
553.19	1437.67
553.39	1445.87
553.59	1337.32
553.78	1316.84
553.98	1355.76
554.17	1351.66
554.37	1462.25
554.57	1368.04
554.76	1327.08
554.96	1372.14
555.16	1355.76
555.35	1409.00
555.55	1361.90
555.75	1343.47
555.94	1425.39
556.14	1376.24
556.33	1386.47
556.53	1427.43
556.73	1386.47
556.92	1409.00
557.12	1370.09
557.32	1441.77
557.51	1466.35
557.71	1349.61
557.90	1460.20
558.10	1370.09
558.30	1449.96
558.49	1294.32
558.69	1329.13
558.88	1406.95
559.08	1341.42
559.28	1406.95
559.47	1413.10
559.67	1368.04
559.86	1462.25
560.06	1456.11
560.26	1341.42
560.45	1322.99
560.65	1404.91
560.84	1353.71
561.04	1363.95
561.24	1384.43
561.43	1413.10
561.63	1439.72
561.82	1316.84
562.02	1372.14
562.22	1335.28
562.41	1368.04
562.61	1402.86
562.80	1343.47
563.00	1427.43
563.19	1486.83
563.39	1366.00
563.59	1449.96
563.78	1333.23
563.98	1329.13
564.17	1411.05
564.37	1419.24
564.56	1409.00
564.76	1316.84
564.96	1396.71
565.15	1347.56
565.35	1462.25
565.54	1390.57
565.74	1404.91
565.93	1443.82
566.13	1458.15
566.32	1415.15
566.52	1378.28
566.71	1400.81
566.91	1470.44
567.11	1388.52
567.30	1390.57
567.50	1366.00
567.69	1331.18
567.89	1363.95
568.08	1380.33
568.28	1325.04
568.47	1378.28
568.67	1384.43
568.86	1353.71
569.06	1396.71
569.25	1372.14
569.45	1378.28
569.64	1331.18
569.84	1384.43
570.04	1421.29
570.23	1355.76
570.43	1376.24
570.62	1388.52
570.82	1411.05
571.01	1325.04
571.21	1298.41
571.40	1406.95
571.60	1439.72
571.79	1437.67
571.99	1404.91
572.18	1320.94
572.38	1435.63
572.57	1361.90
572.77	1368.04
572.96	1511.40
573.16	1306.60
573.35	1361.90
573.55	1361.90
573.74	1445.87
573.94	1437.67
574.13	1443.82
574.33	1419.24
574.52	1404.91
574.71	1390.57
574.91	1427.43
575.10	1382.38
575.30	1366.00
575.49	1411.05
575.69	1355.76
575.88	1497.07
576.08	1411.05
576.27	1488.87
576.47	1435.63
576.66	1458.15
576.86	1591.27
577.05	1376.24
577.25	1429.48
577.44	1460.20
577.64	1347.56
577.83	1423.34
578.02	1423.34
578.22	1503.21
578.41	1470.44
578.61	1370.09
578.80	1320.94
579.00	1449.96
579.19	1421.29
579.39	1402.86
579.58	1423.34
579.77	1431.53
579.97	1423.34
580.16	1482.73
580.36	1540.07
580.55	1468.39
580.75	1486.83
580.94	1406.95
581.13	1441.77
581.33	1435.63
581.52	1429.48
581.72	1509.35
581.91	1427.43
582.11	1470.44
582.30	1433.58
582.49	1423.34
582.69	1486.83
582.88	1409.00
583.08	1462.25
583.27	1425.39
583.47	1425.39
583.66	1437.67
583.85	1353.71
584.05	1419.24
584.24	1468.39
584.44	1462.25
584.63	1546.22
584.82	1511.40
585.02	1562.60
585.21	1650.66
585.41	1556.46
585.60	1681.38
585.79	1589.22
585.99	1621.99
586.18	1656.81
586.37	1769.44
586.57	2693.08
586.76	8048.52
586.96	23942.80
587.15	41297.29
587.34	52118.76
587.54	59729.01
587.73	58834.05
587.93	44565.85
588.12	32802.32
588.31	26621.55
588.51	22773.41
588.70	19791.57
588.89	18345.70
589.09	16975.61
589.28	15920.91
589.47	14186.28
589.67	12644.16
589.86	10645.34
590.06	8556.41
590.25	6530.97
590.44	5038.00
590.64	3690.44
590.83	2740.18
591.02	2279.39
591.22	1918.95
591.41	1757.16
591.60	1644.52
591.80	1607.66
591.99	1482.73
592.18	1527.78
592.38	1484.78
592.57	1413.10
592.76	1435.63
592.96	1447.91
593.15	1515.50
593.34	1492.97
593.54	1454.06
593.73	1368.04
593.92	1435.63
594.12	1515.50
594.31	1454.06
594.50	1515.50
594.70	1486.83
594.89	1554.41
595.08	1415.15
595.28	1398.76
595.47	1468.39
595.66	1339.37
595.86	1302.51
596.05	1380.33
596.24	1413.10
596.43	1480.68
596.63	1441.77
596.82	1368.04
597.01	1380.33
597.21	1511.40
597.40	1433.58
597.59	1458.15
597.79	1388.52
597.98	1359.85
598.17	1441.77
598.36	1386.47
598.56	1402.86
598.75	1361.90
598.94	1429.48
599.14	1433.58
599.33	1370.09
599.52	1402.86
599.71	1331.18
599.91	1456.11
600.10	1404.91
600.29	1454.06
600.48	1370.09
600.68	1415.15
600.87	1437.67
601.06	1402.86
601.26	1345.52
601.45	1394.67
601.64	1425.39
601.83	1394.67
602.03	1355.76
602.22	1398.76
602.41	1472.49
602.60	1472.49
602.80	1411.05
602.99	1460.20
603.18	1388.52
603.37	1439.72
603.57	1366.00
603.76	1478.63
603.95	1456.11
604.14	1441.77
604.34	1329.13
604.53	1380.33
604.72	1437.67
604.91	1435.63
605.10	1443.82
605.30	1292.27
605.49	1495.02
605.68	1458.15
605.87	1417.19
606.07	1357.80
606.26	1388.52
606.45	1411.05
606.64	1347.56
606.84	1386.47
607.03	1402.86
607.22	1452.01
607.41	1376.24
607.60	1437.67
607.80	1474.54
607.99	1435.63
608.18	1366.00
608.37	1378.28
608.56	1357.80
608.76	1402.86
608.95	1460.20
609.14	1425.39
609.33	1511.40
609.52	1429.48
609.72	1476.59
609.91	1568.74
610.10	1470.44
610.29	1476.59
610.48	1437.67
610.68	1402.86
610.87	1347.56
611.06	1492.97
611.25	1337.32
611.44	1474.54
611.63	1355.76
611.83	1437.67
612.02	1351.66
612.21	1460.20
612.40	1312.75
612.59	1265.64
612.79	1351.66
612.98	1400.81
613.17	1443.82
613.36	1347.56
613.55	1511.40
613.74	1492.97
613.93	1525.74
614.13	1599.46
614.32	1587.18
614.51	1685.48
614.70	1533.93
614.89	1431.53
615.08	1558.50
615.28	1632.23
615.47	1409.00
615.66	1398.76
615.85	1454.06
616.04	1548.26
616.23	1505.26
616.42	1478.63
616.62	1544.17
616.81	1435.63
617.00	1429.48
617.19	1402.86
617.38	1421.29
617.57	1415.15
617.76	1441.77
617.95	1394.67
618.15	1390.57
618.34	1474.54
618.53	1396.71
618.72	1492.97
618.91	1402.86
619.10	1396.71
619.29	1409.00
619.48	1390.57
619.68	1378.28
619.87	1423.34
620.06	1296.36
620.25	1435.63
620.44	1404.91
620.63	1443.82
620.82	1458.15
621.01	1325.04
621.20	1431.53
621.39	1505.26
621.59	1423.34
621.78	1413.10
621.97	1413.10
622.16	1421.29
622.35	1435.63
622.54	1394.67
622.73	1421.29
622.92	1431.53
623.11	1388.52
623.30	1359.85
623.49	1421.29
623.68	1382.38
623.88	1394.67
624.07	1380.33
624.26	1294.32
624.45	1351.66
624.64	1384.43
624.83	1357.80
625.02	1368.04
625.21	1380.33
625.40	1396.71
625.59	1421.29
625.78	1409.00
625.97	1443.82
626.16	1443.82
626.35	1470.44
626.54	1474.54
626.74	1509.35
626.93	1443.82
627.12	1398.76
627.31	1470.44
627.50	1421.29
627.69	1529.83
627.88	1312.75
628.07	1425.39
628.26	1396.71
628.45	1322.99
628.64	1435.63
628.83	1316.84
629.02	1310.70
629.21	1454.06
629.40	1384.43
629.59	1368.04
629.78	1292.27
629.97	1372.14
630.16	1376.24
630.35	1380.33
630.54	1359.85
630.73	1380.33
630.92	1359.85
631.11	1347.56
631.30	1404.91
631.49	1318.89
631.68	1347.56
631.87	1419.24
632.06	1329.13
632.25	1495.02
632.44	1376.24
632.63	1423.34
632.82	1413.10
633.01	1468.39
633.20	1443.82
633.39	1472.49
633.58	1382.38
633.77	1490.92
633.96	1466.35
634.15	1441.77
634.34	1462.25
634.53	1402.86
634.72	1396.71
634.91	1380.33
635.10	1413.10
635.29	1355.76
635.48	1316.84
635.67	1382.38
635.86	1370.09
636.05	1415.15
636.24	1380.33
636.43	1406.95
636.62	1449.96
636.81	1327.08
637.00	1286.12
637.19	1400.81
637.38	1388.52
637.57	1312.75
637.76	1443.82
637.95	1509.35
638.14	1507.30
638.33	1454.06
638.52	1505.26
638.71	1509.35
638.89	1452.01
639.08	1564.65
639.27	1433.58
639.46	1482.73
639.65	1767.40
639.84	1847.27
640.03	1998.82
640.22	2031.58
640.41	2205.66
640.60	1976.29
640.79	1787.88
640.98	1761.25
641.17	1712.10
641.36	1617.90
641.55	1562.60
641.74	1533.93
641.92	1564.65
642.11	1492.97
642.30	1417.19
642.49	1402.86
642.68	1411.05
642.87	1449.96
643.06	1374.19
643.25	1372.14
643.44	1343.47
643.63	1345.52
643.82	1355.76
644.00	1409.00
644.19	1476.59
644.38	1335.28
644.57	1413.10
644.76	1388.52
644.95	1331.18
645.14	1417.19
645.33	1308.65
645.52	1335.28
645.71	1298.41
645.89	1361.90
646.08	1341.42
646.27	1382.38
646.46	1353.71
646.65	1333.23
646.84	1456.11
647.03	1413.10
647.22	1402.86
647.40	1361.90
647.59	1357.80
647.78	1345.52
647.97	1339.37
648.16	1386.47
648.35	1388.52
648.54	1417.19
648.73	1390.57
648.91	1449.96
649.10	1388.52
649.29	1372.14
649.48	1404.91
649.67	1384.43
649.86	1388.52
650.05	1439.72
650.23	1509.35
650.42	1470.44
650.61	1568.74
650.80	1589.22
650.99	1599.46
651.18	1472.49
651.36	1552.36
651.55	1370.09
651.74	1470.44
651.93	1390.57
652.12	1386.47
652.31	1359.85
652.49	1363.95
652.68	1431.53
652.87	1413.10
653.06	1421.29
653.25	1470.44
653.44	1331.18
653.62	1409.00
653.81	1415.15
654.00	1398.76
654.19	1417.19
654.38	1449.96
654.56	1413.10
654.75	1345.52
654.94	1435.63
655.13	1361.90
655.32	1439.72
655.51	1390.57
655.69	1355.76
655.88	1427.43
656.07	1298.41
656.26	1415.15
656.45	1331.18
656.63	1425.39
656.82	1490.92
657.01	1366.00
657.20	1394.67
657.38	1488.87
657.57	1304.56
657.76	1331.18
657.95	1380.33
658.14	1374.19
658.32	1335.28
658.51	1368.04
658.70	1388.52
658.89	1320.94
659.08	1394.67
659.26	1525.74
659.45	1411.05
659.64	1441.77
659.83	1423.34
660.01	1523.69
660.20	1474.54
660.39	1478.63
660.58	1378.28
660.76	1474.54
660.95	1392.62
661.14	1411.05
661.33	1304.56
661.51	1402.86
661.70	1452.01
661.89	1398.76
662.08	1417.19
662.26	1355.76
662.45	1366.00
662.64	1386.47
662.83	1472.49
663.01	1384.43
663.20	1419.24
663.39	1517.54
663.58	1380.33
663.76	1384.43
663.95	1398.76
664.14	1347.56
664.32	1378.28
664.51	1447.91
664.70	1347.56
664.89	1349.61
665.07	1372.14
665.26	1406.95
665.45	1359.85
665.64	1445.87
665.82	1380.33
666.01	1343.47
666.20	1386.47
666.38	1460.20
666.57	1503.21
666.76	1581.03
666.95	1998.82
667.13	4544.44
667.32	11544.40
667.51	17794.80
667.69	21681.85
667.88	24630.92
668.07	24579.72
668.25	18734.82
668.44	13625.14
668.63	11089.75
668.81	9123.70
669.00	8150.92
669.19	7366.54
669.38	6737.82
669.56	6162.34
669.75	5539.76
669.94	4851.64
670.12	4108.23
670.31	3518.41
670.50	2990.03
670.68	2379.74
670.87	2086.88
671.06	1861.60
671.24	1656.81
671.43	1644.52
671.62	1574.89
671.80	1523.69
671.99	1472.49
672.18	1478.63
672.36	1447.91
672.55	1503.21
672.74	1353.71
672.92	1359.85
673.11	1429.48
673.29	1343.47
673.48	1404.91
673.67	1306.60
673.85	1413.10
674.04	1415.15
674.23	1470.44
674.41	1372.14
674.60	1386.47
674.79	1318.89
674.97	1357.80
675.16	1361.90
675.34	1372.14
675.53	1349.61
675.72	1351.66
675.90	1400.81
676.09	1376.24
676.28	1351.66
676.46	1341.42
676.65	1357.80
676.83	1327.08
677.02	1353.71
677.21	1384.43
677.39	1286.12
677.58	1411.05
677.77	1433.58
677.95	1343.47
678.14	1304.56
678.32	1423.34
678.51	1347.56
678.70	1411.05
678.88	1353.71
679.07	1433.58
679.25	1339.37
679.44	1378.28
679.63	1329.13
679.81	1402.86
680.00	1437.67
680.18	1447.91
680.37	1388.52
680.55	1413.10
680.74	1316.84
680.93	1318.89
681.11	1372.14
681.30	1382.38
681.48	1417.19
681.67	1386.47
681.85	1316.84
682.04	1433.58
682.23	1425.39
682.41	1400.81
682.60	1333.23
682.78	1380.33
682.97	1363.95
683.15	1406.95
683.34	1388.52
683.53	1368.04
683.71	1374.19
683.90	1370.09
684.08	1458.15
684.27	1404.91
684.45	1325.04
684.64	1413.10
684.82	1296.36
685.01	1378.28
685.19	1267.69
685.38	1470.44
685.57	1392.62
685.75	1312.75
685.94	1390.57
686.12	1329.13
686.31	1411.05
686.49	1390.57
686.68	1318.89
686.86	1306.60
687.05	1388.52
687.23	1374.19
687.42	1382.38
687.60	1353.71
687.79	1404.91
687.97	1419.24
688.16	1419.24
688.34	1402.86
688.53	1310.70
688.71	1394.67
688.90	1398.76
689.08	1376.24
689.27	1284.08
689.45	1411.05
689.64	1357.80
689.82	1429.48
690.01	1470.44
690.19	1388.52
690.38	1347.56
690.56	1437.67
690.75	1314.80
690.93	1343.47
691.12	1417.19
691.30	1402.86
691.49	1331.18
691.67	1353.71
691.86	1490.92
692.04	1314.80
692.23	1288.17
692.41	1370.09
692.60	1544.17
692.78	1535.98
692.97	1476.59
693.15	1470.44
693.34	1505.26
693.52	1458.15
693.71	1433.58
693.89	1374.19
694.08	1386.47
694.26	1390.57
694.44	1409.00
694.63	1482.73
694.81	1351.66
695.00	1396.71
695.18	1425.39
695.37	1470.44
695.55	1380.33
695.74	1345.52
695.92	1357.80
696.10	1380.33
696.29	1327.08
696.47	1337.32
696.66	1357.80
696.84	1271.79
697.03	1372.14
697.21	1406.95
697.40	1724.39
697.58	1468.39
697.76	1331.18
697.95	1411.05
698.13	1337.32
698.32	1363.95
698.50	1368.04
698.68	1505.26
698.87	1400.81
699.05	1486.83
699.24	1396.71
699.42	1378.28
699.61	1351.66
699.79	1480.68
699.97	1361.90
700.16	1236.97
700.34	1316.84
700.53	1368.04
700.71	1402.86
700.89	1314.80
701.08	1333.23
701.26	1398.76
701.45	1572.84
701.63	1331.18
701.81	1437.67
702.00	1353.71
702.18	1390.57
702.37	1361.90
702.55	1417.19
702.73	1460.20
702.92	1507.30
703.10	1662.95
703.28	1632.23
703.47	1681.38
703.65	1630.18
703.84	1585.13
704.02	1503.21
704.20	1484.78
704.39	1511.40
704.57	1431.53
704.75	1486.83
704.94	1556.46
705.12	1480.68
705.30	1411.05
705.49	1533.93
705.67	1722.34
705.86	3489.74
706.04	9033.59
706.22	16246.54
706.41	19136.22
706.59	22609.58
706.77	23408.28
706.96	19941.07
707.14	13616.94
707.32	11290.45
707.51	9258.87
707.69	8220.55
707.87	7288.72
708.06	6731.67
708.24	6076.32
708.42	5142.45
708.61	4110.27
708.79	2975.70
708.97	2394.08
709.16	1959.91
709.34	1757.16
709.52	1597.42
709.71	1560.55
709.89	1490.92
710.07	1415.15
710.26	1331.18
710.44	1476.59
710.62	1433.58
710.80	1333.23
710.99	1333.23
711.17	1456.11
711.35	1439.72
711.54	1464.30
711.72	1394.67
711.90	1439.72
712.09	1435.63
712.27	1386.47
712.45	1382.38
712.63	1316.84
712.82	1439.72
713.00	1380.33
713.18	1419.24
713.37	1361.90
713.55	1409.00
713.73	1380.33
713.91	1355.76
714.10	1372.14
714.28	1376.24
714.46	1415.15
714.65	1394.67
714.83	1355.76
715.01	1411.05
715.19	1419.24
715.38	1318.89
715.56	1374.19
715.74	1333.23
715.92	1314.80
716.11	1427.43
716.29	1306.60
716.47	1357.80
716.65	1372.14
716.84	1335.28
717.02	1314.80
717.20	1380.33
717.38	1394.67
717.57	1318.89
717.75	1366.00
717.93	1343.47
718.11	1368.04
718.30	1322.99
718.48	1361.90
718.66	1464.30
718.84	1386.47
719.03	1329.13
719.21	1294.32
719.39	1484.78
719.57	1454.06
719.75	1351.66
719.94	1390.57
720.12	1286.12
720.30	1435.63
720.48	1419.24
720.67	1339.37
720.85	1341.42
721.03	1310.70
721.21	1333.23
721.39	1355.76
721.58	1349.61
721.76	1435.63
721.94	1380.33
722.12	1460.20
722.30	1368.04
722.49	1390.57
722.67	1406.95
722.85	1327.08
723.03	1339.37
723.21	1366.00
723.40	1333.23
723.58	1378.28
723.76	1417.19
723.94	1409.00
724.12	1421.29
724.30	1519.59
724.49	1484.78
724.67	1480.68
724.85	1531.88
725.03	1392.62
725.21	1437.67
725.40	1419.24
725.58	1396.71
725.76	1456.11
725.94	1363.95
726.12	1413.10
726.30	1411.05
726.49	1384.43
726.67	1349.61
726.85	1464.30
727.03	1390.57
727.21	1542.12
727.39	1460.20
727.57	2142.18
727.76	3467.21
727.94	4378.56
728.12	4939.70
728.30	5283.76
728.48	5181.36
728.66	4257.73
728.84	3487.69
729.03	3080.14
729.21	2783.19
729.39	2500.57
729.57	2312.16
729.75	2039.78
729.93	1826.79
730.11	1648.61
730.30	1513.45
730.48	1404.91
730.66	1521.64
730.84	1495.02
731.02	1415.15
731.20	1353.71
731.38	1386.47
731.56	1392.62
731.74	1349.61
731.93	1411.05
732.11	1415.15
732.29	1396.71
732.47	1400.81
732.65	1439.72
732.83	1427.43
733.01	1337.32
733.19	1406.95
733.37	1419.24
733.56	1376.24
733.74	1427.43
733.92	1351.66
734.10	1335.28
734.28	1378.28
734.46	1279.98
734.64	1318.89
734.82	1390.57
735.00	1349.61
735.18	1396.71
735.36	1370.09
735.54	1404.91
735.73	1310.70
735.91	1359.85
736.09	1396.71
736.27	1322.99
736.45	1390.57
736.63	1288.17
736.81	1353.71
736.99	1447.91
737.17	1392.62
737.35	1345.52
737.53	1320.94
737.71	1402.86
737.89	1402.86
738.07	1380.33
738.25	1388.52
738.43	1331.18
738.61	1327.08
738.80	1396.71
738.98	1374.19
739.16	1345.52
739.34	1333.23
739.52	1456.11
739.70	1363.95
739.88	1431.53
740.06	1433.58
740.24	1316.84
740.42	1347.56
740.60	1286.12
740.78	1288.17
740.96	1345.52
741.14	1382.38
741.32	1322.99
741.50	1439.72
741.68	1419.24
741.86	1396.71
742.04	1361.90
742.22	1374.19
742.40	1390.57
742.58	1370.09
742.76	1343.47
742.94	1419.24
743.12	1415.15
743.30	1359.85
743.48	1423.34
743.66	1343.47
743.84	1372.14
744.02	1331.18
744.20	1314.80
744.38	1415.15
744.56	1394.67
744.74	1382.38
744.92	1402.86
745.10	1462.25
745.28	1370.09
745.46	1404.91
745.64	1347.56
745.82	1368.04
746.00	1331.18
746.18	1398.76
746.36	1363.95
746.54	1343.47
746.72	1308.65
746.90	1306.60
747.08	1402.86
747.26	1316.84
747.44	1443.82
747.62	1474.54
747.80	1429.48
747.98	1423.34
748.15	1404.91
748.33	1433.58
748.51	1421.29
748.69	1351.66
748.87	1296.36
749.05	1320.94
749.23	1427.43
749.41	1449.96
749.59	1433.58
749.77	1425.39
749.95	1431.53
750.13	1409.00
750.31	1400.81
750.49	1349.61
750.67	1435.63
750.85	1409.00
751.03	1370.09
751.20	1476.59
751.38	1286.12
751.56	1296.36
751.74	1361.90
751.92	1341.42
752.10	1327.08
752.28	1454.06
752.46	1325.04
752.64	1335.28
752.82	1361.90
753.00	1437.67
753.18	1359.85
753.35	1439.72
753.53	1347.56
753.71	1398.76
753.89	1374.19
754.07	1409.00
754.25	1394.67
754.43	1349.61
754.61	1388.52
754.79	1331.18
754.97	1398.76
755.14	1452.01
755.32	1341.42
755.50	1345.52
755.68	1380.33
755.86	1404.91
756.04	1331.18
756.22	1296.36
756.40	1392.62
756.57	1505.26
756.75	1394.67
756.93	1396.71
757.11	1398.76
757.29	1333.23
757.47	1357.80
757.65	1372.14
757.82	1312.75
758.00	1325.04
758.18	1320.94
758.36	1322.99
758.54	1415.15
758.72	1314.80
758.90	1372.14
759.07	1363.95
759.25	1402.86
759.43	1351.66
759.61	1353.71
759.79	1644.52
759.97	1357.80
760.15	1404.91
760.32	1329.13
760.50	1386.47
760.68	1337.32
760.86	1298.41
761.04	1425.39
761.22	1366.00
761.39	1318.89
761.57	1425.39
761.75	1421.29
761.93	1476.59
762.11	1435.63
762.28	1366.00
762.46	1300.46
762.64	1335.28
762.82	1337.32
763.00	1366.00
763.18	1433.58
763.35	1290.22
763.53	1409.00
763.71	1296.36
763.89	1368.04
764.07	1398.76
764.24	1359.85
764.42	1419.24
764.60	1355.76
764.78	1378.28
764.96	1421.29
765.13	1406.95
765.31	1376.24
765.49	1380.33
765.67	1359.85
765.84	1361.90
766.02	1284.08
766.20	1322.99
766.38	1404.91
766.56	1449.96
766.73	1433.58
766.91	1359.85
767.09	1390.57
767.27	1335.28
767.44	1273.84
767.62	1368.04
767.80	1386.47
767.98	1380.33
768.15	1320.94
768.33	1386.47
768.51	1388.52
768.69	1427.43
768.87	1333.23
769.04	1378.28
769.22	1423.34
769.40	1490.92
769.58	1507.30
769.75	1345.52
769.93	1382.38
770.11	1290.22
770.28	1339.37
770.46	1314.80
770.64	1390.57
770.82	1390.57
770.99	1394.67
771.17	1372.14
771.35	1329.13
771.53	1316.84
771.70	1390.57
771.88	1374.19
772.06	1357.80
772.23	1376.24
772.41	1361.90
772.59	1353.71
772.77	1300.46
772.94	1427.43
773.12	1366.00
773.30	1366.00
773.47	1388.52
773.65	1284.08
773.83	1396.71
774.01	1378.28
774.18	1341.42
774.36	1366.00
774.54	1327.08
774.71	1394.67
774.89	1273.84
775.07	1353.71
775.24	1331.18
775.42	1343.47
775.60	1425.39
775.78	1396.71
775.95	1275.88
776.13	1331.18
776.31	1302.51
776.48	1312.75
776.66	1447.91
776.84	1384.43
777.01	1345.52
777.19	1398.76
777.37	1372.14
777.54	1370.09
777.72	1490.92
777.90	1370.09
778.07	1333.23
778.25	1464.30
778.43	1312.75
778.60	1322.99
778.78	1402.86
778.96	1376.24
779.13	1282.03
779.31	1382.38
779.49	1388.52
779.66	1372.14
779.84	1353.71
780.01	1343.47
780.19	1376.24
780.37	1355.76
780.54	1388.52
780.72	1429.48
780.90	1363.95
781.07	1284.08
781.25	1361.90
781.43	1396.71
781.60	1286.12
781.78	1466.35
781.95	1402.86
782.13	1413.10
782.31	1366.00
782.48	1290.22
782.66	1347.56
782.83	1406.95
783.01	1310.70
783.19	1300.46
783.36	1378.28
783.54	1413.10
783.72	1277.93
783.89	1378.28
784.07	1345.52
784.24	1388.52
784.42	1411.05
784.60	1343.47
784.77	1331.18
784.95	1353.71
785.12	1302.51
785.30	1402.86
785.47	1345.52
785.65	1355.76
785.83	1382.38
786.00	1329.13
786.18	1409.00
786.35	1296.36
786.53	1370.09
786.71	1325.04
786.88	1316.84
787.06	1380.33
787.23	1337.32
787.41	1325.04
787.58	1314.80
787.76	1382.38
787.94	1343.47
788.11	1366.00
788.29	1388.52
788.46	1380.33
788.64	1327.08
788.81	1347.56
788.99	1368.04
789.16	1339.37
789.34	1374.19
789.52	1359.85
789.69	1406.95
789.87	1253.36
790.04	1390.57
790.22	1355.76
790.39	1503.21
790.57	1386.47
790.74	1462.25
790.92	1392.62
791.09	1296.36
791.27	1306.60
791.44	1376.24
791.62	1341.42
791.79	1419.24
791.97	1333.23
792.15	1447.91
792.32	1372.14
792.50	1406.95
792.67	1406.95
792.85	1411.05
793.02	1370.09
793.20	1273.84
793.37	1349.61
793.55	1306.60
793.72	1347.56
793.90	1421.29
794.07	1372.14
794.25	1316.84
794.42	1396.71
794.60	1335.28
794.77	1468.39
794.95	1439.72
795.12	1419.24
795.30	1370.09
795.47	1341.42
795.65	1523.69
795.82	1396.71
796.00	1378.28
796.17	1322.99
796.34	1361.90
796.52	1327.08
796.69	1374.19
796.87	1396.71
797.04	1355.76
797.22	1353.71
797.39	1341.42
797.57	1384.43
797.74	1378.28
797.92	1343.47
798.09	1366.00
798.27	1411.05
798.44	1286.12
798.62	1363.95
798.79	1419.24
798.96	1359.85
799.14	1345.52
799.31	1404.91
799.49	1382.38
799.66	1394.67
799.84	1366.00
800.01	1384.43
800.19	1372.14
800.36	1351.66
800.53	1394.67
800.71	1363.95
800.88	1409.00
801.06	1413.10
801.23	1388.52
801.41	1353.71
801.58	1372.14
801.75	1322.99
801.93	1337.32
802.10	1396.71
802.28	1343.47
802.45	1392.62
802.63	1351.66
802.80	1396.71
802.97	1359.85
803.15	1398.76
803.32	1441.77
803.50	1327.08
803.67	1286.12
803.84	1284.08
804.02	1312.75
804.19	1349.61
804.37	1339.37
804.54	1298.41
804.71	1402.86
804.89	1443.82
805.06	1339.37
805.24	1304.56
805.41	1382.38
805.58	1339.37
805.76	1415.15
805.93	1290.22
806.10	1402.86
806.28	1439.72
806.45	1337.32
806.63	1275.88
806.80	1384.43
806.97	1355.76
807.15	1411.05
807.32	1349.61
807.49	1427.43
807.67	1306.60
807.84	1439.72
808.01	1277.93
808.19	1468.39
808.36	1421.29
808.54	1361.90
808.71	1374.19
808.88	1378.28
809.06	1415.15
809.23	1429.48
809.40	1394.67
809.58	1402.86
809.75	1359.85
809.92	1273.84
810.10	1472.49
810.27	1347.56
810.44	1374.19
810.62	1384.43
810.79	1384.43
810.96	1310.70
811.14	1361.90
811.31	1423.34
811.48	1294.32
811.66	1327.08
811.83	1427.43
812.00	1392.62
812.18	1398.76
812.35	1357.80
812.52	1429.48
812.69	1333.23
812.87	1406.95
813.04	1288.17
813.21	1333.23
813.39	1417.19
813.56	1290.22
813.73	1462.25
813.91	1282.03
814.08	1406.95
814.25	1384.43
814.42	1286.12
814.60	1318.89
814.77	1396.71
814.94	1429.48
815.12	1357.80
815.29	1372.14
815.46	1312.75
815.63	1382.38
815.81	1441.77
815.98	1376.24
816.15	1388.52
816.33	1347.56
816.50	1329.13
816.67	1363.95
816.84	1396.71
817.02	1320.94
817.19	1343.47
817.36	1337.32
817.53	1419.24
817.71	1372.14
817.88	1464.30
818.05	1322.99
818.22	1345.52
818.40	1435.63
818.57	1337.32
818.74	1374.19
818.91	1363.95
819.09	1353.71
819.26	1376.24
819.43	1320.94
819.60	1325.04
819.78	1374.19
819.95	1443.82
820.12	1366.00
820.29	1347.56
820.47	1464.30
820.64	1388.52
820.81	1208.30
820.98	1306.60
821.15	1372.14
821.33	1421.29
821.50	1302.51
821.67	1363.95
821.84	1386.47
822.02	1411.05
822.19	1400.81
822.36	1337.32
822.53	1329.13
822.70	1284.08
822.88	1320.94
823.05	1437.67
823.22	1335.28
823.39	1380.33
823.56	1335.28
823.74	1388.52
823.91	1372.14
824.08	1282.03
824.25	1286.12
824.42	1402.86
824.60	1368.04
824.77	1310.70
824.94	1361.90
825.11	1357.80
825.28	1298.41
825.45	1411.05
825.63	1372.14
825.80	1316.84
825.97	1394.67
826.14	1394.67
826.31	1355.76
826.48	1361.90
826.66	1314.80
826.83	1232.88
827.00	1349.61
827.17	1415.15
827.34	1382.38
827.51	1282.03
827.69	1429.48
827.86	1261.55
828.03	1302.51
828.20	1343.47
828.37	1331.18
828.54	1308.65
828.71	1294.32
828.89	1396.71
829.06	1312.75
829.23	1359.85
829.40	1363.95
829.57	1382.38
829.74	1329.13
829.91	1282.03
830.09	1345.52
830.26	1404.91
830.43	1382.38
830.60	1400.81
830.77	1425.39
830.94	1406.95
831.11	1316.84
831.28	1361.90
831.46	1409.00
831.63	1435.63
831.80	1390.57
831.97	1374.19
832.14	1253.36
832.31	1361.90
832.48	1425.39
832.65	1386.47
832.82	1366.00
832.99	1370.09
833.17	1325.04
833.34	1495.02
833.51	1429.48
833.68	1259.50
833.85	1353.71
834.02	1343.47
834.19	1279.98
834.36	1423.34
834.53	1396.71
834.70	1374.19
834.87	1443.82
835.04	1355.76
835.22	1308.65
835.39	1400.81
835.56	1337.32
835.73	1361.90
835.90	1404.91
836.07	1343.47
836.24	1445.87
836.41	1378.28
836.58	1331.18
836.75	1349.61
836.92	1425.39
837.09	1339.37
837.26	1392.62
837.43	1355.76
837.60	1345.52
837.77	1363.95
837.94	1402.86
838.12	1374.19
838.29	1421.29
838.46	1325.04
838.63	1327.08
838.80	1394.67
838.97	1425.39
839.14	1411.05
839.31	1396.71
839.48	1380.33
839.65	1337.32
839.82	1413.10
839.99	1398.76
840.16	1380.33
840.33	1415.15
840.50	1361.90
840.67	1320.94
840.84	1257.45
841.01	1359.85
841.18	1386.47
841.35	1374.19
841.52	1470.44
841.69	1447.91
841.86	1370.09
842.03	1366.00
842.20	1396.71
842.37	1327.08
842.54	1370.09
842.71	1335.28
842.88	1370.09
843.05	1443.82
843.22	1322.99
843.39	1339.37
843.56	1300.46
843.73	1304.56
843.90	1384.43
844.07	1288.17
844.24	1437.67
844.41	1372.14
844.58	1406.95
844.75	1396.71
844.92	1294.32
845.09	1417.19
845.26	1292.27
845.43	1419.24
845.60	1357.80
845.77	1396.71
845.94	1372.14
846.10	1349.61
846.27	1306.60
846.44	1339.37
846.61	1366.00
846.78	1443.82
846.95	1413.10
847.12	1314.80
847.29	1384.43
847.46	1347.56
847.63	1370.09
847.80	1398.76
847.97	1306.60
848.14	1462.25
848.31	1421.29
848.48	1386.47
848.65	1351.66
848.82	1345.52
848.98	1476.59
849.15	1366.00
849.32	1462.25
849.49	1427.43
849.66	1429.48
849.83	1396.71
850.00	1378.28
850.17	1382.38
850.34	1386.47
850.51	1409.00
850.68	1261.55
850.85	1486.83
851.01	1308.65
851.18	1425.39
851.35	1331.18
851.52	1335.28
851.69	1386.47
851.86	1261.55
852.03	1411.05
852.20	1447.91
852.37	1376.24
852.53	1302.51
852.70	1351.66
852.87	1320.94
853.04	1404.91
853.21	1378.28
853.38	1400.81
853.55	1384.43
853.72	1421.29
853.89	1286.12
854.05	1265.64
854.22	1329.13
854.39	1357.80
854.56	1402.86
854.73	1394.67
854.90	1314.80
855.07	1409.00
855.23	1341.42
855.40	1378.28
855.57	1343.47
855.74	1351.66
855.91	1431.53
856.08	1318.89
856.25	1341.42
856.41	1290.22
856.58	1398.76
856.75	1413.10
856.92	1296.36
857.09	1275.88
857.26	1337.32
857.42	1378.28
857.59	1388.52
857.76	1392.62
857.93	1413.10
858.10	1318.89
858.27	1368.04
858.43	1347.56
858.60	1347.56
858.77	1325.04
858.94	1329.13
859.11	1372.14
859.27	1378.28
859.44	1361.90
859.61	1400.81
859.78	1357.80
859.95	1382.38
860.12	1394.67
860.28	1366.00
860.45	1370.09
860.62	1341.42
860.79	1417.19
860.95	1376.24
861.12	1318.89
861.29	1394.67
861.46	1337.32
861.63	1341.42
861.79	1349.61
861.96	1286.12
862.13	1304.56
862.30	1413.10
862.47	1351.66
862.63	1349.61
862.80	1368.04
862.97	1458.15
863.14	1437.67
863.30	1411.05
863.47	1415.15
863.64	1431.53
863.81	1394.67
863.97	1388.52
864.14	1296.36
864.31	1290.22
864.48	1386.47
864.65	1394.67
864.81	1415.15
864.98	1402.86
865.15	1419.24
865.32	1310.70
865.48	1318.89
865.65	1413.10
865.82	1337.32
865.98	1363.95
866.15	1452.01
866.32	1347.56
866.49	1312.75
866.65	1380.33
866.82	1368.04
866.99	1429.48
867.16	1427.43
867.32	1341.42
867.49	1392.62
867.66	1402.86
867.83	1339.37
867.99	1327.08
868.16	1318.89
868.33	1290.22
868.49	1339.37
868.66	1419.24
868.83	1378.28
868.99	1376.24
869.16	1388.52
869.33	1409.00
869.50	1359.85
869.66	1357.80
869.83	1306.60
870.00	1308.65
870.16	1366.00
870.33	1370.09
870.50	1300.46
870.66	1382.38
870.83	1409.00
871.00	1257.45
871.17	1335.28
871.33	1445.87
871.50	1275.88
871.67	1380.33
871.83	1331.18
872.00	1355.76
872.17	1415.15
872.33	1478.63
872.50	1341.42
872.67	1300.46
872.83	1394.67
873.00	1382.38
873.17	1331.18
873.33	1386.47
873.50	1306.60
873.67	1359.85
873.83	1333.23
874.00	1372.14
874.16	1454.06
874.33	1413.10
874.50	1372.14
874.66	1452.01
874.83	1429.48
875.00	1331.18
875.16	1404.91
875.33	1458.15
875.50	1290.22
875.66	1306.60
875.83	1394.67
875.99	1406.95
876.16	1394.67
876.33	1284.08
876.49	1345.52
876.66	1366.00
876.83	1359.85
876.99	1327.08
877.16	1402.86
877.32	1363.95
877.49	1390.57
877.66	1316.84
877.82	1388.52
877.99	1390.57
878.15	1390.57
878.32	1347.56
878.49	1406.95
878.65	1337.32
878.82	1390.57
878.98	1353.71
879.15	1382.38
879.32	1470.44
879.48	1370.09
879.65	1406.95
879.81	1435.63
879.98	1359.85
880.15	1339.37
880.31	1298.41
880.48	1347.56
880.64	1402.86
880.81	1382.38
880.97	1443.82
881.14	1411.05
881.31	1327.08
881.47	1466.35
881.64	1419.24
881.80	1275.88
881.97	1357.80
882.13	1394.67
882.30	1347.56
882.47	1355.76
882.63	1347.56
882.80	1404.91
882.96	1368.04
883.13	1419.24
883.29	1398.76
883.46	1359.85
883.62	1333.23
883.79	1462.25
883.95	1421.29
884.12	1363.95
884.29	1388.52
884.45	1341.42
884.62	1359.85
884.78	1400.81
884.95	1339.37
885.11	1298.41
885.28	1406.95
885.44	1425.39
885.61	1400.81
885.77	1439.72
885.94	1394.67
886.10	1331.18
886.27	1388.52
886.43	1427.43
886.60	1378.28
886.76	1329.13
886.93	1249.26
887.09	1386.47
887.26	1378.28
887.42	1419.24
887.59	1443.82
887.75	1415.15
887.92	1425.39
888.08	1466.35
888.25	1404.91
888.41	1480.68
888.58	1345.52
888.74	1398.76
888.91	1335.28
>>>>>End Processed Spectral Data<<<<<
