SpectraSuite Data File
++++++++++++++++++++++++++++++++++++
Date: Tue May 03 11:24:45 CEST 2016
User: root
Dark Spectrum Present: No
Reference Spectrum Present: No
Number of Sampled Component Spectra: 1
Spectrometers: USB4C02835
Integration Time (usec): 100000 (USB4C02835)
Spectra Averaged: 1 (USB4C02835)
Boxcar Smoothing: 0 (USB4C02835)
Correct for Electrical Dark: No (USB4C02835)
Strobe/Lamp Enabled: No (USB4C02835)
Correct for Detector Non-linearity: No (USB4C02835)
Correct for Stray Light: No (USB4C02835)
Number of Pixels in Processed Spectrum: 3648
>>>>>Begin Processed Spectral Data<<<<<
177.47	1241.07
177.69	1241.07
177.91	1241.07
178.13	1175.53
178.36	1183.73
178.58	1312.75
178.80	1343.47
179.02	1370.09
179.24	1275.88
179.46	1388.52
179.68	1372.14
179.90	1392.62
180.13	1402.86
180.35	1337.32
180.57	1337.32
180.79	1306.60
181.01	1294.32
181.23	1357.80
181.45	1413.10
181.67	1316.84
181.90	1423.34
182.12	1296.36
182.34	1296.36
182.56	1347.56
182.78	1327.08
183.00	1351.66
183.22	1310.70
183.44	1310.70
183.66	1447.91
183.89	1382.38
184.11	1316.84
184.33	1394.67
184.55	1415.15
184.77	1439.72
184.99	1374.19
185.21	1396.71
185.43	1419.24
185.65	1273.84
185.87	1337.32
186.10	1396.71
186.32	1429.48
186.54	1431.53
186.76	1363.95
186.98	1400.81
187.20	1363.95
187.42	1327.08
187.64	1378.28
187.86	1409.00
188.08	1325.04
188.30	1329.13
188.52	1347.56
188.75	1456.11
188.97	1388.52
189.19	1337.32
189.41	1384.43
189.63	1349.61
189.85	1325.04
190.07	1316.84
190.29	1337.32
190.51	1411.05
190.73	1312.75
190.95	1355.76
191.17	1396.71
191.39	1318.89
191.61	1325.04
191.84	1327.08
192.06	1421.29
192.28	1310.70
192.50	1437.67
192.72	1335.28
192.94	1370.09
193.16	1355.76
193.38	1445.87
193.60	1263.60
193.82	1378.28
194.04	1478.63
194.26	1349.61
194.48	1376.24
194.70	1413.10
194.92	1345.52
195.14	1421.29
195.36	1329.13
195.58	1378.28
195.80	1331.18
196.02	1343.47
196.24	1351.66
196.46	1331.18
196.69	1271.79
196.91	1490.92
197.13	1404.91
197.35	1339.37
197.57	1439.72
197.79	1406.95
198.01	1413.10
198.23	1380.33
198.45	1380.33
198.67	1329.13
198.89	1368.04
199.11	1320.94
199.33	1388.52
199.55	1337.32
199.77	1349.61
199.99	1449.96
200.21	1374.19
200.43	1376.24
200.65	1263.60
200.87	1292.27
201.09	1398.76
201.31	1378.28
201.53	1406.95
201.75	1335.28
201.97	1351.66
202.19	1402.86
202.41	1400.81
202.63	1427.43
202.85	1427.43
203.07	1449.96
203.29	1441.77
203.51	1267.69
203.73	1353.71
203.95	1478.63
204.17	1425.39
204.39	1310.70
204.61	1353.71
204.83	1404.91
205.05	1427.43
205.27	1449.96
205.49	1449.96
205.71	1396.71
205.93	1361.90
206.15	1273.84
206.37	1425.39
206.59	1382.38
206.81	1306.60
207.03	1404.91
207.25	1384.43
207.47	1380.33
207.69	1322.99
207.91	1466.35
208.13	1404.91
208.34	1423.34
208.56	1329.13
208.78	1370.09
209.00	1300.46
209.22	1363.95
209.44	1374.19
209.66	1277.93
209.88	1370.09
210.10	1343.47
210.32	1339.37
210.54	1398.76
210.76	1333.23
210.98	1404.91
211.20	1322.99
211.42	1345.52
211.64	1388.52
211.86	1404.91
212.08	1396.71
212.30	1366.00
212.52	1298.41
212.74	1329.13
212.96	1353.71
213.17	1398.76
213.39	1433.58
213.61	1435.63
213.83	1392.62
214.05	1343.47
214.27	1351.66
214.49	1363.95
214.71	1357.80
214.93	1443.82
215.15	1320.94
215.37	1388.52
215.59	1320.94
215.81	1374.19
216.03	1413.10
216.24	1325.04
216.46	1322.99
216.68	1357.80
216.90	1355.76
217.12	1386.47
217.34	1386.47
217.56	1347.56
217.78	1417.19
218.00	1421.29
218.22	1400.81
218.44	1404.91
218.66	1331.18
218.87	1413.10
219.09	1370.09
219.31	1452.01
219.53	1322.99
219.75	1310.70
219.97	1284.08
220.19	1339.37
220.41	1419.24
220.63	1421.29
220.85	1374.19
221.06	1406.95
221.28	1429.48
221.50	1388.52
221.72	1406.95
221.94	1433.58
222.16	1341.42
222.38	1341.42
222.60	1376.24
222.82	1327.08
223.03	1431.53
223.25	1361.90
223.47	1386.47
223.69	1413.10
223.91	1441.77
224.13	1386.47
224.35	1320.94
224.57	1431.53
224.78	1339.37
225.00	1361.90
225.22	1320.94
225.44	1273.84
225.66	1353.71
225.88	1314.80
226.10	1363.95
226.32	1370.09
226.53	1388.52
226.75	1372.14
226.97	1310.70
227.19	1370.09
227.41	1331.18
227.63	1314.80
227.85	1333.23
228.06	1341.42
228.28	1331.18
228.50	1341.42
228.72	1378.28
228.94	1376.24
229.16	1265.64
229.37	1353.71
229.59	1296.36
229.81	1445.87
230.03	1312.75
230.25	1261.55
230.47	1296.36
230.69	1310.70
230.90	1404.91
231.12	1341.42
231.34	1409.00
231.56	1351.66
231.78	1312.75
232.00	1347.56
232.21	1415.15
232.43	1372.14
232.65	1339.37
232.87	1347.56
233.09	1329.13
233.30	1310.70
233.52	1421.29
233.74	1349.61
233.96	1310.70
234.18	1458.15
234.40	1359.85
234.61	1392.62
234.83	1333.23
235.05	1335.28
235.27	1492.97
235.49	1439.72
235.70	1409.00
235.92	1421.29
236.14	1378.28
236.36	1484.78
236.58	1363.95
236.79	1468.39
237.01	1343.47
237.23	1370.09
237.45	1433.58
237.67	1306.60
237.88	1413.10
238.10	1443.82
238.32	1359.85
238.54	1310.70
238.76	1372.14
238.97	1339.37
239.19	1351.66
239.41	1390.57
239.63	1439.72
239.85	1345.52
240.06	1386.47
240.28	1312.75
240.50	1437.67
240.72	1361.90
240.93	1337.32
241.15	1460.20
241.37	1259.50
241.59	1382.38
241.81	1384.43
242.02	1331.18
242.24	1357.80
242.46	1370.09
242.68	1304.56
242.89	1380.33
243.11	1382.38
243.33	1366.00
243.55	1460.20
243.76	1386.47
243.98	1298.41
244.20	1333.23
244.42	1333.23
244.64	1386.47
244.85	1329.13
245.07	1290.22
245.29	1400.81
245.51	1343.47
245.72	1433.58
245.94	1370.09
246.16	1368.04
246.38	1433.58
246.59	1339.37
246.81	1294.32
247.03	1382.38
247.24	1257.45
247.46	1312.75
247.68	1419.24
247.90	1343.47
248.11	1277.93
248.33	1357.80
248.55	1345.52
248.77	1452.01
248.98	1372.14
249.20	1404.91
249.42	1429.48
249.64	1335.28
249.85	1339.37
250.07	1368.04
250.29	1382.38
250.50	1374.19
250.72	1337.32
250.94	1392.62
251.16	1429.48
251.37	1454.06
251.59	1378.28
251.81	1409.00
252.02	1425.39
252.24	1370.09
252.46	1339.37
252.68	1339.37
252.89	1329.13
253.11	1273.84
253.33	1404.91
253.54	1359.85
253.76	1327.08
253.98	1351.66
254.20	1347.56
254.41	1318.89
254.63	1318.89
254.85	1392.62
255.06	1306.60
255.28	1335.28
255.50	1388.52
255.71	1337.32
255.93	1411.05
256.15	1351.66
256.36	1359.85
256.58	1353.71
256.80	1423.34
257.02	1320.94
257.23	1363.95
257.45	1417.19
257.67	1447.91
257.88	1308.65
258.10	1445.87
258.32	1322.99
258.53	1423.34
258.75	1376.24
258.97	1380.33
259.18	1433.58
259.40	1376.24
259.62	1402.86
259.83	1421.29
260.05	1406.95
260.27	1509.35
260.48	1388.52
260.70	1329.13
260.92	1456.11
261.13	1404.91
261.35	1363.95
261.57	1415.15
261.78	1341.42
262.00	1374.19
262.22	1361.90
262.43	1343.47
262.65	1333.23
262.86	1320.94
263.08	1431.53
263.30	1349.61
263.51	1341.42
263.73	1349.61
263.95	1335.28
264.16	1314.80
264.38	1329.13
264.60	1417.19
264.81	1361.90
265.03	1445.87
265.25	1404.91
265.46	1355.76
265.68	1376.24
265.89	1384.43
266.11	1279.98
266.33	1425.39
266.54	1419.24
266.76	1390.57
266.98	1396.71
267.19	1406.95
267.41	1468.39
267.62	1343.47
267.84	1296.36
268.06	1363.95
268.27	1398.76
268.49	1417.19
268.70	1327.08
268.92	1331.18
269.14	1322.99
269.35	1296.36
269.57	1359.85
269.79	1376.24
270.00	1372.14
270.22	1474.54
270.43	1429.48
270.65	1314.80
270.87	1355.76
271.08	1349.61
271.30	1382.38
271.51	1396.71
271.73	1335.28
271.95	1380.33
272.16	1372.14
272.38	1363.95
272.59	1282.03
272.81	1378.28
273.02	1376.24
273.24	1478.63
273.46	1437.67
273.67	1327.08
273.89	1343.47
274.10	1363.95
274.32	1392.62
274.54	1337.32
274.75	1398.76
274.97	1411.05
275.18	1419.24
275.40	1392.62
275.61	1368.04
275.83	1366.00
276.05	1269.74
276.26	1337.32
276.48	1390.57
276.69	1390.57
276.91	1447.91
277.12	1411.05
277.34	1454.06
277.55	1370.09
277.77	1345.52
277.99	1400.81
278.20	1282.03
278.42	1335.28
278.63	1376.24
278.85	1318.89
279.06	1378.28
279.28	1345.52
279.49	1419.24
279.71	1316.84
279.93	1419.24
280.14	1325.04
280.36	1415.15
280.57	1429.48
280.79	1314.80
281.00	1341.42
281.22	1351.66
281.43	1404.91
281.65	1372.14
281.86	1331.18
282.08	1400.81
282.29	1404.91
282.51	1304.56
282.73	1300.46
282.94	1353.71
283.16	1366.00
283.37	1456.11
283.59	1374.19
283.80	1306.60
284.02	1359.85
284.23	1378.28
284.45	1394.67
284.66	1366.00
284.88	1447.91
285.09	1429.48
285.31	1320.94
285.52	1345.52
285.74	1331.18
285.95	1423.34
286.17	1439.72
286.38	1421.29
286.60	1363.95
286.81	1392.62
287.03	1368.04
287.24	1368.04
287.46	1384.43
287.67	1316.84
287.89	1372.14
288.10	1361.90
288.32	1359.85
288.53	1394.67
288.75	1337.32
288.96	1339.37
289.18	1314.80
289.39	1382.38
289.61	1353.71
289.82	1472.49
290.04	1458.15
290.25	1325.04
290.47	1339.37
290.68	1322.99
290.90	1392.62
291.11	1320.94
291.33	1400.81
291.54	1376.24
291.76	1349.61
291.97	1357.80
292.18	1384.43
292.40	1296.36
292.61	1298.41
292.83	1466.35
293.04	1380.33
293.26	1302.51
293.47	1292.27
293.69	1353.71
293.90	1394.67
294.12	1402.86
294.33	1341.42
294.55	1458.15
294.76	1482.73
294.97	1415.15
295.19	1421.29
295.40	1308.65
295.62	1370.09
295.83	1458.15
296.05	1386.47
296.26	1425.39
296.48	1372.14
296.69	1322.99
296.90	1347.56
297.12	1361.90
297.33	1449.96
297.55	1329.13
297.76	1370.09
297.98	1341.42
298.19	1402.86
298.41	1380.33
298.62	1279.98
298.83	1388.52
299.05	1394.67
299.26	1316.84
299.48	1359.85
299.69	1329.13
299.90	1411.05
300.12	1349.61
300.33	1398.76
300.55	1419.24
300.76	1380.33
300.98	1312.75
301.19	1435.63
301.40	1335.28
301.62	1378.28
301.83	1421.29
302.05	1347.56
302.26	1300.46
302.47	1413.10
302.69	1331.18
302.90	1380.33
303.12	1277.93
303.33	1382.38
303.54	1378.28
303.76	1388.52
303.97	1445.87
304.19	1370.09
304.40	1423.34
304.61	1394.67
304.83	1435.63
305.04	1443.82
305.26	1341.42
305.47	1349.61
305.68	1337.32
305.90	1267.69
306.11	1404.91
306.33	1357.80
306.54	1322.99
306.75	1366.00
306.97	1275.88
307.18	1286.12
307.39	1382.38
307.61	1353.71
307.82	1273.84
308.04	1454.06
308.25	1322.99
308.46	1447.91
308.68	1368.04
308.89	1429.48
309.10	1406.95
309.32	1411.05
309.53	1452.01
309.74	1382.38
309.96	1404.91
310.17	1435.63
310.39	1296.36
310.60	1423.34
310.81	1347.56
311.03	1312.75
311.24	1318.89
311.45	1363.95
311.67	1464.30
311.88	1374.19
312.09	1351.66
312.31	1322.99
312.52	1331.18
312.73	1413.10
312.95	1347.56
313.16	1298.41
313.37	1433.58
313.59	1423.34
313.80	1359.85
314.01	1443.82
314.23	1411.05
314.44	1378.28
314.65	1269.74
314.87	1341.42
315.08	1341.42
315.29	1421.29
315.51	1294.32
315.72	1329.13
315.93	1380.33
316.15	1398.76
316.36	1368.04
316.57	1357.80
316.79	1429.48
317.00	1318.89
317.21	1374.19
317.43	1355.76
317.64	1298.41
317.85	1417.19
318.07	1449.96
318.28	1468.39
318.49	1546.22
318.70	1658.85
318.92	1556.46
319.13	1521.64
319.34	1476.59
319.56	1472.49
319.77	1460.20
319.98	1443.82
320.20	1503.21
320.41	1458.15
320.62	1435.63
320.83	1333.23
321.05	1513.45
321.26	1421.29
321.47	1411.05
321.69	1329.13
321.90	1351.66
322.11	1363.95
322.32	1394.67
322.54	1359.85
322.75	1376.24
322.96	1409.00
323.18	1267.69
323.39	1361.90
323.60	1312.75
323.81	1392.62
324.03	1380.33
324.24	1314.80
324.45	1353.71
324.66	1331.18
324.88	1437.67
325.09	1372.14
325.30	1368.04
325.52	1390.57
325.73	1388.52
325.94	1290.22
326.15	1333.23
326.37	1396.71
326.58	1325.04
326.79	1433.58
327.00	1347.56
327.22	1341.42
327.43	1343.47
327.64	1382.38
327.85	1386.47
328.07	1298.41
328.28	1445.87
328.49	1357.80
328.70	1331.18
328.92	1355.76
329.13	1318.89
329.34	1363.95
329.55	1427.43
329.76	1452.01
329.98	1359.85
330.19	1460.20
330.40	1429.48
330.61	1339.37
330.83	1378.28
331.04	1345.52
331.25	1331.18
331.46	1380.33
331.68	1275.88
331.89	1372.14
332.10	1378.28
332.31	1322.99
332.52	1372.14
332.74	1435.63
332.95	1386.47
333.16	1441.77
333.37	1378.28
333.58	1378.28
333.80	1353.71
334.01	1294.32
334.22	1298.41
334.43	1325.04
334.64	1341.42
334.86	1329.13
335.07	1327.08
335.28	1386.47
335.49	1398.76
335.70	1378.28
335.92	1417.19
336.13	1452.01
336.34	1404.91
336.55	1413.10
336.76	1353.71
336.98	1306.60
337.19	1396.71
337.40	1411.05
337.61	1372.14
337.82	1376.24
338.04	1433.58
338.25	1277.93
338.46	1318.89
338.67	1277.93
338.88	1329.13
339.09	1361.90
339.31	1318.89
339.52	1257.45
339.73	1257.45
339.94	1443.82
340.15	1464.30
340.36	1327.08
340.58	1378.28
340.79	1347.56
341.00	1382.38
341.21	1308.65
341.42	1439.72
341.63	1370.09
341.85	1349.61
342.06	1437.67
342.27	1372.14
342.48	1392.62
342.69	1310.70
342.90	1368.04
343.12	1304.56
343.33	1394.67
343.54	1413.10
343.75	1388.52
343.96	1308.65
344.17	1318.89
344.38	1380.33
344.60	1306.60
344.81	1386.47
345.02	1351.66
345.23	1437.67
345.44	1468.39
345.65	1423.34
345.86	1437.67
346.07	1308.65
346.29	1322.99
346.50	1392.62
346.71	1382.38
346.92	1384.43
347.13	1380.33
347.34	1374.19
347.55	1357.80
347.76	1374.19
347.98	1333.23
348.19	1431.53
348.40	1421.29
348.61	1304.56
348.82	1413.10
349.03	1368.04
349.24	1378.28
349.45	1421.29
349.66	1320.94
349.88	1452.01
350.09	1318.89
350.30	1357.80
350.51	1411.05
350.72	1351.66
350.93	1406.95
351.14	1449.96
351.35	1325.04
351.56	1322.99
351.77	1431.53
351.99	1378.28
352.20	1425.39
352.41	1310.70
352.62	1343.47
352.83	1404.91
353.04	1433.58
353.25	1337.32
353.46	1484.78
353.67	1318.89
353.88	1351.66
354.09	1239.02
354.30	1429.48
354.52	1343.47
354.73	1351.66
354.94	1337.32
355.15	1339.37
355.36	1406.95
355.57	1306.60
355.78	1355.76
355.99	1343.47
356.20	1265.64
356.41	1425.39
356.62	1392.62
356.83	1368.04
357.04	1361.90
357.25	1353.71
357.46	1312.75
357.68	1396.71
357.89	1355.76
358.10	1382.38
358.31	1361.90
358.52	1374.19
358.73	1361.90
358.94	1353.71
359.15	1316.84
359.36	1396.71
359.57	1320.94
359.78	1368.04
359.99	1380.33
360.20	1404.91
360.41	1361.90
360.62	1386.47
360.83	1402.86
361.04	1386.47
361.25	1320.94
361.46	1421.29
361.67	1320.94
361.88	1351.66
362.09	1368.04
362.30	1388.52
362.51	1351.66
362.72	1413.10
362.93	1376.24
363.14	1476.59
363.35	1372.14
363.56	1308.65
363.78	1429.48
363.99	1411.05
364.20	1337.32
364.41	1409.00
364.62	1478.63
364.83	1402.86
365.04	1378.28
365.25	1394.67
365.46	1466.35
365.67	1316.84
365.88	1343.47
366.09	1386.47
366.30	1339.37
366.51	1363.95
366.72	1343.47
366.93	1304.56
367.14	1370.09
367.35	1392.62
367.56	1359.85
367.77	1429.48
367.98	1263.60
368.18	1343.47
368.39	1402.86
368.60	1292.27
368.81	1456.11
369.02	1390.57
369.23	1368.04
369.44	1406.95
369.65	1275.88
369.86	1396.71
370.07	1411.05
370.28	1355.76
370.49	1421.29
370.70	1384.43
370.91	1386.47
371.12	1390.57
371.33	1458.15
371.54	1300.46
371.75	1419.24
371.96	1294.32
372.17	1366.00
372.38	1378.28
372.59	1361.90
372.80	1259.50
373.01	1425.39
373.22	1372.14
373.43	1406.95
373.64	1337.32
373.85	1386.47
374.06	1382.38
374.26	1404.91
374.47	1306.60
374.68	1396.71
374.89	1347.56
375.10	1370.09
375.31	1347.56
375.52	1335.28
375.73	1366.00
375.94	1398.76
376.15	1421.29
376.36	1335.28
376.57	1286.12
376.78	1341.42
376.99	1355.76
377.20	1454.06
377.40	1386.47
377.61	1435.63
377.82	1398.76
378.03	1482.73
378.24	1331.18
378.45	1380.33
378.66	1390.57
378.87	1345.52
379.08	1290.22
379.29	1351.66
379.50	1368.04
379.71	1366.00
379.91	1349.61
380.12	1370.09
380.33	1380.33
380.54	1347.56
380.75	1275.88
380.96	1353.71
381.17	1404.91
381.38	1445.87
381.59	1400.81
381.80	1486.83
382.00	1470.44
382.21	1376.24
382.42	1415.15
382.63	1490.92
382.84	1409.00
383.05	1402.86
383.26	1439.72
383.47	1437.67
383.68	1449.96
383.88	1427.43
384.09	1423.34
384.30	1482.73
384.51	1392.62
384.72	1343.47
384.93	1355.76
385.14	1402.86
385.35	1423.34
385.55	1339.37
385.76	1458.15
385.97	1372.14
386.18	1325.04
386.39	1366.00
386.60	1415.15
386.81	1353.71
387.02	1353.71
387.22	1363.95
387.43	1542.12
387.64	1636.33
387.85	2267.10
388.06	5701.54
388.27	9551.73
388.48	11491.15
388.68	13037.37
388.89	13276.98
389.10	10624.86
389.31	9201.52
389.52	8241.03
389.73	7382.93
389.93	6942.61
390.14	6500.25
390.35	5978.02
390.56	5492.65
390.77	4597.69
390.98	3637.19
391.18	2957.27
391.39	2291.68
391.60	1654.76
391.81	1542.12
392.02	1368.04
392.23	1527.78
392.43	1404.91
392.64	1376.24
392.85	1419.24
393.06	1374.19
393.27	1462.25
393.47	1345.52
393.68	1329.13
393.89	1359.85
394.10	1413.10
394.31	1310.70
394.52	1392.62
394.72	1402.86
394.93	1429.48
395.14	1349.61
395.35	1355.76
395.56	1368.04
395.76	1521.64
395.97	1515.50
396.18	1605.61
396.39	1617.90
396.60	1693.67
396.80	1599.46
397.01	1495.02
397.22	1529.83
397.43	1505.26
397.64	1415.15
397.84	1499.11
398.05	1511.40
398.26	1427.43
398.47	1482.73
398.67	1443.82
398.88	1368.04
399.09	1398.76
399.30	1335.28
399.51	1509.35
399.71	1351.66
399.92	1380.33
400.13	1349.61
400.34	1357.80
400.54	1259.50
400.75	1419.24
400.96	1353.71
401.17	1322.99
401.37	1445.87
401.58	1409.00
401.79	1529.83
402.00	1687.53
402.21	1740.77
402.41	1796.07
402.62	1824.74
402.83	1720.29
403.04	1656.81
403.24	1765.35
403.45	1601.51
403.66	1660.90
403.87	1513.45
404.07	1474.54
404.28	1566.70
404.49	1509.35
404.70	1435.63
404.90	1521.64
405.11	1417.19
405.32	1374.19
405.52	1386.47
405.73	1329.13
405.94	1357.80
406.15	1406.95
406.35	1378.28
406.56	1380.33
406.77	1331.18
406.98	1368.04
407.18	1390.57
407.39	1368.04
407.60	1361.90
407.80	1468.39
408.01	1363.95
408.22	1372.14
408.43	1363.95
408.63	1411.05
408.84	1415.15
409.05	1409.00
409.25	1327.08
409.46	1337.32
409.67	1386.47
409.88	1431.53
410.08	1347.56
410.29	1400.81
410.50	1437.67
410.70	1388.52
410.91	1271.79
411.12	1398.76
411.32	1417.19
411.53	1460.20
411.74	1482.73
411.95	1445.87
412.15	1406.95
412.36	1492.97
412.57	1452.01
412.77	1439.72
412.98	1398.76
413.19	1337.32
413.39	1435.63
413.60	1363.95
413.81	1480.68
414.01	1456.11
414.22	1513.45
414.43	1417.19
414.63	1380.33
414.84	1492.97
415.05	1374.19
415.25	1308.65
415.46	1378.28
415.67	1320.94
415.87	1417.19
416.08	1415.15
416.29	1398.76
416.49	1437.67
416.70	1302.51
416.91	1288.17
417.11	1368.04
417.32	1415.15
417.53	1406.95
417.73	1435.63
417.94	1302.51
418.15	1394.67
418.35	1429.48
418.56	1374.19
418.77	1398.76
418.97	1359.85
419.18	1390.57
419.38	1363.95
419.59	1327.08
419.80	1347.56
420.00	1318.89
420.21	1394.67
420.42	1384.43
420.62	1402.86
420.83	1339.37
421.04	1312.75
421.24	1378.28
421.45	1396.71
421.65	1462.25
421.86	1296.36
422.07	1357.80
422.27	1419.24
422.48	1374.19
422.69	1454.06
422.89	1363.95
423.10	1429.48
423.30	1320.94
423.51	1411.05
423.72	1296.36
423.92	1353.71
424.13	1335.28
424.33	1366.00
424.54	1437.67
424.75	1417.19
424.95	1359.85
425.16	1357.80
425.36	1322.99
425.57	1415.15
425.78	1378.28
425.98	1357.80
426.19	1390.57
426.39	1335.28
426.60	1411.05
426.81	1472.49
427.01	1335.28
427.22	1318.89
427.42	1351.66
427.63	1292.27
427.83	1372.14
428.04	1447.91
428.25	1406.95
428.45	1435.63
428.66	1402.86
428.86	1388.52
429.07	1343.47
429.28	1347.56
429.48	1368.04
429.69	1357.80
429.89	1388.52
430.10	1361.90
430.30	1398.76
430.51	1411.05
430.71	1390.57
430.92	1314.80
431.13	1370.09
431.33	1396.71
431.54	1347.56
431.74	1454.06
431.95	1345.52
432.15	1322.99
432.36	1347.56
432.56	1374.19
432.77	1443.82
432.98	1406.95
433.18	1390.57
433.39	1335.28
433.59	1411.05
433.80	1425.39
434.00	1370.09
434.21	1355.76
434.41	1331.18
434.62	1402.86
434.82	1366.00
435.03	1337.32
435.23	1286.12
435.44	1366.00
435.64	1417.19
435.85	1374.19
436.06	1359.85
436.26	1380.33
436.47	1456.11
436.67	1341.42
436.88	1339.37
437.08	1423.34
437.29	1411.05
437.49	1456.11
437.70	1363.95
437.90	1316.84
438.11	1466.35
438.31	1583.08
438.52	1513.45
438.72	1552.36
438.93	1611.75
439.13	1492.97
439.34	1482.73
439.54	1441.77
439.75	1552.36
439.95	1388.52
440.16	1388.52
440.36	1419.24
440.57	1406.95
440.77	1421.29
440.98	1415.15
441.18	1351.66
441.39	1384.43
441.59	1341.42
441.80	1439.72
442.00	1353.71
442.21	1380.33
442.41	1363.95
442.62	1421.29
442.82	1357.80
443.02	1388.52
443.23	1415.15
443.43	1300.46
443.64	1466.35
443.84	1339.37
444.05	1456.11
444.25	1413.10
444.46	1300.46
444.66	1355.76
444.87	1460.20
445.07	1275.88
445.28	1306.60
445.48	1429.48
445.69	1423.34
445.89	1458.15
446.09	1503.21
446.30	2226.14
446.50	3647.43
446.71	4669.37
446.91	5375.92
447.12	5595.05
447.32	4919.22
447.53	4149.18
447.73	3794.89
447.93	3485.64
448.14	3239.89
448.34	2942.93
448.55	2850.77
448.75	2822.10
448.96	2756.57
449.16	2371.55
449.36	2295.77
449.57	1931.23
449.77	1656.81
449.98	1525.74
450.18	1519.59
450.39	1447.91
450.59	1454.06
450.79	1327.08
451.00	1322.99
451.20	1380.33
451.41	1406.95
451.61	1378.28
451.81	1419.24
452.02	1343.47
452.22	1304.56
452.43	1417.19
452.63	1320.94
452.84	1353.71
453.04	1314.80
453.24	1376.24
453.45	1363.95
453.65	1433.58
453.86	1427.43
454.06	1452.01
454.26	1378.28
454.47	1306.60
454.67	1421.29
454.87	1355.76
455.08	1368.04
455.28	1499.11
455.49	1390.57
455.69	1427.43
455.89	1402.86
456.10	1449.96
456.30	1378.28
456.51	1404.91
456.71	1378.28
456.91	1390.57
457.12	1374.19
457.32	1404.91
457.52	1368.04
457.73	1378.28
457.93	1374.19
458.14	1308.65
458.34	1370.09
458.54	1357.80
458.75	1322.99
458.95	1361.90
459.15	1372.14
459.36	1439.72
459.56	1415.15
459.76	1423.34
459.97	1357.80
460.17	1304.56
460.37	1443.82
460.58	1429.48
460.78	1394.67
460.99	1384.43
461.19	1359.85
461.39	1335.28
461.60	1404.91
461.80	1480.68
462.00	1327.08
462.21	1302.51
462.41	1384.43
462.61	1333.23
462.82	1312.75
463.02	1298.41
463.22	1380.33
463.43	1380.33
463.63	1374.19
463.83	1388.52
464.04	1400.81
464.24	1380.33
464.44	1368.04
464.64	1329.13
464.85	1396.71
465.05	1388.52
465.25	1392.62
465.46	1376.24
465.66	1396.71
465.86	1417.19
466.07	1357.80
466.27	1353.71
466.47	1378.28
466.68	1292.27
466.88	1433.58
467.08	1439.72
467.29	1404.91
467.49	1329.13
467.69	1359.85
467.89	1351.66
468.10	1495.02
468.30	1372.14
468.50	1435.63
468.71	1355.76
468.91	1359.85
469.11	1454.06
469.31	1333.23
469.52	1366.00
469.72	1462.25
469.92	1466.35
470.13	1468.39
470.33	1486.83
470.53	1665.00
470.73	2047.97
470.94	2273.25
471.14	2346.97
471.34	2473.95
471.54	2213.85
471.75	1920.99
471.95	1902.56
472.15	1826.79
472.36	1871.84
472.56	1871.84
472.76	1783.78
472.96	1646.57
473.17	1644.52
473.37	1650.66
473.57	1482.73
473.77	1535.98
473.98	1406.95
474.18	1361.90
474.38	1490.92
474.58	1443.82
474.79	1361.90
474.99	1398.76
475.19	1402.86
475.39	1333.23
475.60	1435.63
475.80	1409.00
476.00	1347.56
476.20	1372.14
476.41	1372.14
476.61	1376.24
476.81	1452.01
477.01	1343.47
477.21	1468.39
477.42	1435.63
477.62	1314.80
477.82	1445.87
478.02	1388.52
478.23	1378.28
478.43	1325.04
478.63	1445.87
478.83	1402.86
479.03	1386.47
479.24	1404.91
479.44	1478.63
479.64	1337.32
479.84	1296.36
480.04	1413.10
480.25	1404.91
480.45	1337.32
480.65	1378.28
480.85	1394.67
481.06	1329.13
481.26	1394.67
481.46	1380.33
481.66	1396.71
481.86	1322.99
482.06	1417.19
482.27	1404.91
482.47	1337.32
482.67	1441.77
482.87	1368.04
483.07	1472.49
483.28	1392.62
483.48	1357.80
483.68	1320.94
483.88	1366.00
484.08	1325.04
484.29	1290.22
484.49	1345.52
484.69	1347.56
484.89	1443.82
485.09	1429.48
485.29	1435.63
485.50	1411.05
485.70	1359.85
485.90	1417.19
486.10	1316.84
486.30	1378.28
486.50	1441.77
486.71	1402.86
486.91	1394.67
487.11	1394.67
487.31	1322.99
487.51	1411.05
487.71	1339.37
487.91	1327.08
488.12	1359.85
488.32	1306.60
488.52	1355.76
488.72	1331.18
488.92	1363.95
489.12	1376.24
489.32	1417.19
489.53	1378.28
489.73	1370.09
489.93	1417.19
490.13	1396.71
490.33	1312.75
490.53	1353.71
490.73	1404.91
490.94	1267.69
491.14	1443.82
491.34	1568.74
491.54	2226.14
491.74	2617.30
491.94	3000.27
492.14	3108.82
492.34	2920.40
492.54	2594.78
492.75	2322.40
492.95	2281.44
493.15	2033.63
493.35	2002.91
493.55	1966.05
493.75	1884.13
493.95	1929.19
494.15	1746.92
494.35	1642.47
494.56	1654.76
494.76	1540.07
494.96	1490.92
495.16	1495.02
495.36	1413.10
495.56	1447.91
495.76	1351.66
495.96	1382.38
496.16	1378.28
496.36	1499.11
496.56	1396.71
496.77	1409.00
496.97	1374.19
497.17	1357.80
497.37	1279.98
497.57	1419.24
497.77	1386.47
497.97	1347.56
498.17	1409.00
498.37	1304.56
498.57	1421.29
498.77	1333.23
498.97	1361.90
499.17	1404.91
499.38	1339.37
499.58	1402.86
499.78	1439.72
499.98	1406.95
500.18	1388.52
500.38	1460.20
500.58	1683.43
500.78	2977.75
500.98	5545.90
501.18	6852.50
501.38	8200.07
501.58	8515.45
501.78	7327.63
501.98	5789.61
502.18	5109.68
502.38	4503.48
502.58	4140.99
502.78	3776.45
502.98	3645.38
503.18	3612.62
503.38	3469.26
503.59	3022.80
503.79	2785.24
503.99	2519.00
504.19	2387.93
504.39	2195.42
504.59	2045.92
504.79	1959.91
504.99	1853.41
505.19	1595.37
505.39	1587.18
505.59	1611.75
505.79	1593.32
505.99	1523.69
506.19	1515.50
506.39	1482.73
506.59	1556.46
506.79	1484.78
506.99	1535.98
507.19	1449.96
507.39	1435.63
507.59	1339.37
507.79	1327.08
507.99	1349.61
508.19	1386.47
508.39	1404.91
508.59	1355.76
508.79	1431.53
508.99	1437.67
509.19	1372.14
509.39	1441.77
509.59	1370.09
509.79	1286.12
509.99	1392.62
510.19	1411.05
510.39	1363.95
510.59	1372.14
510.79	1320.94
510.99	1302.51
511.19	1372.14
511.39	1417.19
511.59	1318.89
511.79	1411.05
511.99	1394.67
512.19	1402.86
512.38	1372.14
512.58	1376.24
512.78	1411.05
512.98	1341.42
513.18	1433.58
513.38	1335.28
513.58	1406.95
513.78	1359.85
513.98	1318.89
514.18	1409.00
514.38	1282.03
514.58	1421.29
514.78	1400.81
514.98	1312.75
515.18	1345.52
515.38	1374.19
515.58	1425.39
515.78	1398.76
515.98	1413.10
516.18	1458.15
516.38	1355.76
516.57	1386.47
516.77	1290.22
516.97	1386.47
517.17	1370.09
517.37	1333.23
517.57	1361.90
517.77	1374.19
517.97	1314.80
518.17	1429.48
518.37	1312.75
518.57	1343.47
518.77	1329.13
518.97	1413.10
519.16	1363.95
519.36	1415.15
519.56	1374.19
519.76	1341.42
519.96	1386.47
520.16	1435.63
520.36	1374.19
520.56	1404.91
520.76	1372.14
520.96	1390.57
521.16	1382.38
521.35	1429.48
521.55	1409.00
521.75	1386.47
521.95	1380.33
522.15	1398.76
522.35	1275.88
522.55	1427.43
522.75	1320.94
522.95	1376.24
523.14	1316.84
523.34	1314.80
523.54	1351.66
523.74	1396.71
523.94	1382.38
524.14	1306.60
524.34	1409.00
524.54	1394.67
524.73	1398.76
524.93	1376.24
525.13	1363.95
525.33	1382.38
525.53	1417.19
525.73	1382.38
525.93	1255.40
526.13	1279.98
526.32	1339.37
526.52	1439.72
526.72	1363.95
526.92	1355.76
527.12	1380.33
527.32	1320.94
527.52	1384.43
527.71	1359.85
527.91	1341.42
528.11	1329.13
528.31	1447.91
528.51	1359.85
528.71	1394.67
528.90	1361.90
529.10	1425.39
529.30	1527.78
529.50	1308.65
529.70	1417.19
529.90	1380.33
530.09	1359.85
530.29	1363.95
530.49	1345.52
530.69	1398.76
530.89	1343.47
531.09	1341.42
531.28	1333.23
531.48	1368.04
531.68	1331.18
531.88	1462.25
532.08	1482.73
532.28	1462.25
532.47	1386.47
532.67	1429.48
532.87	1357.80
533.07	1359.85
533.27	1488.87
533.46	1392.62
533.66	1345.52
533.86	1435.63
534.06	1431.53
534.26	1464.30
534.45	1398.76
534.65	1503.21
534.85	1372.14
535.05	1331.18
535.25	1316.84
535.44	1390.57
535.64	1417.19
535.84	1363.95
536.04	1335.28
536.24	1331.18
536.43	1357.80
536.63	1339.37
536.83	1415.15
537.03	1394.67
537.22	1404.91
537.42	1296.36
537.62	1345.52
537.82	1404.91
538.02	1345.52
538.21	1447.91
538.41	1484.78
538.61	1378.28
538.81	1359.85
539.00	1368.04
539.20	1368.04
539.40	1345.52
539.60	1394.67
539.79	1462.25
539.99	1300.46
540.19	1402.86
540.39	1402.86
540.58	1366.00
540.78	1370.09
540.98	1415.15
541.18	1378.28
541.37	1327.08
541.57	1363.95
541.77	1388.52
541.97	1329.13
542.16	1230.83
542.36	1384.43
542.56	1357.80
542.76	1505.26
542.95	1316.84
543.15	1396.71
543.35	1312.75
543.54	1361.90
543.74	1433.58
543.94	1406.95
544.14	1353.71
544.33	1378.28
544.53	1384.43
544.73	1310.70
544.93	1361.90
545.12	1325.04
545.32	1341.42
545.52	1327.08
545.71	1273.84
545.91	1394.67
546.11	1376.24
546.30	1335.28
546.50	1320.94
546.70	1366.00
546.90	1347.56
547.09	1314.80
547.29	1394.67
547.49	1374.19
547.68	1296.36
547.88	1361.90
548.08	1337.32
548.27	1626.09
548.47	1355.76
548.67	1331.18
548.87	1384.43
549.06	1345.52
549.26	1345.52
549.46	1394.67
549.65	1378.28
549.85	1429.48
550.05	1411.05
550.24	1402.86
550.44	1335.28
550.64	1366.00
550.83	1429.48
551.03	1335.28
551.23	1413.10
551.42	1411.05
551.62	1351.66
551.82	1378.28
552.01	1396.71
552.21	1478.63
552.41	1312.75
552.60	1439.72
552.80	1378.28
553.00	1368.04
553.19	1355.76
553.39	1435.63
553.59	1396.71
553.78	1343.47
553.98	1339.37
554.17	1316.84
554.37	1327.08
554.57	1411.05
554.76	1351.66
554.96	1400.81
555.16	1378.28
555.35	1298.41
555.55	1384.43
555.75	1382.38
555.94	1396.71
556.14	1355.76
556.33	1470.44
556.53	1310.70
556.73	1353.71
556.92	1374.19
557.12	1443.82
557.32	1454.06
557.51	1388.52
557.71	1443.82
557.90	1431.53
558.10	1398.76
558.30	1425.39
558.49	1421.29
558.69	1296.36
558.88	1454.06
559.08	1341.42
559.28	1386.47
559.47	1380.33
559.67	1349.61
559.86	1419.24
560.06	1343.47
560.26	1353.71
560.45	1411.05
560.65	1353.71
560.84	1398.76
561.04	1392.62
561.24	1374.19
561.43	1396.71
561.63	1497.07
561.82	1341.42
562.02	1390.57
562.22	1349.61
562.41	1380.33
562.61	1404.91
562.80	1374.19
563.00	1486.83
563.19	1386.47
563.39	1388.52
563.59	1417.19
563.78	1320.94
563.98	1318.89
564.17	1363.95
564.37	1306.60
564.56	1384.43
564.76	1370.09
564.96	1374.19
565.15	1284.08
565.35	1445.87
565.54	1396.71
565.74	1398.76
565.93	1429.48
566.13	1404.91
566.32	1472.49
566.52	1372.14
566.71	1347.56
566.91	1411.05
567.11	1374.19
567.30	1345.52
567.50	1363.95
567.69	1333.23
567.89	1378.28
568.08	1353.71
568.28	1406.95
568.47	1322.99
568.67	1308.65
568.86	1380.33
569.06	1384.43
569.25	1370.09
569.45	1316.84
569.64	1374.19
569.84	1290.22
570.04	1257.45
570.23	1374.19
570.43	1355.76
570.62	1427.43
570.82	1363.95
571.01	1296.36
571.21	1343.47
571.40	1347.56
571.60	1406.95
571.79	1400.81
571.99	1366.00
572.18	1359.85
572.38	1400.81
572.57	1310.70
572.77	1370.09
572.96	1527.78
573.16	1404.91
573.35	1355.76
573.55	1449.96
573.74	1400.81
573.94	1396.71
574.13	1433.58
574.33	1437.67
574.52	1492.97
574.71	1421.29
574.91	1406.95
575.10	1431.53
575.30	1402.86
575.49	1380.33
575.69	1392.62
575.88	1409.00
576.08	1355.76
576.27	1456.11
576.47	1435.63
576.66	1488.87
576.86	1415.15
577.05	1435.63
577.25	1468.39
577.44	1497.07
577.64	1406.95
577.83	1454.06
578.02	1382.38
578.22	1511.40
578.41	1435.63
578.61	1423.34
578.80	1366.00
579.00	1353.71
579.19	1421.29
579.39	1515.50
579.58	1492.97
579.77	1386.47
579.97	1495.02
580.16	1515.50
580.36	1433.58
580.55	1476.59
580.75	1396.71
580.94	1443.82
581.13	1535.98
581.33	1472.49
581.52	1439.72
581.72	1556.46
581.91	1470.44
582.11	1413.10
582.30	1374.19
582.49	1468.39
582.69	1497.07
582.88	1437.67
583.08	1421.29
583.27	1421.29
583.47	1406.95
583.66	1409.00
583.85	1513.45
584.05	1437.67
584.24	1454.06
584.44	1544.17
584.63	1521.64
584.82	1550.31
585.02	1566.70
585.21	1490.92
585.41	1521.64
585.60	1576.94
585.79	1669.09
585.99	1705.96
586.18	1640.42
586.37	1896.42
586.57	2676.70
586.76	7882.63
586.96	24018.58
587.15	41629.06
587.34	52341.99
587.54	59419.77
587.73	59118.71
587.93	45022.54
588.12	33041.93
588.31	26523.24
588.51	22900.39
588.70	19842.77
588.89	18120.43
589.09	17133.31
589.28	15970.06
589.47	14434.08
589.67	12554.05
589.86	10665.82
590.06	8820.60
590.25	6477.73
590.44	4804.53
590.64	3866.56
590.83	2998.23
591.02	2248.67
591.22	2015.20
591.41	1708.01
591.60	1615.85
591.80	1552.36
591.99	1458.15
592.18	1503.21
592.38	1527.78
592.57	1527.78
592.76	1497.07
592.96	1413.10
593.15	1452.01
593.34	1501.16
593.54	1390.57
593.73	1468.39
593.92	1413.10
594.12	1411.05
594.31	1458.15
594.50	1484.78
594.70	1499.11
594.89	1523.69
595.08	1421.29
595.28	1486.83
595.47	1464.30
595.66	1474.54
595.86	1439.72
596.05	1368.04
596.24	1357.80
596.43	1458.15
596.63	1482.73
596.82	1427.43
597.01	1462.25
597.21	1441.77
597.40	1452.01
597.59	1490.92
597.79	1427.43
597.98	1443.82
598.17	1425.39
598.36	1380.33
598.56	1396.71
598.75	1425.39
598.94	1394.67
599.14	1437.67
599.33	1452.01
599.52	1458.15
599.71	1404.91
599.91	1404.91
600.10	1374.19
600.29	1353.71
600.48	1454.06
600.68	1406.95
600.87	1404.91
601.06	1322.99
601.26	1337.32
601.45	1386.47
601.64	1368.04
601.83	1423.34
602.03	1347.56
602.22	1378.28
602.41	1413.10
602.60	1445.87
602.80	1355.76
602.99	1370.09
603.18	1425.39
603.37	1445.87
603.57	1409.00
603.76	1341.42
603.95	1486.83
604.14	1345.52
604.34	1343.47
604.53	1372.14
604.72	1347.56
604.91	1474.54
605.10	1279.98
605.30	1353.71
605.49	1464.30
605.68	1378.28
605.87	1413.10
606.07	1406.95
606.26	1452.01
606.45	1347.56
606.64	1417.19
606.84	1392.62
607.03	1404.91
607.22	1507.30
607.41	1402.86
607.60	1341.42
607.80	1413.10
607.99	1411.05
608.18	1370.09
608.37	1470.44
608.56	1353.71
608.76	1429.48
608.95	1505.26
609.14	1363.95
609.33	1445.87
609.52	1552.36
609.72	1462.25
609.91	1523.69
610.10	1413.10
610.29	1478.63
610.48	1413.10
610.68	1355.76
610.87	1427.43
611.06	1437.67
611.25	1470.44
611.44	1433.58
611.63	1359.85
611.83	1421.29
612.02	1382.38
612.21	1417.19
612.40	1314.80
612.59	1361.90
612.79	1386.47
612.98	1404.91
613.17	1417.19
613.36	1335.28
613.55	1507.30
613.74	1490.92
613.93	1531.88
614.13	1568.74
614.32	1638.38
614.51	1601.51
614.70	1527.78
614.89	1492.97
615.08	1517.54
615.28	1669.09
615.47	1415.15
615.66	1472.49
615.85	1443.82
616.04	1480.68
616.23	1480.68
616.42	1460.20
616.62	1525.74
616.81	1486.83
617.00	1449.96
617.19	1404.91
617.38	1460.20
617.57	1396.71
617.76	1488.87
617.95	1384.43
618.15	1404.91
618.34	1486.83
618.53	1355.76
618.72	1435.63
618.91	1409.00
619.10	1495.02
619.29	1368.04
619.48	1370.09
619.68	1378.28
619.87	1423.34
620.06	1374.19
620.25	1388.52
620.44	1361.90
620.63	1419.24
620.82	1361.90
621.01	1380.33
621.20	1390.57
621.39	1386.47
621.59	1363.95
621.78	1449.96
621.97	1380.33
622.16	1429.48
622.35	1429.48
622.54	1447.91
622.73	1417.19
622.92	1300.46
623.11	1402.86
623.30	1318.89
623.49	1396.71
623.68	1345.52
623.88	1398.76
624.07	1400.81
624.26	1374.19
624.45	1390.57
624.64	1290.22
624.83	1378.28
625.02	1314.80
625.21	1413.10
625.40	1341.42
625.59	1427.43
625.78	1384.43
625.97	1452.01
626.16	1359.85
626.35	1492.97
626.54	1499.11
626.74	1572.84
626.93	1495.02
627.12	1398.76
627.31	1476.59
627.50	1396.71
627.69	1474.54
627.88	1394.67
628.07	1378.28
628.26	1363.95
628.45	1384.43
628.64	1382.38
628.83	1322.99
629.02	1370.09
629.21	1390.57
629.40	1449.96
629.59	1404.91
629.78	1425.39
629.97	1388.52
630.16	1374.19
630.35	1413.10
630.54	1368.04
630.73	1382.38
630.92	1370.09
631.11	1376.24
631.30	1443.82
631.49	1388.52
631.68	1286.12
631.87	1425.39
632.06	1423.34
632.25	1449.96
632.44	1343.47
632.63	1378.28
632.82	1380.33
633.01	1474.54
633.20	1562.60
633.39	1535.98
633.58	1437.67
633.77	1546.22
633.96	1449.96
634.15	1376.24
634.34	1415.15
634.53	1454.06
634.72	1456.11
634.91	1296.36
635.10	1345.52
635.29	1423.34
635.48	1402.86
635.67	1370.09
635.86	1392.62
636.05	1374.19
636.24	1378.28
636.43	1394.67
636.62	1419.24
636.81	1290.22
637.00	1443.82
637.19	1380.33
637.38	1392.62
637.57	1372.14
637.76	1413.10
637.95	1447.91
638.14	1435.63
638.33	1474.54
638.52	1435.63
638.71	1499.11
638.89	1406.95
639.08	1519.59
639.27	1478.63
639.46	1462.25
639.65	1677.29
639.84	1875.94
640.03	2074.59
640.22	2111.46
640.41	2181.09
640.60	1974.24
640.79	1886.18
640.98	1652.71
641.17	1554.41
641.36	1564.65
641.55	1542.12
641.74	1495.02
641.92	1484.78
642.11	1458.15
642.30	1529.83
642.49	1452.01
642.68	1341.42
642.87	1449.96
643.06	1421.29
643.25	1368.04
643.44	1361.90
643.63	1400.81
643.82	1470.44
644.00	1355.76
644.19	1337.32
644.38	1376.24
644.57	1306.60
644.76	1320.94
644.95	1349.61
645.14	1447.91
645.33	1402.86
645.52	1386.47
645.71	1402.86
645.89	1347.56
646.08	1396.71
646.27	1370.09
646.46	1456.11
646.65	1359.85
646.84	1355.76
647.03	1279.98
647.22	1429.48
647.40	1409.00
647.59	1452.01
647.78	1300.46
647.97	1380.33
648.16	1404.91
648.35	1435.63
648.54	1492.97
648.73	1382.38
648.91	1476.59
649.10	1413.10
649.29	1318.89
649.48	1351.66
649.67	1452.01
649.86	1394.67
650.05	1409.00
650.23	1490.92
650.42	1472.49
650.61	1603.56
650.80	1542.12
650.99	1642.47
651.18	1554.41
651.36	1464.30
651.55	1425.39
651.74	1417.19
651.93	1470.44
652.12	1417.19
652.31	1517.54
652.49	1320.94
652.68	1380.33
652.87	1425.39
653.06	1435.63
653.25	1507.30
653.44	1464.30
653.62	1466.35
653.81	1419.24
654.00	1439.72
654.19	1396.71
654.38	1445.87
654.56	1429.48
654.75	1394.67
654.94	1378.28
655.13	1325.04
655.32	1339.37
655.51	1390.57
655.69	1372.14
655.88	1419.24
656.07	1282.03
656.26	1363.95
656.45	1316.84
656.63	1392.62
656.82	1370.09
657.01	1431.53
657.20	1452.01
657.38	1460.20
657.57	1384.43
657.76	1302.51
657.95	1368.04
658.14	1370.09
658.32	1380.33
658.51	1343.47
658.70	1398.76
658.89	1441.77
659.08	1357.80
659.26	1429.48
659.45	1435.63
659.64	1447.91
659.83	1421.29
660.01	1574.89
660.20	1462.25
660.39	1460.20
660.58	1386.47
660.76	1437.67
660.95	1392.62
661.14	1386.47
661.33	1368.04
661.51	1441.77
661.70	1443.82
661.89	1404.91
662.08	1347.56
662.26	1349.61
662.45	1361.90
662.64	1318.89
662.83	1406.95
663.01	1308.65
663.20	1355.76
663.39	1423.34
663.58	1318.89
663.76	1404.91
663.95	1355.76
664.14	1347.56
664.32	1413.10
664.51	1335.28
664.70	1347.56
664.89	1370.09
665.07	1351.66
665.26	1409.00
665.45	1343.47
665.64	1372.14
665.82	1310.70
666.01	1398.76
666.20	1314.80
666.38	1449.96
666.57	1472.49
666.76	1535.98
666.95	2101.22
667.13	4388.80
667.32	11558.74
667.51	18046.70
667.69	21644.98
667.88	24946.31
668.07	24772.23
668.25	18835.17
668.44	13643.57
668.63	11147.09
668.81	9174.90
669.00	8136.58
669.19	7356.30
669.38	6893.46
669.56	6231.97
669.75	5615.53
669.94	5113.78
670.12	4204.48
670.31	3446.73
670.50	3018.71
670.68	2471.90
670.87	2152.42
671.06	1902.56
671.24	1665.00
671.43	1662.95
671.62	1560.55
671.80	1509.35
671.99	1527.78
672.18	1439.72
672.36	1396.71
672.55	1462.25
672.74	1449.96
672.92	1394.67
673.11	1390.57
673.29	1345.52
673.48	1449.96
673.67	1339.37
673.85	1488.87
674.04	1427.43
674.23	1409.00
674.41	1423.34
674.60	1390.57
674.79	1335.28
674.97	1353.71
675.16	1478.63
675.34	1404.91
675.53	1419.24
675.72	1376.24
675.90	1472.49
676.09	1335.28
676.28	1368.04
676.46	1345.52
676.65	1415.15
676.83	1314.80
677.02	1464.30
677.21	1423.34
677.39	1368.04
677.58	1353.71
677.77	1351.66
677.95	1357.80
678.14	1366.00
678.32	1366.00
678.51	1366.00
678.70	1415.15
678.88	1411.05
679.07	1390.57
679.25	1419.24
679.44	1380.33
679.63	1275.88
679.81	1329.13
680.00	1449.96
680.18	1351.66
680.37	1421.29
680.55	1404.91
680.74	1417.19
680.93	1382.38
681.11	1390.57
681.30	1413.10
681.48	1339.37
681.67	1368.04
681.85	1343.47
682.04	1277.93
682.23	1374.19
682.41	1361.90
682.60	1312.75
682.78	1452.01
682.97	1294.32
683.15	1400.81
683.34	1333.23
683.53	1409.00
683.71	1325.04
683.90	1484.78
684.08	1413.10
684.27	1388.52
684.45	1310.70
684.64	1376.24
684.82	1353.71
685.01	1419.24
685.19	1363.95
685.38	1402.86
685.57	1392.62
685.75	1372.14
685.94	1417.19
686.12	1314.80
686.31	1345.52
686.49	1398.76
686.68	1320.94
686.86	1357.80
687.05	1316.84
687.23	1421.29
687.42	1302.51
687.60	1314.80
687.79	1331.18
687.97	1460.20
688.16	1423.34
688.34	1390.57
688.53	1310.70
688.71	1456.11
688.90	1454.06
689.08	1318.89
689.27	1329.13
689.45	1396.71
689.64	1421.29
689.82	1345.52
690.01	1341.42
690.19	1433.58
690.38	1345.52
690.56	1353.71
690.75	1353.71
690.93	1335.28
691.12	1318.89
691.30	1421.29
691.49	1341.42
691.67	1452.01
691.86	1429.48
692.04	1339.37
692.23	1273.84
692.41	1325.04
692.60	1449.96
692.78	1495.02
692.97	1443.82
693.15	1466.35
693.34	1556.46
693.52	1480.68
693.71	1441.77
693.89	1400.81
694.08	1384.43
694.26	1427.43
694.44	1347.56
694.63	1372.14
694.81	1368.04
695.00	1402.86
695.18	1462.25
695.37	1562.60
695.55	1339.37
695.74	1382.38
695.92	1380.33
696.10	1396.71
696.29	1325.04
696.47	1347.56
696.66	1312.75
696.84	1335.28
697.03	1361.90
697.21	1447.91
697.40	1812.45
697.58	1392.62
697.76	1347.56
697.95	1372.14
698.13	1253.36
698.32	1370.09
698.50	1366.00
698.68	1386.47
698.87	1431.53
699.05	1382.38
699.24	1439.72
699.42	1347.56
699.61	1376.24
699.79	1306.60
699.97	1406.95
700.16	1353.71
700.34	1329.13
700.53	1404.91
700.71	1411.05
700.89	1320.94
701.08	1429.48
701.26	1310.70
701.45	1654.76
701.63	1322.99
701.81	1357.80
702.00	1421.29
702.18	1359.85
702.37	1353.71
702.55	1359.85
702.73	1380.33
702.92	1589.22
703.10	1619.94
703.28	1632.23
703.47	1697.77
703.65	1703.91
703.84	1617.90
704.02	1527.78
704.20	1533.93
704.39	1478.63
704.57	1417.19
704.75	1521.64
704.94	1425.39
705.12	1505.26
705.30	1454.06
705.49	1525.74
705.67	1877.99
705.86	3504.07
706.04	9111.41
706.22	16072.46
706.41	19728.08
706.59	22541.99
706.77	23436.95
706.96	19750.61
707.14	13657.90
707.32	11351.89
707.51	9326.45
707.69	8175.49
707.87	7339.92
708.06	6754.20
708.24	6041.51
708.42	4943.80
708.61	3991.49
708.79	3012.56
708.97	2416.60
709.16	2043.87
709.34	1722.34
709.52	1591.27
709.71	1593.32
709.89	1460.20
710.07	1419.24
710.26	1355.76
710.44	1421.29
710.62	1419.24
710.80	1456.11
710.99	1390.57
711.17	1419.24
711.35	1355.76
711.54	1396.71
711.72	1396.71
711.90	1437.67
712.09	1306.60
712.27	1413.10
712.45	1359.85
712.63	1308.65
712.82	1353.71
713.00	1372.14
713.18	1425.39
713.37	1415.15
713.55	1449.96
713.73	1372.14
713.91	1394.67
714.10	1386.47
714.28	1394.67
714.46	1421.29
714.65	1363.95
714.83	1497.07
715.01	1417.19
715.19	1374.19
715.38	1429.48
715.56	1357.80
715.74	1329.13
715.92	1380.33
716.11	1452.01
716.29	1376.24
716.47	1427.43
716.65	1441.77
716.84	1318.89
717.02	1413.10
717.20	1345.52
717.38	1413.10
717.57	1423.34
717.75	1302.51
717.93	1351.66
718.11	1380.33
718.30	1341.42
718.48	1304.56
718.66	1415.15
718.84	1355.76
719.03	1437.67
719.21	1343.47
719.39	1460.20
719.57	1392.62
719.75	1368.04
719.94	1341.42
720.12	1327.08
720.30	1427.43
720.48	1345.52
720.67	1251.31
720.85	1325.04
721.03	1431.53
721.21	1366.00
721.39	1419.24
721.58	1368.04
721.76	1394.67
721.94	1423.34
722.12	1415.15
722.30	1404.91
722.49	1275.88
722.67	1421.29
722.85	1388.52
723.03	1378.28
723.21	1306.60
723.40	1357.80
723.58	1417.19
723.76	1394.67
723.94	1331.18
724.12	1384.43
724.30	1460.20
724.49	1425.39
724.67	1521.64
724.85	1435.63
725.03	1454.06
725.21	1425.39
725.40	1468.39
725.58	1456.11
725.76	1419.24
725.94	1437.67
726.12	1339.37
726.30	1394.67
726.49	1347.56
726.67	1374.19
726.85	1359.85
727.03	1271.79
727.21	1456.11
727.39	1503.21
727.57	2043.87
727.76	3452.88
727.94	4358.08
728.12	4966.32
728.30	5281.71
728.48	5203.89
728.66	4239.30
728.84	3422.16
729.03	3053.52
729.21	2959.31
729.39	2514.91
729.57	2242.53
729.75	1998.82
729.93	1925.09
730.11	1597.42
730.30	1548.26
730.48	1429.48
730.66	1449.96
730.84	1454.06
731.02	1404.91
731.20	1261.55
731.38	1366.00
731.56	1380.33
731.74	1366.00
731.93	1359.85
732.11	1431.53
732.29	1327.08
732.47	1376.24
732.65	1331.18
732.83	1466.35
733.01	1378.28
733.19	1335.28
733.37	1392.62
733.56	1337.32
733.74	1349.61
733.92	1445.87
734.10	1314.80
734.28	1380.33
734.46	1265.64
734.64	1322.99
734.82	1419.24
735.00	1417.19
735.18	1355.76
735.36	1314.80
735.54	1347.56
735.73	1363.95
735.91	1380.33
736.09	1384.43
736.27	1339.37
736.45	1449.96
736.63	1333.23
736.81	1341.42
736.99	1415.15
737.17	1378.28
737.35	1411.05
737.53	1433.58
737.71	1411.05
737.89	1425.39
738.07	1380.33
738.25	1361.90
738.43	1349.61
738.61	1406.95
738.80	1345.52
738.98	1368.04
739.16	1339.37
739.34	1339.37
739.52	1396.71
739.70	1339.37
739.88	1398.76
740.06	1439.72
740.24	1288.17
740.42	1454.06
740.60	1318.89
740.78	1312.75
740.96	1261.55
741.14	1366.00
741.32	1421.29
741.50	1312.75
741.68	1449.96
741.86	1353.71
742.04	1286.12
742.22	1335.28
742.40	1425.39
742.58	1417.19
742.76	1325.04
742.94	1359.85
743.12	1236.97
743.30	1402.86
743.48	1452.01
743.66	1384.43
743.84	1421.29
744.02	1345.52
744.20	1390.57
744.38	1392.62
744.56	1361.90
744.74	1411.05
744.92	1396.71
745.10	1409.00
745.28	1417.19
745.46	1413.10
745.64	1343.47
745.82	1384.43
746.00	1333.23
746.18	1390.57
746.36	1366.00
746.54	1413.10
746.72	1327.08
746.90	1339.37
747.08	1468.39
747.26	1421.29
747.44	1333.23
747.62	1376.24
747.80	1404.91
747.98	1462.25
748.15	1372.14
748.33	1499.11
748.51	1380.33
748.69	1427.43
748.87	1413.10
749.05	1474.54
749.23	1392.62
749.41	1382.38
749.59	1415.15
749.77	1431.53
749.95	1347.56
750.13	1325.04
750.31	1357.80
750.49	1345.52
750.67	1449.96
750.85	1445.87
751.03	1370.09
751.20	1437.67
751.38	1355.76
751.56	1286.12
751.74	1402.86
751.92	1333.23
752.10	1349.61
752.28	1322.99
752.46	1413.10
752.64	1421.29
752.82	1390.57
753.00	1394.67
753.18	1380.33
753.35	1386.47
753.53	1370.09
753.71	1423.34
753.89	1380.33
754.07	1409.00
754.25	1425.39
754.43	1423.34
754.61	1353.71
754.79	1322.99
754.97	1411.05
755.14	1431.53
755.32	1361.90
755.50	1413.10
755.68	1370.09
755.86	1406.95
756.04	1413.10
756.22	1292.27
756.40	1411.05
756.57	1447.91
756.75	1351.66
756.93	1433.58
757.11	1400.81
757.29	1275.88
757.47	1357.80
757.65	1376.24
757.82	1363.95
758.00	1353.71
758.18	1380.33
758.36	1376.24
758.54	1386.47
758.72	1290.22
758.90	1368.04
759.07	1380.33
759.25	1404.91
759.43	1363.95
759.61	1376.24
759.79	1646.57
759.97	1406.95
760.15	1359.85
760.32	1322.99
760.50	1363.95
760.68	1419.24
760.86	1251.31
761.04	1441.77
761.22	1419.24
761.39	1406.95
761.57	1413.10
761.75	1388.52
761.93	1380.33
762.11	1370.09
762.28	1300.46
762.46	1333.23
762.64	1447.91
762.82	1325.04
763.00	1394.67
763.18	1458.15
763.35	1333.23
763.53	1445.87
763.71	1396.71
763.89	1294.32
764.07	1378.28
764.24	1384.43
764.42	1349.61
764.60	1302.51
764.78	1425.39
764.96	1435.63
765.13	1392.62
765.31	1355.76
765.49	1329.13
765.67	1376.24
765.84	1368.04
766.02	1361.90
766.20	1312.75
766.38	1333.23
766.56	1400.81
766.73	1376.24
766.91	1339.37
767.09	1370.09
767.27	1411.05
767.44	1253.36
767.62	1447.91
767.80	1343.47
767.98	1314.80
768.15	1327.08
768.33	1378.28
768.51	1378.28
768.69	1339.37
768.87	1370.09
769.04	1359.85
769.22	1396.71
769.40	1419.24
769.58	1499.11
769.75	1359.85
769.93	1337.32
770.11	1386.47
770.28	1335.28
770.46	1437.67
770.64	1339.37
770.82	1255.40
770.99	1310.70
771.17	1363.95
771.35	1308.65
771.53	1353.71
771.70	1372.14
771.88	1419.24
772.06	1314.80
772.23	1380.33
772.41	1374.19
772.59	1343.47
772.77	1296.36
772.94	1359.85
773.12	1380.33
773.30	1392.62
773.47	1325.04
773.65	1363.95
773.83	1351.66
774.01	1366.00
774.18	1312.75
774.36	1361.90
774.54	1337.32
774.71	1357.80
774.89	1310.70
775.07	1366.00
775.24	1341.42
775.42	1386.47
775.60	1449.96
775.78	1368.04
775.95	1415.15
776.13	1325.04
776.31	1290.22
776.48	1325.04
776.66	1404.91
776.84	1368.04
777.01	1294.32
777.19	1392.62
777.37	1290.22
777.54	1318.89
777.72	1421.29
777.90	1380.33
778.07	1376.24
778.25	1433.58
778.43	1382.38
778.60	1368.04
778.78	1378.28
778.96	1349.61
779.13	1347.56
779.31	1437.67
779.49	1296.36
779.66	1384.43
779.84	1310.70
780.01	1329.13
780.19	1288.17
780.37	1380.33
780.54	1376.24
780.72	1353.71
780.90	1368.04
781.07	1386.47
781.25	1329.13
781.43	1384.43
781.60	1279.98
781.78	1388.52
781.95	1361.90
782.13	1304.56
782.31	1353.71
782.48	1335.28
782.66	1345.52
782.83	1419.24
783.01	1333.23
783.19	1333.23
783.36	1357.80
783.54	1388.52
783.72	1433.58
783.89	1413.10
784.07	1372.14
784.24	1429.48
784.42	1333.23
784.60	1368.04
784.77	1320.94
784.95	1458.15
785.12	1359.85
785.30	1443.82
785.47	1232.88
785.65	1441.77
785.83	1402.86
786.00	1359.85
786.18	1355.76
786.35	1355.76
786.53	1335.28
786.71	1392.62
786.88	1363.95
787.06	1322.99
787.23	1363.95
787.41	1345.52
787.58	1339.37
787.76	1337.32
787.94	1409.00
788.11	1361.90
788.29	1257.45
788.46	1376.24
788.64	1318.89
788.81	1378.28
788.99	1320.94
789.16	1366.00
789.34	1382.38
789.52	1386.47
789.69	1286.12
789.87	1306.60
790.04	1312.75
790.22	1423.34
790.39	1435.63
790.57	1318.89
790.74	1290.22
790.92	1396.71
791.09	1290.22
791.27	1345.52
791.44	1374.19
791.62	1396.71
791.79	1359.85
791.97	1304.56
792.15	1513.45
792.32	1359.85
792.50	1331.18
792.67	1384.43
792.85	1482.73
793.02	1279.98
793.20	1327.08
793.37	1306.60
793.55	1417.19
793.72	1327.08
793.90	1380.33
794.07	1341.42
794.25	1351.66
794.42	1380.33
794.60	1339.37
794.77	1472.49
794.95	1353.71
795.12	1355.76
795.30	1409.00
795.47	1347.56
795.65	1495.02
795.82	1339.37
796.00	1275.88
796.17	1456.11
796.34	1329.13
796.52	1333.23
796.69	1404.91
796.87	1441.77
797.04	1327.08
797.22	1400.81
797.39	1314.80
797.57	1339.37
797.74	1357.80
797.92	1382.38
798.09	1347.56
798.27	1363.95
798.44	1363.95
798.62	1368.04
798.79	1411.05
798.96	1406.95
799.14	1409.00
799.31	1480.68
799.49	1304.56
799.66	1374.19
799.84	1386.47
800.01	1294.32
800.19	1368.04
800.36	1325.04
800.53	1294.32
800.71	1341.42
800.88	1437.67
801.06	1423.34
801.23	1341.42
801.41	1363.95
801.58	1335.28
801.75	1318.89
801.93	1327.08
802.10	1392.62
802.28	1343.47
802.45	1349.61
802.63	1359.85
802.80	1421.29
802.97	1290.22
803.15	1380.33
803.32	1320.94
803.50	1331.18
803.67	1400.81
803.84	1306.60
804.02	1396.71
804.19	1335.28
804.37	1314.80
804.54	1386.47
804.71	1306.60
804.89	1331.18
805.06	1394.67
805.24	1341.42
805.41	1335.28
805.58	1306.60
805.76	1458.15
805.93	1409.00
806.10	1478.63
806.28	1335.28
806.45	1314.80
806.63	1380.33
806.80	1439.72
806.97	1376.24
807.15	1310.70
807.32	1322.99
807.49	1431.53
807.67	1359.85
807.84	1302.51
808.01	1253.36
808.19	1427.43
808.36	1521.64
808.54	1361.90
808.71	1384.43
808.88	1329.13
809.06	1439.72
809.23	1470.44
809.40	1302.51
809.58	1406.95
809.75	1402.86
809.92	1345.52
810.10	1447.91
810.27	1329.13
810.44	1374.19
810.62	1308.65
810.79	1314.80
810.96	1320.94
811.14	1372.14
811.31	1368.04
811.48	1396.71
811.66	1370.09
811.83	1351.66
812.00	1343.47
812.18	1411.05
812.35	1400.81
812.52	1449.96
812.69	1404.91
812.87	1282.03
813.04	1337.32
813.21	1378.28
813.39	1374.19
813.56	1370.09
813.73	1359.85
813.91	1277.93
814.08	1388.52
814.25	1409.00
814.42	1318.89
814.60	1417.19
814.77	1388.52
814.94	1443.82
815.12	1357.80
815.29	1390.57
815.46	1339.37
815.63	1351.66
815.81	1421.29
815.98	1318.89
816.15	1331.18
816.33	1357.80
816.50	1349.61
816.67	1351.66
816.84	1388.52
817.02	1316.84
817.19	1298.41
817.36	1294.32
817.53	1402.86
817.71	1384.43
817.88	1378.28
818.05	1419.24
818.22	1398.76
818.40	1384.43
818.57	1402.86
818.74	1417.19
818.91	1331.18
819.09	1302.51
819.26	1419.24
819.43	1314.80
819.60	1296.36
819.78	1409.00
819.95	1492.97
820.12	1320.94
820.29	1415.15
820.47	1402.86
820.64	1363.95
820.81	1359.85
820.98	1333.23
821.15	1320.94
821.33	1386.47
821.50	1329.13
821.67	1345.52
821.84	1339.37
822.02	1409.00
822.19	1431.53
822.36	1320.94
822.53	1384.43
822.70	1316.84
822.88	1343.47
823.05	1507.30
823.22	1339.37
823.39	1392.62
823.56	1378.28
823.74	1396.71
823.91	1357.80
824.08	1296.36
824.25	1376.24
824.42	1441.77
824.60	1363.95
824.77	1384.43
824.94	1357.80
825.11	1466.35
825.28	1306.60
825.45	1406.95
825.63	1392.62
825.80	1421.29
825.97	1386.47
826.14	1380.33
826.31	1320.94
826.48	1472.49
826.66	1286.12
826.83	1288.17
827.00	1402.86
827.17	1331.18
827.34	1318.89
827.51	1353.71
827.69	1349.61
827.86	1394.67
828.03	1363.95
828.20	1363.95
828.37	1310.70
828.54	1361.90
828.71	1361.90
828.89	1413.10
829.06	1329.13
829.23	1404.91
829.40	1318.89
829.57	1363.95
829.74	1357.80
829.91	1386.47
830.09	1409.00
830.26	1404.91
830.43	1359.85
830.60	1419.24
830.77	1456.11
830.94	1427.43
831.11	1388.52
831.28	1302.51
831.46	1415.15
831.63	1322.99
831.80	1372.14
831.97	1402.86
832.14	1382.38
832.31	1406.95
832.48	1372.14
832.65	1421.29
832.82	1361.90
832.99	1437.67
833.17	1284.08
833.34	1376.24
833.51	1316.84
833.68	1345.52
833.85	1443.82
834.02	1341.42
834.19	1394.67
834.36	1343.47
834.53	1355.76
834.70	1392.62
834.87	1427.43
835.04	1355.76
835.22	1337.32
835.39	1357.80
835.56	1267.69
835.73	1341.42
835.90	1384.43
836.07	1302.51
836.24	1376.24
836.41	1468.39
836.58	1370.09
836.75	1361.90
836.92	1361.90
837.09	1382.38
837.26	1441.77
837.43	1380.33
837.60	1398.76
837.77	1347.56
837.94	1421.29
838.12	1390.57
838.29	1447.91
838.46	1335.28
838.63	1351.66
838.80	1480.68
838.97	1384.43
839.14	1361.90
839.31	1386.47
839.48	1454.06
839.65	1329.13
839.82	1325.04
839.99	1394.67
840.16	1355.76
840.33	1294.32
840.50	1423.34
840.67	1363.95
840.84	1247.21
841.01	1363.95
841.18	1355.76
841.35	1310.70
841.52	1423.34
841.69	1366.00
841.86	1341.42
842.03	1380.33
842.20	1380.33
842.37	1357.80
842.54	1331.18
842.71	1380.33
842.88	1331.18
843.05	1372.14
843.22	1370.09
843.39	1384.43
843.56	1372.14
843.73	1357.80
843.90	1355.76
844.07	1392.62
844.24	1343.47
844.41	1310.70
844.58	1343.47
844.75	1386.47
844.92	1378.28
845.09	1306.60
845.26	1327.08
845.43	1372.14
845.60	1382.38
845.77	1421.29
845.94	1347.56
846.10	1417.19
846.27	1298.41
846.44	1347.56
846.61	1304.56
846.78	1333.23
846.95	1386.47
847.12	1396.71
847.29	1421.29
847.46	1404.91
847.63	1345.52
847.80	1351.66
847.97	1329.13
848.14	1421.29
848.31	1435.63
848.48	1290.22
848.65	1404.91
848.82	1366.00
848.98	1396.71
849.15	1363.95
849.32	1378.28
849.49	1343.47
849.66	1413.10
849.83	1288.17
850.00	1298.41
850.17	1363.95
850.34	1398.76
850.51	1337.32
850.68	1437.67
850.85	1499.11
851.01	1378.28
851.18	1333.23
851.35	1349.61
851.52	1392.62
851.69	1357.80
851.86	1308.65
852.03	1320.94
852.20	1411.05
852.37	1368.04
852.53	1390.57
852.70	1347.56
852.87	1454.06
853.04	1372.14
853.21	1417.19
853.38	1492.97
853.55	1427.43
853.72	1431.53
853.89	1378.28
854.05	1296.36
854.22	1284.08
854.39	1390.57
854.56	1286.12
854.73	1318.89
854.90	1337.32
855.07	1331.18
855.23	1271.79
855.40	1382.38
855.57	1335.28
855.74	1271.79
855.91	1441.77
856.08	1314.80
856.25	1331.18
856.41	1366.00
856.58	1343.47
856.75	1443.82
856.92	1347.56
857.09	1380.33
857.26	1343.47
857.42	1241.07
857.59	1390.57
857.76	1374.19
857.93	1425.39
858.10	1380.33
858.27	1322.99
858.43	1351.66
858.60	1400.81
858.77	1275.88
858.94	1331.18
859.11	1273.84
859.27	1335.28
859.44	1402.86
859.61	1357.80
859.78	1366.00
859.95	1380.33
860.12	1335.28
860.28	1437.67
860.45	1363.95
860.62	1380.33
860.79	1398.76
860.95	1400.81
861.12	1327.08
861.29	1431.53
861.46	1331.18
861.63	1329.13
861.79	1345.52
861.96	1286.12
862.13	1302.51
862.30	1406.95
862.47	1355.76
862.63	1349.61
862.80	1388.52
862.97	1363.95
863.14	1329.13
863.30	1392.62
863.47	1314.80
863.64	1474.54
863.81	1269.74
863.97	1374.19
864.14	1345.52
864.31	1382.38
864.48	1331.18
864.65	1273.84
864.81	1419.24
864.98	1349.61
865.15	1376.24
865.32	1402.86
865.48	1470.44
865.65	1404.91
865.82	1409.00
865.98	1398.76
866.15	1466.35
866.32	1349.61
866.49	1329.13
866.65	1447.91
866.82	1359.85
866.99	1312.75
867.16	1320.94
867.32	1327.08
867.49	1286.12
867.66	1355.76
867.83	1351.66
867.99	1302.51
868.16	1320.94
868.33	1302.51
868.49	1388.52
868.66	1271.79
868.83	1427.43
868.99	1353.71
869.16	1331.18
869.33	1411.05
869.50	1445.87
869.66	1335.28
869.83	1417.19
870.00	1349.61
870.16	1384.43
870.33	1304.56
870.50	1370.09
870.66	1437.67
870.83	1431.53
871.00	1337.32
871.17	1390.57
871.33	1376.24
871.50	1327.08
871.67	1411.05
871.83	1314.80
872.00	1392.62
872.17	1351.66
872.33	1388.52
872.50	1370.09
872.67	1290.22
872.83	1363.95
873.00	1437.67
873.17	1380.33
873.33	1363.95
873.50	1363.95
873.67	1415.15
873.83	1361.90
874.00	1388.52
874.16	1378.28
874.33	1374.19
874.50	1337.32
874.66	1423.34
874.83	1366.00
875.00	1388.52
875.16	1331.18
875.33	1464.30
875.50	1337.32
875.66	1409.00
875.83	1378.28
875.99	1400.81
876.16	1310.70
876.33	1402.86
876.49	1347.56
876.66	1343.47
876.83	1411.05
876.99	1335.28
877.16	1380.33
877.32	1382.38
877.49	1368.04
877.66	1404.91
877.82	1413.10
877.99	1435.63
878.15	1406.95
878.32	1409.00
878.49	1335.28
878.65	1370.09
878.82	1421.29
878.98	1308.65
879.15	1441.77
879.32	1411.05
879.48	1384.43
879.65	1366.00
879.81	1306.60
879.98	1380.33
880.15	1398.76
880.31	1404.91
880.48	1261.55
880.64	1368.04
880.81	1345.52
880.97	1411.05
881.14	1384.43
881.31	1316.84
881.47	1490.92
881.64	1357.80
881.80	1153.01
881.97	1384.43
882.13	1347.56
882.30	1353.71
882.47	1308.65
882.63	1286.12
882.80	1343.47
882.96	1318.89
883.13	1464.30
883.29	1312.75
883.46	1335.28
883.62	1425.39
883.79	1413.10
883.95	1456.11
884.12	1388.52
884.29	1439.72
884.45	1400.81
884.62	1441.77
884.78	1243.12
884.95	1431.53
885.11	1351.66
885.28	1441.77
885.44	1402.86
885.61	1423.34
885.77	1357.80
885.94	1327.08
886.10	1343.47
886.27	1345.52
886.43	1361.90
886.60	1363.95
886.76	1329.13
886.93	1363.95
887.09	1421.29
887.26	1329.13
887.42	1349.61
887.59	1417.19
887.75	1392.62
887.92	1478.63
888.08	1376.24
888.25	1380.33
888.41	1441.77
888.58	1361.90
888.74	1378.28
888.91	1333.23
>>>>>End Processed Spectral Data<<<<<
