SpectraSuite Data File
++++++++++++++++++++++++++++++++++++
Date: Tue May 03 11:24:46 CEST 2016
User: root
Dark Spectrum Present: No
Reference Spectrum Present: No
Number of Sampled Component Spectra: 1
Spectrometers: USB4C02835
Integration Time (usec): 100000 (USB4C02835)
Spectra Averaged: 1 (USB4C02835)
Boxcar Smoothing: 0 (USB4C02835)
Correct for Electrical Dark: No (USB4C02835)
Strobe/Lamp Enabled: No (USB4C02835)
Correct for Detector Non-linearity: No (USB4C02835)
Correct for Stray Light: No (USB4C02835)
Number of Pixels in Processed Spectrum: 3648
>>>>>Begin Processed Spectral Data<<<<<
177.47	1132.53
177.69	1132.53
177.91	1132.53
178.13	1261.55
178.36	1191.92
178.58	1320.94
178.80	1368.04
179.02	1273.84
179.24	1394.67
179.46	1368.04
179.68	1456.11
179.90	1374.19
180.13	1343.47
180.35	1345.52
180.57	1359.85
180.79	1374.19
181.01	1394.67
181.23	1452.01
181.45	1353.71
181.67	1310.70
181.90	1353.71
182.12	1439.72
182.34	1304.56
182.56	1454.06
182.78	1374.19
183.00	1376.24
183.22	1341.42
183.44	1298.41
183.66	1515.50
183.89	1495.02
184.11	1390.57
184.33	1390.57
184.55	1347.56
184.77	1394.67
184.99	1376.24
185.21	1370.09
185.43	1398.76
185.65	1310.70
185.87	1411.05
186.10	1406.95
186.32	1474.54
186.54	1419.24
186.76	1337.32
186.98	1433.58
187.20	1386.47
187.42	1320.94
187.64	1474.54
187.86	1308.65
188.08	1363.95
188.30	1333.23
188.52	1409.00
188.75	1392.62
188.97	1409.00
189.19	1378.28
189.41	1392.62
189.63	1449.96
189.85	1277.93
190.07	1351.66
190.29	1224.69
190.51	1394.67
190.73	1327.08
190.95	1406.95
191.17	1400.81
191.39	1335.28
191.61	1355.76
191.84	1279.98
192.06	1384.43
192.28	1359.85
192.50	1460.20
192.72	1273.84
192.94	1288.17
193.16	1380.33
193.38	1454.06
193.60	1320.94
193.82	1314.80
194.04	1392.62
194.26	1345.52
194.48	1357.80
194.70	1361.90
194.92	1302.51
195.14	1380.33
195.36	1390.57
195.58	1398.76
195.80	1306.60
196.02	1290.22
196.24	1370.09
196.46	1415.15
196.69	1359.85
196.91	1503.21
197.13	1320.94
197.35	1402.86
197.57	1466.35
197.79	1361.90
198.01	1370.09
198.23	1409.00
198.45	1370.09
198.67	1337.32
198.89	1353.71
199.11	1370.09
199.33	1361.90
199.55	1269.74
199.77	1368.04
199.99	1370.09
200.21	1351.66
200.43	1380.33
200.65	1255.40
200.87	1279.98
201.09	1353.71
201.31	1322.99
201.53	1415.15
201.75	1404.91
201.97	1384.43
202.19	1382.38
202.41	1363.95
202.63	1497.07
202.85	1351.66
203.07	1368.04
203.29	1384.43
203.51	1357.80
203.73	1277.93
203.95	1441.77
204.17	1335.28
204.39	1296.36
204.61	1325.04
204.83	1316.84
205.05	1390.57
205.27	1366.00
205.49	1368.04
205.71	1388.52
205.93	1318.89
206.15	1318.89
206.37	1384.43
206.59	1333.23
206.81	1322.99
207.03	1329.13
207.25	1314.80
207.47	1331.18
207.69	1359.85
207.91	1460.20
208.13	1322.99
208.34	1374.19
208.56	1425.39
208.78	1419.24
209.00	1363.95
209.22	1331.18
209.44	1431.53
209.66	1335.28
209.88	1370.09
210.10	1349.61
210.32	1363.95
210.54	1484.78
210.76	1417.19
210.98	1398.76
211.20	1243.12
211.42	1394.67
211.64	1370.09
211.86	1402.86
212.08	1372.14
212.30	1382.38
212.52	1325.04
212.74	1357.80
212.96	1419.24
213.17	1345.52
213.39	1363.95
213.61	1357.80
213.83	1382.38
214.05	1308.65
214.27	1384.43
214.49	1325.04
214.71	1363.95
214.93	1437.67
215.15	1406.95
215.37	1363.95
215.59	1372.14
215.81	1355.76
216.03	1392.62
216.24	1392.62
216.46	1312.75
216.68	1333.23
216.90	1286.12
217.12	1427.43
217.34	1308.65
217.56	1390.57
217.78	1374.19
218.00	1384.43
218.22	1353.71
218.44	1406.95
218.66	1370.09
218.87	1411.05
219.09	1435.63
219.31	1361.90
219.53	1388.52
219.75	1380.33
219.97	1376.24
220.19	1353.71
220.41	1306.60
220.63	1413.10
220.85	1415.15
221.06	1312.75
221.28	1386.47
221.50	1419.24
221.72	1396.71
221.94	1378.28
222.16	1282.03
222.38	1355.76
222.60	1404.91
222.82	1335.28
223.03	1370.09
223.25	1273.84
223.47	1429.48
223.69	1488.87
223.91	1357.80
224.13	1378.28
224.35	1363.95
224.57	1394.67
224.78	1429.48
225.00	1386.47
225.22	1425.39
225.44	1357.80
225.66	1437.67
225.88	1355.76
226.10	1427.43
226.32	1392.62
226.53	1454.06
226.75	1361.90
226.97	1419.24
227.19	1357.80
227.41	1431.53
227.63	1273.84
227.85	1300.46
228.06	1351.66
228.28	1363.95
228.50	1382.38
228.72	1290.22
228.94	1380.33
229.16	1327.08
229.37	1353.71
229.59	1402.86
229.81	1345.52
230.03	1335.28
230.25	1353.71
230.47	1423.34
230.69	1349.61
230.90	1425.39
231.12	1339.37
231.34	1357.80
231.56	1437.67
231.78	1355.76
232.00	1341.42
232.21	1370.09
232.43	1370.09
232.65	1282.03
232.87	1404.91
233.09	1372.14
233.30	1308.65
233.52	1394.67
233.74	1417.19
233.96	1363.95
234.18	1390.57
234.40	1361.90
234.61	1427.43
234.83	1290.22
235.05	1322.99
235.27	1316.84
235.49	1402.86
235.70	1415.15
235.92	1509.35
236.14	1380.33
236.36	1452.01
236.58	1273.84
236.79	1386.47
237.01	1353.71
237.23	1361.90
237.45	1454.06
237.67	1386.47
237.88	1331.18
238.10	1454.06
238.32	1322.99
238.54	1400.81
238.76	1355.76
238.97	1316.84
239.19	1312.75
239.41	1357.80
239.63	1398.76
239.85	1372.14
240.06	1470.44
240.28	1456.11
240.50	1396.71
240.72	1353.71
240.93	1368.04
241.15	1392.62
241.37	1374.19
241.59	1392.62
241.81	1320.94
242.02	1355.76
242.24	1449.96
242.46	1378.28
242.68	1384.43
242.89	1357.80
243.11	1402.86
243.33	1466.35
243.55	1306.60
243.76	1363.95
243.98	1329.13
244.20	1376.24
244.42	1345.52
244.64	1439.72
244.85	1306.60
245.07	1288.17
245.29	1335.28
245.51	1409.00
245.72	1304.56
245.94	1388.52
246.16	1445.87
246.38	1411.05
246.59	1409.00
246.81	1298.41
247.03	1460.20
247.24	1296.36
247.46	1310.70
247.68	1357.80
247.90	1316.84
248.11	1322.99
248.33	1392.62
248.55	1318.89
248.77	1318.89
248.98	1427.43
249.20	1441.77
249.42	1347.56
249.64	1427.43
249.85	1378.28
250.07	1337.32
250.29	1413.10
250.50	1402.86
250.72	1423.34
250.94	1406.95
251.16	1460.20
251.37	1458.15
251.59	1423.34
251.81	1357.80
252.02	1349.61
252.24	1335.28
252.46	1437.67
252.68	1355.76
252.89	1310.70
253.11	1345.52
253.33	1484.78
253.54	1423.34
253.76	1382.38
253.98	1357.80
254.20	1345.52
254.41	1261.55
254.63	1378.28
254.85	1368.04
255.06	1361.90
255.28	1359.85
255.50	1306.60
255.71	1294.32
255.93	1386.47
256.15	1347.56
256.36	1427.43
256.58	1382.38
256.80	1439.72
257.02	1415.15
257.23	1431.53
257.45	1286.12
257.67	1404.91
257.88	1355.76
258.10	1396.71
258.32	1368.04
258.53	1376.24
258.75	1415.15
258.97	1361.90
259.18	1400.81
259.40	1361.90
259.62	1388.52
259.83	1458.15
260.05	1456.11
260.27	1552.36
260.48	1398.76
260.70	1314.80
260.92	1359.85
261.13	1361.90
261.35	1404.91
261.57	1347.56
261.78	1374.19
262.00	1402.86
262.22	1382.38
262.43	1259.50
262.65	1341.42
262.86	1406.95
263.08	1433.58
263.30	1359.85
263.51	1345.52
263.73	1275.88
263.95	1433.58
264.16	1384.43
264.38	1366.00
264.60	1363.95
264.81	1374.19
265.03	1394.67
265.25	1370.09
265.46	1288.17
265.68	1380.33
265.89	1306.60
266.11	1347.56
266.33	1366.00
266.54	1374.19
266.76	1488.87
266.98	1398.76
267.19	1392.62
267.41	1382.38
267.62	1423.34
267.84	1337.32
268.06	1431.53
268.27	1376.24
268.49	1411.05
268.70	1441.77
268.92	1314.80
269.14	1312.75
269.35	1288.17
269.57	1349.61
269.79	1411.05
270.00	1388.52
270.22	1384.43
270.43	1378.28
270.65	1357.80
270.87	1347.56
271.08	1357.80
271.30	1359.85
271.51	1390.57
271.73	1421.29
271.95	1423.34
272.16	1427.43
272.38	1423.34
272.59	1273.84
272.81	1366.00
273.02	1359.85
273.24	1378.28
273.46	1341.42
273.67	1304.56
273.89	1366.00
274.10	1370.09
274.32	1333.23
274.54	1421.29
274.75	1310.70
274.97	1413.10
275.18	1384.43
275.40	1363.95
275.61	1351.66
275.83	1370.09
276.05	1333.23
276.26	1368.04
276.48	1464.30
276.69	1304.56
276.91	1343.47
277.12	1415.15
277.34	1327.08
277.55	1394.67
277.77	1296.36
277.99	1396.71
278.20	1320.94
278.42	1337.32
278.63	1374.19
278.85	1329.13
279.06	1320.94
279.28	1427.43
279.49	1404.91
279.71	1433.58
279.93	1400.81
280.14	1339.37
280.36	1308.65
280.57	1429.48
280.79	1400.81
281.00	1384.43
281.22	1363.95
281.43	1327.08
281.65	1300.46
281.86	1314.80
282.08	1441.77
282.29	1409.00
282.51	1286.12
282.73	1302.51
282.94	1386.47
283.16	1402.86
283.37	1392.62
283.59	1380.33
283.80	1404.91
284.02	1318.89
284.23	1366.00
284.45	1355.76
284.66	1290.22
284.88	1302.51
285.09	1290.22
285.31	1429.48
285.52	1349.61
285.74	1314.80
285.95	1357.80
286.17	1396.71
286.38	1445.87
286.60	1282.03
286.81	1290.22
287.03	1347.56
287.24	1370.09
287.46	1339.37
287.67	1404.91
287.89	1394.67
288.10	1376.24
288.32	1386.47
288.53	1376.24
288.75	1314.80
288.96	1400.81
289.18	1349.61
289.39	1363.95
289.61	1398.76
289.82	1449.96
290.04	1366.00
290.25	1351.66
290.47	1347.56
290.68	1370.09
290.90	1386.47
291.11	1236.97
291.33	1349.61
291.54	1357.80
291.76	1400.81
291.97	1402.86
292.18	1433.58
292.40	1333.23
292.61	1400.81
292.83	1374.19
293.04	1400.81
293.26	1343.47
293.47	1333.23
293.69	1351.66
293.90	1337.32
294.12	1435.63
294.33	1361.90
294.55	1337.32
294.76	1447.91
294.97	1366.00
295.19	1443.82
295.40	1400.81
295.62	1411.05
295.83	1411.05
296.05	1372.14
296.26	1425.39
296.48	1337.32
296.69	1329.13
296.90	1411.05
297.12	1355.76
297.33	1390.57
297.55	1382.38
297.76	1382.38
297.98	1431.53
298.19	1372.14
298.41	1376.24
298.62	1277.93
298.83	1308.65
299.05	1398.76
299.26	1325.04
299.48	1398.76
299.69	1398.76
299.90	1404.91
300.12	1331.18
300.33	1378.28
300.55	1390.57
300.76	1347.56
300.98	1304.56
301.19	1406.95
301.40	1312.75
301.62	1331.18
301.83	1413.10
302.05	1406.95
302.26	1415.15
302.47	1384.43
302.69	1335.28
302.90	1337.32
303.12	1253.36
303.33	1449.96
303.54	1492.97
303.76	1415.15
303.97	1427.43
304.19	1452.01
304.40	1316.84
304.61	1394.67
304.83	1445.87
305.04	1415.15
305.26	1404.91
305.47	1304.56
305.68	1443.82
305.90	1361.90
306.11	1404.91
306.33	1322.99
306.54	1368.04
306.75	1359.85
306.97	1337.32
307.18	1306.60
307.39	1376.24
307.61	1456.11
307.82	1322.99
308.04	1406.95
308.25	1361.90
308.46	1329.13
308.68	1341.42
308.89	1376.24
309.10	1406.95
309.32	1402.86
309.53	1370.09
309.74	1327.08
309.96	1300.46
310.17	1423.34
310.39	1318.89
310.60	1411.05
310.81	1357.80
311.03	1327.08
311.24	1421.29
311.45	1341.42
311.67	1490.92
311.88	1396.71
312.09	1306.60
312.31	1339.37
312.52	1286.12
312.73	1372.14
312.95	1353.71
313.16	1310.70
313.37	1435.63
313.59	1380.33
313.80	1398.76
314.01	1443.82
314.23	1376.24
314.44	1396.71
314.65	1273.84
314.87	1273.84
315.08	1331.18
315.29	1388.52
315.51	1333.23
315.72	1353.71
315.93	1368.04
316.15	1396.71
316.36	1390.57
316.57	1331.18
316.79	1449.96
317.00	1443.82
317.21	1374.19
317.43	1318.89
317.64	1413.10
317.85	1433.58
318.07	1419.24
318.28	1531.88
318.49	1611.75
318.70	1683.43
318.92	1538.02
319.13	1505.26
319.34	1525.74
319.56	1490.92
319.77	1423.34
319.98	1445.87
320.20	1456.11
320.41	1445.87
320.62	1476.59
320.83	1327.08
321.05	1435.63
321.26	1402.86
321.47	1390.57
321.69	1419.24
321.90	1327.08
322.11	1351.66
322.32	1327.08
322.54	1363.95
322.75	1290.22
322.96	1409.00
323.18	1279.98
323.39	1282.03
323.60	1316.84
323.81	1425.39
324.03	1417.19
324.24	1353.71
324.45	1363.95
324.66	1388.52
324.88	1423.34
325.09	1515.50
325.30	1425.39
325.52	1359.85
325.73	1376.24
325.94	1380.33
326.15	1370.09
326.37	1370.09
326.58	1357.80
326.79	1421.29
327.00	1294.32
327.22	1413.10
327.43	1302.51
327.64	1345.52
327.85	1376.24
328.07	1320.94
328.28	1419.24
328.49	1347.56
328.70	1306.60
328.92	1413.10
329.13	1349.61
329.34	1406.95
329.55	1433.58
329.76	1349.61
329.98	1349.61
330.19	1445.87
330.40	1370.09
330.61	1378.28
330.83	1419.24
331.04	1339.37
331.25	1335.28
331.46	1314.80
331.68	1349.61
331.89	1388.52
332.10	1380.33
332.31	1296.36
332.52	1241.07
332.74	1347.56
332.95	1333.23
333.16	1355.76
333.37	1480.68
333.58	1380.33
333.80	1363.95
334.01	1320.94
334.22	1466.35
334.43	1345.52
334.64	1368.04
334.86	1292.27
335.07	1308.65
335.28	1372.14
335.49	1327.08
335.70	1402.86
335.92	1435.63
336.13	1431.53
336.34	1447.91
336.55	1347.56
336.76	1304.56
336.98	1316.84
337.19	1345.52
337.40	1368.04
337.61	1402.86
337.82	1386.47
338.04	1402.86
338.25	1370.09
338.46	1353.71
338.67	1325.04
338.88	1343.47
339.09	1413.10
339.31	1370.09
339.52	1368.04
339.73	1265.64
339.94	1296.36
340.15	1409.00
340.36	1347.56
340.58	1413.10
340.79	1335.28
341.00	1462.25
341.21	1329.13
341.42	1398.76
341.63	1327.08
341.85	1417.19
342.06	1357.80
342.27	1359.85
342.48	1370.09
342.69	1335.28
342.90	1370.09
343.12	1396.71
343.33	1320.94
343.54	1345.52
343.75	1421.29
343.96	1355.76
344.17	1380.33
344.38	1443.82
344.60	1263.60
344.81	1359.85
345.02	1421.29
345.23	1355.76
345.44	1341.42
345.65	1382.38
345.86	1396.71
346.07	1363.95
346.29	1376.24
346.50	1370.09
346.71	1441.77
346.92	1439.72
347.13	1443.82
347.34	1361.90
347.55	1333.23
347.76	1394.67
347.98	1372.14
348.19	1394.67
348.40	1470.44
348.61	1294.32
348.82	1425.39
349.03	1370.09
349.24	1327.08
349.45	1431.53
349.66	1343.47
349.88	1335.28
350.09	1382.38
350.30	1388.52
350.51	1353.71
350.72	1406.95
350.93	1429.48
351.14	1316.84
351.35	1335.28
351.56	1337.32
351.77	1335.28
351.99	1380.33
352.20	1380.33
352.41	1423.34
352.62	1257.45
352.83	1402.86
353.04	1329.13
353.25	1337.32
353.46	1468.39
353.67	1402.86
353.88	1314.80
354.09	1406.95
354.30	1363.95
354.52	1376.24
354.73	1284.08
354.94	1431.53
355.15	1382.38
355.36	1435.63
355.57	1302.51
355.78	1402.86
355.99	1372.14
356.20	1390.57
356.41	1419.24
356.62	1374.19
356.83	1329.13
357.04	1429.48
357.25	1347.56
357.46	1304.56
357.68	1341.42
357.89	1351.66
358.10	1363.95
358.31	1355.76
358.52	1318.89
358.73	1337.32
358.94	1349.61
359.15	1353.71
359.36	1429.48
359.57	1337.32
359.78	1345.52
359.99	1368.04
360.20	1294.32
360.41	1368.04
360.62	1402.86
360.83	1406.95
361.04	1433.58
361.25	1445.87
361.46	1441.77
361.67	1386.47
361.88	1441.77
362.09	1392.62
362.30	1363.95
362.51	1351.66
362.72	1363.95
362.93	1363.95
363.14	1443.82
363.35	1316.84
363.56	1327.08
363.78	1402.86
363.99	1400.81
364.20	1279.98
364.41	1372.14
364.62	1374.19
364.83	1449.96
365.04	1400.81
365.25	1411.05
365.46	1425.39
365.67	1353.71
365.88	1376.24
366.09	1361.90
366.30	1265.64
366.51	1437.67
366.72	1343.47
366.93	1349.61
367.14	1435.63
367.35	1363.95
367.56	1318.89
367.77	1413.10
367.98	1458.15
368.18	1363.95
368.39	1368.04
368.60	1259.50
368.81	1396.71
369.02	1380.33
369.23	1343.47
369.44	1376.24
369.65	1386.47
369.86	1374.19
370.07	1359.85
370.28	1394.67
370.49	1394.67
370.70	1402.86
370.91	1409.00
371.12	1331.18
371.33	1343.47
371.54	1314.80
371.75	1464.30
371.96	1310.70
372.17	1341.42
372.38	1372.14
372.59	1314.80
372.80	1308.65
373.01	1374.19
373.22	1402.86
373.43	1411.05
373.64	1376.24
373.85	1390.57
374.06	1417.19
374.26	1361.90
374.47	1449.96
374.68	1409.00
374.89	1361.90
375.10	1372.14
375.31	1394.67
375.52	1368.04
375.73	1380.33
375.94	1335.28
376.15	1486.83
376.36	1236.97
376.57	1372.14
376.78	1378.28
376.99	1343.47
377.20	1437.67
377.40	1421.29
377.61	1417.19
377.82	1374.19
378.03	1406.95
378.24	1415.15
378.45	1335.28
378.66	1343.47
378.87	1202.16
379.08	1370.09
379.29	1316.84
379.50	1409.00
379.71	1288.17
379.91	1359.85
380.12	1372.14
380.33	1413.10
380.54	1339.37
380.75	1382.38
380.96	1355.76
381.17	1425.39
381.38	1435.63
381.59	1511.40
381.80	1398.76
382.00	1550.31
382.21	1400.81
382.42	1495.02
382.63	1417.19
382.84	1392.62
383.05	1458.15
383.26	1427.43
383.47	1386.47
383.68	1427.43
383.88	1402.86
384.09	1370.09
384.30	1357.80
384.51	1413.10
384.72	1310.70
384.93	1345.52
385.14	1429.48
385.35	1396.71
385.55	1380.33
385.76	1433.58
385.97	1363.95
386.18	1325.04
386.39	1454.06
386.60	1419.24
386.81	1341.42
387.02	1370.09
387.22	1351.66
387.43	1468.39
387.64	1540.07
387.85	2285.53
388.06	5685.16
388.27	9422.70
388.48	11493.20
388.68	13129.53
388.89	13481.78
389.10	10618.72
389.31	9248.63
389.52	8368.00
389.73	7301.01
389.93	6965.14
390.14	6492.06
390.35	5994.40
390.56	5468.08
390.77	4483.00
390.98	3643.34
391.18	2822.10
391.39	2154.46
391.60	1734.63
391.81	1552.36
392.02	1382.38
392.23	1509.35
392.43	1480.68
392.64	1447.91
392.85	1445.87
393.06	1437.67
393.27	1406.95
393.47	1343.47
393.68	1388.52
393.89	1398.76
394.10	1384.43
394.31	1355.76
394.52	1396.71
394.72	1380.33
394.93	1394.67
395.14	1331.18
395.35	1394.67
395.56	1357.80
395.76	1570.79
395.97	1652.71
396.18	1619.94
396.39	1630.18
396.60	1640.42
396.80	1499.11
397.01	1488.87
397.22	1544.17
397.43	1492.97
397.64	1431.53
397.84	1525.74
398.05	1488.87
398.26	1425.39
398.47	1415.15
398.67	1454.06
398.88	1423.34
399.09	1345.52
399.30	1325.04
399.51	1353.71
399.71	1282.03
399.92	1310.70
400.13	1370.09
400.34	1294.32
400.54	1388.52
400.75	1454.06
400.96	1382.38
401.17	1464.30
401.37	1415.15
401.58	1269.74
401.79	1554.41
402.00	1744.87
402.21	1701.86
402.41	1820.64
402.62	1763.30
402.83	1697.77
403.04	1646.57
403.24	1644.52
403.45	1523.69
403.66	1591.27
403.87	1574.89
404.07	1519.59
404.28	1570.79
404.49	1515.50
404.70	1480.68
404.90	1460.20
405.11	1404.91
405.32	1415.15
405.52	1318.89
405.73	1294.32
405.94	1220.59
406.15	1390.57
406.35	1404.91
406.56	1370.09
406.77	1456.11
406.98	1435.63
407.18	1343.47
407.39	1427.43
407.60	1390.57
407.80	1400.81
408.01	1355.76
408.22	1310.70
408.43	1294.32
408.63	1316.84
408.84	1386.47
409.05	1349.61
409.25	1370.09
409.46	1320.94
409.67	1320.94
409.88	1282.03
410.08	1390.57
410.29	1357.80
410.50	1349.61
410.70	1462.25
410.91	1331.18
411.12	1409.00
411.32	1421.29
411.53	1462.25
411.74	1499.11
411.95	1470.44
412.15	1439.72
412.36	1437.67
412.57	1452.01
412.77	1540.07
412.98	1425.39
413.19	1370.09
413.39	1366.00
413.60	1413.10
413.81	1462.25
414.01	1366.00
414.22	1363.95
414.43	1322.99
414.63	1392.62
414.84	1415.15
415.05	1374.19
415.25	1292.27
415.46	1368.04
415.67	1384.43
415.87	1398.76
416.08	1257.45
416.29	1419.24
416.49	1392.62
416.70	1372.14
416.91	1392.62
417.11	1433.58
417.32	1318.89
417.53	1433.58
417.73	1404.91
417.94	1351.66
418.15	1406.95
418.35	1419.24
418.56	1335.28
418.77	1347.56
418.97	1425.39
419.18	1376.24
419.38	1267.69
419.59	1339.37
419.80	1386.47
420.00	1333.23
420.21	1392.62
420.42	1419.24
420.62	1355.76
420.83	1300.46
421.04	1372.14
421.24	1318.89
421.45	1322.99
421.65	1445.87
421.86	1392.62
422.07	1339.37
422.27	1406.95
422.48	1464.30
422.69	1310.70
422.89	1320.94
423.10	1409.00
423.30	1296.36
423.51	1409.00
423.72	1394.67
423.92	1427.43
424.13	1290.22
424.33	1341.42
424.54	1329.13
424.75	1359.85
424.95	1511.40
425.16	1380.33
425.36	1394.67
425.57	1292.27
425.78	1486.83
425.98	1456.11
426.19	1347.56
426.39	1308.65
426.60	1396.71
426.81	1454.06
427.01	1423.34
427.22	1394.67
427.42	1347.56
427.63	1359.85
427.83	1398.76
428.04	1355.76
428.25	1441.77
428.45	1392.62
428.66	1415.15
428.86	1357.80
429.07	1322.99
429.28	1429.48
429.48	1331.18
429.69	1351.66
429.89	1406.95
430.10	1269.74
430.30	1322.99
430.51	1421.29
430.71	1392.62
430.92	1335.28
431.13	1353.71
431.33	1427.43
431.54	1402.86
431.74	1425.39
431.95	1396.71
432.15	1357.80
432.36	1396.71
432.56	1404.91
432.77	1409.00
432.98	1464.30
433.18	1341.42
433.39	1322.99
433.59	1275.88
433.80	1443.82
434.00	1458.15
434.21	1384.43
434.41	1345.52
434.62	1460.20
434.82	1370.09
435.03	1353.71
435.23	1327.08
435.44	1294.32
435.64	1384.43
435.85	1296.36
436.06	1370.09
436.26	1472.49
436.47	1372.14
436.67	1443.82
436.88	1390.57
437.08	1466.35
437.29	1454.06
437.49	1400.81
437.70	1411.05
437.90	1388.52
438.11	1486.83
438.31	1507.30
438.52	1531.88
438.72	1525.74
438.93	1511.40
439.13	1441.77
439.34	1507.30
439.54	1390.57
439.75	1466.35
439.95	1361.90
440.16	1462.25
440.36	1462.25
440.57	1447.91
440.77	1402.86
440.98	1396.71
441.18	1415.15
441.39	1314.80
441.59	1425.39
441.80	1456.11
442.00	1415.15
442.21	1447.91
442.41	1298.41
442.62	1396.71
442.82	1322.99
443.02	1441.77
443.23	1406.95
443.43	1337.32
443.64	1439.72
443.84	1402.86
444.05	1404.91
444.25	1363.95
444.46	1370.09
444.66	1400.81
444.87	1390.57
445.07	1333.23
445.28	1404.91
445.48	1435.63
445.69	1392.62
445.89	1470.44
446.09	1482.73
446.30	2303.96
446.50	3772.36
446.71	4605.88
446.91	5384.11
447.12	5636.01
447.32	4929.46
447.53	4196.29
447.73	3739.59
447.93	3381.20
448.14	3198.93
448.34	3000.27
448.55	2721.75
448.75	2672.60
448.96	2699.22
449.16	2344.92
449.36	2238.43
449.57	2039.78
449.77	1720.29
449.98	1564.65
450.18	1611.75
450.39	1499.11
450.59	1431.53
450.79	1464.30
451.00	1423.34
451.20	1417.19
451.41	1419.24
451.61	1368.04
451.81	1380.33
452.02	1302.51
452.22	1386.47
452.43	1337.32
452.63	1349.61
452.84	1439.72
453.04	1288.17
453.24	1318.89
453.45	1353.71
453.65	1320.94
453.86	1363.95
454.06	1413.10
454.26	1347.56
454.47	1413.10
454.67	1454.06
454.87	1339.37
455.08	1329.13
455.28	1421.29
455.49	1439.72
455.69	1359.85
455.89	1402.86
456.10	1507.30
456.30	1312.75
456.51	1380.33
456.71	1435.63
456.91	1404.91
457.12	1343.47
457.32	1306.60
457.52	1337.32
457.73	1421.29
457.93	1415.15
458.14	1413.10
458.34	1331.18
458.54	1380.33
458.75	1402.86
458.95	1423.34
459.15	1454.06
459.36	1431.53
459.56	1390.57
459.76	1437.67
459.97	1308.65
460.17	1325.04
460.37	1386.47
460.58	1349.61
460.78	1404.91
460.99	1353.71
461.19	1386.47
461.39	1355.76
461.60	1378.28
461.80	1390.57
462.00	1388.52
462.21	1351.66
462.41	1245.16
462.61	1382.38
462.82	1357.80
463.02	1388.52
463.22	1333.23
463.43	1443.82
463.63	1419.24
463.83	1433.58
464.04	1386.47
464.24	1359.85
464.44	1421.29
464.64	1341.42
464.85	1443.82
465.05	1437.67
465.25	1404.91
465.46	1331.18
465.66	1347.56
465.86	1394.67
466.07	1345.52
466.27	1320.94
466.47	1353.71
466.68	1296.36
466.88	1431.53
467.08	1372.14
467.29	1345.52
467.49	1449.96
467.69	1386.47
467.89	1359.85
468.10	1320.94
468.30	1308.65
468.50	1441.77
468.71	1411.05
468.91	1341.42
469.11	1464.30
469.31	1400.81
469.52	1353.71
469.72	1394.67
469.92	1429.48
470.13	1339.37
470.33	1419.24
470.53	1708.01
470.73	2121.70
470.94	2203.61
471.14	2365.40
471.34	2455.51
471.54	2215.90
471.75	1994.72
471.95	1834.98
472.15	1859.56
472.36	1775.59
472.56	1732.58
472.76	1597.42
472.96	1730.53
473.17	1791.97
473.37	1548.26
473.57	1447.91
473.77	1523.69
473.98	1527.78
474.18	1419.24
474.38	1527.78
474.58	1353.71
474.79	1310.70
474.99	1372.14
475.19	1425.39
475.39	1380.33
475.60	1327.08
475.80	1423.34
476.00	1388.52
476.20	1339.37
476.41	1320.94
476.61	1456.11
476.81	1398.76
477.01	1331.18
477.21	1431.53
477.42	1421.29
477.62	1339.37
477.82	1390.57
478.02	1411.05
478.23	1380.33
478.43	1355.76
478.63	1382.38
478.83	1400.81
479.03	1386.47
479.24	1497.07
479.44	1482.73
479.64	1359.85
479.84	1335.28
480.04	1333.23
480.25	1404.91
480.45	1359.85
480.65	1370.09
480.85	1366.00
481.06	1361.90
481.26	1452.01
481.46	1415.15
481.66	1349.61
481.86	1290.22
482.06	1404.91
482.27	1366.00
482.47	1312.75
482.67	1363.95
482.87	1419.24
483.07	1447.91
483.28	1302.51
483.48	1363.95
483.68	1318.89
483.88	1277.93
484.08	1284.08
484.29	1370.09
484.49	1343.47
484.69	1345.52
484.89	1480.68
485.09	1384.43
485.29	1349.61
485.50	1472.49
485.70	1417.19
485.90	1472.49
486.10	1261.55
486.30	1452.01
486.50	1394.67
486.71	1419.24
486.91	1456.11
487.11	1421.29
487.31	1370.09
487.51	1404.91
487.71	1390.57
487.91	1327.08
488.12	1390.57
488.32	1208.30
488.52	1388.52
488.72	1247.21
488.92	1366.00
489.12	1361.90
489.32	1433.58
489.53	1439.72
489.73	1413.10
489.93	1380.33
490.13	1322.99
490.33	1288.17
490.53	1368.04
490.73	1421.29
490.94	1378.28
491.14	1388.52
491.34	1634.28
491.54	2119.65
491.74	2652.12
491.94	2920.40
492.14	3096.53
492.34	3018.71
492.54	2543.58
492.75	2330.59
492.95	2293.72
493.15	2043.87
493.35	2007.01
493.55	1943.52
493.75	1918.95
493.95	1794.02
494.15	1796.07
494.35	1779.68
494.56	1624.04
494.76	1525.74
494.96	1495.02
495.16	1427.43
495.36	1433.58
495.56	1396.71
495.76	1329.13
495.96	1355.76
496.16	1458.15
496.36	1396.71
496.56	1384.43
496.77	1333.23
496.97	1406.95
497.17	1406.95
497.37	1353.71
497.57	1396.71
497.77	1409.00
497.97	1261.55
498.17	1380.33
498.37	1398.76
498.57	1394.67
498.77	1374.19
498.97	1495.02
499.17	1435.63
499.38	1345.52
499.58	1368.04
499.78	1431.53
499.98	1480.68
500.18	1374.19
500.38	1460.20
500.58	1693.67
500.78	2887.64
500.98	5541.80
501.18	6901.65
501.38	8069.00
501.58	8382.34
501.78	7268.24
501.98	5607.34
502.18	5173.17
502.38	4542.39
502.58	4061.12
502.78	3665.86
502.98	3600.33
503.18	3422.16
503.38	3366.86
503.59	2990.03
503.79	2772.95
503.99	2619.35
504.19	2428.89
504.39	2084.83
504.59	2050.02
504.79	1906.66
504.99	1824.74
505.19	1566.70
505.39	1533.93
505.59	1634.28
505.79	1593.32
505.99	1523.69
506.19	1570.79
506.39	1472.49
506.59	1458.15
506.79	1441.77
506.99	1454.06
507.19	1478.63
507.39	1429.48
507.59	1380.33
507.79	1345.52
507.99	1368.04
508.19	1396.71
508.39	1351.66
508.59	1353.71
508.79	1480.68
508.99	1437.67
509.19	1329.13
509.39	1449.96
509.59	1345.52
509.79	1390.57
509.99	1433.58
510.19	1478.63
510.39	1339.37
510.59	1464.30
510.79	1308.65
510.99	1327.08
511.19	1480.68
511.39	1425.39
511.59	1327.08
511.79	1441.77
511.99	1454.06
512.19	1411.05
512.38	1386.47
512.58	1382.38
512.78	1322.99
512.98	1409.00
513.18	1392.62
513.38	1261.55
513.58	1392.62
513.78	1361.90
513.98	1325.04
514.18	1339.37
514.38	1363.95
514.58	1439.72
514.78	1345.52
514.98	1390.57
515.18	1415.15
515.38	1384.43
515.58	1421.29
515.78	1331.18
515.98	1380.33
516.18	1322.99
516.38	1372.14
516.57	1275.88
516.77	1429.48
516.97	1357.80
517.17	1402.86
517.37	1400.81
517.57	1439.72
517.77	1341.42
517.97	1390.57
518.17	1468.39
518.37	1318.89
518.57	1427.43
518.77	1359.85
518.97	1380.33
519.16	1392.62
519.36	1419.24
519.56	1396.71
519.76	1394.67
519.96	1355.76
520.16	1417.19
520.36	1306.60
520.56	1447.91
520.76	1331.18
520.96	1417.19
521.16	1435.63
521.35	1376.24
521.55	1398.76
521.75	1380.33
521.95	1345.52
522.15	1329.13
522.35	1351.66
522.55	1345.52
522.75	1423.34
522.95	1277.93
523.14	1382.38
523.34	1333.23
523.54	1359.85
523.74	1372.14
523.94	1396.71
524.14	1374.19
524.34	1454.06
524.54	1419.24
524.73	1386.47
524.93	1409.00
525.13	1394.67
525.33	1308.65
525.53	1406.95
525.73	1423.34
525.93	1437.67
526.13	1372.14
526.32	1419.24
526.52	1402.86
526.72	1437.67
526.92	1314.80
527.12	1433.58
527.32	1329.13
527.52	1380.33
527.71	1376.24
527.91	1376.24
528.11	1351.66
528.31	1361.90
528.51	1331.18
528.71	1372.14
528.90	1425.39
529.10	1437.67
529.30	1474.54
529.50	1335.28
529.70	1359.85
529.90	1388.52
530.09	1337.32
530.29	1388.52
530.49	1366.00
530.69	1380.33
530.89	1427.43
531.09	1429.48
531.28	1261.55
531.48	1423.34
531.68	1447.91
531.88	1429.48
532.08	1359.85
532.28	1402.86
532.47	1384.43
532.67	1458.15
532.87	1384.43
533.07	1427.43
533.27	1441.77
533.46	1427.43
533.66	1327.08
533.86	1374.19
534.06	1423.34
534.26	1417.19
534.45	1343.47
534.65	1431.53
534.85	1390.57
535.05	1363.95
535.25	1417.19
535.44	1314.80
535.64	1320.94
535.84	1347.56
536.04	1341.42
536.24	1351.66
536.43	1423.34
536.63	1292.27
536.83	1345.52
537.03	1388.52
537.22	1337.32
537.42	1277.93
537.62	1443.82
537.82	1347.56
538.02	1388.52
538.21	1413.10
538.41	1501.16
538.61	1343.47
538.81	1349.61
539.00	1396.71
539.20	1331.18
539.40	1406.95
539.60	1392.62
539.79	1337.32
539.99	1353.71
540.19	1302.51
540.39	1337.32
540.58	1449.96
540.78	1361.90
540.98	1380.33
541.18	1388.52
541.37	1415.15
541.57	1384.43
541.77	1454.06
541.97	1380.33
542.16	1230.83
542.36	1308.65
542.56	1468.39
542.76	1454.06
542.95	1443.82
543.15	1396.71
543.35	1411.05
543.54	1341.42
543.74	1316.84
543.94	1363.95
544.14	1384.43
544.33	1411.05
544.53	1396.71
544.73	1312.75
544.93	1308.65
545.12	1339.37
545.32	1390.57
545.52	1335.28
545.71	1318.89
545.91	1351.66
546.11	1314.80
546.30	1411.05
546.50	1427.43
546.70	1441.77
546.90	1437.67
547.09	1331.18
547.29	1396.71
547.49	1357.80
547.68	1398.76
547.88	1363.95
548.08	1406.95
548.27	1638.38
548.47	1380.33
548.67	1366.00
548.87	1398.76
549.06	1421.29
549.26	1386.47
549.46	1423.34
549.65	1370.09
549.85	1396.71
550.05	1368.04
550.24	1310.70
550.44	1404.91
550.64	1419.24
550.83	1290.22
551.03	1454.06
551.23	1499.11
551.42	1337.32
551.62	1394.67
551.82	1400.81
552.01	1396.71
552.21	1388.52
552.41	1327.08
552.60	1427.43
552.80	1388.52
553.00	1390.57
553.19	1282.03
553.39	1402.86
553.59	1335.28
553.78	1400.81
553.98	1400.81
554.17	1345.52
554.37	1386.47
554.57	1398.76
554.76	1396.71
554.96	1298.41
555.16	1349.61
555.35	1421.29
555.55	1400.81
555.75	1349.61
555.94	1380.33
556.14	1304.56
556.33	1345.52
556.53	1404.91
556.73	1349.61
556.92	1372.14
557.12	1449.96
557.32	1449.96
557.51	1404.91
557.71	1368.04
557.90	1404.91
558.10	1413.10
558.30	1370.09
558.49	1368.04
558.69	1339.37
558.88	1402.86
559.08	1396.71
559.28	1359.85
559.47	1363.95
559.67	1449.96
559.86	1372.14
560.06	1439.72
560.26	1386.47
560.45	1421.29
560.65	1427.43
560.84	1357.80
561.04	1312.75
561.24	1380.33
561.43	1339.37
561.63	1476.59
561.82	1386.47
562.02	1411.05
562.22	1404.91
562.41	1271.79
562.61	1411.05
562.80	1363.95
563.00	1449.96
563.19	1361.90
563.39	1345.52
563.59	1351.66
563.78	1329.13
563.98	1282.03
564.17	1316.84
564.37	1380.33
564.56	1419.24
564.76	1413.10
564.96	1466.35
565.15	1466.35
565.35	1511.40
565.54	1388.52
565.74	1427.43
565.93	1449.96
566.13	1394.67
566.32	1404.91
566.52	1406.95
566.71	1372.14
566.91	1388.52
567.11	1404.91
567.30	1415.15
567.50	1409.00
567.69	1443.82
567.89	1329.13
568.08	1376.24
568.28	1351.66
568.47	1331.18
568.67	1421.29
568.86	1331.18
569.06	1470.44
569.25	1386.47
569.45	1398.76
569.64	1413.10
569.84	1322.99
570.04	1402.86
570.23	1329.13
570.43	1322.99
570.62	1388.52
570.82	1470.44
571.01	1417.19
571.21	1333.23
571.40	1347.56
571.60	1402.86
571.79	1413.10
571.99	1402.86
572.18	1333.23
572.38	1419.24
572.57	1396.71
572.77	1409.00
572.96	1413.10
573.16	1433.58
573.35	1460.20
573.55	1423.34
573.74	1425.39
573.94	1413.10
574.13	1372.14
574.33	1392.62
574.52	1400.81
574.71	1384.43
574.91	1409.00
575.10	1409.00
575.30	1384.43
575.49	1347.56
575.69	1409.00
575.88	1439.72
576.08	1372.14
576.27	1507.30
576.47	1490.92
576.66	1499.11
576.86	1454.06
577.05	1458.15
577.25	1423.34
577.44	1554.41
577.64	1417.19
577.83	1535.98
578.02	1447.91
578.22	1413.10
578.41	1423.34
578.61	1437.67
578.80	1382.38
579.00	1441.77
579.19	1409.00
579.39	1394.67
579.58	1380.33
579.77	1419.24
579.97	1507.30
580.16	1474.54
580.36	1509.35
580.55	1456.11
580.75	1495.02
580.94	1368.04
581.13	1482.73
581.33	1482.73
581.52	1384.43
581.72	1505.26
581.91	1488.87
582.11	1429.48
582.30	1445.87
582.49	1429.48
582.69	1544.17
582.88	1492.97
583.08	1423.34
583.27	1445.87
583.47	1421.29
583.66	1409.00
583.85	1431.53
584.05	1429.48
584.24	1423.34
584.44	1433.58
584.63	1507.30
584.82	1527.78
585.02	1519.59
585.21	1615.85
585.41	1542.12
585.60	1574.89
585.79	1681.38
585.99	1642.47
586.18	1572.84
586.37	1849.32
586.57	2600.92
586.76	7896.97
586.96	24598.15
587.15	41344.39
587.34	51784.94
587.54	59784.30
587.73	59087.99
587.93	44766.55
588.12	32861.71
588.31	26732.14
588.51	22480.55
588.70	19867.34
588.89	18540.26
589.09	17061.63
589.28	15736.59
589.47	14391.08
589.67	12562.24
589.86	10518.37
590.06	8603.52
590.25	6705.05
590.44	4968.37
590.64	3764.17
590.83	2887.64
591.02	2263.01
591.22	1949.67
591.41	1732.58
591.60	1611.75
591.80	1617.90
591.99	1452.01
592.18	1499.11
592.38	1499.11
592.57	1427.43
592.76	1439.72
592.96	1464.30
593.15	1439.72
593.34	1443.82
593.54	1386.47
593.73	1472.49
593.92	1472.49
594.12	1482.73
594.31	1480.68
594.50	1472.49
594.70	1509.35
594.89	1533.93
595.08	1409.00
595.28	1476.59
595.47	1546.22
595.66	1492.97
595.86	1378.28
596.05	1443.82
596.24	1490.92
596.43	1546.22
596.63	1456.11
596.82	1443.82
597.01	1439.72
597.21	1521.64
597.40	1490.92
597.59	1484.78
597.79	1409.00
597.98	1449.96
598.17	1413.10
598.36	1415.15
598.56	1466.35
598.75	1452.01
598.94	1431.53
599.14	1429.48
599.33	1406.95
599.52	1415.15
599.71	1445.87
599.91	1454.06
600.10	1433.58
600.29	1411.05
600.48	1421.29
600.68	1486.83
600.87	1380.33
601.06	1363.95
601.26	1411.05
601.45	1284.08
601.64	1341.42
601.83	1423.34
602.03	1425.39
602.22	1388.52
602.41	1478.63
602.60	1542.12
602.80	1449.96
602.99	1378.28
603.18	1388.52
603.37	1406.95
603.57	1439.72
603.76	1466.35
603.95	1431.53
604.14	1390.57
604.34	1366.00
604.53	1413.10
604.72	1363.95
604.91	1439.72
605.10	1402.86
605.30	1279.98
605.49	1439.72
605.68	1441.77
605.87	1394.67
606.07	1339.37
606.26	1380.33
606.45	1347.56
606.64	1335.28
606.84	1433.58
607.03	1460.20
607.22	1445.87
607.41	1409.00
607.60	1462.25
607.80	1458.15
607.99	1413.10
608.18	1386.47
608.37	1357.80
608.56	1417.19
608.76	1427.43
608.95	1509.35
609.14	1441.77
609.33	1564.65
609.52	1560.55
609.72	1404.91
609.91	1550.31
610.10	1476.59
610.29	1525.74
610.48	1486.83
610.68	1406.95
610.87	1386.47
611.06	1378.28
611.25	1460.20
611.44	1476.59
611.63	1349.61
611.83	1476.59
612.02	1392.62
612.21	1431.53
612.40	1357.80
612.59	1329.13
612.79	1220.59
612.98	1390.57
613.17	1492.97
613.36	1396.71
613.55	1425.39
613.74	1480.68
613.93	1564.65
614.13	1615.85
614.32	1566.70
614.51	1552.36
614.70	1570.79
614.89	1525.74
615.08	1435.63
615.28	1654.76
615.47	1415.15
615.66	1396.71
615.85	1505.26
616.04	1585.13
616.23	1452.01
616.42	1482.73
616.62	1429.48
616.81	1456.11
617.00	1454.06
617.19	1404.91
617.38	1390.57
617.57	1431.53
617.76	1429.48
617.95	1400.81
618.15	1484.78
618.34	1406.95
618.53	1331.18
618.72	1419.24
618.91	1398.76
619.10	1523.69
619.29	1458.15
619.48	1386.47
619.68	1355.76
619.87	1331.18
620.06	1263.60
620.25	1431.53
620.44	1390.57
620.63	1279.98
620.82	1351.66
621.01	1372.14
621.20	1370.09
621.39	1421.29
621.59	1409.00
621.78	1394.67
621.97	1368.04
622.16	1339.37
622.35	1411.05
622.54	1452.01
622.73	1495.02
622.92	1345.52
623.11	1331.18
623.30	1355.76
623.49	1456.11
623.68	1380.33
623.88	1388.52
624.07	1392.62
624.26	1349.61
624.45	1353.71
624.64	1349.61
624.83	1361.90
625.02	1374.19
625.21	1333.23
625.40	1443.82
625.59	1464.30
625.78	1437.67
625.97	1447.91
626.16	1482.73
626.35	1490.92
626.54	1480.68
626.74	1562.60
626.93	1359.85
627.12	1437.67
627.31	1550.31
627.50	1474.54
627.69	1460.20
627.88	1380.33
628.07	1406.95
628.26	1404.91
628.45	1279.98
628.64	1411.05
628.83	1439.72
629.02	1298.41
629.21	1374.19
629.40	1460.20
629.59	1351.66
629.78	1396.71
629.97	1366.00
630.16	1435.63
630.35	1357.80
630.54	1456.11
630.73	1437.67
630.92	1368.04
631.11	1380.33
631.30	1376.24
631.49	1486.83
631.68	1363.95
631.87	1411.05
632.06	1376.24
632.25	1490.92
632.44	1361.90
632.63	1421.29
632.82	1398.76
633.01	1462.25
633.20	1449.96
633.39	1527.78
633.58	1427.43
633.77	1497.07
633.96	1454.06
634.15	1476.59
634.34	1435.63
634.53	1460.20
634.72	1429.48
634.91	1318.89
635.10	1404.91
635.29	1368.04
635.48	1439.72
635.67	1398.76
635.86	1394.67
636.05	1388.52
636.24	1415.15
636.43	1382.38
636.62	1376.24
636.81	1271.79
637.00	1439.72
637.19	1363.95
637.38	1347.56
637.57	1386.47
637.76	1449.96
637.95	1421.29
638.14	1460.20
638.33	1535.98
638.52	1511.40
638.71	1437.67
638.89	1361.90
639.08	1488.87
639.27	1402.86
639.46	1474.54
639.65	1708.01
639.84	1892.32
640.03	2070.50
640.22	2146.27
640.41	2189.28
640.60	1902.56
640.79	1718.25
640.98	1650.66
641.17	1603.56
641.36	1603.56
641.55	1533.93
641.74	1470.44
641.92	1568.74
642.11	1480.68
642.30	1529.83
642.49	1445.87
642.68	1466.35
642.87	1400.81
643.06	1445.87
643.25	1380.33
643.44	1372.14
643.63	1331.18
643.82	1413.10
644.00	1335.28
644.19	1370.09
644.38	1372.14
644.57	1462.25
644.76	1390.57
644.95	1345.52
645.14	1363.95
645.33	1361.90
645.52	1380.33
645.71	1347.56
645.89	1353.71
646.08	1314.80
646.27	1363.95
646.46	1449.96
646.65	1312.75
646.84	1388.52
647.03	1386.47
647.22	1392.62
647.40	1380.33
647.59	1368.04
647.78	1292.27
647.97	1392.62
648.16	1355.76
648.35	1353.71
648.54	1386.47
648.73	1333.23
648.91	1386.47
649.10	1413.10
649.29	1376.24
649.48	1345.52
649.67	1353.71
649.86	1282.03
650.05	1388.52
650.23	1511.40
650.42	1429.48
650.61	1605.61
650.80	1611.75
650.99	1634.28
651.18	1464.30
651.36	1497.07
651.55	1462.25
651.74	1468.39
651.93	1413.10
652.12	1417.19
652.31	1447.91
652.49	1417.19
652.68	1366.00
652.87	1482.73
653.06	1392.62
653.25	1427.43
653.44	1411.05
653.62	1411.05
653.81	1241.07
654.00	1361.90
654.19	1378.28
654.38	1468.39
654.56	1449.96
654.75	1400.81
654.94	1427.43
655.13	1320.94
655.32	1318.89
655.51	1390.57
655.69	1314.80
655.88	1378.28
656.07	1353.71
656.26	1396.71
656.45	1310.70
656.63	1413.10
656.82	1419.24
657.01	1441.77
657.20	1374.19
657.38	1396.71
657.57	1368.04
657.76	1374.19
657.95	1464.30
658.14	1322.99
658.32	1392.62
658.51	1343.47
658.70	1398.76
658.89	1388.52
659.08	1351.66
659.26	1478.63
659.45	1366.00
659.64	1435.63
659.83	1400.81
660.01	1574.89
660.20	1492.97
660.39	1484.78
660.58	1380.33
660.76	1468.39
660.95	1355.76
661.14	1370.09
661.33	1308.65
661.51	1398.76
661.70	1454.06
661.89	1425.39
662.08	1411.05
662.26	1400.81
662.45	1273.84
662.64	1488.87
662.83	1376.24
663.01	1374.19
663.20	1396.71
663.39	1421.29
663.58	1374.19
663.76	1421.29
663.95	1368.04
664.14	1392.62
664.32	1388.52
664.51	1402.86
664.70	1329.13
664.89	1382.38
665.07	1378.28
665.26	1441.77
665.45	1374.19
665.64	1476.59
665.82	1402.86
666.01	1449.96
666.20	1388.52
666.38	1411.05
666.57	1495.02
666.76	1595.37
666.95	1970.15
667.13	4483.00
667.32	11474.77
667.51	17950.45
667.69	21642.93
667.88	25020.03
668.07	24475.27
668.25	19220.19
668.44	13766.45
668.63	11134.81
668.81	9181.04
669.00	7976.84
669.19	7446.41
669.38	6647.71
669.56	6180.77
669.75	5672.87
669.94	4880.31
670.12	4220.86
670.31	3477.45
670.50	2963.41
670.68	2461.66
670.87	2078.69
671.06	1875.94
671.24	1697.77
671.43	1607.66
671.62	1519.59
671.80	1515.50
671.99	1486.83
672.18	1464.30
672.36	1492.97
672.55	1462.25
672.74	1454.06
672.92	1363.95
673.11	1409.00
673.29	1406.95
673.48	1421.29
673.67	1384.43
673.85	1386.47
674.04	1359.85
674.23	1394.67
674.41	1503.21
674.60	1333.23
674.79	1433.58
674.97	1374.19
675.16	1343.47
675.34	1431.53
675.53	1392.62
675.72	1335.28
675.90	1423.34
676.09	1449.96
676.28	1413.10
676.46	1345.52
676.65	1388.52
676.83	1353.71
677.02	1361.90
677.21	1279.98
677.39	1419.24
677.58	1304.56
677.77	1353.71
677.95	1335.28
678.14	1366.00
678.32	1353.71
678.51	1314.80
678.70	1445.87
678.88	1366.00
679.07	1437.67
679.25	1388.52
679.44	1355.76
679.63	1341.42
679.81	1380.33
680.00	1382.38
680.18	1380.33
680.37	1476.59
680.55	1337.32
680.74	1304.56
680.93	1339.37
681.11	1361.90
681.30	1423.34
681.48	1349.61
681.67	1349.61
681.85	1325.04
682.04	1404.91
682.23	1380.33
682.41	1400.81
682.60	1417.19
682.78	1306.60
682.97	1380.33
683.15	1374.19
683.34	1411.05
683.53	1490.92
683.71	1398.76
683.90	1435.63
684.08	1431.53
684.27	1351.66
684.45	1380.33
684.64	1421.29
684.82	1351.66
685.01	1441.77
685.19	1376.24
685.38	1370.09
685.57	1402.86
685.75	1302.51
685.94	1288.17
686.12	1273.84
686.31	1312.75
686.49	1415.15
686.68	1292.27
686.86	1345.52
687.05	1347.56
687.23	1468.39
687.42	1445.87
687.60	1349.61
687.79	1402.86
687.97	1384.43
688.16	1359.85
688.34	1392.62
688.53	1359.85
688.71	1372.14
688.90	1386.47
689.08	1409.00
689.27	1329.13
689.45	1312.75
689.64	1425.39
689.82	1357.80
690.01	1339.37
690.19	1359.85
690.38	1347.56
690.56	1460.20
690.75	1390.57
690.93	1322.99
691.12	1347.56
691.30	1298.41
691.49	1359.85
691.67	1427.43
691.86	1429.48
692.04	1314.80
692.23	1327.08
692.41	1353.71
692.60	1509.35
692.78	1495.02
692.97	1464.30
693.15	1441.77
693.34	1611.75
693.52	1462.25
693.71	1427.43
693.89	1396.71
694.08	1331.18
694.26	1392.62
694.44	1388.52
694.63	1341.42
694.81	1394.67
695.00	1327.08
695.18	1466.35
695.37	1437.67
695.55	1443.82
695.74	1415.15
695.92	1355.76
696.10	1400.81
696.29	1310.70
696.47	1335.28
696.66	1376.24
696.84	1359.85
697.03	1396.71
697.21	1417.19
697.40	1755.11
697.58	1497.07
697.76	1341.42
697.95	1298.41
698.13	1296.36
698.32	1329.13
698.50	1382.38
698.68	1370.09
698.87	1320.94
699.05	1466.35
699.24	1349.61
699.42	1329.13
699.61	1290.22
699.79	1351.66
699.97	1413.10
700.16	1413.10
700.34	1353.71
700.53	1411.05
700.71	1411.05
700.89	1492.97
701.08	1329.13
701.26	1382.38
701.45	1630.18
701.63	1314.80
701.81	1433.58
702.00	1421.29
702.18	1458.15
702.37	1366.00
702.55	1462.25
702.73	1509.35
702.92	1505.26
703.10	1632.23
703.28	1697.77
703.47	1716.20
703.65	1685.48
703.84	1621.99
704.02	1540.07
704.20	1550.31
704.39	1433.58
704.57	1429.48
704.75	1423.34
704.94	1452.01
705.12	1492.97
705.30	1443.82
705.49	1495.02
705.67	1783.78
705.86	3596.23
706.04	9211.76
706.22	16150.28
706.41	19666.64
706.59	22496.94
706.77	23584.41
706.96	19678.93
707.14	13766.45
707.32	11421.52
707.51	9226.10
707.69	8189.83
707.87	7327.63
708.06	6559.64
708.24	6064.04
708.42	5187.50
708.61	4050.88
708.79	3084.24
708.97	2414.56
709.16	2047.97
709.34	1740.77
709.52	1644.52
709.71	1472.49
709.89	1503.21
710.07	1427.43
710.26	1441.77
710.44	1501.16
710.62	1347.56
710.80	1363.95
710.99	1386.47
711.17	1425.39
711.35	1351.66
711.54	1392.62
711.72	1384.43
711.90	1456.11
712.09	1353.71
712.27	1400.81
712.45	1396.71
712.63	1406.95
712.82	1370.09
713.00	1349.61
713.18	1415.15
713.37	1437.67
713.55	1413.10
713.73	1392.62
713.91	1378.28
714.10	1392.62
714.28	1411.05
714.46	1341.42
714.65	1476.59
714.83	1406.95
715.01	1306.60
715.19	1439.72
715.38	1322.99
715.56	1368.04
715.74	1386.47
715.92	1284.08
716.11	1492.97
716.29	1386.47
716.47	1431.53
716.65	1433.58
716.84	1329.13
717.02	1484.78
717.20	1349.61
717.38	1327.08
717.57	1474.54
717.75	1337.32
717.93	1325.04
718.11	1445.87
718.30	1343.47
718.48	1378.28
718.66	1386.47
718.84	1372.14
719.03	1443.82
719.21	1425.39
719.39	1425.39
719.57	1361.90
719.75	1409.00
719.94	1349.61
720.12	1279.98
720.30	1409.00
720.48	1337.32
720.67	1304.56
720.85	1286.12
721.03	1343.47
721.21	1398.76
721.39	1378.28
721.58	1460.20
721.76	1472.49
721.94	1363.95
722.12	1335.28
722.30	1456.11
722.49	1388.52
722.67	1345.52
722.85	1386.47
723.03	1329.13
723.21	1368.04
723.40	1333.23
723.58	1396.71
723.76	1286.12
723.94	1431.53
724.12	1447.91
724.30	1499.11
724.49	1470.44
724.67	1400.81
724.85	1591.27
725.03	1355.76
725.21	1409.00
725.40	1474.54
725.58	1470.44
725.76	1419.24
725.94	1415.15
726.12	1288.17
726.30	1439.72
726.49	1388.52
726.67	1318.89
726.85	1421.29
727.03	1454.06
727.21	1501.16
727.39	1587.18
727.57	2052.06
727.76	3461.07
727.94	4308.93
728.12	4954.04
728.30	5339.05
728.48	5124.02
728.66	4210.62
728.84	3522.51
729.03	3108.82
729.21	2783.19
729.39	2500.57
729.57	2189.28
729.75	1966.05
729.93	1761.25
730.11	1607.66
730.30	1535.98
730.48	1439.72
730.66	1464.30
730.84	1382.38
731.02	1460.20
731.20	1425.39
731.38	1398.76
731.56	1355.76
731.74	1282.03
731.93	1392.62
732.11	1339.37
732.29	1361.90
732.47	1347.56
732.65	1363.95
732.83	1378.28
733.01	1429.48
733.19	1394.67
733.37	1398.76
733.56	1396.71
733.74	1343.47
733.92	1449.96
734.10	1419.24
734.28	1370.09
734.46	1325.04
734.64	1376.24
734.82	1331.18
735.00	1386.47
735.18	1376.24
735.36	1380.33
735.54	1388.52
735.73	1378.28
735.91	1384.43
736.09	1394.67
736.27	1402.86
736.45	1384.43
736.63	1349.61
736.81	1384.43
736.99	1386.47
737.17	1425.39
737.35	1294.32
737.53	1320.94
737.71	1355.76
737.89	1447.91
738.07	1333.23
738.25	1386.47
738.43	1253.36
738.61	1273.84
738.80	1376.24
738.98	1376.24
739.16	1357.80
739.34	1382.38
739.52	1404.91
739.70	1388.52
739.88	1388.52
740.06	1363.95
740.24	1294.32
740.42	1411.05
740.60	1275.88
740.78	1308.65
740.96	1312.75
741.14	1318.89
741.32	1400.81
741.50	1261.55
741.68	1421.29
741.86	1382.38
742.04	1355.76
742.22	1351.66
742.40	1363.95
742.58	1335.28
742.76	1372.14
742.94	1331.18
743.12	1282.03
743.30	1290.22
743.48	1409.00
743.66	1368.04
743.84	1370.09
744.02	1409.00
744.20	1402.86
744.38	1435.63
744.56	1341.42
744.74	1400.81
744.92	1423.34
745.10	1429.48
745.28	1443.82
745.46	1425.39
745.64	1339.37
745.82	1355.76
746.00	1372.14
746.18	1382.38
746.36	1366.00
746.54	1396.71
746.72	1376.24
746.90	1341.42
747.08	1347.56
747.26	1359.85
747.44	1366.00
747.62	1357.80
747.80	1394.67
747.98	1359.85
748.15	1437.67
748.33	1458.15
748.51	1372.14
748.69	1437.67
748.87	1325.04
749.05	1333.23
749.23	1374.19
749.41	1382.38
749.59	1380.33
749.77	1476.59
749.95	1345.52
750.13	1363.95
750.31	1415.15
750.49	1425.39
750.67	1388.52
750.85	1398.76
751.03	1388.52
751.20	1460.20
751.38	1343.47
751.56	1378.28
751.74	1419.24
751.92	1355.76
752.10	1284.08
752.28	1329.13
752.46	1255.40
752.64	1363.95
752.82	1306.60
753.00	1429.48
753.18	1376.24
753.35	1394.67
753.53	1284.08
753.71	1394.67
753.89	1452.01
754.07	1392.62
754.25	1462.25
754.43	1353.71
754.61	1325.04
754.79	1427.43
754.97	1380.33
755.14	1361.90
755.32	1322.99
755.50	1343.47
755.68	1411.05
755.86	1359.85
756.04	1349.61
756.22	1286.12
756.40	1470.44
756.57	1484.78
756.75	1413.10
756.93	1400.81
757.11	1390.57
757.29	1337.32
757.47	1376.24
757.65	1374.19
757.82	1298.41
758.00	1341.42
758.18	1359.85
758.36	1386.47
758.54	1331.18
758.72	1310.70
758.90	1419.24
759.07	1351.66
759.25	1329.13
759.43	1368.04
759.61	1273.84
759.79	1671.14
759.97	1470.44
760.15	1339.37
760.32	1374.19
760.50	1382.38
760.68	1413.10
760.86	1337.32
761.04	1482.73
761.22	1417.19
761.39	1333.23
761.57	1363.95
761.75	1370.09
761.93	1376.24
762.11	1304.56
762.28	1329.13
762.46	1439.72
762.64	1382.38
762.82	1294.32
763.00	1376.24
763.18	1335.28
763.35	1320.94
763.53	1363.95
763.71	1435.63
763.89	1310.70
764.07	1366.00
764.24	1273.84
764.42	1421.29
764.60	1361.90
764.78	1341.42
764.96	1390.57
765.13	1339.37
765.31	1308.65
765.49	1439.72
765.67	1355.76
765.84	1322.99
766.02	1302.51
766.20	1300.46
766.38	1351.66
766.56	1396.71
766.73	1380.33
766.91	1349.61
767.09	1335.28
767.27	1454.06
767.44	1388.52
767.62	1400.81
767.80	1417.19
767.98	1329.13
768.15	1394.67
768.33	1449.96
768.51	1394.67
768.69	1419.24
768.87	1347.56
769.04	1413.10
769.22	1376.24
769.40	1380.33
769.58	1445.87
769.75	1380.33
769.93	1452.01
770.11	1331.18
770.28	1363.95
770.46	1409.00
770.64	1366.00
770.82	1327.08
770.99	1359.85
771.17	1392.62
771.35	1357.80
771.53	1335.28
771.70	1273.84
771.88	1396.71
772.06	1392.62
772.23	1341.42
772.41	1411.05
772.59	1376.24
772.77	1339.37
772.94	1327.08
773.12	1384.43
773.30	1308.65
773.47	1296.36
773.65	1318.89
773.83	1462.25
774.01	1286.12
774.18	1337.32
774.36	1406.95
774.54	1273.84
774.71	1279.98
774.89	1359.85
775.07	1327.08
775.24	1398.76
775.42	1417.19
775.60	1447.91
775.78	1409.00
775.95	1296.36
776.13	1339.37
776.31	1316.84
776.48	1339.37
776.66	1419.24
776.84	1355.76
777.01	1282.03
777.19	1351.66
777.37	1327.08
777.54	1411.05
777.72	1486.83
777.90	1374.19
778.07	1286.12
778.25	1531.88
778.43	1474.54
778.60	1335.28
778.78	1441.77
778.96	1441.77
779.13	1298.41
779.31	1396.71
779.49	1402.86
779.66	1343.47
779.84	1331.18
780.01	1314.80
780.19	1331.18
780.37	1316.84
780.54	1374.19
780.72	1386.47
780.90	1320.94
781.07	1361.90
781.25	1366.00
781.43	1400.81
781.60	1341.42
781.78	1400.81
781.95	1302.51
782.13	1284.08
782.31	1359.85
782.48	1343.47
782.66	1382.38
782.83	1462.25
783.01	1353.71
783.19	1378.28
783.36	1302.51
783.54	1312.75
783.72	1353.71
783.89	1366.00
784.07	1366.00
784.24	1335.28
784.42	1398.76
784.60	1353.71
784.77	1312.75
784.95	1368.04
785.12	1349.61
785.30	1384.43
785.47	1296.36
785.65	1341.42
785.83	1390.57
786.00	1390.57
786.18	1359.85
786.35	1372.14
786.53	1304.56
786.71	1378.28
786.88	1427.43
787.06	1322.99
787.23	1468.39
787.41	1298.41
787.58	1341.42
787.76	1357.80
787.94	1396.71
788.11	1333.23
788.29	1327.08
788.46	1384.43
788.64	1349.61
788.81	1396.71
788.99	1304.56
789.16	1359.85
789.34	1277.93
789.52	1398.76
789.69	1363.95
789.87	1376.24
790.04	1425.39
790.22	1390.57
790.39	1349.61
790.57	1337.32
790.74	1325.04
790.92	1296.36
791.09	1349.61
791.27	1318.89
791.44	1423.34
791.62	1396.71
791.79	1382.38
791.97	1322.99
792.15	1443.82
792.32	1445.87
792.50	1427.43
792.67	1378.28
792.85	1386.47
793.02	1406.95
793.20	1286.12
793.37	1331.18
793.55	1392.62
793.72	1337.32
793.90	1398.76
794.07	1325.04
794.25	1435.63
794.42	1400.81
794.60	1402.86
794.77	1429.48
794.95	1380.33
795.12	1472.49
795.30	1335.28
795.47	1310.70
795.65	1454.06
795.82	1302.51
796.00	1425.39
796.17	1337.32
796.34	1353.71
796.52	1376.24
796.69	1363.95
796.87	1417.19
797.04	1347.56
797.22	1370.09
797.39	1359.85
797.57	1415.15
797.74	1335.28
797.92	1396.71
798.09	1312.75
798.27	1402.86
798.44	1404.91
798.62	1361.90
798.79	1331.18
798.96	1357.80
799.14	1333.23
799.31	1460.20
799.49	1372.14
799.66	1390.57
799.84	1333.23
800.01	1259.50
800.19	1368.04
800.36	1314.80
800.53	1361.90
800.71	1341.42
800.88	1427.43
801.06	1361.90
801.23	1259.50
801.41	1351.66
801.58	1329.13
801.75	1353.71
801.93	1368.04
802.10	1421.29
802.28	1374.19
802.45	1394.67
802.63	1394.67
802.80	1456.11
802.97	1398.76
803.15	1406.95
803.32	1398.76
803.50	1372.14
803.67	1335.28
803.84	1347.56
804.02	1325.04
804.19	1376.24
804.37	1382.38
804.54	1351.66
804.71	1306.60
804.89	1329.13
805.06	1327.08
805.24	1288.17
805.41	1339.37
805.58	1368.04
805.76	1499.11
805.93	1318.89
806.10	1361.90
806.28	1388.52
806.45	1378.28
806.63	1322.99
806.80	1316.84
806.97	1320.94
807.15	1374.19
807.32	1378.28
807.49	1378.28
807.67	1331.18
807.84	1402.86
808.01	1284.08
808.19	1449.96
808.36	1464.30
808.54	1314.80
808.71	1298.41
808.88	1314.80
809.06	1378.28
809.23	1411.05
809.40	1361.90
809.58	1349.61
809.75	1341.42
809.92	1415.15
810.10	1476.59
810.27	1415.15
810.44	1349.61
810.62	1318.89
810.79	1415.15
810.96	1320.94
811.14	1384.43
811.31	1329.13
811.48	1312.75
811.66	1363.95
811.83	1417.19
812.00	1333.23
812.18	1374.19
812.35	1388.52
812.52	1376.24
812.69	1331.18
812.87	1349.61
813.04	1306.60
813.21	1368.04
813.39	1372.14
813.56	1288.17
813.73	1411.05
813.91	1333.23
814.08	1388.52
814.25	1378.28
814.42	1331.18
814.60	1310.70
814.77	1339.37
814.94	1361.90
815.12	1386.47
815.29	1439.72
815.46	1339.37
815.63	1331.18
815.81	1355.76
815.98	1374.19
816.15	1337.32
816.33	1394.67
816.50	1380.33
816.67	1427.43
816.84	1355.76
817.02	1314.80
817.19	1402.86
817.36	1394.67
817.53	1386.47
817.71	1413.10
817.88	1349.61
818.05	1306.60
818.22	1282.03
818.40	1327.08
818.57	1310.70
818.74	1396.71
818.91	1388.52
819.09	1466.35
819.26	1384.43
819.43	1337.32
819.60	1404.91
819.78	1372.14
819.95	1396.71
820.12	1308.65
820.29	1331.18
820.47	1349.61
820.64	1398.76
820.81	1314.80
820.98	1361.90
821.15	1415.15
821.33	1343.47
821.50	1277.93
821.67	1394.67
821.84	1325.04
822.02	1363.95
822.19	1353.71
822.36	1341.42
822.53	1394.67
822.70	1404.91
822.88	1341.42
823.05	1452.01
823.22	1398.76
823.39	1400.81
823.56	1347.56
823.74	1402.86
823.91	1327.08
824.08	1347.56
824.25	1423.34
824.42	1425.39
824.60	1316.84
824.77	1433.58
824.94	1406.95
825.11	1427.43
825.28	1322.99
825.45	1394.67
825.63	1417.19
825.80	1337.32
825.97	1318.89
826.14	1314.80
826.31	1386.47
826.48	1374.19
826.66	1347.56
826.83	1335.28
827.00	1382.38
827.17	1345.52
827.34	1396.71
827.51	1378.28
827.69	1298.41
827.86	1302.51
828.03	1343.47
828.20	1306.60
828.37	1339.37
828.54	1474.54
828.71	1318.89
828.89	1435.63
829.06	1335.28
829.23	1376.24
829.40	1247.21
829.57	1325.04
829.74	1417.19
829.91	1400.81
830.09	1380.33
830.26	1394.67
830.43	1429.48
830.60	1343.47
830.77	1339.37
830.94	1437.67
831.11	1347.56
831.28	1339.37
831.46	1413.10
831.63	1388.52
831.80	1359.85
831.97	1423.34
832.14	1437.67
832.31	1439.72
832.48	1431.53
832.65	1300.46
832.82	1329.13
832.99	1374.19
833.17	1366.00
833.34	1419.24
833.51	1335.28
833.68	1257.45
833.85	1452.01
834.02	1318.89
834.19	1341.42
834.36	1322.99
834.53	1353.71
834.70	1363.95
834.87	1327.08
835.04	1372.14
835.22	1386.47
835.39	1378.28
835.56	1372.14
835.73	1437.67
835.90	1386.47
836.07	1320.94
836.24	1404.91
836.41	1380.33
836.58	1366.00
836.75	1341.42
836.92	1322.99
837.09	1378.28
837.26	1409.00
837.43	1380.33
837.60	1345.52
837.77	1460.20
837.94	1409.00
838.12	1454.06
838.29	1406.95
838.46	1320.94
838.63	1335.28
838.80	1388.52
838.97	1314.80
839.14	1423.34
839.31	1382.38
839.48	1411.05
839.65	1409.00
839.82	1435.63
839.99	1357.80
840.16	1300.46
840.33	1318.89
840.50	1388.52
840.67	1304.56
840.84	1357.80
841.01	1341.42
841.18	1363.95
841.35	1372.14
841.52	1423.34
841.69	1359.85
841.86	1431.53
842.03	1374.19
842.20	1409.00
842.37	1472.49
842.54	1394.67
842.71	1308.65
842.88	1279.98
843.05	1482.73
843.22	1378.28
843.39	1409.00
843.56	1376.24
843.73	1384.43
843.90	1298.41
844.07	1322.99
844.24	1396.71
844.41	1402.86
844.58	1388.52
844.75	1347.56
844.92	1282.03
845.09	1372.14
845.26	1378.28
845.43	1329.13
845.60	1337.32
845.77	1406.95
845.94	1345.52
846.10	1349.61
846.27	1282.03
846.44	1368.04
846.61	1368.04
846.78	1322.99
846.95	1370.09
847.12	1312.75
847.29	1306.60
847.46	1376.24
847.63	1372.14
847.80	1290.22
847.97	1318.89
848.14	1427.43
848.31	1380.33
848.48	1337.32
848.65	1400.81
848.82	1361.90
848.98	1390.57
849.15	1433.58
849.32	1376.24
849.49	1343.47
849.66	1353.71
849.83	1353.71
850.00	1261.55
850.17	1402.86
850.34	1374.19
850.51	1370.09
850.68	1288.17
850.85	1384.43
851.01	1337.32
851.18	1402.86
851.35	1363.95
851.52	1331.18
851.69	1437.67
851.86	1335.28
852.03	1363.95
852.20	1366.00
852.37	1400.81
852.53	1351.66
852.70	1341.42
852.87	1322.99
853.04	1374.19
853.21	1380.33
853.38	1378.28
853.55	1355.76
853.72	1441.77
853.89	1292.27
854.05	1368.04
854.22	1337.32
854.39	1300.46
854.56	1384.43
854.73	1503.21
854.90	1351.66
855.07	1296.36
855.23	1400.81
855.40	1394.67
855.57	1409.00
855.74	1234.93
855.91	1533.93
856.08	1320.94
856.25	1331.18
856.41	1333.23
856.58	1312.75
856.75	1370.09
856.92	1413.10
857.09	1370.09
857.26	1302.51
857.42	1345.52
857.59	1363.95
857.76	1351.66
857.93	1423.34
858.10	1372.14
858.27	1413.10
858.43	1382.38
858.60	1320.94
858.77	1279.98
858.94	1388.52
859.11	1378.28
859.27	1370.09
859.44	1411.05
859.61	1394.67
859.78	1351.66
859.95	1335.28
860.12	1380.33
860.28	1474.54
860.45	1353.71
860.62	1341.42
860.79	1308.65
860.95	1406.95
861.12	1263.60
861.29	1398.76
861.46	1345.52
861.63	1392.62
861.79	1339.37
861.96	1333.23
862.13	1429.48
862.30	1384.43
862.47	1343.47
862.63	1345.52
862.80	1368.04
862.97	1374.19
863.14	1433.58
863.30	1380.33
863.47	1376.24
863.64	1439.72
863.81	1374.19
863.97	1341.42
864.14	1382.38
864.31	1357.80
864.48	1347.56
864.65	1325.04
864.81	1351.66
864.98	1341.42
865.15	1415.15
865.32	1427.43
865.48	1423.34
865.65	1454.06
865.82	1345.52
865.98	1394.67
866.15	1347.56
866.32	1417.19
866.49	1286.12
866.65	1353.71
866.82	1372.14
866.99	1357.80
867.16	1402.86
867.32	1314.80
867.49	1316.84
867.66	1363.95
867.83	1409.00
867.99	1304.56
868.16	1378.28
868.33	1322.99
868.49	1372.14
868.66	1400.81
868.83	1409.00
868.99	1363.95
869.16	1452.01
869.33	1386.47
869.50	1390.57
869.66	1353.71
869.83	1368.04
870.00	1372.14
870.16	1411.05
870.33	1359.85
870.50	1441.77
870.66	1327.08
870.83	1460.20
871.00	1386.47
871.17	1382.38
871.33	1388.52
871.50	1406.95
871.67	1374.19
871.83	1306.60
872.00	1460.20
872.17	1308.65
872.33	1447.91
872.50	1368.04
872.67	1316.84
872.83	1388.52
873.00	1359.85
873.17	1349.61
873.33	1415.15
873.50	1470.44
873.67	1228.78
873.83	1380.33
874.00	1314.80
874.16	1419.24
874.33	1322.99
874.50	1374.19
874.66	1419.24
874.83	1333.23
875.00	1425.39
875.16	1341.42
875.33	1415.15
875.50	1349.61
875.66	1355.76
875.83	1333.23
875.99	1386.47
876.16	1368.04
876.33	1298.41
876.49	1327.08
876.66	1333.23
876.83	1294.32
876.99	1359.85
877.16	1347.56
877.32	1343.47
877.49	1404.91
877.66	1320.94
877.82	1427.43
877.99	1361.90
878.15	1441.77
878.32	1388.52
878.49	1372.14
878.65	1345.52
878.82	1380.33
878.98	1400.81
879.15	1419.24
879.32	1400.81
879.48	1427.43
879.65	1322.99
879.81	1349.61
879.98	1378.28
880.15	1378.28
880.31	1417.19
880.48	1302.51
880.64	1368.04
880.81	1359.85
880.97	1308.65
881.14	1312.75
881.31	1282.03
881.47	1413.10
881.64	1366.00
881.80	1337.32
881.97	1331.18
882.13	1423.34
882.30	1370.09
882.47	1349.61
882.63	1394.67
882.80	1363.95
882.96	1337.32
883.13	1456.11
883.29	1351.66
883.46	1388.52
883.62	1445.87
883.79	1380.33
883.95	1445.87
884.12	1380.33
884.29	1415.15
884.45	1423.34
884.62	1435.63
884.78	1345.52
884.95	1306.60
885.11	1382.38
885.28	1349.61
885.44	1361.90
885.61	1419.24
885.77	1392.62
885.94	1363.95
886.10	1370.09
886.27	1392.62
886.43	1427.43
886.60	1363.95
886.76	1329.13
886.93	1419.24
887.09	1339.37
887.26	1325.04
887.42	1427.43
887.59	1402.86
887.75	1497.07
887.92	1390.57
888.08	1386.47
888.25	1368.04
888.41	1327.08
888.58	1406.95
888.74	1335.28
888.91	1318.89
>>>>>End Processed Spectral Data<<<<<
