SpectraSuite Data File
++++++++++++++++++++++++++++++++++++
Date: Tue May 03 11:24:44 CEST 2016
User: root
Dark Spectrum Present: No
Reference Spectrum Present: No
Number of Sampled Component Spectra: 1
Spectrometers: USB4C02835
Integration Time (usec): 100000 (USB4C02835)
Spectra Averaged: 1 (USB4C02835)
Boxcar Smoothing: 0 (USB4C02835)
Correct for Electrical Dark: No (USB4C02835)
Strobe/Lamp Enabled: No (USB4C02835)
Correct for Detector Non-linearity: No (USB4C02835)
Correct for Stray Light: No (USB4C02835)
Number of Pixels in Processed Spectrum: 3648
>>>>>Begin Processed Spectral Data<<<<<
177.47	1234.93
177.69	1234.93
177.91	1234.93
178.13	1251.31
178.36	1216.49
178.58	1331.18
178.80	1445.87
179.02	1320.94
179.24	1327.08
179.46	1374.19
179.68	1413.10
179.90	1298.41
180.13	1335.28
180.35	1406.95
180.57	1335.28
180.79	1359.85
181.01	1392.62
181.23	1357.80
181.45	1425.39
181.67	1425.39
181.90	1341.42
182.12	1345.52
182.34	1320.94
182.56	1355.76
182.78	1353.71
183.00	1402.86
183.22	1386.47
183.44	1290.22
183.66	1419.24
183.89	1427.43
184.11	1419.24
184.33	1353.71
184.55	1437.67
184.77	1386.47
184.99	1380.33
185.21	1325.04
185.43	1435.63
185.65	1386.47
185.87	1402.86
186.10	1396.71
186.32	1443.82
186.54	1421.29
186.76	1306.60
186.98	1359.85
187.20	1343.47
187.42	1357.80
187.64	1427.43
187.86	1341.42
188.08	1376.24
188.30	1355.76
188.52	1355.76
188.75	1447.91
188.97	1437.67
189.19	1329.13
189.41	1449.96
189.63	1386.47
189.85	1329.13
190.07	1388.52
190.29	1273.84
190.51	1335.28
190.73	1351.66
190.95	1415.15
191.17	1343.47
191.39	1308.65
191.61	1337.32
191.84	1392.62
192.06	1427.43
192.28	1345.52
192.50	1470.44
192.72	1345.52
192.94	1400.81
193.16	1320.94
193.38	1347.56
193.60	1300.46
193.82	1425.39
194.04	1353.71
194.26	1411.05
194.48	1406.95
194.70	1347.56
194.92	1351.66
195.14	1466.35
195.36	1331.18
195.58	1406.95
195.80	1400.81
196.02	1275.88
196.24	1363.95
196.46	1380.33
196.69	1320.94
196.91	1394.67
197.13	1359.85
197.35	1388.52
197.57	1433.58
197.79	1388.52
198.01	1341.42
198.23	1361.90
198.45	1347.56
198.67	1292.27
198.89	1382.38
199.11	1325.04
199.33	1394.67
199.55	1331.18
199.77	1392.62
199.99	1374.19
200.21	1357.80
200.43	1382.38
200.65	1386.47
200.87	1247.21
201.09	1329.13
201.31	1357.80
201.53	1437.67
201.75	1431.53
201.97	1353.71
202.19	1331.18
202.41	1349.61
202.63	1431.53
202.85	1415.15
203.07	1337.32
203.29	1357.80
203.51	1339.37
203.73	1335.28
203.95	1413.10
204.17	1355.76
204.39	1347.56
204.61	1349.61
204.83	1409.00
205.05	1427.43
205.27	1325.04
205.49	1484.78
205.71	1372.14
205.93	1306.60
206.15	1271.79
206.37	1400.81
206.59	1310.70
206.81	1298.41
207.03	1357.80
207.25	1378.28
207.47	1486.83
207.69	1312.75
207.91	1400.81
208.13	1388.52
208.34	1288.17
208.56	1382.38
208.78	1396.71
209.00	1345.52
209.22	1333.23
209.44	1404.91
209.66	1396.71
209.88	1380.33
210.10	1361.90
210.32	1411.05
210.54	1501.16
210.76	1357.80
210.98	1454.06
211.20	1339.37
211.42	1361.90
211.64	1421.29
211.86	1415.15
212.08	1425.39
212.30	1380.33
212.52	1396.71
212.74	1363.95
212.96	1370.09
213.17	1382.38
213.39	1349.61
213.61	1386.47
213.83	1454.06
214.05	1363.95
214.27	1355.76
214.49	1404.91
214.71	1312.75
214.93	1386.47
215.15	1423.34
215.37	1357.80
215.59	1316.84
215.81	1394.67
216.03	1382.38
216.24	1421.29
216.46	1359.85
216.68	1415.15
216.90	1394.67
217.12	1417.19
217.34	1357.80
217.56	1437.67
217.78	1404.91
218.00	1409.00
218.22	1413.10
218.44	1363.95
218.66	1331.18
218.87	1492.97
219.09	1349.61
219.31	1310.70
219.53	1374.19
219.75	1325.04
219.97	1320.94
220.19	1366.00
220.41	1314.80
220.63	1439.72
220.85	1353.71
221.06	1374.19
221.28	1470.44
221.50	1406.95
221.72	1406.95
221.94	1363.95
222.16	1380.33
222.38	1400.81
222.60	1368.04
222.82	1398.76
223.03	1341.42
223.25	1298.41
223.47	1419.24
223.69	1486.83
223.91	1386.47
224.13	1351.66
224.35	1386.47
224.57	1349.61
224.78	1394.67
225.00	1390.57
225.22	1284.08
225.44	1355.76
225.66	1351.66
225.88	1370.09
226.10	1441.77
226.32	1320.94
226.53	1400.81
226.75	1351.66
226.97	1359.85
227.19	1363.95
227.41	1359.85
227.63	1325.04
227.85	1415.15
228.06	1386.47
228.28	1341.42
228.50	1409.00
228.72	1376.24
228.94	1404.91
229.16	1325.04
229.37	1343.47
229.59	1322.99
229.81	1368.04
230.03	1314.80
230.25	1353.71
230.47	1411.05
230.69	1325.04
230.90	1392.62
231.12	1376.24
231.34	1398.76
231.56	1396.71
231.78	1310.70
232.00	1359.85
232.21	1425.39
232.43	1368.04
232.65	1345.52
232.87	1409.00
233.09	1406.95
233.30	1363.95
233.52	1398.76
233.74	1462.25
233.96	1370.09
234.18	1404.91
234.40	1390.57
234.61	1333.23
234.83	1331.18
235.05	1394.67
235.27	1386.47
235.49	1419.24
235.70	1445.87
235.92	1452.01
236.14	1380.33
236.36	1460.20
236.58	1294.32
236.79	1435.63
237.01	1372.14
237.23	1363.95
237.45	1458.15
237.67	1363.95
237.88	1413.10
238.10	1359.85
238.32	1292.27
238.54	1368.04
238.76	1318.89
238.97	1345.52
239.19	1271.79
239.41	1452.01
239.63	1435.63
239.85	1361.90
240.06	1359.85
240.28	1390.57
240.50	1415.15
240.72	1376.24
240.93	1271.79
241.15	1437.67
241.37	1400.81
241.59	1366.00
241.81	1388.52
242.02	1329.13
242.24	1431.53
242.46	1443.82
242.68	1302.51
242.89	1425.39
243.11	1378.28
243.33	1413.10
243.55	1329.13
243.76	1396.71
243.98	1318.89
244.20	1296.36
244.42	1359.85
244.64	1380.33
244.85	1361.90
245.07	1296.36
245.29	1388.52
245.51	1353.71
245.72	1361.90
245.94	1390.57
246.16	1359.85
246.38	1466.35
246.59	1302.51
246.81	1361.90
247.03	1409.00
247.24	1298.41
247.46	1306.60
247.68	1327.08
247.90	1351.66
248.11	1404.91
248.33	1396.71
248.55	1355.76
248.77	1353.71
248.98	1445.87
249.20	1390.57
249.42	1402.86
249.64	1368.04
249.85	1441.77
250.07	1382.38
250.29	1286.12
250.50	1417.19
250.72	1347.56
250.94	1366.00
251.16	1447.91
251.37	1437.67
251.59	1445.87
251.81	1396.71
252.02	1392.62
252.24	1316.84
252.46	1345.52
252.68	1355.76
252.89	1380.33
253.11	1335.28
253.33	1449.96
253.54	1400.81
253.76	1343.47
253.98	1265.64
254.20	1435.63
254.41	1331.18
254.63	1398.76
254.85	1337.32
255.06	1351.66
255.28	1449.96
255.50	1318.89
255.71	1382.38
255.93	1327.08
256.15	1325.04
256.36	1363.95
256.58	1337.32
256.80	1404.91
257.02	1343.47
257.23	1331.18
257.45	1347.56
257.67	1372.14
257.88	1325.04
258.10	1343.47
258.32	1449.96
258.53	1402.86
258.75	1419.24
258.97	1284.08
259.18	1339.37
259.40	1337.32
259.62	1454.06
259.83	1370.09
260.05	1396.71
260.27	1511.40
260.48	1361.90
260.70	1329.13
260.92	1339.37
261.13	1396.71
261.35	1419.24
261.57	1423.34
261.78	1298.41
262.00	1318.89
262.22	1335.28
262.43	1349.61
262.65	1292.27
262.86	1355.76
263.08	1531.88
263.30	1400.81
263.51	1339.37
263.73	1349.61
263.95	1423.34
264.16	1343.47
264.38	1390.57
264.60	1345.52
264.81	1378.28
265.03	1411.05
265.25	1378.28
265.46	1378.28
265.68	1417.19
265.89	1417.19
266.11	1370.09
266.33	1480.68
266.54	1372.14
266.76	1427.43
266.98	1433.58
267.19	1421.29
267.41	1366.00
267.62	1288.17
267.84	1320.94
268.06	1372.14
268.27	1298.41
268.49	1431.53
268.70	1411.05
268.92	1288.17
269.14	1417.19
269.35	1292.27
269.57	1333.23
269.79	1335.28
270.00	1322.99
270.22	1361.90
270.43	1339.37
270.65	1345.52
270.87	1357.80
271.08	1359.85
271.30	1384.43
271.51	1433.58
271.73	1429.48
271.95	1388.52
272.16	1415.15
272.38	1333.23
272.59	1355.76
272.81	1374.19
273.02	1435.63
273.24	1390.57
273.46	1378.28
273.67	1341.42
273.89	1286.12
274.10	1310.70
274.32	1400.81
274.54	1460.20
274.75	1353.71
274.97	1316.84
275.18	1366.00
275.40	1370.09
275.61	1361.90
275.83	1404.91
276.05	1345.52
276.26	1339.37
276.48	1347.56
276.69	1396.71
276.91	1402.86
277.12	1415.15
277.34	1392.62
277.55	1384.43
277.77	1374.19
277.99	1398.76
278.20	1331.18
278.42	1310.70
278.63	1322.99
278.85	1277.93
279.06	1368.04
279.28	1376.24
279.49	1382.38
279.71	1445.87
279.93	1411.05
280.14	1355.76
280.36	1357.80
280.57	1382.38
280.79	1402.86
281.00	1396.71
281.22	1316.84
281.43	1431.53
281.65	1286.12
281.86	1363.95
282.08	1392.62
282.29	1419.24
282.51	1386.47
282.73	1394.67
282.94	1353.71
283.16	1279.98
283.37	1474.54
283.59	1501.16
283.80	1411.05
284.02	1351.66
284.23	1333.23
284.45	1431.53
284.66	1347.56
284.88	1314.80
285.09	1386.47
285.31	1363.95
285.52	1353.71
285.74	1331.18
285.95	1454.06
286.17	1411.05
286.38	1441.77
286.60	1374.19
286.81	1304.56
287.03	1337.32
287.24	1320.94
287.46	1462.25
287.67	1345.52
287.89	1484.78
288.10	1302.51
288.32	1392.62
288.53	1425.39
288.75	1335.28
288.96	1392.62
289.18	1341.42
289.39	1390.57
289.61	1427.43
289.82	1372.14
290.04	1421.29
290.25	1279.98
290.47	1363.95
290.68	1341.42
290.90	1466.35
291.11	1312.75
291.33	1437.67
291.54	1325.04
291.76	1345.52
291.97	1378.28
292.18	1327.08
292.40	1320.94
292.61	1333.23
292.83	1519.59
293.04	1402.86
293.26	1429.48
293.47	1347.56
293.69	1312.75
293.90	1392.62
294.12	1380.33
294.33	1355.76
294.55	1386.47
294.76	1380.33
294.97	1402.86
295.19	1378.28
295.40	1368.04
295.62	1421.29
295.83	1441.77
296.05	1236.97
296.26	1466.35
296.48	1376.24
296.69	1351.66
296.90	1363.95
297.12	1368.04
297.33	1366.00
297.55	1374.19
297.76	1384.43
297.98	1388.52
298.19	1304.56
298.41	1363.95
298.62	1417.19
298.83	1417.19
299.05	1312.75
299.26	1398.76
299.48	1239.02
299.69	1505.26
299.90	1355.76
300.12	1310.70
300.33	1419.24
300.55	1464.30
300.76	1320.94
300.98	1406.95
301.19	1488.87
301.40	1347.56
301.62	1386.47
301.83	1456.11
302.05	1396.71
302.26	1327.08
302.47	1433.58
302.69	1337.32
302.90	1366.00
303.12	1337.32
303.33	1384.43
303.54	1466.35
303.76	1419.24
303.97	1388.52
304.19	1388.52
304.40	1300.46
304.61	1347.56
304.83	1409.00
305.04	1431.53
305.26	1343.47
305.47	1318.89
305.68	1351.66
305.90	1286.12
306.11	1398.76
306.33	1466.35
306.54	1351.66
306.75	1298.41
306.97	1304.56
307.18	1331.18
307.39	1425.39
307.61	1357.80
307.82	1384.43
308.04	1386.47
308.25	1341.42
308.46	1433.58
308.68	1353.71
308.89	1386.47
309.10	1497.07
309.32	1388.52
309.53	1320.94
309.74	1415.15
309.96	1345.52
310.17	1411.05
310.39	1361.90
310.60	1404.91
310.81	1355.76
311.03	1361.90
311.24	1392.62
311.45	1398.76
311.67	1322.99
311.88	1312.75
312.09	1357.80
312.31	1329.13
312.52	1372.14
312.73	1460.20
312.95	1306.60
313.16	1380.33
313.37	1386.47
313.59	1384.43
313.80	1339.37
314.01	1404.91
314.23	1370.09
314.44	1329.13
314.65	1378.28
314.87	1339.37
315.08	1366.00
315.29	1335.28
315.51	1345.52
315.72	1298.41
315.93	1419.24
316.15	1400.81
316.36	1376.24
316.57	1376.24
316.79	1394.67
317.00	1329.13
317.21	1404.91
317.43	1339.37
317.64	1380.33
317.85	1458.15
318.07	1474.54
318.28	1511.40
318.49	1554.41
318.70	1724.39
318.92	1542.12
319.13	1460.20
319.34	1482.73
319.56	1427.43
319.77	1499.11
319.98	1480.68
320.20	1517.54
320.41	1404.91
320.62	1466.35
320.83	1363.95
321.05	1380.33
321.26	1359.85
321.47	1394.67
321.69	1425.39
321.90	1247.21
322.11	1382.38
322.32	1392.62
322.54	1488.87
322.75	1325.04
322.96	1388.52
323.18	1359.85
323.39	1380.33
323.60	1351.66
323.81	1404.91
324.03	1314.80
324.24	1486.83
324.45	1318.89
324.66	1329.13
324.88	1402.86
325.09	1392.62
325.30	1419.24
325.52	1394.67
325.73	1392.62
325.94	1331.18
326.15	1306.60
326.37	1419.24
326.58	1394.67
326.79	1415.15
327.00	1314.80
327.22	1318.89
327.43	1368.04
327.64	1325.04
327.85	1361.90
328.07	1339.37
328.28	1402.86
328.49	1406.95
328.70	1304.56
328.92	1318.89
329.13	1359.85
329.34	1388.52
329.55	1445.87
329.76	1384.43
329.98	1359.85
330.19	1357.80
330.40	1359.85
330.61	1388.52
330.83	1355.76
331.04	1378.28
331.25	1357.80
331.46	1337.32
331.68	1333.23
331.89	1372.14
332.10	1361.90
332.31	1331.18
332.52	1378.28
332.74	1376.24
332.95	1253.36
333.16	1378.28
333.37	1372.14
333.58	1294.32
333.80	1439.72
334.01	1370.09
334.22	1357.80
334.43	1380.33
334.64	1353.71
334.86	1247.21
335.07	1322.99
335.28	1400.81
335.49	1380.33
335.70	1409.00
335.92	1411.05
336.13	1443.82
336.34	1351.66
336.55	1347.56
336.76	1382.38
336.98	1314.80
337.19	1384.43
337.40	1449.96
337.61	1406.95
337.82	1345.52
338.04	1368.04
338.25	1341.42
338.46	1376.24
338.67	1388.52
338.88	1343.47
339.09	1372.14
339.31	1327.08
339.52	1331.18
339.73	1320.94
339.94	1402.86
340.15	1404.91
340.36	1304.56
340.58	1316.84
340.79	1361.90
341.00	1462.25
341.21	1306.60
341.42	1427.43
341.63	1314.80
341.85	1378.28
342.06	1331.18
342.27	1304.56
342.48	1396.71
342.69	1411.05
342.90	1392.62
343.12	1400.81
343.33	1386.47
343.54	1394.67
343.75	1413.10
343.96	1349.61
344.17	1370.09
344.38	1368.04
344.60	1349.61
344.81	1398.76
345.02	1353.71
345.23	1409.00
345.44	1478.63
345.65	1437.67
345.86	1327.08
346.07	1345.52
346.29	1298.41
346.50	1333.23
346.71	1343.47
346.92	1374.19
347.13	1449.96
347.34	1290.22
347.55	1388.52
347.76	1339.37
347.98	1312.75
348.19	1316.84
348.40	1406.95
348.61	1363.95
348.82	1413.10
349.03	1384.43
349.24	1337.32
349.45	1499.11
349.66	1318.89
349.88	1361.90
350.09	1390.57
350.30	1363.95
350.51	1445.87
350.72	1456.11
350.93	1363.95
351.14	1351.66
351.35	1341.42
351.56	1431.53
351.77	1380.33
351.99	1394.67
352.20	1376.24
352.41	1429.48
352.62	1333.23
352.83	1267.69
353.04	1396.71
353.25	1382.38
353.46	1378.28
353.67	1413.10
353.88	1257.45
354.09	1353.71
354.30	1384.43
354.52	1429.48
354.73	1390.57
354.94	1343.47
355.15	1388.52
355.36	1402.86
355.57	1288.17
355.78	1396.71
355.99	1366.00
356.20	1378.28
356.41	1437.67
356.62	1435.63
356.83	1376.24
357.04	1449.96
357.25	1331.18
357.46	1435.63
357.68	1316.84
357.89	1288.17
358.10	1372.14
358.31	1347.56
358.52	1353.71
358.73	1314.80
358.94	1390.57
359.15	1396.71
359.36	1413.10
359.57	1380.33
359.78	1359.85
359.99	1368.04
360.20	1359.85
360.41	1390.57
360.62	1363.95
360.83	1417.19
361.04	1392.62
361.25	1359.85
361.46	1507.30
361.67	1388.52
361.88	1413.10
362.09	1443.82
362.30	1431.53
362.51	1314.80
362.72	1435.63
362.93	1466.35
363.14	1435.63
363.35	1339.37
363.56	1337.32
363.78	1417.19
363.99	1396.71
364.20	1380.33
364.41	1335.28
364.62	1441.77
364.83	1363.95
365.04	1394.67
365.25	1431.53
365.46	1449.96
365.67	1337.32
365.88	1353.71
366.09	1390.57
366.30	1316.84
366.51	1288.17
366.72	1322.99
366.93	1370.09
367.14	1306.60
367.35	1404.91
367.56	1312.75
367.77	1437.67
367.98	1370.09
368.18	1435.63
368.39	1406.95
368.60	1347.56
368.81	1290.22
369.02	1316.84
369.23	1419.24
369.44	1394.67
369.65	1347.56
369.86	1406.95
370.07	1355.76
370.28	1394.67
370.49	1413.10
370.70	1433.58
370.91	1366.00
371.12	1337.32
371.33	1454.06
371.54	1304.56
371.75	1492.97
371.96	1290.22
372.17	1413.10
372.38	1325.04
372.59	1390.57
372.80	1316.84
373.01	1382.38
373.22	1361.90
373.43	1333.23
373.64	1363.95
373.85	1413.10
374.06	1447.91
374.26	1466.35
374.47	1421.29
374.68	1374.19
374.89	1359.85
375.10	1333.23
375.31	1388.52
375.52	1390.57
375.73	1396.71
375.94	1329.13
376.15	1384.43
376.36	1359.85
376.57	1411.05
376.78	1296.36
376.99	1396.71
377.20	1392.62
377.40	1378.28
377.61	1370.09
377.82	1327.08
378.03	1431.53
378.24	1406.95
378.45	1464.30
378.66	1333.23
378.87	1349.61
379.08	1290.22
379.29	1322.99
379.50	1458.15
379.71	1423.34
379.91	1394.67
380.12	1349.61
380.33	1327.08
380.54	1353.71
380.75	1370.09
380.96	1400.81
381.17	1429.48
381.38	1443.82
381.59	1538.02
381.80	1501.16
382.00	1488.87
382.21	1388.52
382.42	1476.59
382.63	1501.16
382.84	1421.29
383.05	1421.29
383.26	1464.30
383.47	1462.25
383.68	1435.63
383.88	1380.33
384.09	1404.91
384.30	1452.01
384.51	1402.86
384.72	1390.57
384.93	1343.47
385.14	1374.19
385.35	1415.15
385.55	1413.10
385.76	1427.43
385.97	1435.63
386.18	1318.89
386.39	1388.52
386.60	1339.37
386.81	1388.52
387.02	1433.58
387.22	1333.23
387.43	1490.92
387.64	1615.85
387.85	2260.96
388.06	5851.05
388.27	9314.16
388.48	11349.84
388.68	12992.31
388.89	13053.75
389.10	10471.26
389.31	9174.90
389.52	8163.20
389.73	7305.10
389.93	6950.81
390.14	6416.29
390.35	6199.20
390.56	5433.26
390.77	4628.41
390.98	3669.96
391.18	2803.67
391.39	2172.89
391.60	1718.25
391.81	1597.42
392.02	1404.91
392.23	1464.30
392.43	1355.76
392.64	1460.20
392.85	1396.71
393.06	1433.58
393.27	1384.43
393.47	1318.89
393.68	1386.47
393.89	1406.95
394.10	1411.05
394.31	1329.13
394.52	1411.05
394.72	1308.65
394.93	1372.14
395.14	1294.32
395.35	1370.09
395.56	1353.71
395.76	1560.55
395.97	1556.46
396.18	1595.37
396.39	1585.13
396.60	1671.14
396.80	1587.18
397.01	1495.02
397.22	1462.25
397.43	1470.44
397.64	1425.39
397.84	1501.16
398.05	1515.50
398.26	1402.86
398.47	1398.76
398.67	1519.59
398.88	1341.42
399.09	1370.09
399.30	1386.47
399.51	1335.28
399.71	1400.81
399.92	1374.19
400.13	1484.78
400.34	1382.38
400.54	1290.22
400.75	1464.30
400.96	1372.14
401.17	1495.02
401.37	1427.43
401.58	1439.72
401.79	1464.30
402.00	1693.67
402.21	1765.35
402.41	1789.92
402.62	1775.59
402.83	1722.34
403.04	1712.10
403.24	1734.63
403.45	1626.09
403.66	1585.13
403.87	1542.12
404.07	1544.17
404.28	1603.56
404.49	1505.26
404.70	1458.15
404.90	1398.76
405.11	1386.47
405.32	1355.76
405.52	1394.67
405.73	1392.62
405.94	1306.60
406.15	1376.24
406.35	1353.71
406.56	1419.24
406.77	1343.47
406.98	1431.53
407.18	1347.56
407.39	1427.43
407.60	1445.87
407.80	1404.91
408.01	1355.76
408.22	1425.39
408.43	1329.13
408.63	1406.95
408.84	1320.94
409.05	1447.91
409.25	1316.84
409.46	1325.04
409.67	1298.41
409.88	1337.32
410.08	1402.86
410.29	1382.38
410.50	1433.58
410.70	1443.82
410.91	1398.76
411.12	1374.19
411.32	1392.62
411.53	1380.33
411.74	1470.44
411.95	1382.38
412.15	1476.59
412.36	1429.48
412.57	1482.73
412.77	1396.71
412.98	1384.43
413.19	1378.28
413.39	1388.52
413.60	1417.19
413.81	1449.96
414.01	1361.90
414.22	1439.72
414.43	1404.91
414.63	1441.77
414.84	1478.63
415.05	1351.66
415.25	1374.19
415.46	1429.48
415.67	1325.04
415.87	1372.14
416.08	1404.91
416.29	1409.00
416.49	1400.81
416.70	1409.00
416.91	1411.05
417.11	1341.42
417.32	1421.29
417.53	1402.86
417.73	1441.77
417.94	1384.43
418.15	1347.56
418.35	1380.33
418.56	1337.32
418.77	1413.10
418.97	1361.90
419.18	1388.52
419.38	1261.55
419.59	1335.28
419.80	1427.43
420.00	1366.00
420.21	1380.33
420.42	1421.29
420.62	1282.03
420.83	1429.48
421.04	1388.52
421.24	1380.33
421.45	1386.47
421.65	1378.28
421.86	1406.95
422.07	1409.00
422.27	1363.95
422.48	1366.00
422.69	1404.91
422.89	1456.11
423.10	1361.90
423.30	1294.32
423.51	1316.84
423.72	1366.00
423.92	1325.04
424.13	1396.71
424.33	1329.13
424.54	1429.48
424.75	1341.42
424.95	1370.09
425.16	1382.38
425.36	1347.56
425.57	1482.73
425.78	1351.66
425.98	1435.63
426.19	1368.04
426.39	1396.71
426.60	1384.43
426.81	1398.76
427.01	1417.19
427.22	1396.71
427.42	1384.43
427.63	1386.47
427.83	1390.57
428.04	1392.62
428.25	1423.34
428.45	1429.48
428.66	1363.95
428.86	1384.43
429.07	1382.38
429.28	1431.53
429.48	1351.66
429.69	1388.52
429.89	1415.15
430.10	1351.66
430.30	1398.76
430.51	1384.43
430.71	1378.28
430.92	1333.23
431.13	1396.71
431.33	1386.47
431.54	1404.91
431.74	1433.58
431.95	1468.39
432.15	1331.18
432.36	1331.18
432.56	1411.05
432.77	1458.15
432.98	1423.34
433.18	1406.95
433.39	1423.34
433.59	1396.71
433.80	1345.52
434.00	1400.81
434.21	1409.00
434.41	1335.28
434.62	1435.63
434.82	1343.47
435.03	1290.22
435.23	1390.57
435.44	1273.84
435.64	1370.09
435.85	1445.87
436.06	1409.00
436.26	1423.34
436.47	1304.56
436.67	1349.61
436.88	1431.53
437.08	1404.91
437.29	1425.39
437.49	1304.56
437.70	1476.59
437.90	1431.53
438.11	1576.94
438.31	1476.59
438.52	1558.50
438.72	1564.65
438.93	1509.35
439.13	1421.29
439.34	1435.63
439.54	1452.01
439.75	1464.30
439.95	1443.82
440.16	1378.28
440.36	1474.54
440.57	1378.28
440.77	1492.97
440.98	1349.61
441.18	1322.99
441.39	1329.13
441.59	1341.42
441.80	1431.53
442.00	1337.32
442.21	1445.87
442.41	1343.47
442.62	1390.57
442.82	1329.13
443.02	1396.71
443.23	1431.53
443.43	1335.28
443.64	1452.01
443.84	1433.58
444.05	1486.83
444.25	1400.81
444.46	1345.52
444.66	1388.52
444.87	1392.62
445.07	1263.60
445.28	1339.37
445.48	1392.62
445.69	1378.28
445.89	1480.68
446.09	1529.83
446.30	2318.30
446.50	3696.58
446.71	4612.03
446.91	5261.23
447.12	5521.32
447.32	5095.35
447.53	4134.85
447.73	3782.60
447.93	3373.00
448.14	3205.07
448.34	3121.10
448.55	2824.15
448.75	2758.61
448.96	2725.85
449.16	2435.03
449.36	2197.47
449.57	1945.57
449.77	1708.01
449.98	1570.79
450.18	1454.06
450.39	1460.20
450.59	1449.96
450.79	1247.21
451.00	1339.37
451.20	1458.15
451.41	1406.95
451.61	1427.43
451.81	1314.80
452.02	1335.28
452.22	1370.09
452.43	1378.28
452.63	1406.95
452.84	1368.04
453.04	1357.80
453.24	1355.76
453.45	1320.94
453.65	1339.37
453.86	1437.67
454.06	1411.05
454.26	1384.43
454.47	1357.80
454.67	1374.19
454.87	1423.34
455.08	1372.14
455.28	1427.43
455.49	1339.37
455.69	1351.66
455.89	1429.48
456.10	1417.19
456.30	1392.62
456.51	1409.00
456.71	1472.49
456.91	1402.86
457.12	1402.86
457.32	1404.91
457.52	1335.28
457.73	1337.32
457.93	1466.35
458.14	1335.28
458.34	1322.99
458.54	1357.80
458.75	1347.56
458.95	1433.58
459.15	1458.15
459.36	1427.43
459.56	1363.95
459.76	1449.96
459.97	1386.47
460.17	1318.89
460.37	1357.80
460.58	1341.42
460.78	1445.87
460.99	1322.99
461.19	1404.91
461.39	1425.39
461.60	1318.89
461.80	1427.43
462.00	1388.52
462.21	1406.95
462.41	1333.23
462.61	1333.23
462.82	1279.98
463.02	1359.85
463.22	1400.81
463.43	1437.67
463.63	1353.71
463.83	1411.05
464.04	1376.24
464.24	1388.52
464.44	1318.89
464.64	1406.95
464.85	1419.24
465.05	1394.67
465.25	1363.95
465.46	1282.03
465.66	1441.77
465.86	1374.19
466.07	1406.95
466.27	1386.47
466.47	1386.47
466.68	1339.37
466.88	1421.29
467.08	1384.43
467.29	1484.78
467.49	1388.52
467.69	1335.28
467.89	1384.43
468.10	1359.85
468.30	1388.52
468.50	1443.82
468.71	1425.39
468.91	1329.13
469.11	1468.39
469.31	1425.39
469.52	1316.84
469.72	1447.91
469.92	1437.67
470.13	1441.77
470.33	1404.91
470.53	1697.77
470.73	2002.91
470.94	2269.15
471.14	2365.40
471.34	2426.84
471.54	2181.09
471.75	2060.26
471.95	1896.42
472.15	1877.99
472.36	1791.97
472.56	1851.36
472.76	1759.21
472.96	1646.57
473.17	1685.48
473.37	1597.42
473.57	1578.98
473.77	1554.41
473.98	1409.00
474.18	1341.42
474.38	1509.35
474.58	1345.52
474.79	1386.47
474.99	1409.00
475.19	1359.85
475.39	1318.89
475.60	1329.13
475.80	1368.04
476.00	1368.04
476.20	1333.23
476.41	1394.67
476.61	1447.91
476.81	1462.25
477.01	1310.70
477.21	1470.44
477.42	1400.81
477.62	1327.08
477.82	1394.67
478.02	1347.56
478.23	1366.00
478.43	1363.95
478.63	1396.71
478.83	1415.15
479.03	1359.85
479.24	1427.43
479.44	1386.47
479.64	1333.23
479.84	1288.17
480.04	1265.64
480.25	1361.90
480.45	1374.19
480.65	1368.04
480.85	1398.76
481.06	1322.99
481.26	1349.61
481.46	1355.76
481.66	1466.35
481.86	1374.19
482.06	1447.91
482.27	1378.28
482.47	1343.47
482.67	1357.80
482.87	1380.33
483.07	1396.71
483.28	1402.86
483.48	1284.08
483.68	1290.22
483.88	1271.79
484.08	1265.64
484.29	1284.08
484.49	1310.70
484.69	1376.24
484.89	1390.57
485.09	1359.85
485.29	1439.72
485.50	1337.32
485.70	1316.84
485.90	1361.90
486.10	1353.71
486.30	1384.43
486.50	1335.28
486.71	1445.87
486.91	1425.39
487.11	1402.86
487.31	1286.12
487.51	1394.67
487.71	1349.61
487.91	1349.61
488.12	1363.95
488.32	1355.76
488.52	1406.95
488.72	1331.18
488.92	1441.77
489.12	1411.05
489.32	1429.48
489.53	1357.80
489.73	1320.94
489.93	1370.09
490.13	1357.80
490.33	1337.32
490.53	1460.20
490.73	1427.43
490.94	1286.12
491.14	1390.57
491.34	1607.66
491.54	2183.13
491.74	2658.26
491.94	3053.52
492.14	3155.92
492.34	2959.31
492.54	2535.39
492.75	2293.72
492.95	2179.04
493.15	2045.92
493.35	2119.65
493.55	1910.75
493.75	1877.99
493.95	1896.42
494.15	1863.65
494.35	1689.57
494.56	1632.23
494.76	1558.50
494.96	1464.30
495.16	1447.91
495.36	1386.47
495.56	1419.24
495.76	1398.76
495.96	1386.47
496.16	1349.61
496.36	1419.24
496.56	1376.24
496.77	1419.24
496.97	1429.48
497.17	1437.67
497.37	1351.66
497.57	1447.91
497.77	1355.76
497.97	1335.28
498.17	1396.71
498.37	1495.02
498.57	1443.82
498.77	1333.23
498.97	1353.71
499.17	1486.83
499.38	1441.77
499.58	1394.67
499.78	1425.39
499.98	1443.82
500.18	1417.19
500.38	1423.34
500.58	1677.29
500.78	2951.12
500.98	5466.03
501.18	6877.08
501.38	8087.43
501.58	8660.86
501.78	7479.18
501.98	5801.90
502.18	5224.37
502.38	4550.59
502.58	4329.41
502.78	3719.11
502.98	3676.10
503.18	3469.26
503.38	3276.75
503.59	3004.37
503.79	2815.96
503.99	2510.81
504.19	2387.93
504.39	2187.23
504.59	2060.26
504.79	1994.72
504.99	1705.96
505.19	1597.42
505.39	1644.52
505.59	1673.19
505.79	1542.12
505.99	1499.11
506.19	1472.49
506.39	1581.03
506.59	1398.76
506.79	1423.34
506.99	1495.02
507.19	1435.63
507.39	1409.00
507.59	1443.82
507.79	1331.18
507.99	1366.00
508.19	1357.80
508.39	1392.62
508.59	1427.43
508.79	1374.19
508.99	1433.58
509.19	1374.19
509.39	1374.19
509.59	1333.23
509.79	1290.22
509.99	1402.86
510.19	1304.56
510.39	1368.04
510.59	1376.24
510.79	1386.47
510.99	1329.13
511.19	1417.19
511.39	1402.86
511.59	1409.00
511.79	1421.29
511.99	1429.48
512.19	1435.63
512.38	1441.77
512.58	1343.47
512.78	1404.91
512.98	1464.30
513.18	1413.10
513.38	1329.13
513.58	1380.33
513.78	1357.80
513.98	1345.52
514.18	1370.09
514.38	1458.15
514.58	1431.53
514.78	1384.43
514.98	1353.71
515.18	1363.95
515.38	1359.85
515.58	1495.02
515.78	1388.52
515.98	1384.43
516.18	1404.91
516.38	1341.42
516.57	1404.91
516.77	1384.43
516.97	1318.89
517.17	1292.27
517.37	1265.64
517.57	1406.95
517.77	1396.71
517.97	1298.41
518.17	1409.00
518.37	1345.52
518.57	1368.04
518.77	1378.28
518.97	1400.81
519.16	1351.66
519.36	1386.47
519.56	1394.67
519.76	1374.19
519.96	1411.05
520.16	1441.77
520.36	1378.28
520.56	1490.92
520.76	1320.94
520.96	1406.95
521.16	1402.86
521.35	1386.47
521.55	1437.67
521.75	1316.84
521.95	1361.90
522.15	1327.08
522.35	1345.52
522.55	1347.56
522.75	1437.67
522.95	1398.76
523.14	1308.65
523.34	1366.00
523.54	1419.24
523.74	1353.71
523.94	1411.05
524.14	1343.47
524.34	1386.47
524.54	1472.49
524.73	1429.48
524.93	1398.76
525.13	1357.80
525.33	1331.18
525.53	1538.02
525.73	1400.81
525.93	1343.47
526.13	1366.00
526.32	1322.99
526.52	1411.05
526.72	1409.00
526.92	1388.52
527.12	1316.84
527.32	1392.62
527.52	1417.19
527.71	1429.48
527.91	1363.95
528.11	1372.14
528.31	1327.08
528.51	1314.80
528.71	1331.18
528.90	1353.71
529.10	1419.24
529.30	1431.53
529.50	1304.56
529.70	1435.63
529.90	1366.00
530.09	1368.04
530.29	1470.44
530.49	1339.37
530.69	1384.43
530.89	1335.28
531.09	1419.24
531.28	1386.47
531.48	1499.11
531.68	1335.28
531.88	1396.71
532.08	1433.58
532.28	1322.99
532.47	1421.29
532.67	1433.58
532.87	1404.91
533.07	1415.15
533.27	1511.40
533.46	1386.47
533.66	1478.63
533.86	1421.29
534.06	1347.56
534.26	1363.95
534.45	1456.11
534.65	1396.71
534.85	1437.67
535.05	1353.71
535.25	1386.47
535.44	1366.00
535.64	1409.00
535.84	1427.43
536.04	1366.00
536.24	1320.94
536.43	1353.71
536.63	1366.00
536.83	1378.28
537.03	1435.63
537.22	1345.52
537.42	1404.91
537.62	1329.13
537.82	1363.95
538.02	1458.15
538.21	1349.61
538.41	1423.34
538.61	1437.67
538.81	1394.67
539.00	1423.34
539.20	1339.37
539.40	1388.52
539.60	1382.38
539.79	1361.90
539.99	1404.91
540.19	1355.76
540.39	1320.94
540.58	1443.82
540.78	1386.47
540.98	1384.43
541.18	1327.08
541.37	1396.71
541.57	1363.95
541.77	1409.00
541.97	1322.99
542.16	1347.56
542.36	1392.62
542.56	1376.24
542.76	1511.40
542.95	1384.43
543.15	1378.28
543.35	1456.11
543.54	1329.13
543.74	1284.08
543.94	1439.72
544.14	1322.99
544.33	1388.52
544.53	1374.19
544.73	1337.32
544.93	1322.99
545.12	1353.71
545.32	1419.24
545.52	1339.37
545.71	1351.66
545.91	1304.56
546.11	1333.23
546.30	1310.70
546.50	1361.90
546.70	1368.04
546.90	1392.62
547.09	1347.56
547.29	1372.14
547.49	1425.39
547.68	1443.82
547.88	1308.65
548.08	1413.10
548.27	1607.66
548.47	1402.86
548.67	1304.56
548.87	1370.09
549.06	1376.24
549.26	1396.71
549.46	1370.09
549.65	1370.09
549.85	1388.52
550.05	1382.38
550.24	1302.51
550.44	1386.47
550.64	1363.95
550.83	1343.47
551.03	1443.82
551.23	1435.63
551.42	1439.72
551.62	1310.70
551.82	1392.62
552.01	1357.80
552.21	1341.42
552.41	1366.00
552.60	1390.57
552.80	1368.04
553.00	1427.43
553.19	1388.52
553.39	1394.67
553.59	1339.37
553.78	1482.73
553.98	1304.56
554.17	1361.90
554.37	1384.43
554.57	1427.43
554.76	1331.18
554.96	1306.60
555.16	1425.39
555.35	1435.63
555.55	1363.95
555.75	1390.57
555.94	1409.00
556.14	1298.41
556.33	1392.62
556.53	1290.22
556.73	1398.76
556.92	1449.96
557.12	1390.57
557.32	1482.73
557.51	1382.38
557.71	1476.59
557.90	1443.82
558.10	1402.86
558.30	1333.23
558.49	1392.62
558.69	1376.24
558.88	1392.62
559.08	1376.24
559.28	1363.95
559.47	1359.85
559.67	1413.10
559.86	1486.83
560.06	1329.13
560.26	1423.34
560.45	1384.43
560.65	1417.19
560.84	1435.63
561.04	1355.76
561.24	1423.34
561.43	1409.00
561.63	1478.63
561.82	1417.19
562.02	1400.81
562.22	1388.52
562.41	1339.37
562.61	1462.25
562.80	1339.37
563.00	1474.54
563.19	1357.80
563.39	1370.09
563.59	1396.71
563.78	1380.33
563.98	1322.99
564.17	1239.02
564.37	1345.52
564.56	1310.70
564.76	1290.22
564.96	1378.28
565.15	1447.91
565.35	1437.67
565.54	1363.95
565.74	1380.33
565.93	1402.86
566.13	1404.91
566.32	1402.86
566.52	1452.01
566.71	1388.52
566.91	1439.72
567.11	1388.52
567.30	1310.70
567.50	1443.82
567.69	1386.47
567.89	1398.76
568.08	1347.56
568.28	1454.06
568.47	1279.98
568.67	1380.33
568.86	1404.91
569.06	1443.82
569.25	1329.13
569.45	1312.75
569.64	1380.33
569.84	1392.62
570.04	1349.61
570.23	1351.66
570.43	1433.58
570.62	1449.96
570.82	1372.14
571.01	1322.99
571.21	1355.76
571.40	1292.27
571.60	1384.43
571.79	1357.80
571.99	1400.81
572.18	1400.81
572.38	1341.42
572.57	1388.52
572.77	1466.35
572.96	1486.83
573.16	1437.67
573.35	1396.71
573.55	1437.67
573.74	1413.10
573.94	1372.14
574.13	1345.52
574.33	1415.15
574.52	1433.58
574.71	1372.14
574.91	1394.67
575.10	1390.57
575.30	1388.52
575.49	1398.76
575.69	1370.09
575.88	1476.59
576.08	1421.29
576.27	1515.50
576.47	1425.39
576.66	1482.73
576.86	1484.78
577.05	1427.43
577.25	1347.56
577.44	1456.11
577.64	1488.87
577.83	1372.14
578.02	1353.71
578.22	1437.67
578.41	1544.17
578.61	1382.38
578.80	1392.62
579.00	1406.95
579.19	1384.43
579.39	1449.96
579.58	1382.38
579.77	1480.68
579.97	1404.91
580.16	1507.30
580.36	1478.63
580.55	1560.55
580.75	1480.68
580.94	1456.11
581.13	1484.78
581.33	1533.93
581.52	1425.39
581.72	1472.49
581.91	1509.35
582.11	1437.67
582.30	1513.45
582.49	1443.82
582.69	1478.63
582.88	1478.63
583.08	1490.92
583.27	1449.96
583.47	1351.66
583.66	1423.34
583.85	1374.19
584.05	1443.82
584.24	1503.21
584.44	1474.54
584.63	1533.93
584.82	1517.54
585.02	1527.78
585.21	1626.09
585.41	1495.02
585.60	1568.74
585.79	1611.75
585.99	1675.24
586.18	1591.27
586.37	1847.27
586.57	2762.71
586.76	8017.80
586.96	24100.50
587.15	41270.67
587.34	52018.41
587.54	59679.86
587.73	58956.92
587.93	45040.98
588.12	32816.65
588.31	26412.65
588.51	22591.14
588.70	19793.62
588.89	18228.97
589.09	16934.65
589.28	15802.13
589.47	14294.82
589.67	12545.86
589.86	10467.17
590.06	8480.64
590.25	6541.21
590.44	5011.38
590.64	3579.85
590.83	2744.28
591.02	2289.63
591.22	1939.43
591.41	1660.90
591.60	1576.94
591.80	1648.61
591.99	1513.45
592.18	1472.49
592.38	1458.15
592.57	1478.63
592.76	1472.49
592.96	1486.83
593.15	1511.40
593.34	1470.44
593.54	1433.58
593.73	1435.63
593.92	1429.48
594.12	1492.97
594.31	1460.20
594.50	1464.30
594.70	1456.11
594.89	1454.06
595.08	1400.81
595.28	1445.87
595.47	1472.49
595.66	1484.78
595.86	1366.00
596.05	1368.04
596.24	1394.67
596.43	1517.54
596.63	1394.67
596.82	1419.24
597.01	1431.53
597.21	1398.76
597.40	1415.15
597.59	1454.06
597.79	1470.44
597.98	1421.29
598.17	1411.05
598.36	1452.01
598.56	1402.86
598.75	1361.90
598.94	1409.00
599.14	1372.14
599.33	1409.00
599.52	1429.48
599.71	1452.01
599.91	1460.20
600.10	1404.91
600.29	1384.43
600.48	1429.48
600.68	1462.25
600.87	1435.63
601.06	1402.86
601.26	1322.99
601.45	1462.25
601.64	1413.10
601.83	1503.21
602.03	1392.62
602.22	1298.41
602.41	1443.82
602.60	1492.97
602.80	1443.82
602.99	1507.30
603.18	1361.90
603.37	1435.63
603.57	1378.28
603.76	1378.28
603.95	1415.15
604.14	1415.15
604.34	1312.75
604.53	1394.67
604.72	1402.86
604.91	1318.89
605.10	1300.46
605.30	1355.76
605.49	1468.39
605.68	1427.43
605.87	1409.00
606.07	1329.13
606.26	1396.71
606.45	1409.00
606.64	1357.80
606.84	1421.29
607.03	1374.19
607.22	1433.58
607.41	1392.62
607.60	1388.52
607.80	1447.91
607.99	1398.76
608.18	1462.25
608.37	1394.67
608.56	1341.42
608.76	1415.15
608.95	1380.33
609.14	1544.17
609.33	1570.79
609.52	1507.30
609.72	1533.93
609.91	1480.68
610.10	1413.10
610.29	1421.29
610.48	1415.15
610.68	1435.63
610.87	1355.76
611.06	1478.63
611.25	1476.59
611.44	1492.97
611.63	1413.10
611.83	1413.10
612.02	1329.13
612.21	1415.15
612.40	1343.47
612.59	1431.53
612.79	1339.37
612.98	1368.04
613.17	1435.63
613.36	1331.18
613.55	1492.97
613.74	1499.11
613.93	1515.50
614.13	1587.18
614.32	1728.49
614.51	1617.90
614.70	1531.88
614.89	1474.54
615.08	1464.30
615.28	1626.09
615.47	1466.35
615.66	1449.96
615.85	1472.49
616.04	1509.35
616.23	1413.10
616.42	1513.45
616.62	1431.53
616.81	1464.30
617.00	1468.39
617.19	1404.91
617.38	1343.47
617.57	1349.61
617.76	1419.24
617.95	1417.19
618.15	1363.95
618.34	1484.78
618.53	1363.95
618.72	1349.61
618.91	1421.29
619.10	1421.29
619.29	1359.85
619.48	1314.80
619.68	1368.04
619.87	1390.57
620.06	1318.89
620.25	1439.72
620.44	1396.71
620.63	1357.80
620.82	1308.65
621.01	1370.09
621.20	1335.28
621.39	1411.05
621.59	1396.71
621.78	1376.24
621.97	1400.81
622.16	1435.63
622.35	1351.66
622.54	1394.67
622.73	1415.15
622.92	1382.38
623.11	1347.56
623.30	1343.47
623.49	1419.24
623.68	1318.89
623.88	1329.13
624.07	1327.08
624.26	1370.09
624.45	1366.00
624.64	1376.24
624.83	1443.82
625.02	1327.08
625.21	1388.52
625.40	1409.00
625.59	1406.95
625.78	1335.28
625.97	1413.10
626.16	1421.29
626.35	1441.77
626.54	1439.72
626.74	1441.77
626.93	1546.22
627.12	1443.82
627.31	1468.39
627.50	1454.06
627.69	1474.54
627.88	1415.15
628.07	1406.95
628.26	1361.90
628.45	1331.18
628.64	1292.27
628.83	1380.33
629.02	1413.10
629.21	1460.20
629.40	1468.39
629.59	1277.93
629.78	1396.71
629.97	1359.85
630.16	1318.89
630.35	1454.06
630.54	1396.71
630.73	1443.82
630.92	1458.15
631.11	1345.52
631.30	1413.10
631.49	1466.35
631.68	1378.28
631.87	1404.91
632.06	1304.56
632.25	1523.69
632.44	1474.54
632.63	1404.91
632.82	1386.47
633.01	1417.19
633.20	1503.21
633.39	1517.54
633.58	1484.78
633.77	1554.41
633.96	1445.87
634.15	1392.62
634.34	1515.50
634.53	1388.52
634.72	1376.24
634.91	1329.13
635.10	1372.14
635.29	1478.63
635.48	1417.19
635.67	1366.00
635.86	1290.22
636.05	1441.77
636.24	1431.53
636.43	1429.48
636.62	1484.78
636.81	1290.22
637.00	1431.53
637.19	1439.72
637.38	1363.95
637.57	1353.71
637.76	1394.67
637.95	1495.02
638.14	1429.48
638.33	1445.87
638.52	1517.54
638.71	1406.95
638.89	1404.91
639.08	1511.40
639.27	1445.87
639.46	1417.19
639.65	1658.85
639.84	1904.61
640.03	1976.29
640.22	2115.55
640.41	2146.27
640.60	1929.19
640.79	1720.29
640.98	1738.73
641.17	1679.33
641.36	1669.09
641.55	1509.35
641.74	1523.69
641.92	1581.03
642.11	1468.39
642.30	1601.51
642.49	1488.87
642.68	1445.87
642.87	1443.82
643.06	1406.95
643.25	1388.52
643.44	1327.08
643.63	1388.52
643.82	1421.29
644.00	1359.85
644.19	1331.18
644.38	1402.86
644.57	1396.71
644.76	1384.43
644.95	1435.63
645.14	1390.57
645.33	1472.49
645.52	1429.48
645.71	1316.84
645.89	1353.71
646.08	1404.91
646.27	1370.09
646.46	1476.59
646.65	1318.89
646.84	1335.28
647.03	1343.47
647.22	1443.82
647.40	1347.56
647.59	1382.38
647.78	1275.88
647.97	1357.80
648.16	1341.42
648.35	1374.19
648.54	1390.57
648.73	1392.62
648.91	1454.06
649.10	1378.28
649.29	1339.37
649.48	1372.14
649.67	1239.02
649.86	1396.71
650.05	1386.47
650.23	1533.93
650.42	1470.44
650.61	1572.84
650.80	1726.44
650.99	1587.18
651.18	1497.07
651.36	1441.77
651.55	1425.39
651.74	1486.83
651.93	1409.00
652.12	1413.10
652.31	1417.19
652.49	1406.95
652.68	1443.82
652.87	1413.10
653.06	1402.86
653.25	1462.25
653.44	1449.96
653.62	1472.49
653.81	1443.82
654.00	1478.63
654.19	1447.91
654.38	1464.30
654.56	1394.67
654.75	1404.91
654.94	1427.43
655.13	1368.04
655.32	1343.47
655.51	1419.24
655.69	1275.88
655.88	1427.43
656.07	1304.56
656.26	1363.95
656.45	1296.36
656.63	1363.95
656.82	1384.43
657.01	1417.19
657.20	1306.60
657.38	1505.26
657.57	1341.42
657.76	1380.33
657.95	1353.71
658.14	1390.57
658.32	1357.80
658.51	1298.41
658.70	1329.13
658.89	1337.32
659.08	1279.98
659.26	1419.24
659.45	1339.37
659.64	1425.39
659.83	1417.19
660.01	1552.36
660.20	1474.54
660.39	1417.19
660.58	1363.95
660.76	1478.63
660.95	1380.33
661.14	1400.81
661.33	1386.47
661.51	1378.28
661.70	1374.19
661.89	1378.28
662.08	1370.09
662.26	1345.52
662.45	1327.08
662.64	1462.25
662.83	1415.15
663.01	1366.00
663.20	1380.33
663.39	1363.95
663.58	1316.84
663.76	1370.09
663.95	1396.71
664.14	1353.71
664.32	1386.47
664.51	1409.00
664.70	1255.40
664.89	1359.85
665.07	1361.90
665.26	1431.53
665.45	1265.64
665.64	1411.05
665.82	1331.18
666.01	1419.24
666.20	1357.80
666.38	1368.04
666.57	1437.67
666.76	1556.46
666.95	2095.07
667.13	4435.90
667.32	11267.92
667.51	17882.86
667.69	21450.42
667.88	24770.18
668.07	24163.98
668.25	19109.60
668.44	13645.62
668.63	11079.51
668.81	9029.49
669.00	8028.04
669.19	7268.24
669.38	6920.09
669.56	6332.32
669.75	5588.91
669.94	4911.03
670.12	4313.02
670.31	3467.21
670.50	2987.99
670.68	2478.04
670.87	2156.51
671.06	1753.06
671.24	1742.82
671.43	1652.71
671.62	1597.42
671.80	1462.25
671.99	1525.74
672.18	1521.64
672.36	1478.63
672.55	1415.15
672.74	1470.44
672.92	1370.09
673.11	1443.82
673.29	1366.00
673.48	1474.54
673.67	1380.33
673.85	1423.34
674.04	1339.37
674.23	1372.14
674.41	1435.63
674.60	1431.53
674.79	1314.80
674.97	1370.09
675.16	1392.62
675.34	1445.87
675.53	1294.32
675.72	1400.81
675.90	1447.91
676.09	1339.37
676.28	1310.70
676.46	1312.75
676.65	1390.57
676.83	1331.18
677.02	1337.32
677.21	1384.43
677.39	1411.05
677.58	1331.18
677.77	1388.52
677.95	1314.80
678.14	1314.80
678.32	1384.43
678.51	1345.52
678.70	1429.48
678.88	1314.80
679.07	1366.00
679.25	1392.62
679.44	1486.83
679.63	1308.65
679.81	1329.13
680.00	1413.10
680.18	1427.43
680.37	1382.38
680.55	1404.91
680.74	1322.99
680.93	1357.80
681.11	1388.52
681.30	1374.19
681.48	1396.71
681.67	1376.24
681.85	1357.80
682.04	1304.56
682.23	1470.44
682.41	1361.90
682.60	1335.28
682.78	1404.91
682.97	1335.28
683.15	1361.90
683.34	1304.56
683.53	1417.19
683.71	1325.04
683.90	1380.33
684.08	1378.28
684.27	1363.95
684.45	1396.71
684.64	1437.67
684.82	1394.67
685.01	1322.99
685.19	1380.33
685.38	1468.39
685.57	1396.71
685.75	1282.03
685.94	1359.85
686.12	1415.15
686.31	1411.05
686.49	1404.91
686.68	1351.66
686.86	1368.04
687.05	1359.85
687.23	1441.77
687.42	1331.18
687.60	1327.08
687.79	1372.14
687.97	1331.18
688.16	1445.87
688.34	1392.62
688.53	1277.93
688.71	1456.11
688.90	1363.95
689.08	1378.28
689.27	1290.22
689.45	1398.76
689.64	1409.00
689.82	1400.81
690.01	1419.24
690.19	1429.48
690.38	1384.43
690.56	1435.63
690.75	1327.08
690.93	1318.89
691.12	1322.99
691.30	1355.76
691.49	1378.28
691.67	1402.86
691.86	1437.67
692.04	1380.33
692.23	1351.66
692.41	1413.10
692.60	1486.83
692.78	1486.83
692.97	1380.33
693.15	1503.21
693.34	1531.88
693.52	1382.38
693.71	1452.01
693.89	1372.14
694.08	1413.10
694.26	1443.82
694.44	1421.29
694.63	1445.87
694.81	1400.81
695.00	1445.87
695.18	1470.44
695.37	1540.07
695.55	1310.70
695.74	1327.08
695.92	1316.84
696.10	1441.77
696.29	1306.60
696.47	1366.00
696.66	1304.56
696.84	1423.34
697.03	1327.08
697.21	1484.78
697.40	1751.01
697.58	1435.63
697.76	1214.45
697.95	1345.52
698.13	1331.18
698.32	1314.80
698.50	1396.71
698.68	1386.47
698.87	1388.52
699.05	1419.24
699.24	1327.08
699.42	1349.61
699.61	1392.62
699.79	1370.09
699.97	1359.85
700.16	1335.28
700.34	1316.84
700.53	1345.52
700.71	1433.58
700.89	1402.86
701.08	1339.37
701.26	1320.94
701.45	1595.37
701.63	1351.66
701.81	1380.33
702.00	1343.47
702.18	1409.00
702.37	1404.91
702.55	1454.06
702.73	1437.67
702.92	1466.35
703.10	1634.28
703.28	1630.18
703.47	1634.28
703.65	1732.58
703.84	1605.61
704.02	1462.25
704.20	1574.89
704.39	1411.05
704.57	1437.67
704.75	1540.07
704.94	1421.29
705.12	1417.19
705.30	1515.50
705.49	1535.98
705.67	1751.01
705.86	3551.18
706.04	9113.46
706.22	16275.21
706.41	19633.88
706.59	22494.89
706.77	23494.30
706.96	19832.53
707.14	13717.29
707.32	11196.25
707.51	9375.60
707.69	8183.68
707.87	7520.14
708.06	6848.41
708.24	5910.44
708.42	4917.17
708.61	4145.09
708.79	3082.19
708.97	2478.04
709.16	1966.05
709.34	1769.44
709.52	1595.37
709.71	1492.97
709.89	1527.78
710.07	1388.52
710.26	1431.53
710.44	1470.44
710.62	1447.91
710.80	1368.04
710.99	1421.29
711.17	1433.58
711.35	1294.32
711.54	1378.28
711.72	1449.96
711.90	1300.46
712.09	1413.10
712.27	1386.47
712.45	1384.43
712.63	1372.14
712.82	1349.61
713.00	1423.34
713.18	1482.73
713.37	1433.58
713.55	1396.71
713.73	1355.76
713.91	1460.20
714.10	1374.19
714.28	1384.43
714.46	1359.85
714.65	1353.71
714.83	1380.33
715.01	1466.35
715.19	1357.80
715.38	1331.18
715.56	1339.37
715.74	1382.38
715.92	1296.36
716.11	1347.56
716.29	1263.60
716.47	1349.61
716.65	1288.17
716.84	1388.52
717.02	1404.91
717.20	1286.12
717.38	1357.80
717.57	1488.87
717.75	1333.23
717.93	1277.93
718.11	1378.28
718.30	1386.47
718.48	1445.87
718.66	1409.00
718.84	1366.00
719.03	1355.76
719.21	1306.60
719.39	1429.48
719.57	1419.24
719.75	1374.19
719.94	1366.00
720.12	1345.52
720.30	1402.86
720.48	1447.91
720.67	1329.13
720.85	1413.10
721.03	1398.76
721.21	1277.93
721.39	1380.33
721.58	1382.38
721.76	1380.33
721.94	1359.85
722.12	1378.28
722.30	1388.52
722.49	1314.80
722.67	1392.62
722.85	1376.24
723.03	1368.04
723.21	1363.95
723.40	1347.56
723.58	1404.91
723.76	1400.81
723.94	1421.29
724.12	1306.60
724.30	1458.15
724.49	1470.44
724.67	1445.87
724.85	1523.69
725.03	1427.43
725.21	1429.48
725.40	1437.67
725.58	1419.24
725.76	1441.77
725.94	1454.06
726.12	1322.99
726.30	1366.00
726.49	1382.38
726.67	1310.70
726.85	1388.52
727.03	1429.48
727.21	1462.25
727.39	1492.97
727.57	2023.39
727.76	3426.25
727.94	4431.80
728.12	4839.35
728.30	5095.35
728.48	5093.30
728.66	4110.27
728.84	3422.16
729.03	3119.06
729.21	2805.72
729.39	2527.19
729.57	2263.01
729.75	1992.67
729.93	1804.26
730.11	1544.17
730.30	1466.35
730.48	1413.10
730.66	1513.45
730.84	1449.96
731.02	1378.28
731.20	1363.95
731.38	1353.71
731.56	1454.06
731.74	1402.86
731.93	1417.19
732.11	1372.14
732.29	1392.62
732.47	1398.76
732.65	1386.47
732.83	1421.29
733.01	1417.19
733.19	1374.19
733.37	1472.49
733.56	1345.52
733.74	1437.67
733.92	1390.57
734.10	1331.18
734.28	1374.19
734.46	1345.52
734.64	1351.66
734.82	1443.82
735.00	1353.71
735.18	1339.37
735.36	1376.24
735.54	1339.37
735.73	1312.75
735.91	1419.24
736.09	1380.33
736.27	1454.06
736.45	1318.89
736.63	1314.80
736.81	1296.36
736.99	1400.81
737.17	1390.57
737.35	1406.95
737.53	1433.58
737.71	1390.57
737.89	1443.82
738.07	1282.03
738.25	1339.37
738.43	1361.90
738.61	1445.87
738.80	1314.80
738.98	1337.32
739.16	1322.99
739.34	1333.23
739.52	1423.34
739.70	1423.34
739.88	1372.14
740.06	1413.10
740.24	1370.09
740.42	1419.24
740.60	1320.94
740.78	1251.31
740.96	1271.79
741.14	1359.85
741.32	1286.12
741.50	1271.79
741.68	1499.11
741.86	1361.90
742.04	1273.84
742.22	1310.70
742.40	1351.66
742.58	1409.00
742.76	1357.80
742.94	1409.00
743.12	1331.18
743.30	1294.32
743.48	1277.93
743.66	1419.24
743.84	1435.63
744.02	1394.67
744.20	1437.67
744.38	1277.93
744.56	1386.47
744.74	1482.73
744.92	1380.33
745.10	1482.73
745.28	1341.42
745.46	1433.58
745.64	1437.67
745.82	1368.04
746.00	1370.09
746.18	1314.80
746.36	1339.37
746.54	1363.95
746.72	1402.86
746.90	1331.18
747.08	1398.76
747.26	1322.99
747.44	1411.05
747.62	1406.95
747.80	1343.47
747.98	1419.24
748.15	1359.85
748.33	1329.13
748.51	1320.94
748.69	1445.87
748.87	1382.38
749.05	1425.39
749.23	1400.81
749.41	1411.05
749.59	1353.71
749.77	1378.28
749.95	1374.19
750.13	1343.47
750.31	1445.87
750.49	1335.28
750.67	1431.53
750.85	1413.10
751.03	1372.14
751.20	1415.15
751.38	1425.39
751.56	1400.81
751.74	1411.05
751.92	1355.76
752.10	1427.43
752.28	1384.43
752.46	1286.12
752.64	1343.47
752.82	1400.81
753.00	1376.24
753.18	1372.14
753.35	1372.14
753.53	1443.82
753.71	1402.86
753.89	1495.02
754.07	1331.18
754.25	1445.87
754.43	1449.96
754.61	1394.67
754.79	1447.91
754.97	1312.75
755.14	1482.73
755.32	1314.80
755.50	1327.08
755.68	1396.71
755.86	1304.56
756.04	1382.38
756.22	1243.12
756.40	1345.52
756.57	1460.20
756.75	1363.95
756.93	1386.47
757.11	1388.52
757.29	1363.95
757.47	1339.37
757.65	1282.03
757.82	1366.00
758.00	1380.33
758.18	1413.10
758.36	1320.94
758.54	1445.87
758.72	1273.84
758.90	1404.91
759.07	1390.57
759.25	1347.56
759.43	1331.18
759.61	1296.36
759.79	1650.66
759.97	1331.18
760.15	1351.66
760.32	1314.80
760.50	1376.24
760.68	1449.96
760.86	1282.03
761.04	1363.95
761.22	1386.47
761.39	1339.37
761.57	1361.90
761.75	1347.56
761.93	1370.09
762.11	1288.17
762.28	1372.14
762.46	1322.99
762.64	1476.59
762.82	1357.80
763.00	1277.93
763.18	1433.58
763.35	1302.51
763.53	1374.19
763.71	1304.56
763.89	1341.42
764.07	1388.52
764.24	1425.39
764.42	1458.15
764.60	1296.36
764.78	1398.76
764.96	1427.43
765.13	1394.67
765.31	1400.81
765.49	1404.91
765.67	1349.61
765.84	1351.66
766.02	1306.60
766.20	1294.32
766.38	1402.86
766.56	1404.91
766.73	1357.80
766.91	1282.03
767.09	1320.94
767.27	1374.19
767.44	1374.19
767.62	1394.67
767.80	1413.10
767.98	1392.62
768.15	1390.57
768.33	1363.95
768.51	1411.05
768.69	1417.19
768.87	1357.80
769.04	1343.47
769.22	1388.52
769.40	1372.14
769.58	1437.67
769.75	1427.43
769.93	1435.63
770.11	1384.43
770.28	1404.91
770.46	1361.90
770.64	1406.95
770.82	1374.19
770.99	1325.04
771.17	1400.81
771.35	1351.66
771.53	1443.82
771.70	1488.87
771.88	1404.91
772.06	1376.24
772.23	1351.66
772.41	1355.76
772.59	1384.43
772.77	1392.62
772.94	1351.66
773.12	1374.19
773.30	1329.13
773.47	1304.56
773.65	1335.28
773.83	1400.81
774.01	1378.28
774.18	1253.36
774.36	1337.32
774.54	1310.70
774.71	1394.67
774.89	1363.95
775.07	1294.32
775.24	1298.41
775.42	1335.28
775.60	1437.67
775.78	1388.52
775.95	1361.90
776.13	1298.41
776.31	1265.64
776.48	1261.55
776.66	1411.05
776.84	1454.06
777.01	1306.60
777.19	1357.80
777.37	1327.08
777.54	1390.57
777.72	1476.59
777.90	1482.73
778.07	1327.08
778.25	1505.26
778.43	1382.38
778.60	1296.36
778.78	1370.09
778.96	1427.43
779.13	1355.76
779.31	1437.67
779.49	1288.17
779.66	1392.62
779.84	1298.41
780.01	1386.47
780.19	1302.51
780.37	1458.15
780.54	1329.13
780.72	1341.42
780.90	1345.52
781.07	1347.56
781.25	1404.91
781.43	1314.80
781.60	1361.90
781.78	1384.43
781.95	1433.58
782.13	1349.61
782.31	1400.81
782.48	1347.56
782.66	1429.48
782.83	1449.96
783.01	1353.71
783.19	1421.29
783.36	1390.57
783.54	1325.04
783.72	1368.04
783.89	1374.19
784.07	1269.74
784.24	1374.19
784.42	1437.67
784.60	1368.04
784.77	1398.76
784.95	1277.93
785.12	1259.50
785.30	1351.66
785.47	1312.75
785.65	1347.56
785.83	1349.61
786.00	1398.76
786.18	1353.71
786.35	1296.36
786.53	1320.94
786.71	1376.24
786.88	1366.00
787.06	1333.23
787.23	1382.38
787.41	1349.61
787.58	1388.52
787.76	1341.42
787.94	1351.66
788.11	1347.56
788.29	1343.47
788.46	1380.33
788.64	1325.04
788.81	1316.84
788.99	1269.74
789.16	1398.76
789.34	1376.24
789.52	1380.33
789.69	1296.36
789.87	1318.89
790.04	1366.00
790.22	1339.37
790.39	1439.72
790.57	1302.51
790.74	1304.56
790.92	1378.28
791.09	1329.13
791.27	1400.81
791.44	1347.56
791.62	1333.23
791.79	1409.00
791.97	1376.24
792.15	1468.39
792.32	1368.04
792.50	1423.34
792.67	1419.24
792.85	1398.76
793.02	1402.86
793.20	1396.71
793.37	1232.88
793.55	1351.66
793.72	1310.70
793.90	1353.71
794.07	1357.80
794.25	1355.76
794.42	1445.87
794.60	1339.37
794.77	1296.36
794.95	1429.48
795.12	1409.00
795.30	1384.43
795.47	1320.94
795.65	1449.96
795.82	1409.00
796.00	1253.36
796.17	1333.23
796.34	1355.76
796.52	1400.81
796.69	1368.04
796.87	1404.91
797.04	1396.71
797.22	1380.33
797.39	1372.14
797.57	1388.52
797.74	1331.18
797.92	1363.95
798.09	1388.52
798.27	1445.87
798.44	1409.00
798.62	1347.56
798.79	1368.04
798.96	1357.80
799.14	1351.66
799.31	1396.71
799.49	1456.11
799.66	1335.28
799.84	1343.47
800.01	1286.12
800.19	1314.80
800.36	1296.36
800.53	1366.00
800.71	1288.17
800.88	1503.21
801.06	1452.01
801.23	1337.32
801.41	1384.43
801.58	1339.37
801.75	1361.90
801.93	1372.14
802.10	1370.09
802.28	1329.13
802.45	1409.00
802.63	1406.95
802.80	1441.77
802.97	1355.76
803.15	1302.51
803.32	1286.12
803.50	1337.32
803.67	1337.32
803.84	1275.88
804.02	1386.47
804.19	1359.85
804.37	1292.27
804.54	1372.14
804.71	1368.04
804.89	1411.05
805.06	1300.46
805.24	1368.04
805.41	1292.27
805.58	1329.13
805.76	1513.45
805.93	1349.61
806.10	1363.95
806.28	1366.00
806.45	1370.09
806.63	1341.42
806.80	1411.05
806.97	1337.32
807.15	1355.76
807.32	1396.71
807.49	1361.90
807.67	1370.09
807.84	1320.94
808.01	1304.56
808.19	1468.39
808.36	1449.96
808.54	1286.12
808.71	1376.24
808.88	1392.62
809.06	1456.11
809.23	1355.76
809.40	1339.37
809.58	1423.34
809.75	1402.86
809.92	1347.56
810.10	1359.85
810.27	1335.28
810.44	1439.72
810.62	1437.67
810.79	1335.28
810.96	1353.71
811.14	1337.32
811.31	1339.37
811.48	1320.94
811.66	1417.19
811.83	1353.71
812.00	1396.71
812.18	1415.15
812.35	1474.54
812.52	1396.71
812.69	1318.89
812.87	1398.76
813.04	1404.91
813.21	1392.62
813.39	1345.52
813.56	1351.66
813.73	1458.15
813.91	1361.90
814.08	1398.76
814.25	1355.76
814.42	1341.42
814.60	1378.28
814.77	1386.47
814.94	1372.14
815.12	1345.52
815.29	1335.28
815.46	1437.67
815.63	1388.52
815.81	1456.11
815.98	1388.52
816.15	1372.14
816.33	1353.71
816.50	1282.03
816.67	1390.57
816.84	1343.47
817.02	1345.52
817.19	1390.57
817.36	1355.76
817.53	1390.57
817.71	1431.53
817.88	1396.71
818.05	1406.95
818.22	1331.18
818.40	1337.32
818.57	1370.09
818.74	1413.10
818.91	1370.09
819.09	1378.28
819.26	1406.95
819.43	1329.13
819.60	1345.52
819.78	1400.81
819.95	1374.19
820.12	1318.89
820.29	1421.29
820.47	1409.00
820.64	1353.71
820.81	1347.56
820.98	1304.56
821.15	1435.63
821.33	1329.13
821.50	1366.00
821.67	1413.10
821.84	1361.90
822.02	1308.65
822.19	1382.38
822.36	1345.52
822.53	1322.99
822.70	1353.71
822.88	1318.89
823.05	1372.14
823.22	1384.43
823.39	1353.71
823.56	1456.11
823.74	1423.34
823.91	1316.84
824.08	1359.85
824.25	1316.84
824.42	1394.67
824.60	1357.80
824.77	1351.66
824.94	1359.85
825.11	1333.23
825.28	1304.56
825.45	1325.04
825.63	1413.10
825.80	1277.93
825.97	1333.23
826.14	1329.13
826.31	1322.99
826.48	1300.46
826.66	1271.79
826.83	1339.37
827.00	1314.80
827.17	1390.57
827.34	1363.95
827.51	1415.15
827.69	1382.38
827.86	1314.80
828.03	1394.67
828.20	1335.28
828.37	1351.66
828.54	1396.71
828.71	1327.08
828.89	1415.15
829.06	1429.48
829.23	1351.66
829.40	1400.81
829.57	1382.38
829.74	1384.43
829.91	1351.66
830.09	1392.62
830.26	1349.61
830.43	1437.67
830.60	1402.86
830.77	1394.67
830.94	1402.86
831.11	1378.28
831.28	1327.08
831.46	1404.91
831.63	1413.10
831.80	1335.28
831.97	1382.38
832.14	1331.18
832.31	1449.96
832.48	1421.29
832.65	1353.71
832.82	1341.42
832.99	1351.66
833.17	1327.08
833.34	1419.24
833.51	1390.57
833.68	1267.69
833.85	1322.99
834.02	1329.13
834.19	1345.52
834.36	1398.76
834.53	1382.38
834.70	1437.67
834.87	1443.82
835.04	1404.91
835.22	1423.34
835.39	1402.86
835.56	1374.19
835.73	1343.47
835.90	1435.63
836.07	1314.80
836.24	1466.35
836.41	1316.84
836.58	1359.85
836.75	1355.76
836.92	1398.76
837.09	1370.09
837.26	1384.43
837.43	1411.05
837.60	1423.34
837.77	1400.81
837.94	1454.06
838.12	1427.43
838.29	1380.33
838.46	1355.76
838.63	1363.95
838.80	1415.15
838.97	1296.36
839.14	1439.72
839.31	1347.56
839.48	1343.47
839.65	1351.66
839.82	1437.67
839.99	1310.70
840.16	1421.29
840.33	1331.18
840.50	1357.80
840.67	1325.04
840.84	1288.17
841.01	1357.80
841.18	1388.52
841.35	1396.71
841.52	1355.76
841.69	1447.91
841.86	1382.38
842.03	1409.00
842.20	1374.19
842.37	1351.66
842.54	1355.76
842.71	1380.33
842.88	1239.02
843.05	1413.10
843.22	1452.01
843.39	1417.19
843.56	1433.58
843.73	1372.14
843.90	1322.99
844.07	1353.71
844.24	1400.81
844.41	1421.29
844.58	1392.62
844.75	1433.58
844.92	1388.52
845.09	1435.63
845.26	1382.38
845.43	1396.71
845.60	1396.71
845.77	1384.43
845.94	1345.52
846.10	1382.38
846.27	1255.40
846.44	1359.85
846.61	1335.28
846.78	1392.62
846.95	1404.91
847.12	1318.89
847.29	1361.90
847.46	1366.00
847.63	1374.19
847.80	1388.52
847.97	1331.18
848.14	1419.24
848.31	1398.76
848.48	1345.52
848.65	1353.71
848.82	1322.99
848.98	1513.45
849.15	1384.43
849.32	1433.58
849.49	1306.60
849.66	1423.34
849.83	1394.67
850.00	1394.67
850.17	1378.28
850.34	1404.91
850.51	1376.24
850.68	1382.38
850.85	1406.95
851.01	1351.66
851.18	1445.87
851.35	1392.62
851.52	1359.85
851.69	1435.63
851.86	1388.52
852.03	1390.57
852.20	1411.05
852.37	1351.66
852.53	1279.98
852.70	1320.94
852.87	1359.85
853.04	1394.67
853.21	1318.89
853.38	1363.95
853.55	1359.85
853.72	1429.48
853.89	1431.53
854.05	1363.95
854.22	1312.75
854.39	1286.12
854.56	1413.10
854.73	1396.71
854.90	1343.47
855.07	1374.19
855.23	1417.19
855.40	1312.75
855.57	1370.09
855.74	1327.08
855.91	1476.59
856.08	1431.53
856.25	1339.37
856.41	1378.28
856.58	1263.60
856.75	1314.80
856.92	1363.95
857.09	1476.59
857.26	1351.66
857.42	1390.57
857.59	1357.80
857.76	1288.17
857.93	1351.66
858.10	1359.85
858.27	1298.41
858.43	1300.46
858.60	1353.71
858.77	1335.28
858.94	1306.60
859.11	1361.90
859.27	1341.42
859.44	1378.28
859.61	1474.54
859.78	1304.56
859.95	1325.04
860.12	1343.47
860.28	1507.30
860.45	1402.86
860.62	1363.95
860.79	1372.14
860.95	1331.18
861.12	1351.66
861.29	1372.14
861.46	1282.03
861.63	1388.52
861.79	1419.24
861.96	1382.38
862.13	1361.90
862.30	1370.09
862.47	1357.80
862.63	1396.71
862.80	1376.24
862.97	1359.85
863.14	1441.77
863.30	1355.76
863.47	1333.23
863.64	1392.62
863.81	1464.30
863.97	1308.65
864.14	1390.57
864.31	1374.19
864.48	1298.41
864.65	1327.08
864.81	1429.48
864.98	1349.61
865.15	1419.24
865.32	1472.49
865.48	1396.71
865.65	1361.90
865.82	1298.41
865.98	1363.95
866.15	1411.05
866.32	1322.99
866.49	1376.24
866.65	1331.18
866.82	1284.08
866.99	1456.11
867.16	1341.42
867.32	1329.13
867.49	1386.47
867.66	1411.05
867.83	1333.23
867.99	1400.81
868.16	1472.49
868.33	1329.13
868.49	1380.33
868.66	1312.75
868.83	1394.67
868.99	1331.18
869.16	1335.28
869.33	1363.95
869.50	1329.13
869.66	1343.47
869.83	1351.66
870.00	1322.99
870.16	1386.47
870.33	1390.57
870.50	1394.67
870.66	1347.56
870.83	1505.26
871.00	1310.70
871.17	1376.24
871.33	1357.80
871.50	1357.80
871.67	1380.33
871.83	1261.55
872.00	1386.47
872.17	1357.80
872.33	1468.39
872.50	1396.71
872.67	1370.09
872.83	1345.52
873.00	1351.66
873.17	1337.32
873.33	1380.33
873.50	1411.05
873.67	1331.18
873.83	1335.28
874.00	1413.10
874.16	1429.48
874.33	1312.75
874.50	1355.76
874.66	1413.10
874.83	1406.95
875.00	1351.66
875.16	1355.76
875.33	1439.72
875.50	1255.40
875.66	1372.14
875.83	1370.09
875.99	1359.85
876.16	1370.09
876.33	1366.00
876.49	1417.19
876.66	1351.66
876.83	1314.80
876.99	1271.79
877.16	1320.94
877.32	1402.86
877.49	1306.60
877.66	1372.14
877.82	1390.57
877.99	1374.19
878.15	1468.39
878.32	1374.19
878.49	1435.63
878.65	1409.00
878.82	1417.19
878.98	1435.63
879.15	1411.05
879.32	1437.67
879.48	1292.27
879.65	1318.89
879.81	1277.93
879.98	1349.61
880.15	1380.33
880.31	1339.37
880.48	1322.99
880.64	1316.84
880.81	1372.14
880.97	1462.25
881.14	1452.01
881.31	1300.46
881.47	1417.19
881.64	1370.09
881.80	1310.70
881.97	1325.04
882.13	1456.11
882.30	1312.75
882.47	1361.90
882.63	1345.52
882.80	1378.28
882.96	1341.42
883.13	1382.38
883.29	1425.39
883.46	1423.34
883.62	1388.52
883.79	1421.29
883.95	1359.85
884.12	1392.62
884.29	1363.95
884.45	1374.19
884.62	1384.43
884.78	1353.71
884.95	1427.43
885.11	1333.23
885.28	1488.87
885.44	1335.28
885.61	1435.63
885.77	1443.82
885.94	1398.76
886.10	1331.18
886.27	1380.33
886.43	1427.43
886.60	1392.62
886.76	1368.04
886.93	1351.66
887.09	1388.52
887.26	1298.41
887.42	1421.29
887.59	1400.81
887.75	1406.95
887.92	1437.67
888.08	1417.19
888.25	1406.95
888.41	1345.52
888.58	1370.09
888.74	1288.17
888.91	1343.47
>>>>>End Processed Spectral Data<<<<<
