SpectraSuite Data File
++++++++++++++++++++++++++++++++++++
Date: Tue May 03 11:24:42 CEST 2016
User: root
Dark Spectrum Present: No
Reference Spectrum Present: No
Number of Sampled Component Spectra: 1
Spectrometers: USB4C02835
Integration Time (usec): 100000 (USB4C02835)
Spectra Averaged: 1 (USB4C02835)
Boxcar Smoothing: 0 (USB4C02835)
Correct for Electrical Dark: No (USB4C02835)
Strobe/Lamp Enabled: No (USB4C02835)
Correct for Detector Non-linearity: No (USB4C02835)
Correct for Stray Light: No (USB4C02835)
Number of Pixels in Processed Spectrum: 3648
>>>>>Begin Processed Spectral Data<<<<<
177.47	1208.30
177.69	1208.30
177.91	1208.30
178.13	1251.31
178.36	1243.12
178.58	1298.41
178.80	1349.61
179.02	1306.60
179.24	1372.14
179.46	1363.95
179.68	1411.05
179.90	1351.66
180.13	1337.32
180.35	1341.42
180.57	1320.94
180.79	1447.91
181.01	1347.56
181.23	1400.81
181.45	1378.28
181.67	1310.70
181.90	1439.72
182.12	1366.00
182.34	1343.47
182.56	1327.08
182.78	1312.75
183.00	1370.09
183.22	1388.52
183.44	1302.51
183.66	1443.82
183.89	1357.80
184.11	1363.95
184.33	1402.86
184.55	1423.34
184.77	1298.41
184.99	1376.24
185.21	1298.41
185.43	1466.35
185.65	1433.58
185.87	1384.43
186.10	1421.29
186.32	1456.11
186.54	1339.37
186.76	1417.19
186.98	1343.47
187.20	1343.47
187.42	1366.00
187.64	1402.86
187.86	1411.05
188.08	1429.48
188.30	1402.86
188.52	1355.76
188.75	1415.15
188.97	1378.28
189.19	1212.40
189.41	1413.10
189.63	1322.99
189.85	1396.71
190.07	1322.99
190.29	1296.36
190.51	1357.80
190.73	1302.51
190.95	1376.24
191.17	1413.10
191.39	1314.80
191.61	1316.84
191.84	1357.80
192.06	1318.89
192.28	1320.94
192.50	1501.16
192.72	1425.39
192.94	1452.01
193.16	1445.87
193.38	1406.95
193.60	1341.42
193.82	1478.63
194.04	1335.28
194.26	1329.13
194.48	1380.33
194.70	1376.24
194.92	1355.76
195.14	1331.18
195.36	1335.28
195.58	1372.14
195.80	1433.58
196.02	1349.61
196.24	1406.95
196.46	1429.48
196.69	1382.38
196.91	1562.60
197.13	1380.33
197.35	1290.22
197.57	1435.63
197.79	1343.47
198.01	1363.95
198.23	1419.24
198.45	1376.24
198.67	1269.74
198.89	1333.23
199.11	1433.58
199.33	1310.70
199.55	1314.80
199.77	1372.14
199.99	1402.86
200.21	1394.67
200.43	1413.10
200.65	1279.98
200.87	1390.57
201.09	1454.06
201.31	1322.99
201.53	1490.92
201.75	1445.87
201.97	1322.99
202.19	1366.00
202.41	1392.62
202.63	1427.43
202.85	1347.56
203.07	1339.37
203.29	1296.36
203.51	1361.90
203.73	1376.24
203.95	1546.22
204.17	1425.39
204.39	1437.67
204.61	1351.66
204.83	1349.61
205.05	1361.90
205.27	1380.33
205.49	1445.87
205.71	1372.14
205.93	1302.51
206.15	1419.24
206.37	1361.90
206.59	1359.85
206.81	1257.45
207.03	1312.75
207.25	1374.19
207.47	1345.52
207.69	1402.86
207.91	1429.48
208.13	1382.38
208.34	1370.09
208.56	1353.71
208.78	1415.15
209.00	1474.54
209.22	1353.71
209.44	1353.71
209.66	1380.33
209.88	1368.04
210.10	1302.51
210.32	1374.19
210.54	1374.19
210.76	1361.90
210.98	1339.37
211.20	1234.93
211.42	1357.80
211.64	1380.33
211.86	1433.58
212.08	1404.91
212.30	1419.24
212.52	1339.37
212.74	1421.29
212.96	1415.15
213.17	1404.91
213.39	1341.42
213.61	1427.43
213.83	1441.77
214.05	1353.71
214.27	1282.03
214.49	1302.51
214.71	1322.99
214.93	1400.81
215.15	1349.61
215.37	1316.84
215.59	1302.51
215.81	1374.19
216.03	1417.19
216.24	1333.23
216.46	1359.85
216.68	1310.70
216.90	1370.09
217.12	1335.28
217.34	1443.82
217.56	1425.39
217.78	1384.43
218.00	1363.95
218.22	1425.39
218.44	1425.39
218.66	1351.66
218.87	1421.29
219.09	1390.57
219.31	1363.95
219.53	1429.48
219.75	1325.04
219.97	1363.95
220.19	1366.00
220.41	1402.86
220.63	1419.24
220.85	1345.52
221.06	1409.00
221.28	1372.14
221.50	1406.95
221.72	1400.81
221.94	1386.47
222.16	1325.04
222.38	1400.81
222.60	1406.95
222.82	1396.71
223.03	1384.43
223.25	1279.98
223.47	1478.63
223.69	1458.15
223.91	1368.04
224.13	1290.22
224.35	1298.41
224.57	1378.28
224.78	1384.43
225.00	1322.99
225.22	1357.80
225.44	1445.87
225.66	1435.63
225.88	1349.61
226.10	1355.76
226.32	1341.42
226.53	1357.80
226.75	1357.80
226.97	1447.91
227.19	1314.80
227.41	1320.94
227.63	1394.67
227.85	1396.71
228.06	1312.75
228.28	1288.17
228.50	1327.08
228.72	1345.52
228.94	1384.43
229.16	1257.45
229.37	1339.37
229.59	1372.14
229.81	1339.37
230.03	1339.37
230.25	1322.99
230.47	1357.80
230.69	1372.14
230.90	1456.11
231.12	1325.04
231.34	1257.45
231.56	1427.43
231.78	1308.65
232.00	1380.33
232.21	1316.84
232.43	1406.95
232.65	1275.88
232.87	1433.58
233.09	1325.04
233.30	1398.76
233.52	1384.43
233.74	1390.57
233.96	1398.76
234.18	1394.67
234.40	1300.46
234.61	1423.34
234.83	1372.14
235.05	1351.66
235.27	1417.19
235.49	1347.56
235.70	1318.89
235.92	1441.77
236.14	1382.38
236.36	1474.54
236.58	1294.32
236.79	1437.67
237.01	1435.63
237.23	1404.91
237.45	1527.78
237.67	1333.23
237.88	1327.08
238.10	1392.62
238.32	1333.23
238.54	1284.08
238.76	1409.00
238.97	1343.47
239.19	1325.04
239.41	1347.56
239.63	1404.91
239.85	1331.18
240.06	1353.71
240.28	1380.33
240.50	1415.15
240.72	1404.91
240.93	1370.09
241.15	1476.59
241.37	1402.86
241.59	1437.67
241.81	1378.28
242.02	1374.19
242.24	1388.52
242.46	1411.05
242.68	1435.63
242.89	1478.63
243.11	1425.39
243.33	1370.09
243.55	1433.58
243.76	1431.53
243.98	1320.94
244.20	1320.94
244.42	1380.33
244.64	1409.00
244.85	1388.52
245.07	1353.71
245.29	1406.95
245.51	1392.62
245.72	1402.86
245.94	1486.83
246.16	1378.28
246.38	1429.48
246.59	1390.57
246.81	1345.52
247.03	1380.33
247.24	1302.51
247.46	1366.00
247.68	1363.95
247.90	1320.94
248.11	1382.38
248.33	1366.00
248.55	1331.18
248.77	1376.24
248.98	1398.76
249.20	1392.62
249.42	1361.90
249.64	1406.95
249.85	1290.22
250.07	1368.04
250.29	1261.55
250.50	1411.05
250.72	1241.07
250.94	1370.09
251.16	1495.02
251.37	1423.34
251.59	1355.76
251.81	1384.43
252.02	1429.48
252.24	1341.42
252.46	1392.62
252.68	1359.85
252.89	1363.95
253.11	1314.80
253.33	1382.38
253.54	1456.11
253.76	1306.60
253.98	1339.37
254.20	1351.66
254.41	1384.43
254.63	1298.41
254.85	1310.70
255.06	1409.00
255.28	1347.56
255.50	1413.10
255.71	1404.91
255.93	1306.60
256.15	1388.52
256.36	1366.00
256.58	1370.09
256.80	1384.43
257.02	1384.43
257.23	1308.65
257.45	1353.71
257.67	1368.04
257.88	1355.76
258.10	1335.28
258.32	1376.24
258.53	1445.87
258.75	1419.24
258.97	1263.60
259.18	1437.67
259.40	1380.33
259.62	1482.73
259.83	1433.58
260.05	1429.48
260.27	1449.96
260.48	1306.60
260.70	1327.08
260.92	1366.00
261.13	1402.86
261.35	1409.00
261.57	1411.05
261.78	1314.80
262.00	1386.47
262.22	1435.63
262.43	1372.14
262.65	1335.28
262.86	1337.32
263.08	1335.28
263.30	1388.52
263.51	1273.84
263.73	1398.76
263.95	1411.05
264.16	1388.52
264.38	1363.95
264.60	1378.28
264.81	1318.89
265.03	1402.86
265.25	1341.42
265.46	1370.09
265.68	1419.24
265.89	1392.62
266.11	1386.47
266.33	1363.95
266.54	1445.87
266.76	1400.81
266.98	1429.48
267.19	1441.77
267.41	1441.77
267.62	1384.43
267.84	1333.23
268.06	1413.10
268.27	1361.90
268.49	1425.39
268.70	1437.67
268.92	1439.72
269.14	1400.81
269.35	1347.56
269.57	1388.52
269.79	1376.24
270.00	1329.13
270.22	1404.91
270.43	1314.80
270.65	1265.64
270.87	1429.48
271.08	1380.33
271.30	1472.49
271.51	1406.95
271.73	1392.62
271.95	1449.96
272.16	1347.56
272.38	1380.33
272.59	1316.84
272.81	1419.24
273.02	1300.46
273.24	1361.90
273.46	1378.28
273.67	1390.57
273.89	1366.00
274.10	1390.57
274.32	1353.71
274.54	1390.57
274.75	1314.80
274.97	1355.76
275.18	1411.05
275.40	1363.95
275.61	1382.38
275.83	1394.67
276.05	1398.76
276.26	1343.47
276.48	1431.53
276.69	1419.24
276.91	1329.13
277.12	1417.19
277.34	1318.89
277.55	1435.63
277.77	1368.04
277.99	1341.42
278.20	1294.32
278.42	1349.61
278.63	1374.19
278.85	1382.38
279.06	1441.77
279.28	1363.95
279.49	1400.81
279.71	1388.52
279.93	1347.56
280.14	1314.80
280.36	1370.09
280.57	1468.39
280.79	1343.47
281.00	1349.61
281.22	1282.03
281.43	1359.85
281.65	1255.40
281.86	1351.66
282.08	1343.47
282.29	1357.80
282.51	1302.51
282.73	1351.66
282.94	1312.75
283.16	1404.91
283.37	1480.68
283.59	1353.71
283.80	1331.18
284.02	1349.61
284.23	1427.43
284.45	1382.38
284.66	1325.04
284.88	1398.76
285.09	1462.25
285.31	1312.75
285.52	1392.62
285.74	1273.84
285.95	1431.53
286.17	1452.01
286.38	1427.43
286.60	1374.19
286.81	1308.65
287.03	1308.65
287.24	1318.89
287.46	1284.08
287.67	1361.90
287.89	1460.20
288.10	1347.56
288.32	1339.37
288.53	1411.05
288.75	1372.14
288.96	1415.15
289.18	1415.15
289.39	1327.08
289.61	1398.76
289.82	1392.62
290.04	1421.29
290.25	1394.67
290.47	1384.43
290.68	1374.19
290.90	1411.05
291.11	1361.90
291.33	1345.52
291.54	1404.91
291.76	1304.56
291.97	1325.04
292.18	1372.14
292.40	1351.66
292.61	1406.95
292.83	1427.43
293.04	1404.91
293.26	1359.85
293.47	1390.57
293.69	1353.71
293.90	1388.52
294.12	1384.43
294.33	1392.62
294.55	1404.91
294.76	1402.86
294.97	1366.00
295.19	1452.01
295.40	1406.95
295.62	1320.94
295.83	1329.13
296.05	1312.75
296.26	1417.19
296.48	1343.47
296.69	1366.00
296.90	1374.19
297.12	1402.86
297.33	1454.06
297.55	1302.51
297.76	1329.13
297.98	1409.00
298.19	1413.10
298.41	1255.40
298.62	1312.75
298.83	1415.15
299.05	1302.51
299.26	1376.24
299.48	1370.09
299.69	1388.52
299.90	1378.28
300.12	1396.71
300.33	1464.30
300.55	1372.14
300.76	1304.56
300.98	1282.03
301.19	1386.47
301.40	1392.62
301.62	1400.81
301.83	1318.89
302.05	1388.52
302.26	1294.32
302.47	1404.91
302.69	1277.93
302.90	1349.61
303.12	1296.36
303.33	1384.43
303.54	1417.19
303.76	1378.28
303.97	1394.67
304.19	1368.04
304.40	1353.71
304.61	1275.88
304.83	1452.01
305.04	1363.95
305.26	1359.85
305.47	1372.14
305.68	1423.34
305.90	1306.60
306.11	1298.41
306.33	1478.63
306.54	1357.80
306.75	1341.42
306.97	1314.80
307.18	1382.38
307.39	1361.90
307.61	1378.28
307.82	1294.32
308.04	1318.89
308.25	1361.90
308.46	1394.67
308.68	1396.71
308.89	1353.71
309.10	1460.20
309.32	1384.43
309.53	1372.14
309.74	1339.37
309.96	1392.62
310.17	1433.58
310.39	1384.43
310.60	1402.86
310.81	1357.80
311.03	1388.52
311.24	1411.05
311.45	1333.23
311.67	1384.43
311.88	1409.00
312.09	1415.15
312.31	1333.23
312.52	1355.76
312.73	1314.80
312.95	1284.08
313.16	1388.52
313.37	1370.09
313.59	1390.57
313.80	1404.91
314.01	1363.95
314.23	1380.33
314.44	1351.66
314.65	1300.46
314.87	1431.53
315.08	1316.84
315.29	1382.38
315.51	1335.28
315.72	1374.19
315.93	1519.59
316.15	1437.67
316.36	1355.76
316.57	1327.08
316.79	1355.76
317.00	1314.80
317.21	1378.28
317.43	1335.28
317.64	1337.32
317.85	1396.71
318.07	1449.96
318.28	1470.44
318.49	1527.78
318.70	1566.70
318.92	1591.27
319.13	1546.22
319.34	1562.60
319.56	1492.97
319.77	1456.11
319.98	1419.24
320.20	1366.00
320.41	1341.42
320.62	1519.59
320.83	1415.15
321.05	1452.01
321.26	1339.37
321.47	1370.09
321.69	1384.43
321.90	1343.47
322.11	1339.37
322.32	1394.67
322.54	1490.92
322.75	1322.99
322.96	1415.15
323.18	1269.74
323.39	1265.64
323.60	1368.04
323.81	1400.81
324.03	1308.65
324.24	1372.14
324.45	1368.04
324.66	1384.43
324.88	1366.00
325.09	1376.24
325.30	1419.24
325.52	1335.28
325.73	1392.62
325.94	1316.84
326.15	1284.08
326.37	1351.66
326.58	1488.87
326.79	1357.80
327.00	1310.70
327.22	1462.25
327.43	1366.00
327.64	1322.99
327.85	1400.81
328.07	1374.19
328.28	1402.86
328.49	1447.91
328.70	1357.80
328.92	1327.08
329.13	1316.84
329.34	1415.15
329.55	1409.00
329.76	1353.71
329.98	1413.10
330.19	1402.86
330.40	1322.99
330.61	1441.77
330.83	1314.80
331.04	1351.66
331.25	1394.67
331.46	1347.56
331.68	1433.58
331.89	1388.52
332.10	1366.00
332.31	1265.64
332.52	1363.95
332.74	1353.71
332.95	1378.28
333.16	1366.00
333.37	1347.56
333.58	1341.42
333.80	1411.05
334.01	1329.13
334.22	1376.24
334.43	1363.95
334.64	1435.63
334.86	1402.86
335.07	1318.89
335.28	1441.77
335.49	1306.60
335.70	1370.09
335.92	1372.14
336.13	1449.96
336.34	1368.04
336.55	1396.71
336.76	1363.95
336.98	1314.80
337.19	1392.62
337.40	1347.56
337.61	1447.91
337.82	1372.14
338.04	1372.14
338.25	1345.52
338.46	1351.66
338.67	1466.35
338.88	1351.66
339.09	1374.19
339.31	1380.33
339.52	1376.24
339.73	1357.80
339.94	1374.19
340.15	1378.28
340.36	1271.79
340.58	1378.28
340.79	1372.14
341.00	1368.04
341.21	1392.62
341.42	1366.00
341.63	1310.70
341.85	1396.71
342.06	1417.19
342.27	1310.70
342.48	1411.05
342.69	1392.62
342.90	1329.13
343.12	1314.80
343.33	1427.43
343.54	1447.91
343.75	1421.29
343.96	1337.32
344.17	1286.12
344.38	1386.47
344.60	1282.03
344.81	1308.65
345.02	1376.24
345.23	1382.38
345.44	1439.72
345.65	1445.87
345.86	1443.82
346.07	1439.72
346.29	1359.85
346.50	1429.48
346.71	1421.29
346.92	1409.00
347.13	1456.11
347.34	1349.61
347.55	1374.19
347.76	1439.72
347.98	1343.47
348.19	1347.56
348.40	1388.52
348.61	1331.18
348.82	1470.44
349.03	1316.84
349.24	1247.21
349.45	1472.49
349.66	1327.08
349.88	1329.13
350.09	1306.60
350.30	1452.01
350.51	1425.39
350.72	1382.38
350.93	1333.23
351.14	1380.33
351.35	1366.00
351.56	1413.10
351.77	1433.58
351.99	1419.24
352.20	1378.28
352.41	1472.49
352.62	1288.17
352.83	1368.04
353.04	1376.24
353.25	1392.62
353.46	1363.95
353.67	1396.71
353.88	1310.70
354.09	1331.18
354.30	1380.33
354.52	1372.14
354.73	1386.47
354.94	1333.23
355.15	1396.71
355.36	1486.83
355.57	1322.99
355.78	1406.95
355.99	1300.46
356.20	1322.99
356.41	1361.90
356.62	1435.63
356.83	1396.71
357.04	1409.00
357.25	1318.89
357.46	1335.28
357.68	1331.18
357.89	1279.98
358.10	1439.72
358.31	1384.43
358.52	1347.56
358.73	1353.71
358.94	1308.65
359.15	1341.42
359.36	1376.24
359.57	1318.89
359.78	1339.37
359.99	1437.67
360.20	1335.28
360.41	1355.76
360.62	1464.30
360.83	1378.28
361.04	1380.33
361.25	1331.18
361.46	1396.71
361.67	1409.00
361.88	1423.34
362.09	1472.49
362.30	1392.62
362.51	1335.28
362.72	1376.24
362.93	1435.63
363.14	1417.19
363.35	1380.33
363.56	1380.33
363.78	1458.15
363.99	1419.24
364.20	1435.63
364.41	1343.47
364.62	1495.02
364.83	1290.22
365.04	1415.15
365.25	1335.28
365.46	1441.77
365.67	1347.56
365.88	1400.81
366.09	1366.00
366.30	1376.24
366.51	1353.71
366.72	1304.56
366.93	1363.95
367.14	1314.80
367.35	1388.52
367.56	1341.42
367.77	1411.05
367.98	1382.38
368.18	1353.71
368.39	1363.95
368.60	1320.94
368.81	1378.28
369.02	1343.47
369.23	1390.57
369.44	1304.56
369.65	1384.43
369.86	1339.37
370.07	1437.67
370.28	1363.95
370.49	1363.95
370.70	1357.80
370.91	1353.71
371.12	1325.04
371.33	1411.05
371.54	1363.95
371.75	1396.71
371.96	1282.03
372.17	1406.95
372.38	1380.33
372.59	1449.96
372.80	1384.43
373.01	1292.27
373.22	1361.90
373.43	1302.51
373.64	1310.70
373.85	1392.62
374.06	1378.28
374.26	1419.24
374.47	1429.48
374.68	1409.00
374.89	1404.91
375.10	1349.61
375.31	1411.05
375.52	1372.14
375.73	1454.06
375.94	1292.27
376.15	1361.90
376.36	1363.95
376.57	1298.41
376.78	1384.43
376.99	1265.64
377.20	1474.54
377.40	1429.48
377.61	1458.15
377.82	1368.04
378.03	1458.15
378.24	1333.23
378.45	1380.33
378.66	1353.71
378.87	1277.93
379.08	1304.56
379.29	1357.80
379.50	1411.05
379.71	1392.62
379.91	1386.47
380.12	1304.56
380.33	1464.30
380.54	1363.95
380.75	1368.04
380.96	1366.00
381.17	1413.10
381.38	1406.95
381.59	1380.33
381.80	1505.26
382.00	1474.54
382.21	1392.62
382.42	1386.47
382.63	1437.67
382.84	1458.15
383.05	1437.67
383.26	1439.72
383.47	1419.24
383.68	1452.01
383.88	1380.33
384.09	1431.53
384.30	1503.21
384.51	1370.09
384.72	1394.67
384.93	1413.10
385.14	1376.24
385.35	1368.04
385.55	1398.76
385.76	1429.48
385.97	1411.05
386.18	1384.43
386.39	1396.71
386.60	1419.24
386.81	1318.89
387.02	1355.76
387.22	1400.81
387.43	1445.87
387.64	1605.61
387.85	2281.44
388.06	5662.63
388.27	9414.51
388.48	11530.06
388.68	13076.28
388.89	13399.86
389.10	10561.37
389.31	9135.99
389.52	8232.83
389.73	7303.06
389.93	6870.94
390.14	6563.74
390.35	6180.77
390.56	5443.50
390.77	4472.76
390.98	3708.87
391.18	2811.86
391.39	2121.70
391.60	1705.96
391.81	1460.20
392.02	1452.01
392.23	1509.35
392.43	1439.72
392.64	1398.76
392.85	1359.85
393.06	1556.46
393.27	1394.67
393.47	1335.28
393.68	1435.63
393.89	1359.85
394.10	1429.48
394.31	1349.61
394.52	1320.94
394.72	1359.85
394.93	1417.19
395.14	1357.80
395.35	1409.00
395.56	1347.56
395.76	1542.12
395.97	1585.13
396.18	1673.19
396.39	1665.00
396.60	1720.29
396.80	1585.13
397.01	1499.11
397.22	1523.69
397.43	1566.70
397.64	1492.97
397.84	1464.30
398.05	1470.44
398.26	1421.29
398.47	1495.02
398.67	1458.15
398.88	1431.53
399.09	1331.18
399.30	1357.80
399.51	1398.76
399.71	1402.86
399.92	1320.94
400.13	1349.61
400.34	1363.95
400.54	1390.57
400.75	1433.58
400.96	1329.13
401.17	1501.16
401.37	1355.76
401.58	1423.34
401.79	1419.24
402.00	1658.85
402.21	1806.31
402.41	1841.12
402.62	1814.50
402.83	1746.92
403.04	1634.28
403.24	1718.25
403.45	1546.22
403.66	1626.09
403.87	1460.20
404.07	1492.97
404.28	1542.12
404.49	1529.83
404.70	1523.69
404.90	1443.82
405.11	1439.72
405.32	1413.10
405.52	1316.84
405.73	1355.76
405.94	1402.86
406.15	1275.88
406.35	1372.14
406.56	1394.67
406.77	1318.89
406.98	1456.11
407.18	1349.61
407.39	1370.09
407.60	1390.57
407.80	1382.38
408.01	1374.19
408.22	1409.00
408.43	1325.04
408.63	1435.63
408.84	1388.52
409.05	1423.34
409.25	1263.60
409.46	1388.52
409.67	1398.76
409.88	1322.99
410.08	1478.63
410.29	1343.47
410.50	1482.73
410.70	1380.33
410.91	1308.65
411.12	1361.90
411.32	1363.95
411.53	1415.15
411.74	1501.16
411.95	1447.91
412.15	1490.92
412.36	1441.77
412.57	1429.48
412.77	1476.59
412.98	1396.71
413.19	1413.10
413.39	1449.96
413.60	1378.28
413.81	1478.63
414.01	1413.10
414.22	1411.05
414.43	1384.43
414.63	1366.00
414.84	1374.19
415.05	1437.67
415.25	1353.71
415.46	1327.08
415.67	1304.56
415.87	1363.95
416.08	1419.24
416.29	1388.52
416.49	1370.09
416.70	1337.32
416.91	1427.43
417.11	1390.57
417.32	1398.76
417.53	1347.56
417.73	1325.04
417.94	1335.28
418.15	1425.39
418.35	1404.91
418.56	1460.20
418.77	1447.91
418.97	1374.19
419.18	1441.77
419.38	1349.61
419.59	1312.75
419.80	1368.04
420.00	1417.19
420.21	1390.57
420.42	1378.28
420.62	1386.47
420.83	1417.19
421.04	1388.52
421.24	1345.52
421.45	1339.37
421.65	1376.24
421.86	1374.19
422.07	1380.33
422.27	1392.62
422.48	1376.24
422.69	1331.18
422.89	1400.81
423.10	1363.95
423.30	1359.85
423.51	1345.52
423.72	1325.04
423.92	1370.09
424.13	1353.71
424.33	1417.19
424.54	1347.56
424.75	1402.86
424.95	1415.15
425.16	1374.19
425.36	1380.33
425.57	1501.16
425.78	1378.28
425.98	1439.72
426.19	1310.70
426.39	1337.32
426.60	1368.04
426.81	1431.53
427.01	1347.56
427.22	1363.95
427.42	1368.04
427.63	1337.32
427.83	1351.66
428.04	1445.87
428.25	1382.38
428.45	1386.47
428.66	1445.87
428.86	1298.41
429.07	1437.67
429.28	1372.14
429.48	1415.15
429.69	1353.71
429.89	1337.32
430.10	1376.24
430.30	1443.82
430.51	1419.24
430.71	1370.09
430.92	1378.28
431.13	1302.51
431.33	1386.47
431.54	1378.28
431.74	1398.76
431.95	1478.63
432.15	1347.56
432.36	1331.18
432.56	1355.76
432.77	1476.59
432.98	1425.39
433.18	1400.81
433.39	1312.75
433.59	1400.81
433.80	1417.19
434.00	1374.19
434.21	1366.00
434.41	1445.87
434.62	1468.39
434.82	1286.12
435.03	1404.91
435.23	1396.71
435.44	1382.38
435.64	1372.14
435.85	1380.33
436.06	1370.09
436.26	1368.04
436.47	1378.28
436.67	1296.36
436.88	1347.56
437.08	1476.59
437.29	1439.72
437.49	1392.62
437.70	1421.29
437.90	1374.19
438.11	1497.07
438.31	1472.49
438.52	1533.93
438.72	1523.69
438.93	1519.59
439.13	1413.10
439.34	1482.73
439.54	1396.71
439.75	1482.73
439.95	1490.92
440.16	1331.18
440.36	1341.42
440.57	1404.91
440.77	1376.24
440.98	1384.43
441.18	1376.24
441.39	1425.39
441.59	1343.47
441.80	1310.70
442.00	1320.94
442.21	1382.38
442.41	1269.74
442.62	1406.95
442.82	1427.43
443.02	1427.43
443.23	1384.43
443.43	1400.81
443.64	1411.05
443.84	1310.70
444.05	1404.91
444.25	1368.04
444.46	1423.34
444.66	1341.42
444.87	1417.19
445.07	1343.47
445.28	1355.76
445.48	1490.92
445.69	1372.14
445.89	1445.87
446.09	1462.25
446.30	2263.01
446.50	3708.87
446.71	4650.94
446.91	5412.78
447.12	5558.19
447.32	4884.41
447.53	4181.95
447.73	3923.91
447.93	3499.98
448.14	3248.08
448.34	3090.38
448.55	2785.24
448.75	2813.91
448.96	2688.98
449.16	2402.27
449.36	2105.31
449.57	1920.99
449.77	1703.91
449.98	1535.98
450.18	1413.10
450.39	1533.93
450.59	1372.14
450.79	1359.85
451.00	1306.60
451.20	1441.77
451.41	1366.00
451.61	1490.92
451.81	1337.32
452.02	1343.47
452.22	1396.71
452.43	1374.19
452.63	1435.63
452.84	1370.09
453.04	1378.28
453.24	1386.47
453.45	1331.18
453.65	1406.95
453.86	1363.95
454.06	1331.18
454.26	1439.72
454.47	1359.85
454.67	1456.11
454.87	1445.87
455.08	1404.91
455.28	1515.50
455.49	1351.66
455.69	1345.52
455.89	1482.73
456.10	1304.56
456.30	1335.28
456.51	1406.95
456.71	1351.66
456.91	1300.46
457.12	1396.71
457.32	1386.47
457.52	1327.08
457.73	1382.38
457.93	1404.91
458.14	1314.80
458.34	1357.80
458.54	1347.56
458.75	1423.34
458.95	1406.95
459.15	1370.09
459.36	1372.14
459.56	1363.95
459.76	1427.43
459.97	1374.19
460.17	1357.80
460.37	1368.04
460.58	1339.37
460.78	1433.58
460.99	1363.95
461.19	1359.85
461.39	1320.94
461.60	1425.39
461.80	1378.28
462.00	1337.32
462.21	1337.32
462.41	1310.70
462.61	1302.51
462.82	1288.17
463.02	1431.53
463.22	1384.43
463.43	1398.76
463.63	1388.52
463.83	1361.90
464.04	1439.72
464.24	1363.95
464.44	1312.75
464.64	1386.47
464.85	1394.67
465.05	1429.48
465.25	1421.29
465.46	1462.25
465.66	1492.97
465.86	1423.34
466.07	1382.38
466.27	1394.67
466.47	1294.32
466.68	1327.08
466.88	1390.57
467.08	1359.85
467.29	1277.93
467.49	1462.25
467.69	1363.95
467.89	1396.71
468.10	1343.47
468.30	1406.95
468.50	1380.33
468.71	1376.24
468.91	1361.90
469.11	1488.87
469.31	1445.87
469.52	1341.42
469.72	1441.77
469.92	1423.34
470.13	1433.58
470.33	1392.62
470.53	1667.05
470.73	1986.53
470.94	2191.33
471.14	2357.21
471.34	2443.23
471.54	2242.53
471.75	2002.91
471.95	1902.56
472.15	1839.08
472.36	1812.45
472.56	1855.46
472.76	1820.64
472.96	1708.01
473.17	1613.80
473.37	1630.18
473.57	1492.97
473.77	1552.36
473.98	1439.72
474.18	1376.24
474.38	1501.16
474.58	1320.94
474.79	1425.39
474.99	1331.18
475.19	1404.91
475.39	1413.10
475.60	1386.47
475.80	1392.62
476.00	1417.19
476.20	1452.01
476.41	1413.10
476.61	1495.02
476.81	1437.67
477.01	1320.94
477.21	1470.44
477.42	1417.19
477.62	1331.18
477.82	1402.86
478.02	1390.57
478.23	1361.90
478.43	1380.33
478.63	1378.28
478.83	1458.15
479.03	1308.65
479.24	1458.15
479.44	1435.63
479.64	1351.66
479.84	1320.94
480.04	1335.28
480.25	1390.57
480.45	1392.62
480.65	1368.04
480.85	1355.76
481.06	1279.98
481.26	1349.61
481.46	1439.72
481.66	1433.58
481.86	1320.94
482.06	1404.91
482.27	1427.43
482.47	1423.34
482.67	1386.47
482.87	1394.67
483.07	1443.82
483.28	1333.23
483.48	1327.08
483.68	1462.25
483.88	1335.28
484.08	1335.28
484.29	1314.80
484.49	1335.28
484.69	1339.37
484.89	1384.43
485.09	1419.24
485.29	1452.01
485.50	1335.28
485.70	1359.85
485.90	1445.87
486.10	1351.66
486.30	1382.38
486.50	1376.24
486.71	1396.71
486.91	1345.52
487.11	1361.90
487.31	1314.80
487.51	1394.67
487.71	1382.38
487.91	1390.57
488.12	1347.56
488.32	1273.84
488.52	1290.22
488.72	1353.71
488.92	1443.82
489.12	1349.61
489.32	1376.24
489.53	1343.47
489.73	1296.36
489.93	1445.87
490.13	1322.99
490.33	1363.95
490.53	1396.71
490.73	1476.59
490.94	1390.57
491.14	1409.00
491.34	1609.70
491.54	2146.27
491.74	2660.31
491.94	2930.64
492.14	3203.02
492.34	3014.61
492.54	2547.67
492.75	2295.77
492.95	2295.77
493.15	2101.22
493.35	2002.91
493.55	1933.28
493.75	1888.23
493.95	1787.88
494.15	1802.21
494.35	1683.43
494.56	1646.57
494.76	1519.59
494.96	1495.02
495.16	1521.64
495.36	1390.57
495.56	1413.10
495.76	1429.48
495.96	1376.24
496.16	1351.66
496.36	1447.91
496.56	1343.47
496.77	1478.63
496.97	1400.81
497.17	1427.43
497.37	1359.85
497.57	1409.00
497.77	1413.10
497.97	1298.41
498.17	1417.19
498.37	1402.86
498.57	1390.57
498.77	1366.00
498.97	1392.62
499.17	1435.63
499.38	1396.71
499.58	1425.39
499.78	1394.67
499.98	1425.39
500.18	1419.24
500.38	1484.78
500.58	1712.10
500.78	3061.71
500.98	5451.69
501.18	6954.90
501.38	8202.11
501.58	8445.82
501.78	7317.39
501.98	5885.86
502.18	5152.69
502.38	4589.50
502.58	4042.69
502.78	3749.83
502.98	3600.33
503.18	3442.64
503.38	3373.00
503.59	2998.23
503.79	2846.68
503.99	2529.24
504.19	2375.64
504.39	2150.37
504.59	2064.35
504.79	1974.24
504.99	1824.74
505.19	1640.42
505.39	1556.46
505.59	1662.95
505.79	1550.31
505.99	1511.40
506.19	1452.01
506.39	1521.64
506.59	1351.66
506.79	1380.33
506.99	1499.11
507.19	1429.48
507.39	1439.72
507.59	1357.80
507.79	1357.80
507.99	1406.95
508.19	1376.24
508.39	1341.42
508.59	1435.63
508.79	1421.29
508.99	1454.06
509.19	1404.91
509.39	1394.67
509.59	1386.47
509.79	1357.80
509.99	1388.52
510.19	1357.80
510.39	1490.92
510.59	1347.56
510.79	1406.95
510.99	1376.24
511.19	1492.97
511.39	1486.83
511.59	1402.86
511.79	1503.21
511.99	1359.85
512.19	1347.56
512.38	1415.15
512.58	1337.32
512.78	1380.33
512.98	1396.71
513.18	1392.62
513.38	1363.95
513.58	1386.47
513.78	1376.24
513.98	1282.03
514.18	1335.28
514.38	1363.95
514.58	1368.04
514.78	1327.08
514.98	1359.85
515.18	1331.18
515.38	1388.52
515.58	1474.54
515.78	1392.62
515.98	1421.29
516.18	1366.00
516.38	1388.52
516.57	1306.60
516.77	1329.13
516.97	1306.60
517.17	1361.90
517.37	1349.61
517.57	1474.54
517.77	1316.84
517.97	1396.71
518.17	1456.11
518.37	1345.52
518.57	1341.42
518.77	1349.61
518.97	1355.76
519.16	1380.33
519.36	1435.63
519.56	1265.64
519.76	1411.05
519.96	1419.24
520.16	1441.77
520.36	1415.15
520.56	1490.92
520.76	1345.52
520.96	1388.52
521.16	1484.78
521.35	1406.95
521.55	1372.14
521.75	1318.89
521.95	1443.82
522.15	1447.91
522.35	1335.28
522.55	1386.47
522.75	1439.72
522.95	1388.52
523.14	1349.61
523.34	1341.42
523.54	1388.52
523.74	1445.87
523.94	1394.67
524.14	1359.85
524.34	1396.71
524.54	1357.80
524.73	1404.91
524.93	1370.09
525.13	1394.67
525.33	1288.17
525.53	1478.63
525.73	1300.46
525.93	1376.24
526.13	1312.75
526.32	1261.55
526.52	1392.62
526.72	1386.47
526.92	1333.23
527.12	1339.37
527.32	1290.22
527.52	1413.10
527.71	1427.43
527.91	1374.19
528.11	1314.80
528.31	1406.95
528.51	1308.65
528.71	1431.53
528.90	1345.52
529.10	1413.10
529.30	1404.91
529.50	1322.99
529.70	1433.58
529.90	1347.56
530.09	1384.43
530.29	1275.88
530.49	1368.04
530.69	1445.87
530.89	1462.25
531.09	1409.00
531.28	1302.51
531.48	1462.25
531.68	1351.66
531.88	1462.25
532.08	1372.14
532.28	1421.29
532.47	1406.95
532.67	1488.87
532.87	1347.56
533.07	1378.28
533.27	1443.82
533.46	1388.52
533.66	1351.66
533.86	1509.35
534.06	1423.34
534.26	1417.19
534.45	1363.95
534.65	1396.71
534.85	1441.77
535.05	1402.86
535.25	1439.72
535.44	1329.13
535.64	1378.28
535.84	1361.90
536.04	1243.12
536.24	1370.09
536.43	1425.39
536.63	1437.67
536.83	1347.56
537.03	1380.33
537.22	1284.08
537.42	1335.28
537.62	1366.00
537.82	1259.50
538.02	1376.24
538.21	1456.11
538.41	1509.35
538.61	1380.33
538.81	1411.05
539.00	1464.30
539.20	1368.04
539.40	1417.19
539.60	1392.62
539.79	1460.20
539.99	1380.33
540.19	1392.62
540.39	1366.00
540.58	1421.29
540.78	1484.78
540.98	1435.63
541.18	1433.58
541.37	1394.67
541.57	1411.05
541.77	1337.32
541.97	1351.66
542.16	1279.98
542.36	1339.37
542.56	1300.46
542.76	1427.43
542.95	1398.76
543.15	1411.05
543.35	1400.81
543.54	1359.85
543.74	1361.90
543.94	1429.48
544.14	1341.42
544.33	1425.39
544.53	1314.80
544.73	1382.38
544.93	1378.28
545.12	1384.43
545.32	1368.04
545.52	1327.08
545.71	1263.60
545.91	1402.86
546.11	1409.00
546.30	1376.24
546.50	1398.76
546.70	1411.05
546.90	1355.76
547.09	1294.32
547.29	1372.14
547.49	1423.34
547.68	1384.43
547.88	1296.36
548.08	1396.71
548.27	1654.76
548.47	1394.67
548.67	1384.43
548.87	1290.22
549.06	1320.94
549.26	1409.00
549.46	1415.15
549.65	1402.86
549.85	1402.86
550.05	1372.14
550.24	1363.95
550.44	1439.72
550.64	1390.57
550.83	1333.23
551.03	1327.08
551.23	1402.86
551.42	1413.10
551.62	1394.67
551.82	1374.19
552.01	1409.00
552.21	1386.47
552.41	1406.95
552.60	1484.78
552.80	1409.00
553.00	1355.76
553.19	1398.76
553.39	1359.85
553.59	1394.67
553.78	1363.95
553.98	1441.77
554.17	1267.69
554.37	1411.05
554.57	1462.25
554.76	1320.94
554.96	1337.32
555.16	1421.29
555.35	1402.86
555.55	1396.71
555.75	1288.17
555.94	1437.67
556.14	1378.28
556.33	1320.94
556.53	1351.66
556.73	1392.62
556.92	1400.81
557.12	1427.43
557.32	1441.77
557.51	1427.43
557.71	1452.01
557.90	1388.52
558.10	1435.63
558.30	1343.47
558.49	1320.94
558.69	1357.80
558.88	1398.76
559.08	1357.80
559.28	1327.08
559.47	1415.15
559.67	1427.43
559.86	1474.54
560.06	1435.63
560.26	1398.76
560.45	1392.62
560.65	1388.52
560.84	1359.85
561.04	1368.04
561.24	1402.86
561.43	1349.61
561.63	1468.39
561.82	1400.81
562.02	1378.28
562.22	1419.24
562.41	1351.66
562.61	1347.56
562.80	1366.00
563.00	1529.83
563.19	1359.85
563.39	1454.06
563.59	1357.80
563.78	1374.19
563.98	1394.67
564.17	1320.94
564.37	1335.28
564.56	1349.61
564.76	1366.00
564.96	1476.59
565.15	1349.61
565.35	1527.78
565.54	1370.09
565.74	1400.81
565.93	1380.33
566.13	1329.13
566.32	1447.91
566.52	1357.80
566.71	1402.86
566.91	1396.71
567.11	1329.13
567.30	1310.70
567.50	1406.95
567.69	1329.13
567.89	1376.24
568.08	1314.80
568.28	1413.10
568.47	1386.47
568.67	1378.28
568.86	1327.08
569.06	1341.42
569.25	1378.28
569.45	1419.24
569.64	1341.42
569.84	1431.53
570.04	1400.81
570.23	1314.80
570.43	1396.71
570.62	1351.66
570.82	1386.47
571.01	1271.79
571.21	1292.27
571.40	1386.47
571.60	1413.10
571.79	1343.47
571.99	1363.95
572.18	1316.84
572.38	1419.24
572.57	1396.71
572.77	1478.63
572.96	1458.15
573.16	1376.24
573.35	1372.14
573.55	1429.48
573.74	1361.90
573.94	1466.35
574.13	1402.86
574.33	1392.62
574.52	1404.91
574.71	1372.14
574.91	1511.40
575.10	1386.47
575.30	1421.29
575.49	1335.28
575.69	1363.95
575.88	1443.82
576.08	1423.34
576.27	1511.40
576.47	1433.58
576.66	1439.72
576.86	1482.73
577.05	1497.07
577.25	1523.69
577.44	1503.21
577.64	1419.24
577.83	1454.06
578.02	1503.21
578.22	1406.95
578.41	1462.25
578.61	1452.01
578.80	1390.57
579.00	1495.02
579.19	1374.19
579.39	1415.15
579.58	1488.87
579.77	1425.39
579.97	1517.54
580.16	1402.86
580.36	1404.91
580.55	1523.69
580.75	1441.77
580.94	1380.33
581.13	1472.49
581.33	1562.60
581.52	1392.62
581.72	1486.83
581.91	1550.31
582.11	1421.29
582.30	1511.40
582.49	1429.48
582.69	1443.82
582.88	1396.71
583.08	1417.19
583.27	1368.04
583.47	1460.20
583.66	1392.62
583.85	1308.65
584.05	1394.67
584.24	1443.82
584.44	1413.10
584.63	1513.45
584.82	1562.60
585.02	1570.79
585.21	1642.47
585.41	1585.13
585.60	1550.31
585.79	1654.76
585.99	1646.57
586.18	1675.24
586.37	1847.27
586.57	2650.07
586.76	7874.44
586.96	24086.16
587.15	41379.21
587.34	52085.99
587.54	59780.21
587.73	58776.70
587.93	44871.00
588.12	32695.82
588.31	26660.46
588.51	22597.29
588.70	19988.18
588.89	18376.42
589.09	16967.42
589.28	15838.99
589.47	14223.14
589.67	12392.26
589.86	10508.13
590.06	8630.14
590.25	6612.89
590.44	5009.33
590.64	3837.89
590.83	2785.24
591.02	2256.86
591.22	1998.82
591.41	1734.63
591.60	1566.70
591.80	1650.66
591.99	1439.72
592.18	1409.00
592.38	1515.50
592.57	1468.39
592.76	1394.67
592.96	1452.01
593.15	1402.86
593.34	1482.73
593.54	1359.85
593.73	1437.67
593.92	1511.40
594.12	1417.19
594.31	1458.15
594.50	1605.61
594.70	1527.78
594.89	1601.51
595.08	1437.67
595.28	1378.28
595.47	1488.87
595.66	1390.57
595.86	1363.95
596.05	1439.72
596.24	1409.00
596.43	1445.87
596.63	1441.77
596.82	1456.11
597.01	1478.63
597.21	1456.11
597.40	1374.19
597.59	1439.72
597.79	1409.00
597.98	1433.58
598.17	1417.19
598.36	1462.25
598.56	1363.95
598.75	1355.76
598.94	1421.29
599.14	1398.76
599.33	1411.05
599.52	1413.10
599.71	1454.06
599.91	1392.62
600.10	1472.49
600.29	1378.28
600.48	1421.29
600.68	1411.05
600.87	1388.52
601.06	1370.09
601.26	1398.76
601.45	1425.39
601.64	1368.04
601.83	1478.63
602.03	1329.13
602.22	1327.08
602.41	1474.54
602.60	1419.24
602.80	1431.53
602.99	1425.39
603.18	1345.52
603.37	1374.19
603.57	1433.58
603.76	1400.81
603.95	1421.29
604.14	1376.24
604.34	1427.43
604.53	1384.43
604.72	1449.96
604.91	1470.44
605.10	1449.96
605.30	1382.38
605.49	1466.35
605.68	1357.80
605.87	1394.67
606.07	1402.86
606.26	1388.52
606.45	1316.84
606.64	1351.66
606.84	1392.62
607.03	1435.63
607.22	1486.83
607.41	1427.43
607.60	1361.90
607.80	1439.72
607.99	1341.42
608.18	1417.19
608.37	1404.91
608.56	1427.43
608.76	1456.11
608.95	1472.49
609.14	1452.01
609.33	1454.06
609.52	1544.17
609.72	1544.17
609.91	1460.20
610.10	1329.13
610.29	1529.83
610.48	1355.76
610.68	1490.92
610.87	1329.13
611.06	1435.63
611.25	1357.80
611.44	1441.77
611.63	1363.95
611.83	1359.85
612.02	1355.76
612.21	1409.00
612.40	1261.55
612.59	1345.52
612.79	1343.47
612.98	1406.95
613.17	1400.81
613.36	1345.52
613.55	1433.58
613.74	1464.30
613.93	1558.50
614.13	1593.32
614.32	1611.75
614.51	1673.19
614.70	1578.98
614.89	1519.59
615.08	1558.50
615.28	1626.09
615.47	1429.48
615.66	1501.16
615.85	1486.83
616.04	1525.74
616.23	1535.98
616.42	1423.34
616.62	1505.26
616.81	1484.78
617.00	1392.62
617.19	1421.29
617.38	1327.08
617.57	1431.53
617.76	1425.39
617.95	1339.37
618.15	1476.59
618.34	1535.98
618.53	1374.19
618.72	1462.25
618.91	1413.10
619.10	1392.62
619.29	1370.09
619.48	1314.80
619.68	1322.99
619.87	1368.04
620.06	1329.13
620.25	1396.71
620.44	1308.65
620.63	1390.57
620.82	1392.62
621.01	1359.85
621.20	1349.61
621.39	1421.29
621.59	1447.91
621.78	1392.62
621.97	1425.39
622.16	1392.62
622.35	1417.19
622.54	1435.63
622.73	1454.06
622.92	1273.84
623.11	1421.29
623.30	1452.01
623.49	1404.91
623.68	1349.61
623.88	1413.10
624.07	1413.10
624.26	1355.76
624.45	1353.71
624.64	1409.00
624.83	1351.66
625.02	1419.24
625.21	1402.86
625.40	1361.90
625.59	1476.59
625.78	1359.85
625.97	1437.67
626.16	1466.35
626.35	1472.49
626.54	1421.29
626.74	1495.02
626.93	1445.87
627.12	1419.24
627.31	1384.43
627.50	1406.95
627.69	1435.63
627.88	1394.67
628.07	1368.04
628.26	1439.72
628.45	1376.24
628.64	1370.09
628.83	1374.19
629.02	1382.38
629.21	1488.87
629.40	1335.28
629.59	1359.85
629.78	1363.95
629.97	1425.39
630.16	1427.43
630.35	1343.47
630.54	1394.67
630.73	1447.91
630.92	1462.25
631.11	1318.89
631.30	1374.19
631.49	1431.53
631.68	1382.38
631.87	1398.76
632.06	1380.33
632.25	1429.48
632.44	1382.38
632.63	1421.29
632.82	1406.95
633.01	1515.50
633.20	1427.43
633.39	1472.49
633.58	1460.20
633.77	1509.35
633.96	1486.83
634.15	1474.54
634.34	1486.83
634.53	1495.02
634.72	1390.57
634.91	1394.67
635.10	1390.57
635.29	1452.01
635.48	1382.38
635.67	1429.48
635.86	1380.33
636.05	1415.15
636.24	1351.66
636.43	1472.49
636.62	1382.38
636.81	1214.45
637.00	1400.81
637.19	1368.04
637.38	1345.52
637.57	1353.71
637.76	1443.82
637.95	1447.91
638.14	1482.73
638.33	1486.83
638.52	1535.98
638.71	1425.39
638.89	1445.87
639.08	1495.02
639.27	1423.34
639.46	1470.44
639.65	1691.62
639.84	1886.18
640.03	1964.00
640.22	2070.50
640.41	2263.01
640.60	1902.56
640.79	1683.43
640.98	1662.95
641.17	1714.15
641.36	1572.84
641.55	1542.12
641.74	1462.25
641.92	1460.20
642.11	1404.91
642.30	1484.78
642.49	1429.48
642.68	1425.39
642.87	1363.95
643.06	1470.44
643.25	1384.43
643.44	1298.41
643.63	1425.39
643.82	1396.71
644.00	1359.85
644.19	1349.61
644.38	1357.80
644.57	1454.06
644.76	1400.81
644.95	1388.52
645.14	1296.36
645.33	1331.18
645.52	1445.87
645.71	1370.09
645.89	1396.71
646.08	1275.88
646.27	1441.77
646.46	1409.00
646.65	1320.94
646.84	1411.05
647.03	1308.65
647.22	1425.39
647.40	1368.04
647.59	1372.14
647.78	1257.45
647.97	1404.91
648.16	1359.85
648.35	1318.89
648.54	1382.38
648.73	1337.32
648.91	1388.52
649.10	1339.37
649.29	1286.12
649.48	1437.67
649.67	1394.67
649.86	1386.47
650.05	1417.19
650.23	1486.83
650.42	1538.02
650.61	1546.22
650.80	1576.94
650.99	1609.70
651.18	1466.35
651.36	1540.07
651.55	1417.19
651.74	1503.21
651.93	1392.62
652.12	1374.19
652.31	1415.15
652.49	1388.52
652.68	1388.52
652.87	1433.58
653.06	1486.83
653.25	1490.92
653.44	1409.00
653.62	1337.32
653.81	1400.81
654.00	1411.05
654.19	1392.62
654.38	1431.53
654.56	1456.11
654.75	1382.38
654.94	1423.34
655.13	1384.43
655.32	1355.76
655.51	1404.91
655.69	1359.85
655.88	1404.91
656.07	1261.55
656.26	1392.62
656.45	1335.28
656.63	1341.42
656.82	1439.72
657.01	1368.04
657.20	1357.80
657.38	1404.91
657.57	1277.93
657.76	1322.99
657.95	1398.76
658.14	1296.36
658.32	1366.00
658.51	1337.32
658.70	1363.95
658.89	1349.61
659.08	1368.04
659.26	1331.18
659.45	1308.65
659.64	1411.05
659.83	1437.67
660.01	1578.98
660.20	1419.24
660.39	1523.69
660.58	1359.85
660.76	1396.71
660.95	1355.76
661.14	1343.47
661.33	1409.00
661.51	1345.52
661.70	1400.81
661.89	1474.54
662.08	1366.00
662.26	1341.42
662.45	1347.56
662.64	1478.63
662.83	1355.76
663.01	1363.95
663.20	1361.90
663.39	1361.90
663.58	1402.86
663.76	1353.71
663.95	1351.66
664.14	1288.17
664.32	1308.65
664.51	1382.38
664.70	1288.17
664.89	1413.10
665.07	1374.19
665.26	1421.29
665.45	1308.65
665.64	1427.43
665.82	1411.05
666.01	1415.15
666.20	1431.53
666.38	1445.87
666.57	1454.06
666.76	1597.42
666.95	2052.06
667.13	4476.86
667.32	11743.05
667.51	17950.45
667.69	21679.80
667.88	24751.75
668.07	24505.99
668.25	19001.05
668.44	13688.62
668.63	11153.24
668.81	8988.53
669.00	8023.94
669.19	7378.83
669.38	6700.95
669.56	6217.63
669.75	5750.70
669.94	4820.92
670.12	4261.82
670.31	3499.98
670.50	2893.78
670.68	2471.90
670.87	2125.79
671.06	1880.04
671.24	1742.82
671.43	1630.18
671.62	1480.68
671.80	1552.36
671.99	1535.98
672.18	1507.30
672.36	1454.06
672.55	1404.91
672.74	1462.25
672.92	1417.19
673.11	1449.96
673.29	1347.56
673.48	1495.02
673.67	1396.71
673.85	1486.83
674.04	1370.09
674.23	1433.58
674.41	1419.24
674.60	1368.04
674.79	1312.75
674.97	1327.08
675.16	1421.29
675.34	1464.30
675.53	1355.76
675.72	1411.05
675.90	1445.87
676.09	1292.27
676.28	1378.28
676.46	1304.56
676.65	1355.76
676.83	1370.09
677.02	1320.94
677.21	1441.77
677.39	1359.85
677.58	1294.32
677.77	1392.62
677.95	1329.13
678.14	1363.95
678.32	1419.24
678.51	1329.13
678.70	1460.20
678.88	1378.28
679.07	1347.56
679.25	1439.72
679.44	1290.22
679.63	1310.70
679.81	1429.48
680.00	1431.53
680.18	1392.62
680.37	1429.48
680.55	1384.43
680.74	1402.86
680.93	1279.98
681.11	1384.43
681.30	1396.71
681.48	1388.52
681.67	1390.57
681.85	1310.70
682.04	1294.32
682.23	1441.77
682.41	1341.42
682.60	1361.90
682.78	1392.62
682.97	1402.86
683.15	1341.42
683.34	1392.62
683.53	1400.81
683.71	1294.32
683.90	1474.54
684.08	1327.08
684.27	1425.39
684.45	1275.88
684.64	1392.62
684.82	1363.95
685.01	1388.52
685.19	1411.05
685.38	1413.10
685.57	1415.15
685.75	1396.71
685.94	1368.04
686.12	1353.71
686.31	1302.51
686.49	1462.25
686.68	1345.52
686.86	1396.71
687.05	1372.14
687.23	1390.57
687.42	1325.04
687.60	1372.14
687.79	1427.43
687.97	1427.43
688.16	1495.02
688.34	1376.24
688.53	1298.41
688.71	1392.62
688.90	1351.66
689.08	1279.98
689.27	1284.08
689.45	1345.52
689.64	1417.19
689.82	1394.67
690.01	1374.19
690.19	1374.19
690.38	1394.67
690.56	1445.87
690.75	1382.38
690.93	1400.81
691.12	1345.52
691.30	1372.14
691.49	1370.09
691.67	1386.47
691.86	1447.91
692.04	1359.85
692.23	1372.14
692.41	1431.53
692.60	1558.50
692.78	1431.53
692.97	1505.26
693.15	1505.26
693.34	1482.73
693.52	1437.67
693.71	1406.95
693.89	1390.57
694.08	1357.80
694.26	1386.47
694.44	1404.91
694.63	1454.06
694.81	1349.61
695.00	1433.58
695.18	1404.91
695.37	1462.25
695.55	1392.62
695.74	1368.04
695.92	1347.56
696.10	1421.29
696.29	1314.80
696.47	1363.95
696.66	1300.46
696.84	1382.38
697.03	1402.86
697.21	1495.02
697.40	1812.45
697.58	1435.63
697.76	1341.42
697.95	1320.94
698.13	1335.28
698.32	1415.15
698.50	1415.15
698.68	1376.24
698.87	1366.00
699.05	1419.24
699.24	1345.52
699.42	1413.10
699.61	1335.28
699.79	1376.24
699.97	1413.10
700.16	1392.62
700.34	1298.41
700.53	1406.95
700.71	1402.86
700.89	1421.29
701.08	1433.58
701.26	1320.94
701.45	1591.27
701.63	1302.51
701.81	1353.71
702.00	1394.67
702.18	1413.10
702.37	1335.28
702.55	1415.15
702.73	1386.47
702.92	1548.26
703.10	1640.42
703.28	1734.63
703.47	1599.46
703.65	1642.47
703.84	1605.61
704.02	1499.11
704.20	1548.26
704.39	1443.82
704.57	1443.82
704.75	1542.12
704.94	1443.82
705.12	1423.34
705.30	1521.64
705.49	1552.36
705.67	1781.73
705.86	3446.73
706.04	9047.93
706.22	15863.57
706.41	19742.42
706.59	22386.35
706.77	23756.44
706.96	19945.17
707.14	13918.00
707.32	11171.67
707.51	9334.64
707.69	8128.39
707.87	7403.41
708.06	6819.74
708.24	6219.68
708.42	5083.06
708.61	3928.00
708.79	2987.99
708.97	2428.89
709.16	1996.77
709.34	1712.10
709.52	1601.51
709.71	1486.83
709.89	1519.59
710.07	1441.77
710.26	1449.96
710.44	1419.24
710.62	1429.48
710.80	1427.43
710.99	1396.71
711.17	1437.67
711.35	1474.54
711.54	1357.80
711.72	1411.05
711.90	1476.59
712.09	1417.19
712.27	1335.28
712.45	1472.49
712.63	1279.98
712.82	1374.19
713.00	1345.52
713.18	1353.71
713.37	1368.04
713.55	1353.71
713.73	1429.48
713.91	1386.47
714.10	1372.14
714.28	1394.67
714.46	1431.53
714.65	1452.01
714.83	1437.67
715.01	1431.53
715.19	1443.82
715.38	1325.04
715.56	1441.77
715.74	1357.80
715.92	1337.32
716.11	1376.24
716.29	1382.38
716.47	1406.95
716.65	1357.80
716.84	1376.24
717.02	1368.04
717.20	1386.47
717.38	1314.80
717.57	1421.29
717.75	1361.90
717.93	1331.18
718.11	1390.57
718.30	1331.18
718.48	1404.91
718.66	1374.19
718.84	1386.47
719.03	1366.00
719.21	1380.33
719.39	1353.71
719.57	1339.37
719.75	1454.06
719.94	1322.99
720.12	1355.76
720.30	1404.91
720.48	1400.81
720.67	1345.52
720.85	1349.61
721.03	1368.04
721.21	1378.28
721.39	1454.06
721.58	1318.89
721.76	1380.33
721.94	1441.77
722.12	1431.53
722.30	1441.77
722.49	1366.00
722.67	1398.76
722.85	1390.57
723.03	1343.47
723.21	1312.75
723.40	1396.71
723.58	1415.15
723.76	1366.00
723.94	1468.39
724.12	1402.86
724.30	1535.98
724.49	1441.77
724.67	1396.71
724.85	1531.88
725.03	1468.39
725.21	1509.35
725.40	1533.93
725.58	1345.52
725.76	1452.01
725.94	1368.04
726.12	1372.14
726.30	1339.37
726.49	1402.86
726.67	1335.28
726.85	1417.19
727.03	1454.06
727.21	1460.20
727.39	1511.40
727.57	2158.56
727.76	3373.00
727.94	4417.47
728.12	4878.26
728.30	5179.31
728.48	5207.98
728.66	4224.96
728.84	3518.41
729.03	3153.87
729.21	2797.53
729.39	2641.88
729.57	2314.20
729.75	1961.95
729.93	1826.79
730.11	1685.48
730.30	1511.40
730.48	1474.54
730.66	1490.92
730.84	1425.39
731.02	1411.05
731.20	1376.24
731.38	1421.29
731.56	1306.60
731.74	1378.28
731.93	1402.86
732.11	1349.61
732.29	1361.90
732.47	1388.52
732.65	1400.81
732.83	1480.68
733.01	1406.95
733.19	1279.98
733.37	1314.80
733.56	1359.85
733.74	1286.12
733.92	1390.57
734.10	1329.13
734.28	1333.23
734.46	1322.99
734.64	1314.80
734.82	1388.52
735.00	1304.56
735.18	1316.84
735.36	1378.28
735.54	1351.66
735.73	1378.28
735.91	1390.57
736.09	1390.57
736.27	1320.94
736.45	1439.72
736.63	1269.74
736.81	1449.96
736.99	1413.10
737.17	1513.45
737.35	1423.34
737.53	1402.86
737.71	1370.09
737.89	1441.77
738.07	1294.32
738.25	1318.89
738.43	1339.37
738.61	1341.42
738.80	1361.90
738.98	1341.42
739.16	1386.47
739.34	1382.38
739.52	1359.85
739.70	1306.60
739.88	1427.43
740.06	1388.52
740.24	1294.32
740.42	1372.14
740.60	1349.61
740.78	1308.65
740.96	1275.88
741.14	1384.43
741.32	1353.71
741.50	1327.08
741.68	1357.80
741.86	1380.33
742.04	1329.13
742.22	1343.47
742.40	1355.76
742.58	1349.61
742.76	1357.80
742.94	1376.24
743.12	1318.89
743.30	1382.38
743.48	1404.91
743.66	1400.81
743.84	1445.87
744.02	1449.96
744.20	1404.91
744.38	1413.10
744.56	1392.62
744.74	1427.43
744.92	1314.80
745.10	1472.49
745.28	1380.33
745.46	1366.00
745.64	1376.24
745.82	1454.06
746.00	1404.91
746.18	1376.24
746.36	1351.66
746.54	1400.81
746.72	1339.37
746.90	1445.87
747.08	1355.76
747.26	1359.85
747.44	1322.99
747.62	1339.37
747.80	1445.87
747.98	1443.82
748.15	1406.95
748.33	1437.67
748.51	1298.41
748.69	1492.97
748.87	1384.43
749.05	1423.34
749.23	1363.95
749.41	1415.15
749.59	1355.76
749.77	1386.47
749.95	1417.19
750.13	1363.95
750.31	1392.62
750.49	1370.09
750.67	1421.29
750.85	1425.39
751.03	1402.86
751.20	1458.15
751.38	1384.43
751.56	1366.00
751.74	1380.33
751.92	1320.94
752.10	1286.12
752.28	1423.34
752.46	1378.28
752.64	1286.12
752.82	1361.90
753.00	1413.10
753.18	1406.95
753.35	1347.56
753.53	1394.67
753.71	1368.04
753.89	1398.76
754.07	1361.90
754.25	1335.28
754.43	1372.14
754.61	1322.99
754.79	1474.54
754.97	1413.10
755.14	1390.57
755.32	1431.53
755.50	1386.47
755.68	1452.01
755.86	1337.32
756.04	1409.00
756.22	1302.51
756.40	1431.53
756.57	1509.35
756.75	1322.99
756.93	1355.76
757.11	1396.71
757.29	1359.85
757.47	1345.52
757.65	1390.57
757.82	1357.80
758.00	1409.00
758.18	1322.99
758.36	1357.80
758.54	1400.81
758.72	1306.60
758.90	1415.15
759.07	1296.36
759.25	1325.04
759.43	1368.04
759.61	1415.15
759.79	1695.72
759.97	1306.60
760.15	1378.28
760.32	1302.51
760.50	1388.52
760.68	1437.67
760.86	1267.69
761.04	1419.24
761.22	1355.76
761.39	1392.62
761.57	1398.76
761.75	1339.37
761.93	1298.41
762.11	1366.00
762.28	1433.58
762.46	1247.21
762.64	1460.20
762.82	1353.71
763.00	1372.14
763.18	1427.43
763.35	1294.32
763.53	1386.47
763.71	1335.28
763.89	1374.19
764.07	1386.47
764.24	1335.28
764.42	1318.89
764.60	1353.71
764.78	1419.24
764.96	1402.86
765.13	1382.38
765.31	1415.15
765.49	1366.00
765.67	1304.56
765.84	1386.47
766.02	1415.15
766.20	1347.56
766.38	1353.71
766.56	1390.57
766.73	1445.87
766.91	1374.19
767.09	1339.37
767.27	1421.29
767.44	1398.76
767.62	1306.60
767.80	1349.61
767.98	1359.85
768.15	1394.67
768.33	1370.09
768.51	1404.91
768.69	1396.71
768.87	1325.04
769.04	1421.29
769.22	1435.63
769.40	1404.91
769.58	1443.82
769.75	1343.47
769.93	1470.44
770.11	1286.12
770.28	1394.67
770.46	1413.10
770.64	1394.67
770.82	1353.71
770.99	1355.76
771.17	1409.00
771.35	1357.80
771.53	1421.29
771.70	1402.86
771.88	1374.19
772.06	1419.24
772.23	1435.63
772.41	1437.67
772.59	1386.47
772.77	1298.41
772.94	1327.08
773.12	1398.76
773.30	1339.37
773.47	1333.23
773.65	1376.24
773.83	1411.05
774.01	1353.71
774.18	1351.66
774.36	1349.61
774.54	1363.95
774.71	1400.81
774.89	1345.52
775.07	1296.36
775.24	1374.19
775.42	1296.36
775.60	1423.34
775.78	1413.10
775.95	1370.09
776.13	1329.13
776.31	1351.66
776.48	1302.51
776.66	1437.67
776.84	1232.88
777.01	1249.26
777.19	1286.12
777.37	1279.98
777.54	1351.66
777.72	1366.00
777.90	1456.11
778.07	1329.13
778.25	1507.30
778.43	1378.28
778.60	1322.99
778.78	1409.00
778.96	1404.91
779.13	1339.37
779.31	1400.81
779.49	1376.24
779.66	1331.18
779.84	1402.86
780.01	1366.00
780.19	1329.13
780.37	1331.18
780.54	1339.37
780.72	1429.48
780.90	1390.57
781.07	1343.47
781.25	1345.52
781.43	1441.77
781.60	1404.91
781.78	1398.76
781.95	1339.37
782.13	1314.80
782.31	1372.14
782.48	1282.03
782.66	1355.76
782.83	1404.91
783.01	1396.71
783.19	1384.43
783.36	1361.90
783.54	1355.76
783.72	1394.67
783.89	1378.28
784.07	1306.60
784.24	1312.75
784.42	1449.96
784.60	1388.52
784.77	1380.33
784.95	1271.79
785.12	1363.95
785.30	1400.81
785.47	1382.38
785.65	1329.13
785.83	1355.76
786.00	1349.61
786.18	1363.95
786.35	1374.19
786.53	1310.70
786.71	1406.95
786.88	1353.71
787.06	1351.66
787.23	1329.13
787.41	1261.55
787.58	1378.28
787.76	1269.74
787.94	1333.23
788.11	1355.76
788.29	1329.13
788.46	1400.81
788.64	1374.19
788.81	1427.43
788.99	1304.56
789.16	1351.66
789.34	1345.52
789.52	1341.42
789.69	1386.47
789.87	1310.70
790.04	1320.94
790.22	1316.84
790.39	1398.76
790.57	1347.56
790.74	1353.71
790.92	1378.28
791.09	1361.90
791.27	1388.52
791.44	1458.15
791.62	1335.28
791.79	1386.47
791.97	1398.76
792.15	1458.15
792.32	1421.29
792.50	1431.53
792.67	1396.71
792.85	1339.37
793.02	1394.67
793.20	1370.09
793.37	1353.71
793.55	1304.56
793.72	1310.70
793.90	1347.56
794.07	1243.12
794.25	1302.51
794.42	1396.71
794.60	1349.61
794.77	1341.42
794.95	1368.04
795.12	1388.52
795.30	1361.90
795.47	1282.03
795.65	1411.05
795.82	1380.33
796.00	1322.99
796.17	1394.67
796.34	1370.09
796.52	1359.85
796.69	1409.00
796.87	1409.00
797.04	1345.52
797.22	1351.66
797.39	1353.71
797.57	1413.10
797.74	1390.57
797.92	1355.76
798.09	1345.52
798.27	1400.81
798.44	1394.67
798.62	1382.38
798.79	1333.23
798.96	1349.61
799.14	1376.24
799.31	1486.83
799.49	1351.66
799.66	1345.52
799.84	1359.85
800.01	1335.28
800.19	1421.29
800.36	1263.60
800.53	1361.90
800.71	1329.13
800.88	1472.49
801.06	1320.94
801.23	1396.71
801.41	1329.13
801.58	1304.56
801.75	1359.85
801.93	1329.13
802.10	1378.28
802.28	1343.47
802.45	1318.89
802.63	1382.38
802.80	1433.58
802.97	1370.09
803.15	1361.90
803.32	1333.23
803.50	1312.75
803.67	1327.08
803.84	1404.91
804.02	1443.82
804.19	1355.76
804.37	1277.93
804.54	1341.42
804.71	1345.52
804.89	1396.71
805.06	1314.80
805.24	1273.84
805.41	1363.95
805.58	1318.89
805.76	1417.19
805.93	1460.20
806.10	1392.62
806.28	1470.44
806.45	1343.47
806.63	1376.24
806.80	1374.19
806.97	1349.61
807.15	1349.61
807.32	1441.77
807.49	1320.94
807.67	1265.64
807.84	1382.38
808.01	1376.24
808.19	1472.49
808.36	1507.30
808.54	1378.28
808.71	1374.19
808.88	1380.33
809.06	1402.86
809.23	1462.25
809.40	1357.80
809.58	1374.19
809.75	1390.57
809.92	1300.46
810.10	1503.21
810.27	1413.10
810.44	1382.38
810.62	1318.89
810.79	1386.47
810.96	1347.56
811.14	1378.28
811.31	1445.87
811.48	1415.15
811.66	1312.75
811.83	1335.28
812.00	1329.13
812.18	1359.85
812.35	1386.47
812.52	1359.85
812.69	1302.51
812.87	1343.47
813.04	1370.09
813.21	1372.14
813.39	1411.05
813.56	1380.33
813.73	1384.43
813.91	1310.70
814.08	1413.10
814.25	1290.22
814.42	1331.18
814.60	1335.28
814.77	1386.47
814.94	1361.90
815.12	1388.52
815.29	1415.15
815.46	1370.09
815.63	1409.00
815.81	1390.57
815.98	1386.47
816.15	1370.09
816.33	1300.46
816.50	1337.32
816.67	1339.37
816.84	1388.52
817.02	1335.28
817.19	1374.19
817.36	1382.38
817.53	1372.14
817.71	1380.33
817.88	1433.58
818.05	1331.18
818.22	1329.13
818.40	1447.91
818.57	1355.76
818.74	1392.62
818.91	1378.28
819.09	1351.66
819.26	1456.11
819.43	1327.08
819.60	1343.47
819.78	1335.28
819.95	1378.28
820.12	1288.17
820.29	1429.48
820.47	1411.05
820.64	1339.37
820.81	1298.41
820.98	1349.61
821.15	1378.28
821.33	1357.80
821.50	1363.95
821.67	1409.00
821.84	1298.41
822.02	1431.53
822.19	1361.90
822.36	1361.90
822.53	1349.61
822.70	1357.80
822.88	1318.89
823.05	1439.72
823.22	1380.33
823.39	1392.62
823.56	1359.85
823.74	1460.20
823.91	1349.61
824.08	1271.79
824.25	1390.57
824.42	1355.76
824.60	1302.51
824.77	1339.37
824.94	1378.28
825.11	1327.08
825.28	1310.70
825.45	1404.91
825.63	1351.66
825.80	1329.13
825.97	1318.89
826.14	1380.33
826.31	1284.08
826.48	1388.52
826.66	1304.56
826.83	1349.61
827.00	1394.67
827.17	1322.99
827.34	1366.00
827.51	1353.71
827.69	1337.32
827.86	1368.04
828.03	1347.56
828.20	1337.32
828.37	1400.81
828.54	1372.14
828.71	1363.95
828.89	1406.95
829.06	1433.58
829.23	1486.83
829.40	1298.41
829.57	1337.32
829.74	1366.00
829.91	1411.05
830.09	1366.00
830.26	1404.91
830.43	1374.19
830.60	1341.42
830.77	1406.95
830.94	1359.85
831.11	1447.91
831.28	1331.18
831.46	1417.19
831.63	1380.33
831.80	1318.89
831.97	1363.95
832.14	1406.95
832.31	1363.95
832.48	1370.09
832.65	1400.81
832.82	1474.54
832.99	1329.13
833.17	1331.18
833.34	1349.61
833.51	1406.95
833.68	1316.84
833.85	1423.34
834.02	1347.56
834.19	1312.75
834.36	1322.99
834.53	1306.60
834.70	1421.29
834.87	1374.19
835.04	1366.00
835.22	1279.98
835.39	1370.09
835.56	1249.26
835.73	1351.66
835.90	1339.37
836.07	1339.37
836.24	1396.71
836.41	1415.15
836.58	1308.65
836.75	1427.43
836.92	1331.18
837.09	1333.23
837.26	1468.39
837.43	1388.52
837.60	1449.96
837.77	1329.13
837.94	1355.76
838.12	1427.43
838.29	1495.02
838.46	1351.66
838.63	1318.89
838.80	1409.00
838.97	1335.28
839.14	1339.37
839.31	1341.42
839.48	1394.67
839.65	1411.05
839.82	1329.13
839.99	1351.66
840.16	1388.52
840.33	1284.08
840.50	1396.71
840.67	1273.84
840.84	1320.94
841.01	1363.95
841.18	1421.29
841.35	1339.37
841.52	1400.81
841.69	1370.09
841.86	1411.05
842.03	1366.00
842.20	1398.76
842.37	1316.84
842.54	1402.86
842.71	1400.81
842.88	1329.13
843.05	1458.15
843.22	1366.00
843.39	1421.29
843.56	1300.46
843.73	1470.44
843.90	1355.76
844.07	1312.75
844.24	1394.67
844.41	1429.48
844.58	1312.75
844.75	1320.94
844.92	1413.10
845.09	1257.45
845.26	1314.80
845.43	1349.61
845.60	1341.42
845.77	1388.52
845.94	1345.52
846.10	1294.32
846.27	1339.37
846.44	1316.84
846.61	1341.42
846.78	1409.00
846.95	1402.86
847.12	1376.24
847.29	1392.62
847.46	1335.28
847.63	1361.90
847.80	1400.81
847.97	1325.04
848.14	1443.82
848.31	1376.24
848.48	1347.56
848.65	1349.61
848.82	1449.96
848.98	1396.71
849.15	1400.81
849.32	1429.48
849.49	1406.95
849.66	1357.80
849.83	1470.44
850.00	1353.71
850.17	1366.00
850.34	1394.67
850.51	1378.28
850.68	1259.50
850.85	1458.15
851.01	1294.32
851.18	1343.47
851.35	1368.04
851.52	1402.86
851.69	1423.34
851.86	1327.08
852.03	1345.52
852.20	1452.01
852.37	1363.95
852.53	1351.66
852.70	1318.89
852.87	1325.04
853.04	1400.81
853.21	1286.12
853.38	1390.57
853.55	1429.48
853.72	1398.76
853.89	1310.70
854.05	1322.99
854.22	1243.12
854.39	1312.75
854.56	1396.71
854.73	1435.63
854.90	1415.15
855.07	1351.66
855.23	1331.18
855.40	1320.94
855.57	1355.76
855.74	1310.70
855.91	1558.50
856.08	1341.42
856.25	1345.52
856.41	1316.84
856.58	1288.17
856.75	1443.82
856.92	1392.62
857.09	1390.57
857.26	1269.74
857.42	1394.67
857.59	1443.82
857.76	1325.04
857.93	1355.76
858.10	1452.01
858.27	1349.61
858.43	1415.15
858.60	1361.90
858.77	1322.99
858.94	1388.52
859.11	1445.87
859.27	1339.37
859.44	1335.28
859.61	1476.59
859.78	1361.90
859.95	1343.47
860.12	1384.43
860.28	1419.24
860.45	1396.71
860.62	1376.24
860.79	1394.67
860.95	1327.08
861.12	1363.95
861.29	1333.23
861.46	1308.65
861.63	1298.41
861.79	1322.99
861.96	1312.75
862.13	1411.05
862.30	1445.87
862.47	1239.02
862.63	1339.37
862.80	1421.29
862.97	1423.34
863.14	1351.66
863.30	1335.28
863.47	1308.65
863.64	1366.00
863.81	1415.15
863.97	1396.71
864.14	1400.81
864.31	1318.89
864.48	1392.62
864.65	1341.42
864.81	1445.87
864.98	1363.95
865.15	1392.62
865.32	1320.94
865.48	1396.71
865.65	1411.05
865.82	1380.33
865.98	1437.67
866.15	1400.81
866.32	1322.99
866.49	1306.60
866.65	1400.81
866.82	1337.32
866.99	1353.71
867.16	1359.85
867.32	1361.90
867.49	1421.29
867.66	1363.95
867.83	1359.85
867.99	1349.61
868.16	1335.28
868.33	1325.04
868.49	1349.61
868.66	1282.03
868.83	1322.99
868.99	1417.19
869.16	1402.86
869.33	1441.77
869.50	1427.43
869.66	1419.24
869.83	1351.66
870.00	1316.84
870.16	1431.53
870.33	1353.71
870.50	1359.85
870.66	1357.80
870.83	1452.01
871.00	1413.10
871.17	1382.38
871.33	1327.08
871.50	1329.13
871.67	1349.61
871.83	1318.89
872.00	1421.29
872.17	1425.39
872.33	1462.25
872.50	1445.87
872.67	1322.99
872.83	1409.00
873.00	1378.28
873.17	1390.57
873.33	1400.81
873.50	1423.34
873.67	1376.24
873.83	1306.60
874.00	1429.48
874.16	1378.28
874.33	1384.43
874.50	1370.09
874.66	1406.95
874.83	1372.14
875.00	1368.04
875.16	1478.63
875.33	1355.76
875.50	1245.16
875.66	1402.86
875.83	1370.09
875.99	1359.85
876.16	1333.23
876.33	1269.74
876.49	1251.31
876.66	1312.75
876.83	1411.05
876.99	1273.84
877.16	1304.56
877.32	1447.91
877.49	1386.47
877.66	1378.28
877.82	1368.04
877.99	1357.80
878.15	1400.81
878.32	1372.14
878.49	1316.84
878.65	1396.71
878.82	1419.24
878.98	1361.90
879.15	1380.33
879.32	1347.56
879.48	1376.24
879.65	1378.28
879.81	1337.32
879.98	1325.04
880.15	1310.70
880.31	1384.43
880.48	1320.94
880.64	1404.91
880.81	1437.67
880.97	1427.43
881.14	1415.15
881.31	1341.42
881.47	1503.21
881.64	1366.00
881.80	1341.42
881.97	1425.39
882.13	1386.47
882.30	1372.14
882.47	1331.18
882.63	1282.03
882.80	1370.09
882.96	1384.43
883.13	1404.91
883.29	1392.62
883.46	1429.48
883.62	1413.10
883.79	1380.33
883.95	1355.76
884.12	1380.33
884.29	1376.24
884.45	1376.24
884.62	1298.41
884.78	1318.89
884.95	1435.63
885.11	1327.08
885.28	1368.04
885.44	1337.32
885.61	1337.32
885.77	1433.58
885.94	1417.19
886.10	1357.80
886.27	1443.82
886.43	1474.54
886.60	1363.95
886.76	1374.19
886.93	1329.13
887.09	1386.47
887.26	1259.50
887.42	1402.86
887.59	1472.49
887.75	1382.38
887.92	1419.24
888.08	1411.05
888.25	1382.38
888.41	1353.71
888.58	1421.29
888.74	1282.03
888.91	1374.19
>>>>>End Processed Spectral Data<<<<<
