SpectraSuite Data File
++++++++++++++++++++++++++++++++++++
Date: Tue May 03 11:24:38 CEST 2016
User: root
Dark Spectrum Present: No
Reference Spectrum Present: No
Number of Sampled Component Spectra: 1
Spectrometers: USB4C02835
Integration Time (usec): 100000 (USB4C02835)
Spectra Averaged: 1 (USB4C02835)
Boxcar Smoothing: 0 (USB4C02835)
Correct for Electrical Dark: No (USB4C02835)
Strobe/Lamp Enabled: No (USB4C02835)
Correct for Detector Non-linearity: No (USB4C02835)
Correct for Stray Light: No (USB4C02835)
Number of Pixels in Processed Spectrum: 3648
>>>>>Begin Processed Spectral Data<<<<<
177.47	1150.96
177.69	1150.96
177.91	1150.96
178.13	1249.26
178.36	1249.26
178.58	1357.80
178.80	1419.24
179.02	1302.51
179.24	1294.32
179.46	1355.76
179.68	1372.14
179.90	1333.23
180.13	1462.25
180.35	1404.91
180.57	1386.47
180.79	1392.62
181.01	1329.13
181.23	1339.37
181.45	1421.29
181.67	1402.86
181.90	1411.05
182.12	1300.46
182.34	1366.00
182.56	1402.86
182.78	1361.90
183.00	1355.76
183.22	1404.91
183.44	1355.76
183.66	1474.54
183.89	1390.57
184.11	1368.04
184.33	1359.85
184.55	1363.95
184.77	1404.91
184.99	1398.76
185.21	1318.89
185.43	1421.29
185.65	1306.60
185.87	1419.24
186.10	1505.26
186.32	1474.54
186.54	1376.24
186.76	1390.57
186.98	1366.00
187.20	1318.89
187.42	1433.58
187.64	1347.56
187.86	1372.14
188.08	1419.24
188.30	1390.57
188.52	1353.71
188.75	1394.67
188.97	1404.91
189.19	1333.23
189.41	1339.37
189.63	1380.33
189.85	1339.37
190.07	1341.42
190.29	1363.95
190.51	1452.01
190.73	1329.13
190.95	1445.87
191.17	1392.62
191.39	1372.14
191.61	1337.32
191.84	1327.08
192.06	1359.85
192.28	1366.00
192.50	1435.63
192.72	1353.71
192.94	1308.65
193.16	1400.81
193.38	1345.52
193.60	1419.24
193.82	1327.08
194.04	1372.14
194.26	1372.14
194.48	1386.47
194.70	1306.60
194.92	1306.60
195.14	1411.05
195.36	1355.76
195.58	1292.27
195.80	1306.60
196.02	1404.91
196.24	1447.91
196.46	1415.15
196.69	1331.18
196.91	1486.83
197.13	1429.48
197.35	1308.65
197.57	1411.05
197.79	1380.33
198.01	1449.96
198.23	1351.66
198.45	1388.52
198.67	1343.47
198.89	1439.72
199.11	1419.24
199.33	1343.47
199.55	1378.28
199.77	1304.56
199.99	1378.28
200.21	1378.28
200.43	1384.43
200.65	1341.42
200.87	1345.52
201.09	1329.13
201.31	1341.42
201.53	1437.67
201.75	1318.89
201.97	1339.37
202.19	1372.14
202.41	1388.52
202.63	1521.64
202.85	1433.58
203.07	1296.36
203.29	1388.52
203.51	1273.84
203.73	1351.66
203.95	1392.62
204.17	1312.75
204.39	1378.28
204.61	1437.67
204.83	1404.91
205.05	1452.01
205.27	1419.24
205.49	1419.24
205.71	1384.43
205.93	1273.84
206.15	1433.58
206.37	1343.47
206.59	1374.19
206.81	1335.28
207.03	1419.24
207.25	1277.93
207.47	1386.47
207.69	1314.80
207.91	1427.43
208.13	1359.85
208.34	1423.34
208.56	1363.95
208.78	1316.84
209.00	1359.85
209.22	1347.56
209.44	1372.14
209.66	1372.14
209.88	1368.04
210.10	1310.70
210.32	1345.52
210.54	1443.82
210.76	1421.29
210.98	1439.72
211.20	1296.36
211.42	1429.48
211.64	1329.13
211.86	1413.10
212.08	1409.00
212.30	1460.20
212.52	1394.67
212.74	1366.00
212.96	1386.47
213.17	1454.06
213.39	1382.38
213.61	1370.09
213.83	1415.15
214.05	1320.94
214.27	1380.33
214.49	1337.32
214.71	1415.15
214.93	1318.89
215.15	1357.80
215.37	1404.91
215.59	1322.99
215.81	1404.91
216.03	1384.43
216.24	1380.33
216.46	1388.52
216.68	1327.08
216.90	1466.35
217.12	1404.91
217.34	1380.33
217.56	1331.18
217.78	1402.86
218.00	1425.39
218.22	1392.62
218.44	1337.32
218.66	1341.42
218.87	1449.96
219.09	1366.00
219.31	1445.87
219.53	1384.43
219.75	1339.37
219.97	1392.62
220.19	1433.58
220.41	1413.10
220.63	1421.29
220.85	1390.57
221.06	1357.80
221.28	1429.48
221.50	1335.28
221.72	1292.27
221.94	1368.04
222.16	1443.82
222.38	1423.34
222.60	1384.43
222.82	1384.43
223.03	1458.15
223.25	1351.66
223.47	1374.19
223.69	1437.67
223.91	1372.14
224.13	1404.91
224.35	1316.84
224.57	1406.95
224.78	1394.67
225.00	1337.32
225.22	1433.58
225.44	1314.80
225.66	1361.90
225.88	1337.32
226.10	1413.10
226.32	1282.03
226.53	1470.44
226.75	1335.28
226.97	1308.65
227.19	1388.52
227.41	1357.80
227.63	1322.99
227.85	1355.76
228.06	1345.52
228.28	1357.80
228.50	1380.33
228.72	1382.38
228.94	1273.84
229.16	1327.08
229.37	1382.38
229.59	1388.52
229.81	1456.11
230.03	1337.32
230.25	1372.14
230.47	1314.80
230.69	1331.18
230.90	1269.74
231.12	1261.55
231.34	1316.84
231.56	1409.00
231.78	1421.29
232.00	1286.12
232.21	1300.46
232.43	1304.56
232.65	1273.84
232.87	1421.29
233.09	1341.42
233.30	1314.80
233.52	1394.67
233.74	1337.32
233.96	1339.37
234.18	1376.24
234.40	1386.47
234.61	1406.95
234.83	1257.45
235.05	1327.08
235.27	1456.11
235.49	1419.24
235.70	1339.37
235.92	1413.10
236.14	1320.94
236.36	1411.05
236.58	1327.08
236.79	1415.15
237.01	1359.85
237.23	1368.04
237.45	1327.08
237.67	1363.95
237.88	1400.81
238.10	1454.06
238.32	1337.32
238.54	1298.41
238.76	1366.00
238.97	1312.75
239.19	1345.52
239.41	1419.24
239.63	1380.33
239.85	1333.23
240.06	1370.09
240.28	1296.36
240.50	1398.76
240.72	1329.13
240.93	1380.33
241.15	1402.86
241.37	1441.77
241.59	1400.81
241.81	1341.42
242.02	1361.90
242.24	1423.34
242.46	1351.66
242.68	1370.09
242.89	1376.24
243.11	1368.04
243.33	1341.42
243.55	1310.70
243.76	1380.33
243.98	1343.47
244.20	1437.67
244.42	1400.81
244.64	1402.86
244.85	1355.76
245.07	1366.00
245.29	1415.15
245.51	1411.05
245.72	1376.24
245.94	1316.84
246.16	1376.24
246.38	1423.34
246.59	1331.18
246.81	1402.86
247.03	1380.33
247.24	1316.84
247.46	1318.89
247.68	1290.22
247.90	1308.65
248.11	1347.56
248.33	1437.67
248.55	1331.18
248.77	1396.71
248.98	1361.90
249.20	1437.67
249.42	1363.95
249.64	1366.00
249.85	1345.52
250.07	1333.23
250.29	1460.20
250.50	1351.66
250.72	1316.84
250.94	1345.52
251.16	1394.67
251.37	1441.77
251.59	1357.80
251.81	1431.53
252.02	1411.05
252.24	1398.76
252.46	1460.20
252.68	1400.81
252.89	1263.60
253.11	1384.43
253.33	1419.24
253.54	1415.15
253.76	1343.47
253.98	1394.67
254.20	1366.00
254.41	1449.96
254.63	1366.00
254.85	1288.17
255.06	1341.42
255.28	1413.10
255.50	1374.19
255.71	1345.52
255.93	1325.04
256.15	1378.28
256.36	1337.32
256.58	1409.00
256.80	1351.66
257.02	1378.28
257.23	1290.22
257.45	1445.87
257.67	1353.71
257.88	1335.28
258.10	1347.56
258.32	1343.47
258.53	1423.34
258.75	1396.71
258.97	1306.60
259.18	1380.33
259.40	1392.62
259.62	1445.87
259.83	1421.29
260.05	1368.04
260.27	1515.50
260.48	1333.23
260.70	1296.36
260.92	1384.43
261.13	1361.90
261.35	1421.29
261.57	1415.15
261.78	1382.38
262.00	1316.84
262.22	1359.85
262.43	1402.86
262.65	1417.19
262.86	1417.19
263.08	1433.58
263.30	1388.52
263.51	1265.64
263.73	1368.04
263.95	1427.43
264.16	1279.98
264.38	1343.47
264.60	1462.25
264.81	1267.69
265.03	1419.24
265.25	1421.29
265.46	1343.47
265.68	1411.05
265.89	1409.00
266.11	1284.08
266.33	1415.15
266.54	1402.86
266.76	1413.10
266.98	1413.10
267.19	1433.58
267.41	1368.04
267.62	1374.19
267.84	1366.00
268.06	1394.67
268.27	1454.06
268.49	1361.90
268.70	1413.10
268.92	1351.66
269.14	1284.08
269.35	1316.84
269.57	1417.19
269.79	1404.91
270.00	1312.75
270.22	1378.28
270.43	1374.19
270.65	1251.31
270.87	1341.42
271.08	1376.24
271.30	1441.77
271.51	1380.33
271.73	1411.05
271.95	1331.18
272.16	1429.48
272.38	1357.80
272.59	1327.08
272.81	1347.56
273.02	1325.04
273.24	1394.67
273.46	1318.89
273.67	1318.89
273.89	1345.52
274.10	1341.42
274.32	1343.47
274.54	1398.76
274.75	1406.95
274.97	1345.52
275.18	1396.71
275.40	1439.72
275.61	1384.43
275.83	1404.91
276.05	1306.60
276.26	1300.46
276.48	1372.14
276.69	1427.43
276.91	1355.76
277.12	1415.15
277.34	1435.63
277.55	1394.67
277.77	1359.85
277.99	1382.38
278.20	1290.22
278.42	1341.42
278.63	1359.85
278.85	1345.52
279.06	1337.32
279.28	1318.89
279.49	1361.90
279.71	1417.19
279.93	1363.95
280.14	1337.32
280.36	1257.45
280.57	1449.96
280.79	1404.91
281.00	1363.95
281.22	1406.95
281.43	1347.56
281.65	1286.12
281.86	1349.61
282.08	1435.63
282.29	1443.82
282.51	1290.22
282.73	1314.80
282.94	1290.22
283.16	1343.47
283.37	1409.00
283.59	1388.52
283.80	1376.24
284.02	1402.86
284.23	1370.09
284.45	1415.15
284.66	1310.70
284.88	1384.43
285.09	1398.76
285.31	1320.94
285.52	1372.14
285.74	1349.61
285.95	1439.72
286.17	1421.29
286.38	1337.32
286.60	1322.99
286.81	1308.65
287.03	1361.90
287.24	1384.43
287.46	1443.82
287.67	1400.81
287.89	1447.91
288.10	1374.19
288.32	1331.18
288.53	1333.23
288.75	1392.62
288.96	1345.52
289.18	1361.90
289.39	1345.52
289.61	1421.29
289.82	1384.43
290.04	1466.35
290.25	1327.08
290.47	1406.95
290.68	1265.64
290.90	1415.15
291.11	1353.71
291.33	1427.43
291.54	1345.52
291.76	1304.56
291.97	1394.67
292.18	1390.57
292.40	1316.84
292.61	1329.13
292.83	1388.52
293.04	1380.33
293.26	1404.91
293.47	1322.99
293.69	1359.85
293.90	1306.60
294.12	1454.06
294.33	1355.76
294.55	1384.43
294.76	1443.82
294.97	1366.00
295.19	1452.01
295.40	1320.94
295.62	1363.95
295.83	1349.61
296.05	1425.39
296.26	1417.19
296.48	1316.84
296.69	1394.67
296.90	1351.66
297.12	1355.76
297.33	1392.62
297.55	1380.33
297.76	1425.39
297.98	1400.81
298.19	1419.24
298.41	1294.32
298.62	1341.42
298.83	1402.86
299.05	1306.60
299.26	1314.80
299.48	1411.05
299.69	1376.24
299.90	1437.67
300.12	1361.90
300.33	1421.29
300.55	1314.80
300.76	1380.33
300.98	1284.08
301.19	1429.48
301.40	1374.19
301.62	1345.52
301.83	1417.19
302.05	1380.33
302.26	1327.08
302.47	1320.94
302.69	1277.93
302.90	1464.30
303.12	1294.32
303.33	1372.14
303.54	1417.19
303.76	1372.14
303.97	1361.90
304.19	1462.25
304.40	1433.58
304.61	1345.52
304.83	1490.92
305.04	1439.72
305.26	1310.70
305.47	1392.62
305.68	1419.24
305.90	1368.04
306.11	1413.10
306.33	1386.47
306.54	1404.91
306.75	1333.23
306.97	1314.80
307.18	1404.91
307.39	1337.32
307.61	1376.24
307.82	1298.41
308.04	1409.00
308.25	1388.52
308.46	1290.22
308.68	1339.37
308.89	1357.80
309.10	1443.82
309.32	1363.95
309.53	1292.27
309.74	1380.33
309.96	1339.37
310.17	1380.33
310.39	1376.24
310.60	1423.34
310.81	1327.08
311.03	1343.47
311.24	1390.57
311.45	1312.75
311.67	1368.04
311.88	1460.20
312.09	1478.63
312.31	1400.81
312.52	1386.47
312.73	1339.37
312.95	1337.32
313.16	1349.61
313.37	1347.56
313.59	1308.65
313.80	1464.30
314.01	1425.39
314.23	1396.71
314.44	1411.05
314.65	1351.66
314.87	1366.00
315.08	1378.28
315.29	1357.80
315.51	1292.27
315.72	1329.13
315.93	1435.63
316.15	1347.56
316.36	1353.71
316.57	1429.48
316.79	1478.63
317.00	1396.71
317.21	1411.05
317.43	1351.66
317.64	1445.87
317.85	1411.05
318.07	1445.87
318.28	1542.12
318.49	1533.93
318.70	1708.01
318.92	1507.30
319.13	1503.21
319.34	1570.79
319.56	1433.58
319.77	1484.78
319.98	1484.78
320.20	1394.67
320.41	1435.63
320.62	1359.85
320.83	1339.37
321.05	1462.25
321.26	1353.71
321.47	1376.24
321.69	1392.62
321.90	1341.42
322.11	1284.08
322.32	1298.41
322.54	1484.78
322.75	1400.81
322.96	1478.63
323.18	1277.93
323.39	1378.28
323.60	1366.00
323.81	1417.19
324.03	1322.99
324.24	1353.71
324.45	1341.42
324.66	1331.18
324.88	1382.38
325.09	1443.82
325.30	1282.03
325.52	1368.04
325.73	1378.28
325.94	1372.14
326.15	1331.18
326.37	1363.95
326.58	1441.77
326.79	1447.91
327.00	1306.60
327.22	1492.97
327.43	1347.56
327.64	1282.03
327.85	1374.19
328.07	1361.90
328.28	1349.61
328.49	1411.05
328.70	1339.37
328.92	1329.13
329.13	1363.95
329.34	1380.33
329.55	1386.47
329.76	1415.15
329.98	1335.28
330.19	1359.85
330.40	1449.96
330.61	1384.43
330.83	1464.30
331.04	1288.17
331.25	1370.09
331.46	1271.79
331.68	1314.80
331.89	1394.67
332.10	1409.00
332.31	1345.52
332.52	1386.47
332.74	1357.80
332.95	1325.04
333.16	1396.71
333.37	1478.63
333.58	1306.60
333.80	1404.91
334.01	1282.03
334.22	1394.67
334.43	1333.23
334.64	1294.32
334.86	1343.47
335.07	1275.88
335.28	1454.06
335.49	1353.71
335.70	1370.09
335.92	1447.91
336.13	1437.67
336.34	1384.43
336.55	1415.15
336.76	1409.00
336.98	1312.75
337.19	1298.41
337.40	1468.39
337.61	1445.87
337.82	1386.47
338.04	1411.05
338.25	1325.04
338.46	1345.52
338.67	1437.67
338.88	1402.86
339.09	1320.94
339.31	1384.43
339.52	1370.09
339.73	1331.18
339.94	1417.19
340.15	1363.95
340.36	1320.94
340.58	1372.14
340.79	1345.52
341.00	1402.86
341.21	1396.71
341.42	1519.59
341.63	1370.09
341.85	1380.33
342.06	1427.43
342.27	1290.22
342.48	1382.38
342.69	1335.28
342.90	1327.08
343.12	1435.63
343.33	1351.66
343.54	1286.12
343.75	1398.76
343.96	1437.67
344.17	1308.65
344.38	1353.71
344.60	1288.17
344.81	1304.56
345.02	1331.18
345.23	1368.04
345.44	1484.78
345.65	1437.67
345.86	1441.77
346.07	1333.23
346.29	1271.79
346.50	1425.39
346.71	1411.05
346.92	1368.04
347.13	1415.15
347.34	1400.81
347.55	1351.66
347.76	1386.47
347.98	1325.04
348.19	1333.23
348.40	1392.62
348.61	1363.95
348.82	1484.78
349.03	1392.62
349.24	1337.32
349.45	1472.49
349.66	1318.89
349.88	1361.90
350.09	1392.62
350.30	1413.10
350.51	1445.87
350.72	1372.14
350.93	1388.52
351.14	1359.85
351.35	1406.95
351.56	1398.76
351.77	1355.76
351.99	1449.96
352.20	1470.44
352.41	1484.78
352.62	1337.32
352.83	1290.22
353.04	1392.62
353.25	1347.56
353.46	1435.63
353.67	1370.09
353.88	1269.74
354.09	1431.53
354.30	1310.70
354.52	1314.80
354.73	1337.32
354.94	1392.62
355.15	1380.33
355.36	1380.33
355.57	1380.33
355.78	1349.61
355.99	1329.13
356.20	1402.86
356.41	1411.05
356.62	1308.65
356.83	1380.33
357.04	1441.77
357.25	1337.32
357.46	1347.56
357.68	1327.08
357.89	1298.41
358.10	1359.85
358.31	1337.32
358.52	1380.33
358.73	1304.56
358.94	1300.46
359.15	1378.28
359.36	1421.29
359.57	1361.90
359.78	1331.18
359.99	1359.85
360.20	1267.69
360.41	1341.42
360.62	1316.84
360.83	1404.91
361.04	1406.95
361.25	1396.71
361.46	1456.11
361.67	1413.10
361.88	1394.67
362.09	1505.26
362.30	1374.19
362.51	1363.95
362.72	1335.28
362.93	1386.47
363.14	1409.00
363.35	1312.75
363.56	1349.61
363.78	1396.71
363.99	1394.67
364.20	1333.23
364.41	1413.10
364.62	1394.67
364.83	1437.67
365.04	1406.95
365.25	1392.62
365.46	1380.33
365.67	1306.60
365.88	1351.66
366.09	1368.04
366.30	1380.33
366.51	1357.80
366.72	1378.28
366.93	1361.90
367.14	1374.19
367.35	1435.63
367.56	1382.38
367.77	1366.00
367.98	1384.43
368.18	1374.19
368.39	1353.71
368.60	1343.47
368.81	1363.95
369.02	1423.34
369.23	1349.61
369.44	1294.32
369.65	1396.71
369.86	1329.13
370.07	1363.95
370.28	1363.95
370.49	1388.52
370.70	1480.68
370.91	1288.17
371.12	1331.18
371.33	1390.57
371.54	1402.86
371.75	1462.25
371.96	1312.75
372.17	1468.39
372.38	1333.23
372.59	1425.39
372.80	1349.61
373.01	1322.99
373.22	1312.75
373.43	1353.71
373.64	1282.03
373.85	1392.62
374.06	1427.43
374.26	1339.37
374.47	1361.90
374.68	1388.52
374.89	1370.09
375.10	1310.70
375.31	1331.18
375.52	1382.38
375.73	1353.71
375.94	1318.89
376.15	1394.67
376.36	1335.28
376.57	1361.90
376.78	1437.67
376.99	1310.70
377.20	1431.53
377.40	1296.36
377.61	1419.24
377.82	1435.63
378.03	1390.57
378.24	1425.39
378.45	1327.08
378.66	1337.32
378.87	1337.32
379.08	1349.61
379.29	1353.71
379.50	1353.71
379.71	1409.00
379.91	1404.91
380.12	1361.90
380.33	1396.71
380.54	1374.19
380.75	1392.62
380.96	1413.10
381.17	1376.24
381.38	1404.91
381.59	1445.87
381.80	1445.87
382.00	1492.97
382.21	1425.39
382.42	1484.78
382.63	1501.16
382.84	1460.20
383.05	1417.19
383.26	1478.63
383.47	1464.30
383.68	1400.81
383.88	1351.66
384.09	1394.67
384.30	1392.62
384.51	1347.56
384.72	1378.28
384.93	1406.95
385.14	1462.25
385.35	1468.39
385.55	1337.32
385.76	1421.29
385.97	1368.04
386.18	1308.65
386.39	1488.87
386.60	1392.62
386.81	1400.81
387.02	1396.71
387.22	1322.99
387.43	1462.25
387.64	1540.07
387.85	2336.73
388.06	5865.38
388.27	9455.47
388.48	11540.30
388.68	12975.93
388.89	13399.86
389.10	10549.09
389.31	9219.96
389.52	8253.31
389.73	7276.43
389.93	6899.61
390.14	6543.26
390.35	6055.84
390.56	5435.31
390.77	4509.63
390.98	3653.58
391.18	2781.14
391.39	2084.83
391.60	1673.19
391.81	1564.65
392.02	1540.07
392.23	1419.24
392.43	1458.15
392.64	1435.63
392.85	1355.76
393.06	1468.39
393.27	1386.47
393.47	1368.04
393.68	1419.24
393.89	1361.90
394.10	1388.52
394.31	1374.19
394.52	1374.19
394.72	1322.99
394.93	1331.18
395.14	1357.80
395.35	1390.57
395.56	1370.09
395.76	1488.87
395.97	1611.75
396.18	1615.85
396.39	1585.13
396.60	1671.14
396.80	1540.07
397.01	1546.22
397.22	1507.30
397.43	1456.11
397.64	1480.68
397.84	1454.06
398.05	1509.35
398.26	1501.16
398.47	1409.00
398.67	1513.45
398.88	1359.85
399.09	1386.47
399.30	1398.76
399.51	1396.71
399.71	1404.91
399.92	1396.71
400.13	1368.04
400.34	1421.29
400.54	1333.23
400.75	1499.11
400.96	1384.43
401.17	1404.91
401.37	1449.96
401.58	1386.47
401.79	1452.01
402.00	1718.25
402.21	1769.44
402.41	1814.50
402.62	1755.11
402.83	1767.40
403.04	1683.43
403.24	1736.68
403.45	1538.02
403.66	1617.90
403.87	1609.70
404.07	1521.64
404.28	1583.08
404.49	1488.87
404.70	1482.73
404.90	1484.78
405.11	1411.05
405.32	1347.56
405.52	1308.65
405.73	1429.48
405.94	1310.70
406.15	1386.47
406.35	1368.04
406.56	1411.05
406.77	1343.47
406.98	1419.24
407.18	1327.08
407.39	1386.47
407.60	1343.47
407.80	1357.80
408.01	1361.90
408.22	1363.95
408.43	1368.04
408.63	1411.05
408.84	1398.76
409.05	1378.28
409.25	1347.56
409.46	1314.80
409.67	1349.61
409.88	1431.53
410.08	1449.96
410.29	1376.24
410.50	1411.05
410.70	1427.43
410.91	1361.90
411.12	1359.85
411.32	1384.43
411.53	1425.39
411.74	1478.63
411.95	1415.15
412.15	1505.26
412.36	1417.19
412.57	1394.67
412.77	1460.20
412.98	1427.43
413.19	1376.24
413.39	1386.47
413.60	1372.14
413.81	1460.20
414.01	1443.82
414.22	1476.59
414.43	1437.67
414.63	1392.62
414.84	1386.47
415.05	1284.08
415.25	1331.18
415.46	1386.47
415.67	1353.71
415.87	1449.96
416.08	1402.86
416.29	1376.24
416.49	1406.95
416.70	1382.38
416.91	1443.82
417.11	1411.05
417.32	1337.32
417.53	1363.95
417.73	1355.76
417.94	1400.81
418.15	1427.43
418.35	1378.28
418.56	1390.57
418.77	1503.21
418.97	1386.47
419.18	1304.56
419.38	1259.50
419.59	1366.00
419.80	1478.63
420.00	1366.00
420.21	1363.95
420.42	1423.34
420.62	1406.95
420.83	1339.37
421.04	1427.43
421.24	1329.13
421.45	1345.52
421.65	1423.34
421.86	1335.28
422.07	1441.77
422.27	1417.19
422.48	1345.52
422.69	1304.56
422.89	1337.32
423.10	1337.32
423.30	1392.62
423.51	1419.24
423.72	1361.90
423.92	1394.67
424.13	1363.95
424.33	1378.28
424.54	1427.43
424.75	1284.08
424.95	1325.04
425.16	1404.91
425.36	1351.66
425.57	1449.96
425.78	1411.05
425.98	1382.38
426.19	1282.03
426.39	1351.66
426.60	1370.09
426.81	1423.34
427.01	1327.08
427.22	1306.60
427.42	1296.36
427.63	1363.95
427.83	1411.05
428.04	1443.82
428.25	1386.47
428.45	1394.67
428.66	1349.61
428.86	1355.76
429.07	1398.76
429.28	1402.86
429.48	1279.98
429.69	1382.38
429.89	1349.61
430.10	1333.23
430.30	1392.62
430.51	1429.48
430.71	1351.66
430.92	1359.85
431.13	1421.29
431.33	1374.19
431.54	1378.28
431.74	1462.25
431.95	1458.15
432.15	1308.65
432.36	1316.84
432.56	1409.00
432.77	1421.29
432.98	1472.49
433.18	1306.60
433.39	1351.66
433.59	1372.14
433.80	1409.00
434.00	1476.59
434.21	1312.75
434.41	1400.81
434.62	1419.24
434.82	1327.08
435.03	1353.71
435.23	1388.52
435.44	1343.47
435.64	1333.23
435.85	1380.33
436.06	1462.25
436.26	1472.49
436.47	1339.37
436.67	1398.76
436.88	1400.81
437.08	1290.22
437.29	1468.39
437.49	1368.04
437.70	1376.24
437.90	1368.04
438.11	1497.07
438.31	1509.35
438.52	1507.30
438.72	1490.92
438.93	1550.31
439.13	1417.19
439.34	1511.40
439.54	1480.68
439.75	1437.67
439.95	1411.05
440.16	1472.49
440.36	1302.51
440.57	1476.59
440.77	1347.56
440.98	1431.53
441.18	1359.85
441.39	1392.62
441.59	1380.33
441.80	1443.82
442.00	1359.85
442.21	1474.54
442.41	1312.75
442.62	1433.58
442.82	1308.65
443.02	1380.33
443.23	1406.95
443.43	1359.85
443.64	1396.71
443.84	1376.24
444.05	1370.09
444.25	1402.86
444.46	1337.32
444.66	1355.76
444.87	1423.34
445.07	1310.70
445.28	1435.63
445.48	1449.96
445.69	1445.87
445.89	1468.39
446.09	1538.02
446.30	2263.01
446.50	3710.92
446.71	4554.68
446.91	5261.23
447.12	5529.52
447.32	4880.31
447.53	4190.14
447.73	3776.45
447.93	3485.64
448.14	3141.58
448.34	3098.58
448.55	2756.57
448.75	2699.22
448.96	2754.52
449.16	2461.66
449.36	2199.52
449.57	1912.80
449.77	1724.39
449.98	1505.26
450.18	1370.09
450.39	1507.30
450.59	1458.15
450.79	1312.75
451.00	1368.04
451.20	1402.86
451.41	1353.71
451.61	1398.76
451.81	1372.14
452.02	1425.39
452.22	1392.62
452.43	1402.86
452.63	1337.32
452.84	1357.80
453.04	1296.36
453.24	1300.46
453.45	1318.89
453.65	1372.14
453.86	1400.81
454.06	1404.91
454.26	1378.28
454.47	1351.66
454.67	1411.05
454.87	1409.00
455.08	1355.76
455.28	1484.78
455.49	1425.39
455.69	1282.03
455.89	1499.11
456.10	1380.33
456.30	1425.39
456.51	1345.52
456.71	1374.19
456.91	1398.76
457.12	1378.28
457.32	1322.99
457.52	1384.43
457.73	1343.47
457.93	1353.71
458.14	1392.62
458.34	1361.90
458.54	1363.95
458.75	1372.14
458.95	1404.91
459.15	1368.04
459.36	1392.62
459.56	1378.28
459.76	1466.35
459.97	1329.13
460.17	1355.76
460.37	1400.81
460.58	1376.24
460.78	1394.67
460.99	1378.28
461.19	1386.47
461.39	1329.13
461.60	1320.94
461.80	1380.33
462.00	1361.90
462.21	1269.74
462.41	1372.14
462.61	1318.89
462.82	1382.38
463.02	1421.29
463.22	1355.76
463.43	1474.54
463.63	1374.19
463.83	1431.53
464.04	1339.37
464.24	1409.00
464.44	1347.56
464.64	1335.28
464.85	1320.94
465.05	1460.20
465.25	1318.89
465.46	1288.17
465.66	1409.00
465.86	1357.80
466.07	1435.63
466.27	1376.24
466.47	1361.90
466.68	1320.94
466.88	1417.19
467.08	1394.67
467.29	1368.04
467.49	1390.57
467.69	1349.61
467.89	1398.76
468.10	1322.99
468.30	1431.53
468.50	1433.58
468.71	1411.05
468.91	1411.05
469.11	1464.30
469.31	1366.00
469.52	1345.52
469.72	1452.01
469.92	1388.52
470.13	1376.24
470.33	1388.52
470.53	1697.77
470.73	1986.53
470.94	2260.96
471.14	2367.45
471.34	2469.85
471.54	2121.70
471.75	2002.91
471.95	1931.23
472.15	1837.03
472.36	1865.70
472.56	1746.92
472.76	1765.35
472.96	1626.09
473.17	1667.05
473.37	1626.09
473.57	1550.31
473.77	1468.39
473.98	1486.83
474.18	1376.24
474.38	1558.50
474.58	1466.35
474.79	1355.76
474.99	1458.15
475.19	1402.86
475.39	1327.08
475.60	1312.75
475.80	1325.04
476.00	1368.04
476.20	1392.62
476.41	1277.93
476.61	1478.63
476.81	1449.96
477.01	1345.52
477.21	1449.96
477.42	1454.06
477.62	1277.93
477.82	1402.86
478.02	1357.80
478.23	1435.63
478.43	1466.35
478.63	1314.80
478.83	1417.19
479.03	1345.52
479.24	1472.49
479.44	1419.24
479.64	1351.66
479.84	1347.56
480.04	1331.18
480.25	1429.48
480.45	1357.80
480.65	1357.80
480.85	1374.19
481.06	1411.05
481.26	1370.09
481.46	1409.00
481.66	1454.06
481.86	1359.85
482.06	1456.11
482.27	1304.56
482.47	1357.80
482.67	1347.56
482.87	1378.28
483.07	1378.28
483.28	1368.04
483.48	1298.41
483.68	1363.95
483.88	1318.89
484.08	1267.69
484.29	1363.95
484.49	1413.10
484.69	1316.84
484.89	1388.52
485.09	1411.05
485.29	1409.00
485.50	1372.14
485.70	1343.47
485.90	1404.91
486.10	1349.61
486.30	1435.63
486.50	1443.82
486.71	1320.94
486.91	1413.10
487.11	1398.76
487.31	1349.61
487.51	1331.18
487.71	1288.17
487.91	1331.18
488.12	1345.52
488.32	1363.95
488.52	1359.85
488.72	1312.75
488.92	1353.71
489.12	1376.24
489.32	1380.33
489.53	1413.10
489.73	1331.18
489.93	1470.44
490.13	1392.62
490.33	1312.75
490.53	1406.95
490.73	1476.59
490.94	1314.80
491.14	1452.01
491.34	1673.19
491.54	2168.80
491.74	2594.78
491.94	2953.17
492.14	3252.17
492.34	2895.83
492.54	2490.33
492.75	2283.49
492.95	2234.33
493.15	2002.91
493.35	2058.21
493.55	1974.24
493.75	1890.28
493.95	1841.12
494.15	1841.12
494.35	1787.88
494.56	1601.51
494.76	1658.85
494.96	1503.21
495.16	1511.40
495.36	1427.43
495.56	1402.86
495.76	1392.62
495.96	1339.37
496.16	1437.67
496.36	1406.95
496.56	1417.19
496.77	1384.43
496.97	1384.43
497.17	1370.09
497.37	1402.86
497.57	1429.48
497.77	1388.52
497.97	1331.18
498.17	1325.04
498.37	1368.04
498.57	1406.95
498.77	1382.38
498.97	1396.71
499.17	1415.15
499.38	1288.17
499.58	1380.33
499.78	1486.83
499.98	1394.67
500.18	1411.05
500.38	1384.43
500.58	1693.67
500.78	2885.59
500.98	5537.71
501.18	6959.00
501.38	8044.42
501.58	8621.95
501.78	7407.50
501.98	5926.82
502.18	5042.10
502.38	4497.34
502.58	4140.99
502.78	3745.73
502.98	3633.10
503.18	3454.92
503.38	3325.90
503.59	3086.29
503.79	2869.20
503.99	2572.25
504.19	2326.49
504.39	2109.41
504.59	2058.21
504.79	1935.33
504.99	1826.79
505.19	1617.90
505.39	1538.02
505.59	1538.02
505.79	1531.88
505.99	1525.74
506.19	1505.26
506.39	1511.40
506.59	1425.39
506.79	1435.63
506.99	1482.73
507.19	1470.44
507.39	1388.52
507.59	1339.37
507.79	1376.24
507.99	1419.24
508.19	1400.81
508.39	1349.61
508.59	1286.12
508.79	1427.43
508.99	1425.39
509.19	1347.56
509.39	1417.19
509.59	1312.75
509.79	1378.28
509.99	1380.33
510.19	1511.40
510.39	1392.62
510.59	1363.95
510.79	1329.13
510.99	1343.47
511.19	1380.33
511.39	1480.68
511.59	1345.52
511.79	1386.47
511.99	1384.43
512.19	1507.30
512.38	1292.27
512.58	1298.41
512.78	1351.66
512.98	1441.77
513.18	1447.91
513.38	1333.23
513.58	1409.00
513.78	1419.24
513.98	1345.52
514.18	1322.99
514.38	1351.66
514.58	1413.10
514.78	1374.19
514.98	1329.13
515.18	1341.42
515.38	1310.70
515.58	1492.97
515.78	1392.62
515.98	1439.72
516.18	1413.10
516.38	1333.23
516.57	1380.33
516.77	1296.36
516.97	1445.87
517.17	1312.75
517.37	1366.00
517.57	1431.53
517.77	1370.09
517.97	1347.56
518.17	1390.57
518.37	1351.66
518.57	1404.91
518.77	1409.00
518.97	1404.91
519.16	1456.11
519.36	1429.48
519.56	1388.52
519.76	1347.56
519.96	1337.32
520.16	1439.72
520.36	1392.62
520.56	1443.82
520.76	1306.60
520.96	1296.36
521.16	1437.67
521.35	1419.24
521.55	1443.82
521.75	1423.34
521.95	1433.58
522.15	1425.39
522.35	1392.62
522.55	1368.04
522.75	1363.95
522.95	1404.91
523.14	1351.66
523.34	1372.14
523.54	1339.37
523.74	1402.86
523.94	1378.28
524.14	1353.71
524.34	1374.19
524.54	1439.72
524.73	1398.76
524.93	1417.19
525.13	1363.95
525.33	1343.47
525.53	1495.02
525.73	1304.56
525.93	1421.29
526.13	1419.24
526.32	1363.95
526.52	1404.91
526.72	1394.67
526.92	1310.70
527.12	1331.18
527.32	1316.84
527.52	1335.28
527.71	1388.52
527.91	1337.32
528.11	1296.36
528.31	1435.63
528.51	1384.43
528.71	1320.94
528.90	1361.90
529.10	1378.28
529.30	1427.43
529.50	1345.52
529.70	1386.47
529.90	1306.60
530.09	1325.04
530.29	1312.75
530.49	1347.56
530.69	1447.91
530.89	1382.38
531.09	1370.09
531.28	1357.80
531.48	1437.67
531.68	1431.53
531.88	1353.71
532.08	1429.48
532.28	1312.75
532.47	1413.10
532.67	1421.29
532.87	1351.66
533.07	1368.04
533.27	1406.95
533.46	1421.29
533.66	1392.62
533.86	1462.25
534.06	1370.09
534.26	1445.87
534.45	1425.39
534.65	1447.91
534.85	1419.24
535.05	1411.05
535.25	1368.04
535.44	1337.32
535.64	1372.14
535.84	1351.66
536.04	1353.71
536.24	1370.09
536.43	1382.38
536.63	1357.80
536.83	1378.28
537.03	1329.13
537.22	1374.19
537.42	1310.70
537.62	1384.43
537.82	1392.62
538.02	1435.63
538.21	1466.35
538.41	1468.39
538.61	1439.72
538.81	1327.08
539.00	1396.71
539.20	1322.99
539.40	1370.09
539.60	1372.14
539.79	1404.91
539.99	1394.67
540.19	1308.65
540.39	1349.61
540.58	1488.87
540.78	1415.15
540.98	1441.77
541.18	1413.10
541.37	1439.72
541.57	1357.80
541.77	1501.16
541.97	1263.60
542.16	1372.14
542.36	1337.32
542.56	1413.10
542.76	1495.02
542.95	1402.86
543.15	1304.56
543.35	1343.47
543.54	1331.18
543.74	1312.75
543.94	1466.35
544.14	1308.65
544.33	1351.66
544.53	1304.56
544.73	1388.52
544.93	1306.60
545.12	1335.28
545.32	1361.90
545.52	1357.80
545.71	1382.38
545.91	1396.71
546.11	1435.63
546.30	1253.36
546.50	1318.89
546.70	1449.96
546.90	1380.33
547.09	1290.22
547.29	1345.52
547.49	1394.67
547.68	1429.48
547.88	1355.76
548.08	1347.56
548.27	1652.71
548.47	1419.24
548.67	1310.70
548.87	1382.38
549.06	1409.00
549.26	1460.20
549.46	1345.52
549.65	1437.67
549.85	1400.81
550.05	1372.14
550.24	1363.95
550.44	1327.08
550.64	1351.66
550.83	1409.00
551.03	1380.33
551.23	1380.33
551.42	1384.43
551.62	1404.91
551.82	1312.75
552.01	1327.08
552.21	1486.83
552.41	1378.28
552.60	1406.95
552.80	1378.28
553.00	1374.19
553.19	1386.47
553.39	1452.01
553.59	1245.16
553.78	1449.96
553.98	1433.58
554.17	1294.32
554.37	1462.25
554.57	1431.53
554.76	1335.28
554.96	1435.63
555.16	1275.88
555.35	1452.01
555.55	1359.85
555.75	1310.70
555.94	1445.87
556.14	1322.99
556.33	1449.96
556.53	1429.48
556.73	1329.13
556.92	1396.71
557.12	1441.77
557.32	1470.44
557.51	1492.97
557.71	1445.87
557.90	1400.81
558.10	1443.82
558.30	1386.47
558.49	1343.47
558.69	1353.71
558.88	1386.47
559.08	1478.63
559.28	1361.90
559.47	1368.04
559.67	1396.71
559.86	1443.82
560.06	1386.47
560.26	1384.43
560.45	1386.47
560.65	1419.24
560.84	1398.76
561.04	1363.95
561.24	1396.71
561.43	1404.91
561.63	1439.72
561.82	1429.48
562.02	1404.91
562.22	1351.66
562.41	1300.46
562.61	1445.87
562.80	1374.19
563.00	1474.54
563.19	1417.19
563.39	1388.52
563.59	1431.53
563.78	1310.70
563.98	1300.46
564.17	1320.94
564.37	1314.80
564.56	1406.95
564.76	1292.27
564.96	1441.77
565.15	1351.66
565.35	1431.53
565.54	1363.95
565.74	1363.95
565.93	1359.85
566.13	1347.56
566.32	1351.66
566.52	1415.15
566.71	1359.85
566.91	1380.33
567.11	1392.62
567.30	1384.43
567.50	1402.86
567.69	1359.85
567.89	1372.14
568.08	1341.42
568.28	1363.95
568.47	1329.13
568.67	1398.76
568.86	1370.09
569.06	1351.66
569.25	1439.72
569.45	1343.47
569.64	1388.52
569.84	1382.38
570.04	1411.05
570.23	1382.38
570.43	1429.48
570.62	1406.95
570.82	1462.25
571.01	1341.42
571.21	1382.38
571.40	1308.65
571.60	1423.34
571.79	1333.23
571.99	1443.82
572.18	1347.56
572.38	1374.19
572.57	1376.24
572.77	1392.62
572.96	1474.54
573.16	1349.61
573.35	1265.64
573.55	1435.63
573.74	1427.43
573.94	1318.89
574.13	1406.95
574.33	1417.19
574.52	1421.29
574.71	1366.00
574.91	1394.67
575.10	1413.10
575.30	1388.52
575.49	1392.62
575.69	1419.24
575.88	1445.87
576.08	1439.72
576.27	1409.00
576.47	1492.97
576.66	1554.41
576.86	1495.02
577.05	1495.02
577.25	1447.91
577.44	1488.87
577.64	1370.09
577.83	1452.01
578.02	1349.61
578.22	1447.91
578.41	1476.59
578.61	1433.58
578.80	1390.57
579.00	1435.63
579.19	1429.48
579.39	1380.33
579.58	1482.73
579.77	1423.34
579.97	1488.87
580.16	1435.63
580.36	1374.19
580.55	1443.82
580.75	1484.78
580.94	1361.90
581.13	1546.22
581.33	1478.63
581.52	1454.06
581.72	1492.97
581.91	1503.21
582.11	1517.54
582.30	1456.11
582.49	1515.50
582.69	1439.72
582.88	1445.87
583.08	1406.95
583.27	1497.07
583.47	1460.20
583.66	1380.33
583.85	1366.00
584.05	1492.97
584.24	1533.93
584.44	1435.63
584.63	1472.49
584.82	1540.07
585.02	1566.70
585.21	1544.17
585.41	1538.02
585.60	1499.11
585.79	1683.43
585.99	1648.61
586.18	1611.75
586.37	1777.64
586.57	2734.04
586.76	7960.45
586.96	24088.21
587.15	41520.52
587.34	51879.14
587.54	59556.98
587.73	59473.01
587.93	44801.36
588.12	32544.27
588.31	26371.69
588.51	22578.86
588.70	19744.47
588.89	18491.11
589.09	16983.80
589.28	15916.81
589.47	14245.67
589.67	12445.51
589.86	10602.33
590.06	8576.89
590.25	6535.07
590.44	4937.65
590.64	3829.70
590.83	2807.77
591.02	2287.58
591.22	1892.32
591.41	1771.49
591.60	1535.98
591.80	1615.85
591.99	1482.73
592.18	1413.10
592.38	1509.35
592.57	1421.29
592.76	1431.53
592.96	1472.49
593.15	1398.76
593.34	1505.26
593.54	1392.62
593.73	1511.40
593.92	1435.63
594.12	1435.63
594.31	1437.67
594.50	1533.93
594.70	1499.11
594.89	1552.36
595.08	1411.05
595.28	1378.28
595.47	1587.18
595.66	1445.87
595.86	1370.09
596.05	1406.95
596.24	1361.90
596.43	1521.64
596.63	1433.58
596.82	1421.29
597.01	1429.48
597.21	1517.54
597.40	1404.91
597.59	1439.72
597.79	1361.90
597.98	1456.11
598.17	1480.68
598.36	1458.15
598.56	1425.39
598.75	1363.95
598.94	1419.24
599.14	1376.24
599.33	1419.24
599.52	1431.53
599.71	1406.95
599.91	1429.48
600.10	1443.82
600.29	1421.29
600.48	1447.91
600.68	1353.71
600.87	1431.53
601.06	1345.52
601.26	1312.75
601.45	1380.33
601.64	1300.46
601.83	1413.10
602.03	1359.85
602.22	1351.66
602.41	1411.05
602.60	1441.77
602.80	1468.39
602.99	1343.47
603.18	1421.29
603.37	1445.87
603.57	1368.04
603.76	1402.86
603.95	1425.39
604.14	1382.38
604.34	1382.38
604.53	1402.86
604.72	1402.86
604.91	1417.19
605.10	1331.18
605.30	1329.13
605.49	1437.67
605.68	1447.91
605.87	1406.95
606.07	1353.71
606.26	1394.67
606.45	1396.71
606.64	1425.39
606.84	1427.43
607.03	1466.35
607.22	1361.90
607.41	1503.21
607.60	1361.90
607.80	1411.05
607.99	1439.72
608.18	1413.10
608.37	1349.61
608.56	1370.09
608.76	1468.39
608.95	1515.50
609.14	1445.87
609.33	1517.54
609.52	1462.25
609.72	1452.01
609.91	1521.64
610.10	1470.44
610.29	1427.43
610.48	1429.48
610.68	1441.77
610.87	1347.56
611.06	1421.29
611.25	1421.29
611.44	1466.35
611.63	1335.28
611.83	1456.11
612.02	1370.09
612.21	1425.39
612.40	1429.48
612.59	1361.90
612.79	1355.76
612.98	1439.72
613.17	1398.76
613.36	1392.62
613.55	1421.29
613.74	1464.30
613.93	1591.27
614.13	1548.26
614.32	1673.19
614.51	1669.09
614.70	1474.54
614.89	1433.58
615.08	1478.63
615.28	1728.49
615.47	1488.87
615.66	1433.58
615.85	1441.77
616.04	1447.91
616.23	1423.34
616.42	1503.21
616.62	1519.59
616.81	1466.35
617.00	1427.43
617.19	1370.09
617.38	1443.82
617.57	1492.97
617.76	1445.87
617.95	1472.49
618.15	1433.58
618.34	1441.77
618.53	1331.18
618.72	1452.01
618.91	1447.91
619.10	1456.11
619.29	1341.42
619.48	1411.05
619.68	1333.23
619.87	1366.00
620.06	1400.81
620.25	1378.28
620.44	1372.14
620.63	1329.13
620.82	1339.37
621.01	1441.77
621.20	1392.62
621.39	1470.44
621.59	1398.76
621.78	1359.85
621.97	1386.47
622.16	1429.48
622.35	1437.67
622.54	1396.71
622.73	1392.62
622.92	1390.57
623.11	1322.99
623.30	1284.08
623.49	1388.52
623.68	1337.32
623.88	1447.91
624.07	1384.43
624.26	1404.91
624.45	1392.62
624.64	1355.76
624.83	1378.28
625.02	1484.78
625.21	1425.39
625.40	1382.38
625.59	1361.90
625.78	1474.54
625.97	1413.10
626.16	1472.49
626.35	1474.54
626.54	1449.96
626.74	1474.54
626.93	1437.67
627.12	1443.82
627.31	1505.26
627.50	1476.59
627.69	1400.81
627.88	1343.47
628.07	1398.76
628.26	1411.05
628.45	1374.19
628.64	1368.04
628.83	1353.71
629.02	1304.56
629.21	1406.95
629.40	1402.86
629.59	1349.61
629.78	1425.39
629.97	1429.48
630.16	1435.63
630.35	1380.33
630.54	1411.05
630.73	1411.05
630.92	1394.67
631.11	1306.60
631.30	1388.52
631.49	1411.05
631.68	1357.80
631.87	1437.67
632.06	1376.24
632.25	1445.87
632.44	1339.37
632.63	1431.53
632.82	1456.11
633.01	1464.30
633.20	1433.58
633.39	1443.82
633.58	1443.82
633.77	1482.73
633.96	1413.10
634.15	1472.49
634.34	1423.34
634.53	1433.58
634.72	1361.90
634.91	1337.32
635.10	1398.76
635.29	1507.30
635.48	1345.52
635.67	1331.18
635.86	1271.79
636.05	1368.04
636.24	1347.56
636.43	1388.52
636.62	1439.72
636.81	1294.32
637.00	1427.43
637.19	1386.47
637.38	1339.37
637.57	1306.60
637.76	1525.74
637.95	1466.35
638.14	1511.40
638.33	1482.73
638.52	1474.54
638.71	1462.25
638.89	1413.10
639.08	1521.64
639.27	1435.63
639.46	1466.35
639.65	1697.77
639.84	1855.46
640.03	2045.92
640.22	2033.63
640.41	2043.87
640.60	1841.12
640.79	1796.07
640.98	1638.38
641.17	1583.08
641.36	1597.42
641.55	1570.79
641.74	1466.35
641.92	1544.17
642.11	1503.21
642.30	1462.25
642.49	1462.25
642.68	1427.43
642.87	1474.54
643.06	1476.59
643.25	1337.32
643.44	1312.75
643.63	1355.76
643.82	1411.05
644.00	1320.94
644.19	1406.95
644.38	1288.17
644.57	1439.72
644.76	1396.71
644.95	1402.86
645.14	1417.19
645.33	1349.61
645.52	1359.85
645.71	1331.18
645.89	1359.85
646.08	1366.00
646.27	1363.95
646.46	1458.15
646.65	1363.95
646.84	1425.39
647.03	1318.89
647.22	1417.19
647.40	1384.43
647.59	1458.15
647.78	1247.21
647.97	1310.70
648.16	1357.80
648.35	1394.67
648.54	1355.76
648.73	1370.09
648.91	1425.39
649.10	1335.28
649.29	1380.33
649.48	1417.19
649.67	1439.72
649.86	1474.54
650.05	1429.48
650.23	1540.07
650.42	1437.67
650.61	1492.97
650.80	1542.12
650.99	1632.23
651.18	1515.50
651.36	1505.26
651.55	1345.52
651.74	1417.19
651.93	1441.77
652.12	1320.94
652.31	1363.95
652.49	1337.32
652.68	1378.28
652.87	1499.11
653.06	1452.01
653.25	1464.30
653.44	1415.15
653.62	1511.40
653.81	1398.76
654.00	1318.89
654.19	1523.69
654.38	1466.35
654.56	1476.59
654.75	1404.91
654.94	1402.86
655.13	1392.62
655.32	1423.34
655.51	1437.67
655.69	1359.85
655.88	1380.33
656.07	1286.12
656.26	1363.95
656.45	1386.47
656.63	1421.29
656.82	1425.39
657.01	1421.29
657.20	1343.47
657.38	1413.10
657.57	1402.86
657.76	1255.40
657.95	1378.28
658.14	1312.75
658.32	1380.33
658.51	1372.14
658.70	1404.91
658.89	1378.28
659.08	1312.75
659.26	1351.66
659.45	1384.43
659.64	1513.45
659.83	1423.34
660.01	1564.65
660.20	1441.77
660.39	1484.78
660.58	1333.23
660.76	1435.63
660.95	1351.66
661.14	1380.33
661.33	1351.66
661.51	1390.57
661.70	1341.42
661.89	1392.62
662.08	1421.29
662.26	1316.84
662.45	1308.65
662.64	1480.68
662.83	1396.71
663.01	1421.29
663.20	1359.85
663.39	1409.00
663.58	1320.94
663.76	1380.33
663.95	1478.63
664.14	1341.42
664.32	1392.62
664.51	1372.14
664.70	1468.39
664.89	1325.04
665.07	1316.84
665.26	1390.57
665.45	1366.00
665.64	1413.10
665.82	1368.04
666.01	1458.15
666.20	1327.08
666.38	1413.10
666.57	1417.19
666.76	1535.98
666.95	2062.30
667.13	4444.09
667.32	11673.42
667.51	17995.50
667.69	21608.12
667.88	24704.65
668.07	24434.32
668.25	18976.48
668.44	13539.12
668.63	11028.31
668.81	9166.71
669.00	8003.46
669.19	7311.25
669.38	6872.98
669.56	6240.16
669.75	5543.85
669.94	4822.97
670.12	4181.95
670.31	3432.40
670.50	2854.87
670.68	2453.47
670.87	2111.46
671.06	1912.80
671.24	1730.53
671.43	1701.86
671.62	1488.87
671.80	1431.53
671.99	1507.30
672.18	1484.78
672.36	1468.39
672.55	1495.02
672.74	1400.81
672.92	1345.52
673.11	1495.02
673.29	1368.04
673.48	1472.49
673.67	1425.39
673.85	1427.43
674.04	1388.52
674.23	1333.23
674.41	1427.43
674.60	1337.32
674.79	1327.08
674.97	1394.67
675.16	1347.56
675.34	1462.25
675.53	1390.57
675.72	1370.09
675.90	1423.34
676.09	1443.82
676.28	1372.14
676.46	1339.37
676.65	1378.28
676.83	1351.66
677.02	1429.48
677.21	1425.39
677.39	1361.90
677.58	1402.86
677.77	1380.33
677.95	1310.70
678.14	1409.00
678.32	1372.14
678.51	1333.23
678.70	1439.72
678.88	1423.34
679.07	1406.95
679.25	1439.72
679.44	1353.71
679.63	1339.37
679.81	1429.48
680.00	1386.47
680.18	1411.05
680.37	1427.43
680.55	1374.19
680.74	1318.89
680.93	1249.26
681.11	1409.00
681.30	1374.19
681.48	1349.61
681.67	1327.08
681.85	1441.77
682.04	1308.65
682.23	1435.63
682.41	1341.42
682.60	1378.28
682.78	1349.61
682.97	1318.89
683.15	1409.00
683.34	1427.43
683.53	1454.06
683.71	1347.56
683.90	1423.34
684.08	1398.76
684.27	1298.41
684.45	1312.75
684.64	1372.14
684.82	1288.17
685.01	1413.10
685.19	1380.33
685.38	1429.48
685.57	1386.47
685.75	1402.86
685.94	1368.04
686.12	1306.60
686.31	1308.65
686.49	1445.87
686.68	1359.85
686.86	1435.63
687.05	1347.56
687.23	1462.25
687.42	1318.89
687.60	1384.43
687.79	1472.49
687.97	1386.47
688.16	1347.56
688.34	1439.72
688.53	1304.56
688.71	1396.71
688.90	1419.24
689.08	1314.80
689.27	1339.37
689.45	1353.71
689.64	1452.01
689.82	1353.71
690.01	1398.76
690.19	1435.63
690.38	1359.85
690.56	1308.65
690.75	1376.24
690.93	1396.71
691.12	1380.33
691.30	1361.90
691.49	1282.03
691.67	1386.47
691.86	1458.15
692.04	1378.28
692.23	1308.65
692.41	1482.73
692.60	1546.22
692.78	1482.73
692.97	1413.10
693.15	1492.97
693.34	1396.71
693.52	1476.59
693.71	1445.87
693.89	1417.19
694.08	1376.24
694.26	1425.39
694.44	1382.38
694.63	1372.14
694.81	1386.47
695.00	1355.76
695.18	1388.52
695.37	1503.21
695.55	1386.47
695.74	1370.09
695.92	1380.33
696.10	1423.34
696.29	1341.42
696.47	1355.76
696.66	1327.08
696.84	1316.84
697.03	1431.53
697.21	1439.72
697.40	1771.49
697.58	1415.15
697.76	1409.00
697.95	1286.12
698.13	1359.85
698.32	1306.60
698.50	1368.04
698.68	1372.14
698.87	1388.52
699.05	1482.73
699.24	1396.71
699.42	1282.03
699.61	1310.70
699.79	1449.96
699.97	1370.09
700.16	1376.24
700.34	1398.76
700.53	1380.33
700.71	1456.11
700.89	1353.71
701.08	1355.76
701.26	1392.62
701.45	1591.27
701.63	1406.95
701.81	1306.60
702.00	1343.47
702.18	1384.43
702.37	1423.34
702.55	1445.87
702.73	1525.74
702.92	1509.35
703.10	1609.70
703.28	1683.43
703.47	1564.65
703.65	1634.28
703.84	1548.26
704.02	1552.36
704.20	1495.02
704.39	1447.91
704.57	1437.67
704.75	1531.88
704.94	1474.54
705.12	1482.73
705.30	1443.82
705.49	1556.46
705.67	1822.69
705.86	3483.59
706.04	9058.17
706.22	16117.51
706.41	19267.29
706.59	22218.41
706.77	23463.58
706.96	19535.57
707.14	13758.25
707.32	11208.53
707.51	9164.66
707.69	8105.86
707.87	7393.17
708.06	6703.00
708.24	6047.65
708.42	5128.11
708.61	4063.17
708.79	3055.57
708.97	2404.32
709.16	2058.21
709.34	1785.83
709.52	1550.31
709.71	1468.39
709.89	1425.39
710.07	1415.15
710.26	1409.00
710.44	1447.91
710.62	1421.29
710.80	1380.33
710.99	1421.29
711.17	1425.39
711.35	1329.13
711.54	1337.32
711.72	1466.35
711.90	1435.63
712.09	1353.71
712.27	1339.37
712.45	1402.86
712.63	1312.75
712.82	1499.11
713.00	1386.47
713.18	1423.34
713.37	1409.00
713.55	1447.91
713.73	1398.76
713.91	1409.00
714.10	1331.18
714.28	1394.67
714.46	1435.63
714.65	1374.19
714.83	1394.67
715.01	1298.41
715.19	1312.75
715.38	1357.80
715.56	1398.76
715.74	1335.28
715.92	1333.23
716.11	1472.49
716.29	1290.22
716.47	1343.47
716.65	1370.09
716.84	1249.26
717.02	1452.01
717.20	1308.65
717.38	1409.00
717.57	1388.52
717.75	1421.29
717.93	1396.71
718.11	1388.52
718.30	1363.95
718.48	1382.38
718.66	1411.05
718.84	1370.09
719.03	1368.04
719.21	1255.40
719.39	1423.34
719.57	1329.13
719.75	1361.90
719.94	1351.66
720.12	1413.10
720.30	1439.72
720.48	1437.67
720.67	1372.14
720.85	1384.43
721.03	1353.71
721.21	1312.75
721.39	1449.96
721.58	1480.68
721.76	1466.35
721.94	1392.62
722.12	1288.17
722.30	1398.76
722.49	1363.95
722.67	1296.36
722.85	1423.34
723.03	1302.51
723.21	1341.42
723.40	1316.84
723.58	1404.91
723.76	1349.61
723.94	1468.39
724.12	1417.19
724.30	1433.58
724.49	1454.06
724.67	1390.57
724.85	1482.73
725.03	1486.83
725.21	1503.21
725.40	1413.10
725.58	1427.43
725.76	1468.39
725.94	1437.67
726.12	1335.28
726.30	1394.67
726.49	1421.29
726.67	1318.89
726.85	1378.28
727.03	1466.35
727.21	1468.39
727.39	1546.22
727.57	2029.54
727.76	3473.36
727.94	4425.66
728.12	4841.40
728.30	5271.47
728.48	5027.76
728.66	4276.16
728.84	3506.12
729.03	3147.73
729.21	2709.46
729.39	2588.63
729.57	2250.72
729.75	2056.16
729.93	1738.73
730.11	1595.37
730.30	1574.89
730.48	1492.97
730.66	1406.95
730.84	1384.43
731.02	1398.76
731.20	1370.09
731.38	1327.08
731.56	1392.62
731.74	1368.04
731.93	1339.37
732.11	1380.33
732.29	1347.56
732.47	1366.00
732.65	1392.62
732.83	1359.85
733.01	1388.52
733.19	1376.24
733.37	1417.19
733.56	1363.95
733.74	1396.71
733.92	1400.81
734.10	1308.65
734.28	1429.48
734.46	1296.36
734.64	1355.76
734.82	1417.19
735.00	1273.84
735.18	1398.76
735.36	1345.52
735.54	1353.71
735.73	1322.99
735.91	1394.67
736.09	1331.18
736.27	1388.52
736.45	1368.04
736.63	1308.65
736.81	1312.75
736.99	1411.05
737.17	1435.63
737.35	1384.43
737.53	1386.47
737.71	1372.14
737.89	1382.38
738.07	1347.56
738.25	1241.07
738.43	1316.84
738.61	1361.90
738.80	1415.15
738.98	1353.71
739.16	1320.94
739.34	1349.61
739.52	1427.43
739.70	1370.09
739.88	1386.47
740.06	1443.82
740.24	1298.41
740.42	1435.63
740.60	1351.66
740.78	1339.37
740.96	1255.40
741.14	1349.61
741.32	1378.28
741.50	1357.80
741.68	1400.81
741.86	1406.95
742.04	1402.86
742.22	1296.36
742.40	1429.48
742.58	1345.52
742.76	1292.27
742.94	1441.77
743.12	1286.12
743.30	1298.41
743.48	1374.19
743.66	1449.96
743.84	1390.57
744.02	1462.25
744.20	1402.86
744.38	1359.85
744.56	1374.19
744.74	1447.91
744.92	1370.09
745.10	1374.19
745.28	1320.94
745.46	1409.00
745.64	1413.10
745.82	1386.47
746.00	1376.24
746.18	1341.42
746.36	1275.88
746.54	1462.25
746.72	1388.52
746.90	1386.47
747.08	1333.23
747.26	1388.52
747.44	1312.75
747.62	1310.70
747.80	1314.80
747.98	1441.77
748.15	1376.24
748.33	1441.77
748.51	1406.95
748.69	1374.19
748.87	1351.66
749.05	1394.67
749.23	1322.99
749.41	1384.43
749.59	1429.48
749.77	1402.86
749.95	1363.95
750.13	1284.08
750.31	1439.72
750.49	1312.75
750.67	1421.29
750.85	1427.43
751.03	1388.52
751.20	1415.15
751.38	1423.34
751.56	1333.23
751.74	1345.52
751.92	1300.46
752.10	1337.32
752.28	1419.24
752.46	1312.75
752.64	1384.43
752.82	1435.63
753.00	1390.57
753.18	1368.04
753.35	1386.47
753.53	1327.08
753.71	1386.47
753.89	1374.19
754.07	1376.24
754.25	1404.91
754.43	1380.33
754.61	1322.99
754.79	1396.71
754.97	1331.18
755.14	1452.01
755.32	1353.71
755.50	1384.43
755.68	1384.43
755.86	1255.40
756.04	1351.66
756.22	1341.42
756.40	1337.32
756.57	1435.63
756.75	1386.47
756.93	1406.95
757.11	1380.33
757.29	1294.32
757.47	1335.28
757.65	1341.42
757.82	1265.64
758.00	1304.56
758.18	1236.97
758.36	1335.28
758.54	1388.52
758.72	1353.71
758.90	1345.52
759.07	1376.24
759.25	1374.19
759.43	1339.37
759.61	1345.52
759.79	1646.57
759.97	1382.38
760.15	1269.74
760.32	1247.21
760.50	1345.52
760.68	1484.78
760.86	1286.12
761.04	1474.54
761.22	1351.66
761.39	1345.52
761.57	1357.80
761.75	1394.67
761.93	1357.80
762.11	1316.84
762.28	1335.28
762.46	1337.32
762.64	1339.37
762.82	1298.41
763.00	1363.95
763.18	1441.77
763.35	1277.93
763.53	1458.15
763.71	1355.76
763.89	1376.24
764.07	1396.71
764.24	1404.91
764.42	1423.34
764.60	1388.52
764.78	1456.11
764.96	1384.43
765.13	1411.05
765.31	1368.04
765.49	1404.91
765.67	1241.07
765.84	1341.42
766.02	1327.08
766.20	1341.42
766.38	1353.71
766.56	1413.10
766.73	1458.15
766.91	1390.57
767.09	1355.76
767.27	1404.91
767.44	1333.23
767.62	1413.10
767.80	1351.66
767.98	1363.95
768.15	1286.12
768.33	1370.09
768.51	1396.71
768.69	1398.76
768.87	1374.19
769.04	1341.42
769.22	1456.11
769.40	1402.86
769.58	1470.44
769.75	1368.04
769.93	1411.05
770.11	1349.61
770.28	1380.33
770.46	1437.67
770.64	1312.75
770.82	1361.90
770.99	1353.71
771.17	1341.42
771.35	1353.71
771.53	1363.95
771.70	1359.85
771.88	1382.38
772.06	1406.95
772.23	1374.19
772.41	1376.24
772.59	1357.80
772.77	1302.51
772.94	1409.00
773.12	1398.76
773.30	1413.10
773.47	1404.91
773.65	1290.22
773.83	1462.25
774.01	1386.47
774.18	1302.51
774.36	1417.19
774.54	1353.71
774.71	1404.91
774.89	1257.45
775.07	1372.14
775.24	1359.85
775.42	1292.27
775.60	1464.30
775.78	1339.37
775.95	1349.61
776.13	1349.61
776.31	1298.41
776.48	1378.28
776.66	1394.67
776.84	1372.14
777.01	1357.80
777.19	1339.37
777.37	1316.84
777.54	1343.47
777.72	1452.01
777.90	1421.29
778.07	1366.00
778.25	1515.50
778.43	1386.47
778.60	1314.80
778.78	1423.34
778.96	1386.47
779.13	1347.56
779.31	1394.67
779.49	1363.95
779.66	1370.09
779.84	1409.00
780.01	1374.19
780.19	1335.28
780.37	1370.09
780.54	1372.14
780.72	1302.51
780.90	1374.19
781.07	1325.04
781.25	1353.71
781.43	1370.09
781.60	1337.32
781.78	1433.58
781.95	1359.85
782.13	1327.08
782.31	1329.13
782.48	1388.52
782.66	1402.86
782.83	1427.43
783.01	1380.33
783.19	1320.94
783.36	1288.17
783.54	1335.28
783.72	1415.15
783.89	1359.85
784.07	1437.67
784.24	1417.19
784.42	1392.62
784.60	1363.95
784.77	1388.52
784.95	1316.84
785.12	1335.28
785.30	1374.19
785.47	1366.00
785.65	1314.80
785.83	1411.05
786.00	1421.29
786.18	1304.56
786.35	1374.19
786.53	1349.61
786.71	1314.80
786.88	1337.32
787.06	1363.95
787.23	1308.65
787.41	1306.60
787.58	1417.19
787.76	1273.84
787.94	1370.09
788.11	1378.28
788.29	1290.22
788.46	1343.47
788.64	1357.80
788.81	1282.03
788.99	1345.52
789.16	1396.71
789.34	1398.76
789.52	1331.18
789.69	1433.58
789.87	1277.93
790.04	1374.19
790.22	1366.00
790.39	1431.53
790.57	1331.18
790.74	1374.19
790.92	1421.29
791.09	1345.52
791.27	1273.84
791.44	1374.19
791.62	1271.79
791.79	1417.19
791.97	1370.09
792.15	1507.30
792.32	1429.48
792.50	1318.89
792.67	1435.63
792.85	1443.82
793.02	1318.89
793.20	1404.91
793.37	1318.89
793.55	1343.47
793.72	1292.27
793.90	1406.95
794.07	1316.84
794.25	1368.04
794.42	1466.35
794.60	1288.17
794.77	1435.63
794.95	1366.00
795.12	1345.52
795.30	1331.18
795.47	1290.22
795.65	1409.00
795.82	1347.56
796.00	1288.17
796.17	1396.71
796.34	1372.14
796.52	1388.52
796.69	1349.61
796.87	1402.86
797.04	1374.19
797.22	1427.43
797.39	1404.91
797.57	1396.71
797.74	1374.19
797.92	1380.33
798.09	1386.47
798.27	1392.62
798.44	1392.62
798.62	1390.57
798.79	1378.28
798.96	1382.38
799.14	1329.13
799.31	1480.68
799.49	1341.42
799.66	1357.80
799.84	1353.71
800.01	1314.80
800.19	1392.62
800.36	1400.81
800.53	1345.52
800.71	1398.76
800.88	1437.67
801.06	1380.33
801.23	1355.76
801.41	1318.89
801.58	1392.62
801.75	1306.60
801.93	1425.39
802.10	1335.28
802.28	1314.80
802.45	1314.80
802.63	1419.24
802.80	1396.71
802.97	1327.08
803.15	1333.23
803.32	1310.70
803.50	1298.41
803.67	1261.55
803.84	1351.66
804.02	1394.67
804.19	1380.33
804.37	1320.94
804.54	1363.95
804.71	1339.37
804.89	1353.71
805.06	1277.93
805.24	1347.56
805.41	1300.46
805.58	1398.76
805.76	1378.28
805.93	1316.84
806.10	1433.58
806.28	1452.01
806.45	1312.75
806.63	1345.52
806.80	1388.52
806.97	1288.17
807.15	1400.81
807.32	1421.29
807.49	1380.33
807.67	1380.33
807.84	1394.67
808.01	1288.17
808.19	1482.73
808.36	1497.07
808.54	1296.36
808.71	1302.51
808.88	1368.04
809.06	1406.95
809.23	1413.10
809.40	1308.65
809.58	1447.91
809.75	1357.80
809.92	1419.24
810.10	1466.35
810.27	1366.00
810.44	1390.57
810.62	1380.33
810.79	1435.63
810.96	1359.85
811.14	1376.24
811.31	1400.81
811.48	1355.76
811.66	1343.47
811.83	1417.19
812.00	1374.19
812.18	1355.76
812.35	1460.20
812.52	1331.18
812.69	1292.27
812.87	1372.14
813.04	1384.43
813.21	1398.76
813.39	1345.52
813.56	1345.52
813.73	1402.86
813.91	1294.32
814.08	1353.71
814.25	1384.43
814.42	1308.65
814.60	1415.15
814.77	1380.33
814.94	1384.43
815.12	1357.80
815.29	1419.24
815.46	1388.52
815.63	1386.47
815.81	1372.14
815.98	1368.04
816.15	1282.03
816.33	1366.00
816.50	1404.91
816.67	1361.90
816.84	1402.86
817.02	1331.18
817.19	1327.08
817.36	1384.43
817.53	1417.19
817.71	1333.23
817.88	1443.82
818.05	1409.00
818.22	1337.32
818.40	1388.52
818.57	1361.90
818.74	1370.09
818.91	1343.47
819.09	1374.19
819.26	1378.28
819.43	1398.76
819.60	1333.23
819.78	1409.00
819.95	1378.28
820.12	1351.66
820.29	1390.57
820.47	1411.05
820.64	1400.81
820.81	1300.46
820.98	1296.36
821.15	1322.99
821.33	1431.53
821.50	1294.32
821.67	1441.77
821.84	1333.23
822.02	1374.19
822.19	1400.81
822.36	1331.18
822.53	1320.94
822.70	1318.89
822.88	1460.20
823.05	1456.11
823.22	1318.89
823.39	1398.76
823.56	1331.18
823.74	1402.86
823.91	1316.84
824.08	1327.08
824.25	1316.84
824.42	1470.44
824.60	1335.28
824.77	1392.62
824.94	1345.52
825.11	1402.86
825.28	1251.31
825.45	1361.90
825.63	1353.71
825.80	1335.28
825.97	1411.05
826.14	1345.52
826.31	1392.62
826.48	1484.78
826.66	1384.43
826.83	1298.41
827.00	1368.04
827.17	1368.04
827.34	1331.18
827.51	1345.52
827.69	1388.52
827.86	1298.41
828.03	1380.33
828.20	1337.32
828.37	1290.22
828.54	1441.77
828.71	1318.89
828.89	1427.43
829.06	1337.32
829.23	1409.00
829.40	1247.21
829.57	1368.04
829.74	1429.48
829.91	1273.84
830.09	1345.52
830.26	1353.71
830.43	1370.09
830.60	1437.67
830.77	1376.24
830.94	1314.80
831.11	1378.28
831.28	1370.09
831.46	1413.10
831.63	1374.19
831.80	1380.33
831.97	1290.22
832.14	1406.95
832.31	1345.52
832.48	1372.14
832.65	1421.29
832.82	1402.86
832.99	1353.71
833.17	1320.94
833.34	1421.29
833.51	1386.47
833.68	1273.84
833.85	1396.71
834.02	1304.56
834.19	1316.84
834.36	1337.32
834.53	1357.80
834.70	1445.87
834.87	1398.76
835.04	1339.37
835.22	1357.80
835.39	1343.47
835.56	1314.80
835.73	1355.76
835.90	1433.58
836.07	1333.23
836.24	1339.37
836.41	1325.04
836.58	1320.94
836.75	1363.95
836.92	1388.52
837.09	1355.76
837.26	1441.77
837.43	1314.80
837.60	1366.00
837.77	1380.33
837.94	1374.19
838.12	1486.83
838.29	1396.71
838.46	1345.52
838.63	1339.37
838.80	1466.35
838.97	1437.67
839.14	1456.11
839.31	1361.90
839.48	1380.33
839.65	1296.36
839.82	1372.14
839.99	1386.47
840.16	1411.05
840.33	1355.76
840.50	1404.91
840.67	1382.38
840.84	1253.36
841.01	1361.90
841.18	1335.28
841.35	1351.66
841.52	1351.66
841.69	1427.43
841.86	1353.71
842.03	1300.46
842.20	1374.19
842.37	1329.13
842.54	1411.05
842.71	1386.47
842.88	1255.40
843.05	1329.13
843.22	1325.04
843.39	1372.14
843.56	1386.47
843.73	1398.76
843.90	1384.43
844.07	1396.71
844.24	1368.04
844.41	1322.99
844.58	1316.84
844.75	1341.42
844.92	1376.24
845.09	1390.57
845.26	1380.33
845.43	1390.57
845.60	1331.18
845.77	1384.43
845.94	1339.37
846.10	1409.00
846.27	1267.69
846.44	1413.10
846.61	1294.32
846.78	1392.62
846.95	1456.11
847.12	1415.15
847.29	1343.47
847.46	1386.47
847.63	1359.85
847.80	1355.76
847.97	1277.93
848.14	1470.44
848.31	1314.80
848.48	1361.90
848.65	1378.28
848.82	1314.80
848.98	1378.28
849.15	1353.71
849.32	1439.72
849.49	1376.24
849.66	1370.09
849.83	1435.63
850.00	1333.23
850.17	1382.38
850.34	1363.95
850.51	1327.08
850.68	1310.70
850.85	1470.44
851.01	1363.95
851.18	1351.66
851.35	1376.24
851.52	1327.08
851.69	1425.39
851.86	1320.94
852.03	1370.09
852.20	1351.66
852.37	1345.52
852.53	1249.26
852.70	1392.62
852.87	1456.11
853.04	1394.67
853.21	1347.56
853.38	1468.39
853.55	1343.47
853.72	1415.15
853.89	1322.99
854.05	1331.18
854.22	1327.08
854.39	1392.62
854.56	1374.19
854.73	1325.04
854.90	1316.84
855.07	1316.84
855.23	1396.71
855.40	1380.33
855.57	1316.84
855.74	1316.84
855.91	1482.73
856.08	1374.19
856.25	1312.75
856.41	1372.14
856.58	1394.67
856.75	1355.76
856.92	1253.36
857.09	1417.19
857.26	1320.94
857.42	1339.37
857.59	1421.29
857.76	1271.79
857.93	1325.04
858.10	1335.28
858.27	1337.32
858.43	1404.91
858.60	1423.34
858.77	1249.26
858.94	1402.86
859.11	1388.52
859.27	1392.62
859.44	1406.95
859.61	1411.05
859.78	1331.18
859.95	1320.94
860.12	1314.80
860.28	1429.48
860.45	1458.15
860.62	1429.48
860.79	1366.00
860.95	1378.28
861.12	1382.38
861.29	1400.81
861.46	1390.57
861.63	1359.85
861.79	1310.70
861.96	1339.37
862.13	1331.18
862.30	1374.19
862.47	1353.71
862.63	1308.65
862.80	1431.53
862.97	1421.29
863.14	1228.78
863.30	1366.00
863.47	1351.66
863.64	1468.39
863.81	1392.62
863.97	1361.90
864.14	1400.81
864.31	1382.38
864.48	1454.06
864.65	1357.80
864.81	1437.67
864.98	1431.53
865.15	1421.29
865.32	1322.99
865.48	1396.71
865.65	1386.47
865.82	1327.08
865.98	1368.04
866.15	1462.25
866.32	1357.80
866.49	1357.80
866.65	1441.77
866.82	1388.52
866.99	1212.40
867.16	1361.90
867.32	1392.62
867.49	1343.47
867.66	1413.10
867.83	1390.57
867.99	1368.04
868.16	1310.70
868.33	1366.00
868.49	1427.43
868.66	1353.71
868.83	1386.47
868.99	1286.12
869.16	1392.62
869.33	1308.65
869.50	1382.38
869.66	1380.33
869.83	1286.12
870.00	1316.84
870.16	1331.18
870.33	1363.95
870.50	1361.90
870.66	1380.33
870.83	1468.39
871.00	1353.71
871.17	1382.38
871.33	1415.15
871.50	1359.85
871.67	1320.94
871.83	1331.18
872.00	1482.73
872.17	1265.64
872.33	1409.00
872.50	1347.56
872.67	1329.13
872.83	1368.04
873.00	1310.70
873.17	1417.19
873.33	1378.28
873.50	1284.08
873.67	1308.65
873.83	1374.19
874.00	1335.28
874.16	1486.83
874.33	1439.72
874.50	1384.43
874.66	1345.52
874.83	1318.89
875.00	1411.05
875.16	1386.47
875.33	1462.25
875.50	1302.51
875.66	1337.32
875.83	1396.71
875.99	1384.43
876.16	1318.89
876.33	1359.85
876.49	1353.71
876.66	1374.19
876.83	1370.09
876.99	1343.47
877.16	1363.95
877.32	1394.67
877.49	1355.76
877.66	1294.32
877.82	1382.38
877.99	1396.71
878.15	1339.37
878.32	1374.19
878.49	1447.91
878.65	1396.71
878.82	1372.14
878.98	1372.14
879.15	1322.99
879.32	1411.05
879.48	1376.24
879.65	1329.13
879.81	1378.28
879.98	1429.48
880.15	1325.04
880.31	1353.71
880.48	1314.80
880.64	1372.14
880.81	1341.42
880.97	1409.00
881.14	1406.95
881.31	1329.13
881.47	1429.48
881.64	1335.28
881.80	1265.64
881.97	1361.90
882.13	1361.90
882.30	1282.03
882.47	1259.50
882.63	1351.66
882.80	1390.57
882.96	1388.52
883.13	1419.24
883.29	1417.19
883.46	1320.94
883.62	1392.62
883.79	1308.65
883.95	1462.25
884.12	1396.71
884.29	1357.80
884.45	1314.80
884.62	1402.86
884.78	1343.47
884.95	1454.06
885.11	1382.38
885.28	1366.00
885.44	1415.15
885.61	1368.04
885.77	1363.95
885.94	1400.81
886.10	1355.76
886.27	1304.56
886.43	1454.06
886.60	1372.14
886.76	1374.19
886.93	1413.10
887.09	1415.15
887.26	1386.47
887.42	1353.71
887.59	1376.24
887.75	1411.05
887.92	1398.76
888.08	1390.57
888.25	1359.85
888.41	1468.39
888.58	1345.52
888.74	1275.88
888.91	1320.94
>>>>>End Processed Spectral Data<<<<<
