SpectraSuite Data File
++++++++++++++++++++++++++++++++++++
Date: Tue May 03 11:24:43 CEST 2016
User: root
Dark Spectrum Present: No
Reference Spectrum Present: No
Number of Sampled Component Spectra: 1
Spectrometers: USB4C02835
Integration Time (usec): 100000 (USB4C02835)
Spectra Averaged: 1 (USB4C02835)
Boxcar Smoothing: 0 (USB4C02835)
Correct for Electrical Dark: No (USB4C02835)
Strobe/Lamp Enabled: No (USB4C02835)
Correct for Detector Non-linearity: No (USB4C02835)
Correct for Stray Light: No (USB4C02835)
Number of Pixels in Processed Spectrum: 3648
>>>>>Begin Processed Spectral Data<<<<<
177.47	1189.87
177.69	1189.87
177.91	1189.87
178.13	1261.55
178.36	1159.15
178.58	1302.51
178.80	1372.14
179.02	1277.93
179.24	1394.67
179.46	1366.00
179.68	1449.96
179.90	1327.08
180.13	1452.01
180.35	1396.71
180.57	1396.71
180.79	1439.72
181.01	1435.63
181.23	1404.91
181.45	1398.76
181.67	1378.28
181.90	1417.19
182.12	1337.32
182.34	1331.18
182.56	1447.91
182.78	1359.85
183.00	1384.43
183.22	1325.04
183.44	1302.51
183.66	1406.95
183.89	1378.28
184.11	1320.94
184.33	1339.37
184.55	1378.28
184.77	1374.19
184.99	1368.04
185.21	1378.28
185.43	1443.82
185.65	1331.18
185.87	1318.89
186.10	1447.91
186.32	1413.10
186.54	1398.76
186.76	1343.47
186.98	1343.47
187.20	1368.04
187.42	1370.09
187.64	1433.58
187.86	1363.95
188.08	1380.33
188.30	1382.38
188.52	1396.71
188.75	1419.24
188.97	1433.58
189.19	1312.75
189.41	1411.05
189.63	1347.56
189.85	1351.66
190.07	1265.64
190.29	1329.13
190.51	1366.00
190.73	1288.17
190.95	1480.68
191.17	1359.85
191.39	1284.08
191.61	1382.38
191.84	1366.00
192.06	1404.91
192.28	1339.37
192.50	1476.59
192.72	1372.14
192.94	1361.90
193.16	1427.43
193.38	1409.00
193.60	1361.90
193.82	1333.23
194.04	1411.05
194.26	1370.09
194.48	1380.33
194.70	1374.19
194.92	1392.62
195.14	1427.43
195.36	1378.28
195.58	1398.76
195.80	1404.91
196.02	1343.47
196.24	1357.80
196.46	1400.81
196.69	1351.66
196.91	1443.82
197.13	1374.19
197.35	1370.09
197.57	1439.72
197.79	1343.47
198.01	1429.48
198.23	1398.76
198.45	1333.23
198.67	1378.28
198.89	1382.38
199.11	1370.09
199.33	1333.23
199.55	1349.61
199.77	1316.84
199.99	1433.58
200.21	1343.47
200.43	1292.27
200.65	1306.60
200.87	1306.60
201.09	1449.96
201.31	1431.53
201.53	1449.96
201.75	1378.28
201.97	1327.08
202.19	1363.95
202.41	1308.65
202.63	1452.01
202.85	1347.56
203.07	1470.44
203.29	1433.58
203.51	1355.76
203.73	1384.43
203.95	1449.96
204.17	1382.38
204.39	1331.18
204.61	1415.15
204.83	1294.32
205.05	1372.14
205.27	1419.24
205.49	1392.62
205.71	1359.85
205.93	1292.27
206.15	1388.52
206.37	1413.10
206.59	1460.20
206.81	1331.18
207.03	1331.18
207.25	1294.32
207.47	1423.34
207.69	1343.47
207.91	1439.72
208.13	1456.11
208.34	1345.52
208.56	1400.81
208.78	1417.19
209.00	1273.84
209.22	1355.76
209.44	1400.81
209.66	1335.28
209.88	1419.24
210.10	1327.08
210.32	1351.66
210.54	1409.00
210.76	1380.33
210.98	1413.10
211.20	1284.08
211.42	1482.73
211.64	1392.62
211.86	1363.95
212.08	1382.38
212.30	1325.04
212.52	1423.34
212.74	1380.33
212.96	1464.30
213.17	1464.30
213.39	1411.05
213.61	1474.54
213.83	1462.25
214.05	1325.04
214.27	1388.52
214.49	1239.02
214.71	1322.99
214.93	1419.24
215.15	1312.75
215.37	1384.43
215.59	1341.42
215.81	1376.24
216.03	1298.41
216.24	1394.67
216.46	1333.23
216.68	1388.52
216.90	1386.47
217.12	1357.80
217.34	1398.76
217.56	1380.33
217.78	1368.04
218.00	1345.52
218.22	1345.52
218.44	1359.85
218.66	1355.76
218.87	1439.72
219.09	1400.81
219.31	1488.87
219.53	1337.32
219.75	1320.94
219.97	1318.89
220.19	1368.04
220.41	1406.95
220.63	1415.15
220.85	1390.57
221.06	1327.08
221.28	1398.76
221.50	1445.87
221.72	1339.37
221.94	1394.67
222.16	1386.47
222.38	1456.11
222.60	1392.62
222.82	1454.06
223.03	1382.38
223.25	1267.69
223.47	1445.87
223.69	1437.67
223.91	1310.70
224.13	1415.15
224.35	1322.99
224.57	1413.10
224.78	1374.19
225.00	1245.16
225.22	1363.95
225.44	1404.91
225.66	1419.24
225.88	1411.05
226.10	1456.11
226.32	1337.32
226.53	1449.96
226.75	1306.60
226.97	1363.95
227.19	1351.66
227.41	1341.42
227.63	1298.41
227.85	1339.37
228.06	1339.37
228.28	1359.85
228.50	1417.19
228.72	1339.37
228.94	1304.56
229.16	1249.26
229.37	1302.51
229.59	1390.57
229.81	1343.47
230.03	1378.28
230.25	1320.94
230.47	1366.00
230.69	1384.43
230.90	1404.91
231.12	1322.99
231.34	1345.52
231.56	1390.57
231.78	1294.32
232.00	1351.66
232.21	1325.04
232.43	1341.42
232.65	1304.56
232.87	1427.43
233.09	1357.80
233.30	1310.70
233.52	1490.92
233.74	1402.86
233.96	1329.13
234.18	1347.56
234.40	1374.19
234.61	1439.72
234.83	1372.14
235.05	1370.09
235.27	1458.15
235.49	1357.80
235.70	1374.19
235.92	1505.26
236.14	1429.48
236.36	1345.52
236.58	1322.99
236.79	1370.09
237.01	1384.43
237.23	1331.18
237.45	1478.63
237.67	1372.14
237.88	1394.67
238.10	1355.76
238.32	1298.41
238.54	1359.85
238.76	1345.52
238.97	1449.96
239.19	1339.37
239.41	1484.78
239.63	1359.85
239.85	1333.23
240.06	1341.42
240.28	1351.66
240.50	1431.53
240.72	1351.66
240.93	1392.62
241.15	1447.91
241.37	1361.90
241.59	1404.91
241.81	1386.47
242.02	1306.60
242.24	1355.76
242.46	1322.99
242.68	1286.12
242.89	1351.66
243.11	1392.62
243.33	1329.13
243.55	1394.67
243.76	1366.00
243.98	1290.22
244.20	1384.43
244.42	1302.51
244.64	1322.99
244.85	1359.85
245.07	1308.65
245.29	1429.48
245.51	1345.52
245.72	1343.47
245.94	1409.00
246.16	1417.19
246.38	1378.28
246.59	1310.70
246.81	1331.18
247.03	1380.33
247.24	1339.37
247.46	1431.53
247.68	1312.75
247.90	1312.75
248.11	1343.47
248.33	1398.76
248.55	1439.72
248.77	1294.32
248.98	1417.19
249.20	1390.57
249.42	1392.62
249.64	1423.34
249.85	1394.67
250.07	1331.18
250.29	1304.56
250.50	1400.81
250.72	1366.00
250.94	1345.52
251.16	1501.16
251.37	1406.95
251.59	1404.91
251.81	1347.56
252.02	1423.34
252.24	1380.33
252.46	1402.86
252.68	1347.56
252.89	1361.90
253.11	1290.22
253.33	1501.16
253.54	1382.38
253.76	1288.17
253.98	1359.85
254.20	1374.19
254.41	1325.04
254.63	1318.89
254.85	1390.57
255.06	1351.66
255.28	1417.19
255.50	1325.04
255.71	1386.47
255.93	1335.28
256.15	1308.65
256.36	1333.23
256.58	1376.24
256.80	1353.71
257.02	1355.76
257.23	1347.56
257.45	1294.32
257.67	1370.09
257.88	1337.32
258.10	1353.71
258.32	1359.85
258.53	1363.95
258.75	1374.19
258.97	1347.56
259.18	1374.19
259.40	1396.71
259.62	1458.15
259.83	1402.86
260.05	1345.52
260.27	1624.04
260.48	1368.04
260.70	1388.52
260.92	1443.82
261.13	1300.46
261.35	1359.85
261.57	1351.66
261.78	1386.47
262.00	1353.71
262.22	1478.63
262.43	1327.08
262.65	1378.28
262.86	1347.56
263.08	1472.49
263.30	1452.01
263.51	1318.89
263.73	1409.00
263.95	1464.30
264.16	1382.38
264.38	1378.28
264.60	1345.52
264.81	1396.71
265.03	1310.70
265.25	1314.80
265.46	1419.24
265.68	1409.00
265.89	1370.09
266.11	1306.60
266.33	1466.35
266.54	1316.84
266.76	1374.19
266.98	1406.95
267.19	1411.05
267.41	1431.53
267.62	1347.56
267.84	1357.80
268.06	1392.62
268.27	1388.52
268.49	1380.33
268.70	1454.06
268.92	1339.37
269.14	1347.56
269.35	1335.28
269.57	1384.43
269.79	1492.97
270.00	1312.75
270.22	1431.53
270.43	1351.66
270.65	1265.64
270.87	1298.41
271.08	1343.47
271.30	1404.91
271.51	1347.56
271.73	1384.43
271.95	1425.39
272.16	1390.57
272.38	1378.28
272.59	1353.71
272.81	1443.82
273.02	1480.68
273.24	1427.43
273.46	1419.24
273.67	1284.08
273.89	1353.71
274.10	1363.95
274.32	1406.95
274.54	1396.71
274.75	1411.05
274.97	1361.90
275.18	1374.19
275.40	1378.28
275.61	1322.99
275.83	1374.19
276.05	1333.23
276.26	1394.67
276.48	1400.81
276.69	1406.95
276.91	1343.47
277.12	1331.18
277.34	1366.00
277.55	1402.86
277.77	1417.19
277.99	1296.36
278.20	1288.17
278.42	1331.18
278.63	1263.60
278.85	1458.15
279.06	1392.62
279.28	1351.66
279.49	1425.39
279.71	1349.61
279.93	1419.24
280.14	1415.15
280.36	1353.71
280.57	1392.62
280.79	1447.91
281.00	1380.33
281.22	1349.61
281.43	1468.39
281.65	1353.71
281.86	1353.71
282.08	1417.19
282.29	1445.87
282.51	1329.13
282.73	1331.18
282.94	1345.52
283.16	1417.19
283.37	1470.44
283.59	1331.18
283.80	1433.58
284.02	1398.76
284.23	1384.43
284.45	1341.42
284.66	1329.13
284.88	1292.27
285.09	1314.80
285.31	1411.05
285.52	1337.32
285.74	1275.88
285.95	1406.95
286.17	1343.47
286.38	1376.24
286.60	1306.60
286.81	1368.04
287.03	1335.28
287.24	1325.04
287.46	1366.00
287.67	1363.95
287.89	1423.34
288.10	1333.23
288.32	1423.34
288.53	1425.39
288.75	1398.76
288.96	1394.67
289.18	1429.48
289.39	1435.63
289.61	1456.11
289.82	1482.73
290.04	1460.20
290.25	1368.04
290.47	1347.56
290.68	1320.94
290.90	1413.10
291.11	1337.32
291.33	1456.11
291.54	1413.10
291.76	1241.07
291.97	1316.84
292.18	1396.71
292.40	1286.12
292.61	1384.43
292.83	1490.92
293.04	1374.19
293.26	1368.04
293.47	1292.27
293.69	1345.52
293.90	1413.10
294.12	1341.42
294.33	1302.51
294.55	1339.37
294.76	1468.39
294.97	1392.62
295.19	1441.77
295.40	1337.32
295.62	1333.23
295.83	1394.67
296.05	1331.18
296.26	1370.09
296.48	1370.09
296.69	1347.56
296.90	1318.89
297.12	1316.84
297.33	1415.15
297.55	1372.14
297.76	1433.58
297.98	1368.04
298.19	1288.17
298.41	1314.80
298.62	1353.71
298.83	1458.15
299.05	1392.62
299.26	1390.57
299.48	1370.09
299.69	1435.63
299.90	1327.08
300.12	1347.56
300.33	1419.24
300.55	1366.00
300.76	1388.52
300.98	1384.43
301.19	1390.57
301.40	1329.13
301.62	1349.61
301.83	1384.43
302.05	1402.86
302.26	1392.62
302.47	1411.05
302.69	1343.47
302.90	1322.99
303.12	1343.47
303.33	1433.58
303.54	1443.82
303.76	1329.13
303.97	1363.95
304.19	1372.14
304.40	1304.56
304.61	1361.90
304.83	1431.53
305.04	1355.76
305.26	1320.94
305.47	1359.85
305.68	1460.20
305.90	1372.14
306.11	1421.29
306.33	1341.42
306.54	1349.61
306.75	1288.17
306.97	1275.88
307.18	1279.98
307.39	1427.43
307.61	1376.24
307.82	1353.71
308.04	1370.09
308.25	1406.95
308.46	1392.62
308.68	1322.99
308.89	1327.08
309.10	1452.01
309.32	1366.00
309.53	1423.34
309.74	1361.90
309.96	1320.94
310.17	1345.52
310.39	1318.89
310.60	1439.72
310.81	1400.81
311.03	1271.79
311.24	1372.14
311.45	1341.42
311.67	1288.17
311.88	1411.05
312.09	1314.80
312.31	1275.88
312.52	1374.19
312.73	1392.62
312.95	1284.08
313.16	1327.08
313.37	1452.01
313.59	1429.48
313.80	1349.61
314.01	1398.76
314.23	1343.47
314.44	1370.09
314.65	1290.22
314.87	1388.52
315.08	1359.85
315.29	1384.43
315.51	1329.13
315.72	1320.94
315.93	1376.24
316.15	1396.71
316.36	1331.18
316.57	1370.09
316.79	1378.28
317.00	1349.61
317.21	1320.94
317.43	1331.18
317.64	1384.43
317.85	1427.43
318.07	1400.81
318.28	1515.50
318.49	1585.13
318.70	1624.04
318.92	1521.64
319.13	1497.07
319.34	1554.41
319.56	1488.87
319.77	1429.48
319.98	1540.07
320.20	1507.30
320.41	1449.96
320.62	1441.77
320.83	1335.28
321.05	1433.58
321.26	1476.59
321.47	1380.33
321.69	1402.86
321.90	1355.76
322.11	1374.19
322.32	1337.32
322.54	1447.91
322.75	1376.24
322.96	1447.91
323.18	1314.80
323.39	1306.60
323.60	1329.13
323.81	1409.00
324.03	1335.28
324.24	1343.47
324.45	1277.93
324.66	1306.60
324.88	1370.09
325.09	1441.77
325.30	1341.42
325.52	1320.94
325.73	1357.80
325.94	1286.12
326.15	1167.34
326.37	1372.14
326.58	1474.54
326.79	1357.80
327.00	1263.60
327.22	1404.91
327.43	1349.61
327.64	1269.74
327.85	1366.00
328.07	1341.42
328.28	1417.19
328.49	1353.71
328.70	1427.43
328.92	1396.71
329.13	1372.14
329.34	1384.43
329.55	1386.47
329.76	1366.00
329.98	1325.04
330.19	1366.00
330.40	1406.95
330.61	1329.13
330.83	1372.14
331.04	1400.81
331.25	1437.67
331.46	1335.28
331.68	1312.75
331.89	1398.76
332.10	1417.19
332.31	1366.00
332.52	1384.43
332.74	1478.63
332.95	1392.62
333.16	1310.70
333.37	1320.94
333.58	1308.65
333.80	1296.36
334.01	1308.65
334.22	1355.76
334.43	1372.14
334.64	1290.22
334.86	1236.97
335.07	1423.34
335.28	1411.05
335.49	1386.47
335.70	1331.18
335.92	1351.66
336.13	1409.00
336.34	1357.80
336.55	1419.24
336.76	1306.60
336.98	1370.09
337.19	1298.41
337.40	1470.44
337.61	1435.63
337.82	1327.08
338.04	1409.00
338.25	1341.42
338.46	1409.00
338.67	1368.04
338.88	1308.65
339.09	1341.42
339.31	1374.19
339.52	1341.42
339.73	1398.76
339.94	1427.43
340.15	1329.13
340.36	1345.52
340.58	1396.71
340.79	1415.15
341.00	1302.51
341.21	1361.90
341.42	1320.94
341.63	1413.10
341.85	1277.93
342.06	1370.09
342.27	1312.75
342.48	1359.85
342.69	1294.32
342.90	1370.09
343.12	1447.91
343.33	1351.66
343.54	1427.43
343.75	1376.24
343.96	1372.14
344.17	1277.93
344.38	1359.85
344.60	1339.37
344.81	1351.66
345.02	1351.66
345.23	1376.24
345.44	1421.29
345.65	1411.05
345.86	1384.43
346.07	1361.90
346.29	1363.95
346.50	1380.33
346.71	1368.04
346.92	1392.62
347.13	1431.53
347.34	1380.33
347.55	1374.19
347.76	1437.67
347.98	1306.60
348.19	1370.09
348.40	1404.91
348.61	1400.81
348.82	1406.95
349.03	1445.87
349.24	1279.98
349.45	1454.06
349.66	1277.93
349.88	1406.95
350.09	1396.71
350.30	1396.71
350.51	1415.15
350.72	1406.95
350.93	1361.90
351.14	1366.00
351.35	1429.48
351.56	1394.67
351.77	1363.95
351.99	1402.86
352.20	1423.34
352.41	1454.06
352.62	1325.04
352.83	1329.13
353.04	1355.76
353.25	1327.08
353.46	1429.48
353.67	1425.39
353.88	1308.65
354.09	1398.76
354.30	1396.71
354.52	1415.15
354.73	1339.37
354.94	1363.95
355.15	1423.34
355.36	1421.29
355.57	1384.43
355.78	1419.24
355.99	1353.71
356.20	1331.18
356.41	1439.72
356.62	1406.95
356.83	1318.89
357.04	1431.53
357.25	1382.38
357.46	1357.80
357.68	1345.52
357.89	1322.99
358.10	1429.48
358.31	1427.43
358.52	1390.57
358.73	1273.84
358.94	1290.22
359.15	1429.48
359.36	1343.47
359.57	1378.28
359.78	1468.39
359.99	1325.04
360.20	1316.84
360.41	1409.00
360.62	1409.00
360.83	1382.38
361.04	1501.16
361.25	1402.86
361.46	1464.30
361.67	1419.24
361.88	1267.69
362.09	1392.62
362.30	1343.47
362.51	1294.32
362.72	1366.00
362.93	1394.67
363.14	1417.19
363.35	1421.29
363.56	1396.71
363.78	1464.30
363.99	1454.06
364.20	1316.84
364.41	1384.43
364.62	1445.87
364.83	1345.52
365.04	1470.44
365.25	1341.42
365.46	1417.19
365.67	1396.71
365.88	1398.76
366.09	1345.52
366.30	1353.71
366.51	1406.95
366.72	1388.52
366.93	1337.32
367.14	1300.46
367.35	1439.72
367.56	1402.86
367.77	1378.28
367.98	1351.66
368.18	1337.32
368.39	1402.86
368.60	1320.94
368.81	1378.28
369.02	1312.75
369.23	1294.32
369.44	1343.47
369.65	1372.14
369.86	1314.80
370.07	1390.57
370.28	1376.24
370.49	1376.24
370.70	1429.48
370.91	1392.62
371.12	1304.56
371.33	1366.00
371.54	1329.13
371.75	1458.15
371.96	1212.40
372.17	1388.52
372.38	1390.57
372.59	1349.61
372.80	1349.61
373.01	1382.38
373.22	1421.29
373.43	1370.09
373.64	1347.56
373.85	1409.00
374.06	1402.86
374.26	1339.37
374.47	1378.28
374.68	1476.59
374.89	1396.71
375.10	1345.52
375.31	1347.56
375.52	1400.81
375.73	1423.34
375.94	1279.98
376.15	1437.67
376.36	1322.99
376.57	1370.09
376.78	1363.95
376.99	1417.19
377.20	1374.19
377.40	1345.52
377.61	1456.11
377.82	1333.23
378.03	1482.73
378.24	1376.24
378.45	1353.71
378.66	1460.20
378.87	1251.31
379.08	1306.60
379.29	1325.04
379.50	1456.11
379.71	1396.71
379.91	1388.52
380.12	1347.56
380.33	1423.34
380.54	1351.66
380.75	1349.61
380.96	1353.71
381.17	1411.05
381.38	1472.49
381.59	1406.95
381.80	1370.09
382.00	1523.69
382.21	1349.61
382.42	1441.77
382.63	1515.50
382.84	1417.19
383.05	1384.43
383.26	1433.58
383.47	1353.71
383.68	1452.01
383.88	1372.14
384.09	1333.23
384.30	1507.30
384.51	1413.10
384.72	1327.08
384.93	1322.99
385.14	1396.71
385.35	1472.49
385.55	1335.28
385.76	1372.14
385.97	1392.62
386.18	1349.61
386.39	1394.67
386.60	1417.19
386.81	1378.28
387.02	1359.85
387.22	1327.08
387.43	1437.67
387.64	1468.39
387.85	2308.06
388.06	5781.42
388.27	9488.24
388.48	11339.60
388.68	12973.88
388.89	13236.02
389.10	10551.14
389.31	9328.50
389.52	8347.52
389.73	7520.14
389.93	6893.46
390.14	6690.71
390.35	6068.13
390.56	5535.66
390.77	4560.83
390.98	3733.45
391.18	2711.51
391.39	2256.86
391.60	1753.06
391.81	1607.66
392.02	1454.06
392.23	1505.26
392.43	1421.29
392.64	1468.39
392.85	1400.81
393.06	1460.20
393.27	1310.70
393.47	1417.19
393.68	1333.23
393.89	1363.95
394.10	1445.87
394.31	1359.85
394.52	1388.52
394.72	1345.52
394.93	1380.33
395.14	1345.52
395.35	1400.81
395.56	1351.66
395.76	1490.92
395.97	1544.17
396.18	1562.60
396.39	1669.09
396.60	1712.10
396.80	1490.92
397.01	1527.78
397.22	1452.01
397.43	1499.11
397.64	1441.77
397.84	1484.78
398.05	1527.78
398.26	1427.43
398.47	1456.11
398.67	1464.30
398.88	1460.20
399.09	1359.85
399.30	1396.71
399.51	1398.76
399.71	1316.84
399.92	1376.24
400.13	1429.48
400.34	1361.90
400.54	1409.00
400.75	1406.95
400.96	1425.39
401.17	1488.87
401.37	1374.19
401.58	1433.58
401.79	1527.78
402.00	1689.57
402.21	1693.67
402.41	1910.75
402.62	1755.11
402.83	1744.87
403.04	1708.01
403.24	1728.49
403.45	1585.13
403.66	1529.83
403.87	1542.12
404.07	1540.07
404.28	1628.14
404.49	1531.88
404.70	1505.26
404.90	1482.73
405.11	1411.05
405.32	1480.68
405.52	1308.65
405.73	1366.00
405.94	1347.56
406.15	1380.33
406.35	1345.52
406.56	1437.67
406.77	1398.76
406.98	1372.14
407.18	1304.56
407.39	1454.06
407.60	1415.15
407.80	1382.38
408.01	1306.60
408.22	1341.42
408.43	1277.93
408.63	1386.47
408.84	1425.39
409.05	1439.72
409.25	1413.10
409.46	1341.42
409.67	1325.04
409.88	1320.94
410.08	1386.47
410.29	1382.38
410.50	1406.95
410.70	1376.24
410.91	1337.32
411.12	1443.82
411.32	1427.43
411.53	1357.80
411.74	1480.68
411.95	1488.87
412.15	1460.20
412.36	1501.16
412.57	1460.20
412.77	1511.40
412.98	1458.15
413.19	1441.77
413.39	1415.15
413.60	1431.53
413.81	1503.21
414.01	1351.66
414.22	1449.96
414.43	1396.71
414.63	1460.20
414.84	1404.91
415.05	1380.33
415.25	1357.80
415.46	1454.06
415.67	1322.99
415.87	1308.65
416.08	1411.05
416.29	1314.80
416.49	1435.63
416.70	1378.28
416.91	1378.28
417.11	1376.24
417.32	1476.59
417.53	1419.24
417.73	1368.04
417.94	1396.71
418.15	1390.57
418.35	1341.42
418.56	1347.56
418.77	1413.10
418.97	1366.00
419.18	1423.34
419.38	1357.80
419.59	1423.34
419.80	1562.60
420.00	1322.99
420.21	1423.34
420.42	1392.62
420.62	1357.80
420.83	1331.18
421.04	1370.09
421.24	1343.47
421.45	1394.67
421.65	1400.81
421.86	1261.55
422.07	1402.86
422.27	1370.09
422.48	1286.12
422.69	1347.56
422.89	1337.32
423.10	1329.13
423.30	1353.71
423.51	1370.09
423.72	1357.80
423.92	1339.37
424.13	1353.71
424.33	1423.34
424.54	1347.56
424.75	1409.00
424.95	1392.62
425.16	1396.71
425.36	1372.14
425.57	1478.63
425.78	1368.04
425.98	1380.33
426.19	1329.13
426.39	1300.46
426.60	1335.28
426.81	1404.91
427.01	1351.66
427.22	1411.05
427.42	1310.70
427.63	1368.04
427.83	1433.58
428.04	1388.52
428.25	1435.63
428.45	1443.82
428.66	1378.28
428.86	1337.32
429.07	1306.60
429.28	1286.12
429.48	1351.66
429.69	1392.62
429.89	1378.28
430.10	1411.05
430.30	1343.47
430.51	1411.05
430.71	1294.32
430.92	1400.81
431.13	1318.89
431.33	1370.09
431.54	1433.58
431.74	1390.57
431.95	1429.48
432.15	1355.76
432.36	1359.85
432.56	1419.24
432.77	1382.38
432.98	1404.91
433.18	1409.00
433.39	1415.15
433.59	1357.80
433.80	1468.39
434.00	1419.24
434.21	1329.13
434.41	1284.08
434.62	1490.92
434.82	1359.85
435.03	1413.10
435.23	1392.62
435.44	1351.66
435.64	1363.95
435.85	1284.08
436.06	1384.43
436.26	1390.57
436.47	1343.47
436.67	1382.38
436.88	1372.14
437.08	1361.90
437.29	1472.49
437.49	1374.19
437.70	1396.71
437.90	1378.28
438.11	1507.30
438.31	1527.78
438.52	1507.30
438.72	1648.61
438.93	1519.59
439.13	1394.67
439.34	1468.39
439.54	1415.15
439.75	1404.91
439.95	1359.85
440.16	1366.00
440.36	1443.82
440.57	1404.91
440.77	1327.08
440.98	1372.14
441.18	1388.52
441.39	1347.56
441.59	1357.80
441.80	1435.63
442.00	1343.47
442.21	1435.63
442.41	1400.81
442.62	1409.00
442.82	1318.89
443.02	1392.62
443.23	1443.82
443.43	1478.63
443.64	1454.06
443.84	1363.95
444.05	1441.77
444.25	1368.04
444.46	1333.23
444.66	1427.43
444.87	1474.54
445.07	1347.56
445.28	1419.24
445.48	1388.52
445.69	1400.81
445.89	1509.35
446.09	1454.06
446.30	2314.20
446.50	3696.58
446.71	4706.23
446.91	5373.87
447.12	5543.85
447.32	4960.18
447.53	4073.41
447.73	3772.36
447.93	3561.42
448.14	3147.73
448.34	3067.86
448.55	2705.37
448.75	2617.30
448.96	2766.81
449.16	2414.56
449.36	2201.57
449.57	1984.48
449.77	1695.72
449.98	1556.46
450.18	1460.20
450.39	1439.72
450.59	1490.92
450.79	1406.95
451.00	1374.19
451.20	1398.76
451.41	1320.94
451.61	1454.06
451.81	1329.13
452.02	1402.86
452.22	1306.60
452.43	1347.56
452.63	1370.09
452.84	1357.80
453.04	1404.91
453.24	1292.27
453.45	1355.76
453.65	1343.47
453.86	1368.04
454.06	1386.47
454.26	1447.91
454.47	1318.89
454.67	1452.01
454.87	1419.24
455.08	1404.91
455.28	1505.26
455.49	1359.85
455.69	1300.46
455.89	1484.78
456.10	1341.42
456.30	1306.60
456.51	1366.00
456.71	1384.43
456.91	1345.52
457.12	1363.95
457.32	1349.61
457.52	1374.19
457.73	1421.29
457.93	1427.43
458.14	1292.27
458.34	1286.12
458.54	1394.67
458.75	1370.09
458.95	1417.19
459.15	1411.05
459.36	1400.81
459.56	1406.95
459.76	1353.71
459.97	1331.18
460.17	1417.19
460.37	1411.05
460.58	1382.38
460.78	1304.56
460.99	1366.00
461.19	1370.09
461.39	1409.00
461.60	1376.24
461.80	1372.14
462.00	1288.17
462.21	1341.42
462.41	1337.32
462.61	1421.29
462.82	1304.56
463.02	1423.34
463.22	1378.28
463.43	1439.72
463.63	1417.19
463.83	1372.14
464.04	1351.66
464.24	1343.47
464.44	1361.90
464.64	1392.62
464.85	1421.29
465.05	1421.29
465.25	1361.90
465.46	1351.66
465.66	1454.06
465.86	1462.25
466.07	1310.70
466.27	1306.60
466.47	1353.71
466.68	1351.66
466.88	1447.91
467.08	1392.62
467.29	1429.48
467.49	1456.11
467.69	1384.43
467.89	1343.47
468.10	1339.37
468.30	1347.56
468.50	1411.05
468.71	1388.52
468.91	1349.61
469.11	1449.96
469.31	1398.76
469.52	1388.52
469.72	1427.43
469.92	1413.10
470.13	1337.32
470.33	1423.34
470.53	1734.63
470.73	2164.70
470.94	2189.28
471.14	2416.60
471.34	2445.27
471.54	2248.67
471.75	2082.78
471.95	1855.46
472.15	1855.46
472.36	1832.93
472.56	1798.12
472.76	1724.39
472.96	1705.96
473.17	1578.98
473.37	1660.90
473.57	1560.55
473.77	1527.78
473.98	1474.54
474.18	1404.91
474.38	1429.48
474.58	1411.05
474.79	1308.65
474.99	1378.28
475.19	1429.48
475.39	1318.89
475.60	1366.00
475.80	1357.80
476.00	1353.71
476.20	1382.38
476.41	1437.67
476.61	1443.82
476.81	1366.00
477.01	1363.95
477.21	1503.21
477.42	1495.02
477.62	1355.76
477.82	1462.25
478.02	1327.08
478.23	1339.37
478.43	1302.51
478.63	1298.41
478.83	1366.00
479.03	1382.38
479.24	1421.29
479.44	1435.63
479.64	1351.66
479.84	1267.69
480.04	1320.94
480.25	1423.34
480.45	1341.42
480.65	1318.89
480.85	1396.71
481.06	1370.09
481.26	1398.76
481.46	1357.80
481.66	1396.71
481.86	1335.28
482.06	1449.96
482.27	1382.38
482.47	1423.34
482.67	1388.52
482.87	1363.95
483.07	1423.34
483.28	1402.86
483.48	1351.66
483.68	1329.13
483.88	1396.71
484.08	1308.65
484.29	1322.99
484.49	1380.33
484.69	1357.80
484.89	1445.87
485.09	1425.39
485.29	1370.09
485.50	1404.91
485.70	1368.04
485.90	1388.52
486.10	1409.00
486.30	1421.29
486.50	1396.71
486.71	1388.52
486.91	1413.10
487.11	1392.62
487.31	1308.65
487.51	1372.14
487.71	1370.09
487.91	1402.86
488.12	1462.25
488.32	1322.99
488.52	1331.18
488.72	1320.94
488.92	1447.91
489.12	1390.57
489.32	1398.76
489.53	1366.00
489.73	1322.99
489.93	1482.73
490.13	1306.60
490.33	1357.80
490.53	1320.94
490.73	1470.44
490.94	1374.19
491.14	1482.73
491.34	1548.26
491.54	2140.13
491.74	2652.12
491.94	2979.79
492.14	3227.60
492.34	2992.08
492.54	2527.19
492.75	2281.44
492.95	2224.09
493.15	2136.03
493.35	2045.92
493.55	2086.88
493.75	1849.32
493.95	1882.08
494.15	1761.25
494.35	1732.58
494.56	1667.05
494.76	1550.31
494.96	1478.63
495.16	1505.26
495.36	1413.10
495.56	1497.07
495.76	1359.85
495.96	1325.04
496.16	1271.79
496.36	1380.33
496.56	1374.19
496.77	1464.30
496.97	1382.38
497.17	1509.35
497.37	1372.14
497.57	1345.52
497.77	1374.19
497.97	1320.94
498.17	1437.67
498.37	1427.43
498.57	1433.58
498.77	1425.39
498.97	1431.53
499.17	1452.01
499.38	1431.53
499.58	1329.13
499.78	1335.28
499.98	1460.20
500.18	1409.00
500.38	1411.05
500.58	1599.46
500.78	2889.68
500.98	5492.65
501.18	6903.70
501.38	7982.98
501.58	8445.82
501.78	7401.36
501.98	5840.81
502.18	5156.79
502.38	4550.59
502.58	4255.68
502.78	3698.63
502.98	3620.81
503.18	3508.17
503.38	3297.23
503.59	2942.93
503.79	2760.66
503.99	2494.43
504.19	2373.60
504.39	2222.05
504.59	2062.30
504.79	1880.04
504.99	1812.45
505.19	1720.29
505.39	1638.38
505.59	1665.00
505.79	1574.89
505.99	1533.93
506.19	1474.54
506.39	1511.40
506.59	1402.86
506.79	1390.57
506.99	1525.74
507.19	1435.63
507.39	1486.83
507.59	1386.47
507.79	1380.33
507.99	1343.47
508.19	1349.61
508.39	1386.47
508.59	1366.00
508.79	1433.58
508.99	1447.91
509.19	1325.04
509.39	1466.35
509.59	1368.04
509.79	1341.42
509.99	1415.15
510.19	1355.76
510.39	1361.90
510.59	1439.72
510.79	1339.37
510.99	1320.94
511.19	1361.90
511.39	1439.72
511.59	1439.72
511.79	1431.53
511.99	1347.56
512.19	1454.06
512.38	1292.27
512.58	1417.19
512.78	1417.19
512.98	1388.52
513.18	1437.67
513.38	1345.52
513.58	1378.28
513.78	1390.57
513.98	1359.85
514.18	1298.41
514.38	1363.95
514.58	1351.66
514.78	1374.19
514.98	1357.80
515.18	1392.62
515.38	1390.57
515.58	1413.10
515.78	1366.00
515.98	1361.90
516.18	1378.28
516.38	1406.95
516.57	1372.14
516.77	1406.95
516.97	1374.19
517.17	1310.70
517.37	1275.88
517.57	1415.15
517.77	1437.67
517.97	1404.91
518.17	1511.40
518.37	1363.95
518.57	1456.11
518.77	1370.09
518.97	1304.56
519.16	1413.10
519.36	1366.00
519.56	1400.81
519.76	1361.90
519.96	1423.34
520.16	1366.00
520.36	1417.19
520.56	1429.48
520.76	1331.18
520.96	1370.09
521.16	1443.82
521.35	1433.58
521.55	1474.54
521.75	1359.85
521.95	1349.61
522.15	1374.19
522.35	1331.18
522.55	1298.41
522.75	1400.81
522.95	1402.86
523.14	1279.98
523.34	1290.22
523.54	1398.76
523.74	1380.33
523.94	1378.28
524.14	1361.90
524.34	1374.19
524.54	1411.05
524.73	1347.56
524.93	1386.47
525.13	1394.67
525.33	1290.22
525.53	1476.59
525.73	1413.10
525.93	1331.18
526.13	1306.60
526.32	1386.47
526.52	1343.47
526.72	1353.71
526.92	1378.28
527.12	1382.38
527.32	1304.56
527.52	1341.42
527.71	1419.24
527.91	1394.67
528.11	1331.18
528.31	1437.67
528.51	1372.14
528.71	1327.08
528.90	1314.80
529.10	1308.65
529.30	1478.63
529.50	1322.99
529.70	1380.33
529.90	1402.86
530.09	1503.21
530.29	1347.56
530.49	1392.62
530.69	1449.96
530.89	1388.52
531.09	1370.09
531.28	1339.37
531.48	1413.10
531.68	1370.09
531.88	1341.42
532.08	1437.67
532.28	1390.57
532.47	1345.52
532.67	1458.15
532.87	1396.71
533.07	1380.33
533.27	1452.01
533.46	1439.72
533.66	1445.87
533.86	1423.34
534.06	1466.35
534.26	1421.29
534.45	1404.91
534.65	1421.29
534.85	1454.06
535.05	1318.89
535.25	1370.09
535.44	1325.04
535.64	1406.95
535.84	1388.52
536.04	1312.75
536.24	1331.18
536.43	1304.56
536.63	1378.28
536.83	1374.19
537.03	1419.24
537.22	1222.64
537.42	1325.04
537.62	1366.00
537.82	1357.80
538.02	1460.20
538.21	1415.15
538.41	1525.74
538.61	1372.14
538.81	1275.88
539.00	1466.35
539.20	1368.04
539.40	1347.56
539.60	1390.57
539.79	1402.86
539.99	1314.80
540.19	1310.70
540.39	1368.04
540.58	1325.04
540.78	1454.06
540.98	1363.95
541.18	1447.91
541.37	1353.71
541.57	1382.38
541.77	1329.13
541.97	1368.04
542.16	1294.32
542.36	1286.12
542.56	1474.54
542.76	1456.11
542.95	1390.57
543.15	1431.53
543.35	1380.33
543.54	1322.99
543.74	1347.56
543.94	1374.19
544.14	1314.80
544.33	1429.48
544.53	1402.86
544.73	1306.60
544.93	1417.19
545.12	1359.85
545.32	1357.80
545.52	1380.33
545.71	1343.47
545.91	1392.62
546.11	1404.91
546.30	1366.00
546.50	1359.85
546.70	1361.90
546.90	1456.11
547.09	1286.12
547.29	1374.19
547.49	1355.76
547.68	1310.70
547.88	1357.80
548.08	1347.56
548.27	1642.47
548.47	1363.95
548.67	1396.71
548.87	1347.56
549.06	1329.13
549.26	1415.15
549.46	1312.75
549.65	1423.34
549.85	1409.00
550.05	1394.67
550.24	1327.08
550.44	1402.86
550.64	1445.87
550.83	1396.71
551.03	1449.96
551.23	1390.57
551.42	1415.15
551.62	1333.23
551.82	1318.89
552.01	1335.28
552.21	1425.39
552.41	1357.80
552.60	1370.09
552.80	1415.15
553.00	1314.80
553.19	1269.74
553.39	1439.72
553.59	1286.12
553.78	1415.15
553.98	1388.52
554.17	1294.32
554.37	1363.95
554.57	1421.29
554.76	1325.04
554.96	1308.65
555.16	1456.11
555.35	1322.99
555.55	1374.19
555.75	1454.06
555.94	1386.47
556.14	1312.75
556.33	1466.35
556.53	1363.95
556.73	1425.39
556.92	1411.05
557.12	1433.58
557.32	1413.10
557.51	1480.68
557.71	1413.10
557.90	1421.29
558.10	1392.62
558.30	1419.24
558.49	1259.50
558.69	1431.53
558.88	1376.24
559.08	1355.76
559.28	1376.24
559.47	1269.74
559.67	1388.52
559.86	1333.23
560.06	1390.57
560.26	1388.52
560.45	1353.71
560.65	1409.00
560.84	1445.87
561.04	1245.16
561.24	1425.39
561.43	1374.19
561.63	1456.11
561.82	1374.19
562.02	1357.80
562.22	1380.33
562.41	1376.24
562.61	1316.84
562.80	1349.61
563.00	1431.53
563.19	1363.95
563.39	1361.90
563.59	1398.76
563.78	1304.56
563.98	1341.42
564.17	1329.13
564.37	1386.47
564.56	1368.04
564.76	1337.32
564.96	1409.00
565.15	1425.39
565.35	1488.87
565.54	1372.14
565.74	1417.19
565.93	1435.63
566.13	1380.33
566.32	1376.24
566.52	1396.71
566.71	1361.90
566.91	1400.81
567.11	1392.62
567.30	1341.42
567.50	1488.87
567.69	1322.99
567.89	1349.61
568.08	1400.81
568.28	1462.25
568.47	1404.91
568.67	1497.07
568.86	1363.95
569.06	1388.52
569.25	1406.95
569.45	1294.32
569.64	1347.56
569.84	1318.89
570.04	1374.19
570.23	1290.22
570.43	1443.82
570.62	1488.87
570.82	1359.85
571.01	1337.32
571.21	1378.28
571.40	1409.00
571.60	1392.62
571.79	1417.19
571.99	1435.63
572.18	1282.03
572.38	1384.43
572.57	1306.60
572.77	1415.15
572.96	1431.53
573.16	1363.95
573.35	1402.86
573.55	1396.71
573.74	1404.91
573.94	1345.52
574.13	1470.44
574.33	1402.86
574.52	1427.43
574.71	1372.14
574.91	1441.77
575.10	1366.00
575.30	1409.00
575.49	1386.47
575.69	1394.67
575.88	1454.06
576.08	1445.87
576.27	1480.68
576.47	1400.81
576.66	1437.67
576.86	1503.21
577.05	1441.77
577.25	1466.35
577.44	1533.93
577.64	1378.28
577.83	1337.32
578.02	1476.59
578.22	1449.96
578.41	1472.49
578.61	1486.83
578.80	1302.51
579.00	1445.87
579.19	1337.32
579.39	1415.15
579.58	1392.62
579.77	1433.58
579.97	1427.43
580.16	1429.48
580.36	1499.11
580.55	1406.95
580.75	1495.02
580.94	1411.05
581.13	1478.63
581.33	1429.48
581.52	1400.81
581.72	1499.11
581.91	1509.35
582.11	1495.02
582.30	1523.69
582.49	1460.20
582.69	1558.50
582.88	1454.06
583.08	1343.47
583.27	1452.01
583.47	1378.28
583.66	1482.73
583.85	1419.24
584.05	1433.58
584.24	1503.21
584.44	1478.63
584.63	1495.02
584.82	1464.30
585.02	1538.02
585.21	1509.35
585.41	1628.14
585.60	1601.51
585.79	1593.32
585.99	1683.43
586.18	1671.14
586.37	1902.56
586.57	2637.78
586.76	7946.12
586.96	24229.52
587.15	41170.32
587.34	52118.76
587.54	59839.60
587.73	59194.49
587.93	44799.32
588.12	33062.41
588.31	26517.10
588.51	22380.20
588.70	19922.64
588.89	18353.90
589.09	17209.08
589.28	15777.55
589.47	14237.48
589.67	12552.00
589.86	10841.95
590.06	8718.20
590.25	6713.24
590.44	5025.72
590.64	3772.36
590.83	2805.72
591.02	2289.63
591.22	2004.96
591.41	1746.92
591.60	1556.46
591.80	1650.66
591.99	1398.76
592.18	1466.35
592.38	1490.92
592.57	1529.83
592.76	1488.87
592.96	1445.87
593.15	1474.54
593.34	1390.57
593.54	1445.87
593.73	1361.90
593.92	1468.39
594.12	1458.15
594.31	1427.43
594.50	1490.92
594.70	1550.31
594.89	1544.17
595.08	1423.34
595.28	1490.92
595.47	1544.17
595.66	1433.58
595.86	1378.28
596.05	1419.24
596.24	1417.19
596.43	1388.52
596.63	1425.39
596.82	1470.44
597.01	1484.78
597.21	1464.30
597.40	1419.24
597.59	1474.54
597.79	1552.36
597.98	1488.87
598.17	1460.20
598.36	1413.10
598.56	1437.67
598.75	1368.04
598.94	1413.10
599.14	1458.15
599.33	1413.10
599.52	1425.39
599.71	1366.00
599.91	1505.26
600.10	1335.28
600.29	1503.21
600.48	1435.63
600.68	1437.67
600.87	1376.24
601.06	1357.80
601.26	1359.85
601.45	1404.91
601.64	1341.42
601.83	1404.91
602.03	1351.66
602.22	1359.85
602.41	1419.24
602.60	1460.20
602.80	1468.39
602.99	1449.96
603.18	1419.24
603.37	1423.34
603.57	1439.72
603.76	1386.47
603.95	1429.48
604.14	1466.35
604.34	1411.05
604.53	1488.87
604.72	1329.13
604.91	1349.61
605.10	1376.24
605.30	1380.33
605.49	1466.35
605.68	1435.63
605.87	1402.86
606.07	1333.23
606.26	1363.95
606.45	1462.25
606.64	1433.58
606.84	1421.29
607.03	1437.67
607.22	1452.01
607.41	1439.72
607.60	1439.72
607.80	1486.83
607.99	1431.53
608.18	1386.47
608.37	1417.19
608.56	1343.47
608.76	1460.20
608.95	1511.40
609.14	1409.00
609.33	1478.63
609.52	1495.02
609.72	1533.93
609.91	1507.30
610.10	1507.30
610.29	1443.82
610.48	1368.04
610.68	1447.91
610.87	1423.34
611.06	1458.15
611.25	1318.89
611.44	1456.11
611.63	1386.47
611.83	1443.82
612.02	1366.00
612.21	1460.20
612.40	1296.36
612.59	1370.09
612.79	1290.22
612.98	1460.20
613.17	1441.77
613.36	1372.14
613.55	1501.16
613.74	1435.63
613.93	1452.01
614.13	1589.22
614.32	1609.70
614.51	1578.98
614.70	1544.17
614.89	1525.74
615.08	1468.39
615.28	1665.00
615.47	1417.19
615.66	1435.63
615.85	1462.25
616.04	1523.69
616.23	1458.15
616.42	1525.74
616.62	1527.78
616.81	1443.82
617.00	1429.48
617.19	1460.20
617.38	1400.81
617.57	1378.28
617.76	1449.96
617.95	1388.52
618.15	1396.71
618.34	1398.76
618.53	1279.98
618.72	1335.28
618.91	1476.59
619.10	1470.44
619.29	1406.95
619.48	1421.29
619.68	1325.04
619.87	1361.90
620.06	1368.04
620.25	1411.05
620.44	1388.52
620.63	1400.81
620.82	1314.80
621.01	1376.24
621.20	1386.47
621.39	1359.85
621.59	1396.71
621.78	1390.57
621.97	1380.33
622.16	1419.24
622.35	1409.00
622.54	1458.15
622.73	1413.10
622.92	1327.08
623.11	1421.29
623.30	1378.28
623.49	1427.43
623.68	1384.43
623.88	1417.19
624.07	1331.18
624.26	1341.42
624.45	1421.29
624.64	1339.37
624.83	1406.95
625.02	1318.89
625.21	1372.14
625.40	1376.24
625.59	1372.14
625.78	1388.52
625.97	1413.10
626.16	1499.11
626.35	1449.96
626.54	1443.82
626.74	1507.30
626.93	1507.30
627.12	1363.95
627.31	1437.67
627.50	1394.67
627.69	1441.77
627.88	1443.82
628.07	1378.28
628.26	1296.36
628.45	1368.04
628.64	1347.56
628.83	1361.90
629.02	1368.04
629.21	1458.15
629.40	1449.96
629.59	1425.39
629.78	1363.95
629.97	1413.10
630.16	1331.18
630.35	1382.38
630.54	1423.34
630.73	1452.01
630.92	1413.10
631.11	1411.05
631.30	1353.71
631.49	1425.39
631.68	1400.81
631.87	1427.43
632.06	1218.54
632.25	1517.54
632.44	1409.00
632.63	1460.20
632.82	1519.59
633.01	1431.53
633.20	1566.70
633.39	1503.21
633.58	1517.54
633.77	1447.91
633.96	1409.00
634.15	1480.68
634.34	1386.47
634.53	1413.10
634.72	1386.47
634.91	1359.85
635.10	1357.80
635.29	1417.19
635.48	1431.53
635.67	1343.47
635.86	1361.90
636.05	1409.00
636.24	1335.28
636.43	1386.47
636.62	1380.33
636.81	1257.45
637.00	1396.71
637.19	1433.58
637.38	1435.63
637.57	1320.94
637.76	1421.29
637.95	1531.88
638.14	1480.68
638.33	1525.74
638.52	1503.21
638.71	1370.09
638.89	1366.00
639.08	1521.64
639.27	1400.81
639.46	1519.59
639.65	1677.29
639.84	1865.70
640.03	1998.82
640.22	2052.06
640.41	2146.27
640.60	1861.60
640.79	1785.83
640.98	1689.57
641.17	1656.81
641.36	1558.50
641.55	1523.69
641.74	1517.54
641.92	1523.69
642.11	1466.35
642.30	1568.74
642.49	1380.33
642.68	1392.62
642.87	1472.49
643.06	1425.39
643.25	1396.71
643.44	1380.33
643.63	1404.91
643.82	1396.71
644.00	1204.21
644.19	1296.36
644.38	1320.94
644.57	1310.70
644.76	1433.58
644.95	1265.64
645.14	1353.71
645.33	1466.35
645.52	1345.52
645.71	1339.37
645.89	1437.67
646.08	1378.28
646.27	1245.16
646.46	1466.35
646.65	1286.12
646.84	1388.52
647.03	1421.29
647.22	1523.69
647.40	1411.05
647.59	1386.47
647.78	1312.75
647.97	1294.32
648.16	1366.00
648.35	1423.34
648.54	1427.43
648.73	1390.57
648.91	1435.63
649.10	1320.94
649.29	1335.28
649.48	1392.62
649.67	1351.66
649.86	1363.95
650.05	1380.33
650.23	1519.59
650.42	1478.63
650.61	1503.21
650.80	1589.22
650.99	1595.37
651.18	1464.30
651.36	1507.30
651.55	1370.09
651.74	1501.16
651.93	1431.53
652.12	1402.86
652.31	1411.05
652.49	1388.52
652.68	1447.91
652.87	1583.08
653.06	1404.91
653.25	1478.63
653.44	1437.67
653.62	1490.92
653.81	1388.52
654.00	1411.05
654.19	1394.67
654.38	1497.07
654.56	1374.19
654.75	1417.19
654.94	1337.32
655.13	1345.52
655.32	1370.09
655.51	1345.52
655.69	1331.18
655.88	1337.32
656.07	1359.85
656.26	1396.71
656.45	1325.04
656.63	1402.86
656.82	1394.67
657.01	1404.91
657.20	1335.28
657.38	1468.39
657.57	1433.58
657.76	1304.56
657.95	1445.87
658.14	1277.93
658.32	1312.75
658.51	1343.47
658.70	1320.94
658.89	1404.91
659.08	1417.19
659.26	1404.91
659.45	1398.76
659.64	1390.57
659.83	1415.15
660.01	1572.84
660.20	1402.86
660.39	1482.73
660.58	1351.66
660.76	1351.66
660.95	1366.00
661.14	1409.00
661.33	1316.84
661.51	1347.56
661.70	1376.24
661.89	1394.67
662.08	1439.72
662.26	1370.09
662.45	1335.28
662.64	1388.52
662.83	1394.67
663.01	1374.19
663.20	1433.58
663.39	1511.40
663.58	1320.94
663.76	1392.62
663.95	1417.19
664.14	1413.10
664.32	1355.76
664.51	1347.56
664.70	1320.94
664.89	1445.87
665.07	1343.47
665.26	1462.25
665.45	1361.90
665.64	1431.53
665.82	1376.24
666.01	1406.95
666.20	1384.43
666.38	1406.95
666.57	1449.96
666.76	1507.30
666.95	1951.71
667.13	4530.11
667.32	11542.35
667.51	18091.76
667.69	21794.48
667.88	24522.38
668.07	24524.43
668.25	18863.84
668.44	13530.93
668.63	11083.61
668.81	9185.14
669.00	8003.46
669.19	7403.41
669.38	6901.65
669.56	6209.44
669.75	5726.12
669.94	4915.12
670.12	4206.53
670.31	3428.30
670.50	2828.24
670.68	2490.33
670.87	2131.94
671.06	1855.46
671.24	1693.67
671.43	1615.85
671.62	1544.17
671.80	1486.83
671.99	1566.70
672.18	1380.33
672.36	1429.48
672.55	1431.53
672.74	1470.44
672.92	1386.47
673.11	1343.47
673.29	1339.37
673.48	1447.91
673.67	1392.62
673.85	1411.05
674.04	1398.76
674.23	1370.09
674.41	1474.54
674.60	1435.63
674.79	1318.89
674.97	1413.10
675.16	1456.11
675.34	1462.25
675.53	1345.52
675.72	1437.67
675.90	1384.43
676.09	1308.65
676.28	1417.19
676.46	1267.69
676.65	1394.67
676.83	1390.57
677.02	1267.69
677.21	1456.11
677.39	1411.05
677.58	1294.32
677.77	1368.04
677.95	1341.42
678.14	1372.14
678.32	1415.15
678.51	1341.42
678.70	1445.87
678.88	1327.08
679.07	1378.28
679.25	1325.04
679.44	1355.76
679.63	1339.37
679.81	1390.57
680.00	1404.91
680.18	1413.10
680.37	1380.33
680.55	1386.47
680.74	1310.70
680.93	1361.90
681.11	1466.35
681.30	1382.38
681.48	1335.28
681.67	1366.00
681.85	1372.14
682.04	1374.19
682.23	1318.89
682.41	1357.80
682.60	1325.04
682.78	1398.76
682.97	1298.41
683.15	1304.56
683.34	1296.36
683.53	1423.34
683.71	1388.52
683.90	1437.67
684.08	1388.52
684.27	1290.22
684.45	1347.56
684.64	1431.53
684.82	1380.33
685.01	1380.33
685.19	1370.09
685.38	1390.57
685.57	1400.81
685.75	1349.61
685.94	1331.18
686.12	1312.75
686.31	1366.00
686.49	1460.20
686.68	1349.61
686.86	1351.66
687.05	1429.48
687.23	1378.28
687.42	1296.36
687.60	1366.00
687.79	1409.00
687.97	1370.09
688.16	1486.83
688.34	1415.15
688.53	1251.31
688.71	1355.76
688.90	1392.62
689.08	1376.24
689.27	1341.42
689.45	1279.98
689.64	1394.67
689.82	1456.11
690.01	1370.09
690.19	1351.66
690.38	1382.38
690.56	1423.34
690.75	1370.09
690.93	1372.14
691.12	1351.66
691.30	1409.00
691.49	1306.60
691.67	1427.43
691.86	1458.15
692.04	1310.70
692.23	1284.08
692.41	1382.38
692.60	1478.63
692.78	1484.78
692.97	1486.83
693.15	1437.67
693.34	1531.88
693.52	1474.54
693.71	1433.58
693.89	1335.28
694.08	1363.95
694.26	1431.53
694.44	1429.48
694.63	1466.35
694.81	1357.80
695.00	1337.32
695.18	1445.87
695.37	1527.78
695.55	1347.56
695.74	1386.47
695.92	1382.38
696.10	1468.39
696.29	1329.13
696.47	1327.08
696.66	1439.72
696.84	1345.52
697.03	1345.52
697.21	1357.80
697.40	1755.11
697.58	1413.10
697.76	1390.57
697.95	1386.47
698.13	1335.28
698.32	1406.95
698.50	1355.76
698.68	1361.90
698.87	1378.28
699.05	1417.19
699.24	1413.10
699.42	1359.85
699.61	1433.58
699.79	1372.14
699.97	1402.86
700.16	1318.89
700.34	1300.46
700.53	1310.70
700.71	1464.30
700.89	1374.19
701.08	1310.70
701.26	1374.19
701.45	1693.67
701.63	1347.56
701.81	1363.95
702.00	1394.67
702.18	1402.86
702.37	1396.71
702.55	1458.15
702.73	1458.15
702.92	1540.07
703.10	1681.38
703.28	1621.99
703.47	1617.90
703.65	1621.99
703.84	1593.32
704.02	1423.34
704.20	1591.27
704.39	1458.15
704.57	1411.05
704.75	1548.26
704.94	1449.96
705.12	1439.72
705.30	1452.01
705.49	1613.80
705.67	1687.53
705.86	3545.03
706.04	9097.08
706.22	16217.86
706.41	19599.06
706.59	22382.25
706.77	23539.35
706.96	20020.94
707.14	13901.61
707.32	11253.59
707.51	9174.90
707.69	8267.65
707.87	7305.10
708.06	6637.47
708.24	6049.70
708.42	5011.38
708.61	4212.67
708.79	3080.14
708.97	2385.88
709.16	2080.74
709.34	1716.20
709.52	1593.32
709.71	1533.93
709.89	1454.06
710.07	1431.53
710.26	1402.86
710.44	1386.47
710.62	1435.63
710.80	1429.48
710.99	1374.19
711.17	1388.52
711.35	1345.52
711.54	1417.19
711.72	1445.87
711.90	1458.15
712.09	1316.84
712.27	1316.84
712.45	1409.00
712.63	1425.39
712.82	1402.86
713.00	1353.71
713.18	1406.95
713.37	1380.33
713.55	1427.43
713.73	1388.52
713.91	1378.28
714.10	1374.19
714.28	1341.42
714.46	1355.76
714.65	1310.70
714.83	1419.24
715.01	1329.13
715.19	1341.42
715.38	1310.70
715.56	1376.24
715.74	1429.48
715.92	1290.22
716.11	1433.58
716.29	1357.80
716.47	1284.08
716.65	1390.57
716.84	1300.46
717.02	1445.87
717.20	1368.04
717.38	1425.39
717.57	1396.71
717.75	1433.58
717.93	1474.54
718.11	1376.24
718.30	1310.70
718.48	1353.71
718.66	1314.80
718.84	1368.04
719.03	1382.38
719.21	1378.28
719.39	1406.95
719.57	1382.38
719.75	1394.67
719.94	1339.37
720.12	1400.81
720.30	1396.71
720.48	1495.02
720.67	1347.56
720.85	1359.85
721.03	1329.13
721.21	1337.32
721.39	1470.44
721.58	1363.95
721.76	1380.33
721.94	1454.06
722.12	1421.29
722.30	1474.54
722.49	1345.52
722.67	1355.76
722.85	1390.57
723.03	1351.66
723.21	1347.56
723.40	1294.32
723.58	1361.90
723.76	1318.89
723.94	1425.39
724.12	1441.77
724.30	1484.78
724.49	1478.63
724.67	1390.57
724.85	1527.78
725.03	1495.02
725.21	1445.87
725.40	1396.71
725.58	1353.71
725.76	1404.91
725.94	1357.80
726.12	1452.01
726.30	1353.71
726.49	1417.19
726.67	1359.85
726.85	1374.19
727.03	1380.33
727.21	1572.84
727.39	1505.26
727.57	2033.63
727.76	3375.05
727.94	4454.33
728.12	5046.20
728.30	5382.06
728.48	5248.94
728.66	4370.37
728.84	3391.44
729.03	3137.49
729.21	2885.59
729.39	2586.58
729.57	2324.44
729.75	1968.10
729.93	1834.98
730.11	1581.03
730.30	1523.69
730.48	1468.39
730.66	1478.63
730.84	1484.78
731.02	1398.76
731.20	1413.10
731.38	1359.85
731.56	1382.38
731.74	1339.37
731.93	1380.33
732.11	1282.03
732.29	1374.19
732.47	1382.38
732.65	1363.95
732.83	1411.05
733.01	1429.48
733.19	1331.18
733.37	1357.80
733.56	1341.42
733.74	1306.60
733.92	1441.77
734.10	1327.08
734.28	1474.54
734.46	1343.47
734.64	1300.46
734.82	1353.71
735.00	1388.52
735.18	1361.90
735.36	1404.91
735.54	1347.56
735.73	1380.33
735.91	1341.42
736.09	1427.43
736.27	1404.91
736.45	1363.95
736.63	1320.94
736.81	1376.24
736.99	1388.52
737.17	1394.67
737.35	1331.18
737.53	1417.19
737.71	1368.04
737.89	1396.71
738.07	1380.33
738.25	1329.13
738.43	1320.94
738.61	1374.19
738.80	1331.18
738.98	1378.28
739.16	1390.57
739.34	1355.76
739.52	1398.76
739.70	1382.38
739.88	1302.51
740.06	1398.76
740.24	1347.56
740.42	1345.52
740.60	1376.24
740.78	1298.41
740.96	1363.95
741.14	1351.66
741.32	1431.53
741.50	1259.50
741.68	1480.68
741.86	1376.24
742.04	1392.62
742.22	1284.08
742.40	1419.24
742.58	1370.09
742.76	1390.57
742.94	1460.20
743.12	1327.08
743.30	1390.57
743.48	1406.95
743.66	1327.08
743.84	1447.91
744.02	1415.15
744.20	1388.52
744.38	1390.57
744.56	1318.89
744.74	1439.72
744.92	1400.81
745.10	1445.87
745.28	1429.48
745.46	1392.62
745.64	1361.90
745.82	1382.38
746.00	1347.56
746.18	1378.28
746.36	1327.08
746.54	1392.62
746.72	1460.20
746.90	1327.08
747.08	1462.25
747.26	1353.71
747.44	1384.43
747.62	1409.00
747.80	1382.38
747.98	1421.29
748.15	1406.95
748.33	1380.33
748.51	1368.04
748.69	1361.90
748.87	1421.29
749.05	1361.90
749.23	1445.87
749.41	1431.53
749.59	1361.90
749.77	1413.10
749.95	1353.71
750.13	1351.66
750.31	1394.67
750.49	1390.57
750.67	1445.87
750.85	1454.06
751.03	1337.32
751.20	1382.38
751.38	1402.86
751.56	1398.76
751.74	1425.39
751.92	1331.18
752.10	1259.50
752.28	1406.95
752.46	1318.89
752.64	1380.33
752.82	1396.71
753.00	1462.25
753.18	1374.19
753.35	1359.85
753.53	1456.11
753.71	1337.32
753.89	1402.86
754.07	1443.82
754.25	1331.18
754.43	1318.89
754.61	1302.51
754.79	1411.05
754.97	1333.23
755.14	1406.95
755.32	1347.56
755.50	1308.65
755.68	1402.86
755.86	1320.94
756.04	1374.19
756.22	1298.41
756.40	1466.35
756.57	1503.21
756.75	1396.71
756.93	1429.48
757.11	1402.86
757.29	1322.99
757.47	1339.37
757.65	1355.76
757.82	1286.12
758.00	1368.04
758.18	1357.80
758.36	1335.28
758.54	1394.67
758.72	1300.46
758.90	1386.47
759.07	1335.28
759.25	1333.23
759.43	1417.19
759.61	1351.66
759.79	1683.43
759.97	1449.96
760.15	1310.70
760.32	1372.14
760.50	1380.33
760.68	1470.44
760.86	1294.32
761.04	1386.47
761.22	1386.47
761.39	1349.61
761.57	1392.62
761.75	1417.19
761.93	1351.66
762.11	1351.66
762.28	1290.22
762.46	1380.33
762.64	1320.94
762.82	1337.32
763.00	1339.37
763.18	1458.15
763.35	1308.65
763.53	1329.13
763.71	1417.19
763.89	1382.38
764.07	1466.35
764.24	1394.67
764.42	1402.86
764.60	1382.38
764.78	1449.96
764.96	1380.33
765.13	1349.61
765.31	1394.67
765.49	1417.19
765.67	1296.36
765.84	1337.32
766.02	1331.18
766.20	1372.14
766.38	1409.00
766.56	1331.18
766.73	1363.95
766.91	1376.24
767.09	1394.67
767.27	1325.04
767.44	1353.71
767.62	1363.95
767.80	1312.75
767.98	1380.33
768.15	1384.43
768.33	1427.43
768.51	1312.75
768.69	1378.28
768.87	1353.71
769.04	1341.42
769.22	1476.59
769.40	1472.49
769.58	1445.87
769.75	1466.35
769.93	1394.67
770.11	1314.80
770.28	1421.29
770.46	1368.04
770.64	1443.82
770.82	1357.80
770.99	1361.90
771.17	1349.61
771.35	1335.28
771.53	1388.52
771.70	1378.28
771.88	1378.28
772.06	1310.70
772.23	1329.13
772.41	1392.62
772.59	1413.10
772.77	1335.28
772.94	1366.00
773.12	1384.43
773.30	1357.80
773.47	1413.10
773.65	1322.99
773.83	1456.11
774.01	1376.24
774.18	1265.64
774.36	1314.80
774.54	1292.27
774.71	1339.37
774.89	1351.66
775.07	1296.36
775.24	1331.18
775.42	1390.57
775.60	1462.25
775.78	1329.13
775.95	1380.33
776.13	1269.74
776.31	1183.73
776.48	1398.76
776.66	1419.24
776.84	1384.43
777.01	1351.66
777.19	1406.95
777.37	1320.94
777.54	1421.29
777.72	1402.86
777.90	1411.05
778.07	1314.80
778.25	1564.65
778.43	1378.28
778.60	1353.71
778.78	1441.77
778.96	1382.38
779.13	1312.75
779.31	1478.63
779.49	1376.24
779.66	1421.29
779.84	1490.92
780.01	1372.14
780.19	1337.32
780.37	1339.37
780.54	1304.56
780.72	1394.67
780.90	1388.52
781.07	1396.71
781.25	1376.24
781.43	1452.01
781.60	1343.47
781.78	1355.76
781.95	1370.09
782.13	1345.52
782.31	1368.04
782.48	1290.22
782.66	1394.67
782.83	1384.43
783.01	1314.80
783.19	1435.63
783.36	1421.29
783.54	1343.47
783.72	1390.57
783.89	1302.51
784.07	1386.47
784.24	1380.33
784.42	1452.01
784.60	1384.43
784.77	1437.67
784.95	1290.22
785.12	1368.04
785.30	1372.14
785.47	1339.37
785.65	1322.99
785.83	1429.48
786.00	1380.33
786.18	1402.86
786.35	1394.67
786.53	1390.57
786.71	1386.47
786.88	1370.09
787.06	1372.14
787.23	1386.47
787.41	1282.03
787.58	1478.63
787.76	1390.57
787.94	1406.95
788.11	1361.90
788.29	1335.28
788.46	1394.67
788.64	1406.95
788.81	1341.42
788.99	1341.42
789.16	1314.80
789.34	1353.71
789.52	1347.56
789.69	1325.04
789.87	1265.64
790.04	1392.62
790.22	1368.04
790.39	1402.86
790.57	1300.46
790.74	1329.13
790.92	1368.04
791.09	1327.08
791.27	1300.46
791.44	1415.15
791.62	1388.52
791.79	1339.37
791.97	1386.47
792.15	1486.83
792.32	1417.19
792.50	1382.38
792.67	1460.20
792.85	1370.09
793.02	1316.84
793.20	1437.67
793.37	1290.22
793.55	1411.05
793.72	1263.60
793.90	1351.66
794.07	1386.47
794.25	1353.71
794.42	1382.38
794.60	1345.52
794.77	1337.32
794.95	1449.96
795.12	1347.56
795.30	1351.66
795.47	1302.51
795.65	1452.01
795.82	1368.04
796.00	1343.47
796.17	1374.19
796.34	1406.95
796.52	1359.85
796.69	1413.10
796.87	1382.38
797.04	1378.28
797.22	1419.24
797.39	1357.80
797.57	1372.14
797.74	1355.76
797.92	1386.47
798.09	1380.33
798.27	1353.71
798.44	1435.63
798.62	1298.41
798.79	1466.35
798.96	1372.14
799.14	1282.03
799.31	1486.83
799.49	1361.90
799.66	1294.32
799.84	1325.04
800.01	1335.28
800.19	1361.90
800.36	1302.51
800.53	1357.80
800.71	1339.37
800.88	1402.86
801.06	1409.00
801.23	1320.94
801.41	1368.04
801.58	1318.89
801.75	1372.14
801.93	1425.39
802.10	1349.61
802.28	1366.00
802.45	1378.28
802.63	1409.00
802.80	1419.24
802.97	1376.24
803.15	1347.56
803.32	1368.04
803.50	1322.99
803.67	1331.18
803.84	1345.52
804.02	1351.66
804.19	1376.24
804.37	1288.17
804.54	1370.09
804.71	1421.29
804.89	1320.94
805.06	1390.57
805.24	1288.17
805.41	1318.89
805.58	1337.32
805.76	1396.71
805.93	1386.47
806.10	1370.09
806.28	1368.04
806.45	1427.43
806.63	1406.95
806.80	1376.24
806.97	1320.94
807.15	1320.94
807.32	1380.33
807.49	1382.38
807.67	1322.99
807.84	1394.67
808.01	1298.41
808.19	1501.16
808.36	1486.83
808.54	1296.36
808.71	1347.56
808.88	1329.13
809.06	1460.20
809.23	1417.19
809.40	1392.62
809.58	1322.99
809.75	1400.81
809.92	1366.00
810.10	1406.95
810.27	1353.71
810.44	1359.85
810.62	1372.14
810.79	1351.66
810.96	1304.56
811.14	1339.37
811.31	1378.28
811.48	1368.04
811.66	1329.13
811.83	1400.81
812.00	1404.91
812.18	1392.62
812.35	1462.25
812.52	1359.85
812.69	1425.39
812.87	1396.71
813.04	1279.98
813.21	1357.80
813.39	1325.04
813.56	1308.65
813.73	1392.62
813.91	1271.79
814.08	1357.80
814.25	1290.22
814.42	1386.47
814.60	1339.37
814.77	1363.95
814.94	1394.67
815.12	1380.33
815.29	1406.95
815.46	1322.99
815.63	1331.18
815.81	1359.85
815.98	1327.08
816.15	1370.09
816.33	1320.94
816.50	1394.67
816.67	1333.23
816.84	1396.71
817.02	1325.04
817.19	1316.84
817.36	1466.35
817.53	1331.18
817.71	1320.94
817.88	1361.90
818.05	1445.87
818.22	1380.33
818.40	1376.24
818.57	1347.56
818.74	1314.80
818.91	1394.67
819.09	1361.90
819.26	1372.14
819.43	1277.93
819.60	1427.43
819.78	1361.90
819.95	1476.59
820.12	1228.78
820.29	1384.43
820.47	1413.10
820.64	1343.47
820.81	1325.04
820.98	1386.47
821.15	1359.85
821.33	1398.76
821.50	1271.79
821.67	1355.76
821.84	1310.70
822.02	1417.19
822.19	1370.09
822.36	1390.57
822.53	1390.57
822.70	1347.56
822.88	1394.67
823.05	1394.67
823.22	1396.71
823.39	1386.47
823.56	1380.33
823.74	1419.24
823.91	1372.14
824.08	1329.13
824.25	1353.71
824.42	1400.81
824.60	1345.52
824.77	1322.99
824.94	1353.71
825.11	1359.85
825.28	1345.52
825.45	1370.09
825.63	1341.42
825.80	1394.67
825.97	1439.72
826.14	1314.80
826.31	1421.29
826.48	1406.95
826.66	1304.56
826.83	1329.13
827.00	1361.90
827.17	1310.70
827.34	1370.09
827.51	1378.28
827.69	1472.49
827.86	1353.71
828.03	1347.56
828.20	1325.04
828.37	1351.66
828.54	1384.43
828.71	1310.70
828.89	1421.29
829.06	1363.95
829.23	1449.96
829.40	1355.76
829.57	1372.14
829.74	1392.62
829.91	1325.04
830.09	1353.71
830.26	1390.57
830.43	1460.20
830.60	1378.28
830.77	1331.18
830.94	1380.33
831.11	1378.28
831.28	1325.04
831.46	1398.76
831.63	1374.19
831.80	1359.85
831.97	1343.47
832.14	1351.66
832.31	1380.33
832.48	1382.38
832.65	1378.28
832.82	1411.05
832.99	1398.76
833.17	1271.79
833.34	1445.87
833.51	1421.29
833.68	1236.97
833.85	1382.38
834.02	1318.89
834.19	1267.69
834.36	1388.52
834.53	1314.80
834.70	1390.57
834.87	1382.38
835.04	1308.65
835.22	1312.75
835.39	1320.94
835.56	1439.72
835.73	1382.38
835.90	1347.56
836.07	1304.56
836.24	1384.43
836.41	1355.76
836.58	1380.33
836.75	1380.33
836.92	1419.24
837.09	1427.43
837.26	1398.76
837.43	1376.24
837.60	1409.00
837.77	1357.80
837.94	1415.15
838.12	1435.63
838.29	1439.72
838.46	1355.76
838.63	1390.57
838.80	1419.24
838.97	1380.33
839.14	1333.23
839.31	1382.38
839.48	1314.80
839.65	1306.60
839.82	1404.91
839.99	1351.66
840.16	1368.04
840.33	1396.71
840.50	1351.66
840.67	1290.22
840.84	1277.93
841.01	1382.38
841.18	1382.38
841.35	1337.32
841.52	1417.19
841.69	1419.24
841.86	1294.32
842.03	1308.65
842.20	1464.30
842.37	1341.42
842.54	1306.60
842.71	1331.18
842.88	1314.80
843.05	1333.23
843.22	1329.13
843.39	1372.14
843.56	1392.62
843.73	1400.81
843.90	1349.61
844.07	1329.13
844.24	1353.71
844.41	1396.71
844.58	1394.67
844.75	1417.19
844.92	1366.00
845.09	1372.14
845.26	1355.76
845.43	1380.33
845.60	1345.52
845.77	1380.33
845.94	1413.10
846.10	1335.28
846.27	1286.12
846.44	1294.32
846.61	1429.48
846.78	1382.38
846.95	1402.86
847.12	1398.76
847.29	1402.86
847.46	1232.88
847.63	1374.19
847.80	1335.28
847.97	1406.95
848.14	1404.91
848.31	1265.64
848.48	1282.03
848.65	1392.62
848.82	1388.52
848.98	1361.90
849.15	1366.00
849.32	1404.91
849.49	1409.00
849.66	1388.52
849.83	1349.61
850.00	1337.32
850.17	1433.58
850.34	1349.61
850.51	1343.47
850.68	1310.70
850.85	1435.63
851.01	1386.47
851.18	1361.90
851.35	1361.90
851.52	1374.19
851.69	1443.82
851.86	1322.99
852.03	1310.70
852.20	1331.18
852.37	1333.23
852.53	1282.03
852.70	1296.36
852.87	1366.00
853.04	1339.37
853.21	1392.62
853.38	1409.00
853.55	1429.48
853.72	1390.57
853.89	1304.56
854.05	1273.84
854.22	1292.27
854.39	1316.84
854.56	1404.91
854.73	1462.25
854.90	1316.84
855.07	1409.00
855.23	1411.05
855.40	1413.10
855.57	1298.41
855.74	1263.60
855.91	1505.26
856.08	1355.76
856.25	1302.51
856.41	1308.65
856.58	1415.15
856.75	1386.47
856.92	1230.83
857.09	1396.71
857.26	1308.65
857.42	1443.82
857.59	1372.14
857.76	1331.18
857.93	1394.67
858.10	1372.14
858.27	1271.79
858.43	1386.47
858.60	1269.74
858.77	1308.65
858.94	1325.04
859.11	1363.95
859.27	1325.04
859.44	1392.62
859.61	1458.15
859.78	1341.42
859.95	1376.24
860.12	1439.72
860.28	1384.43
860.45	1370.09
860.62	1329.13
860.79	1392.62
860.95	1378.28
861.12	1312.75
861.29	1308.65
861.46	1259.50
861.63	1310.70
861.79	1363.95
861.96	1351.66
862.13	1378.28
862.30	1437.67
862.47	1304.56
862.63	1361.90
862.80	1484.78
862.97	1347.56
863.14	1378.28
863.30	1343.47
863.47	1396.71
863.64	1441.77
863.81	1427.43
863.97	1267.69
864.14	1394.67
864.31	1368.04
864.48	1347.56
864.65	1452.01
864.81	1384.43
864.98	1427.43
865.15	1427.43
865.32	1400.81
865.48	1425.39
865.65	1378.28
865.82	1275.88
865.98	1449.96
866.15	1398.76
866.32	1394.67
866.49	1378.28
866.65	1388.52
866.82	1335.28
866.99	1419.24
867.16	1411.05
867.32	1384.43
867.49	1345.52
867.66	1355.76
867.83	1347.56
867.99	1288.17
868.16	1368.04
868.33	1267.69
868.49	1363.95
868.66	1331.18
868.83	1361.90
868.99	1333.23
869.16	1347.56
869.33	1431.53
869.50	1425.39
869.66	1284.08
869.83	1376.24
870.00	1333.23
870.16	1370.09
870.33	1333.23
870.50	1406.95
870.66	1341.42
870.83	1478.63
871.00	1353.71
871.17	1372.14
871.33	1363.95
871.50	1384.43
871.67	1368.04
871.83	1327.08
872.00	1478.63
872.17	1345.52
872.33	1392.62
872.50	1345.52
872.67	1392.62
872.83	1363.95
873.00	1388.52
873.17	1406.95
873.33	1392.62
873.50	1349.61
873.67	1435.63
873.83	1361.90
874.00	1357.80
874.16	1394.67
874.33	1392.62
874.50	1318.89
874.66	1439.72
874.83	1398.76
875.00	1460.20
875.16	1345.52
875.33	1343.47
875.50	1288.17
875.66	1351.66
875.83	1376.24
875.99	1441.77
876.16	1347.56
876.33	1333.23
876.49	1345.52
876.66	1347.56
876.83	1335.28
876.99	1372.14
877.16	1388.52
877.32	1380.33
877.49	1380.33
877.66	1429.48
877.82	1392.62
877.99	1310.70
878.15	1345.52
878.32	1357.80
878.49	1378.28
878.65	1322.99
878.82	1386.47
878.98	1384.43
879.15	1417.19
879.32	1361.90
879.48	1454.06
879.65	1361.90
879.81	1396.71
879.98	1357.80
880.15	1351.66
880.31	1376.24
880.48	1355.76
880.64	1445.87
880.81	1431.53
880.97	1382.38
881.14	1415.15
881.31	1320.94
881.47	1470.44
881.64	1339.37
881.80	1378.28
881.97	1406.95
882.13	1333.23
882.30	1284.08
882.47	1380.33
882.63	1269.74
882.80	1304.56
882.96	1314.80
883.13	1417.19
883.29	1314.80
883.46	1368.04
883.62	1456.11
883.79	1351.66
883.95	1341.42
884.12	1355.76
884.29	1370.09
884.45	1345.52
884.62	1417.19
884.78	1363.95
884.95	1396.71
885.11	1322.99
885.28	1443.82
885.44	1355.76
885.61	1386.47
885.77	1357.80
885.94	1353.71
886.10	1359.85
886.27	1282.03
886.43	1392.62
886.60	1476.59
886.76	1357.80
886.93	1351.66
887.09	1396.71
887.26	1333.23
887.42	1382.38
887.59	1460.20
887.75	1486.83
887.92	1404.91
888.08	1394.67
888.25	1406.95
888.41	1388.52
888.58	1411.05
888.74	1304.56
888.91	1322.99
>>>>>End Processed Spectral Data<<<<<
