SpectraSuite Data File
++++++++++++++++++++++++++++++++++++
Date: Tue May 03 11:24:48 CEST 2016
User: root
Dark Spectrum Present: No
Reference Spectrum Present: No
Number of Sampled Component Spectra: 1
Spectrometers: USB4C02835
Integration Time (usec): 100000 (USB4C02835)
Spectra Averaged: 1 (USB4C02835)
Boxcar Smoothing: 0 (USB4C02835)
Correct for Electrical Dark: No (USB4C02835)
Strobe/Lamp Enabled: No (USB4C02835)
Correct for Detector Non-linearity: No (USB4C02835)
Correct for Stray Light: No (USB4C02835)
Number of Pixels in Processed Spectrum: 3648
>>>>>Begin Processed Spectral Data<<<<<
177.47	1214.45
177.69	1214.45
177.91	1214.45
178.13	1177.58
178.36	1155.05
178.58	1339.37
178.80	1386.47
179.02	1327.08
179.24	1359.85
179.46	1411.05
179.68	1443.82
179.90	1357.80
180.13	1335.28
180.35	1333.23
180.57	1411.05
180.79	1404.91
181.01	1376.24
181.23	1431.53
181.45	1339.37
181.67	1366.00
181.90	1368.04
182.12	1380.33
182.34	1277.93
182.56	1386.47
182.78	1445.87
183.00	1374.19
183.22	1413.10
183.44	1275.88
183.66	1398.76
183.89	1345.52
184.11	1312.75
184.33	1384.43
184.55	1400.81
184.77	1363.95
184.99	1314.80
185.21	1378.28
185.43	1435.63
185.65	1310.70
185.87	1363.95
186.10	1419.24
186.32	1511.40
186.54	1335.28
186.76	1384.43
186.98	1351.66
187.20	1351.66
187.42	1310.70
187.64	1374.19
187.86	1394.67
188.08	1363.95
188.30	1294.32
188.52	1372.14
188.75	1441.77
188.97	1406.95
189.19	1415.15
189.41	1337.32
189.63	1368.04
189.85	1277.93
190.07	1331.18
190.29	1349.61
190.51	1398.76
190.73	1357.80
190.95	1378.28
191.17	1398.76
191.39	1284.08
191.61	1279.98
191.84	1355.76
192.06	1433.58
192.28	1253.36
192.50	1466.35
192.72	1386.47
192.94	1417.19
193.16	1441.77
193.38	1411.05
193.60	1355.76
193.82	1322.99
194.04	1417.19
194.26	1415.15
194.48	1425.39
194.70	1366.00
194.92	1243.12
195.14	1390.57
195.36	1288.17
195.58	1331.18
195.80	1347.56
196.02	1335.28
196.24	1368.04
196.46	1443.82
196.69	1292.27
196.91	1441.77
197.13	1409.00
197.35	1300.46
197.57	1370.09
197.79	1382.38
198.01	1396.71
198.23	1370.09
198.45	1386.47
198.67	1386.47
198.89	1427.43
199.11	1339.37
199.33	1298.41
199.55	1253.36
199.77	1374.19
199.99	1437.67
200.21	1312.75
200.43	1384.43
200.65	1310.70
200.87	1316.84
201.09	1421.29
201.31	1337.32
201.53	1363.95
201.75	1386.47
201.97	1423.34
202.19	1366.00
202.41	1402.86
202.63	1431.53
202.85	1345.52
203.07	1341.42
203.29	1306.60
203.51	1363.95
203.73	1396.71
203.95	1517.54
204.17	1433.58
204.39	1417.19
204.61	1374.19
204.83	1341.42
205.05	1427.43
205.27	1431.53
205.49	1449.96
205.71	1359.85
205.93	1306.60
206.15	1345.52
206.37	1372.14
206.59	1443.82
206.81	1327.08
207.03	1351.66
207.25	1355.76
207.47	1441.77
207.69	1327.08
207.91	1345.52
208.13	1417.19
208.34	1335.28
208.56	1343.47
208.78	1421.29
209.00	1406.95
209.22	1374.19
209.44	1378.28
209.66	1388.52
209.88	1366.00
210.10	1417.19
210.32	1425.39
210.54	1398.76
210.76	1439.72
210.98	1458.15
211.20	1312.75
211.42	1443.82
211.64	1376.24
211.86	1415.15
212.08	1409.00
212.30	1419.24
212.52	1392.62
212.74	1402.86
212.96	1390.57
213.17	1413.10
213.39	1423.34
213.61	1322.99
213.83	1413.10
214.05	1374.19
214.27	1357.80
214.49	1300.46
214.71	1359.85
214.93	1413.10
215.15	1349.61
215.37	1380.33
215.59	1298.41
215.81	1409.00
216.03	1384.43
216.24	1366.00
216.46	1368.04
216.68	1429.48
216.90	1388.52
217.12	1425.39
217.34	1368.04
217.56	1363.95
217.78	1372.14
218.00	1427.43
218.22	1400.81
218.44	1308.65
218.66	1419.24
218.87	1443.82
219.09	1363.95
219.31	1368.04
219.53	1374.19
219.75	1318.89
219.97	1445.87
220.19	1366.00
220.41	1359.85
220.63	1404.91
220.85	1398.76
221.06	1437.67
221.28	1413.10
221.50	1386.47
221.72	1406.95
221.94	1347.56
222.16	1347.56
222.38	1402.86
222.60	1361.90
222.82	1357.80
223.03	1329.13
223.25	1325.04
223.47	1368.04
223.69	1492.97
223.91	1402.86
224.13	1421.29
224.35	1372.14
224.57	1431.53
224.78	1376.24
225.00	1345.52
225.22	1452.01
225.44	1396.71
225.66	1402.86
225.88	1339.37
226.10	1454.06
226.32	1355.76
226.53	1382.38
226.75	1423.34
226.97	1396.71
227.19	1347.56
227.41	1406.95
227.63	1406.95
227.85	1300.46
228.06	1298.41
228.28	1337.32
228.50	1447.91
228.72	1337.32
228.94	1411.05
229.16	1298.41
229.37	1339.37
229.59	1363.95
229.81	1341.42
230.03	1366.00
230.25	1275.88
230.47	1372.14
230.69	1306.60
230.90	1351.66
231.12	1288.17
231.34	1372.14
231.56	1423.34
231.78	1275.88
232.00	1439.72
232.21	1413.10
232.43	1376.24
232.65	1359.85
232.87	1380.33
233.09	1370.09
233.30	1394.67
233.52	1419.24
233.74	1388.52
233.96	1351.66
234.18	1384.43
234.40	1404.91
234.61	1394.67
234.83	1347.56
235.05	1335.28
235.27	1501.16
235.49	1447.91
235.70	1380.33
235.92	1470.44
236.14	1388.52
236.36	1449.96
236.58	1335.28
236.79	1478.63
237.01	1347.56
237.23	1349.61
237.45	1478.63
237.67	1337.32
237.88	1345.52
238.10	1427.43
238.32	1341.42
238.54	1396.71
238.76	1353.71
238.97	1376.24
239.19	1366.00
239.41	1466.35
239.63	1349.61
239.85	1372.14
240.06	1318.89
240.28	1404.91
240.50	1439.72
240.72	1286.12
240.93	1355.76
241.15	1468.39
241.37	1452.01
241.59	1372.14
241.81	1413.10
242.02	1312.75
242.24	1417.19
242.46	1355.76
242.68	1413.10
242.89	1402.86
243.11	1433.58
243.33	1345.52
243.55	1370.09
243.76	1363.95
243.98	1312.75
244.20	1431.53
244.42	1347.56
244.64	1402.86
244.85	1304.56
245.07	1341.42
245.29	1357.80
245.51	1310.70
245.72	1361.90
245.94	1378.28
246.16	1384.43
246.38	1400.81
246.59	1361.90
246.81	1368.04
247.03	1382.38
247.24	1234.93
247.46	1394.67
247.68	1386.47
247.90	1337.32
248.11	1363.95
248.33	1404.91
248.55	1390.57
248.77	1378.28
248.98	1421.29
249.20	1474.54
249.42	1443.82
249.64	1415.15
249.85	1386.47
250.07	1343.47
250.29	1460.20
250.50	1384.43
250.72	1271.79
250.94	1372.14
251.16	1423.34
251.37	1419.24
251.59	1355.76
251.81	1374.19
252.02	1353.71
252.24	1314.80
252.46	1411.05
252.68	1343.47
252.89	1277.93
253.11	1394.67
253.33	1474.54
253.54	1423.34
253.76	1357.80
253.98	1333.23
254.20	1335.28
254.41	1208.30
254.63	1343.47
254.85	1236.97
255.06	1284.08
255.28	1345.52
255.50	1286.12
255.71	1322.99
255.93	1386.47
256.15	1322.99
256.36	1361.90
256.58	1329.13
256.80	1392.62
257.02	1359.85
257.23	1396.71
257.45	1363.95
257.67	1380.33
257.88	1378.28
258.10	1423.34
258.32	1429.48
258.53	1351.66
258.75	1384.43
258.97	1308.65
259.18	1302.51
259.40	1366.00
259.62	1378.28
259.83	1347.56
260.05	1363.95
260.27	1544.17
260.48	1388.52
260.70	1327.08
260.92	1351.66
261.13	1361.90
261.35	1339.37
261.57	1378.28
261.78	1257.45
262.00	1329.13
262.22	1392.62
262.43	1304.56
262.65	1325.04
262.86	1374.19
263.08	1413.10
263.30	1359.85
263.51	1296.36
263.73	1421.29
263.95	1472.49
264.16	1327.08
264.38	1335.28
264.60	1437.67
264.81	1310.70
265.03	1359.85
265.25	1363.95
265.46	1398.76
265.68	1390.57
265.89	1363.95
266.11	1271.79
266.33	1441.77
266.54	1316.84
266.76	1372.14
266.98	1288.17
267.19	1544.17
267.41	1415.15
267.62	1335.28
267.84	1290.22
268.06	1378.28
268.27	1318.89
268.49	1411.05
268.70	1400.81
268.92	1306.60
269.14	1376.24
269.35	1368.04
269.57	1343.47
269.79	1388.52
270.00	1370.09
270.22	1402.86
270.43	1298.41
270.65	1282.03
270.87	1404.91
271.08	1396.71
271.30	1306.60
271.51	1372.14
271.73	1370.09
271.95	1415.15
272.16	1394.67
272.38	1423.34
272.59	1380.33
272.81	1376.24
273.02	1363.95
273.24	1374.19
273.46	1417.19
273.67	1322.99
273.89	1384.43
274.10	1331.18
274.32	1501.16
274.54	1419.24
274.75	1376.24
274.97	1345.52
275.18	1402.86
275.40	1370.09
275.61	1413.10
275.83	1443.82
276.05	1296.36
276.26	1322.99
276.48	1400.81
276.69	1363.95
276.91	1325.04
277.12	1468.39
277.34	1363.95
277.55	1449.96
277.77	1337.32
277.99	1351.66
278.20	1312.75
278.42	1312.75
278.63	1366.00
278.85	1341.42
279.06	1421.29
279.28	1384.43
279.49	1366.00
279.71	1394.67
279.93	1378.28
280.14	1394.67
280.36	1390.57
280.57	1437.67
280.79	1466.35
281.00	1296.36
281.22	1415.15
281.43	1353.71
281.65	1331.18
281.86	1335.28
282.08	1380.33
282.29	1386.47
282.51	1347.56
282.73	1361.90
282.94	1259.50
283.16	1384.43
283.37	1402.86
283.59	1417.19
283.80	1347.56
284.02	1372.14
284.23	1353.71
284.45	1322.99
284.66	1384.43
284.88	1421.29
285.09	1355.76
285.31	1441.77
285.52	1400.81
285.74	1341.42
285.95	1411.05
286.17	1411.05
286.38	1355.76
286.60	1325.04
286.81	1341.42
287.03	1390.57
287.24	1400.81
287.46	1378.28
287.67	1374.19
287.89	1402.86
288.10	1388.52
288.32	1394.67
288.53	1433.58
288.75	1366.00
288.96	1396.71
289.18	1314.80
289.39	1404.91
289.61	1372.14
289.82	1409.00
290.04	1454.06
290.25	1325.04
290.47	1359.85
290.68	1380.33
290.90	1392.62
291.11	1398.76
291.33	1427.43
291.54	1347.56
291.76	1427.43
291.97	1388.52
292.18	1404.91
292.40	1351.66
292.61	1355.76
292.83	1460.20
293.04	1394.67
293.26	1329.13
293.47	1294.32
293.69	1312.75
293.90	1384.43
294.12	1417.19
294.33	1359.85
294.55	1386.47
294.76	1394.67
294.97	1413.10
295.19	1400.81
295.40	1380.33
295.62	1386.47
295.83	1435.63
296.05	1347.56
296.26	1460.20
296.48	1419.24
296.69	1376.24
296.90	1378.28
297.12	1361.90
297.33	1404.91
297.55	1376.24
297.76	1429.48
297.98	1355.76
298.19	1384.43
298.41	1304.56
298.62	1415.15
298.83	1384.43
299.05	1343.47
299.26	1275.88
299.48	1341.42
299.69	1411.05
299.90	1378.28
300.12	1271.79
300.33	1345.52
300.55	1290.22
300.76	1382.38
300.98	1339.37
301.19	1406.95
301.40	1392.62
301.62	1351.66
301.83	1308.65
302.05	1271.79
302.26	1400.81
302.47	1361.90
302.69	1312.75
302.90	1269.74
303.12	1302.51
303.33	1456.11
303.54	1439.72
303.76	1347.56
303.97	1413.10
304.19	1447.91
304.40	1267.69
304.61	1304.56
304.83	1443.82
305.04	1382.38
305.26	1372.14
305.47	1376.24
305.68	1298.41
305.90	1341.42
306.11	1384.43
306.33	1347.56
306.54	1279.98
306.75	1347.56
306.97	1327.08
307.18	1302.51
307.39	1351.66
307.61	1386.47
307.82	1349.61
308.04	1439.72
308.25	1351.66
308.46	1400.81
308.68	1345.52
308.89	1417.19
309.10	1363.95
309.32	1366.00
309.53	1343.47
309.74	1329.13
309.96	1343.47
310.17	1486.83
310.39	1294.32
310.60	1425.39
310.81	1382.38
311.03	1335.28
311.24	1486.83
311.45	1376.24
311.67	1404.91
311.88	1396.71
312.09	1347.56
312.31	1347.56
312.52	1443.82
312.73	1409.00
312.95	1310.70
313.16	1288.17
313.37	1464.30
313.59	1372.14
313.80	1419.24
314.01	1433.58
314.23	1312.75
314.44	1390.57
314.65	1427.43
314.87	1322.99
315.08	1361.90
315.29	1361.90
315.51	1304.56
315.72	1331.18
315.93	1458.15
316.15	1380.33
316.36	1363.95
316.57	1265.64
316.79	1372.14
317.00	1310.70
317.21	1370.09
317.43	1353.71
317.64	1355.76
317.85	1445.87
318.07	1478.63
318.28	1439.72
318.49	1562.60
318.70	1628.14
318.92	1554.41
319.13	1458.15
319.34	1533.93
319.56	1490.92
319.77	1476.59
319.98	1468.39
320.20	1523.69
320.41	1427.43
320.62	1452.01
320.83	1347.56
321.05	1472.49
321.26	1370.09
321.47	1452.01
321.69	1435.63
321.90	1320.94
322.11	1290.22
322.32	1351.66
322.54	1439.72
322.75	1396.71
322.96	1419.24
323.18	1251.31
323.39	1355.76
323.60	1359.85
323.81	1363.95
324.03	1345.52
324.24	1333.23
324.45	1349.61
324.66	1361.90
324.88	1449.96
325.09	1476.59
325.30	1363.95
325.52	1347.56
325.73	1417.19
325.94	1359.85
326.15	1361.90
326.37	1294.32
326.58	1443.82
326.79	1490.92
327.00	1302.51
327.22	1409.00
327.43	1335.28
327.64	1351.66
327.85	1345.52
328.07	1361.90
328.28	1396.71
328.49	1361.90
328.70	1304.56
328.92	1392.62
329.13	1351.66
329.34	1411.05
329.55	1462.25
329.76	1347.56
329.98	1394.67
330.19	1339.37
330.40	1394.67
330.61	1429.48
330.83	1366.00
331.04	1327.08
331.25	1413.10
331.46	1279.98
331.68	1314.80
331.89	1419.24
332.10	1337.32
332.31	1378.28
332.52	1343.47
332.74	1409.00
332.95	1345.52
333.16	1378.28
333.37	1374.19
333.58	1429.48
333.80	1415.15
334.01	1253.36
334.22	1337.32
334.43	1310.70
334.64	1363.95
334.86	1339.37
335.07	1337.32
335.28	1462.25
335.49	1347.56
335.70	1335.28
335.92	1392.62
336.13	1443.82
336.34	1376.24
336.55	1380.33
336.76	1386.47
336.98	1388.52
337.19	1363.95
337.40	1372.14
337.61	1441.77
337.82	1370.09
338.04	1384.43
338.25	1294.32
338.46	1429.48
338.67	1343.47
338.88	1363.95
339.09	1413.10
339.31	1370.09
339.52	1347.56
339.73	1351.66
339.94	1343.47
340.15	1370.09
340.36	1396.71
340.58	1314.80
340.79	1335.28
341.00	1304.56
341.21	1380.33
341.42	1460.20
341.63	1333.23
341.85	1368.04
342.06	1386.47
342.27	1390.57
342.48	1394.67
342.69	1224.69
342.90	1372.14
343.12	1390.57
343.33	1347.56
343.54	1396.71
343.75	1394.67
343.96	1304.56
344.17	1300.46
344.38	1363.95
344.60	1398.76
344.81	1294.32
345.02	1394.67
345.23	1396.71
345.44	1521.64
345.65	1437.67
345.86	1460.20
346.07	1378.28
346.29	1380.33
346.50	1370.09
346.71	1445.87
346.92	1361.90
347.13	1517.54
347.34	1331.18
347.55	1394.67
347.76	1374.19
347.98	1312.75
348.19	1361.90
348.40	1384.43
348.61	1347.56
348.82	1390.57
349.03	1368.04
349.24	1353.71
349.45	1454.06
349.66	1300.46
349.88	1335.28
350.09	1413.10
350.30	1445.87
350.51	1359.85
350.72	1423.34
350.93	1370.09
351.14	1329.13
351.35	1423.34
351.56	1347.56
351.77	1347.56
351.99	1355.76
352.20	1456.11
352.41	1370.09
352.62	1347.56
352.83	1421.29
353.04	1390.57
353.25	1388.52
353.46	1429.48
353.67	1322.99
353.88	1271.79
354.09	1361.90
354.30	1374.19
354.52	1361.90
354.73	1429.48
354.94	1341.42
355.15	1320.94
355.36	1439.72
355.57	1445.87
355.78	1384.43
355.99	1310.70
356.20	1419.24
356.41	1404.91
356.62	1419.24
356.83	1343.47
357.04	1515.50
357.25	1282.03
357.46	1423.34
357.68	1277.93
357.89	1343.47
358.10	1384.43
358.31	1372.14
358.52	1400.81
358.73	1353.71
358.94	1288.17
359.15	1384.43
359.36	1423.34
359.57	1339.37
359.78	1355.76
359.99	1392.62
360.20	1372.14
360.41	1388.52
360.62	1402.86
360.83	1437.67
361.04	1386.47
361.25	1398.76
361.46	1456.11
361.67	1366.00
361.88	1347.56
362.09	1370.09
362.30	1380.33
362.51	1349.61
362.72	1376.24
362.93	1347.56
363.14	1433.58
363.35	1394.67
363.56	1347.56
363.78	1378.28
363.99	1415.15
364.20	1306.60
364.41	1394.67
364.62	1413.10
364.83	1370.09
365.04	1415.15
365.25	1322.99
365.46	1505.26
365.67	1304.56
365.88	1378.28
366.09	1310.70
366.30	1292.27
366.51	1314.80
366.72	1402.86
366.93	1398.76
367.14	1484.78
367.35	1396.71
367.56	1349.61
367.77	1439.72
367.98	1316.84
368.18	1423.34
368.39	1366.00
368.60	1318.89
368.81	1425.39
369.02	1308.65
369.23	1392.62
369.44	1320.94
369.65	1347.56
369.86	1445.87
370.07	1337.32
370.28	1359.85
370.49	1425.39
370.70	1517.54
370.91	1374.19
371.12	1320.94
371.33	1374.19
371.54	1413.10
371.75	1394.67
371.96	1265.64
372.17	1388.52
372.38	1392.62
372.59	1402.86
372.80	1376.24
373.01	1433.58
373.22	1347.56
373.43	1357.80
373.64	1333.23
373.85	1310.70
374.06	1488.87
374.26	1386.47
374.47	1392.62
374.68	1421.29
374.89	1349.61
375.10	1361.90
375.31	1390.57
375.52	1441.77
375.73	1449.96
375.94	1345.52
376.15	1445.87
376.36	1318.89
376.57	1314.80
376.78	1419.24
376.99	1355.76
377.20	1339.37
377.40	1382.38
377.61	1435.63
377.82	1402.86
378.03	1380.33
378.24	1386.47
378.45	1402.86
378.66	1363.95
378.87	1314.80
379.08	1327.08
379.29	1421.29
379.50	1345.52
379.71	1380.33
379.91	1402.86
380.12	1312.75
380.33	1411.05
380.54	1353.71
380.75	1361.90
380.96	1394.67
381.17	1464.30
381.38	1380.33
381.59	1427.43
381.80	1411.05
382.00	1452.01
382.21	1404.91
382.42	1449.96
382.63	1517.54
382.84	1376.24
383.05	1433.58
383.26	1454.06
383.47	1380.33
383.68	1368.04
383.88	1474.54
384.09	1400.81
384.30	1486.83
384.51	1368.04
384.72	1374.19
384.93	1372.14
385.14	1368.04
385.35	1470.44
385.55	1382.38
385.76	1441.77
385.97	1441.77
386.18	1388.52
386.39	1380.33
386.60	1357.80
386.81	1406.95
387.02	1452.01
387.22	1388.52
387.43	1495.02
387.64	1513.45
387.85	2246.62
388.06	5738.41
388.27	9490.29
388.48	11401.04
388.68	13160.25
388.89	13436.72
389.10	10583.90
389.31	9258.87
389.52	8179.59
389.73	7321.49
389.93	7016.34
390.14	6500.25
390.35	6197.15
390.56	5531.56
390.77	4497.34
390.98	3475.40
391.18	2951.12
391.39	2107.36
391.60	1699.81
391.81	1562.60
392.02	1431.53
392.23	1488.87
392.43	1329.13
392.64	1402.86
392.85	1363.95
393.06	1374.19
393.27	1353.71
393.47	1400.81
393.68	1443.82
393.89	1304.56
394.10	1411.05
394.31	1355.76
394.52	1361.90
394.72	1347.56
394.93	1427.43
395.14	1343.47
395.35	1431.53
395.56	1396.71
395.76	1519.59
395.97	1587.18
396.18	1615.85
396.39	1558.50
396.60	1695.72
396.80	1497.07
397.01	1466.35
397.22	1593.32
397.43	1435.63
397.64	1482.73
397.84	1517.54
398.05	1476.59
398.26	1501.16
398.47	1466.35
398.67	1456.11
398.88	1474.54
399.09	1347.56
399.30	1314.80
399.51	1374.19
399.71	1290.22
399.92	1329.13
400.13	1452.01
400.34	1396.71
400.54	1314.80
400.75	1411.05
400.96	1390.57
401.17	1359.85
401.37	1425.39
401.58	1384.43
401.79	1585.13
402.00	1675.24
402.21	1732.58
402.41	1785.83
402.62	1785.83
402.83	1744.87
403.04	1675.24
403.24	1722.34
403.45	1599.46
403.66	1576.94
403.87	1503.21
404.07	1619.94
404.28	1566.70
404.49	1540.07
404.70	1476.59
404.90	1406.95
405.11	1447.91
405.32	1368.04
405.52	1374.19
405.73	1322.99
405.94	1277.93
406.15	1425.39
406.35	1382.38
406.56	1361.90
406.77	1396.71
406.98	1345.52
407.18	1347.56
407.39	1417.19
407.60	1400.81
407.80	1378.28
408.01	1404.91
408.22	1406.95
408.43	1316.84
408.63	1363.95
408.84	1406.95
409.05	1411.05
409.25	1400.81
409.46	1325.04
409.67	1363.95
409.88	1329.13
410.08	1363.95
410.29	1396.71
410.50	1355.76
410.70	1462.25
410.91	1363.95
411.12	1363.95
411.32	1370.09
411.53	1449.96
411.74	1404.91
411.95	1466.35
412.15	1492.97
412.36	1492.97
412.57	1335.28
412.77	1484.78
412.98	1445.87
413.19	1368.04
413.39	1425.39
413.60	1468.39
413.81	1404.91
414.01	1394.67
414.22	1382.38
414.43	1402.86
414.63	1380.33
414.84	1357.80
415.05	1347.56
415.25	1370.09
415.46	1402.86
415.67	1339.37
415.87	1482.73
416.08	1411.05
416.29	1345.52
416.49	1482.73
416.70	1402.86
416.91	1413.10
417.11	1390.57
417.32	1392.62
417.53	1472.49
417.73	1312.75
417.94	1368.04
418.15	1394.67
418.35	1363.95
418.56	1355.76
418.77	1466.35
418.97	1335.28
419.18	1388.52
419.38	1296.36
419.59	1390.57
419.80	1435.63
420.00	1376.24
420.21	1347.56
420.42	1449.96
420.62	1411.05
420.83	1341.42
421.04	1353.71
421.24	1351.66
421.45	1417.19
421.65	1378.28
421.86	1376.24
422.07	1370.09
422.27	1325.04
422.48	1445.87
422.69	1263.60
422.89	1357.80
423.10	1337.32
423.30	1380.33
423.51	1443.82
423.72	1355.76
423.92	1378.28
424.13	1331.18
424.33	1331.18
424.54	1361.90
424.75	1400.81
424.95	1427.43
425.16	1423.34
425.36	1341.42
425.57	1380.33
425.78	1386.47
425.98	1452.01
426.19	1409.00
426.39	1298.41
426.60	1376.24
426.81	1443.82
427.01	1322.99
427.22	1337.32
427.42	1458.15
427.63	1380.33
427.83	1368.04
428.04	1431.53
428.25	1374.19
428.45	1404.91
428.66	1402.86
428.86	1347.56
429.07	1396.71
429.28	1394.67
429.48	1394.67
429.69	1380.33
429.89	1400.81
430.10	1331.18
430.30	1384.43
430.51	1384.43
430.71	1316.84
430.92	1411.05
431.13	1359.85
431.33	1331.18
431.54	1359.85
431.74	1482.73
431.95	1456.11
432.15	1357.80
432.36	1390.57
432.56	1320.94
432.77	1468.39
432.98	1468.39
433.18	1318.89
433.39	1372.14
433.59	1355.76
433.80	1363.95
434.00	1470.44
434.21	1404.91
434.41	1269.74
434.62	1406.95
434.82	1298.41
435.03	1312.75
435.23	1359.85
435.44	1347.56
435.64	1378.28
435.85	1353.71
436.06	1359.85
436.26	1429.48
436.47	1357.80
436.67	1353.71
436.88	1318.89
437.08	1443.82
437.29	1431.53
437.49	1421.29
437.70	1437.67
437.90	1449.96
438.11	1531.88
438.31	1423.34
438.52	1546.22
438.72	1570.79
438.93	1554.41
439.13	1486.83
439.34	1572.84
439.54	1394.67
439.75	1390.57
439.95	1523.69
440.16	1409.00
440.36	1482.73
440.57	1374.19
440.77	1470.44
440.98	1421.29
441.18	1404.91
441.39	1417.19
441.59	1361.90
441.80	1454.06
442.00	1337.32
442.21	1441.77
442.41	1363.95
442.62	1409.00
442.82	1304.56
443.02	1370.09
443.23	1370.09
443.43	1359.85
443.64	1394.67
443.84	1413.10
444.05	1509.35
444.25	1368.04
444.46	1343.47
444.66	1456.11
444.87	1445.87
445.07	1347.56
445.28	1357.80
445.48	1476.59
445.69	1419.24
445.89	1503.21
446.09	1517.54
446.30	2295.77
446.50	3682.25
446.71	4702.14
446.91	5418.93
447.12	5388.21
447.32	5078.96
447.53	4298.69
447.73	3739.59
447.93	3540.94
448.14	3239.89
448.34	3051.47
448.55	2838.48
448.75	2809.81
448.96	2666.46
449.16	2408.41
449.36	2207.71
449.57	1949.67
449.77	1677.29
449.98	1554.41
450.18	1480.68
450.39	1503.21
450.59	1402.86
450.79	1404.91
451.00	1376.24
451.20	1392.62
451.41	1433.58
451.61	1398.76
451.81	1374.19
452.02	1302.51
452.22	1402.86
452.43	1294.32
452.63	1402.86
452.84	1411.05
453.04	1337.32
453.24	1384.43
453.45	1316.84
453.65	1413.10
453.86	1462.25
454.06	1402.86
454.26	1406.95
454.47	1359.85
454.67	1443.82
454.87	1355.76
455.08	1279.98
455.28	1492.97
455.49	1382.38
455.69	1368.04
455.89	1423.34
456.10	1353.71
456.30	1380.33
456.51	1361.90
456.71	1445.87
456.91	1361.90
457.12	1368.04
457.32	1435.63
457.52	1331.18
457.73	1421.29
457.93	1402.86
458.14	1456.11
458.34	1327.08
458.54	1400.81
458.75	1406.95
458.95	1396.71
459.15	1318.89
459.36	1320.94
459.56	1433.58
459.76	1435.63
459.97	1363.95
460.17	1388.52
460.37	1398.76
460.58	1382.38
460.78	1312.75
460.99	1380.33
461.19	1345.52
461.39	1476.59
461.60	1294.32
461.80	1486.83
462.00	1335.28
462.21	1431.53
462.41	1396.71
462.61	1363.95
462.82	1310.70
463.02	1374.19
463.22	1300.46
463.43	1404.91
463.63	1396.71
463.83	1439.72
464.04	1335.28
464.24	1370.09
464.44	1333.23
464.64	1345.52
464.85	1390.57
465.05	1322.99
465.25	1316.84
465.46	1409.00
465.66	1382.38
465.86	1343.47
466.07	1433.58
466.27	1374.19
466.47	1374.19
466.68	1316.84
466.88	1429.48
467.08	1331.18
467.29	1366.00
467.49	1472.49
467.69	1437.67
467.89	1366.00
468.10	1347.56
468.30	1378.28
468.50	1396.71
468.71	1423.34
468.91	1325.04
469.11	1421.29
469.31	1363.95
469.52	1400.81
469.72	1462.25
469.92	1454.06
470.13	1335.28
470.33	1431.53
470.53	1640.42
470.73	2076.64
470.94	2205.66
471.14	2418.65
471.34	2486.23
471.54	2129.89
471.75	1970.15
471.95	1806.31
472.15	1806.31
472.36	1863.65
472.56	1820.64
472.76	1708.01
472.96	1712.10
473.17	1714.15
473.37	1568.74
473.57	1519.59
473.77	1564.65
473.98	1439.72
474.18	1439.72
474.38	1519.59
474.58	1484.78
474.79	1329.13
474.99	1378.28
475.19	1282.03
475.39	1353.71
475.60	1400.81
475.80	1427.43
476.00	1384.43
476.20	1310.70
476.41	1406.95
476.61	1445.87
476.81	1347.56
477.01	1296.36
477.21	1445.87
477.42	1445.87
477.62	1316.84
477.82	1386.47
478.02	1386.47
478.23	1337.32
478.43	1359.85
478.63	1363.95
478.83	1402.86
479.03	1384.43
479.24	1435.63
479.44	1419.24
479.64	1277.93
479.84	1316.84
480.04	1294.32
480.25	1441.77
480.45	1398.76
480.65	1370.09
480.85	1341.42
481.06	1370.09
481.26	1421.29
481.46	1382.38
481.66	1427.43
481.86	1302.51
482.06	1382.38
482.27	1390.57
482.47	1404.91
482.67	1429.48
482.87	1363.95
483.07	1415.15
483.28	1415.15
483.48	1370.09
483.68	1423.34
483.88	1398.76
484.08	1331.18
484.29	1359.85
484.49	1366.00
484.69	1331.18
484.89	1499.11
485.09	1411.05
485.29	1447.91
485.50	1320.94
485.70	1394.67
485.90	1378.28
486.10	1310.70
486.30	1437.67
486.50	1431.53
486.71	1335.28
486.91	1386.47
487.11	1415.15
487.31	1312.75
487.51	1378.28
487.71	1322.99
487.91	1322.99
488.12	1347.56
488.32	1331.18
488.52	1372.14
488.72	1359.85
488.92	1470.44
489.12	1425.39
489.32	1439.72
489.53	1370.09
489.73	1335.28
489.93	1404.91
490.13	1355.76
490.33	1355.76
490.53	1368.04
490.73	1468.39
490.94	1355.76
491.14	1540.07
491.34	1654.76
491.54	2306.01
491.74	2533.34
491.94	2990.03
492.14	3209.17
492.34	2967.51
492.54	2553.82
492.75	2267.10
492.95	2226.14
493.15	2099.17
493.35	2068.45
493.55	1964.00
493.75	1794.02
493.95	1822.69
494.15	1732.58
494.35	1671.14
494.56	1638.38
494.76	1513.45
494.96	1523.69
495.16	1501.16
495.36	1490.92
495.56	1347.56
495.76	1374.19
495.96	1423.34
496.16	1378.28
496.36	1419.24
496.56	1409.00
496.77	1409.00
496.97	1400.81
497.17	1396.71
497.37	1318.89
497.57	1384.43
497.77	1327.08
497.97	1394.67
498.17	1341.42
498.37	1386.47
498.57	1443.82
498.77	1363.95
498.97	1443.82
499.17	1445.87
499.38	1327.08
499.58	1425.39
499.78	1380.33
499.98	1447.91
500.18	1425.39
500.38	1427.43
500.58	1699.81
500.78	2883.54
500.98	5404.59
501.18	6907.80
501.38	8267.65
501.58	8499.07
501.78	7335.82
501.98	5781.42
502.18	5138.35
502.38	4509.63
502.58	4120.51
502.78	3698.63
502.98	3579.85
503.18	3547.08
503.38	3229.65
503.59	3053.52
503.79	2805.72
503.99	2658.26
504.19	2316.25
504.39	2207.71
504.59	1974.24
504.79	1961.95
504.99	1763.30
505.19	1642.47
505.39	1578.98
505.59	1609.70
505.79	1650.66
505.99	1574.89
506.19	1470.44
506.39	1505.26
506.59	1482.73
506.79	1435.63
506.99	1480.68
507.19	1402.86
507.39	1400.81
507.59	1329.13
507.79	1384.43
507.99	1419.24
508.19	1388.52
508.39	1396.71
508.59	1357.80
508.79	1386.47
508.99	1400.81
509.19	1386.47
509.39	1435.63
509.59	1380.33
509.79	1363.95
509.99	1322.99
510.19	1417.19
510.39	1419.24
510.59	1341.42
510.79	1366.00
510.99	1349.61
511.19	1402.86
511.39	1470.44
511.59	1337.32
511.79	1402.86
511.99	1392.62
512.19	1398.76
512.38	1320.94
512.58	1398.76
512.78	1425.39
512.98	1423.34
513.18	1499.11
513.38	1353.71
513.58	1441.77
513.78	1335.28
513.98	1361.90
514.18	1409.00
514.38	1419.24
514.58	1304.56
514.78	1359.85
514.98	1370.09
515.18	1343.47
515.38	1322.99
515.58	1402.86
515.78	1304.56
515.98	1347.56
516.18	1398.76
516.38	1357.80
516.57	1409.00
516.77	1374.19
516.97	1439.72
517.17	1337.32
517.37	1343.47
517.57	1345.52
517.77	1345.52
517.97	1361.90
518.17	1445.87
518.37	1327.08
518.57	1312.75
518.77	1310.70
518.97	1343.47
519.16	1380.33
519.36	1525.74
519.56	1294.32
519.76	1320.94
519.96	1269.74
520.16	1392.62
520.36	1372.14
520.56	1433.58
520.76	1343.47
520.96	1421.29
521.16	1447.91
521.35	1484.78
521.55	1458.15
521.75	1433.58
521.95	1327.08
522.15	1411.05
522.35	1390.57
522.55	1353.71
522.75	1441.77
522.95	1329.13
523.14	1419.24
523.34	1349.61
523.54	1351.66
523.74	1357.80
523.94	1384.43
524.14	1363.95
524.34	1378.28
524.54	1431.53
524.73	1368.04
524.93	1425.39
525.13	1366.00
525.33	1355.76
525.53	1476.59
525.73	1372.14
525.93	1429.48
526.13	1341.42
526.32	1392.62
526.52	1343.47
526.72	1357.80
526.92	1349.61
527.12	1443.82
527.32	1318.89
527.52	1419.24
527.71	1329.13
527.91	1290.22
528.11	1368.04
528.31	1413.10
528.51	1372.14
528.71	1378.28
528.90	1320.94
529.10	1433.58
529.30	1357.80
529.50	1292.27
529.70	1335.28
529.90	1318.89
530.09	1386.47
530.29	1312.75
530.49	1273.84
530.69	1433.58
530.89	1368.04
531.09	1400.81
531.28	1425.39
531.48	1454.06
531.68	1359.85
531.88	1390.57
532.08	1419.24
532.28	1396.71
532.47	1439.72
532.67	1390.57
532.87	1415.15
533.07	1337.32
533.27	1382.38
533.46	1458.15
533.66	1441.77
533.86	1413.10
534.06	1396.71
534.26	1437.67
534.45	1425.39
534.65	1400.81
534.85	1376.24
535.05	1327.08
535.25	1423.34
535.44	1265.64
535.64	1390.57
535.84	1341.42
536.04	1370.09
536.24	1316.84
536.43	1443.82
536.63	1363.95
536.83	1288.17
537.03	1349.61
537.22	1306.60
537.42	1333.23
537.62	1454.06
537.82	1339.37
538.02	1445.87
538.21	1382.38
538.41	1490.92
538.61	1294.32
538.81	1329.13
539.00	1384.43
539.20	1331.18
539.40	1355.76
539.60	1357.80
539.79	1390.57
539.99	1372.14
540.19	1417.19
540.39	1376.24
540.58	1400.81
540.78	1472.49
540.98	1445.87
541.18	1368.04
541.37	1423.34
541.57	1366.00
541.77	1376.24
541.97	1329.13
542.16	1312.75
542.36	1355.76
542.56	1339.37
542.76	1443.82
542.95	1462.25
543.15	1390.57
543.35	1345.52
543.54	1337.32
543.74	1304.56
543.94	1445.87
544.14	1331.18
544.33	1335.28
544.53	1366.00
544.73	1437.67
544.93	1359.85
545.12	1386.47
545.32	1384.43
545.52	1265.64
545.71	1316.84
545.91	1300.46
546.11	1363.95
546.30	1376.24
546.50	1417.19
546.70	1421.29
546.90	1398.76
547.09	1314.80
547.29	1441.77
547.49	1347.56
547.68	1322.99
547.88	1380.33
548.08	1396.71
548.27	1710.05
548.47	1376.24
548.67	1419.24
548.87	1449.96
549.06	1339.37
549.26	1339.37
549.46	1374.19
549.65	1366.00
549.85	1433.58
550.05	1384.43
550.24	1318.89
550.44	1357.80
550.64	1413.10
550.83	1366.00
551.03	1427.43
551.23	1351.66
551.42	1372.14
551.62	1404.91
551.82	1355.76
552.01	1351.66
552.21	1384.43
552.41	1347.56
552.60	1409.00
552.80	1357.80
553.00	1343.47
553.19	1318.89
553.39	1511.40
553.59	1366.00
553.78	1376.24
553.98	1370.09
554.17	1327.08
554.37	1466.35
554.57	1398.76
554.76	1419.24
554.96	1314.80
555.16	1339.37
555.35	1355.76
555.55	1392.62
555.75	1339.37
555.94	1435.63
556.14	1316.84
556.33	1351.66
556.53	1368.04
556.73	1419.24
556.92	1404.91
557.12	1316.84
557.32	1486.83
557.51	1443.82
557.71	1378.28
557.90	1476.59
558.10	1447.91
558.30	1366.00
558.49	1325.04
558.69	1419.24
558.88	1417.19
559.08	1427.43
559.28	1386.47
559.47	1341.42
559.67	1327.08
559.86	1507.30
560.06	1433.58
560.26	1396.71
560.45	1337.32
560.65	1462.25
560.84	1402.86
561.04	1331.18
561.24	1419.24
561.43	1370.09
561.63	1449.96
561.82	1439.72
562.02	1394.67
562.22	1380.33
562.41	1310.70
562.61	1335.28
562.80	1361.90
563.00	1423.34
563.19	1355.76
563.39	1361.90
563.59	1341.42
563.78	1390.57
563.98	1388.52
564.17	1419.24
564.37	1308.65
564.56	1335.28
564.76	1284.08
564.96	1409.00
565.15	1380.33
565.35	1519.59
565.54	1322.99
565.74	1423.34
565.93	1357.80
566.13	1318.89
566.32	1392.62
566.52	1466.35
566.71	1361.90
566.91	1394.67
567.11	1363.95
567.30	1322.99
567.50	1363.95
567.69	1343.47
567.89	1396.71
568.08	1329.13
568.28	1370.09
568.47	1341.42
568.67	1361.90
568.86	1388.52
569.06	1329.13
569.25	1437.67
569.45	1351.66
569.64	1372.14
569.84	1411.05
570.04	1355.76
570.23	1341.42
570.43	1318.89
570.62	1370.09
570.82	1452.01
571.01	1378.28
571.21	1386.47
571.40	1359.85
571.60	1398.76
571.79	1454.06
571.99	1351.66
572.18	1361.90
572.38	1433.58
572.57	1363.95
572.77	1386.47
572.96	1460.20
573.16	1368.04
573.35	1388.52
573.55	1421.29
573.74	1370.09
573.94	1351.66
574.13	1380.33
574.33	1476.59
574.52	1437.67
574.71	1449.96
574.91	1458.15
575.10	1396.71
575.30	1359.85
575.49	1304.56
575.69	1421.29
575.88	1472.49
576.08	1527.78
576.27	1476.59
576.47	1480.68
576.66	1560.55
576.86	1423.34
577.05	1433.58
577.25	1447.91
577.44	1490.92
577.64	1419.24
577.83	1447.91
578.02	1429.48
578.22	1517.54
578.41	1427.43
578.61	1437.67
578.80	1337.32
579.00	1402.86
579.19	1441.77
579.39	1492.97
579.58	1433.58
579.77	1474.54
579.97	1505.26
580.16	1441.77
580.36	1497.07
580.55	1492.97
580.75	1396.71
580.94	1370.09
581.13	1525.74
581.33	1482.73
581.52	1427.43
581.72	1519.59
581.91	1525.74
582.11	1470.44
582.30	1466.35
582.49	1437.67
582.69	1462.25
582.88	1529.83
583.08	1427.43
583.27	1372.14
583.47	1419.24
583.66	1445.87
583.85	1454.06
584.05	1435.63
584.24	1527.78
584.44	1470.44
584.63	1556.46
584.82	1495.02
585.02	1519.59
585.21	1578.98
585.41	1558.50
585.60	1556.46
585.79	1624.04
585.99	1671.14
586.18	1615.85
586.37	1861.60
586.57	2721.75
586.76	7823.24
586.96	24149.65
587.15	41252.23
587.34	51567.85
587.54	59665.52
587.73	59315.32
587.93	45083.98
588.12	32876.04
588.31	26277.49
588.51	22599.34
588.70	20016.85
588.89	18267.88
589.09	16983.80
589.28	15750.93
589.47	14188.33
589.67	12640.06
589.86	10569.57
590.06	8324.99
590.25	6557.60
590.44	4900.79
590.64	3733.45
590.83	2873.30
591.02	2258.91
591.22	1964.00
591.41	1734.63
591.60	1636.33
591.80	1611.75
591.99	1427.43
592.18	1421.29
592.38	1456.11
592.57	1443.82
592.76	1470.44
592.96	1423.34
593.15	1447.91
593.34	1464.30
593.54	1421.29
593.73	1415.15
593.92	1562.60
594.12	1433.58
594.31	1454.06
594.50	1464.30
594.70	1495.02
594.89	1513.45
595.08	1409.00
595.28	1413.10
595.47	1544.17
595.66	1445.87
595.86	1482.73
596.05	1431.53
596.24	1413.10
596.43	1509.35
596.63	1425.39
596.82	1552.36
597.01	1439.72
597.21	1449.96
597.40	1507.30
597.59	1396.71
597.79	1437.67
597.98	1382.38
598.17	1452.01
598.36	1433.58
598.56	1441.77
598.75	1441.77
598.94	1359.85
599.14	1394.67
599.33	1421.29
599.52	1380.33
599.71	1363.95
599.91	1372.14
600.10	1417.19
600.29	1366.00
600.48	1384.43
600.68	1376.24
600.87	1419.24
601.06	1267.69
601.26	1386.47
601.45	1388.52
601.64	1374.19
601.83	1392.62
602.03	1318.89
602.22	1370.09
602.41	1406.95
602.60	1468.39
602.80	1445.87
602.99	1476.59
603.18	1427.43
603.37	1470.44
603.57	1443.82
603.76	1421.29
603.95	1406.95
604.14	1433.58
604.34	1392.62
604.53	1394.67
604.72	1339.37
604.91	1394.67
605.10	1325.04
605.30	1345.52
605.49	1472.49
605.68	1456.11
605.87	1462.25
606.07	1421.29
606.26	1353.71
606.45	1382.38
606.64	1411.05
606.84	1486.83
607.03	1366.00
607.22	1409.00
607.41	1460.20
607.60	1361.90
607.80	1454.06
607.99	1415.15
608.18	1361.90
608.37	1388.52
608.56	1404.91
608.76	1396.71
608.95	1447.91
609.14	1476.59
609.33	1521.64
609.52	1492.97
609.72	1509.35
609.91	1562.60
610.10	1472.49
610.29	1460.20
610.48	1470.44
610.68	1454.06
610.87	1394.67
611.06	1402.86
611.25	1421.29
611.44	1421.29
611.63	1400.81
611.83	1462.25
612.02	1316.84
612.21	1423.34
612.40	1306.60
612.59	1339.37
612.79	1402.86
612.98	1400.81
613.17	1509.35
613.36	1456.11
613.55	1429.48
613.74	1468.39
613.93	1599.46
614.13	1634.28
614.32	1533.93
614.51	1607.66
614.70	1464.30
614.89	1482.73
615.08	1490.92
615.28	1691.62
615.47	1411.05
615.66	1503.21
615.85	1482.73
616.04	1665.00
616.23	1480.68
616.42	1427.43
616.62	1492.97
616.81	1484.78
617.00	1402.86
617.19	1468.39
617.38	1400.81
617.57	1527.78
617.76	1394.67
617.95	1359.85
618.15	1413.10
618.34	1445.87
618.53	1413.10
618.72	1392.62
618.91	1478.63
619.10	1433.58
619.29	1339.37
619.48	1449.96
619.68	1335.28
619.87	1417.19
620.06	1363.95
620.25	1415.15
620.44	1480.68
620.63	1423.34
620.82	1355.76
621.01	1404.91
621.20	1431.53
621.39	1417.19
621.59	1443.82
621.78	1411.05
621.97	1388.52
622.16	1460.20
622.35	1386.47
622.54	1417.19
622.73	1454.06
622.92	1398.76
623.11	1429.48
623.30	1394.67
623.49	1345.52
623.68	1351.66
623.88	1406.95
624.07	1361.90
624.26	1314.80
624.45	1419.24
624.64	1411.05
624.83	1443.82
625.02	1402.86
625.21	1404.91
625.40	1423.34
625.59	1421.29
625.78	1419.24
625.97	1439.72
626.16	1523.69
626.35	1484.78
626.54	1423.34
626.74	1480.68
626.93	1421.29
627.12	1480.68
627.31	1394.67
627.50	1384.43
627.69	1458.15
627.88	1337.32
628.07	1351.66
628.26	1363.95
628.45	1372.14
628.64	1361.90
628.83	1411.05
629.02	1388.52
629.21	1431.53
629.40	1347.56
629.59	1357.80
629.78	1404.91
629.97	1380.33
630.16	1318.89
630.35	1482.73
630.54	1368.04
630.73	1351.66
630.92	1378.28
631.11	1325.04
631.30	1347.56
631.49	1413.10
631.68	1411.05
631.87	1353.71
632.06	1384.43
632.25	1495.02
632.44	1304.56
632.63	1406.95
632.82	1386.47
633.01	1531.88
633.20	1404.91
633.39	1554.41
633.58	1470.44
633.77	1527.78
633.96	1398.76
634.15	1423.34
634.34	1359.85
634.53	1476.59
634.72	1351.66
634.91	1353.71
635.10	1413.10
635.29	1415.15
635.48	1447.91
635.67	1302.51
635.86	1335.28
636.05	1337.32
636.24	1417.19
636.43	1392.62
636.62	1454.06
636.81	1290.22
637.00	1499.11
637.19	1370.09
637.38	1390.57
637.57	1284.08
637.76	1404.91
637.95	1490.92
638.14	1468.39
638.33	1564.65
638.52	1507.30
638.71	1349.61
638.89	1392.62
639.08	1464.30
639.27	1458.15
639.46	1429.48
639.65	1681.38
639.84	1906.66
640.03	1939.43
640.22	2105.31
640.41	2144.22
640.60	1925.09
640.79	1705.96
640.98	1679.33
641.17	1650.66
641.36	1609.70
641.55	1589.22
641.74	1464.30
641.92	1435.63
642.11	1499.11
642.30	1517.54
642.49	1404.91
642.68	1429.48
642.87	1490.92
643.06	1439.72
643.25	1411.05
643.44	1396.71
643.63	1366.00
643.82	1394.67
644.00	1296.36
644.19	1425.39
644.38	1245.16
644.57	1392.62
644.76	1374.19
644.95	1355.76
645.14	1392.62
645.33	1368.04
645.52	1290.22
645.71	1331.18
645.89	1384.43
646.08	1413.10
646.27	1327.08
646.46	1470.44
646.65	1257.45
646.84	1312.75
647.03	1306.60
647.22	1429.48
647.40	1320.94
647.59	1310.70
647.78	1279.98
647.97	1380.33
648.16	1224.69
648.35	1486.83
648.54	1406.95
648.73	1316.84
648.91	1429.48
649.10	1320.94
649.29	1333.23
649.48	1359.85
649.67	1366.00
649.86	1388.52
650.05	1366.00
650.23	1509.35
650.42	1499.11
650.61	1562.60
650.80	1619.94
650.99	1677.29
651.18	1472.49
651.36	1486.83
651.55	1456.11
651.74	1437.67
651.93	1337.32
652.12	1445.87
652.31	1406.95
652.49	1439.72
652.68	1388.52
652.87	1431.53
653.06	1464.30
653.25	1538.02
653.44	1425.39
653.62	1417.19
653.81	1396.71
654.00	1361.90
654.19	1411.05
654.38	1542.12
654.56	1409.00
654.75	1357.80
654.94	1347.56
655.13	1384.43
655.32	1409.00
655.51	1380.33
655.69	1333.23
655.88	1345.52
656.07	1355.76
656.26	1390.57
656.45	1294.32
656.63	1429.48
656.82	1386.47
657.01	1409.00
657.20	1390.57
657.38	1441.77
657.57	1388.52
657.76	1347.56
657.95	1474.54
658.14	1380.33
658.32	1345.52
658.51	1296.36
658.70	1376.24
658.89	1396.71
659.08	1382.38
659.26	1437.67
659.45	1396.71
659.64	1474.54
659.83	1398.76
660.01	1646.57
660.20	1449.96
660.39	1433.58
660.58	1343.47
660.76	1462.25
660.95	1355.76
661.14	1388.52
661.33	1310.70
661.51	1353.71
661.70	1357.80
661.89	1468.39
662.08	1439.72
662.26	1386.47
662.45	1314.80
662.64	1441.77
662.83	1478.63
663.01	1378.28
663.20	1314.80
663.39	1419.24
663.58	1333.23
663.76	1347.56
663.95	1400.81
664.14	1392.62
664.32	1388.52
664.51	1388.52
664.70	1320.94
664.89	1368.04
665.07	1333.23
665.26	1380.33
665.45	1349.61
665.64	1345.52
665.82	1351.66
666.01	1437.67
666.20	1406.95
666.38	1447.91
666.57	1472.49
666.76	1503.21
666.95	2080.74
667.13	4435.90
667.32	11304.79
667.51	17946.35
667.69	21567.16
667.88	24655.50
668.07	24501.90
668.25	19001.05
668.44	13539.12
668.63	11136.85
668.81	9260.91
669.00	7872.39
669.19	7360.40
669.38	6969.24
669.56	6197.15
669.75	5539.76
669.94	4933.56
670.12	4177.86
670.31	3442.64
670.50	2994.13
670.68	2486.23
670.87	2168.80
671.06	1916.90
671.24	1736.68
671.43	1755.11
671.62	1605.61
671.80	1509.35
671.99	1552.36
672.18	1538.02
672.36	1542.12
672.55	1525.74
672.74	1423.34
672.92	1359.85
673.11	1462.25
673.29	1372.14
673.48	1392.62
673.67	1396.71
673.85	1435.63
674.04	1357.80
674.23	1306.60
674.41	1413.10
674.60	1351.66
674.79	1333.23
674.97	1355.76
675.16	1427.43
675.34	1409.00
675.53	1396.71
675.72	1411.05
675.90	1447.91
676.09	1347.56
676.28	1421.29
676.46	1333.23
676.65	1386.47
676.83	1341.42
677.02	1302.51
677.21	1413.10
677.39	1296.36
677.58	1298.41
677.77	1437.67
677.95	1372.14
678.14	1259.50
678.32	1447.91
678.51	1304.56
678.70	1470.44
678.88	1351.66
679.07	1421.29
679.25	1298.41
679.44	1341.42
679.63	1327.08
679.81	1370.09
680.00	1425.39
680.18	1447.91
680.37	1374.19
680.55	1314.80
680.74	1288.17
680.93	1359.85
681.11	1363.95
681.30	1396.71
681.48	1386.47
681.67	1413.10
681.85	1351.66
682.04	1335.28
682.23	1378.28
682.41	1339.37
682.60	1427.43
682.78	1427.43
682.97	1339.37
683.15	1345.52
683.34	1318.89
683.53	1384.43
683.71	1247.21
683.90	1370.09
684.08	1419.24
684.27	1347.56
684.45	1404.91
684.64	1425.39
684.82	1347.56
685.01	1343.47
685.19	1343.47
685.38	1429.48
685.57	1351.66
685.75	1282.03
685.94	1333.23
686.12	1339.37
686.31	1337.32
686.49	1501.16
686.68	1320.94
686.86	1361.90
687.05	1435.63
687.23	1419.24
687.42	1376.24
687.60	1282.03
687.79	1486.83
687.97	1413.10
688.16	1363.95
688.34	1402.86
688.53	1290.22
688.71	1380.33
688.90	1460.20
689.08	1462.25
689.27	1298.41
689.45	1413.10
689.64	1425.39
689.82	1386.47
690.01	1415.15
690.19	1347.56
690.38	1400.81
690.56	1460.20
690.75	1327.08
690.93	1402.86
691.12	1331.18
691.30	1337.32
691.49	1361.90
691.67	1339.37
691.86	1404.91
692.04	1329.13
692.23	1366.00
692.41	1361.90
692.60	1525.74
692.78	1490.92
692.97	1447.91
693.15	1488.87
693.34	1566.70
693.52	1509.35
693.71	1327.08
693.89	1388.52
694.08	1380.33
694.26	1409.00
694.44	1374.19
694.63	1384.43
694.81	1318.89
695.00	1343.47
695.18	1378.28
695.37	1523.69
695.55	1380.33
695.74	1394.67
695.92	1349.61
696.10	1406.95
696.29	1290.22
696.47	1325.04
696.66	1345.52
696.84	1368.04
697.03	1386.47
697.21	1509.35
697.40	1814.50
697.58	1351.66
697.76	1320.94
697.95	1380.33
698.13	1398.76
698.32	1400.81
698.50	1320.94
698.68	1366.00
698.87	1353.71
699.05	1335.28
699.24	1376.24
699.42	1310.70
699.61	1312.75
699.79	1433.58
699.97	1419.24
700.16	1361.90
700.34	1357.80
700.53	1419.24
700.71	1331.18
700.89	1396.71
701.08	1398.76
701.26	1411.05
701.45	1630.18
701.63	1378.28
701.81	1366.00
702.00	1333.23
702.18	1288.17
702.37	1331.18
702.55	1413.10
702.73	1392.62
702.92	1505.26
703.10	1660.90
703.28	1660.90
703.47	1599.46
703.65	1675.24
703.84	1632.23
704.02	1480.68
704.20	1601.51
704.39	1478.63
704.57	1484.78
704.75	1474.54
704.94	1507.30
705.12	1441.77
705.30	1505.26
705.49	1517.54
705.67	1859.56
705.86	3432.40
706.04	8945.53
706.22	16381.70
706.41	19525.33
706.59	22314.67
706.77	23377.56
706.96	20106.96
707.14	13944.62
707.32	11290.45
707.51	9322.35
707.69	8212.35
707.87	7470.99
708.06	6768.54
708.24	5951.40
708.42	5056.43
708.61	4044.74
708.79	3084.24
708.97	2377.69
709.16	1914.85
709.34	1865.70
709.52	1611.75
709.71	1558.50
709.89	1460.20
710.07	1427.43
710.26	1320.94
710.44	1456.11
710.62	1427.43
710.80	1503.21
710.99	1382.38
711.17	1390.57
711.35	1392.62
711.54	1345.52
711.72	1484.78
711.90	1441.77
712.09	1411.05
712.27	1402.86
712.45	1429.48
712.63	1470.44
712.82	1372.14
713.00	1396.71
713.18	1347.56
713.37	1392.62
713.55	1363.95
713.73	1417.19
713.91	1456.11
714.10	1374.19
714.28	1333.23
714.46	1394.67
714.65	1322.99
714.83	1396.71
715.01	1419.24
715.19	1437.67
715.38	1355.76
715.56	1376.24
715.74	1392.62
715.92	1359.85
716.11	1480.68
716.29	1355.76
716.47	1339.37
716.65	1374.19
716.84	1345.52
717.02	1402.86
717.20	1353.71
717.38	1322.99
717.57	1398.76
717.75	1339.37
717.93	1380.33
718.11	1392.62
718.30	1372.14
718.48	1363.95
718.66	1355.76
718.84	1331.18
719.03	1363.95
719.21	1325.04
719.39	1445.87
719.57	1390.57
719.75	1368.04
719.94	1312.75
720.12	1355.76
720.30	1378.28
720.48	1413.10
720.67	1366.00
720.85	1312.75
721.03	1286.12
721.21	1388.52
721.39	1429.48
721.58	1398.76
721.76	1392.62
721.94	1443.82
722.12	1388.52
722.30	1380.33
722.49	1411.05
722.67	1386.47
722.85	1349.61
723.03	1296.36
723.21	1366.00
723.40	1382.38
723.58	1400.81
723.76	1335.28
723.94	1368.04
724.12	1470.44
724.30	1531.88
724.49	1474.54
724.67	1413.10
724.85	1419.24
725.03	1409.00
725.21	1445.87
725.40	1363.95
725.58	1411.05
725.76	1478.63
725.94	1273.84
726.12	1378.28
726.30	1400.81
726.49	1322.99
726.67	1376.24
726.85	1425.39
727.03	1361.90
727.21	1474.54
727.39	1476.59
727.57	2172.89
727.76	3364.81
727.94	4343.74
728.12	4851.64
728.30	5218.22
728.48	5138.35
728.66	4270.01
728.84	3426.25
729.03	3160.02
729.21	2736.09
729.39	2572.25
729.57	2183.13
729.75	2043.87
729.93	1767.40
730.11	1628.14
730.30	1533.93
730.48	1470.44
730.66	1503.21
730.84	1363.95
731.02	1386.47
731.20	1359.85
731.38	1449.96
731.56	1363.95
731.74	1374.19
731.93	1411.05
732.11	1382.38
732.29	1341.42
732.47	1421.29
732.65	1411.05
732.83	1433.58
733.01	1394.67
733.19	1378.28
733.37	1345.52
733.56	1386.47
733.74	1368.04
733.92	1452.01
734.10	1335.28
734.28	1417.19
734.46	1341.42
734.64	1322.99
734.82	1347.56
735.00	1318.89
735.18	1327.08
735.36	1341.42
735.54	1363.95
735.73	1363.95
735.91	1452.01
736.09	1355.76
736.27	1290.22
736.45	1425.39
736.63	1286.12
736.81	1376.24
736.99	1386.47
737.17	1492.97
737.35	1370.09
737.53	1484.78
737.71	1355.76
737.89	1425.39
738.07	1355.76
738.25	1316.84
738.43	1269.74
738.61	1402.86
738.80	1357.80
738.98	1302.51
739.16	1302.51
739.34	1308.65
739.52	1443.82
739.70	1386.47
739.88	1441.77
740.06	1335.28
740.24	1329.13
740.42	1331.18
740.60	1376.24
740.78	1290.22
740.96	1318.89
741.14	1359.85
741.32	1331.18
741.50	1337.32
741.68	1431.53
741.86	1452.01
742.04	1415.15
742.22	1333.23
742.40	1386.47
742.58	1394.67
742.76	1374.19
742.94	1400.81
743.12	1347.56
743.30	1404.91
743.48	1443.82
743.66	1402.86
743.84	1361.90
744.02	1370.09
744.20	1355.76
744.38	1370.09
744.56	1347.56
744.74	1368.04
744.92	1382.38
745.10	1413.10
745.28	1427.43
745.46	1413.10
745.64	1394.67
745.82	1368.04
746.00	1411.05
746.18	1353.71
746.36	1347.56
746.54	1386.47
746.72	1411.05
746.90	1404.91
747.08	1370.09
747.26	1292.27
747.44	1419.24
747.62	1316.84
747.80	1390.57
747.98	1347.56
748.15	1413.10
748.33	1368.04
748.51	1404.91
748.69	1355.76
748.87	1409.00
749.05	1316.84
749.23	1351.66
749.41	1452.01
749.59	1404.91
749.77	1456.11
749.95	1419.24
750.13	1318.89
750.31	1343.47
750.49	1386.47
750.67	1421.29
750.85	1402.86
751.03	1400.81
751.20	1433.58
751.38	1417.19
751.56	1359.85
751.74	1316.84
751.92	1312.75
752.10	1322.99
752.28	1384.43
752.46	1282.03
752.64	1359.85
752.82	1310.70
753.00	1449.96
753.18	1337.32
753.35	1388.52
753.53	1384.43
753.71	1394.67
753.89	1357.80
754.07	1406.95
754.25	1458.15
754.43	1357.80
754.61	1335.28
754.79	1382.38
754.97	1394.67
755.14	1374.19
755.32	1282.03
755.50	1386.47
755.68	1431.53
755.86	1325.04
756.04	1384.43
756.22	1277.93
756.40	1406.95
756.57	1480.68
756.75	1351.66
756.93	1384.43
757.11	1452.01
757.29	1325.04
757.47	1286.12
757.65	1333.23
757.82	1316.84
758.00	1314.80
758.18	1355.76
758.36	1284.08
758.54	1462.25
758.72	1322.99
758.90	1435.63
759.07	1378.28
759.25	1396.71
759.43	1392.62
759.61	1341.42
759.79	1687.53
759.97	1392.62
760.15	1351.66
760.32	1349.61
760.50	1460.20
760.68	1402.86
760.86	1374.19
761.04	1437.67
761.22	1363.95
761.39	1382.38
761.57	1431.53
761.75	1472.49
761.93	1417.19
762.11	1376.24
762.28	1331.18
762.46	1284.08
762.64	1394.67
762.82	1249.26
763.00	1423.34
763.18	1368.04
763.35	1341.42
763.53	1398.76
763.71	1316.84
763.89	1359.85
764.07	1400.81
764.24	1314.80
764.42	1468.39
764.60	1275.88
764.78	1333.23
764.96	1394.67
765.13	1400.81
765.31	1376.24
765.49	1355.76
765.67	1279.98
765.84	1376.24
766.02	1331.18
766.20	1308.65
766.38	1396.71
766.56	1417.19
766.73	1341.42
766.91	1404.91
767.09	1343.47
767.27	1411.05
767.44	1282.03
767.62	1392.62
767.80	1337.32
767.98	1349.61
768.15	1372.14
768.33	1466.35
768.51	1386.47
768.69	1388.52
768.87	1423.34
769.04	1363.95
769.22	1447.91
769.40	1474.54
769.58	1470.44
769.75	1374.19
769.93	1396.71
770.11	1329.13
770.28	1353.71
770.46	1345.52
770.64	1310.70
770.82	1376.24
770.99	1378.28
771.17	1302.51
771.35	1310.70
771.53	1370.09
771.70	1380.33
771.88	1390.57
772.06	1366.00
772.23	1378.28
772.41	1398.76
772.59	1312.75
772.77	1363.95
772.94	1351.66
773.12	1443.82
773.30	1257.45
773.47	1366.00
773.65	1396.71
773.83	1425.39
774.01	1421.29
774.18	1392.62
774.36	1384.43
774.54	1265.64
774.71	1374.19
774.89	1322.99
775.07	1372.14
775.24	1345.52
775.42	1435.63
775.60	1501.16
775.78	1406.95
775.95	1325.04
776.13	1288.17
776.31	1247.21
776.48	1333.23
776.66	1329.13
776.84	1388.52
777.01	1345.52
777.19	1312.75
777.37	1378.28
777.54	1394.67
777.72	1429.48
777.90	1390.57
778.07	1288.17
778.25	1429.48
778.43	1484.78
778.60	1333.23
778.78	1372.14
778.96	1343.47
779.13	1290.22
779.31	1357.80
779.49	1396.71
779.66	1425.39
779.84	1396.71
780.01	1417.19
780.19	1279.98
780.37	1415.15
780.54	1409.00
780.72	1361.90
780.90	1382.38
781.07	1316.84
781.25	1292.27
781.43	1386.47
781.60	1351.66
781.78	1382.38
781.95	1396.71
782.13	1372.14
782.31	1423.34
782.48	1349.61
782.66	1345.52
782.83	1495.02
783.01	1366.00
783.19	1409.00
783.36	1265.64
783.54	1310.70
783.72	1370.09
783.89	1298.41
784.07	1363.95
784.24	1423.34
784.42	1423.34
784.60	1327.08
784.77	1331.18
784.95	1271.79
785.12	1388.52
785.30	1314.80
785.47	1312.75
785.65	1331.18
785.83	1368.04
786.00	1327.08
786.18	1366.00
786.35	1308.65
786.53	1335.28
786.71	1394.67
786.88	1333.23
787.06	1304.56
787.23	1290.22
787.41	1363.95
787.58	1404.91
787.76	1325.04
787.94	1382.38
788.11	1327.08
788.29	1378.28
788.46	1349.61
788.64	1374.19
788.81	1359.85
788.99	1374.19
789.16	1337.32
789.34	1370.09
789.52	1388.52
789.69	1310.70
789.87	1290.22
790.04	1355.76
790.22	1404.91
790.39	1435.63
790.57	1275.88
790.74	1341.42
790.92	1382.38
791.09	1337.32
791.27	1327.08
791.44	1445.87
791.62	1398.76
791.79	1433.58
791.97	1413.10
792.15	1511.40
792.32	1325.04
792.50	1386.47
792.67	1409.00
792.85	1402.86
793.02	1423.34
793.20	1415.15
793.37	1341.42
793.55	1359.85
793.72	1312.75
793.90	1370.09
794.07	1310.70
794.25	1370.09
794.42	1413.10
794.60	1327.08
794.77	1400.81
794.95	1327.08
795.12	1353.71
795.30	1361.90
795.47	1386.47
795.65	1359.85
795.82	1374.19
796.00	1325.04
796.17	1351.66
796.34	1345.52
796.52	1327.08
796.69	1380.33
796.87	1376.24
797.04	1402.86
797.22	1398.76
797.39	1376.24
797.57	1384.43
797.74	1382.38
797.92	1390.57
798.09	1267.69
798.27	1468.39
798.44	1429.48
798.62	1335.28
798.79	1363.95
798.96	1382.38
799.14	1419.24
799.31	1402.86
799.49	1413.10
799.66	1306.60
799.84	1325.04
800.01	1273.84
800.19	1415.15
800.36	1333.23
800.53	1368.04
800.71	1454.06
800.88	1417.19
801.06	1349.61
801.23	1277.93
801.41	1357.80
801.58	1263.60
801.75	1345.52
801.93	1406.95
802.10	1345.52
802.28	1290.22
802.45	1421.29
802.63	1396.71
802.80	1439.72
802.97	1347.56
803.15	1441.77
803.32	1302.51
803.50	1372.14
803.67	1335.28
803.84	1359.85
804.02	1329.13
804.19	1347.56
804.37	1275.88
804.54	1361.90
804.71	1331.18
804.89	1417.19
805.06	1357.80
805.24	1349.61
805.41	1331.18
805.58	1302.51
805.76	1435.63
805.93	1406.95
806.10	1376.24
806.28	1411.05
806.45	1331.18
806.63	1390.57
806.80	1413.10
806.97	1429.48
807.15	1431.53
807.32	1382.38
807.49	1380.33
807.67	1322.99
807.84	1388.52
808.01	1296.36
808.19	1423.34
808.36	1499.11
808.54	1284.08
808.71	1384.43
808.88	1329.13
809.06	1386.47
809.23	1458.15
809.40	1441.77
809.58	1437.67
809.75	1378.28
809.92	1286.12
810.10	1454.06
810.27	1386.47
810.44	1449.96
810.62	1345.52
810.79	1437.67
810.96	1322.99
811.14	1320.94
811.31	1271.79
811.48	1390.57
811.66	1296.36
811.83	1394.67
812.00	1392.62
812.18	1417.19
812.35	1431.53
812.52	1308.65
812.69	1384.43
812.87	1361.90
813.04	1366.00
813.21	1310.70
813.39	1341.42
813.56	1353.71
813.73	1322.99
813.91	1284.08
814.08	1398.76
814.25	1368.04
814.42	1296.36
814.60	1400.81
814.77	1378.28
814.94	1368.04
815.12	1406.95
815.29	1421.29
815.46	1325.04
815.63	1349.61
815.81	1310.70
815.98	1411.05
816.15	1337.32
816.33	1310.70
816.50	1409.00
816.67	1337.32
816.84	1433.58
817.02	1366.00
817.19	1333.23
817.36	1409.00
817.53	1394.67
817.71	1415.15
817.88	1322.99
818.05	1386.47
818.22	1327.08
818.40	1462.25
818.57	1366.00
818.74	1382.38
818.91	1310.70
819.09	1304.56
819.26	1390.57
819.43	1390.57
819.60	1275.88
819.78	1404.91
819.95	1443.82
820.12	1400.81
820.29	1425.39
820.47	1372.14
820.64	1312.75
820.81	1304.56
820.98	1288.17
821.15	1351.66
821.33	1386.47
821.50	1302.51
821.67	1398.76
821.84	1275.88
822.02	1458.15
822.19	1376.24
822.36	1345.52
822.53	1423.34
822.70	1394.67
822.88	1353.71
823.05	1433.58
823.22	1339.37
823.39	1423.34
823.56	1378.28
823.74	1439.72
823.91	1384.43
824.08	1345.52
824.25	1290.22
824.42	1468.39
824.60	1306.60
824.77	1359.85
824.94	1320.94
825.11	1306.60
825.28	1300.46
825.45	1396.71
825.63	1368.04
825.80	1361.90
825.97	1288.17
826.14	1372.14
826.31	1277.93
826.48	1435.63
826.66	1298.41
826.83	1388.52
827.00	1339.37
827.17	1366.00
827.34	1341.42
827.51	1277.93
827.69	1409.00
827.86	1253.36
828.03	1368.04
828.20	1290.22
828.37	1378.28
828.54	1394.67
828.71	1390.57
828.89	1388.52
829.06	1406.95
829.23	1474.54
829.40	1351.66
829.57	1357.80
829.74	1320.94
829.91	1290.22
830.09	1374.19
830.26	1480.68
830.43	1478.63
830.60	1376.24
830.77	1441.77
830.94	1439.72
831.11	1382.38
831.28	1337.32
831.46	1378.28
831.63	1288.17
831.80	1433.58
831.97	1378.28
832.14	1312.75
832.31	1429.48
832.48	1347.56
832.65	1345.52
832.82	1357.80
832.99	1394.67
833.17	1329.13
833.34	1388.52
833.51	1445.87
833.68	1304.56
833.85	1431.53
834.02	1296.36
834.19	1302.51
834.36	1265.64
834.53	1363.95
834.70	1433.58
834.87	1417.19
835.04	1331.18
835.22	1322.99
835.39	1370.09
835.56	1296.36
835.73	1366.00
835.90	1431.53
836.07	1310.70
836.24	1411.05
836.41	1300.46
836.58	1320.94
836.75	1361.90
836.92	1413.10
837.09	1275.88
837.26	1423.34
837.43	1370.09
837.60	1404.91
837.77	1320.94
837.94	1351.66
838.12	1468.39
838.29	1380.33
838.46	1345.52
838.63	1396.71
838.80	1441.77
838.97	1392.62
839.14	1361.90
839.31	1333.23
839.48	1302.51
839.65	1366.00
839.82	1345.52
839.99	1331.18
840.16	1339.37
840.33	1335.28
840.50	1368.04
840.67	1374.19
840.84	1300.46
841.01	1361.90
841.18	1413.10
841.35	1318.89
841.52	1439.72
841.69	1390.57
841.86	1361.90
842.03	1374.19
842.20	1411.05
842.37	1359.85
842.54	1445.87
842.71	1366.00
842.88	1351.66
843.05	1409.00
843.22	1363.95
843.39	1435.63
843.56	1320.94
843.73	1439.72
843.90	1425.39
844.07	1388.52
844.24	1380.33
844.41	1415.15
844.58	1386.47
844.75	1351.66
844.92	1439.72
845.09	1337.32
845.26	1376.24
845.43	1423.34
845.60	1386.47
845.77	1427.43
845.94	1384.43
846.10	1400.81
846.27	1347.56
846.44	1292.27
846.61	1357.80
846.78	1347.56
846.95	1343.47
847.12	1318.89
847.29	1388.52
847.46	1234.93
847.63	1419.24
847.80	1351.66
847.97	1343.47
848.14	1429.48
848.31	1335.28
848.48	1394.67
848.65	1392.62
848.82	1316.84
848.98	1443.82
849.15	1409.00
849.32	1394.67
849.49	1384.43
849.66	1413.10
849.83	1417.19
850.00	1327.08
850.17	1335.28
850.34	1339.37
850.51	1339.37
850.68	1349.61
850.85	1478.63
851.01	1325.04
851.18	1380.33
851.35	1312.75
851.52	1353.71
851.69	1409.00
851.86	1288.17
852.03	1382.38
852.20	1425.39
852.37	1361.90
852.53	1398.76
852.70	1384.43
852.87	1368.04
853.04	1390.57
853.21	1415.15
853.38	1449.96
853.55	1386.47
853.72	1400.81
853.89	1325.04
854.05	1374.19
854.22	1396.71
854.39	1386.47
854.56	1363.95
854.73	1388.52
854.90	1271.79
855.07	1331.18
855.23	1335.28
855.40	1406.95
855.57	1318.89
855.74	1288.17
855.91	1454.06
856.08	1368.04
856.25	1386.47
856.41	1349.61
856.58	1312.75
856.75	1329.13
856.92	1306.60
857.09	1353.71
857.26	1320.94
857.42	1456.11
857.59	1470.44
857.76	1353.71
857.93	1300.46
858.10	1320.94
858.27	1345.52
858.43	1327.08
858.60	1290.22
858.77	1292.27
858.94	1343.47
859.11	1427.43
859.27	1355.76
859.44	1388.52
859.61	1435.63
859.78	1392.62
859.95	1327.08
860.12	1345.52
860.28	1419.24
860.45	1468.39
860.62	1384.43
860.79	1378.28
860.95	1384.43
861.12	1347.56
861.29	1361.90
861.46	1390.57
861.63	1421.29
861.79	1392.62
861.96	1259.50
862.13	1437.67
862.30	1390.57
862.47	1341.42
862.63	1277.93
862.80	1464.30
862.97	1427.43
863.14	1378.28
863.30	1376.24
863.47	1329.13
863.64	1396.71
863.81	1413.10
863.97	1402.86
864.14	1353.71
864.31	1396.71
864.48	1306.60
864.65	1415.15
864.81	1435.63
864.98	1445.87
865.15	1445.87
865.32	1382.38
865.48	1341.42
865.65	1415.15
865.82	1384.43
865.98	1351.66
866.15	1359.85
866.32	1296.36
866.49	1357.80
866.65	1386.47
866.82	1353.71
866.99	1343.47
867.16	1343.47
867.32	1308.65
867.49	1339.37
867.66	1359.85
867.83	1335.28
867.99	1396.71
868.16	1361.90
868.33	1349.61
868.49	1386.47
868.66	1302.51
868.83	1327.08
868.99	1363.95
869.16	1343.47
869.33	1429.48
869.50	1427.43
869.66	1318.89
869.83	1335.28
870.00	1339.37
870.16	1472.49
870.33	1370.09
870.50	1355.76
870.66	1409.00
870.83	1462.25
871.00	1372.14
871.17	1443.82
871.33	1431.53
871.50	1296.36
871.67	1277.93
871.83	1361.90
872.00	1472.49
872.17	1357.80
872.33	1427.43
872.50	1417.19
872.67	1417.19
872.83	1390.57
873.00	1394.67
873.17	1368.04
873.33	1345.52
873.50	1388.52
873.67	1351.66
873.83	1347.56
874.00	1265.64
874.16	1427.43
874.33	1363.95
874.50	1437.67
874.66	1374.19
874.83	1394.67
875.00	1429.48
875.16	1421.29
875.33	1353.71
875.50	1277.93
875.66	1366.00
875.83	1353.71
875.99	1425.39
876.16	1425.39
876.33	1339.37
876.49	1304.56
876.66	1443.82
876.83	1351.66
876.99	1351.66
877.16	1415.15
877.32	1322.99
877.49	1284.08
877.66	1394.67
877.82	1456.11
877.99	1396.71
878.15	1425.39
878.32	1327.08
878.49	1359.85
878.65	1355.76
878.82	1402.86
878.98	1327.08
879.15	1404.91
879.32	1417.19
879.48	1370.09
879.65	1359.85
879.81	1357.80
879.98	1304.56
880.15	1357.80
880.31	1359.85
880.48	1361.90
880.64	1320.94
880.81	1376.24
880.97	1486.83
881.14	1429.48
881.31	1282.03
881.47	1511.40
881.64	1359.85
881.80	1298.41
881.97	1443.82
882.13	1406.95
882.30	1382.38
882.47	1320.94
882.63	1363.95
882.80	1347.56
882.96	1320.94
883.13	1460.20
883.29	1409.00
883.46	1370.09
883.62	1464.30
883.79	1310.70
883.95	1398.76
884.12	1372.14
884.29	1413.10
884.45	1382.38
884.62	1357.80
884.78	1349.61
884.95	1372.14
885.11	1400.81
885.28	1370.09
885.44	1331.18
885.61	1368.04
885.77	1460.20
885.94	1427.43
886.10	1357.80
886.27	1396.71
886.43	1433.58
886.60	1544.17
886.76	1294.32
886.93	1411.05
887.09	1452.01
887.26	1355.76
887.42	1355.76
887.59	1421.29
887.75	1454.06
887.92	1429.48
888.08	1380.33
888.25	1454.06
888.41	1390.57
888.58	1337.32
888.74	1380.33
888.91	1316.84
>>>>>End Processed Spectral Data<<<<<
