SpectraSuite Data File
++++++++++++++++++++++++++++++++++++
Date: Tue May 03 11:24:54 CEST 2016
User: root
Dark Spectrum Present: No
Reference Spectrum Present: No
Number of Sampled Component Spectra: 1
Spectrometers: USB4C02835
Integration Time (usec): 100000 (USB4C02835)
Spectra Averaged: 1 (USB4C02835)
Boxcar Smoothing: 0 (USB4C02835)
Correct for Electrical Dark: No (USB4C02835)
Strobe/Lamp Enabled: No (USB4C02835)
Correct for Detector Non-linearity: No (USB4C02835)
Correct for Stray Light: No (USB4C02835)
Number of Pixels in Processed Spectrum: 3648
>>>>>Begin Processed Spectral Data<<<<<
177.47	1189.87
177.69	1189.87
177.91	1189.87
178.13	1224.69
178.36	1222.64
178.58	1353.71
178.80	1409.00
179.02	1320.94
179.24	1359.85
179.46	1370.09
179.68	1437.67
179.90	1349.61
180.13	1339.37
180.35	1374.19
180.57	1376.24
180.79	1384.43
181.01	1413.10
181.23	1478.63
181.45	1470.44
181.67	1368.04
181.90	1314.80
182.12	1318.89
182.34	1359.85
182.56	1398.76
182.78	1402.86
183.00	1374.19
183.22	1454.06
183.44	1257.45
183.66	1484.78
183.89	1439.72
184.11	1429.48
184.33	1353.71
184.55	1357.80
184.77	1472.49
184.99	1353.71
185.21	1394.67
185.43	1482.73
185.65	1359.85
185.87	1427.43
186.10	1431.53
186.32	1423.34
186.54	1361.90
186.76	1380.33
186.98	1411.05
187.20	1404.91
187.42	1359.85
187.64	1406.95
187.86	1363.95
188.08	1353.71
188.30	1294.32
188.52	1380.33
188.75	1421.29
188.97	1376.24
189.19	1349.61
189.41	1380.33
189.63	1361.90
189.85	1320.94
190.07	1300.46
190.29	1294.32
190.51	1392.62
190.73	1398.76
190.95	1421.29
191.17	1306.60
191.39	1349.61
191.61	1392.62
191.84	1406.95
192.06	1452.01
192.28	1366.00
192.50	1490.92
192.72	1400.81
192.94	1435.63
193.16	1441.77
193.38	1376.24
193.60	1304.56
193.82	1339.37
194.04	1359.85
194.26	1353.71
194.48	1398.76
194.70	1351.66
194.92	1415.15
195.14	1363.95
195.36	1327.08
195.58	1411.05
195.80	1286.12
196.02	1335.28
196.24	1409.00
196.46	1402.86
196.69	1357.80
196.91	1376.24
197.13	1341.42
197.35	1388.52
197.57	1458.15
197.79	1384.43
198.01	1335.28
198.23	1439.72
198.45	1343.47
198.67	1345.52
198.89	1339.37
199.11	1388.52
199.33	1419.24
199.55	1279.98
199.77	1376.24
199.99	1449.96
200.21	1341.42
200.43	1320.94
200.65	1345.52
200.87	1267.69
201.09	1394.67
201.31	1406.95
201.53	1392.62
201.75	1339.37
201.97	1300.46
202.19	1406.95
202.41	1400.81
202.63	1492.97
202.85	1290.22
203.07	1409.00
203.29	1351.66
203.51	1312.75
203.73	1318.89
203.95	1488.87
204.17	1333.23
204.39	1325.04
204.61	1361.90
204.83	1404.91
205.05	1421.29
205.27	1400.81
205.49	1435.63
205.71	1339.37
205.93	1343.47
206.15	1370.09
206.37	1388.52
206.59	1413.10
206.81	1368.04
207.03	1413.10
207.25	1380.33
207.47	1415.15
207.69	1353.71
207.91	1404.91
208.13	1394.67
208.34	1320.94
208.56	1398.76
208.78	1394.67
209.00	1322.99
209.22	1337.32
209.44	1402.86
209.66	1380.33
209.88	1380.33
210.10	1374.19
210.32	1380.33
210.54	1402.86
210.76	1390.57
210.98	1413.10
211.20	1218.54
211.42	1404.91
211.64	1382.38
211.86	1363.95
212.08	1454.06
212.30	1353.71
212.52	1357.80
212.74	1421.29
212.96	1349.61
213.17	1447.91
213.39	1337.32
213.61	1458.15
213.83	1474.54
214.05	1341.42
214.27	1355.76
214.49	1322.99
214.71	1382.38
214.93	1327.08
215.15	1370.09
215.37	1384.43
215.59	1335.28
215.81	1363.95
216.03	1396.71
216.24	1382.38
216.46	1343.47
216.68	1380.33
216.90	1396.71
217.12	1388.52
217.34	1425.39
217.56	1314.80
217.78	1441.77
218.00	1359.85
218.22	1406.95
218.44	1409.00
218.66	1390.57
218.87	1392.62
219.09	1363.95
219.31	1429.48
219.53	1443.82
219.75	1353.71
219.97	1433.58
220.19	1388.52
220.41	1406.95
220.63	1409.00
220.85	1441.77
221.06	1370.09
221.28	1431.53
221.50	1394.67
221.72	1318.89
221.94	1421.29
222.16	1345.52
222.38	1380.33
222.60	1386.47
222.82	1353.71
223.03	1433.58
223.25	1396.71
223.47	1431.53
223.69	1419.24
223.91	1353.71
224.13	1357.80
224.35	1382.38
224.57	1363.95
224.78	1361.90
225.00	1437.67
225.22	1284.08
225.44	1343.47
225.66	1339.37
225.88	1433.58
226.10	1322.99
226.32	1402.86
226.53	1454.06
226.75	1374.19
226.97	1400.81
227.19	1392.62
227.41	1345.52
227.63	1331.18
227.85	1304.56
228.06	1294.32
228.28	1339.37
228.50	1290.22
228.72	1363.95
228.94	1378.28
229.16	1290.22
229.37	1329.13
229.59	1386.47
229.81	1431.53
230.03	1353.71
230.25	1345.52
230.47	1345.52
230.69	1269.74
230.90	1417.19
231.12	1413.10
231.34	1429.48
231.56	1417.19
231.78	1310.70
232.00	1279.98
232.21	1372.14
232.43	1298.41
232.65	1265.64
232.87	1419.24
233.09	1343.47
233.30	1378.28
233.52	1353.71
233.74	1322.99
233.96	1361.90
234.18	1363.95
234.40	1355.76
234.61	1417.19
234.83	1298.41
235.05	1312.75
235.27	1406.95
235.49	1454.06
235.70	1357.80
235.92	1464.30
236.14	1419.24
236.36	1398.76
236.58	1302.51
236.79	1349.61
237.01	1368.04
237.23	1437.67
237.45	1452.01
237.67	1353.71
237.88	1370.09
238.10	1413.10
238.32	1353.71
238.54	1355.76
238.76	1343.47
238.97	1390.57
239.19	1329.13
239.41	1413.10
239.63	1427.43
239.85	1370.09
240.06	1357.80
240.28	1351.66
240.50	1318.89
240.72	1292.27
240.93	1351.66
241.15	1419.24
241.37	1355.76
241.59	1478.63
241.81	1429.48
242.02	1370.09
242.24	1343.47
242.46	1316.84
242.68	1431.53
242.89	1300.46
243.11	1449.96
243.33	1388.52
243.55	1374.19
243.76	1419.24
243.98	1349.61
244.20	1398.76
244.42	1320.94
244.64	1415.15
244.85	1329.13
245.07	1325.04
245.29	1386.47
245.51	1380.33
245.72	1351.66
245.94	1361.90
246.16	1366.00
246.38	1443.82
246.59	1427.43
246.81	1341.42
247.03	1279.98
247.24	1302.51
247.46	1335.28
247.68	1396.71
247.90	1390.57
248.11	1341.42
248.33	1372.14
248.55	1413.10
248.77	1376.24
248.98	1421.29
249.20	1409.00
249.42	1406.95
249.64	1439.72
249.85	1353.71
250.07	1333.23
250.29	1382.38
250.50	1429.48
250.72	1353.71
250.94	1331.18
251.16	1456.11
251.37	1521.64
251.59	1423.34
251.81	1415.15
252.02	1425.39
252.24	1329.13
252.46	1359.85
252.68	1341.42
252.89	1282.03
253.11	1363.95
253.33	1419.24
253.54	1429.48
253.76	1398.76
253.98	1404.91
254.20	1404.91
254.41	1302.51
254.63	1357.80
254.85	1335.28
255.06	1265.64
255.28	1320.94
255.50	1341.42
255.71	1347.56
255.93	1306.60
256.15	1312.75
256.36	1460.20
256.58	1339.37
256.80	1495.02
257.02	1282.03
257.23	1316.84
257.45	1343.47
257.67	1398.76
257.88	1382.38
258.10	1327.08
258.32	1320.94
258.53	1386.47
258.75	1435.63
258.97	1366.00
259.18	1355.76
259.40	1363.95
259.62	1431.53
259.83	1435.63
260.05	1347.56
260.27	1546.22
260.48	1372.14
260.70	1288.17
260.92	1417.19
261.13	1361.90
261.35	1411.05
261.57	1427.43
261.78	1335.28
262.00	1249.26
262.22	1380.33
262.43	1347.56
262.65	1384.43
262.86	1386.47
263.08	1433.58
263.30	1390.57
263.51	1380.33
263.73	1400.81
263.95	1337.32
264.16	1308.65
264.38	1402.86
264.60	1505.26
264.81	1374.19
265.03	1437.67
265.25	1437.67
265.46	1370.09
265.68	1345.52
265.89	1441.77
266.11	1363.95
266.33	1398.76
266.54	1384.43
266.76	1331.18
266.98	1445.87
267.19	1472.49
267.41	1417.19
267.62	1398.76
267.84	1347.56
268.06	1366.00
268.27	1413.10
268.49	1396.71
268.70	1411.05
268.92	1417.19
269.14	1349.61
269.35	1359.85
269.57	1318.89
269.79	1419.24
270.00	1384.43
270.22	1515.50
270.43	1351.66
270.65	1273.84
270.87	1345.52
271.08	1384.43
271.30	1366.00
271.51	1363.95
271.73	1339.37
271.95	1378.28
272.16	1353.71
272.38	1415.15
272.59	1310.70
272.81	1277.93
273.02	1357.80
273.24	1417.19
273.46	1423.34
273.67	1312.75
273.89	1386.47
274.10	1300.46
274.32	1449.96
274.54	1423.34
274.75	1337.32
274.97	1404.91
275.18	1302.51
275.40	1347.56
275.61	1425.39
275.83	1396.71
276.05	1374.19
276.26	1304.56
276.48	1396.71
276.69	1322.99
276.91	1353.71
277.12	1435.63
277.34	1349.61
277.55	1372.14
277.77	1386.47
277.99	1349.61
278.20	1394.67
278.42	1427.43
278.63	1300.46
278.85	1347.56
279.06	1355.76
279.28	1366.00
279.49	1423.34
279.71	1366.00
279.93	1398.76
280.14	1349.61
280.36	1366.00
280.57	1456.11
280.79	1398.76
281.00	1298.41
281.22	1253.36
281.43	1437.67
281.65	1370.09
281.86	1390.57
282.08	1300.46
282.29	1396.71
282.51	1333.23
282.73	1318.89
282.94	1314.80
283.16	1431.53
283.37	1464.30
283.59	1372.14
283.80	1378.28
284.02	1392.62
284.23	1394.67
284.45	1331.18
284.66	1366.00
284.88	1298.41
285.09	1404.91
285.31	1447.91
285.52	1368.04
285.74	1255.40
285.95	1353.71
286.17	1386.47
286.38	1378.28
286.60	1372.14
286.81	1353.71
287.03	1400.81
287.24	1404.91
287.46	1468.39
287.67	1425.39
287.89	1380.33
288.10	1357.80
288.32	1386.47
288.53	1419.24
288.75	1380.33
288.96	1386.47
289.18	1337.32
289.39	1370.09
289.61	1382.38
289.82	1413.10
290.04	1486.83
290.25	1368.04
290.47	1329.13
290.68	1443.82
290.90	1486.83
291.11	1325.04
291.33	1359.85
291.54	1318.89
291.76	1327.08
291.97	1345.52
292.18	1368.04
292.40	1357.80
292.61	1314.80
292.83	1390.57
293.04	1390.57
293.26	1392.62
293.47	1347.56
293.69	1333.23
293.90	1380.33
294.12	1394.67
294.33	1351.66
294.55	1409.00
294.76	1433.58
294.97	1515.50
295.19	1425.39
295.40	1347.56
295.62	1310.70
295.83	1355.76
296.05	1361.90
296.26	1357.80
296.48	1392.62
296.69	1300.46
296.90	1355.76
297.12	1363.95
297.33	1404.91
297.55	1431.53
297.76	1384.43
297.98	1437.67
298.19	1345.52
298.41	1335.28
298.62	1325.04
298.83	1417.19
299.05	1363.95
299.26	1304.56
299.48	1345.52
299.69	1361.90
299.90	1310.70
300.12	1337.32
300.33	1351.66
300.55	1343.47
300.76	1431.53
300.98	1355.76
301.19	1347.56
301.40	1286.12
301.62	1380.33
301.83	1347.56
302.05	1413.10
302.26	1415.15
302.47	1376.24
302.69	1318.89
302.90	1312.75
303.12	1304.56
303.33	1404.91
303.54	1370.09
303.76	1282.03
303.97	1472.49
304.19	1388.52
304.40	1300.46
304.61	1435.63
304.83	1439.72
305.04	1443.82
305.26	1417.19
305.47	1413.10
305.68	1417.19
305.90	1288.17
306.11	1394.67
306.33	1333.23
306.54	1386.47
306.75	1370.09
306.97	1333.23
307.18	1331.18
307.39	1331.18
307.61	1359.85
307.82	1394.67
308.04	1400.81
308.25	1357.80
308.46	1402.86
308.68	1361.90
308.89	1318.89
309.10	1359.85
309.32	1355.76
309.53	1361.90
309.74	1404.91
309.96	1406.95
310.17	1415.15
310.39	1335.28
310.60	1396.71
310.81	1443.82
311.03	1337.32
311.24	1396.71
311.45	1290.22
311.67	1419.24
311.88	1392.62
312.09	1341.42
312.31	1300.46
312.52	1284.08
312.73	1296.36
312.95	1359.85
313.16	1353.71
313.37	1437.67
313.59	1366.00
313.80	1439.72
314.01	1437.67
314.23	1322.99
314.44	1320.94
314.65	1347.56
314.87	1355.76
315.08	1378.28
315.29	1366.00
315.51	1357.80
315.72	1335.28
315.93	1423.34
316.15	1359.85
316.36	1429.48
316.57	1339.37
316.79	1404.91
317.00	1427.43
317.21	1396.71
317.43	1406.95
317.64	1417.19
317.85	1400.81
318.07	1488.87
318.28	1533.93
318.49	1597.42
318.70	1675.24
318.92	1503.21
319.13	1421.29
319.34	1513.45
319.56	1492.97
319.77	1513.45
319.98	1402.86
320.20	1492.97
320.41	1474.54
320.62	1490.92
320.83	1329.13
321.05	1456.11
321.26	1343.47
321.47	1347.56
321.69	1363.95
321.90	1279.98
322.11	1343.47
322.32	1329.13
322.54	1349.61
322.75	1277.93
322.96	1449.96
323.18	1308.65
323.39	1312.75
323.60	1253.36
323.81	1445.87
324.03	1284.08
324.24	1288.17
324.45	1368.04
324.66	1402.86
324.88	1439.72
325.09	1468.39
325.30	1308.65
325.52	1331.18
325.73	1355.76
325.94	1388.52
326.15	1355.76
326.37	1343.47
326.58	1351.66
326.79	1421.29
327.00	1304.56
327.22	1398.76
327.43	1431.53
327.64	1331.18
327.85	1400.81
328.07	1392.62
328.28	1390.57
328.49	1288.17
328.70	1406.95
328.92	1423.34
329.13	1251.31
329.34	1382.38
329.55	1388.52
329.76	1406.95
329.98	1361.90
330.19	1376.24
330.40	1380.33
330.61	1388.52
330.83	1384.43
331.04	1439.72
331.25	1331.18
331.46	1290.22
331.68	1308.65
331.89	1382.38
332.10	1409.00
332.31	1335.28
332.52	1427.43
332.74	1404.91
332.95	1290.22
333.16	1288.17
333.37	1355.76
333.58	1386.47
333.80	1398.76
334.01	1220.59
334.22	1314.80
334.43	1425.39
334.64	1312.75
334.86	1320.94
335.07	1302.51
335.28	1409.00
335.49	1363.95
335.70	1390.57
335.92	1449.96
336.13	1419.24
336.34	1390.57
336.55	1302.51
336.76	1411.05
336.98	1308.65
337.19	1368.04
337.40	1413.10
337.61	1462.25
337.82	1294.32
338.04	1302.51
338.25	1310.70
338.46	1396.71
338.67	1355.76
338.88	1351.66
339.09	1351.66
339.31	1325.04
339.52	1353.71
339.73	1286.12
339.94	1447.91
340.15	1419.24
340.36	1411.05
340.58	1337.32
340.79	1376.24
341.00	1392.62
341.21	1374.19
341.42	1458.15
341.63	1347.56
341.85	1388.52
342.06	1380.33
342.27	1306.60
342.48	1421.29
342.69	1320.94
342.90	1372.14
343.12	1331.18
343.33	1327.08
343.54	1345.52
343.75	1425.39
343.96	1404.91
344.17	1296.36
344.38	1392.62
344.60	1374.19
344.81	1320.94
345.02	1361.90
345.23	1372.14
345.44	1495.02
345.65	1447.91
345.86	1392.62
346.07	1353.71
346.29	1322.99
346.50	1304.56
346.71	1429.48
346.92	1439.72
347.13	1456.11
347.34	1322.99
347.55	1413.10
347.76	1372.14
347.98	1302.51
348.19	1325.04
348.40	1454.06
348.61	1415.15
348.82	1429.48
349.03	1437.67
349.24	1296.36
349.45	1394.67
349.66	1355.76
349.88	1325.04
350.09	1411.05
350.30	1402.86
350.51	1333.23
350.72	1347.56
350.93	1359.85
351.14	1382.38
351.35	1339.37
351.56	1259.50
351.77	1404.91
351.99	1429.48
352.20	1433.58
352.41	1402.86
352.62	1322.99
352.83	1355.76
353.04	1343.47
353.25	1390.57
353.46	1396.71
353.67	1394.67
353.88	1279.98
354.09	1411.05
354.30	1290.22
354.52	1370.09
354.73	1294.32
354.94	1343.47
355.15	1357.80
355.36	1425.39
355.57	1413.10
355.78	1388.52
355.99	1355.76
356.20	1417.19
356.41	1398.76
356.62	1384.43
356.83	1400.81
357.04	1439.72
357.25	1282.03
357.46	1386.47
357.68	1282.03
357.89	1279.98
358.10	1263.60
358.31	1325.04
358.52	1331.18
358.73	1337.32
358.94	1320.94
359.15	1396.71
359.36	1378.28
359.57	1351.66
359.78	1357.80
359.99	1368.04
360.20	1325.04
360.41	1306.60
360.62	1437.67
360.83	1419.24
361.04	1329.13
361.25	1316.84
361.46	1462.25
361.67	1404.91
361.88	1390.57
362.09	1339.37
362.30	1441.77
362.51	1331.18
362.72	1394.67
362.93	1359.85
363.14	1460.20
363.35	1370.09
363.56	1320.94
363.78	1353.71
363.99	1339.37
364.20	1316.84
364.41	1345.52
364.62	1435.63
364.83	1339.37
365.04	1404.91
365.25	1353.71
365.46	1386.47
365.67	1286.12
365.88	1425.39
366.09	1345.52
366.30	1376.24
366.51	1433.58
366.72	1343.47
366.93	1380.33
367.14	1363.95
367.35	1488.87
367.56	1363.95
367.77	1454.06
367.98	1400.81
368.18	1388.52
368.39	1409.00
368.60	1247.21
368.81	1316.84
369.02	1388.52
369.23	1349.61
369.44	1249.26
369.65	1355.76
369.86	1339.37
370.07	1318.89
370.28	1292.27
370.49	1423.34
370.70	1353.71
370.91	1312.75
371.12	1339.37
371.33	1378.28
371.54	1413.10
371.75	1492.97
371.96	1255.40
372.17	1384.43
372.38	1327.08
372.59	1382.38
372.80	1386.47
373.01	1343.47
373.22	1314.80
373.43	1357.80
373.64	1314.80
373.85	1347.56
374.06	1394.67
374.26	1378.28
374.47	1372.14
374.68	1327.08
374.89	1435.63
375.10	1376.24
375.31	1409.00
375.52	1359.85
375.73	1433.58
375.94	1335.28
376.15	1488.87
376.36	1351.66
376.57	1361.90
376.78	1331.18
376.99	1396.71
377.20	1390.57
377.40	1304.56
377.61	1423.34
377.82	1320.94
378.03	1378.28
378.24	1413.10
378.45	1366.00
378.66	1388.52
378.87	1363.95
379.08	1366.00
379.29	1386.47
379.50	1396.71
379.71	1374.19
379.91	1464.30
380.12	1347.56
380.33	1435.63
380.54	1341.42
380.75	1331.18
380.96	1372.14
381.17	1480.68
381.38	1400.81
381.59	1535.98
381.80	1492.97
382.00	1521.64
382.21	1390.57
382.42	1519.59
382.63	1468.39
382.84	1435.63
383.05	1443.82
383.26	1462.25
383.47	1406.95
383.68	1374.19
383.88	1460.20
384.09	1363.95
384.30	1439.72
384.51	1447.91
384.72	1341.42
384.93	1400.81
385.14	1351.66
385.35	1474.54
385.55	1318.89
385.76	1374.19
385.97	1429.48
386.18	1419.24
386.39	1327.08
386.60	1415.15
386.81	1433.58
387.02	1363.95
387.22	1396.71
387.43	1419.24
387.64	1548.26
387.85	2322.40
388.06	5769.13
388.27	9465.71
388.48	11482.96
388.68	13037.37
388.89	13262.65
389.10	10481.50
389.31	8955.77
389.52	8101.76
389.73	7331.73
389.93	6799.26
390.14	6625.18
390.35	6014.88
390.56	5603.24
390.77	4634.55
390.98	3651.53
391.18	2869.20
391.39	2058.21
391.60	1710.05
391.81	1581.03
392.02	1435.63
392.23	1503.21
392.43	1378.28
392.64	1419.24
392.85	1417.19
393.06	1441.77
393.27	1394.67
393.47	1333.23
393.68	1382.38
393.89	1357.80
394.10	1439.72
394.31	1384.43
394.52	1384.43
394.72	1357.80
394.93	1411.05
395.14	1327.08
395.35	1394.67
395.56	1406.95
395.76	1437.67
395.97	1490.92
396.18	1617.90
396.39	1626.09
396.60	1697.77
396.80	1597.42
397.01	1507.30
397.22	1452.01
397.43	1527.78
397.64	1478.63
397.84	1474.54
398.05	1482.73
398.26	1497.07
398.47	1415.15
398.67	1374.19
398.88	1388.52
399.09	1345.52
399.30	1384.43
399.51	1396.71
399.71	1347.56
399.92	1359.85
400.13	1361.90
400.34	1343.47
400.54	1368.04
400.75	1431.53
400.96	1429.48
401.17	1517.54
401.37	1327.08
401.58	1390.57
401.79	1542.12
402.00	1710.05
402.21	1775.59
402.41	1849.32
402.62	1785.83
402.83	1705.96
403.04	1683.43
403.24	1703.91
403.45	1499.11
403.66	1533.93
403.87	1562.60
404.07	1585.13
404.28	1560.55
404.49	1484.78
404.70	1409.00
404.90	1460.20
405.11	1370.09
405.32	1343.47
405.52	1382.38
405.73	1368.04
405.94	1378.28
406.15	1441.77
406.35	1341.42
406.56	1314.80
406.77	1400.81
406.98	1368.04
407.18	1337.32
407.39	1429.48
407.60	1380.33
407.80	1296.36
408.01	1376.24
408.22	1411.05
408.43	1349.61
408.63	1439.72
408.84	1337.32
409.05	1472.49
409.25	1304.56
409.46	1363.95
409.67	1341.42
409.88	1347.56
410.08	1464.30
410.29	1370.09
410.50	1302.51
410.70	1413.10
410.91	1236.97
411.12	1366.00
411.32	1347.56
411.53	1370.09
411.74	1613.80
411.95	1460.20
412.15	1472.49
412.36	1443.82
412.57	1392.62
412.77	1449.96
412.98	1462.25
413.19	1396.71
413.39	1400.81
413.60	1417.19
413.81	1474.54
414.01	1378.28
414.22	1441.77
414.43	1380.33
414.63	1327.08
414.84	1388.52
415.05	1404.91
415.25	1341.42
415.46	1384.43
415.67	1320.94
415.87	1398.76
416.08	1339.37
416.29	1327.08
416.49	1341.42
416.70	1322.99
416.91	1359.85
417.11	1337.32
417.32	1460.20
417.53	1386.47
417.73	1406.95
417.94	1384.43
418.15	1380.33
418.35	1376.24
418.56	1427.43
418.77	1468.39
418.97	1335.28
419.18	1406.95
419.38	1308.65
419.59	1343.47
419.80	1452.01
420.00	1409.00
420.21	1316.84
420.42	1454.06
420.62	1347.56
420.83	1370.09
421.04	1353.71
421.24	1341.42
421.45	1386.47
421.65	1363.95
421.86	1382.38
422.07	1429.48
422.27	1320.94
422.48	1363.95
422.69	1359.85
422.89	1349.61
423.10	1353.71
423.30	1372.14
423.51	1327.08
423.72	1368.04
423.92	1386.47
424.13	1275.88
424.33	1368.04
424.54	1452.01
424.75	1310.70
424.95	1474.54
425.16	1392.62
425.36	1347.56
425.57	1419.24
425.78	1402.86
425.98	1423.34
426.19	1300.46
426.39	1329.13
426.60	1368.04
426.81	1388.52
427.01	1435.63
427.22	1325.04
427.42	1415.15
427.63	1366.00
427.83	1433.58
428.04	1419.24
428.25	1347.56
428.45	1392.62
428.66	1421.29
428.86	1368.04
429.07	1337.32
429.28	1343.47
429.48	1347.56
429.69	1320.94
429.89	1376.24
430.10	1339.37
430.30	1396.71
430.51	1396.71
430.71	1322.99
430.92	1357.80
431.13	1366.00
431.33	1437.67
431.54	1376.24
431.74	1404.91
431.95	1413.10
432.15	1353.71
432.36	1366.00
432.56	1376.24
432.77	1474.54
432.98	1476.59
433.18	1409.00
433.39	1341.42
433.59	1316.84
433.80	1427.43
434.00	1470.44
434.21	1378.28
434.41	1318.89
434.62	1505.26
434.82	1302.51
435.03	1347.56
435.23	1329.13
435.44	1372.14
435.64	1378.28
435.85	1353.71
436.06	1400.81
436.26	1388.52
436.47	1378.28
436.67	1345.52
436.88	1398.76
437.08	1339.37
437.29	1398.76
437.49	1374.19
437.70	1404.91
437.90	1382.38
438.11	1519.59
438.31	1435.63
438.52	1589.22
438.72	1517.54
438.93	1576.94
439.13	1531.88
439.34	1423.34
439.54	1398.76
439.75	1384.43
439.95	1419.24
440.16	1357.80
440.36	1366.00
440.57	1458.15
440.77	1472.49
440.98	1419.24
441.18	1396.71
441.39	1304.56
441.59	1368.04
441.80	1400.81
442.00	1413.10
442.21	1472.49
442.41	1361.90
442.62	1423.34
442.82	1415.15
443.02	1415.15
443.23	1423.34
443.43	1378.28
443.64	1394.67
443.84	1320.94
444.05	1521.64
444.25	1505.26
444.46	1382.38
444.66	1359.85
444.87	1417.19
445.07	1417.19
445.28	1384.43
445.48	1413.10
445.69	1443.82
445.89	1515.50
446.09	1458.15
446.30	2230.24
446.50	3663.82
446.71	4616.12
446.91	5115.83
447.12	5504.94
447.32	4886.45
447.53	4155.33
447.73	3655.62
447.93	3418.06
448.14	3149.78
448.34	3024.85
448.55	2787.29
448.75	2754.52
448.96	2707.41
449.16	2336.73
449.36	2125.79
449.57	1929.19
449.77	1701.86
449.98	1552.36
450.18	1458.15
450.39	1429.48
450.59	1396.71
450.79	1361.90
451.00	1456.11
451.20	1429.48
451.41	1359.85
451.61	1378.28
451.81	1374.19
452.02	1394.67
452.22	1337.32
452.43	1429.48
452.63	1345.52
452.84	1361.90
453.04	1380.33
453.24	1366.00
453.45	1431.53
453.65	1380.33
453.86	1368.04
454.06	1384.43
454.26	1312.75
454.47	1347.56
454.67	1458.15
454.87	1339.37
455.08	1357.80
455.28	1464.30
455.49	1454.06
455.69	1384.43
455.89	1417.19
456.10	1370.09
456.30	1339.37
456.51	1456.11
456.71	1417.19
456.91	1341.42
457.12	1427.43
457.32	1345.52
457.52	1312.75
457.73	1441.77
457.93	1359.85
458.14	1388.52
458.34	1286.12
458.54	1390.57
458.75	1296.36
458.95	1351.66
459.15	1415.15
459.36	1386.47
459.56	1394.67
459.76	1398.76
459.97	1386.47
460.17	1425.39
460.37	1419.24
460.58	1409.00
460.78	1404.91
460.99	1378.28
461.19	1421.29
461.39	1335.28
461.60	1411.05
461.80	1439.72
462.00	1376.24
462.21	1370.09
462.41	1251.31
462.61	1458.15
462.82	1361.90
463.02	1378.28
463.22	1374.19
463.43	1441.77
463.63	1406.95
463.83	1378.28
464.04	1351.66
464.24	1390.57
464.44	1361.90
464.64	1337.32
464.85	1480.68
465.05	1456.11
465.25	1353.71
465.46	1337.32
465.66	1361.90
465.86	1404.91
466.07	1388.52
466.27	1388.52
466.47	1372.14
466.68	1298.41
466.88	1384.43
467.08	1329.13
467.29	1419.24
467.49	1429.48
467.69	1462.25
467.89	1366.00
468.10	1368.04
468.30	1437.67
468.50	1345.52
468.71	1413.10
468.91	1411.05
469.11	1464.30
469.31	1327.08
469.52	1300.46
469.72	1318.89
469.92	1413.10
470.13	1409.00
470.33	1462.25
470.53	1673.19
470.73	2050.02
470.94	2228.19
471.14	2328.54
471.34	2494.43
471.54	2224.09
471.75	2109.41
471.95	1943.52
472.15	1902.56
472.36	1892.32
472.56	1763.30
472.76	1771.49
472.96	1812.45
473.17	1685.48
473.37	1671.14
473.57	1591.27
473.77	1470.44
473.98	1482.73
474.18	1409.00
474.38	1466.35
474.58	1374.19
474.79	1425.39
474.99	1445.87
475.19	1431.53
475.39	1298.41
475.60	1400.81
475.80	1392.62
476.00	1363.95
476.20	1298.41
476.41	1396.71
476.61	1429.48
476.81	1431.53
477.01	1380.33
477.21	1402.86
477.42	1396.71
477.62	1327.08
477.82	1419.24
478.02	1378.28
478.23	1398.76
478.43	1310.70
478.63	1320.94
478.83	1353.71
479.03	1363.95
479.24	1456.11
479.44	1443.82
479.64	1322.99
479.84	1353.71
480.04	1458.15
480.25	1400.81
480.45	1343.47
480.65	1380.33
480.85	1517.54
481.06	1386.47
481.26	1320.94
481.46	1357.80
481.66	1419.24
481.86	1333.23
482.06	1402.86
482.27	1382.38
482.47	1333.23
482.67	1368.04
482.87	1390.57
483.07	1447.91
483.28	1386.47
483.48	1310.70
483.68	1431.53
483.88	1376.24
484.08	1322.99
484.29	1361.90
484.49	1445.87
484.69	1384.43
484.89	1345.52
485.09	1382.38
485.29	1349.61
485.50	1417.19
485.70	1409.00
485.90	1458.15
486.10	1380.33
486.30	1415.15
486.50	1421.29
486.71	1398.76
486.91	1357.80
487.11	1443.82
487.31	1366.00
487.51	1413.10
487.71	1277.93
487.91	1423.34
488.12	1290.22
488.32	1298.41
488.52	1288.17
488.72	1312.75
488.92	1361.90
489.12	1374.19
489.32	1386.47
489.53	1380.33
489.73	1294.32
489.93	1353.71
490.13	1322.99
490.33	1388.52
490.53	1394.67
490.73	1388.52
490.94	1366.00
491.14	1466.35
491.34	1595.37
491.54	2111.46
491.74	2658.26
491.94	2879.44
492.14	3182.54
492.34	3045.33
492.54	2516.95
492.75	2330.59
492.95	2193.37
493.15	2074.59
493.35	2033.63
493.55	1949.67
493.75	1896.42
493.95	1927.14
494.15	1810.40
494.35	1691.62
494.56	1665.00
494.76	1509.35
494.96	1466.35
495.16	1429.48
495.36	1445.87
495.56	1386.47
495.76	1363.95
495.96	1318.89
496.16	1392.62
496.36	1427.43
496.56	1400.81
496.77	1361.90
496.97	1359.85
497.17	1368.04
497.37	1368.04
497.57	1427.43
497.77	1325.04
497.97	1402.86
498.17	1400.81
498.37	1394.67
498.57	1409.00
498.77	1355.76
498.97	1417.19
499.17	1464.30
499.38	1390.57
499.58	1409.00
499.78	1449.96
499.98	1374.19
500.18	1388.52
500.38	1445.87
500.58	1656.81
500.78	2953.17
500.98	5506.99
501.18	6950.81
501.38	7972.74
501.58	8521.60
501.78	7339.92
501.98	5779.37
502.18	5003.19
502.38	4491.20
502.58	4095.94
502.78	3743.69
502.98	3643.34
503.18	3551.18
503.38	3266.51
503.59	3047.38
503.79	2848.72
503.99	2574.30
504.19	2355.16
504.39	2107.36
504.59	1998.82
504.79	1892.32
504.99	1853.41
505.19	1587.18
505.39	1632.23
505.59	1605.61
505.79	1507.30
505.99	1472.49
506.19	1540.07
506.39	1556.46
506.59	1427.43
506.79	1437.67
506.99	1447.91
507.19	1462.25
507.39	1392.62
507.59	1339.37
507.79	1353.71
507.99	1409.00
508.19	1435.63
508.39	1380.33
508.59	1384.43
508.79	1380.33
508.99	1478.63
509.19	1298.41
509.39	1413.10
509.59	1427.43
509.79	1357.80
509.99	1376.24
510.19	1445.87
510.39	1384.43
510.59	1374.19
510.79	1322.99
510.99	1368.04
511.19	1339.37
511.39	1382.38
511.59	1363.95
511.79	1464.30
511.99	1390.57
512.19	1376.24
512.38	1404.91
512.58	1368.04
512.78	1368.04
512.98	1456.11
513.18	1380.33
513.38	1253.36
513.58	1417.19
513.78	1304.56
513.98	1374.19
514.18	1314.80
514.38	1347.56
514.58	1478.63
514.78	1380.33
514.98	1353.71
515.18	1411.05
515.38	1265.64
515.58	1460.20
515.78	1390.57
515.98	1310.70
516.18	1400.81
516.38	1351.66
516.57	1347.56
516.77	1402.86
516.97	1320.94
517.17	1331.18
517.37	1308.65
517.57	1363.95
517.77	1296.36
517.97	1396.71
518.17	1413.10
518.37	1374.19
518.57	1382.38
518.77	1359.85
518.97	1394.67
519.16	1484.78
519.36	1433.58
519.56	1406.95
519.76	1445.87
519.96	1376.24
520.16	1437.67
520.36	1347.56
520.56	1404.91
520.76	1304.56
520.96	1349.61
521.16	1413.10
521.35	1454.06
521.55	1437.67
521.75	1406.95
521.95	1351.66
522.15	1392.62
522.35	1302.51
522.55	1343.47
522.75	1363.95
522.95	1380.33
523.14	1392.62
523.34	1359.85
523.54	1343.47
523.74	1374.19
523.94	1351.66
524.14	1366.00
524.34	1357.80
524.54	1429.48
524.73	1363.95
524.93	1318.89
525.13	1368.04
525.33	1300.46
525.53	1464.30
525.73	1331.18
525.93	1378.28
526.13	1310.70
526.32	1404.91
526.52	1384.43
526.72	1331.18
526.92	1372.14
527.12	1347.56
527.32	1329.13
527.52	1314.80
527.71	1380.33
527.91	1320.94
528.11	1409.00
528.31	1361.90
528.51	1327.08
528.71	1402.86
528.90	1423.34
529.10	1462.25
529.30	1355.76
529.50	1304.56
529.70	1415.15
529.90	1259.50
530.09	1318.89
530.29	1325.04
530.49	1322.99
530.69	1449.96
530.89	1378.28
531.09	1363.95
531.28	1427.43
531.48	1353.71
531.68	1386.47
531.88	1355.76
532.08	1359.85
532.28	1312.75
532.47	1415.15
532.67	1476.59
532.87	1390.57
533.07	1372.14
533.27	1423.34
533.46	1437.67
533.66	1441.77
533.86	1413.10
534.06	1388.52
534.26	1390.57
534.45	1374.19
534.65	1492.97
534.85	1449.96
535.05	1388.52
535.25	1411.05
535.44	1339.37
535.64	1392.62
535.84	1409.00
536.04	1390.57
536.24	1304.56
536.43	1441.77
536.63	1435.63
536.83	1327.08
537.03	1429.48
537.22	1366.00
537.42	1312.75
537.62	1355.76
537.82	1361.90
538.02	1429.48
538.21	1470.44
538.41	1507.30
538.61	1320.94
538.81	1392.62
539.00	1392.62
539.20	1337.32
539.40	1345.52
539.60	1482.73
539.79	1363.95
539.99	1398.76
540.19	1361.90
540.39	1429.48
540.58	1370.09
540.78	1445.87
540.98	1382.38
541.18	1380.33
541.37	1384.43
541.57	1388.52
541.77	1380.33
541.97	1329.13
542.16	1286.12
542.36	1335.28
542.56	1392.62
542.76	1378.28
542.95	1372.14
543.15	1427.43
543.35	1386.47
543.54	1304.56
543.74	1421.29
543.94	1388.52
544.14	1402.86
544.33	1415.15
544.53	1390.57
544.73	1335.28
544.93	1411.05
545.12	1355.76
545.32	1327.08
545.52	1378.28
545.71	1290.22
545.91	1366.00
546.11	1439.72
546.30	1271.79
546.50	1411.05
546.70	1370.09
546.90	1427.43
547.09	1290.22
547.29	1292.27
547.49	1380.33
547.68	1427.43
547.88	1396.71
548.08	1501.16
548.27	1683.43
548.47	1337.32
548.67	1304.56
548.87	1458.15
549.06	1345.52
549.26	1437.67
549.46	1363.95
549.65	1376.24
549.85	1441.77
550.05	1366.00
550.24	1380.33
550.44	1443.82
550.64	1382.38
550.83	1376.24
551.03	1404.91
551.23	1433.58
551.42	1384.43
551.62	1333.23
551.82	1347.56
552.01	1462.25
552.21	1435.63
552.41	1382.38
552.60	1429.48
552.80	1394.67
553.00	1366.00
553.19	1349.61
553.39	1398.76
553.59	1404.91
553.78	1392.62
553.98	1392.62
554.17	1394.67
554.37	1343.47
554.57	1411.05
554.76	1366.00
554.96	1357.80
555.16	1404.91
555.35	1431.53
555.55	1396.71
555.75	1464.30
555.94	1433.58
556.14	1402.86
556.33	1366.00
556.53	1363.95
556.73	1396.71
556.92	1388.52
557.12	1368.04
557.32	1511.40
557.51	1425.39
557.71	1386.47
557.90	1351.66
558.10	1495.02
558.30	1345.52
558.49	1376.24
558.69	1372.14
558.88	1417.19
559.08	1372.14
559.28	1370.09
559.47	1413.10
559.67	1406.95
559.86	1429.48
560.06	1427.43
560.26	1384.43
560.45	1368.04
560.65	1419.24
560.84	1361.90
561.04	1419.24
561.24	1390.57
561.43	1351.66
561.63	1474.54
561.82	1347.56
562.02	1339.37
562.22	1329.13
562.41	1343.47
562.61	1345.52
562.80	1288.17
563.00	1456.11
563.19	1361.90
563.39	1419.24
563.59	1419.24
563.78	1366.00
563.98	1292.27
564.17	1386.47
564.37	1314.80
564.56	1384.43
564.76	1439.72
564.96	1443.82
565.15	1386.47
565.35	1435.63
565.54	1357.80
565.74	1355.76
565.93	1449.96
566.13	1376.24
566.32	1353.71
566.52	1478.63
566.71	1363.95
566.91	1394.67
567.11	1427.43
567.30	1284.08
567.50	1390.57
567.69	1482.73
567.89	1353.71
568.08	1435.63
568.28	1370.09
568.47	1320.94
568.67	1359.85
568.86	1292.27
569.06	1374.19
569.25	1335.28
569.45	1355.76
569.64	1378.28
569.84	1374.19
570.04	1351.66
570.23	1331.18
570.43	1390.57
570.62	1370.09
570.82	1535.98
571.01	1318.89
571.21	1351.66
571.40	1366.00
571.60	1419.24
571.79	1445.87
571.99	1380.33
572.18	1357.80
572.38	1363.95
572.57	1359.85
572.77	1374.19
572.96	1478.63
573.16	1480.68
573.35	1458.15
573.55	1406.95
573.74	1392.62
573.94	1337.32
574.13	1388.52
574.33	1474.54
574.52	1478.63
574.71	1402.86
574.91	1398.76
575.10	1361.90
575.30	1361.90
575.49	1347.56
575.69	1421.29
575.88	1419.24
576.08	1433.58
576.27	1542.12
576.47	1480.68
576.66	1503.21
576.86	1476.59
577.05	1423.34
577.25	1495.02
577.44	1429.48
577.64	1417.19
577.83	1376.24
578.02	1363.95
578.22	1476.59
578.41	1443.82
578.61	1382.38
578.80	1374.19
579.00	1449.96
579.19	1429.48
579.39	1368.04
579.58	1409.00
579.77	1427.43
579.97	1544.17
580.16	1517.54
580.36	1468.39
580.55	1390.57
580.75	1337.32
580.94	1404.91
581.13	1492.97
581.33	1476.59
581.52	1417.19
581.72	1538.02
581.91	1462.25
582.11	1456.11
582.30	1398.76
582.49	1400.81
582.69	1447.91
582.88	1404.91
583.08	1372.14
583.27	1396.71
583.47	1382.38
583.66	1404.91
583.85	1452.01
584.05	1425.39
584.24	1415.15
584.44	1435.63
584.63	1484.78
584.82	1445.87
585.02	1605.61
585.21	1550.31
585.41	1525.74
585.60	1652.71
585.79	1628.14
585.99	1578.98
586.18	1656.81
586.37	1867.75
586.57	2721.75
586.76	7792.52
586.96	23959.19
587.15	40492.44
587.34	51623.15
587.54	59157.63
587.73	58827.90
587.93	44735.83
588.12	32699.92
588.31	26480.24
588.51	22398.63
588.70	19873.49
588.89	18134.76
589.09	17094.40
589.28	15658.77
589.47	14049.07
589.67	12386.12
589.86	10549.09
590.06	8439.68
590.25	6543.26
590.44	4884.41
590.64	3690.44
590.83	2756.57
591.02	2220.00
591.22	1869.80
591.41	1884.13
591.60	1601.51
591.80	1665.00
591.99	1476.59
592.18	1458.15
592.38	1517.54
592.57	1474.54
592.76	1490.92
592.96	1478.63
593.15	1423.34
593.34	1482.73
593.54	1433.58
593.73	1404.91
593.92	1484.78
594.12	1505.26
594.31	1468.39
594.50	1556.46
594.70	1531.88
594.89	1576.94
595.08	1396.71
595.28	1445.87
595.47	1626.09
595.66	1437.67
595.86	1343.47
596.05	1411.05
596.24	1429.48
596.43	1398.76
596.63	1425.39
596.82	1421.29
597.01	1388.52
597.21	1499.11
597.40	1429.48
597.59	1400.81
597.79	1417.19
597.98	1433.58
598.17	1366.00
598.36	1427.43
598.56	1427.43
598.75	1421.29
598.94	1404.91
599.14	1398.76
599.33	1351.66
599.52	1468.39
599.71	1380.33
599.91	1423.34
600.10	1413.10
600.29	1394.67
600.48	1419.24
600.68	1413.10
600.87	1384.43
601.06	1279.98
601.26	1386.47
601.45	1396.71
601.64	1374.19
601.83	1486.83
602.03	1361.90
602.22	1308.65
602.41	1394.67
602.60	1441.77
602.80	1421.29
602.99	1404.91
603.18	1411.05
603.37	1445.87
603.57	1388.52
603.76	1376.24
603.95	1464.30
604.14	1411.05
604.34	1335.28
604.53	1331.18
604.72	1421.29
604.91	1409.00
605.10	1452.01
605.30	1406.95
605.49	1445.87
605.68	1388.52
605.87	1417.19
606.07	1353.71
606.26	1363.95
606.45	1404.91
606.64	1363.95
606.84	1431.53
607.03	1472.49
607.22	1409.00
607.41	1413.10
607.60	1447.91
607.80	1462.25
607.99	1429.48
608.18	1349.61
608.37	1384.43
608.56	1355.76
608.76	1421.29
608.95	1468.39
609.14	1476.59
609.33	1441.77
609.52	1525.74
609.72	1509.35
609.91	1525.74
610.10	1454.06
610.29	1484.78
610.48	1382.38
610.68	1382.38
610.87	1368.04
611.06	1388.52
611.25	1372.14
611.44	1384.43
611.63	1380.33
611.83	1478.63
612.02	1290.22
612.21	1507.30
612.40	1341.42
612.59	1345.52
612.79	1361.90
612.98	1411.05
613.17	1468.39
613.36	1349.61
613.55	1445.87
613.74	1417.19
613.93	1490.92
614.13	1540.07
614.32	1556.46
614.51	1609.70
614.70	1562.60
614.89	1464.30
615.08	1476.59
615.28	1634.28
615.47	1370.09
615.66	1486.83
615.85	1458.15
616.04	1411.05
616.23	1486.83
616.42	1468.39
616.62	1425.39
616.81	1441.77
617.00	1380.33
617.19	1484.78
617.38	1413.10
617.57	1306.60
617.76	1454.06
617.95	1421.29
618.15	1351.66
618.34	1497.07
618.53	1345.52
618.72	1378.28
618.91	1462.25
619.10	1439.72
619.29	1388.52
619.48	1331.18
619.68	1382.38
619.87	1388.52
620.06	1361.90
620.25	1392.62
620.44	1378.28
620.63	1376.24
620.82	1384.43
621.01	1406.95
621.20	1390.57
621.39	1392.62
621.59	1482.73
621.78	1452.01
621.97	1376.24
622.16	1427.43
622.35	1368.04
622.54	1402.86
622.73	1361.90
622.92	1337.32
623.11	1470.44
623.30	1425.39
623.49	1310.70
623.68	1337.32
623.88	1456.11
624.07	1417.19
624.26	1329.13
624.45	1308.65
624.64	1363.95
624.83	1443.82
625.02	1325.04
625.21	1388.52
625.40	1339.37
625.59	1433.58
625.78	1374.19
625.97	1337.32
626.16	1454.06
626.35	1472.49
626.54	1361.90
626.74	1454.06
626.93	1458.15
627.12	1394.67
627.31	1490.92
627.50	1411.05
627.69	1396.71
627.88	1411.05
628.07	1343.47
628.26	1337.32
628.45	1376.24
628.64	1470.44
628.83	1411.05
629.02	1353.71
629.21	1425.39
629.40	1345.52
629.59	1427.43
629.78	1372.14
629.97	1351.66
630.16	1368.04
630.35	1370.09
630.54	1386.47
630.73	1404.91
630.92	1386.47
631.11	1388.52
631.30	1431.53
631.49	1388.52
631.68	1449.96
631.87	1431.53
632.06	1339.37
632.25	1443.82
632.44	1376.24
632.63	1394.67
632.82	1464.30
633.01	1404.91
633.20	1476.59
633.39	1486.83
633.58	1503.21
633.77	1411.05
633.96	1456.11
634.15	1427.43
634.34	1435.63
634.53	1423.34
634.72	1390.57
634.91	1286.12
635.10	1404.91
635.29	1406.95
635.48	1495.02
635.67	1370.09
635.86	1331.18
636.05	1402.86
636.24	1310.70
636.43	1353.71
636.62	1351.66
636.81	1335.28
637.00	1363.95
637.19	1439.72
637.38	1394.67
637.57	1400.81
637.76	1417.19
637.95	1406.95
638.14	1435.63
638.33	1505.26
638.52	1490.92
638.71	1460.20
638.89	1482.73
639.08	1538.02
639.27	1466.35
639.46	1447.91
639.65	1734.63
639.84	1845.22
640.03	1992.67
640.22	2054.11
640.41	2133.98
640.60	1937.38
640.79	1746.92
640.98	1662.95
641.17	1718.25
641.36	1574.89
641.55	1632.23
641.74	1519.59
641.92	1466.35
642.11	1452.01
642.30	1433.58
642.49	1386.47
642.68	1413.10
642.87	1417.19
643.06	1464.30
643.25	1402.86
643.44	1370.09
643.63	1335.28
643.82	1421.29
644.00	1327.08
644.19	1361.90
644.38	1380.33
644.57	1400.81
644.76	1314.80
644.95	1261.55
645.14	1419.24
645.33	1363.95
645.52	1392.62
645.71	1296.36
645.89	1277.93
646.08	1413.10
646.27	1320.94
646.46	1462.25
646.65	1382.38
646.84	1368.04
647.03	1421.29
647.22	1423.34
647.40	1284.08
647.59	1363.95
647.78	1325.04
647.97	1353.71
648.16	1265.64
648.35	1470.44
648.54	1415.15
648.73	1320.94
648.91	1495.02
649.10	1366.00
649.29	1245.16
649.48	1347.56
649.67	1339.37
649.86	1380.33
650.05	1378.28
650.23	1476.59
650.42	1513.45
650.61	1587.18
650.80	1683.43
650.99	1587.18
651.18	1435.63
651.36	1445.87
651.55	1376.24
651.74	1470.44
651.93	1409.00
652.12	1366.00
652.31	1421.29
652.49	1382.38
652.68	1380.33
652.87	1427.43
653.06	1370.09
653.25	1499.11
653.44	1390.57
653.62	1431.53
653.81	1472.49
654.00	1390.57
654.19	1433.58
654.38	1429.48
654.56	1363.95
654.75	1380.33
654.94	1343.47
655.13	1372.14
655.32	1376.24
655.51	1363.95
655.69	1386.47
655.88	1421.29
656.07	1400.81
656.26	1320.94
656.45	1277.93
656.63	1388.52
656.82	1372.14
657.01	1439.72
657.20	1363.95
657.38	1347.56
657.57	1417.19
657.76	1343.47
657.95	1419.24
658.14	1325.04
658.32	1312.75
658.51	1390.57
658.70	1343.47
658.89	1431.53
659.08	1400.81
659.26	1443.82
659.45	1421.29
659.64	1476.59
659.83	1452.01
660.01	1499.11
660.20	1495.02
660.39	1542.12
660.58	1308.65
660.76	1425.39
660.95	1292.27
661.14	1400.81
661.33	1310.70
661.51	1437.67
661.70	1441.77
661.89	1490.92
662.08	1402.86
662.26	1398.76
662.45	1372.14
662.64	1404.91
662.83	1402.86
663.01	1320.94
663.20	1306.60
663.39	1396.71
663.58	1445.87
663.76	1347.56
663.95	1421.29
664.14	1363.95
664.32	1312.75
664.51	1378.28
664.70	1343.47
664.89	1419.24
665.07	1302.51
665.26	1349.61
665.45	1409.00
665.64	1466.35
665.82	1355.76
666.01	1322.99
666.20	1419.24
666.38	1421.29
666.57	1548.26
666.76	1554.41
666.95	2029.54
667.13	4343.74
667.32	11286.36
667.51	17768.18
667.69	21382.84
667.88	24317.58
668.07	24450.70
668.25	18865.89
668.44	13553.46
668.63	11106.13
668.81	9293.68
669.00	7944.07
669.19	7423.89
669.38	6756.25
669.56	6195.11
669.75	5636.01
669.94	4923.32
670.12	4190.14
670.31	3645.38
670.50	2826.20
670.68	2365.40
670.87	2109.41
671.06	1775.59
671.24	1693.67
671.43	1667.05
671.62	1531.88
671.80	1497.07
671.99	1507.30
672.18	1441.77
672.36	1488.87
672.55	1374.19
672.74	1443.82
672.92	1402.86
673.11	1470.44
673.29	1335.28
673.48	1445.87
673.67	1341.42
673.85	1400.81
674.04	1343.47
674.23	1396.71
674.41	1415.15
674.60	1355.76
674.79	1277.93
674.97	1341.42
675.16	1421.29
675.34	1419.24
675.53	1296.36
675.72	1470.44
675.90	1423.34
676.09	1300.46
676.28	1392.62
676.46	1298.41
676.65	1427.43
676.83	1378.28
677.02	1370.09
677.21	1392.62
677.39	1349.61
677.58	1423.34
677.77	1419.24
677.95	1290.22
678.14	1398.76
678.32	1308.65
678.51	1322.99
678.70	1476.59
678.88	1392.62
679.07	1341.42
679.25	1382.38
679.44	1331.18
679.63	1296.36
679.81	1404.91
680.00	1404.91
680.18	1290.22
680.37	1415.15
680.55	1413.10
680.74	1396.71
680.93	1232.88
681.11	1425.39
681.30	1435.63
681.48	1378.28
681.67	1314.80
681.85	1386.47
682.04	1427.43
682.23	1425.39
682.41	1400.81
682.60	1363.95
682.78	1400.81
682.97	1331.18
683.15	1386.47
683.34	1322.99
683.53	1413.10
683.71	1302.51
683.90	1511.40
684.08	1439.72
684.27	1380.33
684.45	1406.95
684.64	1376.24
684.82	1406.95
685.01	1404.91
685.19	1378.28
685.38	1378.28
685.57	1314.80
685.75	1466.35
685.94	1351.66
686.12	1357.80
686.31	1359.85
686.49	1417.19
686.68	1308.65
686.86	1388.52
687.05	1339.37
687.23	1464.30
687.42	1366.00
687.60	1382.38
687.79	1386.47
687.97	1376.24
688.16	1462.25
688.34	1390.57
688.53	1271.79
688.71	1439.72
688.90	1372.14
689.08	1398.76
689.27	1359.85
689.45	1458.15
689.64	1335.28
689.82	1406.95
690.01	1247.21
690.19	1413.10
690.38	1312.75
690.56	1312.75
690.75	1347.56
690.93	1370.09
691.12	1339.37
691.30	1394.67
691.49	1435.63
691.67	1337.32
691.86	1458.15
692.04	1370.09
692.23	1339.37
692.41	1380.33
692.60	1480.68
692.78	1435.63
692.97	1492.97
693.15	1497.07
693.34	1460.20
693.52	1437.67
693.71	1392.62
693.89	1388.52
694.08	1249.26
694.26	1435.63
694.44	1380.33
694.63	1384.43
694.81	1331.18
695.00	1333.23
695.18	1396.71
695.37	1388.52
695.55	1347.56
695.74	1415.15
695.92	1366.00
696.10	1445.87
696.29	1306.60
696.47	1386.47
696.66	1357.80
696.84	1302.51
697.03	1351.66
697.21	1406.95
697.40	1794.02
697.58	1437.67
697.76	1425.39
697.95	1304.56
698.13	1306.60
698.32	1374.19
698.50	1353.71
698.68	1386.47
698.87	1380.33
699.05	1427.43
699.24	1327.08
699.42	1314.80
699.61	1370.09
699.79	1370.09
699.97	1339.37
700.16	1351.66
700.34	1374.19
700.53	1337.32
700.71	1380.33
700.89	1396.71
701.08	1347.56
701.26	1419.24
701.45	1609.70
701.63	1423.34
701.81	1329.13
702.00	1409.00
702.18	1406.95
702.37	1386.47
702.55	1433.58
702.73	1527.78
702.92	1521.64
703.10	1581.03
703.28	1687.53
703.47	1636.33
703.65	1630.18
703.84	1615.85
704.02	1470.44
704.20	1560.55
704.39	1460.20
704.57	1419.24
704.75	1535.98
704.94	1513.45
705.12	1445.87
705.30	1523.69
705.49	1513.45
705.67	1816.55
705.86	3542.99
706.04	8972.15
706.22	16039.69
706.41	19695.32
706.59	22224.56
706.77	23445.15
706.96	19613.40
707.14	13678.38
707.32	11179.86
707.51	9357.17
707.69	8052.61
707.87	7329.68
708.06	6686.62
708.24	5906.34
708.42	4962.23
708.61	4116.42
708.79	3047.38
708.97	2467.80
709.16	1961.95
709.34	1826.79
709.52	1624.04
709.71	1505.26
709.89	1492.97
710.07	1495.02
710.26	1378.28
710.44	1384.43
710.62	1411.05
710.80	1470.44
710.99	1449.96
711.17	1437.67
711.35	1316.84
711.54	1331.18
711.72	1495.02
711.90	1421.29
712.09	1353.71
712.27	1419.24
712.45	1390.57
712.63	1390.57
712.82	1417.19
713.00	1429.48
713.18	1366.00
713.37	1413.10
713.55	1400.81
713.73	1425.39
713.91	1304.56
714.10	1353.71
714.28	1279.98
714.46	1388.52
714.65	1353.71
714.83	1415.15
715.01	1329.13
715.19	1366.00
715.38	1363.95
715.56	1441.77
715.74	1415.15
715.92	1394.67
716.11	1458.15
716.29	1370.09
716.47	1417.19
716.65	1388.52
716.84	1366.00
717.02	1392.62
717.20	1390.57
717.38	1251.31
717.57	1386.47
717.75	1376.24
717.93	1370.09
718.11	1372.14
718.30	1363.95
718.48	1413.10
718.66	1431.53
718.84	1443.82
719.03	1400.81
719.21	1284.08
719.39	1400.81
719.57	1380.33
719.75	1320.94
719.94	1357.80
720.12	1437.67
720.30	1406.95
720.48	1380.33
720.67	1277.93
720.85	1429.48
721.03	1370.09
721.21	1359.85
721.39	1423.34
721.58	1437.67
721.76	1333.23
721.94	1382.38
722.12	1374.19
722.30	1427.43
722.49	1314.80
722.67	1425.39
722.85	1411.05
723.03	1261.55
723.21	1413.10
723.40	1345.52
723.58	1374.19
723.76	1439.72
723.94	1431.53
724.12	1380.33
724.30	1468.39
724.49	1560.55
724.67	1462.25
724.85	1495.02
725.03	1411.05
725.21	1439.72
725.40	1396.71
725.58	1406.95
725.76	1372.14
725.94	1415.15
726.12	1275.88
726.30	1390.57
726.49	1394.67
726.67	1394.67
726.85	1398.76
727.03	1382.38
727.21	1437.67
727.39	1599.46
727.57	2082.78
727.76	3332.05
727.94	4290.49
728.12	4851.64
728.30	5255.09
728.48	5218.22
728.66	4237.25
728.84	3444.68
729.03	3063.76
729.21	2856.92
729.39	2510.81
729.57	2308.06
729.75	2054.11
729.93	1781.73
730.11	1558.50
730.30	1458.15
730.48	1544.17
730.66	1476.59
730.84	1462.25
731.02	1355.76
731.20	1462.25
731.38	1376.24
731.56	1230.83
731.74	1376.24
731.93	1384.43
732.11	1372.14
732.29	1386.47
732.47	1372.14
732.65	1396.71
732.83	1374.19
733.01	1361.90
733.19	1329.13
733.37	1435.63
733.56	1279.98
733.74	1374.19
733.92	1478.63
734.10	1382.38
734.28	1298.41
734.46	1394.67
734.64	1361.90
734.82	1378.28
735.00	1392.62
735.18	1400.81
735.36	1322.99
735.54	1419.24
735.73	1351.66
735.91	1400.81
736.09	1329.13
736.27	1376.24
736.45	1398.76
736.63	1318.89
736.81	1316.84
736.99	1411.05
737.17	1374.19
737.35	1394.67
737.53	1363.95
737.71	1329.13
737.89	1421.29
738.07	1269.74
738.25	1386.47
738.43	1384.43
738.61	1351.66
738.80	1392.62
738.98	1304.56
739.16	1374.19
739.34	1363.95
739.52	1320.94
739.70	1396.71
739.88	1394.67
740.06	1396.71
740.24	1236.97
740.42	1359.85
740.60	1343.47
740.78	1343.47
740.96	1376.24
741.14	1355.76
741.32	1380.33
741.50	1314.80
741.68	1521.64
741.86	1421.29
742.04	1314.80
742.22	1282.03
742.40	1374.19
742.58	1402.86
742.76	1388.52
742.94	1415.15
743.12	1327.08
743.30	1366.00
743.48	1347.56
743.66	1333.23
743.84	1370.09
744.02	1384.43
744.20	1409.00
744.38	1263.60
744.56	1347.56
744.74	1417.19
744.92	1361.90
745.10	1417.19
745.28	1415.15
745.46	1406.95
745.64	1388.52
745.82	1458.15
746.00	1320.94
746.18	1363.95
746.36	1331.18
746.54	1314.80
746.72	1327.08
746.90	1325.04
747.08	1503.21
747.26	1335.28
747.44	1421.29
747.62	1359.85
747.80	1449.96
747.98	1392.62
748.15	1404.91
748.33	1462.25
748.51	1398.76
748.69	1429.48
748.87	1308.65
749.05	1363.95
749.23	1402.86
749.41	1386.47
749.59	1394.67
749.77	1376.24
749.95	1366.00
750.13	1345.52
750.31	1413.10
750.49	1320.94
750.67	1396.71
750.85	1460.20
751.03	1394.67
751.20	1441.77
751.38	1296.36
751.56	1331.18
751.74	1421.29
751.92	1304.56
752.10	1304.56
752.28	1374.19
752.46	1310.70
752.64	1402.86
752.82	1378.28
753.00	1372.14
753.18	1409.00
753.35	1345.52
753.53	1390.57
753.71	1386.47
753.89	1341.42
754.07	1380.33
754.25	1427.43
754.43	1425.39
754.61	1400.81
754.79	1339.37
754.97	1345.52
755.14	1376.24
755.32	1333.23
755.50	1337.32
755.68	1402.86
755.86	1366.00
756.04	1376.24
756.22	1392.62
756.40	1439.72
756.57	1392.62
756.75	1339.37
756.93	1343.47
757.11	1394.67
757.29	1343.47
757.47	1394.67
757.65	1314.80
757.82	1288.17
758.00	1380.33
758.18	1335.28
758.36	1331.18
758.54	1462.25
758.72	1261.55
758.90	1402.86
759.07	1339.37
759.25	1316.84
759.43	1390.57
759.61	1277.93
759.79	1683.43
759.97	1439.72
760.15	1331.18
760.32	1302.51
760.50	1335.28
760.68	1386.47
760.86	1322.99
761.04	1347.56
761.22	1366.00
761.39	1388.52
761.57	1359.85
761.75	1372.14
761.93	1390.57
762.11	1355.76
762.28	1390.57
762.46	1316.84
762.64	1429.48
762.82	1269.74
763.00	1349.61
763.18	1404.91
763.35	1310.70
763.53	1355.76
763.71	1341.42
763.89	1454.06
764.07	1363.95
764.24	1529.83
764.42	1404.91
764.60	1382.38
764.78	1331.18
764.96	1329.13
765.13	1409.00
765.31	1349.61
765.49	1406.95
765.67	1331.18
765.84	1355.76
766.02	1290.22
766.20	1314.80
766.38	1396.71
766.56	1454.06
766.73	1331.18
766.91	1351.66
767.09	1349.61
767.27	1329.13
767.44	1318.89
767.62	1370.09
767.80	1361.90
767.98	1382.38
768.15	1382.38
768.33	1363.95
768.51	1366.00
768.69	1339.37
768.87	1409.00
769.04	1318.89
769.22	1497.07
769.40	1374.19
769.58	1439.72
769.75	1402.86
769.93	1331.18
770.11	1337.32
770.28	1310.70
770.46	1355.76
770.64	1413.10
770.82	1386.47
770.99	1306.60
771.17	1441.77
771.35	1394.67
771.53	1390.57
771.70	1394.67
771.88	1429.48
772.06	1419.24
772.23	1429.48
772.41	1374.19
772.59	1353.71
772.77	1370.09
772.94	1396.71
773.12	1404.91
773.30	1404.91
773.47	1351.66
773.65	1361.90
773.83	1521.64
774.01	1316.84
774.18	1339.37
774.36	1343.47
774.54	1372.14
774.71	1327.08
774.89	1361.90
775.07	1345.52
775.24	1351.66
775.42	1359.85
775.60	1384.43
775.78	1376.24
775.95	1322.99
776.13	1331.18
776.31	1337.32
776.48	1298.41
776.66	1374.19
776.84	1374.19
777.01	1322.99
777.19	1282.03
777.37	1308.65
777.54	1437.67
777.72	1402.86
777.90	1404.91
778.07	1359.85
778.25	1533.93
778.43	1380.33
778.60	1331.18
778.78	1400.81
778.96	1409.00
779.13	1269.74
779.31	1374.19
779.49	1337.32
779.66	1292.27
779.84	1380.33
780.01	1288.17
780.19	1404.91
780.37	1419.24
780.54	1314.80
780.72	1251.31
780.90	1322.99
781.07	1355.76
781.25	1261.55
781.43	1312.75
781.60	1380.33
781.78	1484.78
781.95	1308.65
782.13	1306.60
782.31	1347.56
782.48	1249.26
782.66	1327.08
782.83	1437.67
783.01	1331.18
783.19	1384.43
783.36	1318.89
783.54	1355.76
783.72	1370.09
783.89	1312.75
784.07	1271.79
784.24	1423.34
784.42	1445.87
784.60	1361.90
784.77	1366.00
784.95	1355.76
785.12	1351.66
785.30	1374.19
785.47	1306.60
785.65	1380.33
785.83	1294.32
786.00	1429.48
786.18	1355.76
786.35	1314.80
786.53	1343.47
786.71	1347.56
786.88	1347.56
787.06	1341.42
787.23	1415.15
787.41	1304.56
787.58	1343.47
787.76	1353.71
787.94	1404.91
788.11	1331.18
788.29	1406.95
788.46	1349.61
788.64	1392.62
788.81	1363.95
788.99	1370.09
789.16	1349.61
789.34	1396.71
789.52	1306.60
789.69	1294.32
789.87	1277.93
790.04	1363.95
790.22	1327.08
790.39	1374.19
790.57	1325.04
790.74	1359.85
790.92	1366.00
791.09	1306.60
791.27	1431.53
791.44	1445.87
791.62	1382.38
791.79	1341.42
791.97	1439.72
792.15	1460.20
792.32	1460.20
792.50	1406.95
792.67	1406.95
792.85	1439.72
793.02	1347.56
793.20	1380.33
793.37	1300.46
793.55	1404.91
793.72	1296.36
793.90	1396.71
794.07	1396.71
794.25	1300.46
794.42	1290.22
794.60	1353.71
794.77	1392.62
794.95	1368.04
795.12	1320.94
795.30	1351.66
795.47	1312.75
795.65	1462.25
795.82	1337.32
796.00	1314.80
796.17	1316.84
796.34	1388.52
796.52	1413.10
796.69	1396.71
796.87	1415.15
797.04	1380.33
797.22	1366.00
797.39	1378.28
797.57	1396.71
797.74	1353.71
797.92	1374.19
798.09	1302.51
798.27	1456.11
798.44	1353.71
798.62	1296.36
798.79	1310.70
798.96	1482.73
799.14	1351.66
799.31	1355.76
799.49	1402.86
799.66	1318.89
799.84	1329.13
800.01	1351.66
800.19	1388.52
800.36	1337.32
800.53	1271.79
800.71	1331.18
800.88	1415.15
801.06	1331.18
801.23	1310.70
801.41	1386.47
801.58	1353.71
801.75	1392.62
801.93	1421.29
802.10	1396.71
802.28	1314.80
802.45	1322.99
802.63	1355.76
802.80	1341.42
802.97	1384.43
803.15	1398.76
803.32	1347.56
803.50	1433.58
803.67	1314.80
803.84	1304.56
804.02	1331.18
804.19	1318.89
804.37	1275.88
804.54	1325.04
804.71	1347.56
804.89	1392.62
805.06	1327.08
805.24	1339.37
805.41	1296.36
805.58	1279.98
805.76	1476.59
805.93	1380.33
806.10	1443.82
806.28	1351.66
806.45	1361.90
806.63	1390.57
806.80	1392.62
806.97	1376.24
807.15	1304.56
807.32	1374.19
807.49	1372.14
807.67	1312.75
807.84	1402.86
808.01	1329.13
808.19	1456.11
808.36	1419.24
808.54	1394.67
808.71	1353.71
808.88	1388.52
809.06	1425.39
809.23	1443.82
809.40	1376.24
809.58	1392.62
809.75	1355.76
809.92	1314.80
810.10	1505.26
810.27	1351.66
810.44	1298.41
810.62	1382.38
810.79	1417.19
810.96	1345.52
811.14	1359.85
811.31	1396.71
811.48	1359.85
811.66	1406.95
811.83	1390.57
812.00	1402.86
812.18	1388.52
812.35	1382.38
812.52	1363.95
812.69	1396.71
812.87	1378.28
813.04	1269.74
813.21	1339.37
813.39	1308.65
813.56	1437.67
813.73	1445.87
813.91	1318.89
814.08	1363.95
814.25	1396.71
814.42	1376.24
814.60	1392.62
814.77	1386.47
814.94	1357.80
815.12	1370.09
815.29	1388.52
815.46	1306.60
815.63	1347.56
815.81	1435.63
815.98	1329.13
816.15	1458.15
816.33	1374.19
816.50	1320.94
816.67	1337.32
816.84	1331.18
817.02	1236.97
817.19	1282.03
817.36	1374.19
817.53	1374.19
817.71	1322.99
817.88	1435.63
818.05	1353.71
818.22	1370.09
818.40	1423.34
818.57	1327.08
818.74	1435.63
818.91	1327.08
819.09	1363.95
819.26	1400.81
819.43	1249.26
819.60	1331.18
819.78	1435.63
819.95	1370.09
820.12	1339.37
820.29	1429.48
820.47	1499.11
820.64	1357.80
820.81	1185.77
820.98	1310.70
821.15	1374.19
821.33	1347.56
821.50	1322.99
821.67	1427.43
821.84	1445.87
822.02	1310.70
822.19	1368.04
822.36	1302.51
822.53	1366.00
822.70	1376.24
822.88	1333.23
823.05	1423.34
823.22	1378.28
823.39	1384.43
823.56	1343.47
823.74	1454.06
823.91	1361.90
824.08	1368.04
824.25	1257.45
824.42	1394.67
824.60	1339.37
824.77	1413.10
824.94	1314.80
825.11	1402.86
825.28	1333.23
825.45	1306.60
825.63	1366.00
825.80	1390.57
825.97	1378.28
826.14	1411.05
826.31	1322.99
826.48	1402.86
826.66	1388.52
826.83	1286.12
827.00	1376.24
827.17	1331.18
827.34	1314.80
827.51	1378.28
827.69	1370.09
827.86	1357.80
828.03	1406.95
828.20	1443.82
828.37	1355.76
828.54	1394.67
828.71	1322.99
828.89	1349.61
829.06	1394.67
829.23	1431.53
829.40	1294.32
829.57	1376.24
829.74	1431.53
829.91	1370.09
830.09	1390.57
830.26	1404.91
830.43	1402.86
830.60	1351.66
830.77	1425.39
830.94	1394.67
831.11	1388.52
831.28	1345.52
831.46	1370.09
831.63	1361.90
831.80	1370.09
831.97	1320.94
832.14	1396.71
832.31	1429.48
832.48	1372.14
832.65	1347.56
832.82	1363.95
832.99	1366.00
833.17	1320.94
833.34	1363.95
833.51	1411.05
833.68	1312.75
833.85	1419.24
834.02	1279.98
834.19	1279.98
834.36	1335.28
834.53	1339.37
834.70	1398.76
834.87	1388.52
835.04	1376.24
835.22	1386.47
835.39	1345.52
835.56	1384.43
835.73	1359.85
835.90	1370.09
836.07	1318.89
836.24	1351.66
836.41	1331.18
836.58	1300.46
836.75	1331.18
836.92	1349.61
837.09	1322.99
837.26	1402.86
837.43	1314.80
837.60	1421.29
837.77	1396.71
837.94	1378.28
838.12	1429.48
838.29	1419.24
838.46	1361.90
838.63	1320.94
838.80	1363.95
838.97	1443.82
839.14	1357.80
839.31	1351.66
839.48	1400.81
839.65	1314.80
839.82	1423.34
839.99	1294.32
840.16	1404.91
840.33	1316.84
840.50	1337.32
840.67	1382.38
840.84	1339.37
841.01	1404.91
841.18	1292.27
841.35	1284.08
841.52	1318.89
841.69	1472.49
841.86	1355.76
842.03	1353.71
842.20	1413.10
842.37	1359.85
842.54	1355.76
842.71	1314.80
842.88	1331.18
843.05	1464.30
843.22	1343.47
843.39	1386.47
843.56	1339.37
843.73	1388.52
843.90	1357.80
844.07	1306.60
844.24	1304.56
844.41	1374.19
844.58	1470.44
844.75	1359.85
844.92	1339.37
845.09	1331.18
845.26	1292.27
845.43	1327.08
845.60	1404.91
845.77	1427.43
845.94	1386.47
846.10	1343.47
846.27	1306.60
846.44	1267.69
846.61	1337.32
846.78	1509.35
846.95	1396.71
847.12	1363.95
847.29	1339.37
847.46	1361.90
847.63	1384.43
847.80	1290.22
847.97	1402.86
848.14	1413.10
848.31	1333.23
848.48	1298.41
848.65	1409.00
848.82	1363.95
848.98	1445.87
849.15	1345.52
849.32	1419.24
849.49	1386.47
849.66	1361.90
849.83	1413.10
850.00	1329.13
850.17	1335.28
850.34	1322.99
850.51	1329.13
850.68	1349.61
850.85	1464.30
851.01	1357.80
851.18	1392.62
851.35	1228.78
851.52	1339.37
851.69	1370.09
851.86	1327.08
852.03	1386.47
852.20	1435.63
852.37	1351.66
852.53	1337.32
852.70	1443.82
852.87	1320.94
853.04	1441.77
853.21	1419.24
853.38	1409.00
853.55	1411.05
853.72	1347.56
853.89	1353.71
854.05	1314.80
854.22	1359.85
854.39	1441.77
854.56	1378.28
854.73	1433.58
854.90	1337.32
855.07	1353.71
855.23	1437.67
855.40	1398.76
855.57	1398.76
855.74	1279.98
855.91	1501.16
856.08	1361.90
856.25	1304.56
856.41	1351.66
856.58	1361.90
856.75	1372.14
856.92	1290.22
857.09	1347.56
857.26	1345.52
857.42	1257.45
857.59	1400.81
857.76	1347.56
857.93	1359.85
858.10	1351.66
858.27	1314.80
858.43	1333.23
858.60	1310.70
858.77	1290.22
858.94	1372.14
859.11	1376.24
859.27	1347.56
859.44	1357.80
859.61	1452.01
859.78	1386.47
859.95	1361.90
860.12	1327.08
860.28	1406.95
860.45	1449.96
860.62	1398.76
860.79	1306.60
860.95	1343.47
861.12	1318.89
861.29	1423.34
861.46	1265.64
861.63	1318.89
861.79	1384.43
861.96	1402.86
862.13	1359.85
862.30	1435.63
862.47	1337.32
862.63	1445.87
862.80	1429.48
862.97	1372.14
863.14	1382.38
863.30	1345.52
863.47	1366.00
863.64	1347.56
863.81	1374.19
863.97	1345.52
864.14	1374.19
864.31	1396.71
864.48	1306.60
864.65	1361.90
864.81	1427.43
864.98	1345.52
865.15	1366.00
865.32	1355.76
865.48	1466.35
865.65	1339.37
865.82	1243.12
865.98	1396.71
866.15	1435.63
866.32	1441.77
866.49	1322.99
866.65	1398.76
866.82	1380.33
866.99	1386.47
867.16	1331.18
867.32	1308.65
867.49	1386.47
867.66	1417.19
867.83	1347.56
867.99	1294.32
868.16	1341.42
868.33	1341.42
868.49	1368.04
868.66	1333.23
868.83	1411.05
868.99	1423.34
869.16	1392.62
869.33	1359.85
869.50	1413.10
869.66	1294.32
869.83	1275.88
870.00	1359.85
870.16	1400.81
870.33	1437.67
870.50	1359.85
870.66	1335.28
870.83	1439.72
871.00	1382.38
871.17	1378.28
871.33	1433.58
871.50	1394.67
871.67	1355.76
871.83	1290.22
872.00	1431.53
872.17	1386.47
872.33	1396.71
872.50	1425.39
872.67	1402.86
872.83	1421.29
873.00	1349.61
873.17	1345.52
873.33	1374.19
873.50	1372.14
873.67	1390.57
873.83	1353.71
874.00	1372.14
874.16	1347.56
874.33	1396.71
874.50	1394.67
874.66	1382.38
874.83	1372.14
875.00	1361.90
875.16	1417.19
875.33	1388.52
875.50	1322.99
875.66	1355.76
875.83	1380.33
875.99	1392.62
876.16	1411.05
876.33	1353.71
876.49	1308.65
876.66	1404.91
876.83	1349.61
876.99	1378.28
877.16	1411.05
877.32	1345.52
877.49	1355.76
877.66	1425.39
877.82	1439.72
877.99	1425.39
878.15	1445.87
878.32	1388.52
878.49	1347.56
878.65	1431.53
878.82	1425.39
878.98	1363.95
879.15	1390.57
879.32	1308.65
879.48	1384.43
879.65	1333.23
879.81	1306.60
879.98	1331.18
880.15	1413.10
880.31	1308.65
880.48	1386.47
880.64	1386.47
880.81	1374.19
880.97	1415.15
881.14	1427.43
881.31	1361.90
881.47	1359.85
881.64	1318.89
881.80	1345.52
881.97	1398.76
882.13	1402.86
882.30	1347.56
882.47	1294.32
882.63	1265.64
882.80	1394.67
882.96	1388.52
883.13	1468.39
883.29	1402.86
883.46	1427.43
883.62	1402.86
883.79	1370.09
883.95	1374.19
884.12	1392.62
884.29	1384.43
884.45	1357.80
884.62	1425.39
884.78	1325.04
884.95	1423.34
885.11	1380.33
885.28	1380.33
885.44	1359.85
885.61	1341.42
885.77	1294.32
885.94	1452.01
886.10	1345.52
886.27	1396.71
886.43	1370.09
886.60	1437.67
886.76	1312.75
886.93	1355.76
887.09	1331.18
887.26	1380.33
887.42	1380.33
887.59	1437.67
887.75	1439.72
887.92	1437.67
888.08	1400.81
888.25	1415.15
888.41	1413.10
888.58	1386.47
888.74	1345.52
888.91	1355.76
>>>>>End Processed Spectral Data<<<<<
