SpectraSuite Data File
++++++++++++++++++++++++++++++++++++
Date: Tue May 03 11:24:56 CEST 2016
User: root
Dark Spectrum Present: No
Reference Spectrum Present: No
Number of Sampled Component Spectra: 1
Spectrometers: USB4C02835
Integration Time (usec): 100000 (USB4C02835)
Spectra Averaged: 1 (USB4C02835)
Boxcar Smoothing: 0 (USB4C02835)
Correct for Electrical Dark: No (USB4C02835)
Strobe/Lamp Enabled: No (USB4C02835)
Correct for Detector Non-linearity: No (USB4C02835)
Correct for Stray Light: No (USB4C02835)
Number of Pixels in Processed Spectrum: 3648
>>>>>Begin Processed Spectral Data<<<<<
177.47	1234.93
177.69	1234.93
177.91	1234.93
178.13	1255.40
178.36	1200.11
178.58	1320.94
178.80	1384.43
179.02	1224.69
179.24	1279.98
179.46	1325.04
179.68	1392.62
179.90	1363.95
180.13	1298.41
180.35	1382.38
180.57	1366.00
180.79	1378.28
181.01	1404.91
181.23	1398.76
181.45	1443.82
181.67	1441.77
181.90	1413.10
182.12	1370.09
182.34	1320.94
182.56	1370.09
182.78	1376.24
183.00	1413.10
183.22	1380.33
183.44	1335.28
183.66	1413.10
183.89	1445.87
184.11	1304.56
184.33	1388.52
184.55	1411.05
184.77	1390.57
184.99	1425.39
185.21	1279.98
185.43	1476.59
185.65	1308.65
185.87	1462.25
186.10	1433.58
186.32	1425.39
186.54	1392.62
186.76	1449.96
186.98	1400.81
187.20	1439.72
187.42	1320.94
187.64	1347.56
187.86	1320.94
188.08	1402.86
188.30	1439.72
188.52	1337.32
188.75	1372.14
188.97	1456.11
189.19	1320.94
189.41	1382.38
189.63	1335.28
189.85	1366.00
190.07	1392.62
190.29	1279.98
190.51	1433.58
190.73	1335.28
190.95	1413.10
191.17	1413.10
191.39	1335.28
191.61	1271.79
191.84	1406.95
192.06	1372.14
192.28	1255.40
192.50	1501.16
192.72	1409.00
192.94	1318.89
193.16	1349.61
193.38	1320.94
193.60	1452.01
193.82	1296.36
194.04	1464.30
194.26	1296.36
194.48	1359.85
194.70	1347.56
194.92	1374.19
195.14	1390.57
195.36	1368.04
195.58	1398.76
195.80	1417.19
196.02	1372.14
196.24	1335.28
196.46	1355.76
196.69	1378.28
196.91	1564.65
197.13	1456.11
197.35	1421.29
197.57	1429.48
197.79	1396.71
198.01	1337.32
198.23	1318.89
198.45	1363.95
198.67	1339.37
198.89	1417.19
199.11	1370.09
199.33	1413.10
199.55	1294.32
199.77	1374.19
199.99	1398.76
200.21	1359.85
200.43	1306.60
200.65	1296.36
200.87	1320.94
201.09	1333.23
201.31	1298.41
201.53	1411.05
201.75	1478.63
201.97	1396.71
202.19	1427.43
202.41	1380.33
202.63	1478.63
202.85	1345.52
203.07	1363.95
203.29	1298.41
203.51	1429.48
203.73	1366.00
203.95	1476.59
204.17	1366.00
204.39	1304.56
204.61	1378.28
204.83	1349.61
205.05	1390.57
205.27	1386.47
205.49	1404.91
205.71	1429.48
205.93	1316.84
206.15	1351.66
206.37	1306.60
206.59	1370.09
206.81	1310.70
207.03	1349.61
207.25	1306.60
207.47	1390.57
207.69	1411.05
207.91	1462.25
208.13	1396.71
208.34	1329.13
208.56	1304.56
208.78	1378.28
209.00	1335.28
209.22	1331.18
209.44	1370.09
209.66	1308.65
209.88	1333.23
210.10	1374.19
210.32	1433.58
210.54	1413.10
210.76	1351.66
210.98	1380.33
211.20	1286.12
211.42	1392.62
211.64	1466.35
211.86	1402.86
212.08	1484.78
212.30	1427.43
212.52	1288.17
212.74	1343.47
212.96	1400.81
213.17	1443.82
213.39	1374.19
213.61	1458.15
213.83	1406.95
214.05	1404.91
214.27	1376.24
214.49	1290.22
214.71	1339.37
214.93	1411.05
215.15	1347.56
215.37	1310.70
215.59	1314.80
215.81	1404.91
216.03	1361.90
216.24	1454.06
216.46	1404.91
216.68	1357.80
216.90	1394.67
217.12	1447.91
217.34	1361.90
217.56	1396.71
217.78	1394.67
218.00	1343.47
218.22	1396.71
218.44	1333.23
218.66	1400.81
218.87	1396.71
219.09	1374.19
219.31	1409.00
219.53	1402.86
219.75	1349.61
219.97	1435.63
220.19	1329.13
220.41	1363.95
220.63	1247.21
220.85	1361.90
221.06	1325.04
221.28	1482.73
221.50	1357.80
221.72	1355.76
221.94	1380.33
222.16	1423.34
222.38	1437.67
222.60	1404.91
222.82	1320.94
223.03	1382.38
223.25	1306.60
223.47	1361.90
223.69	1421.29
223.91	1437.67
224.13	1361.90
224.35	1353.71
224.57	1409.00
224.78	1394.67
225.00	1298.41
225.22	1290.22
225.44	1384.43
225.66	1361.90
225.88	1331.18
226.10	1392.62
226.32	1404.91
226.53	1370.09
226.75	1374.19
226.97	1245.16
227.19	1435.63
227.41	1359.85
227.63	1394.67
227.85	1284.08
228.06	1374.19
228.28	1320.94
228.50	1396.71
228.72	1357.80
228.94	1345.52
229.16	1355.76
229.37	1329.13
229.59	1320.94
229.81	1341.42
230.03	1325.04
230.25	1304.56
230.47	1374.19
230.69	1337.32
230.90	1298.41
231.12	1404.91
231.34	1413.10
231.56	1425.39
231.78	1286.12
232.00	1382.38
232.21	1398.76
232.43	1355.76
232.65	1337.32
232.87	1421.29
233.09	1359.85
233.30	1363.95
233.52	1339.37
233.74	1417.19
233.96	1335.28
234.18	1359.85
234.40	1396.71
234.61	1470.44
234.83	1282.03
235.05	1347.56
235.27	1437.67
235.49	1409.00
235.70	1431.53
235.92	1484.78
236.14	1392.62
236.36	1488.87
236.58	1359.85
236.79	1435.63
237.01	1353.71
237.23	1402.86
237.45	1425.39
237.67	1363.95
237.88	1384.43
238.10	1452.01
238.32	1353.71
238.54	1347.56
238.76	1341.42
238.97	1308.65
239.19	1370.09
239.41	1388.52
239.63	1366.00
239.85	1343.47
240.06	1306.60
240.28	1355.76
240.50	1400.81
240.72	1396.71
240.93	1368.04
241.15	1439.72
241.37	1447.91
241.59	1404.91
241.81	1378.28
242.02	1366.00
242.24	1409.00
242.46	1445.87
242.68	1333.23
242.89	1402.86
243.11	1286.12
243.33	1349.61
243.55	1345.52
243.76	1413.10
243.98	1302.51
244.20	1406.95
244.42	1279.98
244.64	1368.04
244.85	1314.80
245.07	1431.53
245.29	1427.43
245.51	1370.09
245.72	1406.95
245.94	1478.63
246.16	1404.91
246.38	1363.95
246.59	1370.09
246.81	1282.03
247.03	1386.47
247.24	1372.14
247.46	1372.14
247.68	1435.63
247.90	1361.90
248.11	1359.85
248.33	1384.43
248.55	1370.09
248.77	1380.33
248.98	1411.05
249.20	1433.58
249.42	1329.13
249.64	1327.08
249.85	1349.61
250.07	1306.60
250.29	1359.85
250.50	1402.86
250.72	1363.95
250.94	1263.60
251.16	1368.04
251.37	1429.48
251.59	1431.53
251.81	1275.88
252.02	1445.87
252.24	1333.23
252.46	1335.28
252.68	1411.05
252.89	1382.38
253.11	1318.89
253.33	1396.71
253.54	1314.80
253.76	1359.85
253.98	1376.24
254.20	1361.90
254.41	1310.70
254.63	1329.13
254.85	1384.43
255.06	1374.19
255.28	1447.91
255.50	1456.11
255.71	1368.04
255.93	1396.71
256.15	1292.27
256.36	1359.85
256.58	1398.76
256.80	1398.76
257.02	1292.27
257.23	1353.71
257.45	1400.81
257.67	1413.10
257.88	1337.32
258.10	1413.10
258.32	1449.96
258.53	1386.47
258.75	1378.28
258.97	1331.18
259.18	1413.10
259.40	1363.95
259.62	1363.95
259.83	1380.33
260.05	1400.81
260.27	1583.08
260.48	1357.80
260.70	1376.24
260.92	1388.52
261.13	1347.56
261.35	1384.43
261.57	1392.62
261.78	1359.85
262.00	1312.75
262.22	1382.38
262.43	1243.12
262.65	1392.62
262.86	1298.41
263.08	1452.01
263.30	1372.14
263.51	1404.91
263.73	1320.94
263.95	1394.67
264.16	1292.27
264.38	1318.89
264.60	1392.62
264.81	1353.71
265.03	1357.80
265.25	1382.38
265.46	1388.52
265.68	1441.77
265.89	1380.33
266.11	1282.03
266.33	1435.63
266.54	1423.34
266.76	1355.76
266.98	1388.52
267.19	1482.73
267.41	1380.33
267.62	1400.81
267.84	1290.22
268.06	1347.56
268.27	1355.76
268.49	1441.77
268.70	1380.33
268.92	1357.80
269.14	1265.64
269.35	1273.84
269.57	1400.81
269.79	1318.89
270.00	1355.76
270.22	1411.05
270.43	1335.28
270.65	1271.79
270.87	1372.14
271.08	1349.61
271.30	1417.19
271.51	1320.94
271.73	1363.95
271.95	1482.73
272.16	1331.18
272.38	1331.18
272.59	1406.95
272.81	1329.13
273.02	1361.90
273.24	1380.33
273.46	1409.00
273.67	1378.28
273.89	1384.43
274.10	1353.71
274.32	1398.76
274.54	1279.98
274.75	1359.85
274.97	1366.00
275.18	1363.95
275.40	1341.42
275.61	1427.43
275.83	1394.67
276.05	1335.28
276.26	1390.57
276.48	1398.76
276.69	1343.47
276.91	1417.19
277.12	1425.39
277.34	1376.24
277.55	1349.61
277.77	1349.61
277.99	1406.95
278.20	1300.46
278.42	1355.76
278.63	1398.76
278.85	1378.28
279.06	1247.21
279.28	1357.80
279.49	1390.57
279.71	1368.04
279.93	1343.47
280.14	1368.04
280.36	1380.33
280.57	1449.96
280.79	1396.71
281.00	1349.61
281.22	1269.74
281.43	1351.66
281.65	1247.21
281.86	1314.80
282.08	1384.43
282.29	1470.44
282.51	1310.70
282.73	1359.85
282.94	1312.75
283.16	1359.85
283.37	1425.39
283.59	1394.67
283.80	1376.24
284.02	1277.93
284.23	1372.14
284.45	1345.52
284.66	1345.52
284.88	1392.62
285.09	1351.66
285.31	1363.95
285.52	1427.43
285.74	1312.75
285.95	1349.61
286.17	1312.75
286.38	1384.43
286.60	1353.71
286.81	1388.52
287.03	1310.70
287.24	1404.91
287.46	1339.37
287.67	1374.19
287.89	1415.15
288.10	1372.14
288.32	1349.61
288.53	1449.96
288.75	1351.66
288.96	1435.63
289.18	1341.42
289.39	1370.09
289.61	1437.67
289.82	1404.91
290.04	1378.28
290.25	1325.04
290.47	1382.38
290.68	1359.85
290.90	1533.93
291.11	1312.75
291.33	1357.80
291.54	1335.28
291.76	1322.99
291.97	1425.39
292.18	1366.00
292.40	1341.42
292.61	1380.33
292.83	1468.39
293.04	1372.14
293.26	1341.42
293.47	1368.04
293.69	1378.28
293.90	1368.04
294.12	1343.47
294.33	1304.56
294.55	1386.47
294.76	1460.20
294.97	1445.87
295.19	1406.95
295.40	1402.86
295.62	1392.62
295.83	1366.00
296.05	1376.24
296.26	1409.00
296.48	1349.61
296.69	1396.71
296.90	1363.95
297.12	1433.58
297.33	1396.71
297.55	1361.90
297.76	1417.19
297.98	1454.06
298.19	1388.52
298.41	1300.46
298.62	1380.33
298.83	1445.87
299.05	1390.57
299.26	1368.04
299.48	1402.86
299.69	1417.19
299.90	1325.04
300.12	1329.13
300.33	1400.81
300.55	1386.47
300.76	1441.77
300.98	1376.24
301.19	1386.47
301.40	1419.24
301.62	1374.19
301.83	1345.52
302.05	1435.63
302.26	1380.33
302.47	1409.00
302.69	1396.71
302.90	1361.90
303.12	1353.71
303.33	1380.33
303.54	1398.76
303.76	1366.00
303.97	1415.15
304.19	1378.28
304.40	1409.00
304.61	1322.99
304.83	1417.19
305.04	1394.67
305.26	1382.38
305.47	1402.86
305.68	1363.95
305.90	1384.43
306.11	1322.99
306.33	1304.56
306.54	1372.14
306.75	1310.70
306.97	1257.45
307.18	1372.14
307.39	1363.95
307.61	1376.24
307.82	1382.38
308.04	1406.95
308.25	1318.89
308.46	1388.52
308.68	1351.66
308.89	1327.08
309.10	1421.29
309.32	1349.61
309.53	1384.43
309.74	1388.52
309.96	1376.24
310.17	1417.19
310.39	1331.18
310.60	1325.04
310.81	1402.86
311.03	1357.80
311.24	1380.33
311.45	1378.28
311.67	1396.71
311.88	1402.86
312.09	1392.62
312.31	1361.90
312.52	1425.39
312.73	1421.29
312.95	1341.42
313.16	1312.75
313.37	1388.52
313.59	1388.52
313.80	1460.20
314.01	1359.85
314.23	1232.88
314.44	1312.75
314.65	1388.52
314.87	1294.32
315.08	1394.67
315.29	1329.13
315.51	1345.52
315.72	1331.18
315.93	1488.87
316.15	1314.80
316.36	1413.10
316.57	1402.86
316.79	1312.75
317.00	1374.19
317.21	1341.42
317.43	1322.99
317.64	1411.05
317.85	1437.67
318.07	1425.39
318.28	1527.78
318.49	1562.60
318.70	1630.18
318.92	1611.75
319.13	1476.59
319.34	1531.88
319.56	1452.01
319.77	1486.83
319.98	1441.77
320.20	1419.24
320.41	1474.54
320.62	1409.00
320.83	1335.28
321.05	1437.67
321.26	1380.33
321.47	1368.04
321.69	1357.80
321.90	1290.22
322.11	1402.86
322.32	1406.95
322.54	1501.16
322.75	1406.95
322.96	1368.04
323.18	1304.56
323.39	1275.88
323.60	1351.66
323.81	1329.13
324.03	1353.71
324.24	1380.33
324.45	1322.99
324.66	1347.56
324.88	1449.96
325.09	1411.05
325.30	1404.91
325.52	1376.24
325.73	1347.56
325.94	1335.28
326.15	1251.31
326.37	1384.43
326.58	1355.76
326.79	1363.95
327.00	1327.08
327.22	1357.80
327.43	1308.65
327.64	1318.89
327.85	1380.33
328.07	1359.85
328.28	1445.87
328.49	1361.90
328.70	1419.24
328.92	1353.71
329.13	1355.76
329.34	1372.14
329.55	1480.68
329.76	1351.66
329.98	1363.95
330.19	1470.44
330.40	1392.62
330.61	1366.00
330.83	1355.76
331.04	1318.89
331.25	1347.56
331.46	1359.85
331.68	1306.60
331.89	1490.92
332.10	1366.00
332.31	1349.61
332.52	1341.42
332.74	1384.43
332.95	1366.00
333.16	1327.08
333.37	1441.77
333.58	1327.08
333.80	1331.18
334.01	1376.24
334.22	1335.28
334.43	1339.37
334.64	1310.70
334.86	1331.18
335.07	1279.98
335.28	1402.86
335.49	1368.04
335.70	1394.67
335.92	1296.36
336.13	1400.81
336.34	1333.23
336.55	1384.43
336.76	1333.23
336.98	1282.03
337.19	1376.24
337.40	1449.96
337.61	1449.96
337.82	1359.85
338.04	1384.43
338.25	1212.40
338.46	1366.00
338.67	1396.71
338.88	1333.23
339.09	1310.70
339.31	1359.85
339.52	1355.76
339.73	1351.66
339.94	1335.28
340.15	1349.61
340.36	1417.19
340.58	1429.48
340.79	1302.51
341.00	1361.90
341.21	1372.14
341.42	1458.15
341.63	1474.54
341.85	1388.52
342.06	1355.76
342.27	1380.33
342.48	1380.33
342.69	1294.32
342.90	1396.71
343.12	1327.08
343.33	1474.54
343.54	1472.49
343.75	1345.52
343.96	1320.94
344.17	1341.42
344.38	1396.71
344.60	1292.27
344.81	1423.34
345.02	1302.51
345.23	1351.66
345.44	1390.57
345.65	1390.57
345.86	1409.00
346.07	1394.67
346.29	1376.24
346.50	1427.43
346.71	1390.57
346.92	1417.19
347.13	1429.48
347.34	1355.76
347.55	1380.33
347.76	1359.85
347.98	1361.90
348.19	1409.00
348.40	1413.10
348.61	1355.76
348.82	1370.09
349.03	1329.13
349.24	1374.19
349.45	1435.63
349.66	1392.62
349.88	1376.24
350.09	1431.53
350.30	1374.19
350.51	1433.58
350.72	1361.90
350.93	1382.38
351.14	1443.82
351.35	1370.09
351.56	1427.43
351.77	1386.47
351.99	1306.60
352.20	1452.01
352.41	1370.09
352.62	1335.28
352.83	1327.08
353.04	1271.79
353.25	1382.38
353.46	1443.82
353.67	1380.33
353.88	1228.78
354.09	1390.57
354.30	1380.33
354.52	1443.82
354.73	1357.80
354.94	1327.08
355.15	1337.32
355.36	1320.94
355.57	1322.99
355.78	1419.24
355.99	1468.39
356.20	1349.61
356.41	1388.52
356.62	1378.28
356.83	1333.23
357.04	1406.95
357.25	1345.52
357.46	1345.52
357.68	1288.17
357.89	1400.81
358.10	1341.42
358.31	1366.00
358.52	1417.19
358.73	1331.18
358.94	1343.47
359.15	1273.84
359.36	1433.58
359.57	1368.04
359.78	1298.41
359.99	1308.65
360.20	1294.32
360.41	1411.05
360.62	1435.63
360.83	1318.89
361.04	1456.11
361.25	1380.33
361.46	1417.19
361.67	1345.52
361.88	1458.15
362.09	1363.95
362.30	1404.91
362.51	1327.08
362.72	1398.76
362.93	1390.57
363.14	1312.75
363.35	1396.71
363.56	1355.76
363.78	1347.56
363.99	1386.47
364.20	1417.19
364.41	1409.00
364.62	1372.14
364.83	1388.52
365.04	1298.41
365.25	1384.43
365.46	1421.29
365.67	1277.93
365.88	1413.10
366.09	1355.76
366.30	1345.52
366.51	1402.86
366.72	1275.88
366.93	1351.66
367.14	1355.76
367.35	1372.14
367.56	1388.52
367.77	1388.52
367.98	1382.38
368.18	1363.95
368.39	1386.47
368.60	1224.69
368.81	1372.14
369.02	1402.86
369.23	1353.71
369.44	1331.18
369.65	1357.80
369.86	1429.48
370.07	1406.95
370.28	1341.42
370.49	1409.00
370.70	1370.09
370.91	1294.32
371.12	1314.80
371.33	1388.52
371.54	1318.89
371.75	1478.63
371.96	1349.61
372.17	1372.14
372.38	1329.13
372.59	1388.52
372.80	1345.52
373.01	1275.88
373.22	1380.33
373.43	1413.10
373.64	1279.98
373.85	1406.95
374.06	1435.63
374.26	1409.00
374.47	1284.08
374.68	1421.29
374.89	1339.37
375.10	1306.60
375.31	1368.04
375.52	1302.51
375.73	1357.80
375.94	1357.80
376.15	1464.30
376.36	1292.27
376.57	1378.28
376.78	1351.66
376.99	1380.33
377.20	1378.28
377.40	1226.73
377.61	1433.58
377.82	1292.27
378.03	1392.62
378.24	1349.61
378.45	1355.76
378.66	1310.70
378.87	1314.80
379.08	1277.93
379.29	1363.95
379.50	1447.91
379.71	1368.04
379.91	1415.15
380.12	1404.91
380.33	1372.14
380.54	1279.98
380.75	1339.37
380.96	1304.56
381.17	1443.82
381.38	1439.72
381.59	1445.87
381.80	1382.38
382.00	1474.54
382.21	1417.19
382.42	1452.01
382.63	1466.35
382.84	1449.96
383.05	1413.10
383.26	1439.72
383.47	1454.06
383.68	1423.34
383.88	1394.67
384.09	1447.91
384.30	1486.83
384.51	1404.91
384.72	1347.56
384.93	1261.55
385.14	1413.10
385.35	1394.67
385.55	1337.32
385.76	1447.91
385.97	1458.15
386.18	1318.89
386.39	1425.39
386.60	1386.47
386.81	1419.24
387.02	1349.61
387.22	1404.91
387.43	1458.15
387.64	1529.83
387.85	2310.11
388.06	5752.74
388.27	9269.11
388.48	11321.17
388.68	12783.42
388.89	13057.85
389.10	10397.54
389.31	9095.03
389.52	8062.85
389.73	7337.87
389.93	6893.46
390.14	6408.09
390.35	6252.45
390.56	5361.58
390.77	4562.87
390.98	3626.95
391.18	2766.81
391.39	2164.70
391.60	1763.30
391.81	1552.36
392.02	1439.72
392.23	1515.50
392.43	1363.95
392.64	1460.20
392.85	1404.91
393.06	1402.86
393.27	1404.91
393.47	1388.52
393.68	1447.91
393.89	1406.95
394.10	1392.62
394.31	1353.71
394.52	1470.44
394.72	1314.80
394.93	1433.58
395.14	1335.28
395.35	1429.48
395.56	1275.88
395.76	1554.41
395.97	1572.84
396.18	1652.71
396.39	1603.56
396.60	1626.09
396.80	1564.65
397.01	1525.74
397.22	1521.64
397.43	1523.69
397.64	1472.49
397.84	1490.92
398.05	1585.13
398.26	1357.80
398.47	1435.63
398.67	1505.26
398.88	1374.19
399.09	1429.48
399.30	1312.75
399.51	1419.24
399.71	1282.03
399.92	1288.17
400.13	1382.38
400.34	1413.10
400.54	1325.04
400.75	1449.96
400.96	1402.86
401.17	1460.20
401.37	1392.62
401.58	1404.91
401.79	1529.83
402.00	1701.86
402.21	1818.60
402.41	1806.31
402.62	1834.98
402.83	1675.24
403.04	1714.15
403.24	1675.24
403.45	1552.36
403.66	1617.90
403.87	1560.55
404.07	1628.14
404.28	1572.84
404.49	1523.69
404.70	1345.52
404.90	1449.96
405.11	1423.34
405.32	1392.62
405.52	1310.70
405.73	1343.47
405.94	1312.75
406.15	1349.61
406.35	1370.09
406.56	1433.58
406.77	1402.86
406.98	1404.91
407.18	1388.52
407.39	1409.00
407.60	1263.60
407.80	1447.91
408.01	1394.67
408.22	1331.18
408.43	1411.05
408.63	1409.00
408.84	1396.71
409.05	1409.00
409.25	1374.19
409.46	1245.16
409.67	1306.60
409.88	1290.22
410.08	1392.62
410.29	1282.03
410.50	1415.15
410.70	1343.47
410.91	1419.24
411.12	1386.47
411.32	1376.24
411.53	1458.15
411.74	1540.07
411.95	1507.30
412.15	1398.76
412.36	1427.43
412.57	1462.25
412.77	1447.91
412.98	1445.87
413.19	1404.91
413.39	1433.58
413.60	1425.39
413.81	1480.68
414.01	1445.87
414.22	1452.01
414.43	1548.26
414.63	1359.85
414.84	1460.20
415.05	1443.82
415.25	1275.88
415.46	1325.04
415.67	1351.66
415.87	1449.96
416.08	1443.82
416.29	1404.91
416.49	1351.66
416.70	1312.75
416.91	1308.65
417.11	1294.32
417.32	1361.90
417.53	1419.24
417.73	1349.61
417.94	1331.18
418.15	1370.09
418.35	1361.90
418.56	1419.24
418.77	1472.49
418.97	1427.43
419.18	1341.42
419.38	1343.47
419.59	1347.56
419.80	1443.82
420.00	1406.95
420.21	1363.95
420.42	1398.76
420.62	1433.58
420.83	1378.28
421.04	1322.99
421.24	1308.65
421.45	1368.04
421.65	1435.63
421.86	1329.13
422.07	1400.81
422.27	1386.47
422.48	1384.43
422.69	1359.85
422.89	1357.80
423.10	1386.47
423.30	1267.69
423.51	1341.42
423.72	1316.84
423.92	1404.91
424.13	1322.99
424.33	1359.85
424.54	1427.43
424.75	1404.91
424.95	1503.21
425.16	1351.66
425.36	1361.90
425.57	1396.71
425.78	1322.99
425.98	1386.47
426.19	1421.29
426.39	1284.08
426.60	1347.56
426.81	1409.00
427.01	1300.46
427.22	1411.05
427.42	1296.36
427.63	1339.37
427.83	1431.53
428.04	1437.67
428.25	1357.80
428.45	1404.91
428.66	1454.06
428.86	1300.46
429.07	1339.37
429.28	1431.53
429.48	1374.19
429.69	1431.53
429.89	1300.46
430.10	1378.28
430.30	1335.28
430.51	1435.63
430.71	1402.86
430.92	1343.47
431.13	1355.76
431.33	1368.04
431.54	1449.96
431.74	1415.15
431.95	1443.82
432.15	1279.98
432.36	1404.91
432.56	1390.57
432.77	1382.38
432.98	1402.86
433.18	1363.95
433.39	1308.65
433.59	1378.28
433.80	1396.71
434.00	1449.96
434.21	1363.95
434.41	1351.66
434.62	1445.87
434.82	1337.32
435.03	1306.60
435.23	1279.98
435.44	1314.80
435.64	1363.95
435.85	1441.77
436.06	1413.10
436.26	1382.38
436.47	1312.75
436.67	1296.36
436.88	1345.52
437.08	1363.95
437.29	1441.77
437.49	1339.37
437.70	1413.10
437.90	1415.15
438.11	1617.90
438.31	1505.26
438.52	1593.32
438.72	1544.17
438.93	1568.74
439.13	1419.24
439.34	1468.39
439.54	1411.05
439.75	1392.62
439.95	1423.34
440.16	1466.35
440.36	1368.04
440.57	1445.87
440.77	1476.59
440.98	1341.42
441.18	1406.95
441.39	1366.00
441.59	1372.14
441.80	1359.85
442.00	1429.48
442.21	1427.43
442.41	1374.19
442.62	1325.04
442.82	1329.13
443.02	1386.47
443.23	1380.33
443.43	1390.57
443.64	1388.52
443.84	1423.34
444.05	1366.00
444.25	1415.15
444.46	1368.04
444.66	1368.04
444.87	1447.91
445.07	1347.56
445.28	1417.19
445.48	1413.10
445.69	1404.91
445.89	1492.97
446.09	1445.87
446.30	2256.86
446.50	3710.92
446.71	4597.69
446.91	5132.21
447.12	5320.62
447.32	4990.90
447.53	4132.80
447.73	3723.21
447.93	3307.47
448.14	3217.36
448.34	2973.65
448.55	2797.53
448.75	2678.74
448.96	2719.70
449.16	2394.08
449.36	2164.70
449.57	1880.04
449.77	1675.24
449.98	1576.94
450.18	1474.54
450.39	1454.06
450.59	1431.53
450.79	1435.63
451.00	1363.95
451.20	1411.05
451.41	1388.52
451.61	1404.91
451.81	1269.74
452.02	1351.66
452.22	1339.37
452.43	1396.71
452.63	1378.28
452.84	1333.23
453.04	1384.43
453.24	1402.86
453.45	1433.58
453.65	1417.19
453.86	1376.24
454.06	1380.33
454.26	1361.90
454.47	1314.80
454.67	1349.61
454.87	1400.81
455.08	1411.05
455.28	1460.20
455.49	1404.91
455.69	1370.09
455.89	1435.63
456.10	1458.15
456.30	1357.80
456.51	1388.52
456.71	1447.91
456.91	1400.81
457.12	1308.65
457.32	1437.67
457.52	1378.28
457.73	1415.15
457.93	1361.90
458.14	1392.62
458.34	1390.57
458.54	1366.00
458.75	1417.19
458.95	1370.09
459.15	1298.41
459.36	1396.71
459.56	1456.11
459.76	1425.39
459.97	1396.71
460.17	1423.34
460.37	1441.77
460.58	1425.39
460.78	1347.56
460.99	1394.67
461.19	1433.58
461.39	1404.91
461.60	1402.86
461.80	1325.04
462.00	1351.66
462.21	1413.10
462.41	1327.08
462.61	1359.85
462.82	1310.70
463.02	1376.24
463.22	1384.43
463.43	1413.10
463.63	1460.20
463.83	1406.95
464.04	1433.58
464.24	1382.38
464.44	1329.13
464.64	1353.71
464.85	1411.05
465.05	1452.01
465.25	1402.86
465.46	1378.28
465.66	1372.14
465.86	1343.47
466.07	1339.37
466.27	1347.56
466.47	1378.28
466.68	1333.23
466.88	1435.63
467.08	1413.10
467.29	1425.39
467.49	1419.24
467.69	1320.94
467.89	1349.61
468.10	1263.60
468.30	1411.05
468.50	1435.63
468.71	1396.71
468.91	1320.94
469.11	1402.86
469.31	1411.05
469.52	1470.44
469.72	1368.04
469.92	1482.73
470.13	1400.81
470.33	1429.48
470.53	1740.77
470.73	2095.07
470.94	2334.68
471.14	2303.96
471.34	2525.15
471.54	2199.52
471.75	1988.58
471.95	1900.52
472.15	1851.36
472.36	1814.50
472.56	1767.40
472.76	1738.73
472.96	1705.96
473.17	1712.10
473.37	1589.22
473.57	1601.51
473.77	1488.87
473.98	1417.19
474.18	1361.90
474.38	1470.44
474.58	1386.47
474.79	1286.12
474.99	1417.19
475.19	1392.62
475.39	1286.12
475.60	1425.39
475.80	1349.61
476.00	1390.57
476.20	1363.95
476.41	1296.36
476.61	1503.21
476.81	1423.34
477.01	1296.36
477.21	1419.24
477.42	1413.10
477.62	1400.81
477.82	1449.96
478.02	1269.74
478.23	1345.52
478.43	1296.36
478.63	1275.88
478.83	1380.33
479.03	1415.15
479.24	1435.63
479.44	1370.09
479.64	1343.47
479.84	1337.32
480.04	1335.28
480.25	1445.87
480.45	1396.71
480.65	1425.39
480.85	1421.29
481.06	1384.43
481.26	1392.62
481.46	1366.00
481.66	1409.00
481.86	1351.66
482.06	1433.58
482.27	1421.29
482.47	1441.77
482.67	1413.10
482.87	1331.18
483.07	1429.48
483.28	1386.47
483.48	1288.17
483.68	1363.95
483.88	1351.66
484.08	1335.28
484.29	1351.66
484.49	1314.80
484.69	1353.71
484.89	1507.30
485.09	1406.95
485.29	1488.87
485.50	1454.06
485.70	1316.84
485.90	1439.72
486.10	1380.33
486.30	1339.37
486.50	1421.29
486.71	1355.76
486.91	1443.82
487.11	1417.19
487.31	1345.52
487.51	1376.24
487.71	1331.18
487.91	1374.19
488.12	1308.65
488.32	1282.03
488.52	1413.10
488.72	1288.17
488.92	1359.85
489.12	1366.00
489.32	1378.28
489.53	1327.08
489.73	1341.42
489.93	1445.87
490.13	1318.89
490.33	1327.08
490.53	1392.62
490.73	1445.87
490.94	1333.23
491.14	1458.15
491.34	1595.37
491.54	2088.93
491.74	2594.78
491.94	2967.51
492.14	3100.62
492.34	2912.21
492.54	2564.06
492.75	2310.11
492.95	2201.57
493.15	1961.95
493.35	2043.87
493.55	1980.39
493.75	1886.18
493.95	1875.94
494.15	1759.21
494.35	1650.66
494.56	1650.66
494.76	1523.69
494.96	1521.64
495.16	1533.93
495.36	1380.33
495.56	1413.10
495.76	1361.90
495.96	1363.95
496.16	1359.85
496.36	1411.05
496.56	1394.67
496.77	1384.43
496.97	1374.19
497.17	1388.52
497.37	1366.00
497.57	1378.28
497.77	1392.62
497.97	1320.94
498.17	1310.70
498.37	1290.22
498.57	1400.81
498.77	1380.33
498.97	1441.77
499.17	1402.86
499.38	1421.29
499.58	1427.43
499.78	1384.43
499.98	1433.58
500.18	1425.39
500.38	1396.71
500.58	1632.23
500.78	2949.08
500.98	5527.47
501.18	6811.54
501.38	7896.97
501.58	8470.40
501.78	7348.11
501.98	5506.99
502.18	5097.39
502.38	4589.50
502.58	4089.79
502.78	3702.73
502.98	3653.58
503.18	3516.36
503.38	3420.11
503.59	2959.31
503.79	2820.05
503.99	2539.48
504.19	2332.64
504.39	2115.55
504.59	2152.42
504.79	1900.52
504.99	1837.03
505.19	1665.00
505.39	1617.90
505.59	1591.27
505.79	1560.55
505.99	1495.02
506.19	1464.30
506.39	1531.88
506.59	1409.00
506.79	1415.15
506.99	1544.17
507.19	1501.16
507.39	1392.62
507.59	1290.22
507.79	1427.43
507.99	1423.34
508.19	1368.04
508.39	1458.15
508.59	1322.99
508.79	1380.33
508.99	1421.29
509.19	1431.53
509.39	1437.67
509.59	1357.80
509.79	1327.08
509.99	1423.34
510.19	1419.24
510.39	1341.42
510.59	1378.28
510.79	1378.28
510.99	1398.76
511.19	1421.29
511.39	1419.24
511.59	1488.87
511.79	1374.19
511.99	1337.32
512.19	1454.06
512.38	1406.95
512.58	1370.09
512.78	1390.57
512.98	1423.34
513.18	1427.43
513.38	1341.42
513.58	1454.06
513.78	1376.24
513.98	1372.14
514.18	1382.38
514.38	1402.86
514.58	1441.77
514.78	1361.90
514.98	1400.81
515.18	1404.91
515.38	1259.50
515.58	1431.53
515.78	1363.95
515.98	1421.29
516.18	1400.81
516.38	1402.86
516.57	1357.80
516.77	1341.42
516.97	1398.76
517.17	1437.67
517.37	1370.09
517.57	1404.91
517.77	1366.00
517.97	1357.80
518.17	1302.51
518.37	1357.80
518.57	1320.94
518.77	1394.67
518.97	1458.15
519.16	1390.57
519.36	1351.66
519.56	1380.33
519.76	1409.00
519.96	1423.34
520.16	1423.34
520.36	1320.94
520.56	1411.05
520.76	1443.82
520.96	1337.32
521.16	1400.81
521.35	1458.15
521.55	1445.87
521.75	1390.57
521.95	1488.87
522.15	1337.32
522.35	1345.52
522.55	1329.13
522.75	1474.54
522.95	1429.48
523.14	1380.33
523.34	1322.99
523.54	1347.56
523.74	1392.62
523.94	1411.05
524.14	1382.38
524.34	1351.66
524.54	1349.61
524.73	1353.71
524.93	1384.43
525.13	1349.61
525.33	1355.76
525.53	1456.11
525.73	1349.61
525.93	1355.76
526.13	1404.91
526.32	1452.01
526.52	1413.10
526.72	1402.86
526.92	1380.33
527.12	1396.71
527.32	1273.84
527.52	1372.14
527.71	1374.19
527.91	1386.47
528.11	1353.71
528.31	1316.84
528.51	1296.36
528.71	1376.24
528.90	1411.05
529.10	1378.28
529.30	1433.58
529.50	1337.32
529.70	1370.09
529.90	1337.32
530.09	1366.00
530.29	1380.33
530.49	1322.99
530.69	1392.62
530.89	1443.82
531.09	1396.71
531.28	1372.14
531.48	1437.67
531.68	1318.89
531.88	1306.60
532.08	1497.07
532.28	1386.47
532.47	1427.43
532.67	1415.15
532.87	1402.86
533.07	1372.14
533.27	1435.63
533.46	1413.10
533.66	1366.00
533.86	1497.07
534.06	1331.18
534.26	1427.43
534.45	1398.76
534.65	1458.15
534.85	1349.61
535.05	1378.28
535.25	1421.29
535.44	1335.28
535.64	1402.86
535.84	1368.04
536.04	1333.23
536.24	1370.09
536.43	1322.99
536.63	1392.62
536.83	1320.94
537.03	1411.05
537.22	1322.99
537.42	1267.69
537.62	1427.43
537.82	1370.09
538.02	1427.43
538.21	1400.81
538.41	1497.07
538.61	1462.25
538.81	1380.33
539.00	1335.28
539.20	1415.15
539.40	1363.95
539.60	1376.24
539.79	1441.77
539.99	1359.85
540.19	1298.41
540.39	1411.05
540.58	1386.47
540.78	1400.81
540.98	1351.66
541.18	1429.48
541.37	1413.10
541.57	1320.94
541.77	1372.14
541.97	1370.09
542.16	1314.80
542.36	1316.84
542.56	1409.00
542.76	1466.35
542.95	1425.39
543.15	1425.39
543.35	1359.85
543.54	1286.12
543.74	1314.80
543.94	1374.19
544.14	1361.90
544.33	1423.34
544.53	1359.85
544.73	1419.24
544.93	1370.09
545.12	1386.47
545.32	1355.76
545.52	1320.94
545.71	1351.66
545.91	1304.56
546.11	1400.81
546.30	1339.37
546.50	1345.52
546.70	1402.86
546.90	1394.67
547.09	1304.56
547.29	1454.06
547.49	1374.19
547.68	1351.66
547.88	1312.75
548.08	1435.63
548.27	1644.52
548.47	1304.56
548.67	1329.13
548.87	1431.53
549.06	1384.43
549.26	1298.41
549.46	1333.23
549.65	1325.04
549.85	1386.47
550.05	1355.76
550.24	1286.12
550.44	1376.24
550.64	1409.00
550.83	1425.39
551.03	1409.00
551.23	1374.19
551.42	1390.57
551.62	1339.37
551.82	1359.85
552.01	1380.33
552.21	1376.24
552.41	1372.14
552.60	1384.43
552.80	1345.52
553.00	1333.23
553.19	1370.09
553.39	1425.39
553.59	1394.67
553.78	1359.85
553.98	1419.24
554.17	1318.89
554.37	1325.04
554.57	1421.29
554.76	1345.52
554.96	1257.45
555.16	1374.19
555.35	1443.82
555.55	1386.47
555.75	1449.96
555.94	1366.00
556.14	1368.04
556.33	1353.71
556.53	1423.34
556.73	1355.76
556.92	1380.33
557.12	1456.11
557.32	1478.63
557.51	1474.54
557.71	1478.63
557.90	1478.63
558.10	1351.66
558.30	1372.14
558.49	1406.95
558.69	1386.47
558.88	1400.81
559.08	1374.19
559.28	1447.91
559.47	1370.09
559.67	1366.00
559.86	1404.91
560.06	1366.00
560.26	1425.39
560.45	1331.18
560.65	1357.80
560.84	1452.01
561.04	1372.14
561.24	1429.48
561.43	1394.67
561.63	1425.39
561.82	1441.77
562.02	1398.76
562.22	1423.34
562.41	1349.61
562.61	1314.80
562.80	1325.04
563.00	1535.98
563.19	1419.24
563.39	1388.52
563.59	1388.52
563.78	1339.37
563.98	1253.36
564.17	1339.37
564.37	1298.41
564.56	1447.91
564.76	1292.27
564.96	1374.19
565.15	1388.52
565.35	1429.48
565.54	1429.48
565.74	1435.63
565.93	1454.06
566.13	1370.09
566.32	1318.89
566.52	1374.19
566.71	1325.04
566.91	1413.10
567.11	1341.42
567.30	1380.33
567.50	1425.39
567.69	1433.58
567.89	1404.91
568.08	1366.00
568.28	1392.62
568.47	1370.09
568.67	1374.19
568.86	1363.95
569.06	1361.90
569.25	1366.00
569.45	1353.71
569.64	1394.67
569.84	1400.81
570.04	1335.28
570.23	1413.10
570.43	1331.18
570.62	1415.15
570.82	1462.25
571.01	1335.28
571.21	1343.47
571.40	1339.37
571.60	1411.05
571.79	1339.37
571.99	1357.80
572.18	1386.47
572.38	1402.86
572.57	1349.61
572.77	1380.33
572.96	1431.53
573.16	1386.47
573.35	1376.24
573.55	1454.06
573.74	1402.86
573.94	1363.95
574.13	1431.53
574.33	1382.38
574.52	1452.01
574.71	1409.00
574.91	1396.71
575.10	1378.28
575.30	1374.19
575.49	1419.24
575.69	1378.28
575.88	1427.43
576.08	1409.00
576.27	1476.59
576.47	1374.19
576.66	1501.16
576.86	1466.35
577.05	1466.35
577.25	1398.76
577.44	1517.54
577.64	1392.62
577.83	1439.72
578.02	1380.33
578.22	1368.04
578.41	1398.76
578.61	1433.58
578.80	1390.57
579.00	1417.19
579.19	1423.34
579.39	1404.91
579.58	1449.96
579.77	1394.67
579.97	1511.40
580.16	1454.06
580.36	1464.30
580.55	1495.02
580.75	1413.10
580.94	1411.05
581.13	1460.20
581.33	1521.64
581.52	1462.25
581.72	1482.73
581.91	1495.02
582.11	1423.34
582.30	1441.77
582.49	1443.82
582.69	1462.25
582.88	1415.15
583.08	1374.19
583.27	1482.73
583.47	1419.24
583.66	1437.67
583.85	1452.01
584.05	1404.91
584.24	1511.40
584.44	1538.02
584.63	1433.58
584.82	1495.02
585.02	1544.17
585.21	1607.66
585.41	1566.70
585.60	1646.57
585.79	1587.18
585.99	1652.71
586.18	1658.85
586.37	1812.45
586.57	2748.37
586.76	7837.58
586.96	23815.83
587.15	41147.79
587.34	51401.97
587.54	58930.30
587.73	58541.19
587.93	44778.84
588.12	32599.57
588.31	26095.22
588.51	22267.56
588.70	19828.43
588.89	18282.22
589.09	16828.16
589.28	15755.02
589.47	13977.39
589.67	12445.51
589.86	10350.43
590.06	8408.96
590.25	6317.98
590.44	5005.24
590.64	3784.65
590.83	2867.16
591.02	2355.16
591.22	1906.66
591.41	1789.92
591.60	1540.07
591.80	1609.70
591.99	1458.15
592.18	1550.31
592.38	1495.02
592.57	1392.62
592.76	1478.63
592.96	1499.11
593.15	1423.34
593.34	1427.43
593.54	1423.34
593.73	1447.91
593.92	1458.15
594.12	1503.21
594.31	1529.83
594.50	1554.41
594.70	1488.87
594.89	1495.02
595.08	1361.90
595.28	1495.02
595.47	1468.39
595.66	1431.53
595.86	1312.75
596.05	1464.30
596.24	1388.52
596.43	1576.94
596.63	1437.67
596.82	1445.87
597.01	1415.15
597.21	1515.50
597.40	1402.86
597.59	1357.80
597.79	1380.33
597.98	1417.19
598.17	1445.87
598.36	1474.54
598.56	1394.67
598.75	1394.67
598.94	1480.68
599.14	1378.28
599.33	1449.96
599.52	1376.24
599.71	1368.04
599.91	1423.34
600.10	1404.91
600.29	1396.71
600.48	1427.43
600.68	1388.52
600.87	1394.67
601.06	1316.84
601.26	1337.32
601.45	1400.81
601.64	1431.53
601.83	1404.91
602.03	1376.24
602.22	1292.27
602.41	1345.52
602.60	1525.74
602.80	1449.96
602.99	1435.63
603.18	1380.33
603.37	1460.20
603.57	1396.71
603.76	1347.56
603.95	1347.56
604.14	1370.09
604.34	1314.80
604.53	1380.33
604.72	1359.85
604.91	1382.38
605.10	1396.71
605.30	1443.82
605.49	1492.97
605.68	1437.67
605.87	1441.77
606.07	1413.10
606.26	1413.10
606.45	1306.60
606.64	1353.71
606.84	1445.87
607.03	1435.63
607.22	1476.59
607.41	1472.49
607.60	1478.63
607.80	1445.87
607.99	1339.37
608.18	1396.71
608.37	1425.39
608.56	1329.13
608.76	1398.76
608.95	1482.73
609.14	1492.97
609.33	1548.26
609.52	1527.78
609.72	1492.97
609.91	1529.83
610.10	1425.39
610.29	1427.43
610.48	1413.10
610.68	1279.98
610.87	1425.39
611.06	1423.34
611.25	1419.24
611.44	1507.30
611.63	1357.80
611.83	1472.49
612.02	1363.95
612.21	1482.73
612.40	1406.95
612.59	1312.75
612.79	1318.89
612.98	1423.34
613.17	1394.67
613.36	1458.15
613.55	1433.58
613.74	1394.67
613.93	1544.17
614.13	1560.55
614.32	1611.75
614.51	1683.43
614.70	1507.30
614.89	1435.63
615.08	1576.94
615.28	1640.42
615.47	1476.59
615.66	1425.39
615.85	1468.39
616.04	1511.40
616.23	1439.72
616.42	1396.71
616.62	1533.93
616.81	1417.19
617.00	1449.96
617.19	1417.19
617.38	1351.66
617.57	1462.25
617.76	1404.91
617.95	1447.91
618.15	1402.86
618.34	1394.67
618.53	1298.41
618.72	1357.80
618.91	1429.48
619.10	1396.71
619.29	1363.95
619.48	1452.01
619.68	1355.76
619.87	1386.47
620.06	1368.04
620.25	1413.10
620.44	1347.56
620.63	1327.08
620.82	1355.76
621.01	1357.80
621.20	1353.71
621.39	1400.81
621.59	1445.87
621.78	1386.47
621.97	1380.33
622.16	1343.47
622.35	1355.76
622.54	1468.39
622.73	1454.06
622.92	1372.14
623.11	1363.95
623.30	1343.47
623.49	1421.29
623.68	1445.87
623.88	1429.48
624.07	1376.24
624.26	1390.57
624.45	1443.82
624.64	1353.71
624.83	1452.01
625.02	1478.63
625.21	1366.00
625.40	1353.71
625.59	1345.52
625.78	1339.37
625.97	1384.43
626.16	1404.91
626.35	1417.19
626.54	1398.76
626.74	1404.91
626.93	1519.59
627.12	1400.81
627.31	1437.67
627.50	1429.48
627.69	1417.19
627.88	1394.67
628.07	1366.00
628.26	1409.00
628.45	1353.71
628.64	1445.87
628.83	1380.33
629.02	1296.36
629.21	1409.00
629.40	1394.67
629.59	1421.29
629.78	1361.90
629.97	1372.14
630.16	1404.91
630.35	1472.49
630.54	1423.34
630.73	1400.81
630.92	1456.11
631.11	1341.42
631.30	1370.09
631.49	1452.01
631.68	1398.76
631.87	1378.28
632.06	1345.52
632.25	1529.83
632.44	1306.60
632.63	1441.77
632.82	1472.49
633.01	1425.39
633.20	1472.49
633.39	1466.35
633.58	1411.05
633.77	1503.21
633.96	1435.63
634.15	1413.10
634.34	1507.30
634.53	1439.72
634.72	1357.80
634.91	1384.43
635.10	1435.63
635.29	1443.82
635.48	1419.24
635.67	1427.43
635.86	1306.60
636.05	1454.06
636.24	1370.09
636.43	1478.63
636.62	1431.53
636.81	1271.79
637.00	1402.86
637.19	1388.52
637.38	1415.15
637.57	1308.65
637.76	1386.47
637.95	1396.71
638.14	1505.26
638.33	1462.25
638.52	1490.92
638.71	1425.39
638.89	1462.25
639.08	1554.41
639.27	1454.06
639.46	1413.10
639.65	1714.15
639.84	1832.93
640.03	2002.91
640.22	2095.07
640.41	2117.60
640.60	1918.95
640.79	1712.10
640.98	1673.19
641.17	1619.94
641.36	1626.09
641.55	1576.94
641.74	1511.40
641.92	1517.54
642.11	1495.02
642.30	1417.19
642.49	1503.21
642.68	1495.02
642.87	1404.91
643.06	1437.67
643.25	1341.42
643.44	1368.04
643.63	1368.04
643.82	1331.18
644.00	1337.32
644.19	1363.95
644.38	1361.90
644.57	1445.87
644.76	1400.81
644.95	1404.91
645.14	1392.62
645.33	1343.47
645.52	1331.18
645.71	1382.38
645.89	1294.32
646.08	1376.24
646.27	1343.47
646.46	1462.25
646.65	1298.41
646.84	1347.56
647.03	1355.76
647.22	1372.14
647.40	1288.17
647.59	1349.61
647.78	1376.24
647.97	1396.71
648.16	1302.51
648.35	1433.58
648.54	1333.23
648.73	1308.65
648.91	1394.67
649.10	1396.71
649.29	1347.56
649.48	1343.47
649.67	1400.81
649.86	1449.96
650.05	1327.08
650.23	1513.45
650.42	1499.11
650.61	1511.40
650.80	1597.42
650.99	1613.80
651.18	1519.59
651.36	1568.74
651.55	1443.82
651.74	1462.25
651.93	1378.28
652.12	1476.59
652.31	1419.24
652.49	1421.29
652.68	1409.00
652.87	1398.76
653.06	1380.33
653.25	1427.43
653.44	1382.38
653.62	1525.74
653.81	1431.53
654.00	1454.06
654.19	1466.35
654.38	1429.48
654.56	1368.04
654.75	1388.52
654.94	1339.37
655.13	1400.81
655.32	1363.95
655.51	1419.24
655.69	1345.52
655.88	1429.48
656.07	1284.08
656.26	1398.76
656.45	1322.99
656.63	1363.95
656.82	1376.24
657.01	1443.82
657.20	1370.09
657.38	1478.63
657.57	1382.38
657.76	1275.88
657.95	1347.56
658.14	1331.18
658.32	1386.47
658.51	1345.52
658.70	1353.71
658.89	1374.19
659.08	1417.19
659.26	1443.82
659.45	1388.52
659.64	1468.39
659.83	1427.43
660.01	1511.40
660.20	1476.59
660.39	1478.63
660.58	1345.52
660.76	1386.47
660.95	1445.87
661.14	1376.24
661.33	1304.56
661.51	1337.32
661.70	1413.10
661.89	1437.67
662.08	1388.52
662.26	1314.80
662.45	1423.34
662.64	1312.75
662.83	1411.05
663.01	1380.33
663.20	1392.62
663.39	1411.05
663.58	1329.13
663.76	1409.00
663.95	1382.38
664.14	1333.23
664.32	1341.42
664.51	1437.67
664.70	1411.05
664.89	1398.76
665.07	1296.36
665.26	1452.01
665.45	1458.15
665.64	1482.73
665.82	1386.47
666.01	1368.04
666.20	1353.71
666.38	1404.91
666.57	1390.57
666.76	1521.64
666.95	2058.21
667.13	4362.17
667.32	11312.98
667.51	17682.16
667.69	21407.42
667.88	24313.48
668.07	24426.12
668.25	18730.72
668.44	13182.77
668.63	10993.50
668.81	9017.21
669.00	8040.33
669.19	7417.74
669.38	6709.15
669.56	6172.58
669.75	5486.51
669.94	4777.91
670.12	4247.49
670.31	3567.56
670.50	2938.84
670.68	2445.27
670.87	2113.50
671.06	1824.74
671.24	1705.96
671.43	1591.27
671.62	1572.84
671.80	1482.73
671.99	1511.40
672.18	1433.58
672.36	1429.48
672.55	1439.72
672.74	1406.95
672.92	1380.33
673.11	1370.09
673.29	1351.66
673.48	1415.15
673.67	1411.05
673.85	1449.96
674.04	1382.38
674.23	1402.86
674.41	1374.19
674.60	1392.62
674.79	1372.14
674.97	1402.86
675.16	1400.81
675.34	1376.24
675.53	1329.13
675.72	1458.15
675.90	1386.47
676.09	1306.60
676.28	1363.95
676.46	1253.36
676.65	1368.04
676.83	1318.89
677.02	1361.90
677.21	1353.71
677.39	1419.24
677.58	1314.80
677.77	1292.27
677.95	1312.75
678.14	1417.19
678.32	1378.28
678.51	1402.86
678.70	1423.34
678.88	1400.81
679.07	1398.76
679.25	1458.15
679.44	1396.71
679.63	1302.51
679.81	1392.62
680.00	1454.06
680.18	1425.39
680.37	1437.67
680.55	1417.19
680.74	1333.23
680.93	1314.80
681.11	1341.42
681.30	1382.38
681.48	1400.81
681.67	1339.37
681.85	1310.70
682.04	1298.41
682.23	1419.24
682.41	1409.00
682.60	1388.52
682.78	1384.43
682.97	1257.45
683.15	1335.28
683.34	1347.56
683.53	1484.78
683.71	1284.08
683.90	1466.35
684.08	1484.78
684.27	1355.76
684.45	1396.71
684.64	1366.00
684.82	1314.80
685.01	1429.48
685.19	1306.60
685.38	1406.95
685.57	1273.84
685.75	1339.37
685.94	1331.18
686.12	1296.36
686.31	1411.05
686.49	1501.16
686.68	1382.38
686.86	1390.57
687.05	1327.08
687.23	1413.10
687.42	1322.99
687.60	1337.32
687.79	1374.19
687.97	1349.61
688.16	1441.77
688.34	1443.82
688.53	1306.60
688.71	1341.42
688.90	1411.05
689.08	1318.89
689.27	1341.42
689.45	1404.91
689.64	1339.37
689.82	1396.71
690.01	1363.95
690.19	1376.24
690.38	1333.23
690.56	1468.39
690.75	1357.80
690.93	1339.37
691.12	1388.52
691.30	1363.95
691.49	1306.60
691.67	1398.76
691.86	1476.59
692.04	1351.66
692.23	1312.75
692.41	1503.21
692.60	1525.74
692.78	1484.78
692.97	1419.24
693.15	1503.21
693.34	1480.68
693.52	1503.21
693.71	1415.15
693.89	1402.86
694.08	1320.94
694.26	1388.52
694.44	1392.62
694.63	1466.35
694.81	1378.28
695.00	1384.43
695.18	1406.95
695.37	1454.06
695.55	1507.30
695.74	1384.43
695.92	1318.89
696.10	1423.34
696.29	1273.84
696.47	1380.33
696.66	1343.47
696.84	1322.99
697.03	1343.47
697.21	1363.95
697.40	1734.63
697.58	1425.39
697.76	1222.64
697.95	1353.71
698.13	1286.12
698.32	1339.37
698.50	1388.52
698.68	1435.63
698.87	1386.47
699.05	1368.04
699.24	1382.38
699.42	1304.56
699.61	1300.46
699.79	1425.39
699.97	1380.33
700.16	1396.71
700.34	1331.18
700.53	1396.71
700.71	1474.54
700.89	1415.15
701.08	1331.18
701.26	1384.43
701.45	1681.38
701.63	1376.24
701.81	1419.24
702.00	1411.05
702.18	1433.58
702.37	1300.46
702.55	1396.71
702.73	1452.01
702.92	1513.45
703.10	1628.14
703.28	1652.71
703.47	1607.66
703.65	1728.49
703.84	1593.32
704.02	1456.11
704.20	1560.55
704.39	1490.92
704.57	1421.29
704.75	1505.26
704.94	1499.11
705.12	1460.20
705.30	1538.02
705.49	1538.02
705.67	1794.02
705.86	3522.51
706.04	8886.14
706.22	15861.52
706.41	19183.32
706.59	22388.39
706.77	23074.46
706.96	19367.64
707.14	13629.23
707.32	11116.37
707.51	9348.98
707.69	8023.94
707.87	7253.91
708.06	6707.10
708.24	5851.05
708.42	4929.46
708.61	3950.53
708.79	3039.19
708.97	2424.80
709.16	1961.95
709.34	1748.97
709.52	1667.05
709.71	1546.22
709.89	1458.15
710.07	1368.04
710.26	1318.89
710.44	1435.63
710.62	1406.95
710.80	1427.43
710.99	1433.58
711.17	1396.71
711.35	1372.14
711.54	1478.63
711.72	1361.90
711.90	1429.48
712.09	1353.71
712.27	1372.14
712.45	1363.95
712.63	1368.04
712.82	1329.13
713.00	1396.71
713.18	1378.28
713.37	1411.05
713.55	1443.82
713.73	1409.00
713.91	1386.47
714.10	1396.71
714.28	1349.61
714.46	1335.28
714.65	1421.29
714.83	1392.62
715.01	1335.28
715.19	1386.47
715.38	1372.14
715.56	1425.39
715.74	1355.76
715.92	1355.76
716.11	1396.71
716.29	1380.33
716.47	1306.60
716.65	1372.14
716.84	1267.69
717.02	1386.47
717.20	1267.69
717.38	1388.52
717.57	1437.67
717.75	1425.39
717.93	1370.09
718.11	1378.28
718.30	1320.94
718.48	1263.60
718.66	1413.10
718.84	1470.44
719.03	1318.89
719.21	1339.37
719.39	1476.59
719.57	1425.39
719.75	1425.39
719.94	1345.52
720.12	1380.33
720.30	1341.42
720.48	1452.01
720.67	1347.56
720.85	1306.60
721.03	1353.71
721.21	1347.56
721.39	1378.28
721.58	1282.03
721.76	1308.65
721.94	1363.95
722.12	1429.48
722.30	1460.20
722.49	1437.67
722.67	1341.42
722.85	1366.00
723.03	1374.19
723.21	1443.82
723.40	1361.90
723.58	1443.82
723.76	1337.32
723.94	1433.58
724.12	1357.80
724.30	1509.35
724.49	1429.48
724.67	1470.44
724.85	1482.73
725.03	1353.71
725.21	1417.19
725.40	1419.24
725.58	1363.95
725.76	1435.63
725.94	1413.10
726.12	1404.91
726.30	1441.77
726.49	1343.47
726.67	1378.28
726.85	1396.71
727.03	1394.67
727.21	1472.49
727.39	1515.50
727.57	2060.26
727.76	3391.44
727.94	4333.50
728.12	4782.01
728.30	5128.11
728.48	5111.73
728.66	4356.03
728.84	3280.85
729.03	2996.18
729.21	2836.44
729.39	2607.06
729.57	2207.71
729.75	2019.30
729.93	1781.73
730.11	1550.31
730.30	1480.68
730.48	1409.00
730.66	1449.96
730.84	1413.10
731.02	1384.43
731.20	1296.36
731.38	1398.76
731.56	1331.18
731.74	1255.40
731.93	1351.66
732.11	1411.05
732.29	1376.24
732.47	1322.99
732.65	1404.91
732.83	1449.96
733.01	1400.81
733.19	1312.75
733.37	1361.90
733.56	1366.00
733.74	1368.04
733.92	1456.11
734.10	1314.80
734.28	1335.28
734.46	1329.13
734.64	1374.19
734.82	1380.33
735.00	1282.03
735.18	1345.52
735.36	1443.82
735.54	1366.00
735.73	1386.47
735.91	1437.67
736.09	1347.56
736.27	1402.86
736.45	1390.57
736.63	1357.80
736.81	1349.61
736.99	1386.47
737.17	1400.81
737.35	1343.47
737.53	1370.09
737.71	1363.95
737.89	1353.71
738.07	1353.71
738.25	1370.09
738.43	1329.13
738.61	1286.12
738.80	1339.37
738.98	1290.22
739.16	1333.23
739.34	1288.17
739.52	1445.87
739.70	1376.24
739.88	1417.19
740.06	1417.19
740.24	1304.56
740.42	1345.52
740.60	1292.27
740.78	1376.24
740.96	1314.80
741.14	1347.56
741.32	1380.33
741.50	1349.61
741.68	1447.91
741.86	1374.19
742.04	1341.42
742.22	1329.13
742.40	1437.67
742.58	1353.71
742.76	1345.52
742.94	1425.39
743.12	1312.75
743.30	1388.52
743.48	1345.52
743.66	1368.04
743.84	1445.87
744.02	1374.19
744.20	1398.76
744.38	1314.80
744.56	1396.71
744.74	1409.00
744.92	1439.72
745.10	1437.67
745.28	1372.14
745.46	1458.15
745.64	1411.05
745.82	1419.24
746.00	1372.14
746.18	1452.01
746.36	1355.76
746.54	1353.71
746.72	1394.67
746.90	1341.42
747.08	1370.09
747.26	1388.52
747.44	1413.10
747.62	1517.54
747.80	1384.43
747.98	1392.62
748.15	1390.57
748.33	1423.34
748.51	1380.33
748.69	1382.38
748.87	1374.19
749.05	1327.08
749.23	1404.91
749.41	1388.52
749.59	1337.32
749.77	1345.52
749.95	1368.04
750.13	1445.87
750.31	1355.76
750.49	1384.43
750.67	1462.25
750.85	1404.91
751.03	1404.91
751.20	1429.48
751.38	1322.99
751.56	1306.60
751.74	1363.95
751.92	1380.33
752.10	1269.74
752.28	1329.13
752.46	1327.08
752.64	1351.66
752.82	1347.56
753.00	1460.20
753.18	1382.38
753.35	1314.80
753.53	1380.33
753.71	1337.32
753.89	1331.18
754.07	1341.42
754.25	1443.82
754.43	1400.81
754.61	1372.14
754.79	1439.72
754.97	1411.05
755.14	1497.07
755.32	1322.99
755.50	1435.63
755.68	1411.05
755.86	1351.66
756.04	1304.56
756.22	1228.78
756.40	1402.86
756.57	1472.49
756.75	1400.81
756.93	1374.19
757.11	1335.28
757.29	1337.32
757.47	1363.95
757.65	1327.08
757.82	1292.27
758.00	1306.60
758.18	1402.86
758.36	1322.99
758.54	1441.77
758.72	1327.08
758.90	1427.43
759.07	1353.71
759.25	1331.18
759.43	1337.32
759.61	1357.80
759.79	1738.73
759.97	1353.71
760.15	1320.94
760.32	1351.66
760.50	1308.65
760.68	1509.35
760.86	1288.17
761.04	1429.48
761.22	1325.04
761.39	1423.34
761.57	1390.57
761.75	1411.05
761.93	1290.22
762.11	1359.85
762.28	1363.95
762.46	1327.08
762.64	1413.10
762.82	1331.18
763.00	1359.85
763.18	1409.00
763.35	1351.66
763.53	1468.39
763.71	1327.08
763.89	1396.71
764.07	1331.18
764.24	1378.28
764.42	1386.47
764.60	1345.52
764.78	1370.09
764.96	1439.72
765.13	1370.09
765.31	1394.67
765.49	1415.15
765.67	1337.32
765.84	1353.71
766.02	1265.64
766.20	1292.27
766.38	1357.80
766.56	1312.75
766.73	1402.86
766.91	1302.51
767.09	1337.32
767.27	1384.43
767.44	1357.80
767.62	1388.52
767.80	1449.96
767.98	1325.04
768.15	1392.62
768.33	1335.28
768.51	1406.95
768.69	1290.22
768.87	1339.37
769.04	1331.18
769.22	1406.95
769.40	1382.38
769.58	1503.21
769.75	1331.18
769.93	1484.78
770.11	1386.47
770.28	1347.56
770.46	1366.00
770.64	1437.67
770.82	1433.58
770.99	1351.66
771.17	1392.62
771.35	1337.32
771.53	1400.81
771.70	1296.36
771.88	1374.19
772.06	1423.34
772.23	1392.62
772.41	1449.96
772.59	1402.86
772.77	1333.23
772.94	1363.95
773.12	1388.52
773.30	1419.24
773.47	1388.52
773.65	1298.41
773.83	1441.77
774.01	1441.77
774.18	1234.93
774.36	1417.19
774.54	1341.42
774.71	1322.99
774.89	1288.17
775.07	1382.38
775.24	1394.67
775.42	1363.95
775.60	1409.00
775.78	1316.84
775.95	1359.85
776.13	1277.93
776.31	1259.50
776.48	1308.65
776.66	1392.62
776.84	1372.14
777.01	1376.24
777.19	1366.00
777.37	1347.56
777.54	1347.56
777.72	1294.32
777.90	1447.91
778.07	1353.71
778.25	1425.39
778.43	1390.57
778.60	1370.09
778.78	1452.01
778.96	1312.75
779.13	1314.80
779.31	1355.76
779.49	1314.80
779.66	1363.95
779.84	1349.61
780.01	1349.61
780.19	1363.95
780.37	1382.38
780.54	1351.66
780.72	1374.19
780.90	1388.52
781.07	1335.28
781.25	1347.56
781.43	1398.76
781.60	1394.67
781.78	1345.52
781.95	1382.38
782.13	1355.76
782.31	1343.47
782.48	1243.12
782.66	1413.10
782.83	1419.24
783.01	1314.80
783.19	1308.65
783.36	1368.04
783.54	1355.76
783.72	1445.87
783.89	1374.19
784.07	1402.86
784.24	1392.62
784.42	1382.38
784.60	1339.37
784.77	1390.57
784.95	1304.56
785.12	1386.47
785.30	1318.89
785.47	1333.23
785.65	1423.34
785.83	1406.95
786.00	1372.14
786.18	1318.89
786.35	1284.08
786.53	1312.75
786.71	1343.47
786.88	1335.28
787.06	1419.24
787.23	1392.62
787.41	1337.32
787.58	1312.75
787.76	1329.13
787.94	1370.09
788.11	1417.19
788.29	1351.66
788.46	1357.80
788.64	1337.32
788.81	1376.24
788.99	1339.37
789.16	1372.14
789.34	1402.86
789.52	1310.70
789.69	1390.57
789.87	1269.74
790.04	1341.42
790.22	1298.41
790.39	1462.25
790.57	1337.32
790.74	1413.10
790.92	1363.95
791.09	1277.93
791.27	1331.18
791.44	1394.67
791.62	1327.08
791.79	1429.48
791.97	1316.84
792.15	1456.11
792.32	1386.47
792.50	1437.67
792.67	1378.28
792.85	1462.25
793.02	1372.14
793.20	1366.00
793.37	1302.51
793.55	1312.75
793.72	1300.46
793.90	1390.57
794.07	1351.66
794.25	1339.37
794.42	1396.71
794.60	1439.72
794.77	1363.95
794.95	1413.10
795.12	1349.61
795.30	1361.90
795.47	1355.76
795.65	1501.16
795.82	1343.47
796.00	1466.35
796.17	1394.67
796.34	1359.85
796.52	1327.08
796.69	1392.62
796.87	1382.38
797.04	1341.42
797.22	1376.24
797.39	1343.47
797.57	1398.76
797.74	1400.81
797.92	1402.86
798.09	1259.50
798.27	1337.32
798.44	1445.87
798.62	1275.88
798.79	1368.04
798.96	1355.76
799.14	1384.43
799.31	1355.76
799.49	1404.91
799.66	1415.15
799.84	1355.76
800.01	1306.60
800.19	1353.71
800.36	1296.36
800.53	1376.24
800.71	1388.52
800.88	1394.67
801.06	1396.71
801.23	1290.22
801.41	1394.67
801.58	1331.18
801.75	1366.00
801.93	1318.89
802.10	1363.95
802.28	1390.57
802.45	1353.71
802.63	1366.00
802.80	1382.38
802.97	1392.62
803.15	1384.43
803.32	1380.33
803.50	1298.41
803.67	1368.04
803.84	1269.74
804.02	1300.46
804.19	1351.66
804.37	1296.36
804.54	1277.93
804.71	1310.70
804.89	1322.99
805.06	1302.51
805.24	1359.85
805.41	1288.17
805.58	1312.75
805.76	1507.30
805.93	1290.22
806.10	1404.91
806.28	1294.32
806.45	1425.39
806.63	1368.04
806.80	1429.48
806.97	1404.91
807.15	1331.18
807.32	1402.86
807.49	1372.14
807.67	1386.47
807.84	1329.13
808.01	1284.08
808.19	1501.16
808.36	1507.30
808.54	1320.94
808.71	1396.71
808.88	1417.19
809.06	1431.53
809.23	1439.72
809.40	1269.74
809.58	1431.53
809.75	1376.24
809.92	1363.95
810.10	1497.07
810.27	1345.52
810.44	1359.85
810.62	1353.71
810.79	1415.15
810.96	1310.70
811.14	1411.05
811.31	1411.05
811.48	1370.09
811.66	1343.47
811.83	1402.86
812.00	1402.86
812.18	1417.19
812.35	1490.92
812.52	1361.90
812.69	1366.00
812.87	1329.13
813.04	1421.29
813.21	1314.80
813.39	1282.03
813.56	1320.94
813.73	1417.19
813.91	1341.42
814.08	1322.99
814.25	1361.90
814.42	1355.76
814.60	1396.71
814.77	1302.51
814.94	1368.04
815.12	1347.56
815.29	1392.62
815.46	1329.13
815.63	1413.10
815.81	1337.32
815.98	1329.13
816.15	1376.24
816.33	1368.04
816.50	1302.51
816.67	1376.24
816.84	1404.91
817.02	1361.90
817.19	1368.04
817.36	1339.37
817.53	1425.39
817.71	1363.95
817.88	1396.71
818.05	1392.62
818.22	1380.33
818.40	1392.62
818.57	1396.71
818.74	1380.33
818.91	1339.37
819.09	1396.71
819.26	1447.91
819.43	1341.42
819.60	1232.88
819.78	1304.56
819.95	1396.71
820.12	1318.89
820.29	1361.90
820.47	1372.14
820.64	1363.95
820.81	1292.27
820.98	1376.24
821.15	1298.41
821.33	1370.09
821.50	1333.23
821.67	1380.33
821.84	1380.33
822.02	1404.91
822.19	1380.33
822.36	1423.34
822.53	1349.61
822.70	1331.18
822.88	1314.80
823.05	1419.24
823.22	1406.95
823.39	1419.24
823.56	1355.76
823.74	1443.82
823.91	1421.29
824.08	1333.23
824.25	1335.28
824.42	1449.96
824.60	1279.98
824.77	1415.15
824.94	1380.33
825.11	1472.49
825.28	1257.45
825.45	1390.57
825.63	1376.24
825.80	1337.32
825.97	1411.05
826.14	1402.86
826.31	1339.37
826.48	1345.52
826.66	1345.52
826.83	1406.95
827.00	1316.84
827.17	1372.14
827.34	1396.71
827.51	1431.53
827.69	1312.75
827.86	1267.69
828.03	1341.42
828.20	1361.90
828.37	1298.41
828.54	1376.24
828.71	1304.56
828.89	1392.62
829.06	1398.76
829.23	1449.96
829.40	1345.52
829.57	1351.66
829.74	1413.10
829.91	1361.90
830.09	1368.04
830.26	1355.76
830.43	1447.91
830.60	1325.04
830.77	1366.00
830.94	1411.05
831.11	1347.56
831.28	1394.67
831.46	1382.38
831.63	1372.14
831.80	1415.15
831.97	1370.09
832.14	1331.18
832.31	1366.00
832.48	1335.28
832.65	1404.91
832.82	1380.33
832.99	1382.38
833.17	1284.08
833.34	1372.14
833.51	1452.01
833.68	1298.41
833.85	1429.48
834.02	1314.80
834.19	1372.14
834.36	1316.84
834.53	1392.62
834.70	1384.43
834.87	1390.57
835.04	1460.20
835.22	1394.67
835.39	1392.62
835.56	1310.70
835.73	1273.84
835.90	1392.62
836.07	1435.63
836.24	1413.10
836.41	1335.28
836.58	1363.95
836.75	1333.23
836.92	1402.86
837.09	1394.67
837.26	1433.58
837.43	1419.24
837.60	1417.19
837.77	1363.95
837.94	1349.61
838.12	1419.24
838.29	1378.28
838.46	1355.76
838.63	1279.98
838.80	1359.85
838.97	1435.63
839.14	1380.33
839.31	1310.70
839.48	1384.43
839.65	1339.37
839.82	1304.56
839.99	1363.95
840.16	1349.61
840.33	1378.28
840.50	1394.67
840.67	1370.09
840.84	1312.75
841.01	1404.91
841.18	1300.46
841.35	1292.27
841.52	1322.99
841.69	1454.06
841.86	1429.48
842.03	1363.95
842.20	1368.04
842.37	1245.16
842.54	1386.47
842.71	1335.28
842.88	1329.13
843.05	1427.43
843.22	1396.71
843.39	1357.80
843.56	1353.71
843.73	1343.47
843.90	1384.43
844.07	1423.34
844.24	1398.76
844.41	1351.66
844.58	1316.84
844.75	1304.56
844.92	1378.28
845.09	1347.56
845.26	1345.52
845.43	1339.37
845.60	1392.62
845.77	1333.23
845.94	1359.85
846.10	1419.24
846.27	1363.95
846.44	1388.52
846.61	1413.10
846.78	1353.71
846.95	1353.71
847.12	1380.33
847.29	1355.76
847.46	1288.17
847.63	1421.29
847.80	1329.13
847.97	1294.32
848.14	1419.24
848.31	1351.66
848.48	1269.74
848.65	1452.01
848.82	1376.24
848.98	1429.48
849.15	1394.67
849.32	1394.67
849.49	1372.14
849.66	1380.33
849.83	1388.52
850.00	1320.94
850.17	1351.66
850.34	1335.28
850.51	1347.56
850.68	1355.76
850.85	1361.90
851.01	1417.19
851.18	1380.33
851.35	1277.93
851.52	1402.86
851.69	1431.53
851.86	1282.03
852.03	1290.22
852.20	1384.43
852.37	1386.47
852.53	1294.32
852.70	1318.89
852.87	1302.51
853.04	1413.10
853.21	1402.86
853.38	1335.28
853.55	1359.85
853.72	1400.81
853.89	1339.37
854.05	1306.60
854.22	1347.56
854.39	1429.48
854.56	1409.00
854.73	1470.44
854.90	1374.19
855.07	1374.19
855.23	1427.43
855.40	1355.76
855.57	1273.84
855.74	1335.28
855.91	1513.45
856.08	1345.52
856.25	1341.42
856.41	1353.71
856.58	1294.32
856.75	1318.89
856.92	1277.93
857.09	1392.62
857.26	1361.90
857.42	1394.67
857.59	1329.13
857.76	1390.57
857.93	1355.76
858.10	1337.32
858.27	1359.85
858.43	1368.04
858.60	1355.76
858.77	1298.41
858.94	1343.47
859.11	1388.52
859.27	1359.85
859.44	1413.10
859.61	1462.25
859.78	1318.89
859.95	1322.99
860.12	1376.24
860.28	1490.92
860.45	1452.01
860.62	1368.04
860.79	1345.52
860.95	1380.33
861.12	1359.85
861.29	1349.61
861.46	1335.28
861.63	1306.60
861.79	1415.15
861.96	1325.04
862.13	1413.10
862.30	1495.02
862.47	1320.94
862.63	1355.76
862.80	1492.97
862.97	1370.09
863.14	1384.43
863.30	1404.91
863.47	1290.22
863.64	1361.90
863.81	1425.39
863.97	1335.28
864.14	1368.04
864.31	1318.89
864.48	1368.04
864.65	1343.47
864.81	1456.11
864.98	1400.81
865.15	1396.71
865.32	1374.19
865.48	1359.85
865.65	1337.32
865.82	1314.80
865.98	1429.48
866.15	1415.15
866.32	1394.67
866.49	1368.04
866.65	1429.48
866.82	1296.36
866.99	1357.80
867.16	1404.91
867.32	1273.84
867.49	1398.76
867.66	1294.32
867.83	1331.18
867.99	1306.60
868.16	1374.19
868.33	1341.42
868.49	1443.82
868.66	1345.52
868.83	1361.90
868.99	1366.00
869.16	1380.33
869.33	1388.52
869.50	1460.20
869.66	1378.28
869.83	1398.76
870.00	1345.52
870.16	1382.38
870.33	1347.56
870.50	1386.47
870.66	1470.44
870.83	1548.26
871.00	1329.13
871.17	1376.24
871.33	1402.86
871.50	1353.71
871.67	1329.13
871.83	1329.13
872.00	1335.28
872.17	1378.28
872.33	1480.68
872.50	1402.86
872.67	1386.47
872.83	1384.43
873.00	1363.95
873.17	1368.04
873.33	1366.00
873.50	1392.62
873.67	1273.84
873.83	1390.57
874.00	1396.71
874.16	1347.56
874.33	1382.38
874.50	1308.65
874.66	1316.84
874.83	1357.80
875.00	1372.14
875.16	1378.28
875.33	1380.33
875.50	1302.51
875.66	1392.62
875.83	1423.34
875.99	1429.48
876.16	1353.71
876.33	1329.13
876.49	1339.37
876.66	1398.76
876.83	1339.37
876.99	1327.08
877.16	1361.90
877.32	1325.04
877.49	1394.67
877.66	1355.76
877.82	1413.10
877.99	1302.51
878.15	1392.62
878.32	1357.80
878.49	1384.43
878.65	1288.17
878.82	1464.30
878.98	1353.71
879.15	1433.58
879.32	1363.95
879.48	1417.19
879.65	1351.66
879.81	1345.52
879.98	1277.93
880.15	1284.08
880.31	1429.48
880.48	1331.18
880.64	1470.44
880.81	1327.08
880.97	1425.39
881.14	1423.34
881.31	1353.71
881.47	1435.63
881.64	1288.17
881.80	1314.80
881.97	1320.94
882.13	1353.71
882.30	1226.73
882.47	1290.22
882.63	1361.90
882.80	1398.76
882.96	1363.95
883.13	1335.28
883.29	1351.66
883.46	1425.39
883.62	1400.81
883.79	1396.71
883.95	1322.99
884.12	1345.52
884.29	1376.24
884.45	1368.04
884.62	1409.00
884.78	1320.94
884.95	1415.15
885.11	1382.38
885.28	1409.00
885.44	1425.39
885.61	1456.11
885.77	1431.53
885.94	1343.47
886.10	1443.82
886.27	1337.32
886.43	1325.04
886.60	1425.39
886.76	1366.00
886.93	1341.42
887.09	1292.27
887.26	1333.23
887.42	1411.05
887.59	1386.47
887.75	1464.30
887.92	1437.67
888.08	1398.76
888.25	1466.35
888.41	1421.29
888.58	1382.38
888.74	1372.14
888.91	1314.80
>>>>>End Processed Spectral Data<<<<<
