SpectraSuite Data File
++++++++++++++++++++++++++++++++++++
Date: Tue May 03 11:24:52 CEST 2016
User: root
Dark Spectrum Present: No
Reference Spectrum Present: No
Number of Sampled Component Spectra: 1
Spectrometers: USB4C02835
Integration Time (usec): 100000 (USB4C02835)
Spectra Averaged: 1 (USB4C02835)
Boxcar Smoothing: 0 (USB4C02835)
Correct for Electrical Dark: No (USB4C02835)
Strobe/Lamp Enabled: No (USB4C02835)
Correct for Detector Non-linearity: No (USB4C02835)
Correct for Stray Light: No (USB4C02835)
Number of Pixels in Processed Spectrum: 3648
>>>>>Begin Processed Spectral Data<<<<<
177.47	1212.40
177.69	1212.40
177.91	1212.40
178.13	1253.36
178.36	1247.21
178.58	1265.64
178.80	1392.62
179.02	1396.71
179.24	1329.13
179.46	1452.01
179.68	1425.39
179.90	1361.90
180.13	1329.13
180.35	1374.19
180.57	1359.85
180.79	1458.15
181.01	1370.09
181.23	1411.05
181.45	1413.10
181.67	1392.62
181.90	1449.96
182.12	1388.52
182.34	1378.28
182.56	1452.01
182.78	1372.14
183.00	1398.76
183.22	1409.00
183.44	1273.84
183.66	1488.87
183.89	1409.00
184.11	1406.95
184.33	1345.52
184.55	1468.39
184.77	1474.54
184.99	1357.80
185.21	1386.47
185.43	1400.81
185.65	1374.19
185.87	1466.35
186.10	1505.26
186.32	1476.59
186.54	1406.95
186.76	1359.85
186.98	1349.61
187.20	1339.37
187.42	1368.04
187.64	1359.85
187.86	1427.43
188.08	1392.62
188.30	1363.95
188.52	1388.52
188.75	1398.76
188.97	1398.76
189.19	1308.65
189.41	1437.67
189.63	1376.24
189.85	1273.84
190.07	1345.52
190.29	1357.80
190.51	1421.29
190.73	1279.98
190.95	1419.24
191.17	1282.03
191.39	1267.69
191.61	1390.57
191.84	1374.19
192.06	1445.87
192.28	1339.37
192.50	1433.58
192.72	1490.92
192.94	1314.80
193.16	1384.43
193.38	1327.08
193.60	1308.65
193.82	1312.75
194.04	1394.67
194.26	1376.24
194.48	1314.80
194.70	1368.04
194.92	1355.76
195.14	1406.95
195.36	1384.43
195.58	1372.14
195.80	1439.72
196.02	1343.47
196.24	1425.39
196.46	1400.81
196.69	1294.32
196.91	1456.11
197.13	1406.95
197.35	1316.84
197.57	1341.42
197.79	1427.43
198.01	1363.95
198.23	1370.09
198.45	1363.95
198.67	1298.41
198.89	1421.29
199.11	1290.22
199.33	1294.32
199.55	1320.94
199.77	1345.52
199.99	1462.25
200.21	1335.28
200.43	1343.47
200.65	1341.42
200.87	1320.94
201.09	1359.85
201.31	1347.56
201.53	1497.07
201.75	1392.62
201.97	1343.47
202.19	1314.80
202.41	1411.05
202.63	1521.64
202.85	1378.28
203.07	1419.24
203.29	1337.32
203.51	1331.18
203.73	1273.84
203.95	1437.67
204.17	1413.10
204.39	1351.66
204.61	1343.47
204.83	1363.95
205.05	1337.32
205.27	1464.30
205.49	1447.91
205.71	1382.38
205.93	1335.28
206.15	1382.38
206.37	1433.58
206.59	1288.17
206.81	1308.65
207.03	1363.95
207.25	1241.07
207.47	1429.48
207.69	1357.80
207.91	1359.85
208.13	1429.48
208.34	1361.90
208.56	1417.19
208.78	1413.10
209.00	1265.64
209.22	1482.73
209.44	1310.70
209.66	1380.33
209.88	1400.81
210.10	1302.51
210.32	1376.24
210.54	1357.80
210.76	1320.94
210.98	1425.39
211.20	1273.84
211.42	1404.91
211.64	1419.24
211.86	1339.37
212.08	1429.48
212.30	1337.32
212.52	1380.33
212.74	1392.62
212.96	1327.08
213.17	1386.47
213.39	1335.28
213.61	1345.52
213.83	1447.91
214.05	1335.28
214.27	1449.96
214.49	1308.65
214.71	1298.41
214.93	1435.63
215.15	1402.86
215.37	1400.81
215.59	1333.23
215.81	1384.43
216.03	1421.29
216.24	1322.99
216.46	1292.27
216.68	1396.71
216.90	1404.91
217.12	1384.43
217.34	1431.53
217.56	1376.24
217.78	1345.52
218.00	1484.78
218.22	1343.47
218.44	1417.19
218.66	1327.08
218.87	1413.10
219.09	1417.19
219.31	1386.47
219.53	1361.90
219.75	1292.27
219.97	1277.93
220.19	1320.94
220.41	1279.98
220.63	1427.43
220.85	1382.38
221.06	1355.76
221.28	1413.10
221.50	1302.51
221.72	1421.29
221.94	1433.58
222.16	1314.80
222.38	1419.24
222.60	1398.76
222.82	1327.08
223.03	1427.43
223.25	1402.86
223.47	1431.53
223.69	1466.35
223.91	1478.63
224.13	1429.48
224.35	1425.39
224.57	1384.43
224.78	1431.53
225.00	1372.14
225.22	1359.85
225.44	1462.25
225.66	1376.24
225.88	1308.65
226.10	1335.28
226.32	1378.28
226.53	1507.30
226.75	1308.65
226.97	1429.48
227.19	1308.65
227.41	1331.18
227.63	1316.84
227.85	1284.08
228.06	1423.34
228.28	1314.80
228.50	1390.57
228.72	1339.37
228.94	1437.67
229.16	1322.99
229.37	1380.33
229.59	1382.38
229.81	1396.71
230.03	1325.04
230.25	1329.13
230.47	1331.18
230.69	1359.85
230.90	1431.53
231.12	1292.27
231.34	1331.18
231.56	1361.90
231.78	1398.76
232.00	1325.04
232.21	1355.76
232.43	1363.95
232.65	1265.64
232.87	1445.87
233.09	1351.66
233.30	1376.24
233.52	1273.84
233.74	1411.05
233.96	1425.39
234.18	1411.05
234.40	1402.86
234.61	1406.95
234.83	1347.56
235.05	1331.18
235.27	1435.63
235.49	1464.30
235.70	1370.09
235.92	1345.52
236.14	1429.48
236.36	1411.05
236.58	1431.53
236.79	1386.47
237.01	1298.41
237.23	1435.63
237.45	1468.39
237.67	1322.99
237.88	1392.62
238.10	1458.15
238.32	1335.28
238.54	1322.99
238.76	1380.33
238.97	1411.05
239.19	1302.51
239.41	1366.00
239.63	1427.43
239.85	1347.56
240.06	1349.61
240.28	1351.66
240.50	1302.51
240.72	1363.95
240.93	1392.62
241.15	1470.44
241.37	1329.13
241.59	1372.14
241.81	1374.19
242.02	1355.76
242.24	1314.80
242.46	1384.43
242.68	1411.05
242.89	1392.62
243.11	1376.24
243.33	1417.19
243.55	1335.28
243.76	1357.80
243.98	1370.09
244.20	1286.12
244.42	1378.28
244.64	1427.43
244.85	1388.52
245.07	1380.33
245.29	1433.58
245.51	1402.86
245.72	1378.28
245.94	1447.91
246.16	1335.28
246.38	1386.47
246.59	1394.67
246.81	1349.61
247.03	1331.18
247.24	1290.22
247.46	1329.13
247.68	1366.00
247.90	1382.38
248.11	1378.28
248.33	1404.91
248.55	1429.48
248.77	1353.71
248.98	1368.04
249.20	1423.34
249.42	1279.98
249.64	1378.28
249.85	1351.66
250.07	1355.76
250.29	1355.76
250.50	1370.09
250.72	1310.70
250.94	1382.38
251.16	1515.50
251.37	1447.91
251.59	1325.04
251.81	1361.90
252.02	1370.09
252.24	1388.52
252.46	1370.09
252.68	1384.43
252.89	1368.04
253.11	1331.18
253.33	1478.63
253.54	1390.57
253.76	1357.80
253.98	1333.23
254.20	1347.56
254.41	1294.32
254.63	1341.42
254.85	1271.79
255.06	1302.51
255.28	1378.28
255.50	1386.47
255.71	1337.32
255.93	1282.03
256.15	1355.76
256.36	1388.52
256.58	1329.13
256.80	1484.78
257.02	1409.00
257.23	1361.90
257.45	1400.81
257.67	1402.86
257.88	1282.03
258.10	1482.73
258.32	1298.41
258.53	1394.67
258.75	1462.25
258.97	1337.32
259.18	1355.76
259.40	1398.76
259.62	1454.06
259.83	1380.33
260.05	1329.13
260.27	1538.02
260.48	1396.71
260.70	1331.18
260.92	1439.72
261.13	1314.80
261.35	1361.90
261.57	1382.38
261.78	1353.71
262.00	1394.67
262.22	1343.47
262.43	1310.70
262.65	1335.28
262.86	1345.52
263.08	1437.67
263.30	1366.00
263.51	1275.88
263.73	1380.33
263.95	1437.67
264.16	1306.60
264.38	1452.01
264.60	1439.72
264.81	1484.78
265.03	1361.90
265.25	1396.71
265.46	1370.09
265.68	1419.24
265.89	1445.87
266.11	1302.51
266.33	1392.62
266.54	1421.29
266.76	1361.90
266.98	1374.19
267.19	1437.67
267.41	1343.47
267.62	1333.23
267.84	1282.03
268.06	1394.67
268.27	1382.38
268.49	1406.95
268.70	1406.95
268.92	1372.14
269.14	1347.56
269.35	1337.32
269.57	1372.14
269.79	1361.90
270.00	1337.32
270.22	1392.62
270.43	1363.95
270.65	1288.17
270.87	1312.75
271.08	1415.15
271.30	1443.82
271.51	1368.04
271.73	1380.33
271.95	1386.47
272.16	1386.47
272.38	1380.33
272.59	1357.80
272.81	1368.04
273.02	1390.57
273.24	1376.24
273.46	1394.67
273.67	1355.76
273.89	1404.91
274.10	1353.71
274.32	1439.72
274.54	1322.99
274.75	1363.95
274.97	1318.89
275.18	1322.99
275.40	1378.28
275.61	1394.67
275.83	1380.33
276.05	1341.42
276.26	1345.52
276.48	1335.28
276.69	1351.66
276.91	1329.13
277.12	1404.91
277.34	1386.47
277.55	1464.30
277.77	1374.19
277.99	1343.47
278.20	1337.32
278.42	1372.14
278.63	1355.76
278.85	1355.76
279.06	1282.03
279.28	1337.32
279.49	1368.04
279.71	1447.91
279.93	1368.04
280.14	1325.04
280.36	1368.04
280.57	1378.28
280.79	1359.85
281.00	1339.37
281.22	1298.41
281.43	1390.57
281.65	1308.65
281.86	1341.42
282.08	1421.29
282.29	1476.59
282.51	1347.56
282.73	1355.76
282.94	1359.85
283.16	1343.47
283.37	1425.39
283.59	1400.81
283.80	1325.04
284.02	1337.32
284.23	1294.32
284.45	1304.56
284.66	1357.80
284.88	1380.33
285.09	1411.05
285.31	1462.25
285.52	1417.19
285.74	1320.94
285.95	1441.77
286.17	1310.70
286.38	1384.43
286.60	1306.60
286.81	1376.24
287.03	1380.33
287.24	1400.81
287.46	1376.24
287.67	1357.80
287.89	1478.63
288.10	1439.72
288.32	1437.67
288.53	1335.28
288.75	1396.71
288.96	1380.33
289.18	1351.66
289.39	1337.32
289.61	1423.34
289.82	1513.45
290.04	1452.01
290.25	1345.52
290.47	1335.28
290.68	1345.52
290.90	1443.82
291.11	1306.60
291.33	1331.18
291.54	1261.55
291.76	1331.18
291.97	1427.43
292.18	1331.18
292.40	1368.04
292.61	1277.93
292.83	1470.44
293.04	1394.67
293.26	1382.38
293.47	1382.38
293.69	1296.36
293.90	1400.81
294.12	1335.28
294.33	1382.38
294.55	1400.81
294.76	1312.75
294.97	1429.48
295.19	1409.00
295.40	1366.00
295.62	1386.47
295.83	1351.66
296.05	1349.61
296.26	1361.90
296.48	1351.66
296.69	1355.76
296.90	1359.85
297.12	1370.09
297.33	1423.34
297.55	1415.15
297.76	1449.96
297.98	1363.95
298.19	1331.18
298.41	1388.52
298.62	1349.61
298.83	1404.91
299.05	1341.42
299.26	1337.32
299.48	1394.67
299.69	1370.09
299.90	1355.76
300.12	1351.66
300.33	1341.42
300.55	1361.90
300.76	1404.91
300.98	1290.22
301.19	1464.30
301.40	1331.18
301.62	1370.09
301.83	1423.34
302.05	1292.27
302.26	1355.76
302.47	1435.63
302.69	1273.84
302.90	1404.91
303.12	1267.69
303.33	1396.71
303.54	1366.00
303.76	1374.19
303.97	1353.71
304.19	1380.33
304.40	1359.85
304.61	1406.95
304.83	1374.19
305.04	1439.72
305.26	1275.88
305.47	1363.95
305.68	1337.32
305.90	1339.37
306.11	1411.05
306.33	1357.80
306.54	1380.33
306.75	1347.56
306.97	1363.95
307.18	1353.71
307.39	1335.28
307.61	1398.76
307.82	1353.71
308.04	1380.33
308.25	1269.74
308.46	1394.67
308.68	1357.80
308.89	1343.47
309.10	1368.04
309.32	1304.56
309.53	1374.19
309.74	1355.76
309.96	1374.19
310.17	1476.59
310.39	1411.05
310.60	1337.32
310.81	1341.42
311.03	1333.23
311.24	1454.06
311.45	1320.94
311.67	1470.44
311.88	1312.75
312.09	1366.00
312.31	1376.24
312.52	1337.32
312.73	1329.13
312.95	1329.13
313.16	1286.12
313.37	1429.48
313.59	1357.80
313.80	1308.65
314.01	1441.77
314.23	1322.99
314.44	1363.95
314.65	1345.52
314.87	1314.80
315.08	1314.80
315.29	1325.04
315.51	1339.37
315.72	1376.24
315.93	1443.82
316.15	1400.81
316.36	1355.76
316.57	1415.15
316.79	1349.61
317.00	1312.75
317.21	1355.76
317.43	1353.71
317.64	1349.61
317.85	1355.76
318.07	1462.25
318.28	1542.12
318.49	1611.75
318.70	1591.27
318.92	1468.39
319.13	1495.02
319.34	1568.74
319.56	1466.35
319.77	1468.39
319.98	1349.61
320.20	1503.21
320.41	1441.77
320.62	1359.85
320.83	1294.32
321.05	1492.97
321.26	1361.90
321.47	1368.04
321.69	1437.67
321.90	1228.78
322.11	1333.23
322.32	1411.05
322.54	1380.33
322.75	1337.32
322.96	1470.44
323.18	1314.80
323.39	1273.84
323.60	1355.76
323.81	1363.95
324.03	1380.33
324.24	1359.85
324.45	1386.47
324.66	1359.85
324.88	1476.59
325.09	1429.48
325.30	1320.94
325.52	1433.58
325.73	1304.56
325.94	1325.04
326.15	1271.79
326.37	1359.85
326.58	1363.95
326.79	1478.63
327.00	1353.71
327.22	1464.30
327.43	1347.56
327.64	1298.41
327.85	1359.85
328.07	1322.99
328.28	1427.43
328.49	1290.22
328.70	1359.85
328.92	1398.76
329.13	1331.18
329.34	1433.58
329.55	1466.35
329.76	1378.28
329.98	1372.14
330.19	1417.19
330.40	1423.34
330.61	1378.28
330.83	1322.99
331.04	1265.64
331.25	1331.18
331.46	1363.95
331.68	1282.03
331.89	1476.59
332.10	1316.84
332.31	1460.20
332.52	1302.51
332.74	1429.48
332.95	1234.93
333.16	1372.14
333.37	1398.76
333.58	1353.71
333.80	1361.90
334.01	1302.51
334.22	1406.95
334.43	1331.18
334.64	1329.13
334.86	1308.65
335.07	1277.93
335.28	1386.47
335.49	1355.76
335.70	1378.28
335.92	1390.57
336.13	1476.59
336.34	1454.06
336.55	1355.76
336.76	1376.24
336.98	1296.36
337.19	1355.76
337.40	1392.62
337.61	1447.91
337.82	1341.42
338.04	1406.95
338.25	1314.80
338.46	1363.95
338.67	1398.76
338.88	1325.04
339.09	1353.71
339.31	1400.81
339.52	1398.76
339.73	1294.32
339.94	1366.00
340.15	1452.01
340.36	1312.75
340.58	1349.61
340.79	1384.43
341.00	1392.62
341.21	1366.00
341.42	1427.43
341.63	1404.91
341.85	1327.08
342.06	1417.19
342.27	1308.65
342.48	1413.10
342.69	1337.32
342.90	1325.04
343.12	1441.77
343.33	1368.04
343.54	1312.75
343.75	1419.24
343.96	1357.80
344.17	1294.32
344.38	1312.75
344.60	1349.61
344.81	1327.08
345.02	1398.76
345.23	1384.43
345.44	1548.26
345.65	1427.43
345.86	1333.23
346.07	1415.15
346.29	1308.65
346.50	1331.18
346.71	1345.52
346.92	1402.86
347.13	1472.49
347.34	1370.09
347.55	1411.05
347.76	1419.24
347.98	1355.76
348.19	1327.08
348.40	1310.70
348.61	1339.37
348.82	1478.63
349.03	1464.30
349.24	1349.61
349.45	1425.39
349.66	1290.22
349.88	1394.67
350.09	1421.29
350.30	1439.72
350.51	1423.34
350.72	1392.62
350.93	1294.32
351.14	1355.76
351.35	1415.15
351.56	1419.24
351.77	1335.28
351.99	1320.94
352.20	1411.05
352.41	1415.15
352.62	1378.28
352.83	1437.67
353.04	1372.14
353.25	1372.14
353.46	1411.05
353.67	1462.25
353.88	1269.74
354.09	1279.98
354.30	1413.10
354.52	1413.10
354.73	1339.37
354.94	1359.85
355.15	1286.12
355.36	1445.87
355.57	1404.91
355.78	1421.29
355.99	1394.67
356.20	1378.28
356.41	1394.67
356.62	1294.32
356.83	1363.95
357.04	1384.43
357.25	1265.64
357.46	1368.04
357.68	1296.36
357.89	1306.60
358.10	1331.18
358.31	1443.82
358.52	1335.28
358.73	1306.60
358.94	1294.32
359.15	1341.42
359.36	1435.63
359.57	1345.52
359.78	1302.51
359.99	1322.99
360.20	1361.90
360.41	1392.62
360.62	1447.91
360.83	1347.56
361.04	1421.29
361.25	1312.75
361.46	1466.35
361.67	1382.38
361.88	1398.76
362.09	1452.01
362.30	1349.61
362.51	1349.61
362.72	1417.19
362.93	1337.32
363.14	1417.19
363.35	1320.94
363.56	1306.60
363.78	1400.81
363.99	1439.72
364.20	1380.33
364.41	1325.04
364.62	1415.15
364.83	1380.33
365.04	1349.61
365.25	1322.99
365.46	1382.38
365.67	1347.56
365.88	1370.09
366.09	1355.76
366.30	1310.70
366.51	1339.37
366.72	1290.22
366.93	1316.84
367.14	1382.38
367.35	1437.67
367.56	1394.67
367.77	1425.39
367.98	1370.09
368.18	1421.29
368.39	1351.66
368.60	1322.99
368.81	1388.52
369.02	1445.87
369.23	1394.67
369.44	1290.22
369.65	1411.05
369.86	1394.67
370.07	1466.35
370.28	1341.42
370.49	1394.67
370.70	1327.08
370.91	1376.24
371.12	1372.14
371.33	1429.48
371.54	1404.91
371.75	1386.47
371.96	1304.56
372.17	1374.19
372.38	1417.19
372.59	1415.15
372.80	1363.95
373.01	1366.00
373.22	1390.57
373.43	1341.42
373.64	1261.55
373.85	1386.47
374.06	1380.33
374.26	1439.72
374.47	1417.19
374.68	1449.96
374.89	1413.10
375.10	1320.94
375.31	1425.39
375.52	1306.60
375.73	1411.05
375.94	1322.99
376.15	1376.24
376.36	1329.13
376.57	1384.43
376.78	1372.14
376.99	1384.43
377.20	1402.86
377.40	1372.14
377.61	1445.87
377.82	1386.47
378.03	1353.71
378.24	1331.18
378.45	1374.19
378.66	1339.37
378.87	1302.51
379.08	1306.60
379.29	1406.95
379.50	1503.21
379.71	1382.38
379.91	1439.72
380.12	1349.61
380.33	1443.82
380.54	1386.47
380.75	1327.08
380.96	1374.19
381.17	1431.53
381.38	1374.19
381.59	1404.91
381.80	1443.82
382.00	1501.16
382.21	1443.82
382.42	1423.34
382.63	1406.95
382.84	1429.48
383.05	1413.10
383.26	1404.91
383.47	1343.47
383.68	1413.10
383.88	1404.91
384.09	1470.44
384.30	1370.09
384.51	1402.86
384.72	1406.95
384.93	1363.95
385.14	1390.57
385.35	1435.63
385.55	1380.33
385.76	1378.28
385.97	1425.39
386.18	1368.04
386.39	1398.76
386.60	1359.85
386.81	1388.52
387.02	1435.63
387.22	1429.48
387.43	1488.87
387.64	1597.42
387.85	2265.05
388.06	5756.84
388.27	9406.32
388.48	11607.89
388.68	12986.17
388.89	13498.16
389.10	10706.78
389.31	9078.65
389.52	8218.50
389.73	7440.27
389.93	6997.91
390.14	6582.17
390.35	6049.70
390.56	5640.11
390.77	4614.07
390.98	3758.02
391.18	2783.19
391.39	2226.14
391.60	1685.48
391.81	1656.81
392.02	1470.44
392.23	1509.35
392.43	1409.00
392.64	1433.58
392.85	1361.90
393.06	1396.71
393.27	1357.80
393.47	1366.00
393.68	1339.37
393.89	1464.30
394.10	1372.14
394.31	1368.04
394.52	1359.85
394.72	1384.43
394.93	1458.15
395.14	1312.75
395.35	1345.52
395.56	1335.28
395.76	1503.21
395.97	1511.40
396.18	1605.61
396.39	1523.69
396.60	1611.75
396.80	1562.60
397.01	1474.54
397.22	1470.44
397.43	1558.50
397.64	1398.76
397.84	1445.87
398.05	1495.02
398.26	1396.71
398.47	1431.53
398.67	1466.35
398.88	1398.76
399.09	1449.96
399.30	1386.47
399.51	1409.00
399.71	1335.28
399.92	1372.14
400.13	1411.05
400.34	1351.66
400.54	1437.67
400.75	1439.72
400.96	1462.25
401.17	1351.66
401.37	1480.68
401.58	1441.77
401.79	1607.66
402.00	1689.57
402.21	1810.40
402.41	1777.64
402.62	1855.46
402.83	1701.86
403.04	1665.00
403.24	1740.77
403.45	1589.22
403.66	1583.08
403.87	1523.69
404.07	1566.70
404.28	1638.38
404.49	1513.45
404.70	1540.07
404.90	1460.20
405.11	1474.54
405.32	1402.86
405.52	1409.00
405.73	1353.71
405.94	1308.65
406.15	1396.71
406.35	1388.52
406.56	1488.87
406.77	1349.61
406.98	1359.85
407.18	1243.12
407.39	1347.56
407.60	1333.23
407.80	1413.10
408.01	1343.47
408.22	1329.13
408.43	1286.12
408.63	1351.66
408.84	1378.28
409.05	1406.95
409.25	1343.47
409.46	1349.61
409.67	1318.89
409.88	1390.57
410.08	1353.71
410.29	1314.80
410.50	1380.33
410.70	1419.24
410.91	1271.79
411.12	1368.04
411.32	1331.18
411.53	1478.63
411.74	1495.02
411.95	1478.63
412.15	1456.11
412.36	1454.06
412.57	1357.80
412.77	1464.30
412.98	1388.52
413.19	1357.80
413.39	1374.19
413.60	1460.20
413.81	1454.06
414.01	1435.63
414.22	1460.20
414.43	1402.86
414.63	1376.24
414.84	1384.43
415.05	1441.77
415.25	1341.42
415.46	1402.86
415.67	1357.80
415.87	1378.28
416.08	1370.09
416.29	1435.63
416.49	1335.28
416.70	1392.62
416.91	1263.60
417.11	1335.28
417.32	1353.71
417.53	1388.52
417.73	1368.04
417.94	1343.47
418.15	1298.41
418.35	1374.19
418.56	1370.09
418.77	1511.40
418.97	1366.00
419.18	1357.80
419.38	1327.08
419.59	1384.43
419.80	1398.76
420.00	1355.76
420.21	1331.18
420.42	1398.76
420.62	1423.34
420.83	1359.85
421.04	1273.84
421.24	1368.04
421.45	1441.77
421.65	1429.48
421.86	1384.43
422.07	1361.90
422.27	1411.05
422.48	1384.43
422.69	1353.71
422.89	1413.10
423.10	1265.64
423.30	1374.19
423.51	1372.14
423.72	1351.66
423.92	1370.09
424.13	1257.45
424.33	1337.32
424.54	1357.80
424.75	1404.91
424.95	1431.53
425.16	1476.59
425.36	1290.22
425.57	1474.54
425.78	1419.24
425.98	1398.76
426.19	1335.28
426.39	1296.36
426.60	1386.47
426.81	1482.73
427.01	1417.19
427.22	1316.84
427.42	1376.24
427.63	1372.14
427.83	1472.49
428.04	1398.76
428.25	1390.57
428.45	1458.15
428.66	1390.57
428.86	1318.89
429.07	1449.96
429.28	1341.42
429.48	1345.52
429.69	1419.24
429.89	1386.47
430.10	1320.94
430.30	1380.33
430.51	1476.59
430.71	1314.80
430.92	1404.91
431.13	1312.75
431.33	1320.94
431.54	1372.14
431.74	1482.73
431.95	1443.82
432.15	1351.66
432.36	1413.10
432.56	1495.02
432.77	1423.34
432.98	1452.01
433.18	1398.76
433.39	1322.99
433.59	1343.47
433.80	1357.80
434.00	1454.06
434.21	1312.75
434.41	1239.02
434.62	1429.48
434.82	1341.42
435.03	1306.60
435.23	1417.19
435.44	1304.56
435.64	1370.09
435.85	1425.39
436.06	1349.61
436.26	1390.57
436.47	1409.00
436.67	1402.86
436.88	1349.61
437.08	1437.67
437.29	1429.48
437.49	1355.76
437.70	1411.05
437.90	1368.04
438.11	1544.17
438.31	1554.41
438.52	1607.66
438.72	1497.07
438.93	1540.07
439.13	1503.21
439.34	1458.15
439.54	1431.53
439.75	1525.74
439.95	1427.43
440.16	1435.63
440.36	1419.24
440.57	1427.43
440.77	1419.24
440.98	1388.52
441.18	1456.11
441.39	1368.04
441.59	1351.66
441.80	1472.49
442.00	1394.67
442.21	1398.76
442.41	1322.99
442.62	1384.43
442.82	1441.77
443.02	1374.19
443.23	1398.76
443.43	1409.00
443.64	1468.39
443.84	1343.47
444.05	1425.39
444.25	1404.91
444.46	1378.28
444.66	1331.18
444.87	1388.52
445.07	1322.99
445.28	1470.44
445.48	1417.19
445.69	1425.39
445.89	1515.50
446.09	1521.64
446.30	2185.18
446.50	3618.76
446.71	4704.18
446.91	5365.68
447.12	5500.84
447.32	4988.85
447.53	4214.72
447.73	3796.93
447.93	3407.82
448.14	3217.36
448.34	2973.65
448.55	2742.23
448.75	2811.86
448.96	2650.07
449.16	2426.84
449.36	2195.42
449.57	1988.58
449.77	1779.68
449.98	1531.88
450.18	1484.78
450.39	1425.39
450.59	1363.95
450.79	1480.68
451.00	1351.66
451.20	1468.39
451.41	1423.34
451.61	1357.80
451.81	1355.76
452.02	1376.24
452.22	1378.28
452.43	1355.76
452.63	1337.32
452.84	1382.38
453.04	1277.93
453.24	1374.19
453.45	1333.23
453.65	1423.34
453.86	1370.09
454.06	1421.29
454.26	1339.37
454.47	1339.37
454.67	1372.14
454.87	1398.76
455.08	1390.57
455.28	1396.71
455.49	1347.56
455.69	1374.19
455.89	1402.86
456.10	1456.11
456.30	1402.86
456.51	1415.15
456.71	1368.04
456.91	1366.00
457.12	1368.04
457.32	1388.52
457.52	1265.64
457.73	1327.08
457.93	1476.59
458.14	1312.75
458.34	1351.66
458.54	1441.77
458.75	1366.00
458.95	1431.53
459.15	1353.71
459.36	1406.95
459.56	1361.90
459.76	1425.39
459.97	1380.33
460.17	1400.81
460.37	1454.06
460.58	1320.94
460.78	1355.76
460.99	1372.14
461.19	1402.86
461.39	1363.95
461.60	1357.80
461.80	1400.81
462.00	1339.37
462.21	1357.80
462.41	1351.66
462.61	1337.32
462.82	1320.94
463.02	1374.19
463.22	1361.90
463.43	1437.67
463.63	1351.66
463.83	1449.96
464.04	1402.86
464.24	1411.05
464.44	1347.56
464.64	1443.82
464.85	1443.82
465.05	1404.91
465.25	1396.71
465.46	1314.80
465.66	1415.15
465.86	1382.38
466.07	1341.42
466.27	1341.42
466.47	1335.28
466.68	1349.61
466.88	1517.54
467.08	1388.52
467.29	1353.71
467.49	1380.33
467.69	1388.52
467.89	1355.76
468.10	1366.00
468.30	1290.22
468.50	1425.39
468.71	1351.66
468.91	1318.89
469.11	1394.67
469.31	1359.85
469.52	1368.04
469.72	1419.24
469.92	1495.02
470.13	1386.47
470.33	1429.48
470.53	1662.95
470.73	2045.92
470.94	2232.29
471.14	2281.44
471.34	2428.89
471.54	2230.24
471.75	1964.00
471.95	1861.60
472.15	1861.60
472.36	1804.26
472.56	1695.72
472.76	1757.16
472.96	1693.67
473.17	1681.38
473.37	1624.04
473.57	1540.07
473.77	1509.35
473.98	1427.43
474.18	1470.44
474.38	1480.68
474.58	1361.90
474.79	1333.23
474.99	1478.63
475.19	1378.28
475.39	1325.04
475.60	1402.86
475.80	1353.71
476.00	1302.51
476.20	1343.47
476.41	1441.77
476.61	1458.15
476.81	1429.48
477.01	1390.57
477.21	1363.95
477.42	1462.25
477.62	1277.93
477.82	1415.15
478.02	1282.03
478.23	1359.85
478.43	1343.47
478.63	1316.84
478.83	1357.80
479.03	1320.94
479.24	1392.62
479.44	1503.21
479.64	1333.23
479.84	1306.60
480.04	1390.57
480.25	1351.66
480.45	1384.43
480.65	1361.90
480.85	1415.15
481.06	1370.09
481.26	1378.28
481.46	1404.91
481.66	1368.04
481.86	1325.04
482.06	1413.10
482.27	1316.84
482.47	1421.29
482.67	1396.71
482.87	1325.04
483.07	1486.83
483.28	1425.39
483.48	1310.70
483.68	1325.04
483.88	1353.71
484.08	1251.31
484.29	1370.09
484.49	1335.28
484.69	1329.13
484.89	1402.86
485.09	1427.43
485.29	1343.47
485.50	1380.33
485.70	1304.56
485.90	1388.52
486.10	1404.91
486.30	1421.29
486.50	1421.29
486.71	1409.00
486.91	1495.02
487.11	1443.82
487.31	1298.41
487.51	1370.09
487.71	1286.12
487.91	1322.99
488.12	1400.81
488.32	1298.41
488.52	1380.33
488.72	1327.08
488.92	1226.73
489.12	1433.58
489.32	1404.91
489.53	1443.82
489.73	1308.65
489.93	1484.78
490.13	1337.32
490.33	1333.23
490.53	1421.29
490.73	1435.63
490.94	1355.76
491.14	1427.43
491.34	1632.23
491.54	2174.94
491.74	2623.45
491.94	3000.27
492.14	3157.97
492.34	2973.65
492.54	2596.82
492.75	2289.63
492.95	2146.27
493.15	1998.82
493.35	1980.39
493.55	1978.34
493.75	1851.36
493.95	1871.84
494.15	1718.25
494.35	1675.24
494.56	1691.62
494.76	1503.21
494.96	1533.93
495.16	1447.91
495.36	1394.67
495.56	1478.63
495.76	1417.19
495.96	1458.15
496.16	1292.27
496.36	1509.35
496.56	1384.43
496.77	1409.00
496.97	1396.71
497.17	1409.00
497.37	1322.99
497.57	1404.91
497.77	1449.96
497.97	1423.34
498.17	1423.34
498.37	1359.85
498.57	1380.33
498.77	1343.47
498.97	1411.05
499.17	1470.44
499.38	1376.24
499.58	1505.26
499.78	1386.47
499.98	1421.29
500.18	1396.71
500.38	1501.16
500.58	1699.81
500.78	2938.84
500.98	5496.75
501.18	7092.12
501.38	8171.40
501.58	8681.34
501.78	7391.12
501.98	5787.56
502.18	5181.36
502.38	4521.92
502.58	4192.19
502.78	3805.13
502.98	3780.55
503.18	3432.40
503.38	3254.22
503.59	3069.91
503.79	2854.87
503.99	2676.70
504.19	2330.59
504.39	2164.70
504.59	1990.63
504.79	1968.10
504.99	1810.40
505.19	1716.20
505.39	1589.22
505.59	1644.52
505.79	1554.41
505.99	1550.31
506.19	1495.02
506.39	1497.07
506.59	1447.91
506.79	1452.01
506.99	1439.72
507.19	1488.87
507.39	1441.77
507.59	1415.15
507.79	1339.37
507.99	1376.24
508.19	1452.01
508.39	1447.91
508.59	1361.90
508.79	1495.02
508.99	1427.43
509.19	1345.52
509.39	1425.39
509.59	1392.62
509.79	1298.41
509.99	1413.10
510.19	1458.15
510.39	1374.19
510.59	1337.32
510.79	1394.67
510.99	1327.08
511.19	1429.48
511.39	1449.96
511.59	1445.87
511.79	1445.87
511.99	1337.32
512.19	1409.00
512.38	1460.20
512.58	1312.75
512.78	1357.80
512.98	1378.28
513.18	1437.67
513.38	1374.19
513.58	1343.47
513.78	1398.76
513.98	1396.71
514.18	1392.62
514.38	1378.28
514.58	1382.38
514.78	1339.37
514.98	1386.47
515.18	1372.14
515.38	1370.09
515.58	1392.62
515.78	1294.32
515.98	1402.86
516.18	1376.24
516.38	1263.60
516.57	1380.33
516.77	1355.76
516.97	1421.29
517.17	1273.84
517.37	1312.75
517.57	1347.56
517.77	1306.60
517.97	1378.28
518.17	1398.76
518.37	1335.28
518.57	1310.70
518.77	1361.90
518.97	1372.14
519.16	1406.95
519.36	1400.81
519.56	1329.13
519.76	1374.19
519.96	1378.28
520.16	1370.09
520.36	1386.47
520.56	1447.91
520.76	1349.61
520.96	1386.47
521.16	1419.24
521.35	1394.67
521.55	1411.05
521.75	1343.47
521.95	1394.67
522.15	1341.42
522.35	1452.01
522.55	1417.19
522.75	1400.81
522.95	1312.75
523.14	1376.24
523.34	1439.72
523.54	1394.67
523.74	1380.33
523.94	1441.77
524.14	1427.43
524.34	1386.47
524.54	1429.48
524.73	1345.52
524.93	1386.47
525.13	1370.09
525.33	1271.79
525.53	1456.11
525.73	1370.09
525.93	1355.76
526.13	1347.56
526.32	1396.71
526.52	1439.72
526.72	1437.67
526.92	1406.95
527.12	1382.38
527.32	1320.94
527.52	1349.61
527.71	1449.96
527.91	1374.19
528.11	1396.71
528.31	1378.28
528.51	1282.03
528.71	1388.52
528.90	1400.81
529.10	1435.63
529.30	1423.34
529.50	1269.74
529.70	1445.87
529.90	1357.80
530.09	1347.56
530.29	1357.80
530.49	1394.67
530.69	1435.63
530.89	1378.28
531.09	1357.80
531.28	1384.43
531.48	1345.52
531.68	1318.89
531.88	1441.77
532.08	1398.76
532.28	1331.18
532.47	1435.63
532.67	1427.43
532.87	1419.24
533.07	1372.14
533.27	1435.63
533.46	1441.77
533.66	1439.72
533.86	1370.09
534.06	1372.14
534.26	1409.00
534.45	1421.29
534.65	1423.34
534.85	1404.91
535.05	1331.18
535.25	1441.77
535.44	1298.41
535.64	1421.29
535.84	1366.00
536.04	1388.52
536.24	1347.56
536.43	1331.18
536.63	1312.75
536.83	1372.14
537.03	1378.28
537.22	1343.47
537.42	1363.95
537.62	1366.00
537.82	1355.76
538.02	1454.06
538.21	1388.52
538.41	1437.67
538.61	1441.77
538.81	1355.76
539.00	1509.35
539.20	1310.70
539.40	1380.33
539.60	1329.13
539.79	1486.83
539.99	1370.09
540.19	1355.76
540.39	1263.60
540.58	1376.24
540.78	1413.10
540.98	1286.12
541.18	1376.24
541.37	1325.04
541.57	1382.38
541.77	1435.63
541.97	1363.95
542.16	1359.85
542.36	1339.37
542.56	1363.95
542.76	1425.39
542.95	1415.15
543.15	1394.67
543.35	1345.52
543.54	1284.08
543.74	1384.43
543.94	1427.43
544.14	1282.03
544.33	1368.04
544.53	1413.10
544.73	1349.61
544.93	1378.28
545.12	1433.58
545.32	1329.13
545.52	1396.71
545.71	1318.89
545.91	1402.86
546.11	1343.47
546.30	1386.47
546.50	1337.32
546.70	1466.35
546.90	1386.47
547.09	1224.69
547.29	1384.43
547.49	1335.28
547.68	1337.32
547.88	1345.52
548.08	1345.52
548.27	1624.04
548.47	1429.48
548.67	1308.65
548.87	1351.66
549.06	1392.62
549.26	1380.33
549.46	1308.65
549.65	1359.85
549.85	1343.47
550.05	1294.32
550.24	1331.18
550.44	1337.32
550.64	1400.81
550.83	1431.53
551.03	1492.97
551.23	1419.24
551.42	1472.49
551.62	1370.09
551.82	1378.28
552.01	1339.37
552.21	1415.15
552.41	1378.28
552.60	1441.77
552.80	1380.33
553.00	1337.32
553.19	1351.66
553.39	1452.01
553.59	1355.76
553.78	1394.67
553.98	1384.43
554.17	1351.66
554.37	1345.52
554.57	1482.73
554.76	1378.28
554.96	1320.94
555.16	1404.91
555.35	1417.19
555.55	1458.15
555.75	1394.67
555.94	1357.80
556.14	1292.27
556.33	1366.00
556.53	1429.48
556.73	1355.76
556.92	1400.81
557.12	1486.83
557.32	1355.76
557.51	1427.43
557.71	1468.39
557.90	1466.35
558.10	1409.00
558.30	1335.28
558.49	1378.28
558.69	1345.52
558.88	1378.28
559.08	1429.48
559.28	1368.04
559.47	1331.18
559.67	1378.28
559.86	1435.63
560.06	1359.85
560.26	1406.95
560.45	1394.67
560.65	1370.09
560.84	1468.39
561.04	1372.14
561.24	1445.87
561.43	1308.65
561.63	1429.48
561.82	1331.18
562.02	1370.09
562.22	1388.52
562.41	1306.60
562.61	1302.51
562.80	1284.08
563.00	1527.78
563.19	1312.75
563.39	1388.52
563.59	1419.24
563.78	1359.85
563.98	1316.84
564.17	1347.56
564.37	1286.12
564.56	1366.00
564.76	1325.04
564.96	1468.39
565.15	1421.29
565.35	1464.30
565.54	1380.33
565.74	1433.58
565.93	1413.10
566.13	1390.57
566.32	1443.82
566.52	1361.90
566.71	1298.41
566.91	1370.09
567.11	1421.29
567.30	1378.28
567.50	1456.11
567.69	1388.52
567.89	1351.66
568.08	1400.81
568.28	1398.76
568.47	1363.95
568.67	1357.80
568.86	1425.39
569.06	1441.77
569.25	1331.18
569.45	1331.18
569.64	1349.61
569.84	1421.29
570.04	1370.09
570.23	1359.85
570.43	1314.80
570.62	1435.63
570.82	1409.00
571.01	1333.23
571.21	1370.09
571.40	1363.95
571.60	1411.05
571.79	1320.94
571.99	1433.58
572.18	1425.39
572.38	1370.09
572.57	1402.86
572.77	1353.71
572.96	1464.30
573.16	1333.23
573.35	1382.38
573.55	1429.48
573.74	1435.63
573.94	1415.15
574.13	1380.33
574.33	1419.24
574.52	1429.48
574.71	1382.38
574.91	1363.95
575.10	1400.81
575.30	1349.61
575.49	1345.52
575.69	1400.81
575.88	1445.87
576.08	1472.49
576.27	1470.44
576.47	1443.82
576.66	1501.16
576.86	1488.87
577.05	1384.43
577.25	1499.11
577.44	1472.49
577.64	1353.71
577.83	1433.58
578.02	1361.90
578.22	1441.77
578.41	1435.63
578.61	1376.24
578.80	1296.36
579.00	1388.52
579.19	1404.91
579.39	1439.72
579.58	1525.74
579.77	1460.20
579.97	1421.29
580.16	1478.63
580.36	1437.67
580.55	1441.77
580.75	1394.67
580.94	1413.10
581.13	1437.67
581.33	1460.20
581.52	1447.91
581.72	1474.54
581.91	1449.96
582.11	1501.16
582.30	1505.26
582.49	1462.25
582.69	1505.26
582.88	1497.07
583.08	1388.52
583.27	1482.73
583.47	1376.24
583.66	1398.76
583.85	1396.71
584.05	1470.44
584.24	1495.02
584.44	1511.40
584.63	1501.16
584.82	1484.78
585.02	1574.89
585.21	1562.60
585.41	1607.66
585.60	1560.55
585.79	1703.91
585.99	1669.09
586.18	1705.96
586.37	1882.08
586.57	2645.98
586.76	7982.98
586.96	24604.30
587.15	41008.53
587.34	51877.10
587.54	59915.37
587.73	59606.13
587.93	44516.70
588.12	33078.79
588.31	26736.23
588.51	22718.12
588.70	20338.38
588.89	18366.18
589.09	17209.08
589.28	16058.12
589.47	14438.18
589.67	12623.68
589.86	10743.64
590.06	8646.52
590.25	6676.38
590.44	4896.69
590.64	3712.97
590.83	2846.68
591.02	2297.82
591.22	1982.43
591.41	1832.93
591.60	1630.18
591.80	1591.27
591.99	1466.35
592.18	1429.48
592.38	1464.30
592.57	1515.50
592.76	1402.86
592.96	1406.95
593.15	1452.01
593.34	1460.20
593.54	1429.48
593.73	1521.64
593.92	1468.39
594.12	1482.73
594.31	1472.49
594.50	1490.92
594.70	1445.87
594.89	1525.74
595.08	1419.24
595.28	1445.87
595.47	1439.72
595.66	1366.00
595.86	1333.23
596.05	1458.15
596.24	1386.47
596.43	1433.58
596.63	1460.20
596.82	1388.52
597.01	1425.39
597.21	1576.94
597.40	1501.16
597.59	1488.87
597.79	1388.52
597.98	1396.71
598.17	1386.47
598.36	1441.77
598.56	1454.06
598.75	1376.24
598.94	1374.19
599.14	1396.71
599.33	1482.73
599.52	1447.91
599.71	1406.95
599.91	1478.63
600.10	1419.24
600.29	1439.72
600.48	1425.39
600.68	1353.71
600.87	1390.57
601.06	1325.04
601.26	1378.28
601.45	1417.19
601.64	1400.81
601.83	1409.00
602.03	1304.56
602.22	1320.94
602.41	1429.48
602.60	1486.83
602.80	1419.24
602.99	1335.28
603.18	1339.37
603.37	1464.30
603.57	1402.86
603.76	1390.57
603.95	1452.01
604.14	1386.47
604.34	1368.04
604.53	1417.19
604.72	1337.32
604.91	1384.43
605.10	1355.76
605.30	1355.76
605.49	1480.68
605.68	1390.57
605.87	1396.71
606.07	1325.04
606.26	1368.04
606.45	1419.24
606.64	1396.71
606.84	1409.00
607.03	1396.71
607.22	1464.30
607.41	1322.99
607.60	1363.95
607.80	1413.10
607.99	1427.43
608.18	1388.52
608.37	1490.92
608.56	1359.85
608.76	1515.50
608.95	1525.74
609.14	1431.53
609.33	1488.87
609.52	1546.22
609.72	1527.78
609.91	1472.49
610.10	1429.48
610.29	1511.40
610.48	1429.48
610.68	1456.11
610.87	1368.04
611.06	1441.77
611.25	1441.77
611.44	1456.11
611.63	1370.09
611.83	1468.39
612.02	1308.65
612.21	1515.50
612.40	1351.66
612.59	1413.10
612.79	1353.71
612.98	1337.32
613.17	1464.30
613.36	1359.85
613.55	1396.71
613.74	1441.77
613.93	1529.83
614.13	1597.42
614.32	1540.07
614.51	1656.81
614.70	1449.96
614.89	1476.59
615.08	1472.49
615.28	1695.72
615.47	1421.29
615.66	1468.39
615.85	1529.83
616.04	1564.65
616.23	1521.64
616.42	1482.73
616.62	1525.74
616.81	1525.74
617.00	1390.57
617.19	1353.71
617.38	1361.90
617.57	1413.10
617.76	1417.19
617.95	1413.10
618.15	1429.48
618.34	1501.16
618.53	1400.81
618.72	1462.25
618.91	1394.67
619.10	1427.43
619.29	1454.06
619.48	1388.52
619.68	1427.43
619.87	1384.43
620.06	1345.52
620.25	1413.10
620.44	1351.66
620.63	1349.61
620.82	1386.47
621.01	1476.59
621.20	1384.43
621.39	1406.95
621.59	1449.96
621.78	1454.06
621.97	1437.67
622.16	1423.34
622.35	1398.76
622.54	1421.29
622.73	1386.47
622.92	1351.66
623.11	1456.11
623.30	1345.52
623.49	1417.19
623.68	1417.19
623.88	1347.56
624.07	1376.24
624.26	1320.94
624.45	1419.24
624.64	1304.56
624.83	1456.11
625.02	1368.04
625.21	1355.76
625.40	1468.39
625.59	1398.76
625.78	1361.90
625.97	1370.09
626.16	1429.48
626.35	1413.10
626.54	1435.63
626.74	1527.78
626.93	1472.49
627.12	1427.43
627.31	1490.92
627.50	1486.83
627.69	1462.25
627.88	1402.86
628.07	1349.61
628.26	1355.76
628.45	1417.19
628.64	1339.37
628.83	1447.91
629.02	1361.90
629.21	1488.87
629.40	1462.25
629.59	1300.46
629.78	1355.76
629.97	1355.76
630.16	1394.67
630.35	1449.96
630.54	1355.76
630.73	1423.34
630.92	1435.63
631.11	1380.33
631.30	1327.08
631.49	1388.52
631.68	1411.05
631.87	1339.37
632.06	1380.33
632.25	1452.01
632.44	1413.10
632.63	1380.33
632.82	1400.81
633.01	1462.25
633.20	1488.87
633.39	1490.92
633.58	1454.06
633.77	1499.11
633.96	1499.11
634.15	1464.30
634.34	1456.11
634.53	1454.06
634.72	1413.10
634.91	1322.99
635.10	1433.58
635.29	1394.67
635.48	1404.91
635.67	1325.04
635.86	1306.60
636.05	1400.81
636.24	1458.15
636.43	1370.09
636.62	1384.43
636.81	1308.65
637.00	1359.85
637.19	1421.29
637.38	1366.00
637.57	1366.00
637.76	1357.80
637.95	1484.78
638.14	1452.01
638.33	1595.37
638.52	1495.02
638.71	1452.01
638.89	1390.57
639.08	1517.54
639.27	1425.39
639.46	1415.15
639.65	1671.14
639.84	1855.46
640.03	2045.92
640.22	2017.25
640.41	2140.13
640.60	1906.66
640.79	1806.31
640.98	1732.58
641.17	1626.09
641.36	1646.57
641.55	1552.36
641.74	1421.29
641.92	1521.64
642.11	1458.15
642.30	1445.87
642.49	1460.20
642.68	1419.24
642.87	1466.35
643.06	1363.95
643.25	1392.62
643.44	1329.13
643.63	1400.81
643.82	1419.24
644.00	1384.43
644.19	1374.19
644.38	1345.52
644.57	1439.72
644.76	1337.32
644.95	1325.04
645.14	1425.39
645.33	1288.17
645.52	1464.30
645.71	1374.19
645.89	1331.18
646.08	1376.24
646.27	1388.52
646.46	1427.43
646.65	1378.28
646.84	1396.71
647.03	1329.13
647.22	1433.58
647.40	1277.93
647.59	1374.19
647.78	1257.45
647.97	1341.42
648.16	1349.61
648.35	1404.91
648.54	1398.76
648.73	1411.05
648.91	1429.48
649.10	1306.60
649.29	1396.71
649.48	1386.47
649.67	1419.24
649.86	1355.76
650.05	1415.15
650.23	1470.44
650.42	1527.78
650.61	1587.18
650.80	1513.45
650.99	1607.66
651.18	1495.02
651.36	1468.39
651.55	1439.72
651.74	1443.82
651.93	1394.67
652.12	1413.10
652.31	1398.76
652.49	1351.66
652.68	1441.77
652.87	1509.35
653.06	1519.59
653.25	1429.48
653.44	1382.38
653.62	1490.92
653.81	1347.56
654.00	1435.63
654.19	1415.15
654.38	1443.82
654.56	1413.10
654.75	1392.62
654.94	1406.95
655.13	1341.42
655.32	1421.29
655.51	1452.01
655.69	1366.00
655.88	1402.86
656.07	1345.52
656.26	1347.56
656.45	1376.24
656.63	1308.65
656.82	1388.52
657.01	1400.81
657.20	1460.20
657.38	1406.95
657.57	1368.04
657.76	1296.36
657.95	1359.85
658.14	1353.71
658.32	1423.34
658.51	1269.74
658.70	1435.63
658.89	1409.00
659.08	1347.56
659.26	1445.87
659.45	1366.00
659.64	1429.48
659.83	1400.81
660.01	1564.65
660.20	1466.35
660.39	1495.02
660.58	1396.71
660.76	1359.85
660.95	1363.95
661.14	1316.84
661.33	1347.56
661.51	1380.33
661.70	1339.37
661.89	1413.10
662.08	1409.00
662.26	1292.27
662.45	1322.99
662.64	1390.57
662.83	1427.43
663.01	1288.17
663.20	1368.04
663.39	1394.67
663.58	1339.37
663.76	1357.80
663.95	1380.33
664.14	1345.52
664.32	1404.91
664.51	1341.42
664.70	1341.42
664.89	1382.38
665.07	1343.47
665.26	1492.97
665.45	1374.19
665.64	1402.86
665.82	1404.91
666.01	1443.82
666.20	1357.80
666.38	1417.19
666.57	1433.58
666.76	1611.75
666.95	2076.64
667.13	4411.32
667.32	11609.93
667.51	18007.79
667.69	21851.83
667.88	24694.41
668.07	24305.29
668.25	19183.32
668.44	13487.92
668.63	11167.57
668.81	9023.35
669.00	8071.04
669.19	7528.33
669.38	6936.47
669.56	6221.73
669.75	5482.41
669.94	4853.69
670.12	4263.87
670.31	3370.96
670.50	2979.79
670.68	2504.67
670.87	2109.41
671.06	1820.64
671.24	1732.58
671.43	1634.28
671.62	1585.13
671.80	1576.94
671.99	1460.20
672.18	1556.46
672.36	1445.87
672.55	1474.54
672.74	1413.10
672.92	1390.57
673.11	1472.49
673.29	1388.52
673.48	1423.34
673.67	1390.57
673.85	1413.10
674.04	1380.33
674.23	1388.52
674.41	1468.39
674.60	1349.61
674.79	1351.66
674.97	1370.09
675.16	1372.14
675.34	1347.56
675.53	1411.05
675.72	1316.84
675.90	1421.29
676.09	1298.41
676.28	1312.75
676.46	1345.52
676.65	1366.00
676.83	1322.99
677.02	1419.24
677.21	1339.37
677.39	1339.37
677.58	1370.09
677.77	1363.95
677.95	1378.28
678.14	1351.66
678.32	1425.39
678.51	1423.34
678.70	1404.91
678.88	1396.71
679.07	1335.28
679.25	1382.38
679.44	1353.71
679.63	1286.12
679.81	1384.43
680.00	1349.61
680.18	1419.24
680.37	1368.04
680.55	1322.99
680.74	1392.62
680.93	1310.70
681.11	1386.47
681.30	1447.91
681.48	1378.28
681.67	1372.14
681.85	1392.62
682.04	1320.94
682.23	1341.42
682.41	1349.61
682.60	1386.47
682.78	1392.62
682.97	1271.79
683.15	1394.67
683.34	1400.81
683.53	1380.33
683.71	1310.70
683.90	1423.34
684.08	1472.49
684.27	1390.57
684.45	1390.57
684.64	1374.19
684.82	1427.43
685.01	1390.57
685.19	1343.47
685.38	1449.96
685.57	1394.67
685.75	1253.36
685.94	1351.66
686.12	1314.80
686.31	1435.63
686.49	1380.33
686.68	1333.23
686.86	1406.95
687.05	1318.89
687.23	1370.09
687.42	1390.57
687.60	1345.52
687.79	1390.57
687.97	1409.00
688.16	1388.52
688.34	1519.59
688.53	1331.18
688.71	1359.85
688.90	1355.76
689.08	1423.34
689.27	1378.28
689.45	1447.91
689.64	1392.62
689.82	1396.71
690.01	1318.89
690.19	1312.75
690.38	1386.47
690.56	1454.06
690.75	1335.28
690.93	1380.33
691.12	1251.31
691.30	1386.47
691.49	1345.52
691.67	1452.01
691.86	1421.29
692.04	1302.51
692.23	1335.28
692.41	1413.10
692.60	1527.78
692.78	1439.72
692.97	1482.73
693.15	1394.67
693.34	1505.26
693.52	1509.35
693.71	1370.09
693.89	1456.11
694.08	1363.95
694.26	1429.48
694.44	1374.19
694.63	1402.86
694.81	1378.28
695.00	1359.85
695.18	1433.58
695.37	1482.73
695.55	1374.19
695.74	1347.56
695.92	1355.76
696.10	1404.91
696.29	1316.84
696.47	1343.47
696.66	1351.66
696.84	1306.60
697.03	1349.61
697.21	1484.78
697.40	1751.01
697.58	1374.19
697.76	1404.91
697.95	1339.37
698.13	1378.28
698.32	1382.38
698.50	1411.05
698.68	1421.29
698.87	1361.90
699.05	1384.43
699.24	1333.23
699.42	1331.18
699.61	1368.04
699.79	1314.80
699.97	1349.61
700.16	1277.93
700.34	1259.50
700.53	1337.32
700.71	1452.01
700.89	1370.09
701.08	1361.90
701.26	1316.84
701.45	1673.19
701.63	1320.94
701.81	1411.05
702.00	1380.33
702.18	1372.14
702.37	1343.47
702.55	1462.25
702.73	1458.15
702.92	1486.83
703.10	1617.90
703.28	1794.02
703.47	1538.02
703.65	1626.09
703.84	1621.99
704.02	1492.97
704.20	1497.07
704.39	1472.49
704.57	1540.07
704.75	1531.88
704.94	1413.10
705.12	1427.43
705.30	1452.01
705.49	1640.42
705.67	1751.01
705.86	3471.31
706.04	9183.09
706.22	16353.03
706.41	19648.21
706.59	22742.69
706.77	23539.35
706.96	19859.15
707.14	13942.57
707.32	11288.40
707.51	9301.87
707.69	8200.07
707.87	7399.31
708.06	6823.83
708.24	6012.84
708.42	5167.03
708.61	3936.20
708.79	3026.90
708.97	2400.22
709.16	2015.20
709.34	1642.47
709.52	1626.09
709.71	1609.70
709.89	1521.64
710.07	1417.19
710.26	1357.80
710.44	1349.61
710.62	1476.59
710.80	1370.09
710.99	1452.01
711.17	1337.32
711.35	1404.91
711.54	1441.77
711.72	1374.19
711.90	1413.10
712.09	1400.81
712.27	1368.04
712.45	1402.86
712.63	1363.95
712.82	1335.28
713.00	1380.33
713.18	1370.09
713.37	1431.53
713.55	1392.62
713.73	1427.43
713.91	1413.10
714.10	1447.91
714.28	1384.43
714.46	1370.09
714.65	1390.57
714.83	1392.62
715.01	1296.36
715.19	1331.18
715.38	1335.28
715.56	1374.19
715.74	1423.34
715.92	1384.43
716.11	1374.19
716.29	1380.33
716.47	1333.23
716.65	1396.71
716.84	1390.57
717.02	1447.91
717.20	1357.80
717.38	1390.57
717.57	1355.76
717.75	1339.37
717.93	1392.62
718.11	1406.95
718.30	1320.94
718.48	1343.47
718.66	1366.00
718.84	1431.53
719.03	1366.00
719.21	1325.04
719.39	1368.04
719.57	1380.33
719.75	1400.81
719.94	1363.95
720.12	1335.28
720.30	1390.57
720.48	1431.53
720.67	1339.37
720.85	1339.37
721.03	1322.99
721.21	1333.23
721.39	1460.20
721.58	1368.04
721.76	1386.47
721.94	1392.62
722.12	1351.66
722.30	1419.24
722.49	1353.71
722.67	1406.95
722.85	1318.89
723.03	1368.04
723.21	1386.47
723.40	1439.72
723.58	1413.10
723.76	1361.90
723.94	1454.06
724.12	1482.73
724.30	1538.02
724.49	1554.41
724.67	1478.63
724.85	1560.55
725.03	1372.14
725.21	1460.20
725.40	1452.01
725.58	1400.81
725.76	1513.45
725.94	1380.33
726.12	1343.47
726.30	1423.34
726.49	1363.95
726.67	1359.85
726.85	1423.34
727.03	1441.77
727.21	1437.67
727.39	1511.40
727.57	2076.64
727.76	3387.34
727.94	4337.60
728.12	4753.34
728.30	5285.81
728.48	5081.01
728.66	4294.59
728.84	3555.27
729.03	3133.39
729.21	2754.52
729.39	2473.95
729.57	2295.77
729.75	2015.20
729.93	1794.02
730.11	1583.08
730.30	1505.26
730.48	1388.52
730.66	1495.02
730.84	1445.87
731.02	1339.37
731.20	1406.95
731.38	1419.24
731.56	1353.71
731.74	1239.02
731.93	1392.62
732.11	1409.00
732.29	1392.62
732.47	1445.87
732.65	1320.94
732.83	1427.43
733.01	1433.58
733.19	1372.14
733.37	1366.00
733.56	1265.64
733.74	1314.80
733.92	1390.57
734.10	1419.24
734.28	1429.48
734.46	1355.76
734.64	1341.42
734.82	1372.14
735.00	1374.19
735.18	1435.63
735.36	1345.52
735.54	1318.89
735.73	1363.95
735.91	1363.95
736.09	1460.20
736.27	1312.75
736.45	1400.81
736.63	1292.27
736.81	1335.28
736.99	1449.96
737.17	1392.62
737.35	1355.76
737.53	1333.23
737.71	1406.95
737.89	1468.39
738.07	1349.61
738.25	1331.18
738.43	1396.71
738.61	1343.47
738.80	1351.66
738.98	1361.90
739.16	1310.70
739.34	1409.00
739.52	1423.34
739.70	1409.00
739.88	1380.33
740.06	1396.71
740.24	1261.55
740.42	1378.28
740.60	1368.04
740.78	1366.00
740.96	1302.51
741.14	1378.28
741.32	1343.47
741.50	1372.14
741.68	1484.78
741.86	1370.09
742.04	1320.94
742.22	1302.51
742.40	1370.09
742.58	1351.66
742.76	1341.42
742.94	1415.15
743.12	1316.84
743.30	1386.47
743.48	1437.67
743.66	1339.37
743.84	1384.43
744.02	1431.53
744.20	1411.05
744.38	1282.03
744.56	1359.85
744.74	1394.67
744.92	1411.05
745.10	1409.00
745.28	1372.14
745.46	1482.73
745.64	1349.61
745.82	1454.06
746.00	1413.10
746.18	1314.80
746.36	1378.28
746.54	1312.75
746.72	1357.80
746.90	1318.89
747.08	1419.24
747.26	1331.18
747.44	1347.56
747.62	1368.04
747.80	1366.00
747.98	1445.87
748.15	1374.19
748.33	1431.53
748.51	1409.00
748.69	1363.95
748.87	1320.94
749.05	1382.38
749.23	1396.71
749.41	1472.49
749.59	1366.00
749.77	1474.54
749.95	1322.99
750.13	1400.81
750.31	1327.08
750.49	1329.13
750.67	1433.58
750.85	1503.21
751.03	1382.38
751.20	1462.25
751.38	1310.70
751.56	1322.99
751.74	1345.52
751.92	1380.33
752.10	1298.41
752.28	1421.29
752.46	1384.43
752.64	1382.38
752.82	1435.63
753.00	1380.33
753.18	1347.56
753.35	1404.91
753.53	1380.33
753.71	1404.91
753.89	1404.91
754.07	1384.43
754.25	1409.00
754.43	1355.76
754.61	1337.32
754.79	1349.61
754.97	1396.71
755.14	1435.63
755.32	1337.32
755.50	1329.13
755.68	1413.10
755.86	1384.43
756.04	1380.33
756.22	1247.21
756.40	1359.85
756.57	1390.57
756.75	1359.85
756.93	1425.39
757.11	1417.19
757.29	1298.41
757.47	1318.89
757.65	1322.99
757.82	1273.84
758.00	1400.81
758.18	1372.14
758.36	1413.10
758.54	1425.39
758.72	1353.71
758.90	1400.81
759.07	1335.28
759.25	1361.90
759.43	1425.39
759.61	1380.33
759.79	1617.90
759.97	1411.05
760.15	1310.70
760.32	1327.08
760.50	1366.00
760.68	1439.72
760.86	1312.75
761.04	1366.00
761.22	1396.71
761.39	1314.80
761.57	1347.56
761.75	1318.89
761.93	1413.10
762.11	1312.75
762.28	1302.51
762.46	1257.45
762.64	1419.24
762.82	1353.71
763.00	1284.08
763.18	1396.71
763.35	1337.32
763.53	1380.33
763.71	1351.66
763.89	1378.28
764.07	1437.67
764.24	1302.51
764.42	1417.19
764.60	1378.28
764.78	1236.97
764.96	1458.15
765.13	1478.63
765.31	1349.61
765.49	1392.62
765.67	1318.89
765.84	1298.41
766.02	1378.28
766.20	1337.32
766.38	1314.80
766.56	1345.52
766.73	1382.38
766.91	1384.43
767.09	1409.00
767.27	1388.52
767.44	1366.00
767.62	1378.28
767.80	1378.28
767.98	1347.56
768.15	1398.76
768.33	1427.43
768.51	1425.39
768.69	1398.76
768.87	1476.59
769.04	1374.19
769.22	1433.58
769.40	1419.24
769.58	1472.49
769.75	1288.17
769.93	1386.47
770.11	1386.47
770.28	1273.84
770.46	1402.86
770.64	1353.71
770.82	1351.66
770.99	1298.41
771.17	1445.87
771.35	1298.41
771.53	1320.94
771.70	1366.00
771.88	1384.43
772.06	1327.08
772.23	1388.52
772.41	1392.62
772.59	1404.91
772.77	1239.02
772.94	1374.19
773.12	1388.52
773.30	1290.22
773.47	1419.24
773.65	1343.47
773.83	1419.24
774.01	1406.95
774.18	1288.17
774.36	1378.28
774.54	1349.61
774.71	1366.00
774.89	1357.80
775.07	1335.28
775.24	1288.17
775.42	1427.43
775.60	1425.39
775.78	1361.90
775.95	1282.03
776.13	1372.14
776.31	1292.27
776.48	1361.90
776.66	1402.86
776.84	1372.14
777.01	1327.08
777.19	1345.52
777.37	1382.38
777.54	1441.77
777.72	1394.67
777.90	1298.41
778.07	1318.89
778.25	1495.02
778.43	1359.85
778.60	1357.80
778.78	1406.95
778.96	1368.04
779.13	1363.95
779.31	1411.05
779.49	1380.33
779.66	1366.00
779.84	1437.67
780.01	1355.76
780.19	1312.75
780.37	1404.91
780.54	1380.33
780.72	1343.47
780.90	1400.81
781.07	1302.51
781.25	1370.09
781.43	1335.28
781.60	1366.00
781.78	1445.87
781.95	1388.52
782.13	1366.00
782.31	1482.73
782.48	1269.74
782.66	1357.80
782.83	1497.07
783.01	1419.24
783.19	1421.29
783.36	1333.23
783.54	1331.18
783.72	1351.66
783.89	1306.60
784.07	1394.67
784.24	1343.47
784.42	1396.71
784.60	1396.71
784.77	1351.66
784.95	1253.36
785.12	1320.94
785.30	1366.00
785.47	1402.86
785.65	1335.28
785.83	1398.76
786.00	1312.75
786.18	1345.52
786.35	1288.17
786.53	1275.88
786.71	1464.30
786.88	1435.63
787.06	1370.09
787.23	1316.84
787.41	1409.00
787.58	1322.99
787.76	1353.71
787.94	1433.58
788.11	1398.76
788.29	1409.00
788.46	1288.17
788.64	1318.89
788.81	1419.24
788.99	1343.47
789.16	1351.66
789.34	1366.00
789.52	1292.27
789.69	1374.19
789.87	1347.56
790.04	1329.13
790.22	1331.18
790.39	1443.82
790.57	1329.13
790.74	1339.37
790.92	1341.42
791.09	1343.47
791.27	1312.75
791.44	1396.71
791.62	1343.47
791.79	1421.29
791.97	1327.08
792.15	1396.71
792.32	1345.52
792.50	1331.18
792.67	1427.43
792.85	1452.01
793.02	1366.00
793.20	1382.38
793.37	1296.36
793.55	1394.67
793.72	1337.32
793.90	1392.62
794.07	1329.13
794.25	1304.56
794.42	1402.86
794.60	1376.24
794.77	1320.94
794.95	1361.90
795.12	1406.95
795.30	1398.76
795.47	1273.84
795.65	1542.12
795.82	1343.47
796.00	1384.43
796.17	1322.99
796.34	1368.04
796.52	1359.85
796.69	1409.00
796.87	1363.95
797.04	1376.24
797.22	1361.90
797.39	1421.29
797.57	1290.22
797.74	1361.90
797.92	1386.47
798.09	1351.66
798.27	1474.54
798.44	1372.14
798.62	1419.24
798.79	1394.67
798.96	1406.95
799.14	1406.95
799.31	1419.24
799.49	1376.24
799.66	1370.09
799.84	1370.09
800.01	1316.84
800.19	1396.71
800.36	1304.56
800.53	1310.70
800.71	1382.38
800.88	1495.02
801.06	1382.38
801.23	1400.81
801.41	1357.80
801.58	1386.47
801.75	1337.32
801.93	1454.06
802.10	1339.37
802.28	1318.89
802.45	1302.51
802.63	1409.00
802.80	1417.19
802.97	1366.00
803.15	1398.76
803.32	1341.42
803.50	1294.32
803.67	1351.66
803.84	1335.28
804.02	1341.42
804.19	1343.47
804.37	1282.03
804.54	1386.47
804.71	1361.90
804.89	1378.28
805.06	1363.95
805.24	1396.71
805.41	1368.04
805.58	1298.41
805.76	1484.78
805.93	1335.28
806.10	1439.72
806.28	1380.33
806.45	1392.62
806.63	1472.49
806.80	1452.01
806.97	1290.22
807.15	1406.95
807.32	1415.15
807.49	1380.33
807.67	1241.07
807.84	1388.52
808.01	1318.89
808.19	1486.83
808.36	1480.68
808.54	1267.69
808.71	1366.00
808.88	1331.18
809.06	1390.57
809.23	1390.57
809.40	1327.08
809.58	1386.47
809.75	1368.04
809.92	1306.60
810.10	1505.26
810.27	1421.29
810.44	1392.62
810.62	1402.86
810.79	1421.29
810.96	1349.61
811.14	1388.52
811.31	1329.13
811.48	1363.95
811.66	1411.05
811.83	1443.82
812.00	1406.95
812.18	1396.71
812.35	1388.52
812.52	1388.52
812.69	1359.85
812.87	1359.85
813.04	1304.56
813.21	1341.42
813.39	1372.14
813.56	1382.38
813.73	1357.80
813.91	1286.12
814.08	1359.85
814.25	1388.52
814.42	1255.40
814.60	1337.32
814.77	1468.39
814.94	1335.28
815.12	1322.99
815.29	1396.71
815.46	1277.93
815.63	1316.84
815.81	1382.38
815.98	1290.22
816.15	1368.04
816.33	1347.56
816.50	1337.32
816.67	1353.71
816.84	1335.28
817.02	1308.65
817.19	1449.96
817.36	1404.91
817.53	1366.00
817.71	1368.04
817.88	1339.37
818.05	1339.37
818.22	1335.28
818.40	1413.10
818.57	1357.80
818.74	1382.38
818.91	1374.19
819.09	1341.42
819.26	1394.67
819.43	1335.28
819.60	1427.43
819.78	1392.62
819.95	1363.95
820.12	1312.75
820.29	1372.14
820.47	1335.28
820.64	1359.85
820.81	1345.52
820.98	1406.95
821.15	1376.24
821.33	1363.95
821.50	1300.46
821.67	1462.25
821.84	1409.00
822.02	1359.85
822.19	1368.04
822.36	1353.71
822.53	1355.76
822.70	1331.18
822.88	1298.41
823.05	1384.43
823.22	1394.67
823.39	1443.82
823.56	1318.89
823.74	1470.44
823.91	1306.60
824.08	1378.28
824.25	1368.04
824.42	1413.10
824.60	1366.00
824.77	1345.52
824.94	1359.85
825.11	1413.10
825.28	1392.62
825.45	1339.37
825.63	1300.46
825.80	1343.47
825.97	1390.57
826.14	1382.38
826.31	1359.85
826.48	1355.76
826.66	1347.56
826.83	1292.27
827.00	1337.32
827.17	1275.88
827.34	1361.90
827.51	1308.65
827.69	1427.43
827.86	1380.33
828.03	1353.71
828.20	1361.90
828.37	1302.51
828.54	1316.84
828.71	1320.94
828.89	1441.77
829.06	1370.09
829.23	1458.15
829.40	1411.05
829.57	1390.57
829.74	1376.24
829.91	1333.23
830.09	1370.09
830.26	1366.00
830.43	1429.48
830.60	1398.76
830.77	1411.05
830.94	1452.01
831.11	1439.72
831.28	1378.28
831.46	1460.20
831.63	1327.08
831.80	1316.84
831.97	1322.99
832.14	1310.70
832.31	1409.00
832.48	1443.82
832.65	1429.48
832.82	1357.80
832.99	1355.76
833.17	1386.47
833.34	1427.43
833.51	1429.48
833.68	1308.65
833.85	1394.67
834.02	1292.27
834.19	1306.60
834.36	1284.08
834.53	1339.37
834.70	1339.37
834.87	1400.81
835.04	1388.52
835.22	1372.14
835.39	1355.76
835.56	1433.58
835.73	1357.80
835.90	1382.38
836.07	1359.85
836.24	1398.76
836.41	1308.65
836.58	1376.24
836.75	1421.29
836.92	1409.00
837.09	1347.56
837.26	1378.28
837.43	1404.91
837.60	1351.66
837.77	1361.90
837.94	1339.37
838.12	1437.67
838.29	1456.11
838.46	1265.64
838.63	1349.61
838.80	1460.20
838.97	1398.76
839.14	1355.76
839.31	1359.85
839.48	1404.91
839.65	1380.33
839.82	1355.76
839.99	1372.14
840.16	1273.84
840.33	1361.90
840.50	1366.00
840.67	1339.37
840.84	1277.93
841.01	1409.00
841.18	1353.71
841.35	1308.65
841.52	1429.48
841.69	1439.72
841.86	1331.18
842.03	1396.71
842.20	1380.33
842.37	1345.52
842.54	1294.32
842.71	1359.85
842.88	1298.41
843.05	1404.91
843.22	1331.18
843.39	1458.15
843.56	1277.93
843.73	1378.28
843.90	1341.42
844.07	1355.76
844.24	1366.00
844.41	1351.66
844.58	1355.76
844.75	1376.24
844.92	1312.75
845.09	1337.32
845.26	1355.76
845.43	1357.80
845.60	1415.15
845.77	1347.56
845.94	1288.17
846.10	1351.66
846.27	1398.76
846.44	1370.09
846.61	1306.60
846.78	1351.66
846.95	1413.10
847.12	1296.36
847.29	1337.32
847.46	1341.42
847.63	1394.67
847.80	1312.75
847.97	1406.95
848.14	1425.39
848.31	1343.47
848.48	1306.60
848.65	1392.62
848.82	1386.47
848.98	1445.87
849.15	1388.52
849.32	1454.06
849.49	1456.11
849.66	1308.65
849.83	1406.95
850.00	1327.08
850.17	1449.96
850.34	1392.62
850.51	1390.57
850.68	1347.56
850.85	1376.24
851.01	1353.71
851.18	1390.57
851.35	1304.56
851.52	1390.57
851.69	1417.19
851.86	1310.70
852.03	1449.96
852.20	1439.72
852.37	1325.04
852.53	1259.50
852.70	1335.28
852.87	1318.89
853.04	1370.09
853.21	1335.28
853.38	1388.52
853.55	1394.67
853.72	1421.29
853.89	1413.10
854.05	1437.67
854.22	1333.23
854.39	1425.39
854.56	1396.71
854.73	1351.66
854.90	1325.04
855.07	1347.56
855.23	1339.37
855.40	1406.95
855.57	1333.23
855.74	1253.36
855.91	1470.44
856.08	1329.13
856.25	1325.04
856.41	1355.76
856.58	1318.89
856.75	1363.95
856.92	1310.70
857.09	1404.91
857.26	1417.19
857.42	1368.04
857.59	1347.56
857.76	1361.90
857.93	1343.47
858.10	1296.36
858.27	1312.75
858.43	1331.18
858.60	1429.48
858.77	1429.48
858.94	1376.24
859.11	1376.24
859.27	1316.84
859.44	1306.60
859.61	1421.29
859.78	1433.58
859.95	1398.76
860.12	1327.08
860.28	1476.59
860.45	1456.11
860.62	1343.47
860.79	1390.57
860.95	1277.93
861.12	1345.52
861.29	1390.57
861.46	1308.65
861.63	1339.37
861.79	1308.65
861.96	1386.47
862.13	1353.71
862.30	1322.99
862.47	1329.13
862.63	1363.95
862.80	1449.96
862.97	1394.67
863.14	1392.62
863.30	1374.19
863.47	1343.47
863.64	1474.54
863.81	1351.66
863.97	1357.80
864.14	1331.18
864.31	1394.67
864.48	1333.23
864.65	1320.94
864.81	1384.43
864.98	1413.10
865.15	1470.44
865.32	1374.19
865.48	1406.95
865.65	1335.28
865.82	1413.10
865.98	1392.62
866.15	1464.30
866.32	1351.66
866.49	1343.47
866.65	1429.48
866.82	1370.09
866.99	1325.04
867.16	1435.63
867.32	1339.37
867.49	1396.71
867.66	1355.76
867.83	1318.89
867.99	1318.89
868.16	1425.39
868.33	1290.22
868.49	1316.84
868.66	1460.20
868.83	1400.81
868.99	1339.37
869.16	1216.49
869.33	1374.19
869.50	1441.77
869.66	1363.95
869.83	1382.38
870.00	1322.99
870.16	1492.97
870.33	1333.23
870.50	1406.95
870.66	1318.89
870.83	1445.87
871.00	1394.67
871.17	1388.52
871.33	1366.00
871.50	1402.86
871.67	1310.70
871.83	1288.17
872.00	1439.72
872.17	1396.71
872.33	1409.00
872.50	1351.66
872.67	1316.84
872.83	1400.81
873.00	1417.19
873.17	1386.47
873.33	1421.29
873.50	1333.23
873.67	1361.90
873.83	1267.69
874.00	1308.65
874.16	1331.18
874.33	1363.95
874.50	1300.46
874.66	1406.95
874.83	1376.24
875.00	1400.81
875.16	1402.86
875.33	1445.87
875.50	1322.99
875.66	1404.91
875.83	1425.39
875.99	1376.24
876.16	1329.13
876.33	1411.05
876.49	1363.95
876.66	1374.19
876.83	1396.71
876.99	1292.27
877.16	1378.28
877.32	1359.85
877.49	1320.94
877.66	1337.32
877.82	1427.43
877.99	1427.43
878.15	1499.11
878.32	1294.32
878.49	1351.66
878.65	1320.94
878.82	1402.86
878.98	1402.86
879.15	1353.71
879.32	1335.28
879.48	1310.70
879.65	1374.19
879.81	1275.88
879.98	1314.80
880.15	1374.19
880.31	1392.62
880.48	1361.90
880.64	1409.00
880.81	1345.52
880.97	1421.29
881.14	1449.96
881.31	1329.13
881.47	1445.87
881.64	1413.10
881.80	1318.89
881.97	1404.91
882.13	1388.52
882.30	1378.28
882.47	1273.84
882.63	1298.41
882.80	1366.00
882.96	1363.95
883.13	1372.14
883.29	1394.67
883.46	1406.95
883.62	1374.19
883.79	1357.80
883.95	1396.71
884.12	1361.90
884.29	1433.58
884.45	1396.71
884.62	1392.62
884.78	1411.05
884.95	1415.15
885.11	1312.75
885.28	1366.00
885.44	1361.90
885.61	1406.95
885.77	1439.72
885.94	1357.80
886.10	1429.48
886.27	1384.43
886.43	1392.62
886.60	1376.24
886.76	1347.56
886.93	1343.47
887.09	1427.43
887.26	1347.56
887.42	1327.08
887.59	1327.08
887.75	1400.81
887.92	1419.24
888.08	1394.67
888.25	1439.72
888.41	1392.62
888.58	1355.76
888.74	1306.60
888.91	1380.33
>>>>>End Processed Spectral Data<<<<<
