SpectraSuite Data File
++++++++++++++++++++++++++++++++++++
Date: Tue May 03 11:24:51 CEST 2016
User: root
Dark Spectrum Present: No
Reference Spectrum Present: No
Number of Sampled Component Spectra: 1
Spectrometers: USB4C02835
Integration Time (usec): 100000 (USB4C02835)
Spectra Averaged: 1 (USB4C02835)
Boxcar Smoothing: 0 (USB4C02835)
Correct for Electrical Dark: No (USB4C02835)
Strobe/Lamp Enabled: No (USB4C02835)
Correct for Detector Non-linearity: No (USB4C02835)
Correct for Stray Light: No (USB4C02835)
Number of Pixels in Processed Spectrum: 3648
>>>>>Begin Processed Spectral Data<<<<<
177.47	1212.40
177.69	1212.40
177.91	1212.40
178.13	1210.35
178.36	1249.26
178.58	1388.52
178.80	1314.80
179.02	1273.84
179.24	1384.43
179.46	1441.77
179.68	1372.14
179.90	1384.43
180.13	1419.24
180.35	1359.85
180.57	1351.66
180.79	1263.60
181.01	1347.56
181.23	1361.90
181.45	1372.14
181.67	1359.85
181.90	1390.57
182.12	1343.47
182.34	1331.18
182.56	1374.19
182.78	1355.76
183.00	1382.38
183.22	1437.67
183.44	1320.94
183.66	1449.96
183.89	1464.30
184.11	1355.76
184.33	1380.33
184.55	1468.39
184.77	1384.43
184.99	1380.33
185.21	1368.04
185.43	1425.39
185.65	1361.90
185.87	1380.33
186.10	1435.63
186.32	1464.30
186.54	1392.62
186.76	1417.19
186.98	1382.38
187.20	1337.32
187.42	1351.66
187.64	1349.61
187.86	1464.30
188.08	1478.63
188.30	1349.61
188.52	1359.85
188.75	1458.15
188.97	1417.19
189.19	1300.46
189.41	1427.43
189.63	1347.56
189.85	1304.56
190.07	1318.89
190.29	1300.46
190.51	1320.94
190.73	1318.89
190.95	1413.10
191.17	1392.62
191.39	1296.36
191.61	1368.04
191.84	1445.87
192.06	1331.18
192.28	1372.14
192.50	1439.72
192.72	1351.66
192.94	1423.34
193.16	1409.00
193.38	1314.80
193.60	1413.10
193.82	1316.84
194.04	1384.43
194.26	1386.47
194.48	1423.34
194.70	1359.85
194.92	1343.47
195.14	1331.18
195.36	1370.09
195.58	1347.56
195.80	1402.86
196.02	1380.33
196.24	1337.32
196.46	1411.05
196.69	1370.09
196.91	1556.46
197.13	1337.32
197.35	1390.57
197.57	1378.28
197.79	1415.15
198.01	1409.00
198.23	1404.91
198.45	1380.33
198.67	1271.79
198.89	1337.32
199.11	1363.95
199.33	1337.32
199.55	1265.64
199.77	1345.52
199.99	1402.86
200.21	1423.34
200.43	1443.82
200.65	1279.98
200.87	1351.66
201.09	1345.52
201.31	1404.91
201.53	1370.09
201.75	1363.95
201.97	1347.56
202.19	1411.05
202.41	1355.76
202.63	1435.63
202.85	1382.38
203.07	1400.81
203.29	1382.38
203.51	1366.00
203.73	1394.67
203.95	1484.78
204.17	1361.90
204.39	1359.85
204.61	1386.47
204.83	1271.79
205.05	1378.28
205.27	1462.25
205.49	1486.83
205.71	1314.80
205.93	1337.32
206.15	1359.85
206.37	1468.39
206.59	1327.08
206.81	1318.89
207.03	1329.13
207.25	1271.79
207.47	1447.91
207.69	1382.38
207.91	1392.62
208.13	1322.99
208.34	1341.42
208.56	1322.99
208.78	1366.00
209.00	1329.13
209.22	1368.04
209.44	1382.38
209.66	1384.43
209.88	1380.33
210.10	1234.93
210.32	1386.47
210.54	1384.43
210.76	1355.76
210.98	1452.01
211.20	1339.37
211.42	1318.89
211.64	1443.82
211.86	1361.90
212.08	1427.43
212.30	1419.24
212.52	1380.33
212.74	1372.14
212.96	1384.43
213.17	1386.47
213.39	1404.91
213.61	1357.80
213.83	1400.81
214.05	1304.56
214.27	1368.04
214.49	1304.56
214.71	1382.38
214.93	1396.71
215.15	1400.81
215.37	1322.99
215.59	1286.12
215.81	1396.71
216.03	1339.37
216.24	1363.95
216.46	1322.99
216.68	1400.81
216.90	1445.87
217.12	1366.00
217.34	1378.28
217.56	1366.00
217.78	1447.91
218.00	1363.95
218.22	1396.71
218.44	1394.67
218.66	1337.32
218.87	1347.56
219.09	1384.43
219.31	1374.19
219.53	1343.47
219.75	1363.95
219.97	1331.18
220.19	1370.09
220.41	1310.70
220.63	1437.67
220.85	1400.81
221.06	1320.94
221.28	1343.47
221.50	1359.85
221.72	1423.34
221.94	1349.61
222.16	1372.14
222.38	1292.27
222.60	1449.96
222.82	1372.14
223.03	1380.33
223.25	1421.29
223.47	1423.34
223.69	1470.44
223.91	1361.90
224.13	1396.71
224.35	1406.95
224.57	1386.47
224.78	1503.21
225.00	1298.41
225.22	1409.00
225.44	1331.18
225.66	1423.34
225.88	1318.89
226.10	1421.29
226.32	1341.42
226.53	1396.71
226.75	1417.19
226.97	1366.00
227.19	1327.08
227.41	1275.88
227.63	1353.71
227.85	1353.71
228.06	1392.62
228.28	1333.23
228.50	1413.10
228.72	1273.84
228.94	1347.56
229.16	1255.40
229.37	1368.04
229.59	1386.47
229.81	1499.11
230.03	1376.24
230.25	1363.95
230.47	1400.81
230.69	1374.19
230.90	1441.77
231.12	1404.91
231.34	1478.63
231.56	1378.28
231.78	1314.80
232.00	1335.28
232.21	1341.42
232.43	1286.12
232.65	1286.12
232.87	1402.86
233.09	1298.41
233.30	1314.80
233.52	1392.62
233.74	1427.43
233.96	1378.28
234.18	1359.85
234.40	1400.81
234.61	1421.29
234.83	1300.46
235.05	1241.07
235.27	1437.67
235.49	1458.15
235.70	1370.09
235.92	1476.59
236.14	1406.95
236.36	1427.43
236.58	1386.47
236.79	1394.67
237.01	1386.47
237.23	1322.99
237.45	1478.63
237.67	1398.76
237.88	1320.94
238.10	1421.29
238.32	1243.12
238.54	1304.56
238.76	1427.43
238.97	1322.99
239.19	1366.00
239.41	1394.67
239.63	1400.81
239.85	1386.47
240.06	1396.71
240.28	1429.48
240.50	1361.90
240.72	1394.67
240.93	1329.13
241.15	1386.47
241.37	1302.51
241.59	1335.28
241.81	1341.42
242.02	1325.04
242.24	1411.05
242.46	1411.05
242.68	1279.98
242.89	1417.19
243.11	1372.14
243.33	1443.82
243.55	1398.76
243.76	1406.95
243.98	1355.76
244.20	1351.66
244.42	1376.24
244.64	1372.14
244.85	1302.51
245.07	1353.71
245.29	1370.09
245.51	1341.42
245.72	1390.57
245.94	1439.72
246.16	1351.66
246.38	1460.20
246.59	1290.22
246.81	1337.32
247.03	1398.76
247.24	1282.03
247.46	1366.00
247.68	1370.09
247.90	1376.24
248.11	1335.28
248.33	1435.63
248.55	1359.85
248.77	1398.76
248.98	1390.57
249.20	1449.96
249.42	1386.47
249.64	1388.52
249.85	1320.94
250.07	1363.95
250.29	1458.15
250.50	1400.81
250.72	1329.13
250.94	1310.70
251.16	1515.50
251.37	1421.29
251.59	1376.24
251.81	1312.75
252.02	1390.57
252.24	1314.80
252.46	1363.95
252.68	1316.84
252.89	1370.09
253.11	1292.27
253.33	1490.92
253.54	1388.52
253.76	1314.80
253.98	1316.84
254.20	1357.80
254.41	1290.22
254.63	1366.00
254.85	1349.61
255.06	1376.24
255.28	1376.24
255.50	1337.32
255.71	1409.00
255.93	1363.95
256.15	1400.81
256.36	1376.24
256.58	1404.91
256.80	1447.91
257.02	1374.19
257.23	1431.53
257.45	1296.36
257.67	1355.76
257.88	1316.84
258.10	1398.76
258.32	1333.23
258.53	1386.47
258.75	1368.04
258.97	1284.08
259.18	1292.27
259.40	1419.24
259.62	1376.24
259.83	1357.80
260.05	1421.29
260.27	1593.32
260.48	1380.33
260.70	1337.32
260.92	1390.57
261.13	1384.43
261.35	1366.00
261.57	1374.19
261.78	1310.70
262.00	1413.10
262.22	1409.00
262.43	1380.33
262.65	1343.47
262.86	1363.95
263.08	1380.33
263.30	1359.85
263.51	1349.61
263.73	1361.90
263.95	1441.77
264.16	1386.47
264.38	1419.24
264.60	1423.34
264.81	1368.04
265.03	1388.52
265.25	1333.23
265.46	1345.52
265.68	1409.00
265.89	1431.53
266.11	1388.52
266.33	1404.91
266.54	1329.13
266.76	1400.81
266.98	1435.63
267.19	1296.36
267.41	1474.54
267.62	1355.76
267.84	1290.22
268.06	1452.01
268.27	1390.57
268.49	1468.39
268.70	1335.28
268.92	1361.90
269.14	1320.94
269.35	1327.08
269.57	1363.95
269.79	1372.14
270.00	1322.99
270.22	1402.86
270.43	1372.14
270.65	1271.79
270.87	1413.10
271.08	1386.47
271.30	1368.04
271.51	1333.23
271.73	1370.09
271.95	1476.59
272.16	1417.19
272.38	1404.91
272.59	1398.76
272.81	1419.24
273.02	1402.86
273.24	1404.91
273.46	1431.53
273.67	1363.95
273.89	1380.33
274.10	1347.56
274.32	1445.87
274.54	1456.11
274.75	1349.61
274.97	1366.00
275.18	1437.67
275.40	1423.34
275.61	1388.52
275.83	1384.43
276.05	1314.80
276.26	1304.56
276.48	1380.33
276.69	1343.47
276.91	1363.95
277.12	1374.19
277.34	1337.32
277.55	1404.91
277.77	1380.33
277.99	1376.24
278.20	1366.00
278.42	1359.85
278.63	1300.46
278.85	1331.18
279.06	1273.84
279.28	1419.24
279.49	1372.14
279.71	1482.73
279.93	1386.47
280.14	1273.84
280.36	1361.90
280.57	1394.67
280.79	1421.29
281.00	1382.38
281.22	1347.56
281.43	1390.57
281.65	1275.88
281.86	1363.95
282.08	1357.80
282.29	1404.91
282.51	1368.04
282.73	1284.08
282.94	1343.47
283.16	1343.47
283.37	1421.29
283.59	1339.37
283.80	1406.95
284.02	1361.90
284.23	1359.85
284.45	1347.56
284.66	1361.90
284.88	1310.70
285.09	1404.91
285.31	1376.24
285.52	1378.28
285.74	1374.19
285.95	1386.47
286.17	1384.43
286.38	1388.52
286.60	1347.56
286.81	1282.03
287.03	1386.47
287.24	1406.95
287.46	1376.24
287.67	1363.95
287.89	1396.71
288.10	1409.00
288.32	1349.61
288.53	1490.92
288.75	1411.05
288.96	1333.23
289.18	1341.42
289.39	1380.33
289.61	1359.85
289.82	1435.63
290.04	1443.82
290.25	1298.41
290.47	1347.56
290.68	1372.14
290.90	1454.06
291.11	1255.40
291.33	1337.32
291.54	1325.04
291.76	1296.36
291.97	1413.10
292.18	1398.76
292.40	1308.65
292.61	1320.94
292.83	1437.67
293.04	1417.19
293.26	1343.47
293.47	1376.24
293.69	1275.88
293.90	1390.57
294.12	1402.86
294.33	1306.60
294.55	1439.72
294.76	1357.80
294.97	1329.13
295.19	1456.11
295.40	1363.95
295.62	1378.28
295.83	1400.81
296.05	1437.67
296.26	1439.72
296.48	1376.24
296.69	1370.09
296.90	1398.76
297.12	1406.95
297.33	1411.05
297.55	1325.04
297.76	1433.58
297.98	1427.43
298.19	1382.38
298.41	1370.09
298.62	1288.17
298.83	1445.87
299.05	1386.47
299.26	1388.52
299.48	1335.28
299.69	1396.71
299.90	1400.81
300.12	1349.61
300.33	1406.95
300.55	1359.85
300.76	1380.33
300.98	1339.37
301.19	1423.34
301.40	1359.85
301.62	1351.66
301.83	1423.34
302.05	1347.56
302.26	1392.62
302.47	1363.95
302.69	1314.80
302.90	1484.78
303.12	1357.80
303.33	1349.61
303.54	1411.05
303.76	1359.85
303.97	1363.95
304.19	1413.10
304.40	1380.33
304.61	1427.43
304.83	1456.11
305.04	1400.81
305.26	1396.71
305.47	1337.32
305.68	1400.81
305.90	1374.19
306.11	1388.52
306.33	1376.24
306.54	1370.09
306.75	1320.94
306.97	1320.94
307.18	1370.09
307.39	1386.47
307.61	1402.86
307.82	1396.71
308.04	1308.65
308.25	1437.67
308.46	1423.34
308.68	1368.04
308.89	1380.33
309.10	1466.35
309.32	1306.60
309.53	1409.00
309.74	1349.61
309.96	1368.04
310.17	1335.28
310.39	1361.90
310.60	1353.71
310.81	1361.90
311.03	1320.94
311.24	1343.47
311.45	1351.66
311.67	1421.29
311.88	1341.42
312.09	1302.51
312.31	1372.14
312.52	1384.43
312.73	1396.71
312.95	1347.56
313.16	1331.18
313.37	1398.76
313.59	1478.63
313.80	1351.66
314.01	1400.81
314.23	1290.22
314.44	1331.18
314.65	1363.95
314.87	1306.60
315.08	1404.91
315.29	1304.56
315.51	1388.52
315.72	1370.09
315.93	1513.45
316.15	1474.54
316.36	1355.76
316.57	1382.38
316.79	1439.72
317.00	1396.71
317.21	1413.10
317.43	1361.90
317.64	1398.76
317.85	1449.96
318.07	1472.49
318.28	1484.78
318.49	1552.36
318.70	1609.70
318.92	1507.30
319.13	1462.25
319.34	1556.46
319.56	1445.87
319.77	1474.54
319.98	1468.39
320.20	1441.77
320.41	1431.53
320.62	1347.56
320.83	1331.18
321.05	1468.39
321.26	1404.91
321.47	1286.12
321.69	1388.52
321.90	1343.47
322.11	1363.95
322.32	1337.32
322.54	1390.57
322.75	1384.43
322.96	1343.47
323.18	1322.99
323.39	1363.95
323.60	1376.24
323.81	1392.62
324.03	1370.09
324.24	1396.71
324.45	1368.04
324.66	1417.19
324.88	1400.81
325.09	1417.19
325.30	1349.61
325.52	1396.71
325.73	1363.95
325.94	1370.09
326.15	1368.04
326.37	1337.32
326.58	1384.43
326.79	1462.25
327.00	1284.08
327.22	1394.67
327.43	1316.84
327.64	1269.74
327.85	1380.33
328.07	1361.90
328.28	1417.19
328.49	1253.36
328.70	1347.56
328.92	1454.06
329.13	1351.66
329.34	1329.13
329.55	1435.63
329.76	1343.47
329.98	1306.60
330.19	1400.81
330.40	1392.62
330.61	1411.05
330.83	1390.57
331.04	1282.03
331.25	1445.87
331.46	1388.52
331.68	1320.94
331.89	1355.76
332.10	1345.52
332.31	1359.85
332.52	1347.56
332.74	1431.53
332.95	1351.66
333.16	1335.28
333.37	1345.52
333.58	1337.32
333.80	1411.05
334.01	1255.40
334.22	1337.32
334.43	1357.80
334.64	1355.76
334.86	1286.12
335.07	1351.66
335.28	1378.28
335.49	1335.28
335.70	1351.66
335.92	1388.52
336.13	1370.09
336.34	1392.62
336.55	1361.90
336.76	1353.71
336.98	1329.13
337.19	1445.87
337.40	1443.82
337.61	1503.21
337.82	1380.33
338.04	1472.49
338.25	1331.18
338.46	1413.10
338.67	1331.18
338.88	1329.13
339.09	1366.00
339.31	1359.85
339.52	1302.51
339.73	1310.70
339.94	1400.81
340.15	1349.61
340.36	1361.90
340.58	1308.65
340.79	1318.89
341.00	1400.81
341.21	1331.18
341.42	1314.80
341.63	1325.04
341.85	1443.82
342.06	1361.90
342.27	1310.70
342.48	1435.63
342.69	1306.60
342.90	1304.56
343.12	1411.05
343.33	1302.51
343.54	1390.57
343.75	1382.38
343.96	1368.04
344.17	1378.28
344.38	1325.04
344.60	1310.70
344.81	1366.00
345.02	1388.52
345.23	1368.04
345.44	1454.06
345.65	1382.38
345.86	1421.29
346.07	1302.51
346.29	1361.90
346.50	1318.89
346.71	1466.35
346.92	1384.43
347.13	1449.96
347.34	1353.71
347.55	1337.32
347.76	1363.95
347.98	1347.56
348.19	1347.56
348.40	1361.90
348.61	1316.84
348.82	1449.96
349.03	1361.90
349.24	1318.89
349.45	1388.52
349.66	1306.60
349.88	1378.28
350.09	1425.39
350.30	1366.00
350.51	1464.30
350.72	1411.05
350.93	1335.28
351.14	1331.18
351.35	1398.76
351.56	1409.00
351.77	1374.19
351.99	1345.52
352.20	1511.40
352.41	1406.95
352.62	1320.94
352.83	1394.67
353.04	1366.00
353.25	1361.90
353.46	1558.50
353.67	1429.48
353.88	1214.45
354.09	1359.85
354.30	1419.24
354.52	1304.56
354.73	1363.95
354.94	1290.22
355.15	1372.14
355.36	1480.68
355.57	1306.60
355.78	1396.71
355.99	1361.90
356.20	1318.89
356.41	1402.86
356.62	1339.37
356.83	1363.95
357.04	1411.05
357.25	1325.04
357.46	1349.61
357.68	1316.84
357.89	1347.56
358.10	1398.76
358.31	1318.89
358.52	1263.60
358.73	1349.61
358.94	1353.71
359.15	1406.95
359.36	1374.19
359.57	1325.04
359.78	1374.19
359.99	1413.10
360.20	1370.09
360.41	1458.15
360.62	1378.28
360.83	1378.28
361.04	1435.63
361.25	1402.86
361.46	1439.72
361.67	1423.34
361.88	1431.53
362.09	1449.96
362.30	1409.00
362.51	1366.00
362.72	1452.01
362.93	1452.01
363.14	1421.29
363.35	1370.09
363.56	1357.80
363.78	1329.13
363.99	1429.48
364.20	1394.67
364.41	1392.62
364.62	1411.05
364.83	1341.42
365.04	1394.67
365.25	1288.17
365.46	1452.01
365.67	1394.67
365.88	1353.71
366.09	1325.04
366.30	1335.28
366.51	1370.09
366.72	1300.46
366.93	1327.08
367.14	1439.72
367.35	1388.52
367.56	1376.24
367.77	1355.76
367.98	1376.24
368.18	1390.57
368.39	1411.05
368.60	1267.69
368.81	1411.05
369.02	1380.33
369.23	1435.63
369.44	1304.56
369.65	1392.62
369.86	1415.15
370.07	1429.48
370.28	1279.98
370.49	1345.52
370.70	1413.10
370.91	1466.35
371.12	1316.84
371.33	1415.15
371.54	1314.80
371.75	1417.19
371.96	1327.08
372.17	1370.09
372.38	1374.19
372.59	1406.95
372.80	1322.99
373.01	1355.76
373.22	1368.04
373.43	1372.14
373.64	1368.04
373.85	1415.15
374.06	1388.52
374.26	1404.91
374.47	1363.95
374.68	1447.91
374.89	1386.47
375.10	1376.24
375.31	1413.10
375.52	1349.61
375.73	1357.80
375.94	1378.28
376.15	1353.71
376.36	1337.32
376.57	1304.56
376.78	1341.42
376.99	1456.11
377.20	1433.58
377.40	1343.47
377.61	1390.57
377.82	1363.95
378.03	1413.10
378.24	1345.52
378.45	1409.00
378.66	1394.67
378.87	1325.04
379.08	1298.41
379.29	1396.71
379.50	1464.30
379.71	1337.32
379.91	1306.60
380.12	1400.81
380.33	1349.61
380.54	1355.76
380.75	1345.52
380.96	1341.42
381.17	1441.77
381.38	1458.15
381.59	1495.02
381.80	1423.34
382.00	1515.50
382.21	1505.26
382.42	1517.54
382.63	1427.43
382.84	1370.09
383.05	1513.45
383.26	1476.59
383.47	1458.15
383.68	1333.23
383.88	1353.71
384.09	1435.63
384.30	1415.15
384.51	1310.70
384.72	1366.00
384.93	1357.80
385.14	1327.08
385.35	1396.71
385.55	1382.38
385.76	1413.10
385.97	1437.67
386.18	1398.76
386.39	1415.15
386.60	1376.24
386.81	1339.37
387.02	1402.86
387.22	1386.47
387.43	1441.77
387.64	1591.27
387.85	2320.35
388.06	5697.45
388.27	9336.69
388.48	11347.79
388.68	13051.70
388.89	13139.77
389.10	10682.20
389.31	9019.25
389.52	8331.14
389.73	7339.92
389.93	6842.26
390.14	6479.77
390.35	6078.37
390.56	5439.40
390.77	4536.25
390.98	3518.41
391.18	2828.24
391.39	2121.70
391.60	1695.72
391.81	1564.65
392.02	1445.87
392.23	1542.12
392.43	1464.30
392.64	1413.10
392.85	1447.91
393.06	1370.09
393.27	1433.58
393.47	1304.56
393.68	1349.61
393.89	1333.23
394.10	1458.15
394.31	1341.42
394.52	1445.87
394.72	1366.00
394.93	1425.39
395.14	1306.60
395.35	1439.72
395.56	1355.76
395.76	1466.35
395.97	1540.07
396.18	1572.84
396.39	1570.79
396.60	1638.38
396.80	1560.55
397.01	1505.26
397.22	1515.50
397.43	1552.36
397.64	1482.73
397.84	1429.48
398.05	1486.83
398.26	1415.15
398.47	1484.78
398.67	1445.87
398.88	1495.02
399.09	1359.85
399.30	1322.99
399.51	1417.19
399.71	1314.80
399.92	1355.76
400.13	1316.84
400.34	1423.34
400.54	1378.28
400.75	1472.49
400.96	1431.53
401.17	1415.15
401.37	1390.57
401.58	1353.71
401.79	1476.59
402.00	1712.10
402.21	1794.02
402.41	1847.27
402.62	1818.60
402.83	1765.35
403.04	1626.09
403.24	1703.91
403.45	1540.07
403.66	1601.51
403.87	1583.08
404.07	1546.22
404.28	1591.27
404.49	1535.98
404.70	1470.44
404.90	1486.83
405.11	1470.44
405.32	1429.48
405.52	1429.48
405.73	1390.57
405.94	1345.52
406.15	1400.81
406.35	1439.72
406.56	1433.58
406.77	1376.24
406.98	1378.28
407.18	1294.32
407.39	1484.78
407.60	1329.13
407.80	1423.34
408.01	1366.00
408.22	1449.96
408.43	1351.66
408.63	1312.75
408.84	1421.29
409.05	1292.27
409.25	1363.95
409.46	1316.84
409.67	1335.28
409.88	1355.76
410.08	1380.33
410.29	1277.93
410.50	1292.27
410.70	1429.48
410.91	1331.18
411.12	1431.53
411.32	1357.80
411.53	1449.96
411.74	1533.93
411.95	1495.02
412.15	1462.25
412.36	1460.20
412.57	1384.43
412.77	1497.07
412.98	1386.47
413.19	1339.37
413.39	1413.10
413.60	1355.76
413.81	1478.63
414.01	1413.10
414.22	1472.49
414.43	1468.39
414.63	1384.43
414.84	1413.10
415.05	1363.95
415.25	1376.24
415.46	1421.29
415.67	1390.57
415.87	1439.72
416.08	1417.19
416.29	1431.53
416.49	1386.47
416.70	1398.76
416.91	1335.28
417.11	1435.63
417.32	1314.80
417.53	1363.95
417.73	1439.72
417.94	1349.61
418.15	1339.37
418.35	1476.59
418.56	1316.84
418.77	1449.96
418.97	1372.14
419.18	1441.77
419.38	1222.64
419.59	1298.41
419.80	1486.83
420.00	1357.80
420.21	1429.48
420.42	1402.86
420.62	1374.19
420.83	1351.66
421.04	1429.48
421.24	1366.00
421.45	1382.38
421.65	1363.95
421.86	1345.52
422.07	1355.76
422.27	1363.95
422.48	1386.47
422.69	1298.41
422.89	1329.13
423.10	1392.62
423.30	1372.14
423.51	1355.76
423.72	1382.38
423.92	1419.24
424.13	1343.47
424.33	1310.70
424.54	1400.81
424.75	1366.00
424.95	1449.96
425.16	1390.57
425.36	1331.18
425.57	1425.39
425.78	1402.86
425.98	1361.90
426.19	1345.52
426.39	1345.52
426.60	1355.76
426.81	1388.52
427.01	1394.67
427.22	1386.47
427.42	1275.88
427.63	1275.88
427.83	1337.32
428.04	1398.76
428.25	1386.47
428.45	1419.24
428.66	1357.80
428.86	1343.47
429.07	1413.10
429.28	1347.56
429.48	1353.71
429.69	1376.24
429.89	1413.10
430.10	1312.75
430.30	1400.81
430.51	1359.85
430.71	1382.38
430.92	1318.89
431.13	1404.91
431.33	1396.71
431.54	1363.95
431.74	1470.44
431.95	1390.57
432.15	1327.08
432.36	1318.89
432.56	1355.76
432.77	1470.44
432.98	1456.11
433.18	1384.43
433.39	1411.05
433.59	1355.76
433.80	1370.09
434.00	1486.83
434.21	1382.38
434.41	1308.65
434.62	1462.25
434.82	1271.79
435.03	1378.28
435.23	1351.66
435.44	1312.75
435.64	1370.09
435.85	1435.63
436.06	1427.43
436.26	1411.05
436.47	1343.47
436.67	1406.95
436.88	1400.81
437.08	1404.91
437.29	1372.14
437.49	1370.09
437.70	1433.58
437.90	1355.76
438.11	1589.22
438.31	1490.92
438.52	1564.65
438.72	1607.66
438.93	1574.89
439.13	1466.35
439.34	1495.02
439.54	1490.92
439.75	1464.30
439.95	1458.15
440.16	1468.39
440.36	1462.25
440.57	1404.91
440.77	1501.16
440.98	1404.91
441.18	1425.39
441.39	1374.19
441.59	1363.95
441.80	1433.58
442.00	1366.00
442.21	1392.62
442.41	1347.56
442.62	1363.95
442.82	1357.80
443.02	1349.61
443.23	1495.02
443.43	1372.14
443.64	1560.55
443.84	1347.56
444.05	1443.82
444.25	1439.72
444.46	1413.10
444.66	1343.47
444.87	1464.30
445.07	1310.70
445.28	1429.48
445.48	1435.63
445.69	1460.20
445.89	1478.63
446.09	1497.07
446.30	2287.58
446.50	3647.43
446.71	4593.59
446.91	5367.73
447.12	5627.82
447.32	4872.12
447.53	4186.05
447.73	3772.36
447.93	3405.77
448.14	3217.36
448.34	3030.99
448.55	2799.57
448.75	2795.48
448.96	2691.03
449.16	2318.30
449.36	2101.22
449.57	1937.38
449.77	1740.77
449.98	1544.17
450.18	1538.02
450.39	1490.92
450.59	1413.10
450.79	1415.15
451.00	1357.80
451.20	1366.00
451.41	1359.85
451.61	1415.15
451.81	1388.52
452.02	1359.85
452.22	1417.19
452.43	1409.00
452.63	1310.70
452.84	1333.23
453.04	1304.56
453.24	1359.85
453.45	1310.70
453.65	1374.19
453.86	1452.01
454.06	1421.29
454.26	1433.58
454.47	1394.67
454.67	1476.59
454.87	1368.04
455.08	1355.76
455.28	1433.58
455.49	1312.75
455.69	1357.80
455.89	1480.68
456.10	1462.25
456.30	1366.00
456.51	1384.43
456.71	1363.95
456.91	1390.57
457.12	1359.85
457.32	1361.90
457.52	1320.94
457.73	1402.86
457.93	1314.80
458.14	1421.29
458.34	1325.04
458.54	1337.32
458.75	1378.28
458.95	1386.47
459.15	1394.67
459.36	1349.61
459.56	1316.84
459.76	1482.73
459.97	1306.60
460.17	1423.34
460.37	1415.15
460.58	1320.94
460.78	1357.80
460.99	1345.52
461.19	1378.28
461.39	1404.91
461.60	1368.04
461.80	1400.81
462.00	1386.47
462.21	1404.91
462.41	1394.67
462.61	1349.61
462.82	1363.95
463.02	1378.28
463.22	1341.42
463.43	1431.53
463.63	1390.57
463.83	1466.35
464.04	1349.61
464.24	1396.71
464.44	1402.86
464.64	1310.70
464.85	1390.57
465.05	1402.86
465.25	1388.52
465.46	1357.80
465.66	1390.57
465.86	1423.34
466.07	1417.19
466.27	1419.24
466.47	1316.84
466.68	1353.71
466.88	1349.61
467.08	1417.19
467.29	1339.37
467.49	1409.00
467.69	1386.47
467.89	1427.43
468.10	1320.94
468.30	1374.19
468.50	1433.58
468.71	1357.80
468.91	1347.56
469.11	1507.30
469.31	1339.37
469.52	1327.08
469.72	1427.43
469.92	1435.63
470.13	1347.56
470.33	1374.19
470.53	1628.14
470.73	2017.25
470.94	2338.78
471.14	2256.86
471.34	2514.91
471.54	2293.72
471.75	2023.39
471.95	1976.29
472.15	1847.27
472.36	1716.20
472.56	1808.36
472.76	1767.40
472.96	1699.81
473.17	1714.15
473.37	1632.23
473.57	1509.35
473.77	1519.59
473.98	1472.49
474.18	1419.24
474.38	1548.26
474.58	1437.67
474.79	1349.61
474.99	1370.09
475.19	1413.10
475.39	1384.43
475.60	1519.59
475.80	1363.95
476.00	1343.47
476.20	1343.47
476.41	1390.57
476.61	1470.44
476.81	1449.96
477.01	1337.32
477.21	1374.19
477.42	1390.57
477.62	1249.26
477.82	1449.96
478.02	1386.47
478.23	1415.15
478.43	1357.80
478.63	1339.37
478.83	1470.44
479.03	1388.52
479.24	1402.86
479.44	1337.32
479.64	1290.22
479.84	1427.43
480.04	1355.76
480.25	1392.62
480.45	1380.33
480.65	1355.76
480.85	1392.62
481.06	1396.71
481.26	1333.23
481.46	1402.86
481.66	1429.48
481.86	1325.04
482.06	1398.76
482.27	1490.92
482.47	1376.24
482.67	1390.57
482.87	1355.76
483.07	1429.48
483.28	1388.52
483.48	1398.76
483.68	1411.05
483.88	1329.13
484.08	1318.89
484.29	1396.71
484.49	1361.90
484.69	1241.07
484.89	1431.53
485.09	1388.52
485.29	1400.81
485.50	1441.77
485.70	1357.80
485.90	1447.91
486.10	1429.48
486.30	1462.25
486.50	1388.52
486.71	1421.29
486.91	1441.77
487.11	1427.43
487.31	1406.95
487.51	1466.35
487.71	1376.24
487.91	1314.80
488.12	1316.84
488.32	1298.41
488.52	1388.52
488.72	1310.70
488.92	1333.23
489.12	1398.76
489.32	1423.34
489.53	1402.86
489.73	1388.52
489.93	1460.20
490.13	1357.80
490.33	1302.51
490.53	1501.16
490.73	1392.62
490.94	1339.37
491.14	1427.43
491.34	1685.48
491.54	2090.98
491.74	2674.65
491.94	3041.23
492.14	3059.67
492.34	2928.60
492.54	2525.15
492.75	2324.44
492.95	2267.10
493.15	2056.16
493.35	2029.54
493.55	1945.57
493.75	1927.14
493.95	1853.41
494.15	1861.60
494.35	1734.63
494.56	1646.57
494.76	1517.54
494.96	1445.87
495.16	1540.07
495.36	1376.24
495.56	1390.57
495.76	1396.71
495.96	1347.56
496.16	1386.47
496.36	1443.82
496.56	1347.56
496.77	1421.29
496.97	1413.10
497.17	1409.00
497.37	1386.47
497.57	1402.86
497.77	1421.29
497.97	1363.95
498.17	1318.89
498.37	1361.90
498.57	1370.09
498.77	1411.05
498.97	1460.20
499.17	1370.09
499.38	1474.54
499.58	1353.71
499.78	1384.43
499.98	1435.63
500.18	1402.86
500.38	1380.33
500.58	1714.15
500.78	2987.99
500.98	5451.69
501.18	6868.89
501.38	8109.96
501.58	8533.89
501.78	7315.34
501.98	5646.25
502.18	5097.39
502.38	4632.51
502.58	4140.99
502.78	3778.50
502.98	3553.23
503.18	3475.40
503.38	3309.52
503.59	2985.94
503.79	2861.01
503.99	2555.86
504.19	2394.08
504.39	2103.26
504.59	2101.22
504.79	1976.29
504.99	1798.12
505.19	1675.24
505.39	1593.32
505.59	1607.66
505.79	1558.50
505.99	1572.84
506.19	1470.44
506.39	1511.40
506.59	1402.86
506.79	1476.59
506.99	1462.25
507.19	1460.20
507.39	1413.10
507.59	1363.95
507.79	1376.24
507.99	1370.09
508.19	1452.01
508.39	1406.95
508.59	1370.09
508.79	1398.76
508.99	1435.63
509.19	1388.52
509.39	1439.72
509.59	1351.66
509.79	1300.46
509.99	1322.99
510.19	1445.87
510.39	1400.81
510.59	1355.76
510.79	1384.43
510.99	1366.00
511.19	1492.97
511.39	1357.80
511.59	1398.76
511.79	1345.52
511.99	1345.52
512.19	1415.15
512.38	1368.04
512.58	1316.84
512.78	1396.71
512.98	1419.24
513.18	1443.82
513.38	1302.51
513.58	1388.52
513.78	1411.05
513.98	1357.80
514.18	1241.07
514.38	1343.47
514.58	1376.24
514.78	1316.84
514.98	1341.42
515.18	1384.43
515.38	1400.81
515.58	1421.29
515.78	1302.51
515.98	1402.86
516.18	1439.72
516.38	1359.85
516.57	1411.05
516.77	1392.62
516.97	1406.95
517.17	1359.85
517.37	1366.00
517.57	1411.05
517.77	1273.84
517.97	1376.24
518.17	1372.14
518.37	1368.04
518.57	1372.14
518.77	1363.95
518.97	1380.33
519.16	1376.24
519.36	1353.71
519.56	1392.62
519.76	1439.72
519.96	1345.52
520.16	1390.57
520.36	1290.22
520.56	1390.57
520.76	1298.41
520.96	1394.67
521.16	1386.47
521.35	1386.47
521.55	1409.00
521.75	1400.81
521.95	1370.09
522.15	1366.00
522.35	1286.12
522.55	1353.71
522.75	1456.11
522.95	1378.28
523.14	1380.33
523.34	1312.75
523.54	1357.80
523.74	1452.01
523.94	1384.43
524.14	1304.56
524.34	1413.10
524.54	1380.33
524.73	1343.47
524.93	1390.57
525.13	1329.13
525.33	1294.32
525.53	1390.57
525.73	1353.71
525.93	1318.89
526.13	1310.70
526.32	1437.67
526.52	1357.80
526.72	1390.57
526.92	1394.67
527.12	1351.66
527.32	1333.23
527.52	1396.71
527.71	1361.90
527.91	1341.42
528.11	1318.89
528.31	1386.47
528.51	1392.62
528.71	1384.43
528.90	1378.28
529.10	1384.43
529.30	1454.06
529.50	1384.43
529.70	1415.15
529.90	1355.76
530.09	1361.90
530.29	1310.70
530.49	1394.67
530.69	1458.15
530.89	1404.91
531.09	1429.48
531.28	1427.43
531.48	1421.29
531.68	1316.84
531.88	1353.71
532.08	1294.32
532.28	1396.71
532.47	1439.72
532.67	1505.26
532.87	1445.87
533.07	1402.86
533.27	1462.25
533.46	1456.11
533.66	1390.57
533.86	1359.85
534.06	1382.38
534.26	1462.25
534.45	1449.96
534.65	1441.77
534.85	1380.33
535.05	1353.71
535.25	1384.43
535.44	1339.37
535.64	1421.29
535.84	1380.33
536.04	1409.00
536.24	1359.85
536.43	1370.09
536.63	1368.04
536.83	1435.63
537.03	1419.24
537.22	1314.80
537.42	1267.69
537.62	1425.39
537.82	1361.90
538.02	1368.04
538.21	1425.39
538.41	1495.02
538.61	1314.80
538.81	1368.04
539.00	1382.38
539.20	1322.99
539.40	1466.35
539.60	1349.61
539.79	1441.77
539.99	1359.85
540.19	1368.04
540.39	1423.34
540.58	1339.37
540.78	1411.05
540.98	1368.04
541.18	1339.37
541.37	1384.43
541.57	1380.33
541.77	1413.10
541.97	1325.04
542.16	1386.47
542.36	1361.90
542.56	1306.60
542.76	1486.83
542.95	1363.95
543.15	1486.83
543.35	1384.43
543.54	1325.04
543.74	1380.33
543.94	1445.87
544.14	1345.52
544.33	1351.66
544.53	1322.99
544.73	1396.71
544.93	1361.90
545.12	1404.91
545.32	1462.25
545.52	1351.66
545.71	1423.34
545.91	1312.75
546.11	1290.22
546.30	1341.42
546.50	1366.00
546.70	1368.04
546.90	1382.38
547.09	1322.99
547.29	1390.57
547.49	1437.67
547.68	1425.39
547.88	1435.63
548.08	1322.99
548.27	1681.38
548.47	1294.32
548.67	1372.14
548.87	1357.80
549.06	1331.18
549.26	1445.87
549.46	1341.42
549.65	1392.62
549.85	1454.06
550.05	1394.67
550.24	1331.18
550.44	1333.23
550.64	1392.62
550.83	1380.33
551.03	1419.24
551.23	1445.87
551.42	1411.05
551.62	1363.95
551.82	1361.90
552.01	1314.80
552.21	1447.91
552.41	1419.24
552.60	1425.39
552.80	1404.91
553.00	1351.66
553.19	1357.80
553.39	1441.77
553.59	1374.19
553.78	1378.28
553.98	1376.24
554.17	1370.09
554.37	1312.75
554.57	1425.39
554.76	1409.00
554.96	1341.42
555.16	1337.32
555.35	1398.76
555.55	1409.00
555.75	1363.95
555.94	1427.43
556.14	1345.52
556.33	1341.42
556.53	1363.95
556.73	1368.04
556.92	1372.14
557.12	1308.65
557.32	1480.68
557.51	1445.87
557.71	1378.28
557.90	1390.57
558.10	1417.19
558.30	1327.08
558.49	1271.79
558.69	1413.10
558.88	1392.62
559.08	1402.86
559.28	1329.13
559.47	1421.29
559.67	1368.04
559.86	1421.29
560.06	1355.76
560.26	1273.84
560.45	1363.95
560.65	1413.10
560.84	1421.29
561.04	1396.71
561.24	1458.15
561.43	1335.28
561.63	1439.72
561.82	1404.91
562.02	1370.09
562.22	1357.80
562.41	1363.95
562.61	1441.77
562.80	1341.42
563.00	1445.87
563.19	1320.94
563.39	1396.71
563.59	1429.48
563.78	1279.98
563.98	1310.70
564.17	1316.84
564.37	1288.17
564.56	1388.52
564.76	1294.32
564.96	1445.87
565.15	1361.90
565.35	1486.83
565.54	1290.22
565.74	1366.00
565.93	1425.39
566.13	1335.28
566.32	1380.33
566.52	1488.87
566.71	1368.04
566.91	1400.81
567.11	1392.62
567.30	1390.57
567.50	1396.71
567.69	1386.47
567.89	1368.04
568.08	1345.52
568.28	1376.24
568.47	1390.57
568.67	1404.91
568.86	1415.15
569.06	1402.86
569.25	1413.10
569.45	1325.04
569.64	1419.24
569.84	1349.61
570.04	1359.85
570.23	1398.76
570.43	1355.76
570.62	1400.81
570.82	1392.62
571.01	1335.28
571.21	1318.89
571.40	1341.42
571.60	1363.95
571.79	1384.43
571.99	1470.44
572.18	1370.09
572.38	1359.85
572.57	1384.43
572.77	1359.85
572.96	1476.59
573.16	1458.15
573.35	1355.76
573.55	1441.77
573.74	1419.24
573.94	1347.56
574.13	1357.80
574.33	1392.62
574.52	1478.63
574.71	1359.85
574.91	1411.05
575.10	1339.37
575.30	1396.71
575.49	1406.95
575.69	1374.19
575.88	1351.66
576.08	1353.71
576.27	1474.54
576.47	1511.40
576.66	1495.02
576.86	1501.16
577.05	1443.82
577.25	1490.92
577.44	1449.96
577.64	1374.19
577.83	1458.15
578.02	1458.15
578.22	1378.28
578.41	1519.59
578.61	1427.43
578.80	1402.86
579.00	1411.05
579.19	1380.33
579.39	1425.39
579.58	1499.11
579.77	1456.11
579.97	1460.20
580.16	1495.02
580.36	1495.02
580.55	1468.39
580.75	1425.39
580.94	1460.20
581.13	1505.26
581.33	1517.54
581.52	1470.44
581.72	1533.93
581.91	1548.26
582.11	1501.16
582.30	1447.91
582.49	1394.67
582.69	1529.83
582.88	1480.68
583.08	1437.67
583.27	1470.44
583.47	1468.39
583.66	1372.14
583.85	1409.00
584.05	1411.05
584.24	1566.70
584.44	1427.43
584.63	1501.16
584.82	1501.16
585.02	1482.73
585.21	1552.36
585.41	1552.36
585.60	1646.57
585.79	1638.38
585.99	1621.99
586.18	1632.23
586.37	1773.54
586.57	2662.36
586.76	7804.81
586.96	23629.46
587.15	40965.52
587.34	51328.24
587.54	59024.51
587.73	58543.23
587.93	44383.58
588.12	32462.35
588.31	26365.55
588.51	22353.58
588.70	19750.61
588.89	18183.91
589.09	16936.70
589.28	15816.46
589.47	14069.55
589.67	12347.20
589.86	10651.49
590.06	8732.54
590.25	6451.10
590.44	4978.61
590.64	3772.36
590.83	2848.72
591.02	2295.77
591.22	1914.85
591.41	1683.43
591.60	1570.79
591.80	1578.98
591.99	1419.24
592.18	1458.15
592.38	1519.59
592.57	1488.87
592.76	1472.49
592.96	1495.02
593.15	1431.53
593.34	1460.20
593.54	1433.58
593.73	1437.67
593.92	1433.58
594.12	1513.45
594.31	1507.30
594.50	1413.10
594.70	1576.94
594.89	1550.31
595.08	1435.63
595.28	1415.15
595.47	1495.02
595.66	1441.77
595.86	1314.80
596.05	1433.58
596.24	1343.47
596.43	1468.39
596.63	1490.92
596.82	1394.67
597.01	1449.96
597.21	1468.39
597.40	1409.00
597.59	1429.48
597.79	1495.02
597.98	1474.54
598.17	1423.34
598.36	1427.43
598.56	1417.19
598.75	1339.37
598.94	1419.24
599.14	1476.59
599.33	1400.81
599.52	1394.67
599.71	1396.71
599.91	1466.35
600.10	1409.00
600.29	1327.08
600.48	1339.37
600.68	1380.33
600.87	1417.19
601.06	1368.04
601.26	1370.09
601.45	1331.18
601.64	1308.65
601.83	1427.43
602.03	1419.24
602.22	1341.42
602.41	1427.43
602.60	1511.40
602.80	1376.24
602.99	1390.57
603.18	1388.52
603.37	1425.39
603.57	1361.90
603.76	1406.95
603.95	1433.58
604.14	1390.57
604.34	1316.84
604.53	1427.43
604.72	1363.95
604.91	1411.05
605.10	1368.04
605.30	1431.53
605.49	1419.24
605.68	1435.63
605.87	1406.95
606.07	1378.28
606.26	1468.39
606.45	1406.95
606.64	1396.71
606.84	1396.71
607.03	1421.29
607.22	1433.58
607.41	1497.07
607.60	1437.67
607.80	1476.59
607.99	1374.19
608.18	1439.72
608.37	1402.86
608.56	1419.24
608.76	1368.04
608.95	1517.54
609.14	1521.64
609.33	1449.96
609.52	1576.94
609.72	1525.74
609.91	1578.98
610.10	1482.73
610.29	1454.06
610.48	1421.29
610.68	1480.68
610.87	1452.01
611.06	1503.21
611.25	1374.19
611.44	1458.15
611.63	1411.05
611.83	1400.81
612.02	1400.81
612.21	1413.10
612.40	1359.85
612.59	1306.60
612.79	1269.74
612.98	1372.14
613.17	1439.72
613.36	1363.95
613.55	1474.54
613.74	1427.43
613.93	1505.26
614.13	1535.98
614.32	1621.99
614.51	1679.33
614.70	1564.65
614.89	1458.15
615.08	1445.87
615.28	1671.14
615.47	1447.91
615.66	1359.85
615.85	1441.77
616.04	1546.22
616.23	1488.87
616.42	1468.39
616.62	1478.63
616.81	1464.30
617.00	1322.99
617.19	1361.90
617.38	1392.62
617.57	1392.62
617.76	1472.49
617.95	1445.87
618.15	1423.34
618.34	1417.19
618.53	1370.09
618.72	1454.06
618.91	1368.04
619.10	1468.39
619.29	1394.67
619.48	1366.00
619.68	1361.90
619.87	1372.14
620.06	1310.70
620.25	1421.29
620.44	1376.24
620.63	1308.65
620.82	1390.57
621.01	1404.91
621.20	1433.58
621.39	1441.77
621.59	1445.87
621.78	1439.72
621.97	1449.96
622.16	1396.71
622.35	1464.30
622.54	1394.67
622.73	1398.76
622.92	1396.71
623.11	1386.47
623.30	1368.04
623.49	1427.43
623.68	1355.76
623.88	1400.81
624.07	1310.70
624.26	1339.37
624.45	1390.57
624.64	1341.42
624.83	1406.95
625.02	1359.85
625.21	1361.90
625.40	1441.77
625.59	1345.52
625.78	1425.39
625.97	1456.11
626.16	1447.91
626.35	1454.06
626.54	1474.54
626.74	1560.55
626.93	1454.06
627.12	1396.71
627.31	1456.11
627.50	1409.00
627.69	1437.67
627.88	1462.25
628.07	1366.00
628.26	1388.52
628.45	1370.09
628.64	1357.80
628.83	1388.52
629.02	1363.95
629.21	1357.80
629.40	1372.14
629.59	1404.91
629.78	1292.27
629.97	1470.44
630.16	1353.71
630.35	1392.62
630.54	1411.05
630.73	1284.08
630.92	1402.86
631.11	1308.65
631.30	1415.15
631.49	1415.15
631.68	1320.94
631.87	1441.77
632.06	1331.18
632.25	1449.96
632.44	1347.56
632.63	1439.72
632.82	1447.91
633.01	1435.63
633.20	1492.97
633.39	1480.68
633.58	1439.72
633.77	1523.69
633.96	1515.50
634.15	1409.00
634.34	1538.02
634.53	1466.35
634.72	1443.82
634.91	1322.99
635.10	1380.33
635.29	1421.29
635.48	1366.00
635.67	1294.32
635.86	1329.13
636.05	1419.24
636.24	1376.24
636.43	1437.67
636.62	1374.19
636.81	1347.56
637.00	1392.62
637.19	1402.86
637.38	1302.51
637.57	1329.13
637.76	1380.33
637.95	1464.30
638.14	1464.30
638.33	1538.02
638.52	1529.83
638.71	1531.88
638.89	1388.52
639.08	1458.15
639.27	1454.06
639.46	1435.63
639.65	1675.24
639.84	1834.98
640.03	2078.69
640.22	1935.33
640.41	2074.59
640.60	1966.05
640.79	1802.21
640.98	1662.95
641.17	1568.74
641.36	1613.80
641.55	1480.68
641.74	1511.40
641.92	1531.88
642.11	1482.73
642.30	1476.59
642.49	1406.95
642.68	1423.34
642.87	1443.82
643.06	1419.24
643.25	1429.48
643.44	1359.85
643.63	1409.00
643.82	1447.91
644.00	1296.36
644.19	1374.19
644.38	1357.80
644.57	1376.24
644.76	1355.76
644.95	1345.52
645.14	1400.81
645.33	1370.09
645.52	1431.53
645.71	1368.04
645.89	1349.61
646.08	1382.38
646.27	1322.99
646.46	1507.30
646.65	1404.91
646.84	1374.19
647.03	1327.08
647.22	1476.59
647.40	1398.76
647.59	1320.94
647.78	1296.36
647.97	1331.18
648.16	1345.52
648.35	1478.63
648.54	1423.34
648.73	1345.52
648.91	1376.24
649.10	1413.10
649.29	1341.42
649.48	1368.04
649.67	1320.94
649.86	1394.67
650.05	1413.10
650.23	1454.06
650.42	1523.69
650.61	1556.46
650.80	1632.23
650.99	1671.14
651.18	1474.54
651.36	1468.39
651.55	1427.43
651.74	1458.15
651.93	1396.71
652.12	1396.71
652.31	1490.92
652.49	1396.71
652.68	1460.20
652.87	1460.20
653.06	1435.63
653.25	1476.59
653.44	1398.76
653.62	1449.96
653.81	1437.67
654.00	1396.71
654.19	1468.39
654.38	1454.06
654.56	1394.67
654.75	1400.81
654.94	1368.04
655.13	1435.63
655.32	1327.08
655.51	1435.63
655.69	1368.04
655.88	1423.34
656.07	1363.95
656.26	1474.54
656.45	1263.60
656.63	1380.33
656.82	1413.10
657.01	1388.52
657.20	1318.89
657.38	1452.01
657.57	1306.60
657.76	1363.95
657.95	1437.67
658.14	1339.37
658.32	1449.96
658.51	1322.99
658.70	1380.33
658.89	1396.71
659.08	1351.66
659.26	1509.35
659.45	1320.94
659.64	1445.87
659.83	1435.63
660.01	1601.51
660.20	1437.67
660.39	1495.02
660.58	1335.28
660.76	1476.59
660.95	1345.52
661.14	1421.29
661.33	1331.18
661.51	1341.42
661.70	1345.52
661.89	1411.05
662.08	1370.09
662.26	1329.13
662.45	1380.33
662.64	1525.74
662.83	1409.00
663.01	1322.99
663.20	1337.32
663.39	1484.78
663.58	1327.08
663.76	1402.86
663.95	1355.76
664.14	1349.61
664.32	1331.18
664.51	1361.90
664.70	1398.76
664.89	1437.67
665.07	1370.09
665.26	1419.24
665.45	1357.80
665.64	1476.59
665.82	1419.24
666.01	1425.39
666.20	1392.62
666.38	1449.96
666.57	1478.63
666.76	1601.51
666.95	1996.77
667.13	4394.94
667.32	11349.84
667.51	17676.02
667.69	21550.78
667.88	24280.72
668.07	24288.91
668.25	18736.87
668.44	13545.27
668.63	11046.74
668.81	8884.09
669.00	7989.13
669.19	7470.99
669.38	6887.32
669.56	6184.87
669.75	5506.99
669.94	4835.25
670.12	4241.34
670.31	3434.44
670.50	2944.98
670.68	2426.84
670.87	2007.01
671.06	1800.16
671.24	1658.85
671.43	1566.70
671.62	1546.22
671.80	1464.30
671.99	1544.17
672.18	1357.80
672.36	1503.21
672.55	1468.39
672.74	1402.86
672.92	1437.67
673.11	1411.05
673.29	1388.52
673.48	1421.29
673.67	1331.18
673.85	1445.87
674.04	1366.00
674.23	1333.23
674.41	1419.24
674.60	1392.62
674.79	1304.56
674.97	1390.57
675.16	1398.76
675.34	1372.14
675.53	1404.91
675.72	1306.60
675.90	1458.15
676.09	1396.71
676.28	1417.19
676.46	1318.89
676.65	1337.32
676.83	1355.76
677.02	1368.04
677.21	1400.81
677.39	1394.67
677.58	1302.51
677.77	1390.57
677.95	1318.89
678.14	1331.18
678.32	1327.08
678.51	1312.75
678.70	1396.71
678.88	1400.81
679.07	1351.66
679.25	1386.47
679.44	1382.38
679.63	1431.53
679.81	1415.15
680.00	1392.62
680.18	1380.33
680.37	1505.26
680.55	1370.09
680.74	1318.89
680.93	1327.08
681.11	1388.52
681.30	1431.53
681.48	1382.38
681.67	1472.49
681.85	1294.32
682.04	1355.76
682.23	1392.62
682.41	1359.85
682.60	1406.95
682.78	1400.81
682.97	1261.55
683.15	1382.38
683.34	1400.81
683.53	1376.24
683.71	1337.32
683.90	1406.95
684.08	1433.58
684.27	1353.71
684.45	1452.01
684.64	1499.11
684.82	1341.42
685.01	1355.76
685.19	1351.66
685.38	1423.34
685.57	1466.35
685.75	1357.80
685.94	1310.70
686.12	1363.95
686.31	1398.76
686.49	1462.25
686.68	1366.00
686.86	1386.47
687.05	1353.71
687.23	1460.20
687.42	1329.13
687.60	1343.47
687.79	1318.89
687.97	1392.62
688.16	1335.28
688.34	1390.57
688.53	1312.75
688.71	1486.83
688.90	1374.19
689.08	1370.09
689.27	1300.46
689.45	1370.09
689.64	1398.76
689.82	1439.72
690.01	1374.19
690.19	1445.87
690.38	1308.65
690.56	1406.95
690.75	1318.89
690.93	1458.15
691.12	1363.95
691.30	1325.04
691.49	1322.99
691.67	1353.71
691.86	1486.83
692.04	1298.41
692.23	1335.28
692.41	1437.67
692.60	1511.40
692.78	1413.10
692.97	1527.78
693.15	1386.47
693.34	1454.06
693.52	1490.92
693.71	1316.84
693.89	1460.20
694.08	1390.57
694.26	1386.47
694.44	1411.05
694.63	1415.15
694.81	1361.90
695.00	1443.82
695.18	1392.62
695.37	1468.39
695.55	1331.18
695.74	1349.61
695.92	1329.13
696.10	1476.59
696.29	1363.95
696.47	1384.43
696.66	1300.46
696.84	1374.19
697.03	1384.43
697.21	1402.86
697.40	1804.26
697.58	1458.15
697.76	1398.76
697.95	1386.47
698.13	1273.84
698.32	1363.95
698.50	1331.18
698.68	1447.91
698.87	1396.71
699.05	1402.86
699.24	1374.19
699.42	1263.60
699.61	1372.14
699.79	1411.05
699.97	1411.05
700.16	1331.18
700.34	1302.51
700.53	1386.47
700.71	1431.53
700.89	1429.48
701.08	1411.05
701.26	1361.90
701.45	1624.04
701.63	1411.05
701.81	1382.38
702.00	1417.19
702.18	1417.19
702.37	1347.56
702.55	1406.95
702.73	1550.31
702.92	1570.79
703.10	1656.81
703.28	1607.66
703.47	1658.85
703.65	1621.99
703.84	1515.50
704.02	1527.78
704.20	1462.25
704.39	1486.83
704.57	1468.39
704.75	1421.29
704.94	1531.88
705.12	1464.30
705.30	1415.15
705.49	1601.51
705.67	1814.50
705.86	3495.88
706.04	8898.42
706.22	15738.64
706.41	19455.70
706.59	22251.18
706.77	23295.64
706.96	19513.05
707.14	13897.52
707.32	11452.24
707.51	9060.21
707.69	8218.50
707.87	7278.48
708.06	6791.06
708.24	5971.88
708.42	4900.79
708.61	3934.15
708.79	3018.71
708.97	2418.65
709.16	1990.63
709.34	1759.21
709.52	1611.75
709.71	1480.68
709.89	1417.19
710.07	1456.11
710.26	1390.57
710.44	1429.48
710.62	1402.86
710.80	1406.95
710.99	1421.29
711.17	1429.48
711.35	1361.90
711.54	1372.14
711.72	1470.44
711.90	1402.86
712.09	1460.20
712.27	1292.27
712.45	1427.43
712.63	1427.43
712.82	1372.14
713.00	1366.00
713.18	1411.05
713.37	1433.58
713.55	1363.95
713.73	1404.91
713.91	1374.19
714.10	1335.28
714.28	1386.47
714.46	1343.47
714.65	1339.37
714.83	1370.09
715.01	1368.04
715.19	1343.47
715.38	1425.39
715.56	1363.95
715.74	1351.66
715.92	1376.24
716.11	1429.48
716.29	1386.47
716.47	1355.76
716.65	1380.33
716.84	1390.57
717.02	1357.80
717.20	1304.56
717.38	1372.14
717.57	1423.34
717.75	1484.78
717.93	1372.14
718.11	1439.72
718.30	1384.43
718.48	1353.71
718.66	1366.00
718.84	1411.05
719.03	1406.95
719.21	1265.64
719.39	1406.95
719.57	1314.80
719.75	1398.76
719.94	1372.14
720.12	1251.31
720.30	1308.65
720.48	1370.09
720.67	1366.00
720.85	1308.65
721.03	1357.80
721.21	1435.63
721.39	1382.38
721.58	1413.10
721.76	1320.94
721.94	1404.91
722.12	1406.95
722.30	1355.76
722.49	1335.28
722.67	1327.08
722.85	1355.76
723.03	1325.04
723.21	1351.66
723.40	1386.47
723.58	1460.20
723.76	1378.28
723.94	1415.15
724.12	1478.63
724.30	1501.16
724.49	1503.21
724.67	1404.91
724.85	1535.98
725.03	1300.46
725.21	1388.52
725.40	1480.68
725.58	1439.72
725.76	1443.82
725.94	1351.66
726.12	1325.04
726.30	1384.43
726.49	1435.63
726.67	1322.99
726.85	1396.71
727.03	1386.47
727.21	1497.07
727.39	1550.31
727.57	2047.97
727.76	3403.72
727.94	4399.04
728.12	4755.38
728.30	5121.97
728.48	5132.21
728.66	4235.20
728.84	3452.88
729.03	3065.81
729.21	2850.77
729.39	2424.80
729.57	2312.16
729.75	1953.76
729.93	1769.44
730.11	1611.75
730.30	1449.96
730.48	1474.54
730.66	1499.11
730.84	1482.73
731.02	1343.47
731.20	1501.16
731.38	1431.53
731.56	1329.13
731.74	1366.00
731.93	1357.80
732.11	1357.80
732.29	1306.60
732.47	1341.42
732.65	1464.30
732.83	1419.24
733.01	1413.10
733.19	1361.90
733.37	1445.87
733.56	1411.05
733.74	1388.52
733.92	1400.81
734.10	1271.79
734.28	1396.71
734.46	1296.36
734.64	1320.94
734.82	1347.56
735.00	1406.95
735.18	1304.56
735.36	1384.43
735.54	1351.66
735.73	1402.86
735.91	1339.37
736.09	1368.04
736.27	1390.57
736.45	1439.72
736.63	1349.61
736.81	1331.18
736.99	1398.76
737.17	1427.43
737.35	1355.76
737.53	1359.85
737.71	1316.84
737.89	1355.76
738.07	1376.24
738.25	1308.65
738.43	1417.19
738.61	1322.99
738.80	1347.56
738.98	1392.62
739.16	1402.86
739.34	1300.46
739.52	1370.09
739.70	1312.75
739.88	1404.91
740.06	1400.81
740.24	1320.94
740.42	1392.62
740.60	1357.80
740.78	1341.42
740.96	1366.00
741.14	1386.47
741.32	1409.00
741.50	1300.46
741.68	1417.19
741.86	1425.39
742.04	1417.19
742.22	1425.39
742.40	1273.84
742.58	1396.71
742.76	1361.90
742.94	1431.53
743.12	1370.09
743.30	1411.05
743.48	1458.15
743.66	1400.81
743.84	1396.71
744.02	1380.33
744.20	1357.80
744.38	1339.37
744.56	1318.89
744.74	1345.52
744.92	1380.33
745.10	1499.11
745.28	1454.06
745.46	1413.10
745.64	1376.24
745.82	1466.35
746.00	1392.62
746.18	1363.95
746.36	1329.13
746.54	1390.57
746.72	1386.47
746.90	1339.37
747.08	1492.97
747.26	1265.64
747.44	1470.44
747.62	1417.19
747.80	1394.67
747.98	1409.00
748.15	1355.76
748.33	1468.39
748.51	1400.81
748.69	1363.95
748.87	1376.24
749.05	1476.59
749.23	1415.15
749.41	1458.15
749.59	1413.10
749.77	1415.15
749.95	1452.01
750.13	1318.89
750.31	1427.43
750.49	1273.84
750.67	1392.62
750.85	1423.34
751.03	1394.67
751.20	1355.76
751.38	1411.05
751.56	1368.04
751.74	1423.34
751.92	1339.37
752.10	1355.76
752.28	1427.43
752.46	1232.88
752.64	1331.18
752.82	1388.52
753.00	1384.43
753.18	1273.84
753.35	1296.36
753.53	1363.95
753.71	1298.41
753.89	1382.38
754.07	1411.05
754.25	1394.67
754.43	1468.39
754.61	1366.00
754.79	1417.19
754.97	1353.71
755.14	1462.25
755.32	1267.69
755.50	1384.43
755.68	1363.95
755.86	1327.08
756.04	1374.19
756.22	1279.98
756.40	1355.76
756.57	1413.10
756.75	1445.87
756.93	1517.54
757.11	1396.71
757.29	1322.99
757.47	1308.65
757.65	1349.61
757.82	1279.98
758.00	1386.47
758.18	1359.85
758.36	1337.32
758.54	1402.86
758.72	1302.51
758.90	1382.38
759.07	1345.52
759.25	1351.66
759.43	1400.81
759.61	1355.76
759.79	1669.09
759.97	1421.29
760.15	1361.90
760.32	1339.37
760.50	1337.32
760.68	1443.82
760.86	1325.04
761.04	1363.95
761.22	1409.00
761.39	1370.09
761.57	1400.81
761.75	1396.71
761.93	1312.75
762.11	1347.56
762.28	1361.90
762.46	1382.38
762.64	1409.00
762.82	1263.60
763.00	1374.19
763.18	1447.91
763.35	1347.56
763.53	1396.71
763.71	1351.66
763.89	1390.57
764.07	1392.62
764.24	1390.57
764.42	1400.81
764.60	1359.85
764.78	1370.09
764.96	1454.06
765.13	1439.72
765.31	1296.36
765.49	1374.19
765.67	1368.04
765.84	1316.84
766.02	1349.61
766.20	1304.56
766.38	1347.56
766.56	1449.96
766.73	1372.14
766.91	1355.76
767.09	1363.95
767.27	1396.71
767.44	1306.60
767.62	1361.90
767.80	1406.95
767.98	1351.66
768.15	1355.76
768.33	1320.94
768.51	1355.76
768.69	1386.47
768.87	1398.76
769.04	1347.56
769.22	1437.67
769.40	1468.39
769.58	1468.39
769.75	1413.10
769.93	1384.43
770.11	1310.70
770.28	1388.52
770.46	1406.95
770.64	1396.71
770.82	1327.08
770.99	1343.47
771.17	1433.58
771.35	1351.66
771.53	1329.13
771.70	1363.95
771.88	1417.19
772.06	1370.09
772.23	1343.47
772.41	1396.71
772.59	1449.96
772.77	1247.21
772.94	1392.62
773.12	1429.48
773.30	1378.28
773.47	1357.80
773.65	1409.00
773.83	1402.86
774.01	1329.13
774.18	1292.27
774.36	1396.71
774.54	1329.13
774.71	1411.05
774.89	1318.89
775.07	1279.98
775.24	1345.52
775.42	1265.64
775.60	1421.29
775.78	1392.62
775.95	1425.39
776.13	1370.09
776.31	1282.03
776.48	1363.95
776.66	1452.01
776.84	1396.71
777.01	1325.04
777.19	1232.88
777.37	1368.04
777.54	1388.52
777.72	1488.87
777.90	1382.38
778.07	1384.43
778.25	1466.35
778.43	1384.43
778.60	1335.28
778.78	1417.19
778.96	1374.19
779.13	1406.95
779.31	1345.52
779.49	1462.25
779.66	1398.76
779.84	1398.76
780.01	1349.61
780.19	1306.60
780.37	1406.95
780.54	1419.24
780.72	1320.94
780.90	1296.36
781.07	1304.56
781.25	1363.95
781.43	1394.67
781.60	1351.66
781.78	1402.86
781.95	1413.10
782.13	1372.14
782.31	1374.19
782.48	1261.55
782.66	1417.19
782.83	1398.76
783.01	1366.00
783.19	1486.83
783.36	1454.06
783.54	1390.57
783.72	1490.92
783.89	1380.33
784.07	1322.99
784.24	1349.61
784.42	1441.77
784.60	1392.62
784.77	1445.87
784.95	1286.12
785.12	1316.84
785.30	1329.13
785.47	1331.18
785.65	1337.32
785.83	1421.29
786.00	1366.00
786.18	1392.62
786.35	1355.76
786.53	1388.52
786.71	1380.33
786.88	1380.33
787.06	1357.80
787.23	1325.04
787.41	1294.32
787.58	1341.42
787.76	1351.66
787.94	1402.86
788.11	1417.19
788.29	1308.65
788.46	1284.08
788.64	1339.37
788.81	1345.52
788.99	1335.28
789.16	1339.37
789.34	1331.18
789.52	1445.87
789.69	1341.42
789.87	1347.56
790.04	1314.80
790.22	1366.00
790.39	1454.06
790.57	1361.90
790.74	1341.42
790.92	1394.67
791.09	1345.52
791.27	1335.28
791.44	1415.15
791.62	1411.05
791.79	1378.28
791.97	1331.18
792.15	1507.30
792.32	1392.62
792.50	1390.57
792.67	1423.34
792.85	1339.37
793.02	1286.12
793.20	1329.13
793.37	1320.94
793.55	1282.03
793.72	1322.99
793.90	1374.19
794.07	1290.22
794.25	1294.32
794.42	1454.06
794.60	1349.61
794.77	1341.42
794.95	1368.04
795.12	1345.52
795.30	1374.19
795.47	1298.41
795.65	1497.07
795.82	1345.52
796.00	1343.47
796.17	1341.42
796.34	1361.90
796.52	1316.84
796.69	1345.52
796.87	1349.61
797.04	1468.39
797.22	1449.96
797.39	1486.83
797.57	1417.19
797.74	1361.90
797.92	1392.62
798.09	1398.76
798.27	1380.33
798.44	1388.52
798.62	1363.95
798.79	1374.19
798.96	1368.04
799.14	1396.71
799.31	1423.34
799.49	1394.67
799.66	1351.66
799.84	1339.37
800.01	1347.56
800.19	1386.47
800.36	1423.34
800.53	1353.71
800.71	1394.67
800.88	1423.34
801.06	1388.52
801.23	1404.91
801.41	1382.38
801.58	1359.85
801.75	1337.32
801.93	1452.01
802.10	1366.00
802.28	1314.80
802.45	1384.43
802.63	1441.77
802.80	1413.10
802.97	1349.61
803.15	1335.28
803.32	1394.67
803.50	1406.95
803.67	1310.70
803.84	1273.84
804.02	1404.91
804.19	1384.43
804.37	1275.88
804.54	1404.91
804.71	1329.13
804.89	1419.24
805.06	1363.95
805.24	1282.03
805.41	1345.52
805.58	1363.95
805.76	1462.25
805.93	1419.24
806.10	1439.72
806.28	1376.24
806.45	1359.85
806.63	1466.35
806.80	1339.37
806.97	1275.88
807.15	1462.25
807.32	1409.00
807.49	1329.13
807.67	1341.42
807.84	1382.38
808.01	1343.47
808.19	1480.68
808.36	1529.83
808.54	1370.09
808.71	1267.69
808.88	1347.56
809.06	1366.00
809.23	1490.92
809.40	1314.80
809.58	1429.48
809.75	1398.76
809.92	1320.94
810.10	1431.53
810.27	1345.52
810.44	1404.91
810.62	1382.38
810.79	1388.52
810.96	1368.04
811.14	1341.42
811.31	1400.81
811.48	1353.71
811.66	1404.91
811.83	1449.96
812.00	1411.05
812.18	1409.00
812.35	1429.48
812.52	1363.95
812.69	1337.32
812.87	1322.99
813.04	1366.00
813.21	1304.56
813.39	1351.66
813.56	1366.00
813.73	1329.13
813.91	1335.28
814.08	1423.34
814.25	1394.67
814.42	1320.94
814.60	1402.86
814.77	1363.95
814.94	1314.80
815.12	1413.10
815.29	1431.53
815.46	1380.33
815.63	1357.80
815.81	1386.47
815.98	1282.03
816.15	1333.23
816.33	1329.13
816.50	1345.52
816.67	1251.31
816.84	1335.28
817.02	1316.84
817.19	1353.71
817.36	1380.33
817.53	1372.14
817.71	1382.38
817.88	1435.63
818.05	1322.99
818.22	1374.19
818.40	1417.19
818.57	1339.37
818.74	1437.67
818.91	1353.71
819.09	1359.85
819.26	1351.66
819.43	1374.19
819.60	1322.99
819.78	1396.71
819.95	1396.71
820.12	1308.65
820.29	1351.66
820.47	1386.47
820.64	1368.04
820.81	1327.08
820.98	1310.70
821.15	1304.56
821.33	1421.29
821.50	1314.80
821.67	1464.30
821.84	1331.18
822.02	1347.56
822.19	1363.95
822.36	1359.85
822.53	1404.91
822.70	1306.60
822.88	1341.42
823.05	1347.56
823.22	1331.18
823.39	1380.33
823.56	1390.57
823.74	1415.15
823.91	1294.32
824.08	1329.13
824.25	1308.65
824.42	1380.33
824.60	1349.61
824.77	1384.43
824.94	1437.67
825.11	1423.34
825.28	1374.19
825.45	1331.18
825.63	1415.15
825.80	1331.18
825.97	1355.76
826.14	1402.86
826.31	1388.52
826.48	1398.76
826.66	1333.23
826.83	1292.27
827.00	1370.09
827.17	1318.89
827.34	1394.67
827.51	1325.04
827.69	1366.00
827.86	1314.80
828.03	1437.67
828.20	1398.76
828.37	1363.95
828.54	1380.33
828.71	1386.47
828.89	1443.82
829.06	1345.52
829.23	1417.19
829.40	1368.04
829.57	1333.23
829.74	1425.39
829.91	1386.47
830.09	1296.36
830.26	1402.86
830.43	1458.15
830.60	1386.47
830.77	1486.83
830.94	1320.94
831.11	1378.28
831.28	1355.76
831.46	1333.23
831.63	1392.62
831.80	1411.05
831.97	1380.33
832.14	1433.58
832.31	1396.71
832.48	1394.67
832.65	1351.66
832.82	1333.23
832.99	1378.28
833.17	1322.99
833.34	1449.96
833.51	1363.95
833.68	1339.37
833.85	1417.19
834.02	1353.71
834.19	1329.13
834.36	1351.66
834.53	1329.13
834.70	1374.19
834.87	1458.15
835.04	1290.22
835.22	1345.52
835.39	1316.84
835.56	1376.24
835.73	1402.86
835.90	1417.19
836.07	1314.80
836.24	1382.38
836.41	1290.22
836.58	1329.13
836.75	1441.77
836.92	1304.56
837.09	1320.94
837.26	1449.96
837.43	1361.90
837.60	1349.61
837.77	1327.08
837.94	1380.33
838.12	1396.71
838.29	1413.10
838.46	1292.27
838.63	1318.89
838.80	1380.33
838.97	1417.19
839.14	1306.60
839.31	1374.19
839.48	1347.56
839.65	1273.84
839.82	1366.00
839.99	1427.43
840.16	1314.80
840.33	1380.33
840.50	1427.43
840.67	1273.84
840.84	1370.09
841.01	1392.62
841.18	1423.34
841.35	1353.71
841.52	1378.28
841.69	1449.96
841.86	1409.00
842.03	1435.63
842.20	1429.48
842.37	1368.04
842.54	1363.95
842.71	1380.33
842.88	1343.47
843.05	1435.63
843.22	1351.66
843.39	1406.95
843.56	1419.24
843.73	1327.08
843.90	1347.56
844.07	1335.28
844.24	1353.71
844.41	1419.24
844.58	1437.67
844.75	1331.18
844.92	1404.91
845.09	1445.87
845.26	1341.42
845.43	1370.09
845.60	1273.84
845.77	1404.91
845.94	1417.19
846.10	1368.04
846.27	1294.32
846.44	1355.76
846.61	1355.76
846.78	1327.08
846.95	1312.75
847.12	1400.81
847.29	1331.18
847.46	1343.47
847.63	1325.04
847.80	1314.80
847.97	1370.09
848.14	1415.15
848.31	1355.76
848.48	1314.80
848.65	1331.18
848.82	1400.81
848.98	1411.05
849.15	1425.39
849.32	1439.72
849.49	1396.71
849.66	1300.46
849.83	1413.10
850.00	1306.60
850.17	1431.53
850.34	1308.65
850.51	1333.23
850.68	1341.42
850.85	1433.58
851.01	1353.71
851.18	1447.91
851.35	1388.52
851.52	1282.03
851.69	1376.24
851.86	1241.07
852.03	1347.56
852.20	1339.37
852.37	1341.42
852.53	1357.80
852.70	1327.08
852.87	1413.10
853.04	1345.52
853.21	1388.52
853.38	1359.85
853.55	1341.42
853.72	1406.95
853.89	1404.91
854.05	1333.23
854.22	1386.47
854.39	1357.80
854.56	1335.28
854.73	1386.47
854.90	1300.46
855.07	1363.95
855.23	1302.51
855.40	1359.85
855.57	1345.52
855.74	1292.27
855.91	1488.87
856.08	1359.85
856.25	1316.84
856.41	1402.86
856.58	1312.75
856.75	1368.04
856.92	1331.18
857.09	1351.66
857.26	1318.89
857.42	1404.91
857.59	1347.56
857.76	1331.18
857.93	1366.00
858.10	1382.38
858.27	1382.38
858.43	1419.24
858.60	1339.37
858.77	1286.12
858.94	1331.18
859.11	1402.86
859.27	1376.24
859.44	1454.06
859.61	1427.43
859.78	1372.14
859.95	1351.66
860.12	1402.86
860.28	1445.87
860.45	1411.05
860.62	1357.80
860.79	1427.43
860.95	1275.88
861.12	1298.41
861.29	1392.62
861.46	1286.12
861.63	1394.67
861.79	1452.01
861.96	1355.76
862.13	1400.81
862.30	1378.28
862.47	1363.95
862.63	1413.10
862.80	1366.00
862.97	1415.15
863.14	1390.57
863.30	1423.34
863.47	1355.76
863.64	1396.71
863.81	1413.10
863.97	1335.28
864.14	1382.38
864.31	1345.52
864.48	1388.52
864.65	1400.81
864.81	1429.48
864.98	1425.39
865.15	1372.14
865.32	1361.90
865.48	1409.00
865.65	1374.19
865.82	1331.18
865.98	1400.81
866.15	1402.86
866.32	1409.00
866.49	1253.36
866.65	1404.91
866.82	1376.24
866.99	1378.28
867.16	1382.38
867.32	1476.59
867.49	1361.90
867.66	1392.62
867.83	1335.28
867.99	1312.75
868.16	1318.89
868.33	1296.36
868.49	1320.94
868.66	1327.08
868.83	1341.42
868.99	1370.09
869.16	1419.24
869.33	1423.34
869.50	1443.82
869.66	1396.71
869.83	1384.43
870.00	1341.42
870.16	1400.81
870.33	1349.61
870.50	1359.85
870.66	1376.24
870.83	1402.86
871.00	1357.80
871.17	1400.81
871.33	1372.14
871.50	1363.95
871.67	1394.67
871.83	1277.93
872.00	1271.79
872.17	1343.47
872.33	1433.58
872.50	1366.00
872.67	1282.03
872.83	1366.00
873.00	1378.28
873.17	1402.86
873.33	1343.47
873.50	1437.67
873.67	1353.71
873.83	1374.19
874.00	1355.76
874.16	1361.90
874.33	1355.76
874.50	1298.41
874.66	1398.76
874.83	1331.18
875.00	1384.43
875.16	1400.81
875.33	1462.25
875.50	1351.66
875.66	1329.13
875.83	1288.17
875.99	1452.01
876.16	1335.28
876.33	1310.70
876.49	1322.99
876.66	1376.24
876.83	1400.81
876.99	1310.70
877.16	1341.42
877.32	1314.80
877.49	1306.60
877.66	1378.28
877.82	1460.20
877.99	1271.79
878.15	1370.09
878.32	1355.76
878.49	1419.24
878.65	1374.19
878.82	1435.63
878.98	1316.84
879.15	1449.96
879.32	1423.34
879.48	1396.71
879.65	1390.57
879.81	1339.37
879.98	1349.61
880.15	1337.32
880.31	1415.15
880.48	1335.28
880.64	1396.71
880.81	1437.67
880.97	1400.81
881.14	1411.05
881.31	1345.52
881.47	1425.39
881.64	1245.16
881.80	1343.47
881.97	1413.10
882.13	1366.00
882.30	1343.47
882.47	1347.56
882.63	1337.32
882.80	1402.86
882.96	1306.60
883.13	1392.62
883.29	1302.51
883.46	1368.04
883.62	1435.63
883.79	1468.39
883.95	1386.47
884.12	1351.66
884.29	1396.71
884.45	1388.52
884.62	1445.87
884.78	1300.46
884.95	1384.43
885.11	1298.41
885.28	1335.28
885.44	1345.52
885.61	1425.39
885.77	1380.33
885.94	1456.11
886.10	1394.67
886.27	1398.76
886.43	1390.57
886.60	1427.43
886.76	1392.62
886.93	1331.18
887.09	1312.75
887.26	1335.28
887.42	1394.67
887.59	1406.95
887.75	1396.71
887.92	1486.83
888.08	1368.04
888.25	1486.83
888.41	1411.05
888.58	1300.46
888.74	1290.22
888.91	1296.36
>>>>>End Processed Spectral Data<<<<<
