SpectraSuite Data File
++++++++++++++++++++++++++++++++++++
Date: Tue May 03 11:24:49 CEST 2016
User: root
Dark Spectrum Present: No
Reference Spectrum Present: No
Number of Sampled Component Spectra: 1
Spectrometers: USB4C02835
Integration Time (usec): 100000 (USB4C02835)
Spectra Averaged: 1 (USB4C02835)
Boxcar Smoothing: 0 (USB4C02835)
Correct for Electrical Dark: No (USB4C02835)
Strobe/Lamp Enabled: No (USB4C02835)
Correct for Detector Non-linearity: No (USB4C02835)
Correct for Stray Light: No (USB4C02835)
Number of Pixels in Processed Spectrum: 3648
>>>>>Begin Processed Spectral Data<<<<<
177.47	1193.97
177.69	1193.97
177.91	1193.97
178.13	1198.06
178.36	1230.83
178.58	1335.28
178.80	1357.80
179.02	1282.03
179.24	1388.52
179.46	1390.57
179.68	1482.73
179.90	1382.38
180.13	1292.27
180.35	1341.42
180.57	1322.99
180.79	1366.00
181.01	1394.67
181.23	1382.38
181.45	1378.28
181.67	1335.28
181.90	1406.95
182.12	1320.94
182.34	1335.28
182.56	1394.67
182.78	1374.19
183.00	1368.04
183.22	1406.95
183.44	1269.74
183.66	1515.50
183.89	1495.02
184.11	1320.94
184.33	1368.04
184.55	1372.14
184.77	1357.80
184.99	1380.33
185.21	1349.61
185.43	1501.16
185.65	1347.56
185.87	1421.29
186.10	1447.91
186.32	1427.43
186.54	1411.05
186.76	1400.81
186.98	1394.67
187.20	1327.08
187.42	1351.66
187.64	1388.52
187.86	1343.47
188.08	1343.47
188.30	1347.56
188.52	1337.32
188.75	1402.86
188.97	1425.39
189.19	1425.39
189.41	1331.18
189.63	1335.28
189.85	1304.56
190.07	1335.28
190.29	1320.94
190.51	1355.76
190.73	1273.84
190.95	1437.67
191.17	1325.04
191.39	1249.26
191.61	1363.95
191.84	1347.56
192.06	1325.04
192.28	1318.89
192.50	1427.43
192.72	1370.09
192.94	1411.05
193.16	1406.95
193.38	1322.99
193.60	1425.39
193.82	1310.70
194.04	1396.71
194.26	1370.09
194.48	1378.28
194.70	1357.80
194.92	1267.69
195.14	1347.56
195.36	1376.24
195.58	1370.09
195.80	1366.00
196.02	1308.65
196.24	1411.05
196.46	1374.19
196.69	1396.71
196.91	1431.53
197.13	1349.61
197.35	1310.70
197.57	1421.29
197.79	1361.90
198.01	1355.76
198.23	1406.95
198.45	1359.85
198.67	1382.38
198.89	1390.57
199.11	1335.28
199.33	1294.32
199.55	1292.27
199.77	1372.14
199.99	1384.43
200.21	1327.08
200.43	1370.09
200.65	1298.41
200.87	1282.03
201.09	1445.87
201.31	1359.85
201.53	1400.81
201.75	1423.34
201.97	1421.29
202.19	1351.66
202.41	1454.06
202.63	1425.39
202.85	1427.43
203.07	1353.71
203.29	1337.32
203.51	1286.12
203.73	1322.99
203.95	1470.44
204.17	1374.19
204.39	1374.19
204.61	1290.22
204.83	1378.28
205.05	1380.33
205.27	1445.87
205.49	1425.39
205.71	1368.04
205.93	1341.42
206.15	1380.33
206.37	1341.42
206.59	1380.33
206.81	1290.22
207.03	1343.47
207.25	1314.80
207.47	1452.01
207.69	1411.05
207.91	1476.59
208.13	1396.71
208.34	1394.67
208.56	1406.95
208.78	1402.86
209.00	1366.00
209.22	1368.04
209.44	1345.52
209.66	1339.37
209.88	1421.29
210.10	1349.61
210.32	1339.37
210.54	1396.71
210.76	1339.37
210.98	1390.57
211.20	1232.88
211.42	1423.34
211.64	1443.82
211.86	1431.53
212.08	1386.47
212.30	1370.09
212.52	1404.91
212.74	1363.95
212.96	1376.24
213.17	1443.82
213.39	1349.61
213.61	1327.08
213.83	1390.57
214.05	1345.52
214.27	1368.04
214.49	1380.33
214.71	1376.24
214.93	1353.71
215.15	1320.94
215.37	1413.10
215.59	1290.22
215.81	1452.01
216.03	1357.80
216.24	1347.56
216.46	1386.47
216.68	1343.47
216.90	1388.52
217.12	1449.96
217.34	1353.71
217.56	1335.28
217.78	1404.91
218.00	1409.00
218.22	1427.43
218.44	1363.95
218.66	1355.76
218.87	1409.00
219.09	1388.52
219.31	1429.48
219.53	1382.38
219.75	1368.04
219.97	1357.80
220.19	1380.33
220.41	1353.71
220.63	1417.19
220.85	1402.86
221.06	1359.85
221.28	1355.76
221.50	1439.72
221.72	1370.09
221.94	1382.38
222.16	1456.11
222.38	1439.72
222.60	1427.43
222.82	1310.70
223.03	1314.80
223.25	1294.32
223.47	1423.34
223.69	1486.83
223.91	1449.96
224.13	1363.95
224.35	1337.32
224.57	1472.49
224.78	1400.81
225.00	1329.13
225.22	1294.32
225.44	1353.71
225.66	1472.49
225.88	1322.99
226.10	1423.34
226.32	1351.66
226.53	1417.19
226.75	1363.95
226.97	1318.89
227.19	1347.56
227.41	1288.17
227.63	1275.88
227.85	1388.52
228.06	1286.12
228.28	1341.42
228.50	1421.29
228.72	1261.55
228.94	1331.18
229.16	1257.45
229.37	1366.00
229.59	1347.56
229.81	1402.86
230.03	1282.03
230.25	1361.90
230.47	1322.99
230.69	1337.32
230.90	1366.00
231.12	1382.38
231.34	1304.56
231.56	1435.63
231.78	1353.71
232.00	1370.09
232.21	1396.71
232.43	1329.13
232.65	1376.24
232.87	1337.32
233.09	1271.79
233.30	1304.56
233.52	1427.43
233.74	1368.04
233.96	1382.38
234.18	1447.91
234.40	1409.00
234.61	1468.39
234.83	1363.95
235.05	1335.28
235.27	1406.95
235.49	1347.56
235.70	1368.04
235.92	1417.19
236.14	1474.54
236.36	1458.15
236.58	1359.85
236.79	1419.24
237.01	1349.61
237.23	1349.61
237.45	1402.86
237.67	1361.90
237.88	1380.33
238.10	1445.87
238.32	1310.70
238.54	1343.47
238.76	1361.90
238.97	1400.81
239.19	1327.08
239.41	1384.43
239.63	1366.00
239.85	1320.94
240.06	1273.84
240.28	1337.32
240.50	1427.43
240.72	1376.24
240.93	1363.95
241.15	1357.80
241.37	1343.47
241.59	1355.76
241.81	1384.43
242.02	1331.18
242.24	1374.19
242.46	1417.19
242.68	1406.95
242.89	1378.28
243.11	1355.76
243.33	1374.19
243.55	1353.71
243.76	1378.28
243.98	1329.13
244.20	1357.80
244.42	1390.57
244.64	1322.99
244.85	1331.18
245.07	1292.27
245.29	1406.95
245.51	1314.80
245.72	1404.91
245.94	1357.80
246.16	1421.29
246.38	1456.11
246.59	1374.19
246.81	1282.03
247.03	1337.32
247.24	1341.42
247.46	1327.08
247.68	1353.71
247.90	1427.43
248.11	1402.86
248.33	1449.96
248.55	1361.90
248.77	1290.22
248.98	1386.47
249.20	1486.83
249.42	1384.43
249.64	1449.96
249.85	1400.81
250.07	1329.13
250.29	1351.66
250.50	1433.58
250.72	1339.37
250.94	1476.59
251.16	1429.48
251.37	1396.71
251.59	1343.47
251.81	1361.90
252.02	1517.54
252.24	1368.04
252.46	1417.19
252.68	1339.37
252.89	1351.66
253.11	1263.60
253.33	1411.05
253.54	1380.33
253.76	1277.93
253.98	1366.00
254.20	1384.43
254.41	1257.45
254.63	1322.99
254.85	1286.12
255.06	1333.23
255.28	1304.56
255.50	1335.28
255.71	1433.58
255.93	1409.00
256.15	1355.76
256.36	1431.53
256.58	1382.38
256.80	1394.67
257.02	1370.09
257.23	1441.77
257.45	1351.66
257.67	1454.06
257.88	1318.89
258.10	1366.00
258.32	1402.86
258.53	1376.24
258.75	1378.28
258.97	1329.13
259.18	1347.56
259.40	1345.52
259.62	1413.10
259.83	1443.82
260.05	1421.29
260.27	1558.50
260.48	1374.19
260.70	1345.52
260.92	1316.84
261.13	1374.19
261.35	1347.56
261.57	1409.00
261.78	1331.18
262.00	1322.99
262.22	1374.19
262.43	1339.37
262.65	1345.52
262.86	1347.56
263.08	1476.59
263.30	1357.80
263.51	1302.51
263.73	1302.51
263.95	1435.63
264.16	1376.24
264.38	1363.95
264.60	1413.10
264.81	1404.91
265.03	1335.28
265.25	1415.15
265.46	1411.05
265.68	1458.15
265.89	1437.67
266.11	1273.84
266.33	1460.20
266.54	1359.85
266.76	1347.56
266.98	1411.05
267.19	1376.24
267.41	1388.52
267.62	1458.15
267.84	1331.18
268.06	1413.10
268.27	1386.47
268.49	1415.15
268.70	1429.48
268.92	1406.95
269.14	1322.99
269.35	1361.90
269.57	1335.28
269.79	1376.24
270.00	1300.46
270.22	1341.42
270.43	1376.24
270.65	1374.19
270.87	1392.62
271.08	1406.95
271.30	1427.43
271.51	1468.39
271.73	1396.71
271.95	1443.82
272.16	1335.28
272.38	1392.62
272.59	1312.75
272.81	1394.67
273.02	1406.95
273.24	1331.18
273.46	1370.09
273.67	1363.95
273.89	1296.36
274.10	1337.32
274.32	1417.19
274.54	1349.61
274.75	1333.23
274.97	1409.00
275.18	1425.39
275.40	1357.80
275.61	1343.47
275.83	1374.19
276.05	1355.76
276.26	1363.95
276.48	1388.52
276.69	1404.91
276.91	1394.67
277.12	1372.14
277.34	1396.71
277.55	1353.71
277.77	1392.62
277.99	1343.47
278.20	1335.28
278.42	1282.03
278.63	1304.56
278.85	1417.19
279.06	1337.32
279.28	1396.71
279.49	1370.09
279.71	1361.90
279.93	1368.04
280.14	1286.12
280.36	1306.60
280.57	1394.67
280.79	1368.04
281.00	1376.24
281.22	1415.15
281.43	1411.05
281.65	1284.08
281.86	1361.90
282.08	1339.37
282.29	1429.48
282.51	1368.04
282.73	1296.36
282.94	1320.94
283.16	1349.61
283.37	1472.49
283.59	1337.32
283.80	1331.18
284.02	1316.84
284.23	1312.75
284.45	1368.04
284.66	1398.76
284.88	1382.38
285.09	1359.85
285.31	1402.86
285.52	1402.86
285.74	1363.95
285.95	1406.95
286.17	1406.95
286.38	1351.66
286.60	1425.39
286.81	1353.71
287.03	1370.09
287.24	1372.14
287.46	1384.43
287.67	1333.23
287.89	1413.10
288.10	1318.89
288.32	1347.56
288.53	1400.81
288.75	1439.72
288.96	1357.80
289.18	1329.13
289.39	1347.56
289.61	1425.39
289.82	1409.00
290.04	1476.59
290.25	1384.43
290.47	1372.14
290.68	1372.14
290.90	1390.57
291.11	1290.22
291.33	1374.19
291.54	1347.56
291.76	1351.66
291.97	1386.47
292.18	1384.43
292.40	1343.47
292.61	1269.74
292.83	1388.52
293.04	1388.52
293.26	1388.52
293.47	1296.36
293.69	1394.67
293.90	1322.99
294.12	1380.33
294.33	1374.19
294.55	1325.04
294.76	1421.29
294.97	1478.63
295.19	1462.25
295.40	1343.47
295.62	1325.04
295.83	1445.87
296.05	1359.85
296.26	1421.29
296.48	1345.52
296.69	1294.32
296.90	1396.71
297.12	1441.77
297.33	1357.80
297.55	1286.12
297.76	1382.38
297.98	1529.83
298.19	1329.13
298.41	1343.47
298.62	1306.60
298.83	1341.42
299.05	1372.14
299.26	1341.42
299.48	1245.16
299.69	1368.04
299.90	1355.76
300.12	1294.32
300.33	1355.76
300.55	1298.41
300.76	1456.11
300.98	1320.94
301.19	1404.91
301.40	1337.32
301.62	1337.32
301.83	1431.53
302.05	1363.95
302.26	1337.32
302.47	1372.14
302.69	1294.32
302.90	1468.39
303.12	1333.23
303.33	1423.34
303.54	1398.76
303.76	1361.90
303.97	1402.86
304.19	1378.28
304.40	1271.79
304.61	1462.25
304.83	1388.52
305.04	1423.34
305.26	1368.04
305.47	1357.80
305.68	1402.86
305.90	1308.65
306.11	1376.24
306.33	1327.08
306.54	1409.00
306.75	1368.04
306.97	1294.32
307.18	1296.36
307.39	1374.19
307.61	1345.52
307.82	1335.28
308.04	1413.10
308.25	1439.72
308.46	1492.97
308.68	1310.70
308.89	1347.56
309.10	1392.62
309.32	1406.95
309.53	1325.04
309.74	1388.52
309.96	1382.38
310.17	1396.71
310.39	1292.27
310.60	1376.24
310.81	1423.34
311.03	1282.03
311.24	1347.56
311.45	1400.81
311.67	1423.34
311.88	1445.87
312.09	1343.47
312.31	1355.76
312.52	1374.19
312.73	1286.12
312.95	1347.56
313.16	1306.60
313.37	1382.38
313.59	1429.48
313.80	1316.84
314.01	1523.69
314.23	1349.61
314.44	1419.24
314.65	1322.99
314.87	1335.28
315.08	1347.56
315.29	1372.14
315.51	1409.00
315.72	1376.24
315.93	1443.82
316.15	1394.67
316.36	1406.95
316.57	1380.33
316.79	1447.91
317.00	1368.04
317.21	1390.57
317.43	1296.36
317.64	1335.28
317.85	1384.43
318.07	1513.45
318.28	1488.87
318.49	1589.22
318.70	1619.94
318.92	1509.35
319.13	1497.07
319.34	1511.40
319.56	1466.35
319.77	1521.64
319.98	1417.19
320.20	1441.77
320.41	1425.39
320.62	1404.91
320.83	1300.46
321.05	1466.35
321.26	1372.14
321.47	1409.00
321.69	1421.29
321.90	1329.13
322.11	1368.04
322.32	1345.52
322.54	1417.19
322.75	1318.89
322.96	1490.92
323.18	1329.13
323.39	1286.12
323.60	1296.36
323.81	1390.57
324.03	1370.09
324.24	1290.22
324.45	1378.28
324.66	1314.80
324.88	1359.85
325.09	1501.16
325.30	1376.24
325.52	1310.70
325.73	1447.91
325.94	1378.28
326.15	1366.00
326.37	1320.94
326.58	1333.23
326.79	1419.24
327.00	1298.41
327.22	1284.08
327.43	1314.80
327.64	1335.28
327.85	1447.91
328.07	1304.56
328.28	1370.09
328.49	1310.70
328.70	1400.81
328.92	1333.23
329.13	1380.33
329.34	1382.38
329.55	1435.63
329.76	1392.62
329.98	1351.66
330.19	1363.95
330.40	1423.34
330.61	1312.75
330.83	1341.42
331.04	1296.36
331.25	1382.38
331.46	1355.76
331.68	1339.37
331.89	1329.13
332.10	1345.52
332.31	1333.23
332.52	1304.56
332.74	1478.63
332.95	1333.23
333.16	1419.24
333.37	1378.28
333.58	1382.38
333.80	1359.85
334.01	1353.71
334.22	1351.66
334.43	1394.67
334.64	1349.61
334.86	1329.13
335.07	1361.90
335.28	1421.29
335.49	1304.56
335.70	1386.47
335.92	1400.81
336.13	1423.34
336.34	1441.77
336.55	1363.95
336.76	1347.56
336.98	1335.28
337.19	1394.67
337.40	1439.72
337.61	1486.83
337.82	1386.47
338.04	1325.04
338.25	1372.14
338.46	1355.76
338.67	1409.00
338.88	1437.67
339.09	1353.71
339.31	1409.00
339.52	1357.80
339.73	1279.98
339.94	1353.71
340.15	1341.42
340.36	1302.51
340.58	1421.29
340.79	1353.71
341.00	1370.09
341.21	1437.67
341.42	1394.67
341.63	1411.05
341.85	1439.72
342.06	1359.85
342.27	1388.52
342.48	1404.91
342.69	1327.08
342.90	1345.52
343.12	1515.50
343.33	1306.60
343.54	1353.71
343.75	1304.56
343.96	1372.14
344.17	1366.00
344.38	1390.57
344.60	1392.62
344.81	1353.71
345.02	1339.37
345.23	1411.05
345.44	1478.63
345.65	1382.38
345.86	1335.28
346.07	1347.56
346.29	1392.62
346.50	1374.19
346.71	1429.48
346.92	1398.76
347.13	1402.86
347.34	1476.59
347.55	1349.61
347.76	1320.94
347.98	1241.07
348.19	1394.67
348.40	1351.66
348.61	1425.39
348.82	1406.95
349.03	1427.43
349.24	1333.23
349.45	1396.71
349.66	1392.62
349.88	1443.82
350.09	1337.32
350.30	1376.24
350.51	1413.10
350.72	1349.61
350.93	1427.43
351.14	1322.99
351.35	1413.10
351.56	1380.33
351.77	1361.90
351.99	1417.19
352.20	1460.20
352.41	1376.24
352.62	1329.13
352.83	1335.28
353.04	1480.68
353.25	1400.81
353.46	1398.76
353.67	1417.19
353.88	1300.46
354.09	1423.34
354.30	1296.36
354.52	1392.62
354.73	1357.80
354.94	1347.56
355.15	1368.04
355.36	1464.30
355.57	1378.28
355.78	1415.15
355.99	1359.85
356.20	1298.41
356.41	1376.24
356.62	1382.38
356.83	1345.52
357.04	1452.01
357.25	1290.22
357.46	1331.18
357.68	1343.47
357.89	1306.60
358.10	1314.80
358.31	1329.13
358.52	1304.56
358.73	1345.52
358.94	1331.18
359.15	1411.05
359.36	1404.91
359.57	1322.99
359.78	1411.05
359.99	1359.85
360.20	1269.74
360.41	1400.81
360.62	1396.71
360.83	1388.52
361.04	1411.05
361.25	1447.91
361.46	1400.81
361.67	1427.43
361.88	1392.62
362.09	1423.34
362.30	1392.62
362.51	1339.37
362.72	1398.76
362.93	1337.32
363.14	1398.76
363.35	1370.09
363.56	1327.08
363.78	1384.43
363.99	1413.10
364.20	1382.38
364.41	1374.19
364.62	1441.77
364.83	1359.85
365.04	1374.19
365.25	1363.95
365.46	1431.53
365.67	1351.66
365.88	1359.85
366.09	1335.28
366.30	1427.43
366.51	1343.47
366.72	1312.75
366.93	1390.57
367.14	1343.47
367.35	1443.82
367.56	1335.28
367.77	1429.48
367.98	1308.65
368.18	1333.23
368.39	1417.19
368.60	1359.85
368.81	1435.63
369.02	1320.94
369.23	1353.71
369.44	1359.85
369.65	1308.65
369.86	1351.66
370.07	1452.01
370.28	1347.56
370.49	1363.95
370.70	1427.43
370.91	1417.19
371.12	1378.28
371.33	1413.10
371.54	1388.52
371.75	1478.63
371.96	1359.85
372.17	1337.32
372.38	1370.09
372.59	1359.85
372.80	1320.94
373.01	1398.76
373.22	1423.34
373.43	1380.33
373.64	1398.76
373.85	1495.02
374.06	1390.57
374.26	1441.77
374.47	1431.53
374.68	1474.54
374.89	1310.70
375.10	1374.19
375.31	1368.04
375.52	1363.95
375.73	1384.43
375.94	1337.32
376.15	1419.24
376.36	1325.04
376.57	1322.99
376.78	1333.23
376.99	1347.56
377.20	1361.90
377.40	1333.23
377.61	1454.06
377.82	1413.10
378.03	1363.95
378.24	1423.34
378.45	1347.56
378.66	1441.77
378.87	1304.56
379.08	1327.08
379.29	1376.24
379.50	1404.91
379.71	1316.84
379.91	1431.53
380.12	1331.18
380.33	1374.19
380.54	1361.90
380.75	1409.00
380.96	1329.13
381.17	1452.01
381.38	1368.04
381.59	1400.81
381.80	1482.73
382.00	1466.35
382.21	1449.96
382.42	1445.87
382.63	1497.07
382.84	1445.87
383.05	1343.47
383.26	1466.35
383.47	1421.29
383.68	1406.95
383.88	1402.86
384.09	1361.90
384.30	1501.16
384.51	1458.15
384.72	1372.14
384.93	1339.37
385.14	1302.51
385.35	1492.97
385.55	1343.47
385.76	1413.10
385.97	1402.86
386.18	1337.32
386.39	1431.53
386.60	1464.30
386.81	1400.81
387.02	1396.71
387.22	1345.52
387.43	1404.91
387.64	1560.55
387.85	2283.49
388.06	5722.02
388.27	9592.69
388.48	11511.63
388.68	13268.79
388.89	13324.08
389.10	10639.20
389.31	9267.06
389.52	8454.02
389.73	7335.82
389.93	7100.31
390.14	6565.79
390.35	6043.56
390.56	5642.15
390.77	4476.86
390.98	3651.53
391.18	2822.10
391.39	2068.45
391.60	1699.81
391.81	1488.87
392.02	1380.33
392.23	1501.16
392.43	1443.82
392.64	1462.25
392.85	1419.24
393.06	1435.63
393.27	1437.67
393.47	1359.85
393.68	1409.00
393.89	1413.10
394.10	1398.76
394.31	1314.80
394.52	1359.85
394.72	1331.18
394.93	1454.06
395.14	1396.71
395.35	1374.19
395.56	1349.61
395.76	1486.83
395.97	1558.50
396.18	1611.75
396.39	1572.84
396.60	1626.09
396.80	1572.84
397.01	1503.21
397.22	1435.63
397.43	1486.83
397.64	1435.63
397.84	1435.63
398.05	1462.25
398.26	1437.67
398.47	1531.88
398.67	1421.29
398.88	1456.11
399.09	1411.05
399.30	1366.00
399.51	1421.29
399.71	1351.66
399.92	1423.34
400.13	1386.47
400.34	1327.08
400.54	1396.71
400.75	1345.52
400.96	1402.86
401.17	1435.63
401.37	1406.95
401.58	1361.90
401.79	1572.84
402.00	1703.91
402.21	1820.64
402.41	1820.64
402.62	1796.07
402.83	1751.01
403.04	1583.08
403.24	1740.77
403.45	1568.74
403.66	1638.38
403.87	1531.88
404.07	1593.32
404.28	1562.60
404.49	1601.51
404.70	1519.59
404.90	1402.86
405.11	1435.63
405.32	1390.57
405.52	1419.24
405.73	1331.18
405.94	1320.94
406.15	1339.37
406.35	1429.48
406.56	1337.32
406.77	1466.35
406.98	1417.19
407.18	1277.93
407.39	1431.53
407.60	1363.95
407.80	1437.67
408.01	1376.24
408.22	1396.71
408.43	1325.04
408.63	1380.33
408.84	1376.24
409.05	1437.67
409.25	1376.24
409.46	1325.04
409.67	1370.09
409.88	1392.62
410.08	1357.80
410.29	1404.91
410.50	1411.05
410.70	1413.10
410.91	1306.60
411.12	1363.95
411.32	1439.72
411.53	1390.57
411.74	1488.87
411.95	1456.11
412.15	1423.34
412.36	1400.81
412.57	1402.86
412.77	1523.69
412.98	1402.86
413.19	1431.53
413.39	1533.93
413.60	1433.58
413.81	1511.40
414.01	1372.14
414.22	1456.11
414.43	1490.92
414.63	1425.39
414.84	1396.71
415.05	1347.56
415.25	1372.14
415.46	1439.72
415.67	1439.72
415.87	1406.95
416.08	1376.24
416.29	1343.47
416.49	1423.34
416.70	1388.52
416.91	1210.35
417.11	1318.89
417.32	1372.14
417.53	1306.60
417.73	1388.52
417.94	1351.66
418.15	1435.63
418.35	1404.91
418.56	1435.63
418.77	1404.91
418.97	1363.95
419.18	1413.10
419.38	1329.13
419.59	1378.28
419.80	1370.09
420.00	1335.28
420.21	1363.95
420.42	1421.29
420.62	1361.90
420.83	1322.99
421.04	1351.66
421.24	1429.48
421.45	1413.10
421.65	1419.24
421.86	1327.08
422.07	1353.71
422.27	1361.90
422.48	1363.95
422.69	1304.56
422.89	1394.67
423.10	1312.75
423.30	1341.42
423.51	1308.65
423.72	1380.33
423.92	1411.05
424.13	1300.46
424.33	1370.09
424.54	1452.01
424.75	1316.84
424.95	1439.72
425.16	1378.28
425.36	1345.52
425.57	1318.89
425.78	1421.29
425.98	1337.32
426.19	1394.67
426.39	1382.38
426.60	1411.05
426.81	1447.91
427.01	1382.38
427.22	1396.71
427.42	1277.93
427.63	1417.19
427.83	1400.81
428.04	1435.63
428.25	1388.52
428.45	1449.96
428.66	1413.10
428.86	1406.95
429.07	1392.62
429.28	1345.52
429.48	1419.24
429.69	1306.60
429.89	1366.00
430.10	1396.71
430.30	1404.91
430.51	1302.51
430.71	1335.28
430.92	1322.99
431.13	1335.28
431.33	1378.28
431.54	1275.88
431.74	1398.76
431.95	1439.72
432.15	1355.76
432.36	1423.34
432.56	1314.80
432.77	1374.19
432.98	1415.15
433.18	1445.87
433.39	1376.24
433.59	1351.66
433.80	1406.95
434.00	1470.44
434.21	1310.70
434.41	1333.23
434.62	1427.43
434.82	1361.90
435.03	1304.56
435.23	1370.09
435.44	1359.85
435.64	1374.19
435.85	1366.00
436.06	1413.10
436.26	1382.38
436.47	1316.84
436.67	1382.38
436.88	1439.72
437.08	1423.34
437.29	1427.43
437.49	1413.10
437.70	1396.71
437.90	1468.39
438.11	1564.65
438.31	1503.21
438.52	1605.61
438.72	1544.17
438.93	1574.89
439.13	1437.67
439.34	1398.76
439.54	1419.24
439.75	1468.39
439.95	1495.02
440.16	1333.23
440.36	1349.61
440.57	1382.38
440.77	1380.33
440.98	1380.33
441.18	1421.29
441.39	1386.47
441.59	1349.61
441.80	1419.24
442.00	1368.04
442.21	1382.38
442.41	1304.56
442.62	1380.33
442.82	1411.05
443.02	1423.34
443.23	1564.65
443.43	1423.34
443.64	1462.25
443.84	1320.94
444.05	1380.33
444.25	1359.85
444.46	1394.67
444.66	1384.43
444.87	1460.20
445.07	1366.00
445.28	1351.66
445.48	1484.78
445.69	1382.38
445.89	1501.16
446.09	1499.11
446.30	2236.38
446.50	3770.31
446.71	4671.42
446.91	5396.40
447.12	5545.90
447.32	5066.67
447.53	4188.10
447.73	3702.73
447.93	3571.66
448.14	3221.45
448.34	2947.03
448.55	2713.56
448.75	2811.86
448.96	2678.74
449.16	2490.33
449.36	2207.71
449.57	1890.28
449.77	1722.34
449.98	1597.42
450.18	1482.73
450.39	1464.30
450.59	1419.24
450.79	1433.58
451.00	1431.53
451.20	1435.63
451.41	1464.30
451.61	1415.15
451.81	1347.56
452.02	1394.67
452.22	1320.94
452.43	1435.63
452.63	1279.98
452.84	1331.18
453.04	1314.80
453.24	1353.71
453.45	1355.76
453.65	1390.57
453.86	1361.90
454.06	1413.10
454.26	1343.47
454.47	1339.37
454.67	1439.72
454.87	1462.25
455.08	1345.52
455.28	1509.35
455.49	1396.71
455.69	1308.65
455.89	1400.81
456.10	1382.38
456.30	1337.32
456.51	1458.15
456.71	1386.47
456.91	1423.34
457.12	1329.13
457.32	1376.24
457.52	1318.89
457.73	1363.95
457.93	1456.11
458.14	1361.90
458.34	1314.80
458.54	1417.19
458.75	1417.19
458.95	1402.86
459.15	1353.71
459.36	1409.00
459.56	1394.67
459.76	1427.43
459.97	1304.56
460.17	1353.71
460.37	1376.24
460.58	1363.95
460.78	1398.76
460.99	1314.80
461.19	1361.90
461.39	1396.71
461.60	1417.19
461.80	1427.43
462.00	1464.30
462.21	1341.42
462.41	1339.37
462.61	1390.57
462.82	1368.04
463.02	1339.37
463.22	1390.57
463.43	1343.47
463.63	1347.56
463.83	1411.05
464.04	1312.75
464.24	1345.52
464.44	1382.38
464.64	1277.93
464.85	1404.91
465.05	1386.47
465.25	1374.19
465.46	1409.00
465.66	1433.58
465.86	1363.95
466.07	1429.48
466.27	1409.00
466.47	1361.90
466.68	1351.66
466.88	1361.90
467.08	1359.85
467.29	1318.89
467.49	1312.75
467.69	1419.24
467.89	1413.10
468.10	1370.09
468.30	1400.81
468.50	1454.06
468.71	1351.66
468.91	1304.56
469.11	1464.30
469.31	1282.03
469.52	1337.32
469.72	1415.15
469.92	1413.10
470.13	1392.62
470.33	1458.15
470.53	1662.95
470.73	2074.59
470.94	2289.63
471.14	2320.35
471.34	2443.23
471.54	2238.43
471.75	2060.26
471.95	1877.99
472.15	1855.46
472.36	1806.31
472.56	1765.35
472.76	1660.90
472.96	1720.29
473.17	1720.29
473.37	1640.42
473.57	1554.41
473.77	1556.46
473.98	1443.82
474.18	1460.20
474.38	1490.92
474.58	1339.37
474.79	1392.62
474.99	1370.09
475.19	1400.81
475.39	1357.80
475.60	1359.85
475.80	1486.83
476.00	1384.43
476.20	1357.80
476.41	1294.32
476.61	1462.25
476.81	1454.06
477.01	1380.33
477.21	1404.91
477.42	1470.44
477.62	1318.89
477.82	1310.70
478.02	1347.56
478.23	1343.47
478.43	1359.85
478.63	1366.00
478.83	1351.66
479.03	1400.81
479.24	1431.53
479.44	1427.43
479.64	1279.98
479.84	1253.36
480.04	1392.62
480.25	1413.10
480.45	1327.08
480.65	1322.99
480.85	1331.18
481.06	1368.04
481.26	1310.70
481.46	1382.38
481.66	1363.95
481.86	1257.45
482.06	1488.87
482.27	1437.67
482.47	1325.04
482.67	1372.14
482.87	1392.62
483.07	1394.67
483.28	1449.96
483.48	1322.99
483.68	1353.71
483.88	1304.56
484.08	1327.08
484.29	1361.90
484.49	1386.47
484.69	1398.76
484.89	1419.24
485.09	1359.85
485.29	1378.28
485.50	1378.28
485.70	1298.41
485.90	1320.94
486.10	1392.62
486.30	1357.80
486.50	1388.52
486.71	1398.76
486.91	1445.87
487.11	1404.91
487.31	1343.47
487.51	1396.71
487.71	1333.23
487.91	1306.60
488.12	1413.10
488.32	1232.88
488.52	1329.13
488.72	1384.43
488.92	1341.42
489.12	1392.62
489.32	1460.20
489.53	1327.08
489.73	1327.08
489.93	1392.62
490.13	1363.95
490.33	1441.77
490.53	1406.95
490.73	1394.67
490.94	1329.13
491.14	1452.01
491.34	1662.95
491.54	2168.80
491.74	2684.89
491.94	3053.52
492.14	3190.74
492.34	2967.51
492.54	2539.48
492.75	2236.38
492.95	2164.70
493.15	2011.11
493.35	2035.68
493.55	1951.71
493.75	1951.71
493.95	1929.19
494.15	1839.08
494.35	1730.53
494.56	1624.04
494.76	1538.02
494.96	1472.49
495.16	1464.30
495.36	1415.15
495.56	1413.10
495.76	1406.95
495.96	1366.00
496.16	1386.47
496.36	1392.62
496.56	1353.71
496.77	1353.71
496.97	1380.33
497.17	1402.86
497.37	1306.60
497.57	1486.83
497.77	1378.28
497.97	1380.33
498.17	1378.28
498.37	1417.19
498.57	1447.91
498.77	1386.47
498.97	1388.52
499.17	1437.67
499.38	1423.34
499.58	1396.71
499.78	1492.97
499.98	1497.07
500.18	1435.63
500.38	1378.28
500.58	1689.57
500.78	3004.37
500.98	5627.82
501.18	7145.36
501.38	8191.88
501.58	8746.87
501.78	7202.71
501.98	5885.86
502.18	5197.74
502.38	4577.21
502.58	4243.39
502.78	3778.50
502.98	3622.86
503.18	3575.75
503.38	3317.71
503.59	2893.78
503.79	2797.53
503.99	2564.06
504.19	2371.55
504.39	2207.71
504.59	2095.07
504.79	1996.77
504.99	1753.06
505.19	1658.85
505.39	1646.57
505.59	1599.46
505.79	1597.42
505.99	1558.50
506.19	1447.91
506.39	1468.39
506.59	1419.24
506.79	1468.39
506.99	1476.59
507.19	1437.67
507.39	1372.14
507.59	1449.96
507.79	1322.99
507.99	1380.33
508.19	1366.00
508.39	1392.62
508.59	1406.95
508.79	1449.96
508.99	1482.73
509.19	1286.12
509.39	1411.05
509.59	1372.14
509.79	1284.08
509.99	1380.33
510.19	1361.90
510.39	1413.10
510.59	1417.19
510.79	1419.24
510.99	1370.09
511.19	1337.32
511.39	1462.25
511.59	1353.71
511.79	1415.15
511.99	1368.04
512.19	1386.47
512.38	1404.91
512.58	1363.95
512.78	1378.28
512.98	1378.28
513.18	1406.95
513.38	1374.19
513.58	1388.52
513.78	1349.61
513.98	1361.90
514.18	1400.81
514.38	1322.99
514.58	1392.62
514.78	1363.95
514.98	1368.04
515.18	1347.56
515.38	1411.05
515.58	1507.30
515.78	1413.10
515.98	1359.85
516.18	1415.15
516.38	1452.01
516.57	1312.75
516.77	1296.36
516.97	1429.48
517.17	1316.84
517.37	1275.88
517.57	1454.06
517.77	1427.43
517.97	1366.00
518.17	1400.81
518.37	1370.09
518.57	1359.85
518.77	1357.80
518.97	1368.04
519.16	1376.24
519.36	1361.90
519.56	1396.71
519.76	1490.92
519.96	1390.57
520.16	1423.34
520.36	1355.76
520.56	1392.62
520.76	1380.33
520.96	1306.60
521.16	1449.96
521.35	1415.15
521.55	1478.63
521.75	1325.04
521.95	1357.80
522.15	1306.60
522.35	1298.41
522.55	1273.84
522.75	1329.13
522.95	1380.33
523.14	1394.67
523.34	1402.86
523.54	1404.91
523.74	1396.71
523.94	1386.47
524.14	1312.75
524.34	1411.05
524.54	1468.39
524.73	1331.18
524.93	1384.43
525.13	1392.62
525.33	1304.56
525.53	1449.96
525.73	1359.85
525.93	1380.33
526.13	1339.37
526.32	1327.08
526.52	1363.95
526.72	1409.00
526.92	1421.29
527.12	1398.76
527.32	1337.32
527.52	1396.71
527.71	1400.81
527.91	1413.10
528.11	1331.18
528.31	1372.14
528.51	1269.74
528.71	1378.28
528.90	1355.76
529.10	1409.00
529.30	1411.05
529.50	1351.66
529.70	1318.89
529.90	1363.95
530.09	1306.60
530.29	1380.33
530.49	1372.14
530.69	1466.35
530.89	1322.99
531.09	1441.77
531.28	1345.52
531.48	1406.95
531.68	1406.95
531.88	1445.87
532.08	1316.84
532.28	1429.48
532.47	1421.29
532.67	1495.02
532.87	1380.33
533.07	1402.86
533.27	1363.95
533.46	1439.72
533.66	1413.10
533.86	1347.56
534.06	1347.56
534.26	1429.48
534.45	1351.66
534.65	1368.04
534.85	1292.27
535.05	1368.04
535.25	1454.06
535.44	1302.51
535.64	1449.96
535.84	1361.90
536.04	1388.52
536.24	1392.62
536.43	1337.32
536.63	1406.95
536.83	1415.15
537.03	1406.95
537.22	1292.27
537.42	1288.17
537.62	1335.28
537.82	1425.39
538.02	1394.67
538.21	1454.06
538.41	1376.24
538.61	1370.09
538.81	1333.23
539.00	1421.29
539.20	1302.51
539.40	1359.85
539.60	1314.80
539.79	1370.09
539.99	1421.29
540.19	1282.03
540.39	1423.34
540.58	1372.14
540.78	1386.47
540.98	1357.80
541.18	1363.95
541.37	1386.47
541.57	1333.23
541.77	1400.81
541.97	1349.61
542.16	1366.00
542.36	1421.29
542.56	1312.75
542.76	1413.10
542.95	1361.90
543.15	1437.67
543.35	1355.76
543.54	1370.09
543.74	1279.98
543.94	1433.58
544.14	1333.23
544.33	1384.43
544.53	1388.52
544.73	1335.28
544.93	1314.80
545.12	1282.03
545.32	1400.81
545.52	1347.56
545.71	1331.18
545.91	1339.37
546.11	1306.60
546.30	1308.65
546.50	1382.38
546.70	1363.95
546.90	1322.99
547.09	1318.89
547.29	1431.53
547.49	1390.57
547.68	1353.71
547.88	1363.95
548.08	1363.95
548.27	1679.33
548.47	1325.04
548.67	1318.89
548.87	1400.81
549.06	1341.42
549.26	1386.47
549.46	1384.43
549.65	1361.90
549.85	1433.58
550.05	1353.71
550.24	1333.23
550.44	1320.94
550.64	1361.90
550.83	1347.56
551.03	1419.24
551.23	1394.67
551.42	1372.14
551.62	1349.61
551.82	1435.63
552.01	1402.86
552.21	1402.86
552.41	1347.56
552.60	1478.63
552.80	1376.24
553.00	1398.76
553.19	1370.09
553.39	1435.63
553.59	1396.71
553.78	1421.29
553.98	1368.04
554.17	1316.84
554.37	1404.91
554.57	1357.80
554.76	1288.17
554.96	1374.19
555.16	1394.67
555.35	1353.71
555.55	1320.94
555.75	1402.86
555.94	1374.19
556.14	1308.65
556.33	1384.43
556.53	1300.46
556.73	1402.86
556.92	1415.15
557.12	1441.77
557.32	1427.43
557.51	1361.90
557.71	1439.72
557.90	1402.86
558.10	1335.28
558.30	1386.47
558.49	1357.80
558.69	1363.95
558.88	1382.38
559.08	1476.59
559.28	1392.62
559.47	1318.89
559.67	1439.72
559.86	1472.49
560.06	1445.87
560.26	1380.33
560.45	1409.00
560.65	1378.28
560.84	1396.71
561.04	1406.95
561.24	1337.32
561.43	1343.47
561.63	1452.01
561.82	1310.70
562.02	1361.90
562.22	1374.19
562.41	1333.23
562.61	1394.67
562.80	1339.37
563.00	1437.67
563.19	1470.44
563.39	1361.90
563.59	1433.58
563.78	1331.18
563.98	1331.18
564.17	1296.36
564.37	1286.12
564.56	1388.52
564.76	1341.42
564.96	1474.54
565.15	1368.04
565.35	1404.91
565.54	1413.10
565.74	1398.76
565.93	1423.34
566.13	1447.91
566.32	1437.67
566.52	1415.15
566.71	1366.00
566.91	1402.86
567.11	1322.99
567.30	1347.56
567.50	1349.61
567.69	1419.24
567.89	1380.33
568.08	1359.85
568.28	1388.52
568.47	1411.05
568.67	1421.29
568.86	1341.42
569.06	1384.43
569.25	1368.04
569.45	1347.56
569.64	1392.62
569.84	1396.71
570.04	1400.81
570.23	1363.95
570.43	1329.13
570.62	1370.09
570.82	1421.29
571.01	1361.90
571.21	1290.22
571.40	1286.12
571.60	1411.05
571.79	1357.80
571.99	1445.87
572.18	1437.67
572.38	1462.25
572.57	1380.33
572.77	1392.62
572.96	1445.87
573.16	1425.39
573.35	1339.37
573.55	1402.86
573.74	1476.59
573.94	1351.66
574.13	1462.25
574.33	1439.72
574.52	1488.87
574.71	1409.00
574.91	1394.67
575.10	1337.32
575.30	1396.71
575.49	1374.19
575.69	1380.33
575.88	1406.95
576.08	1384.43
576.27	1454.06
576.47	1447.91
576.66	1525.74
576.86	1495.02
577.05	1427.43
577.25	1460.20
577.44	1599.46
577.64	1421.29
577.83	1437.67
578.02	1486.83
578.22	1431.53
578.41	1458.15
578.61	1351.66
578.80	1345.52
579.00	1400.81
579.19	1409.00
579.39	1495.02
579.58	1435.63
579.77	1445.87
579.97	1492.97
580.16	1447.91
580.36	1472.49
580.55	1462.25
580.75	1406.95
580.94	1458.15
581.13	1443.82
581.33	1495.02
581.52	1425.39
581.72	1476.59
581.91	1505.26
582.11	1406.95
582.30	1490.92
582.49	1462.25
582.69	1495.02
582.88	1472.49
583.08	1437.67
583.27	1478.63
583.47	1400.81
583.66	1349.61
583.85	1404.91
584.05	1456.11
584.24	1519.59
584.44	1437.67
584.63	1445.87
584.82	1544.17
585.02	1578.98
585.21	1720.29
585.41	1531.88
585.60	1634.28
585.79	1660.90
585.99	1677.29
586.18	1648.61
586.37	1888.23
586.57	2621.40
586.76	8005.51
586.96	24573.58
587.15	41915.78
587.34	52303.07
587.54	60019.82
587.73	59851.89
587.93	45309.26
588.12	32994.82
588.31	26625.64
588.51	22945.44
588.70	20653.76
588.89	18484.97
589.09	17022.72
589.28	16094.99
589.47	14231.33
589.67	12734.27
589.86	10616.67
590.06	8734.59
590.25	6492.06
590.44	4939.70
590.64	3715.02
590.83	2883.54
591.02	2291.68
591.22	1943.52
591.41	1777.64
591.60	1519.59
591.80	1667.05
591.99	1466.35
592.18	1429.48
592.38	1507.30
592.57	1456.11
592.76	1466.35
592.96	1527.78
593.15	1499.11
593.34	1474.54
593.54	1415.15
593.73	1458.15
593.92	1492.97
594.12	1437.67
594.31	1464.30
594.50	1503.21
594.70	1466.35
594.89	1572.84
595.08	1353.71
595.28	1402.86
595.47	1540.07
595.66	1429.48
595.86	1355.76
596.05	1435.63
596.24	1484.78
596.43	1460.20
596.63	1417.19
596.82	1427.43
597.01	1347.56
597.21	1523.69
597.40	1472.49
597.59	1400.81
597.79	1339.37
597.98	1404.91
598.17	1478.63
598.36	1454.06
598.56	1472.49
598.75	1425.39
598.94	1398.76
599.14	1402.86
599.33	1404.91
599.52	1437.67
599.71	1466.35
599.91	1429.48
600.10	1464.30
600.29	1357.80
600.48	1339.37
600.68	1370.09
600.87	1441.77
601.06	1386.47
601.26	1462.25
601.45	1447.91
601.64	1413.10
601.83	1390.57
602.03	1359.85
602.22	1265.64
602.41	1415.15
602.60	1472.49
602.80	1460.20
602.99	1388.52
603.18	1398.76
603.37	1452.01
603.57	1386.47
603.76	1425.39
603.95	1470.44
604.14	1370.09
604.34	1316.84
604.53	1421.29
604.72	1402.86
604.91	1396.71
605.10	1439.72
605.30	1378.28
605.49	1409.00
605.68	1429.48
605.87	1472.49
606.07	1339.37
606.26	1335.28
606.45	1415.15
606.64	1425.39
606.84	1443.82
607.03	1322.99
607.22	1437.67
607.41	1509.35
607.60	1433.58
607.80	1417.19
607.99	1374.19
608.18	1458.15
608.37	1415.15
608.56	1349.61
608.76	1372.14
608.95	1499.11
609.14	1433.58
609.33	1433.58
609.52	1531.88
609.72	1529.83
609.91	1460.20
610.10	1458.15
610.29	1449.96
610.48	1308.65
610.68	1409.00
610.87	1437.67
611.06	1456.11
611.25	1441.77
611.44	1449.96
611.63	1366.00
611.83	1447.91
612.02	1402.86
612.21	1392.62
612.40	1312.75
612.59	1417.19
612.79	1341.42
612.98	1396.71
613.17	1411.05
613.36	1439.72
613.55	1495.02
613.74	1468.39
613.93	1492.97
614.13	1593.32
614.32	1632.23
614.51	1619.94
614.70	1544.17
614.89	1501.16
615.08	1449.96
615.28	1699.81
615.47	1447.91
615.66	1497.07
615.85	1437.67
616.04	1558.50
616.23	1552.36
616.42	1470.44
616.62	1464.30
616.81	1449.96
617.00	1431.53
617.19	1390.57
617.38	1382.38
617.57	1390.57
617.76	1406.95
617.95	1366.00
618.15	1464.30
618.34	1415.15
618.53	1325.04
618.72	1423.34
618.91	1409.00
619.10	1409.00
619.29	1382.38
619.48	1372.14
619.68	1316.84
619.87	1368.04
620.06	1288.17
620.25	1419.24
620.44	1427.43
620.63	1411.05
620.82	1368.04
621.01	1351.66
621.20	1415.15
621.39	1427.43
621.59	1441.77
621.78	1423.34
621.97	1368.04
622.16	1429.48
622.35	1409.00
622.54	1380.33
622.73	1445.87
622.92	1247.21
623.11	1447.91
623.30	1363.95
623.49	1409.00
623.68	1341.42
623.88	1433.58
624.07	1355.76
624.26	1417.19
624.45	1396.71
624.64	1357.80
624.83	1390.57
625.02	1316.84
625.21	1452.01
625.40	1460.20
625.59	1447.91
625.78	1421.29
625.97	1468.39
626.16	1445.87
626.35	1492.97
626.54	1404.91
626.74	1538.02
626.93	1413.10
627.12	1466.35
627.31	1411.05
627.50	1386.47
627.69	1423.34
627.88	1372.14
628.07	1439.72
628.26	1335.28
628.45	1394.67
628.64	1345.52
628.83	1421.29
629.02	1292.27
629.21	1355.76
629.40	1464.30
629.59	1335.28
629.78	1384.43
629.97	1419.24
630.16	1376.24
630.35	1449.96
630.54	1435.63
630.73	1427.43
630.92	1419.24
631.11	1390.57
631.30	1396.71
631.49	1431.53
631.68	1437.67
631.87	1335.28
632.06	1339.37
632.25	1529.83
632.44	1415.15
632.63	1421.29
632.82	1421.29
633.01	1447.91
633.20	1452.01
633.39	1472.49
633.58	1388.52
633.77	1435.63
633.96	1452.01
634.15	1437.67
634.34	1443.82
634.53	1466.35
634.72	1433.58
634.91	1384.43
635.10	1355.76
635.29	1415.15
635.48	1390.57
635.67	1368.04
635.86	1402.86
636.05	1452.01
636.24	1433.58
636.43	1398.76
636.62	1347.56
636.81	1312.75
637.00	1409.00
637.19	1425.39
637.38	1392.62
637.57	1343.47
637.76	1411.05
637.95	1492.97
638.14	1400.81
638.33	1468.39
638.52	1495.02
638.71	1370.09
638.89	1443.82
639.08	1511.40
639.27	1429.48
639.46	1411.05
639.65	1712.10
639.84	1927.14
640.03	2017.25
640.22	2076.64
640.41	2176.99
640.60	1894.37
640.79	1761.25
640.98	1671.14
641.17	1642.47
641.36	1662.95
641.55	1619.94
641.74	1560.55
641.92	1427.43
642.11	1511.40
642.30	1486.83
642.49	1370.09
642.68	1511.40
642.87	1404.91
643.06	1478.63
643.25	1322.99
643.44	1329.13
643.63	1343.47
643.82	1322.99
644.00	1384.43
644.19	1374.19
644.38	1333.23
644.57	1413.10
644.76	1333.23
644.95	1366.00
645.14	1372.14
645.33	1353.71
645.52	1396.71
645.71	1255.40
645.89	1382.38
646.08	1339.37
646.27	1411.05
646.46	1460.20
646.65	1335.28
646.84	1343.47
647.03	1341.42
647.22	1437.67
647.40	1339.37
647.59	1404.91
647.78	1370.09
647.97	1386.47
648.16	1392.62
648.35	1429.48
648.54	1456.11
648.73	1337.32
648.91	1361.90
649.10	1402.86
649.29	1335.28
649.48	1409.00
649.67	1402.86
649.86	1388.52
650.05	1370.09
650.23	1472.49
650.42	1499.11
650.61	1564.65
650.80	1630.18
650.99	1697.77
651.18	1484.78
651.36	1419.24
651.55	1431.53
651.74	1400.81
651.93	1406.95
652.12	1411.05
652.31	1441.77
652.49	1343.47
652.68	1419.24
652.87	1501.16
653.06	1423.34
653.25	1435.63
653.44	1351.66
653.62	1525.74
653.81	1376.24
654.00	1427.43
654.19	1392.62
654.38	1452.01
654.56	1398.76
654.75	1406.95
654.94	1404.91
655.13	1423.34
655.32	1388.52
655.51	1423.34
655.69	1351.66
655.88	1378.28
656.07	1378.28
656.26	1402.86
656.45	1421.29
656.63	1384.43
656.82	1382.38
657.01	1427.43
657.20	1314.80
657.38	1376.24
657.57	1429.48
657.76	1341.42
657.95	1404.91
658.14	1357.80
658.32	1335.28
658.51	1329.13
658.70	1382.38
658.89	1378.28
659.08	1357.80
659.26	1441.77
659.45	1337.32
659.64	1445.87
659.83	1396.71
660.01	1593.32
660.20	1515.50
660.39	1497.07
660.58	1310.70
660.76	1456.11
660.95	1335.28
661.14	1427.43
661.33	1423.34
661.51	1265.64
661.70	1370.09
661.89	1370.09
662.08	1335.28
662.26	1320.94
662.45	1341.42
662.64	1511.40
662.83	1384.43
663.01	1325.04
663.20	1363.95
663.39	1413.10
663.58	1341.42
663.76	1368.04
663.95	1433.58
664.14	1363.95
664.32	1400.81
664.51	1404.91
664.70	1351.66
664.89	1413.10
665.07	1374.19
665.26	1415.15
665.45	1337.32
665.64	1468.39
665.82	1347.56
666.01	1515.50
666.20	1378.28
666.38	1345.52
666.57	1456.11
666.76	1550.31
666.95	2123.74
667.13	4493.24
667.32	11462.48
667.51	18005.74
667.69	21737.14
667.88	25065.09
668.07	24608.39
668.25	19250.91
668.44	13612.85
668.63	11462.48
668.81	9265.01
669.00	8077.19
669.19	7317.39
669.38	6915.99
669.56	6152.10
669.75	5611.43
669.94	4925.36
670.12	4190.14
670.31	3571.66
670.50	2947.03
670.68	2457.56
670.87	2138.08
671.06	1802.21
671.24	1701.86
671.43	1626.09
671.62	1568.74
671.80	1538.02
671.99	1576.94
672.18	1476.59
672.36	1490.92
672.55	1388.52
672.74	1374.19
672.92	1380.33
673.11	1339.37
673.29	1320.94
673.48	1441.77
673.67	1394.67
673.85	1427.43
674.04	1343.47
674.23	1398.76
674.41	1433.58
674.60	1345.52
674.79	1296.36
674.97	1312.75
675.16	1361.90
675.34	1409.00
675.53	1349.61
675.72	1392.62
675.90	1482.73
676.09	1431.53
676.28	1419.24
676.46	1300.46
676.65	1372.14
676.83	1304.56
677.02	1341.42
677.21	1402.86
677.39	1359.85
677.58	1419.24
677.77	1374.19
677.95	1363.95
678.14	1341.42
678.32	1335.28
678.51	1318.89
678.70	1462.25
678.88	1361.90
679.07	1370.09
679.25	1372.14
679.44	1355.76
679.63	1347.56
679.81	1380.33
680.00	1415.15
680.18	1421.29
680.37	1400.81
680.55	1390.57
680.74	1353.71
680.93	1361.90
681.11	1386.47
681.30	1396.71
681.48	1425.39
681.67	1372.14
681.85	1370.09
682.04	1275.88
682.23	1427.43
682.41	1390.57
682.60	1378.28
682.78	1392.62
682.97	1341.42
683.15	1335.28
683.34	1411.05
683.53	1435.63
683.71	1372.14
683.90	1400.81
684.08	1474.54
684.27	1378.28
684.45	1345.52
684.64	1447.91
684.82	1343.47
685.01	1404.91
685.19	1533.93
685.38	1452.01
685.57	1396.71
685.75	1363.95
685.94	1402.86
686.12	1331.18
686.31	1294.32
686.49	1435.63
686.68	1284.08
686.86	1320.94
687.05	1394.67
687.23	1474.54
687.42	1351.66
687.60	1357.80
687.79	1366.00
687.97	1390.57
688.16	1452.01
688.34	1437.67
688.53	1347.56
688.71	1378.28
688.90	1484.78
689.08	1347.56
689.27	1325.04
689.45	1312.75
689.64	1429.48
689.82	1439.72
690.01	1380.33
690.19	1378.28
690.38	1355.76
690.56	1427.43
690.75	1325.04
690.93	1337.32
691.12	1263.60
691.30	1351.66
691.49	1355.76
691.67	1423.34
691.86	1431.53
692.04	1341.42
692.23	1392.62
692.41	1392.62
692.60	1447.91
692.78	1400.81
692.97	1423.34
693.15	1484.78
693.34	1439.72
693.52	1413.10
693.71	1445.87
693.89	1327.08
694.08	1322.99
694.26	1429.48
694.44	1392.62
694.63	1404.91
694.81	1394.67
695.00	1419.24
695.18	1460.20
695.37	1462.25
695.55	1304.56
695.74	1300.46
695.92	1372.14
696.10	1396.71
696.29	1357.80
696.47	1361.90
696.66	1361.90
696.84	1355.76
697.03	1400.81
697.21	1476.59
697.40	1722.34
697.58	1458.15
697.76	1372.14
697.95	1314.80
698.13	1337.32
698.32	1374.19
698.50	1396.71
698.68	1363.95
698.87	1421.29
699.05	1472.49
699.24	1372.14
699.42	1386.47
699.61	1411.05
699.79	1404.91
699.97	1363.95
700.16	1318.89
700.34	1406.95
700.53	1353.71
700.71	1421.29
700.89	1361.90
701.08	1423.34
701.26	1363.95
701.45	1708.01
701.63	1380.33
701.81	1337.32
702.00	1349.61
702.18	1347.56
702.37	1380.33
702.55	1439.72
702.73	1492.97
702.92	1519.59
703.10	1632.23
703.28	1677.29
703.47	1562.60
703.65	1693.67
703.84	1603.56
704.02	1574.89
704.20	1556.46
704.39	1394.67
704.57	1458.15
704.75	1458.15
704.94	1466.35
705.12	1413.10
705.30	1505.26
705.49	1527.78
705.67	1798.12
705.86	3579.85
706.04	9181.04
706.22	16520.96
706.41	19748.56
706.59	22701.73
706.77	23547.54
706.96	19723.99
707.14	13924.14
707.32	11515.73
707.51	9252.72
707.69	8324.99
707.87	7497.61
708.06	6778.78
708.24	6170.53
708.42	5066.67
708.61	4087.75
708.79	3114.96
708.97	2406.36
709.16	2052.06
709.34	1738.73
709.52	1634.28
709.71	1519.59
709.89	1519.59
710.07	1423.34
710.26	1452.01
710.44	1421.29
710.62	1437.67
710.80	1423.34
710.99	1421.29
711.17	1380.33
711.35	1404.91
711.54	1310.70
711.72	1470.44
711.90	1390.57
712.09	1345.52
712.27	1374.19
712.45	1384.43
712.63	1363.95
712.82	1368.04
713.00	1370.09
713.18	1396.71
713.37	1409.00
713.55	1449.96
713.73	1380.33
713.91	1396.71
714.10	1406.95
714.28	1404.91
714.46	1380.33
714.65	1443.82
714.83	1370.09
715.01	1409.00
715.19	1339.37
715.38	1355.76
715.56	1497.07
715.74	1404.91
715.92	1273.84
716.11	1386.47
716.29	1349.61
716.47	1374.19
716.65	1347.56
716.84	1290.22
717.02	1368.04
717.20	1353.71
717.38	1277.93
717.57	1425.39
717.75	1343.47
717.93	1452.01
718.11	1413.10
718.30	1312.75
718.48	1413.10
718.66	1329.13
718.84	1464.30
719.03	1384.43
719.21	1357.80
719.39	1472.49
719.57	1388.52
719.75	1355.76
719.94	1359.85
720.12	1419.24
720.30	1376.24
720.48	1449.96
720.67	1325.04
720.85	1333.23
721.03	1347.56
721.21	1370.09
721.39	1351.66
721.58	1286.12
721.76	1370.09
721.94	1331.18
722.12	1378.28
722.30	1366.00
722.49	1353.71
722.67	1345.52
722.85	1333.23
723.03	1341.42
723.21	1404.91
723.40	1449.96
723.58	1349.61
723.76	1435.63
723.94	1439.72
724.12	1406.95
724.30	1441.77
724.49	1472.49
724.67	1452.01
724.85	1474.54
725.03	1562.60
725.21	1437.67
725.40	1409.00
725.58	1427.43
725.76	1462.25
725.94	1413.10
726.12	1378.28
726.30	1388.52
726.49	1380.33
726.67	1417.19
726.85	1359.85
727.03	1384.43
727.21	1466.35
727.39	1488.87
727.57	2131.94
727.76	3358.67
727.94	4483.00
728.12	5003.19
728.30	5183.41
728.48	5179.31
728.66	4190.14
728.84	3508.17
729.03	3100.62
729.21	2848.72
729.39	2463.71
729.57	2250.72
729.75	1990.63
729.93	1859.56
730.11	1628.14
730.30	1495.02
730.48	1427.43
730.66	1447.91
730.84	1378.28
731.02	1374.19
731.20	1378.28
731.38	1341.42
731.56	1386.47
731.74	1331.18
731.93	1282.03
732.11	1390.57
732.29	1400.81
732.47	1392.62
732.65	1372.14
732.83	1421.29
733.01	1419.24
733.19	1415.15
733.37	1339.37
733.56	1404.91
733.74	1366.00
733.92	1396.71
734.10	1443.82
734.28	1392.62
734.46	1261.55
734.64	1349.61
734.82	1398.76
735.00	1329.13
735.18	1402.86
735.36	1390.57
735.54	1327.08
735.73	1325.04
735.91	1413.10
736.09	1351.66
736.27	1298.41
736.45	1415.15
736.63	1292.27
736.81	1374.19
736.99	1394.67
737.17	1374.19
737.35	1380.33
737.53	1419.24
737.71	1363.95
737.89	1378.28
738.07	1329.13
738.25	1329.13
738.43	1343.47
738.61	1419.24
738.80	1351.66
738.98	1351.66
739.16	1372.14
739.34	1394.67
739.52	1404.91
739.70	1298.41
739.88	1329.13
740.06	1441.77
740.24	1345.52
740.42	1409.00
740.60	1331.18
740.78	1357.80
740.96	1308.65
741.14	1417.19
741.32	1431.53
741.50	1361.90
741.68	1435.63
741.86	1411.05
742.04	1288.17
742.22	1396.71
742.40	1378.28
742.58	1406.95
742.76	1294.32
742.94	1415.15
743.12	1361.90
743.30	1390.57
743.48	1415.15
743.66	1345.52
743.84	1404.91
744.02	1384.43
744.20	1394.67
744.38	1312.75
744.56	1341.42
744.74	1353.71
744.92	1345.52
745.10	1400.81
745.28	1439.72
745.46	1441.77
745.64	1421.29
745.82	1378.28
746.00	1439.72
746.18	1384.43
746.36	1304.56
746.54	1370.09
746.72	1368.04
746.90	1400.81
747.08	1396.71
747.26	1421.29
747.44	1413.10
747.62	1329.13
747.80	1331.18
747.98	1361.90
748.15	1363.95
748.33	1482.73
748.51	1392.62
748.69	1447.91
748.87	1347.56
749.05	1345.52
749.23	1316.84
749.41	1402.86
749.59	1308.65
749.77	1441.77
749.95	1347.56
750.13	1304.56
750.31	1380.33
750.49	1368.04
750.67	1378.28
750.85	1443.82
751.03	1402.86
751.20	1345.52
751.38	1411.05
751.56	1327.08
751.74	1376.24
751.92	1345.52
752.10	1388.52
752.28	1402.86
752.46	1361.90
752.64	1353.71
752.82	1427.43
753.00	1415.15
753.18	1396.71
753.35	1314.80
753.53	1413.10
753.71	1464.30
753.89	1388.52
754.07	1384.43
754.25	1449.96
754.43	1449.96
754.61	1327.08
754.79	1376.24
754.97	1370.09
755.14	1437.67
755.32	1386.47
755.50	1378.28
755.68	1339.37
755.86	1361.90
756.04	1384.43
756.22	1339.37
756.40	1388.52
756.57	1480.68
756.75	1345.52
756.93	1417.19
757.11	1400.81
757.29	1300.46
757.47	1306.60
757.65	1271.79
757.82	1251.31
758.00	1302.51
758.18	1343.47
758.36	1300.46
758.54	1488.87
758.72	1351.66
758.90	1314.80
759.07	1413.10
759.25	1351.66
759.43	1417.19
759.61	1421.29
759.79	1607.66
759.97	1447.91
760.15	1427.43
760.32	1370.09
760.50	1359.85
760.68	1406.95
760.86	1269.74
761.04	1374.19
761.22	1312.75
761.39	1359.85
761.57	1355.76
761.75	1394.67
761.93	1376.24
762.11	1363.95
762.28	1441.77
762.46	1345.52
762.64	1384.43
762.82	1273.84
763.00	1392.62
763.18	1357.80
763.35	1327.08
763.53	1359.85
763.71	1435.63
763.89	1409.00
764.07	1380.33
764.24	1423.34
764.42	1361.90
764.60	1341.42
764.78	1372.14
764.96	1370.09
765.13	1406.95
765.31	1409.00
765.49	1370.09
765.67	1327.08
765.84	1341.42
766.02	1347.56
766.20	1339.37
766.38	1353.71
766.56	1398.76
766.73	1378.28
766.91	1396.71
767.09	1462.25
767.27	1376.24
767.44	1337.32
767.62	1329.13
767.80	1298.41
767.98	1372.14
768.15	1370.09
768.33	1372.14
768.51	1361.90
768.69	1286.12
768.87	1392.62
769.04	1347.56
769.22	1597.42
769.40	1431.53
769.58	1427.43
769.75	1388.52
769.93	1372.14
770.11	1284.08
770.28	1337.32
770.46	1409.00
770.64	1425.39
770.82	1441.77
770.99	1331.18
771.17	1398.76
771.35	1351.66
771.53	1282.03
771.70	1394.67
771.88	1318.89
772.06	1320.94
772.23	1351.66
772.41	1361.90
772.59	1339.37
772.77	1273.84
772.94	1388.52
773.12	1380.33
773.30	1398.76
773.47	1388.52
773.65	1417.19
773.83	1396.71
774.01	1355.76
774.18	1355.76
774.36	1331.18
774.54	1376.24
774.71	1322.99
774.89	1288.17
775.07	1300.46
775.24	1343.47
775.42	1370.09
775.60	1470.44
775.78	1318.89
775.95	1380.33
776.13	1363.95
776.31	1310.70
776.48	1419.24
776.66	1378.28
776.84	1310.70
777.01	1394.67
777.19	1384.43
777.37	1402.86
777.54	1431.53
777.72	1406.95
777.90	1368.04
778.07	1286.12
778.25	1558.50
778.43	1429.48
778.60	1310.70
778.78	1368.04
778.96	1400.81
779.13	1296.36
779.31	1433.58
779.49	1390.57
779.66	1312.75
779.84	1302.51
780.01	1327.08
780.19	1359.85
780.37	1433.58
780.54	1318.89
780.72	1376.24
780.90	1359.85
781.07	1357.80
781.25	1392.62
781.43	1464.30
781.60	1298.41
781.78	1345.52
781.95	1329.13
782.13	1316.84
782.31	1390.57
782.48	1302.51
782.66	1396.71
782.83	1443.82
783.01	1372.14
783.19	1363.95
783.36	1318.89
783.54	1296.36
783.72	1388.52
783.89	1337.32
784.07	1376.24
784.24	1359.85
784.42	1404.91
784.60	1406.95
784.77	1370.09
784.95	1316.84
785.12	1300.46
785.30	1409.00
785.47	1267.69
785.65	1349.61
785.83	1357.80
786.00	1388.52
786.18	1290.22
786.35	1269.74
786.53	1320.94
786.71	1357.80
786.88	1458.15
787.06	1413.10
787.23	1333.23
787.41	1271.79
787.58	1460.20
787.76	1339.37
787.94	1296.36
788.11	1353.71
788.29	1322.99
788.46	1302.51
788.64	1331.18
788.81	1343.47
788.99	1314.80
789.16	1331.18
789.34	1374.19
789.52	1374.19
789.69	1413.10
789.87	1318.89
790.04	1363.95
790.22	1413.10
790.39	1429.48
790.57	1318.89
790.74	1284.08
790.92	1458.15
791.09	1396.71
791.27	1370.09
791.44	1390.57
791.62	1435.63
791.79	1411.05
791.97	1374.19
792.15	1521.64
792.32	1322.99
792.50	1406.95
792.67	1427.43
792.85	1345.52
793.02	1421.29
793.20	1263.60
793.37	1368.04
793.55	1419.24
793.72	1384.43
793.90	1394.67
794.07	1325.04
794.25	1322.99
794.42	1386.47
794.60	1398.76
794.77	1425.39
794.95	1347.56
795.12	1394.67
795.30	1337.32
795.47	1306.60
795.65	1472.49
795.82	1353.71
796.00	1370.09
796.17	1382.38
796.34	1333.23
796.52	1396.71
796.69	1349.61
796.87	1341.42
797.04	1429.48
797.22	1398.76
797.39	1347.56
797.57	1452.01
797.74	1353.71
797.92	1441.77
798.09	1341.42
798.27	1419.24
798.44	1359.85
798.62	1359.85
798.79	1376.24
798.96	1441.77
799.14	1372.14
799.31	1417.19
799.49	1423.34
799.66	1335.28
799.84	1361.90
800.01	1253.36
800.19	1462.25
800.36	1386.47
800.53	1378.28
800.71	1404.91
800.88	1353.71
801.06	1370.09
801.23	1339.37
801.41	1388.52
801.58	1425.39
801.75	1314.80
801.93	1419.24
802.10	1390.57
802.28	1304.56
802.45	1310.70
802.63	1411.05
802.80	1304.56
802.97	1366.00
803.15	1302.51
803.32	1347.56
803.50	1302.51
803.67	1327.08
803.84	1241.07
804.02	1386.47
804.19	1372.14
804.37	1312.75
804.54	1366.00
804.71	1370.09
804.89	1398.76
805.06	1357.80
805.24	1300.46
805.41	1265.64
805.58	1314.80
805.76	1406.95
805.93	1398.76
806.10	1355.76
806.28	1437.67
806.45	1361.90
806.63	1398.76
806.80	1441.77
806.97	1374.19
807.15	1308.65
807.32	1333.23
807.49	1390.57
807.67	1325.04
807.84	1388.52
808.01	1327.08
808.19	1421.29
808.36	1435.63
808.54	1361.90
808.71	1316.84
808.88	1366.00
809.06	1454.06
809.23	1427.43
809.40	1251.31
809.58	1402.86
809.75	1386.47
809.92	1314.80
810.10	1486.83
810.27	1423.34
810.44	1349.61
810.62	1333.23
810.79	1337.32
810.96	1402.86
811.14	1337.32
811.31	1318.89
811.48	1382.38
811.66	1331.18
811.83	1402.86
812.00	1437.67
812.18	1292.27
812.35	1462.25
812.52	1427.43
812.69	1275.88
812.87	1322.99
813.04	1404.91
813.21	1359.85
813.39	1343.47
813.56	1347.56
813.73	1406.95
813.91	1302.51
814.08	1390.57
814.25	1263.60
814.42	1282.03
814.60	1339.37
814.77	1421.29
814.94	1382.38
815.12	1390.57
815.29	1406.95
815.46	1380.33
815.63	1388.52
815.81	1402.86
815.98	1374.19
816.15	1417.19
816.33	1353.71
816.50	1376.24
816.67	1392.62
816.84	1394.67
817.02	1318.89
817.19	1402.86
817.36	1413.10
817.53	1353.71
817.71	1400.81
817.88	1370.09
818.05	1331.18
818.22	1349.61
818.40	1394.67
818.57	1382.38
818.74	1292.27
818.91	1372.14
819.09	1411.05
819.26	1419.24
819.43	1325.04
819.60	1308.65
819.78	1468.39
819.95	1396.71
820.12	1306.60
820.29	1458.15
820.47	1398.76
820.64	1390.57
820.81	1351.66
820.98	1404.91
821.15	1335.28
821.33	1351.66
821.50	1290.22
821.67	1398.76
821.84	1413.10
822.02	1374.19
822.19	1396.71
822.36	1359.85
822.53	1341.42
822.70	1320.94
822.88	1396.71
823.05	1390.57
823.22	1327.08
823.39	1376.24
823.56	1370.09
823.74	1380.33
823.91	1394.67
824.08	1312.75
824.25	1325.04
824.42	1464.30
824.60	1415.15
824.77	1333.23
824.94	1355.76
825.11	1452.01
825.28	1302.51
825.45	1429.48
825.63	1372.14
825.80	1320.94
825.97	1439.72
826.14	1427.43
826.31	1318.89
826.48	1413.10
826.66	1282.03
826.83	1347.56
827.00	1335.28
827.17	1335.28
827.34	1359.85
827.51	1423.34
827.69	1359.85
827.86	1320.94
828.03	1320.94
828.20	1411.05
828.37	1314.80
828.54	1363.95
828.71	1384.43
828.89	1482.73
829.06	1380.33
829.23	1378.28
829.40	1353.71
829.57	1363.95
829.74	1411.05
829.91	1318.89
830.09	1355.76
830.26	1361.90
830.43	1400.81
830.60	1423.34
830.77	1361.90
830.94	1421.29
831.11	1392.62
831.28	1325.04
831.46	1419.24
831.63	1388.52
831.80	1411.05
831.97	1322.99
832.14	1251.31
832.31	1404.91
832.48	1339.37
832.65	1355.76
832.82	1327.08
832.99	1398.76
833.17	1366.00
833.34	1370.09
833.51	1347.56
833.68	1404.91
833.85	1331.18
834.02	1290.22
834.19	1320.94
834.36	1361.90
834.53	1357.80
834.70	1423.34
834.87	1353.71
835.04	1380.33
835.22	1296.36
835.39	1411.05
835.56	1271.79
835.73	1331.18
835.90	1339.37
836.07	1374.19
836.24	1417.19
836.41	1351.66
836.58	1253.36
836.75	1417.19
836.92	1370.09
837.09	1380.33
837.26	1312.75
837.43	1353.71
837.60	1380.33
837.77	1366.00
837.94	1433.58
838.12	1427.43
838.29	1335.28
838.46	1337.32
838.63	1402.86
838.80	1454.06
838.97	1398.76
839.14	1355.76
839.31	1398.76
839.48	1325.04
839.65	1415.15
839.82	1335.28
839.99	1390.57
840.16	1368.04
840.33	1337.32
840.50	1366.00
840.67	1329.13
840.84	1277.93
841.01	1384.43
841.18	1304.56
841.35	1290.22
841.52	1421.29
841.69	1449.96
841.86	1355.76
842.03	1308.65
842.20	1384.43
842.37	1390.57
842.54	1290.22
842.71	1394.67
842.88	1292.27
843.05	1394.67
843.22	1402.86
843.39	1380.33
843.56	1355.76
843.73	1292.27
843.90	1327.08
844.07	1335.28
844.24	1390.57
844.41	1345.52
844.58	1417.19
844.75	1290.22
844.92	1419.24
845.09	1343.47
845.26	1341.42
845.43	1374.19
845.60	1312.75
845.77	1347.56
845.94	1404.91
846.10	1384.43
846.27	1335.28
846.44	1357.80
846.61	1296.36
846.78	1368.04
846.95	1421.29
847.12	1388.52
847.29	1347.56
847.46	1400.81
847.63	1388.52
847.80	1284.08
847.97	1333.23
848.14	1398.76
848.31	1349.61
848.48	1337.32
848.65	1421.29
848.82	1390.57
848.98	1497.07
849.15	1435.63
849.32	1454.06
849.49	1384.43
849.66	1417.19
849.83	1454.06
850.00	1337.32
850.17	1437.67
850.34	1372.14
850.51	1353.71
850.68	1335.28
850.85	1437.67
851.01	1396.71
851.18	1335.28
851.35	1368.04
851.52	1359.85
851.69	1458.15
851.86	1339.37
852.03	1357.80
852.20	1318.89
852.37	1388.52
852.53	1314.80
852.70	1490.92
852.87	1384.43
853.04	1466.35
853.21	1384.43
853.38	1462.25
853.55	1431.53
853.72	1417.19
853.89	1329.13
854.05	1318.89
854.22	1370.09
854.39	1386.47
854.56	1341.42
854.73	1415.15
854.90	1394.67
855.07	1337.32
855.23	1390.57
855.40	1398.76
855.57	1351.66
855.74	1325.04
855.91	1517.54
856.08	1267.69
856.25	1259.50
856.41	1349.61
856.58	1411.05
856.75	1439.72
856.92	1421.29
857.09	1308.65
857.26	1337.32
857.42	1347.56
857.59	1433.58
857.76	1331.18
857.93	1376.24
858.10	1349.61
858.27	1345.52
858.43	1357.80
858.60	1363.95
858.77	1308.65
858.94	1259.50
859.11	1396.71
859.27	1347.56
859.44	1413.10
859.61	1429.48
859.78	1368.04
859.95	1304.56
860.12	1374.19
860.28	1392.62
860.45	1370.09
860.62	1353.71
860.79	1374.19
860.95	1355.76
861.12	1359.85
861.29	1331.18
861.46	1320.94
861.63	1409.00
861.79	1433.58
861.96	1335.28
862.13	1298.41
862.30	1415.15
862.47	1345.52
862.63	1406.95
862.80	1427.43
862.97	1423.34
863.14	1337.32
863.30	1382.38
863.47	1286.12
863.64	1421.29
863.81	1388.52
863.97	1355.76
864.14	1372.14
864.31	1347.56
864.48	1376.24
864.65	1331.18
864.81	1359.85
864.98	1437.67
865.15	1318.89
865.32	1298.41
865.48	1454.06
865.65	1378.28
865.82	1343.47
865.98	1370.09
866.15	1409.00
866.32	1341.42
866.49	1347.56
866.65	1449.96
866.82	1288.17
866.99	1452.01
867.16	1329.13
867.32	1335.28
867.49	1409.00
867.66	1314.80
867.83	1345.52
867.99	1318.89
868.16	1306.60
868.33	1302.51
868.49	1398.76
868.66	1406.95
868.83	1394.67
868.99	1329.13
869.16	1337.32
869.33	1398.76
869.50	1476.59
869.66	1384.43
869.83	1378.28
870.00	1333.23
870.16	1347.56
870.33	1322.99
870.50	1417.19
870.66	1337.32
870.83	1484.78
871.00	1322.99
871.17	1388.52
871.33	1388.52
871.50	1255.40
871.67	1322.99
871.83	1265.64
872.00	1464.30
872.17	1306.60
872.33	1431.53
872.50	1286.12
872.67	1363.95
872.83	1359.85
873.00	1384.43
873.17	1331.18
873.33	1374.19
873.50	1433.58
873.67	1376.24
873.83	1394.67
874.00	1357.80
874.16	1378.28
874.33	1372.14
874.50	1318.89
874.66	1327.08
874.83	1435.63
875.00	1423.34
875.16	1423.34
875.33	1322.99
875.50	1366.00
875.66	1343.47
875.83	1286.12
875.99	1433.58
876.16	1357.80
876.33	1325.04
876.49	1343.47
876.66	1454.06
876.83	1368.04
876.99	1359.85
877.16	1316.84
877.32	1439.72
877.49	1445.87
877.66	1417.19
877.82	1427.43
877.99	1404.91
878.15	1388.52
878.32	1394.67
878.49	1302.51
878.65	1435.63
878.82	1380.33
878.98	1241.07
879.15	1366.00
879.32	1349.61
879.48	1357.80
879.65	1372.14
879.81	1320.94
879.98	1394.67
880.15	1394.67
880.31	1351.66
880.48	1384.43
880.64	1396.71
880.81	1392.62
880.97	1398.76
881.14	1390.57
881.31	1353.71
881.47	1443.82
881.64	1392.62
881.80	1290.22
881.97	1392.62
882.13	1437.67
882.30	1339.37
882.47	1318.89
882.63	1337.32
882.80	1284.08
882.96	1415.15
883.13	1431.53
883.29	1429.48
883.46	1357.80
883.62	1474.54
883.79	1331.18
883.95	1464.30
884.12	1378.28
884.29	1337.32
884.45	1374.19
884.62	1419.24
884.78	1409.00
884.95	1425.39
885.11	1361.90
885.28	1366.00
885.44	1378.28
885.61	1349.61
885.77	1404.91
885.94	1404.91
886.10	1406.95
886.27	1376.24
886.43	1443.82
886.60	1374.19
886.76	1345.52
886.93	1404.91
887.09	1372.14
887.26	1331.18
887.42	1355.76
887.59	1345.52
887.75	1445.87
887.92	1327.08
888.08	1411.05
888.25	1435.63
888.41	1357.80
888.58	1449.96
888.74	1339.37
888.91	1331.18
>>>>>End Processed Spectral Data<<<<<
