SpectraSuite Data File
++++++++++++++++++++++++++++++++++++
Date: Tue May 03 11:24:53 CEST 2016
User: root
Dark Spectrum Present: No
Reference Spectrum Present: No
Number of Sampled Component Spectra: 1
Spectrometers: USB4C02835
Integration Time (usec): 100000 (USB4C02835)
Spectra Averaged: 1 (USB4C02835)
Boxcar Smoothing: 0 (USB4C02835)
Correct for Electrical Dark: No (USB4C02835)
Strobe/Lamp Enabled: No (USB4C02835)
Correct for Detector Non-linearity: No (USB4C02835)
Correct for Stray Light: No (USB4C02835)
Number of Pixels in Processed Spectrum: 3648
>>>>>Begin Processed Spectral Data<<<<<
177.47	1204.21
177.69	1204.21
177.91	1204.21
178.13	1196.01
178.36	1222.64
178.58	1374.19
178.80	1320.94
179.02	1275.88
179.24	1347.56
179.46	1366.00
179.68	1441.77
179.90	1404.91
180.13	1290.22
180.35	1419.24
180.57	1421.29
180.79	1429.48
181.01	1341.42
181.23	1419.24
181.45	1472.49
181.67	1415.15
181.90	1327.08
182.12	1357.80
182.34	1220.59
182.56	1437.67
182.78	1347.56
183.00	1308.65
183.22	1404.91
183.44	1282.03
183.66	1419.24
183.89	1503.21
184.11	1368.04
184.33	1290.22
184.55	1392.62
184.77	1335.28
184.99	1378.28
185.21	1341.42
185.43	1511.40
185.65	1339.37
185.87	1376.24
186.10	1466.35
186.32	1443.82
186.54	1409.00
186.76	1333.23
186.98	1425.39
187.20	1398.76
187.42	1335.28
187.64	1325.04
187.86	1337.32
188.08	1413.10
188.30	1351.66
188.52	1347.56
188.75	1398.76
188.97	1372.14
189.19	1357.80
189.41	1296.36
189.63	1359.85
189.85	1304.56
190.07	1294.32
190.29	1347.56
190.51	1345.52
190.73	1310.70
190.95	1376.24
191.17	1368.04
191.39	1302.51
191.61	1370.09
191.84	1404.91
192.06	1361.90
192.28	1277.93
192.50	1466.35
192.72	1431.53
192.94	1251.31
193.16	1359.85
193.38	1376.24
193.60	1312.75
193.82	1409.00
194.04	1396.71
194.26	1337.32
194.48	1368.04
194.70	1404.91
194.92	1284.08
195.14	1423.34
195.36	1366.00
195.58	1353.71
195.80	1341.42
196.02	1363.95
196.24	1390.57
196.46	1415.15
196.69	1411.05
196.91	1372.14
197.13	1355.76
197.35	1341.42
197.57	1351.66
197.79	1402.86
198.01	1361.90
198.23	1413.10
198.45	1349.61
198.67	1335.28
198.89	1370.09
199.11	1419.24
199.33	1337.32
199.55	1212.40
199.77	1421.29
199.99	1454.06
200.21	1339.37
200.43	1449.96
200.65	1343.47
200.87	1345.52
201.09	1366.00
201.31	1394.67
201.53	1392.62
201.75	1447.91
201.97	1359.85
202.19	1380.33
202.41	1439.72
202.63	1548.26
202.85	1388.52
203.07	1353.71
203.29	1363.95
203.51	1282.03
203.73	1339.37
203.95	1400.81
204.17	1386.47
204.39	1402.86
204.61	1402.86
204.83	1378.28
205.05	1404.91
205.27	1372.14
205.49	1427.43
205.71	1372.14
205.93	1304.56
206.15	1290.22
206.37	1374.19
206.59	1382.38
206.81	1312.75
207.03	1390.57
207.25	1384.43
207.47	1417.19
207.69	1347.56
207.91	1411.05
208.13	1411.05
208.34	1378.28
208.56	1390.57
208.78	1390.57
209.00	1374.19
209.22	1355.76
209.44	1390.57
209.66	1325.04
209.88	1378.28
210.10	1308.65
210.32	1337.32
210.54	1462.25
210.76	1415.15
210.98	1384.43
211.20	1331.18
211.42	1363.95
211.64	1384.43
211.86	1429.48
212.08	1335.28
212.30	1386.47
212.52	1400.81
212.74	1339.37
212.96	1335.28
213.17	1484.78
213.39	1400.81
213.61	1466.35
213.83	1417.19
214.05	1400.81
214.27	1318.89
214.49	1382.38
214.71	1392.62
214.93	1419.24
215.15	1386.47
215.37	1345.52
215.59	1296.36
215.81	1400.81
216.03	1304.56
216.24	1396.71
216.46	1425.39
216.68	1337.32
216.90	1363.95
217.12	1345.52
217.34	1421.29
217.56	1445.87
217.78	1308.65
218.00	1394.67
218.22	1322.99
218.44	1378.28
218.66	1355.76
218.87	1382.38
219.09	1349.61
219.31	1427.43
219.53	1402.86
219.75	1357.80
219.97	1374.19
220.19	1454.06
220.41	1347.56
220.63	1474.54
220.85	1521.64
221.06	1392.62
221.28	1382.38
221.50	1380.33
221.72	1331.18
221.94	1347.56
222.16	1341.42
222.38	1378.28
222.60	1390.57
222.82	1337.32
223.03	1447.91
223.25	1400.81
223.47	1355.76
223.69	1404.91
223.91	1339.37
224.13	1312.75
224.35	1343.47
224.57	1386.47
224.78	1339.37
225.00	1372.14
225.22	1349.61
225.44	1370.09
225.66	1439.72
225.88	1353.71
226.10	1452.01
226.32	1359.85
226.53	1441.77
226.75	1402.86
226.97	1368.04
227.19	1394.67
227.41	1312.75
227.63	1347.56
227.85	1361.90
228.06	1312.75
228.28	1388.52
228.50	1388.52
228.72	1331.18
228.94	1343.47
229.16	1290.22
229.37	1333.23
229.59	1368.04
229.81	1396.71
230.03	1245.16
230.25	1310.70
230.47	1374.19
230.69	1343.47
230.90	1392.62
231.12	1331.18
231.34	1382.38
231.56	1386.47
231.78	1357.80
232.00	1415.15
232.21	1320.94
232.43	1361.90
232.65	1284.08
232.87	1445.87
233.09	1290.22
233.30	1306.60
233.52	1331.18
233.74	1353.71
233.96	1435.63
234.18	1376.24
234.40	1359.85
234.61	1437.67
234.83	1325.04
235.05	1337.32
235.27	1458.15
235.49	1474.54
235.70	1357.80
235.92	1435.63
236.14	1421.29
236.36	1499.11
236.58	1286.12
236.79	1366.00
237.01	1382.38
237.23	1357.80
237.45	1439.72
237.67	1279.98
237.88	1394.67
238.10	1404.91
238.32	1374.19
238.54	1368.04
238.76	1302.51
238.97	1306.60
239.19	1396.71
239.41	1400.81
239.63	1423.34
239.85	1398.76
240.06	1374.19
240.28	1359.85
240.50	1345.52
240.72	1275.88
240.93	1380.33
241.15	1431.53
241.37	1314.80
241.59	1370.09
241.81	1398.76
242.02	1359.85
242.24	1394.67
242.46	1357.80
242.68	1302.51
242.89	1386.47
243.11	1376.24
243.33	1320.94
243.55	1458.15
243.76	1454.06
243.98	1382.38
244.20	1378.28
244.42	1349.61
244.64	1345.52
244.85	1269.74
245.07	1351.66
245.29	1394.67
245.51	1329.13
245.72	1325.04
245.94	1376.24
246.16	1386.47
246.38	1384.43
246.59	1292.27
246.81	1355.76
247.03	1372.14
247.24	1290.22
247.46	1327.08
247.68	1411.05
247.90	1349.61
248.11	1288.17
248.33	1363.95
248.55	1392.62
248.77	1335.28
248.98	1335.28
249.20	1394.67
249.42	1392.62
249.64	1415.15
249.85	1374.19
250.07	1355.76
250.29	1415.15
250.50	1363.95
250.72	1374.19
250.94	1347.56
251.16	1429.48
251.37	1366.00
251.59	1353.71
251.81	1361.90
252.02	1349.61
252.24	1347.56
252.46	1484.78
252.68	1331.18
252.89	1392.62
253.11	1343.47
253.33	1507.30
253.54	1449.96
253.76	1363.95
253.98	1402.86
254.20	1349.61
254.41	1359.85
254.63	1355.76
254.85	1374.19
255.06	1292.27
255.28	1378.28
255.50	1312.75
255.71	1318.89
255.93	1259.50
256.15	1345.52
256.36	1337.32
256.58	1386.47
256.80	1433.58
257.02	1413.10
257.23	1402.86
257.45	1454.06
257.67	1427.43
257.88	1359.85
258.10	1359.85
258.32	1292.27
258.53	1314.80
258.75	1402.86
258.97	1396.71
259.18	1413.10
259.40	1417.19
259.62	1486.83
259.83	1429.48
260.05	1355.76
260.27	1525.74
260.48	1398.76
260.70	1386.47
260.92	1370.09
261.13	1411.05
261.35	1372.14
261.57	1335.28
261.78	1322.99
262.00	1282.03
262.22	1429.48
262.43	1370.09
262.65	1337.32
262.86	1314.80
263.08	1441.77
263.30	1372.14
263.51	1300.46
263.73	1423.34
263.95	1435.63
264.16	1382.38
264.38	1394.67
264.60	1437.67
264.81	1368.04
265.03	1452.01
265.25	1449.96
265.46	1411.05
265.68	1363.95
265.89	1355.76
266.11	1322.99
266.33	1476.59
266.54	1445.87
266.76	1302.51
266.98	1402.86
267.19	1466.35
267.41	1423.34
267.62	1372.14
267.84	1304.56
268.06	1386.47
268.27	1292.27
268.49	1394.67
268.70	1417.19
268.92	1331.18
269.14	1400.81
269.35	1331.18
269.57	1329.13
269.79	1409.00
270.00	1361.90
270.22	1443.82
270.43	1372.14
270.65	1267.69
270.87	1425.39
271.08	1409.00
271.30	1429.48
271.51	1447.91
271.73	1394.67
271.95	1443.82
272.16	1425.39
272.38	1427.43
272.59	1378.28
272.81	1406.95
273.02	1394.67
273.24	1388.52
273.46	1351.66
273.67	1378.28
273.89	1378.28
274.10	1437.67
274.32	1366.00
274.54	1374.19
274.75	1339.37
274.97	1363.95
275.18	1386.47
275.40	1388.52
275.61	1314.80
275.83	1357.80
276.05	1322.99
276.26	1368.04
276.48	1402.86
276.69	1363.95
276.91	1312.75
277.12	1452.01
277.34	1357.80
277.55	1431.53
277.77	1343.47
277.99	1335.28
278.20	1413.10
278.42	1286.12
278.63	1347.56
278.85	1396.71
279.06	1339.37
279.28	1341.42
279.49	1343.47
279.71	1361.90
279.93	1368.04
280.14	1396.71
280.36	1314.80
280.57	1380.33
280.79	1355.76
281.00	1335.28
281.22	1370.09
281.43	1439.72
281.65	1343.47
281.86	1392.62
282.08	1427.43
282.29	1431.53
282.51	1286.12
282.73	1251.31
282.94	1325.04
283.16	1406.95
283.37	1437.67
283.59	1329.13
283.80	1304.56
284.02	1359.85
284.23	1308.65
284.45	1386.47
284.66	1300.46
284.88	1374.19
285.09	1347.56
285.31	1419.24
285.52	1404.91
285.74	1331.18
285.95	1411.05
286.17	1349.61
286.38	1345.52
286.60	1343.47
286.81	1394.67
287.03	1378.28
287.24	1363.95
287.46	1409.00
287.67	1404.91
287.89	1503.21
288.10	1435.63
288.32	1366.00
288.53	1419.24
288.75	1355.76
288.96	1396.71
289.18	1322.99
289.39	1368.04
289.61	1468.39
289.82	1433.58
290.04	1411.05
290.25	1357.80
290.47	1363.95
290.68	1335.28
290.90	1351.66
291.11	1292.27
291.33	1406.95
291.54	1345.52
291.76	1290.22
291.97	1341.42
292.18	1386.47
292.40	1294.32
292.61	1372.14
292.83	1425.39
293.04	1347.56
293.26	1392.62
293.47	1380.33
293.69	1290.22
293.90	1349.61
294.12	1419.24
294.33	1402.86
294.55	1439.72
294.76	1429.48
294.97	1382.38
295.19	1427.43
295.40	1224.69
295.62	1363.95
295.83	1458.15
296.05	1392.62
296.26	1386.47
296.48	1331.18
296.69	1370.09
296.90	1380.33
297.12	1396.71
297.33	1404.91
297.55	1349.61
297.76	1378.28
297.98	1388.52
298.19	1300.46
298.41	1376.24
298.62	1292.27
298.83	1376.24
299.05	1394.67
299.26	1384.43
299.48	1335.28
299.69	1419.24
299.90	1374.19
300.12	1368.04
300.33	1419.24
300.55	1374.19
300.76	1409.00
300.98	1351.66
301.19	1419.24
301.40	1433.58
301.62	1411.05
301.83	1329.13
302.05	1378.28
302.26	1341.42
302.47	1308.65
302.69	1366.00
302.90	1396.71
303.12	1304.56
303.33	1355.76
303.54	1501.16
303.76	1349.61
303.97	1386.47
304.19	1464.30
304.40	1421.29
304.61	1396.71
304.83	1464.30
305.04	1439.72
305.26	1384.43
305.47	1357.80
305.68	1419.24
305.90	1329.13
306.11	1355.76
306.33	1322.99
306.54	1386.47
306.75	1345.52
306.97	1271.79
307.18	1290.22
307.39	1286.12
307.61	1333.23
307.82	1361.90
308.04	1349.61
308.25	1310.70
308.46	1460.20
308.68	1427.43
308.89	1372.14
309.10	1409.00
309.32	1423.34
309.53	1437.67
309.74	1458.15
309.96	1368.04
310.17	1370.09
310.39	1425.39
310.60	1341.42
310.81	1445.87
311.03	1331.18
311.24	1345.52
311.45	1380.33
311.67	1374.19
311.88	1292.27
312.09	1419.24
312.31	1329.13
312.52	1345.52
312.73	1339.37
312.95	1302.51
313.16	1345.52
313.37	1380.33
313.59	1394.67
313.80	1372.14
314.01	1402.86
314.23	1406.95
314.44	1337.32
314.65	1355.76
314.87	1320.94
315.08	1290.22
315.29	1325.04
315.51	1380.33
315.72	1316.84
315.93	1495.02
316.15	1331.18
316.36	1366.00
316.57	1394.67
316.79	1312.75
317.00	1349.61
317.21	1388.52
317.43	1411.05
317.64	1404.91
317.85	1380.33
318.07	1531.88
318.28	1576.94
318.49	1595.37
318.70	1611.75
318.92	1509.35
319.13	1591.27
319.34	1390.57
319.56	1445.87
319.77	1429.48
319.98	1429.48
320.20	1417.19
320.41	1474.54
320.62	1413.10
320.83	1372.14
321.05	1462.25
321.26	1359.85
321.47	1361.90
321.69	1409.00
321.90	1277.93
322.11	1331.18
322.32	1423.34
322.54	1441.77
322.75	1380.33
322.96	1419.24
323.18	1341.42
323.39	1304.56
323.60	1374.19
323.81	1390.57
324.03	1331.18
324.24	1394.67
324.45	1345.52
324.66	1343.47
324.88	1388.52
325.09	1435.63
325.30	1351.66
325.52	1390.57
325.73	1396.71
325.94	1415.15
326.15	1261.55
326.37	1380.33
326.58	1380.33
326.79	1349.61
327.00	1333.23
327.22	1374.19
327.43	1335.28
327.64	1372.14
327.85	1384.43
328.07	1419.24
328.28	1370.09
328.49	1286.12
328.70	1406.95
328.92	1361.90
329.13	1333.23
329.34	1327.08
329.55	1339.37
329.76	1402.86
329.98	1353.71
330.19	1417.19
330.40	1331.18
330.61	1314.80
330.83	1320.94
331.04	1398.76
331.25	1341.42
331.46	1355.76
331.68	1333.23
331.89	1419.24
332.10	1380.33
332.31	1331.18
332.52	1302.51
332.74	1449.96
332.95	1310.70
333.16	1378.28
333.37	1349.61
333.58	1376.24
333.80	1402.86
334.01	1306.60
334.22	1390.57
334.43	1312.75
334.64	1355.76
334.86	1345.52
335.07	1347.56
335.28	1417.19
335.49	1302.51
335.70	1439.72
335.92	1361.90
336.13	1470.44
336.34	1435.63
336.55	1396.71
336.76	1378.28
336.98	1335.28
337.19	1318.89
337.40	1423.34
337.61	1456.11
337.82	1286.12
338.04	1353.71
338.25	1314.80
338.46	1300.46
338.67	1363.95
338.88	1300.46
339.09	1341.42
339.31	1296.36
339.52	1374.19
339.73	1288.17
339.94	1380.33
340.15	1482.73
340.36	1402.86
340.58	1392.62
340.79	1329.13
341.00	1384.43
341.21	1355.76
341.42	1378.28
341.63	1406.95
341.85	1400.81
342.06	1343.47
342.27	1388.52
342.48	1376.24
342.69	1296.36
342.90	1370.09
343.12	1306.60
343.33	1331.18
343.54	1431.53
343.75	1388.52
343.96	1345.52
344.17	1380.33
344.38	1402.86
344.60	1335.28
344.81	1368.04
345.02	1290.22
345.23	1386.47
345.44	1419.24
345.65	1421.29
345.86	1421.29
346.07	1312.75
346.29	1329.13
346.50	1398.76
346.71	1357.80
346.92	1400.81
347.13	1464.30
347.34	1372.14
347.55	1337.32
347.76	1409.00
347.98	1298.41
348.19	1339.37
348.40	1439.72
348.61	1376.24
348.82	1525.74
349.03	1388.52
349.24	1296.36
349.45	1425.39
349.66	1351.66
349.88	1337.32
350.09	1359.85
350.30	1425.39
350.51	1433.58
350.72	1427.43
350.93	1363.95
351.14	1345.52
351.35	1441.77
351.56	1345.52
351.77	1312.75
351.99	1335.28
352.20	1409.00
352.41	1396.71
352.62	1353.71
352.83	1378.28
353.04	1341.42
353.25	1333.23
353.46	1310.70
353.67	1398.76
353.88	1339.37
354.09	1490.92
354.30	1411.05
354.52	1411.05
354.73	1337.32
354.94	1353.71
355.15	1372.14
355.36	1484.78
355.57	1302.51
355.78	1329.13
355.99	1304.56
356.20	1349.61
356.41	1474.54
356.62	1378.28
356.83	1413.10
357.04	1331.18
357.25	1386.47
357.46	1388.52
357.68	1322.99
357.89	1318.89
358.10	1331.18
358.31	1335.28
358.52	1396.71
358.73	1310.70
358.94	1337.32
359.15	1327.08
359.36	1417.19
359.57	1355.76
359.78	1316.84
359.99	1312.75
360.20	1304.56
360.41	1406.95
360.62	1347.56
360.83	1437.67
361.04	1474.54
361.25	1427.43
361.46	1343.47
361.67	1415.15
361.88	1476.59
362.09	1443.82
362.30	1327.08
362.51	1363.95
362.72	1290.22
362.93	1425.39
363.14	1359.85
363.35	1413.10
363.56	1382.38
363.78	1456.11
363.99	1398.76
364.20	1335.28
364.41	1400.81
364.62	1525.74
364.83	1384.43
365.04	1335.28
365.25	1337.32
365.46	1464.30
365.67	1372.14
365.88	1396.71
366.09	1427.43
366.30	1361.90
366.51	1363.95
366.72	1290.22
366.93	1392.62
367.14	1298.41
367.35	1415.15
367.56	1366.00
367.77	1376.24
367.98	1425.39
368.18	1361.90
368.39	1335.28
368.60	1282.03
368.81	1318.89
369.02	1345.52
369.23	1400.81
369.44	1363.95
369.65	1327.08
369.86	1304.56
370.07	1316.84
370.28	1366.00
370.49	1351.66
370.70	1402.86
370.91	1366.00
371.12	1304.56
371.33	1343.47
371.54	1386.47
371.75	1372.14
371.96	1325.04
372.17	1392.62
372.38	1277.93
372.59	1394.67
372.80	1366.00
373.01	1327.08
373.22	1409.00
373.43	1363.95
373.64	1425.39
373.85	1468.39
374.06	1421.29
374.26	1415.15
374.47	1376.24
374.68	1460.20
374.89	1310.70
375.10	1302.51
375.31	1398.76
375.52	1366.00
375.73	1345.52
375.94	1396.71
376.15	1329.13
376.36	1341.42
376.57	1404.91
376.78	1308.65
376.99	1341.42
377.20	1480.68
377.40	1359.85
377.61	1443.82
377.82	1265.64
378.03	1468.39
378.24	1382.38
378.45	1347.56
378.66	1409.00
378.87	1288.17
379.08	1327.08
379.29	1329.13
379.50	1431.53
379.71	1343.47
379.91	1347.56
380.12	1384.43
380.33	1445.87
380.54	1355.76
380.75	1361.90
380.96	1339.37
381.17	1425.39
381.38	1435.63
381.59	1495.02
381.80	1474.54
382.00	1509.35
382.21	1374.19
382.42	1480.68
382.63	1519.59
382.84	1378.28
383.05	1376.24
383.26	1396.71
383.47	1417.19
383.68	1392.62
383.88	1413.10
384.09	1411.05
384.30	1390.57
384.51	1415.15
384.72	1372.14
384.93	1310.70
385.14	1386.47
385.35	1406.95
385.55	1282.03
385.76	1404.91
385.97	1357.80
386.18	1380.33
386.39	1325.04
386.60	1429.48
386.81	1429.48
387.02	1421.29
387.22	1421.29
387.43	1423.34
387.64	1572.84
387.85	2197.47
388.06	5840.81
388.27	9525.10
388.48	11669.33
388.68	12980.03
388.89	13627.18
389.10	10661.73
389.31	9234.29
389.52	8406.91
389.73	7358.35
389.93	6956.95
390.14	6449.05
390.35	6107.04
390.56	5535.66
390.77	4628.41
390.98	3700.68
391.18	2801.62
391.39	2119.65
391.60	1677.29
391.81	1587.18
392.02	1392.62
392.23	1486.83
392.43	1406.95
392.64	1529.83
392.85	1447.91
393.06	1376.24
393.27	1452.01
393.47	1325.04
393.68	1347.56
393.89	1368.04
394.10	1456.11
394.31	1345.52
394.52	1394.67
394.72	1335.28
394.93	1386.47
395.14	1402.86
395.35	1443.82
395.56	1398.76
395.76	1628.14
395.97	1570.79
396.18	1570.79
396.39	1568.74
396.60	1624.04
396.80	1533.93
397.01	1529.83
397.22	1492.97
397.43	1507.30
397.64	1417.19
397.84	1568.74
398.05	1546.22
398.26	1423.34
398.47	1376.24
398.67	1452.01
398.88	1431.53
399.09	1419.24
399.30	1339.37
399.51	1341.42
399.71	1312.75
399.92	1351.66
400.13	1454.06
400.34	1292.27
400.54	1421.29
400.75	1466.35
400.96	1452.01
401.17	1452.01
401.37	1380.33
401.58	1359.85
401.79	1525.74
402.00	1671.14
402.21	1783.78
402.41	1722.34
402.62	1810.40
402.83	1646.57
403.04	1599.46
403.24	1703.91
403.45	1564.65
403.66	1572.84
403.87	1525.74
404.07	1619.94
404.28	1554.41
404.49	1480.68
404.70	1478.63
404.90	1492.97
405.11	1447.91
405.32	1437.67
405.52	1417.19
405.73	1386.47
405.94	1372.14
406.15	1378.28
406.35	1382.38
406.56	1372.14
406.77	1351.66
406.98	1392.62
407.18	1404.91
407.39	1400.81
407.60	1386.47
407.80	1384.43
408.01	1417.19
408.22	1329.13
408.43	1333.23
408.63	1382.38
408.84	1449.96
409.05	1447.91
409.25	1388.52
409.46	1322.99
409.67	1386.47
409.88	1462.25
410.08	1435.63
410.29	1390.57
410.50	1394.67
410.70	1396.71
410.91	1269.74
411.12	1372.14
411.32	1355.76
411.53	1406.95
411.74	1421.29
411.95	1517.54
412.15	1462.25
412.36	1447.91
412.57	1435.63
412.77	1429.48
412.98	1400.81
413.19	1390.57
413.39	1396.71
413.60	1421.29
413.81	1454.06
414.01	1480.68
414.22	1357.80
414.43	1499.11
414.63	1300.46
414.84	1417.19
415.05	1423.34
415.25	1337.32
415.46	1392.62
415.67	1325.04
415.87	1460.20
416.08	1417.19
416.29	1388.52
416.49	1404.91
416.70	1320.94
416.91	1347.56
417.11	1335.28
417.32	1290.22
417.53	1413.10
417.73	1306.60
417.94	1370.09
418.15	1398.76
418.35	1312.75
418.56	1351.66
418.77	1370.09
418.97	1363.95
419.18	1345.52
419.38	1255.40
419.59	1325.04
419.80	1372.14
420.00	1325.04
420.21	1300.46
420.42	1466.35
420.62	1398.76
420.83	1310.70
421.04	1353.71
421.24	1355.76
421.45	1445.87
421.65	1404.91
421.86	1355.76
422.07	1390.57
422.27	1419.24
422.48	1402.86
422.69	1282.03
422.89	1409.00
423.10	1433.58
423.30	1318.89
423.51	1484.78
423.72	1275.88
423.92	1306.60
424.13	1325.04
424.33	1361.90
424.54	1345.52
424.75	1413.10
424.95	1505.26
425.16	1308.65
425.36	1366.00
425.57	1345.52
425.78	1445.87
425.98	1406.95
426.19	1302.51
426.39	1331.18
426.60	1327.08
426.81	1400.81
427.01	1322.99
427.22	1376.24
427.42	1349.61
427.63	1300.46
427.83	1333.23
428.04	1357.80
428.25	1368.04
428.45	1441.77
428.66	1411.05
428.86	1425.39
429.07	1355.76
429.28	1337.32
429.48	1341.42
429.69	1404.91
429.89	1357.80
430.10	1212.40
430.30	1402.86
430.51	1413.10
430.71	1236.97
430.92	1366.00
431.13	1337.32
431.33	1370.09
431.54	1359.85
431.74	1429.48
431.95	1378.28
432.15	1368.04
432.36	1372.14
432.56	1421.29
432.77	1351.66
432.98	1427.43
433.18	1320.94
433.39	1363.95
433.59	1327.08
433.80	1449.96
434.00	1417.19
434.21	1351.66
434.41	1349.61
434.62	1449.96
434.82	1411.05
435.03	1310.70
435.23	1368.04
435.44	1331.18
435.64	1296.36
435.85	1396.71
436.06	1419.24
436.26	1417.19
436.47	1329.13
436.67	1411.05
436.88	1259.50
437.08	1331.18
437.29	1390.57
437.49	1400.81
437.70	1409.00
437.90	1349.61
438.11	1527.78
438.31	1503.21
438.52	1527.78
438.72	1544.17
438.93	1478.63
439.13	1462.25
439.34	1445.87
439.54	1398.76
439.75	1490.92
439.95	1413.10
440.16	1376.24
440.36	1359.85
440.57	1413.10
440.77	1478.63
440.98	1353.71
441.18	1345.52
441.39	1447.91
441.59	1318.89
441.80	1501.16
442.00	1441.77
442.21	1380.33
442.41	1306.60
442.62	1390.57
442.82	1357.80
443.02	1419.24
443.23	1421.29
443.43	1366.00
443.64	1449.96
443.84	1384.43
444.05	1435.63
444.25	1380.33
444.46	1370.09
444.66	1396.71
444.87	1437.67
445.07	1306.60
445.28	1306.60
445.48	1386.47
445.69	1527.78
445.89	1447.91
446.09	1515.50
446.30	2332.64
446.50	3620.81
446.71	4714.42
446.91	5355.44
447.12	5533.61
447.32	5064.63
447.53	4220.86
447.73	3819.46
447.93	3387.34
448.14	3155.92
448.34	3006.42
448.55	2979.79
448.75	2742.23
448.96	2688.98
449.16	2381.79
449.36	2234.33
449.57	1933.28
449.77	1724.39
449.98	1525.74
450.18	1492.97
450.39	1439.72
450.59	1429.48
450.79	1396.71
451.00	1304.56
451.20	1445.87
451.41	1411.05
451.61	1368.04
451.81	1402.86
452.02	1316.84
452.22	1343.47
452.43	1372.14
452.63	1306.60
452.84	1366.00
453.04	1445.87
453.24	1388.52
453.45	1310.70
453.65	1353.71
453.86	1322.99
454.06	1314.80
454.26	1335.28
454.47	1388.52
454.67	1429.48
454.87	1339.37
455.08	1331.18
455.28	1478.63
455.49	1374.19
455.69	1374.19
455.89	1413.10
456.10	1386.47
456.30	1380.33
456.51	1425.39
456.71	1357.80
456.91	1435.63
457.12	1372.14
457.32	1398.76
457.52	1396.71
457.73	1392.62
457.93	1366.00
458.14	1363.95
458.34	1372.14
458.54	1292.27
458.75	1308.65
458.95	1327.08
459.15	1439.72
459.36	1353.71
459.56	1411.05
459.76	1417.19
459.97	1339.37
460.17	1386.47
460.37	1431.53
460.58	1310.70
460.78	1390.57
460.99	1310.70
461.19	1413.10
461.39	1366.00
461.60	1286.12
461.80	1306.60
462.00	1355.76
462.21	1366.00
462.41	1337.32
462.61	1363.95
462.82	1300.46
463.02	1351.66
463.22	1357.80
463.43	1402.86
463.63	1363.95
463.83	1429.48
464.04	1388.52
464.24	1343.47
464.44	1392.62
464.64	1421.29
464.85	1351.66
465.05	1370.09
465.25	1398.76
465.46	1400.81
465.66	1409.00
465.86	1386.47
466.07	1402.86
466.27	1423.34
466.47	1355.76
466.68	1300.46
466.88	1511.40
467.08	1433.58
467.29	1411.05
467.49	1421.29
467.69	1310.70
467.89	1288.17
468.10	1415.15
468.30	1419.24
468.50	1427.43
468.71	1417.19
468.91	1419.24
469.11	1439.72
469.31	1359.85
469.52	1300.46
469.72	1492.97
469.92	1503.21
470.13	1343.47
470.33	1376.24
470.53	1581.03
470.73	2072.54
470.94	2236.38
471.14	2394.08
471.34	2547.67
471.54	2271.20
471.75	2045.92
471.95	1945.57
472.15	1806.31
472.36	1785.83
472.56	1722.34
472.76	1744.87
472.96	1722.34
473.17	1703.91
473.37	1595.37
473.57	1587.18
473.77	1558.50
473.98	1409.00
474.18	1339.37
474.38	1533.93
474.58	1355.76
474.79	1363.95
474.99	1427.43
475.19	1427.43
475.39	1402.86
475.60	1382.38
475.80	1337.32
476.00	1380.33
476.20	1374.19
476.41	1435.63
476.61	1458.15
476.81	1353.71
477.01	1368.04
477.21	1468.39
477.42	1415.15
477.62	1353.71
477.82	1394.67
478.02	1341.42
478.23	1429.48
478.43	1333.23
478.63	1390.57
478.83	1398.76
479.03	1390.57
479.24	1456.11
479.44	1439.72
479.64	1372.14
479.84	1329.13
480.04	1267.69
480.25	1380.33
480.45	1292.27
480.65	1349.61
480.85	1343.47
481.06	1347.56
481.26	1378.28
481.46	1298.41
481.66	1380.33
481.86	1339.37
482.06	1378.28
482.27	1382.38
482.47	1380.33
482.67	1376.24
482.87	1359.85
483.07	1468.39
483.28	1316.84
483.48	1353.71
483.68	1392.62
483.88	1304.56
484.08	1228.78
484.29	1304.56
484.49	1318.89
484.69	1396.71
484.89	1411.05
485.09	1400.81
485.29	1314.80
485.50	1443.82
485.70	1333.23
485.90	1351.66
486.10	1478.63
486.30	1398.76
486.50	1394.67
486.71	1343.47
486.91	1411.05
487.11	1476.59
487.31	1292.27
487.51	1443.82
487.71	1333.23
487.91	1320.94
488.12	1306.60
488.32	1275.88
488.52	1404.91
488.72	1345.52
488.92	1431.53
489.12	1359.85
489.32	1372.14
489.53	1306.60
489.73	1236.97
489.93	1437.67
490.13	1349.61
490.33	1382.38
490.53	1359.85
490.73	1398.76
490.94	1325.04
491.14	1374.19
491.34	1632.23
491.54	2117.60
491.74	2521.05
491.94	2942.93
492.14	3137.49
492.34	2861.01
492.54	2559.96
492.75	2293.72
492.95	2281.44
493.15	2097.12
493.35	2045.92
493.55	2015.20
493.75	1972.19
493.95	1841.12
494.15	1767.40
494.35	1667.05
494.56	1642.47
494.76	1544.17
494.96	1449.96
495.16	1474.54
495.36	1433.58
495.56	1425.39
495.76	1400.81
495.96	1378.28
496.16	1357.80
496.36	1447.91
496.56	1404.91
496.77	1406.95
496.97	1411.05
497.17	1372.14
497.37	1366.00
497.57	1384.43
497.77	1368.04
497.97	1304.56
498.17	1386.47
498.37	1384.43
498.57	1437.67
498.77	1392.62
498.97	1386.47
499.17	1495.02
499.38	1368.04
499.58	1462.25
499.78	1443.82
499.98	1427.43
500.18	1413.10
500.38	1337.32
500.58	1716.20
500.78	2881.49
500.98	5644.20
501.18	6883.22
501.38	8138.63
501.58	8343.42
501.78	7202.71
501.98	5713.83
502.18	5074.87
502.38	4573.11
502.58	4034.50
502.78	3665.86
502.98	3657.67
503.18	3497.93
503.38	3327.95
503.59	3106.77
503.79	2856.92
503.99	2582.49
504.19	2365.40
504.39	2183.13
504.59	2156.51
504.79	1898.47
504.99	1746.92
505.19	1699.81
505.39	1583.08
505.59	1562.60
505.79	1529.83
505.99	1538.02
506.19	1439.72
506.39	1576.94
506.59	1409.00
506.79	1470.44
506.99	1562.60
507.19	1466.35
507.39	1449.96
507.59	1347.56
507.79	1363.95
507.99	1284.08
508.19	1376.24
508.39	1406.95
508.59	1396.71
508.79	1503.21
508.99	1458.15
509.19	1355.76
509.39	1359.85
509.59	1409.00
509.79	1331.18
509.99	1376.24
510.19	1359.85
510.39	1464.30
510.59	1470.44
510.79	1337.32
510.99	1351.66
511.19	1406.95
511.39	1431.53
511.59	1470.44
511.79	1474.54
511.99	1429.48
512.19	1366.00
512.38	1415.15
512.58	1335.28
512.78	1413.10
512.98	1447.91
513.18	1470.44
513.38	1312.75
513.58	1427.43
513.78	1445.87
513.98	1398.76
514.18	1384.43
514.38	1429.48
514.58	1347.56
514.78	1325.04
514.98	1370.09
515.18	1339.37
515.38	1329.13
515.58	1449.96
515.78	1318.89
515.98	1318.89
516.18	1349.61
516.38	1345.52
516.57	1302.51
516.77	1372.14
516.97	1413.10
517.17	1386.47
517.37	1290.22
517.57	1355.76
517.77	1413.10
517.97	1380.33
518.17	1402.86
518.37	1351.66
518.57	1318.89
518.77	1325.04
518.97	1394.67
519.16	1413.10
519.36	1495.02
519.56	1390.57
519.76	1404.91
519.96	1396.71
520.16	1413.10
520.36	1333.23
520.56	1443.82
520.76	1308.65
520.96	1376.24
521.16	1404.91
521.35	1378.28
521.55	1542.12
521.75	1400.81
521.95	1341.42
522.15	1353.71
522.35	1306.60
522.55	1366.00
522.75	1380.33
522.95	1372.14
523.14	1374.19
523.34	1411.05
523.54	1341.42
523.74	1396.71
523.94	1355.76
524.14	1236.97
524.34	1435.63
524.54	1509.35
524.73	1359.85
524.93	1402.86
525.13	1419.24
525.33	1347.56
525.53	1462.25
525.73	1384.43
525.93	1431.53
526.13	1335.28
526.32	1384.43
526.52	1359.85
526.72	1437.67
526.92	1439.72
527.12	1378.28
527.32	1327.08
527.52	1386.47
527.71	1435.63
527.91	1361.90
528.11	1355.76
528.31	1363.95
528.51	1341.42
528.71	1431.53
528.90	1427.43
529.10	1478.63
529.30	1443.82
529.50	1265.64
529.70	1384.43
529.90	1357.80
530.09	1353.71
530.29	1325.04
530.49	1300.46
530.69	1425.39
530.89	1366.00
531.09	1460.20
531.28	1316.84
531.48	1392.62
531.68	1384.43
531.88	1343.47
532.08	1366.00
532.28	1370.09
532.47	1427.43
532.67	1411.05
532.87	1380.33
533.07	1310.70
533.27	1435.63
533.46	1413.10
533.66	1443.82
533.86	1376.24
534.06	1419.24
534.26	1449.96
534.45	1363.95
534.65	1386.47
534.85	1376.24
535.05	1355.76
535.25	1402.86
535.44	1337.32
535.64	1472.49
535.84	1353.71
536.04	1380.33
536.24	1437.67
536.43	1421.29
536.63	1386.47
536.83	1351.66
537.03	1378.28
537.22	1335.28
537.42	1333.23
537.62	1370.09
537.82	1413.10
538.02	1470.44
538.21	1355.76
538.41	1439.72
538.61	1370.09
538.81	1417.19
539.00	1458.15
539.20	1279.98
539.40	1331.18
539.60	1318.89
539.79	1374.19
539.99	1388.52
540.19	1359.85
540.39	1392.62
540.58	1353.71
540.78	1347.56
540.98	1445.87
541.18	1454.06
541.37	1445.87
541.57	1372.14
541.77	1400.81
541.97	1318.89
542.16	1345.52
542.36	1337.32
542.56	1343.47
542.76	1398.76
542.95	1409.00
543.15	1318.89
543.35	1357.80
543.54	1325.04
543.74	1363.95
543.94	1406.95
544.14	1392.62
544.33	1392.62
544.53	1308.65
544.73	1325.04
544.93	1345.52
545.12	1380.33
545.32	1347.56
545.52	1351.66
545.71	1394.67
545.91	1374.19
546.11	1322.99
546.30	1312.75
546.50	1331.18
546.70	1394.67
546.90	1427.43
547.09	1275.88
547.29	1376.24
547.49	1370.09
547.68	1378.28
547.88	1353.71
548.08	1322.99
548.27	1689.57
548.47	1384.43
548.67	1337.32
548.87	1429.48
549.06	1359.85
549.26	1382.38
549.46	1425.39
549.65	1396.71
549.85	1400.81
550.05	1394.67
550.24	1335.28
550.44	1357.80
550.64	1392.62
550.83	1314.80
551.03	1482.73
551.23	1497.07
551.42	1458.15
551.62	1300.46
551.82	1347.56
552.01	1394.67
552.21	1429.48
552.41	1325.04
552.60	1413.10
552.80	1361.90
553.00	1384.43
553.19	1409.00
553.39	1427.43
553.59	1384.43
553.78	1374.19
553.98	1433.58
554.17	1261.55
554.37	1325.04
554.57	1447.91
554.76	1282.03
554.96	1353.71
555.16	1374.19
555.35	1458.15
555.55	1406.95
555.75	1456.11
555.94	1378.28
556.14	1306.60
556.33	1411.05
556.53	1357.80
556.73	1368.04
556.92	1392.62
557.12	1427.43
557.32	1386.47
557.51	1400.81
557.71	1411.05
557.90	1427.43
558.10	1363.95
558.30	1425.39
558.49	1382.38
558.69	1353.71
558.88	1386.47
559.08	1449.96
559.28	1384.43
559.47	1439.72
559.67	1339.37
559.86	1423.34
560.06	1363.95
560.26	1441.77
560.45	1318.89
560.65	1345.52
560.84	1386.47
561.04	1413.10
561.24	1388.52
561.43	1265.64
561.63	1406.95
561.82	1423.34
562.02	1415.15
562.22	1380.33
562.41	1341.42
562.61	1386.47
562.80	1302.51
563.00	1429.48
563.19	1423.34
563.39	1452.01
563.59	1419.24
563.78	1343.47
563.98	1347.56
564.17	1327.08
564.37	1337.32
564.56	1394.67
564.76	1302.51
564.96	1437.67
565.15	1372.14
565.35	1462.25
565.54	1316.84
565.74	1382.38
565.93	1363.95
566.13	1437.67
566.32	1337.32
566.52	1394.67
566.71	1292.27
566.91	1427.43
567.11	1339.37
567.30	1372.14
567.50	1374.19
567.69	1325.04
567.89	1331.18
568.08	1376.24
568.28	1400.81
568.47	1400.81
568.67	1396.71
568.86	1388.52
569.06	1310.70
569.25	1429.48
569.45	1396.71
569.64	1443.82
569.84	1413.10
570.04	1402.86
570.23	1400.81
570.43	1386.47
570.62	1495.02
570.82	1368.04
571.01	1366.00
571.21	1351.66
571.40	1392.62
571.60	1390.57
571.79	1351.66
571.99	1437.67
572.18	1343.47
572.38	1449.96
572.57	1417.19
572.77	1386.47
572.96	1490.92
573.16	1398.76
573.35	1374.19
573.55	1435.63
573.74	1423.34
573.94	1341.42
574.13	1370.09
574.33	1531.88
574.52	1421.29
574.71	1368.04
574.91	1331.18
575.10	1374.19
575.30	1318.89
575.49	1382.38
575.69	1474.54
575.88	1439.72
576.08	1400.81
576.27	1435.63
576.47	1486.83
576.66	1470.44
576.86	1433.58
577.05	1472.49
577.25	1353.71
577.44	1533.93
577.64	1406.95
577.83	1468.39
578.02	1419.24
578.22	1427.43
578.41	1452.01
578.61	1409.00
578.80	1372.14
579.00	1433.58
579.19	1380.33
579.39	1312.75
579.58	1370.09
579.77	1378.28
579.97	1495.02
580.16	1546.22
580.36	1511.40
580.55	1488.87
580.75	1427.43
580.94	1458.15
581.13	1470.44
581.33	1495.02
581.52	1427.43
581.72	1495.02
581.91	1501.16
582.11	1452.01
582.30	1411.05
582.49	1497.07
582.69	1429.48
582.88	1505.26
583.08	1466.35
583.27	1406.95
583.47	1366.00
583.66	1390.57
583.85	1380.33
584.05	1404.91
584.24	1458.15
584.44	1474.54
584.63	1531.88
584.82	1435.63
585.02	1497.07
585.21	1587.18
585.41	1654.76
585.60	1550.31
585.79	1708.01
585.99	1683.43
586.18	1630.18
586.37	1882.08
586.57	2674.65
586.76	7903.11
586.96	23961.23
587.15	41254.28
587.34	52065.51
587.54	59538.55
587.73	59374.71
587.93	44866.90
588.12	32951.82
588.31	26703.46
588.51	22585.00
588.70	19936.98
588.89	18153.20
589.09	16858.88
589.28	15787.79
589.47	14153.51
589.67	12517.18
589.86	10669.92
590.06	8640.38
590.25	6526.88
590.44	4958.13
590.64	3692.49
590.83	2818.00
591.02	2293.72
591.22	1931.23
591.41	1820.64
591.60	1558.50
591.80	1589.22
591.99	1439.72
592.18	1456.11
592.38	1484.78
592.57	1435.63
592.76	1454.06
592.96	1419.24
593.15	1376.24
593.34	1400.81
593.54	1468.39
593.73	1474.54
593.92	1464.30
594.12	1482.73
594.31	1511.40
594.50	1550.31
594.70	1429.48
594.89	1513.45
595.08	1400.81
595.28	1415.15
595.47	1499.11
595.66	1452.01
595.86	1314.80
596.05	1419.24
596.24	1402.86
596.43	1499.11
596.63	1484.78
596.82	1421.29
597.01	1423.34
597.21	1474.54
597.40	1495.02
597.59	1441.77
597.79	1396.71
597.98	1462.25
598.17	1507.30
598.36	1380.33
598.56	1509.35
598.75	1427.43
598.94	1474.54
599.14	1357.80
599.33	1415.15
599.52	1390.57
599.71	1466.35
599.91	1470.44
600.10	1417.19
600.29	1411.05
600.48	1445.87
600.68	1363.95
600.87	1345.52
601.06	1390.57
601.26	1335.28
601.45	1368.04
601.64	1406.95
601.83	1517.54
602.03	1454.06
602.22	1306.60
602.41	1398.76
602.60	1396.71
602.80	1476.59
602.99	1374.19
603.18	1482.73
603.37	1417.19
603.57	1341.42
603.76	1458.15
603.95	1406.95
604.14	1421.29
604.34	1318.89
604.53	1325.04
604.72	1409.00
604.91	1353.71
605.10	1394.67
605.30	1390.57
605.49	1411.05
605.68	1484.78
605.87	1355.76
606.07	1378.28
606.26	1376.24
606.45	1409.00
606.64	1386.47
606.84	1325.04
607.03	1464.30
607.22	1480.68
607.41	1511.40
607.60	1433.58
607.80	1372.14
607.99	1382.38
608.18	1404.91
608.37	1310.70
608.56	1351.66
608.76	1363.95
608.95	1511.40
609.14	1499.11
609.33	1492.97
609.52	1456.11
609.72	1445.87
609.91	1460.20
610.10	1417.19
610.29	1439.72
610.48	1431.53
610.68	1423.34
610.87	1378.28
611.06	1429.48
611.25	1415.15
611.44	1425.39
611.63	1388.52
611.83	1507.30
612.02	1382.38
612.21	1486.83
612.40	1439.72
612.59	1357.80
612.79	1351.66
612.98	1376.24
613.17	1445.87
613.36	1429.48
613.55	1478.63
613.74	1503.21
613.93	1513.45
614.13	1570.79
614.32	1615.85
614.51	1632.23
614.70	1552.36
614.89	1449.96
615.08	1511.40
615.28	1654.76
615.47	1443.82
615.66	1411.05
615.85	1417.19
616.04	1634.28
616.23	1421.29
616.42	1445.87
616.62	1429.48
616.81	1423.34
617.00	1443.82
617.19	1413.10
617.38	1384.43
617.57	1329.13
617.76	1404.91
617.95	1341.42
618.15	1429.48
618.34	1439.72
618.53	1376.24
618.72	1452.01
618.91	1429.48
619.10	1449.96
619.29	1339.37
619.48	1361.90
619.68	1316.84
619.87	1343.47
620.06	1400.81
620.25	1359.85
620.44	1462.25
620.63	1353.71
620.82	1384.43
621.01	1396.71
621.20	1322.99
621.39	1392.62
621.59	1308.65
621.78	1392.62
621.97	1398.76
622.16	1419.24
622.35	1435.63
622.54	1404.91
622.73	1406.95
622.92	1413.10
623.11	1394.67
623.30	1394.67
623.49	1427.43
623.68	1318.89
623.88	1370.09
624.07	1443.82
624.26	1374.19
624.45	1411.05
624.64	1335.28
624.83	1349.61
625.02	1349.61
625.21	1320.94
625.40	1310.70
625.59	1495.02
625.78	1425.39
625.97	1423.34
626.16	1490.92
626.35	1441.77
626.54	1460.20
626.74	1513.45
626.93	1466.35
627.12	1417.19
627.31	1499.11
627.50	1390.57
627.69	1425.39
627.88	1435.63
628.07	1343.47
628.26	1370.09
628.45	1396.71
628.64	1347.56
628.83	1318.89
629.02	1456.11
629.21	1374.19
629.40	1394.67
629.59	1368.04
629.78	1400.81
629.97	1290.22
630.16	1337.32
630.35	1382.38
630.54	1441.77
630.73	1435.63
630.92	1515.50
631.11	1372.14
631.30	1384.43
631.49	1400.81
631.68	1390.57
631.87	1409.00
632.06	1374.19
632.25	1478.63
632.44	1433.58
632.63	1374.19
632.82	1380.33
633.01	1480.68
633.20	1521.64
633.39	1454.06
633.58	1482.73
633.77	1460.20
633.96	1452.01
634.15	1482.73
634.34	1384.43
634.53	1413.10
634.72	1445.87
634.91	1370.09
635.10	1404.91
635.29	1423.34
635.48	1411.05
635.67	1378.28
635.86	1273.84
636.05	1404.91
636.24	1409.00
636.43	1325.04
636.62	1357.80
636.81	1253.36
637.00	1413.10
637.19	1366.00
637.38	1386.47
637.57	1452.01
637.76	1380.33
637.95	1513.45
638.14	1452.01
638.33	1527.78
638.52	1505.26
638.71	1474.54
638.89	1366.00
639.08	1454.06
639.27	1474.54
639.46	1452.01
639.65	1740.77
639.84	1892.32
640.03	1953.76
640.22	2082.78
640.41	2174.94
640.60	1886.18
640.79	1748.97
640.98	1679.33
641.17	1671.14
641.36	1626.09
641.55	1572.84
641.74	1562.60
641.92	1562.60
642.11	1429.48
642.30	1492.97
642.49	1443.82
642.68	1406.95
642.87	1402.86
643.06	1359.85
643.25	1363.95
643.44	1398.76
643.63	1380.33
643.82	1429.48
644.00	1372.14
644.19	1345.52
644.38	1339.37
644.57	1355.76
644.76	1443.82
644.95	1456.11
645.14	1406.95
645.33	1310.70
645.52	1425.39
645.71	1308.65
645.89	1312.75
646.08	1370.09
646.27	1378.28
646.46	1423.34
646.65	1361.90
646.84	1388.52
647.03	1357.80
647.22	1468.39
647.40	1380.33
647.59	1370.09
647.78	1370.09
647.97	1357.80
648.16	1292.27
648.35	1398.76
648.54	1411.05
648.73	1341.42
648.91	1409.00
649.10	1398.76
649.29	1335.28
649.48	1355.76
649.67	1347.56
649.86	1351.66
650.05	1390.57
650.23	1527.78
650.42	1460.20
650.61	1544.17
650.80	1613.80
650.99	1585.13
651.18	1486.83
651.36	1486.83
651.55	1462.25
651.74	1415.15
651.93	1433.58
652.12	1335.28
652.31	1388.52
652.49	1499.11
652.68	1417.19
652.87	1525.74
653.06	1411.05
653.25	1478.63
653.44	1388.52
653.62	1462.25
653.81	1359.85
654.00	1415.15
654.19	1488.87
654.38	1437.67
654.56	1374.19
654.75	1327.08
654.94	1322.99
655.13	1394.67
655.32	1425.39
655.51	1454.06
655.69	1353.71
655.88	1402.86
656.07	1372.14
656.26	1337.32
656.45	1312.75
656.63	1384.43
656.82	1400.81
657.01	1411.05
657.20	1355.76
657.38	1392.62
657.57	1400.81
657.76	1296.36
657.95	1331.18
658.14	1445.87
658.32	1290.22
658.51	1390.57
658.70	1372.14
658.89	1452.01
659.08	1370.09
659.26	1419.24
659.45	1417.19
659.64	1482.73
659.83	1386.47
660.01	1488.87
660.20	1443.82
660.39	1462.25
660.58	1298.41
660.76	1349.61
660.95	1386.47
661.14	1421.29
661.33	1288.17
661.51	1386.47
661.70	1417.19
661.89	1452.01
662.08	1411.05
662.26	1363.95
662.45	1327.08
662.64	1460.20
662.83	1398.76
663.01	1265.64
663.20	1290.22
663.39	1452.01
663.58	1361.90
663.76	1370.09
663.95	1378.28
664.14	1366.00
664.32	1320.94
664.51	1318.89
664.70	1302.51
664.89	1404.91
665.07	1361.90
665.26	1470.44
665.45	1353.71
665.64	1398.76
665.82	1386.47
666.01	1359.85
666.20	1400.81
666.38	1449.96
666.57	1452.01
666.76	1617.90
666.95	2027.49
667.13	4532.15
667.32	11370.32
667.51	18124.52
667.69	21655.22
667.88	24696.46
668.07	24538.76
668.25	19007.20
668.44	13606.70
668.63	11048.79
668.81	9189.24
669.00	8212.35
669.19	7448.46
669.38	6832.02
669.56	6191.01
669.75	5572.52
669.94	4972.47
670.12	4140.99
670.31	3590.09
670.50	2930.64
670.68	2596.82
670.87	2183.13
671.06	1837.03
671.24	1695.72
671.43	1630.18
671.62	1509.35
671.80	1525.74
671.99	1538.02
672.18	1466.35
672.36	1443.82
672.55	1417.19
672.74	1374.19
672.92	1390.57
673.11	1347.56
673.29	1404.91
673.48	1435.63
673.67	1355.76
673.85	1505.26
674.04	1363.95
674.23	1433.58
674.41	1447.91
674.60	1366.00
674.79	1304.56
674.97	1374.19
675.16	1458.15
675.34	1411.05
675.53	1355.76
675.72	1382.38
675.90	1390.57
676.09	1396.71
676.28	1337.32
676.46	1288.17
676.65	1296.36
676.83	1298.41
677.02	1327.08
677.21	1443.82
677.39	1329.13
677.58	1368.04
677.77	1349.61
677.95	1359.85
678.14	1343.47
678.32	1341.42
678.51	1310.70
678.70	1380.33
678.88	1368.04
679.07	1425.39
679.25	1366.00
679.44	1394.67
679.63	1273.84
679.81	1413.10
680.00	1437.67
680.18	1447.91
680.37	1325.04
680.55	1392.62
680.74	1353.71
680.93	1318.89
681.11	1413.10
681.30	1443.82
681.48	1427.43
681.67	1386.47
681.85	1357.80
682.04	1386.47
682.23	1402.86
682.41	1427.43
682.60	1286.12
682.78	1339.37
682.97	1363.95
683.15	1368.04
683.34	1415.15
683.53	1478.63
683.71	1300.46
683.90	1415.15
684.08	1355.76
684.27	1398.76
684.45	1325.04
684.64	1443.82
684.82	1378.28
685.01	1394.67
685.19	1392.62
685.38	1392.62
685.57	1327.08
685.75	1353.71
685.94	1345.52
686.12	1318.89
686.31	1341.42
686.49	1402.86
686.68	1339.37
686.86	1312.75
687.05	1327.08
687.23	1419.24
687.42	1353.71
687.60	1292.27
687.79	1384.43
687.97	1429.48
688.16	1384.43
688.34	1351.66
688.53	1318.89
688.71	1413.10
688.90	1411.05
689.08	1419.24
689.27	1294.32
689.45	1380.33
689.64	1376.24
689.82	1318.89
690.01	1357.80
690.19	1372.14
690.38	1349.61
690.56	1376.24
690.75	1443.82
690.93	1345.52
691.12	1306.60
691.30	1331.18
691.49	1347.56
691.67	1404.91
691.86	1431.53
692.04	1302.51
692.23	1386.47
692.41	1378.28
692.60	1456.11
692.78	1507.30
692.97	1433.58
693.15	1417.19
693.34	1548.26
693.52	1470.44
693.71	1392.62
693.89	1390.57
694.08	1359.85
694.26	1417.19
694.44	1439.72
694.63	1402.86
694.81	1347.56
695.00	1320.94
695.18	1411.05
695.37	1460.20
695.55	1456.11
695.74	1378.28
695.92	1415.15
696.10	1386.47
696.29	1327.08
696.47	1322.99
696.66	1333.23
696.84	1325.04
697.03	1380.33
697.21	1409.00
697.40	1757.16
697.58	1396.71
697.76	1292.27
697.95	1359.85
698.13	1337.32
698.32	1339.37
698.50	1419.24
698.68	1396.71
698.87	1388.52
699.05	1384.43
699.24	1386.47
699.42	1310.70
699.61	1396.71
699.79	1355.76
699.97	1372.14
700.16	1349.61
700.34	1361.90
700.53	1380.33
700.71	1439.72
700.89	1380.33
701.08	1419.24
701.26	1380.33
701.45	1671.14
701.63	1413.10
701.81	1331.18
702.00	1308.65
702.18	1384.43
702.37	1347.56
702.55	1468.39
702.73	1460.20
702.92	1529.83
703.10	1542.12
703.28	1642.47
703.47	1576.94
703.65	1648.61
703.84	1523.69
704.02	1554.41
704.20	1564.65
704.39	1515.50
704.57	1480.68
704.75	1544.17
704.94	1466.35
705.12	1517.54
705.30	1474.54
705.49	1603.56
705.67	1857.51
705.86	3608.52
706.04	8935.29
706.22	16166.67
706.41	19498.71
706.59	22585.00
706.77	23627.42
706.96	19769.04
707.14	13920.04
707.32	11208.53
707.51	9156.47
707.69	8236.93
707.87	7290.77
708.06	6748.06
708.24	6070.18
708.42	4982.71
708.61	4014.02
708.79	3010.51
708.97	2355.16
709.16	1929.19
709.34	1738.73
709.52	1613.80
709.71	1509.35
709.89	1544.17
710.07	1384.43
710.26	1378.28
710.44	1370.09
710.62	1495.02
710.80	1421.29
710.99	1409.00
711.17	1492.97
711.35	1341.42
711.54	1339.37
711.72	1349.61
711.90	1435.63
712.09	1402.86
712.27	1413.10
712.45	1476.59
712.63	1347.56
712.82	1409.00
713.00	1437.67
713.18	1429.48
713.37	1417.19
713.55	1413.10
713.73	1439.72
713.91	1392.62
714.10	1429.48
714.28	1318.89
714.46	1429.48
714.65	1400.81
714.83	1386.47
715.01	1355.76
715.19	1300.46
715.38	1345.52
715.56	1355.76
715.74	1363.95
715.92	1335.28
716.11	1419.24
716.29	1312.75
716.47	1415.15
716.65	1404.91
716.84	1378.28
717.02	1480.68
717.20	1327.08
717.38	1329.13
717.57	1335.28
717.75	1398.76
717.93	1331.18
718.11	1472.49
718.30	1372.14
718.48	1411.05
718.66	1361.90
718.84	1406.95
719.03	1363.95
719.21	1259.50
719.39	1415.15
719.57	1386.47
719.75	1370.09
719.94	1386.47
720.12	1322.99
720.30	1386.47
720.48	1449.96
720.67	1363.95
720.85	1259.50
721.03	1370.09
721.21	1314.80
721.39	1441.77
721.58	1376.24
721.76	1298.41
721.94	1400.81
722.12	1390.57
722.30	1409.00
722.49	1337.32
722.67	1378.28
722.85	1376.24
723.03	1314.80
723.21	1372.14
723.40	1415.15
723.58	1396.71
723.76	1429.48
723.94	1456.11
724.12	1384.43
724.30	1472.49
724.49	1466.35
724.67	1501.16
724.85	1492.97
725.03	1386.47
725.21	1415.15
725.40	1386.47
725.58	1458.15
725.76	1449.96
725.94	1409.00
726.12	1337.32
726.30	1388.52
726.49	1378.28
726.67	1359.85
726.85	1466.35
727.03	1423.34
727.21	1409.00
727.39	1560.55
727.57	2021.35
727.76	3373.00
727.94	4440.00
728.12	4888.50
728.30	5132.21
728.48	5015.48
728.66	4218.82
728.84	3411.92
729.03	3035.09
729.21	2865.11
729.39	2562.01
729.57	2152.42
729.75	2025.44
729.93	1796.07
730.11	1570.79
730.30	1490.92
730.48	1402.86
730.66	1470.44
730.84	1394.67
731.02	1380.33
731.20	1396.71
731.38	1318.89
731.56	1325.04
731.74	1294.32
731.93	1349.61
732.11	1390.57
732.29	1314.80
732.47	1380.33
732.65	1421.29
732.83	1449.96
733.01	1288.17
733.19	1355.76
733.37	1388.52
733.56	1368.04
733.74	1376.24
733.92	1304.56
734.10	1400.81
734.28	1425.39
734.46	1415.15
734.64	1413.10
734.82	1325.04
735.00	1279.98
735.18	1312.75
735.36	1357.80
735.54	1355.76
735.73	1366.00
735.91	1417.19
736.09	1349.61
736.27	1298.41
736.45	1464.30
736.63	1275.88
736.81	1337.32
736.99	1390.57
737.17	1366.00
737.35	1284.08
737.53	1386.47
737.71	1331.18
737.89	1384.43
738.07	1355.76
738.25	1368.04
738.43	1347.56
738.61	1368.04
738.80	1290.22
738.98	1333.23
739.16	1357.80
739.34	1339.37
739.52	1433.58
739.70	1337.32
739.88	1429.48
740.06	1394.67
740.24	1261.55
740.42	1343.47
740.60	1392.62
740.78	1320.94
740.96	1333.23
741.14	1406.95
741.32	1388.52
741.50	1341.42
741.68	1497.07
741.86	1460.20
742.04	1282.03
742.22	1361.90
742.40	1337.32
742.58	1335.28
742.76	1345.52
742.94	1355.76
743.12	1296.36
743.30	1378.28
743.48	1349.61
743.66	1419.24
743.84	1437.67
744.02	1392.62
744.20	1396.71
744.38	1384.43
744.56	1351.66
744.74	1421.29
744.92	1431.53
745.10	1411.05
745.28	1327.08
745.46	1331.18
745.64	1306.60
745.82	1345.52
746.00	1366.00
746.18	1372.14
746.36	1306.60
746.54	1417.19
746.72	1306.60
746.90	1355.76
747.08	1417.19
747.26	1345.52
747.44	1374.19
747.62	1361.90
747.80	1298.41
747.98	1433.58
748.15	1292.27
748.33	1435.63
748.51	1314.80
748.69	1476.59
748.87	1353.71
749.05	1419.24
749.23	1394.67
749.41	1353.71
749.59	1392.62
749.77	1378.28
749.95	1396.71
750.13	1376.24
750.31	1382.38
750.49	1310.70
750.67	1449.96
750.85	1398.76
751.03	1409.00
751.20	1392.62
751.38	1402.86
751.56	1353.71
751.74	1413.10
751.92	1374.19
752.10	1359.85
752.28	1443.82
752.46	1345.52
752.64	1380.33
752.82	1349.61
753.00	1437.67
753.18	1359.85
753.35	1396.71
753.53	1431.53
753.71	1363.95
753.89	1370.09
754.07	1361.90
754.25	1427.43
754.43	1390.57
754.61	1374.19
754.79	1339.37
754.97	1417.19
755.14	1390.57
755.32	1314.80
755.50	1366.00
755.68	1386.47
755.86	1370.09
756.04	1312.75
756.22	1269.74
756.40	1409.00
756.57	1466.35
756.75	1273.84
756.93	1404.91
757.11	1402.86
757.29	1288.17
757.47	1386.47
757.65	1368.04
757.82	1296.36
758.00	1308.65
758.18	1388.52
758.36	1325.04
758.54	1351.66
758.72	1316.84
758.90	1361.90
759.07	1374.19
759.25	1396.71
759.43	1368.04
759.61	1355.76
759.79	1660.90
759.97	1372.14
760.15	1343.47
760.32	1325.04
760.50	1335.28
760.68	1411.05
760.86	1279.98
761.04	1363.95
761.22	1361.90
761.39	1277.93
761.57	1390.57
761.75	1380.33
761.93	1402.86
762.11	1298.41
762.28	1347.56
762.46	1390.57
762.64	1435.63
762.82	1363.95
763.00	1331.18
763.18	1380.33
763.35	1335.28
763.53	1339.37
763.71	1331.18
763.89	1394.67
764.07	1390.57
764.24	1359.85
764.42	1468.39
764.60	1366.00
764.78	1339.37
764.96	1378.28
765.13	1437.67
765.31	1386.47
765.49	1374.19
765.67	1341.42
765.84	1368.04
766.02	1341.42
766.20	1279.98
766.38	1429.48
766.56	1413.10
766.73	1376.24
766.91	1343.47
767.09	1443.82
767.27	1363.95
767.44	1404.91
767.62	1347.56
767.80	1386.47
767.98	1394.67
768.15	1353.71
768.33	1394.67
768.51	1372.14
768.69	1363.95
768.87	1447.91
769.04	1431.53
769.22	1429.48
769.40	1380.33
769.58	1523.69
769.75	1419.24
769.93	1452.01
770.11	1417.19
770.28	1339.37
770.46	1431.53
770.64	1374.19
770.82	1284.08
770.99	1392.62
771.17	1374.19
771.35	1370.09
771.53	1269.74
771.70	1359.85
771.88	1423.34
772.06	1384.43
772.23	1374.19
772.41	1390.57
772.59	1290.22
772.77	1294.32
772.94	1417.19
773.12	1384.43
773.30	1298.41
773.47	1361.90
773.65	1325.04
773.83	1417.19
774.01	1355.76
774.18	1302.51
774.36	1335.28
774.54	1275.88
774.71	1357.80
774.89	1341.42
775.07	1284.08
775.24	1390.57
775.42	1366.00
775.60	1437.67
775.78	1398.76
775.95	1351.66
776.13	1349.61
776.31	1314.80
776.48	1339.37
776.66	1462.25
776.84	1320.94
777.01	1390.57
777.19	1363.95
777.37	1411.05
777.54	1353.71
777.72	1413.10
777.90	1447.91
778.07	1366.00
778.25	1464.30
778.43	1368.04
778.60	1372.14
778.78	1363.95
778.96	1386.47
779.13	1304.56
779.31	1421.29
779.49	1382.38
779.66	1351.66
779.84	1347.56
780.01	1359.85
780.19	1355.76
780.37	1427.43
780.54	1452.01
780.72	1400.81
780.90	1400.81
781.07	1419.24
781.25	1337.32
781.43	1413.10
781.60	1345.52
781.78	1396.71
781.95	1417.19
782.13	1394.67
782.31	1429.48
782.48	1343.47
782.66	1347.56
782.83	1437.67
783.01	1398.76
783.19	1429.48
783.36	1335.28
783.54	1308.65
783.72	1472.49
783.89	1366.00
784.07	1462.25
784.24	1357.80
784.42	1417.19
784.60	1390.57
784.77	1390.57
784.95	1304.56
785.12	1300.46
785.30	1339.37
785.47	1347.56
785.65	1347.56
785.83	1363.95
786.00	1345.52
786.18	1437.67
786.35	1329.13
786.53	1370.09
786.71	1470.44
786.88	1443.82
787.06	1320.94
787.23	1353.71
787.41	1390.57
787.58	1335.28
787.76	1337.32
787.94	1447.91
788.11	1388.52
788.29	1376.24
788.46	1363.95
788.64	1327.08
788.81	1333.23
788.99	1363.95
789.16	1339.37
789.34	1386.47
789.52	1349.61
789.69	1384.43
789.87	1312.75
790.04	1380.33
790.22	1363.95
790.39	1339.37
790.57	1357.80
790.74	1294.32
790.92	1431.53
791.09	1255.40
791.27	1320.94
791.44	1419.24
791.62	1353.71
791.79	1345.52
791.97	1345.52
792.15	1505.26
792.32	1359.85
792.50	1386.47
792.67	1413.10
792.85	1400.81
793.02	1368.04
793.20	1355.76
793.37	1368.04
793.55	1376.24
793.72	1355.76
793.90	1431.53
794.07	1275.88
794.25	1314.80
794.42	1363.95
794.60	1423.34
794.77	1376.24
794.95	1466.35
795.12	1370.09
795.30	1306.60
795.47	1298.41
795.65	1482.73
795.82	1409.00
796.00	1222.64
796.17	1415.15
796.34	1380.33
796.52	1404.91
796.69	1368.04
796.87	1380.33
797.04	1384.43
797.22	1392.62
797.39	1417.19
797.57	1411.05
797.74	1343.47
797.92	1372.14
798.09	1322.99
798.27	1400.81
798.44	1363.95
798.62	1314.80
798.79	1431.53
798.96	1343.47
799.14	1370.09
799.31	1419.24
799.49	1400.81
799.66	1310.70
799.84	1337.32
800.01	1302.51
800.19	1392.62
800.36	1257.45
800.53	1386.47
800.71	1390.57
800.88	1492.97
801.06	1277.93
801.23	1300.46
801.41	1294.32
801.58	1413.10
801.75	1331.18
801.93	1359.85
802.10	1333.23
802.28	1376.24
802.45	1316.84
802.63	1378.28
802.80	1468.39
802.97	1353.71
803.15	1300.46
803.32	1417.19
803.50	1298.41
803.67	1368.04
803.84	1359.85
804.02	1386.47
804.19	1347.56
804.37	1322.99
804.54	1275.88
804.71	1382.38
804.89	1353.71
805.06	1357.80
805.24	1284.08
805.41	1327.08
805.58	1398.76
805.76	1443.82
805.93	1331.18
806.10	1484.78
806.28	1384.43
806.45	1343.47
806.63	1306.60
806.80	1390.57
806.97	1390.57
807.15	1382.38
807.32	1409.00
807.49	1425.39
807.67	1314.80
807.84	1372.14
808.01	1277.93
808.19	1437.67
808.36	1423.34
808.54	1361.90
808.71	1355.76
808.88	1357.80
809.06	1415.15
809.23	1409.00
809.40	1310.70
809.58	1456.11
809.75	1382.38
809.92	1392.62
810.10	1435.63
810.27	1417.19
810.44	1265.64
810.62	1378.28
810.79	1361.90
810.96	1294.32
811.14	1421.29
811.31	1312.75
811.48	1413.10
811.66	1327.08
811.83	1394.67
812.00	1402.86
812.18	1396.71
812.35	1454.06
812.52	1347.56
812.69	1341.42
812.87	1398.76
813.04	1312.75
813.21	1355.76
813.39	1366.00
813.56	1341.42
813.73	1353.71
813.91	1314.80
814.08	1333.23
814.25	1439.72
814.42	1263.60
814.60	1386.47
814.77	1402.86
814.94	1400.81
815.12	1347.56
815.29	1435.63
815.46	1304.56
815.63	1376.24
815.81	1345.52
815.98	1298.41
816.15	1370.09
816.33	1341.42
816.50	1400.81
816.67	1345.52
816.84	1384.43
817.02	1302.51
817.19	1331.18
817.36	1384.43
817.53	1404.91
817.71	1310.70
817.88	1372.14
818.05	1376.24
818.22	1320.94
818.40	1456.11
818.57	1351.66
818.74	1409.00
818.91	1308.65
819.09	1316.84
819.26	1402.86
819.43	1355.76
819.60	1325.04
819.78	1427.43
819.95	1376.24
820.12	1380.33
820.29	1384.43
820.47	1454.06
820.64	1378.28
820.81	1216.49
820.98	1366.00
821.15	1306.60
821.33	1411.05
821.50	1296.36
821.67	1384.43
821.84	1409.00
822.02	1359.85
822.19	1402.86
822.36	1347.56
822.53	1404.91
822.70	1320.94
822.88	1298.41
823.05	1431.53
823.22	1339.37
823.39	1376.24
823.56	1357.80
823.74	1402.86
823.91	1388.52
824.08	1361.90
824.25	1382.38
824.42	1378.28
824.60	1351.66
824.77	1423.34
824.94	1355.76
825.11	1409.00
825.28	1263.60
825.45	1347.56
825.63	1300.46
825.80	1349.61
825.97	1421.29
826.14	1331.18
826.31	1333.23
826.48	1345.52
826.66	1261.55
826.83	1308.65
827.00	1357.80
827.17	1333.23
827.34	1327.08
827.51	1316.84
827.69	1337.32
827.86	1304.56
828.03	1320.94
828.20	1404.91
828.37	1396.71
828.54	1370.09
828.71	1372.14
828.89	1437.67
829.06	1394.67
829.23	1392.62
829.40	1343.47
829.57	1366.00
829.74	1357.80
829.91	1341.42
830.09	1308.65
830.26	1357.80
830.43	1411.05
830.60	1394.67
830.77	1347.56
830.94	1374.19
831.11	1366.00
831.28	1357.80
831.46	1409.00
831.63	1368.04
831.80	1347.56
831.97	1341.42
832.14	1312.75
832.31	1368.04
832.48	1325.04
832.65	1335.28
832.82	1339.37
832.99	1404.91
833.17	1318.89
833.34	1384.43
833.51	1372.14
833.68	1296.36
833.85	1454.06
834.02	1380.33
834.19	1419.24
834.36	1298.41
834.53	1378.28
834.70	1394.67
834.87	1376.24
835.04	1370.09
835.22	1259.50
835.39	1345.52
835.56	1312.75
835.73	1304.56
835.90	1404.91
836.07	1415.15
836.24	1355.76
836.41	1247.21
836.58	1386.47
836.75	1390.57
836.92	1429.48
837.09	1359.85
837.26	1359.85
837.43	1355.76
837.60	1314.80
837.77	1282.03
837.94	1423.34
838.12	1460.20
838.29	1413.10
838.46	1269.74
838.63	1314.80
838.80	1484.78
838.97	1363.95
839.14	1417.19
839.31	1347.56
839.48	1361.90
839.65	1378.28
839.82	1368.04
839.99	1363.95
840.16	1314.80
840.33	1329.13
840.50	1290.22
840.67	1257.45
840.84	1376.24
841.01	1411.05
841.18	1343.47
841.35	1318.89
841.52	1314.80
841.69	1388.52
841.86	1312.75
842.03	1329.13
842.20	1351.66
842.37	1427.43
842.54	1427.43
842.71	1337.32
842.88	1347.56
843.05	1423.34
843.22	1390.57
843.39	1423.34
843.56	1445.87
843.73	1384.43
843.90	1363.95
844.07	1398.76
844.24	1449.96
844.41	1357.80
844.58	1347.56
844.75	1396.71
844.92	1345.52
845.09	1376.24
845.26	1320.94
845.43	1300.46
845.60	1337.32
845.77	1396.71
845.94	1384.43
846.10	1380.33
846.27	1251.31
846.44	1363.95
846.61	1275.88
846.78	1398.76
846.95	1351.66
847.12	1355.76
847.29	1445.87
847.46	1411.05
847.63	1427.43
847.80	1337.32
847.97	1351.66
848.14	1437.67
848.31	1372.14
848.48	1339.37
848.65	1308.65
848.82	1284.08
848.98	1478.63
849.15	1355.76
849.32	1396.71
849.49	1386.47
849.66	1312.75
849.83	1384.43
850.00	1314.80
850.17	1439.72
850.34	1406.95
850.51	1347.56
850.68	1372.14
850.85	1390.57
851.01	1376.24
851.18	1394.67
851.35	1337.32
851.52	1437.67
851.69	1322.99
851.86	1253.36
852.03	1337.32
852.20	1366.00
852.37	1355.76
852.53	1329.13
852.70	1363.95
852.87	1368.04
853.04	1382.38
853.21	1374.19
853.38	1409.00
853.55	1380.33
853.72	1484.78
853.89	1386.47
854.05	1335.28
854.22	1318.89
854.39	1382.38
854.56	1388.52
854.73	1447.91
854.90	1337.32
855.07	1400.81
855.23	1394.67
855.40	1308.65
855.57	1404.91
855.74	1361.90
855.91	1464.30
856.08	1259.50
856.25	1388.52
856.41	1359.85
856.58	1320.94
856.75	1423.34
856.92	1261.55
857.09	1390.57
857.26	1314.80
857.42	1302.51
857.59	1396.71
857.76	1427.43
857.93	1382.38
858.10	1376.24
858.27	1286.12
858.43	1241.07
858.60	1331.18
858.77	1376.24
858.94	1421.29
859.11	1421.29
859.27	1433.58
859.44	1396.71
859.61	1429.48
859.78	1374.19
859.95	1329.13
860.12	1388.52
860.28	1376.24
860.45	1413.10
860.62	1296.36
860.79	1390.57
860.95	1322.99
861.12	1370.09
861.29	1359.85
861.46	1271.79
861.63	1331.18
861.79	1411.05
861.96	1255.40
862.13	1277.93
862.30	1433.58
862.47	1363.95
862.63	1386.47
862.80	1396.71
862.97	1374.19
863.14	1382.38
863.30	1402.86
863.47	1347.56
863.64	1378.28
863.81	1357.80
863.97	1345.52
864.14	1296.36
864.31	1394.67
864.48	1366.00
864.65	1333.23
864.81	1409.00
864.98	1351.66
865.15	1413.10
865.32	1421.29
865.48	1339.37
865.65	1488.87
865.82	1357.80
865.98	1370.09
866.15	1423.34
866.32	1390.57
866.49	1314.80
866.65	1341.42
866.82	1398.76
866.99	1357.80
867.16	1351.66
867.32	1372.14
867.49	1345.52
867.66	1318.89
867.83	1370.09
867.99	1382.38
868.16	1435.63
868.33	1304.56
868.49	1318.89
868.66	1347.56
868.83	1400.81
868.99	1329.13
869.16	1406.95
869.33	1497.07
869.50	1433.58
869.66	1366.00
869.83	1341.42
870.00	1308.65
870.16	1372.14
870.33	1402.86
870.50	1402.86
870.66	1294.32
870.83	1484.78
871.00	1370.09
871.17	1406.95
871.33	1435.63
871.50	1372.14
871.67	1368.04
871.83	1267.69
872.00	1376.24
872.17	1406.95
872.33	1392.62
872.50	1392.62
872.67	1316.84
872.83	1398.76
873.00	1409.00
873.17	1353.71
873.33	1452.01
873.50	1429.48
873.67	1314.80
873.83	1304.56
874.00	1322.99
874.16	1339.37
874.33	1374.19
874.50	1374.19
874.66	1443.82
874.83	1351.66
875.00	1441.77
875.16	1380.33
875.33	1359.85
875.50	1339.37
875.66	1300.46
875.83	1394.67
875.99	1312.75
876.16	1277.93
876.33	1382.38
876.49	1421.29
876.66	1357.80
876.83	1316.84
876.99	1261.55
877.16	1306.60
877.32	1275.88
877.49	1263.60
877.66	1361.90
877.82	1425.39
877.99	1374.19
878.15	1366.00
878.32	1351.66
878.49	1419.24
878.65	1304.56
878.82	1359.85
878.98	1396.71
879.15	1443.82
879.32	1366.00
879.48	1380.33
879.65	1374.19
879.81	1355.76
879.98	1366.00
880.15	1419.24
880.31	1349.61
880.48	1353.71
880.64	1363.95
880.81	1355.76
880.97	1439.72
881.14	1380.33
881.31	1339.37
881.47	1490.92
881.64	1425.39
881.80	1378.28
881.97	1411.05
882.13	1322.99
882.30	1355.76
882.47	1347.56
882.63	1347.56
882.80	1347.56
882.96	1380.33
883.13	1390.57
883.29	1349.61
883.46	1411.05
883.62	1372.14
883.79	1343.47
883.95	1382.38
884.12	1419.24
884.29	1376.24
884.45	1366.00
884.62	1437.67
884.78	1363.95
884.95	1357.80
885.11	1359.85
885.28	1398.76
885.44	1325.04
885.61	1445.87
885.77	1368.04
885.94	1431.53
886.10	1376.24
886.27	1347.56
886.43	1468.39
886.60	1392.62
886.76	1372.14
886.93	1331.18
887.09	1335.28
887.26	1331.18
887.42	1341.42
887.59	1441.77
887.75	1378.28
887.92	1404.91
888.08	1382.38
888.25	1425.39
888.41	1402.86
888.58	1411.05
888.74	1335.28
888.91	1347.56
>>>>>End Processed Spectral Data<<<<<
