SpectraSuite Data File
++++++++++++++++++++++++++++++++++++
Date: Tue May 03 11:24:57 CEST 2016
User: root
Dark Spectrum Present: No
Reference Spectrum Present: No
Number of Sampled Component Spectra: 1
Spectrometers: USB4C02835
Integration Time (usec): 100000 (USB4C02835)
Spectra Averaged: 1 (USB4C02835)
Boxcar Smoothing: 0 (USB4C02835)
Correct for Electrical Dark: No (USB4C02835)
Strobe/Lamp Enabled: No (USB4C02835)
Correct for Detector Non-linearity: No (USB4C02835)
Correct for Stray Light: No (USB4C02835)
Number of Pixels in Processed Spectrum: 3648
>>>>>Begin Processed Spectral Data<<<<<
177.47	1177.58
177.69	1177.58
177.91	1177.58
178.13	1228.78
178.36	1249.26
178.58	1290.22
178.80	1427.43
179.02	1302.51
179.24	1351.66
179.46	1349.61
179.68	1429.48
179.90	1333.23
180.13	1382.38
180.35	1398.76
180.57	1404.91
180.79	1382.38
181.01	1398.76
181.23	1345.52
181.45	1478.63
181.67	1394.67
181.90	1370.09
182.12	1343.47
182.34	1337.32
182.56	1421.29
182.78	1368.04
183.00	1454.06
183.22	1370.09
183.44	1263.60
183.66	1400.81
183.89	1462.25
184.11	1314.80
184.33	1404.91
184.55	1376.24
184.77	1402.86
184.99	1318.89
185.21	1306.60
185.43	1445.87
185.65	1380.33
185.87	1452.01
186.10	1439.72
186.32	1509.35
186.54	1425.39
186.76	1419.24
186.98	1370.09
187.20	1370.09
187.42	1368.04
187.64	1423.34
187.86	1402.86
188.08	1449.96
188.30	1349.61
188.52	1359.85
188.75	1333.23
188.97	1368.04
189.19	1327.08
189.41	1370.09
189.63	1413.10
189.85	1386.47
190.07	1271.79
190.29	1368.04
190.51	1374.19
190.73	1312.75
190.95	1398.76
191.17	1329.13
191.39	1331.18
191.61	1294.32
191.84	1398.76
192.06	1415.15
192.28	1273.84
192.50	1396.71
192.72	1425.39
192.94	1370.09
193.16	1349.61
193.38	1366.00
193.60	1417.19
193.82	1398.76
194.04	1421.29
194.26	1425.39
194.48	1318.89
194.70	1374.19
194.92	1345.52
195.14	1437.67
195.36	1462.25
195.58	1314.80
195.80	1366.00
196.02	1378.28
196.24	1304.56
196.46	1366.00
196.69	1308.65
196.91	1452.01
197.13	1404.91
197.35	1351.66
197.57	1402.86
197.79	1345.52
198.01	1368.04
198.23	1382.38
198.45	1447.91
198.67	1327.08
198.89	1394.67
199.11	1370.09
199.33	1366.00
199.55	1339.37
199.77	1390.57
199.99	1384.43
200.21	1341.42
200.43	1374.19
200.65	1322.99
200.87	1322.99
201.09	1386.47
201.31	1308.65
201.53	1488.87
201.75	1341.42
201.97	1353.71
202.19	1396.71
202.41	1382.38
202.63	1466.35
202.85	1380.33
203.07	1314.80
203.29	1259.50
203.51	1300.46
203.73	1337.32
203.95	1501.16
204.17	1443.82
204.39	1347.56
204.61	1269.74
204.83	1355.76
205.05	1341.42
205.27	1341.42
205.49	1470.44
205.71	1337.32
205.93	1357.80
206.15	1341.42
206.37	1406.95
206.59	1361.90
206.81	1353.71
207.03	1349.61
207.25	1396.71
207.47	1452.01
207.69	1368.04
207.91	1406.95
208.13	1437.67
208.34	1351.66
208.56	1366.00
208.78	1458.15
209.00	1349.61
209.22	1409.00
209.44	1339.37
209.66	1413.10
209.88	1337.32
210.10	1316.84
210.32	1327.08
210.54	1368.04
210.76	1380.33
210.98	1409.00
211.20	1322.99
211.42	1349.61
211.64	1421.29
211.86	1316.84
212.08	1409.00
212.30	1343.47
212.52	1351.66
212.74	1409.00
212.96	1396.71
213.17	1325.04
213.39	1333.23
213.61	1429.48
213.83	1443.82
214.05	1320.94
214.27	1331.18
214.49	1318.89
214.71	1347.56
214.93	1382.38
215.15	1292.27
215.37	1390.57
215.59	1355.76
215.81	1474.54
216.03	1388.52
216.24	1355.76
216.46	1318.89
216.68	1335.28
216.90	1388.52
217.12	1370.09
217.34	1400.81
217.56	1392.62
217.78	1372.14
218.00	1374.19
218.22	1392.62
218.44	1433.58
218.66	1359.85
218.87	1492.97
219.09	1335.28
219.31	1458.15
219.53	1374.19
219.75	1273.84
219.97	1417.19
220.19	1368.04
220.41	1425.39
220.63	1419.24
220.85	1363.95
221.06	1341.42
221.28	1409.00
221.50	1390.57
221.72	1386.47
221.94	1376.24
222.16	1363.95
222.38	1443.82
222.60	1398.76
222.82	1384.43
223.03	1339.37
223.25	1372.14
223.47	1409.00
223.69	1421.29
223.91	1384.43
224.13	1337.32
224.35	1370.09
224.57	1392.62
224.78	1316.84
225.00	1386.47
225.22	1355.76
225.44	1351.66
225.66	1423.34
225.88	1310.70
226.10	1404.91
226.32	1386.47
226.53	1464.30
226.75	1384.43
226.97	1380.33
227.19	1441.77
227.41	1368.04
227.63	1298.41
227.85	1345.52
228.06	1345.52
228.28	1320.94
228.50	1441.77
228.72	1318.89
228.94	1372.14
229.16	1296.36
229.37	1310.70
229.59	1357.80
229.81	1370.09
230.03	1318.89
230.25	1384.43
230.47	1417.19
230.69	1310.70
230.90	1302.51
231.12	1296.36
231.34	1404.91
231.56	1449.96
231.78	1292.27
232.00	1325.04
232.21	1372.14
232.43	1382.38
232.65	1345.52
232.87	1404.91
233.09	1339.37
233.30	1380.33
233.52	1351.66
233.74	1406.95
233.96	1361.90
234.18	1404.91
234.40	1439.72
234.61	1357.80
234.83	1363.95
235.05	1318.89
235.27	1466.35
235.49	1431.53
235.70	1345.52
235.92	1435.63
236.14	1376.24
236.36	1458.15
236.58	1234.93
236.79	1413.10
237.01	1390.57
237.23	1378.28
237.45	1404.91
237.67	1359.85
237.88	1359.85
238.10	1441.77
238.32	1388.52
238.54	1382.38
238.76	1347.56
238.97	1368.04
239.19	1370.09
239.41	1329.13
239.63	1390.57
239.85	1337.32
240.06	1374.19
240.28	1394.67
240.50	1372.14
240.72	1386.47
240.93	1415.15
241.15	1423.34
241.37	1398.76
241.59	1427.43
241.81	1368.04
242.02	1351.66
242.24	1396.71
242.46	1368.04
242.68	1392.62
242.89	1413.10
243.11	1411.05
243.33	1361.90
243.55	1386.47
243.76	1376.24
243.98	1327.08
244.20	1359.85
244.42	1398.76
244.64	1380.33
244.85	1333.23
245.07	1290.22
245.29	1392.62
245.51	1402.86
245.72	1345.52
245.94	1458.15
246.16	1224.69
246.38	1458.15
246.59	1370.09
246.81	1353.71
247.03	1335.28
247.24	1318.89
247.46	1337.32
247.68	1392.62
247.90	1402.86
248.11	1366.00
248.33	1380.33
248.55	1349.61
248.77	1359.85
248.98	1378.28
249.20	1386.47
249.42	1337.32
249.64	1384.43
249.85	1427.43
250.07	1462.25
250.29	1372.14
250.50	1482.73
250.72	1351.66
250.94	1370.09
251.16	1388.52
251.37	1386.47
251.59	1304.56
251.81	1337.32
252.02	1458.15
252.24	1341.42
252.46	1376.24
252.68	1359.85
252.89	1288.17
253.11	1337.32
253.33	1423.34
253.54	1466.35
253.76	1232.88
253.98	1320.94
254.20	1402.86
254.41	1269.74
254.63	1425.39
254.85	1347.56
255.06	1406.95
255.28	1411.05
255.50	1310.70
255.71	1345.52
255.93	1279.98
256.15	1382.38
256.36	1439.72
256.58	1382.38
256.80	1413.10
257.02	1271.79
257.23	1378.28
257.45	1406.95
257.67	1396.71
257.88	1359.85
258.10	1382.38
258.32	1304.56
258.53	1363.95
258.75	1400.81
258.97	1345.52
259.18	1372.14
259.40	1421.29
259.62	1404.91
259.83	1386.47
260.05	1398.76
260.27	1562.60
260.48	1351.66
260.70	1386.47
260.92	1394.67
261.13	1320.94
261.35	1388.52
261.57	1359.85
261.78	1298.41
262.00	1357.80
262.22	1425.39
262.43	1357.80
262.65	1396.71
262.86	1372.14
263.08	1429.48
263.30	1339.37
263.51	1318.89
263.73	1394.67
263.95	1445.87
264.16	1312.75
264.38	1327.08
264.60	1349.61
264.81	1396.71
265.03	1343.47
265.25	1388.52
265.46	1423.34
265.68	1337.32
265.89	1351.66
266.11	1320.94
266.33	1421.29
266.54	1359.85
266.76	1413.10
266.98	1417.19
267.19	1460.20
267.41	1386.47
267.62	1345.52
267.84	1329.13
268.06	1404.91
268.27	1357.80
268.49	1409.00
268.70	1402.86
268.92	1468.39
269.14	1306.60
269.35	1249.26
269.57	1355.76
269.79	1368.04
270.00	1314.80
270.22	1452.01
270.43	1329.13
270.65	1329.13
270.87	1456.11
271.08	1417.19
271.30	1419.24
271.51	1304.56
271.73	1435.63
271.95	1423.34
272.16	1452.01
272.38	1273.84
272.59	1366.00
272.81	1347.56
273.02	1392.62
273.24	1394.67
273.46	1433.58
273.67	1378.28
273.89	1337.32
274.10	1296.36
274.32	1394.67
274.54	1402.86
274.75	1376.24
274.97	1394.67
275.18	1372.14
275.40	1370.09
275.61	1310.70
275.83	1374.19
276.05	1288.17
276.26	1386.47
276.48	1314.80
276.69	1372.14
276.91	1370.09
277.12	1386.47
277.34	1370.09
277.55	1462.25
277.77	1376.24
277.99	1331.18
278.20	1351.66
278.42	1292.27
278.63	1292.27
278.85	1372.14
279.06	1349.61
279.28	1361.90
279.49	1372.14
279.71	1390.57
279.93	1374.19
280.14	1380.33
280.36	1380.33
280.57	1355.76
280.79	1353.71
281.00	1316.84
281.22	1308.65
281.43	1384.43
281.65	1257.45
281.86	1361.90
282.08	1376.24
282.29	1406.95
282.51	1404.91
282.73	1351.66
282.94	1298.41
283.16	1384.43
283.37	1425.39
283.59	1312.75
283.80	1351.66
284.02	1363.95
284.23	1406.95
284.45	1286.12
284.66	1322.99
284.88	1320.94
285.09	1406.95
285.31	1378.28
285.52	1458.15
285.74	1263.60
285.95	1388.52
286.17	1409.00
286.38	1458.15
286.60	1411.05
286.81	1402.86
287.03	1370.09
287.24	1331.18
287.46	1382.38
287.67	1333.23
287.89	1411.05
288.10	1351.66
288.32	1341.42
288.53	1331.18
288.75	1388.52
288.96	1298.41
289.18	1400.81
289.39	1345.52
289.61	1423.34
289.82	1486.83
290.04	1431.53
290.25	1370.09
290.47	1415.15
290.68	1378.28
290.90	1382.38
291.11	1296.36
291.33	1363.95
291.54	1337.32
291.76	1384.43
291.97	1335.28
292.18	1386.47
292.40	1392.62
292.61	1361.90
292.83	1470.44
293.04	1290.22
293.26	1341.42
293.47	1355.76
293.69	1312.75
293.90	1361.90
294.12	1482.73
294.33	1363.95
294.55	1306.60
294.76	1417.19
294.97	1435.63
295.19	1361.90
295.40	1363.95
295.62	1400.81
295.83	1335.28
296.05	1370.09
296.26	1464.30
296.48	1304.56
296.69	1339.37
296.90	1343.47
297.12	1359.85
297.33	1388.52
297.55	1368.04
297.76	1310.70
297.98	1427.43
298.19	1325.04
298.41	1351.66
298.62	1335.28
298.83	1435.63
299.05	1353.71
299.26	1322.99
299.48	1337.32
299.69	1417.19
299.90	1277.93
300.12	1355.76
300.33	1361.90
300.55	1314.80
300.76	1400.81
300.98	1224.69
301.19	1441.77
301.40	1366.00
301.62	1404.91
301.83	1402.86
302.05	1376.24
302.26	1415.15
302.47	1359.85
302.69	1306.60
302.90	1400.81
303.12	1259.50
303.33	1402.86
303.54	1499.11
303.76	1386.47
303.97	1392.62
304.19	1462.25
304.40	1368.04
304.61	1464.30
304.83	1478.63
305.04	1464.30
305.26	1376.24
305.47	1312.75
305.68	1402.86
305.90	1353.71
306.11	1370.09
306.33	1390.57
306.54	1388.52
306.75	1331.18
306.97	1366.00
307.18	1314.80
307.39	1355.76
307.61	1406.95
307.82	1435.63
308.04	1421.29
308.25	1290.22
308.46	1370.09
308.68	1366.00
308.89	1398.76
309.10	1439.72
309.32	1374.19
309.53	1443.82
309.74	1368.04
309.96	1433.58
310.17	1415.15
310.39	1349.61
310.60	1361.90
310.81	1337.32
311.03	1353.71
311.24	1357.80
311.45	1390.57
311.67	1423.34
311.88	1394.67
312.09	1292.27
312.31	1347.56
312.52	1335.28
312.73	1331.18
312.95	1390.57
313.16	1275.88
313.37	1357.80
313.59	1363.95
313.80	1409.00
314.01	1390.57
314.23	1363.95
314.44	1331.18
314.65	1308.65
314.87	1404.91
315.08	1322.99
315.29	1441.77
315.51	1355.76
315.72	1353.71
315.93	1433.58
316.15	1396.71
316.36	1347.56
316.57	1325.04
316.79	1351.66
317.00	1361.90
317.21	1400.81
317.43	1359.85
317.64	1335.28
317.85	1382.38
318.07	1488.87
318.28	1535.98
318.49	1550.31
318.70	1667.05
318.92	1581.03
319.13	1466.35
319.34	1474.54
319.56	1413.10
319.77	1519.59
319.98	1437.67
320.20	1486.83
320.41	1404.91
320.62	1425.39
320.83	1347.56
321.05	1525.74
321.26	1372.14
321.47	1298.41
321.69	1396.71
321.90	1409.00
322.11	1333.23
322.32	1325.04
322.54	1404.91
322.75	1339.37
322.96	1382.38
323.18	1310.70
323.39	1304.56
323.60	1357.80
323.81	1396.71
324.03	1333.23
324.24	1236.97
324.45	1454.06
324.66	1353.71
324.88	1449.96
325.09	1464.30
325.30	1314.80
325.52	1374.19
325.73	1433.58
325.94	1384.43
326.15	1273.84
326.37	1353.71
326.58	1419.24
326.79	1513.45
327.00	1333.23
327.22	1421.29
327.43	1415.15
327.64	1243.12
327.85	1474.54
328.07	1388.52
328.28	1468.39
328.49	1378.28
328.70	1341.42
328.92	1316.84
329.13	1398.76
329.34	1370.09
329.55	1454.06
329.76	1478.63
329.98	1433.58
330.19	1363.95
330.40	1394.67
330.61	1306.60
330.83	1343.47
331.04	1429.48
331.25	1394.67
331.46	1331.18
331.68	1259.50
331.89	1366.00
332.10	1370.09
332.31	1355.76
332.52	1380.33
332.74	1419.24
332.95	1312.75
333.16	1429.48
333.37	1388.52
333.58	1304.56
333.80	1347.56
334.01	1322.99
334.22	1325.04
334.43	1390.57
334.64	1357.80
334.86	1331.18
335.07	1351.66
335.28	1396.71
335.49	1243.12
335.70	1300.46
335.92	1417.19
336.13	1443.82
336.34	1347.56
336.55	1419.24
336.76	1382.38
336.98	1261.55
337.19	1314.80
337.40	1433.58
337.61	1509.35
337.82	1329.13
338.04	1421.29
338.25	1366.00
338.46	1325.04
338.67	1406.95
338.88	1435.63
339.09	1368.04
339.31	1322.99
339.52	1333.23
339.73	1318.89
339.94	1411.05
340.15	1361.90
340.36	1290.22
340.58	1359.85
340.79	1419.24
341.00	1400.81
341.21	1327.08
341.42	1394.67
341.63	1398.76
341.85	1380.33
342.06	1421.29
342.27	1357.80
342.48	1435.63
342.69	1310.70
342.90	1386.47
343.12	1454.06
343.33	1273.84
343.54	1345.52
343.75	1429.48
343.96	1290.22
344.17	1343.47
344.38	1411.05
344.60	1318.89
344.81	1314.80
345.02	1314.80
345.23	1353.71
345.44	1464.30
345.65	1304.56
345.86	1460.20
346.07	1400.81
346.29	1277.93
346.50	1380.33
346.71	1437.67
346.92	1380.33
347.13	1445.87
347.34	1361.90
347.55	1363.95
347.76	1353.71
347.98	1357.80
348.19	1368.04
348.40	1429.48
348.61	1380.33
348.82	1486.83
349.03	1370.09
349.24	1425.39
349.45	1406.95
349.66	1271.79
349.88	1357.80
350.09	1306.60
350.30	1411.05
350.51	1353.71
350.72	1339.37
350.93	1368.04
351.14	1322.99
351.35	1439.72
351.56	1349.61
351.77	1431.53
351.99	1366.00
352.20	1357.80
352.41	1388.52
352.62	1320.94
352.83	1329.13
353.04	1347.56
353.25	1372.14
353.46	1353.71
353.67	1390.57
353.88	1318.89
354.09	1398.76
354.30	1329.13
354.52	1361.90
354.73	1413.10
354.94	1298.41
355.15	1357.80
355.36	1495.02
355.57	1363.95
355.78	1396.71
355.99	1380.33
356.20	1304.56
356.41	1427.43
356.62	1335.28
356.83	1382.38
357.04	1482.73
357.25	1329.13
357.46	1415.15
357.68	1351.66
357.89	1316.84
358.10	1382.38
358.31	1343.47
358.52	1449.96
358.73	1353.71
358.94	1355.76
359.15	1282.03
359.36	1411.05
359.57	1343.47
359.78	1378.28
359.99	1347.56
360.20	1325.04
360.41	1409.00
360.62	1427.43
360.83	1449.96
361.04	1378.28
361.25	1394.67
361.46	1484.78
361.67	1427.43
361.88	1374.19
362.09	1421.29
362.30	1417.19
362.51	1392.62
362.72	1357.80
362.93	1376.24
363.14	1394.67
363.35	1316.84
363.56	1419.24
363.78	1456.11
363.99	1419.24
364.20	1355.76
364.41	1386.47
364.62	1488.87
364.83	1386.47
365.04	1329.13
365.25	1304.56
365.46	1458.15
365.67	1294.32
365.88	1388.52
366.09	1310.70
366.30	1417.19
366.51	1359.85
366.72	1353.71
366.93	1366.00
367.14	1300.46
367.35	1458.15
367.56	1374.19
367.77	1380.33
367.98	1335.28
368.18	1429.48
368.39	1396.71
368.60	1300.46
368.81	1431.53
369.02	1306.60
369.23	1333.23
369.44	1284.08
369.65	1322.99
369.86	1314.80
370.07	1454.06
370.28	1361.90
370.49	1431.53
370.70	1347.56
370.91	1292.27
371.12	1320.94
371.33	1402.86
371.54	1386.47
371.75	1398.76
371.96	1322.99
372.17	1415.15
372.38	1374.19
372.59	1466.35
372.80	1372.14
373.01	1361.90
373.22	1449.96
373.43	1329.13
373.64	1341.42
373.85	1421.29
374.06	1386.47
374.26	1390.57
374.47	1476.59
374.68	1468.39
374.89	1372.14
375.10	1355.76
375.31	1435.63
375.52	1472.49
375.73	1382.38
375.94	1337.32
376.15	1411.05
376.36	1361.90
376.57	1345.52
376.78	1421.29
376.99	1331.18
377.20	1460.20
377.40	1306.60
377.61	1417.19
377.82	1339.37
378.03	1400.81
378.24	1427.43
378.45	1417.19
378.66	1402.86
378.87	1355.76
379.08	1359.85
379.29	1406.95
379.50	1449.96
379.71	1433.58
379.91	1411.05
380.12	1394.67
380.33	1398.76
380.54	1417.19
380.75	1380.33
380.96	1349.61
381.17	1454.06
381.38	1452.01
381.59	1419.24
381.80	1411.05
382.00	1517.54
382.21	1376.24
382.42	1417.19
382.63	1517.54
382.84	1441.77
383.05	1443.82
383.26	1507.30
383.47	1437.67
383.68	1370.09
383.88	1390.57
384.09	1345.52
384.30	1398.76
384.51	1322.99
384.72	1380.33
384.93	1333.23
385.14	1421.29
385.35	1441.77
385.55	1310.70
385.76	1433.58
385.97	1322.99
386.18	1378.28
386.39	1378.28
386.60	1372.14
386.81	1374.19
387.02	1406.95
387.22	1388.52
387.43	1527.78
387.64	1583.08
387.85	2217.95
388.06	5687.21
388.27	9521.01
388.48	11413.33
388.68	13178.68
388.89	13356.85
389.10	10714.97
389.31	9236.34
389.52	8249.22
389.73	7374.74
389.93	6877.08
390.14	6471.58
390.35	5918.63
390.56	5429.17
390.77	4657.08
390.98	3674.06
391.18	2752.47
391.39	2142.18
391.60	1753.06
391.81	1535.98
392.02	1361.90
392.23	1529.83
392.43	1437.67
392.64	1427.43
392.85	1464.30
393.06	1452.01
393.27	1411.05
393.47	1331.18
393.68	1329.13
393.89	1386.47
394.10	1370.09
394.31	1290.22
394.52	1390.57
394.72	1366.00
394.93	1398.76
395.14	1341.42
395.35	1376.24
395.56	1415.15
395.76	1527.78
395.97	1605.61
396.18	1558.50
396.39	1710.05
396.60	1767.40
396.80	1574.89
397.01	1533.93
397.22	1521.64
397.43	1568.74
397.64	1427.43
397.84	1454.06
398.05	1550.31
398.26	1474.54
398.47	1417.19
398.67	1470.44
398.88	1353.71
399.09	1460.20
399.30	1394.67
399.51	1345.52
399.71	1353.71
399.92	1390.57
400.13	1249.26
400.34	1359.85
400.54	1347.56
400.75	1486.83
400.96	1384.43
401.17	1396.71
401.37	1400.81
401.58	1347.56
401.79	1617.90
402.00	1726.44
402.21	1865.70
402.41	1777.64
402.62	1812.45
402.83	1748.97
403.04	1636.33
403.24	1679.33
403.45	1529.83
403.66	1628.14
403.87	1587.18
404.07	1589.22
404.28	1632.23
404.49	1499.11
404.70	1476.59
404.90	1425.39
405.11	1429.48
405.32	1380.33
405.52	1370.09
405.73	1337.32
405.94	1333.23
406.15	1347.56
406.35	1415.15
406.56	1388.52
406.77	1452.01
406.98	1370.09
407.18	1366.00
407.39	1386.47
407.60	1322.99
407.80	1337.32
408.01	1335.28
408.22	1417.19
408.43	1404.91
408.63	1347.56
408.84	1437.67
409.05	1347.56
409.25	1355.76
409.46	1396.71
409.67	1329.13
409.88	1349.61
410.08	1372.14
410.29	1310.70
410.50	1368.04
410.70	1366.00
410.91	1366.00
411.12	1388.52
411.32	1443.82
411.53	1454.06
411.74	1466.35
411.95	1505.26
412.15	1415.15
412.36	1429.48
412.57	1435.63
412.77	1435.63
412.98	1429.48
413.19	1406.95
413.39	1404.91
413.60	1468.39
413.81	1505.26
414.01	1441.77
414.22	1458.15
414.43	1396.71
414.63	1314.80
414.84	1495.02
415.05	1411.05
415.25	1325.04
415.46	1468.39
415.67	1388.52
415.87	1429.48
416.08	1384.43
416.29	1368.04
416.49	1402.86
416.70	1355.76
416.91	1357.80
417.11	1390.57
417.32	1431.53
417.53	1347.56
417.73	1396.71
417.94	1355.76
418.15	1347.56
418.35	1398.76
418.56	1363.95
418.77	1411.05
418.97	1310.70
419.18	1390.57
419.38	1304.56
419.59	1263.60
419.80	1439.72
420.00	1294.32
420.21	1366.00
420.42	1349.61
420.62	1468.39
420.83	1318.89
421.04	1355.76
421.24	1460.20
421.45	1353.71
421.65	1361.90
421.86	1335.28
422.07	1390.57
422.27	1368.04
422.48	1386.47
422.69	1286.12
422.89	1400.81
423.10	1386.47
423.30	1286.12
423.51	1452.01
423.72	1386.47
423.92	1400.81
424.13	1320.94
424.33	1359.85
424.54	1425.39
424.75	1327.08
424.95	1519.59
425.16	1396.71
425.36	1325.04
425.57	1386.47
425.78	1384.43
425.98	1398.76
426.19	1325.04
426.39	1359.85
426.60	1470.44
426.81	1425.39
427.01	1437.67
427.22	1363.95
427.42	1302.51
427.63	1353.71
427.83	1427.43
428.04	1388.52
428.25	1427.43
428.45	1435.63
428.66	1380.33
428.86	1400.81
429.07	1378.28
429.28	1288.17
429.48	1306.60
429.69	1427.43
429.89	1376.24
430.10	1322.99
430.30	1398.76
430.51	1464.30
430.71	1325.04
430.92	1480.68
431.13	1374.19
431.33	1353.71
431.54	1413.10
431.74	1484.78
431.95	1433.58
432.15	1363.95
432.36	1335.28
432.56	1404.91
432.77	1429.48
432.98	1470.44
433.18	1378.28
433.39	1374.19
433.59	1380.33
433.80	1392.62
434.00	1476.59
434.21	1355.76
434.41	1335.28
434.62	1449.96
434.82	1359.85
435.03	1267.69
435.23	1374.19
435.44	1402.86
435.64	1396.71
435.85	1447.91
436.06	1441.77
436.26	1380.33
436.47	1353.71
436.67	1376.24
436.88	1390.57
437.08	1398.76
437.29	1460.20
437.49	1394.67
437.70	1357.80
437.90	1427.43
438.11	1505.26
438.31	1560.55
438.52	1533.93
438.72	1517.54
438.93	1554.41
439.13	1527.78
439.34	1478.63
439.54	1429.48
439.75	1460.20
439.95	1406.95
440.16	1458.15
440.36	1419.24
440.57	1392.62
440.77	1437.67
440.98	1384.43
441.18	1462.25
441.39	1372.14
441.59	1247.21
441.80	1402.86
442.00	1349.61
442.21	1361.90
442.41	1333.23
442.62	1495.02
442.82	1343.47
443.02	1304.56
443.23	1423.34
443.43	1392.62
443.64	1441.77
443.84	1396.71
444.05	1429.48
444.25	1320.94
444.46	1390.57
444.66	1382.38
444.87	1456.11
445.07	1398.76
445.28	1400.81
445.48	1443.82
445.69	1478.63
445.89	1464.30
446.09	1617.90
446.30	2277.34
446.50	3727.30
446.71	4650.94
446.91	5291.95
447.12	5693.35
447.32	4865.97
447.53	4192.19
447.73	3710.92
447.93	3391.44
448.14	3008.47
448.34	3143.63
448.55	2850.77
448.75	2813.91
448.96	2643.93
449.16	2324.44
449.36	2199.52
449.57	1908.71
449.77	1673.19
449.98	1523.69
450.18	1519.59
450.39	1427.43
450.59	1474.54
450.79	1386.47
451.00	1320.94
451.20	1384.43
451.41	1310.70
451.61	1406.95
451.81	1404.91
452.02	1409.00
452.22	1402.86
452.43	1460.20
452.63	1363.95
452.84	1423.34
453.04	1329.13
453.24	1396.71
453.45	1384.43
453.65	1351.66
453.86	1355.76
454.06	1368.04
454.26	1388.52
454.47	1288.17
454.67	1441.77
454.87	1392.62
455.08	1347.56
455.28	1484.78
455.49	1421.29
455.69	1370.09
455.89	1372.14
456.10	1409.00
456.30	1374.19
456.51	1310.70
456.71	1322.99
456.91	1398.76
457.12	1331.18
457.32	1335.28
457.52	1343.47
457.73	1445.87
457.93	1353.71
458.14	1282.03
458.34	1359.85
458.54	1380.33
458.75	1390.57
458.95	1462.25
459.15	1441.77
459.36	1390.57
459.56	1409.00
459.76	1417.19
459.97	1361.90
460.17	1396.71
460.37	1417.19
460.58	1439.72
460.78	1382.38
460.99	1398.76
461.19	1384.43
461.39	1351.66
461.60	1325.04
461.80	1437.67
462.00	1345.52
462.21	1353.71
462.41	1376.24
462.61	1316.84
462.82	1320.94
463.02	1341.42
463.22	1411.05
463.43	1437.67
463.63	1339.37
463.83	1368.04
464.04	1380.33
464.24	1386.47
464.44	1343.47
464.64	1271.79
464.85	1378.28
465.05	1458.15
465.25	1349.61
465.46	1368.04
465.66	1343.47
465.86	1327.08
466.07	1345.52
466.27	1380.33
466.47	1343.47
466.68	1294.32
466.88	1470.44
467.08	1339.37
467.29	1447.91
467.49	1398.76
467.69	1316.84
467.89	1378.28
468.10	1382.38
468.30	1390.57
468.50	1484.78
468.71	1419.24
468.91	1288.17
469.11	1464.30
469.31	1415.15
469.52	1382.38
469.72	1310.70
469.92	1445.87
470.13	1406.95
470.33	1472.49
470.53	1624.04
470.73	2009.06
470.94	2340.83
471.14	2346.97
471.34	2424.80
471.54	2260.96
471.75	2002.91
471.95	1890.28
472.15	1837.03
472.36	1791.97
472.56	1769.44
472.76	1759.21
472.96	1685.48
473.17	1613.80
473.37	1642.47
473.57	1558.50
473.77	1519.59
473.98	1454.06
474.18	1429.48
474.38	1515.50
474.58	1337.32
474.79	1294.32
474.99	1388.52
475.19	1363.95
475.39	1314.80
475.60	1333.23
475.80	1345.52
476.00	1325.04
476.20	1282.03
476.41	1409.00
476.61	1462.25
476.81	1406.95
477.01	1376.24
477.21	1441.77
477.42	1409.00
477.62	1325.04
477.82	1437.67
478.02	1341.42
478.23	1361.90
478.43	1318.89
478.63	1380.33
478.83	1335.28
479.03	1363.95
479.24	1441.77
479.44	1435.63
479.64	1380.33
479.84	1265.64
480.04	1302.51
480.25	1394.67
480.45	1351.66
480.65	1374.19
480.85	1429.48
481.06	1345.52
481.26	1433.58
481.46	1417.19
481.66	1402.86
481.86	1294.32
482.06	1363.95
482.27	1419.24
482.47	1368.04
482.67	1425.39
482.87	1333.23
483.07	1404.91
483.28	1435.63
483.48	1300.46
483.68	1433.58
483.88	1351.66
484.08	1294.32
484.29	1368.04
484.49	1366.00
484.69	1325.04
484.89	1441.77
485.09	1413.10
485.29	1390.57
485.50	1368.04
485.70	1302.51
485.90	1423.34
486.10	1400.81
486.30	1400.81
486.50	1327.08
486.71	1347.56
486.91	1433.58
487.11	1470.44
487.31	1337.32
487.51	1366.00
487.71	1296.36
487.91	1370.09
488.12	1300.46
488.32	1396.71
488.52	1314.80
488.72	1302.51
488.92	1411.05
489.12	1462.25
489.32	1464.30
489.53	1374.19
489.73	1318.89
489.93	1462.25
490.13	1368.04
490.33	1325.04
490.53	1368.04
490.73	1398.76
490.94	1316.84
491.14	1419.24
491.34	1665.00
491.54	2078.69
491.74	2742.23
491.94	3022.80
492.14	3078.10
492.34	2942.93
492.54	2570.20
492.75	2353.12
492.95	2217.95
493.15	2007.01
493.35	2068.45
493.55	1984.48
493.75	1988.58
493.95	1933.28
494.15	1859.56
494.35	1697.77
494.56	1660.90
494.76	1527.78
494.96	1527.78
495.16	1501.16
495.36	1372.14
495.56	1419.24
495.76	1445.87
495.96	1435.63
496.16	1322.99
496.36	1431.53
496.56	1333.23
496.77	1398.76
496.97	1331.18
497.17	1421.29
497.37	1361.90
497.57	1359.85
497.77	1443.82
497.97	1392.62
498.17	1398.76
498.37	1333.23
498.57	1417.19
498.77	1337.32
498.97	1431.53
499.17	1419.24
499.38	1417.19
499.58	1437.67
499.78	1384.43
499.98	1339.37
500.18	1419.24
500.38	1443.82
500.58	1660.90
500.78	2920.40
500.98	5410.73
501.18	6940.57
501.38	7829.38
501.58	8382.34
501.78	7376.78
501.98	5650.35
502.18	5193.65
502.38	4468.67
502.58	4157.38
502.78	3788.74
502.98	3639.24
503.18	3565.51
503.38	3348.43
503.59	3092.43
503.79	2893.78
503.99	2521.05
504.19	2387.93
504.39	2086.88
504.59	2011.11
504.79	1984.48
504.99	1832.93
505.19	1648.61
505.39	1576.94
505.59	1656.81
505.79	1552.36
505.99	1597.42
506.19	1507.30
506.39	1587.18
506.59	1413.10
506.79	1386.47
506.99	1476.59
507.19	1421.29
507.39	1419.24
507.59	1390.57
507.79	1380.33
507.99	1441.77
508.19	1445.87
508.39	1392.62
508.59	1372.14
508.79	1474.54
508.99	1495.02
509.19	1394.67
509.39	1443.82
509.59	1357.80
509.79	1347.56
509.99	1359.85
510.19	1392.62
510.39	1380.33
510.59	1368.04
510.79	1329.13
510.99	1363.95
511.19	1454.06
511.39	1413.10
511.59	1275.88
511.79	1353.71
511.99	1441.77
512.19	1419.24
512.38	1345.52
512.58	1355.76
512.78	1394.67
512.98	1398.76
513.18	1392.62
513.38	1398.76
513.58	1394.67
513.78	1320.94
513.98	1388.52
514.18	1329.13
514.38	1421.29
514.58	1374.19
514.78	1318.89
514.98	1320.94
515.18	1333.23
515.38	1374.19
515.58	1388.52
515.78	1421.29
515.98	1429.48
516.18	1374.19
516.38	1361.90
516.57	1339.37
516.77	1345.52
516.97	1394.67
517.17	1378.28
517.37	1308.65
517.57	1427.43
517.77	1372.14
517.97	1298.41
518.17	1349.61
518.37	1363.95
518.57	1425.39
518.77	1349.61
518.97	1345.52
519.16	1437.67
519.36	1464.30
519.56	1413.10
519.76	1368.04
519.96	1370.09
520.16	1433.58
520.36	1386.47
520.56	1437.67
520.76	1359.85
520.96	1300.46
521.16	1435.63
521.35	1488.87
521.55	1370.09
521.75	1355.76
521.95	1298.41
522.15	1413.10
522.35	1341.42
522.55	1308.65
522.75	1413.10
522.95	1345.52
523.14	1413.10
523.34	1456.11
523.54	1390.57
523.74	1433.58
523.94	1335.28
524.14	1304.56
524.34	1435.63
524.54	1421.29
524.73	1361.90
524.93	1388.52
525.13	1294.32
525.33	1325.04
525.53	1447.91
525.73	1396.71
525.93	1390.57
526.13	1310.70
526.32	1259.50
526.52	1384.43
526.72	1423.34
526.92	1353.71
527.12	1329.13
527.32	1343.47
527.52	1425.39
527.71	1380.33
527.91	1327.08
528.11	1366.00
528.31	1335.28
528.51	1318.89
528.71	1343.47
528.90	1353.71
529.10	1335.28
529.30	1441.77
529.50	1337.32
529.70	1398.76
529.90	1327.08
530.09	1363.95
530.29	1368.04
530.49	1267.69
530.69	1445.87
530.89	1460.20
531.09	1419.24
531.28	1372.14
531.48	1390.57
531.68	1404.91
531.88	1366.00
532.08	1427.43
532.28	1400.81
532.47	1333.23
532.67	1452.01
532.87	1417.19
533.07	1501.16
533.27	1388.52
533.46	1419.24
533.66	1404.91
533.86	1400.81
534.06	1372.14
534.26	1384.43
534.45	1447.91
534.65	1425.39
534.85	1423.34
535.05	1406.95
535.25	1409.00
535.44	1372.14
535.64	1429.48
535.84	1441.77
536.04	1343.47
536.24	1400.81
536.43	1359.85
536.63	1406.95
536.83	1431.53
537.03	1515.50
537.22	1363.95
537.42	1284.08
537.62	1417.19
537.82	1308.65
538.02	1429.48
538.21	1445.87
538.41	1452.01
538.61	1347.56
538.81	1380.33
539.00	1406.95
539.20	1302.51
539.40	1335.28
539.60	1396.71
539.79	1355.76
539.99	1376.24
540.19	1347.56
540.39	1390.57
540.58	1376.24
540.78	1363.95
540.98	1402.86
541.18	1445.87
541.37	1423.34
541.57	1411.05
541.77	1361.90
541.97	1288.17
542.16	1388.52
542.36	1394.67
542.56	1347.56
542.76	1474.54
542.95	1366.00
543.15	1413.10
543.35	1388.52
543.54	1366.00
543.74	1425.39
543.94	1394.67
544.14	1372.14
544.33	1341.42
544.53	1363.95
544.73	1353.71
544.93	1355.76
545.12	1384.43
545.32	1351.66
545.52	1327.08
545.71	1294.32
545.91	1335.28
546.11	1372.14
546.30	1300.46
546.50	1320.94
546.70	1441.77
546.90	1331.18
547.09	1318.89
547.29	1458.15
547.49	1366.00
547.68	1361.90
547.88	1341.42
548.08	1460.20
548.27	1669.09
548.47	1345.52
548.67	1353.71
548.87	1343.47
549.06	1394.67
549.26	1423.34
549.46	1409.00
549.65	1308.65
549.85	1316.84
550.05	1351.66
550.24	1296.36
550.44	1425.39
550.64	1454.06
550.83	1394.67
551.03	1380.33
551.23	1460.20
551.42	1406.95
551.62	1370.09
551.82	1447.91
552.01	1378.28
552.21	1384.43
552.41	1363.95
552.60	1429.48
552.80	1359.85
553.00	1376.24
553.19	1380.33
553.39	1423.34
553.59	1236.97
553.78	1370.09
553.98	1394.67
554.17	1282.03
554.37	1404.91
554.57	1427.43
554.76	1388.52
554.96	1363.95
555.16	1355.76
555.35	1374.19
555.55	1380.33
555.75	1282.03
555.94	1427.43
556.14	1179.63
556.33	1384.43
556.53	1302.51
556.73	1335.28
556.92	1318.89
557.12	1419.24
557.32	1433.58
557.51	1374.19
557.71	1394.67
557.90	1437.67
558.10	1402.86
558.30	1347.56
558.49	1363.95
558.69	1400.81
558.88	1349.61
559.08	1378.28
559.28	1355.76
559.47	1388.52
559.67	1382.38
559.86	1445.87
560.06	1335.28
560.26	1341.42
560.45	1355.76
560.65	1366.00
560.84	1361.90
561.04	1361.90
561.24	1449.96
561.43	1347.56
561.63	1546.22
561.82	1308.65
562.02	1374.19
562.22	1415.15
562.41	1349.61
562.61	1363.95
562.80	1308.65
563.00	1400.81
563.19	1386.47
563.39	1357.80
563.59	1454.06
563.78	1363.95
563.98	1263.60
564.17	1398.76
564.37	1286.12
564.56	1374.19
564.76	1282.03
564.96	1439.72
565.15	1357.80
565.35	1406.95
565.54	1406.95
565.74	1404.91
565.93	1396.71
566.13	1341.42
566.32	1413.10
566.52	1449.96
566.71	1322.99
566.91	1425.39
567.11	1382.38
567.30	1372.14
567.50	1359.85
567.69	1355.76
567.89	1400.81
568.08	1314.80
568.28	1329.13
568.47	1388.52
568.67	1380.33
568.86	1404.91
569.06	1374.19
569.25	1439.72
569.45	1329.13
569.64	1322.99
569.84	1368.04
570.04	1357.80
570.23	1361.90
570.43	1384.43
570.62	1374.19
570.82	1439.72
571.01	1347.56
571.21	1327.08
571.40	1374.19
571.60	1384.43
571.79	1374.19
571.99	1320.94
572.18	1327.08
572.38	1341.42
572.57	1366.00
572.77	1390.57
572.96	1447.91
573.16	1527.78
573.35	1415.15
573.55	1445.87
573.74	1394.67
573.94	1374.19
574.13	1269.74
574.33	1470.44
574.52	1486.83
574.71	1411.05
574.91	1429.48
575.10	1312.75
575.30	1341.42
575.49	1372.14
575.69	1372.14
575.88	1482.73
576.08	1449.96
576.27	1462.25
576.47	1429.48
576.66	1472.49
576.86	1497.07
577.05	1468.39
577.25	1476.59
577.44	1486.83
577.64	1421.29
577.83	1421.29
578.02	1335.28
578.22	1503.21
578.41	1474.54
578.61	1396.71
578.80	1419.24
579.00	1398.76
579.19	1388.52
579.39	1404.91
579.58	1452.01
579.77	1443.82
579.97	1417.19
580.16	1480.68
580.36	1454.06
580.55	1423.34
580.75	1452.01
580.94	1484.78
581.13	1470.44
581.33	1425.39
581.52	1476.59
581.72	1523.69
581.91	1560.55
582.11	1492.97
582.30	1445.87
582.49	1382.38
582.69	1531.88
582.88	1458.15
583.08	1462.25
583.27	1486.83
583.47	1497.07
583.66	1449.96
583.85	1421.29
584.05	1413.10
584.24	1429.48
584.44	1470.44
584.63	1576.94
584.82	1519.59
585.02	1499.11
585.21	1576.94
585.41	1576.94
585.60	1495.02
585.79	1593.32
585.99	1593.32
586.18	1679.33
586.37	1787.88
586.57	2588.63
586.76	8028.04
586.96	24278.67
587.15	41065.87
587.34	52012.26
587.54	59550.84
587.73	59368.57
587.93	45036.88
588.12	32802.32
588.31	26431.08
588.51	22757.03
588.70	20129.48
588.89	18368.23
589.09	16985.85
589.28	15841.04
589.47	14421.80
589.67	12525.38
589.86	10741.60
590.06	8589.18
590.25	6553.50
590.44	5021.62
590.64	3753.93
590.83	2807.77
591.02	2308.06
591.22	1918.95
591.41	1748.97
591.60	1595.37
591.80	1546.22
591.99	1445.87
592.18	1490.92
592.38	1468.39
592.57	1452.01
592.76	1548.26
592.96	1439.72
593.15	1409.00
593.34	1404.91
593.54	1406.95
593.73	1443.82
593.92	1503.21
594.12	1449.96
594.31	1490.92
594.50	1468.39
594.70	1507.30
594.89	1523.69
595.08	1441.77
595.28	1398.76
595.47	1548.26
595.66	1474.54
595.86	1413.10
596.05	1404.91
596.24	1417.19
596.43	1376.24
596.63	1441.77
596.82	1327.08
597.01	1464.30
597.21	1511.40
597.40	1445.87
597.59	1435.63
597.79	1435.63
597.98	1417.19
598.17	1396.71
598.36	1415.15
598.56	1454.06
598.75	1363.95
598.94	1421.29
599.14	1437.67
599.33	1406.95
599.52	1445.87
599.71	1421.29
599.91	1386.47
600.10	1347.56
600.29	1372.14
600.48	1452.01
600.68	1429.48
600.87	1380.33
601.06	1409.00
601.26	1359.85
601.45	1435.63
601.64	1343.47
601.83	1441.77
602.03	1335.28
602.22	1353.71
602.41	1353.71
602.60	1421.29
602.80	1472.49
602.99	1435.63
603.18	1382.38
603.37	1374.19
603.57	1400.81
603.76	1425.39
603.95	1482.73
604.14	1423.34
604.34	1343.47
604.53	1425.39
604.72	1417.19
604.91	1435.63
605.10	1464.30
605.30	1386.47
605.49	1404.91
605.68	1495.02
605.87	1419.24
606.07	1386.47
606.26	1361.90
606.45	1386.47
606.64	1441.77
606.84	1378.28
607.03	1425.39
607.22	1501.16
607.41	1400.81
607.60	1456.11
607.80	1472.49
607.99	1339.37
608.18	1343.47
608.37	1431.53
608.56	1314.80
608.76	1458.15
608.95	1495.02
609.14	1404.91
609.33	1431.53
609.52	1564.65
609.72	1437.67
609.91	1470.44
610.10	1429.48
610.29	1460.20
610.48	1376.24
610.68	1419.24
610.87	1368.04
611.06	1312.75
611.25	1470.44
611.44	1484.78
611.63	1372.14
611.83	1466.35
612.02	1343.47
612.21	1435.63
612.40	1312.75
612.59	1345.52
612.79	1374.19
612.98	1380.33
613.17	1421.29
613.36	1394.67
613.55	1486.83
613.74	1472.49
613.93	1458.15
614.13	1607.66
614.32	1683.43
614.51	1669.09
614.70	1492.97
614.89	1497.07
615.08	1468.39
615.28	1785.83
615.47	1454.06
615.66	1482.73
615.85	1429.48
616.04	1576.94
616.23	1564.65
616.42	1509.35
616.62	1447.91
616.81	1433.58
617.00	1384.43
617.19	1478.63
617.38	1372.14
617.57	1425.39
617.76	1411.05
617.95	1409.00
618.15	1400.81
618.34	1417.19
618.53	1357.80
618.72	1406.95
618.91	1458.15
619.10	1411.05
619.29	1341.42
619.48	1302.51
619.68	1331.18
619.87	1366.00
620.06	1322.99
620.25	1398.76
620.44	1409.00
620.63	1355.76
620.82	1419.24
621.01	1368.04
621.20	1388.52
621.39	1298.41
621.59	1413.10
621.78	1363.95
621.97	1415.15
622.16	1384.43
622.35	1361.90
622.54	1415.15
622.73	1355.76
622.92	1298.41
623.11	1355.76
623.30	1382.38
623.49	1236.97
623.68	1320.94
623.88	1376.24
624.07	1398.76
624.26	1372.14
624.45	1347.56
624.64	1349.61
624.83	1458.15
625.02	1376.24
625.21	1400.81
625.40	1382.38
625.59	1431.53
625.78	1427.43
625.97	1464.30
626.16	1488.87
626.35	1449.96
626.54	1470.44
626.74	1626.09
626.93	1378.28
627.12	1386.47
627.31	1409.00
627.50	1462.25
627.69	1415.15
627.88	1347.56
628.07	1329.13
628.26	1363.95
628.45	1372.14
628.64	1406.95
628.83	1370.09
629.02	1357.80
629.21	1368.04
629.40	1394.67
629.59	1345.52
629.78	1366.00
629.97	1404.91
630.16	1404.91
630.35	1480.68
630.54	1394.67
630.73	1359.85
630.92	1417.19
631.11	1378.28
631.30	1374.19
631.49	1484.78
631.68	1370.09
631.87	1400.81
632.06	1269.74
632.25	1525.74
632.44	1413.10
632.63	1388.52
632.82	1474.54
633.01	1402.86
633.20	1474.54
633.39	1454.06
633.58	1437.67
633.77	1462.25
633.96	1411.05
634.15	1488.87
634.34	1406.95
634.53	1482.73
634.72	1372.14
634.91	1376.24
635.10	1341.42
635.29	1421.29
635.48	1429.48
635.67	1363.95
635.86	1351.66
636.05	1370.09
636.24	1357.80
636.43	1320.94
636.62	1366.00
636.81	1306.60
637.00	1368.04
637.19	1429.48
637.38	1390.57
637.57	1329.13
637.76	1441.77
637.95	1495.02
638.14	1490.92
638.33	1492.97
638.52	1497.07
638.71	1363.95
638.89	1347.56
639.08	1517.54
639.27	1466.35
639.46	1452.01
639.65	1716.20
639.84	1875.94
640.03	1970.15
640.22	2021.35
640.41	2125.79
640.60	1949.67
640.79	1832.93
640.98	1662.95
641.17	1630.18
641.36	1568.74
641.55	1646.57
641.74	1476.59
641.92	1443.82
642.11	1425.39
642.30	1560.55
642.49	1492.97
642.68	1409.00
642.87	1368.04
643.06	1468.39
643.25	1353.71
643.44	1400.81
643.63	1370.09
643.82	1404.91
644.00	1351.66
644.19	1396.71
644.38	1327.08
644.57	1400.81
644.76	1370.09
644.95	1376.24
645.14	1427.43
645.33	1359.85
645.52	1347.56
645.71	1370.09
645.89	1435.63
646.08	1355.76
646.27	1370.09
646.46	1482.73
646.65	1275.88
646.84	1376.24
647.03	1372.14
647.22	1388.52
647.40	1314.80
647.59	1349.61
647.78	1355.76
647.97	1335.28
648.16	1380.33
648.35	1480.68
648.54	1468.39
648.73	1331.18
648.91	1384.43
649.10	1472.49
649.29	1337.32
649.48	1372.14
649.67	1347.56
649.86	1355.76
650.05	1380.33
650.23	1593.32
650.42	1470.44
650.61	1576.94
650.80	1611.75
650.99	1648.61
651.18	1511.40
651.36	1511.40
651.55	1333.23
651.74	1449.96
651.93	1394.67
652.12	1361.90
652.31	1419.24
652.49	1406.95
652.68	1341.42
652.87	1427.43
653.06	1421.29
653.25	1505.26
653.44	1370.09
653.62	1486.83
653.81	1376.24
654.00	1437.67
654.19	1409.00
654.38	1384.43
654.56	1382.38
654.75	1312.75
654.94	1400.81
655.13	1429.48
655.32	1386.47
655.51	1384.43
655.69	1406.95
655.88	1460.20
656.07	1322.99
656.26	1349.61
656.45	1370.09
656.63	1378.28
656.82	1390.57
657.01	1384.43
657.20	1368.04
657.38	1413.10
657.57	1329.13
657.76	1298.41
657.95	1363.95
658.14	1359.85
658.32	1460.20
658.51	1357.80
658.70	1394.67
658.89	1406.95
659.08	1349.61
659.26	1484.78
659.45	1390.57
659.64	1435.63
659.83	1351.66
660.01	1611.75
660.20	1472.49
660.39	1409.00
660.58	1390.57
660.76	1413.10
660.95	1378.28
661.14	1462.25
661.33	1339.37
661.51	1404.91
661.70	1368.04
661.89	1452.01
662.08	1415.15
662.26	1380.33
662.45	1349.61
662.64	1386.47
662.83	1462.25
663.01	1347.56
663.20	1378.28
663.39	1392.62
663.58	1308.65
663.76	1370.09
663.95	1374.19
664.14	1331.18
664.32	1351.66
664.51	1363.95
664.70	1302.51
664.89	1445.87
665.07	1318.89
665.26	1357.80
665.45	1398.76
665.64	1443.82
665.82	1390.57
666.01	1421.29
666.20	1374.19
666.38	1437.67
666.57	1415.15
666.76	1599.46
666.95	2148.32
667.13	4388.80
667.32	11573.07
667.51	17948.40
667.69	21593.78
667.88	24848.00
668.07	24403.60
668.25	18980.57
668.44	13645.62
668.63	11267.92
668.81	9201.52
669.00	8046.47
669.19	7425.93
669.38	6817.69
669.56	6363.04
669.75	5533.61
669.94	4855.73
670.12	4179.90
670.31	3678.15
670.50	2987.99
670.68	2484.19
670.87	2133.98
671.06	1761.25
671.24	1712.10
671.43	1660.90
671.62	1525.74
671.80	1486.83
671.99	1519.59
672.18	1503.21
672.36	1544.17
672.55	1366.00
672.74	1409.00
672.92	1421.29
673.11	1464.30
673.29	1380.33
673.48	1441.77
673.67	1329.13
673.85	1409.00
674.04	1351.66
674.23	1392.62
674.41	1361.90
674.60	1363.95
674.79	1353.71
674.97	1378.28
675.16	1339.37
675.34	1398.76
675.53	1359.85
675.72	1433.58
675.90	1419.24
676.09	1286.12
676.28	1347.56
676.46	1357.80
676.65	1349.61
676.83	1417.19
677.02	1425.39
677.21	1310.70
677.39	1376.24
677.58	1302.51
677.77	1388.52
677.95	1316.84
678.14	1384.43
678.32	1427.43
678.51	1284.08
678.70	1419.24
678.88	1325.04
679.07	1380.33
679.25	1312.75
679.44	1411.05
679.63	1310.70
679.81	1343.47
680.00	1458.15
680.18	1359.85
680.37	1355.76
680.55	1382.38
680.74	1308.65
680.93	1292.27
681.11	1386.47
681.30	1329.13
681.48	1421.29
681.67	1347.56
681.85	1351.66
682.04	1343.47
682.23	1402.86
682.41	1345.52
682.60	1366.00
682.78	1320.94
682.97	1384.43
683.15	1353.71
683.34	1380.33
683.53	1394.67
683.71	1351.66
683.90	1501.16
684.08	1421.29
684.27	1368.04
684.45	1425.39
684.64	1423.34
684.82	1366.00
685.01	1425.39
685.19	1337.32
685.38	1292.27
685.57	1339.37
685.75	1376.24
685.94	1329.13
686.12	1345.52
686.31	1378.28
686.49	1429.48
686.68	1419.24
686.86	1449.96
687.05	1341.42
687.23	1466.35
687.42	1384.43
687.60	1363.95
687.79	1366.00
687.97	1384.43
688.16	1452.01
688.34	1452.01
688.53	1327.08
688.71	1433.58
688.90	1423.34
689.08	1390.57
689.27	1294.32
689.45	1460.20
689.64	1398.76
689.82	1439.72
690.01	1427.43
690.19	1402.86
690.38	1353.71
690.56	1398.76
690.75	1400.81
690.93	1361.90
691.12	1318.89
691.30	1351.66
691.49	1341.42
691.67	1331.18
691.86	1417.19
692.04	1275.88
692.23	1347.56
692.41	1382.38
692.60	1425.39
692.78	1513.45
692.97	1417.19
693.15	1495.02
693.34	1540.07
693.52	1411.05
693.71	1411.05
693.89	1361.90
694.08	1406.95
694.26	1468.39
694.44	1427.43
694.63	1441.77
694.81	1468.39
695.00	1361.90
695.18	1335.28
695.37	1470.44
695.55	1415.15
695.74	1390.57
695.92	1273.84
696.10	1347.56
696.29	1343.47
696.47	1409.00
696.66	1327.08
696.84	1337.32
697.03	1370.09
697.21	1458.15
697.40	1775.59
697.58	1458.15
697.76	1353.71
697.95	1378.28
698.13	1329.13
698.32	1413.10
698.50	1462.25
698.68	1404.91
698.87	1355.76
699.05	1456.11
699.24	1288.17
699.42	1447.91
699.61	1372.14
699.79	1419.24
699.97	1433.58
700.16	1339.37
700.34	1339.37
700.53	1318.89
700.71	1476.59
700.89	1492.97
701.08	1386.47
701.26	1361.90
701.45	1638.38
701.63	1366.00
701.81	1343.47
702.00	1345.52
702.18	1351.66
702.37	1386.47
702.55	1480.68
702.73	1439.72
702.92	1533.93
703.10	1632.23
703.28	1640.42
703.47	1691.62
703.65	1648.61
703.84	1589.22
704.02	1542.12
704.20	1503.21
704.39	1460.20
704.57	1458.15
704.75	1552.36
704.94	1409.00
705.12	1484.78
705.30	1488.87
705.49	1581.03
705.67	1789.92
705.86	3516.36
706.04	8966.01
706.22	16330.50
706.41	19564.25
706.59	22496.94
706.77	23293.60
706.96	20008.65
707.14	13817.65
707.32	11259.73
707.51	9156.47
707.69	8165.25
707.87	7389.07
708.06	6705.05
708.24	6002.60
708.42	5003.19
708.61	4095.94
708.79	2967.51
708.97	2428.89
709.16	1996.77
709.34	1839.08
709.52	1519.59
709.71	1501.16
709.89	1454.06
710.07	1492.97
710.26	1439.72
710.44	1419.24
710.62	1386.47
710.80	1417.19
710.99	1454.06
711.17	1363.95
711.35	1372.14
711.54	1331.18
711.72	1431.53
711.90	1378.28
712.09	1368.04
712.27	1394.67
712.45	1349.61
712.63	1296.36
712.82	1390.57
713.00	1380.33
713.18	1318.89
713.37	1460.20
713.55	1413.10
713.73	1335.28
713.91	1423.34
714.10	1429.48
714.28	1361.90
714.46	1437.67
714.65	1359.85
714.83	1331.18
715.01	1409.00
715.19	1441.77
715.38	1413.10
715.56	1411.05
715.74	1312.75
715.92	1445.87
716.11	1417.19
716.29	1310.70
716.47	1415.15
716.65	1392.62
716.84	1363.95
717.02	1390.57
717.20	1253.36
717.38	1370.09
717.57	1388.52
717.75	1359.85
717.93	1462.25
718.11	1394.67
718.30	1341.42
718.48	1392.62
718.66	1390.57
718.84	1370.09
719.03	1322.99
719.21	1302.51
719.39	1394.67
719.57	1400.81
719.75	1480.68
719.94	1263.60
720.12	1314.80
720.30	1359.85
720.48	1378.28
720.67	1402.86
720.85	1357.80
721.03	1347.56
721.21	1400.81
721.39	1310.70
721.58	1415.15
721.76	1374.19
721.94	1406.95
722.12	1394.67
722.30	1409.00
722.49	1353.71
722.67	1437.67
722.85	1366.00
723.03	1353.71
723.21	1341.42
723.40	1372.14
723.58	1370.09
723.76	1357.80
723.94	1335.28
724.12	1423.34
724.30	1482.73
724.49	1488.87
724.67	1400.81
724.85	1538.02
725.03	1409.00
725.21	1419.24
725.40	1495.02
725.58	1398.76
725.76	1417.19
725.94	1409.00
726.12	1353.71
726.30	1320.94
726.49	1331.18
726.67	1388.52
726.85	1435.63
727.03	1460.20
727.21	1462.25
727.39	1517.54
727.57	2095.07
727.76	3461.07
727.94	4401.08
728.12	4761.53
728.30	5296.05
728.48	5214.13
728.66	4329.41
728.84	3401.68
729.03	3082.19
729.21	2789.33
729.39	2582.49
729.57	2287.58
729.75	1947.62
729.93	1841.12
730.11	1546.22
730.30	1552.36
730.48	1460.20
730.66	1464.30
730.84	1380.33
731.02	1429.48
731.20	1431.53
731.38	1511.40
731.56	1312.75
731.74	1302.51
731.93	1359.85
732.11	1337.32
732.29	1386.47
732.47	1337.32
732.65	1366.00
732.83	1368.04
733.01	1304.56
733.19	1404.91
733.37	1327.08
733.56	1400.81
733.74	1411.05
733.92	1454.06
734.10	1298.41
734.28	1406.95
734.46	1304.56
734.64	1351.66
734.82	1304.56
735.00	1427.43
735.18	1355.76
735.36	1423.34
735.54	1394.67
735.73	1372.14
735.91	1357.80
736.09	1378.28
736.27	1437.67
736.45	1404.91
736.63	1376.24
736.81	1361.90
736.99	1429.48
737.17	1349.61
737.35	1302.51
737.53	1427.43
737.71	1322.99
737.89	1347.56
738.07	1363.95
738.25	1275.88
738.43	1370.09
738.61	1366.00
738.80	1411.05
738.98	1331.18
739.16	1390.57
739.34	1331.18
739.52	1460.20
739.70	1296.36
739.88	1435.63
740.06	1425.39
740.24	1320.94
740.42	1384.43
740.60	1327.08
740.78	1382.38
740.96	1294.32
741.14	1320.94
741.32	1298.41
741.50	1316.84
741.68	1409.00
741.86	1398.76
742.04	1394.67
742.22	1374.19
742.40	1435.63
742.58	1347.56
742.76	1355.76
742.94	1413.10
743.12	1314.80
743.30	1335.28
743.48	1421.29
743.66	1302.51
743.84	1361.90
744.02	1366.00
744.20	1425.39
744.38	1388.52
744.56	1339.37
744.74	1437.67
744.92	1372.14
745.10	1433.58
745.28	1421.29
745.46	1517.54
745.64	1361.90
745.82	1435.63
746.00	1376.24
746.18	1427.43
746.36	1320.94
746.54	1288.17
746.72	1351.66
746.90	1322.99
747.08	1464.30
747.26	1370.09
747.44	1484.78
747.62	1447.91
747.80	1392.62
747.98	1433.58
748.15	1394.67
748.33	1435.63
748.51	1347.56
748.69	1390.57
748.87	1388.52
749.05	1460.20
749.23	1372.14
749.41	1394.67
749.59	1443.82
749.77	1331.18
749.95	1372.14
750.13	1351.66
750.31	1314.80
750.49	1413.10
750.67	1419.24
750.85	1425.39
751.03	1400.81
751.20	1433.58
751.38	1376.24
751.56	1318.89
751.74	1423.34
751.92	1374.19
752.10	1378.28
752.28	1372.14
752.46	1419.24
752.64	1368.04
752.82	1361.90
753.00	1292.27
753.18	1320.94
753.35	1282.03
753.53	1380.33
753.71	1386.47
753.89	1439.72
754.07	1456.11
754.25	1427.43
754.43	1386.47
754.61	1304.56
754.79	1427.43
754.97	1384.43
755.14	1421.29
755.32	1357.80
755.50	1394.67
755.68	1501.16
755.86	1376.24
756.04	1355.76
756.22	1337.32
756.40	1411.05
756.57	1433.58
756.75	1353.71
756.93	1411.05
757.11	1349.61
757.29	1333.23
757.47	1320.94
757.65	1331.18
757.82	1232.88
758.00	1333.23
758.18	1370.09
758.36	1372.14
758.54	1404.91
758.72	1384.43
758.90	1396.71
759.07	1337.32
759.25	1320.94
759.43	1390.57
759.61	1376.24
759.79	1585.13
759.97	1417.19
760.15	1335.28
760.32	1294.32
760.50	1417.19
760.68	1376.24
760.86	1312.75
761.04	1388.52
761.22	1333.23
761.39	1314.80
761.57	1437.67
761.75	1302.51
761.93	1400.81
762.11	1361.90
762.28	1314.80
762.46	1288.17
762.64	1394.67
762.82	1318.89
763.00	1376.24
763.18	1339.37
763.35	1374.19
763.53	1374.19
763.71	1380.33
763.89	1382.38
764.07	1376.24
764.24	1361.90
764.42	1445.87
764.60	1409.00
764.78	1290.22
764.96	1411.05
765.13	1368.04
765.31	1370.09
765.49	1398.76
765.67	1304.56
765.84	1331.18
766.02	1368.04
766.20	1318.89
766.38	1349.61
766.56	1409.00
766.73	1327.08
766.91	1298.41
767.09	1437.67
767.27	1404.91
767.44	1339.37
767.62	1374.19
767.80	1322.99
767.98	1325.04
768.15	1392.62
768.33	1374.19
768.51	1359.85
768.69	1337.32
768.87	1374.19
769.04	1378.28
769.22	1359.85
769.40	1460.20
769.58	1449.96
769.75	1337.32
769.93	1419.24
770.11	1322.99
770.28	1409.00
770.46	1390.57
770.64	1378.28
770.82	1345.52
770.99	1347.56
771.17	1441.77
771.35	1394.67
771.53	1345.52
771.70	1327.08
771.88	1443.82
772.06	1402.86
772.23	1378.28
772.41	1396.71
772.59	1484.78
772.77	1271.79
772.94	1382.38
773.12	1409.00
773.30	1345.52
773.47	1456.11
773.65	1349.61
773.83	1449.96
774.01	1294.32
774.18	1345.52
774.36	1325.04
774.54	1314.80
774.71	1327.08
774.89	1357.80
775.07	1413.10
775.24	1308.65
775.42	1318.89
775.60	1415.15
775.78	1343.47
775.95	1308.65
776.13	1390.57
776.31	1255.40
776.48	1456.11
776.66	1464.30
776.84	1322.99
777.01	1386.47
777.19	1312.75
777.37	1353.71
777.54	1429.48
777.72	1445.87
777.90	1366.00
778.07	1304.56
778.25	1447.91
778.43	1390.57
778.60	1402.86
778.78	1460.20
778.96	1363.95
779.13	1398.76
779.31	1503.21
779.49	1380.33
779.66	1335.28
779.84	1384.43
780.01	1384.43
780.19	1304.56
780.37	1396.71
780.54	1396.71
780.72	1378.28
780.90	1380.33
781.07	1329.13
781.25	1282.03
781.43	1353.71
781.60	1341.42
781.78	1390.57
781.95	1368.04
782.13	1316.84
782.31	1363.95
782.48	1337.32
782.66	1353.71
782.83	1521.64
783.01	1425.39
783.19	1363.95
783.36	1402.86
783.54	1271.79
783.72	1415.15
783.89	1445.87
784.07	1314.80
784.24	1314.80
784.42	1343.47
784.60	1454.06
784.77	1445.87
784.95	1275.88
785.12	1320.94
785.30	1329.13
785.47	1388.52
785.65	1372.14
785.83	1363.95
786.00	1390.57
786.18	1343.47
786.35	1329.13
786.53	1329.13
786.71	1404.91
786.88	1388.52
787.06	1396.71
787.23	1327.08
787.41	1347.56
787.58	1359.85
787.76	1341.42
787.94	1325.04
788.11	1288.17
788.29	1331.18
788.46	1331.18
788.64	1343.47
788.81	1406.95
788.99	1296.36
789.16	1331.18
789.34	1335.28
789.52	1347.56
789.69	1339.37
789.87	1308.65
790.04	1363.95
790.22	1322.99
790.39	1435.63
790.57	1361.90
790.74	1357.80
790.92	1376.24
791.09	1300.46
791.27	1337.32
791.44	1355.76
791.62	1347.56
791.79	1300.46
791.97	1329.13
792.15	1462.25
792.32	1374.19
792.50	1402.86
792.67	1466.35
792.85	1390.57
793.02	1320.94
793.20	1300.46
793.37	1322.99
793.55	1335.28
793.72	1275.88
793.90	1429.48
794.07	1347.56
794.25	1425.39
794.42	1425.39
794.60	1357.80
794.77	1441.77
794.95	1454.06
795.12	1382.38
795.30	1363.95
795.47	1374.19
795.65	1372.14
795.82	1413.10
796.00	1359.85
796.17	1322.99
796.34	1349.61
796.52	1366.00
796.69	1415.15
796.87	1386.47
797.04	1355.76
797.22	1400.81
797.39	1339.37
797.57	1355.76
797.74	1402.86
797.92	1396.71
798.09	1353.71
798.27	1380.33
798.44	1370.09
798.62	1306.60
798.79	1304.56
798.96	1406.95
799.14	1443.82
799.31	1355.76
799.49	1388.52
799.66	1392.62
799.84	1388.52
800.01	1363.95
800.19	1404.91
800.36	1263.60
800.53	1406.95
800.71	1386.47
800.88	1421.29
801.06	1331.18
801.23	1374.19
801.41	1296.36
801.58	1370.09
801.75	1363.95
801.93	1345.52
802.10	1374.19
802.28	1390.57
802.45	1363.95
802.63	1388.52
802.80	1396.71
802.97	1355.76
803.15	1366.00
803.32	1339.37
803.50	1296.36
803.67	1333.23
803.84	1306.60
804.02	1376.24
804.19	1402.86
804.37	1292.27
804.54	1314.80
804.71	1294.32
804.89	1333.23
805.06	1310.70
805.24	1345.52
805.41	1427.43
805.58	1359.85
805.76	1402.86
805.93	1378.28
806.10	1402.86
806.28	1419.24
806.45	1382.38
806.63	1331.18
806.80	1339.37
806.97	1388.52
807.15	1378.28
807.32	1370.09
807.49	1306.60
807.67	1302.51
807.84	1449.96
808.01	1353.71
808.19	1443.82
808.36	1392.62
808.54	1325.04
808.71	1337.32
808.88	1331.18
809.06	1460.20
809.23	1454.06
809.40	1294.32
809.58	1402.86
809.75	1329.13
809.92	1275.88
810.10	1427.43
810.27	1390.57
810.44	1421.29
810.62	1355.76
810.79	1411.05
810.96	1402.86
811.14	1331.18
811.31	1312.75
811.48	1359.85
811.66	1394.67
811.83	1429.48
812.00	1347.56
812.18	1425.39
812.35	1413.10
812.52	1370.09
812.69	1308.65
812.87	1363.95
813.04	1279.98
813.21	1312.75
813.39	1361.90
813.56	1306.60
813.73	1454.06
813.91	1257.45
814.08	1372.14
814.25	1431.53
814.42	1249.26
814.60	1359.85
814.77	1378.28
814.94	1368.04
815.12	1413.10
815.29	1361.90
815.46	1298.41
815.63	1341.42
815.81	1368.04
815.98	1322.99
816.15	1263.60
816.33	1351.66
816.50	1413.10
816.67	1296.36
816.84	1345.52
817.02	1322.99
817.19	1312.75
817.36	1366.00
817.53	1402.86
817.71	1331.18
817.88	1390.57
818.05	1341.42
818.22	1343.47
818.40	1454.06
818.57	1368.04
818.74	1406.95
818.91	1337.32
819.09	1374.19
819.26	1402.86
819.43	1390.57
819.60	1370.09
819.78	1351.66
819.95	1355.76
820.12	1335.28
820.29	1390.57
820.47	1394.67
820.64	1312.75
820.81	1368.04
820.98	1255.40
821.15	1345.52
821.33	1452.01
821.50	1312.75
821.67	1398.76
821.84	1370.09
822.02	1372.14
822.19	1437.67
822.36	1339.37
822.53	1390.57
822.70	1335.28
822.88	1366.00
823.05	1363.95
823.22	1366.00
823.39	1468.39
823.56	1404.91
823.74	1427.43
823.91	1337.32
824.08	1245.16
824.25	1351.66
824.42	1447.91
824.60	1294.32
824.77	1386.47
824.94	1327.08
825.11	1386.47
825.28	1298.41
825.45	1417.19
825.63	1402.86
825.80	1314.80
825.97	1398.76
826.14	1380.33
826.31	1339.37
826.48	1333.23
826.66	1269.74
826.83	1265.64
827.00	1363.95
827.17	1353.71
827.34	1361.90
827.51	1339.37
827.69	1372.14
827.86	1322.99
828.03	1378.28
828.20	1404.91
828.37	1345.52
828.54	1425.39
828.71	1337.32
828.89	1404.91
829.06	1347.56
829.23	1429.48
829.40	1310.70
829.57	1306.60
829.74	1376.24
829.91	1394.67
830.09	1415.15
830.26	1339.37
830.43	1445.87
830.60	1333.23
830.77	1359.85
830.94	1468.39
831.11	1425.39
831.28	1318.89
831.46	1343.47
831.63	1390.57
831.80	1322.99
831.97	1380.33
832.14	1380.33
832.31	1363.95
832.48	1396.71
832.65	1398.76
832.82	1355.76
832.99	1366.00
833.17	1376.24
833.34	1447.91
833.51	1353.71
833.68	1341.42
833.85	1355.76
834.02	1341.42
834.19	1331.18
834.36	1376.24
834.53	1376.24
834.70	1456.11
834.87	1345.52
835.04	1312.75
835.22	1345.52
835.39	1349.61
835.56	1308.65
835.73	1363.95
835.90	1359.85
836.07	1294.32
836.24	1331.18
836.41	1370.09
836.58	1316.84
836.75	1435.63
836.92	1402.86
837.09	1363.95
837.26	1392.62
837.43	1310.70
837.60	1376.24
837.77	1400.81
837.94	1390.57
838.12	1484.78
838.29	1392.62
838.46	1400.81
838.63	1339.37
838.80	1409.00
838.97	1464.30
839.14	1349.61
839.31	1372.14
839.48	1359.85
839.65	1382.38
839.82	1361.90
839.99	1294.32
840.16	1411.05
840.33	1386.47
840.50	1339.37
840.67	1304.56
840.84	1296.36
841.01	1423.34
841.18	1370.09
841.35	1392.62
841.52	1361.90
841.69	1484.78
841.86	1363.95
842.03	1302.51
842.20	1376.24
842.37	1308.65
842.54	1349.61
842.71	1322.99
842.88	1325.04
843.05	1447.91
843.22	1398.76
843.39	1390.57
843.56	1286.12
843.73	1366.00
843.90	1435.63
844.07	1331.18
844.24	1345.52
844.41	1394.67
844.58	1347.56
844.75	1304.56
844.92	1382.38
845.09	1423.34
845.26	1357.80
845.43	1343.47
845.60	1335.28
845.77	1363.95
845.94	1372.14
846.10	1415.15
846.27	1351.66
846.44	1376.24
846.61	1296.36
846.78	1357.80
846.95	1400.81
847.12	1374.19
847.29	1368.04
847.46	1341.42
847.63	1425.39
847.80	1396.71
847.97	1376.24
848.14	1400.81
848.31	1370.09
848.48	1288.17
848.65	1447.91
848.82	1277.93
848.98	1423.34
849.15	1378.28
849.32	1384.43
849.49	1320.94
849.66	1402.86
849.83	1433.58
850.00	1372.14
850.17	1370.09
850.34	1392.62
850.51	1288.17
850.68	1384.43
850.85	1447.91
851.01	1390.57
851.18	1396.71
851.35	1445.87
851.52	1427.43
851.69	1427.43
851.86	1398.76
852.03	1374.19
852.20	1363.95
852.37	1347.56
852.53	1322.99
852.70	1337.32
852.87	1306.60
853.04	1417.19
853.21	1351.66
853.38	1452.01
853.55	1357.80
853.72	1429.48
853.89	1314.80
854.05	1322.99
854.22	1355.76
854.39	1396.71
854.56	1325.04
854.73	1404.91
854.90	1290.22
855.07	1363.95
855.23	1398.76
855.40	1382.38
855.57	1404.91
855.74	1329.13
855.91	1492.97
856.08	1370.09
856.25	1304.56
856.41	1386.47
856.58	1331.18
856.75	1349.61
856.92	1306.60
857.09	1343.47
857.26	1349.61
857.42	1394.67
857.59	1355.76
857.76	1351.66
857.93	1398.76
858.10	1314.80
858.27	1333.23
858.43	1314.80
858.60	1368.04
858.77	1366.00
858.94	1374.19
859.11	1433.58
859.27	1357.80
859.44	1329.13
859.61	1361.90
859.78	1392.62
859.95	1314.80
860.12	1329.13
860.28	1357.80
860.45	1474.54
860.62	1380.33
860.79	1390.57
860.95	1370.09
861.12	1384.43
861.29	1288.17
861.46	1437.67
861.63	1318.89
861.79	1400.81
861.96	1259.50
862.13	1322.99
862.30	1437.67
862.47	1331.18
862.63	1357.80
862.80	1353.71
862.97	1396.71
863.14	1339.37
863.30	1378.28
863.47	1308.65
863.64	1392.62
863.81	1363.95
863.97	1366.00
864.14	1345.52
864.31	1343.47
864.48	1329.13
864.65	1339.37
864.81	1347.56
864.98	1275.88
865.15	1337.32
865.32	1419.24
865.48	1413.10
865.65	1447.91
865.82	1300.46
865.98	1384.43
866.15	1419.24
866.32	1368.04
866.49	1310.70
866.65	1423.34
866.82	1345.52
866.99	1425.39
867.16	1372.14
867.32	1327.08
867.49	1404.91
867.66	1298.41
867.83	1325.04
867.99	1308.65
868.16	1366.00
868.33	1300.46
868.49	1312.75
868.66	1392.62
868.83	1347.56
868.99	1320.94
869.16	1366.00
869.33	1478.63
869.50	1390.57
869.66	1353.71
869.83	1404.91
870.00	1386.47
870.16	1431.53
870.33	1384.43
870.50	1447.91
870.66	1400.81
870.83	1470.44
871.00	1298.41
871.17	1386.47
871.33	1372.14
871.50	1279.98
871.67	1304.56
871.83	1290.22
872.00	1419.24
872.17	1325.04
872.33	1437.67
872.50	1363.95
872.67	1400.81
872.83	1329.13
873.00	1327.08
873.17	1368.04
873.33	1347.56
873.50	1427.43
873.67	1345.52
873.83	1343.47
874.00	1382.38
874.16	1355.76
874.33	1316.84
874.50	1347.56
874.66	1368.04
874.83	1331.18
875.00	1347.56
875.16	1380.33
875.33	1288.17
875.50	1327.08
875.66	1378.28
875.83	1404.91
875.99	1400.81
876.16	1355.76
876.33	1318.89
876.49	1316.84
876.66	1394.67
876.83	1380.33
876.99	1306.60
877.16	1394.67
877.32	1394.67
877.49	1337.32
877.66	1376.24
877.82	1449.96
877.99	1433.58
878.15	1382.38
878.32	1327.08
878.49	1372.14
878.65	1355.76
878.82	1368.04
878.98	1370.09
879.15	1488.87
879.32	1380.33
879.48	1413.10
879.65	1271.79
879.81	1335.28
879.98	1322.99
880.15	1376.24
880.31	1462.25
880.48	1341.42
880.64	1437.67
880.81	1433.58
880.97	1386.47
881.14	1361.90
881.31	1384.43
881.47	1443.82
881.64	1347.56
881.80	1386.47
881.97	1370.09
882.13	1372.14
882.30	1347.56
882.47	1308.65
882.63	1333.23
882.80	1404.91
882.96	1290.22
883.13	1353.71
883.29	1318.89
883.46	1380.33
883.62	1468.39
883.79	1406.95
883.95	1392.62
884.12	1341.42
884.29	1429.48
884.45	1320.94
884.62	1396.71
884.78	1359.85
884.95	1390.57
885.11	1370.09
885.28	1366.00
885.44	1378.28
885.61	1372.14
885.77	1409.00
885.94	1388.52
886.10	1345.52
886.27	1386.47
886.43	1462.25
886.60	1372.14
886.76	1347.56
886.93	1345.52
887.09	1345.52
887.26	1316.84
887.42	1388.52
887.59	1386.47
887.75	1380.33
887.92	1372.14
888.08	1372.14
888.25	1433.58
888.41	1447.91
888.58	1374.19
888.74	1390.57
888.91	1351.66
>>>>>End Processed Spectral Data<<<<<
