SpectraSuite Data File
++++++++++++++++++++++++++++++++++++
Date: Tue May 03 11:24:50 CEST 2016
User: root
Dark Spectrum Present: No
Reference Spectrum Present: No
Number of Sampled Component Spectra: 1
Spectrometers: USB4C02835
Integration Time (usec): 100000 (USB4C02835)
Spectra Averaged: 1 (USB4C02835)
Boxcar Smoothing: 0 (USB4C02835)
Correct for Electrical Dark: No (USB4C02835)
Strobe/Lamp Enabled: No (USB4C02835)
Correct for Detector Non-linearity: No (USB4C02835)
Correct for Stray Light: No (USB4C02835)
Number of Pixels in Processed Spectrum: 3648
>>>>>Begin Processed Spectral Data<<<<<
177.47	1200.11
177.69	1200.11
177.91	1200.11
178.13	1138.67
178.36	1239.02
178.58	1361.90
178.80	1480.68
179.02	1275.88
179.24	1368.04
179.46	1378.28
179.68	1314.80
179.90	1341.42
180.13	1421.29
180.35	1322.99
180.57	1353.71
180.79	1447.91
181.01	1335.28
181.23	1347.56
181.45	1447.91
181.67	1388.52
181.90	1361.90
182.12	1413.10
182.34	1325.04
182.56	1378.28
182.78	1339.37
183.00	1382.38
183.22	1363.95
183.44	1325.04
183.66	1495.02
183.89	1433.58
184.11	1411.05
184.33	1425.39
184.55	1398.76
184.77	1406.95
184.99	1437.67
185.21	1370.09
185.43	1470.44
185.65	1384.43
185.87	1374.19
186.10	1413.10
186.32	1402.86
186.54	1314.80
186.76	1452.01
186.98	1349.61
187.20	1345.52
187.42	1275.88
187.64	1439.72
187.86	1386.47
188.08	1353.71
188.30	1378.28
188.52	1329.13
188.75	1415.15
188.97	1544.17
189.19	1366.00
189.41	1288.17
189.63	1353.71
189.85	1359.85
190.07	1306.60
190.29	1431.53
190.51	1345.52
190.73	1339.37
190.95	1472.49
191.17	1372.14
191.39	1368.04
191.61	1327.08
191.84	1372.14
192.06	1376.24
192.28	1284.08
192.50	1482.73
192.72	1400.81
192.94	1363.95
193.16	1331.18
193.38	1314.80
193.60	1316.84
193.82	1378.28
194.04	1413.10
194.26	1378.28
194.48	1345.52
194.70	1337.32
194.92	1322.99
195.14	1376.24
195.36	1341.42
195.58	1372.14
195.80	1370.09
196.02	1355.76
196.24	1347.56
196.46	1349.61
196.69	1306.60
196.91	1462.25
197.13	1368.04
197.35	1392.62
197.57	1413.10
197.79	1425.39
198.01	1404.91
198.23	1349.61
198.45	1245.16
198.67	1329.13
198.89	1363.95
199.11	1380.33
199.33	1386.47
199.55	1337.32
199.77	1359.85
199.99	1402.86
200.21	1320.94
200.43	1380.33
200.65	1341.42
200.87	1380.33
201.09	1396.71
201.31	1409.00
201.53	1413.10
201.75	1411.05
201.97	1400.81
202.19	1284.08
202.41	1320.94
202.63	1492.97
202.85	1341.42
203.07	1439.72
203.29	1294.32
203.51	1433.58
203.73	1368.04
203.95	1456.11
204.17	1386.47
204.39	1411.05
204.61	1306.60
204.83	1337.32
205.05	1386.47
205.27	1396.71
205.49	1468.39
205.71	1331.18
205.93	1343.47
206.15	1279.98
206.37	1378.28
206.59	1363.95
206.81	1368.04
207.03	1314.80
207.25	1306.60
207.47	1400.81
207.69	1347.56
207.91	1390.57
208.13	1449.96
208.34	1325.04
208.56	1302.51
208.78	1382.38
209.00	1388.52
209.22	1386.47
209.44	1361.90
209.66	1304.56
209.88	1308.65
210.10	1390.57
210.32	1372.14
210.54	1392.62
210.76	1345.52
210.98	1345.52
211.20	1251.31
211.42	1443.82
211.64	1351.66
211.86	1423.34
212.08	1439.72
212.30	1390.57
212.52	1310.70
212.74	1398.76
212.96	1398.76
213.17	1394.67
213.39	1359.85
213.61	1380.33
213.83	1433.58
214.05	1294.32
214.27	1486.83
214.49	1386.47
214.71	1349.61
214.93	1427.43
215.15	1361.90
215.37	1320.94
215.59	1359.85
215.81	1452.01
216.03	1423.34
216.24	1386.47
216.46	1421.29
216.68	1425.39
216.90	1380.33
217.12	1333.23
217.34	1347.56
217.56	1372.14
217.78	1335.28
218.00	1402.86
218.22	1327.08
218.44	1402.86
218.66	1341.42
218.87	1409.00
219.09	1312.75
219.31	1380.33
219.53	1327.08
219.75	1284.08
219.97	1409.00
220.19	1447.91
220.41	1253.36
220.63	1409.00
220.85	1368.04
221.06	1339.37
221.28	1349.61
221.50	1361.90
221.72	1335.28
221.94	1441.77
222.16	1423.34
222.38	1429.48
222.60	1429.48
222.82	1376.24
223.03	1380.33
223.25	1269.74
223.47	1327.08
223.69	1447.91
223.91	1419.24
224.13	1351.66
224.35	1394.67
224.57	1372.14
224.78	1423.34
225.00	1421.29
225.22	1382.38
225.44	1429.48
225.66	1423.34
225.88	1296.36
226.10	1415.15
226.32	1433.58
226.53	1400.81
226.75	1388.52
226.97	1333.23
227.19	1355.76
227.41	1355.76
227.63	1306.60
227.85	1288.17
228.06	1378.28
228.28	1409.00
228.50	1335.28
228.72	1368.04
228.94	1329.13
229.16	1322.99
229.37	1312.75
229.59	1341.42
229.81	1411.05
230.03	1337.32
230.25	1310.70
230.47	1390.57
230.69	1374.19
230.90	1349.61
231.12	1353.71
231.34	1411.05
231.56	1392.62
231.78	1327.08
232.00	1361.90
232.21	1404.91
232.43	1372.14
232.65	1298.41
232.87	1351.66
233.09	1347.56
233.30	1224.69
233.52	1406.95
233.74	1417.19
233.96	1327.08
234.18	1353.71
234.40	1372.14
234.61	1433.58
234.83	1292.27
235.05	1339.37
235.27	1439.72
235.49	1472.49
235.70	1361.90
235.92	1411.05
236.14	1386.47
236.36	1425.39
236.58	1337.32
236.79	1376.24
237.01	1316.84
237.23	1333.23
237.45	1470.44
237.67	1388.52
237.88	1374.19
238.10	1404.91
238.32	1314.80
238.54	1372.14
238.76	1378.28
238.97	1349.61
239.19	1339.37
239.41	1476.59
239.63	1413.10
239.85	1380.33
240.06	1359.85
240.28	1380.33
240.50	1372.14
240.72	1386.47
240.93	1380.33
241.15	1413.10
241.37	1400.81
241.59	1460.20
241.81	1339.37
242.02	1353.71
242.24	1396.71
242.46	1339.37
242.68	1353.71
242.89	1359.85
243.11	1431.53
243.33	1331.18
243.55	1366.00
243.76	1398.76
243.98	1318.89
244.20	1366.00
244.42	1374.19
244.64	1386.47
244.85	1361.90
245.07	1347.56
245.29	1413.10
245.51	1386.47
245.72	1331.18
245.94	1366.00
246.16	1376.24
246.38	1343.47
246.59	1388.52
246.81	1331.18
247.03	1384.43
247.24	1380.33
247.46	1361.90
247.68	1308.65
247.90	1382.38
248.11	1366.00
248.33	1331.18
248.55	1325.04
248.77	1402.86
248.98	1449.96
249.20	1415.15
249.42	1398.76
249.64	1351.66
249.85	1394.67
250.07	1300.46
250.29	1269.74
250.50	1423.34
250.72	1263.60
250.94	1370.09
251.16	1466.35
251.37	1380.33
251.59	1366.00
251.81	1390.57
252.02	1390.57
252.24	1345.52
252.46	1449.96
252.68	1322.99
252.89	1359.85
253.11	1411.05
253.33	1411.05
253.54	1318.89
253.76	1296.36
253.98	1339.37
254.20	1386.47
254.41	1294.32
254.63	1347.56
254.85	1298.41
255.06	1404.91
255.28	1417.19
255.50	1406.95
255.71	1382.38
255.93	1339.37
256.15	1363.95
256.36	1386.47
256.58	1437.67
256.80	1402.86
257.02	1335.28
257.23	1298.41
257.45	1327.08
257.67	1409.00
257.88	1388.52
258.10	1349.61
258.32	1351.66
258.53	1355.76
258.75	1396.71
258.97	1310.70
259.18	1480.68
259.40	1374.19
259.62	1421.29
259.83	1452.01
260.05	1394.67
260.27	1535.98
260.48	1413.10
260.70	1380.33
260.92	1394.67
261.13	1425.39
261.35	1384.43
261.57	1376.24
261.78	1222.64
262.00	1361.90
262.22	1310.70
262.43	1322.99
262.65	1402.86
262.86	1370.09
263.08	1478.63
263.30	1355.76
263.51	1314.80
263.73	1396.71
263.95	1417.19
264.16	1370.09
264.38	1447.91
264.60	1443.82
264.81	1359.85
265.03	1406.95
265.25	1349.61
265.46	1343.47
265.68	1378.28
265.89	1445.87
266.11	1312.75
266.33	1439.72
266.54	1411.05
266.76	1384.43
266.98	1370.09
267.19	1406.95
267.41	1398.76
267.62	1425.39
267.84	1357.80
268.06	1363.95
268.27	1441.77
268.49	1390.57
268.70	1423.34
268.92	1341.42
269.14	1294.32
269.35	1286.12
269.57	1314.80
269.79	1376.24
270.00	1386.47
270.22	1409.00
270.43	1361.90
270.65	1320.94
270.87	1361.90
271.08	1376.24
271.30	1449.96
271.51	1404.91
271.73	1441.77
271.95	1400.81
272.16	1439.72
272.38	1384.43
272.59	1329.13
272.81	1429.48
273.02	1380.33
273.24	1363.95
273.46	1411.05
273.67	1333.23
273.89	1277.93
274.10	1347.56
274.32	1384.43
274.54	1329.13
274.75	1392.62
274.97	1400.81
275.18	1363.95
275.40	1437.67
275.61	1380.33
275.83	1384.43
276.05	1298.41
276.26	1296.36
276.48	1380.33
276.69	1314.80
276.91	1398.76
277.12	1390.57
277.34	1404.91
277.55	1353.71
277.77	1427.43
277.99	1355.76
278.20	1255.40
278.42	1345.52
278.63	1302.51
278.85	1347.56
279.06	1294.32
279.28	1290.22
279.49	1413.10
279.71	1355.76
279.93	1380.33
280.14	1458.15
280.36	1355.76
280.57	1376.24
280.79	1359.85
281.00	1277.93
281.22	1345.52
281.43	1349.61
281.65	1329.13
281.86	1376.24
282.08	1322.99
282.29	1374.19
282.51	1372.14
282.73	1325.04
282.94	1300.46
283.16	1378.28
283.37	1406.95
283.59	1357.80
283.80	1372.14
284.02	1435.63
284.23	1411.05
284.45	1417.19
284.66	1378.28
284.88	1372.14
285.09	1376.24
285.31	1361.90
285.52	1456.11
285.74	1322.99
285.95	1380.33
286.17	1404.91
286.38	1384.43
286.60	1363.95
286.81	1232.88
287.03	1337.32
287.24	1325.04
287.46	1429.48
287.67	1331.18
287.89	1404.91
288.10	1411.05
288.32	1421.29
288.53	1464.30
288.75	1431.53
288.96	1353.71
289.18	1406.95
289.39	1363.95
289.61	1443.82
289.82	1435.63
290.04	1507.30
290.25	1343.47
290.47	1359.85
290.68	1277.93
290.90	1447.91
291.11	1341.42
291.33	1404.91
291.54	1306.60
291.76	1312.75
291.97	1333.23
292.18	1447.91
292.40	1316.84
292.61	1370.09
292.83	1419.24
293.04	1327.08
293.26	1353.71
293.47	1366.00
293.69	1351.66
293.90	1409.00
294.12	1394.67
294.33	1335.28
294.55	1318.89
294.76	1409.00
294.97	1476.59
295.19	1398.76
295.40	1284.08
295.62	1443.82
295.83	1443.82
296.05	1361.90
296.26	1470.44
296.48	1267.69
296.69	1357.80
296.90	1376.24
297.12	1388.52
297.33	1394.67
297.55	1402.86
297.76	1310.70
297.98	1427.43
298.19	1398.76
298.41	1325.04
298.62	1320.94
298.83	1380.33
299.05	1316.84
299.26	1286.12
299.48	1316.84
299.69	1445.87
299.90	1472.49
300.12	1368.04
300.33	1327.08
300.55	1368.04
300.76	1314.80
300.98	1314.80
301.19	1413.10
301.40	1347.56
301.62	1314.80
301.83	1359.85
302.05	1409.00
302.26	1327.08
302.47	1363.95
302.69	1347.56
302.90	1374.19
303.12	1314.80
303.33	1366.00
303.54	1464.30
303.76	1318.89
303.97	1353.71
304.19	1331.18
304.40	1368.04
304.61	1404.91
304.83	1452.01
305.04	1419.24
305.26	1351.66
305.47	1372.14
305.68	1380.33
305.90	1267.69
306.11	1376.24
306.33	1312.75
306.54	1286.12
306.75	1404.91
306.97	1325.04
307.18	1308.65
307.39	1294.32
307.61	1425.39
307.82	1292.27
308.04	1353.71
308.25	1306.60
308.46	1392.62
308.68	1351.66
308.89	1370.09
309.10	1439.72
309.32	1339.37
309.53	1421.29
309.74	1392.62
309.96	1357.80
310.17	1380.33
310.39	1345.52
310.60	1372.14
310.81	1327.08
311.03	1325.04
311.24	1441.77
311.45	1361.90
311.67	1439.72
311.88	1363.95
312.09	1363.95
312.31	1304.56
312.52	1359.85
312.73	1368.04
312.95	1308.65
313.16	1351.66
313.37	1372.14
313.59	1304.56
313.80	1400.81
314.01	1425.39
314.23	1359.85
314.44	1337.32
314.65	1357.80
314.87	1306.60
315.08	1316.84
315.29	1302.51
315.51	1374.19
315.72	1353.71
315.93	1484.78
316.15	1462.25
316.36	1300.46
316.57	1337.32
316.79	1400.81
317.00	1394.67
317.21	1359.85
317.43	1382.38
317.64	1322.99
317.85	1460.20
318.07	1454.06
318.28	1529.83
318.49	1538.02
318.70	1638.38
318.92	1529.83
319.13	1466.35
319.34	1540.07
319.56	1476.59
319.77	1396.71
319.98	1503.21
320.20	1466.35
320.41	1449.96
320.62	1468.39
320.83	1329.13
321.05	1470.44
321.26	1392.62
321.47	1363.95
321.69	1394.67
321.90	1380.33
322.11	1388.52
322.32	1370.09
322.54	1429.48
322.75	1359.85
322.96	1484.78
323.18	1347.56
323.39	1312.75
323.60	1368.04
323.81	1347.56
324.03	1312.75
324.24	1374.19
324.45	1406.95
324.66	1384.43
324.88	1404.91
325.09	1329.13
325.30	1388.52
325.52	1388.52
325.73	1439.72
325.94	1345.52
326.15	1300.46
326.37	1298.41
326.58	1400.81
326.79	1413.10
327.00	1335.28
327.22	1421.29
327.43	1298.41
327.64	1339.37
327.85	1341.42
328.07	1347.56
328.28	1413.10
328.49	1400.81
328.70	1384.43
328.92	1435.63
329.13	1396.71
329.34	1363.95
329.55	1425.39
329.76	1402.86
329.98	1347.56
330.19	1470.44
330.40	1464.30
330.61	1394.67
330.83	1370.09
331.04	1333.23
331.25	1361.90
331.46	1331.18
331.68	1351.66
331.89	1392.62
332.10	1392.62
332.31	1404.91
332.52	1427.43
332.74	1460.20
332.95	1366.00
333.16	1396.71
333.37	1421.29
333.58	1390.57
333.80	1318.89
334.01	1296.36
334.22	1402.86
334.43	1353.71
334.64	1359.85
334.86	1288.17
335.07	1335.28
335.28	1404.91
335.49	1273.84
335.70	1404.91
335.92	1366.00
336.13	1454.06
336.34	1468.39
336.55	1380.33
336.76	1396.71
336.98	1282.03
337.19	1384.43
337.40	1431.53
337.61	1351.66
337.82	1445.87
338.04	1325.04
338.25	1261.55
338.46	1396.71
338.67	1363.95
338.88	1308.65
339.09	1329.13
339.31	1366.00
339.52	1269.74
339.73	1411.05
339.94	1404.91
340.15	1316.84
340.36	1292.27
340.58	1378.28
340.79	1290.22
341.00	1417.19
341.21	1284.08
341.42	1366.00
341.63	1302.51
341.85	1320.94
342.06	1366.00
342.27	1343.47
342.48	1396.71
342.69	1363.95
342.90	1398.76
343.12	1396.71
343.33	1327.08
343.54	1355.76
343.75	1417.19
343.96	1398.76
344.17	1372.14
344.38	1347.56
344.60	1286.12
344.81	1402.86
345.02	1396.71
345.23	1396.71
345.44	1464.30
345.65	1447.91
345.86	1400.81
346.07	1406.95
346.29	1363.95
346.50	1345.52
346.71	1314.80
346.92	1343.47
347.13	1378.28
347.34	1392.62
347.55	1370.09
347.76	1409.00
347.98	1337.32
348.19	1355.76
348.40	1388.52
348.61	1308.65
348.82	1445.87
349.03	1310.70
349.24	1318.89
349.45	1466.35
349.66	1271.79
349.88	1357.80
350.09	1351.66
350.30	1392.62
350.51	1355.76
350.72	1392.62
350.93	1390.57
351.14	1316.84
351.35	1378.28
351.56	1400.81
351.77	1339.37
351.99	1404.91
352.20	1435.63
352.41	1400.81
352.62	1306.60
352.83	1292.27
353.04	1333.23
353.25	1345.52
353.46	1390.57
353.67	1368.04
353.88	1368.04
354.09	1327.08
354.30	1353.71
354.52	1353.71
354.73	1312.75
354.94	1253.36
355.15	1437.67
355.36	1370.09
355.57	1445.87
355.78	1409.00
355.99	1402.86
356.20	1341.42
356.41	1433.58
356.62	1347.56
356.83	1396.71
357.04	1492.97
357.25	1345.52
357.46	1327.08
357.68	1286.12
357.89	1353.71
358.10	1421.29
358.31	1396.71
358.52	1310.70
358.73	1298.41
358.94	1298.41
359.15	1347.56
359.36	1351.66
359.57	1368.04
359.78	1304.56
359.99	1394.67
360.20	1349.61
360.41	1339.37
360.62	1411.05
360.83	1413.10
361.04	1359.85
361.25	1361.90
361.46	1425.39
361.67	1376.24
361.88	1312.75
362.09	1396.71
362.30	1329.13
362.51	1304.56
362.72	1435.63
362.93	1445.87
363.14	1429.48
363.35	1329.13
363.56	1388.52
363.78	1431.53
363.99	1404.91
364.20	1286.12
364.41	1445.87
364.62	1394.67
364.83	1398.76
365.04	1327.08
365.25	1470.44
365.46	1484.78
365.67	1419.24
365.88	1349.61
366.09	1411.05
366.30	1378.28
366.51	1398.76
366.72	1290.22
366.93	1349.61
367.14	1398.76
367.35	1363.95
367.56	1427.43
367.77	1488.87
367.98	1322.99
368.18	1382.38
368.39	1347.56
368.60	1366.00
368.81	1318.89
369.02	1429.48
369.23	1376.24
369.44	1333.23
369.65	1413.10
369.86	1441.77
370.07	1423.34
370.28	1368.04
370.49	1357.80
370.70	1398.76
370.91	1277.93
371.12	1390.57
371.33	1368.04
371.54	1382.38
371.75	1363.95
371.96	1181.68
372.17	1335.28
372.38	1331.18
372.59	1372.14
372.80	1378.28
373.01	1355.76
373.22	1378.28
373.43	1392.62
373.64	1349.61
373.85	1472.49
374.06	1505.26
374.26	1322.99
374.47	1329.13
374.68	1404.91
374.89	1456.11
375.10	1378.28
375.31	1419.24
375.52	1392.62
375.73	1325.04
375.94	1292.27
376.15	1402.86
376.36	1335.28
376.57	1345.52
376.78	1306.60
376.99	1376.24
377.20	1441.77
377.40	1335.28
377.61	1445.87
377.82	1335.28
378.03	1452.01
378.24	1386.47
378.45	1347.56
378.66	1378.28
378.87	1347.56
379.08	1372.14
379.29	1359.85
379.50	1400.81
379.71	1355.76
379.91	1427.43
380.12	1376.24
380.33	1370.09
380.54	1372.14
380.75	1359.85
380.96	1359.85
381.17	1439.72
381.38	1382.38
381.59	1452.01
381.80	1363.95
382.00	1562.60
382.21	1404.91
382.42	1472.49
382.63	1505.26
382.84	1394.67
383.05	1400.81
383.26	1458.15
383.47	1466.35
383.68	1492.97
383.88	1400.81
384.09	1425.39
384.30	1425.39
384.51	1376.24
384.72	1380.33
384.93	1314.80
385.14	1398.76
385.35	1419.24
385.55	1296.36
385.76	1458.15
385.97	1396.71
386.18	1390.57
386.39	1372.14
386.60	1339.37
386.81	1302.51
387.02	1366.00
387.22	1366.00
387.43	1417.19
387.64	1568.74
387.85	2267.10
388.06	5537.71
388.27	9308.02
388.48	11548.50
388.68	12951.35
388.89	13121.34
389.10	10440.54
389.31	9045.88
389.52	8378.24
389.73	7444.37
389.93	6739.87
390.14	6457.25
390.35	6068.13
390.56	5435.31
390.77	4585.40
390.98	3743.69
391.18	2758.61
391.39	2215.90
391.60	1697.77
391.81	1527.78
392.02	1431.53
392.23	1503.21
392.43	1456.11
392.64	1402.86
392.85	1411.05
393.06	1431.53
393.27	1335.28
393.47	1382.38
393.68	1398.76
393.89	1347.56
394.10	1400.81
394.31	1341.42
394.52	1370.09
394.72	1460.20
394.93	1456.11
395.14	1282.03
395.35	1400.81
395.56	1409.00
395.76	1449.96
395.97	1435.63
396.18	1589.22
396.39	1615.85
396.60	1607.66
396.80	1597.42
397.01	1521.64
397.22	1476.59
397.43	1511.40
397.64	1374.19
397.84	1456.11
398.05	1546.22
398.26	1454.06
398.47	1406.95
398.67	1476.59
398.88	1374.19
399.09	1376.24
399.30	1292.27
399.51	1433.58
399.71	1388.52
399.92	1402.86
400.13	1413.10
400.34	1411.05
400.54	1355.76
400.75	1511.40
400.96	1347.56
401.17	1460.20
401.37	1382.38
401.58	1423.34
401.79	1540.07
402.00	1740.77
402.21	1832.93
402.41	1775.59
402.62	1765.35
402.83	1712.10
403.04	1697.77
403.24	1705.96
403.45	1593.32
403.66	1630.18
403.87	1517.54
404.07	1601.51
404.28	1544.17
404.49	1501.16
404.70	1445.87
404.90	1527.78
405.11	1429.48
405.32	1390.57
405.52	1339.37
405.73	1368.04
405.94	1337.32
406.15	1378.28
406.35	1366.00
406.56	1417.19
406.77	1419.24
406.98	1380.33
407.18	1382.38
407.39	1413.10
407.60	1355.76
407.80	1406.95
408.01	1329.13
408.22	1404.91
408.43	1386.47
408.63	1366.00
408.84	1372.14
409.05	1429.48
409.25	1368.04
409.46	1388.52
409.67	1279.98
409.88	1390.57
410.08	1419.24
410.29	1286.12
410.50	1421.29
410.70	1372.14
410.91	1337.32
411.12	1368.04
411.32	1372.14
411.53	1376.24
411.74	1458.15
411.95	1415.15
412.15	1490.92
412.36	1492.97
412.57	1456.11
412.77	1495.02
412.98	1378.28
413.19	1388.52
413.39	1435.63
413.60	1480.68
413.81	1429.48
414.01	1452.01
414.22	1458.15
414.43	1417.19
414.63	1345.52
414.84	1462.25
415.05	1423.34
415.25	1308.65
415.46	1404.91
415.67	1456.11
415.87	1413.10
416.08	1402.86
416.29	1347.56
416.49	1320.94
416.70	1349.61
416.91	1335.28
417.11	1368.04
417.32	1380.33
417.53	1353.71
417.73	1398.76
417.94	1378.28
418.15	1325.04
418.35	1368.04
418.56	1351.66
418.77	1454.06
418.97	1443.82
419.18	1359.85
419.38	1312.75
419.59	1322.99
419.80	1449.96
420.00	1339.37
420.21	1370.09
420.42	1468.39
420.62	1396.71
420.83	1374.19
421.04	1396.71
421.24	1343.47
421.45	1331.18
421.65	1384.43
421.86	1413.10
422.07	1347.56
422.27	1363.95
422.48	1400.81
422.69	1325.04
422.89	1345.52
423.10	1376.24
423.30	1376.24
423.51	1275.88
423.72	1394.67
423.92	1370.09
424.13	1331.18
424.33	1394.67
424.54	1382.38
424.75	1351.66
424.95	1472.49
425.16	1427.43
425.36	1382.38
425.57	1441.77
425.78	1370.09
425.98	1458.15
426.19	1427.43
426.39	1376.24
426.60	1370.09
426.81	1429.48
427.01	1398.76
427.22	1345.52
427.42	1396.71
427.63	1294.32
427.83	1425.39
428.04	1400.81
428.25	1492.97
428.45	1413.10
428.66	1449.96
428.86	1456.11
429.07	1431.53
429.28	1421.29
429.48	1351.66
429.69	1349.61
429.89	1392.62
430.10	1357.80
430.30	1441.77
430.51	1421.29
430.71	1384.43
430.92	1396.71
431.13	1333.23
431.33	1400.81
431.54	1345.52
431.74	1454.06
431.95	1421.29
432.15	1382.38
432.36	1423.34
432.56	1419.24
432.77	1406.95
432.98	1322.99
433.18	1435.63
433.39	1345.52
433.59	1398.76
433.80	1439.72
434.00	1482.73
434.21	1372.14
434.41	1335.28
434.62	1431.53
434.82	1314.80
435.03	1294.32
435.23	1380.33
435.44	1382.38
435.64	1470.44
435.85	1372.14
436.06	1437.67
436.26	1359.85
436.47	1406.95
436.67	1343.47
436.88	1378.28
437.08	1361.90
437.29	1472.49
437.49	1423.34
437.70	1398.76
437.90	1386.47
438.11	1492.97
438.31	1486.83
438.52	1570.79
438.72	1589.22
438.93	1617.90
439.13	1495.02
439.34	1413.10
439.54	1443.82
439.75	1404.91
439.95	1460.20
440.16	1429.48
440.36	1460.20
440.57	1423.34
440.77	1490.92
440.98	1411.05
441.18	1441.77
441.39	1329.13
441.59	1368.04
441.80	1447.91
442.00	1398.76
442.21	1482.73
442.41	1322.99
442.62	1396.71
442.82	1384.43
443.02	1402.86
443.23	1470.44
443.43	1386.47
443.64	1370.09
443.84	1409.00
444.05	1478.63
444.25	1351.66
444.46	1329.13
444.66	1372.14
444.87	1476.59
445.07	1363.95
445.28	1468.39
445.48	1421.29
445.69	1464.30
445.89	1550.31
446.09	1566.70
446.30	2326.49
446.50	3696.58
446.71	4564.92
446.91	5175.22
447.12	5377.97
447.32	4767.67
447.53	4165.57
447.73	3770.31
447.93	3420.11
448.14	3168.21
448.34	3018.71
448.55	2740.18
448.75	2766.81
448.96	2582.49
449.16	2394.08
449.36	2205.66
449.57	1947.62
449.77	1681.38
449.98	1546.22
450.18	1476.59
450.39	1480.68
450.59	1437.67
450.79	1413.10
451.00	1292.27
451.20	1421.29
451.41	1335.28
451.61	1439.72
451.81	1427.43
452.02	1374.19
452.22	1396.71
452.43	1355.76
452.63	1370.09
452.84	1409.00
453.04	1396.71
453.24	1452.01
453.45	1452.01
453.65	1429.48
453.86	1425.39
454.06	1384.43
454.26	1499.11
454.47	1296.36
454.67	1359.85
454.87	1390.57
455.08	1398.76
455.28	1452.01
455.49	1441.77
455.69	1382.38
455.89	1468.39
456.10	1437.67
456.30	1366.00
456.51	1411.05
456.71	1386.47
456.91	1361.90
457.12	1308.65
457.32	1425.39
457.52	1288.17
457.73	1466.35
457.93	1413.10
458.14	1396.71
458.34	1329.13
458.54	1372.14
458.75	1435.63
458.95	1378.28
459.15	1331.18
459.36	1402.86
459.56	1429.48
459.76	1466.35
459.97	1335.28
460.17	1458.15
460.37	1452.01
460.58	1396.71
460.78	1361.90
460.99	1400.81
461.19	1343.47
461.39	1363.95
461.60	1392.62
461.80	1339.37
462.00	1327.08
462.21	1351.66
462.41	1316.84
462.61	1329.13
462.82	1322.99
463.02	1445.87
463.22	1380.33
463.43	1400.81
463.63	1388.52
463.83	1452.01
464.04	1441.77
464.24	1421.29
464.44	1429.48
464.64	1421.29
464.85	1349.61
465.05	1396.71
465.25	1439.72
465.46	1259.50
465.66	1466.35
465.86	1398.76
466.07	1409.00
466.27	1361.90
466.47	1353.71
466.68	1366.00
466.88	1425.39
467.08	1343.47
467.29	1495.02
467.49	1363.95
467.69	1386.47
467.89	1417.19
468.10	1370.09
468.30	1390.57
468.50	1460.20
468.71	1378.28
468.91	1333.23
469.11	1431.53
469.31	1376.24
469.52	1363.95
469.72	1443.82
469.92	1456.11
470.13	1349.61
470.33	1452.01
470.53	1658.85
470.73	2021.35
470.94	2308.06
471.14	2330.59
471.34	2408.41
471.54	2193.37
471.75	2050.02
471.95	1826.79
472.15	1800.16
472.36	1775.59
472.56	1798.12
472.76	1722.34
472.96	1738.73
473.17	1638.38
473.37	1654.76
473.57	1523.69
473.77	1521.64
473.98	1462.25
474.18	1425.39
474.38	1468.39
474.58	1372.14
474.79	1347.56
474.99	1341.42
475.19	1423.34
475.39	1349.61
475.60	1380.33
475.80	1413.10
476.00	1421.29
476.20	1384.43
476.41	1353.71
476.61	1376.24
476.81	1392.62
477.01	1355.76
477.21	1454.06
477.42	1390.57
477.62	1353.71
477.82	1329.13
478.02	1376.24
478.23	1390.57
478.43	1308.65
478.63	1327.08
478.83	1351.66
479.03	1320.94
479.24	1431.53
479.44	1511.40
479.64	1372.14
479.84	1333.23
480.04	1322.99
480.25	1404.91
480.45	1363.95
480.65	1327.08
480.85	1421.29
481.06	1392.62
481.26	1392.62
481.46	1382.38
481.66	1406.95
481.86	1347.56
482.06	1447.91
482.27	1368.04
482.47	1384.43
482.67	1327.08
482.87	1402.86
483.07	1441.77
483.28	1359.85
483.48	1396.71
483.68	1396.71
483.88	1366.00
484.08	1374.19
484.29	1435.63
484.49	1427.43
484.69	1339.37
484.89	1380.33
485.09	1421.29
485.29	1347.56
485.50	1363.95
485.70	1359.85
485.90	1388.52
486.10	1406.95
486.30	1392.62
486.50	1363.95
486.71	1380.33
486.91	1427.43
487.11	1374.19
487.31	1282.03
487.51	1398.76
487.71	1251.31
487.91	1261.55
488.12	1363.95
488.32	1347.56
488.52	1363.95
488.72	1357.80
488.92	1382.38
489.12	1316.84
489.32	1363.95
489.53	1421.29
489.73	1308.65
489.93	1355.76
490.13	1337.32
490.33	1388.52
490.53	1476.59
490.73	1335.28
490.94	1370.09
491.14	1390.57
491.34	1611.75
491.54	2160.61
491.74	2576.34
491.94	2955.22
492.14	3125.20
492.34	2963.41
492.54	2566.10
492.75	2340.83
492.95	2281.44
493.15	1996.77
493.35	1957.86
493.55	1882.08
493.75	1951.71
493.95	1830.88
494.15	1736.68
494.35	1683.43
494.56	1658.85
494.76	1542.12
494.96	1482.73
495.16	1441.77
495.36	1439.72
495.56	1376.24
495.76	1368.04
495.96	1363.95
496.16	1355.76
496.36	1406.95
496.56	1384.43
496.77	1363.95
496.97	1411.05
497.17	1404.91
497.37	1343.47
497.57	1390.57
497.77	1343.47
497.97	1347.56
498.17	1396.71
498.37	1388.52
498.57	1415.15
498.77	1374.19
498.97	1376.24
499.17	1503.21
499.38	1368.04
499.58	1439.72
499.78	1421.29
499.98	1462.25
500.18	1400.81
500.38	1425.39
500.58	1701.86
500.78	2895.83
500.98	5388.21
501.18	6840.22
501.38	8073.09
501.58	8546.17
501.78	7311.25
501.98	5699.50
502.18	5093.30
502.38	4489.15
502.58	4218.82
502.78	3737.54
502.98	3547.08
503.18	3432.40
503.38	3299.28
503.59	3035.09
503.79	2795.48
503.99	2594.78
504.19	2353.12
504.39	2131.94
504.59	2113.50
504.79	1974.24
504.99	1746.92
505.19	1667.05
505.39	1578.98
505.59	1581.03
505.79	1560.55
505.99	1515.50
506.19	1484.78
506.39	1474.54
506.59	1507.30
506.79	1417.19
506.99	1449.96
507.19	1445.87
507.39	1402.86
507.59	1353.71
507.79	1329.13
507.99	1343.47
508.19	1439.72
508.39	1308.65
508.59	1427.43
508.79	1437.67
508.99	1409.00
509.19	1325.04
509.39	1411.05
509.59	1359.85
509.79	1435.63
509.99	1349.61
510.19	1413.10
510.39	1392.62
510.59	1374.19
510.79	1331.18
510.99	1290.22
511.19	1439.72
511.39	1478.63
511.59	1415.15
511.79	1400.81
511.99	1384.43
512.19	1425.39
512.38	1378.28
512.58	1406.95
512.78	1413.10
512.98	1394.67
513.18	1425.39
513.38	1353.71
513.58	1372.14
513.78	1302.51
513.98	1398.76
514.18	1378.28
514.38	1462.25
514.58	1368.04
514.78	1376.24
514.98	1310.70
515.18	1380.33
515.38	1382.38
515.58	1468.39
515.78	1286.12
515.98	1335.28
516.18	1411.05
516.38	1411.05
516.57	1325.04
516.77	1341.42
516.97	1435.63
517.17	1380.33
517.37	1277.93
517.57	1347.56
517.77	1441.77
517.97	1445.87
518.17	1478.63
518.37	1347.56
518.57	1333.23
518.77	1370.09
518.97	1429.48
519.16	1439.72
519.36	1421.29
519.56	1339.37
519.76	1406.95
519.96	1429.48
520.16	1394.67
520.36	1394.67
520.56	1427.43
520.76	1337.32
520.96	1329.13
521.16	1406.95
521.35	1392.62
521.55	1476.59
521.75	1437.67
521.95	1417.19
522.15	1406.95
522.35	1409.00
522.55	1337.32
522.75	1343.47
522.95	1347.56
523.14	1349.61
523.34	1345.52
523.54	1363.95
523.74	1427.43
523.94	1425.39
524.14	1329.13
524.34	1382.38
524.54	1359.85
524.73	1382.38
524.93	1361.90
525.13	1284.08
525.33	1329.13
525.53	1421.29
525.73	1376.24
525.93	1300.46
526.13	1345.52
526.32	1419.24
526.52	1419.24
526.72	1468.39
526.92	1458.15
527.12	1347.56
527.32	1322.99
527.52	1374.19
527.71	1378.28
527.91	1341.42
528.11	1300.46
528.31	1380.33
528.51	1316.84
528.71	1394.67
528.90	1308.65
529.10	1400.81
529.30	1492.97
529.50	1292.27
529.70	1343.47
529.90	1396.71
530.09	1425.39
530.29	1337.32
530.49	1355.76
530.69	1431.53
530.89	1398.76
531.09	1372.14
531.28	1325.04
531.48	1452.01
531.68	1394.67
531.88	1380.33
532.08	1390.57
532.28	1357.80
532.47	1417.19
532.67	1429.48
532.87	1359.85
533.07	1400.81
533.27	1413.10
533.46	1415.15
533.66	1429.48
533.86	1376.24
534.06	1413.10
534.26	1427.43
534.45	1378.28
534.65	1378.28
534.85	1417.19
535.05	1386.47
535.25	1482.73
535.44	1226.73
535.64	1411.05
535.84	1386.47
536.04	1370.09
536.24	1296.36
536.43	1406.95
536.63	1402.86
536.83	1390.57
537.03	1406.95
537.22	1380.33
537.42	1322.99
537.62	1366.00
537.82	1345.52
538.02	1452.01
538.21	1386.47
538.41	1452.01
538.61	1290.22
538.81	1243.12
539.00	1419.24
539.20	1271.79
539.40	1402.86
539.60	1349.61
539.79	1427.43
539.99	1366.00
540.19	1335.28
540.39	1394.67
540.58	1423.34
540.78	1347.56
540.98	1406.95
541.18	1359.85
541.37	1343.47
541.57	1331.18
541.77	1353.71
541.97	1314.80
542.16	1322.99
542.36	1372.14
542.56	1320.94
542.76	1449.96
542.95	1398.76
543.15	1374.19
543.35	1415.15
543.54	1327.08
543.74	1370.09
543.94	1421.29
544.14	1386.47
544.33	1370.09
544.53	1394.67
544.73	1396.71
544.93	1363.95
545.12	1341.42
545.32	1376.24
545.52	1267.69
545.71	1298.41
545.91	1341.42
546.11	1325.04
546.30	1406.95
546.50	1331.18
546.70	1386.47
546.90	1437.67
547.09	1349.61
547.29	1306.60
547.49	1320.94
547.68	1454.06
547.88	1351.66
548.08	1339.37
548.27	1728.49
548.47	1370.09
548.67	1339.37
548.87	1380.33
549.06	1372.14
549.26	1363.95
549.46	1413.10
549.65	1376.24
549.85	1384.43
550.05	1439.72
550.24	1298.41
550.44	1310.70
550.64	1351.66
550.83	1396.71
551.03	1433.58
551.23	1341.42
551.42	1415.15
551.62	1347.56
551.82	1382.38
552.01	1421.29
552.21	1423.34
552.41	1374.19
552.60	1351.66
552.80	1363.95
553.00	1390.57
553.19	1409.00
553.39	1402.86
553.59	1378.28
553.78	1460.20
553.98	1447.91
554.17	1318.89
554.37	1441.77
554.57	1425.39
554.76	1409.00
554.96	1355.76
555.16	1421.29
555.35	1417.19
555.55	1404.91
555.75	1423.34
555.94	1452.01
556.14	1306.60
556.33	1380.33
556.53	1320.94
556.73	1359.85
556.92	1402.86
557.12	1417.19
557.32	1527.78
557.51	1427.43
557.71	1413.10
557.90	1384.43
558.10	1378.28
558.30	1376.24
558.49	1333.23
558.69	1439.72
558.88	1345.52
559.08	1445.87
559.28	1331.18
559.47	1384.43
559.67	1415.15
559.86	1507.30
560.06	1380.33
560.26	1380.33
560.45	1355.76
560.65	1417.19
560.84	1402.86
561.04	1361.90
561.24	1417.19
561.43	1402.86
561.63	1505.26
561.82	1427.43
562.02	1476.59
562.22	1404.91
562.41	1355.76
562.61	1308.65
562.80	1415.15
563.00	1433.58
563.19	1388.52
563.39	1376.24
563.59	1339.37
563.78	1421.29
563.98	1318.89
564.17	1359.85
564.37	1261.55
564.56	1331.18
564.76	1339.37
564.96	1382.38
565.15	1411.05
565.35	1439.72
565.54	1400.81
565.74	1380.33
565.93	1357.80
566.13	1421.29
566.32	1398.76
566.52	1435.63
566.71	1392.62
566.91	1357.80
567.11	1398.76
567.30	1357.80
567.50	1349.61
567.69	1396.71
567.89	1357.80
568.08	1396.71
568.28	1388.52
568.47	1341.42
568.67	1419.24
568.86	1402.86
569.06	1464.30
569.25	1345.52
569.45	1368.04
569.64	1308.65
569.84	1396.71
570.04	1404.91
570.23	1376.24
570.43	1370.09
570.62	1406.95
570.82	1513.45
571.01	1331.18
571.21	1306.60
571.40	1286.12
571.60	1429.48
571.79	1331.18
571.99	1435.63
572.18	1308.65
572.38	1470.44
572.57	1347.56
572.77	1404.91
572.96	1456.11
573.16	1335.28
573.35	1386.47
573.55	1480.68
573.74	1376.24
573.94	1359.85
574.13	1415.15
574.33	1384.43
574.52	1359.85
574.71	1380.33
574.91	1388.52
575.10	1318.89
575.30	1359.85
575.49	1384.43
575.69	1464.30
575.88	1427.43
576.08	1435.63
576.27	1476.59
576.47	1429.48
576.66	1523.69
576.86	1421.29
577.05	1544.17
577.25	1447.91
577.44	1535.98
577.64	1341.42
577.83	1394.67
578.02	1400.81
578.22	1458.15
578.41	1398.76
578.61	1359.85
578.80	1327.08
579.00	1378.28
579.19	1390.57
579.39	1333.23
579.58	1396.71
579.77	1423.34
579.97	1503.21
580.16	1490.92
580.36	1466.35
580.55	1558.50
580.75	1433.58
580.94	1411.05
581.13	1488.87
581.33	1533.93
581.52	1386.47
581.72	1478.63
581.91	1474.54
582.11	1435.63
582.30	1452.01
582.49	1484.78
582.69	1540.07
582.88	1488.87
583.08	1411.05
583.27	1482.73
583.47	1400.81
583.66	1376.24
583.85	1382.38
584.05	1449.96
584.24	1429.48
584.44	1501.16
584.63	1519.59
584.82	1497.07
585.02	1523.69
585.21	1591.27
585.41	1671.14
585.60	1601.51
585.79	1654.76
585.99	1621.99
586.18	1605.61
586.37	1832.93
586.57	2658.26
586.76	7929.74
586.96	23914.13
587.15	41145.74
587.34	51588.33
587.54	58950.78
587.73	58733.70
587.93	44719.45
588.12	32622.09
588.31	26717.80
588.51	22273.71
588.70	19951.31
588.89	18249.45
589.09	17063.68
589.28	15802.13
589.47	14206.76
589.67	12595.01
589.86	10348.39
590.06	8611.71
590.25	6639.51
590.44	5058.48
590.64	3850.18
590.83	2824.15
591.02	2281.44
591.22	1986.53
591.41	1675.24
591.60	1611.75
591.80	1581.03
591.99	1480.68
592.18	1409.00
592.38	1466.35
592.57	1437.67
592.76	1611.75
592.96	1445.87
593.15	1423.34
593.34	1398.76
593.54	1404.91
593.73	1490.92
593.92	1486.83
594.12	1458.15
594.31	1468.39
594.50	1552.36
594.70	1474.54
594.89	1535.98
595.08	1441.77
595.28	1413.10
595.47	1552.36
595.66	1402.86
595.86	1404.91
596.05	1394.67
596.24	1361.90
596.43	1478.63
596.63	1396.71
596.82	1351.66
597.01	1435.63
597.21	1531.88
597.40	1490.92
597.59	1443.82
597.79	1447.91
597.98	1468.39
598.17	1413.10
598.36	1384.43
598.56	1394.67
598.75	1388.52
598.94	1417.19
599.14	1470.44
599.33	1433.58
599.52	1374.19
599.71	1378.28
599.91	1449.96
600.10	1394.67
600.29	1355.76
600.48	1384.43
600.68	1423.34
600.87	1402.86
601.06	1413.10
601.26	1322.99
601.45	1388.52
601.64	1368.04
601.83	1454.06
602.03	1404.91
602.22	1376.24
602.41	1392.62
602.60	1492.97
602.80	1433.58
602.99	1396.71
603.18	1394.67
603.37	1460.20
603.57	1359.85
603.76	1380.33
603.95	1427.43
604.14	1363.95
604.34	1417.19
604.53	1325.04
604.72	1452.01
604.91	1394.67
605.10	1359.85
605.30	1368.04
605.49	1525.74
605.68	1355.76
605.87	1331.18
606.07	1380.33
606.26	1378.28
606.45	1355.76
606.64	1308.65
606.84	1458.15
607.03	1386.47
607.22	1462.25
607.41	1421.29
607.60	1390.57
607.80	1421.29
607.99	1384.43
608.18	1363.95
608.37	1406.95
608.56	1409.00
608.76	1392.62
608.95	1482.73
609.14	1531.88
609.33	1478.63
609.52	1460.20
609.72	1505.26
609.91	1519.59
610.10	1435.63
610.29	1484.78
610.48	1480.68
610.68	1359.85
610.87	1361.90
611.06	1478.63
611.25	1361.90
611.44	1398.76
611.63	1345.52
611.83	1466.35
612.02	1355.76
612.21	1464.30
612.40	1372.14
612.59	1372.14
612.79	1449.96
612.98	1394.67
613.17	1411.05
613.36	1341.42
613.55	1552.36
613.74	1429.48
613.93	1546.22
614.13	1593.32
614.32	1669.09
614.51	1656.81
614.70	1492.97
614.89	1546.22
615.08	1439.72
615.28	1658.85
615.47	1406.95
615.66	1447.91
615.85	1464.30
616.04	1636.33
616.23	1499.11
616.42	1429.48
616.62	1495.02
616.81	1501.16
617.00	1363.95
617.19	1439.72
617.38	1411.05
617.57	1378.28
617.76	1419.24
617.95	1380.33
618.15	1452.01
618.34	1427.43
618.53	1394.67
618.72	1425.39
618.91	1482.73
619.10	1400.81
619.29	1376.24
619.48	1406.95
619.68	1468.39
619.87	1355.76
620.06	1357.80
620.25	1376.24
620.44	1355.76
620.63	1427.43
620.82	1398.76
621.01	1421.29
621.20	1445.87
621.39	1392.62
621.59	1427.43
621.78	1390.57
621.97	1372.14
622.16	1361.90
622.35	1439.72
622.54	1433.58
622.73	1439.72
622.92	1343.47
623.11	1411.05
623.30	1404.91
623.49	1480.68
623.68	1368.04
623.88	1363.95
624.07	1325.04
624.26	1374.19
624.45	1361.90
624.64	1406.95
624.83	1396.71
625.02	1335.28
625.21	1376.24
625.40	1378.28
625.59	1382.38
625.78	1368.04
625.97	1411.05
626.16	1388.52
626.35	1427.43
626.54	1507.30
626.74	1492.97
626.93	1437.67
627.12	1402.86
627.31	1361.90
627.50	1462.25
627.69	1396.71
627.88	1349.61
628.07	1398.76
628.26	1411.05
628.45	1449.96
628.64	1384.43
628.83	1374.19
629.02	1351.66
629.21	1392.62
629.40	1409.00
629.59	1318.89
629.78	1386.47
629.97	1400.81
630.16	1411.05
630.35	1476.59
630.54	1425.39
630.73	1443.82
630.92	1431.53
631.11	1331.18
631.30	1404.91
631.49	1445.87
631.68	1396.71
631.87	1398.76
632.06	1413.10
632.25	1548.26
632.44	1351.66
632.63	1322.99
632.82	1394.67
633.01	1406.95
633.20	1429.48
633.39	1413.10
633.58	1501.16
633.77	1441.77
633.96	1505.26
634.15	1439.72
634.34	1468.39
634.53	1449.96
634.72	1439.72
634.91	1292.27
635.10	1429.48
635.29	1507.30
635.48	1470.44
635.67	1488.87
635.86	1298.41
636.05	1390.57
636.24	1388.52
636.43	1327.08
636.62	1488.87
636.81	1302.51
637.00	1429.48
637.19	1409.00
637.38	1333.23
637.57	1380.33
637.76	1458.15
637.95	1452.01
638.14	1452.01
638.33	1519.59
638.52	1478.63
638.71	1388.52
638.89	1335.28
639.08	1603.56
639.27	1402.86
639.46	1456.11
639.65	1693.67
639.84	1890.28
640.03	1927.14
640.22	2154.46
640.41	2183.13
640.60	1900.52
640.79	1834.98
640.98	1712.10
641.17	1544.17
641.36	1535.98
641.55	1507.30
641.74	1488.87
641.92	1521.64
642.11	1443.82
642.30	1538.02
642.49	1497.07
642.68	1433.58
642.87	1370.09
643.06	1351.66
643.25	1413.10
643.44	1394.67
643.63	1392.62
643.82	1386.47
644.00	1318.89
644.19	1396.71
644.38	1282.03
644.57	1329.13
644.76	1322.99
644.95	1361.90
645.14	1357.80
645.33	1419.24
645.52	1374.19
645.71	1312.75
645.89	1314.80
646.08	1349.61
646.27	1427.43
646.46	1466.35
646.65	1386.47
646.84	1392.62
647.03	1255.40
647.22	1386.47
647.40	1421.29
647.59	1325.04
647.78	1298.41
647.97	1361.90
648.16	1316.84
648.35	1460.20
648.54	1380.33
648.73	1343.47
648.91	1417.19
649.10	1433.58
649.29	1441.77
649.48	1366.00
649.67	1378.28
649.86	1411.05
650.05	1394.67
650.23	1529.83
650.42	1486.83
650.61	1564.65
650.80	1587.18
650.99	1581.03
651.18	1482.73
651.36	1458.15
651.55	1437.67
651.74	1533.93
651.93	1390.57
652.12	1419.24
652.31	1376.24
652.49	1376.24
652.68	1376.24
652.87	1486.83
653.06	1329.13
653.25	1476.59
653.44	1497.07
653.62	1454.06
653.81	1499.11
654.00	1472.49
654.19	1425.39
654.38	1386.47
654.56	1380.33
654.75	1300.46
654.94	1388.52
655.13	1320.94
655.32	1396.71
655.51	1396.71
655.69	1386.47
655.88	1445.87
656.07	1335.28
656.26	1384.43
656.45	1406.95
656.63	1380.33
656.82	1345.52
657.01	1402.86
657.20	1312.75
657.38	1343.47
657.57	1343.47
657.76	1341.42
657.95	1400.81
658.14	1409.00
658.32	1306.60
658.51	1392.62
658.70	1406.95
658.89	1411.05
659.08	1437.67
659.26	1503.21
659.45	1390.57
659.64	1400.81
659.83	1366.00
660.01	1558.50
660.20	1454.06
660.39	1488.87
660.58	1341.42
660.76	1427.43
660.95	1380.33
661.14	1435.63
661.33	1396.71
661.51	1376.24
661.70	1423.34
661.89	1376.24
662.08	1376.24
662.26	1320.94
662.45	1454.06
662.64	1443.82
662.83	1402.86
663.01	1368.04
663.20	1351.66
663.39	1452.01
663.58	1429.48
663.76	1443.82
663.95	1470.44
664.14	1419.24
664.32	1327.08
664.51	1327.08
664.70	1306.60
664.89	1359.85
665.07	1320.94
665.26	1370.09
665.45	1380.33
665.64	1464.30
665.82	1353.71
666.01	1363.95
666.20	1345.52
666.38	1466.35
666.57	1519.59
666.76	1626.09
666.95	2076.64
667.13	4456.38
667.32	11183.96
667.51	17798.90
667.69	21372.60
667.88	24665.74
668.07	24303.25
668.25	19171.04
668.44	13596.46
668.63	11044.70
668.81	9043.83
669.00	7960.45
669.19	7479.18
669.38	6735.77
669.56	6330.27
669.75	5390.25
669.94	4816.82
670.12	4249.54
670.31	3403.72
670.50	2910.16
670.68	2496.47
670.87	2263.01
671.06	1855.46
671.24	1689.57
671.43	1603.56
671.62	1581.03
671.80	1495.02
671.99	1495.02
672.18	1478.63
672.36	1495.02
672.55	1409.00
672.74	1484.78
672.92	1431.53
673.11	1345.52
673.29	1337.32
673.48	1415.15
673.67	1361.90
673.85	1359.85
674.04	1341.42
674.23	1443.82
674.41	1445.87
674.60	1398.76
674.79	1261.55
674.97	1322.99
675.16	1382.38
675.34	1433.58
675.53	1261.55
675.72	1376.24
675.90	1454.06
676.09	1357.80
676.28	1366.00
676.46	1380.33
676.65	1429.48
676.83	1345.52
677.02	1384.43
677.21	1409.00
677.39	1355.76
677.58	1402.86
677.77	1409.00
677.95	1341.42
678.14	1402.86
678.32	1308.65
678.51	1343.47
678.70	1404.91
678.88	1341.42
679.07	1353.71
679.25	1435.63
679.44	1376.24
679.63	1314.80
679.81	1273.84
680.00	1417.19
680.18	1353.71
680.37	1413.10
680.55	1339.37
680.74	1316.84
680.93	1345.52
681.11	1433.58
681.30	1376.24
681.48	1368.04
681.67	1390.57
681.85	1454.06
682.04	1333.23
682.23	1386.47
682.41	1378.28
682.60	1497.07
682.78	1351.66
682.97	1368.04
683.15	1421.29
683.34	1411.05
683.53	1462.25
683.71	1339.37
683.90	1470.44
684.08	1384.43
684.27	1288.17
684.45	1374.19
684.64	1435.63
684.82	1337.32
685.01	1368.04
685.19	1345.52
685.38	1411.05
685.57	1351.66
685.75	1368.04
685.94	1368.04
686.12	1370.09
686.31	1279.98
686.49	1415.15
686.68	1378.28
686.86	1343.47
687.05	1386.47
687.23	1476.59
687.42	1284.08
687.60	1310.70
687.79	1378.28
687.97	1406.95
688.16	1400.81
688.34	1394.67
688.53	1310.70
688.71	1335.28
688.90	1372.14
689.08	1378.28
689.27	1351.66
689.45	1425.39
689.64	1247.21
689.82	1298.41
690.01	1341.42
690.19	1417.19
690.38	1306.60
690.56	1400.81
690.75	1370.09
690.93	1320.94
691.12	1359.85
691.30	1417.19
691.49	1320.94
691.67	1370.09
691.86	1370.09
692.04	1382.38
692.23	1335.28
692.41	1411.05
692.60	1411.05
692.78	1478.63
692.97	1527.78
693.15	1533.93
693.34	1540.07
693.52	1423.34
693.71	1435.63
693.89	1386.47
694.08	1349.61
694.26	1443.82
694.44	1427.43
694.63	1398.76
694.81	1411.05
695.00	1404.91
695.18	1413.10
695.37	1492.97
695.55	1318.89
695.74	1402.86
695.92	1333.23
696.10	1413.10
696.29	1349.61
696.47	1335.28
696.66	1355.76
696.84	1341.42
697.03	1441.77
697.21	1492.97
697.40	1726.44
697.58	1372.14
697.76	1419.24
697.95	1363.95
698.13	1341.42
698.32	1380.33
698.50	1409.00
698.68	1402.86
698.87	1413.10
699.05	1392.62
699.24	1370.09
699.42	1327.08
699.61	1351.66
699.79	1421.29
699.97	1443.82
700.16	1396.71
700.34	1273.84
700.53	1329.13
700.71	1392.62
700.89	1380.33
701.08	1349.61
701.26	1333.23
701.45	1667.05
701.63	1288.17
701.81	1353.71
702.00	1415.15
702.18	1452.01
702.37	1419.24
702.55	1423.34
702.73	1466.35
702.92	1503.21
703.10	1607.66
703.28	1644.52
703.47	1656.81
703.65	1572.84
703.84	1535.98
704.02	1486.83
704.20	1591.27
704.39	1417.19
704.57	1460.20
704.75	1503.21
704.94	1476.59
705.12	1464.30
705.30	1376.24
705.49	1554.41
705.67	1861.60
705.86	3502.03
706.04	9095.03
706.22	16185.10
706.41	19402.46
706.59	22363.82
706.77	23522.97
706.96	19705.56
707.14	13707.05
707.32	11323.22
707.51	9064.31
707.69	8097.67
707.87	7389.07
708.06	6762.39
708.24	6047.65
708.42	4978.61
708.61	3993.54
708.79	3039.19
708.97	2426.84
709.16	2021.35
709.34	1675.24
709.52	1656.81
709.71	1595.37
709.89	1535.98
710.07	1404.91
710.26	1413.10
710.44	1462.25
710.62	1454.06
710.80	1353.71
710.99	1443.82
711.17	1486.83
711.35	1347.56
711.54	1413.10
711.72	1454.06
711.90	1435.63
712.09	1357.80
712.27	1458.15
712.45	1392.62
712.63	1406.95
712.82	1396.71
713.00	1357.80
713.18	1406.95
713.37	1386.47
713.55	1433.58
713.73	1390.57
713.91	1376.24
714.10	1388.52
714.28	1406.95
714.46	1392.62
714.65	1470.44
714.83	1425.39
715.01	1341.42
715.19	1345.52
715.38	1462.25
715.56	1394.67
715.74	1368.04
715.92	1433.58
716.11	1443.82
716.29	1363.95
716.47	1359.85
716.65	1400.81
716.84	1279.98
717.02	1427.43
717.20	1337.32
717.38	1390.57
717.57	1402.86
717.75	1343.47
717.93	1357.80
718.11	1337.32
718.30	1347.56
718.48	1404.91
718.66	1386.47
718.84	1421.29
719.03	1452.01
719.21	1363.95
719.39	1404.91
719.57	1353.71
719.75	1353.71
719.94	1370.09
720.12	1388.52
720.30	1413.10
720.48	1366.00
720.67	1335.28
720.85	1316.84
721.03	1345.52
721.21	1386.47
721.39	1421.29
721.58	1363.95
721.76	1333.23
721.94	1427.43
722.12	1322.99
722.30	1392.62
722.49	1398.76
722.67	1437.67
722.85	1443.82
723.03	1347.56
723.21	1355.76
723.40	1394.67
723.58	1386.47
723.76	1409.00
723.94	1468.39
724.12	1466.35
724.30	1470.44
724.49	1413.10
724.67	1495.02
724.85	1535.98
725.03	1355.76
725.21	1437.67
725.40	1398.76
725.58	1388.52
725.76	1417.19
725.94	1349.61
726.12	1339.37
726.30	1384.43
726.49	1396.71
726.67	1353.71
726.85	1468.39
727.03	1435.63
727.21	1433.58
727.39	1535.98
727.57	2070.50
727.76	3364.81
727.94	4390.84
728.12	4827.06
728.30	5185.46
728.48	5150.64
728.66	4286.40
728.84	3450.83
729.03	3074.00
729.21	2754.52
729.39	2584.54
729.57	2193.37
729.75	1964.00
729.93	1785.83
730.11	1642.47
730.30	1480.68
730.48	1382.38
730.66	1413.10
730.84	1452.01
731.02	1376.24
731.20	1429.48
731.38	1417.19
731.56	1353.71
731.74	1353.71
731.93	1345.52
732.11	1413.10
732.29	1406.95
732.47	1366.00
732.65	1456.11
732.83	1345.52
733.01	1370.09
733.19	1380.33
733.37	1382.38
733.56	1327.08
733.74	1411.05
733.92	1429.48
734.10	1292.27
734.28	1423.34
734.46	1306.60
734.64	1306.60
734.82	1345.52
735.00	1380.33
735.18	1310.70
735.36	1333.23
735.54	1343.47
735.73	1333.23
735.91	1363.95
736.09	1413.10
736.27	1370.09
736.45	1433.58
736.63	1314.80
736.81	1406.95
736.99	1359.85
737.17	1449.96
737.35	1361.90
737.53	1329.13
737.71	1421.29
737.89	1359.85
738.07	1325.04
738.25	1329.13
738.43	1347.56
738.61	1335.28
738.80	1345.52
738.98	1345.52
739.16	1347.56
739.34	1349.61
739.52	1413.10
739.70	1349.61
739.88	1378.28
740.06	1388.52
740.24	1245.16
740.42	1394.67
740.60	1312.75
740.78	1394.67
740.96	1349.61
741.14	1322.99
741.32	1351.66
741.50	1306.60
741.68	1437.67
741.86	1409.00
742.04	1294.32
742.22	1304.56
742.40	1345.52
742.58	1384.43
742.76	1322.99
742.94	1333.23
743.12	1335.28
743.30	1390.57
743.48	1384.43
743.66	1351.66
743.84	1384.43
744.02	1396.71
744.20	1443.82
744.38	1359.85
744.56	1357.80
744.74	1452.01
744.92	1339.37
745.10	1339.37
745.28	1445.87
745.46	1445.87
745.64	1372.14
745.82	1386.47
746.00	1335.28
746.18	1427.43
746.36	1349.61
746.54	1396.71
746.72	1394.67
746.90	1310.70
747.08	1392.62
747.26	1288.17
747.44	1413.10
747.62	1433.58
747.80	1411.05
747.98	1452.01
748.15	1421.29
748.33	1409.00
748.51	1372.14
748.69	1447.91
748.87	1388.52
749.05	1404.91
749.23	1419.24
749.41	1398.76
749.59	1378.28
749.77	1456.11
749.95	1351.66
750.13	1417.19
750.31	1443.82
750.49	1322.99
750.67	1368.04
750.85	1396.71
751.03	1355.76
751.20	1419.24
751.38	1378.28
751.56	1398.76
751.74	1400.81
751.92	1306.60
752.10	1339.37
752.28	1429.48
752.46	1318.89
752.64	1390.57
752.82	1384.43
753.00	1312.75
753.18	1404.91
753.35	1427.43
753.53	1445.87
753.71	1355.76
753.89	1337.32
754.07	1253.36
754.25	1386.47
754.43	1402.86
754.61	1380.33
754.79	1415.15
754.97	1423.34
755.14	1421.29
755.32	1339.37
755.50	1429.48
755.68	1394.67
755.86	1314.80
756.04	1394.67
756.22	1251.31
756.40	1355.76
756.57	1423.34
756.75	1349.61
756.93	1449.96
757.11	1396.71
757.29	1351.66
757.47	1335.28
757.65	1251.31
757.82	1318.89
758.00	1339.37
758.18	1368.04
758.36	1351.66
758.54	1380.33
758.72	1329.13
758.90	1425.39
759.07	1335.28
759.25	1312.75
759.43	1374.19
759.61	1304.56
759.79	1603.56
759.97	1419.24
760.15	1388.52
760.32	1425.39
760.50	1388.52
760.68	1359.85
760.86	1269.74
761.04	1337.32
761.22	1423.34
761.39	1386.47
761.57	1355.76
761.75	1404.91
761.93	1411.05
762.11	1302.51
762.28	1331.18
762.46	1345.52
762.64	1421.29
762.82	1320.94
763.00	1384.43
763.18	1331.18
763.35	1357.80
763.53	1380.33
763.71	1355.76
763.89	1345.52
764.07	1406.95
764.24	1351.66
764.42	1400.81
764.60	1359.85
764.78	1402.86
764.96	1398.76
765.13	1345.52
765.31	1349.61
765.49	1337.32
765.67	1304.56
765.84	1292.27
766.02	1353.71
766.20	1415.15
766.38	1417.19
766.56	1404.91
766.73	1351.66
766.91	1341.42
767.09	1335.28
767.27	1333.23
767.44	1386.47
767.62	1335.28
767.80	1288.17
767.98	1335.28
768.15	1370.09
768.33	1411.05
768.51	1411.05
768.69	1380.33
768.87	1384.43
769.04	1314.80
769.22	1445.87
769.40	1474.54
769.58	1482.73
769.75	1380.33
769.93	1425.39
770.11	1349.61
770.28	1320.94
770.46	1413.10
770.64	1353.71
770.82	1294.32
770.99	1409.00
771.17	1284.08
771.35	1359.85
771.53	1341.42
771.70	1322.99
771.88	1419.24
772.06	1386.47
772.23	1372.14
772.41	1341.42
772.59	1388.52
772.77	1320.94
772.94	1355.76
773.12	1341.42
773.30	1327.08
773.47	1343.47
773.65	1333.23
773.83	1351.66
774.01	1333.23
774.18	1396.71
774.36	1347.56
774.54	1275.88
774.71	1363.95
774.89	1333.23
775.07	1329.13
775.24	1353.71
775.42	1331.18
775.60	1394.67
775.78	1384.43
775.95	1249.26
776.13	1298.41
776.31	1269.74
776.48	1337.32
776.66	1400.81
776.84	1411.05
777.01	1318.89
777.19	1296.36
777.37	1282.03
777.54	1363.95
777.72	1447.91
777.90	1378.28
778.07	1288.17
778.25	1484.78
778.43	1382.38
778.60	1343.47
778.78	1464.30
778.96	1345.52
779.13	1351.66
779.31	1382.38
779.49	1339.37
779.66	1343.47
779.84	1349.61
780.01	1339.37
780.19	1312.75
780.37	1370.09
780.54	1380.33
780.72	1322.99
780.90	1363.95
781.07	1361.90
781.25	1267.69
781.43	1413.10
781.60	1322.99
781.78	1404.91
781.95	1337.32
782.13	1316.84
782.31	1396.71
782.48	1257.45
782.66	1376.24
782.83	1374.19
783.01	1439.72
783.19	1349.61
783.36	1314.80
783.54	1363.95
783.72	1370.09
783.89	1368.04
784.07	1370.09
784.24	1331.18
784.42	1449.96
784.60	1380.33
784.77	1411.05
784.95	1370.09
785.12	1361.90
785.30	1351.66
785.47	1298.41
785.65	1404.91
785.83	1372.14
786.00	1384.43
786.18	1388.52
786.35	1331.18
786.53	1392.62
786.71	1368.04
786.88	1433.58
787.06	1417.19
787.23	1331.18
787.41	1353.71
787.58	1394.67
787.76	1349.61
787.94	1357.80
788.11	1355.76
788.29	1335.28
788.46	1386.47
788.64	1353.71
788.81	1325.04
788.99	1343.47
789.16	1296.36
789.34	1396.71
789.52	1267.69
789.69	1372.14
789.87	1306.60
790.04	1437.67
790.22	1347.56
790.39	1378.28
790.57	1284.08
790.74	1353.71
790.92	1392.62
791.09	1325.04
791.27	1396.71
791.44	1310.70
791.62	1343.47
791.79	1425.39
791.97	1339.37
792.15	1492.97
792.32	1366.00
792.50	1372.14
792.67	1429.48
792.85	1443.82
793.02	1361.90
793.20	1329.13
793.37	1329.13
793.55	1325.04
793.72	1359.85
793.90	1402.86
794.07	1339.37
794.25	1409.00
794.42	1335.28
794.60	1351.66
794.77	1388.52
794.95	1421.29
795.12	1411.05
795.30	1349.61
795.47	1267.69
795.65	1441.77
795.82	1433.58
796.00	1310.70
796.17	1355.76
796.34	1396.71
796.52	1353.71
796.69	1423.34
796.87	1445.87
797.04	1437.67
797.22	1325.04
797.39	1329.13
797.57	1363.95
797.74	1386.47
797.92	1392.62
798.09	1339.37
798.27	1314.80
798.44	1322.99
798.62	1298.41
798.79	1380.33
798.96	1341.42
799.14	1335.28
799.31	1374.19
799.49	1347.56
799.66	1322.99
799.84	1394.67
800.01	1335.28
800.19	1370.09
800.36	1343.47
800.53	1372.14
800.71	1318.89
800.88	1415.15
801.06	1245.16
801.23	1347.56
801.41	1347.56
801.58	1388.52
801.75	1351.66
801.93	1353.71
802.10	1322.99
802.28	1347.56
802.45	1351.66
802.63	1355.76
802.80	1390.57
802.97	1378.28
803.15	1353.71
803.32	1322.99
803.50	1345.52
803.67	1318.89
803.84	1402.86
804.02	1353.71
804.19	1296.36
804.37	1331.18
804.54	1298.41
804.71	1322.99
804.89	1339.37
805.06	1292.27
805.24	1302.51
805.41	1331.18
805.58	1353.71
805.76	1484.78
805.93	1425.39
806.10	1388.52
806.28	1449.96
806.45	1312.75
806.63	1394.67
806.80	1394.67
806.97	1243.12
807.15	1386.47
807.32	1339.37
807.49	1318.89
807.67	1304.56
807.84	1384.43
808.01	1302.51
808.19	1423.34
808.36	1398.76
808.54	1294.32
808.71	1339.37
808.88	1400.81
809.06	1366.00
809.23	1394.67
809.40	1359.85
809.58	1378.28
809.75	1347.56
809.92	1329.13
810.10	1449.96
810.27	1404.91
810.44	1357.80
810.62	1456.11
810.79	1376.24
810.96	1380.33
811.14	1347.56
811.31	1359.85
811.48	1398.76
811.66	1400.81
811.83	1318.89
812.00	1445.87
812.18	1458.15
812.35	1474.54
812.52	1347.56
812.69	1322.99
812.87	1302.51
813.04	1245.16
813.21	1406.95
813.39	1347.56
813.56	1327.08
813.73	1345.52
813.91	1404.91
814.08	1320.94
814.25	1316.84
814.42	1376.24
814.60	1286.12
814.77	1380.33
814.94	1392.62
815.12	1368.04
815.29	1421.29
815.46	1325.04
815.63	1378.28
815.81	1331.18
815.98	1265.64
816.15	1339.37
816.33	1292.27
816.50	1374.19
816.67	1316.84
816.84	1282.03
817.02	1327.08
817.19	1394.67
817.36	1302.51
817.53	1284.08
817.71	1320.94
817.88	1353.71
818.05	1327.08
818.22	1298.41
818.40	1402.86
818.57	1353.71
818.74	1415.15
818.91	1363.95
819.09	1372.14
819.26	1398.76
819.43	1294.32
819.60	1322.99
819.78	1413.10
819.95	1372.14
820.12	1372.14
820.29	1384.43
820.47	1411.05
820.64	1329.13
820.81	1300.46
820.98	1302.51
821.15	1380.33
821.33	1411.05
821.50	1265.64
821.67	1390.57
821.84	1327.08
822.02	1378.28
822.19	1370.09
822.36	1355.76
822.53	1314.80
822.70	1372.14
822.88	1392.62
823.05	1431.53
823.22	1347.56
823.39	1380.33
823.56	1378.28
823.74	1413.10
823.91	1343.47
824.08	1333.23
824.25	1382.38
824.42	1478.63
824.60	1372.14
824.77	1425.39
824.94	1386.47
825.11	1386.47
825.28	1306.60
825.45	1380.33
825.63	1380.33
825.80	1359.85
825.97	1363.95
826.14	1372.14
826.31	1265.64
826.48	1409.00
826.66	1329.13
826.83	1378.28
827.00	1368.04
827.17	1314.80
827.34	1310.70
827.51	1355.76
827.69	1370.09
827.86	1271.79
828.03	1300.46
828.20	1417.19
828.37	1232.88
828.54	1329.13
828.71	1359.85
828.89	1456.11
829.06	1316.84
829.23	1394.67
829.40	1304.56
829.57	1306.60
829.74	1386.47
829.91	1400.81
830.09	1347.56
830.26	1394.67
830.43	1409.00
830.60	1294.32
830.77	1378.28
830.94	1413.10
831.11	1368.04
831.28	1271.79
831.46	1341.42
831.63	1372.14
831.80	1341.42
831.97	1335.28
832.14	1374.19
832.31	1345.52
832.48	1382.38
832.65	1406.95
832.82	1335.28
832.99	1357.80
833.17	1357.80
833.34	1402.86
833.51	1449.96
833.68	1335.28
833.85	1456.11
834.02	1298.41
834.19	1355.76
834.36	1413.10
834.53	1392.62
834.70	1421.29
834.87	1372.14
835.04	1400.81
835.22	1431.53
835.39	1320.94
835.56	1314.80
835.73	1335.28
835.90	1429.48
836.07	1376.24
836.24	1343.47
836.41	1312.75
836.58	1423.34
836.75	1417.19
836.92	1382.38
837.09	1333.23
837.26	1429.48
837.43	1388.52
837.60	1388.52
837.77	1390.57
837.94	1366.00
838.12	1413.10
838.29	1417.19
838.46	1359.85
838.63	1296.36
838.80	1413.10
838.97	1325.04
839.14	1390.57
839.31	1320.94
839.48	1425.39
839.65	1380.33
839.82	1419.24
839.99	1339.37
840.16	1439.72
840.33	1452.01
840.50	1421.29
840.67	1335.28
840.84	1290.22
841.01	1394.67
841.18	1343.47
841.35	1423.34
841.52	1372.14
841.69	1386.47
841.86	1394.67
842.03	1427.43
842.20	1427.43
842.37	1406.95
842.54	1343.47
842.71	1314.80
842.88	1325.04
843.05	1402.86
843.22	1335.28
843.39	1320.94
843.56	1357.80
843.73	1392.62
843.90	1421.29
844.07	1337.32
844.24	1409.00
844.41	1386.47
844.58	1423.34
844.75	1275.88
844.92	1320.94
845.09	1388.52
845.26	1347.56
845.43	1361.90
845.60	1388.52
845.77	1335.28
845.94	1441.77
846.10	1355.76
846.27	1357.80
846.44	1329.13
846.61	1331.18
846.78	1398.76
846.95	1359.85
847.12	1415.15
847.29	1349.61
847.46	1343.47
847.63	1433.58
847.80	1271.79
847.97	1384.43
848.14	1404.91
848.31	1306.60
848.48	1335.28
848.65	1376.24
848.82	1398.76
848.98	1400.81
849.15	1322.99
849.32	1392.62
849.49	1366.00
849.66	1302.51
849.83	1325.04
850.00	1331.18
850.17	1347.56
850.34	1384.43
850.51	1296.36
850.68	1417.19
850.85	1366.00
851.01	1409.00
851.18	1421.29
851.35	1380.33
851.52	1355.76
851.69	1511.40
851.86	1349.61
852.03	1380.33
852.20	1398.76
852.37	1357.80
852.53	1329.13
852.70	1351.66
852.87	1353.71
853.04	1357.80
853.21	1421.29
853.38	1331.18
853.55	1454.06
853.72	1380.33
853.89	1269.74
854.05	1331.18
854.22	1300.46
854.39	1368.04
854.56	1421.29
854.73	1327.08
854.90	1325.04
855.07	1429.48
855.23	1343.47
855.40	1325.04
855.57	1345.52
855.74	1359.85
855.91	1472.49
856.08	1361.90
856.25	1398.76
856.41	1419.24
856.58	1347.56
856.75	1357.80
856.92	1282.03
857.09	1421.29
857.26	1300.46
857.42	1413.10
857.59	1361.90
857.76	1353.71
857.93	1351.66
858.10	1351.66
858.27	1396.71
858.43	1314.80
858.60	1400.81
858.77	1325.04
858.94	1279.98
859.11	1454.06
859.27	1316.84
859.44	1366.00
859.61	1452.01
859.78	1322.99
859.95	1388.52
860.12	1322.99
860.28	1470.44
860.45	1454.06
860.62	1409.00
860.79	1337.32
860.95	1380.33
861.12	1368.04
861.29	1366.00
861.46	1312.75
861.63	1314.80
861.79	1359.85
861.96	1314.80
862.13	1409.00
862.30	1409.00
862.47	1308.65
862.63	1345.52
862.80	1417.19
862.97	1361.90
863.14	1427.43
863.30	1390.57
863.47	1310.70
863.64	1404.91
863.81	1384.43
863.97	1349.61
864.14	1316.84
864.31	1290.22
864.48	1427.43
864.65	1357.80
864.81	1409.00
864.98	1366.00
865.15	1398.76
865.32	1474.54
865.48	1372.14
865.65	1468.39
865.82	1304.56
865.98	1357.80
866.15	1443.82
866.32	1437.67
866.49	1417.19
866.65	1409.00
866.82	1386.47
866.99	1318.89
867.16	1337.32
867.32	1359.85
867.49	1357.80
867.66	1374.19
867.83	1374.19
867.99	1363.95
868.16	1327.08
868.33	1388.52
868.49	1374.19
868.66	1277.93
868.83	1339.37
868.99	1351.66
869.16	1345.52
869.33	1415.15
869.50	1337.32
869.66	1406.95
869.83	1386.47
870.00	1339.37
870.16	1331.18
870.33	1402.86
870.50	1288.17
870.66	1404.91
870.83	1452.01
871.00	1337.32
871.17	1366.00
871.33	1404.91
871.50	1290.22
871.67	1421.29
871.83	1394.67
872.00	1458.15
872.17	1302.51
872.33	1470.44
872.50	1329.13
872.67	1370.09
872.83	1337.32
873.00	1306.60
873.17	1353.71
873.33	1357.80
873.50	1372.14
873.67	1359.85
873.83	1419.24
874.00	1361.90
874.16	1366.00
874.33	1409.00
874.50	1318.89
874.66	1366.00
874.83	1386.47
875.00	1390.57
875.16	1374.19
875.33	1339.37
875.50	1279.98
875.66	1355.76
875.83	1374.19
875.99	1386.47
876.16	1351.66
876.33	1327.08
876.49	1386.47
876.66	1398.76
876.83	1322.99
876.99	1320.94
877.16	1298.41
877.32	1353.71
877.49	1341.42
877.66	1333.23
877.82	1478.63
877.99	1392.62
878.15	1390.57
878.32	1398.76
878.49	1445.87
878.65	1306.60
878.82	1497.07
878.98	1269.74
879.15	1441.77
879.32	1437.67
879.48	1378.28
879.65	1290.22
879.81	1484.78
879.98	1294.32
880.15	1382.38
880.31	1384.43
880.48	1378.28
880.64	1398.76
880.81	1370.09
880.97	1468.39
881.14	1462.25
881.31	1271.79
881.47	1400.81
881.64	1306.60
881.80	1255.40
881.97	1357.80
882.13	1355.76
882.30	1300.46
882.47	1390.57
882.63	1394.67
882.80	1296.36
882.96	1277.93
883.13	1470.44
883.29	1316.84
883.46	1423.34
883.62	1437.67
883.79	1466.35
883.95	1388.52
884.12	1374.19
884.29	1386.47
884.45	1421.29
884.62	1402.86
884.78	1279.98
884.95	1404.91
885.11	1402.86
885.28	1468.39
885.44	1425.39
885.61	1427.43
885.77	1396.71
885.94	1374.19
886.10	1380.33
886.27	1333.23
886.43	1415.15
886.60	1449.96
886.76	1363.95
886.93	1331.18
887.09	1417.19
887.26	1368.04
887.42	1353.71
887.59	1380.33
887.75	1464.30
887.92	1421.29
888.08	1388.52
888.25	1495.02
888.41	1394.67
888.58	1361.90
888.74	1394.67
888.91	1304.56
>>>>>End Processed Spectral Data<<<<<
