SpectraSuite Data File
++++++++++++++++++++++++++++++++++++
Date: Fri May 06 09:29:01 CEST 2016
User: root
Dark Spectrum Present: No
Reference Spectrum Present: No
Number of Sampled Component Spectra: 1
Spectrometers: USB4C02835
Integration Time (usec): 100000 (USB4C02835)
Spectra Averaged: 1 (USB4C02835)
Boxcar Smoothing: 0 (USB4C02835)
Correct for Electrical Dark: No (USB4C02835)
Strobe/Lamp Enabled: No (USB4C02835)
Correct for Detector Non-linearity: No (USB4C02835)
Correct for Stray Light: No (USB4C02835)
Number of Pixels in Processed Spectrum: 3648
>>>>>Begin Processed Spectral Data<<<<<
177.47	2306.01
177.69	2306.01
177.91	2306.01
178.13	2336.73
178.36	2363.36
178.58	3172.30
178.80	3221.45
179.02	3119.06
179.24	3223.50
179.46	2838.48
179.68	2934.74
179.90	3399.63
180.13	3555.27
180.35	2803.67
180.57	2938.84
180.79	3551.18
181.01	3377.10
181.23	3030.99
181.45	3188.69
181.67	3608.52
181.90	3622.86
182.12	2998.23
182.34	2856.92
182.56	3592.14
182.78	3641.29
183.00	2889.68
183.22	2879.44
183.44	3119.06
183.66	4036.55
183.89	3057.62
184.11	3014.61
184.33	3581.90
184.55	3688.39
184.77	2863.06
184.99	2899.92
185.21	3321.81
185.43	4044.74
185.65	2992.08
185.87	2965.46
186.10	3991.49
186.32	4007.87
186.54	3094.48
186.76	3016.66
186.98	3643.34
187.20	3434.44
187.42	2930.64
187.64	2910.16
187.86	3602.38
188.08	3725.26
188.30	2926.55
188.52	3004.37
188.75	3831.75
188.97	3696.58
189.19	2971.60
189.41	2940.88
189.63	3516.36
189.85	3358.67
190.07	2807.77
190.29	2770.90
190.51	3483.59
190.73	3082.19
190.95	3127.25
191.17	3010.51
191.39	3043.28
191.61	3401.68
191.84	2953.17
192.06	3227.60
192.28	3028.95
192.50	4179.90
192.72	3125.20
192.94	3090.38
193.16	3665.86
193.38	3555.27
193.60	2824.15
193.82	3176.40
194.04	3618.76
194.26	3477.45
194.48	3018.71
194.70	2971.60
194.92	3413.96
195.14	3608.52
195.36	2889.68
195.58	3067.86
195.80	3397.58
196.02	3274.70
196.24	2957.27
196.46	3004.37
196.69	3391.44
196.91	4014.02
197.13	2875.35
197.35	3049.43
197.57	3813.32
197.79	3639.24
198.01	3022.80
198.23	2944.98
198.45	3581.90
198.67	3264.46
198.89	2805.72
199.11	3049.43
199.33	3311.57
199.55	3045.33
199.77	2949.08
199.99	3067.86
200.21	3375.05
200.43	3631.05
200.65	2887.64
200.87	2867.16
201.09	3506.12
201.31	3389.39
201.53	3010.51
201.75	3076.05
201.97	3491.79
202.19	3506.12
202.41	3026.90
202.63	3008.47
202.85	3676.10
203.07	3481.55
203.29	3055.57
203.51	2852.82
203.73	3307.47
203.95	4093.89
204.17	2930.64
204.39	3094.48
204.61	3379.15
204.83	3327.95
205.05	3205.07
205.27	3035.09
205.49	3958.72
205.71	3370.96
205.93	2852.82
206.15	2895.83
206.37	3463.12
206.59	3506.12
206.81	2832.34
207.03	2840.53
207.25	3205.07
207.47	3653.58
207.69	2955.22
207.91	3172.30
208.13	3889.09
208.34	3323.85
208.56	2920.40
208.78	3022.80
209.00	3332.05
209.22	3330.00
209.44	2975.70
209.66	2904.02
209.88	3514.31
210.10	3389.39
210.32	2879.44
210.54	3033.04
210.76	3364.81
210.98	3665.86
211.20	2813.91
211.42	3084.24
211.64	3753.93
211.86	3614.66
212.08	3084.24
212.30	2971.60
212.52	3336.14
212.74	3575.75
212.96	3114.96
213.17	3074.00
213.39	3610.57
213.61	3784.65
213.83	2926.55
214.05	2850.77
214.27	3624.90
214.49	3274.70
214.71	2844.63
214.93	3117.01
215.15	3477.45
215.37	3547.08
215.59	2828.24
215.81	3067.86
216.03	3780.55
216.24	3381.20
216.46	2963.41
216.68	2977.75
216.90	3608.52
217.12	3762.12
217.34	2918.36
217.56	3114.96
217.78	3852.23
218.00	3551.18
218.22	3067.86
218.44	3090.38
218.66	3459.02
218.87	3833.80
219.09	3024.85
219.31	2934.74
219.53	3549.13
219.75	3356.62
219.97	2979.79
220.19	2963.41
220.41	3459.02
220.63	3889.09
220.85	3000.27
221.06	2992.08
221.28	3710.92
221.50	3618.76
221.72	2869.20
221.94	2807.77
222.16	3561.42
222.38	3674.06
222.60	2938.84
222.82	3024.85
223.03	3639.24
223.25	3237.84
223.47	2938.84
223.69	3180.50
223.91	3631.05
224.13	3459.02
224.35	2840.53
224.57	3172.30
224.78	3600.33
225.00	3243.98
225.22	2955.22
225.44	2893.78
225.66	3626.95
225.88	3389.39
226.10	3123.15
226.32	3018.71
226.53	3780.55
226.75	3362.76
226.97	3057.62
227.19	2977.75
227.41	3278.80
227.63	3340.24
227.85	2770.90
228.06	3002.32
228.28	3495.88
228.50	3631.05
228.72	2779.09
228.94	2893.78
229.16	3053.52
229.37	3198.93
229.59	2766.81
229.81	3254.22
230.03	3360.72
230.25	3254.22
230.47	2895.83
230.69	2965.46
230.90	3682.25
231.12	3233.74
231.34	3033.04
231.56	3008.47
231.78	3264.46
232.00	3471.31
232.21	3045.33
232.43	3041.23
232.65	2987.99
232.87	3545.03
233.09	2901.97
233.30	2852.82
233.52	3618.76
233.74	3430.35
233.96	2826.20
234.18	3104.72
234.40	3456.97
234.61	4036.55
234.83	2891.73
235.05	3045.33
235.27	3997.64
235.49	3803.08
235.70	2861.01
235.92	2983.89
236.14	3592.14
236.36	4036.55
236.58	2830.29
236.79	3053.52
237.01	3405.77
237.23	3430.35
237.45	3260.37
237.67	3024.85
237.88	3639.24
238.10	3815.37
238.32	2899.92
238.54	2914.26
238.76	3416.01
238.97	3274.70
239.19	2811.86
239.41	2953.17
239.63	3626.95
239.85	3338.19
240.06	2951.12
240.28	3061.71
240.50	3659.72
240.72	3442.64
240.93	2844.63
241.15	3053.52
241.37	3409.87
241.59	3704.78
241.81	3051.47
242.02	3082.19
242.24	3467.21
242.46	3577.80
242.68	2856.92
242.89	2836.44
243.11	3688.39
243.33	3426.25
243.55	2926.55
243.76	2949.08
243.98	3319.76
244.20	3450.83
244.42	2942.93
244.64	2891.73
244.85	3194.83
245.07	3237.84
245.29	2930.64
245.51	3039.19
245.72	3524.55
245.94	3688.39
246.16	2904.02
246.38	2967.51
246.59	3307.47
246.81	3305.42
247.03	2861.01
247.24	2807.77
247.46	3375.05
247.68	3532.75
247.90	2824.15
248.11	2967.51
248.33	3510.22
248.55	3434.44
248.77	3108.82
248.98	3139.54
249.20	3841.99
249.42	3477.45
249.64	2926.55
249.85	2848.72
250.07	3246.03
250.29	3606.47
250.50	3014.61
250.72	2871.25
250.94	3647.43
251.16	3932.10
251.37	2938.84
251.59	3063.76
251.81	3483.59
252.02	3727.30
252.24	2938.84
252.46	3078.10
252.68	3246.03
252.89	3356.62
253.11	2770.90
253.33	3188.69
253.54	3764.17
253.76	3207.12
253.98	2904.02
254.20	2951.12
254.41	3196.88
254.63	3381.20
254.85	2822.10
255.06	3221.45
255.28	3547.08
255.50	3409.87
255.71	2942.93
255.93	2791.38
256.15	3348.43
256.36	3475.40
256.58	2867.16
256.80	2901.97
257.02	3344.33
257.23	3389.39
257.45	3026.90
257.67	3151.82
257.88	3373.00
258.10	3581.90
258.32	2885.59
258.53	3078.10
258.75	3944.39
258.97	3344.33
259.18	2844.63
259.40	2992.08
259.62	3911.62
259.83	3829.70
260.05	2996.18
260.27	3950.53
260.48	3629.00
260.70	3205.07
260.92	2871.25
261.13	2983.89
261.35	3418.06
261.57	3532.75
261.78	2803.67
262.00	2838.48
262.22	3651.53
262.43	3270.61
262.65	2985.94
262.86	3069.91
263.08	4050.88
263.30	3387.34
263.51	2770.90
263.73	2928.60
263.95	3835.85
264.16	3243.98
264.38	2908.12
264.60	2975.70
264.81	3442.64
265.03	3751.88
265.25	3463.12
265.46	2942.93
265.68	3710.92
265.89	3614.66
266.11	2873.30
266.33	2949.08
266.54	3690.44
266.76	3473.36
266.98	2955.22
267.19	3164.11
267.41	3674.06
267.62	3487.69
267.84	2770.90
268.06	3018.71
268.27	3524.55
268.49	3717.06
268.70	2942.93
268.92	2985.94
269.14	3268.56
269.35	3184.59
269.57	3131.34
269.79	3018.71
270.00	3237.84
270.22	3852.23
270.43	2850.77
270.65	2889.68
270.87	3512.27
271.08	3631.05
271.30	3074.00
271.51	2938.84
271.73	3583.95
271.95	3809.22
272.16	2916.31
272.38	3092.43
272.59	3446.73
272.81	3536.84
273.02	2815.96
273.24	3051.47
273.46	3678.15
273.67	3223.50
273.89	2922.45
274.10	2865.11
274.32	3745.73
274.54	3565.51
274.75	3092.43
274.97	2994.13
275.18	3532.75
275.40	3526.60
275.61	2932.69
275.83	3174.35
276.05	3153.87
276.26	3440.59
276.48	3117.01
276.69	3117.01
276.91	3327.95
277.12	3866.56
277.34	3180.50
277.55	3223.50
277.77	3477.45
277.99	3375.05
278.20	3117.01
278.42	3012.56
278.63	3297.23
278.85	3278.80
279.06	3145.68
279.28	3162.06
279.49	3663.82
279.71	3663.82
279.93	3125.20
280.14	3147.73
280.36	3266.51
280.57	3602.38
280.79	3192.78
281.00	2967.51
281.22	3274.70
281.43	3659.72
281.65	2869.20
281.86	3016.66
282.08	3598.28
282.29	3846.09
282.51	3004.37
282.73	2969.55
282.94	3178.45
283.16	3661.77
283.37	3225.55
283.59	3088.34
283.80	3606.47
284.02	3416.01
284.23	3069.91
284.45	3141.58
284.66	3227.60
284.88	3284.94
285.09	3012.56
285.31	3082.19
285.52	3585.99
285.74	3043.28
285.95	3434.44
286.17	3143.63
286.38	3737.54
286.60	3266.51
286.81	2973.65
287.03	3002.32
287.24	3510.22
287.46	3629.00
287.67	3198.93
287.89	3387.34
288.10	3399.63
288.32	3395.53
288.53	3172.30
288.75	3182.54
288.96	3579.85
289.18	3301.33
289.39	3057.62
289.61	3102.67
289.82	3930.05
290.04	3839.94
290.25	3004.37
290.47	3139.54
290.68	3508.17
290.90	3676.10
291.11	2951.12
291.33	3293.13
291.54	3307.47
291.76	3330.00
291.97	3215.31
292.18	3166.16
292.40	3352.52
292.61	3307.47
292.83	3389.39
293.04	3088.34
293.26	3461.07
293.47	3368.91
293.69	3049.43
293.90	3014.61
294.12	3731.40
294.33	3409.87
294.55	3110.86
294.76	3286.99
294.97	3772.36
295.19	3979.20
295.40	3104.72
295.62	3196.88
295.83	3633.10
296.05	3315.66
296.26	3420.11
296.48	3104.72
296.69	3485.64
296.90	3418.06
297.12	3241.93
297.33	3215.31
297.55	3512.27
297.76	3491.79
297.98	3196.88
298.19	3311.57
298.41	3393.48
298.62	3305.42
298.83	3358.67
299.05	3258.32
299.26	3364.81
299.48	3254.22
299.69	3239.89
299.90	3155.92
300.12	3252.17
300.33	3651.53
300.55	3157.97
300.76	3135.44
300.98	3303.37
301.19	3520.46
301.40	3030.99
301.62	3108.82
301.83	3606.47
302.05	3405.77
302.26	3112.91
302.47	3221.45
302.69	3278.80
302.90	3452.88
303.12	2953.17
303.33	3207.12
303.54	3909.57
303.76	3315.66
303.97	3112.91
304.19	3241.93
304.40	3311.57
304.61	3502.03
304.83	3190.74
305.04	3196.88
305.26	3608.52
305.47	3344.33
305.68	3170.26
305.90	3041.23
306.11	3712.97
306.33	3307.47
306.54	2951.12
306.75	3157.97
306.97	3172.30
307.18	3258.32
307.39	3041.23
307.61	3254.22
307.82	3409.87
308.04	3508.17
308.25	2961.36
308.46	3262.41
308.68	3473.36
308.89	3389.39
309.10	3186.64
309.32	3209.17
309.53	3456.97
309.74	3655.62
309.96	3016.66
310.17	3168.21
310.39	3325.90
310.60	3585.99
310.81	3065.81
311.03	3026.90
311.24	3592.14
311.45	3389.39
311.67	3276.75
311.88	3276.75
312.09	3336.14
312.31	3442.64
312.52	2994.13
312.73	3024.85
312.95	3176.40
313.16	3286.99
313.37	3325.90
313.59	3241.93
313.80	3563.47
314.01	3694.54
314.23	3086.29
314.44	3000.27
314.65	3180.50
314.87	3303.37
315.08	3092.43
315.29	3117.01
315.51	3246.03
315.72	3141.58
315.93	3110.86
316.15	3084.24
316.36	3319.76
316.57	3467.21
316.79	3026.90
317.00	3016.66
317.21	3604.42
317.43	3258.32
317.64	3080.14
317.85	3006.42
318.07	3303.37
318.28	3352.52
318.49	3137.49
318.70	3366.86
318.92	3442.64
319.13	3483.59
319.34	3237.84
319.56	3065.81
319.77	3465.16
319.98	3483.59
320.20	3385.29
320.41	3303.37
320.62	3590.09
320.83	3188.69
321.05	3284.94
321.26	3055.57
321.47	3430.35
321.69	3639.24
321.90	3014.61
322.11	3153.87
322.32	3456.97
322.54	3729.35
322.75	3239.89
322.96	4196.29
323.18	3104.72
323.39	2996.18
323.60	2942.93
323.81	3211.22
324.03	3289.04
324.24	3450.83
324.45	3221.45
324.66	3051.47
324.88	3637.19
325.09	3772.36
325.30	3121.10
325.52	3035.09
325.73	3471.31
325.94	3254.22
326.15	3008.47
326.37	3018.71
326.58	3622.86
326.79	3852.23
327.00	3039.19
327.22	3071.95
327.43	3426.25
327.64	3172.30
327.85	3203.02
328.07	3127.25
328.28	3901.38
328.49	3459.02
328.70	3203.02
328.92	3074.00
329.13	3405.77
329.34	3526.60
329.55	3260.37
329.76	3286.99
329.98	3389.39
330.19	3819.46
330.40	3155.92
330.61	3262.41
330.83	3659.72
331.04	3178.45
331.25	3219.41
331.46	3094.48
331.68	3188.69
331.89	3557.32
332.10	3106.77
332.31	3045.33
332.52	3389.39
332.74	3717.06
332.95	2881.49
333.16	3059.67
333.37	3598.28
333.58	3346.38
333.80	3121.10
334.01	2901.97
334.22	3397.58
334.43	3336.14
334.64	3049.43
334.86	3024.85
335.07	3282.89
335.28	3790.79
335.49	3000.27
335.70	3157.97
335.92	3858.37
336.13	3876.80
336.34	3074.00
336.55	3145.68
336.76	3532.75
336.98	3022.80
337.19	3157.97
337.40	3194.83
337.61	4048.83
337.82	3407.82
338.04	3176.40
338.25	3024.85
338.46	3342.28
338.67	3327.95
338.88	2973.65
339.09	3067.86
339.31	3454.92
339.52	3174.35
339.73	2928.60
339.94	3151.82
340.15	3622.86
340.36	3352.52
340.58	3174.35
340.79	3018.71
341.00	3547.08
341.21	3286.99
341.42	3375.05
341.63	3108.82
341.85	3651.53
342.06	3426.25
342.27	3020.75
342.48	3229.65
342.69	3241.93
342.90	3520.46
343.12	3571.66
343.33	3002.32
343.54	3639.24
343.75	3895.24
343.96	3235.79
344.17	3043.28
344.38	3434.44
344.60	3237.84
344.81	3065.81
345.02	3082.19
345.23	3706.82
345.44	4016.07
345.65	3196.88
345.86	3229.65
346.07	3594.19
346.29	3301.33
346.50	3223.50
346.71	3119.06
346.92	3809.22
347.13	3991.49
347.34	3180.50
347.55	2951.12
347.76	3528.65
347.98	3180.50
348.19	3119.06
348.40	3330.00
348.61	3401.68
348.82	3762.12
349.03	3184.59
349.24	2967.51
349.45	3911.62
349.66	3041.23
349.88	3086.29
350.09	3078.10
350.30	3807.17
350.51	3731.40
350.72	3307.47
350.93	3033.04
351.14	3418.06
351.35	3598.28
351.56	3119.06
351.77	3262.41
351.99	3653.58
352.20	3774.41
352.41	3258.32
352.62	2932.69
352.83	3463.12
353.04	3475.40
353.25	3131.34
353.46	3157.97
353.67	3639.24
353.88	2969.55
354.09	3098.58
354.30	3215.31
354.52	3626.95
354.73	3393.48
354.94	3086.29
355.15	3090.38
355.36	3942.34
355.57	3293.13
355.78	2987.99
355.99	3088.34
356.20	3397.58
356.41	3710.92
356.62	3135.44
356.83	3088.34
357.04	3712.97
357.25	3090.38
357.46	3041.23
357.68	2985.94
357.89	3182.54
358.10	3495.88
358.31	3078.10
358.52	3176.40
358.73	3207.12
358.94	3299.28
359.15	3088.34
359.36	3123.15
359.57	3450.83
359.78	3385.29
359.99	3315.66
360.20	2944.98
360.41	3489.74
360.62	3475.40
360.83	3209.17
361.04	3127.25
361.25	3532.75
361.46	3739.59
361.67	3209.17
361.88	3100.62
362.09	3629.00
362.30	3502.03
362.51	3069.91
362.72	3172.30
362.93	3626.95
363.14	3688.39
363.35	3241.93
363.56	3088.34
363.78	3643.34
363.99	3735.50
364.20	3172.30
364.41	3264.46
364.62	3860.42
364.83	3534.79
365.04	3133.39
365.25	3151.82
365.46	3909.57
365.67	3282.89
365.88	3315.66
366.09	3051.47
366.30	3332.05
366.51	3401.68
366.72	3016.66
366.93	3057.62
367.14	3510.22
367.35	3678.15
367.56	3049.43
367.77	3190.74
367.98	3528.65
368.18	3502.03
368.39	3286.99
368.60	2981.84
368.81	3598.28
369.02	3485.64
369.23	3033.04
369.44	3018.71
369.65	3430.35
369.86	3534.79
370.07	3200.98
370.28	3035.09
370.49	3585.99
370.70	3524.55
370.91	3012.56
371.12	3039.19
371.33	3672.01
371.54	3356.62
371.75	3229.65
371.96	2910.16
372.17	3430.35
372.38	3426.25
372.59	3143.63
372.80	3004.37
373.01	3409.87
373.22	3448.78
373.43	3086.29
373.64	3104.72
373.85	3815.37
374.06	3837.89
374.26	3282.89
374.47	3215.31
374.68	3790.79
374.89	3506.12
375.10	2987.99
375.31	3225.55
375.52	3491.79
375.73	3432.40
375.94	2904.02
376.15	3200.98
376.36	3250.13
376.57	3360.72
376.78	3106.77
376.99	3127.25
377.20	3698.63
377.40	3264.46
377.61	3395.53
377.82	3096.53
378.03	3835.85
378.24	3633.10
378.45	3139.54
378.66	3207.12
378.87	3143.63
379.08	3125.20
379.29	3121.10
379.50	3262.41
379.71	3434.44
379.91	3590.09
380.12	3117.01
380.33	3246.03
380.54	3364.81
380.75	3473.36
380.96	3110.86
381.17	3129.30
381.38	3524.55
381.59	3481.55
381.80	3151.82
382.00	3338.19
382.21	3422.16
382.42	3770.31
382.63	3508.17
382.84	3231.69
383.05	3631.05
383.26	3725.26
383.47	3233.74
383.68	3106.77
383.88	3606.47
384.09	3522.51
384.30	3340.24
384.51	3200.98
384.72	3340.24
384.93	3172.30
385.14	3174.35
385.35	3368.91
385.55	3076.05
385.76	3672.01
385.97	3153.87
386.18	3039.19
386.39	3248.08
386.60	3344.33
386.81	3049.43
387.02	3106.77
387.22	3160.02
387.43	3577.80
387.64	3164.11
387.85	3434.44
388.06	3502.03
388.27	4413.37
388.48	7274.38
388.68	10932.06
388.89	13743.92
389.10	14903.07
389.31	14239.53
389.52	11753.29
389.73	10289.00
389.93	9391.98
390.14	8365.95
390.35	7819.14
390.56	7391.12
390.77	6256.54
390.98	4624.31
391.18	4118.47
391.39	3954.63
391.60	3536.84
391.81	3317.71
392.02	3184.59
392.23	3942.34
392.43	3426.25
392.64	3227.60
392.85	3270.61
393.06	3815.37
393.27	3448.78
393.47	3139.54
393.68	3157.97
393.89	3338.19
394.10	3717.06
394.31	3129.30
394.52	3067.86
394.72	3280.85
394.93	3712.97
395.14	2998.23
395.35	3274.70
395.56	3358.67
395.76	3356.62
395.97	3131.34
396.18	3246.03
396.39	3387.34
396.60	4106.18
396.80	3524.55
397.01	3375.05
397.22	3643.34
397.43	3557.32
397.64	3094.48
397.84	3227.60
398.05	3872.71
398.26	3385.29
398.47	3184.59
398.67	3364.81
398.88	3471.31
399.09	3581.90
399.30	3106.77
399.51	3280.85
399.71	3198.93
399.92	3487.69
400.13	3168.21
400.34	3090.38
400.54	3434.44
400.75	3770.31
400.96	3172.30
401.17	3393.48
401.37	3557.32
401.58	3475.40
401.79	3112.91
402.00	3270.61
402.21	3997.64
402.41	3530.70
402.62	3409.87
402.83	3590.09
403.04	3839.94
403.24	4157.38
403.45	3258.32
403.66	3461.07
403.87	3542.99
404.07	3803.08
404.28	3409.87
404.49	3434.44
404.70	3614.66
404.90	3485.64
405.11	3184.59
405.32	3272.65
405.52	3241.93
405.73	3237.84
405.94	3127.25
406.15	3286.99
406.35	3612.62
406.56	3577.80
406.77	3166.16
406.98	3084.24
407.18	3248.08
407.39	3739.59
407.60	3151.82
407.80	3248.08
408.01	3360.72
408.22	3631.05
408.43	3078.10
408.63	3305.42
408.84	3594.19
409.05	3635.14
409.25	3104.72
409.46	3237.84
409.67	3377.10
409.88	3327.95
410.08	3213.26
410.29	3196.88
410.50	3643.34
410.70	3573.71
410.91	3149.78
411.12	3225.55
411.32	3420.11
411.53	3164.11
411.74	3147.73
411.95	3213.26
412.15	3483.59
412.36	3504.07
412.57	3241.93
412.77	3403.72
412.98	3346.38
413.19	3405.77
413.39	3182.54
413.60	3141.58
413.81	3758.02
414.01	3299.28
414.22	3147.73
414.43	3395.53
414.63	3362.76
414.84	3639.24
415.05	3186.64
415.25	3053.52
415.46	3647.43
415.67	3354.57
415.87	3160.02
416.08	3078.10
416.29	3385.29
416.49	3571.66
416.70	3241.93
416.91	3108.82
417.11	3397.58
417.32	3569.61
417.53	3205.07
417.73	3221.45
417.94	3508.17
418.15	3508.17
418.35	3237.84
418.56	3196.88
418.77	3983.30
418.97	3475.40
419.18	3248.08
419.38	2906.07
419.59	3397.58
419.80	3786.69
420.00	3094.48
420.21	3282.89
420.42	3633.10
420.62	3510.22
420.83	3117.01
421.04	3123.15
421.24	3381.20
421.45	3606.47
421.65	3157.97
421.86	3229.65
422.07	3655.62
422.27	3545.03
422.48	3035.09
422.69	2975.70
422.89	3428.30
423.10	3338.19
423.30	3149.78
423.51	3180.50
423.72	3588.04
423.92	3612.62
424.13	2942.93
424.33	3278.80
424.54	3694.54
424.75	3559.37
424.95	3401.68
425.16	3133.39
425.36	3385.29
425.57	3706.82
425.78	3229.65
425.98	3282.89
426.19	3465.16
426.39	3295.18
426.60	3291.09
426.81	3266.51
427.01	3522.51
427.22	3241.93
427.42	3092.43
427.63	3131.34
427.83	3663.82
428.04	3835.85
428.25	3166.16
428.45	3209.17
428.66	3676.10
428.86	3393.48
429.07	3176.40
429.28	3225.55
429.48	3483.59
429.69	3315.66
429.89	3319.76
430.10	3127.25
430.30	3688.39
430.51	3651.53
430.71	3098.58
430.92	3186.64
431.13	3237.84
431.33	3542.99
431.54	3280.85
431.74	3385.29
431.95	3835.85
432.15	3239.89
432.36	3098.58
432.56	3323.85
432.77	3841.99
432.98	3737.54
433.18	3272.65
433.39	2985.94
433.59	3428.30
433.80	3930.05
434.00	3356.62
434.21	3203.02
434.41	3358.67
434.62	3864.52
434.82	3057.62
435.03	3076.05
435.23	3450.83
435.44	3049.43
435.64	3155.92
435.85	3151.82
436.06	3616.71
436.26	3639.24
436.47	3256.27
436.67	3135.44
436.88	3358.67
437.08	3639.24
437.29	3235.79
437.49	3307.47
437.70	3700.68
437.90	3409.87
438.11	3381.20
438.31	3268.56
438.52	3760.07
438.72	3729.35
438.93	3465.16
439.13	3305.42
439.34	3616.71
439.54	3323.85
439.75	3229.65
439.95	3217.36
440.16	3239.89
440.36	3395.53
440.57	3184.59
440.77	3164.11
440.98	3581.90
441.18	3522.51
441.39	3086.29
441.59	3069.91
441.80	3821.51
442.00	3430.35
442.21	3272.65
442.41	3039.19
442.62	3659.72
442.82	3295.18
443.02	3172.30
443.23	3205.07
443.43	3299.28
443.64	3702.73
443.84	2967.51
444.05	3221.45
444.25	3540.94
444.46	3352.52
444.66	3139.54
444.87	3391.44
445.07	3188.69
445.28	3364.81
445.48	3344.33
445.69	3176.40
445.89	3993.54
446.09	3426.25
446.30	3446.73
446.50	3532.75
446.71	5130.16
446.91	6154.15
447.12	6717.34
447.32	7137.17
447.53	7354.26
447.73	6244.26
447.93	5408.69
448.14	5199.79
448.34	5283.76
448.55	4523.96
448.75	4423.61
448.96	4274.11
449.16	4087.75
449.36	4007.87
449.57	3354.57
449.77	3180.50
449.98	3321.81
450.18	3491.79
450.39	3094.48
450.59	3370.96
450.79	3463.12
451.00	3250.13
451.20	3348.43
451.41	3155.92
451.61	3532.75
451.81	3444.68
452.02	3092.43
452.22	3196.88
452.43	3330.00
452.63	3274.70
452.84	3248.08
453.04	3127.25
453.24	3512.27
453.45	3258.32
453.65	3221.45
453.86	3241.93
454.06	3510.22
454.26	3416.01
454.47	3133.39
454.67	3397.58
454.87	3491.79
455.08	3332.05
455.28	3262.41
455.49	3373.00
455.69	3246.03
455.89	3821.51
456.10	3278.80
456.30	3188.69
456.51	3557.32
456.71	3409.87
456.91	3305.42
457.12	3123.15
457.32	3549.13
457.52	3225.55
457.73	3309.52
457.93	3362.76
458.14	3428.30
458.34	3033.04
458.54	3143.63
458.75	3114.96
458.95	3659.72
459.15	3454.92
459.36	3153.87
459.56	3172.30
459.76	4001.73
459.97	3399.63
460.17	3133.39
460.37	3196.88
460.58	3401.68
460.78	3549.13
460.99	3276.75
461.19	3112.91
461.39	3215.31
461.60	3307.47
461.80	3160.02
462.00	3014.61
462.21	3475.40
462.41	3205.07
462.61	3028.95
462.82	2967.51
463.02	3524.55
463.22	3426.25
463.43	3221.45
463.63	3065.81
463.83	3696.58
464.04	3620.81
464.24	3096.53
464.44	3205.07
464.64	3473.36
464.85	3637.19
465.05	3139.54
465.25	3076.05
465.46	3254.22
465.66	3581.90
465.86	3266.51
466.07	3114.96
466.27	3344.33
466.47	3057.62
466.68	3026.90
466.88	3225.55
467.08	3653.58
467.29	3755.97
467.49	3129.30
467.69	3286.99
467.89	3614.66
468.10	3409.87
468.30	3227.60
468.50	3327.95
468.71	3583.95
468.91	3114.96
469.11	3401.68
469.31	3321.81
469.52	3143.63
469.72	3778.50
469.92	3483.59
470.13	3205.07
470.33	3461.07
470.53	3540.94
470.73	3635.14
470.94	3915.72
471.14	4016.07
471.34	4571.07
471.54	4130.75
471.75	3893.19
471.95	3745.73
472.15	3792.84
472.36	3682.25
472.56	3536.84
472.76	4003.78
472.96	3776.45
473.17	3332.05
473.37	3270.61
473.57	3430.35
473.77	3528.65
473.98	3383.24
474.18	3082.19
474.38	4081.60
474.58	3387.34
474.79	3074.00
474.99	3375.05
475.19	3672.01
475.39	3297.23
475.60	3264.46
475.80	3057.62
476.00	3465.16
476.20	3352.52
476.41	3235.79
476.61	3231.69
476.81	3723.21
477.01	3217.36
477.21	3434.44
477.42	3229.65
477.62	3356.62
477.82	3581.90
478.02	3141.58
478.23	3135.44
478.43	3260.37
478.63	3342.28
478.83	3182.54
479.03	3246.03
479.24	3774.41
479.44	3936.20
479.64	3149.78
479.84	2992.08
480.04	3246.03
480.25	3715.02
480.45	3157.97
480.65	3100.62
480.85	3737.54
481.06	3332.05
481.26	3319.76
481.46	3170.26
481.66	3573.71
481.86	3280.85
482.06	3461.07
482.27	3213.26
482.47	3327.95
482.67	3528.65
482.87	3164.11
483.07	3278.80
483.28	3362.76
483.48	3162.06
483.68	3188.69
483.88	3137.49
484.08	3059.67
484.29	3205.07
484.49	3270.61
484.69	3041.23
484.89	3766.21
485.09	3577.80
485.29	3166.16
485.50	3299.28
485.70	3356.62
485.90	3727.30
486.10	3332.05
486.30	3143.63
486.50	3739.59
486.71	3467.21
486.91	3254.22
487.11	3289.04
487.31	3133.39
487.51	3559.37
487.71	3217.36
487.91	3164.11
488.12	3258.32
488.32	2996.18
488.52	3160.02
488.72	2975.70
488.92	3448.78
489.12	3631.05
489.32	3241.93
489.53	3123.15
489.73	3141.58
489.93	3821.51
490.13	3121.10
490.33	2994.13
490.53	3499.98
490.73	3676.10
490.94	3022.80
491.14	3270.61
491.34	3534.79
491.54	3481.55
491.74	4024.26
491.94	4468.67
492.14	5144.50
492.34	5130.16
492.54	4681.66
492.75	4138.94
492.95	4378.56
493.15	4179.90
493.35	3870.66
493.55	3829.70
493.75	3753.93
493.95	4042.69
494.15	3360.72
494.35	3252.17
494.56	3420.11
494.76	3231.69
494.96	3352.52
495.16	3082.19
495.36	3452.88
495.56	3510.22
495.76	3260.37
495.96	3151.82
496.16	3221.45
496.36	3874.76
496.56	3057.62
496.77	3289.04
496.97	3381.20
497.17	3741.64
497.37	2955.22
497.57	3233.74
497.77	3502.03
497.97	3246.03
498.17	3213.26
498.37	3129.30
498.57	3653.58
498.77	3377.10
498.97	3330.00
499.17	3499.98
499.38	3383.24
499.58	3504.07
499.78	3338.19
499.98	3366.86
500.18	3362.76
500.38	3264.46
500.58	3370.96
500.78	3737.54
500.98	6084.52
501.18	7681.93
501.38	9013.11
501.58	9946.98
501.78	10112.87
501.98	8316.80
502.18	6987.67
502.38	6145.95
502.58	6209.44
502.78	5535.66
502.98	5216.18
503.18	5093.30
503.38	4868.02
503.59	4106.18
503.79	4052.93
503.99	3692.49
504.19	3975.11
504.39	3936.20
504.59	3643.34
504.79	3461.07
504.99	4016.07
505.19	3567.56
505.39	3413.96
505.59	3571.66
505.79	3801.03
505.99	3696.58
506.19	3254.22
506.39	3434.44
506.59	3252.17
506.79	3346.38
506.99	3377.10
507.19	3076.05
507.39	3487.69
507.59	3174.35
507.79	3164.11
507.99	3141.58
508.19	3493.83
508.39	3344.33
508.59	3174.35
508.79	3239.89
508.99	3850.18
509.19	3280.85
509.39	3203.02
509.59	3174.35
509.79	3303.37
509.99	3532.75
510.19	3262.41
510.39	3260.37
510.59	3522.51
510.79	3278.80
510.99	3002.32
511.19	3063.76
511.39	3811.27
511.59	3745.73
511.79	3370.96
511.99	3143.63
512.19	3862.47
512.38	3461.07
512.58	3139.54
512.78	3065.81
512.98	3780.55
513.18	3839.94
513.38	3114.96
513.58	3303.37
513.78	3379.15
513.98	3305.42
514.18	3137.49
514.38	3139.54
514.58	3452.88
514.78	3286.99
514.98	3106.77
515.18	3198.93
515.38	3190.74
515.58	3835.85
515.78	3164.11
515.98	3231.69
516.18	3639.24
516.38	3446.73
516.57	3100.62
516.77	3100.62
516.97	3557.32
517.17	3325.90
517.37	2963.41
517.57	3219.41
517.77	3395.53
517.97	3155.92
518.17	3221.45
518.37	3045.33
518.57	3311.57
518.77	3397.58
518.97	3209.17
519.16	3176.40
519.36	3690.44
519.56	3299.28
519.76	3098.58
519.96	3227.60
520.16	3657.67
520.36	3223.50
520.56	3252.17
520.76	3041.23
520.96	3368.91
521.16	3624.90
521.35	3385.29
521.55	3196.88
521.75	3530.70
521.95	3368.91
522.15	3205.07
522.35	3051.47
522.55	3366.86
522.75	3643.34
522.95	3065.81
523.14	2992.08
523.34	3420.11
523.54	3313.61
523.74	3297.23
523.94	3233.74
524.14	3049.43
524.34	3538.89
524.54	3416.01
524.73	3205.07
524.93	3618.76
525.13	3497.93
525.33	3149.78
525.53	3278.80
525.73	3475.40
525.93	3450.83
526.13	3258.32
526.32	2992.08
526.52	3647.43
526.72	3600.33
526.92	3182.54
527.12	3033.04
527.32	3166.16
527.52	3493.83
527.71	3174.35
527.91	3166.16
528.11	3315.66
528.31	3368.91
528.51	3170.26
528.71	3295.18
528.90	3571.66
529.10	3667.91
529.30	3254.22
529.50	2787.29
529.70	3555.27
529.90	3379.15
530.09	3160.02
530.29	2983.89
530.49	3330.00
530.69	4052.93
530.89	3389.39
531.09	3297.23
531.28	3307.47
531.48	3807.17
531.68	3180.50
531.88	3178.45
532.08	3626.95
532.28	3385.29
532.47	3289.04
532.67	3243.98
532.87	3542.99
533.07	3221.45
533.27	3205.07
533.46	3295.18
533.66	3502.03
533.86	3391.44
534.06	3241.93
534.26	3020.75
534.45	3348.43
534.65	3626.95
534.85	3241.93
535.05	3051.47
535.25	3573.71
535.44	3078.10
535.64	3256.27
535.84	3151.82
536.04	3311.57
536.24	3420.11
536.43	3157.97
536.63	3030.99
536.83	3473.36
537.03	3416.01
537.22	2955.22
537.42	2959.31
537.62	3456.97
537.82	3286.99
538.02	3381.20
538.21	3262.41
538.41	3991.49
538.61	3651.53
538.81	3229.65
539.00	3274.70
539.20	3135.44
539.40	3311.57
539.60	3133.39
539.79	3434.44
539.99	3469.26
540.19	3213.26
540.39	3168.21
540.58	3252.17
540.78	3721.16
540.98	3483.59
541.18	3356.62
541.37	3229.65
541.57	3403.72
541.77	3524.55
541.97	3078.10
542.16	3074.00
542.36	3416.01
542.56	3250.13
542.76	3403.72
542.95	3203.02
543.15	3569.61
543.35	3565.51
543.54	3200.98
543.74	3063.76
543.94	3686.34
544.14	3243.98
544.33	3237.84
544.53	3203.02
544.73	3430.35
544.93	3330.00
545.12	3237.84
545.32	3135.44
545.52	3450.83
545.71	3168.21
545.91	3106.77
546.11	3076.05
546.30	3254.22
546.50	3438.54
546.70	3295.18
546.90	3139.54
547.09	3086.29
547.29	3471.31
547.49	3336.14
547.68	3141.58
547.88	3379.15
548.08	3549.13
548.27	3438.54
548.47	3102.67
548.67	3241.93
548.87	3491.79
549.06	3147.73
549.26	3114.96
549.46	3561.42
549.65	3325.90
549.85	3213.26
550.05	3180.50
550.24	3131.34
550.44	3438.54
550.64	3381.20
550.83	3254.22
551.03	3684.30
551.23	3641.29
551.42	3221.45
551.62	3207.12
551.82	3446.73
552.01	3356.62
552.21	3583.95
552.41	3200.98
552.60	3721.16
552.80	3330.00
553.00	3190.74
553.19	3196.88
553.39	3803.08
553.59	3217.36
553.78	3346.38
553.98	3114.96
554.17	3178.45
554.37	3469.26
554.57	3289.04
554.76	3110.86
554.96	3358.67
555.16	3444.68
555.35	3286.99
555.55	3370.96
555.75	3534.79
555.94	3594.19
556.14	2983.89
556.33	3209.17
556.53	3442.64
556.73	3413.96
556.92	3131.34
557.12	3057.62
557.32	3837.89
557.51	3721.16
557.71	3155.92
557.90	3313.61
558.10	3737.54
558.30	3309.52
558.49	3223.50
558.69	3213.26
558.88	3610.57
559.08	3446.73
559.28	3284.94
559.47	3188.69
559.67	3581.90
559.86	3846.09
560.06	3133.39
560.26	3254.22
560.45	3665.86
560.65	3342.28
560.84	3432.40
561.04	3053.52
561.24	3663.82
561.43	3133.39
561.63	3450.83
561.82	3276.75
562.02	3577.80
562.22	3254.22
562.41	3114.96
562.61	3129.30
562.80	3248.08
563.00	3991.49
563.19	3174.35
563.39	3274.70
563.59	3547.08
563.78	3178.45
563.98	2944.98
564.17	3141.58
564.37	3106.77
564.56	3389.39
564.76	3084.24
564.96	3133.39
565.15	3475.40
565.35	4018.11
565.54	3098.58
565.74	3203.02
565.93	3602.38
566.13	3471.31
566.32	3276.75
566.52	3266.51
566.71	3477.45
566.91	3674.06
567.11	3270.61
567.30	3037.14
567.50	3532.75
567.69	3524.55
567.89	3139.54
568.08	3117.01
568.28	3426.25
568.47	3151.82
568.67	3205.07
568.86	3117.01
569.06	3633.10
569.25	3319.76
569.45	3090.38
569.64	3205.07
569.84	3373.00
570.04	3442.64
570.23	3196.88
570.43	3254.22
570.62	3594.19
570.82	3815.37
571.01	3026.90
571.21	3168.21
571.40	3270.61
571.60	3610.57
571.79	3233.74
571.99	3102.67
572.18	3178.45
572.38	3553.23
572.57	3176.40
572.77	3284.94
572.96	4057.03
573.16	3516.36
573.35	3164.11
573.55	3403.72
573.74	3416.01
573.94	3379.15
574.13	3203.02
574.33	3368.91
574.52	3727.30
574.71	3389.39
574.91	3258.32
575.10	3043.28
575.30	3301.33
575.49	3225.55
575.69	2975.70
575.88	3100.62
576.08	3420.11
576.27	3626.95
576.47	3100.62
576.66	3268.56
576.86	3833.80
577.05	3438.54
577.25	3180.50
577.44	3377.10
577.64	3342.28
577.83	3567.56
578.02	3164.11
578.22	3342.28
578.41	3907.52
578.61	3385.29
578.80	3055.57
579.00	3186.64
579.19	3424.20
579.39	3514.31
579.58	3264.46
579.77	3217.36
579.97	3657.67
580.16	3655.62
580.36	3393.48
580.55	3305.42
580.75	3440.59
580.94	3491.79
581.13	3284.94
581.33	3495.88
581.52	3444.68
581.72	3960.77
581.91	3211.22
582.11	3076.05
582.30	3651.53
582.49	3530.70
582.69	3467.21
582.88	3237.84
583.08	3446.73
583.27	3631.05
583.47	3307.47
583.66	3233.74
583.85	3313.61
584.05	3405.77
584.24	3338.19
584.44	3200.98
584.63	3655.62
584.82	3676.10
585.02	3446.73
585.21	3346.38
585.41	3522.51
585.60	3438.54
585.79	3467.21
585.99	3450.83
586.18	3491.79
586.37	4417.47
586.57	6725.53
586.76	18310.89
586.96	37119.43
587.15	49556.75
587.34	57703.57
587.54	60906.59
587.73	53392.59
587.93	38999.47
588.12	29804.09
588.31	24731.27
588.51	21923.51
588.70	20197.07
588.89	17979.12
589.09	15120.15
589.28	13176.63
589.47	10342.24
589.67	7729.03
589.86	6260.64
590.06	5085.11
590.25	4597.69
590.44	3850.18
590.64	3532.75
590.83	3635.14
591.02	3686.34
591.22	3151.82
591.41	3260.37
591.60	3428.30
591.80	4077.51
591.99	3037.14
592.18	3229.65
592.38	3606.47
592.57	3231.69
592.76	3108.82
592.96	3227.60
593.15	3413.96
593.34	3706.82
593.54	3164.11
593.73	3295.18
593.92	3557.32
594.12	3553.23
594.31	3229.65
594.50	3301.33
594.70	3536.84
594.89	4108.23
595.08	3065.81
595.28	3459.02
595.47	4153.28
595.66	3651.53
595.86	3082.19
596.05	3088.34
596.24	3362.76
596.43	3817.41
596.63	3217.36
596.82	3344.33
597.01	3571.66
597.21	3790.79
597.40	3131.34
597.59	3213.26
597.79	3350.48
597.98	3641.29
598.17	3268.56
598.36	3225.55
598.56	3575.75
598.75	3393.48
598.94	3250.13
599.14	3286.99
599.33	3342.28
599.52	3655.62
599.71	3280.85
599.91	3205.07
600.10	3680.20
600.29	3559.37
600.48	3307.47
600.68	3305.42
600.87	3491.79
601.06	3303.37
601.26	3344.33
601.45	3332.05
601.64	3368.91
601.83	3790.79
602.03	3030.99
602.22	3106.77
602.41	3723.21
602.60	3979.20
602.80	3305.42
602.99	3385.29
603.18	3411.92
603.37	3420.11
603.57	3098.58
603.76	3260.37
603.95	3672.01
604.14	3422.16
604.34	3028.95
604.53	3102.67
604.72	3510.22
604.91	3602.38
605.10	3213.26
605.30	3065.81
605.49	3960.77
605.68	3649.48
605.87	3229.65
606.07	3145.68
606.26	3407.82
606.45	3682.25
606.64	3225.55
606.84	3082.19
607.03	3426.25
607.22	3639.24
607.41	3278.80
607.60	3139.54
607.80	3606.47
607.99	3366.86
608.18	3203.02
608.37	3221.45
608.56	3342.28
608.76	3657.67
608.95	3321.81
609.14	3147.73
609.33	3682.25
609.52	3739.59
609.72	3205.07
609.91	3241.93
610.10	3547.08
610.29	3727.30
610.48	3334.09
610.68	3239.89
610.87	3405.77
611.06	3590.09
611.25	3227.60
611.44	3364.81
611.63	3362.76
611.83	3649.48
612.02	3123.15
612.21	3411.92
612.40	3059.67
612.59	3157.97
612.79	3088.34
612.98	3127.25
613.17	3823.56
613.36	3469.26
613.55	3309.52
613.74	3071.95
613.93	3426.25
614.13	3499.98
614.32	3358.67
614.51	3198.93
614.70	3387.34
614.89	3409.87
615.08	3297.23
615.28	3489.74
615.47	3260.37
615.66	3563.47
615.85	3246.03
616.04	3278.80
616.23	3403.72
616.42	3403.72
616.62	3176.40
616.81	3266.51
617.00	3438.54
617.19	3598.28
617.38	3184.59
617.57	3336.14
617.76	3590.09
617.95	3667.91
618.15	3323.85
618.34	3456.97
618.53	3205.07
618.72	3717.06
618.91	3278.80
619.10	3229.65
619.29	3461.07
619.48	3422.16
619.68	3065.81
619.87	3104.72
620.06	3203.02
620.25	3731.40
620.44	3078.10
620.63	3203.02
620.82	3561.42
621.01	3413.96
621.20	3192.78
621.39	3313.61
621.59	3542.99
621.78	3385.29
621.97	3176.40
622.16	3295.18
622.35	3475.40
622.54	3618.76
622.73	3276.75
622.92	2889.68
623.11	3778.50
623.30	3301.33
623.49	3346.38
623.68	3119.06
623.88	3813.32
624.07	3334.09
624.26	3100.62
624.45	3168.21
624.64	3332.05
624.83	3446.73
625.02	3053.52
625.21	3119.06
625.40	3532.75
625.59	3680.20
625.78	3303.37
625.97	3203.02
626.16	3749.83
626.35	3596.23
626.54	3121.10
626.74	3319.76
626.93	3389.39
627.12	3479.50
627.31	3274.70
627.50	3207.12
627.69	3667.91
627.88	3225.55
628.07	3172.30
628.26	2979.79
628.45	3203.02
628.64	3215.31
628.83	3078.10
629.02	3047.38
629.21	3579.85
629.40	3499.98
629.59	3094.48
629.78	3172.30
629.97	3485.64
630.16	3418.06
630.35	3188.69
630.54	3344.33
630.73	3338.19
630.92	3391.44
631.11	3151.82
631.30	3194.83
631.49	3604.42
631.68	3426.25
631.87	3200.98
632.06	3172.30
632.25	3882.95
632.44	3358.67
632.63	3256.27
632.82	3180.50
633.01	3276.75
633.20	3403.72
633.39	3121.10
633.58	2959.31
633.77	3514.31
633.96	3575.75
634.15	3360.72
634.34	3241.93
634.53	3549.13
634.72	3254.22
634.91	3117.01
635.10	3125.20
635.29	3583.95
635.48	3528.65
635.67	3026.90
635.86	3035.09
636.05	3827.65
636.24	3393.48
636.43	3135.44
636.62	3225.55
636.81	2959.31
637.00	3512.27
637.19	3145.68
637.38	3237.84
637.57	3309.52
637.76	3387.34
637.95	3452.88
638.14	3327.95
638.33	3487.69
638.52	3506.12
638.71	3041.23
638.89	3094.48
639.08	4057.03
639.27	3680.20
639.46	3389.39
639.65	3667.91
639.84	3901.38
640.03	4052.93
640.22	3506.12
640.41	3465.16
640.60	3512.27
640.79	3598.28
640.98	3454.92
641.17	3368.91
641.36	3592.14
641.55	3608.52
641.74	3049.43
641.92	3125.20
642.11	3223.50
642.30	3360.72
642.49	3147.73
642.68	3246.03
642.87	3510.22
643.06	3547.08
643.25	3018.71
643.44	3063.76
643.63	3362.76
643.82	3514.31
644.00	3104.72
644.19	3157.97
644.38	3250.13
644.57	3581.90
644.76	3256.27
644.95	3299.28
645.14	3528.65
645.33	3469.26
645.52	3223.50
645.71	3114.96
645.89	3223.50
646.08	3389.39
646.27	3176.40
646.46	3334.09
646.65	3174.35
646.84	3557.32
647.03	3121.10
647.22	3377.10
647.40	3452.88
647.59	3426.25
647.78	2987.99
647.97	3203.02
648.16	3211.22
648.35	3780.55
648.54	3418.06
648.73	3209.17
648.91	3606.47
649.10	3432.40
649.29	3114.96
649.48	3143.63
649.67	3514.31
649.86	3420.11
650.05	3149.78
650.23	3272.65
650.42	3313.61
650.61	3698.63
650.80	3413.96
650.99	3426.25
651.18	3602.38
651.36	3594.19
651.55	3094.48
651.74	3405.77
651.93	3346.38
652.12	3323.85
652.31	3205.07
652.49	3203.02
652.68	3262.41
652.87	3669.96
653.06	3336.14
653.25	3456.97
653.44	3422.16
653.62	3758.02
653.81	3213.26
654.00	3147.73
654.19	3598.28
654.38	4034.50
654.56	3246.03
654.75	3098.58
654.94	3639.24
655.13	3459.02
655.32	3102.67
655.51	3221.45
655.69	3350.48
655.88	3684.30
656.07	3098.58
656.26	3211.22
656.45	3174.35
656.63	3463.12
656.82	3176.40
657.01	3508.17
657.20	3182.54
657.38	3899.33
657.57	3227.60
657.76	3014.61
657.95	3614.66
658.14	3358.67
658.32	3303.37
658.51	3053.52
658.70	3483.59
658.89	3549.13
659.08	3168.21
659.26	3311.57
659.45	3233.74
659.64	3604.42
659.83	3192.78
660.01	3563.47
660.20	3569.61
660.39	3827.65
660.58	2885.59
660.76	3225.55
660.95	3094.48
661.14	3459.02
661.33	3006.42
661.51	3280.85
661.70	3348.43
661.89	3536.84
662.08	3254.22
662.26	3067.86
662.45	3276.75
662.64	3770.31
662.83	3207.12
663.01	3082.19
663.20	3313.61
663.39	3747.78
663.58	3219.41
663.76	3112.91
663.95	3502.03
664.14	3284.94
664.32	3282.89
664.51	3059.67
664.70	3043.28
664.89	3502.03
665.07	3078.10
665.26	3352.52
665.45	3164.11
665.64	3573.71
665.82	3182.54
666.01	3332.05
666.20	3110.86
666.38	3686.34
666.57	3534.79
666.76	5697.45
666.95	12576.58
667.13	18841.31
667.32	22335.15
667.51	24856.20
667.69	25640.57
667.88	21085.89
668.07	15353.62
668.25	13332.28
668.44	11749.20
668.63	10215.27
668.81	8804.22
669.00	7737.23
669.19	7182.23
669.38	6350.75
669.56	5394.35
669.75	4782.01
669.94	4378.56
670.12	3792.84
670.31	3514.31
670.50	3506.12
670.68	3551.18
670.87	3557.32
671.06	3178.45
671.24	3246.03
671.43	3792.84
671.62	3538.89
671.80	3157.97
671.99	3305.42
672.18	3508.17
672.36	3712.97
672.55	3354.57
672.74	3260.37
672.92	3403.72
673.11	3520.46
673.29	2994.13
673.48	3381.20
673.67	3395.53
673.85	3631.05
674.04	3143.63
674.23	3289.04
674.41	3774.41
674.60	3192.78
674.79	2987.99
674.97	2965.46
675.16	3663.82
675.34	3651.53
675.53	3084.24
675.72	3205.07
675.90	3790.79
676.09	3407.82
676.28	3282.89
676.46	2996.18
676.65	3579.85
676.83	3164.11
677.02	3186.64
677.21	3274.70
677.39	3444.68
677.58	3258.32
677.77	3190.74
677.95	3149.78
678.14	3387.34
678.32	3393.48
678.51	3274.70
678.70	3534.79
678.88	3323.85
679.07	3434.44
679.25	3241.93
679.44	3225.55
679.63	3143.63
679.81	3459.02
680.00	3370.96
680.18	3348.43
680.37	3825.61
680.55	3450.83
680.74	3065.81
680.93	2959.31
681.11	3434.44
681.30	3532.75
681.48	3076.05
681.67	3203.02
681.85	3493.83
682.04	3209.17
682.23	3356.62
682.41	3307.47
682.60	3360.72
682.78	3469.26
682.97	3088.34
683.15	3194.83
683.34	3450.83
683.53	3753.93
683.71	3051.47
683.90	3233.74
684.08	3827.65
684.27	3327.95
684.45	3258.32
684.64	3336.14
684.82	3373.00
685.01	3526.60
685.19	3190.74
685.38	3497.93
685.57	3459.02
685.75	3256.27
685.94	3084.24
686.12	3141.58
686.31	3319.76
686.49	3780.55
686.68	2987.99
686.86	3155.92
687.05	3481.55
687.23	3764.17
687.42	3229.65
687.60	3041.23
687.79	3626.95
687.97	3764.17
688.16	3284.94
688.34	3348.43
688.53	3028.95
688.71	3479.50
688.90	3559.37
689.08	3227.60
689.27	3069.91
689.45	3620.81
689.64	3305.42
689.82	3272.65
690.01	3502.03
690.19	3499.98
690.38	3297.23
690.56	3327.95
690.75	3231.69
690.93	3334.09
691.12	3215.31
691.30	3291.09
691.49	3262.41
691.67	3491.79
691.86	3512.27
692.04	3194.83
692.23	3389.39
692.41	3459.02
692.60	3506.12
692.78	3409.87
692.97	3434.44
693.15	3590.09
693.34	3438.54
693.52	3461.07
693.71	3303.37
693.89	3217.36
694.08	3078.10
694.26	3237.84
694.44	3651.53
694.63	3626.95
694.81	3209.17
695.00	3274.70
695.18	3735.50
695.37	4057.03
695.55	3289.04
695.74	3305.42
695.92	3262.41
696.10	3700.68
696.29	3026.90
696.47	3225.55
696.66	3223.50
696.84	3198.93
697.03	3315.66
697.21	3452.88
697.40	4827.06
697.58	3688.39
697.76	3215.31
697.95	3233.74
698.13	3219.41
698.32	3336.14
698.50	3229.65
698.68	3264.46
698.87	3555.27
699.05	3913.67
699.24	3196.88
699.42	3246.03
699.61	3569.61
699.79	3426.25
699.97	3221.45
700.16	3092.43
700.34	3157.97
700.53	3487.69
700.71	3446.73
700.89	3364.81
701.08	3278.80
701.26	3479.50
701.45	3600.33
701.63	3194.83
701.81	3352.52
702.00	3295.18
702.18	3246.03
702.37	3239.89
702.55	3645.38
702.73	3559.37
702.92	3258.32
703.10	3549.13
703.28	3499.98
703.47	3213.26
703.65	3440.59
703.84	3258.32
704.02	3278.80
704.20	3778.50
704.39	3160.02
704.57	3225.55
704.75	3608.52
704.94	3473.36
705.12	3356.62
705.30	3991.49
705.49	8040.33
705.67	14477.09
705.86	19121.88
706.04	21792.44
706.22	23912.08
706.41	22394.54
706.59	16666.37
706.77	13289.27
706.96	11847.50
707.14	10905.43
707.32	9260.91
707.51	8095.62
707.69	6918.04
707.87	5904.29
708.06	4855.73
708.24	4253.63
708.42	4122.56
708.61	4241.34
708.79	3311.57
708.97	3463.12
709.16	3569.61
709.34	3514.31
709.52	3217.36
709.71	3274.70
709.89	3499.98
710.07	3225.55
710.26	3096.53
710.44	3172.30
710.62	3583.95
710.80	3426.25
710.99	3231.69
711.17	3305.42
711.35	3342.28
711.54	3344.33
711.72	3420.11
711.90	3198.93
712.09	3475.40
712.27	3286.99
712.45	3325.90
712.63	3157.97
712.82	3536.84
713.00	3411.92
713.18	3327.95
713.37	3377.10
713.55	3629.00
713.73	3581.90
713.91	3254.22
714.10	3241.93
714.28	3358.67
714.46	3540.94
714.65	3370.96
714.83	3295.18
715.01	3424.20
715.19	3448.78
715.38	3139.54
715.56	3362.76
715.74	3321.81
715.92	3325.90
716.11	3483.59
716.29	3055.57
716.47	3508.17
716.65	3307.47
716.84	3092.43
717.02	3311.57
717.20	3102.67
717.38	3315.66
717.57	3362.76
717.75	3356.62
717.93	3352.52
718.11	3622.86
718.30	3035.09
718.48	3178.45
718.66	3643.34
718.84	3723.21
719.03	3153.87
719.21	3104.72
719.39	3831.75
719.57	3553.23
719.75	3311.57
719.94	3180.50
720.12	3401.68
720.30	3434.44
720.48	3338.19
720.67	3160.02
720.85	3291.09
721.03	3397.58
721.21	3166.16
721.39	3332.05
721.58	3532.75
721.76	3418.06
721.94	3162.06
722.12	3303.37
722.30	3780.55
722.49	3416.01
722.67	3233.74
722.85	3188.69
723.03	3196.88
723.21	3303.37
723.40	3190.74
723.58	3274.70
723.76	3557.32
723.94	3690.44
724.12	3248.08
724.30	3381.20
724.49	3641.29
724.67	3153.87
724.85	3336.14
725.03	3059.67
725.21	3530.70
725.40	3702.73
725.58	3166.16
725.76	3422.16
725.94	3530.70
726.12	3155.92
726.30	3286.99
726.49	3114.96
726.67	3370.96
726.85	3524.55
727.03	3919.81
727.21	4861.88
727.39	6041.51
727.57	6354.85
727.76	6752.15
727.94	6739.87
728.12	5867.43
728.30	5060.53
728.48	4810.68
728.66	4489.15
728.84	4399.04
729.03	3909.57
729.21	3688.39
729.39	3499.98
729.57	3549.13
729.75	3534.79
729.93	3450.83
730.11	3137.49
730.30	3370.96
730.48	3379.15
730.66	3190.74
730.84	3274.70
731.02	3405.77
731.20	3340.24
731.38	3258.32
731.56	3092.43
731.74	3155.92
731.93	3442.64
732.11	3315.66
732.29	3254.22
732.47	3547.08
732.65	3522.51
732.83	3436.49
733.01	3278.80
733.19	3282.89
733.37	3567.56
733.56	3198.93
733.74	3024.85
733.92	3741.64
734.10	3317.71
734.28	3461.07
734.46	2967.51
734.64	3321.81
734.82	3315.66
735.00	3082.19
735.18	3151.82
735.36	3430.35
735.54	3395.53
735.73	3213.26
735.91	3385.29
736.09	3743.69
736.27	3434.44
736.45	3278.80
736.63	2924.50
736.81	3416.01
736.99	3598.28
737.17	3479.50
737.35	3196.88
737.53	3526.60
737.71	3499.98
737.89	3389.39
738.07	3141.58
738.25	3280.85
738.43	3080.14
738.61	3215.31
738.80	3055.57
738.98	3176.40
739.16	3311.57
739.34	3151.82
739.52	3590.09
739.70	3344.33
739.88	3647.43
740.06	3389.39
740.24	2985.94
740.42	3690.44
740.60	3121.10
740.78	3088.34
740.96	3002.32
741.14	3323.85
741.32	3491.79
741.50	3053.52
741.68	3510.22
741.86	3680.20
742.04	3213.26
742.22	3155.92
742.40	3223.50
742.58	3553.23
742.76	3184.59
742.94	3418.06
743.12	3014.61
743.30	3459.02
743.48	3573.71
743.66	3098.58
743.84	3192.78
744.02	3332.05
744.20	3483.59
744.38	3084.24
744.56	3225.55
744.74	3897.28
744.92	3608.52
745.10	3450.83
745.28	3229.65
745.46	3776.45
745.64	3442.64
745.82	3219.41
746.00	3164.11
746.18	3577.80
746.36	3196.88
746.54	3194.83
746.72	3207.12
746.90	3129.30
747.08	3698.63
747.26	3200.98
747.44	3303.37
747.62	3532.75
747.80	3577.80
747.98	3295.18
748.15	3186.64
748.33	3741.64
748.51	3448.78
748.69	3311.57
748.87	3059.67
749.05	3391.44
749.23	3399.63
749.41	3164.11
749.59	3211.22
749.77	3674.06
749.95	3311.57
750.13	3190.74
750.31	3313.61
750.49	3409.87
750.67	3680.20
750.85	3395.53
751.03	3160.02
751.20	3981.25
751.38	3502.03
751.56	3243.98
751.74	3237.84
751.92	3475.40
752.10	3246.03
752.28	3352.52
752.46	3205.07
752.64	3438.54
752.82	3362.76
753.00	3272.65
753.18	3164.11
753.35	3387.34
753.53	3401.68
753.71	3102.67
753.89	3203.02
754.07	3487.69
754.25	3702.73
754.43	3248.08
754.61	3071.95
754.79	3594.19
754.97	3409.87
755.14	3332.05
755.32	3157.97
755.50	3422.16
755.68	3483.59
755.86	3147.73
756.04	3217.36
756.22	3090.38
756.40	3643.34
756.57	3442.64
756.75	3213.26
756.93	3635.14
757.11	3712.97
757.29	3100.62
757.47	3182.54
757.65	3117.01
757.82	3008.47
758.00	3098.58
758.18	3127.25
758.36	3270.61
758.54	3815.37
758.72	3035.09
758.90	3295.18
759.07	3475.40
759.25	3243.98
759.43	3278.80
759.61	3086.29
759.79	4630.46
759.97	3524.55
760.15	3227.60
760.32	3162.06
760.50	3459.02
760.68	3819.46
760.86	3051.47
761.04	3459.02
761.22	3624.90
761.39	3508.17
761.57	3395.53
761.75	3241.93
761.93	3663.82
762.11	3434.44
762.28	3293.13
762.46	3143.63
762.64	3682.25
762.82	3141.58
763.00	3147.73
763.18	3389.39
763.35	3264.46
763.53	3596.23
763.71	3291.09
763.89	3139.54
764.07	3409.87
764.24	3532.75
764.42	3352.52
764.60	3207.12
764.78	3569.61
764.96	3577.80
765.13	3366.86
765.31	3121.10
765.49	3581.90
765.67	3278.80
765.84	3196.88
766.02	3125.20
766.20	3022.80
766.38	3512.27
766.56	3147.73
766.73	3291.09
766.91	3401.68
767.09	3512.27
767.27	3237.84
767.44	3051.47
767.62	3633.10
767.80	3542.99
767.98	3139.54
768.15	3215.31
768.33	3622.86
768.51	3594.19
768.69	3362.76
768.87	3264.46
769.04	3491.79
769.22	4050.88
769.40	3377.10
769.58	3291.09
769.75	3473.36
769.93	3596.23
770.11	3114.96
770.28	3131.34
770.46	3676.10
770.64	3545.03
770.82	3157.97
770.99	3078.10
771.17	3553.23
771.35	3336.14
771.53	3282.89
771.70	3166.16
771.88	3553.23
772.06	3442.64
772.23	3160.02
772.41	3215.31
772.59	3426.25
772.77	3203.02
772.94	3243.98
773.12	3291.09
773.30	3344.33
773.47	3440.59
773.65	3076.05
773.83	3311.57
774.01	3475.40
774.18	2981.84
774.36	3223.50
774.54	3010.51
774.71	3585.99
774.89	3063.76
775.07	3041.23
775.24	3233.74
775.42	3391.44
775.60	3798.98
775.78	3088.34
775.95	3129.30
776.13	3063.76
776.31	3104.72
776.48	3364.81
776.66	3385.29
776.84	3375.05
777.01	3233.74
777.19	3090.38
777.37	3131.34
777.54	3573.71
777.72	3893.19
777.90	3299.28
778.07	3164.11
778.25	4179.90
778.43	3581.90
778.60	3155.92
778.78	3266.51
778.96	3700.68
779.13	3196.88
779.31	3178.45
779.49	3254.22
779.66	3547.08
779.84	3409.87
780.01	3139.54
780.19	3117.01
780.37	3772.36
780.54	3512.27
780.72	2992.08
780.90	3237.84
781.07	3377.10
781.25	3303.37
781.43	3434.44
781.60	3207.12
781.78	3715.02
781.95	3502.03
782.13	3125.20
782.31	3209.17
782.48	3098.58
782.66	3420.11
782.83	3393.48
783.01	3338.19
783.19	3682.25
783.36	3391.44
783.54	3131.34
783.72	3289.04
783.89	3344.33
784.07	3467.21
784.24	3317.71
784.42	3377.10
784.60	3461.07
784.77	3479.50
784.95	2901.97
785.12	3205.07
785.30	3356.62
785.47	3241.93
785.65	3061.71
785.83	3293.13
786.00	3381.20
786.18	3446.73
786.35	3145.68
786.53	3049.43
786.71	3760.07
786.88	3585.99
787.06	3307.47
787.23	3258.32
787.41	3172.30
787.58	3346.38
787.76	3071.95
787.94	3196.88
788.11	3532.75
788.29	3215.31
788.46	3188.69
788.64	3008.47
788.81	3356.62
788.99	3319.76
789.16	3168.21
789.34	3190.74
789.52	3360.72
789.69	3254.22
789.87	2971.60
790.04	3153.87
790.22	3368.91
790.39	3815.37
790.57	3106.77
790.74	3110.86
790.92	3659.72
791.09	3035.09
791.27	3323.85
791.44	3268.56
791.62	3295.18
791.79	3622.86
791.97	3293.13
792.15	3592.14
792.32	3573.71
792.50	3577.80
792.67	3452.88
792.85	3469.26
793.02	3567.56
793.20	3286.99
793.37	3110.86
793.55	3012.56
793.72	3198.93
793.90	3612.62
794.07	3225.55
794.25	3117.01
794.42	3526.60
794.60	3350.48
794.77	3205.07
794.95	3393.48
795.12	3692.49
795.30	3444.68
795.47	2979.79
795.65	3561.42
795.82	3573.71
796.00	3286.99
796.17	3297.23
796.34	3123.15
796.52	3553.23
796.69	3577.80
796.87	3401.68
797.04	3368.91
797.22	3676.10
797.39	3532.75
797.57	3274.70
797.74	3270.61
797.92	3538.89
798.09	3231.69
798.27	3508.17
798.44	3198.93
798.62	3319.76
798.79	3428.30
798.96	3237.84
799.14	3162.06
799.31	4011.97
799.49	3420.11
799.66	3233.74
799.84	3209.17
800.01	3139.54
800.19	3518.41
800.36	2959.31
800.53	3221.45
800.71	3459.02
800.88	3831.75
801.06	3067.86
801.23	3125.20
801.41	3317.71
801.58	3239.89
801.75	3160.02
801.93	3203.02
802.10	3600.33
802.28	3336.14
802.45	3319.76
802.63	3276.75
802.80	3708.87
802.97	3311.57
803.15	3266.51
803.32	3196.88
803.50	3209.17
803.67	3246.03
803.84	3157.97
804.02	3266.51
804.19	3409.87
804.37	3010.51
804.54	2996.18
804.71	3151.82
804.89	3463.12
805.06	3237.84
805.24	3166.16
805.41	2992.08
805.58	3286.99
805.76	3925.96
805.93	3131.34
806.10	3352.52
806.28	3551.18
806.45	3465.16
806.63	3368.91
806.80	3239.89
806.97	3483.59
807.15	3497.93
807.32	3264.46
807.49	3141.58
807.67	3223.50
807.84	3559.37
808.01	3035.09
808.19	3319.76
808.36	3936.20
808.54	3293.13
808.71	3157.97
808.88	3110.86
809.06	3614.66
809.23	3788.74
809.40	3241.93
809.58	3135.44
809.75	3422.16
809.92	3145.68
810.10	3422.16
810.27	3139.54
810.44	3542.99
810.62	3598.28
810.79	3209.17
810.96	3227.60
811.14	3368.91
811.31	3473.36
811.48	3426.25
811.66	3295.18
811.83	3669.96
812.00	3575.75
812.18	3221.45
812.35	3547.08
812.52	3407.82
812.69	3344.33
812.87	3078.10
813.04	3121.10
813.21	3381.20
813.39	3262.41
813.56	3176.40
813.73	3485.64
813.91	3149.78
814.08	3479.50
814.25	3194.83
814.42	3014.61
814.60	3332.05
814.77	3557.32
814.94	3123.15
815.12	3305.42
815.29	3694.54
815.46	3311.57
815.63	3143.63
815.81	3213.26
815.98	3352.52
816.15	3512.27
816.33	3252.17
816.50	3229.65
816.67	3311.57
816.84	3366.86
817.02	3157.97
817.19	3172.30
817.36	3506.12
817.53	3522.51
817.71	3098.58
817.88	3215.31
818.05	3334.09
818.22	3368.91
818.40	3344.33
818.57	3166.16
818.74	3489.74
818.91	3319.76
819.09	3368.91
819.26	3354.57
819.43	3274.70
819.60	3352.52
819.78	3352.52
819.95	3223.50
820.12	3198.93
820.29	3850.18
820.47	3463.12
820.64	3110.86
820.81	3168.21
820.98	3200.98
821.15	3221.45
821.33	3356.62
821.50	3114.96
821.67	3573.71
821.84	3174.35
822.02	3196.88
822.19	3561.42
822.36	3334.09
822.53	3133.39
822.70	3090.38
822.88	3424.20
823.05	3721.16
823.22	3272.65
823.39	3213.26
823.56	3530.70
823.74	3913.67
823.91	3026.90
824.08	3160.02
824.25	3180.50
824.42	3753.93
824.60	3063.76
824.77	3311.57
824.94	3356.62
825.11	3532.75
825.28	3059.67
825.45	3344.33
825.63	3385.29
825.80	3256.27
825.97	3241.93
826.14	3270.61
826.31	3108.82
826.48	3502.03
826.66	3180.50
826.83	3110.86
827.00	3299.28
827.17	3327.95
827.34	3196.88
827.51	3129.30
827.69	3393.48
827.86	3106.77
828.03	3213.26
828.20	3303.37
828.37	3309.52
828.54	3559.37
828.71	3106.77
828.89	3262.41
829.06	3430.35
829.23	3674.06
829.40	3241.93
829.57	3172.30
829.74	3559.37
829.91	3348.43
830.09	3178.45
830.26	3459.02
830.43	3811.27
830.60	3354.57
830.77	3301.33
830.94	3397.58
831.11	3665.86
831.28	3299.28
831.46	3321.81
831.63	3176.40
831.80	3655.62
831.97	3196.88
832.14	3198.93
832.31	3225.55
832.48	3442.64
832.65	3624.90
832.82	3274.70
832.99	3225.55
833.17	3160.02
833.34	3686.34
833.51	3114.96
833.68	2934.74
833.85	3698.63
834.02	3280.85
834.19	3100.62
834.36	3217.36
834.53	3518.41
834.70	3686.34
834.87	3080.14
835.04	2895.83
835.22	3268.56
835.39	3418.06
835.56	2961.36
835.73	3010.51
835.90	3725.26
836.07	3246.03
836.24	3213.26
836.41	2922.45
836.58	3215.31
836.75	3590.09
836.92	3035.09
837.09	2904.02
837.26	3579.85
837.43	3526.60
837.60	3063.76
837.77	2994.13
837.94	3682.25
838.12	3633.10
838.29	2932.69
838.46	2897.88
838.63	3213.26
838.80	3827.65
838.97	3030.99
839.14	2977.75
839.31	3506.12
839.48	3551.18
839.65	3088.34
839.82	3078.10
839.99	3436.49
840.16	3469.26
840.33	2942.93
840.50	3051.47
840.67	3274.70
840.84	2877.40
841.01	2963.41
841.18	2918.36
841.35	3389.39
841.52	3643.34
841.69	3348.43
841.86	3082.19
842.03	3381.20
842.20	3594.19
842.37	3000.27
842.54	2987.99
842.71	3434.44
842.88	3065.81
843.05	3104.72
843.22	3045.33
843.39	3528.65
843.56	3313.61
843.73	2985.94
843.90	3018.71
844.07	3403.72
844.24	3643.34
844.41	3071.95
844.58	3002.32
844.75	3450.83
844.92	3555.27
845.09	2994.13
845.26	3004.37
845.43	3651.53
845.60	3268.56
845.77	3147.73
845.94	3151.82
846.10	3614.66
846.27	3139.54
846.44	2893.78
846.61	2928.60
846.78	3569.61
846.95	3608.52
847.12	2965.46
847.29	3000.27
847.46	3221.45
847.63	3629.00
847.80	2858.96
847.97	3053.52
848.14	3928.00
848.31	3475.40
848.48	2897.88
848.65	2951.12
848.82	3274.70
848.98	3987.40
849.15	3131.34
849.32	3200.98
849.49	3524.55
849.66	3391.44
849.83	2975.70
850.00	2992.08
850.17	3528.65
850.34	3344.33
850.51	2926.55
850.68	2977.75
850.85	4007.87
851.01	3438.54
851.18	2928.60
851.35	3092.43
851.52	3448.78
851.69	3706.82
851.86	3004.37
852.03	2961.36
852.20	3545.03
852.37	3389.39
852.53	2922.45
852.70	2953.17
852.87	3446.73
853.04	3641.29
853.21	2963.41
853.38	3399.63
853.55	3647.43
853.72	3741.64
853.89	2924.50
854.05	2987.99
854.22	3483.59
854.39	3303.37
854.56	2992.08
854.73	3178.45
854.90	3297.23
855.07	3426.25
855.23	2881.49
855.40	2944.98
855.57	3377.10
855.74	2985.94
855.91	3246.03
856.08	2803.67
856.25	3182.54
856.41	3299.28
856.58	3016.66
856.75	2985.94
856.92	3139.54
857.09	3626.95
857.26	2805.72
857.42	3041.23
857.59	3516.36
857.76	3321.81
857.93	2963.41
858.10	3211.22
858.27	3194.83
858.43	3491.79
858.60	3055.57
858.77	2938.84
858.94	3317.71
859.11	3624.90
859.27	3094.48
859.44	2869.20
859.61	3911.62
859.78	3516.36
859.95	3049.43
860.12	2926.55
860.28	3909.57
860.45	3776.45
860.62	2969.55
860.79	3176.40
860.95	3332.05
861.12	3231.69
861.29	2934.74
861.46	2994.13
861.63	3411.92
861.79	3385.29
861.96	2904.02
862.13	3000.27
862.30	3766.21
862.47	3274.70
862.63	3012.56
862.80	3106.77
862.97	3545.03
863.14	3557.32
863.30	3131.34
863.47	2971.60
863.64	3770.31
863.81	3465.16
863.97	2934.74
864.14	3078.10
864.31	3336.14
864.48	3459.02
864.65	2934.74
864.81	3180.50
864.98	3485.64
865.15	3645.38
865.32	3024.85
865.48	3069.91
865.65	3700.68
865.82	3266.51
865.98	3063.76
866.15	3035.09
866.32	3403.72
866.49	3418.06
866.65	3186.64
866.82	3082.19
866.99	3430.35
867.16	3278.80
867.32	3033.04
867.49	2928.60
867.66	3383.24
867.83	3260.37
867.99	2922.45
868.16	3071.95
868.33	3059.67
868.49	3514.31
868.66	3020.75
868.83	3100.62
868.99	3454.92
869.16	3401.68
869.33	3168.21
869.50	3141.58
869.66	3397.58
869.83	3313.61
870.00	2961.36
870.16	3125.20
870.33	3409.87
870.50	3649.48
870.66	3078.10
870.83	3059.67
871.00	3405.77
871.17	3608.52
871.33	3135.44
871.50	2971.60
871.67	3440.59
871.83	3356.62
872.00	3061.71
872.17	3030.99
872.33	3725.26
872.50	3639.24
872.67	3030.99
872.83	2998.23
873.00	3512.27
873.17	3477.45
873.33	3057.62
873.50	3041.23
873.67	3207.12
873.83	3327.95
874.00	3039.19
874.16	3180.50
874.33	3420.11
874.50	3221.45
874.66	2983.89
874.83	3106.77
875.00	3669.96
875.16	3643.34
875.33	3168.21
875.50	2846.68
875.66	3309.52
875.83	3391.44
875.99	3090.38
876.16	3121.10
876.33	3250.13
876.49	3473.36
876.66	2996.18
876.83	3041.23
876.99	3059.67
877.16	3393.48
877.32	2926.55
877.49	3180.50
877.66	3588.04
877.82	3831.75
877.99	3096.53
878.15	3305.42
878.32	3516.36
878.49	3424.20
878.65	3131.34
878.82	3336.14
878.98	3315.66
879.15	3649.48
879.32	3139.54
879.48	3221.45
879.65	3397.58
879.81	3286.99
879.98	3026.90
880.15	3135.44
880.31	3596.23
880.48	3246.03
880.64	3074.00
880.81	3196.88
880.97	3692.49
881.14	3692.49
881.31	2977.75
881.47	3168.21
881.64	3381.20
881.80	3133.39
881.97	3172.30
882.13	3051.47
882.30	3241.93
882.47	3266.51
882.63	3012.56
882.80	3061.71
882.96	3364.81
883.13	3553.23
883.29	3094.48
883.46	3049.43
883.62	3930.05
883.79	3373.00
883.95	3188.69
884.12	3018.71
884.29	3700.68
884.45	3459.02
884.62	3074.00
884.78	3016.66
884.95	3749.83
885.11	3241.93
885.28	3141.58
885.44	3074.00
885.61	3569.61
885.77	3651.53
885.94	3164.11
886.10	3086.29
886.27	3483.59
886.43	3755.97
886.60	3188.69
886.76	3033.04
886.93	3237.84
887.09	3434.44
887.26	2926.55
887.42	3172.30
887.59	3661.77
887.75	3925.96
887.92	3323.85
888.08	3172.30
888.25	3915.72
888.41	3631.05
888.58	3112.91
888.74	2987.99
888.91	3350.48
>>>>>End Processed Spectral Data<<<<<
