SpectraSuite Data File
++++++++++++++++++++++++++++++++++++
Date: Fri May 06 09:28:59 CEST 2016
User: root
Dark Spectrum Present: No
Reference Spectrum Present: No
Number of Sampled Component Spectra: 1
Spectrometers: USB4C02835
Integration Time (usec): 100000 (USB4C02835)
Spectra Averaged: 1 (USB4C02835)
Boxcar Smoothing: 0 (USB4C02835)
Correct for Electrical Dark: No (USB4C02835)
Strobe/Lamp Enabled: No (USB4C02835)
Correct for Detector Non-linearity: No (USB4C02835)
Correct for Stray Light: No (USB4C02835)
Number of Pixels in Processed Spectrum: 3648
>>>>>Begin Processed Spectral Data<<<<<
177.47	2371.55
177.69	2371.55
177.91	2371.55
178.13	2369.50
178.36	2330.59
178.58	3198.93
178.80	3311.57
179.02	3141.58
179.24	3225.55
179.46	2910.16
179.68	2932.69
179.90	3295.18
180.13	3477.45
180.35	2768.85
180.57	2838.48
180.79	3606.47
181.01	3321.81
181.23	2971.60
181.45	3162.06
181.67	3551.18
181.90	3639.24
182.12	3078.10
182.34	2830.29
182.56	3641.29
182.78	3592.14
183.00	2912.21
183.22	2914.26
183.44	3008.47
183.66	4132.80
183.89	3174.35
184.11	2963.41
184.33	3606.47
184.55	3706.82
184.77	2881.49
184.99	2983.89
185.21	3393.48
185.43	3971.01
185.65	2936.79
185.87	2951.12
186.10	3991.49
186.32	3987.40
186.54	3110.86
186.76	3012.56
186.98	3717.06
187.20	3401.68
187.42	3004.37
187.64	2930.64
187.86	3540.94
188.08	3655.62
188.30	2926.55
188.52	3006.42
188.75	3688.39
188.97	3698.63
189.19	2899.92
189.41	2906.07
189.63	3518.41
189.85	3360.72
190.07	2797.53
190.29	2801.62
190.51	3633.10
190.73	3209.17
190.95	3219.41
191.17	3000.27
191.39	3157.97
191.61	3416.01
191.84	3053.52
192.06	3080.14
192.28	3108.82
192.50	4249.54
192.72	3112.91
192.94	3104.72
193.16	3719.11
193.38	3502.03
193.60	2883.54
193.82	3270.61
194.04	3635.14
194.26	3475.40
194.48	2973.65
194.70	3024.85
194.92	3442.64
195.14	3606.47
195.36	2863.06
195.58	2985.94
195.80	3430.35
196.02	3313.61
196.24	2953.17
196.46	3016.66
196.69	3352.52
196.91	3940.29
197.13	3119.06
197.35	3035.09
197.57	3778.50
197.79	3608.52
198.01	3016.66
198.23	3002.32
198.45	3602.38
198.67	3207.12
198.89	2762.71
199.11	3160.02
199.33	3282.89
199.55	2959.31
199.77	2918.36
199.99	3094.48
200.21	3303.37
200.43	3542.99
200.65	2828.24
200.87	2809.81
201.09	3459.02
201.31	3438.54
201.53	2975.70
201.75	3192.78
201.97	3532.75
202.19	3387.34
202.41	3057.62
202.63	3018.71
202.85	3600.33
203.07	3459.02
203.29	3104.72
203.51	2828.24
203.73	3395.53
203.95	4104.13
204.17	2918.36
204.39	3182.54
204.61	3426.25
204.83	3295.18
205.05	3190.74
205.27	3018.71
205.49	3866.56
205.71	3426.25
205.93	2815.96
206.15	2787.29
206.37	3516.36
206.59	3411.92
206.81	2766.81
207.03	2820.05
207.25	3272.65
207.47	3633.10
207.69	2959.31
207.91	3237.84
208.13	3893.19
208.34	3256.27
208.56	2877.40
208.78	3000.27
209.00	3448.78
209.22	3299.28
209.44	2987.99
209.66	2936.79
209.88	3497.93
210.10	3411.92
210.32	2912.21
210.54	3065.81
210.76	3409.87
210.98	3610.57
211.20	2828.24
211.42	3092.43
211.64	3702.73
211.86	3594.19
212.08	3004.37
212.30	2936.79
212.52	3352.52
212.74	3647.43
212.96	3110.86
213.17	3024.85
213.39	3522.51
213.61	3831.75
213.83	2916.31
214.05	2844.63
214.27	3655.62
214.49	3166.16
214.71	2914.26
214.93	3135.44
215.15	3497.93
215.37	3723.21
215.59	2867.16
215.81	3020.75
216.03	3825.61
216.24	3436.49
216.46	3024.85
216.68	3035.09
216.90	3676.10
217.12	3747.78
217.34	2904.02
217.56	3180.50
217.78	3803.08
218.00	3573.71
218.22	3108.82
218.44	3092.43
218.66	3559.37
218.87	3798.98
219.09	3053.52
219.31	2994.13
219.53	3497.93
219.75	3352.52
219.97	3000.27
220.19	3059.67
220.41	3385.29
220.63	3745.73
220.85	3030.99
221.06	3002.32
221.28	3778.50
221.50	3614.66
221.72	2959.31
221.94	2854.87
222.16	3450.83
222.38	3684.30
222.60	3000.27
222.82	3117.01
223.03	3733.45
223.25	3153.87
223.47	2885.59
223.69	3200.98
223.91	3549.13
224.13	3452.88
224.35	2912.21
224.57	3160.02
224.78	3717.06
225.00	3205.07
225.22	3026.90
225.44	2879.44
225.66	3614.66
225.88	3305.42
226.10	3215.31
226.32	2947.03
226.53	3770.31
226.75	3303.37
226.97	3094.48
227.19	2926.55
227.41	3270.61
227.63	3459.02
227.85	2785.24
228.06	3065.81
228.28	3450.83
228.50	3647.43
228.72	2805.72
228.94	2883.54
229.16	3102.67
229.37	3100.62
229.59	2858.96
229.81	3262.41
230.03	3373.00
230.25	3246.03
230.47	2791.38
230.69	2947.03
230.90	3633.10
231.12	3368.91
231.34	3043.28
231.56	3014.61
231.78	3268.56
232.00	3411.92
232.21	3084.24
232.43	2955.22
232.65	3018.71
232.87	3508.17
233.09	2813.91
233.30	2930.64
233.52	3669.96
233.74	3469.26
233.96	2910.16
234.18	3205.07
234.40	3321.81
234.61	4016.07
234.83	2869.20
235.05	2844.63
235.27	3997.64
235.49	3813.32
235.70	2840.53
235.92	3053.52
236.14	3620.81
236.36	3944.39
236.58	2885.59
236.79	3035.09
237.01	3383.24
237.23	3409.87
237.45	3194.83
237.67	3080.14
237.88	3540.94
238.10	3928.00
238.32	2873.30
238.54	2881.49
238.76	3407.82
238.97	3198.93
239.19	2885.59
239.41	3106.77
239.63	3758.02
239.85	3385.29
240.06	3071.95
240.28	2975.70
240.50	3706.82
240.72	3440.59
240.93	2899.92
241.15	3119.06
241.37	3485.64
241.59	3809.22
241.81	3008.47
242.02	3037.14
242.24	3512.27
242.46	3678.15
242.68	2775.00
242.89	2887.64
243.11	3649.48
243.33	3418.06
243.55	2998.23
243.76	2940.88
243.98	3360.72
244.20	3436.49
244.42	2922.45
244.64	2922.45
244.85	3223.50
245.07	3225.55
245.29	2951.12
245.51	3035.09
245.72	3532.75
245.94	3598.28
246.16	2867.16
246.38	2930.64
246.59	3362.76
246.81	3362.76
247.03	2834.39
247.24	2781.14
247.46	3477.45
247.68	3577.80
247.90	2893.78
248.11	2895.83
248.33	3631.05
248.55	3395.53
248.77	2967.51
248.98	3065.81
249.20	3878.85
249.42	3475.40
249.64	2861.01
249.85	2940.88
250.07	3413.96
250.29	3663.82
250.50	3053.52
250.72	2908.12
250.94	3526.60
251.16	3956.68
251.37	2926.55
251.59	3098.58
251.81	3489.74
252.02	3743.69
252.24	2922.45
252.46	3123.15
252.68	3311.57
252.89	3284.94
253.11	2783.19
253.33	3164.11
253.54	3819.46
253.76	3262.41
253.98	2959.31
254.20	2994.13
254.41	3147.73
254.63	3379.15
254.85	2852.82
255.06	3108.82
255.28	3604.42
255.50	3459.02
255.71	2971.60
255.93	2822.10
256.15	3459.02
256.36	3631.05
256.58	2895.83
256.80	2869.20
257.02	3424.20
257.23	3360.72
257.45	3008.47
257.67	3069.91
257.88	3338.19
258.10	3553.23
258.32	3000.27
258.53	3051.47
258.75	3889.09
258.97	3278.80
259.18	2897.88
259.40	2930.64
259.62	3860.42
259.83	3739.59
260.05	2963.41
260.27	3946.44
260.48	3686.34
260.70	3172.30
260.92	2824.15
261.13	3018.71
261.35	3426.25
261.57	3524.55
261.78	2863.06
262.00	2936.79
262.22	3667.91
262.43	3268.56
262.65	2951.12
262.86	3065.81
263.08	4112.32
263.30	3446.73
263.51	2818.00
263.73	2928.60
263.95	3706.82
264.16	3280.85
264.38	2834.39
264.60	2922.45
264.81	3364.81
265.03	3762.12
265.25	3465.16
265.46	2920.40
265.68	3723.21
265.89	3536.84
266.11	2846.68
266.33	2955.22
266.54	3745.73
266.76	3565.51
266.98	3049.43
267.19	3188.69
267.41	3698.63
267.62	3340.24
267.84	2754.52
268.06	3074.00
268.27	3549.13
268.49	3686.34
268.70	2987.99
268.92	2979.79
269.14	3246.03
269.35	3190.74
269.57	3059.67
269.79	3051.47
270.00	3291.09
270.22	3784.65
270.43	2875.35
270.65	2813.91
270.87	3430.35
271.08	3655.62
271.30	3071.95
271.51	2969.55
271.73	3581.90
271.95	3717.06
272.16	2889.68
272.38	3090.38
272.59	3315.66
272.81	3528.65
273.02	2918.36
273.24	3051.47
273.46	3686.34
273.67	3284.94
273.89	2801.62
274.10	3000.27
274.32	3702.73
274.54	3532.75
274.75	3123.15
274.97	3090.38
275.18	3614.66
275.40	3567.56
275.61	2947.03
275.83	3141.58
276.05	3157.97
276.26	3317.71
276.48	3080.14
276.69	3125.20
276.91	3274.70
277.12	3747.78
277.34	3139.54
277.55	3172.30
277.77	3440.59
277.99	3340.24
278.20	3139.54
278.42	2985.94
278.63	3303.37
278.85	3303.37
279.06	3117.01
279.28	3182.54
279.49	3674.06
279.71	3475.40
279.93	3190.74
280.14	3059.67
280.36	3229.65
280.57	3682.25
280.79	3135.44
281.00	3000.27
281.22	3387.34
281.43	3667.91
281.65	2969.55
281.86	2983.89
282.08	3577.80
282.29	3882.95
282.51	2924.50
282.73	2983.89
282.94	3131.34
283.16	3624.90
283.37	3145.68
283.59	3076.05
283.80	3444.68
284.02	3358.67
284.23	3176.40
284.45	3131.34
284.66	3266.51
284.88	3295.18
285.09	2992.08
285.31	3168.21
285.52	3516.36
285.74	3119.06
285.95	3307.47
286.17	3131.34
286.38	3686.34
286.60	3317.71
286.81	3047.38
287.03	3055.57
287.24	3506.12
287.46	3602.38
287.67	3241.93
287.89	3313.61
288.10	3473.36
288.32	3434.44
288.53	3207.12
288.75	3162.06
288.96	3674.06
289.18	3305.42
289.39	3020.75
289.61	3164.11
289.82	3907.52
290.04	3846.09
290.25	2975.70
290.47	3190.74
290.68	3452.88
290.90	3684.30
291.11	2920.40
291.33	3215.31
291.54	3268.56
291.76	3303.37
291.97	3194.83
292.18	3151.82
292.40	3274.70
292.61	3295.18
292.83	3407.82
293.04	3125.20
293.26	3526.60
293.47	3313.61
293.69	3045.33
293.90	2877.40
294.12	3770.31
294.33	3463.12
294.55	3141.58
294.76	3284.94
294.97	3690.44
295.19	3950.53
295.40	3106.77
295.62	3174.35
295.83	3692.49
296.05	3256.27
296.26	3346.38
296.48	3074.00
296.69	3387.34
296.90	3403.72
297.12	3231.69
297.33	3239.89
297.55	3508.17
297.76	3545.03
297.98	3205.07
298.19	3327.95
298.41	3434.44
298.62	3254.22
298.83	3278.80
299.05	3227.60
299.26	3270.61
299.48	3321.81
299.69	3129.30
299.90	3069.91
300.12	3319.76
300.33	3532.75
300.55	3176.40
300.76	3246.03
300.98	3239.89
301.19	3608.52
301.40	3106.77
301.62	3143.63
301.83	3598.28
302.05	3362.76
302.26	3098.58
302.47	3217.36
302.69	3227.60
302.90	3469.26
303.12	2904.02
303.33	3237.84
303.54	3899.33
303.76	3301.33
303.97	2987.99
304.19	3303.37
304.40	3323.85
304.61	3516.36
304.83	3135.44
305.04	3174.35
305.26	3540.94
305.47	3321.81
305.68	3092.43
305.90	3049.43
306.11	3854.28
306.33	3348.43
306.54	2953.17
306.75	2992.08
306.97	3215.31
307.18	3248.08
307.39	3037.14
307.61	3225.55
307.82	3483.59
308.04	3551.18
308.25	2955.22
308.46	3198.93
308.68	3518.41
308.89	3508.17
309.10	3178.45
309.32	3129.30
309.53	3504.07
309.74	3569.61
309.96	3065.81
310.17	3192.78
310.39	3362.76
310.60	3692.49
310.81	3053.52
311.03	2959.31
311.24	3596.23
311.45	3444.68
311.67	3405.77
311.88	3262.41
312.09	3311.57
312.31	3356.62
312.52	2957.27
312.73	3094.48
312.95	3149.78
313.16	3268.56
313.37	3262.41
313.59	3293.13
313.80	3694.54
314.01	3684.30
314.23	3147.73
314.44	3047.38
314.65	3168.21
314.87	3319.76
315.08	3065.81
315.29	3061.71
315.51	3295.18
315.72	3135.44
315.93	3164.11
316.15	3139.54
316.36	3323.85
316.57	3428.30
316.79	3045.33
317.00	3028.95
317.21	3530.70
317.43	3213.26
317.64	3117.01
317.85	3016.66
318.07	3200.98
318.28	3346.38
318.49	3198.93
318.70	3364.81
318.92	3545.03
319.13	3426.25
319.34	3248.08
319.56	3043.28
319.77	3551.18
319.98	3553.23
320.20	3364.81
320.41	3248.08
320.62	3585.99
320.83	3246.03
321.05	3299.28
321.26	3141.58
321.47	3542.99
321.69	3737.54
321.90	3065.81
322.11	3024.85
322.32	3534.79
322.54	3805.13
322.75	3131.34
322.96	4272.06
323.18	3237.84
323.39	2994.13
323.60	2959.31
323.81	3254.22
324.03	3264.46
324.24	3461.07
324.45	3221.45
324.66	3049.43
324.88	3600.33
325.09	3737.54
325.30	3063.76
325.52	3016.66
325.73	3459.02
325.94	3330.00
326.15	2926.55
326.37	2973.65
326.58	3592.14
326.79	3827.65
327.00	2994.13
327.22	3049.43
327.43	3385.29
327.64	3295.18
327.85	3200.98
328.07	3184.59
328.28	3962.82
328.49	3246.03
328.70	3121.10
328.92	3209.17
329.13	3461.07
329.34	3663.82
329.55	3360.72
329.76	3258.32
329.98	3356.62
330.19	3764.17
330.40	3166.16
330.61	3301.33
330.83	3555.27
331.04	3225.55
331.25	3198.93
331.46	3121.10
331.68	3213.26
331.89	3649.48
332.10	3174.35
332.31	2936.79
332.52	3368.91
332.74	3733.45
332.95	2938.84
333.16	3139.54
333.37	3616.71
333.58	3301.33
333.80	3090.38
334.01	2885.59
334.22	3465.16
334.43	3327.95
334.64	3010.51
334.86	3198.93
335.07	3315.66
335.28	3729.35
335.49	3000.27
335.70	3157.97
335.92	3815.37
336.13	3860.42
336.34	3155.92
336.55	3119.06
336.76	3438.54
336.98	3022.80
337.19	3071.95
337.40	3198.93
337.61	4028.35
337.82	3364.81
338.04	3149.78
338.25	2975.70
338.46	3397.58
338.67	3518.41
338.88	3086.29
339.09	3018.71
339.31	3344.33
339.52	3219.41
339.73	3008.47
339.94	3174.35
340.15	3674.06
340.36	3229.65
340.58	3303.37
340.79	3106.77
341.00	3559.37
341.21	3137.49
341.42	3364.81
341.63	2987.99
341.85	3715.02
342.06	3491.79
342.27	3082.19
342.48	3250.13
342.69	3123.15
342.90	3573.71
343.12	3583.95
343.33	3020.75
343.54	3680.20
343.75	3753.93
343.96	3284.94
344.17	3045.33
344.38	3434.44
344.60	3141.58
344.81	3074.00
345.02	3131.34
345.23	3633.10
345.44	3936.20
345.65	3157.97
345.86	3164.11
346.07	3561.42
346.29	3241.93
346.50	3213.26
346.71	3231.69
346.92	3696.58
347.13	3948.48
347.34	3209.17
347.55	2977.75
347.76	3545.03
347.98	3203.02
348.19	3170.26
348.40	3286.99
348.61	3297.23
348.82	3690.44
349.03	3176.40
349.24	3069.91
349.45	3850.18
349.66	3008.47
349.88	3035.09
350.09	3014.61
350.30	3794.89
350.51	3692.49
350.72	3368.91
350.93	3149.78
351.14	3332.05
351.35	3590.09
351.56	3106.77
351.77	3117.01
351.99	3526.60
352.20	3891.14
352.41	3186.64
352.62	2977.75
352.83	3444.68
353.04	3459.02
353.25	3035.09
353.46	3160.02
353.67	3641.29
353.88	3043.28
354.09	2977.75
354.30	3213.26
354.52	3661.77
354.73	3395.53
354.94	3110.86
355.15	3219.41
355.36	3897.28
355.57	3307.47
355.78	3028.95
355.99	3090.38
356.20	3395.53
356.41	3698.63
356.62	3149.78
356.83	3055.57
357.04	3719.11
357.25	3209.17
357.46	3035.09
357.68	3004.37
357.89	3264.46
358.10	3448.78
358.31	3127.25
358.52	3211.22
358.73	3225.55
358.94	3188.69
359.15	3147.73
359.36	3098.58
359.57	3327.95
359.78	3299.28
359.99	3354.57
360.20	2979.79
360.41	3434.44
360.62	3592.14
360.83	3151.82
361.04	3174.35
361.25	3624.90
361.46	3798.98
361.67	3235.79
361.88	3108.82
362.09	3573.71
362.30	3594.19
362.51	3063.76
362.72	3145.68
362.93	3487.69
363.14	3575.75
363.35	3219.41
363.56	3041.23
363.78	3715.02
363.99	3680.20
364.20	3117.01
364.41	3137.49
364.62	3796.93
364.83	3502.03
365.04	3114.96
365.25	3164.11
365.46	3911.62
365.67	3303.37
365.88	3350.48
366.09	3090.38
366.30	3405.77
366.51	3450.83
366.72	3028.95
366.93	2994.13
367.14	3506.12
367.35	3710.92
367.56	3049.43
367.77	3233.74
367.98	3370.96
368.18	3631.05
368.39	3266.51
368.60	3084.24
368.81	3598.28
369.02	3522.51
369.23	3188.69
369.44	2963.41
369.65	3432.40
369.86	3618.76
370.07	3147.73
370.28	2983.89
370.49	3520.46
370.70	3493.83
370.91	2981.84
371.12	2967.51
371.33	3669.96
371.54	3241.93
371.75	3149.78
371.96	2836.44
372.17	3405.77
372.38	3420.11
372.59	3110.86
372.80	3008.47
373.01	3325.90
373.22	3471.31
373.43	3055.57
373.64	2951.12
373.85	3790.79
374.06	3813.32
374.26	3319.76
374.47	3225.55
374.68	3778.50
374.89	3487.69
375.10	3086.29
375.31	3217.36
375.52	3461.07
375.73	3469.26
375.94	2994.13
376.15	3219.41
376.36	3311.57
376.57	3420.11
376.78	3168.21
376.99	3207.12
377.20	3712.97
377.40	3317.71
377.61	3424.20
377.82	3123.15
378.03	3893.19
378.24	3590.09
378.45	3336.14
378.66	3166.16
378.87	3065.81
379.08	3114.96
379.29	3104.72
379.50	3254.22
379.71	3420.11
379.91	3557.32
380.12	3024.85
380.33	3237.84
380.54	3409.87
380.75	3422.16
380.96	3147.73
381.17	3180.50
381.38	3485.64
381.59	3475.40
381.80	3174.35
382.00	3227.60
382.21	3459.02
382.42	3731.40
382.63	3360.72
382.84	3295.18
383.05	3633.10
383.26	3706.82
383.47	3237.84
383.68	3053.52
383.88	3497.93
384.09	3442.64
384.30	3282.89
384.51	3250.13
384.72	3334.09
384.93	3135.44
385.14	3229.65
385.35	3434.44
385.55	3119.06
385.76	3753.93
385.97	3176.40
386.18	2953.17
386.39	3233.74
386.60	3297.23
386.81	3020.75
387.02	3028.95
387.22	3252.17
387.43	3583.95
387.64	3246.03
387.85	3373.00
388.06	3418.06
388.27	4396.99
388.48	7325.58
388.68	11114.33
388.89	13930.28
389.10	14720.80
389.31	14503.71
389.52	11765.58
389.73	10325.86
389.93	9654.12
390.14	8484.73
390.35	8066.95
390.56	7440.27
390.77	6344.61
390.98	4863.93
391.18	3993.54
391.39	3936.20
391.60	3508.17
391.81	3377.10
392.02	3074.00
392.23	4069.31
392.43	3418.06
392.64	3223.50
392.85	3180.50
393.06	3889.09
393.27	3502.03
393.47	3164.11
393.68	3219.41
393.89	3385.29
394.10	3663.82
394.31	3076.05
394.52	3098.58
394.72	3323.85
394.93	3735.50
395.14	2990.03
395.35	3254.22
395.56	3368.91
395.76	3381.20
395.97	3178.45
396.18	3270.61
396.39	3467.21
396.60	4061.12
396.80	3477.45
397.01	3385.29
397.22	3485.64
397.43	3635.14
397.64	3123.15
397.84	3217.36
398.05	3844.04
398.26	3360.72
398.47	3243.98
398.67	3366.86
398.88	3444.68
399.09	3600.33
399.30	3143.63
399.51	3229.65
399.71	3246.03
399.92	3401.68
400.13	3203.02
400.34	3133.39
400.54	3504.07
400.75	3835.85
400.96	3196.88
401.17	3459.02
401.37	3540.94
401.58	3409.87
401.79	3102.67
402.00	3352.52
402.21	3979.20
402.41	3594.19
402.62	3385.29
402.83	3446.73
403.04	3729.35
403.24	4220.86
403.45	3272.65
403.66	3416.01
403.87	3659.72
404.07	3721.16
404.28	3387.34
404.49	3405.77
404.70	3567.56
404.90	3622.86
405.11	3119.06
405.32	3254.22
405.52	3299.28
405.73	3309.52
405.94	3096.53
406.15	3262.41
406.35	3612.62
406.56	3649.48
406.77	3254.22
406.98	3110.86
407.18	3282.89
407.39	3692.49
407.60	3096.53
407.80	3198.93
408.01	3334.09
408.22	3567.56
408.43	3024.85
408.63	3258.32
408.84	3602.38
409.05	3655.62
409.25	3059.67
409.46	3172.30
409.67	3334.09
409.88	3319.76
410.08	3262.41
410.29	3110.86
410.50	3590.09
410.70	3620.81
410.91	3117.01
411.12	3252.17
411.32	3450.83
411.53	3309.52
411.74	3143.63
411.95	3227.60
412.15	3432.40
412.36	3569.61
412.57	3370.96
412.77	3295.18
412.98	3395.53
413.19	3311.57
413.39	3258.32
413.60	3180.50
413.81	3672.01
414.01	3196.88
414.22	3137.49
414.43	3348.43
414.63	3338.19
414.84	3629.00
415.05	3243.98
415.25	3057.62
415.46	3575.75
415.67	3305.42
415.87	3174.35
416.08	3155.92
416.29	3297.23
416.49	3540.94
416.70	3174.35
416.91	3172.30
417.11	3424.20
417.32	3678.15
417.53	3293.13
417.73	3225.55
417.94	3440.59
418.15	3528.65
418.35	3153.87
418.56	3147.73
418.77	3835.85
418.97	3409.87
419.18	3327.95
419.38	2803.67
419.59	3499.98
419.80	3794.89
420.00	3074.00
420.21	3106.77
420.42	3774.41
420.62	3577.80
420.83	3164.11
421.04	3141.58
421.24	3463.12
421.45	3557.32
421.65	3196.88
421.86	3112.91
422.07	3581.90
422.27	3536.84
422.48	3067.86
422.69	3016.66
422.89	3385.29
423.10	3373.00
423.30	3100.62
423.51	3221.45
423.72	3639.24
423.92	3639.24
424.13	3043.28
424.33	3246.03
424.54	3612.62
424.75	3516.36
424.95	3393.48
425.16	3057.62
425.36	3377.10
425.57	3655.62
425.78	3289.04
425.98	3336.14
426.19	3504.07
426.39	3286.99
426.60	3340.24
426.81	3311.57
427.01	3477.45
427.22	3289.04
427.42	2969.55
427.63	3074.00
427.83	3669.96
428.04	3821.51
428.25	3254.22
428.45	3262.41
428.66	3796.93
428.86	3385.29
429.07	3246.03
429.28	3192.78
429.48	3516.36
429.69	3272.65
429.89	3227.60
430.10	3110.86
430.30	3708.87
430.51	3674.06
430.71	3098.58
430.92	3186.64
431.13	3358.67
431.33	3471.31
431.54	3307.47
431.74	3354.57
431.95	3891.14
432.15	3188.69
432.36	3135.44
432.56	3155.92
432.77	3901.38
432.98	3786.69
433.18	3237.84
433.39	2992.08
433.59	3352.52
433.80	3903.43
434.00	3323.85
434.21	3235.79
434.41	3258.32
434.62	3899.33
434.82	3033.04
435.03	3074.00
435.23	3508.17
435.44	3127.25
435.64	3069.91
435.85	3219.41
436.06	3633.10
436.26	3649.48
436.47	3143.63
436.67	3139.54
436.88	3477.45
437.08	3684.30
437.29	3373.00
437.49	3348.43
437.70	3710.92
437.90	3403.72
438.11	3360.72
438.31	3280.85
438.52	3692.49
438.72	3682.25
438.93	3555.27
439.13	3252.17
439.34	3549.13
439.54	3377.10
439.75	3233.74
439.95	3270.61
440.16	3231.69
440.36	3434.44
440.57	3139.54
440.77	3160.02
440.98	3442.64
441.18	3542.99
441.39	3108.82
441.59	3076.05
441.80	3870.66
442.00	3420.11
442.21	3256.27
442.41	2985.94
442.62	3588.04
442.82	3311.57
443.02	3135.44
443.23	3135.44
443.43	3375.05
443.64	3762.12
443.84	3092.43
444.05	3241.93
444.25	3491.79
444.46	3336.14
444.66	3112.91
444.87	3368.91
445.07	3119.06
445.28	3307.47
445.48	3327.95
445.69	3262.41
445.89	3962.82
446.09	3483.59
446.30	3491.79
446.50	3581.90
446.71	4970.42
446.91	6094.76
447.12	6852.50
447.32	7370.64
447.53	7362.45
447.73	6100.90
447.93	5228.46
448.14	5130.16
448.34	5425.07
448.55	4466.62
448.75	4339.65
448.96	4132.80
449.16	4265.92
449.36	4030.40
449.57	3327.95
449.77	3149.78
449.98	3289.04
450.18	3547.08
450.39	3049.43
450.59	3428.30
450.79	3454.92
451.00	3311.57
451.20	3370.96
451.41	3100.62
451.61	3559.37
451.81	3444.68
452.02	3110.86
452.22	3119.06
452.43	3241.93
452.63	3295.18
452.84	3284.94
453.04	3016.66
453.24	3450.83
453.45	3262.41
453.65	3203.02
453.86	3231.69
454.06	3389.39
454.26	3524.55
454.47	3092.43
454.67	3340.24
454.87	3518.41
455.08	3405.77
455.28	3330.00
455.49	3311.57
455.69	3354.57
455.89	3993.54
456.10	3286.99
456.30	3096.53
456.51	3497.93
456.71	3508.17
456.91	3260.37
457.12	3090.38
457.32	3551.18
457.52	3246.03
457.73	3336.14
457.93	3258.32
458.14	3286.99
458.34	3172.30
458.54	3180.50
458.75	3088.34
458.95	3674.06
459.15	3493.83
459.36	3168.21
459.56	3117.01
459.76	3983.30
459.97	3520.46
460.17	3186.64
460.37	3231.69
460.58	3483.59
460.78	3585.99
460.99	3215.31
461.19	3182.54
461.39	3395.53
461.60	3416.01
461.80	3217.36
462.00	3059.67
462.21	3420.11
462.41	3262.41
462.61	3055.57
462.82	2979.79
463.02	3512.27
463.22	3407.82
463.43	3157.97
463.63	3033.04
463.83	3719.11
464.04	3459.02
464.24	3106.77
464.44	3090.38
464.64	3532.75
464.85	3633.10
465.05	3291.09
465.25	3028.95
465.46	3336.14
465.66	3553.23
465.86	3229.65
466.07	3137.49
466.27	3393.48
466.47	3057.62
466.68	3082.19
466.88	3248.08
467.08	3534.79
467.29	3655.62
467.49	3149.78
467.69	3323.85
467.89	3602.38
468.10	3405.77
468.30	3325.90
468.50	3235.79
468.71	3631.05
468.91	3145.68
469.11	3352.52
469.31	3256.27
469.52	3246.03
469.72	3841.99
469.92	3366.86
470.13	3174.35
470.33	3385.29
470.53	3545.03
470.73	3497.93
470.94	3905.48
471.14	4040.64
471.34	4523.96
471.54	4143.04
471.75	3848.13
471.95	3684.30
472.15	3792.84
472.36	3680.20
472.56	3563.47
472.76	3962.82
472.96	3809.22
473.17	3436.49
473.37	3252.17
473.57	3346.38
473.77	3606.47
473.98	3330.00
474.18	3131.34
474.38	4169.66
474.58	3291.09
474.79	2985.94
474.99	3303.37
475.19	3667.91
475.39	3196.88
475.60	3262.41
475.80	3082.19
476.00	3463.12
476.20	3350.48
476.41	3282.89
476.61	3231.69
476.81	3792.84
477.01	3346.38
477.21	3452.88
477.42	3280.85
477.62	3305.42
477.82	3643.34
478.02	3123.15
478.23	3074.00
478.43	3205.07
478.63	3332.05
478.83	3198.93
479.03	3229.65
479.24	3700.68
479.44	3835.85
479.64	3043.28
479.84	3002.32
480.04	3311.57
480.25	3635.14
480.45	3049.43
480.65	3082.19
480.85	3864.52
481.06	3305.42
481.26	3229.65
481.46	3170.26
481.66	3528.65
481.86	3258.32
482.06	3323.85
482.27	3233.74
482.47	3344.33
482.67	3553.23
482.87	3266.51
483.07	3188.69
483.28	3291.09
483.48	3149.78
483.68	3184.59
483.88	3047.38
484.08	3022.80
484.29	3221.45
484.49	3250.13
484.69	2961.36
484.89	3672.01
485.09	3680.20
485.29	3207.12
485.50	3391.44
485.70	3403.72
485.90	3729.35
486.10	3243.98
486.30	3092.43
486.50	3835.85
486.71	3477.45
486.91	3270.61
487.11	3213.26
487.31	3149.78
487.51	3573.71
487.71	3196.88
487.91	3084.24
488.12	3282.89
488.32	2928.60
488.52	3176.40
488.72	2895.83
488.92	3418.06
489.12	3774.41
489.32	3295.18
489.53	3143.63
489.73	3139.54
489.93	3928.00
490.13	3141.58
490.33	3004.37
490.53	3452.88
490.73	3684.30
490.94	2977.75
491.14	3325.90
491.34	3553.23
491.54	3471.31
491.74	3979.20
491.94	4413.37
492.14	5193.65
492.34	5134.26
492.54	4583.35
492.75	4143.04
492.95	4462.52
493.15	4181.95
493.35	3897.28
493.55	3770.31
493.75	3835.85
493.95	4081.60
494.15	3413.96
494.35	3213.26
494.56	3438.54
494.76	3278.80
494.96	3375.05
495.16	3086.29
495.36	3471.31
495.56	3459.02
495.76	3278.80
495.96	3131.34
496.16	3262.41
496.36	3764.17
496.56	3098.58
496.77	3284.94
496.97	3360.72
497.17	3710.92
497.37	3039.19
497.57	3278.80
497.77	3526.60
497.97	3196.88
498.17	3246.03
498.37	3053.52
498.57	3565.51
498.77	3348.43
498.97	3360.72
499.17	3526.60
499.38	3346.38
499.58	3534.79
499.78	3358.67
499.98	3274.70
500.18	3438.54
500.38	3239.89
500.58	3385.29
500.78	3712.97
500.98	6176.67
501.18	7825.29
501.38	9217.91
501.58	10000.23
501.78	10024.81
501.98	8574.85
502.18	7206.80
502.38	6188.96
502.58	6305.70
502.78	5443.50
502.98	5269.42
503.18	4982.71
503.38	4855.73
503.59	4132.80
503.79	4016.07
503.99	3745.73
504.19	3897.28
504.39	3983.30
504.59	3667.91
504.79	3479.50
504.99	4044.74
505.19	3581.90
505.39	3356.62
505.59	3565.51
505.79	3876.80
505.99	3669.96
506.19	3254.22
506.39	3379.15
506.59	3233.74
506.79	3360.72
506.99	3448.78
507.19	3145.68
507.39	3426.25
507.59	3200.98
507.79	3145.68
507.99	3131.34
508.19	3340.24
508.39	3342.28
508.59	3110.86
508.79	3330.00
508.99	3866.56
509.19	3270.61
509.39	3221.45
509.59	3076.05
509.79	3270.61
509.99	3471.31
510.19	3260.37
510.39	3274.70
510.59	3583.95
510.79	3319.76
510.99	3012.56
511.19	3153.87
511.39	3862.47
511.59	3739.59
511.79	3340.24
511.99	3149.78
512.19	3739.59
512.38	3463.12
512.58	3184.59
512.78	3074.00
512.98	3682.25
513.18	3764.17
513.38	3131.34
513.58	3205.07
513.78	3391.44
513.98	3368.91
514.18	3196.88
514.38	3164.11
514.58	3555.27
514.78	3348.43
514.98	3045.33
515.18	3217.36
515.38	3147.73
515.58	3848.13
515.78	3196.88
515.98	3166.16
516.18	3680.20
516.38	3528.65
516.57	3057.62
516.77	3108.82
516.97	3483.59
517.17	3233.74
517.37	2955.22
517.57	3200.98
517.77	3475.40
517.97	3368.91
518.17	3168.21
518.37	3008.47
518.57	3248.08
518.77	3313.61
518.97	3215.31
519.16	3264.46
519.36	3712.97
519.56	3264.46
519.76	3018.71
519.96	3151.82
520.16	3758.02
520.36	3205.07
520.56	3362.76
520.76	3166.16
520.96	3282.89
521.16	3663.82
521.35	3487.69
521.55	3307.47
521.75	3479.50
521.95	3393.48
522.15	3071.95
522.35	3078.10
522.55	3342.28
522.75	3606.47
522.95	3041.23
523.14	2959.31
523.34	3368.91
523.54	3342.28
523.74	3315.66
523.94	3246.03
524.14	3102.67
524.34	3526.60
524.54	3356.62
524.73	3188.69
524.93	3602.38
525.13	3512.27
525.33	3020.75
525.53	3409.87
525.73	3536.84
525.93	3424.20
526.13	3139.54
526.32	3096.53
526.52	3735.50
526.72	3647.43
526.92	3205.07
527.12	3098.58
527.32	3147.73
527.52	3618.76
527.71	3186.64
527.91	3217.36
528.11	3303.37
528.31	3411.92
528.51	3172.30
528.71	3338.19
528.90	3577.80
529.10	3669.96
529.30	3149.78
529.50	2869.20
529.70	3551.18
529.90	3368.91
530.09	3258.32
530.29	3041.23
530.49	3297.23
530.69	4050.88
530.89	3303.37
531.09	3229.65
531.28	3373.00
531.48	3631.05
531.68	3160.02
531.88	3192.78
532.08	3602.38
532.28	3323.85
532.47	3297.23
532.67	3336.14
532.87	3495.88
533.07	3153.87
533.27	3184.59
533.46	3192.78
533.66	3516.36
533.86	3330.00
534.06	3114.96
534.26	3117.01
534.45	3395.53
534.65	3585.99
534.85	3270.61
535.05	3106.77
535.25	3618.76
535.44	3059.67
535.64	3241.93
535.84	3164.11
536.04	3377.10
536.24	3348.43
536.43	3157.97
536.63	3114.96
536.83	3338.19
537.03	3420.11
537.22	3071.95
537.42	2942.93
537.62	3473.36
537.82	3231.69
538.02	3348.43
538.21	3209.17
538.41	4044.74
538.61	3622.86
538.81	3194.83
539.00	3305.42
539.20	3164.11
539.40	3348.43
539.60	3102.67
539.79	3393.48
539.99	3450.83
540.19	3205.07
540.39	3131.34
540.58	3284.94
540.78	3631.05
540.98	3418.06
541.18	3428.30
541.37	3141.58
541.57	3499.98
541.77	3524.55
541.97	3143.63
542.16	3035.09
542.36	3401.68
542.56	3311.57
542.76	3354.57
542.95	3254.22
543.15	3571.66
543.35	3540.94
543.54	3117.01
543.74	3094.48
543.94	3694.54
544.14	3319.76
544.33	3289.04
544.53	3221.45
544.73	3409.87
544.93	3399.63
545.12	3174.35
545.32	3180.50
545.52	3385.29
545.71	3174.35
545.91	3174.35
546.11	3053.52
546.30	3248.08
546.50	3393.48
546.70	3258.32
546.90	3243.98
547.09	3041.23
547.29	3469.26
547.49	3266.51
547.68	3164.11
547.88	3278.80
548.08	3596.23
548.27	3370.96
548.47	3110.86
548.67	3305.42
548.87	3549.13
549.06	3086.29
549.26	3082.19
549.46	3463.12
549.65	3336.14
549.85	3155.92
550.05	3215.31
550.24	3172.30
550.44	3393.48
550.64	3188.69
550.83	3284.94
551.03	3690.44
551.23	3682.25
551.42	3207.12
551.62	3319.76
551.82	3389.39
552.01	3366.86
552.21	3528.65
552.41	3250.13
552.60	3819.46
552.80	3424.20
553.00	3168.21
553.19	3229.65
553.39	3833.80
553.59	3205.07
553.78	3321.81
553.98	3164.11
554.17	3155.92
554.37	3491.79
554.57	3209.17
554.76	3063.76
554.96	3260.37
555.16	3471.31
555.35	3258.32
555.55	3397.58
555.75	3477.45
555.94	3549.13
556.14	2979.79
556.33	3194.83
556.53	3413.96
556.73	3422.16
556.92	3147.73
557.12	3164.11
557.32	3862.47
557.51	3741.64
557.71	3196.88
557.90	3340.24
558.10	3784.65
558.30	3315.66
558.49	3180.50
558.69	3168.21
558.88	3514.31
559.08	3516.36
559.28	3219.41
559.47	3280.85
559.67	3557.32
559.86	3852.23
560.06	3139.54
560.26	3178.45
560.45	3506.12
560.65	3360.72
560.84	3475.40
561.04	3078.10
561.24	3585.99
561.43	3213.26
561.63	3395.53
561.82	3270.61
562.02	3598.28
562.22	3217.36
562.41	3096.53
562.61	3047.38
562.80	3174.35
563.00	4016.07
563.19	3219.41
563.39	3280.85
563.59	3571.66
563.78	3139.54
563.98	2901.97
564.17	3237.84
564.37	3104.72
564.56	3323.85
564.76	3069.91
564.96	3313.61
565.15	3428.30
565.35	3960.77
565.54	3188.69
565.74	3117.01
565.93	3618.76
566.13	3338.19
566.32	3272.65
566.52	3270.61
566.71	3416.01
566.91	3618.76
567.11	3399.63
567.30	3024.85
567.50	3532.75
567.69	3450.83
567.89	3184.59
568.08	3012.56
568.28	3551.18
568.47	3172.30
568.67	3162.06
568.86	3184.59
569.06	3594.19
569.25	3358.67
569.45	3082.19
569.64	3241.93
569.84	3370.96
570.04	3450.83
570.23	3213.26
570.43	3200.98
570.62	3418.06
570.82	3755.97
571.01	3114.96
571.21	3190.74
571.40	3309.52
571.60	3569.61
571.79	3248.08
571.99	3098.58
572.18	3203.02
572.38	3499.98
572.57	3223.50
572.77	3155.92
572.96	4026.31
573.16	3454.92
573.35	3176.40
573.55	3350.48
573.74	3442.64
573.94	3360.72
574.13	3141.58
574.33	3289.04
574.52	3717.06
574.71	3450.83
574.91	3237.84
575.10	3100.62
575.30	3336.14
575.49	3233.74
575.69	3119.06
575.88	3141.58
576.08	3360.72
576.27	3614.66
576.47	3055.57
576.66	3338.19
576.86	3747.78
577.05	3395.53
577.25	3229.65
577.44	3366.86
577.64	3280.85
577.83	3667.91
578.02	3299.28
578.22	3311.57
578.41	3764.17
578.61	3311.57
578.80	2971.60
579.00	3256.27
579.19	3413.96
579.39	3502.03
579.58	3121.10
579.77	3223.50
579.97	3680.20
580.16	3643.34
580.36	3401.68
580.55	3305.42
580.75	3536.84
580.94	3450.83
581.13	3446.73
581.33	3452.88
581.52	3377.10
581.72	3856.33
581.91	3264.46
582.11	3131.34
582.30	3585.99
582.49	3481.55
582.69	3499.98
582.88	3166.16
583.08	3547.08
583.27	3604.42
583.47	3303.37
583.66	3110.86
583.85	3215.31
584.05	3416.01
584.24	3340.24
584.44	3184.59
584.63	3569.61
584.82	3768.26
585.02	3434.44
585.21	3319.76
585.41	3504.07
585.60	3485.64
585.79	3393.48
585.99	3508.17
586.18	3450.83
586.37	4495.29
586.57	6602.65
586.76	18419.43
586.96	37137.87
587.15	50195.71
587.34	57984.14
587.54	61607.00
587.73	54080.71
587.93	39382.44
588.12	30309.94
588.31	24805.00
588.51	21970.61
588.70	20418.25
588.89	17925.87
589.09	15257.37
589.28	13229.88
589.47	10342.24
589.67	7853.96
589.86	6182.82
590.06	5025.72
590.25	4433.85
590.44	3903.43
590.64	3553.23
590.83	3719.11
591.02	3672.01
591.22	3180.50
591.41	3282.89
591.60	3399.63
591.80	3880.90
591.99	3045.33
592.18	3229.65
592.38	3635.14
592.57	3280.85
592.76	3198.93
592.96	3235.79
593.15	3323.85
593.34	3680.20
593.54	3147.73
593.73	3373.00
593.92	3510.22
594.12	3610.57
594.31	3297.23
594.50	3407.82
594.70	3477.45
594.89	4112.32
595.08	3020.75
595.28	3297.23
595.47	4044.74
595.66	3645.38
595.86	3090.38
596.05	3047.38
596.24	3319.76
596.43	3819.46
596.63	3278.80
596.82	3350.48
597.01	3573.71
597.21	3788.74
597.40	3164.11
597.59	3205.07
597.79	3483.59
597.98	3553.23
598.17	3268.56
598.36	3254.22
598.56	3682.25
598.75	3350.48
598.94	3262.41
599.14	3174.35
599.33	3276.75
599.52	3602.38
599.71	3213.26
599.91	3194.83
600.10	3620.81
600.29	3542.99
600.48	3319.76
600.68	3358.67
600.87	3524.55
601.06	3305.42
601.26	3266.51
601.45	3348.43
601.64	3403.72
601.83	3762.12
602.03	3010.51
602.22	3016.66
602.41	3649.48
602.60	4018.11
602.80	3327.95
602.99	3344.33
603.18	3375.05
603.37	3489.74
603.57	3082.19
603.76	3127.25
603.95	3581.90
604.14	3401.68
604.34	3074.00
604.53	3217.36
604.72	3508.17
604.91	3647.43
605.10	3207.12
605.30	3139.54
605.49	3942.34
605.68	3616.71
605.87	3227.60
606.07	3037.14
606.26	3540.94
606.45	3528.65
606.64	3213.26
606.84	3049.43
607.03	3499.98
607.22	3598.28
607.41	3295.18
607.60	3170.26
607.80	3588.04
607.99	3420.11
608.18	3270.61
608.37	3254.22
608.56	3239.89
608.76	3678.15
608.95	3295.18
609.14	3098.58
609.33	3653.58
609.52	3817.41
609.72	3262.41
609.91	3278.80
610.10	3485.64
610.29	3770.31
610.48	3284.94
610.68	3354.57
610.87	3393.48
611.06	3551.18
611.25	3121.10
611.44	3256.27
611.63	3399.63
611.83	3739.59
612.02	3057.62
612.21	3342.28
612.40	3069.91
612.59	3157.97
612.79	3135.44
612.98	3190.74
613.17	3723.21
613.36	3434.44
613.55	3303.37
613.74	3168.21
613.93	3422.16
614.13	3549.13
614.32	3303.37
614.51	3151.82
614.70	3381.20
614.89	3307.47
615.08	3325.90
615.28	3555.27
615.47	3219.41
615.66	3565.51
615.85	3194.83
616.04	3190.74
616.23	3407.82
616.42	3516.36
616.62	3147.73
616.81	3147.73
617.00	3479.50
617.19	3559.37
617.38	3215.31
617.57	3295.18
617.76	3577.80
617.95	3647.43
618.15	3270.61
618.34	3430.35
618.53	3166.16
618.72	3631.05
618.91	3168.21
619.10	3303.37
619.29	3332.05
619.48	3430.35
619.68	3049.43
619.87	3127.25
620.06	3174.35
620.25	3647.43
620.44	3145.68
620.63	3078.10
620.82	3397.58
621.01	3446.73
621.20	3205.07
621.39	3315.66
621.59	3508.17
621.78	3354.57
621.97	3268.56
622.16	3393.48
622.35	3551.18
622.54	3610.57
622.73	3180.50
622.92	2912.21
623.11	3692.49
623.30	3362.76
623.49	3305.42
623.68	3063.76
623.88	3745.73
624.07	3233.74
624.26	3043.28
624.45	3233.74
624.64	3311.57
624.83	3463.12
625.02	3123.15
625.21	3252.17
625.40	3504.07
625.59	3794.89
625.78	3260.37
625.97	3297.23
626.16	3663.82
626.35	3540.94
626.54	3172.30
626.74	3350.48
626.93	3354.57
627.12	3450.83
627.31	3235.79
627.50	3196.88
627.69	3602.38
627.88	3213.26
628.07	3098.58
628.26	2983.89
628.45	3327.95
628.64	3233.74
628.83	3053.52
629.02	2981.84
629.21	3639.24
629.40	3522.51
629.59	3069.91
629.78	3184.59
629.97	3467.21
630.16	3485.64
630.35	3127.25
630.54	3252.17
630.73	3299.28
630.92	3303.37
631.11	3092.43
631.30	3260.37
631.49	3506.12
631.68	3409.87
631.87	3168.21
632.06	3141.58
632.25	3979.20
632.44	3411.92
632.63	3305.42
632.82	3190.74
633.01	3280.85
633.20	3418.06
633.39	3262.41
633.58	2973.65
633.77	3504.07
633.96	3633.10
634.15	3305.42
634.34	3233.74
634.53	3561.42
634.72	3327.95
634.91	3037.14
635.10	3139.54
635.29	3602.38
635.48	3428.30
635.67	3045.33
635.86	3041.23
636.05	3811.27
636.24	3434.44
636.43	3121.10
636.62	3291.09
636.81	2904.02
637.00	3442.64
637.19	3168.21
637.38	3223.50
637.57	3317.71
637.76	3379.15
637.95	3373.00
638.14	3280.85
638.33	3434.44
638.52	3475.40
638.71	3024.85
638.89	3053.52
639.08	3934.15
639.27	3704.78
639.46	3422.16
639.65	3532.75
639.84	3835.85
640.03	4100.03
640.22	3659.72
640.41	3461.07
640.60	3499.98
640.79	3608.52
640.98	3395.53
641.17	3358.67
641.36	3733.45
641.55	3643.34
641.74	3024.85
641.92	3104.72
642.11	3307.47
642.30	3311.57
642.49	3106.77
642.68	3133.39
642.87	3547.08
643.06	3557.32
643.25	3020.75
643.44	3078.10
643.63	3377.10
643.82	3549.13
644.00	3102.67
644.19	3065.81
644.38	3237.84
644.57	3676.10
644.76	3231.69
644.95	3241.93
645.14	3469.26
645.33	3377.10
645.52	3266.51
645.71	3071.95
645.89	3188.69
646.08	3428.30
646.27	3198.93
646.46	3377.10
646.65	3127.25
646.84	3442.64
647.03	3100.62
647.22	3330.00
647.40	3418.06
647.59	3330.00
647.78	2955.22
647.97	3233.74
648.16	3237.84
648.35	3676.10
648.54	3342.28
648.73	3192.78
648.91	3565.51
649.10	3485.64
649.29	3053.52
649.48	3133.39
649.67	3542.99
649.86	3430.35
650.05	3198.93
650.23	3360.72
650.42	3221.45
650.61	3700.68
650.80	3422.16
650.99	3409.87
651.18	3602.38
651.36	3731.40
651.55	3178.45
651.74	3344.33
651.93	3336.14
652.12	3375.05
652.31	3323.85
652.49	3200.98
652.68	3315.66
652.87	3719.11
653.06	3301.33
653.25	3450.83
653.44	3438.54
653.62	3856.33
653.81	3180.50
654.00	3205.07
654.19	3606.47
654.38	4032.45
654.56	3225.55
654.75	3110.86
654.94	3725.26
655.13	3467.21
655.32	3100.62
655.51	3309.52
655.69	3348.43
655.88	3651.53
656.07	2953.17
656.26	3262.41
656.45	3200.98
656.63	3522.51
656.82	3125.20
657.01	3499.98
657.20	3327.95
657.38	3811.27
657.57	3129.30
657.76	3008.47
657.95	3604.42
658.14	3358.67
658.32	3276.75
658.51	3051.47
658.70	3565.51
658.89	3530.70
659.08	3221.45
659.26	3448.78
659.45	3217.36
659.64	3536.84
659.83	3190.74
660.01	3542.99
660.20	3563.47
660.39	3844.04
660.58	2926.55
660.76	3243.98
660.95	3076.05
661.14	3387.34
661.33	2985.94
661.51	3182.54
661.70	3330.00
661.89	3557.32
662.08	3164.11
662.26	3041.23
662.45	3168.21
662.64	3856.33
662.83	3223.50
663.01	3119.06
663.20	3327.95
663.39	3684.30
663.58	3248.08
663.76	3076.05
663.95	3610.57
664.14	3184.59
664.32	3299.28
664.51	3051.47
664.70	3067.86
664.89	3499.98
665.07	3053.52
665.26	3385.29
665.45	3190.74
665.64	3553.23
665.82	3184.59
666.01	3286.99
666.20	3125.20
666.38	3667.91
666.57	3549.13
666.76	5627.82
666.95	12650.30
667.13	18796.26
667.32	22365.87
667.51	25181.82
667.69	25615.99
667.88	20989.63
668.07	15421.20
668.25	13285.17
668.44	11738.96
668.63	10059.62
668.81	8996.73
669.00	7817.10
669.19	7247.76
669.38	6328.22
669.56	5353.39
669.75	4788.15
669.94	4425.66
670.12	3885.00
670.31	3518.41
670.50	3526.60
670.68	3669.96
670.87	3489.74
671.06	3100.62
671.24	3336.14
671.43	3823.56
671.62	3518.41
671.80	3147.73
671.99	3313.61
672.18	3516.36
672.36	3618.76
672.55	3299.28
672.74	3258.32
672.92	3387.34
673.11	3641.29
673.29	3049.43
673.48	3336.14
673.67	3401.68
673.85	3672.01
674.04	3133.39
674.23	3254.22
674.41	3917.76
674.60	3192.78
674.79	3026.90
674.97	3045.33
675.16	3653.58
675.34	3639.24
675.53	3198.93
675.72	3200.98
675.90	3827.65
676.09	3297.23
676.28	3307.47
676.46	3035.09
676.65	3579.85
676.83	3295.18
677.02	3262.41
677.21	3250.13
677.39	3545.03
677.58	3291.09
677.77	3180.50
677.95	3139.54
678.14	3305.42
678.32	3405.77
678.51	3317.71
678.70	3520.46
678.88	3315.66
679.07	3430.35
679.25	3125.20
679.44	3188.69
679.63	3215.31
679.81	3577.80
680.00	3440.59
680.18	3188.69
680.37	3864.52
680.55	3440.59
680.74	3102.67
680.93	2920.40
681.11	3571.66
681.30	3385.29
681.48	3215.31
681.67	3262.41
681.85	3483.59
682.04	3305.42
682.23	3413.96
682.41	3424.20
682.60	3368.91
682.78	3418.06
682.97	3063.76
683.15	3254.22
683.34	3592.14
683.53	3745.73
683.71	3016.66
683.90	3180.50
684.08	3821.51
684.27	3381.20
684.45	3293.13
684.64	3319.76
684.82	3444.68
685.01	3592.14
685.19	3125.20
685.38	3456.97
685.57	3440.59
685.75	3368.91
685.94	3182.54
686.12	3170.26
686.31	3358.67
686.49	3755.97
686.68	2963.41
686.86	3172.30
687.05	3370.96
687.23	3762.12
687.42	3254.22
687.60	3022.80
687.79	3696.58
687.97	3803.08
688.16	3336.14
688.34	3348.43
688.53	3114.96
688.71	3514.31
688.90	3504.07
689.08	3231.69
689.27	3121.10
689.45	3624.90
689.64	3393.48
689.82	3299.28
690.01	3555.27
690.19	3504.07
690.38	3252.17
690.56	3252.17
690.75	3260.37
690.93	3424.20
691.12	3194.83
691.30	3282.89
691.49	3311.57
691.67	3434.44
691.86	3590.09
692.04	3256.27
692.23	3330.00
692.41	3280.85
692.60	3542.99
692.78	3325.90
692.97	3416.01
693.15	3629.00
693.34	3383.24
693.52	3444.68
693.71	3346.38
693.89	3321.81
694.08	3069.91
694.26	3293.13
694.44	3577.80
694.63	3635.14
694.81	3143.63
695.00	3194.83
695.18	3692.49
695.37	3958.72
695.55	3286.99
695.74	3252.17
695.92	3262.41
696.10	3729.35
696.29	3057.62
696.47	3153.87
696.66	3213.26
696.84	3272.65
697.03	3239.89
697.21	3567.56
697.40	4859.83
697.58	3700.68
697.76	3182.54
697.95	3221.45
698.13	3250.13
698.32	3346.38
698.50	3160.02
698.68	3196.88
698.87	3522.51
699.05	3829.70
699.24	3233.74
699.42	3233.74
699.61	3497.93
699.79	3452.88
699.97	3170.26
700.16	3094.48
700.34	3188.69
700.53	3418.06
700.71	3405.77
700.89	3239.89
701.08	3272.65
701.26	3409.87
701.45	3555.27
701.63	3200.98
701.81	3418.06
702.00	3270.61
702.18	3317.71
702.37	3205.07
702.55	3704.78
702.73	3524.55
702.92	3139.54
703.10	3520.46
703.28	3542.99
703.47	3141.58
703.65	3424.20
703.84	3278.80
704.02	3272.65
704.20	3710.92
704.39	3188.69
704.57	3182.54
704.75	3594.19
704.94	3514.31
705.12	3483.59
705.30	4020.16
705.49	8124.29
705.67	14614.30
705.86	19191.52
706.04	21753.52
706.22	23932.56
706.41	22566.57
706.59	16903.93
706.77	13420.34
706.96	11814.73
707.14	10958.68
707.32	9416.56
707.51	8318.85
707.69	6813.59
707.87	5748.65
708.06	4782.01
708.24	4245.44
708.42	4126.66
708.61	4329.41
708.79	3258.32
708.97	3395.53
709.16	3549.13
709.34	3526.60
709.52	3207.12
709.71	3186.64
709.89	3555.27
710.07	3254.22
710.26	3067.86
710.44	3223.50
710.62	3573.71
710.80	3461.07
710.99	3342.28
711.17	3368.91
711.35	3332.05
711.54	3344.33
711.72	3444.68
711.90	3246.03
712.09	3581.90
712.27	3270.61
712.45	3366.86
712.63	3268.56
712.82	3454.92
713.00	3461.07
713.18	3362.76
713.37	3477.45
713.55	3639.24
713.73	3557.32
713.91	3246.03
714.10	3282.89
714.28	3426.25
714.46	3432.40
714.65	3256.27
714.83	3237.84
715.01	3432.40
715.19	3368.91
715.38	3162.06
715.56	3276.75
715.74	3246.03
715.92	3264.46
716.11	3577.80
716.29	2987.99
716.47	3409.87
716.65	3336.14
716.84	3108.82
717.02	3243.98
717.20	3114.96
717.38	3207.12
717.57	3360.72
717.75	3229.65
717.93	3299.28
718.11	3573.71
718.30	2977.75
718.48	3301.33
718.66	3798.98
718.84	3600.33
719.03	3192.78
719.21	3020.75
719.39	3786.69
719.57	3614.66
719.75	3262.41
719.94	3192.78
720.12	3340.24
720.30	3424.20
720.48	3237.84
720.67	3184.59
720.85	3254.22
721.03	3315.66
721.21	3217.36
721.39	3241.93
721.58	3530.70
721.76	3436.49
721.94	3221.45
722.12	3346.38
722.30	3821.51
722.49	3311.57
722.67	3188.69
722.85	3278.80
723.03	3121.10
723.21	3317.71
723.40	3233.74
723.58	3373.00
723.76	3565.51
723.94	3731.40
724.12	3213.26
724.30	3450.83
724.49	3588.04
724.67	3231.69
724.85	3223.50
725.03	3080.14
725.21	3540.94
725.40	3659.72
725.58	3297.23
725.76	3411.92
725.94	3542.99
726.12	3254.22
726.30	3313.61
726.49	3170.26
726.67	3215.31
726.85	3612.62
727.03	3979.20
727.21	4900.79
727.39	6154.15
727.57	6453.15
727.76	6809.50
727.94	6778.78
728.12	5875.62
728.30	5060.53
728.48	4806.58
728.66	4458.43
728.84	4487.10
729.03	4011.97
729.21	3626.95
729.39	3467.21
729.57	3469.26
729.75	3555.27
729.93	3436.49
730.11	3114.96
730.30	3309.52
730.48	3434.44
730.66	3233.74
730.84	3346.38
731.02	3403.72
731.20	3266.51
731.38	3227.60
731.56	3100.62
731.74	3233.74
731.93	3510.22
732.11	3352.52
732.29	3215.31
732.47	3559.37
732.65	3512.27
732.83	3477.45
733.01	3360.72
733.19	3239.89
733.37	3588.04
733.56	3241.93
733.74	3119.06
733.92	3807.17
734.10	3332.05
734.28	3413.96
734.46	2969.55
734.64	3387.34
734.82	3459.02
735.00	3219.41
735.18	3186.64
735.36	3563.47
735.54	3438.54
735.73	3157.97
735.91	3389.39
736.09	3715.02
736.27	3381.20
736.45	3286.99
736.63	2906.07
736.81	3413.96
736.99	3696.58
737.17	3366.86
737.35	3125.20
737.53	3526.60
737.71	3411.92
737.89	3393.48
738.07	3141.58
738.25	3346.38
738.43	3178.45
738.61	3200.98
738.80	3026.90
738.98	3266.51
739.16	3299.28
739.34	3172.30
739.52	3577.80
739.70	3467.21
739.88	3655.62
740.06	3360.72
740.24	2926.55
740.42	3657.67
740.60	3076.05
740.78	3188.69
740.96	3039.19
741.14	3321.81
741.32	3479.50
741.50	3049.43
741.68	3461.07
741.86	3698.63
742.04	3133.39
742.22	3110.86
742.40	3229.65
742.58	3592.14
742.76	3246.03
742.94	3426.25
743.12	3014.61
743.30	3420.11
743.48	3487.69
743.66	3143.63
743.84	3215.31
744.02	3356.62
744.20	3383.24
744.38	3057.62
744.56	3160.02
744.74	3782.60
744.92	3502.03
745.10	3444.68
745.28	3307.47
745.46	3747.78
745.64	3379.15
745.82	3323.85
746.00	3184.59
746.18	3651.53
746.36	3178.45
746.54	3266.51
746.72	3225.55
746.90	3256.27
747.08	3702.73
747.26	3217.36
747.44	3381.20
747.62	3590.09
747.80	3481.55
747.98	3289.04
748.15	3205.07
748.33	3862.47
748.51	3420.11
748.69	3272.65
748.87	3080.14
749.05	3420.11
749.23	3336.14
749.41	3178.45
749.59	3149.78
749.77	3622.86
749.95	3395.53
750.13	3209.17
750.31	3405.77
750.49	3401.68
750.67	3655.62
750.85	3377.10
751.03	3289.04
751.20	3958.72
751.38	3471.31
751.56	3227.60
751.74	3241.93
751.92	3448.78
752.10	3172.30
752.28	3381.20
752.46	3125.20
752.64	3459.02
752.82	3428.30
753.00	3346.38
753.18	3170.26
753.35	3332.05
753.53	3487.69
753.71	3211.22
753.89	3276.75
754.07	3524.55
754.25	3649.48
754.43	3348.43
754.61	3145.68
754.79	3606.47
754.97	3389.39
755.14	3401.68
755.32	3155.92
755.50	3413.96
755.68	3489.74
755.86	3133.39
756.04	3176.40
756.22	3018.71
756.40	3612.62
756.57	3395.53
756.75	3188.69
756.93	3749.83
757.11	3616.71
757.29	3057.62
757.47	3106.77
757.65	3098.58
757.82	2908.12
758.00	3123.15
758.18	3205.07
758.36	3270.61
758.54	3741.64
758.72	2987.99
758.90	3383.24
759.07	3518.41
759.25	3188.69
759.43	3250.13
759.61	3053.52
759.79	4605.88
759.97	3614.66
760.15	3250.13
760.32	3246.03
760.50	3553.23
760.68	3811.27
760.86	3055.57
761.04	3364.81
761.22	3598.28
761.39	3510.22
761.57	3391.44
761.75	3166.16
761.93	3649.48
762.11	3379.15
762.28	3395.53
762.46	3127.25
762.64	3667.91
762.82	3157.97
763.00	3194.83
763.18	3319.76
763.35	3198.93
763.53	3581.90
763.71	3325.90
763.89	3203.02
764.07	3493.83
764.24	3370.96
764.42	3330.00
764.60	3180.50
764.78	3538.89
764.96	3610.57
765.13	3303.37
765.31	3127.25
765.49	3573.71
765.67	3221.45
765.84	3155.92
766.02	3096.53
766.20	3139.54
766.38	3444.68
766.56	3278.80
766.73	3346.38
766.91	3399.63
767.09	3368.91
767.27	3248.08
767.44	3131.34
767.62	3657.67
767.80	3536.84
767.98	3082.19
768.15	3180.50
768.33	3606.47
768.51	3577.80
768.69	3334.09
768.87	3211.22
769.04	3352.52
769.22	3981.25
769.40	3327.95
769.58	3368.91
769.75	3534.79
769.93	3688.39
770.11	3174.35
770.28	3049.43
770.46	3602.38
770.64	3516.36
770.82	3231.69
770.99	3082.19
771.17	3649.48
771.35	3315.66
771.53	3266.51
771.70	3106.77
771.88	3549.13
772.06	3409.87
772.23	3168.21
772.41	3272.65
772.59	3448.78
772.77	3241.93
772.94	3205.07
773.12	3278.80
773.30	3368.91
773.47	3573.71
773.65	3067.86
773.83	3426.25
774.01	3483.59
774.18	3084.24
774.36	3190.74
774.54	2996.18
774.71	3518.41
774.89	3110.86
775.07	3131.34
775.24	3241.93
775.42	3407.82
775.60	3794.89
775.78	3102.67
775.95	3012.56
776.13	3063.76
776.31	3131.34
776.48	3426.25
776.66	3461.07
776.84	3387.34
777.01	3344.33
777.19	3151.82
777.37	3106.77
777.54	3504.07
777.72	3889.09
777.90	3254.22
778.07	3162.06
778.25	4171.71
778.43	3690.44
778.60	3149.78
778.78	3280.85
778.96	3649.48
779.13	3149.78
779.31	3332.05
779.49	3233.74
779.66	3413.96
779.84	3309.52
780.01	3149.78
780.19	3149.78
780.37	3770.31
780.54	3493.83
780.72	3074.00
780.90	3192.78
781.07	3413.96
781.25	3250.13
781.43	3317.71
781.60	3155.92
781.78	3739.59
781.95	3479.50
782.13	3243.98
782.31	3178.45
782.48	3035.09
782.66	3450.83
782.83	3491.79
783.01	3289.04
783.19	3616.71
783.36	3407.82
783.54	3094.48
783.72	3264.46
783.89	3319.76
784.07	3506.12
784.24	3389.39
784.42	3332.05
784.60	3479.50
784.77	3510.22
784.95	2977.75
785.12	3213.26
785.30	3483.59
785.47	3227.60
785.65	3094.48
785.83	3297.23
786.00	3274.70
786.18	3413.96
786.35	3188.69
786.53	3164.11
786.71	3624.90
786.88	3510.22
787.06	3295.18
787.23	3254.22
787.41	3241.93
787.58	3426.25
787.76	3149.78
787.94	3176.40
788.11	3475.40
788.29	3254.22
788.46	3168.21
788.64	3051.47
788.81	3348.43
788.99	3231.69
789.16	3170.26
789.34	3194.83
789.52	3272.65
789.69	3262.41
789.87	3035.09
790.04	3198.93
790.22	3467.21
790.39	3780.55
790.57	3149.78
790.74	3190.74
790.92	3645.38
791.09	3139.54
791.27	3248.08
791.44	3309.52
791.62	3446.73
791.79	3532.75
791.97	3246.03
792.15	3508.17
792.32	3565.51
792.50	3557.32
792.67	3368.91
792.85	3557.32
793.02	3553.23
793.20	3352.52
793.37	3086.29
793.55	3078.10
793.72	3205.07
793.90	3499.98
794.07	3143.63
794.25	3135.44
794.42	3502.03
794.60	3397.58
794.77	3215.31
794.95	3342.28
795.12	3518.41
795.30	3465.16
795.47	2971.60
795.65	3536.84
795.82	3534.79
796.00	3258.32
796.17	3284.94
796.34	3063.76
796.52	3542.99
796.69	3639.24
796.87	3254.22
797.04	3373.00
797.22	3684.30
797.39	3487.69
797.57	3395.53
797.74	3286.99
797.92	3520.46
798.09	3241.93
798.27	3497.93
798.44	3149.78
798.62	3299.28
798.79	3442.64
798.96	3344.33
799.14	3172.30
799.31	3876.80
799.49	3420.11
799.66	3246.03
799.84	3262.41
800.01	3196.88
800.19	3547.08
800.36	2973.65
800.53	3317.71
800.71	3545.03
800.88	3733.45
801.06	3172.30
801.23	3123.15
801.41	3297.23
801.58	3399.63
801.75	3184.59
801.93	3196.88
802.10	3557.32
802.28	3346.38
802.45	3211.22
802.63	3262.41
802.80	3774.41
802.97	3399.63
803.15	3233.74
803.32	3149.78
803.50	3286.99
803.67	3264.46
803.84	3172.30
804.02	3336.14
804.19	3426.25
804.37	3004.37
804.54	3018.71
804.71	3176.40
804.89	3504.07
805.06	3241.93
805.24	3139.54
805.41	2971.60
805.58	3299.28
805.76	3919.81
805.93	3145.68
806.10	3295.18
806.28	3540.94
806.45	3418.06
806.63	3307.47
806.80	3231.69
806.97	3479.50
807.15	3459.02
807.32	3264.46
807.49	3209.17
807.67	3243.98
807.84	3547.08
808.01	2936.79
808.19	3278.80
808.36	3825.61
808.54	3350.48
808.71	3184.59
808.88	3180.50
809.06	3706.82
809.23	3780.55
809.40	3358.67
809.58	3149.78
809.75	3422.16
809.92	3188.69
810.10	3450.83
810.27	3133.39
810.44	3442.64
810.62	3608.52
810.79	3286.99
810.96	3282.89
811.14	3293.13
811.31	3530.70
811.48	3344.33
811.66	3270.61
811.83	3694.54
812.00	3520.46
812.18	3393.48
812.35	3516.36
812.52	3368.91
812.69	3385.29
812.87	3180.50
813.04	3143.63
813.21	3364.81
813.39	3346.38
813.56	3172.30
813.73	3491.79
813.91	3059.67
814.08	3491.79
814.25	3176.40
814.42	2938.84
814.60	3438.54
814.77	3499.98
814.94	3135.44
815.12	3291.09
815.29	3889.09
815.46	3266.51
815.63	3196.88
815.81	3205.07
815.98	3330.00
816.15	3483.59
816.33	3327.95
816.50	3237.84
816.67	3442.64
816.84	3334.09
817.02	3143.63
817.19	3131.34
817.36	3489.74
817.53	3538.89
817.71	3108.82
817.88	3170.26
818.05	3418.06
818.22	3330.00
818.40	3352.52
818.57	3217.36
818.74	3456.97
818.91	3319.76
819.09	3385.29
819.26	3325.90
819.43	3346.38
819.60	3258.32
819.78	3375.05
819.95	3286.99
820.12	3168.21
820.29	3614.66
820.47	3502.03
820.64	3254.22
820.81	3147.73
820.98	3280.85
821.15	3243.98
821.33	3223.50
821.50	3209.17
821.67	3512.27
821.84	3166.16
822.02	3174.35
822.19	3567.56
822.36	3332.05
822.53	3121.10
822.70	3069.91
822.88	3354.57
823.05	3700.68
823.22	3297.23
823.39	3067.86
823.56	3444.68
823.74	3854.28
823.91	3022.80
824.08	3151.82
824.25	3221.45
824.42	3729.35
824.60	3020.75
824.77	3317.71
824.94	3323.85
825.11	3524.55
825.28	3049.43
825.45	3346.38
825.63	3469.26
825.80	3196.88
825.97	3330.00
826.14	3160.02
826.31	3178.45
826.48	3585.99
826.66	3155.92
826.83	3065.81
827.00	3315.66
827.17	3270.61
827.34	3362.76
827.51	3100.62
827.69	3317.71
827.86	3147.73
828.03	3272.65
828.20	3205.07
828.37	3350.48
828.54	3592.14
828.71	3059.67
828.89	3254.22
829.06	3510.22
829.23	3801.03
829.40	3102.67
829.57	3135.44
829.74	3606.47
829.91	3239.89
830.09	3157.97
830.26	3274.70
830.43	3772.36
830.60	3391.44
830.77	3262.41
830.94	3459.02
831.11	3674.06
831.28	3381.20
831.46	3336.14
831.63	3215.31
831.80	3635.14
831.97	3221.45
832.14	3155.92
832.31	3205.07
832.48	3446.73
832.65	3622.86
832.82	3293.13
832.99	3289.04
833.17	3188.69
833.34	3737.54
833.51	3133.39
833.68	2975.70
833.85	3577.80
834.02	3254.22
834.19	3123.15
834.36	3237.84
834.53	3438.54
834.70	3622.86
834.87	3129.30
835.04	2944.98
835.22	3274.70
835.39	3397.58
835.56	3030.99
835.73	3035.09
835.90	3684.30
836.07	3141.58
836.24	3133.39
836.41	3065.81
836.58	3241.93
836.75	3606.47
836.92	3010.51
837.09	3020.75
837.26	3581.90
837.43	3465.16
837.60	3092.43
837.77	3112.91
837.94	3637.19
838.12	3823.56
838.29	2883.54
838.46	2852.82
838.63	3143.63
838.80	3739.59
838.97	3008.47
839.14	3053.52
839.31	3409.87
839.48	3583.95
839.65	3030.99
839.82	3088.34
839.99	3508.17
840.16	3440.59
840.33	3016.66
840.50	3133.39
840.67	3252.17
840.84	2930.64
841.01	2987.99
841.18	2959.31
841.35	3409.87
841.52	3631.05
841.69	3286.99
841.86	3100.62
842.03	3332.05
842.20	3661.77
842.37	3088.34
842.54	3110.86
842.71	3327.95
842.88	3106.77
843.05	2961.36
843.22	3016.66
843.39	3516.36
843.56	3241.93
843.73	3028.95
843.90	3053.52
844.07	3442.64
844.24	3659.72
844.41	3037.14
844.58	3057.62
844.75	3438.54
844.92	3489.74
845.09	3114.96
845.26	3037.14
845.43	3549.13
845.60	3344.33
845.77	3139.54
845.94	3069.91
846.10	3631.05
846.27	3080.14
846.44	2975.70
846.61	2918.36
846.78	3434.44
846.95	3676.10
847.12	2877.40
847.29	3094.48
847.46	3241.93
847.63	3569.61
847.80	3041.23
847.97	3010.51
848.14	3919.81
848.31	3413.96
848.48	2858.96
848.65	3033.04
848.82	3327.95
848.98	4007.87
849.15	3180.50
849.32	3102.67
849.49	3524.55
849.66	3360.72
849.83	2994.13
850.00	2981.84
850.17	3540.94
850.34	3303.37
850.51	2881.49
850.68	3117.01
850.85	3952.58
851.01	3522.51
851.18	2957.27
851.35	3100.62
851.52	3483.59
851.69	3719.11
851.86	2947.03
852.03	3035.09
852.20	3573.71
852.37	3477.45
852.53	2926.55
852.70	2926.55
852.87	3471.31
853.04	3565.51
853.21	2969.55
853.38	3311.57
853.55	3710.92
853.72	3696.58
853.89	2992.08
854.05	3004.37
854.22	3401.68
854.39	3422.16
854.56	3006.42
854.73	3131.34
854.90	3248.08
855.07	3381.20
855.23	2942.93
855.40	2910.16
855.57	3393.48
855.74	3012.56
855.91	3198.93
856.08	2871.25
856.25	3106.77
856.41	3317.71
856.58	3049.43
856.75	2965.46
856.92	3155.92
857.09	3588.04
857.26	2838.48
857.42	3076.05
857.59	3575.75
857.76	3305.42
857.93	3000.27
858.10	2994.13
858.27	3174.35
858.43	3420.11
858.60	2926.55
858.77	2881.49
858.94	3213.26
859.11	3651.53
859.27	3117.01
859.44	3008.47
859.61	3891.14
859.78	3606.47
859.95	3016.66
860.12	2953.17
860.28	3893.19
860.45	3817.41
860.62	2965.46
860.79	3106.77
860.95	3315.66
861.12	3266.51
861.29	2949.08
861.46	3049.43
861.63	3358.67
861.79	3549.13
861.96	2848.72
862.13	3026.90
862.30	3700.68
862.47	3321.81
862.63	2910.16
862.80	3065.81
862.97	3665.86
863.14	3485.64
863.30	3035.09
863.47	2951.12
863.64	3704.78
863.81	3485.64
863.97	2895.83
864.14	3039.19
864.31	3366.86
864.48	3475.40
864.65	3016.66
864.81	3147.73
864.98	3579.85
865.15	3618.76
865.32	3016.66
865.48	3090.38
865.65	3692.49
865.82	3233.74
865.98	3102.67
866.15	3016.66
866.32	3456.97
866.49	3303.37
866.65	3246.03
866.82	3082.19
866.99	3397.58
867.16	3297.23
867.32	3012.56
867.49	2908.12
867.66	3399.63
867.83	3309.52
867.99	2967.51
868.16	2920.40
868.33	3205.07
868.49	3364.81
868.66	2996.18
868.83	3078.10
868.99	3524.55
869.16	3424.20
869.33	3131.34
869.50	3098.58
869.66	3510.22
869.83	3428.30
870.00	2953.17
870.16	3102.67
870.33	3358.67
870.50	3583.95
870.66	3110.86
870.83	2963.41
871.00	3383.24
871.17	3436.49
871.33	3049.43
871.50	2973.65
871.67	3330.00
871.83	3141.58
872.00	3106.77
872.17	3041.23
872.33	3887.04
872.50	3745.73
872.67	2992.08
872.83	2928.60
873.00	3450.83
873.17	3409.87
873.33	3082.19
873.50	3057.62
873.67	3264.46
873.83	3381.20
874.00	3000.27
874.16	3141.58
874.33	3411.92
874.50	3192.78
874.66	2973.65
874.83	3121.10
875.00	3622.86
875.16	3708.87
875.33	3119.06
875.50	2768.85
875.66	3346.38
875.83	3567.56
875.99	3080.14
876.16	3164.11
876.33	3196.88
876.49	3428.30
876.66	3069.91
876.83	3055.57
876.99	3094.48
877.16	3356.62
877.32	3069.91
877.49	3123.15
877.66	3499.98
877.82	3704.78
877.99	3059.67
878.15	3336.14
878.32	3442.64
878.49	3465.16
878.65	3053.52
878.82	3319.76
878.98	3295.18
879.15	3624.90
879.32	3241.93
879.48	3200.98
879.65	3440.59
879.81	3385.29
879.98	3123.15
880.15	3174.35
880.31	3559.37
880.48	3237.84
880.64	3176.40
880.81	3131.34
880.97	3766.21
881.14	3780.55
881.31	2955.22
881.47	3174.35
881.64	3352.52
881.80	3090.38
881.97	3246.03
882.13	3002.32
882.30	3217.36
882.47	3258.32
882.63	2934.74
882.80	2979.79
882.96	3368.91
883.13	3637.19
883.29	3022.80
883.46	3016.66
883.62	3844.04
883.79	3403.72
883.95	3198.93
884.12	3067.86
884.29	3649.48
884.45	3373.00
884.62	3012.56
884.78	2926.55
884.95	3712.97
885.11	3162.06
885.28	3112.91
885.44	3108.82
885.61	3549.13
885.77	3686.34
885.94	3278.80
886.10	3112.91
886.27	3446.73
886.43	3819.46
886.60	3266.51
886.76	3067.86
886.93	3172.30
887.09	3442.64
887.26	2967.51
887.42	3145.68
887.59	3649.48
887.75	3966.92
887.92	3207.12
888.08	3172.30
888.25	3794.89
888.41	3626.95
888.58	3112.91
888.74	2983.89
888.91	3297.23
>>>>>End Processed Spectral Data<<<<<
