SpectraSuite Data File
++++++++++++++++++++++++++++++++++++
Date: Fri May 06 09:29:09 CEST 2016
User: root
Dark Spectrum Present: No
Reference Spectrum Present: No
Number of Sampled Component Spectra: 1
Spectrometers: USB4C02835
Integration Time (usec): 100000 (USB4C02835)
Spectra Averaged: 1 (USB4C02835)
Boxcar Smoothing: 0 (USB4C02835)
Correct for Electrical Dark: No (USB4C02835)
Strobe/Lamp Enabled: No (USB4C02835)
Correct for Detector Non-linearity: No (USB4C02835)
Correct for Stray Light: No (USB4C02835)
Number of Pixels in Processed Spectrum: 3648
>>>>>Begin Processed Spectral Data<<<<<
177.47	2263.01
177.69	2263.01
177.91	2263.01
178.13	2277.34
178.36	2340.83
178.58	3117.01
178.80	3237.84
179.02	3137.49
179.24	3266.51
179.46	2867.16
179.68	2893.78
179.90	3407.82
180.13	3450.83
180.35	2772.95
180.57	2877.40
180.79	3600.33
181.01	3467.21
181.23	2979.79
181.45	3131.34
181.67	3590.09
181.90	3624.90
182.12	3065.81
182.34	2846.68
182.56	3588.04
182.78	3442.64
183.00	2969.55
183.22	3065.81
183.44	3016.66
183.66	4050.88
183.89	3090.38
184.11	2901.97
184.33	3612.62
184.55	3672.01
184.77	2906.07
184.99	2977.75
185.21	3366.86
185.43	4093.89
185.65	2973.65
185.87	2963.41
186.10	4057.03
186.32	4018.11
186.54	3162.06
186.76	3057.62
186.98	3653.58
187.20	3473.36
187.42	2987.99
187.64	2977.75
187.86	3530.70
188.08	3778.50
188.30	2899.92
188.52	3026.90
188.75	3745.73
188.97	3743.69
189.19	2871.25
189.41	2865.11
189.63	3579.85
189.85	3418.06
190.07	2838.48
190.29	2809.81
190.51	3409.87
190.73	3184.59
190.95	3143.63
191.17	3033.04
191.39	3131.34
191.61	3401.68
191.84	2942.93
192.06	3117.01
192.28	3129.30
192.50	4173.76
192.72	3135.44
192.94	3039.19
193.16	3651.53
193.38	3626.95
193.60	2877.40
193.82	3139.54
194.04	3639.24
194.26	3551.18
194.48	2983.89
194.70	2961.36
194.92	3420.11
195.14	3590.09
195.36	2928.60
195.58	3014.61
195.80	3502.03
196.02	3338.19
196.24	2865.11
196.46	3086.29
196.69	3348.43
196.91	4026.31
197.13	3026.90
197.35	3057.62
197.57	3762.12
197.79	3774.41
198.01	3035.09
198.23	2975.70
198.45	3583.95
198.67	3139.54
198.89	2793.43
199.11	3041.23
199.33	3307.47
199.55	2959.31
199.77	2918.36
199.99	3137.49
200.21	3315.66
200.43	3524.55
200.65	2901.97
200.87	2795.48
201.09	3389.39
201.31	3456.97
201.53	2985.94
201.75	3043.28
201.97	3585.99
202.19	3465.16
202.41	3074.00
202.63	3106.77
202.85	3606.47
203.07	3508.17
203.29	3061.71
203.51	2891.73
203.73	3356.62
203.95	3975.11
204.17	2932.69
204.39	3123.15
204.61	3379.15
204.83	3387.34
205.05	3157.97
205.27	3008.47
205.49	4186.05
205.71	3459.02
205.93	2854.87
206.15	2879.44
206.37	3405.77
206.59	3413.96
206.81	2777.05
207.03	2803.67
207.25	3303.37
207.47	3614.66
207.69	3035.09
207.91	3278.80
208.13	3774.41
208.34	3303.37
208.56	2934.74
208.78	3055.57
209.00	3352.52
209.22	3266.51
209.44	3000.27
209.66	2926.55
209.88	3450.83
210.10	3364.81
210.32	2926.55
210.54	3006.42
210.76	3389.39
210.98	3692.49
211.20	2770.90
211.42	3098.58
211.64	3706.82
211.86	3549.13
212.08	3057.62
212.30	3008.47
212.52	3362.76
212.74	3471.31
212.96	3063.76
213.17	3049.43
213.39	3698.63
213.61	3895.24
213.83	2926.55
214.05	2793.43
214.27	3702.73
214.49	3286.99
214.71	2865.11
214.93	3020.75
215.15	3405.77
215.37	3663.82
215.59	2869.20
215.81	2977.75
216.03	3737.54
216.24	3471.31
216.46	2996.18
216.68	3043.28
216.90	3649.48
217.12	3616.71
217.34	3008.47
217.56	3139.54
217.78	3743.69
218.00	3557.32
218.22	3100.62
218.44	3055.57
218.66	3506.12
218.87	3921.86
219.09	2975.70
219.31	2930.64
219.53	3594.19
219.75	3352.52
219.97	3055.57
220.19	2985.94
220.41	3438.54
220.63	3758.02
220.85	2996.18
221.06	3020.75
221.28	3739.59
221.50	3592.14
221.72	2963.41
221.94	2820.05
222.16	3487.69
222.38	3547.08
222.60	2947.03
222.82	3043.28
223.03	3674.06
223.25	3260.37
223.47	2916.31
223.69	3190.74
223.91	3637.19
224.13	3485.64
224.35	2910.16
224.57	3205.07
224.78	3499.98
225.00	3229.65
225.22	3065.81
225.44	2865.11
225.66	3661.77
225.88	3411.92
226.10	3082.19
226.32	3016.66
226.53	3782.60
226.75	3313.61
226.97	3018.71
227.19	2928.60
227.41	3248.08
227.63	3411.92
227.85	2779.09
228.06	2977.75
228.28	3489.74
228.50	3649.48
228.72	2826.20
228.94	2930.64
229.16	3000.27
229.37	3268.56
229.59	2861.01
229.81	3284.94
230.03	3391.44
230.25	3102.67
230.47	2760.66
230.69	2858.96
230.90	3631.05
231.12	3315.66
231.34	3102.67
231.56	3024.85
231.78	3213.26
232.00	3420.11
232.21	3069.91
232.43	3018.71
232.65	2969.55
232.87	3532.75
233.09	2858.96
233.30	2885.59
233.52	3669.96
233.74	3370.96
233.96	2863.06
234.18	3190.74
234.40	3424.20
234.61	4059.07
234.83	2854.87
235.05	2926.55
235.27	3893.19
235.49	3663.82
235.70	2873.30
235.92	2959.31
236.14	3585.99
236.36	3944.39
236.58	2899.92
236.79	3102.67
237.01	3483.59
237.23	3428.30
237.45	3166.16
237.67	2971.60
237.88	3452.88
238.10	3835.85
238.32	2959.31
238.54	2926.55
238.76	3418.06
238.97	3250.13
239.19	2897.88
239.41	2983.89
239.63	3696.58
239.85	3387.34
240.06	3086.29
240.28	2961.36
240.50	3659.72
240.72	3467.21
240.93	2789.33
241.15	3041.23
241.37	3504.07
241.59	3694.54
241.81	2955.22
242.02	3082.19
242.24	3518.41
242.46	3557.32
242.68	2752.47
242.89	2928.60
243.11	3635.14
243.33	3499.98
243.55	2969.55
243.76	3012.56
243.98	3348.43
244.20	3444.68
244.42	2979.79
244.64	2928.60
244.85	3176.40
245.07	3215.31
245.29	2916.31
245.51	3063.76
245.72	3526.60
245.94	3647.43
246.16	2977.75
246.38	3000.27
246.59	3383.24
246.81	3254.22
247.03	2858.96
247.24	2795.48
247.46	3299.28
247.68	3446.73
247.90	2938.84
248.11	3016.66
248.33	3618.76
248.55	3430.35
248.77	2985.94
248.98	3141.58
249.20	3747.78
249.42	3532.75
249.64	2904.02
249.85	2955.22
250.07	3362.76
250.29	3581.90
250.50	3123.15
250.72	2908.12
250.94	3600.33
251.16	3946.44
251.37	2914.26
251.59	3051.47
251.81	3614.66
252.02	3831.75
252.24	2895.83
252.46	3135.44
252.68	3239.89
252.89	3286.99
253.11	2815.96
253.33	3139.54
253.54	3729.35
253.76	3215.31
253.98	3012.56
254.20	2953.17
254.41	3178.45
254.63	3426.25
254.85	2861.01
255.06	3104.72
255.28	3516.36
255.50	3303.37
255.71	2885.59
255.93	2756.57
256.15	3418.06
256.36	3452.88
256.58	2766.81
256.80	2797.53
257.02	3424.20
257.23	3291.09
257.45	2979.79
257.67	3033.04
257.88	3465.16
258.10	3538.89
258.32	2992.08
258.53	2998.23
258.75	3837.89
258.97	3239.89
259.18	2893.78
259.40	2994.13
259.62	3860.42
259.83	3811.27
260.05	3002.32
260.27	4059.07
260.48	3702.73
260.70	3235.79
260.92	2871.25
261.13	2981.84
261.35	3463.12
261.57	3524.55
261.78	2854.87
262.00	2869.20
262.22	3616.71
262.43	3272.65
262.65	2985.94
262.86	3000.27
263.08	3991.49
263.30	3403.72
263.51	2861.01
263.73	2942.93
263.95	3717.06
264.16	3217.36
264.38	2883.54
264.60	2883.54
264.81	3420.11
265.03	3762.12
265.25	3465.16
265.46	2938.84
265.68	3698.63
265.89	3618.76
266.11	2828.24
266.33	2967.51
266.54	3624.90
266.76	3557.32
266.98	3069.91
267.19	3184.59
267.41	3618.76
267.62	3485.64
267.84	2742.23
268.06	3067.86
268.27	3545.03
268.49	3737.54
268.70	3035.09
268.92	3057.62
269.14	3270.61
269.35	3180.50
269.57	3041.23
269.79	3026.90
270.00	3370.96
270.22	3878.85
270.43	2807.77
270.65	2861.01
270.87	3583.95
271.08	3629.00
271.30	3127.25
271.51	2924.50
271.73	3637.19
271.95	3823.56
272.16	2887.64
272.38	3135.44
272.59	3362.76
272.81	3610.57
273.02	2873.30
273.24	3098.58
273.46	3733.45
273.67	3180.50
273.89	2832.34
274.10	2908.12
274.32	3696.58
274.54	3575.75
274.75	3094.48
274.97	3151.82
275.18	3608.52
275.40	3575.75
275.61	3004.37
275.83	3213.26
276.05	3184.59
276.26	3434.44
276.48	3071.95
276.69	3100.62
276.91	3340.24
277.12	3743.69
277.34	3207.12
277.55	3262.41
277.77	3551.18
277.99	3403.72
278.20	3108.82
278.42	3059.67
278.63	3305.42
278.85	3170.26
279.06	3102.67
279.28	3135.44
279.49	3710.92
279.71	3540.94
279.93	3119.06
280.14	3166.16
280.36	3231.69
280.57	3733.45
280.79	3160.02
281.00	2994.13
281.22	3258.32
281.43	3688.39
281.65	2973.65
281.86	2936.79
282.08	3557.32
282.29	3784.65
282.51	2910.16
282.73	2985.94
282.94	3145.68
283.16	3606.47
283.37	3205.07
283.59	3119.06
283.80	3440.59
284.02	3426.25
284.23	3190.74
284.45	3131.34
284.66	3264.46
284.88	3278.80
285.09	3020.75
285.31	3200.98
285.52	3565.51
285.74	3078.10
285.95	3209.17
286.17	3256.27
286.38	3803.08
286.60	3401.68
286.81	3057.62
287.03	3002.32
287.24	3448.78
287.46	3639.24
287.67	3203.02
287.89	3340.24
288.10	3416.01
288.32	3467.21
288.53	3227.60
288.75	3102.67
288.96	3559.37
289.18	3315.66
289.39	2983.89
289.61	3262.41
289.82	3878.85
290.04	3848.13
290.25	2922.45
290.47	3209.17
290.68	3360.72
290.90	3579.85
291.11	2901.97
291.33	3305.42
291.54	3280.85
291.76	3346.38
291.97	3272.65
292.18	3239.89
292.40	3344.33
292.61	3327.95
292.83	3397.58
293.04	3180.50
293.26	3532.75
293.47	3401.68
293.69	3018.71
293.90	3051.47
294.12	3811.27
294.33	3454.92
294.55	3180.50
294.76	3332.05
294.97	3835.85
295.19	3837.89
295.40	3033.04
295.62	3155.92
295.83	3598.28
296.05	3315.66
296.26	3311.57
296.48	3059.67
296.69	3436.49
296.90	3366.86
297.12	3198.93
297.33	3303.37
297.55	3454.92
297.76	3502.03
297.98	3231.69
298.19	3340.24
298.41	3393.48
298.62	3215.31
298.83	3342.28
299.05	3149.78
299.26	3336.14
299.48	3340.24
299.69	3190.74
299.90	3000.27
300.12	3213.26
300.33	3600.33
300.55	3205.07
300.76	3194.83
300.98	3160.02
301.19	3637.19
301.40	3157.97
301.62	3131.34
301.83	3557.32
302.05	3407.82
302.26	3078.10
302.47	3200.98
302.69	3266.51
302.90	3428.30
303.12	2928.60
303.33	3190.74
303.54	3919.81
303.76	3360.72
303.97	3047.38
304.19	3309.52
304.40	3248.08
304.61	3561.42
304.83	3168.21
305.04	3213.26
305.26	3602.38
305.47	3379.15
305.68	3090.38
305.90	2936.79
306.11	3760.07
306.33	3461.07
306.54	2961.36
306.75	3080.14
306.97	3090.38
307.18	3198.93
307.39	3030.99
307.61	3223.50
307.82	3446.73
308.04	3487.69
308.25	2961.36
308.46	3233.74
308.68	3444.68
308.89	3446.73
309.10	3297.23
309.32	3129.30
309.53	3442.64
309.74	3631.05
309.96	3041.23
310.17	3225.55
310.39	3393.48
310.60	3545.03
310.81	3008.47
311.03	3057.62
311.24	3604.42
311.45	3432.40
311.67	3299.28
311.88	3188.69
312.09	3356.62
312.31	3393.48
312.52	3063.76
312.73	3078.10
312.95	3213.26
313.16	3188.69
313.37	3379.15
313.59	3280.85
313.80	3577.80
314.01	3815.37
314.23	3114.96
314.44	2985.94
314.65	3180.50
314.87	3260.37
315.08	3110.86
315.29	3065.81
315.51	3291.09
315.72	3131.34
315.93	3184.59
316.15	3096.53
316.36	3313.61
316.57	3557.32
316.79	3254.22
317.00	3010.51
317.21	3532.75
317.43	3239.89
317.64	3086.29
317.85	3049.43
318.07	3235.79
318.28	3325.90
318.49	3180.50
318.70	3348.43
318.92	3383.24
319.13	3426.25
319.34	3241.93
319.56	3071.95
319.77	3530.70
319.98	3502.03
320.20	3432.40
320.41	3311.57
320.62	3667.91
320.83	3149.78
321.05	3313.61
321.26	3190.74
321.47	3545.03
321.69	3692.49
321.90	3010.51
322.11	3016.66
322.32	3524.55
322.54	3782.60
322.75	3086.29
322.96	4179.90
323.18	3125.20
323.39	3012.56
323.60	3045.33
323.81	3155.92
324.03	3301.33
324.24	3385.29
324.45	3286.99
324.66	3037.14
324.88	3710.92
325.09	3755.97
325.30	3082.19
325.52	2990.03
325.73	3690.44
325.94	3291.09
326.15	2944.98
326.37	2975.70
326.58	3620.81
326.79	3829.70
327.00	3086.29
327.22	3043.28
327.43	3438.54
327.64	3180.50
327.85	3231.69
328.07	3141.58
328.28	3895.24
328.49	3286.99
328.70	3121.10
328.92	3155.92
329.13	3393.48
329.34	3512.27
329.55	3348.43
329.76	3198.93
329.98	3383.24
330.19	3674.06
330.40	3219.41
330.61	3330.00
330.83	3653.58
331.04	3317.71
331.25	3221.45
331.46	3250.13
331.68	3227.60
331.89	3651.53
332.10	3071.95
332.31	2914.26
332.52	3422.16
332.74	3708.87
332.95	2955.22
333.16	3135.44
333.37	3622.86
333.58	3299.28
333.80	3074.00
334.01	2949.08
334.22	3420.11
334.43	3301.33
334.64	3100.62
334.86	3057.62
335.07	3239.89
335.28	3788.74
335.49	2981.84
335.70	3139.54
335.92	3815.37
336.13	3950.53
336.34	3127.25
336.55	3071.95
336.76	3520.46
336.98	2897.88
337.19	3188.69
337.40	3168.21
337.61	4048.83
337.82	3432.40
338.04	3209.17
338.25	2924.50
338.46	3409.87
338.67	3364.81
338.88	3041.23
339.09	2983.89
339.31	3368.91
339.52	3135.44
339.73	3053.52
339.94	3035.09
340.15	3592.14
340.36	3319.76
340.58	3117.01
340.79	3037.14
341.00	3588.04
341.21	3213.26
341.42	3360.72
341.63	3112.91
341.85	3676.10
342.06	3497.93
342.27	3067.86
342.48	3274.70
342.69	3188.69
342.90	3520.46
343.12	3532.75
343.33	2990.03
343.54	3735.50
343.75	3829.70
343.96	3188.69
344.17	3104.72
344.38	3358.67
344.60	3229.65
344.81	2996.18
345.02	3078.10
345.23	3641.29
345.44	3936.20
345.65	3123.15
345.86	3219.41
346.07	3438.54
346.29	3315.66
346.50	3289.04
346.71	3176.40
346.92	3733.45
347.13	3911.62
347.34	3221.45
347.55	2877.40
347.76	3438.54
347.98	3080.14
348.19	3123.15
348.40	3303.37
348.61	3317.71
348.82	3811.27
349.03	3209.17
349.24	3047.38
349.45	3844.04
349.66	2998.23
349.88	3078.10
350.09	2965.46
350.30	3733.45
350.51	3764.17
350.72	3301.33
350.93	3141.58
351.14	3278.80
351.35	3575.75
351.56	3151.82
351.77	3170.26
351.99	3530.70
352.20	3805.13
352.41	3188.69
352.62	2893.78
352.83	3428.30
353.04	3381.20
353.25	3057.62
353.46	3168.21
353.67	3712.97
353.88	3082.19
354.09	3035.09
354.30	3133.39
354.52	3649.48
354.73	3442.64
354.94	3059.67
355.15	3217.36
355.36	3891.14
355.57	3295.18
355.78	3026.90
355.99	3119.06
356.20	3334.09
356.41	3770.31
356.62	3192.78
356.83	3096.53
357.04	3641.29
357.25	3057.62
357.46	3053.52
357.68	3035.09
357.89	3264.46
358.10	3463.12
358.31	3053.52
358.52	3106.77
358.73	3194.83
358.94	3182.54
359.15	3180.50
359.36	3180.50
359.57	3446.73
359.78	3362.76
359.99	3297.23
360.20	2985.94
360.41	3436.49
360.62	3516.36
360.83	3231.69
361.04	3166.16
361.25	3606.47
361.46	3743.69
361.67	3186.64
361.88	3080.14
362.09	3626.95
362.30	3481.55
362.51	3033.04
362.72	3133.39
362.93	3585.99
363.14	3542.99
363.35	3229.65
363.56	2990.03
363.78	3811.27
363.99	3614.66
364.20	3039.19
364.41	3125.20
364.62	3807.17
364.83	3459.02
365.04	3030.99
365.25	3114.96
365.46	3930.05
365.67	3264.46
365.88	3301.33
366.09	3037.14
366.30	3305.42
366.51	3526.60
366.72	3061.71
366.93	3000.27
367.14	3391.44
367.35	3794.89
367.56	3088.34
367.77	3209.17
367.98	3391.44
368.18	3618.76
368.39	3274.70
368.60	3016.66
368.81	3639.24
369.02	3510.22
369.23	3071.95
369.44	2893.78
369.65	3442.64
369.86	3626.95
370.07	3235.79
370.28	3012.56
370.49	3528.65
370.70	3520.46
370.91	3112.91
371.12	2967.51
371.33	3747.78
371.54	3313.61
371.75	3223.50
371.96	2854.87
372.17	3491.79
372.38	3416.01
372.59	3090.38
372.80	3100.62
373.01	3391.44
373.22	3532.75
373.43	3129.30
373.64	2953.17
373.85	3762.12
374.06	3925.96
374.26	3313.61
374.47	3182.54
374.68	3788.74
374.89	3426.25
375.10	3065.81
375.31	3250.13
375.52	3436.49
375.73	3401.68
375.94	2955.22
376.15	3258.32
376.36	3340.24
376.57	3278.80
376.78	3108.82
376.99	3182.54
377.20	3753.93
377.40	3340.24
377.61	3418.06
377.82	3084.24
378.03	3780.55
378.24	3553.23
378.45	3209.17
378.66	3299.28
378.87	3076.05
379.08	3164.11
379.29	3076.05
379.50	3280.85
379.71	3442.64
379.91	3598.28
380.12	3123.15
380.33	3160.02
380.54	3493.83
380.75	3434.44
380.96	3139.54
381.17	3100.62
381.38	3383.24
381.59	3383.24
381.80	3092.43
382.00	3258.32
382.21	3385.29
382.42	3725.26
382.63	3532.75
382.84	3299.28
383.05	3590.09
383.26	3819.46
383.47	3252.17
383.68	3067.86
383.88	3571.66
384.09	3379.15
384.30	3368.91
384.51	3270.61
384.72	3319.76
384.93	3229.65
385.14	3311.57
385.35	3387.34
385.55	3170.26
385.76	3684.30
385.97	3176.40
386.18	2975.70
386.39	3225.55
386.60	3237.84
386.81	3090.38
387.02	3008.47
387.22	3215.31
387.43	3510.22
387.64	3209.17
387.85	3330.00
388.06	3364.81
388.27	4372.41
388.48	7337.87
388.68	11073.37
388.89	13723.44
389.10	14923.55
389.31	14509.86
389.52	11833.16
389.73	10311.52
389.93	9469.81
390.14	8447.87
390.35	7958.41
390.56	7475.09
390.77	6186.91
390.98	4726.71
391.18	4067.27
391.39	3991.49
391.60	3483.59
391.81	3305.42
392.02	3246.03
392.23	3991.49
392.43	3444.68
392.64	3241.93
392.85	3213.26
393.06	3753.93
393.27	3411.92
393.47	3102.67
393.68	3215.31
393.89	3377.10
394.10	3712.97
394.31	3088.34
394.52	3026.90
394.72	3323.85
394.93	3846.09
395.14	3033.04
395.35	3278.80
395.56	3334.09
395.76	3354.57
395.97	3139.54
396.18	3309.52
396.39	3348.43
396.60	4151.23
396.80	3506.12
397.01	3405.77
397.22	3557.32
397.43	3700.68
397.64	3151.82
397.84	3256.27
398.05	3911.62
398.26	3356.62
398.47	3237.84
398.67	3358.67
398.88	3446.73
399.09	3575.75
399.30	3098.58
399.51	3213.26
399.71	3266.51
399.92	3526.60
400.13	3207.12
400.34	3100.62
400.54	3430.35
400.75	3692.49
400.96	3190.74
401.17	3463.12
401.37	3454.92
401.58	3395.53
401.79	3166.16
402.00	3266.51
402.21	3964.87
402.41	3592.14
402.62	3397.58
402.83	3559.37
403.04	3778.50
403.24	4186.05
403.45	3325.90
403.66	3444.68
403.87	3672.01
404.07	3805.13
404.28	3424.20
404.49	3436.49
404.70	3565.51
404.90	3624.90
405.11	3178.45
405.32	3203.02
405.52	3332.05
405.73	3297.23
405.94	3131.34
406.15	3160.02
406.35	3620.81
406.56	3614.66
406.77	3194.83
406.98	3082.19
407.18	3260.37
407.39	3909.57
407.60	3157.97
407.80	3246.03
408.01	3348.43
408.22	3553.23
408.43	3037.14
408.63	3286.99
408.84	3647.43
409.05	3672.01
409.25	3053.52
409.46	3188.69
409.67	3325.90
409.88	3346.38
410.08	3246.03
410.29	3024.85
410.50	3684.30
410.70	3657.67
410.91	3121.10
411.12	3110.86
411.32	3434.44
411.53	3252.17
411.74	3125.20
411.95	3246.03
412.15	3393.48
412.36	3622.86
412.57	3280.85
412.77	3344.33
412.98	3477.45
413.19	3407.82
413.39	3213.26
413.60	3182.54
413.81	3712.97
414.01	3186.64
414.22	3166.16
414.43	3360.72
414.63	3276.75
414.84	3659.72
415.05	3295.18
415.25	3008.47
415.46	3631.05
415.67	3327.95
415.87	3133.39
416.08	3149.78
416.29	3352.52
416.49	3491.79
416.70	3246.03
416.91	3162.06
417.11	3385.29
417.32	3717.06
417.53	3284.94
417.73	3278.80
417.94	3395.53
418.15	3510.22
418.35	3194.83
418.56	3186.64
418.77	3921.86
418.97	3393.48
419.18	3289.04
419.38	2844.63
419.59	3456.97
419.80	3708.87
420.00	3102.67
420.21	3219.41
420.42	3770.31
420.62	3651.53
420.83	3143.63
421.04	3178.45
421.24	3471.31
421.45	3678.15
421.65	3155.92
421.86	3188.69
422.07	3610.57
422.27	3622.86
422.48	3082.19
422.69	3071.95
422.89	3385.29
423.10	3332.05
423.30	3198.93
423.51	3176.40
423.72	3520.46
423.92	3512.27
424.13	3086.29
424.33	3268.56
424.54	3555.27
424.75	3504.07
424.95	3473.36
425.16	3061.71
425.36	3381.20
425.57	3659.72
425.78	3231.69
425.98	3291.09
426.19	3420.11
426.39	3237.84
426.60	3258.32
426.81	3317.71
427.01	3467.21
427.22	3278.80
427.42	3024.85
427.63	3178.45
427.83	3667.91
428.04	3796.93
428.25	3229.65
428.45	3303.37
428.66	3631.05
428.86	3354.57
429.07	3180.50
429.28	3145.68
429.48	3385.29
429.69	3327.95
429.89	3256.27
430.10	3041.23
430.30	3594.19
430.51	3731.40
430.71	3069.91
430.92	3243.98
431.13	3336.14
431.33	3528.65
431.54	3278.80
431.74	3403.72
431.95	3921.86
432.15	3190.74
432.36	3205.07
432.56	3221.45
432.77	3901.38
432.98	3852.23
433.18	3264.46
433.39	3037.14
433.59	3424.20
433.80	3901.38
434.00	3241.93
434.21	3164.11
434.41	3344.33
434.62	3991.49
434.82	3061.71
435.03	3078.10
435.23	3573.71
435.44	3043.28
435.64	3141.58
435.85	3248.08
436.06	3622.86
436.26	3577.80
436.47	3217.36
436.67	3067.86
436.88	3362.76
437.08	3612.62
437.29	3309.52
437.49	3334.09
437.70	3712.97
437.90	3321.81
438.11	3438.54
438.31	3215.31
438.52	3712.97
438.72	3655.62
438.93	3463.12
439.13	3256.27
439.34	3569.61
439.54	3309.52
439.75	3311.57
439.95	3164.11
440.16	3246.03
440.36	3450.83
440.57	3112.91
440.77	3127.25
440.98	3448.78
441.18	3485.64
441.39	3092.43
441.59	3006.42
441.80	3889.09
442.00	3422.16
442.21	3186.64
442.41	2975.70
442.62	3645.38
442.82	3293.13
443.02	3100.62
443.23	3172.30
443.43	3422.16
443.64	3755.97
443.84	3041.23
444.05	3227.60
444.25	3459.02
444.46	3395.53
444.66	3104.72
444.87	3338.19
445.07	3076.05
445.28	3436.49
445.48	3334.09
445.69	3235.79
445.89	4063.17
446.09	3342.28
446.30	3473.36
446.50	3510.22
446.71	4941.75
446.91	6172.58
447.12	6889.37
447.32	7327.63
447.53	7288.72
447.73	6250.40
447.93	5416.88
448.14	5148.59
448.34	5523.37
448.55	4509.63
448.75	4378.56
448.96	4106.18
449.16	4257.73
449.36	4011.97
449.57	3358.67
449.77	3266.51
449.98	3368.91
450.18	3499.98
450.39	3063.76
450.59	3409.87
450.79	3426.25
451.00	3338.19
451.20	3352.52
451.41	3141.58
451.61	3512.27
451.81	3391.44
452.02	3102.67
452.22	3182.54
452.43	3313.61
452.63	3123.15
452.84	3205.07
453.04	3127.25
453.24	3542.99
453.45	3321.81
453.65	3172.30
453.86	3215.31
454.06	3456.97
454.26	3438.54
454.47	3190.74
454.67	3360.72
454.87	3575.75
455.08	3403.72
455.28	3225.55
455.49	3409.87
455.69	3254.22
455.89	3897.28
456.10	3246.03
456.30	3110.86
456.51	3659.72
456.71	3459.02
456.91	3362.76
457.12	3184.59
457.32	3438.54
457.52	3246.03
457.73	3373.00
457.93	3354.57
458.14	3330.00
458.34	3006.42
458.54	3205.07
458.75	3067.86
458.95	3690.44
459.15	3477.45
459.36	3231.69
459.56	3096.53
459.76	3885.00
459.97	3446.73
460.17	3184.59
460.37	3198.93
460.58	3434.44
460.78	3600.33
460.99	3270.61
461.19	3106.77
461.39	3286.99
461.60	3358.67
461.80	3241.93
462.00	3022.80
462.21	3436.49
462.41	3248.08
462.61	3088.34
462.82	3033.04
463.02	3524.55
463.22	3454.92
463.43	3213.26
463.63	3086.29
463.83	3745.73
464.04	3663.82
464.24	3114.96
464.44	3155.92
464.64	3483.59
464.85	3583.95
465.05	3145.68
465.25	3094.48
465.46	3360.72
465.66	3459.02
465.86	3291.09
466.07	3016.66
466.27	3405.77
466.47	3067.86
466.68	3014.61
466.88	3225.55
467.08	3524.55
467.29	3704.78
467.49	3278.80
467.69	3393.48
467.89	3624.90
468.10	3381.20
468.30	3295.18
468.50	3264.46
468.71	3655.62
468.91	3119.06
469.11	3368.91
469.31	3311.57
469.52	3237.84
469.72	3831.75
469.92	3469.26
470.13	3217.36
470.33	3469.26
470.53	3526.60
470.73	3538.89
470.94	3903.43
471.14	4044.74
471.34	4562.87
471.54	4157.38
471.75	3868.61
471.95	3782.60
472.15	3721.16
472.36	3706.82
472.56	3549.13
472.76	3936.20
472.96	3776.45
473.17	3389.39
473.37	3295.18
473.57	3352.52
473.77	3622.86
473.98	3356.62
474.18	3043.28
474.38	4204.48
474.58	3295.18
474.79	3084.24
474.99	3239.89
475.19	3796.93
475.39	3225.55
475.60	3313.61
475.80	3098.58
476.00	3520.46
476.20	3348.43
476.41	3235.79
476.61	3248.08
476.81	3725.26
477.01	3237.84
477.21	3467.21
477.42	3291.09
477.62	3340.24
477.82	3618.76
478.02	3121.10
478.23	3172.30
478.43	3225.55
478.63	3362.76
478.83	3172.30
479.03	3274.70
479.24	3801.03
479.44	3895.24
479.64	3076.05
479.84	3061.71
480.04	3284.94
480.25	3698.63
480.45	3141.58
480.65	3094.48
480.85	3815.37
481.06	3385.29
481.26	3205.07
481.46	3092.43
481.66	3540.94
481.86	3258.32
482.06	3364.81
482.27	3278.80
482.47	3352.52
482.67	3497.93
482.87	3305.42
483.07	3237.84
483.28	3334.09
483.48	3266.51
483.68	3198.93
483.88	3084.24
484.08	2975.70
484.29	3129.30
484.49	3252.17
484.69	2971.60
484.89	3696.58
485.09	3684.30
485.29	3170.26
485.50	3368.91
485.70	3327.95
485.90	3733.45
486.10	3356.62
486.30	3114.96
486.50	3755.97
486.71	3581.90
486.91	3143.63
487.11	3205.07
487.31	3160.02
487.51	3581.90
487.71	3213.26
487.91	3125.20
488.12	3299.28
488.32	2918.36
488.52	3133.39
488.72	2899.92
488.92	3495.88
489.12	3725.26
489.32	3295.18
489.53	3074.00
489.73	3069.91
489.93	3809.22
490.13	3194.83
490.33	3024.85
490.53	3442.64
490.73	3676.10
490.94	3022.80
491.14	3344.33
491.34	3618.76
491.54	3600.33
491.74	3999.68
491.94	4505.53
492.14	5072.82
492.34	5248.94
492.54	4753.34
492.75	4089.79
492.95	4448.19
493.15	4222.91
493.35	3887.04
493.55	3848.13
493.75	3751.88
493.95	4071.36
494.15	3440.59
494.35	3278.80
494.56	3491.79
494.76	3319.76
494.96	3362.76
495.16	2967.51
495.36	3538.89
495.56	3434.44
495.76	3299.28
495.96	3157.97
496.16	3309.52
496.36	3885.00
496.56	3086.29
496.77	3246.03
496.97	3391.44
497.17	3807.17
497.37	2990.03
497.57	3219.41
497.77	3467.21
497.97	3315.66
498.17	3176.40
498.37	3141.58
498.57	3506.12
498.77	3356.62
498.97	3368.91
499.17	3520.46
499.38	3401.68
499.58	3610.57
499.78	3332.05
499.98	3321.81
500.18	3411.92
500.38	3164.11
500.58	3336.14
500.78	3811.27
500.98	6098.85
501.18	7831.43
501.38	9242.48
501.58	10018.66
501.78	9901.93
501.98	8451.97
502.18	7020.44
502.38	6123.43
502.58	6279.07
502.78	5490.60
502.98	5210.03
503.18	5087.15
503.38	4863.93
503.59	4163.52
503.79	4032.45
503.99	3729.35
504.19	3846.09
504.39	3971.01
504.59	3659.72
504.79	3528.65
504.99	3946.44
505.19	3612.62
505.39	3405.77
505.59	3483.59
505.79	3835.85
505.99	3600.33
506.19	3274.70
506.39	3426.25
506.59	3377.10
506.79	3373.00
506.99	3348.43
507.19	3057.62
507.39	3467.21
507.59	3211.22
507.79	3110.86
507.99	3121.10
508.19	3348.43
508.39	3338.19
508.59	3112.91
508.79	3299.28
508.99	3780.55
509.19	3198.93
509.39	3188.69
509.59	3045.33
509.79	3364.81
509.99	3467.21
510.19	3370.96
510.39	3305.42
510.59	3485.64
510.79	3317.71
510.99	3004.37
511.19	3137.49
511.39	3823.56
511.59	3690.44
511.79	3336.14
511.99	3067.86
512.19	3878.85
512.38	3401.68
512.58	3164.11
512.78	3090.38
512.98	3647.43
513.18	3819.46
513.38	3065.81
513.58	3344.33
513.78	3424.20
513.98	3416.01
514.18	3237.84
514.38	3188.69
514.58	3479.50
514.78	3305.42
514.98	3090.38
515.18	3180.50
515.38	3147.73
515.58	3854.28
515.78	3213.26
515.98	3153.87
516.18	3551.18
516.38	3422.16
516.57	3114.96
516.77	3125.20
516.97	3536.84
517.17	3356.62
517.37	2955.22
517.57	3233.74
517.77	3518.41
517.97	3272.65
518.17	3194.83
518.37	3049.43
518.57	3332.05
518.77	3327.95
518.97	3223.50
519.16	3188.69
519.36	3743.69
519.56	3270.61
519.76	3098.58
519.96	3225.55
520.16	3762.12
520.36	3229.65
520.56	3381.20
520.76	3092.43
520.96	3364.81
521.16	3633.10
521.35	3379.15
521.55	3315.66
521.75	3467.21
521.95	3280.85
522.15	3168.21
522.35	3010.51
522.55	3315.66
522.75	3600.33
522.95	3069.91
523.14	2955.22
523.34	3463.12
523.54	3360.72
523.74	3254.22
523.94	3196.88
524.14	3172.30
524.34	3442.64
524.54	3389.39
524.73	3182.54
524.93	3600.33
525.13	3485.64
525.33	3045.33
525.53	3411.92
525.73	3657.67
525.93	3530.70
526.13	3157.97
526.32	3090.38
526.52	3753.93
526.72	3585.99
526.92	3139.54
527.12	3076.05
527.32	3225.55
527.52	3489.74
527.71	3209.17
527.91	3215.31
528.11	3354.57
528.31	3409.87
528.51	3090.38
528.71	3327.95
528.90	3573.71
529.10	3674.06
529.30	3246.03
529.50	2940.88
529.70	3626.95
529.90	3330.00
530.09	3211.22
530.29	3057.62
530.49	3262.41
530.69	4036.55
530.89	3399.63
531.09	3227.60
531.28	3289.04
531.48	3782.60
531.68	3141.58
531.88	3162.06
532.08	3553.23
532.28	3352.52
532.47	3266.51
532.67	3280.85
532.87	3504.07
533.07	3149.78
533.27	3186.64
533.46	3336.14
533.66	3585.99
533.86	3483.59
534.06	3203.02
534.26	3237.84
534.45	3303.37
534.65	3602.38
534.85	3270.61
535.05	3102.67
535.25	3639.24
535.44	3090.38
535.64	3215.31
535.84	3205.07
536.04	3362.76
536.24	3297.23
536.43	3114.96
536.63	3135.44
536.83	3506.12
537.03	3483.59
537.22	2979.79
537.42	2994.13
537.62	3524.55
537.82	3297.23
538.02	3274.70
538.21	3184.59
538.41	4097.99
538.61	3608.52
538.81	3233.74
539.00	3303.37
539.20	3110.86
539.40	3276.75
539.60	3078.10
539.79	3430.35
539.99	3442.64
540.19	3250.13
540.39	3117.01
540.58	3266.51
540.78	3549.13
540.98	3487.69
541.18	3442.64
541.37	3188.69
541.57	3536.84
541.77	3475.40
541.97	3100.62
542.16	2985.94
542.36	3391.44
542.56	3309.52
542.76	3325.90
542.95	3303.37
543.15	3547.08
543.35	3725.26
543.54	3102.67
543.74	3090.38
543.94	3729.35
544.14	3252.17
544.33	3272.65
544.53	3139.54
544.73	3397.58
544.93	3299.28
545.12	3166.16
545.32	3180.50
545.52	3373.00
545.71	3239.89
545.91	3207.12
546.11	3055.57
546.30	3207.12
546.50	3450.83
546.70	3264.46
546.90	3141.58
547.09	3106.77
547.29	3426.25
547.49	3272.65
547.68	3225.55
547.88	3280.85
548.08	3594.19
548.27	3438.54
548.47	3123.15
548.67	3348.43
548.87	3565.51
549.06	3137.49
549.26	3037.14
549.46	3442.64
549.65	3289.04
549.85	3198.93
550.05	3123.15
550.24	3237.84
550.44	3397.58
550.64	3338.19
550.83	3209.17
551.03	3813.32
551.23	3674.06
551.42	3262.41
551.62	3377.10
551.82	3465.16
552.01	3358.67
552.21	3493.83
552.41	3182.54
552.60	3760.07
552.80	3379.15
553.00	3135.44
553.19	3270.61
553.39	3719.11
553.59	3143.63
553.78	3260.37
553.98	3090.38
554.17	3233.74
554.37	3502.03
554.57	3282.89
554.76	2983.89
554.96	3362.76
555.16	3434.44
555.35	3330.00
555.55	3299.28
555.75	3450.83
555.94	3602.38
556.14	3014.61
556.33	3229.65
556.53	3487.69
556.73	3401.68
556.92	3217.36
557.12	3157.97
557.32	3909.57
557.51	3704.78
557.71	3231.69
557.90	3379.15
558.10	3618.76
558.30	3428.30
558.49	3157.97
558.69	3205.07
558.88	3608.52
559.08	3428.30
559.28	3221.45
559.47	3180.50
559.67	3579.85
559.86	4007.87
560.06	3145.68
560.26	3184.59
560.45	3559.37
560.65	3401.68
560.84	3424.20
561.04	3137.49
561.24	3585.99
561.43	3151.82
561.63	3499.98
561.82	3289.04
562.02	3549.13
562.22	3336.14
562.41	3108.82
562.61	3151.82
562.80	3162.06
563.00	3844.04
563.19	3200.98
563.39	3262.41
563.59	3592.14
563.78	3125.20
563.98	2971.60
564.17	3180.50
564.37	3082.19
564.56	3297.23
564.76	3094.48
564.96	3321.81
565.15	3485.64
565.35	3915.72
565.54	3213.26
565.74	3170.26
565.93	3532.75
566.13	3391.44
566.32	3256.27
566.52	3260.37
566.71	3426.25
566.91	3622.86
567.11	3338.19
567.30	3125.20
567.50	3549.13
567.69	3561.42
567.89	3178.45
568.08	3049.43
568.28	3516.36
568.47	3198.93
568.67	3254.22
568.86	3135.44
569.06	3583.95
569.25	3303.37
569.45	3049.43
569.64	3170.26
569.84	3303.37
570.04	3483.59
570.23	3246.03
570.43	3176.40
570.62	3565.51
570.82	3862.47
571.01	3002.32
571.21	3221.45
571.40	3323.85
571.60	3612.62
571.79	3190.74
571.99	3145.68
572.18	3219.41
572.38	3461.07
572.57	3248.08
572.77	3254.22
572.96	4026.31
573.16	3438.54
573.35	3151.82
573.55	3364.81
573.74	3565.51
573.94	3323.85
574.13	3200.98
574.33	3389.39
574.52	3749.83
574.71	3456.97
574.91	3170.26
575.10	3065.81
575.30	3325.90
575.49	3291.09
575.69	3090.38
575.88	3117.01
576.08	3403.72
576.27	3594.19
576.47	3098.58
576.66	3317.71
576.86	3794.89
577.05	3502.03
577.25	3246.03
577.44	3360.72
577.64	3311.57
577.83	3655.62
578.02	3084.24
578.22	3217.36
578.41	3893.19
578.61	3354.57
578.80	3033.04
579.00	3248.08
579.19	3375.05
579.39	3549.13
579.58	3246.03
579.77	3239.89
579.97	3743.69
580.16	3698.63
580.36	3397.58
580.55	3211.22
580.75	3551.18
580.94	3393.48
581.13	3370.96
581.33	3405.77
581.52	3356.62
581.72	3889.09
581.91	3348.43
582.11	3174.35
582.30	3643.34
582.49	3442.64
582.69	3555.27
582.88	3192.78
583.08	3495.88
583.27	3674.06
583.47	3319.76
583.66	3164.11
583.85	3221.45
584.05	3434.44
584.24	3299.28
584.44	3213.26
584.63	3600.33
584.82	3604.42
585.02	3381.20
585.21	3325.90
585.41	3499.98
585.60	3401.68
585.79	3405.77
585.99	3411.92
586.18	3465.16
586.37	4423.61
586.57	6657.95
586.76	18456.29
586.96	37320.13
587.15	49890.57
587.34	58123.40
587.54	61492.31
587.73	53877.96
587.93	38708.66
588.12	30027.32
588.31	24952.45
588.51	22089.39
588.70	20534.98
588.89	18026.22
589.09	15306.52
589.28	13258.55
589.47	10389.35
589.67	7837.58
589.86	6178.72
590.06	4859.83
590.25	4634.55
590.44	3766.21
590.64	3635.14
590.83	3631.05
591.02	3676.10
591.22	3200.98
591.41	3176.40
591.60	3461.07
591.80	4020.16
591.99	3008.47
592.18	3147.73
592.38	3661.77
592.57	3303.37
592.76	3227.60
592.96	3299.28
593.15	3401.68
593.34	3651.53
593.54	3221.45
593.73	3225.55
593.92	3534.79
594.12	3569.61
594.31	3280.85
594.50	3342.28
594.70	3547.08
594.89	4038.59
595.08	3096.53
595.28	3356.62
595.47	4122.56
595.66	3649.48
595.86	3037.14
596.05	3088.34
596.24	3323.85
596.43	3917.76
596.63	3264.46
596.82	3397.58
597.01	3491.79
597.21	3776.45
597.40	3170.26
597.59	3231.69
597.79	3465.16
597.98	3594.19
598.17	3194.83
598.36	3213.26
598.56	3610.57
598.75	3297.23
598.94	3274.70
599.14	3297.23
599.33	3385.29
599.52	3674.06
599.71	3264.46
599.91	3235.79
600.10	3590.09
600.29	3502.03
600.48	3200.98
600.68	3358.67
600.87	3434.44
601.06	3303.37
601.26	3303.37
601.45	3375.05
601.64	3479.50
601.83	3786.69
602.03	3059.67
602.22	3026.90
602.41	3651.53
602.60	3958.72
602.80	3278.80
602.99	3407.82
603.18	3342.28
603.37	3444.68
603.57	3110.86
603.76	3246.03
603.95	3778.50
604.14	3293.13
604.34	3119.06
604.53	3239.89
604.72	3467.21
604.91	3583.95
605.10	3110.86
605.30	3033.04
605.49	3934.15
605.68	3563.47
605.87	3213.26
606.07	3041.23
606.26	3442.64
606.45	3551.18
606.64	3225.55
606.84	3114.96
607.03	3467.21
607.22	3700.68
607.41	3284.94
607.60	3184.59
607.80	3688.39
607.99	3354.57
608.18	3235.79
608.37	3182.54
608.56	3260.37
608.76	3715.02
608.95	3395.53
609.14	3209.17
609.33	3635.14
609.52	3702.73
609.72	3239.89
609.91	3268.56
610.10	3426.25
610.29	3721.16
610.48	3321.81
610.68	3282.89
610.87	3409.87
611.06	3620.81
611.25	3217.36
611.44	3303.37
611.63	3506.12
611.83	3747.78
612.02	3188.69
612.21	3323.85
612.40	3016.66
612.59	3139.54
612.79	3108.82
612.98	3237.84
613.17	3784.65
613.36	3364.81
613.55	3319.76
613.74	3086.29
613.93	3411.92
614.13	3524.55
614.32	3256.27
614.51	3194.83
614.70	3389.39
614.89	3377.10
615.08	3352.52
615.28	3532.75
615.47	3229.65
615.66	3469.26
615.85	3194.83
616.04	3188.69
616.23	3471.31
616.42	3428.30
616.62	3123.15
616.81	3235.79
617.00	3411.92
617.19	3518.41
617.38	3080.14
617.57	3237.84
617.76	3553.23
617.95	3598.28
618.15	3237.84
618.34	3454.92
618.53	3182.54
618.72	3680.20
618.91	3295.18
619.10	3213.26
619.29	3418.06
619.48	3430.35
619.68	3149.78
619.87	3213.26
620.06	3114.96
620.25	3495.88
620.44	3098.58
620.63	3164.11
620.82	3495.88
621.01	3565.51
621.20	3229.65
621.39	3203.02
621.59	3522.51
621.78	3444.68
621.97	3252.17
622.16	3348.43
622.35	3514.31
622.54	3639.24
622.73	3299.28
622.92	2944.98
623.11	3620.81
623.30	3336.14
623.49	3346.38
623.68	3086.29
623.88	3708.87
624.07	3289.04
624.26	3139.54
624.45	3209.17
624.64	3432.40
624.83	3502.03
625.02	3141.58
625.21	3237.84
625.40	3596.23
625.59	3682.25
625.78	3196.88
625.97	3246.03
626.16	3778.50
626.35	3608.52
626.54	3180.50
626.74	3366.86
626.93	3362.76
627.12	3397.58
627.31	3286.99
627.50	3162.06
627.69	3569.61
627.88	3198.93
628.07	3207.12
628.26	3065.81
628.45	3260.37
628.64	3266.51
628.83	3164.11
629.02	3055.57
629.21	3672.01
629.40	3555.27
629.59	3018.71
629.78	3205.07
629.97	3477.45
630.16	3432.40
630.35	3135.44
630.54	3323.85
630.73	3323.85
630.92	3383.24
631.11	3076.05
631.30	3299.28
631.49	3559.37
631.68	3491.79
631.87	3276.75
632.06	3119.06
632.25	3995.59
632.44	3426.25
632.63	3198.93
632.82	3215.31
633.01	3256.27
633.20	3516.36
633.39	3153.87
633.58	2895.83
633.77	3471.31
633.96	3635.14
634.15	3276.75
634.34	3254.22
634.53	3633.10
634.72	3250.13
634.91	3049.43
635.10	3127.25
635.29	3559.37
635.48	3481.55
635.67	3108.82
635.86	2979.79
636.05	3712.97
636.24	3411.92
636.43	3133.39
636.62	3229.65
636.81	3018.71
637.00	3358.67
637.19	3127.25
637.38	3151.82
637.57	3344.33
637.76	3319.76
637.95	3332.05
638.14	3413.96
638.33	3508.17
638.52	3465.16
638.71	3078.10
638.89	3039.19
639.08	3971.01
639.27	3647.43
639.46	3352.52
639.65	3604.42
639.84	3876.80
640.03	4016.07
640.22	3549.13
640.41	3475.40
640.60	3514.31
640.79	3561.42
640.98	3452.88
641.17	3399.63
641.36	3626.95
641.55	3590.09
641.74	3030.99
641.92	3092.43
642.11	3211.22
642.30	3358.67
642.49	3020.75
642.68	3149.78
642.87	3542.99
643.06	3516.36
643.25	3057.62
643.44	3100.62
643.63	3452.88
643.82	3567.56
644.00	3108.82
644.19	3225.55
644.38	3223.50
644.57	3596.23
644.76	3248.08
644.95	3250.13
645.14	3487.69
645.33	3463.12
645.52	3282.89
645.71	3041.23
645.89	3164.11
646.08	3491.79
646.27	3241.93
646.46	3454.92
646.65	3123.15
646.84	3551.18
647.03	3114.96
647.22	3305.42
647.40	3489.74
647.59	3434.44
647.78	2863.06
647.97	3203.02
648.16	3151.82
648.35	3639.24
648.54	3450.83
648.73	3225.55
648.91	3639.24
649.10	3428.30
649.29	3108.82
649.48	3164.11
649.67	3456.97
649.86	3409.87
650.05	3231.69
650.23	3422.16
650.42	3336.14
650.61	3708.87
650.80	3327.95
650.99	3368.91
651.18	3700.68
651.36	3608.52
651.55	3053.52
651.74	3358.67
651.93	3321.81
652.12	3395.53
652.31	3217.36
652.49	3256.27
652.68	3436.49
652.87	3733.45
653.06	3375.05
653.25	3411.92
653.44	3452.88
653.62	3778.50
653.81	3225.55
654.00	3219.41
654.19	3598.28
654.38	3981.25
654.56	3254.22
654.75	3117.01
654.94	3620.81
655.13	3481.55
655.32	3157.97
655.51	3260.37
655.69	3289.04
655.88	3655.62
656.07	3043.28
656.26	3190.74
656.45	3182.54
656.63	3450.83
656.82	3084.24
657.01	3518.41
657.20	3383.24
657.38	3805.13
657.57	3121.10
657.76	3016.66
657.95	3596.23
658.14	3385.29
658.32	3317.71
658.51	3155.92
658.70	3495.88
658.89	3450.83
659.08	3200.98
659.26	3373.00
659.45	3235.79
659.64	3579.85
659.83	3196.88
660.01	3583.95
660.20	3422.16
660.39	3868.61
660.58	2822.10
660.76	3248.08
660.95	3184.59
661.14	3428.30
661.33	3000.27
661.51	3229.65
661.70	3338.19
661.89	3588.04
662.08	3237.84
662.26	3018.71
662.45	3237.84
662.64	3909.57
662.83	3282.89
663.01	3082.19
663.20	3235.79
663.39	3766.21
663.58	3209.17
663.76	3080.14
663.95	3592.14
664.14	3207.12
664.32	3284.94
664.51	3030.99
664.70	3084.24
664.89	3542.99
665.07	3002.32
665.26	3323.85
665.45	3090.38
665.64	3563.47
665.82	3209.17
666.01	3375.05
666.20	3096.53
666.38	3682.25
666.57	3516.36
666.76	5762.98
666.95	12693.31
667.13	18841.31
667.32	22294.19
667.51	25046.66
667.69	25462.40
667.88	20997.82
668.07	15546.13
668.25	13143.86
668.44	11702.09
668.63	10213.22
668.81	9041.78
669.00	7772.04
669.19	7262.10
669.38	6428.57
669.56	5382.06
669.75	4755.38
669.94	4433.85
670.12	3846.09
670.31	3495.88
670.50	3534.79
670.68	3665.86
670.87	3504.07
671.06	3114.96
671.24	3276.75
671.43	3803.08
671.62	3487.69
671.80	3172.30
671.99	3418.06
672.18	3520.46
672.36	3598.28
672.55	3315.66
672.74	3246.03
672.92	3424.20
673.11	3680.20
673.29	3047.38
673.48	3393.48
673.67	3397.58
673.85	3563.47
674.04	3094.48
674.23	3293.13
674.41	3837.89
674.60	3227.60
674.79	2967.51
674.97	3033.04
675.16	3590.09
675.34	3557.32
675.53	3180.50
675.72	3241.93
675.90	3934.15
676.09	3332.05
676.28	3307.47
676.46	3010.51
676.65	3602.38
676.83	3317.71
677.02	3196.88
677.21	3266.51
677.39	3456.97
677.58	3258.32
677.77	3166.16
677.95	3149.78
678.14	3375.05
678.32	3305.42
678.51	3248.08
678.70	3665.86
678.88	3301.33
679.07	3475.40
679.25	3217.36
679.44	3278.80
679.63	3188.69
679.81	3598.28
680.00	3430.35
680.18	3295.18
680.37	3788.74
680.55	3411.92
680.74	3094.48
680.93	2936.79
681.11	3469.26
681.30	3469.26
681.48	3205.07
681.67	3274.70
681.85	3481.55
682.04	3233.74
682.23	3397.58
682.41	3280.85
682.60	3377.10
682.78	3393.48
682.97	3106.77
683.15	3264.46
683.34	3499.98
683.53	3758.02
683.71	3094.48
683.90	3239.89
684.08	3815.37
684.27	3362.76
684.45	3241.93
684.64	3358.67
684.82	3405.77
685.01	3526.60
685.19	3182.54
685.38	3567.56
685.57	3475.40
685.75	3276.75
685.94	3104.72
686.12	3123.15
686.31	3286.99
686.49	3844.04
686.68	3004.37
686.86	3147.73
687.05	3362.76
687.23	3813.32
687.42	3246.03
687.60	3043.28
687.79	3688.39
687.97	3772.36
688.16	3354.57
688.34	3446.73
688.53	3172.30
688.71	3557.32
688.90	3573.71
689.08	3188.69
689.27	3131.34
689.45	3653.58
689.64	3270.61
689.82	3291.09
690.01	3575.75
690.19	3450.83
690.38	3221.45
690.56	3262.41
690.75	3248.08
690.93	3270.61
691.12	3248.08
691.30	3256.27
691.49	3321.81
691.67	3395.53
691.86	3499.98
692.04	3254.22
692.23	3278.80
692.41	3477.45
692.60	3553.23
692.78	3422.16
692.97	3506.12
693.15	3545.03
693.34	3395.53
693.52	3420.11
693.71	3241.93
693.89	3264.46
694.08	3051.47
694.26	3280.85
694.44	3643.34
694.63	3559.37
694.81	3121.10
695.00	3213.26
695.18	3753.93
695.37	4028.35
695.55	3303.37
695.74	3278.80
695.92	3235.79
696.10	3655.62
696.29	3028.95
696.47	3209.17
696.66	3174.35
696.84	3268.56
697.03	3229.65
697.21	3483.59
697.40	4837.30
697.58	3696.58
697.76	3192.78
697.95	3299.28
698.13	3186.64
698.32	3364.81
698.50	3250.13
698.68	3229.65
698.87	3471.31
699.05	3815.37
699.24	3186.64
699.42	3178.45
699.61	3569.61
699.79	3436.49
699.97	3188.69
700.16	3071.95
700.34	3090.38
700.53	3473.36
700.71	3366.86
700.89	3350.48
701.08	3373.00
701.26	3426.25
701.45	3573.71
701.63	3172.30
701.81	3270.61
702.00	3286.99
702.18	3303.37
702.37	3174.35
702.55	3717.06
702.73	3551.18
702.92	3188.69
703.10	3532.75
703.28	3520.46
703.47	3166.16
703.65	3405.77
703.84	3332.05
704.02	3289.04
704.20	3710.92
704.39	3160.02
704.57	3221.45
704.75	3577.80
704.94	3477.45
705.12	3469.26
705.30	4018.11
705.49	8083.33
705.67	14487.33
705.86	19410.65
706.04	21591.73
706.22	24186.51
706.41	22484.65
706.59	16895.74
706.77	13440.82
706.96	11923.27
707.14	10997.59
707.32	9236.34
707.51	8314.75
707.69	6846.36
707.87	5803.94
708.06	4822.97
708.24	4126.66
708.42	4118.47
708.61	4257.73
708.79	3250.13
708.97	3305.42
709.16	3542.99
709.34	3475.40
709.52	3246.03
709.71	3291.09
709.89	3581.90
710.07	3133.39
710.26	3061.71
710.44	3327.95
710.62	3663.82
710.80	3471.31
710.99	3321.81
711.17	3305.42
711.35	3418.06
711.54	3256.27
711.72	3459.02
711.90	3149.78
712.09	3510.22
712.27	3330.00
712.45	3413.96
712.63	3211.22
712.82	3467.21
713.00	3456.97
713.18	3352.52
713.37	3389.39
713.55	3631.05
713.73	3608.52
713.91	3356.62
714.10	3174.35
714.28	3368.91
714.46	3504.07
714.65	3311.57
714.83	3239.89
715.01	3401.68
715.19	3516.36
715.38	3164.11
715.56	3319.76
715.74	3260.37
715.92	3205.07
716.11	3598.28
716.29	2951.12
716.47	3358.67
716.65	3442.64
716.84	3141.58
717.02	3198.93
717.20	3033.04
717.38	3342.28
717.57	3307.47
717.75	3299.28
717.93	3297.23
718.11	3598.28
718.30	3071.95
718.48	3295.18
718.66	3723.21
718.84	3610.57
719.03	3270.61
719.21	3047.38
719.39	3841.99
719.57	3524.55
719.75	3266.51
719.94	3147.73
720.12	3354.57
720.30	3491.79
720.48	3297.23
720.67	3164.11
720.85	3250.13
721.03	3340.24
721.21	3180.50
721.39	3235.79
721.58	3536.84
721.76	3463.12
721.94	3246.03
722.12	3409.87
722.30	3844.04
722.49	3293.13
722.67	3213.26
722.85	3209.17
723.03	3131.34
723.21	3362.76
723.40	3237.84
723.58	3377.10
723.76	3557.32
723.94	3663.82
724.12	3231.69
724.30	3397.58
724.49	3602.38
724.67	3278.80
724.85	3311.57
725.03	3108.82
725.21	3549.13
725.40	3702.73
725.58	3213.26
725.76	3338.19
725.94	3528.65
726.12	3192.78
726.30	3289.04
726.49	3200.98
726.67	3315.66
726.85	3538.89
727.03	3893.19
727.21	4947.89
727.39	6180.77
727.57	6547.36
727.76	6825.88
727.94	6688.67
728.12	6006.69
728.30	5050.29
728.48	4863.93
728.66	4511.68
728.84	4376.51
729.03	3909.57
729.21	3729.35
729.39	3561.42
729.57	3475.40
729.75	3555.27
729.93	3469.26
730.11	3121.10
730.30	3299.28
730.48	3422.16
730.66	3213.26
730.84	3346.38
731.02	3467.21
731.20	3270.61
731.38	3297.23
731.56	3088.34
731.74	3215.31
731.93	3479.50
732.11	3387.34
732.29	3164.11
732.47	3768.26
732.65	3481.55
732.83	3502.03
733.01	3303.37
733.19	3274.70
733.37	3473.36
733.56	3237.84
733.74	3137.49
733.92	3803.08
734.10	3368.91
734.28	3434.44
734.46	3088.34
734.64	3303.37
734.82	3377.10
735.00	3127.25
735.18	3129.30
735.36	3526.60
735.54	3385.29
735.73	3157.97
735.91	3434.44
736.09	3680.20
736.27	3444.68
736.45	3270.61
736.63	2938.84
736.81	3385.29
736.99	3651.53
737.17	3352.52
737.35	3157.97
737.53	3411.92
737.71	3362.76
737.89	3375.05
738.07	3256.27
738.25	3360.72
738.43	3151.82
738.61	3205.07
738.80	3164.11
738.98	3221.45
739.16	3387.34
739.34	3123.15
739.52	3534.79
739.70	3346.38
739.88	3581.90
740.06	3336.14
740.24	2940.88
740.42	3684.30
740.60	3131.34
740.78	3119.06
740.96	2951.12
741.14	3336.14
741.32	3403.72
741.50	3049.43
741.68	3502.03
741.86	3721.16
742.04	3221.45
742.22	3076.05
742.40	3276.75
742.58	3538.89
742.76	3307.47
742.94	3495.88
743.12	3076.05
743.30	3383.24
743.48	3561.42
743.66	3106.77
743.84	3172.30
744.02	3397.58
744.20	3397.58
744.38	3074.00
744.56	3184.59
744.74	3915.72
744.92	3647.43
745.10	3450.83
745.28	3284.94
745.46	3784.65
745.64	3420.11
745.82	3270.61
746.00	3078.10
746.18	3545.03
746.36	3209.17
746.54	3219.41
746.72	3231.69
746.90	3268.56
747.08	3688.39
747.26	3188.69
747.44	3223.50
747.62	3553.23
747.80	3530.70
747.98	3254.22
748.15	3153.87
748.33	3803.08
748.51	3442.64
748.69	3286.99
748.87	3076.05
749.05	3434.44
749.23	3401.68
749.41	3196.88
749.59	3225.55
749.77	3649.48
749.95	3368.91
750.13	3174.35
750.31	3340.24
750.49	3426.25
750.67	3653.58
750.85	3325.90
751.03	3123.15
751.20	3860.42
751.38	3499.98
751.56	3213.26
751.74	3186.64
751.92	3358.67
752.10	3160.02
752.28	3311.57
752.46	3149.78
752.64	3411.92
752.82	3385.29
753.00	3282.89
753.18	3192.78
753.35	3299.28
753.53	3436.49
753.71	3155.92
753.89	3332.05
754.07	3475.40
754.25	3721.16
754.43	3266.51
754.61	3117.01
754.79	3551.18
754.97	3416.01
755.14	3401.68
755.32	3141.58
755.50	3516.36
755.68	3514.31
755.86	3094.48
756.04	3170.26
756.22	3016.66
756.40	3557.32
756.57	3459.02
756.75	3057.62
756.93	3676.10
757.11	3639.24
757.29	3065.81
757.47	3143.63
757.65	3194.83
757.82	2942.93
758.00	3098.58
758.18	3119.06
758.36	3307.47
758.54	3772.36
758.72	3143.63
758.90	3465.16
759.07	3579.85
759.25	3168.21
759.43	3268.56
759.61	2975.70
759.79	4593.59
759.97	3719.11
760.15	3223.50
760.32	3254.22
760.50	3540.94
760.68	3780.55
760.86	3123.15
761.04	3438.54
761.22	3577.80
761.39	3454.92
761.57	3352.52
761.75	3180.50
761.93	3590.09
762.11	3407.82
762.28	3319.76
762.46	3133.39
762.64	3639.24
762.82	3180.50
763.00	3123.15
763.18	3407.82
763.35	3162.06
763.53	3598.28
763.71	3272.65
763.89	3164.11
764.07	3426.25
764.24	3385.29
764.42	3262.41
764.60	3196.88
764.78	3469.26
764.96	3577.80
765.13	3385.29
765.31	3065.81
765.49	3518.41
765.67	3225.55
765.84	3231.69
766.02	3168.21
766.20	3080.14
766.38	3583.95
766.56	3278.80
766.73	3297.23
766.91	3391.44
767.09	3459.02
767.27	3252.17
767.44	3076.05
767.62	3598.28
767.80	3495.88
767.98	3166.16
768.15	3225.55
768.33	3590.09
768.51	3633.10
768.69	3399.63
768.87	3071.95
769.04	3389.39
769.22	3952.58
769.40	3346.38
769.58	3397.58
769.75	3506.12
769.93	3669.96
770.11	3256.27
770.28	3012.56
770.46	3590.09
770.64	3524.55
770.82	3160.02
770.99	3157.97
771.17	3528.65
771.35	3362.76
771.53	3323.85
771.70	3172.30
771.88	3585.99
772.06	3434.44
772.23	3139.54
772.41	3246.03
772.59	3428.30
772.77	3219.41
772.94	3231.69
773.12	3264.46
773.30	3344.33
773.47	3475.40
773.65	3012.56
773.83	3405.77
774.01	3409.87
774.18	3069.91
774.36	3217.36
774.54	3135.44
774.71	3536.84
774.89	3108.82
775.07	3010.51
775.24	3188.69
775.42	3368.91
775.60	3837.89
775.78	3166.16
775.95	3096.53
776.13	3084.24
776.31	3160.02
776.48	3448.78
776.66	3385.29
776.84	3454.92
777.01	3286.99
777.19	3037.14
777.37	3131.34
777.54	3585.99
777.72	3839.94
777.90	3332.05
778.07	3196.88
778.25	4138.94
778.43	3610.57
778.60	3184.59
778.78	3340.24
778.96	3715.02
779.13	3188.69
779.31	3317.71
779.49	3274.70
779.66	3504.07
779.84	3446.73
780.01	3096.53
780.19	3164.11
780.37	3737.54
780.54	3581.90
780.72	2994.13
780.90	3231.69
781.07	3250.13
781.25	3303.37
781.43	3475.40
781.60	3190.74
781.78	3684.30
781.95	3508.17
782.13	3184.59
782.31	3180.50
782.48	3024.85
782.66	3483.59
782.83	3407.82
783.01	3330.00
783.19	3606.47
783.36	3356.62
783.54	3114.96
783.72	3297.23
783.89	3364.81
784.07	3491.79
784.24	3364.81
784.42	3282.89
784.60	3504.07
784.77	3526.60
784.95	2940.88
785.12	3200.98
785.30	3416.01
785.47	3207.12
785.65	3100.62
785.83	3250.13
786.00	3342.28
786.18	3426.25
786.35	3117.01
786.53	3205.07
786.71	3702.73
786.88	3526.60
787.06	3243.98
787.23	3291.09
787.41	3264.46
787.58	3475.40
787.76	3135.44
787.94	3178.45
788.11	3479.50
788.29	3149.78
788.46	3155.92
788.64	3016.66
788.81	3434.44
788.99	3211.22
789.16	3092.43
789.34	3282.89
789.52	3291.09
789.69	3289.04
789.87	2994.13
790.04	3065.81
790.22	3450.83
790.39	3841.99
790.57	3123.15
790.74	3041.23
790.92	3639.24
791.09	3145.68
791.27	3278.80
791.44	3377.10
791.62	3463.12
791.79	3631.05
791.97	3233.74
792.15	3524.55
792.32	3585.99
792.50	3514.31
792.67	3354.57
792.85	3483.59
793.02	3585.99
793.20	3381.20
793.37	3090.38
793.55	3153.87
793.72	3069.91
793.90	3618.76
794.07	3196.88
794.25	3143.63
794.42	3409.87
794.60	3356.62
794.77	3272.65
794.95	3416.01
795.12	3633.10
795.30	3389.39
795.47	2992.08
795.65	3538.89
795.82	3549.13
796.00	3340.24
796.17	3278.80
796.34	3057.62
796.52	3555.27
796.69	3573.71
796.87	3313.61
797.04	3334.09
797.22	3567.56
797.39	3497.93
797.57	3424.20
797.74	3291.09
797.92	3491.79
798.09	3233.74
798.27	3561.42
798.44	3190.74
798.62	3266.51
798.79	3344.33
798.96	3344.33
799.14	3192.78
799.31	3964.87
799.49	3346.38
799.66	3162.06
799.84	3289.04
800.01	3110.86
800.19	3542.99
800.36	2973.65
800.53	3233.74
800.71	3508.17
800.88	3743.69
801.06	3127.25
801.23	3106.77
801.41	3387.34
801.58	3327.95
801.75	3168.21
801.93	3213.26
802.10	3592.14
802.28	3370.96
802.45	3239.89
802.63	3254.22
802.80	3788.74
802.97	3377.10
803.15	3207.12
803.32	3131.34
803.50	3332.05
803.67	3332.05
803.84	3147.73
804.02	3311.57
804.19	3393.48
804.37	2951.12
804.54	3010.51
804.71	3139.54
804.89	3409.87
805.06	3262.41
805.24	3098.58
805.41	3084.24
805.58	3270.61
805.76	4003.78
805.93	3151.82
806.10	3350.48
806.28	3534.79
806.45	3350.48
806.63	3399.63
806.80	3278.80
806.97	3499.98
807.15	3452.88
807.32	3221.45
807.49	3155.92
807.67	3125.20
807.84	3485.64
808.01	2969.55
808.19	3444.68
808.36	3870.66
808.54	3385.29
808.71	3180.50
808.88	3094.48
809.06	3700.68
809.23	3747.78
809.40	3248.08
809.58	3131.34
809.75	3526.60
809.92	3168.21
810.10	3477.45
810.27	3198.93
810.44	3485.64
810.62	3657.67
810.79	3213.26
810.96	3225.55
811.14	3379.15
811.31	3571.66
811.48	3362.76
811.66	3340.24
811.83	3680.20
812.00	3538.89
812.18	3291.09
812.35	3420.11
812.52	3313.61
812.69	3295.18
812.87	3182.54
813.04	3174.35
813.21	3391.44
813.39	3352.52
813.56	3176.40
813.73	3512.27
813.91	3157.97
814.08	3475.40
814.25	3227.60
814.42	2996.18
814.60	3368.91
814.77	3399.63
814.94	3125.20
815.12	3295.18
815.29	3807.17
815.46	3295.18
815.63	3147.73
815.81	3106.77
815.98	3330.00
816.15	3422.16
816.33	3370.96
816.50	3203.02
816.67	3522.51
816.84	3393.48
817.02	3123.15
817.19	3174.35
817.36	3471.31
817.53	3405.77
817.71	3098.58
817.88	3209.17
818.05	3389.39
818.22	3315.66
818.40	3373.00
818.57	3155.92
818.74	3483.59
818.91	3401.68
819.09	3340.24
819.26	3289.04
819.43	3274.70
819.60	3256.27
819.78	3377.10
819.95	3278.80
820.12	3155.92
820.29	3674.06
820.47	3430.35
820.64	3102.67
820.81	3180.50
820.98	3250.13
821.15	3190.74
821.33	3229.65
821.50	3041.23
821.67	3495.88
821.84	3205.07
822.02	3246.03
822.19	3588.04
822.36	3319.76
822.53	3143.63
822.70	3104.72
822.88	3373.00
823.05	3631.05
823.22	3286.99
823.39	3227.60
823.56	3418.06
823.74	3774.41
823.91	3065.81
824.08	3190.74
824.25	3262.41
824.42	3772.36
824.60	2971.60
824.77	3323.85
824.94	3342.28
825.11	3413.96
825.28	3000.27
825.45	3409.87
825.63	3434.44
825.80	3114.96
825.97	3307.47
826.14	3227.60
826.31	3022.80
826.48	3598.28
826.66	3198.93
826.83	3135.44
827.00	3368.91
827.17	3229.65
827.34	3143.63
827.51	3143.63
827.69	3452.88
827.86	3108.82
828.03	3272.65
828.20	3196.88
828.37	3266.51
828.54	3590.09
828.71	3196.88
828.89	3248.08
829.06	3434.44
829.23	3835.85
829.40	3166.16
829.57	3190.74
829.74	3452.88
829.91	3270.61
830.09	3112.91
830.26	3325.90
830.43	3792.84
830.60	3362.76
830.77	3291.09
830.94	3409.87
831.11	3657.67
831.28	3270.61
831.46	3280.85
831.63	3119.06
831.80	3635.14
831.97	3354.57
832.14	3217.36
832.31	3239.89
832.48	3442.64
832.65	3547.08
832.82	3346.38
832.99	3286.99
833.17	3188.69
833.34	3766.21
833.51	3147.73
833.68	2965.46
833.85	3680.20
834.02	3219.41
834.19	3164.11
834.36	3137.49
834.53	3454.92
834.70	3657.67
834.87	3153.87
835.04	2914.26
835.22	3246.03
835.39	3377.10
835.56	3020.75
835.73	3028.95
835.90	3612.62
836.07	3207.12
836.24	3164.11
836.41	3028.95
836.58	3270.61
836.75	3672.01
836.92	2983.89
837.09	2893.78
837.26	3557.32
837.43	3485.64
837.60	3055.57
837.77	2967.51
837.94	3622.86
838.12	3635.14
838.29	2996.18
838.46	2891.73
838.63	3188.69
838.80	3596.23
838.97	3104.72
839.14	3000.27
839.31	3461.07
839.48	3545.03
839.65	3125.20
839.82	3131.34
839.99	3393.48
840.16	3393.48
840.33	2963.41
840.50	3110.86
840.67	3243.98
840.84	2895.83
841.01	2951.12
841.18	2955.22
841.35	3413.96
841.52	3579.85
841.69	3274.70
841.86	3035.09
842.03	3409.87
842.20	3606.47
842.37	2922.45
842.54	3069.91
842.71	3426.25
842.88	3026.90
843.05	3030.99
843.22	2998.23
843.39	3559.37
843.56	3268.56
843.73	2971.60
843.90	3094.48
844.07	3438.54
844.24	3590.09
844.41	3117.01
844.58	3041.23
844.75	3454.92
844.92	3465.16
845.09	3076.05
845.26	2963.41
845.43	3542.99
845.60	3327.95
845.77	3123.15
845.94	3065.81
846.10	3602.38
846.27	3104.72
846.44	2961.36
846.61	2844.63
846.78	3577.80
846.95	3590.09
847.12	3016.66
847.29	3043.28
847.46	3180.50
847.63	3571.66
847.80	2910.16
847.97	3041.23
848.14	3923.91
848.31	3332.05
848.48	2826.20
848.65	2977.75
848.82	3233.74
848.98	3973.06
849.15	3141.58
849.32	3102.67
849.49	3717.06
849.66	3416.01
849.83	2973.65
850.00	2969.55
850.17	3559.37
850.34	3270.61
850.51	2936.79
850.68	3016.66
850.85	3893.19
851.01	3510.22
851.18	2963.41
851.35	3151.82
851.52	3614.66
851.69	3719.11
851.86	3026.90
852.03	2967.51
852.20	3602.38
852.37	3397.58
852.53	2856.92
852.70	2965.46
852.87	3514.31
853.04	3620.81
853.21	3014.61
853.38	3295.18
853.55	3798.98
853.72	3809.22
853.89	2944.98
854.05	2953.17
854.22	3446.73
854.39	3319.76
854.56	2957.27
854.73	3219.41
854.90	3203.02
855.07	3364.81
855.23	2971.60
855.40	2926.55
855.57	3385.29
855.74	2959.31
855.91	3184.59
856.08	2850.77
856.25	3135.44
856.41	3327.95
856.58	3016.66
856.75	3076.05
856.92	3166.16
857.09	3596.23
857.26	2863.06
857.42	3057.62
857.59	3547.08
857.76	3315.66
857.93	3004.37
858.10	3119.06
858.27	3200.98
858.43	3377.10
858.60	2977.75
858.77	2961.36
858.94	3305.42
859.11	3622.86
859.27	3147.73
859.44	2873.30
859.61	3878.85
859.78	3549.13
859.95	3047.38
860.12	3002.32
860.28	3862.47
860.45	3891.14
860.62	2990.03
860.79	3104.72
860.95	3293.13
861.12	3299.28
861.29	2928.60
861.46	3065.81
861.63	3403.72
861.79	3495.88
861.96	2838.48
862.13	2998.23
862.30	3723.21
862.47	3362.76
862.63	2854.87
862.80	3092.43
862.97	3626.95
863.14	3502.03
863.30	3026.90
863.47	2936.79
863.64	3760.07
863.81	3459.02
863.97	2908.12
864.14	3088.34
864.31	3420.11
864.48	3467.21
864.65	3024.85
864.81	3127.25
864.98	3641.29
865.15	3629.00
865.32	3030.99
865.48	3190.74
865.65	3827.65
865.82	3323.85
865.98	3110.86
866.15	3086.29
866.32	3438.54
866.49	3254.22
866.65	3162.06
866.82	3041.23
866.99	3401.68
867.16	3330.00
867.32	2992.08
867.49	2895.83
867.66	3368.91
867.83	3286.99
867.99	2987.99
868.16	3100.62
868.33	3178.45
868.49	3336.14
868.66	3090.38
868.83	3129.30
868.99	3516.36
869.16	3420.11
869.33	3262.41
869.50	3147.73
869.66	3448.78
869.83	3422.16
870.00	2971.60
870.16	3131.34
870.33	3438.54
870.50	3624.90
870.66	3069.91
870.83	3030.99
871.00	3430.35
871.17	3469.26
871.33	3117.01
871.50	3020.75
871.67	3354.57
871.83	3368.91
872.00	3051.47
872.17	3024.85
872.33	3815.37
872.50	3721.16
872.67	3002.32
872.83	3041.23
873.00	3475.40
873.17	3528.65
873.33	3067.86
873.50	3049.43
873.67	3286.99
873.83	3243.98
874.00	3045.33
874.16	3121.10
874.33	3407.82
874.50	3248.08
874.66	2899.92
874.83	3180.50
875.00	3653.58
875.16	3553.23
875.33	3055.57
875.50	2789.33
875.66	3338.19
875.83	3526.60
875.99	3104.72
876.16	3229.65
876.33	3196.88
876.49	3446.73
876.66	2998.23
876.83	2963.41
876.99	3078.10
877.16	3327.95
877.32	2957.27
877.49	3143.63
877.66	3467.21
877.82	3745.73
877.99	3110.86
878.15	3336.14
878.32	3405.77
878.49	3463.12
878.65	3155.92
878.82	3256.27
878.98	3293.13
879.15	3655.62
879.32	3176.40
879.48	3315.66
879.65	3436.49
879.81	3413.96
879.98	2990.03
880.15	3098.58
880.31	3610.57
880.48	3241.93
880.64	3102.67
880.81	3246.03
880.97	3727.30
881.14	3831.75
881.31	2940.88
881.47	3184.59
881.64	3317.71
881.80	3078.10
881.97	3192.78
882.13	3012.56
882.30	3241.93
882.47	3250.13
882.63	3043.28
882.80	3071.95
882.96	3362.76
883.13	3608.52
883.29	3037.14
883.46	2977.75
883.62	3885.00
883.79	3495.88
883.95	3160.02
884.12	2906.07
884.29	3686.34
884.45	3413.96
884.62	3008.47
884.78	2969.55
884.95	3878.85
885.11	3258.32
885.28	3235.79
885.44	3061.71
885.61	3606.47
885.77	3663.82
885.94	3194.83
886.10	2990.03
886.27	3403.72
886.43	3893.19
886.60	3229.65
886.76	3000.27
886.93	3303.37
887.09	3383.24
887.26	2920.40
887.42	3172.30
887.59	3633.10
887.75	3948.48
887.92	3237.84
888.08	3198.93
888.25	3829.70
888.41	3626.95
888.58	3110.86
888.74	3074.00
888.91	3284.94
>>>>>End Processed Spectral Data<<<<<
