SpectraSuite Data File
++++++++++++++++++++++++++++++++++++
Date: Fri May 06 09:28:28 CEST 2016
User: root
Dark Spectrum Present: No
Reference Spectrum Present: No
Number of Sampled Component Spectra: 1
Spectrometers: USB4C02835
Integration Time (usec): 100000 (USB4C02835)
Spectra Averaged: 1 (USB4C02835)
Boxcar Smoothing: 0 (USB4C02835)
Correct for Electrical Dark: No (USB4C02835)
Strobe/Lamp Enabled: No (USB4C02835)
Correct for Detector Non-linearity: No (USB4C02835)
Correct for Stray Light: No (USB4C02835)
Number of Pixels in Processed Spectrum: 3648
>>>>>Begin Processed Spectral Data<<<<<
177.47	2269.15
177.69	2269.15
177.91	2269.15
178.13	2297.82
178.36	2299.87
178.58	3094.48
178.80	3239.89
179.02	3239.89
179.24	3168.21
179.46	2871.25
179.68	2983.89
179.90	3424.20
180.13	3459.02
180.35	2731.99
180.57	2848.72
180.79	3600.33
181.01	3401.68
181.23	3008.47
181.45	3106.77
181.67	3588.04
181.90	3614.66
182.12	2971.60
182.34	2738.13
182.56	3547.08
182.78	3555.27
183.00	2875.35
183.22	2969.55
183.44	3076.05
183.66	4214.72
183.89	3074.00
184.11	3028.95
184.33	3631.05
184.55	3663.82
184.77	2969.55
184.99	2983.89
185.21	3495.88
185.43	4009.92
185.65	2934.74
185.87	2967.51
186.10	3887.04
186.32	3934.15
186.54	3078.10
186.76	3065.81
186.98	3622.86
187.20	3286.99
187.42	3000.27
187.64	2867.16
187.86	3495.88
188.08	3715.02
188.30	2906.07
188.52	3010.51
188.75	3760.07
188.97	3784.65
189.19	3010.51
189.41	2910.16
189.63	3518.41
189.85	3319.76
190.07	2826.20
190.29	2758.61
190.51	3610.57
190.73	3184.59
190.95	3225.55
191.17	3020.75
191.39	3043.28
191.61	3373.00
191.84	3022.80
192.06	3053.52
192.28	3143.63
192.50	4194.24
192.72	3190.74
192.94	3104.72
193.16	3710.92
193.38	3530.70
193.60	2875.35
193.82	3137.49
194.04	3733.45
194.26	3536.84
194.48	2961.36
194.70	2987.99
194.92	3393.48
195.14	3639.24
195.36	2951.12
195.58	3078.10
195.80	3381.20
196.02	3248.08
196.24	2977.75
196.46	2981.84
196.69	3278.80
196.91	4100.03
197.13	3106.77
197.35	2994.13
197.57	3735.50
197.79	3647.43
198.01	3053.52
198.23	3024.85
198.45	3508.17
198.67	3180.50
198.89	2781.14
199.11	3117.01
199.33	3307.47
199.55	2967.51
199.77	2877.40
199.99	3086.29
200.21	3393.48
200.43	3581.90
200.65	2959.31
200.87	2758.61
201.09	3430.35
201.31	3366.86
201.53	2969.55
201.75	3067.86
201.97	3483.59
202.19	3473.36
202.41	3057.62
202.63	3008.47
202.85	3598.28
203.07	3563.47
203.29	3026.90
203.51	2895.83
203.73	3286.99
203.95	4122.56
204.17	2910.16
204.39	3196.88
204.61	3418.06
204.83	3368.91
205.05	3178.45
205.27	2951.12
205.49	4030.40
205.71	3409.87
205.93	2844.63
206.15	2828.24
206.37	3450.83
206.59	3411.92
206.81	2809.81
207.03	2844.63
207.25	3307.47
207.47	3626.95
207.69	3039.19
207.91	3307.47
208.13	3772.36
208.34	3241.93
208.56	2869.20
208.78	3059.67
209.00	3323.85
209.22	3327.95
209.44	3024.85
209.66	2865.11
209.88	3499.98
210.10	3428.30
210.32	2914.26
210.54	3063.76
210.76	3362.76
210.98	3712.97
211.20	2871.25
211.42	3110.86
211.64	3710.92
211.86	3559.37
212.08	3108.82
212.30	3069.91
212.52	3348.43
212.74	3532.75
212.96	3084.24
213.17	3006.42
213.39	3588.04
213.61	3909.57
213.83	2879.44
214.05	2813.91
214.27	3719.11
214.49	3293.13
214.71	2916.31
214.93	3164.11
215.15	3420.11
215.37	3672.01
215.59	2832.34
215.81	3074.00
216.03	3643.34
216.24	3495.88
216.46	2926.55
216.68	2996.18
216.90	3614.66
217.12	3575.75
217.34	2893.78
217.56	3164.11
217.78	3715.02
218.00	3561.42
218.22	3123.15
218.44	3000.27
218.66	3424.20
218.87	3837.89
219.09	3033.04
219.31	3033.04
219.53	3499.98
219.75	3313.61
219.97	3020.75
220.19	3078.10
220.41	3436.49
220.63	3835.85
220.85	3110.86
221.06	2992.08
221.28	3743.69
221.50	3655.62
221.72	2951.12
221.94	2840.53
222.16	3506.12
222.38	3637.19
222.60	2992.08
222.82	2971.60
223.03	3733.45
223.25	3286.99
223.47	2879.44
223.69	3272.65
223.91	3565.51
224.13	3495.88
224.35	2869.20
224.57	3141.58
224.78	3667.91
225.00	3192.78
225.22	3045.33
225.44	2865.11
225.66	3565.51
225.88	3327.95
226.10	3114.96
226.32	2977.75
226.53	3831.75
226.75	3413.96
226.97	3014.61
227.19	2981.84
227.41	3385.29
227.63	3370.96
227.85	2795.48
228.06	3037.14
228.28	3553.23
228.50	3696.58
228.72	2815.96
228.94	2901.97
229.16	3057.62
229.37	3192.78
229.59	2926.55
229.81	3229.65
230.03	3338.19
230.25	3205.07
230.47	2813.91
230.69	2936.79
230.90	3663.82
231.12	3246.03
231.34	3039.19
231.56	3160.02
231.78	3194.83
232.00	3504.07
232.21	3004.37
232.43	2934.74
232.65	3041.23
232.87	3649.48
233.09	2820.05
233.30	2838.48
233.52	3538.89
233.74	3360.72
233.96	2844.63
234.18	3211.22
234.40	3428.30
234.61	4085.70
234.83	2906.07
235.05	2940.88
235.27	3897.28
235.49	3616.71
235.70	2824.15
235.92	3035.09
236.14	3629.00
236.36	4028.35
236.58	2904.02
236.79	3080.14
237.01	3438.54
237.23	3442.64
237.45	3155.92
237.67	3119.06
237.88	3614.66
238.10	3872.71
238.32	2836.44
238.54	2918.36
238.76	3420.11
238.97	3227.60
239.19	2914.26
239.41	3053.52
239.63	3696.58
239.85	3364.81
240.06	3043.28
240.28	3071.95
240.50	3678.15
240.72	3524.55
240.93	2813.91
241.15	3102.67
241.37	3473.36
241.59	3735.50
241.81	3043.28
242.02	3074.00
242.24	3442.64
242.46	3604.42
242.68	2758.61
242.89	2918.36
243.11	3665.86
243.33	3461.07
243.55	2926.55
243.76	2930.64
243.98	3323.85
244.20	3336.14
244.42	2973.65
244.64	2877.40
244.85	3131.34
245.07	3172.30
245.29	2910.16
245.51	2959.31
245.72	3530.70
245.94	3790.79
246.16	2901.97
246.38	3018.71
246.59	3317.71
246.81	3309.52
247.03	2791.38
247.24	2848.72
247.46	3348.43
247.68	3422.16
247.90	2985.94
248.11	3037.14
248.33	3567.56
248.55	3450.83
248.77	2977.75
248.98	2979.79
249.20	3819.46
249.42	3489.74
249.64	2906.07
249.85	2963.41
250.07	3323.85
250.29	3534.79
250.50	3004.37
250.72	2850.77
250.94	3565.51
251.16	4014.02
251.37	2836.44
251.59	3096.53
251.81	3516.36
252.02	3751.88
252.24	2887.64
252.46	3057.62
252.68	3368.91
252.89	3330.00
253.11	2803.67
253.33	3114.96
253.54	3741.64
253.76	3184.59
253.98	2920.40
254.20	2901.97
254.41	3200.98
254.63	3450.83
254.85	2869.20
255.06	3030.99
255.28	3565.51
255.50	3393.48
255.71	2922.45
255.93	2779.09
256.15	3391.44
256.36	3567.56
256.58	2840.53
256.80	2897.88
257.02	3422.16
257.23	3319.76
257.45	2975.70
257.67	3153.87
257.88	3426.25
258.10	3590.09
258.32	2920.40
258.53	2897.88
258.75	3770.31
258.97	3266.51
259.18	2879.44
259.40	2893.78
259.62	3864.52
259.83	3739.59
260.05	3012.56
260.27	3979.20
260.48	3637.19
260.70	3190.74
260.92	2852.82
261.13	3000.27
261.35	3508.17
261.57	3491.79
261.78	2877.40
262.00	2940.88
262.22	3561.42
262.43	3289.04
262.65	2846.68
262.86	3024.85
263.08	3962.82
263.30	3467.21
263.51	2805.72
263.73	2934.74
263.95	3930.05
264.16	3239.89
264.38	2865.11
264.60	2926.55
264.81	3315.66
265.03	3712.97
265.25	3520.46
265.46	2920.40
265.68	3733.45
265.89	3635.14
266.11	2836.44
266.33	2957.27
266.54	3696.58
266.76	3616.71
266.98	3071.95
267.19	3155.92
267.41	3669.96
267.62	3399.63
267.84	2785.24
268.06	3098.58
268.27	3459.02
268.49	3762.12
268.70	3004.37
268.92	3004.37
269.14	3307.47
269.35	3129.30
269.57	3149.78
269.79	3069.91
270.00	3270.61
270.22	3790.79
270.43	2828.24
270.65	2811.86
270.87	3520.46
271.08	3618.76
271.30	3004.37
271.51	3026.90
271.73	3678.15
271.95	3786.69
272.16	2869.20
272.38	3194.83
272.59	3385.29
272.81	3606.47
273.02	2899.92
273.24	3071.95
273.46	3733.45
273.67	3186.64
273.89	2799.57
274.10	2858.96
274.32	3778.50
274.54	3528.65
274.75	3051.47
274.97	3117.01
275.18	3688.39
275.40	3508.17
275.61	2916.31
275.83	3182.54
276.05	3258.32
276.26	3426.25
276.48	3141.58
276.69	3151.82
276.91	3360.72
277.12	3796.93
277.34	3151.82
277.55	3227.60
277.77	3436.49
277.99	3344.33
278.20	3147.73
278.42	2975.70
278.63	3233.74
278.85	3223.50
279.06	3121.10
279.28	3188.69
279.49	3807.17
279.71	3526.60
279.93	3074.00
280.14	3090.38
280.36	3262.41
280.57	3729.35
280.79	3151.82
281.00	2955.22
281.22	3407.82
281.43	3682.25
281.65	2930.64
281.86	3065.81
282.08	3495.88
282.29	3874.76
282.51	2914.26
282.73	2992.08
282.94	3018.71
283.16	3608.52
283.37	3147.73
283.59	3164.11
283.80	3585.99
284.02	3428.30
284.23	3153.87
284.45	3172.30
284.66	3262.41
284.88	3286.99
285.09	3002.32
285.31	3198.93
285.52	3610.57
285.74	3180.50
285.95	3313.61
286.17	3198.93
286.38	3721.16
286.60	3284.94
286.81	3057.62
287.03	3035.09
287.24	3373.00
287.46	3536.84
287.67	3297.23
287.89	3284.94
288.10	3436.49
288.32	3508.17
288.53	3225.55
288.75	3145.68
288.96	3639.24
289.18	3348.43
289.39	2959.31
289.61	3180.50
289.82	3923.91
290.04	3944.39
290.25	2963.41
290.47	3196.88
290.68	3459.02
290.90	3585.99
291.11	2899.92
291.33	3233.74
291.54	3332.05
291.76	3313.61
291.97	3327.95
292.18	3205.07
292.40	3356.62
292.61	3286.99
292.83	3432.40
293.04	3100.62
293.26	3510.22
293.47	3393.48
293.69	3098.58
293.90	2918.36
294.12	3692.49
294.33	3330.00
294.55	3149.78
294.76	3352.52
294.97	3733.45
295.19	3893.19
295.40	3117.01
295.62	3129.30
295.83	3663.82
296.05	3237.84
296.26	3373.00
296.48	3074.00
296.69	3413.96
296.90	3403.72
297.12	3258.32
297.33	3258.32
297.55	3420.11
297.76	3559.37
297.98	3186.64
298.19	3289.04
298.41	3352.52
298.62	3299.28
298.83	3262.41
299.05	3213.26
299.26	3356.62
299.48	3250.13
299.69	3178.45
299.90	3110.86
300.12	3221.45
300.33	3661.77
300.55	3125.20
300.76	3180.50
300.98	3168.21
301.19	3598.28
301.40	3147.73
301.62	3135.44
301.83	3614.66
302.05	3479.50
302.26	3074.00
302.47	3174.35
302.69	3205.07
302.90	3389.39
303.12	2996.18
303.33	3207.12
303.54	3864.52
303.76	3264.46
303.97	3041.23
304.19	3293.13
304.40	3248.08
304.61	3508.17
304.83	3176.40
305.04	3164.11
305.26	3633.10
305.47	3233.74
305.68	3074.00
305.90	2942.93
306.11	3733.45
306.33	3428.30
306.54	2947.03
306.75	3094.48
306.97	3094.48
307.18	3221.45
307.39	3061.71
307.61	3182.54
307.82	3499.98
308.04	3549.13
308.25	3018.71
308.46	3250.13
308.68	3436.49
308.89	3461.07
309.10	3223.50
309.32	3166.16
309.53	3418.06
309.74	3518.41
309.96	3030.99
310.17	3190.74
310.39	3278.80
310.60	3536.84
310.81	3065.81
311.03	3063.76
311.24	3575.75
311.45	3463.12
311.67	3303.37
311.88	3223.50
312.09	3346.38
312.31	3352.52
312.52	3080.14
312.73	3098.58
312.95	3184.59
313.16	3250.13
313.37	3307.47
313.59	3350.48
313.80	3579.85
314.01	3821.51
314.23	3110.86
314.44	3043.28
314.65	3184.59
314.87	3264.46
315.08	3098.58
315.29	3121.10
315.51	3289.04
315.72	3053.52
315.93	3112.91
316.15	3135.44
316.36	3346.38
316.57	3524.55
316.79	3110.86
317.00	3002.32
317.21	3571.66
317.43	3299.28
317.64	3180.50
317.85	3045.33
318.07	3295.18
318.28	3313.61
318.49	3213.26
318.70	3315.66
318.92	3446.73
319.13	3428.30
319.34	3176.40
319.56	3092.43
319.77	3475.40
319.98	3477.45
320.20	3360.72
320.41	3319.76
320.62	3573.71
320.83	3192.78
321.05	3321.81
321.26	3194.83
321.47	3454.92
321.69	3731.40
321.90	3053.52
322.11	2959.31
322.32	3514.31
322.54	3749.83
322.75	3123.15
322.96	4345.79
323.18	3180.50
323.39	3127.25
323.60	3018.71
323.81	3147.73
324.03	3319.76
324.24	3520.46
324.45	3278.80
324.66	3067.86
324.88	3729.35
325.09	3870.66
325.30	3026.90
325.52	2973.65
325.73	3452.88
325.94	3274.70
326.15	3055.57
326.37	2914.26
326.58	3616.71
326.79	3866.56
327.00	2977.75
327.22	3065.81
327.43	3364.81
327.64	3194.83
327.85	3215.31
328.07	3088.34
328.28	3893.19
328.49	3381.20
328.70	3098.58
328.92	3074.00
329.13	3360.72
329.34	3585.99
329.55	3262.41
329.76	3239.89
329.98	3362.76
330.19	3680.20
330.40	3207.12
330.61	3223.50
330.83	3581.90
331.04	3229.65
331.25	3157.97
331.46	3200.98
331.68	3205.07
331.89	3616.71
332.10	3090.38
332.31	2930.64
332.52	3340.24
332.74	3700.68
332.95	2930.64
333.16	3067.86
333.37	3622.86
333.58	3405.77
333.80	3162.06
334.01	2844.63
334.22	3479.50
334.43	3254.22
334.64	3035.09
334.86	3059.67
335.07	3211.22
335.28	3815.37
335.49	3012.56
335.70	3131.34
335.92	3739.59
336.13	3893.19
336.34	3090.38
336.55	3061.71
336.76	3504.07
336.98	3071.95
337.19	3149.78
337.40	3137.49
337.61	3948.48
337.82	3407.82
338.04	3237.84
338.25	2901.97
338.46	3401.68
338.67	3430.35
338.88	2987.99
339.09	2977.75
339.31	3327.95
339.52	3170.26
339.73	3063.76
339.94	3092.43
340.15	3622.86
340.36	3340.24
340.58	3098.58
340.79	3098.58
341.00	3637.19
341.21	3188.69
341.42	3358.67
341.63	3084.24
341.85	3717.06
342.06	3409.87
342.27	3043.28
342.48	3223.50
342.69	3176.40
342.90	3596.23
343.12	3477.45
343.33	2971.60
343.54	3643.34
343.75	3717.06
343.96	3198.93
344.17	3033.04
344.38	3416.01
344.60	3207.12
344.81	3006.42
345.02	3192.78
345.23	3645.38
345.44	4042.69
345.65	3106.77
345.86	3157.97
346.07	3610.57
346.29	3250.13
346.50	3254.22
346.71	3207.12
346.92	3723.21
347.13	3979.20
347.34	3205.07
347.55	2979.79
347.76	3588.04
347.98	3188.69
348.19	3149.78
348.40	3307.47
348.61	3336.14
348.82	3803.08
349.03	3155.92
349.24	3020.75
349.45	3852.23
349.66	3008.47
349.88	3088.34
350.09	3012.56
350.30	3858.37
350.51	3674.06
350.72	3385.29
350.93	3049.43
351.14	3319.76
351.35	3481.55
351.56	3018.71
351.77	3205.07
351.99	3526.60
352.20	3758.02
352.41	3246.03
352.62	2967.51
352.83	3373.00
353.04	3450.83
353.25	3151.82
353.46	3147.73
353.67	3698.63
353.88	3024.85
354.09	3016.66
354.30	3162.06
354.52	3610.57
354.73	3364.81
354.94	3096.53
355.15	3135.44
355.36	3971.01
355.57	3368.91
355.78	3074.00
355.99	3125.20
356.20	3334.09
356.41	3602.38
356.62	3200.98
356.83	3127.25
357.04	3641.29
357.25	3033.04
357.46	3016.66
357.68	2961.36
357.89	3274.70
358.10	3424.20
358.31	3108.82
358.52	3141.58
358.73	3235.79
358.94	3260.37
359.15	3135.44
359.36	3098.58
359.57	3469.26
359.78	3395.53
359.99	3286.99
360.20	2971.60
360.41	3430.35
360.62	3594.19
360.83	3178.45
361.04	3170.26
361.25	3518.41
361.46	3868.61
361.67	3141.58
361.88	3121.10
362.09	3672.01
362.30	3418.06
362.51	3055.57
362.72	3155.92
362.93	3626.95
363.14	3542.99
363.35	3221.45
363.56	3084.24
363.78	3639.24
363.99	3639.24
364.20	3125.20
364.41	3184.59
364.62	3846.09
364.83	3502.03
365.04	3096.53
365.25	3151.82
365.46	3930.05
365.67	3311.57
365.88	3340.24
366.09	3067.86
366.30	3426.25
366.51	3526.60
366.72	3000.27
366.93	2985.94
367.14	3420.11
367.35	3715.02
367.56	3000.27
367.77	3196.88
367.98	3409.87
368.18	3581.90
368.39	3311.57
368.60	3084.24
368.81	3590.09
369.02	3499.98
369.23	3102.67
369.44	2979.79
369.65	3397.58
369.86	3571.66
370.07	3256.27
370.28	3053.52
370.49	3524.55
370.70	3508.17
370.91	2955.22
371.12	2975.70
371.33	3667.91
371.54	3299.28
371.75	3145.68
371.96	2856.92
372.17	3571.66
372.38	3356.62
372.59	3141.58
372.80	3000.27
373.01	3360.72
373.22	3444.68
373.43	3067.86
373.64	3024.85
373.85	3739.59
374.06	3794.89
374.26	3223.50
374.47	3317.71
374.68	3776.45
374.89	3409.87
375.10	3074.00
375.31	3172.30
375.52	3450.83
375.73	3430.35
375.94	2863.06
376.15	3248.08
376.36	3321.81
376.57	3323.85
376.78	3254.22
376.99	3092.43
377.20	3788.74
377.40	3321.81
377.61	3387.34
377.82	3145.68
378.03	3864.52
378.24	3585.99
378.45	3254.22
378.66	3155.92
378.87	3129.30
379.08	3117.01
379.29	3170.26
379.50	3295.18
379.71	3356.62
379.91	3616.71
380.12	3092.43
380.33	3250.13
380.54	3516.36
380.75	3426.25
380.96	3094.48
381.17	3145.68
381.38	3491.79
381.59	3459.02
381.80	3141.58
382.00	3227.60
382.21	3426.25
382.42	3741.64
382.63	3448.78
382.84	3231.69
383.05	3651.53
383.26	3778.50
383.47	3319.76
383.68	3067.86
383.88	3524.55
384.09	3424.20
384.30	3430.35
384.51	3262.41
384.72	3321.81
384.93	3205.07
385.14	3233.74
385.35	3418.06
385.55	3139.54
385.76	3827.65
385.97	3141.58
386.18	2983.89
386.39	3229.65
386.60	3313.61
386.81	3166.16
387.02	3033.04
387.22	3209.17
387.43	3585.99
387.64	3198.93
387.85	3366.86
388.06	3407.82
388.27	4417.47
388.48	7208.85
388.68	10735.45
388.89	13598.51
389.10	14599.97
389.31	14206.76
389.52	11523.92
389.73	10192.74
389.93	9385.84
390.14	8558.46
390.35	7847.82
390.56	7335.82
390.77	6264.74
390.98	4749.24
391.18	4075.46
391.39	3854.28
391.60	3362.76
391.81	3397.58
392.02	3178.45
392.23	4005.83
392.43	3612.62
392.64	3184.59
392.85	3346.38
393.06	3782.60
393.27	3454.92
393.47	3114.96
393.68	3262.41
393.89	3385.29
394.10	3612.62
394.31	3176.40
394.52	3033.04
394.72	3336.14
394.93	3729.35
395.14	3008.47
395.35	3303.37
395.56	3352.52
395.76	3381.20
395.97	3157.97
396.18	3250.13
396.39	3393.48
396.60	4005.83
396.80	3540.94
397.01	3430.35
397.22	3655.62
397.43	3655.62
397.64	3119.06
397.84	3241.93
398.05	3889.09
398.26	3368.91
398.47	3270.61
398.67	3319.76
398.88	3491.79
399.09	3600.33
399.30	3110.86
399.51	3178.45
399.71	3321.81
399.92	3448.78
400.13	3286.99
400.34	3100.62
400.54	3401.68
400.75	3788.74
400.96	3262.41
401.17	3428.30
401.37	3510.22
401.58	3387.34
401.79	3100.62
402.00	3241.93
402.21	3983.30
402.41	3547.08
402.62	3391.44
402.83	3477.45
403.04	3766.21
403.24	4175.81
403.45	3315.66
403.66	3422.16
403.87	3708.87
404.07	3796.93
404.28	3403.72
404.49	3481.55
404.70	3528.65
404.90	3684.30
405.11	3182.54
405.32	3157.97
405.52	3301.33
405.73	3266.51
405.94	3133.39
406.15	3237.84
406.35	3579.85
406.56	3583.95
406.77	3213.26
406.98	3225.55
407.18	3319.76
407.39	3823.56
407.60	3143.63
407.80	3246.03
408.01	3262.41
408.22	3561.42
408.43	3078.10
408.63	3278.80
408.84	3655.62
409.05	3657.67
409.25	3084.24
409.46	3168.21
409.67	3413.96
409.88	3239.89
410.08	3143.63
410.29	3141.58
410.50	3647.43
410.70	3557.32
410.91	3059.67
411.12	3151.82
411.32	3469.26
411.53	3178.45
411.74	3133.39
411.95	3252.17
412.15	3510.22
412.36	3528.65
412.57	3295.18
412.77	3377.10
412.98	3440.59
413.19	3360.72
413.39	3172.30
413.60	3110.86
413.81	3796.93
414.01	3241.93
414.22	3207.12
414.43	3389.39
414.63	3379.15
414.84	3696.58
415.05	3246.03
415.25	3039.19
415.46	3530.70
415.67	3327.95
415.87	3143.63
416.08	3110.86
416.29	3393.48
416.49	3481.55
416.70	3246.03
416.91	3215.31
417.11	3485.64
417.32	3592.14
417.53	3166.16
417.73	3219.41
417.94	3434.44
418.15	3508.17
418.35	3184.59
418.56	3274.70
418.77	3958.72
418.97	3481.55
419.18	3293.13
419.38	2836.44
419.59	3352.52
419.80	3792.84
420.00	3096.53
420.21	3170.26
420.42	3723.21
420.62	3551.18
420.83	3192.78
421.04	3117.01
421.24	3452.88
421.45	3608.52
421.65	3127.25
421.86	3221.45
422.07	3637.19
422.27	3520.46
422.48	3037.14
422.69	2992.08
422.89	3375.05
423.10	3327.95
423.30	3129.30
423.51	3157.97
423.72	3592.14
423.92	3594.19
424.13	3053.52
424.33	3278.80
424.54	3608.52
424.75	3450.83
424.95	3411.92
425.16	3074.00
425.36	3405.77
425.57	3594.19
425.78	3338.19
425.98	3209.17
426.19	3438.54
426.39	3262.41
426.60	3225.55
426.81	3311.57
427.01	3663.82
427.22	3155.92
427.42	2959.31
427.63	3121.10
427.83	3667.91
428.04	3813.32
428.25	3196.88
428.45	3350.48
428.66	3631.05
428.86	3413.96
429.07	3286.99
429.28	3186.64
429.48	3430.35
429.69	3237.84
429.89	3223.50
430.10	3102.67
430.30	3610.57
430.51	3700.68
430.71	3071.95
430.92	3211.22
431.13	3350.48
431.33	3616.71
431.54	3305.42
431.74	3391.44
431.95	3954.63
432.15	3215.31
432.36	3139.54
432.56	3213.26
432.77	3909.57
432.98	3827.65
433.18	3180.50
433.39	2996.18
433.59	3391.44
433.80	3944.39
434.00	3286.99
434.21	3188.69
434.41	3330.00
434.62	3997.64
434.82	3033.04
435.03	3059.67
435.23	3520.46
435.44	3149.78
435.64	3135.44
435.85	3237.84
436.06	3622.86
436.26	3618.76
436.47	3155.92
436.67	3082.19
436.88	3377.10
437.08	3669.96
437.29	3307.47
437.49	3262.41
437.70	3565.51
437.90	3399.63
438.11	3309.52
438.31	3248.08
438.52	3618.76
438.72	3704.78
438.93	3520.46
439.13	3289.04
439.34	3534.79
439.54	3336.14
439.75	3272.65
439.95	3256.27
440.16	3243.98
440.36	3475.40
440.57	3196.88
440.77	3168.21
440.98	3471.31
441.18	3495.88
441.39	3069.91
441.59	3061.71
441.80	3899.33
442.00	3385.29
442.21	3207.12
442.41	3065.81
442.62	3682.25
442.82	3393.48
443.02	3139.54
443.23	3215.31
443.43	3393.48
443.64	3708.87
443.84	3055.57
444.05	3219.41
444.25	3508.17
444.46	3375.05
444.66	3100.62
444.87	3399.63
445.07	3131.34
445.28	3377.10
445.48	3383.24
445.69	3176.40
445.89	4046.79
446.09	3270.61
446.30	3434.44
446.50	3508.17
446.71	4984.76
446.91	6104.99
447.12	6772.63
447.32	7182.23
447.53	7249.81
447.73	6137.76
447.93	5283.76
448.14	5105.59
448.34	5476.27
448.55	4446.14
448.75	4435.90
448.96	4147.14
449.16	4067.27
449.36	4048.83
449.57	3352.52
449.77	3332.05
449.98	3360.72
450.18	3508.17
450.39	3090.38
450.59	3334.09
450.79	3413.96
451.00	3264.46
451.20	3420.11
451.41	3086.29
451.61	3551.18
451.81	3432.40
452.02	3114.96
452.22	3143.63
452.43	3330.00
452.63	3342.28
452.84	3205.07
453.04	3108.82
453.24	3516.36
453.45	3233.74
453.65	3262.41
453.86	3188.69
454.06	3487.69
454.26	3393.48
454.47	3094.48
454.67	3356.62
454.87	3522.51
455.08	3395.53
455.28	3260.37
455.49	3289.04
455.69	3272.65
455.89	3885.00
456.10	3268.56
456.30	3153.87
456.51	3608.52
456.71	3506.12
456.91	3385.29
457.12	3094.48
457.32	3493.83
457.52	3196.88
457.73	3266.51
457.93	3393.48
458.14	3323.85
458.34	3063.76
458.54	3268.56
458.75	3074.00
458.95	3680.20
459.15	3475.40
459.36	3217.36
459.56	3168.21
459.76	3966.92
459.97	3456.97
460.17	3221.45
460.37	3237.84
460.58	3397.58
460.78	3557.32
460.99	3182.54
461.19	3098.58
461.39	3352.52
461.60	3352.52
461.80	3274.70
462.00	3059.67
462.21	3364.81
462.41	3243.98
462.61	3061.71
462.82	2908.12
463.02	3559.37
463.22	3491.79
463.43	3176.40
463.63	3059.67
463.83	3770.31
464.04	3573.71
464.24	3151.82
464.44	3084.24
464.64	3485.64
464.85	3616.71
465.05	3180.50
465.25	3092.43
465.46	3352.52
465.66	3540.94
465.86	3327.95
466.07	3049.43
466.27	3344.33
466.47	3196.88
466.68	3022.80
466.88	3280.85
467.08	3612.62
467.29	3700.68
467.49	3164.11
467.69	3305.42
467.89	3577.80
468.10	3303.37
468.30	3346.38
468.50	3344.33
468.71	3553.23
468.91	3196.88
469.11	3377.10
469.31	3221.45
469.52	3188.69
469.72	3776.45
469.92	3510.22
470.13	3205.07
470.33	3413.96
470.53	3491.79
470.73	3526.60
470.94	3854.28
471.14	4007.87
471.34	4595.64
471.54	4212.67
471.75	3966.92
471.95	3846.09
472.15	3749.83
472.36	3604.42
472.56	3602.38
472.76	3932.10
472.96	3755.97
473.17	3418.06
473.37	3280.85
473.57	3389.39
473.77	3528.65
473.98	3362.76
474.18	3071.95
474.38	4106.18
474.58	3397.58
474.79	3030.99
474.99	3278.80
475.19	3721.16
475.39	3284.94
475.60	3243.98
475.80	3121.10
476.00	3444.68
476.20	3321.81
476.41	3295.18
476.61	3241.93
476.81	3831.75
477.01	3282.89
477.21	3493.83
477.42	3270.61
477.62	3241.93
477.82	3590.09
478.02	3059.67
478.23	3106.77
478.43	3278.80
478.63	3336.14
478.83	3205.07
479.03	3246.03
479.24	3782.60
479.44	3968.96
479.64	3114.96
479.84	2977.75
480.04	3344.33
480.25	3645.38
480.45	3131.34
480.65	3074.00
480.85	3866.56
481.06	3260.37
481.26	3295.18
481.46	3098.58
481.66	3520.46
481.86	3348.43
482.06	3401.68
482.27	3182.54
482.47	3334.09
482.67	3495.88
482.87	3297.23
483.07	3237.84
483.28	3284.94
483.48	3250.13
483.68	3094.48
483.88	3053.52
484.08	3014.61
484.29	3160.02
484.49	3252.17
484.69	3006.42
484.89	3690.44
485.09	3620.81
485.29	3135.44
485.50	3364.81
485.70	3321.81
485.90	3715.02
486.10	3340.24
486.30	3160.02
486.50	3676.10
486.71	3483.59
486.91	3170.26
487.11	3264.46
487.31	3164.11
487.51	3508.17
487.71	3106.77
487.91	3004.37
488.12	3278.80
488.32	2957.27
488.52	3215.31
488.72	2910.16
488.92	3438.54
489.12	3708.87
489.32	3293.13
489.53	3190.74
489.73	3196.88
489.93	3809.22
490.13	3246.03
490.33	3000.27
490.53	3491.79
490.73	3649.48
490.94	3043.28
491.14	3293.13
491.34	3588.04
491.54	3534.79
491.74	4077.51
491.94	4444.09
492.14	5130.16
492.34	5124.02
492.54	4607.93
492.75	4157.38
492.95	4425.66
493.15	4108.23
493.35	3825.61
493.55	3815.37
493.75	3700.68
493.95	4122.56
494.15	3413.96
494.35	3250.13
494.56	3399.63
494.76	3262.41
494.96	3299.28
495.16	3028.95
495.36	3436.49
495.56	3469.26
495.76	3258.32
495.96	3170.26
496.16	3196.88
496.36	3868.61
496.56	3139.54
496.77	3225.55
496.97	3448.78
497.17	3831.75
497.37	2992.08
497.57	3307.47
497.77	3520.46
497.97	3239.89
498.17	3239.89
498.37	3139.54
498.57	3532.75
498.77	3450.83
498.97	3293.13
499.17	3565.51
499.38	3459.02
499.58	3540.94
499.78	3352.52
499.98	3289.04
500.18	3456.97
500.38	3256.27
500.58	3393.48
500.78	3755.97
500.98	5945.25
501.18	7874.44
501.38	9099.13
501.58	9809.77
501.78	9840.49
501.98	8243.07
502.18	6862.74
502.38	6121.38
502.58	6225.82
502.78	5498.80
502.98	5167.03
503.18	5109.68
503.38	4849.59
503.59	4231.10
503.79	4042.69
503.99	3778.50
504.19	3975.11
504.39	4007.87
504.59	3602.38
504.79	3469.26
504.99	3979.20
505.19	3524.55
505.39	3373.00
505.59	3616.71
505.79	3803.08
505.99	3608.52
506.19	3221.45
506.39	3422.16
506.59	3282.89
506.79	3395.53
506.99	3407.82
507.19	3131.34
507.39	3471.31
507.59	3092.43
507.79	3229.65
507.99	3053.52
508.19	3424.20
508.39	3360.72
508.59	3246.03
508.79	3286.99
508.99	3864.52
509.19	3303.37
509.39	3280.85
509.59	3084.24
509.79	3270.61
509.99	3516.36
510.19	3323.85
510.39	3237.84
510.59	3454.92
510.79	3266.51
510.99	3004.37
511.19	3119.06
511.39	3841.99
511.59	3692.49
511.79	3338.19
511.99	3104.72
512.19	3885.00
512.38	3434.44
512.58	3067.86
512.78	3123.15
512.98	3712.97
513.18	3745.73
513.38	3121.10
513.58	3325.90
513.78	3395.53
513.98	3338.19
514.18	3178.45
514.38	3137.49
514.58	3542.99
514.78	3248.08
514.98	3028.95
515.18	3180.50
515.38	3149.78
515.58	3784.65
515.78	3090.38
515.98	3229.65
516.18	3581.90
516.38	3373.00
516.57	3160.02
516.77	3207.12
516.97	3602.38
517.17	3282.89
517.37	2996.18
517.57	3174.35
517.77	3446.73
517.97	3309.52
518.17	3188.69
518.37	3059.67
518.57	3332.05
518.77	3323.85
518.97	3192.78
519.16	3168.21
519.36	3637.19
519.56	3305.42
519.76	3178.45
519.96	3172.30
520.16	3762.12
520.36	3192.78
520.56	3303.37
520.76	3039.19
520.96	3405.77
521.16	3686.34
521.35	3422.16
521.55	3278.80
521.75	3512.27
521.95	3332.05
522.15	3074.00
522.35	3045.33
522.55	3289.04
522.75	3518.41
522.95	3061.71
523.14	2990.03
523.34	3399.63
523.54	3358.67
523.74	3303.37
523.94	3219.41
524.14	3100.62
524.34	3549.13
524.54	3364.81
524.73	3123.15
524.93	3559.37
525.13	3438.54
525.33	3049.43
525.53	3385.29
525.73	3592.14
525.93	3483.59
526.13	3252.17
526.32	3094.48
526.52	3729.35
526.72	3653.58
526.92	3207.12
527.12	3149.78
527.32	3166.16
527.52	3510.22
527.71	3217.36
527.91	3200.98
528.11	3352.52
528.31	3399.63
528.51	3049.43
528.71	3243.98
528.90	3561.42
529.10	3674.06
529.30	3186.64
529.50	2875.35
529.70	3530.70
529.90	3289.04
530.09	3198.93
530.29	3051.47
530.49	3286.99
530.69	4048.83
530.89	3346.38
531.09	3254.22
531.28	3385.29
531.48	3698.63
531.68	3129.30
531.88	3205.07
532.08	3504.07
532.28	3338.19
532.47	3260.37
532.67	3178.45
532.87	3538.89
533.07	3180.50
533.27	3182.54
533.46	3205.07
533.66	3463.12
533.86	3393.48
534.06	3198.93
534.26	3117.01
534.45	3373.00
534.65	3655.62
534.85	3311.57
535.05	3041.23
535.25	3602.38
535.44	3078.10
535.64	3262.41
535.84	3198.93
536.04	3295.18
536.24	3358.67
536.43	3213.26
536.63	3188.69
536.83	3368.91
537.03	3334.09
537.22	3004.37
537.42	2959.31
537.62	3497.93
537.82	3205.07
538.02	3393.48
538.21	3274.70
538.41	4001.73
538.61	3592.14
538.81	3233.74
539.00	3264.46
539.20	3092.43
539.40	3342.28
539.60	3110.86
539.79	3397.58
539.99	3405.77
540.19	3229.65
540.39	3135.44
540.58	3246.03
540.78	3612.62
540.98	3530.70
541.18	3442.64
541.37	3145.68
541.57	3450.83
541.77	3549.13
541.97	3006.42
542.16	3024.85
542.36	3364.81
542.56	3739.59
542.76	3348.43
542.95	3305.42
543.15	3559.37
543.35	3614.66
543.54	3121.10
543.74	3082.19
543.94	3811.27
544.14	3430.35
544.33	3311.57
544.53	3221.45
544.73	3463.12
544.93	3393.48
545.12	3125.20
545.32	3194.83
545.52	3362.76
545.71	3131.34
545.91	3237.84
546.11	3090.38
546.30	3272.65
546.50	3373.00
546.70	3225.55
546.90	3149.78
547.09	3024.85
547.29	3499.98
547.49	3260.37
547.68	3082.19
547.88	3344.33
548.08	3635.14
548.27	3401.68
548.47	3155.92
548.67	3403.72
548.87	3481.55
549.06	3180.50
549.26	3127.25
549.46	3569.61
549.65	3360.72
549.85	3182.54
550.05	3174.35
550.24	3186.64
550.44	3475.40
550.64	3221.45
550.83	3297.23
551.03	3778.50
551.23	3663.82
551.42	3248.08
551.62	3262.41
551.82	3426.25
552.01	3373.00
552.21	3504.07
552.41	3223.50
552.60	3786.69
552.80	3504.07
553.00	3188.69
553.19	3227.60
553.39	3844.04
553.59	3172.30
553.78	3321.81
553.98	3153.87
554.17	3198.93
554.37	3479.50
554.57	3221.45
554.76	3121.10
554.96	3280.85
555.16	3506.12
555.35	3209.17
555.55	3362.76
555.75	3499.98
555.94	3622.86
556.14	3024.85
556.33	3229.65
556.53	3377.10
556.73	3354.57
556.92	3203.02
557.12	3071.95
557.32	3878.85
557.51	3735.50
557.71	3176.40
557.90	3364.81
558.10	3649.48
558.30	3327.95
558.49	3207.12
558.69	3203.02
558.88	3620.81
559.08	3540.94
559.28	3155.92
559.47	3229.65
559.67	3616.71
559.86	3876.80
560.06	3033.04
560.26	3162.06
560.45	3583.95
560.65	3495.88
560.84	3520.46
561.04	3082.19
561.24	3577.80
561.43	3143.63
561.63	3420.11
561.82	3286.99
562.02	3559.37
562.22	3194.83
562.41	3149.78
562.61	3143.63
562.80	3200.98
563.00	3975.11
563.19	3221.45
563.39	3276.75
563.59	3565.51
563.78	3196.88
563.98	2977.75
564.17	3184.59
564.37	3049.43
564.56	3370.96
564.76	3053.52
564.96	3207.12
565.15	3499.98
565.35	3917.76
565.54	3225.55
565.74	3332.05
565.93	3491.79
566.13	3524.55
566.32	3213.26
566.52	3196.88
566.71	3368.91
566.91	3575.75
567.11	3250.13
567.30	3157.97
567.50	3602.38
567.69	3440.59
567.89	3096.53
568.08	3059.67
568.28	3459.02
568.47	3219.41
568.67	3119.06
568.86	3221.45
569.06	3559.37
569.25	3338.19
569.45	3065.81
569.64	3205.07
569.84	3334.09
570.04	3512.27
570.23	3139.54
570.43	3223.50
570.62	3524.55
570.82	3784.65
571.01	3092.43
571.21	3119.06
571.40	3295.18
571.60	3639.24
571.79	3258.32
571.99	3188.69
572.18	3184.59
572.38	3545.03
572.57	3227.60
572.77	3203.02
572.96	3940.29
573.16	3487.69
573.35	3200.98
573.55	3254.22
573.74	3575.75
573.94	3338.19
574.13	3184.59
574.33	3348.43
574.52	3680.20
574.71	3442.64
574.91	3192.78
575.10	3012.56
575.30	3286.99
575.49	3264.46
575.69	3098.58
575.88	3192.78
576.08	3373.00
576.27	3696.58
576.47	3102.67
576.66	3358.67
576.86	3708.87
577.05	3606.47
577.25	3192.78
577.44	3360.72
577.64	3348.43
577.83	3678.15
578.02	3121.10
578.22	3352.52
578.41	3868.61
578.61	3364.81
578.80	3006.42
579.00	3174.35
579.19	3450.83
579.39	3557.32
579.58	3286.99
579.77	3221.45
579.97	3725.26
580.16	3631.05
580.36	3346.38
580.55	3225.55
580.75	3555.27
580.94	3370.96
581.13	3375.05
581.33	3430.35
581.52	3397.58
581.72	3895.24
581.91	3160.02
582.11	3137.49
582.30	3661.77
582.49	3448.78
582.69	3467.21
582.88	3213.26
583.08	3436.49
583.27	3606.47
583.47	3336.14
583.66	3082.19
583.85	3200.98
584.05	3438.54
584.24	3311.57
584.44	3241.93
584.63	3606.47
584.82	3733.45
585.02	3411.92
585.21	3473.36
585.41	3483.59
585.60	3352.52
585.79	3416.01
585.99	3518.41
586.18	3426.25
586.37	4491.20
586.57	6616.99
586.76	18437.86
586.96	36720.08
587.15	49474.83
587.34	57062.55
587.54	60642.40
587.73	53259.48
587.93	38194.62
588.12	29326.91
588.31	24577.67
588.51	21528.25
588.70	20512.46
588.89	17800.94
589.09	15091.48
589.28	13080.38
589.47	10229.60
589.67	7802.76
589.86	6164.39
590.06	4939.70
590.25	4509.63
590.44	3868.61
590.64	3526.60
590.83	3667.91
591.02	3618.76
591.22	3194.83
591.41	3233.74
591.60	3502.03
591.80	3962.82
591.99	2942.93
592.18	3110.86
592.38	3635.14
592.57	3295.18
592.76	3147.73
592.96	3248.08
593.15	3315.66
593.34	3647.43
593.54	3114.96
593.73	3311.57
593.92	3534.79
594.12	3549.13
594.31	3229.65
594.50	3397.58
594.70	3565.51
594.89	3995.59
595.08	3039.19
595.28	3336.14
595.47	4167.62
595.66	3708.87
595.86	3135.44
596.05	3067.86
596.24	3256.27
596.43	3850.18
596.63	3282.89
596.82	3440.59
597.01	3516.36
597.21	3872.71
597.40	3188.69
597.59	3272.65
597.79	3416.01
597.98	3549.13
598.17	3278.80
598.36	3198.93
598.56	3661.77
598.75	3319.76
598.94	3188.69
599.14	3200.98
599.33	3303.37
599.52	3606.47
599.71	3276.75
599.91	3241.93
600.10	3563.47
600.29	3489.74
600.48	3264.46
600.68	3344.33
600.87	3528.65
601.06	3358.67
601.26	3338.19
601.45	3317.71
601.64	3370.96
601.83	3864.52
602.03	3016.66
602.22	3086.29
602.41	3676.10
602.60	3983.30
602.80	3213.26
602.99	3358.67
603.18	3248.08
603.37	3489.74
603.57	3149.78
603.76	3200.98
603.95	3737.54
604.14	3418.06
604.34	3078.10
604.53	3035.09
604.72	3450.83
604.91	3588.04
605.10	3135.44
605.30	3041.23
605.49	3938.24
605.68	3647.43
605.87	3209.17
606.07	3098.58
606.26	3540.94
606.45	3485.64
606.64	3215.31
606.84	3016.66
607.03	3387.34
607.22	3626.95
607.41	3205.07
607.60	3088.34
607.80	3645.38
607.99	3330.00
608.18	3293.13
608.37	3188.69
608.56	3190.74
608.76	3633.10
608.95	3395.53
609.14	3135.44
609.33	3606.47
609.52	3753.93
609.72	3258.32
609.91	3340.24
610.10	3549.13
610.29	3772.36
610.48	3272.65
610.68	3311.57
610.87	3409.87
611.06	3573.71
611.25	3237.84
611.44	3356.62
611.63	3364.81
611.83	3788.74
612.02	3145.68
612.21	3270.61
612.40	3110.86
612.59	3254.22
612.79	3174.35
612.98	3231.69
613.17	3901.38
613.36	3438.54
613.55	3239.89
613.74	3241.93
613.93	3512.27
614.13	3405.77
614.32	3340.24
614.51	3200.98
614.70	3420.11
614.89	3418.06
615.08	3254.22
615.28	3549.13
615.47	3209.17
615.66	3487.69
615.85	3213.26
616.04	3291.09
616.23	3426.25
616.42	3479.50
616.62	3229.65
616.81	3192.78
617.00	3442.64
617.19	3563.47
617.38	3225.55
617.57	3315.66
617.76	3532.75
617.95	3557.32
618.15	3270.61
618.34	3454.92
618.53	3205.07
618.72	3762.12
618.91	3239.89
619.10	3323.85
619.29	3366.86
619.48	3487.69
619.68	3102.67
619.87	3102.67
620.06	3135.44
620.25	3551.18
620.44	3078.10
620.63	3139.54
620.82	3510.22
621.01	3350.48
621.20	3225.55
621.39	3217.36
621.59	3483.59
621.78	3426.25
621.97	3164.11
622.16	3323.85
622.35	3508.17
622.54	3522.51
622.73	3241.93
622.92	2895.83
623.11	3706.82
623.30	3352.52
623.49	3307.47
623.68	3055.57
623.88	3733.45
624.07	3321.81
624.26	3096.53
624.45	3215.31
624.64	3377.10
624.83	3432.40
625.02	3186.64
625.21	3162.06
625.40	3454.92
625.59	3715.02
625.78	3164.11
625.97	3237.84
626.16	3696.58
626.35	3598.28
626.54	3205.07
626.74	3364.81
626.93	3313.61
627.12	3370.96
627.31	3246.03
627.50	3205.07
627.69	3712.97
627.88	3246.03
628.07	3147.73
628.26	3016.66
628.45	3237.84
628.64	3196.88
628.83	3119.06
629.02	2928.60
629.21	3594.19
629.40	3573.71
629.59	3063.76
629.78	3114.96
629.97	3450.83
630.16	3536.84
630.35	3110.86
630.54	3313.61
630.73	3344.33
630.92	3375.05
631.11	3074.00
631.30	3243.98
631.49	3588.04
631.68	3387.34
631.87	3213.26
632.06	3160.02
632.25	3858.37
632.44	3528.65
632.63	3289.04
632.82	3200.98
633.01	3272.65
633.20	3442.64
633.39	3176.40
633.58	2965.46
633.77	3456.97
633.96	3559.37
634.15	3317.71
634.34	3319.76
634.53	3540.94
634.72	3340.24
634.91	3119.06
635.10	3207.12
635.29	3581.90
635.48	3512.27
635.67	3061.71
635.86	3057.62
636.05	3790.79
636.24	3442.64
636.43	3174.35
636.62	3213.26
636.81	2914.26
637.00	3502.03
637.19	3141.58
637.38	3227.60
637.57	3354.57
637.76	3461.07
637.95	3422.16
638.14	3237.84
638.33	3506.12
638.52	3413.96
638.71	3069.91
638.89	3112.91
639.08	3987.40
639.27	3655.62
639.46	3436.49
639.65	3639.24
639.84	3905.48
640.03	4054.98
640.22	3485.64
640.41	3506.12
640.60	3459.02
640.79	3588.04
640.98	3418.06
641.17	3368.91
641.36	3667.91
641.55	3575.75
641.74	3024.85
641.92	3098.58
642.11	3284.94
642.30	3413.96
642.49	3018.71
642.68	3198.93
642.87	3538.89
643.06	3563.47
643.25	2998.23
643.44	3192.78
643.63	3426.25
643.82	3536.84
644.00	3055.57
644.19	3237.84
644.38	3213.26
644.57	3639.24
644.76	3180.50
644.95	3258.32
645.14	3518.41
645.33	3360.72
645.52	3207.12
645.71	2957.27
645.89	3147.73
646.08	3450.83
646.27	3239.89
646.46	3330.00
646.65	3164.11
646.84	3401.68
647.03	3104.72
647.22	3434.44
647.40	3536.84
647.59	3416.01
647.78	2983.89
647.97	3223.50
648.16	3229.65
648.35	3731.40
648.54	3508.17
648.73	3227.60
648.91	3643.34
649.10	3495.88
649.29	3151.82
649.48	3078.10
649.67	3567.56
649.86	3487.69
650.05	3211.22
650.23	3368.91
650.42	3295.18
650.61	3712.97
650.80	3393.48
650.99	3434.44
651.18	3698.63
651.36	3645.38
651.55	3119.06
651.74	3381.20
651.93	3303.37
652.12	3282.89
652.31	3178.45
652.49	3260.37
652.68	3342.28
652.87	3798.98
653.06	3256.27
653.25	3446.73
653.44	3360.72
653.62	3747.78
653.81	3198.93
654.00	3155.92
654.19	3581.90
654.38	4048.83
654.56	3278.80
654.75	3108.82
654.94	3536.84
655.13	3528.65
655.32	3069.91
655.51	3246.03
655.69	3252.17
655.88	3618.76
656.07	2940.88
656.26	3254.22
656.45	3180.50
656.63	3389.39
656.82	3135.44
657.01	3510.22
657.20	3325.90
657.38	3760.07
657.57	3147.73
657.76	3106.77
657.95	3612.62
658.14	3409.87
658.32	3364.81
658.51	3028.95
658.70	3508.17
658.89	3489.74
659.08	3248.08
659.26	3338.19
659.45	3246.03
659.64	3549.13
659.83	3127.25
660.01	3571.66
660.20	3491.79
660.39	3753.93
660.58	2910.16
660.76	3141.58
660.95	3143.63
661.14	3436.49
661.33	3033.04
661.51	3213.26
661.70	3373.00
661.89	3538.89
662.08	3153.87
662.26	3008.47
662.45	3205.07
662.64	3913.67
662.83	3272.65
663.01	3069.91
663.20	3307.47
663.39	3715.02
663.58	3264.46
663.76	3141.58
663.95	3559.37
664.14	3094.48
664.32	3276.75
664.51	3096.53
664.70	3053.52
664.89	3444.68
665.07	3043.28
665.26	3311.57
665.45	3153.87
665.64	3573.71
665.82	3129.30
666.01	3307.47
666.20	3235.79
666.38	3706.82
666.57	3526.60
666.76	5607.34
666.95	12459.84
667.13	18675.43
667.32	22320.81
667.51	24745.61
667.69	25284.22
667.88	20704.96
668.07	15333.14
668.25	13143.86
668.44	11614.03
668.63	10301.28
668.81	8853.37
669.00	7618.44
669.19	7298.96
669.38	6289.31
669.56	5275.57
669.75	4747.19
669.94	4421.56
670.12	3811.27
670.31	3452.88
670.50	3518.41
670.68	3637.19
670.87	3592.14
671.06	3180.50
671.24	3229.65
671.43	3755.97
671.62	3491.79
671.80	3137.49
671.99	3368.91
672.18	3467.21
672.36	3577.80
672.55	3309.52
672.74	3237.84
672.92	3360.72
673.11	3622.86
673.29	3086.29
673.48	3446.73
673.67	3389.39
673.85	3604.42
674.04	3143.63
674.23	3266.51
674.41	3909.57
674.60	3215.31
674.79	2979.79
674.97	2987.99
675.16	3618.76
675.34	3731.40
675.53	3125.20
675.72	3303.37
675.90	3868.61
676.09	3336.14
676.28	3272.65
676.46	3035.09
676.65	3534.79
676.83	3334.09
677.02	3246.03
677.21	3278.80
677.39	3471.31
677.58	3207.12
677.77	3196.88
677.95	3157.97
678.14	3297.23
678.32	3354.57
678.51	3162.06
678.70	3493.83
678.88	3346.38
679.07	3467.21
679.25	3170.26
679.44	3190.74
679.63	3139.54
679.81	3356.62
680.00	3368.91
680.18	3295.18
680.37	3897.28
680.55	3444.68
680.74	3063.76
680.93	2889.68
681.11	3483.59
681.30	3424.20
681.48	3200.98
681.67	3211.22
681.85	3549.13
682.04	3243.98
682.23	3321.81
682.41	3327.95
682.60	3411.92
682.78	3334.09
682.97	3002.32
683.15	3278.80
683.34	3502.03
683.53	3772.36
683.71	3061.71
683.90	3221.45
684.08	3936.20
684.27	3336.14
684.45	3358.67
684.64	3366.86
684.82	3436.49
685.01	3520.46
685.19	3217.36
685.38	3520.46
685.57	3422.16
685.75	3327.95
685.94	3106.77
686.12	3035.09
686.31	3327.95
686.49	3803.08
686.68	3028.95
686.86	3155.92
687.05	3362.76
687.23	3786.69
687.42	3213.26
687.60	2987.99
687.79	3631.05
687.97	3819.46
688.16	3260.37
688.34	3471.31
688.53	3090.38
688.71	3467.21
688.90	3485.64
689.08	3174.35
689.27	2979.79
689.45	3534.79
689.64	3315.66
689.82	3284.94
690.01	3551.18
690.19	3514.31
690.38	3274.70
690.56	3266.51
690.75	3250.13
690.93	3313.61
691.12	3196.88
691.30	3217.36
691.49	3340.24
691.67	3426.25
691.86	3524.55
692.04	3207.12
692.23	3364.81
692.41	3426.25
692.60	3567.56
692.78	3387.34
692.97	3487.69
693.15	3485.64
693.34	3405.77
693.52	3428.30
693.71	3383.24
693.89	3356.62
694.08	3123.15
694.26	3207.12
694.44	3631.05
694.63	3536.84
694.81	3102.67
695.00	3180.50
695.18	3672.01
695.37	3960.77
695.55	3284.94
695.74	3270.61
695.92	3354.57
696.10	3696.58
696.29	3114.96
696.47	3205.07
696.66	3186.64
696.84	3209.17
697.03	3266.51
697.21	3504.07
697.40	4749.24
697.58	3692.49
697.76	3221.45
697.95	3170.26
698.13	3184.59
698.32	3336.14
698.50	3276.75
698.68	3184.59
698.87	3491.79
699.05	3846.09
699.24	3157.97
699.42	3215.31
699.61	3502.03
699.79	3469.26
699.97	3225.55
700.16	3139.54
700.34	3196.88
700.53	3655.62
700.71	3495.88
700.89	3317.71
701.08	3364.81
701.26	3475.40
701.45	3493.83
701.63	3233.74
701.81	3291.09
702.00	3276.75
702.18	3332.05
702.37	3129.30
702.55	3588.04
702.73	3409.87
702.92	3168.21
703.10	3469.26
703.28	3569.61
703.47	3229.65
703.65	3416.01
703.84	3434.44
704.02	3243.98
704.20	3807.17
704.39	3172.30
704.57	3213.26
704.75	3612.62
704.94	3512.27
705.12	3403.72
705.30	4007.87
705.49	8183.68
705.67	14348.07
705.86	19011.29
706.04	21468.86
706.22	23563.93
706.41	22427.31
706.59	16596.74
706.77	13483.83
706.96	11609.93
707.14	10727.26
707.32	9252.72
707.51	8097.67
707.69	6985.62
707.87	5816.23
708.06	4724.66
708.24	4218.82
708.42	4007.87
708.61	4247.49
708.79	3215.31
708.97	3393.48
709.16	3526.60
709.34	3512.27
709.52	3211.22
709.71	3162.06
709.89	3604.42
710.07	3319.76
710.26	3059.67
710.44	3200.98
710.62	3700.68
710.80	3475.40
710.99	3295.18
711.17	3381.20
711.35	3248.08
711.54	3362.76
711.72	3448.78
711.90	3196.88
712.09	3551.18
712.27	3323.85
712.45	3352.52
712.63	3176.40
712.82	3459.02
713.00	3356.62
713.18	3327.95
713.37	3354.57
713.55	3590.09
713.73	3606.47
713.91	3330.00
714.10	3213.26
714.28	3303.37
714.46	3461.07
714.65	3393.48
714.83	3256.27
715.01	3454.92
715.19	3491.79
715.38	3157.97
715.56	3379.15
715.74	3284.94
715.92	3276.75
716.11	3643.34
716.29	2969.55
716.47	3424.20
716.65	3393.48
716.84	3041.23
717.02	3246.03
717.20	3102.67
717.38	3334.09
717.57	3336.14
717.75	3289.04
717.93	3299.28
718.11	3559.37
718.30	3028.95
718.48	3233.74
718.66	3727.30
718.84	3739.59
719.03	3196.88
719.21	3049.43
719.39	3839.94
719.57	3495.88
719.75	3256.27
719.94	3149.78
720.12	3413.96
720.30	3393.48
720.48	3323.85
720.67	3188.69
720.85	3225.55
721.03	3332.05
721.21	3196.88
721.39	3295.18
721.58	3551.18
721.76	3459.02
721.94	3186.64
722.12	3338.19
722.30	3796.93
722.49	3295.18
722.67	3200.98
722.85	3215.31
723.03	3108.82
723.21	3321.81
723.40	3192.78
723.58	3330.00
723.76	3698.63
723.94	3743.69
724.12	3200.98
724.30	3444.68
724.49	3559.37
724.67	3313.61
724.85	3205.07
725.03	3155.92
725.21	3467.21
725.40	3651.53
725.58	3315.66
725.76	3450.83
725.94	3569.61
726.12	3168.21
726.30	3282.89
726.49	3143.63
726.67	3389.39
726.85	3594.19
727.03	3913.67
727.21	4804.53
727.39	6205.35
727.57	6418.33
727.76	6719.39
727.94	6629.27
728.12	5810.09
728.30	5029.81
728.48	4837.30
728.66	4419.52
728.84	4360.13
729.03	3889.09
729.21	3588.04
729.39	3526.60
729.57	3479.50
729.75	3473.36
729.93	3450.83
730.11	3133.39
730.30	3305.42
730.48	3454.92
730.66	3272.65
730.84	3350.48
731.02	3438.54
731.20	3330.00
731.38	3282.89
731.56	3065.81
731.74	3112.91
731.93	3528.65
732.11	3327.95
732.29	3166.16
732.47	3569.61
732.65	3516.36
732.83	3348.43
733.01	3301.33
733.19	3379.15
733.37	3487.69
733.56	3229.65
733.74	3033.04
733.92	3733.45
734.10	3241.93
734.28	3327.95
734.46	2983.89
734.64	3344.33
734.82	3334.09
735.00	3270.61
735.18	3162.06
735.36	3397.58
735.54	3346.38
735.73	3184.59
735.91	3336.14
736.09	3813.32
736.27	3477.45
736.45	3321.81
736.63	2955.22
736.81	3307.47
736.99	3678.15
737.17	3381.20
737.35	3188.69
737.53	3454.92
737.71	3327.95
737.89	3444.68
738.07	3209.17
738.25	3336.14
738.43	3088.34
738.61	3260.37
738.80	3053.52
738.98	3182.54
739.16	3366.86
739.34	3168.21
739.52	3481.55
739.70	3401.68
739.88	3534.79
740.06	3319.76
740.24	2969.55
740.42	3743.69
740.60	3078.10
740.78	3192.78
740.96	2942.93
741.14	3340.24
741.32	3356.62
741.50	3002.32
741.68	3540.94
741.86	3692.49
742.04	3237.84
742.22	3112.91
742.40	3211.22
742.58	3614.66
742.76	3289.04
742.94	3422.16
743.12	3061.71
743.30	3430.35
743.48	3502.03
743.66	3198.93
743.84	3182.54
744.02	3373.00
744.20	3403.72
744.38	3127.25
744.56	3166.16
744.74	3885.00
744.92	3608.52
745.10	3377.10
745.28	3221.45
745.46	3805.13
745.64	3383.24
745.82	3272.65
746.00	3131.34
746.18	3532.75
746.36	3266.51
746.54	3262.41
746.72	3133.39
746.90	3196.88
747.08	3737.54
747.26	3243.98
747.44	3295.18
747.62	3598.28
747.80	3602.38
747.98	3354.57
748.15	3155.92
748.33	3866.56
748.51	3434.44
748.69	3336.14
748.87	3067.86
749.05	3375.05
749.23	3454.92
749.41	3205.07
749.59	3133.39
749.77	3538.89
749.95	3330.00
750.13	3114.96
750.31	3360.72
750.49	3475.40
750.67	3663.82
750.85	3336.14
751.03	3198.93
751.20	3977.16
751.38	3459.02
751.56	3311.57
751.74	3188.69
751.92	3438.54
752.10	3190.74
752.28	3403.72
752.46	3203.02
752.64	3409.87
752.82	3444.68
753.00	3366.86
753.18	3162.06
753.35	3309.52
753.53	3379.15
753.71	3141.58
753.89	3233.74
754.07	3540.94
754.25	3571.66
754.43	3309.52
754.61	3108.82
754.79	3411.92
754.97	3356.62
755.14	3397.58
755.32	3176.40
755.50	3483.59
755.68	3475.40
755.86	3135.44
756.04	3135.44
756.22	3000.27
756.40	3569.61
756.57	3401.68
756.75	3155.92
756.93	3672.01
757.11	3612.62
757.29	3080.14
757.47	3125.20
757.65	3051.47
757.82	2983.89
758.00	3086.29
758.18	3145.68
758.36	3284.94
758.54	3825.61
758.72	3119.06
758.90	3301.33
759.07	3436.49
759.25	3223.50
759.43	3223.50
759.61	3065.81
759.79	4597.69
759.97	3651.53
760.15	3252.17
760.32	3151.82
760.50	3579.85
760.68	3854.28
760.86	3045.33
761.04	3395.53
761.22	3663.82
761.39	3370.96
761.57	3352.52
761.75	3151.82
761.93	3602.38
762.11	3387.34
762.28	3342.28
762.46	3108.82
762.64	3594.19
762.82	3250.13
763.00	3076.05
763.18	3368.91
763.35	3131.34
763.53	3559.37
763.71	3254.22
763.89	3133.39
764.07	3426.25
764.24	3485.64
764.42	3246.03
764.60	3213.26
764.78	3583.95
764.96	3606.47
765.13	3426.25
765.31	3104.72
765.49	3590.09
765.67	3198.93
765.84	3192.78
766.02	3004.37
766.20	3106.77
766.38	3567.56
766.56	3311.57
766.73	3235.79
766.91	3477.45
767.09	3438.54
767.27	3223.50
767.44	3106.77
767.62	3555.27
767.80	3440.59
767.98	3082.19
768.15	3223.50
768.33	3708.87
768.51	3594.19
768.69	3416.01
768.87	3176.40
769.04	3317.71
769.22	4028.35
769.40	3375.05
769.58	3364.81
769.75	3585.99
769.93	3665.86
770.11	3198.93
770.28	3110.86
770.46	3596.23
770.64	3450.83
770.82	3209.17
770.99	3094.48
771.17	3538.89
771.35	3344.33
771.53	3303.37
771.70	3168.21
771.88	3672.01
772.06	3475.40
772.23	3110.86
772.41	3297.23
772.59	3364.81
772.77	3286.99
772.94	3286.99
773.12	3241.93
773.30	3246.03
773.47	3487.69
773.65	3018.71
773.83	3373.00
774.01	3399.63
774.18	2987.99
774.36	3233.74
774.54	3045.33
774.71	3526.60
774.89	3090.38
775.07	3092.43
775.24	3237.84
775.42	3342.28
775.60	3841.99
775.78	3057.62
775.95	3039.19
776.13	3104.72
776.31	3076.05
776.48	3407.82
776.66	3467.21
776.84	3272.65
777.01	3246.03
777.19	3074.00
777.37	3094.48
777.54	3610.57
777.72	3911.62
777.90	3284.94
778.07	3162.06
778.25	4120.51
778.43	3747.78
778.60	3149.78
778.78	3332.05
778.96	3813.32
779.13	3176.40
779.31	3260.37
779.49	3217.36
779.66	3459.02
779.84	3344.33
780.01	3200.98
780.19	3137.49
780.37	3682.25
780.54	3688.39
780.72	3035.09
780.90	3168.21
781.07	3401.68
781.25	3340.24
781.43	3413.96
781.60	3186.64
781.78	3700.68
781.95	3502.03
782.13	3258.32
782.31	3133.39
782.48	3018.71
782.66	3440.59
782.83	3350.48
783.01	3297.23
783.19	3618.76
783.36	3381.20
783.54	3094.48
783.72	3360.72
783.89	3348.43
784.07	3534.79
784.24	3315.66
784.42	3360.72
784.60	3485.64
784.77	3508.17
784.95	3014.61
785.12	3174.35
785.30	3510.22
785.47	3211.22
785.65	3121.10
785.83	3291.09
786.00	3323.85
786.18	3434.44
786.35	3137.49
786.53	3114.96
786.71	3672.01
786.88	3450.83
787.06	3274.70
787.23	3319.76
787.41	3182.54
787.58	3395.53
787.76	3123.15
787.94	3182.54
788.11	3514.31
788.29	3188.69
788.46	3200.98
788.64	3030.99
788.81	3315.66
788.99	3246.03
789.16	3180.50
789.34	3207.12
789.52	3323.85
789.69	3366.86
789.87	2969.55
790.04	3168.21
790.22	3330.00
790.39	3928.00
790.57	3076.05
790.74	3112.91
790.92	3688.39
791.09	3102.67
791.27	3252.17
791.44	3311.57
791.62	3424.20
791.79	3608.52
791.97	3411.92
792.15	3553.23
792.32	3573.71
792.50	3508.17
792.67	3393.48
792.85	3540.94
793.02	3491.79
793.20	3280.85
793.37	3104.72
793.55	3114.96
793.72	3147.73
793.90	3637.19
794.07	3145.68
794.25	3096.53
794.42	3446.73
794.60	3452.88
794.77	3221.45
794.95	3356.62
795.12	3663.82
795.30	3403.72
795.47	2969.55
795.65	3473.36
795.82	3596.23
796.00	3246.03
796.17	3250.13
796.34	3035.09
796.52	3444.68
796.69	3682.25
796.87	3278.80
797.04	3295.18
797.22	3629.00
797.39	3518.41
797.57	3409.87
797.74	3264.46
797.92	3524.55
798.09	3332.05
798.27	3510.22
798.44	3131.34
798.62	3209.17
798.79	3446.73
798.96	3270.61
799.14	3205.07
799.31	3997.64
799.49	3467.21
799.66	3231.69
799.84	3233.74
800.01	3180.50
800.19	3491.79
800.36	2963.41
800.53	3282.89
800.71	3502.03
800.88	3825.61
801.06	3141.58
801.23	3203.02
801.41	3373.00
801.58	3309.52
801.75	3065.81
801.93	3239.89
802.10	3608.52
802.28	3411.92
802.45	3344.33
802.63	3246.03
802.80	3745.73
802.97	3270.61
803.15	3200.98
803.32	3090.38
803.50	3295.18
803.67	3321.81
803.84	3209.17
804.02	3327.95
804.19	3266.51
804.37	2967.51
804.54	3071.95
804.71	3143.63
804.89	3471.31
805.06	3209.17
805.24	3190.74
805.41	2977.75
805.58	3297.23
805.76	3977.16
805.93	3184.59
806.10	3379.15
806.28	3463.12
806.45	3510.22
806.63	3336.14
806.80	3264.46
806.97	3485.64
807.15	3391.44
807.32	3254.22
807.49	3176.40
807.67	3196.88
807.84	3526.60
808.01	3010.51
808.19	3336.14
808.36	3885.00
808.54	3286.99
808.71	3231.69
808.88	3102.67
809.06	3663.82
809.23	3755.97
809.40	3260.37
809.58	3108.82
809.75	3383.24
809.92	3223.50
810.10	3483.59
810.27	3205.07
810.44	3495.88
810.62	3618.76
810.79	3295.18
810.96	3174.35
811.14	3315.66
811.31	3526.60
811.48	3377.10
811.66	3278.80
811.83	3602.38
812.00	3571.66
812.18	3289.04
812.35	3516.36
812.52	3420.11
812.69	3403.72
812.87	3198.93
813.04	3119.06
813.21	3459.02
813.39	3311.57
813.56	3160.02
813.73	3479.50
813.91	3200.98
814.08	3391.44
814.25	3250.13
814.42	3026.90
814.60	3348.43
814.77	3473.36
814.94	3090.38
815.12	3282.89
815.29	3833.80
815.46	3209.17
815.63	3246.03
815.81	3114.96
815.98	3272.65
816.15	3393.48
816.33	3280.85
816.50	3276.75
816.67	3387.34
816.84	3340.24
817.02	3020.75
817.19	3110.86
817.36	3395.53
817.53	3508.17
817.71	3080.14
817.88	3209.17
818.05	3358.67
818.22	3463.12
818.40	3334.09
818.57	3198.93
818.74	3524.55
818.91	3393.48
819.09	3426.25
819.26	3305.42
819.43	3239.89
819.60	3231.69
819.78	3483.59
819.95	3213.26
820.12	3235.79
820.29	3798.98
820.47	3463.12
820.64	3090.38
820.81	3200.98
820.98	3215.31
821.15	3217.36
821.33	3270.61
821.50	3139.54
821.67	3559.37
821.84	3074.00
822.02	3260.37
822.19	3641.29
822.36	3342.28
822.53	3094.48
822.70	3035.09
822.88	3332.05
823.05	3715.02
823.22	3319.76
823.39	3186.64
823.56	3426.25
823.74	3885.00
823.91	3057.62
824.08	3090.38
824.25	3284.94
824.42	3741.64
824.60	3028.95
824.77	3274.70
824.94	3377.10
825.11	3555.27
825.28	3049.43
825.45	3375.05
825.63	3426.25
825.80	3252.17
825.97	3258.32
826.14	3164.11
826.31	3153.87
826.48	3542.99
826.66	3182.54
826.83	3065.81
827.00	3354.57
827.17	3176.40
827.34	3250.13
827.51	3184.59
827.69	3327.95
827.86	3061.71
828.03	3274.70
828.20	3256.27
828.37	3293.13
828.54	3510.22
828.71	3055.57
828.89	3258.32
829.06	3532.75
829.23	3805.13
829.40	3205.07
829.57	3112.91
829.74	3598.28
829.91	3297.23
830.09	3110.86
830.26	3385.29
830.43	3835.85
830.60	3305.42
830.77	3299.28
830.94	3448.78
831.11	3598.28
831.28	3354.57
831.46	3309.52
831.63	3168.21
831.80	3626.95
831.97	3366.86
832.14	3248.08
832.31	3205.07
832.48	3551.18
832.65	3635.14
832.82	3424.20
832.99	3207.12
833.17	3205.07
833.34	3655.62
833.51	3133.39
833.68	2942.93
833.85	3725.26
834.02	3172.30
834.19	3069.91
834.36	3217.36
834.53	3518.41
834.70	3672.01
834.87	3188.69
835.04	2965.46
835.22	3184.59
835.39	3397.58
835.56	3059.67
835.73	3035.09
835.90	3592.14
836.07	3213.26
836.24	3143.63
836.41	3049.43
836.58	3264.46
836.75	3598.28
836.92	2996.18
837.09	2852.82
837.26	3635.14
837.43	3426.25
837.60	3045.33
837.77	3112.91
837.94	3618.76
838.12	3643.34
838.29	2893.78
838.46	2953.17
838.63	3211.22
838.80	3827.65
838.97	3117.01
839.14	3016.66
839.31	3430.35
839.48	3651.53
839.65	3057.62
839.82	3119.06
839.99	3499.98
840.16	3499.98
840.33	2951.12
840.50	3057.62
840.67	3256.27
840.84	2881.49
841.01	2994.13
841.18	3012.56
841.35	3461.07
841.52	3577.80
841.69	3379.15
841.86	3039.19
842.03	3436.49
842.20	3547.08
842.37	2985.94
842.54	3030.99
842.71	3491.79
842.88	3098.58
843.05	3065.81
843.22	2957.27
843.39	3590.09
843.56	3278.80
843.73	3008.47
843.90	3100.62
844.07	3340.24
844.24	3633.10
844.41	3090.38
844.58	3061.71
844.75	3450.83
844.92	3581.90
845.09	3037.14
845.26	3004.37
845.43	3557.32
845.60	3366.86
845.77	3078.10
845.94	3049.43
846.10	3577.80
846.27	3100.62
846.44	2906.07
846.61	2871.25
846.78	3680.20
846.95	3682.25
847.12	2967.51
847.29	3082.19
847.46	3282.89
847.63	3604.42
847.80	2893.78
847.97	3082.19
848.14	3870.66
848.31	3364.81
848.48	2887.64
848.65	2994.13
848.82	3332.05
848.98	4048.83
849.15	3137.49
849.32	3129.30
849.49	3633.10
849.66	3477.45
849.83	2975.70
850.00	2992.08
850.17	3612.62
850.34	3344.33
850.51	2926.55
850.68	3069.91
850.85	3954.63
851.01	3475.40
851.18	2936.79
851.35	3008.47
851.52	3518.41
851.69	3692.49
851.86	3026.90
852.03	2951.12
852.20	3635.14
852.37	3354.57
852.53	2932.69
852.70	2983.89
852.87	3487.69
853.04	3633.10
853.21	3037.14
853.38	3319.76
853.55	3731.40
853.72	3686.34
853.89	2869.20
854.05	2975.70
854.22	3459.02
854.39	3286.99
854.56	2951.12
854.73	3248.08
854.90	3239.89
855.07	3467.21
855.23	2940.88
855.40	2867.16
855.57	3291.09
855.74	2992.08
855.91	3135.44
856.08	2861.01
856.25	3149.78
856.41	3418.06
856.58	3012.56
856.75	3002.32
856.92	3170.26
857.09	3536.84
857.26	2852.82
857.42	3078.10
857.59	3497.93
857.76	3313.61
857.93	2971.60
858.10	3117.01
858.27	3225.55
858.43	3497.93
858.60	3022.80
858.77	2934.74
858.94	3303.37
859.11	3631.05
859.27	3086.29
859.44	2861.01
859.61	3887.04
859.78	3508.17
859.95	3026.90
860.12	2951.12
860.28	3889.09
860.45	3919.81
860.62	2930.64
860.79	3141.58
860.95	3303.37
861.12	3258.32
861.29	2965.46
861.46	3024.85
861.63	3377.10
861.79	3479.50
861.96	2873.30
862.13	3045.33
862.30	3735.50
862.47	3192.78
862.63	2838.48
862.80	3028.95
862.97	3690.44
863.14	3379.15
863.30	3123.15
863.47	2963.41
863.64	3778.50
863.81	3446.73
863.97	2877.40
864.14	3049.43
864.31	3381.20
864.48	3444.68
864.65	2928.60
864.81	3135.44
864.98	3594.19
865.15	3651.53
865.32	3010.51
865.48	3121.10
865.65	3805.13
865.82	3286.99
865.98	3102.67
866.15	3100.62
866.32	3409.87
866.49	3330.00
866.65	3172.30
866.82	3033.04
866.99	3377.10
867.16	3241.93
867.32	2979.79
867.49	2895.83
867.66	3291.09
867.83	3330.00
867.99	3012.56
868.16	3041.23
868.33	3196.88
868.49	3381.20
868.66	3026.90
868.83	3102.67
868.99	3418.06
869.16	3370.96
869.33	3219.41
869.50	3137.49
869.66	3442.64
869.83	3442.64
870.00	2914.26
870.16	3149.78
870.33	3418.06
870.50	3655.62
870.66	3133.39
870.83	2967.51
871.00	3368.91
871.17	3565.51
871.33	3114.96
871.50	3010.51
871.67	3463.12
871.83	3231.69
872.00	3119.06
872.17	3074.00
872.33	3856.33
872.50	3645.38
872.67	2971.60
872.83	2990.03
873.00	3520.46
873.17	3473.36
873.33	3061.71
873.50	3088.34
873.67	3239.89
873.83	3303.37
874.00	3047.38
874.16	3223.50
874.33	3459.02
874.50	3188.69
874.66	2990.03
874.83	3149.78
875.00	3669.96
875.16	3651.53
875.33	3090.38
875.50	2713.56
875.66	3352.52
875.83	3524.55
875.99	3123.15
876.16	3225.55
876.33	3186.64
876.49	3373.00
876.66	3067.86
876.83	3051.47
876.99	3086.29
877.16	3407.82
877.32	3008.47
877.49	3198.93
877.66	3561.42
877.82	3678.15
877.99	3090.38
878.15	3418.06
878.32	3475.40
878.49	3454.92
878.65	3221.45
878.82	3274.70
878.98	3303.37
879.15	3635.14
879.32	3192.78
879.48	3256.27
879.65	3397.58
879.81	3483.59
879.98	3078.10
880.15	3100.62
880.31	3616.71
880.48	3307.47
880.64	3227.60
880.81	3186.64
880.97	3819.46
881.14	3606.47
881.31	2961.36
881.47	3211.22
881.64	3311.57
881.80	2992.08
881.97	3174.35
882.13	3047.38
882.30	3231.69
882.47	3291.09
882.63	3018.71
882.80	3016.66
882.96	3252.17
883.13	3620.81
883.29	3051.47
883.46	3041.23
883.62	3983.30
883.79	3454.92
883.95	3207.12
884.12	3026.90
884.29	3708.87
884.45	3395.53
884.62	3057.62
884.78	2985.94
884.95	3798.98
885.11	3231.69
885.28	3102.67
885.44	3037.14
885.61	3590.09
885.77	3702.73
885.94	3186.64
886.10	3131.34
886.27	3405.77
886.43	3839.94
886.60	3217.36
886.76	3047.38
886.93	3190.74
887.09	3454.92
887.26	2885.59
887.42	3110.86
887.59	3606.47
887.75	3981.25
887.92	3262.41
888.08	3135.44
888.25	3786.69
888.41	3575.75
888.58	3053.52
888.74	3057.62
888.91	3317.71
>>>>>End Processed Spectral Data<<<<<
