SpectraSuite Data File
++++++++++++++++++++++++++++++++++++
Date: Fri May 06 09:29:12 CEST 2016
User: root
Dark Spectrum Present: No
Reference Spectrum Present: No
Number of Sampled Component Spectra: 1
Spectrometers: USB4C02835
Integration Time (usec): 100000 (USB4C02835)
Spectra Averaged: 1 (USB4C02835)
Boxcar Smoothing: 0 (USB4C02835)
Correct for Electrical Dark: No (USB4C02835)
Strobe/Lamp Enabled: No (USB4C02835)
Correct for Detector Non-linearity: No (USB4C02835)
Correct for Stray Light: No (USB4C02835)
Number of Pixels in Processed Spectrum: 3648
>>>>>Begin Processed Spectral Data<<<<<
177.47	2340.83
177.69	2340.83
177.91	2340.83
178.13	2359.26
178.36	2324.44
178.58	3157.97
178.80	3264.46
179.02	3155.92
179.24	3250.13
179.46	2867.16
179.68	2932.69
179.90	3350.48
180.13	3426.25
180.35	2795.48
180.57	2918.36
180.79	3581.90
181.01	3428.30
181.23	2953.17
181.45	3162.06
181.67	3598.28
181.90	3602.38
182.12	3026.90
182.34	2803.67
182.56	3602.38
182.78	3520.46
183.00	2936.79
183.22	3039.19
183.44	3078.10
183.66	4204.48
183.89	3053.52
184.11	2934.74
184.33	3588.04
184.55	3651.53
184.77	2873.30
184.99	2987.99
185.21	3262.41
185.43	3983.30
185.65	2975.70
185.87	2961.36
186.10	4075.46
186.32	4042.69
186.54	3041.23
186.76	3098.58
186.98	3723.21
187.20	3436.49
187.42	3018.71
187.64	2885.59
187.86	3555.27
188.08	3710.92
188.30	2822.10
188.52	2975.70
188.75	3676.10
188.97	3764.17
189.19	2949.08
189.41	2852.82
189.63	3610.57
189.85	3348.43
190.07	2805.72
190.29	2777.05
190.51	3555.27
190.73	3153.87
190.95	3205.07
191.17	3030.99
191.39	3117.01
191.61	3444.68
191.84	2887.64
192.06	3172.30
192.28	3117.01
192.50	4206.53
192.72	3098.58
192.94	3043.28
193.16	3727.30
193.38	3549.13
193.60	2897.88
193.82	3200.98
194.04	3631.05
194.26	3573.71
194.48	2944.98
194.70	2967.51
194.92	3342.28
195.14	3547.08
195.36	2928.60
195.58	3100.62
195.80	3442.64
196.02	3229.65
196.24	2914.26
196.46	3098.58
196.69	3381.20
196.91	3989.44
197.13	3045.33
197.35	2961.36
197.57	3772.36
197.79	3655.62
198.01	2987.99
198.23	3022.80
198.45	3506.12
198.67	3174.35
198.89	2822.10
199.11	3102.67
199.33	3243.98
199.55	2969.55
199.77	2942.93
199.99	3102.67
200.21	3327.95
200.43	3600.33
200.65	2848.72
200.87	2820.05
201.09	3542.99
201.31	3471.31
201.53	2904.02
201.75	3078.10
201.97	3456.97
202.19	3508.17
202.41	3112.91
202.63	3086.29
202.85	3663.82
203.07	3512.27
203.29	3043.28
203.51	2920.40
203.73	3405.77
203.95	4016.07
204.17	2930.64
204.39	3123.15
204.61	3418.06
204.83	3272.65
205.05	3205.07
205.27	2904.02
205.49	4179.90
205.71	3491.79
205.93	2797.53
206.15	2813.91
206.37	3512.27
206.59	3383.24
206.81	2779.09
207.03	2820.05
207.25	3278.80
207.47	3600.33
207.69	2992.08
207.91	3256.27
208.13	3835.85
208.34	3305.42
208.56	2908.12
208.78	2981.84
209.00	3418.06
209.22	3430.35
209.44	2961.36
209.66	2936.79
209.88	3499.98
210.10	3416.01
210.32	2940.88
210.54	3078.10
210.76	3401.68
210.98	3751.88
211.20	2783.19
211.42	2983.89
211.64	3792.84
211.86	3549.13
212.08	3069.91
212.30	2936.79
212.52	3440.59
212.74	3508.17
212.96	3104.72
213.17	3002.32
213.39	3602.38
213.61	3821.51
213.83	2901.97
214.05	2922.45
214.27	3581.90
214.49	3262.41
214.71	2926.55
214.93	3049.43
215.15	3473.36
215.37	3774.41
215.59	2863.06
215.81	3024.85
216.03	3735.50
216.24	3430.35
216.46	2942.93
216.68	3033.04
216.90	3588.04
217.12	3649.48
217.34	2992.08
217.56	3186.64
217.78	3788.74
218.00	3549.13
218.22	3098.58
218.44	3074.00
218.66	3487.69
218.87	3928.00
219.09	3004.37
219.31	2992.08
219.53	3542.99
219.75	3360.72
219.97	2957.27
220.19	2949.08
220.41	3495.88
220.63	3821.51
220.85	3016.66
221.06	2987.99
221.28	3813.32
221.50	3561.42
221.72	2985.94
221.94	2811.86
222.16	3489.74
222.38	3778.50
222.60	2879.44
222.82	3000.27
223.03	3682.25
223.25	3266.51
223.47	2912.21
223.69	3233.74
223.91	3620.81
224.13	3532.75
224.35	2869.20
224.57	3147.73
224.78	3604.42
225.00	3225.55
225.22	3108.82
225.44	2926.55
225.66	3688.39
225.88	3229.65
226.10	3090.38
226.32	3002.32
226.53	3770.31
226.75	3360.72
226.97	3016.66
227.19	3008.47
227.41	3291.09
227.63	3454.92
227.85	2797.53
228.06	2975.70
228.28	3585.99
228.50	3577.80
228.72	2789.33
228.94	2914.26
229.16	3082.19
229.37	3221.45
229.59	2783.19
229.81	3221.45
230.03	3360.72
230.25	3182.54
230.47	2820.05
230.69	2992.08
230.90	3678.15
231.12	3254.22
231.34	3092.43
231.56	3110.86
231.78	3160.02
232.00	3442.64
232.21	2987.99
232.43	3008.47
232.65	2928.60
232.87	3592.14
233.09	2801.62
233.30	2930.64
233.52	3710.92
233.74	3446.73
233.96	2944.98
234.18	3131.34
234.40	3338.19
234.61	3966.92
234.83	2830.29
235.05	2971.60
235.27	4110.27
235.49	3655.62
235.70	2820.05
235.92	3047.38
236.14	3592.14
236.36	4044.74
236.58	2836.44
236.79	3067.86
237.01	3397.58
237.23	3405.77
237.45	3172.30
237.67	3012.56
237.88	3573.71
238.10	3928.00
238.32	2916.31
238.54	2836.44
238.76	3430.35
238.97	3223.50
239.19	2848.72
239.41	3010.51
239.63	3725.26
239.85	3327.95
240.06	3041.23
240.28	3022.80
240.50	3647.43
240.72	3420.11
240.93	2836.44
241.15	3178.45
241.37	3485.64
241.59	3780.55
241.81	2983.89
242.02	3045.33
242.24	3573.71
242.46	3629.00
242.68	2846.68
242.89	2891.73
243.11	3631.05
243.33	3506.12
243.55	2985.94
243.76	2965.46
243.98	3352.52
244.20	3452.88
244.42	2992.08
244.64	2887.64
244.85	3080.14
245.07	3237.84
245.29	2975.70
245.51	3012.56
245.72	3508.17
245.94	3721.16
246.16	2936.79
246.38	3014.61
246.59	3430.35
246.81	3307.47
247.03	2908.12
247.24	2836.44
247.46	3352.52
247.68	3373.00
247.90	2893.78
248.11	2973.65
248.33	3585.99
248.55	3487.69
248.77	3045.33
248.98	3041.23
249.20	3837.89
249.42	3510.22
249.64	2910.16
249.85	2893.78
250.07	3340.24
250.29	3561.42
250.50	3065.81
250.72	2879.44
250.94	3549.13
251.16	4026.31
251.37	2947.03
251.59	3010.51
251.81	3596.23
252.02	3792.84
252.24	2887.64
252.46	3119.06
252.68	3291.09
252.89	3327.95
253.11	2717.65
253.33	3147.73
253.54	3780.55
253.76	3151.82
253.98	2942.93
254.20	2914.26
254.41	3176.40
254.63	3385.29
254.85	2818.00
255.06	3076.05
255.28	3534.79
255.50	3373.00
255.71	2881.49
255.93	2805.72
256.15	3471.31
256.36	3594.19
256.58	2840.53
256.80	2844.63
257.02	3446.73
257.23	3401.68
257.45	3112.91
257.67	3065.81
257.88	3362.76
258.10	3555.27
258.32	2942.93
258.53	3033.04
258.75	3841.99
258.97	3262.41
259.18	2922.45
259.40	2942.93
259.62	3864.52
259.83	3770.31
260.05	2967.51
260.27	4001.73
260.48	3661.77
260.70	3225.55
260.92	2820.05
261.13	3028.95
261.35	3508.17
261.57	3532.75
261.78	2863.06
262.00	3020.75
262.22	3592.14
262.43	3286.99
262.65	2922.45
262.86	2994.13
263.08	4059.07
263.30	3426.25
263.51	2828.24
263.73	2928.60
263.95	3825.61
264.16	3248.08
264.38	2811.86
264.60	2961.36
264.81	3459.02
265.03	3749.83
265.25	3508.17
265.46	2942.93
265.68	3651.53
265.89	3694.54
266.11	2815.96
266.33	2930.64
266.54	3706.82
266.76	3606.47
266.98	3102.67
267.19	3172.30
267.41	3665.86
267.62	3352.52
267.84	2742.23
268.06	3076.05
268.27	3534.79
268.49	3635.14
268.70	2975.70
268.92	2899.92
269.14	3278.80
269.35	3135.44
269.57	3037.14
269.79	3041.23
270.00	3332.05
270.22	3846.09
270.43	2873.30
270.65	2861.01
270.87	3444.68
271.08	3565.51
271.30	3092.43
271.51	2854.87
271.73	3604.42
271.95	3815.37
272.16	2961.36
272.38	3067.86
272.59	3307.47
272.81	3553.23
273.02	2934.74
273.24	2975.70
273.46	3672.01
273.67	3166.16
273.89	2838.48
274.10	2996.18
274.32	3772.36
274.54	3440.59
274.75	3043.28
274.97	3039.19
275.18	3557.32
275.40	3614.66
275.61	2992.08
275.83	3100.62
276.05	3200.98
276.26	3426.25
276.48	3049.43
276.69	3114.96
276.91	3409.87
277.12	3864.52
277.34	3123.15
277.55	3178.45
277.77	3524.55
277.99	3375.05
278.20	3098.58
278.42	2918.36
278.63	3286.99
278.85	3254.22
279.06	3086.29
279.28	3110.86
279.49	3717.06
279.71	3559.37
279.93	3123.15
280.14	3123.15
280.36	3248.08
280.57	3680.20
280.79	3127.25
281.00	2969.55
281.22	3377.10
281.43	3600.33
281.65	2844.63
281.86	3041.23
282.08	3493.83
282.29	3911.62
282.51	2992.08
282.73	2994.13
282.94	3082.19
283.16	3614.66
283.37	3147.73
283.59	3110.86
283.80	3575.75
284.02	3401.68
284.23	3162.06
284.45	3153.87
284.66	3278.80
284.88	3305.42
285.09	3061.71
285.31	3172.30
285.52	3495.88
285.74	3114.96
285.95	3321.81
286.17	3166.16
286.38	3747.78
286.60	3295.18
286.81	3065.81
287.03	3086.29
287.24	3440.59
287.46	3583.95
287.67	3270.61
287.89	3289.04
288.10	3436.49
288.32	3420.11
288.53	3229.65
288.75	3182.54
288.96	3588.04
289.18	3360.72
289.39	3102.67
289.61	3176.40
289.82	3958.72
290.04	3901.38
290.25	2983.89
290.47	3227.60
290.68	3405.77
290.90	3659.72
291.11	2914.26
291.33	3311.57
291.54	3286.99
291.76	3231.69
291.97	3205.07
292.18	3256.27
292.40	3450.83
292.61	3303.37
292.83	3362.76
293.04	3063.76
293.26	3442.64
293.47	3377.10
293.69	3088.34
293.90	2979.79
294.12	3749.83
294.33	3299.28
294.55	3211.22
294.76	3301.33
294.97	3755.97
295.19	3983.30
295.40	3176.40
295.62	3092.43
295.83	3624.90
296.05	3289.04
296.26	3411.92
296.48	3043.28
296.69	3452.88
296.90	3434.44
297.12	3237.84
297.33	3178.45
297.55	3461.07
297.76	3581.90
297.98	3180.50
298.19	3346.38
298.41	3438.54
298.62	3219.41
298.83	3315.66
299.05	3248.08
299.26	3373.00
299.48	3289.04
299.69	3205.07
299.90	2973.65
300.12	3205.07
300.33	3651.53
300.55	3153.87
300.76	3133.39
300.98	3209.17
301.19	3629.00
301.40	3110.86
301.62	3065.81
301.83	3532.75
302.05	3545.03
302.26	3024.85
302.47	3168.21
302.69	3243.98
302.90	3469.26
303.12	2895.83
303.33	3229.65
303.54	3839.94
303.76	3319.76
303.97	3043.28
304.19	3262.41
304.40	3205.07
304.61	3610.57
304.83	3149.78
305.04	3184.59
305.26	3635.14
305.47	3348.43
305.68	3084.24
305.90	3010.51
306.11	3710.92
306.33	3508.17
306.54	2881.49
306.75	3098.58
306.97	3061.71
307.18	3237.84
307.39	3045.33
307.61	3260.37
307.82	3377.10
308.04	3614.66
308.25	2961.36
308.46	3211.22
308.68	3452.88
308.89	3499.98
309.10	3252.17
309.32	3147.73
309.53	3465.16
309.74	3596.23
309.96	3010.51
310.17	3217.36
310.39	3409.87
310.60	3502.03
310.81	3065.81
311.03	3059.67
311.24	3659.72
311.45	3418.06
311.67	3332.05
311.88	3241.93
312.09	3403.72
312.31	3348.43
312.52	3071.95
312.73	2963.41
312.95	3139.54
313.16	3184.59
313.37	3250.13
313.59	3299.28
313.80	3598.28
314.01	3819.46
314.23	3117.01
314.44	3004.37
314.65	3188.69
314.87	3254.22
315.08	3088.34
315.29	3114.96
315.51	3270.61
315.72	3084.24
315.93	3176.40
316.15	3084.24
316.36	3311.57
316.57	3454.92
316.79	3078.10
317.00	3010.51
317.21	3532.75
317.43	3262.41
317.64	3082.19
317.85	2940.88
318.07	3321.81
318.28	3348.43
318.49	3178.45
318.70	3309.52
318.92	3454.92
319.13	3508.17
319.34	3256.27
319.56	3065.81
319.77	3610.57
319.98	3600.33
320.20	3422.16
320.41	3272.65
320.62	3510.22
320.83	3184.59
321.05	3256.27
321.26	3172.30
321.47	3471.31
321.69	3686.34
321.90	3039.19
322.11	3037.14
322.32	3456.97
322.54	3813.32
322.75	3180.50
322.96	4229.06
323.18	3141.58
323.39	3084.24
323.60	2965.46
323.81	3182.54
324.03	3319.76
324.24	3481.55
324.45	3274.70
324.66	3045.33
324.88	3774.41
325.09	3835.85
325.30	3135.44
325.52	3067.86
325.73	3561.42
325.94	3237.84
326.15	3055.57
326.37	2975.70
326.58	3569.61
326.79	3844.04
327.00	3008.47
327.22	3096.53
327.43	3434.44
327.64	3286.99
327.85	3209.17
328.07	3078.10
328.28	3786.69
328.49	3405.77
328.70	3145.68
328.92	3172.30
329.13	3403.72
329.34	3674.06
329.55	3332.05
329.76	3299.28
329.98	3346.38
330.19	3696.58
330.40	3243.98
330.61	3264.46
330.83	3665.86
331.04	3262.41
331.25	3125.20
331.46	3192.78
331.68	3209.17
331.89	3639.24
332.10	3098.58
332.31	3035.09
332.52	3401.68
332.74	3696.58
332.95	2969.55
333.16	3071.95
333.37	3592.14
333.58	3354.57
333.80	3123.15
334.01	2936.79
334.22	3397.58
334.43	3305.42
334.64	3063.76
334.86	3033.04
335.07	3174.35
335.28	3751.88
335.49	2983.89
335.70	3223.50
335.92	3751.88
336.13	3948.48
336.34	3098.58
336.55	3082.19
336.76	3540.94
336.98	3014.61
337.19	3094.48
337.40	3221.45
337.61	3956.68
337.82	3399.63
338.04	3219.41
338.25	2947.03
338.46	3420.11
338.67	3424.20
338.88	2910.16
339.09	2981.84
339.31	3327.95
339.52	3153.87
339.73	3051.47
339.94	3205.07
340.15	3604.42
340.36	3381.20
340.58	3151.82
340.79	3037.14
341.00	3567.56
341.21	3143.63
341.42	3358.67
341.63	3108.82
341.85	3725.26
342.06	3473.36
342.27	3016.66
342.48	3274.70
342.69	3157.97
342.90	3614.66
343.12	3502.03
343.33	2998.23
343.54	3674.06
343.75	3772.36
343.96	3239.89
344.17	3033.04
344.38	3373.00
344.60	3237.84
344.81	3024.85
345.02	3078.10
345.23	3647.43
345.44	4024.26
345.65	3209.17
345.86	3166.16
346.07	3508.17
346.29	3289.04
346.50	3295.18
346.71	3153.87
346.92	3721.16
347.13	3966.92
347.34	3225.55
347.55	2912.21
347.76	3569.61
347.98	3157.97
348.19	3076.05
348.40	3289.04
348.61	3297.23
348.82	3774.41
349.03	3184.59
349.24	2971.60
349.45	3862.47
349.66	3028.95
349.88	3053.52
350.09	3002.32
350.30	3782.60
350.51	3680.20
350.72	3319.76
350.93	3147.73
351.14	3383.24
351.35	3502.03
351.56	3088.34
351.77	3104.72
351.99	3514.31
352.20	3815.37
352.41	3190.74
352.62	2912.21
352.83	3432.40
353.04	3332.05
353.25	3114.96
353.46	3178.45
353.67	3788.74
353.88	3022.80
354.09	3063.76
354.30	3147.73
354.52	3551.18
354.73	3411.92
354.94	3000.27
355.15	3270.61
355.36	3942.34
355.57	3262.41
355.78	3047.38
355.99	3108.82
356.20	3495.88
356.41	3725.26
356.62	3123.15
356.83	3203.02
357.04	3766.21
357.25	3086.29
357.46	3061.71
357.68	2928.60
357.89	3262.41
358.10	3397.58
358.31	3071.95
358.52	3147.73
358.73	3217.36
358.94	3213.26
359.15	3155.92
359.36	3053.52
359.57	3493.83
359.78	3293.13
359.99	3237.84
360.20	2983.89
360.41	3426.25
360.62	3588.04
360.83	3264.46
361.04	3145.68
361.25	3659.72
361.46	3807.17
361.67	3221.45
361.88	3123.15
362.09	3629.00
362.30	3524.55
362.51	3020.75
362.72	3184.59
362.93	3614.66
363.14	3485.64
363.35	3223.50
363.56	3110.86
363.78	3651.53
363.99	3672.01
364.20	3135.44
364.41	3196.88
364.62	3852.23
364.83	3545.03
365.04	3082.19
365.25	3135.44
365.46	3870.66
365.67	3250.13
365.88	3258.32
366.09	3061.71
366.30	3381.20
366.51	3518.41
366.72	3059.67
366.93	3094.48
367.14	3493.83
367.35	3725.26
367.56	3041.23
367.77	3231.69
367.98	3499.98
368.18	3493.83
368.39	3319.76
368.60	3051.47
368.81	3647.43
369.02	3520.46
369.23	3067.86
369.44	2955.22
369.65	3395.53
369.86	3524.55
370.07	3184.59
370.28	3012.56
370.49	3534.79
370.70	3456.97
370.91	2963.41
371.12	3063.76
371.33	3604.42
371.54	3286.99
371.75	3213.26
371.96	2926.55
372.17	3528.65
372.38	3330.00
372.59	3125.20
372.80	3086.29
373.01	3377.10
373.22	3461.07
373.43	3053.52
373.64	3020.75
373.85	3753.93
374.06	3821.51
374.26	3334.09
374.47	3276.75
374.68	3737.54
374.89	3499.98
375.10	3035.09
375.31	3256.27
375.52	3483.59
375.73	3413.96
375.94	2947.03
376.15	3207.12
376.36	3237.84
376.57	3360.72
376.78	3106.77
376.99	3213.26
377.20	3712.97
377.40	3362.76
377.61	3383.24
377.82	3121.10
378.03	3735.50
378.24	3553.23
378.45	3270.61
378.66	3164.11
378.87	3106.77
379.08	3131.34
379.29	3094.48
379.50	3211.22
379.71	3416.01
379.91	3606.47
380.12	3053.52
380.33	3217.36
380.54	3389.39
380.75	3405.77
380.96	3131.34
381.17	3141.58
381.38	3540.94
381.59	3483.59
381.80	3143.63
382.00	3319.76
382.21	3385.29
382.42	3893.19
382.63	3450.83
382.84	3325.90
383.05	3592.14
383.26	3792.84
383.47	3254.22
383.68	2987.99
383.88	3573.71
384.09	3436.49
384.30	3342.28
384.51	3215.31
384.72	3426.25
384.93	3215.31
385.14	3237.84
385.35	3475.40
385.55	3149.78
385.76	3731.40
385.97	3137.49
386.18	2975.70
386.39	3174.35
386.60	3309.52
386.81	3114.96
387.02	2996.18
387.22	3147.73
387.43	3516.36
387.64	3194.83
387.85	3391.44
388.06	3397.58
388.27	4419.52
388.48	7116.69
388.68	10739.55
388.89	13313.84
389.10	14616.35
389.31	14233.38
389.52	11523.92
389.73	10192.74
389.93	9267.06
390.14	8329.09
390.35	7802.76
390.56	7522.19
390.77	6121.38
390.98	4704.18
391.18	4097.99
391.39	3966.92
391.60	3520.46
391.81	3491.79
392.02	3180.50
392.23	4028.35
392.43	3450.83
392.64	3182.54
392.85	3254.22
393.06	3809.22
393.27	3461.07
393.47	3086.29
393.68	3188.69
393.89	3459.02
394.10	3751.88
394.31	3215.31
394.52	3090.38
394.72	3264.46
394.93	3729.35
395.14	3018.71
395.35	3209.17
395.56	3330.00
395.76	3411.92
395.97	3121.10
396.18	3305.42
396.39	3356.62
396.60	4110.27
396.80	3577.80
397.01	3385.29
397.22	3516.36
397.43	3575.75
397.64	3131.34
397.84	3215.31
398.05	3915.72
398.26	3395.53
398.47	3162.06
398.67	3377.10
398.88	3403.72
399.09	3598.28
399.30	3135.44
399.51	3184.59
399.71	3342.28
399.92	3467.21
400.13	3198.93
400.34	3135.44
400.54	3475.40
400.75	3858.37
400.96	3180.50
401.17	3508.17
401.37	3602.38
401.58	3446.73
401.79	3143.63
402.00	3225.55
402.21	3989.44
402.41	3540.94
402.62	3350.48
402.83	3426.25
403.04	3837.89
403.24	4181.95
403.45	3248.08
403.66	3475.40
403.87	3608.52
404.07	3725.26
404.28	3360.72
404.49	3463.12
404.70	3540.94
404.90	3606.47
405.11	3119.06
405.32	3286.99
405.52	3325.90
405.73	3309.52
405.94	3139.54
406.15	3194.83
406.35	3655.62
406.56	3575.75
406.77	3135.44
406.98	3160.02
407.18	3223.50
407.39	3788.74
407.60	3155.92
407.80	3192.78
408.01	3379.15
408.22	3540.94
408.43	3143.63
408.63	3270.61
408.84	3692.49
409.05	3637.19
409.25	3108.82
409.46	3094.48
409.67	3307.47
409.88	3297.23
410.08	3231.69
410.29	3141.58
410.50	3704.78
410.70	3530.70
410.91	3155.92
411.12	3266.51
411.32	3491.79
411.53	3315.66
411.74	3170.26
411.95	3153.87
412.15	3483.59
412.36	3528.65
412.57	3248.08
412.77	3311.57
412.98	3385.29
413.19	3278.80
413.39	3125.20
413.60	3172.30
413.81	3733.45
414.01	3254.22
414.22	3141.58
414.43	3340.24
414.63	3241.93
414.84	3647.43
415.05	3235.79
415.25	3045.33
415.46	3581.90
415.67	3360.72
415.87	3182.54
416.08	3217.36
416.29	3436.49
416.49	3497.93
416.70	3182.54
416.91	3196.88
417.11	3393.48
417.32	3602.38
417.53	3207.12
417.73	3323.85
417.94	3411.92
418.15	3538.89
418.35	3243.98
418.56	3184.59
418.77	3893.19
418.97	3569.61
419.18	3272.65
419.38	2822.10
419.59	3495.88
419.80	3786.69
420.00	3049.43
420.21	3221.45
420.42	3682.25
420.62	3528.65
420.83	3059.67
421.04	3131.34
421.24	3438.54
421.45	3610.57
421.65	3301.33
421.86	3149.78
422.07	3727.30
422.27	3561.42
422.48	3057.62
422.69	2996.18
422.89	3356.62
423.10	3368.91
423.30	3155.92
423.51	3155.92
423.72	3528.65
423.92	3526.60
424.13	2987.99
424.33	3227.60
424.54	3651.53
424.75	3524.55
424.95	3413.96
425.16	3000.27
425.36	3549.13
425.57	3692.49
425.78	3266.51
425.98	3243.98
426.19	3391.44
426.39	3295.18
426.60	3192.78
426.81	3315.66
427.01	3565.51
427.22	3233.74
427.42	2926.55
427.63	3051.47
427.83	3616.71
428.04	3878.85
428.25	3192.78
428.45	3217.36
428.66	3710.92
428.86	3346.38
429.07	3184.59
429.28	3123.15
429.48	3485.64
429.69	3305.42
429.89	3286.99
430.10	3131.34
430.30	3561.42
430.51	3745.73
430.71	3114.96
430.92	3174.35
431.13	3297.23
431.33	3581.90
431.54	3297.23
431.74	3368.91
431.95	3975.11
432.15	3196.88
432.36	3121.10
432.56	3246.03
432.77	3893.19
432.98	3880.90
433.18	3266.51
433.39	3041.23
433.59	3436.49
433.80	3938.24
434.00	3319.76
434.21	3184.59
434.41	3289.04
434.62	4011.97
434.82	3033.04
435.03	3084.24
435.23	3547.08
435.44	3133.39
435.64	3030.99
435.85	3176.40
436.06	3659.72
436.26	3667.91
436.47	3182.54
436.67	3018.71
436.88	3356.62
437.08	3667.91
437.29	3205.07
437.49	3278.80
437.70	3755.97
437.90	3426.25
438.11	3356.62
438.31	3280.85
438.52	3672.01
438.72	3684.30
438.93	3497.93
439.13	3280.85
439.34	3590.09
439.54	3280.85
439.75	3309.52
439.95	3295.18
440.16	3319.76
440.36	3444.68
440.57	3164.11
440.77	3143.63
440.98	3477.45
441.18	3575.75
441.39	3043.28
441.59	2985.94
441.80	3860.42
442.00	3430.35
442.21	3217.36
442.41	3074.00
442.62	3602.38
442.82	3340.24
443.02	3164.11
443.23	3131.34
443.43	3401.68
443.64	3672.01
443.84	3061.71
444.05	3248.08
444.25	3424.20
444.46	3270.61
444.66	3168.21
444.87	3438.54
445.07	3102.67
445.28	3463.12
445.48	3350.48
445.69	3266.51
445.89	4138.94
446.09	3360.72
446.30	3418.06
446.50	3512.27
446.71	4997.04
446.91	6076.32
447.12	6733.72
447.32	7096.21
447.53	7221.14
447.73	6143.91
447.93	5363.63
448.14	5130.16
448.34	5398.45
448.55	4435.90
448.75	4396.99
448.96	4124.61
449.16	4157.38
449.36	3997.64
449.57	3438.54
449.77	3205.07
449.98	3420.11
450.18	3581.90
450.39	3078.10
450.59	3340.24
450.79	3407.82
451.00	3264.46
451.20	3426.25
451.41	3172.30
451.61	3491.79
451.81	3409.87
452.02	3084.24
452.22	3092.43
452.43	3315.66
452.63	3272.65
452.84	3266.51
453.04	3125.20
453.24	3477.45
453.45	3303.37
453.65	3250.13
453.86	3221.45
454.06	3471.31
454.26	3397.58
454.47	3082.19
454.67	3389.39
454.87	3495.88
455.08	3407.82
455.28	3233.74
455.49	3342.28
455.69	3323.85
455.89	3917.76
456.10	3241.93
456.30	3114.96
456.51	3542.99
456.71	3438.54
456.91	3239.89
457.12	3166.16
457.32	3610.57
457.52	3182.54
457.73	3250.13
457.93	3342.28
458.14	3250.13
458.34	3082.19
458.54	3268.56
458.75	3137.49
458.95	3622.86
459.15	3430.35
459.36	3213.26
459.56	3170.26
459.76	4091.84
459.97	3479.50
460.17	3209.17
460.37	3225.55
460.58	3495.88
460.78	3575.75
460.99	3278.80
461.19	3241.93
461.39	3364.81
461.60	3438.54
461.80	3268.56
462.00	3057.62
462.21	3461.07
462.41	3205.07
462.61	3059.67
462.82	2938.84
463.02	3473.36
463.22	3430.35
463.43	3190.74
463.63	3088.34
463.83	3735.50
464.04	3497.93
464.24	3141.58
464.44	3143.63
464.64	3547.08
464.85	3563.47
465.05	3164.11
465.25	3160.02
465.46	3364.81
465.66	3571.66
465.86	3243.98
466.07	3094.48
466.27	3411.92
466.47	3069.91
466.68	3002.32
466.88	3319.76
467.08	3585.99
467.29	3663.82
467.49	3145.68
467.69	3383.24
467.89	3542.99
468.10	3391.44
468.30	3203.02
468.50	3266.51
468.71	3626.95
468.91	3129.30
469.11	3327.95
469.31	3282.89
469.52	3309.52
469.72	3817.41
469.92	3422.16
470.13	3215.31
470.33	3452.88
470.53	3469.26
470.73	3600.33
470.94	3837.89
471.14	4040.64
471.34	4458.43
471.54	4089.79
471.75	3891.14
471.95	3721.16
472.15	3692.49
472.36	3694.54
472.56	3452.88
472.76	3893.19
472.96	3706.82
473.17	3364.81
473.37	3286.99
473.57	3309.52
473.77	3583.95
473.98	3373.00
474.18	3078.10
474.38	4116.42
474.58	3334.09
474.79	3035.09
474.99	3336.14
475.19	3682.25
475.39	3225.55
475.60	3203.02
475.80	3196.88
476.00	3502.03
476.20	3430.35
476.41	3174.35
476.61	3321.81
476.81	3766.21
477.01	3237.84
477.21	3518.41
477.42	3229.65
477.62	3282.89
477.82	3674.06
478.02	3155.92
478.23	3194.83
478.43	3258.32
478.63	3383.24
478.83	3200.98
479.03	3139.54
479.24	3749.83
479.44	3878.85
479.64	3045.33
479.84	3008.47
480.04	3323.85
480.25	3590.09
480.45	3166.16
480.65	3151.82
480.85	3784.65
481.06	3377.10
481.26	3207.12
481.46	3174.35
481.66	3551.18
481.86	3289.04
482.06	3366.86
482.27	3184.59
482.47	3377.10
482.67	3485.64
482.87	3233.74
483.07	3219.41
483.28	3303.37
483.48	3147.73
483.68	3198.93
483.88	3098.58
484.08	2992.08
484.29	3166.16
484.49	3254.22
484.69	3006.42
484.89	3811.27
485.09	3639.24
485.29	3164.11
485.50	3315.66
485.70	3405.77
485.90	3700.68
486.10	3307.47
486.30	3110.86
486.50	3796.93
486.71	3608.52
486.91	3209.17
487.11	3250.13
487.31	3192.78
487.51	3565.51
487.71	3172.30
487.91	3164.11
488.12	3174.35
488.32	2963.41
488.52	3176.40
488.72	2779.09
488.92	3489.74
489.12	3696.58
489.32	3301.33
489.53	3160.02
489.73	3114.96
489.93	3860.42
490.13	3203.02
490.33	2987.99
490.53	3448.78
490.73	3678.15
490.94	2983.89
491.14	3321.81
491.34	3471.31
491.54	3448.78
491.74	4077.51
491.94	4442.04
492.14	5126.07
492.34	5142.45
492.54	4675.51
492.75	4132.80
492.95	4392.89
493.15	4153.28
493.35	3815.37
493.55	3790.79
493.75	3854.28
493.95	3997.64
494.15	3321.81
494.35	3200.98
494.56	3403.72
494.76	3360.72
494.96	3295.18
495.16	3037.14
495.36	3360.72
495.56	3493.83
495.76	3164.11
495.96	3121.10
496.16	3364.81
496.36	3792.84
496.56	3065.81
496.77	3299.28
496.97	3452.88
497.17	3745.73
497.37	2918.36
497.57	3270.61
497.77	3483.59
497.97	3207.12
498.17	3176.40
498.37	3235.79
498.57	3561.42
498.77	3373.00
498.97	3336.14
499.17	3534.79
499.38	3401.68
499.58	3624.90
499.78	3352.52
499.98	3340.24
500.18	3366.86
500.38	3280.85
500.58	3428.30
500.78	3762.12
500.98	6012.84
501.18	7757.71
501.38	8916.86
501.58	9838.44
501.78	9809.77
501.98	8327.04
502.18	6965.14
502.38	6209.44
502.58	6258.59
502.78	5459.88
502.98	5236.66
503.18	5033.91
503.38	4951.99
503.59	4247.49
503.79	3983.30
503.99	3616.71
504.19	3925.96
504.39	4014.02
504.59	3588.04
504.79	3594.19
504.99	3942.34
505.19	3594.19
505.39	3311.57
505.59	3563.47
505.79	3846.09
505.99	3768.26
506.19	3160.02
506.39	3348.43
506.59	3336.14
506.79	3348.43
506.99	3461.07
507.19	3114.96
507.39	3508.17
507.59	3149.78
507.79	3182.54
507.99	3139.54
508.19	3401.68
508.39	3342.28
508.59	3114.96
508.79	3239.89
508.99	3809.22
509.19	3170.26
509.39	3260.37
509.59	3094.48
509.79	3286.99
509.99	3518.41
510.19	3315.66
510.39	3305.42
510.59	3479.50
510.79	3354.57
510.99	3002.32
511.19	3104.72
511.39	3758.02
511.59	3712.97
511.79	3385.29
511.99	3155.92
512.19	3880.90
512.38	3491.79
512.58	3145.68
512.78	3086.29
512.98	3755.97
513.18	3758.02
513.38	3112.91
513.58	3209.17
513.78	3422.16
513.98	3461.07
514.18	3198.93
514.38	3174.35
514.58	3532.75
514.78	3315.66
514.98	3026.90
515.18	3217.36
515.38	3213.26
515.58	3860.42
515.78	3157.97
515.98	3180.50
516.18	3626.95
516.38	3370.96
516.57	3129.30
516.77	3137.49
516.97	3522.51
517.17	3332.05
517.37	2971.60
517.57	3258.32
517.77	3389.39
517.97	3295.18
518.17	3203.02
518.37	3033.04
518.57	3221.45
518.77	3317.71
518.97	3219.41
519.16	3149.78
519.36	3639.24
519.56	3278.80
519.76	3035.09
519.96	3157.97
520.16	3807.17
520.36	3229.65
520.56	3342.28
520.76	3041.23
520.96	3432.40
521.16	3631.05
521.35	3348.43
521.55	3295.18
521.75	3387.34
521.95	3370.96
522.15	3123.15
522.35	3039.19
522.55	3293.13
522.75	3624.90
522.95	3098.58
523.14	2965.46
523.34	3512.27
523.54	3272.65
523.74	3284.94
523.94	3215.31
524.14	3141.58
524.34	3450.83
524.54	3327.95
524.73	3215.31
524.93	3581.90
525.13	3401.68
525.33	2971.60
525.53	3385.29
525.73	3643.34
525.93	3393.48
526.13	3172.30
526.32	3067.86
526.52	3706.82
526.72	3651.53
526.92	3098.58
527.12	3065.81
527.32	3137.49
527.52	3600.33
527.71	3223.50
527.91	3192.78
528.11	3364.81
528.31	3309.52
528.51	3117.01
528.71	3336.14
528.90	3649.48
529.10	3688.39
529.30	3182.54
529.50	2981.84
529.70	3540.94
529.90	3379.15
530.09	3174.35
530.29	3035.09
530.49	3266.51
530.69	4030.40
530.89	3325.90
531.09	3248.08
531.28	3327.95
531.48	3749.83
531.68	3092.43
531.88	3117.01
532.08	3651.53
532.28	3340.24
532.47	3291.09
532.67	3264.46
532.87	3534.79
533.07	3145.68
533.27	3200.98
533.46	3194.83
533.66	3504.07
533.86	3436.49
534.06	3207.12
534.26	3094.48
534.45	3313.61
534.65	3633.10
534.85	3327.95
535.05	3157.97
535.25	3590.09
535.44	3078.10
535.64	3246.03
535.84	3194.83
536.04	3246.03
536.24	3338.19
536.43	3133.39
536.63	3133.39
536.83	3461.07
537.03	3432.40
537.22	2992.08
537.42	2959.31
537.62	3463.12
537.82	3272.65
538.02	3299.28
538.21	3270.61
538.41	4059.07
538.61	3594.19
538.81	3174.35
539.00	3233.74
539.20	3157.97
539.40	3252.17
539.60	3112.91
539.79	3373.00
539.99	3393.48
540.19	3272.65
540.39	3117.01
540.58	3198.93
540.78	3649.48
540.98	3403.72
541.18	3432.40
541.37	3239.89
541.57	3403.72
541.77	3444.68
541.97	3002.32
542.16	3069.91
542.36	3422.16
542.56	3289.04
542.76	3340.24
542.95	3235.79
543.15	3561.42
543.35	3536.84
543.54	3196.88
543.74	3123.15
543.94	3749.83
544.14	3280.85
544.33	3338.19
544.53	3172.30
544.73	3344.33
544.93	3243.98
545.12	3215.31
545.32	3114.96
545.52	3260.37
545.71	3117.01
545.91	3194.83
546.11	3084.24
546.30	3264.46
546.50	3461.07
546.70	3264.46
546.90	3186.64
547.09	3110.86
547.29	3377.10
547.49	3223.50
547.68	3196.88
547.88	3276.75
548.08	3555.27
548.27	3448.78
548.47	3127.25
548.67	3379.15
548.87	3532.75
549.06	3180.50
549.26	3067.86
549.46	3456.97
549.65	3280.85
549.85	3157.97
550.05	3221.45
550.24	3090.38
550.44	3370.96
550.64	3284.94
550.83	3297.23
551.03	3659.72
551.23	3672.01
551.42	3217.36
551.62	3225.55
551.82	3356.62
552.01	3428.30
552.21	3499.98
552.41	3192.78
552.60	3782.60
552.80	3518.41
553.00	3160.02
553.19	3131.34
553.39	3803.08
553.59	3209.17
553.78	3332.05
553.98	3069.91
554.17	3076.05
554.37	3614.66
554.57	3311.57
554.76	3039.19
554.96	3338.19
555.16	3491.79
555.35	3338.19
555.55	3377.10
555.75	3401.68
555.94	3692.49
556.14	3041.23
556.33	3172.30
556.53	3428.30
556.73	3370.96
556.92	3147.73
557.12	3131.34
557.32	3889.09
557.51	3788.74
557.71	3215.31
557.90	3379.15
558.10	3665.86
558.30	3393.48
558.49	3229.65
558.69	3180.50
558.88	3610.57
559.08	3434.44
559.28	3237.84
559.47	3280.85
559.67	3559.37
559.86	3897.28
560.06	3096.53
560.26	3160.02
560.45	3545.03
560.65	3413.96
560.84	3434.44
561.04	3035.09
561.24	3608.52
561.43	3184.59
561.63	3471.31
561.82	3278.80
562.02	3557.32
562.22	3276.75
562.41	3090.38
562.61	3155.92
562.80	3264.46
563.00	3950.53
563.19	3172.30
563.39	3252.17
563.59	3633.10
563.78	3147.73
563.98	2850.77
564.17	3170.26
564.37	3082.19
564.56	3438.54
564.76	3063.76
564.96	3198.93
565.15	3471.31
565.35	3925.96
565.54	3133.39
565.74	3125.20
565.93	3530.70
566.13	3426.25
566.32	3254.22
566.52	3340.24
566.71	3413.96
566.91	3635.14
567.11	3274.70
567.30	3074.00
567.50	3594.19
567.69	3540.94
567.89	3135.44
568.08	3014.61
568.28	3502.03
568.47	3176.40
568.67	3172.30
568.86	3176.40
569.06	3612.62
569.25	3303.37
569.45	3047.38
569.64	3319.76
569.84	3368.91
570.04	3487.69
570.23	3074.00
570.43	3219.41
570.62	3454.92
570.82	3811.27
571.01	3086.29
571.21	3135.44
571.40	3227.60
571.60	3569.61
571.79	3270.61
571.99	3172.30
572.18	3215.31
572.38	3549.13
572.57	3264.46
572.77	3250.13
572.96	4052.93
573.16	3522.51
573.35	3200.98
573.55	3291.09
573.74	3454.92
573.94	3366.86
574.13	3162.06
574.33	3368.91
574.52	3745.73
574.71	3452.88
574.91	3229.65
575.10	2994.13
575.30	3286.99
575.49	3246.03
575.69	3117.01
575.88	3096.53
576.08	3381.20
576.27	3577.80
576.47	3143.63
576.66	3325.90
576.86	3739.59
577.05	3567.56
577.25	3246.03
577.44	3348.43
577.64	3266.51
577.83	3569.61
578.02	3078.10
578.22	3381.20
578.41	3930.05
578.61	3368.91
578.80	3069.91
579.00	3270.61
579.19	3428.30
579.39	3536.84
579.58	3262.41
579.77	3182.54
579.97	3723.21
580.16	3643.34
580.36	3395.53
580.55	3198.93
580.75	3561.42
580.94	3434.44
581.13	3348.43
581.33	3377.10
581.52	3397.58
581.72	3917.76
581.91	3268.56
582.11	3184.59
582.30	3643.34
582.49	3473.36
582.69	3522.51
582.88	3282.89
583.08	3483.59
583.27	3600.33
583.47	3387.34
583.66	3145.68
583.85	3205.07
584.05	3436.49
584.24	3348.43
584.44	3164.11
584.63	3678.15
584.82	3622.86
585.02	3405.77
585.21	3330.00
585.41	3643.34
585.60	3444.68
585.79	3381.20
585.99	3436.49
586.18	3510.22
586.37	4460.48
586.57	6670.23
586.76	18271.98
586.96	36318.68
587.15	49038.61
587.34	56751.26
587.54	60296.30
587.73	53105.88
587.93	38276.54
588.12	29761.08
588.31	24106.64
588.51	21685.94
588.70	20244.17
588.89	17387.25
589.09	14995.23
589.28	13070.14
589.47	10327.91
589.67	7653.26
589.86	6162.34
590.06	5001.14
590.25	4442.04
590.44	3885.00
590.64	3538.89
590.83	3676.10
591.02	3770.31
591.22	3246.03
591.41	3266.51
591.60	3411.92
591.80	4009.92
591.99	3004.37
592.18	3192.78
592.38	3635.14
592.57	3338.19
592.76	3182.54
592.96	3246.03
593.15	3321.81
593.34	3733.45
593.54	3145.68
593.73	3311.57
593.92	3579.85
594.12	3516.36
594.31	3205.07
594.50	3368.91
594.70	3555.27
594.89	4026.31
595.08	3086.29
595.28	3362.76
595.47	4063.17
595.66	3637.19
595.86	3082.19
596.05	3051.47
596.24	3327.95
596.43	3803.08
596.63	3307.47
596.82	3342.28
597.01	3514.31
597.21	3807.17
597.40	3139.54
597.59	3241.93
597.79	3426.25
597.98	3565.51
598.17	3258.32
598.36	3192.78
598.56	3577.80
598.75	3356.62
598.94	3256.27
599.14	3235.79
599.33	3297.23
599.52	3590.09
599.71	3321.81
599.91	3149.78
600.10	3571.66
600.29	3405.77
600.48	3272.65
600.68	3332.05
600.87	3504.07
601.06	3346.38
601.26	3338.19
601.45	3278.80
601.64	3344.33
601.83	3747.78
602.03	3033.04
602.22	3090.38
602.41	3682.25
602.60	3956.68
602.80	3330.00
602.99	3485.64
603.18	3336.14
603.37	3487.69
603.57	3071.95
603.76	3147.73
603.95	3755.97
604.14	3336.14
604.34	3094.48
604.53	3157.97
604.72	3602.38
604.91	3520.46
605.10	3174.35
605.30	3061.71
605.49	3960.77
605.68	3608.52
605.87	3221.45
606.07	3211.22
606.26	3471.31
606.45	3639.24
606.64	3153.87
606.84	3059.67
607.03	3399.63
607.22	3788.74
607.41	3227.60
607.60	3176.40
607.80	3704.78
607.99	3391.44
608.18	3225.55
608.37	3248.08
608.56	3248.08
608.76	3641.29
608.95	3344.33
609.14	3196.88
609.33	3639.24
609.52	3758.02
609.72	3309.52
609.91	3293.13
610.10	3467.21
610.29	3727.30
610.48	3293.13
610.68	3303.37
610.87	3381.20
611.06	3569.61
611.25	3227.60
611.44	3336.14
611.63	3338.19
611.83	3616.71
612.02	3131.34
612.21	3319.76
612.40	3014.61
612.59	3203.02
612.79	3096.53
612.98	3248.08
613.17	3723.21
613.36	3469.26
613.55	3342.28
613.74	3174.35
613.93	3340.24
614.13	3489.74
614.32	3323.85
614.51	3254.22
614.70	3336.14
614.89	3323.85
615.08	3319.76
615.28	3463.12
615.47	3205.07
615.66	3549.13
615.85	3237.84
616.04	3213.26
616.23	3409.87
616.42	3385.29
616.62	3106.77
616.81	3149.78
617.00	3524.55
617.19	3524.55
617.38	3205.07
617.57	3250.13
617.76	3567.56
617.95	3547.08
618.15	3291.09
618.34	3475.40
618.53	3268.56
618.72	3704.78
618.91	3213.26
619.10	3231.69
619.29	3389.39
619.48	3418.06
619.68	3045.33
619.87	3141.58
620.06	3139.54
620.25	3526.60
620.44	3209.17
620.63	3123.15
620.82	3518.41
621.01	3448.78
621.20	3231.69
621.39	3309.52
621.59	3479.50
621.78	3401.68
621.97	3280.85
622.16	3297.23
622.35	3561.42
622.54	3581.90
622.73	3237.84
622.92	2969.55
623.11	3616.71
623.30	3352.52
623.49	3297.23
623.68	3102.67
623.88	3829.70
624.07	3262.41
624.26	3061.71
624.45	3252.17
624.64	3395.53
624.83	3536.84
625.02	3213.26
625.21	3155.92
625.40	3504.07
625.59	3665.86
625.78	3270.61
625.97	3278.80
626.16	3776.45
626.35	3631.05
626.54	3211.22
626.74	3418.06
626.93	3307.47
627.12	3352.52
627.31	3250.13
627.50	3192.78
627.69	3633.10
627.88	3233.74
628.07	3119.06
628.26	3014.61
628.45	3196.88
628.64	3268.56
628.83	3172.30
629.02	3024.85
629.21	3596.23
629.40	3502.03
629.59	3090.38
629.78	3166.16
629.97	3538.89
630.16	3528.65
630.35	3149.78
630.54	3266.51
630.73	3303.37
630.92	3428.30
631.11	3114.96
631.30	3241.93
631.49	3635.14
631.68	3418.06
631.87	3225.55
632.06	3067.86
632.25	4011.97
632.44	3418.06
632.63	3223.50
632.82	3223.50
633.01	3274.70
633.20	3440.59
633.39	3104.72
633.58	3000.27
633.77	3526.60
633.96	3528.65
634.15	3321.81
634.34	3284.94
634.53	3499.98
634.72	3321.81
634.91	3053.52
635.10	3135.44
635.29	3600.33
635.48	3590.09
635.67	3035.09
635.86	3074.00
636.05	3813.32
636.24	3387.34
636.43	3125.20
636.62	3221.45
636.81	2926.55
637.00	3473.36
637.19	3155.92
637.38	3147.73
637.57	3325.90
637.76	3393.48
637.95	3418.06
638.14	3264.46
638.33	3463.12
638.52	3424.20
638.71	3053.52
638.89	2998.23
639.08	4044.74
639.27	3579.85
639.46	3477.45
639.65	3592.14
639.84	3893.19
640.03	3936.20
640.22	3540.94
640.41	3545.03
640.60	3461.07
640.79	3637.19
640.98	3454.92
641.17	3352.52
641.36	3657.67
641.55	3712.97
641.74	3055.57
641.92	3096.53
642.11	3295.18
642.30	3373.00
642.49	3151.82
642.68	3106.77
642.87	3475.40
643.06	3565.51
643.25	2971.60
643.44	3078.10
643.63	3323.85
643.82	3565.51
644.00	3211.22
644.19	3198.93
644.38	3225.55
644.57	3596.23
644.76	3151.82
644.95	3239.89
645.14	3575.75
645.33	3352.52
645.52	3352.52
645.71	3004.37
645.89	3131.34
646.08	3430.35
646.27	3188.69
646.46	3336.14
646.65	3106.77
646.84	3471.31
647.03	3170.26
647.22	3354.57
647.40	3426.25
647.59	3397.58
647.78	2985.94
647.97	3117.01
648.16	3166.16
648.35	3661.77
648.54	3522.51
648.73	3164.11
648.91	3600.33
649.10	3467.21
649.29	3090.38
649.48	3133.39
649.67	3588.04
649.86	3465.16
650.05	3272.65
650.23	3237.84
650.42	3352.52
650.61	3772.36
650.80	3432.40
650.99	3381.20
651.18	3672.01
651.36	3819.46
651.55	3086.29
651.74	3315.66
651.93	3237.84
652.12	3403.72
652.31	3209.17
652.49	3194.83
652.68	3393.48
652.87	3825.61
653.06	3307.47
653.25	3465.16
653.44	3354.57
653.62	3729.35
653.81	3225.55
654.00	3196.88
654.19	3614.66
654.38	3968.96
654.56	3307.47
654.75	3076.05
654.94	3680.20
655.13	3461.07
655.32	3037.14
655.51	3157.97
655.69	3317.71
655.88	3698.63
656.07	3041.23
656.26	3237.84
656.45	3160.02
656.63	3432.40
656.82	3196.88
657.01	3508.17
657.20	3336.14
657.38	3733.45
657.57	3137.49
657.76	2953.17
657.95	3592.14
658.14	3368.91
658.32	3389.39
658.51	3074.00
658.70	3461.07
658.89	3459.02
659.08	3221.45
659.26	3399.63
659.45	3170.26
659.64	3616.71
659.83	3180.50
660.01	3549.13
660.20	3479.50
660.39	3852.23
660.58	2916.31
660.76	3223.50
660.95	3137.49
661.14	3368.91
661.33	3026.90
661.51	3278.80
661.70	3278.80
661.89	3604.42
662.08	3237.84
662.26	3035.09
662.45	3170.26
662.64	3874.76
662.83	3274.70
663.01	3069.91
663.20	3274.70
663.39	3792.84
663.58	3143.63
663.76	3139.54
663.95	3581.90
664.14	3182.54
664.32	3315.66
664.51	3123.15
664.70	3131.34
664.89	3483.59
665.07	3016.66
665.26	3401.68
665.45	3133.39
665.64	3606.47
665.82	3190.74
666.01	3260.37
666.20	3182.54
666.38	3598.28
666.57	3596.23
666.76	5648.30
666.95	12582.72
667.13	18534.12
667.32	21937.84
667.51	24635.02
667.69	25319.04
667.88	20682.44
668.07	15261.46
668.25	13027.13
668.44	11382.61
668.63	10241.89
668.81	8816.51
669.00	7759.75
669.19	7112.60
669.38	6293.41
669.56	5343.15
669.75	4771.77
669.94	4325.31
670.12	3919.81
670.31	3459.02
670.50	3481.55
670.68	3674.06
670.87	3588.04
671.06	3155.92
671.24	3233.74
671.43	3747.78
671.62	3461.07
671.80	3200.98
671.99	3352.52
672.18	3534.79
672.36	3672.01
672.55	3327.95
672.74	3276.75
672.92	3368.91
673.11	3624.90
673.29	3045.33
673.48	3456.97
673.67	3338.19
673.85	3575.75
674.04	3141.58
674.23	3330.00
674.41	3882.95
674.60	3235.79
674.79	3047.38
674.97	2975.70
675.16	3526.60
675.34	3614.66
675.53	3168.21
675.72	3270.61
675.90	3854.28
676.09	3364.81
676.28	3217.36
676.46	3067.86
676.65	3661.77
676.83	3303.37
677.02	3215.31
677.21	3336.14
677.39	3456.97
677.58	3262.41
677.77	3215.31
677.95	3084.24
678.14	3373.00
678.32	3270.61
678.51	3176.40
678.70	3549.13
678.88	3356.62
679.07	3495.88
679.25	3223.50
679.44	3280.85
679.63	3172.30
679.81	3516.36
680.00	3506.12
680.18	3274.70
680.37	3825.61
680.55	3508.17
680.74	3041.23
680.93	2983.89
681.11	3542.99
681.30	3344.33
681.48	3153.87
681.67	3235.79
681.85	3483.59
682.04	3291.09
682.23	3342.28
682.41	3291.09
682.60	3319.76
682.78	3403.72
682.97	3129.30
683.15	3219.41
683.34	3549.13
683.53	3778.50
683.71	3033.04
683.90	3250.13
684.08	3897.28
684.27	3315.66
684.45	3217.36
684.64	3246.03
684.82	3487.69
685.01	3532.75
685.19	3157.97
685.38	3557.32
685.57	3448.78
685.75	3276.75
685.94	3106.77
686.12	3182.54
686.31	3344.33
686.49	3755.97
686.68	3004.37
686.86	3229.65
687.05	3368.91
687.23	3739.59
687.42	3192.78
687.60	3020.75
687.79	3704.78
687.97	3788.74
688.16	3311.57
688.34	3389.39
688.53	3071.95
688.71	3499.98
688.90	3506.12
689.08	3231.69
689.27	3076.05
689.45	3608.52
689.64	3459.02
689.82	3248.08
690.01	3534.79
690.19	3428.30
690.38	3278.80
690.56	3280.85
690.75	3217.36
690.93	3319.76
691.12	3123.15
691.30	3293.13
691.49	3286.99
691.67	3370.96
691.86	3596.23
692.04	3221.45
692.23	3336.14
692.41	3387.34
692.60	3606.47
692.78	3381.20
692.97	3471.31
693.15	3536.84
693.34	3459.02
693.52	3428.30
693.71	3373.00
693.89	3323.85
694.08	2998.23
694.26	3223.50
694.44	3659.72
694.63	3510.22
694.81	3082.19
695.00	3188.69
695.18	3690.44
695.37	3944.39
695.55	3305.42
695.74	3315.66
695.92	3239.89
696.10	3778.50
696.29	3131.34
696.47	3190.74
696.66	3248.08
696.84	3213.26
697.03	3250.13
697.21	3434.44
697.40	4806.58
697.58	3741.64
697.76	3209.17
697.95	3248.08
698.13	3295.18
698.32	3393.48
698.50	3145.68
698.68	3180.50
698.87	3590.09
699.05	3839.94
699.24	3104.72
699.42	3213.26
699.61	3549.13
699.79	3434.44
699.97	3207.12
700.16	3076.05
700.34	3254.22
700.53	3571.66
700.71	3434.44
700.89	3340.24
701.08	3295.18
701.26	3436.49
701.45	3463.12
701.63	3067.86
701.81	3219.41
702.00	3262.41
702.18	3297.23
702.37	3180.50
702.55	3606.47
702.73	3426.25
702.92	3153.87
703.10	3508.17
703.28	3631.05
703.47	3227.60
703.65	3409.87
703.84	3315.66
704.02	3317.71
704.20	3780.55
704.39	3198.93
704.57	3190.74
704.75	3532.75
704.94	3567.56
705.12	3352.52
705.30	4075.46
705.49	8198.02
705.67	14337.83
705.86	18671.33
706.04	21382.84
706.22	23563.93
706.41	21931.70
706.59	16543.49
706.77	13305.65
706.96	11591.50
707.14	10811.23
707.32	9238.39
707.51	7974.79
707.69	6786.97
707.87	5803.94
708.06	4757.43
708.24	4308.93
708.42	4044.74
708.61	4302.78
708.79	3260.37
708.97	3344.33
709.16	3577.80
709.34	3459.02
709.52	3268.56
709.71	3315.66
709.89	3622.86
710.07	3293.13
710.26	3184.59
710.44	3286.99
710.62	3563.47
710.80	3547.08
710.99	3293.13
711.17	3336.14
711.35	3293.13
711.54	3370.96
711.72	3399.63
711.90	3330.00
712.09	3571.66
712.27	3254.22
712.45	3393.48
712.63	3182.54
712.82	3491.79
713.00	3424.20
713.18	3375.05
713.37	3420.11
713.55	3633.10
713.73	3575.75
713.91	3313.61
714.10	3205.07
714.28	3504.07
714.46	3569.61
714.65	3336.14
714.83	3237.84
715.01	3450.83
715.19	3454.92
715.38	3074.00
715.56	3397.58
715.74	3395.53
715.92	3221.45
716.11	3561.42
716.29	2959.31
716.47	3424.20
716.65	3303.37
716.84	3098.58
717.02	3237.84
717.20	3096.53
717.38	3205.07
717.57	3340.24
717.75	3270.61
717.93	3303.37
718.11	3506.12
718.30	3131.34
718.48	3289.04
718.66	3680.20
718.84	3647.43
719.03	3184.59
719.21	3078.10
719.39	3778.50
719.57	3608.52
719.75	3278.80
719.94	3178.45
720.12	3340.24
720.30	3434.44
720.48	3291.09
720.67	3125.20
720.85	3246.03
721.03	3262.41
721.21	3200.98
721.39	3356.62
721.58	3581.90
721.76	3463.12
721.94	3217.36
722.12	3286.99
722.30	3790.79
722.49	3352.52
722.67	3270.61
722.85	3217.36
723.03	3209.17
723.21	3350.48
723.40	3164.11
723.58	3319.76
723.76	3626.95
723.94	3686.34
724.12	3188.69
724.30	3459.02
724.49	3657.67
724.67	3108.82
724.85	3297.23
725.03	3121.10
725.21	3553.23
725.40	3692.49
725.58	3182.54
725.76	3356.62
725.94	3528.65
726.12	3219.41
726.30	3237.84
726.49	3157.97
726.67	3317.71
726.85	3502.03
727.03	3973.06
727.21	4925.36
727.39	6047.65
727.57	6629.27
727.76	6803.35
727.94	6629.27
728.12	5906.34
728.30	4970.42
728.48	4761.53
728.66	4423.61
728.84	4313.02
729.03	3909.57
729.21	3669.96
729.39	3532.75
729.57	3606.47
729.75	3512.27
729.93	3497.93
730.11	3141.58
730.30	3385.29
730.48	3299.28
730.66	3233.74
730.84	3360.72
731.02	3432.40
731.20	3286.99
731.38	3258.32
731.56	3006.42
731.74	3082.19
731.93	3485.64
732.11	3409.87
732.29	3172.30
732.47	3604.42
732.65	3481.55
732.83	3430.35
733.01	3311.57
733.19	3303.37
733.37	3508.17
733.56	3254.22
733.74	3084.24
733.92	3710.92
734.10	3303.37
734.28	3454.92
734.46	3045.33
734.64	3454.92
734.82	3315.66
735.00	3278.80
735.18	3190.74
735.36	3434.44
735.54	3366.86
735.73	3219.41
735.91	3358.67
736.09	3749.83
736.27	3399.63
736.45	3297.23
736.63	2951.12
736.81	3377.10
736.99	3665.86
737.17	3377.10
737.35	3182.54
737.53	3518.41
737.71	3387.34
737.89	3444.68
738.07	3147.73
738.25	3268.56
738.43	3131.34
738.61	3223.50
738.80	3086.29
738.98	3246.03
739.16	3301.33
739.34	3168.21
739.52	3616.71
739.70	3336.14
739.88	3575.75
740.06	3315.66
740.24	2969.55
740.42	3696.58
740.60	3151.82
740.78	3190.74
740.96	3030.99
741.14	3270.61
741.32	3469.26
741.50	2994.13
741.68	3499.98
741.86	3694.54
742.04	3295.18
742.22	3080.14
742.40	3125.20
742.58	3520.46
742.76	3250.13
742.94	3418.06
743.12	3086.29
743.30	3485.64
743.48	3545.03
743.66	3145.68
743.84	3223.50
744.02	3393.48
744.20	3416.01
744.38	3076.05
744.56	3176.40
744.74	3860.42
744.92	3680.20
745.10	3434.44
745.28	3182.54
745.46	3770.31
745.64	3389.39
745.82	3276.75
746.00	3090.38
746.18	3499.98
746.36	3219.41
746.54	3219.41
746.72	3262.41
746.90	3239.89
747.08	3696.58
747.26	3153.87
747.44	3211.22
747.62	3659.72
747.80	3487.69
747.98	3264.46
748.15	3196.88
748.33	3852.23
748.51	3463.12
748.69	3286.99
748.87	3086.29
749.05	3366.86
749.23	3387.34
749.41	3133.39
749.59	3157.97
749.77	3637.19
749.95	3284.94
750.13	3155.92
750.31	3377.10
750.49	3358.67
750.67	3639.24
750.85	3403.72
751.03	3114.96
751.20	3901.38
751.38	3434.44
751.56	3309.52
751.74	3174.35
751.92	3436.49
752.10	3135.44
752.28	3362.76
752.46	3112.91
752.64	3499.98
752.82	3471.31
753.00	3362.76
753.18	3160.02
753.35	3395.53
753.53	3327.95
753.71	3104.72
753.89	3225.55
754.07	3477.45
754.25	3657.67
754.43	3297.23
754.61	3192.78
754.79	3620.81
754.97	3358.67
755.14	3418.06
755.32	3074.00
755.50	3383.24
755.68	3418.06
755.86	3147.73
756.04	3149.78
756.22	3053.52
756.40	3594.19
756.57	3446.73
756.75	3147.73
756.93	3674.06
757.11	3631.05
757.29	3090.38
757.47	3045.33
757.65	3084.24
757.82	2983.89
758.00	3096.53
758.18	3145.68
758.36	3313.61
758.54	3794.89
758.72	3022.80
758.90	3325.90
759.07	3551.18
759.25	3262.41
759.43	3227.60
759.61	3037.14
759.79	4540.35
759.97	3588.04
760.15	3186.64
760.32	3231.69
760.50	3497.93
760.68	3733.45
760.86	3053.52
761.04	3407.82
761.22	3561.42
761.39	3473.36
761.57	3342.28
761.75	3157.97
761.93	3616.71
762.11	3364.81
762.28	3252.17
762.46	3082.19
762.64	3651.53
762.82	3090.38
763.00	3133.39
763.18	3346.38
763.35	3145.68
763.53	3594.19
763.71	3327.95
763.89	3184.59
764.07	3448.78
764.24	3522.51
764.42	3338.19
764.60	3213.26
764.78	3438.54
764.96	3645.38
765.13	3362.76
765.31	3151.82
765.49	3631.05
765.67	3237.84
765.84	3125.20
766.02	3082.19
766.20	3164.11
766.38	3559.37
766.56	3293.13
766.73	3368.91
766.91	3573.71
767.09	3450.83
767.27	3254.22
767.44	3182.54
767.62	3633.10
767.80	3471.31
767.98	3182.54
768.15	3209.17
768.33	3594.19
768.51	3626.95
768.69	3387.34
768.87	3219.41
769.04	3483.59
769.22	4018.11
769.40	3354.57
769.58	3225.55
769.75	3518.41
769.93	3684.30
770.11	3284.94
770.28	3100.62
770.46	3590.09
770.64	3493.83
770.82	3203.02
770.99	3143.63
771.17	3536.84
771.35	3307.47
771.53	3297.23
771.70	3151.82
771.88	3581.90
772.06	3385.29
772.23	3121.10
772.41	3272.65
772.59	3411.92
772.77	3229.65
772.94	3280.85
773.12	3293.13
773.30	3405.77
773.47	3565.51
773.65	3133.39
773.83	3352.52
774.01	3391.44
774.18	3074.00
774.36	3237.84
774.54	3082.19
774.71	3479.50
774.89	3129.30
775.07	3147.73
775.24	3141.58
775.42	3272.65
775.60	3911.62
775.78	3067.86
775.95	3012.56
776.13	3151.82
776.31	3100.62
776.48	3454.92
776.66	3407.82
776.84	3340.24
777.01	3246.03
777.19	3151.82
777.37	3127.25
777.54	3506.12
777.72	3764.17
777.90	3299.28
778.07	3139.54
778.25	4089.79
778.43	3688.39
778.60	3137.49
778.78	3235.79
778.96	3729.35
779.13	3215.31
779.31	3239.89
779.49	3303.37
779.66	3465.16
779.84	3393.48
780.01	3166.16
780.19	3114.96
780.37	3680.20
780.54	3538.89
780.72	3018.71
780.90	3168.21
781.07	3413.96
781.25	3381.20
781.43	3418.06
781.60	3198.93
781.78	3676.10
781.95	3479.50
782.13	3213.26
782.31	3219.41
782.48	3028.95
782.66	3442.64
782.83	3416.01
783.01	3434.44
783.19	3616.71
783.36	3456.97
783.54	3200.98
783.72	3270.61
783.89	3284.94
784.07	3520.46
784.24	3342.28
784.42	3286.99
784.60	3418.06
784.77	3450.83
784.95	2885.59
785.12	3180.50
785.30	3479.50
785.47	3278.80
785.65	3155.92
785.83	3330.00
786.00	3278.80
786.18	3375.05
786.35	3147.73
786.53	3106.77
786.71	3602.38
786.88	3581.90
787.06	3196.88
787.23	3205.07
787.41	3235.79
787.58	3413.96
787.76	3098.58
787.94	3231.69
788.11	3573.71
788.29	3166.16
788.46	3221.45
788.64	3030.99
788.81	3397.58
788.99	3168.21
789.16	3198.93
789.34	3246.03
789.52	3315.66
789.69	3297.23
789.87	2940.88
790.04	3172.30
790.22	3420.11
790.39	3944.39
790.57	3209.17
790.74	3069.91
790.92	3641.29
791.09	3074.00
791.27	3254.22
791.44	3311.57
791.62	3383.24
791.79	3620.81
791.97	3280.85
792.15	3483.59
792.32	3563.47
792.50	3532.75
792.67	3368.91
792.85	3551.18
793.02	3446.73
793.20	3289.04
793.37	3100.62
793.55	3069.91
793.72	3164.11
793.90	3526.60
794.07	3248.08
794.25	3090.38
794.42	3567.56
794.60	3411.92
794.77	3317.71
794.95	3411.92
795.12	3616.71
795.30	3450.83
795.47	2914.26
795.65	3477.45
795.82	3620.81
796.00	3229.65
796.17	3225.55
796.34	3157.97
796.52	3481.55
796.69	3672.01
796.87	3330.00
797.04	3370.96
797.22	3567.56
797.39	3506.12
797.57	3383.24
797.74	3260.37
797.92	3569.61
798.09	3295.18
798.27	3487.69
798.44	3164.11
798.62	3227.60
798.79	3420.11
798.96	3483.59
799.14	3217.36
799.31	4016.07
799.49	3307.47
799.66	3110.86
799.84	3262.41
800.01	3155.92
800.19	3475.40
800.36	2985.94
800.53	3280.85
800.71	3553.23
800.88	3694.54
801.06	3151.82
801.23	3190.74
801.41	3381.20
801.58	3348.43
801.75	3147.73
801.93	3246.03
802.10	3581.90
802.28	3344.33
802.45	3219.41
802.63	3231.69
802.80	3766.21
802.97	3295.18
803.15	3274.70
803.32	3170.26
803.50	3188.69
803.67	3299.28
803.84	3184.59
804.02	3319.76
804.19	3370.96
804.37	2912.21
804.54	3000.27
804.71	3186.64
804.89	3516.36
805.06	3266.51
805.24	3151.82
805.41	3065.81
805.58	3262.41
805.76	3895.24
805.93	3164.11
806.10	3327.95
806.28	3536.84
806.45	3452.88
806.63	3346.38
806.80	3207.12
806.97	3469.26
807.15	3467.21
807.32	3338.19
807.49	3239.89
807.67	3176.40
807.84	3518.41
808.01	2920.40
808.19	3389.39
808.36	3866.56
808.54	3262.41
808.71	3141.58
808.88	3129.30
809.06	3700.68
809.23	3770.31
809.40	3268.56
809.58	3086.29
809.75	3432.40
809.92	3176.40
810.10	3405.77
810.27	3125.20
810.44	3549.13
810.62	3540.94
810.79	3200.98
810.96	3182.54
811.14	3360.72
811.31	3592.14
811.48	3401.68
811.66	3237.84
811.83	3618.76
812.00	3553.23
812.18	3254.22
812.35	3532.75
812.52	3348.43
812.69	3405.77
812.87	3225.55
813.04	3200.98
813.21	3354.57
813.39	3278.80
813.56	3112.91
813.73	3522.51
813.91	3137.49
814.08	3581.90
814.25	3125.20
814.42	3028.95
814.60	3377.10
814.77	3397.58
814.94	3155.92
815.12	3227.60
815.29	3784.65
815.46	3284.94
815.63	3203.02
815.81	3194.83
815.98	3426.25
816.15	3454.92
816.33	3307.47
816.50	3196.88
816.67	3373.00
816.84	3381.20
817.02	3131.34
817.19	3172.30
817.36	3502.03
817.53	3491.79
817.71	3041.23
817.88	3223.50
818.05	3344.33
818.22	3291.09
818.40	3315.66
818.57	3149.78
818.74	3545.03
818.91	3407.82
819.09	3418.06
819.26	3297.23
819.43	3286.99
819.60	3286.99
819.78	3397.58
819.95	3276.75
820.12	3260.37
820.29	3696.58
820.47	3467.21
820.64	3104.72
820.81	3071.95
820.98	3200.98
821.15	3254.22
821.33	3286.99
821.50	3184.59
821.67	3524.55
821.84	3164.11
822.02	3237.84
822.19	3559.37
822.36	3303.37
822.53	3188.69
822.70	3090.38
822.88	3299.28
823.05	3790.79
823.22	3309.52
823.39	3139.54
823.56	3377.10
823.74	3868.61
823.91	3033.04
824.08	3139.54
824.25	3233.74
824.42	3778.50
824.60	3088.34
824.77	3303.37
824.94	3360.72
825.11	3610.57
825.28	3059.67
825.45	3340.24
825.63	3512.27
825.80	3117.01
825.97	3305.42
826.14	3321.81
826.31	3035.09
826.48	3524.55
826.66	3205.07
826.83	3110.86
827.00	3393.48
827.17	3254.22
827.34	3192.78
827.51	3172.30
827.69	3366.86
827.86	3125.20
828.03	3307.47
828.20	3239.89
828.37	3274.70
828.54	3600.33
828.71	3117.01
828.89	3270.61
829.06	3561.42
829.23	3676.10
829.40	3198.93
829.57	3043.28
829.74	3493.83
829.91	3237.84
830.09	3168.21
830.26	3344.33
830.43	3844.04
830.60	3291.09
830.77	3270.61
830.94	3405.77
831.11	3667.91
831.28	3319.76
831.46	3393.48
831.63	3205.07
831.80	3645.38
831.97	3299.28
832.14	3221.45
832.31	3182.54
832.48	3512.27
832.65	3694.54
832.82	3360.72
832.99	3254.22
833.17	3106.77
833.34	3747.78
833.51	3104.72
833.68	2942.93
833.85	3639.24
834.02	3258.32
834.19	3137.49
834.36	3207.12
834.53	3483.59
834.70	3577.80
834.87	3174.35
835.04	2922.45
835.22	3237.84
835.39	3360.72
835.56	3026.90
835.73	3018.71
835.90	3721.16
836.07	3196.88
836.24	3147.73
836.41	2983.89
836.58	3299.28
836.75	3624.90
836.92	3030.99
837.09	2926.55
837.26	3598.28
837.43	3598.28
837.60	3074.00
837.77	3135.44
837.94	3602.38
838.12	3731.40
838.29	3006.42
838.46	2885.59
838.63	3192.78
838.80	3831.75
838.97	3092.43
839.14	3033.04
839.31	3442.64
839.48	3504.07
839.65	3022.80
839.82	3028.95
839.99	3459.02
840.16	3366.86
840.33	3002.32
840.50	3069.91
840.67	3266.51
840.84	2877.40
841.01	2889.68
841.18	3018.71
841.35	3334.09
841.52	3571.66
841.69	3319.76
841.86	3123.15
842.03	3454.92
842.20	3600.33
842.37	2975.70
842.54	3045.33
842.71	3405.77
842.88	3157.97
843.05	3020.75
843.22	3006.42
843.39	3635.14
843.56	3313.61
843.73	3033.04
843.90	3084.24
844.07	3436.49
844.24	3563.47
844.41	3069.91
844.58	3012.56
844.75	3395.53
844.92	3540.94
845.09	3100.62
845.26	3100.62
845.43	3567.56
845.60	3321.81
845.77	3149.78
845.94	3217.36
846.10	3626.95
846.27	3160.02
846.44	2809.81
846.61	2830.29
846.78	3573.71
846.95	3559.37
847.12	2932.69
847.29	3069.91
847.46	3149.78
847.63	3598.28
847.80	2838.48
847.97	3020.75
848.14	3909.57
848.31	3456.97
848.48	2918.36
848.65	3016.66
848.82	3352.52
848.98	4007.87
849.15	3139.54
849.32	3192.78
849.49	3729.35
849.66	3385.29
849.83	3039.19
850.00	2965.46
850.17	3583.95
850.34	3291.09
850.51	2953.17
850.68	3055.57
850.85	3860.42
851.01	3499.98
851.18	3012.56
851.35	3129.30
851.52	3502.03
851.69	3780.55
851.86	2957.27
852.03	2942.93
852.20	3583.95
852.37	3569.61
852.53	2856.92
852.70	2928.60
852.87	3545.03
853.04	3547.08
853.21	3008.47
853.38	3248.08
853.55	3733.45
853.72	3639.24
853.89	2830.29
854.05	2967.51
854.22	3416.01
854.39	3319.76
854.56	2955.22
854.73	3182.54
854.90	3274.70
855.07	3487.69
855.23	2967.51
855.40	2891.73
855.57	3344.33
855.74	2951.12
855.91	3221.45
856.08	2877.40
856.25	3090.38
856.41	3375.05
856.58	3057.62
856.75	3016.66
856.92	3229.65
857.09	3717.06
857.26	2815.96
857.42	3074.00
857.59	3545.03
857.76	3319.76
857.93	3026.90
858.10	3049.43
858.27	3147.73
858.43	3465.16
858.60	3028.95
858.77	2867.16
858.94	3315.66
859.11	3672.01
859.27	3213.26
859.44	2918.36
859.61	3846.09
859.78	3604.42
859.95	2998.23
860.12	2992.08
860.28	3993.54
860.45	3870.66
860.62	2914.26
860.79	3157.97
860.95	3336.14
861.12	3307.47
861.29	2947.03
861.46	3049.43
861.63	3450.83
861.79	3377.10
861.96	2932.69
862.13	2973.65
862.30	3794.89
862.47	3264.46
862.63	2871.25
862.80	3084.24
862.97	3665.86
863.14	3418.06
863.30	3061.71
863.47	3014.61
863.64	3803.08
863.81	3516.36
863.97	2912.21
864.14	2994.13
864.31	3377.10
864.48	3479.50
864.65	3043.28
864.81	3006.42
864.98	3516.36
865.15	3624.90
865.32	3108.82
865.48	3166.16
865.65	3784.65
865.82	3330.00
865.98	3176.40
866.15	3092.43
866.32	3506.12
866.49	3323.85
866.65	3186.64
866.82	3078.10
866.99	3413.96
867.16	3332.05
867.32	3063.76
867.49	2910.16
867.66	3416.01
867.83	3346.38
867.99	2936.79
868.16	3004.37
868.33	3221.45
868.49	3413.96
868.66	2942.93
868.83	3196.88
868.99	3461.07
869.16	3571.66
869.33	3303.37
869.50	3110.86
869.66	3475.40
869.83	3401.68
870.00	2893.78
870.16	3143.63
870.33	3377.10
870.50	3598.28
870.66	3100.62
870.83	3065.81
871.00	3395.53
871.17	3463.12
871.33	3086.29
871.50	3000.27
871.67	3422.16
871.83	3338.19
872.00	3084.24
872.17	3076.05
872.33	3954.63
872.50	3725.26
872.67	2951.12
872.83	2969.55
873.00	3569.61
873.17	3516.36
873.33	3104.72
873.50	3098.58
873.67	3332.05
873.83	3262.41
874.00	3057.62
874.16	3123.15
874.33	3463.12
874.50	3166.16
874.66	3024.85
874.83	3114.96
875.00	3659.72
875.16	3678.15
875.33	3057.62
875.50	2764.76
875.66	3301.33
875.83	3502.03
875.99	3045.33
876.16	3221.45
876.33	3200.98
876.49	3377.10
876.66	3045.33
876.83	3090.38
876.99	3069.91
877.16	3416.01
877.32	2934.74
877.49	3084.24
877.66	3538.89
877.82	3786.69
877.99	3065.81
878.15	3368.91
878.32	3510.22
878.49	3454.92
878.65	3074.00
878.82	3280.85
878.98	3420.11
879.15	3626.95
879.32	3231.69
879.48	3266.51
879.65	3364.81
879.81	3360.72
879.98	3069.91
880.15	3049.43
880.31	3583.95
880.48	3289.04
880.64	3180.50
880.81	3215.31
880.97	3844.04
881.14	3651.53
881.31	2985.94
881.47	3139.54
881.64	3352.52
881.80	3090.38
881.97	3227.60
882.13	3098.58
882.30	3149.78
882.47	3315.66
882.63	3002.32
882.80	2934.74
882.96	3270.61
883.13	3702.73
883.29	3004.37
883.46	2977.75
883.62	3944.39
883.79	3362.76
883.95	3155.92
884.12	2975.70
884.29	3741.64
884.45	3483.59
884.62	3129.30
884.78	3020.75
884.95	3833.80
885.11	3319.76
885.28	3033.04
885.44	3098.58
885.61	3534.79
885.77	3747.78
885.94	3184.59
886.10	3180.50
886.27	3473.36
886.43	3825.61
886.60	3268.56
886.76	3059.67
886.93	3252.17
887.09	3493.83
887.26	2973.65
887.42	3051.47
887.59	3647.43
887.75	3897.28
887.92	3237.84
888.08	3180.50
888.25	3872.71
888.41	3680.20
888.58	3223.50
888.74	2983.89
888.91	3303.37
>>>>>End Processed Spectral Data<<<<<
