SpectraSuite Data File
++++++++++++++++++++++++++++++++++++
Date: Fri May 06 09:28:56 CEST 2016
User: root
Dark Spectrum Present: No
Reference Spectrum Present: No
Number of Sampled Component Spectra: 1
Spectrometers: USB4C02835
Integration Time (usec): 100000 (USB4C02835)
Spectra Averaged: 1 (USB4C02835)
Boxcar Smoothing: 0 (USB4C02835)
Correct for Electrical Dark: No (USB4C02835)
Strobe/Lamp Enabled: No (USB4C02835)
Correct for Detector Non-linearity: No (USB4C02835)
Correct for Stray Light: No (USB4C02835)
Number of Pixels in Processed Spectrum: 3648
>>>>>Begin Processed Spectral Data<<<<<
177.47	2361.31
177.69	2361.31
177.91	2361.31
178.13	2340.83
178.36	2369.50
178.58	3121.10
178.80	3233.74
179.02	3117.01
179.24	3139.54
179.46	2836.44
179.68	2922.45
179.90	3409.87
180.13	3448.78
180.35	2746.33
180.57	2869.20
180.79	3549.13
181.01	3338.19
181.23	2985.94
181.45	3018.71
181.67	3635.14
181.90	3684.30
182.12	3086.29
182.34	2811.86
182.56	3661.77
182.78	3514.31
183.00	2912.21
183.22	2996.18
183.44	3061.71
183.66	4118.47
183.89	3114.96
184.11	2916.31
184.33	3499.98
184.55	3764.17
184.77	3020.75
184.99	2953.17
185.21	3291.09
185.43	4048.83
185.65	2955.22
185.87	2906.07
186.10	3991.49
186.32	3991.49
186.54	3133.39
186.76	3100.62
186.98	3698.63
187.20	3350.48
187.42	2971.60
187.64	2920.40
187.86	3467.21
188.08	3655.62
188.30	2881.49
188.52	3000.27
188.75	3674.06
188.97	3692.49
189.19	2949.08
189.41	2930.64
189.63	3622.86
189.85	3256.27
190.07	2822.10
190.29	2795.48
190.51	3571.66
190.73	3108.82
190.95	3176.40
191.17	3049.43
191.39	3037.14
191.61	3368.91
191.84	2973.65
192.06	3108.82
192.28	3121.10
192.50	4315.07
192.72	3078.10
192.94	3106.77
193.16	3659.72
193.38	3487.69
193.60	2889.68
193.82	3117.01
194.04	3651.53
194.26	3573.71
194.48	2983.89
194.70	2990.03
194.92	3405.77
195.14	3622.86
195.36	2955.22
195.58	2990.03
195.80	3387.34
196.02	3332.05
196.24	2873.30
196.46	3051.47
196.69	3334.09
196.91	4110.27
197.13	2820.05
197.35	3055.57
197.57	3768.26
197.79	3692.49
198.01	3026.90
198.23	3033.04
198.45	3606.47
198.67	3180.50
198.89	2787.29
199.11	3102.67
199.33	3360.72
199.55	3051.47
199.77	2967.51
199.99	3121.10
200.21	3379.15
200.43	3497.93
200.65	2881.49
200.87	2795.48
201.09	3381.20
201.31	3366.86
201.53	3035.09
201.75	2983.89
201.97	3389.39
202.19	3461.07
202.41	3041.23
202.63	3061.71
202.85	3610.57
203.07	3520.46
203.29	3110.86
203.51	2875.35
203.73	3315.66
203.95	4147.14
204.17	3004.37
204.39	3098.58
204.61	3401.68
204.83	3311.57
205.05	3117.01
205.27	2930.64
205.49	3964.87
205.71	3528.65
205.93	2873.30
206.15	2897.88
206.37	3442.64
206.59	3422.16
206.81	2852.82
207.03	2852.82
207.25	3299.28
207.47	3616.71
207.69	2910.16
207.91	3254.22
208.13	3844.04
208.34	3315.66
208.56	2928.60
208.78	2910.16
209.00	3385.29
209.22	3377.10
209.44	2957.27
209.66	2906.07
209.88	3483.59
210.10	3266.51
210.32	2885.59
210.54	3090.38
210.76	3313.61
210.98	3626.95
211.20	2834.39
211.42	3110.86
211.64	3768.26
211.86	3645.38
212.08	3045.33
212.30	2985.94
212.52	3360.72
212.74	3565.51
212.96	3104.72
213.17	3063.76
213.39	3661.77
213.61	3860.42
213.83	2875.35
214.05	2916.31
214.27	3645.38
214.49	3235.79
214.71	2942.93
214.93	3061.71
215.15	3452.88
215.37	3663.82
215.59	2777.05
215.81	3043.28
216.03	3819.46
216.24	3475.40
216.46	2877.40
216.68	2971.60
216.90	3614.66
217.12	3682.25
217.34	2901.97
217.56	3166.16
217.78	3725.26
218.00	3655.62
218.22	3067.86
218.44	3053.52
218.66	3493.83
218.87	3835.85
219.09	3055.57
219.31	2934.74
219.53	3549.13
219.75	3428.30
219.97	3016.66
220.19	2951.12
220.41	3418.06
220.63	3827.65
220.85	2887.64
221.06	2975.70
221.28	3751.88
221.50	3590.09
221.72	2957.27
221.94	2846.68
222.16	3379.15
222.38	3637.19
222.60	2967.51
222.82	3049.43
223.03	3682.25
223.25	3256.27
223.47	2877.40
223.69	3207.12
223.91	3577.80
224.13	3504.07
224.35	2842.58
224.57	3100.62
224.78	3581.90
225.00	3209.17
225.22	3043.28
225.44	2848.72
225.66	3590.09
225.88	3321.81
226.10	3135.44
226.32	2963.41
226.53	3751.88
226.75	3370.96
226.97	3088.34
227.19	2961.36
227.41	3352.52
227.63	3426.25
227.85	2832.34
228.06	3018.71
228.28	3567.56
228.50	3665.86
228.72	2906.07
228.94	2930.64
229.16	3074.00
229.37	3221.45
229.59	2879.44
229.81	3227.60
230.03	3342.28
230.25	3192.78
230.47	2836.44
230.69	2965.46
230.90	3585.99
231.12	3286.99
231.34	3024.85
231.56	3000.27
231.78	3170.26
232.00	3485.64
232.21	3024.85
232.43	3006.42
232.65	2994.13
232.87	3518.41
233.09	2820.05
233.30	2873.30
233.52	3659.72
233.74	3411.92
233.96	2885.59
234.18	3256.27
234.40	3393.48
234.61	4016.07
234.83	2871.25
235.05	2924.50
235.27	3966.92
235.49	3704.78
235.70	2842.58
235.92	3024.85
236.14	3633.10
236.36	4050.88
236.58	2869.20
236.79	3065.81
237.01	3459.02
237.23	3360.72
237.45	3256.27
237.67	3043.28
237.88	3545.03
238.10	3852.23
238.32	2912.21
238.54	2930.64
238.76	3420.11
238.97	3272.65
239.19	2850.77
239.41	3012.56
239.63	3614.66
239.85	3409.87
240.06	3084.24
240.28	2928.60
240.50	3780.55
240.72	3413.96
240.93	2875.35
241.15	3090.38
241.37	3364.81
241.59	3682.25
241.81	2912.21
242.02	3102.67
242.24	3547.08
242.46	3579.85
242.68	2775.00
242.89	2869.20
243.11	3542.99
243.33	3434.44
243.55	2951.12
243.76	3024.85
243.98	3370.96
244.20	3524.55
244.42	2936.79
244.64	2965.46
244.85	3243.98
245.07	3332.05
245.29	2953.17
245.51	2957.27
245.72	3528.65
245.94	3708.87
246.16	2936.79
246.38	3024.85
246.59	3305.42
246.81	3295.18
247.03	2869.20
247.24	2893.78
247.46	3422.16
247.68	3475.40
247.90	2906.07
248.11	2901.97
248.33	3583.95
248.55	3481.55
248.77	3041.23
248.98	3096.53
249.20	3796.93
249.42	3467.21
249.64	2992.08
249.85	2861.01
250.07	3325.90
250.29	3608.52
250.50	3086.29
250.72	2920.40
250.94	3575.75
251.16	3942.34
251.37	2953.17
251.59	3045.33
251.81	3624.90
252.02	3844.04
252.24	2928.60
252.46	3098.58
252.68	3284.94
252.89	3342.28
253.11	2738.13
253.33	3137.49
253.54	3780.55
253.76	3166.16
253.98	2977.75
254.20	2926.55
254.41	3233.74
254.63	3411.92
254.85	2811.86
255.06	3155.92
255.28	3540.94
255.50	3387.34
255.71	2930.64
255.93	2772.95
256.15	3426.25
256.36	3526.60
256.58	2801.62
256.80	2963.41
257.02	3426.25
257.23	3303.37
257.45	2996.18
257.67	3139.54
257.88	3426.25
258.10	3549.13
258.32	2961.36
258.53	3037.14
258.75	3889.09
258.97	3225.55
259.18	2850.77
259.40	2910.16
259.62	3917.76
259.83	3811.27
260.05	2990.03
260.27	3966.92
260.48	3622.86
260.70	3350.48
260.92	2820.05
261.13	3028.95
261.35	3581.90
261.57	3555.27
261.78	2852.82
262.00	2850.77
262.22	3594.19
262.43	3209.17
262.65	2912.21
262.86	2985.94
263.08	4069.31
263.30	3407.82
263.51	2809.81
263.73	2863.06
263.95	3856.33
264.16	3223.50
264.38	2822.10
264.60	2908.12
264.81	3301.33
265.03	3715.02
265.25	3516.36
265.46	2975.70
265.68	3758.02
265.89	3622.86
266.11	2908.12
266.33	2938.84
266.54	3792.84
266.76	3618.76
266.98	3002.32
267.19	3147.73
267.41	3696.58
267.62	3413.96
267.84	2813.91
268.06	3203.02
268.27	3485.64
268.49	3690.44
268.70	3014.61
268.92	2983.89
269.14	3256.27
269.35	3225.55
269.57	3112.91
269.79	3071.95
270.00	3346.38
270.22	3925.96
270.43	2867.16
270.65	2836.44
270.87	3540.94
271.08	3622.86
271.30	3082.19
271.51	2977.75
271.73	3594.19
271.95	3649.48
272.16	2893.78
272.38	3082.19
272.59	3418.06
272.81	3545.03
273.02	2908.12
273.24	2987.99
273.46	3760.07
273.67	3123.15
273.89	2787.29
274.10	2893.78
274.32	3639.24
274.54	3510.22
274.75	3094.48
274.97	3057.62
275.18	3590.09
275.40	3536.84
275.61	2979.79
275.83	3092.43
276.05	3131.34
276.26	3477.45
276.48	3014.61
276.69	3172.30
276.91	3348.43
277.12	3717.06
277.34	3098.58
277.55	3272.65
277.77	3495.88
277.99	3403.72
278.20	3166.16
278.42	2973.65
278.63	3340.24
278.85	3172.30
279.06	3010.51
279.28	3221.45
279.49	3739.59
279.71	3641.29
279.93	3217.36
280.14	3221.45
280.36	3282.89
280.57	3700.68
280.79	3258.32
281.00	2969.55
281.22	3358.67
281.43	3690.44
281.65	2861.01
281.86	3020.75
282.08	3545.03
282.29	3932.10
282.51	2904.02
282.73	3016.66
282.94	3168.21
283.16	3592.14
283.37	3205.07
283.59	3108.82
283.80	3522.51
284.02	3416.01
284.23	3133.39
284.45	3141.58
284.66	3231.69
284.88	3313.61
285.09	3024.85
285.31	3205.07
285.52	3516.36
285.74	3078.10
285.95	3340.24
286.17	3082.19
286.38	3663.82
286.60	3403.72
286.81	2998.23
287.03	3051.47
287.24	3487.69
287.46	3585.99
287.67	3188.69
287.89	3340.24
288.10	3362.76
288.32	3520.46
288.53	3295.18
288.75	3172.30
288.96	3534.79
289.18	3332.05
289.39	3071.95
289.61	3110.86
289.82	3962.82
290.04	3798.98
290.25	2951.12
290.47	3207.12
290.68	3381.20
290.90	3659.72
291.11	2865.11
291.33	3166.16
291.54	3295.18
291.76	3291.09
291.97	3223.50
292.18	3164.11
292.40	3401.68
292.61	3309.52
292.83	3403.72
293.04	3180.50
293.26	3477.45
293.47	3475.40
293.69	3024.85
293.90	3059.67
294.12	3758.02
294.33	3456.97
294.55	3141.58
294.76	3307.47
294.97	3667.91
295.19	3919.81
295.40	3057.62
295.62	3229.65
295.83	3608.52
296.05	3373.00
296.26	3342.28
296.48	3112.91
296.69	3405.77
296.90	3434.44
297.12	3203.02
297.33	3260.37
297.55	3463.12
297.76	3551.18
297.98	3233.74
298.19	3297.23
298.41	3506.12
298.62	3305.42
298.83	3282.89
299.05	3256.27
299.26	3321.81
299.48	3297.23
299.69	3219.41
299.90	3061.71
300.12	3272.65
300.33	3483.59
300.55	3078.10
300.76	3108.82
300.98	3164.11
301.19	3583.95
301.40	3076.05
301.62	3137.49
301.83	3559.37
302.05	3555.27
302.26	3059.67
302.47	3110.86
302.69	3194.83
302.90	3461.07
303.12	2918.36
303.33	3260.37
303.54	3880.90
303.76	3282.89
303.97	3106.77
304.19	3301.33
304.40	3243.98
304.61	3510.22
304.83	3184.59
305.04	3151.82
305.26	3624.90
305.47	3381.20
305.68	3143.63
305.90	3057.62
306.11	3755.97
306.33	3420.11
306.54	2873.30
306.75	3028.95
306.97	3100.62
307.18	3241.93
307.39	3069.91
307.61	3196.88
307.82	3391.44
308.04	3592.14
308.25	2951.12
308.46	3239.89
308.68	3418.06
308.89	3442.64
309.10	3164.11
309.32	3143.63
309.53	3430.35
309.74	3559.37
309.96	3018.71
310.17	3209.17
310.39	3364.81
310.60	3561.42
310.81	3119.06
311.03	3082.19
311.24	3557.32
311.45	3489.74
311.67	3364.81
311.88	3266.51
312.09	3354.57
312.31	3350.48
312.52	3092.43
312.73	2992.08
312.95	3119.06
313.16	3215.31
313.37	3307.47
313.59	3282.89
313.80	3680.20
314.01	3715.02
314.23	3139.54
314.44	3100.62
314.65	3102.67
314.87	3317.71
315.08	3035.09
315.29	3155.92
315.51	3211.22
315.72	3069.91
315.93	3135.44
316.15	3188.69
316.36	3262.41
316.57	3477.45
316.79	3112.91
317.00	3000.27
317.21	3575.75
317.43	3205.07
317.64	3119.06
317.85	3020.75
318.07	3385.29
318.28	3454.92
318.49	3200.98
318.70	3299.28
318.92	3520.46
319.13	3434.44
319.34	3186.64
319.56	3090.38
319.77	3549.13
319.98	3551.18
320.20	3327.95
320.41	3289.04
320.62	3547.08
320.83	3254.22
321.05	3297.23
321.26	3125.20
321.47	3465.16
321.69	3723.21
321.90	3041.23
322.11	2996.18
322.32	3471.31
322.54	3887.04
322.75	3157.97
322.96	4259.78
323.18	3102.67
323.39	3043.28
323.60	2996.18
323.81	3237.84
324.03	3291.09
324.24	3487.69
324.45	3186.64
324.66	3047.38
324.88	3592.14
325.09	3768.26
325.30	3059.67
325.52	3074.00
325.73	3606.47
325.94	3278.80
326.15	3008.47
326.37	2936.79
326.58	3684.30
326.79	3788.74
327.00	3037.14
327.22	3071.95
327.43	3348.43
327.64	3241.93
327.85	3280.85
328.07	3067.86
328.28	3813.32
328.49	3276.75
328.70	3098.58
328.92	3133.39
329.13	3418.06
329.34	3573.71
329.55	3401.68
329.76	3237.84
329.98	3422.16
330.19	3688.39
330.40	3192.78
330.61	3278.80
330.83	3639.24
331.04	3289.04
331.25	3221.45
331.46	3157.97
331.68	3278.80
331.89	3721.16
332.10	3098.58
332.31	2901.97
332.52	3436.49
332.74	3700.68
332.95	2936.79
333.16	3069.91
333.37	3610.57
333.58	3338.19
333.80	3141.58
334.01	2901.97
334.22	3387.34
334.43	3332.05
334.64	3069.91
334.86	3127.25
335.07	3241.93
335.28	3747.78
335.49	3022.80
335.70	3198.93
335.92	3700.68
336.13	3889.09
336.34	3094.48
336.55	3076.05
336.76	3538.89
336.98	3074.00
337.19	3135.44
337.40	3209.17
337.61	3954.63
337.82	3340.24
338.04	3223.50
338.25	2906.07
338.46	3393.48
338.67	3418.06
338.88	3059.67
339.09	3002.32
339.31	3373.00
339.52	3160.02
339.73	3074.00
339.94	3190.74
340.15	3616.71
340.36	3411.92
340.58	3262.41
340.79	3018.71
341.00	3639.24
341.21	3137.49
341.42	3379.15
341.63	3045.33
341.85	3557.32
342.06	3465.16
342.27	3022.80
342.48	3258.32
342.69	3155.92
342.90	3495.88
343.12	3622.86
343.33	3051.47
343.54	3717.06
343.75	3798.98
343.96	3229.65
344.17	2992.08
344.38	3385.29
344.60	3270.61
344.81	3063.76
345.02	3069.91
345.23	3635.14
345.44	3983.30
345.65	3065.81
345.86	3196.88
346.07	3364.81
346.29	3280.85
346.50	3215.31
346.71	3176.40
346.92	3782.60
347.13	3934.15
347.34	3176.40
347.55	2951.12
347.76	3616.71
347.98	3090.38
348.19	3194.83
348.40	3305.42
348.61	3373.00
348.82	3782.60
349.03	3106.77
349.24	2985.94
349.45	3995.59
349.66	3067.86
349.88	3076.05
350.09	3012.56
350.30	3866.56
350.51	3758.02
350.72	3311.57
350.93	3063.76
351.14	3368.91
351.35	3526.60
351.56	3114.96
351.77	3160.02
351.99	3551.18
352.20	3770.31
352.41	3143.63
352.62	3043.28
352.83	3411.92
353.04	3358.67
353.25	3151.82
353.46	3125.20
353.67	3655.62
353.88	3016.66
354.09	3016.66
354.30	3223.50
354.52	3567.56
354.73	3407.82
354.94	3084.24
355.15	3141.58
355.36	3923.91
355.57	3383.24
355.78	3080.14
355.99	3182.54
356.20	3366.86
356.41	3649.48
356.62	3205.07
356.83	3160.02
357.04	3776.45
357.25	3129.30
357.46	3020.75
357.68	3006.42
357.89	3211.22
358.10	3411.92
358.31	3080.14
358.52	3108.82
358.73	3231.69
358.94	3217.36
359.15	3131.34
359.36	3092.43
359.57	3479.50
359.78	3411.92
359.99	3231.69
360.20	3057.62
360.41	3321.81
360.62	3504.07
360.83	3200.98
361.04	3157.97
361.25	3577.80
361.46	3807.17
361.67	3246.03
361.88	3043.28
362.09	3655.62
362.30	3467.21
362.51	3008.47
362.72	3174.35
362.93	3635.14
363.14	3545.03
363.35	3188.69
363.56	2955.22
363.78	3686.34
363.99	3622.86
364.20	3143.63
364.41	3182.54
364.62	3825.61
364.83	3549.13
365.04	3176.40
365.25	3145.68
365.46	3885.00
365.67	3264.46
365.88	3340.24
366.09	3141.58
366.30	3465.16
366.51	3409.87
366.72	3121.10
366.93	3039.19
367.14	3452.88
367.35	3715.02
367.56	3074.00
367.77	3274.70
367.98	3426.25
368.18	3606.47
368.39	3278.80
368.60	3092.43
368.81	3649.48
369.02	3508.17
369.23	3133.39
369.44	2967.51
369.65	3411.92
369.86	3602.38
370.07	3186.64
370.28	3026.90
370.49	3497.93
370.70	3518.41
370.91	2944.98
371.12	3035.09
371.33	3745.73
371.54	3334.09
371.75	3250.13
371.96	2893.78
372.17	3545.03
372.38	3485.64
372.59	3147.73
372.80	3069.91
373.01	3395.53
373.22	3373.00
373.43	3127.25
373.64	2967.51
373.85	3766.21
374.06	3844.04
374.26	3305.42
374.47	3229.65
374.68	3805.13
374.89	3475.40
375.10	3035.09
375.31	3266.51
375.52	3409.87
375.73	3391.44
375.94	2985.94
376.15	3129.30
376.36	3315.66
376.57	3284.94
376.78	3100.62
376.99	3145.68
377.20	3698.63
377.40	3350.48
377.61	3360.72
377.82	3186.64
378.03	3741.64
378.24	3686.34
378.45	3235.79
378.66	3160.02
378.87	3098.58
379.08	3149.78
379.29	3131.34
379.50	3327.95
379.71	3397.58
379.91	3514.31
380.12	3114.96
380.33	3110.86
380.54	3403.72
380.75	3434.44
380.96	3102.67
381.17	3135.44
381.38	3379.15
381.59	3502.03
381.80	3164.11
382.00	3270.61
382.21	3538.89
382.42	3794.89
382.63	3499.98
382.84	3286.99
383.05	3612.62
383.26	3669.96
383.47	3346.38
383.68	3061.71
383.88	3540.94
384.09	3438.54
384.30	3377.10
384.51	3256.27
384.72	3401.68
384.93	3250.13
385.14	3184.59
385.35	3438.54
385.55	3151.82
385.76	3717.06
385.97	3129.30
386.18	2914.26
386.39	3190.74
386.60	3323.85
386.81	3024.85
387.02	3094.48
387.22	3151.82
387.43	3524.55
387.64	3119.06
387.85	3401.68
388.06	3405.77
388.27	4450.24
388.48	7393.17
388.68	10870.62
388.89	13743.92
389.10	14786.33
389.31	14376.74
389.52	11784.01
389.73	10344.29
389.93	9480.05
390.14	8589.18
390.35	7921.54
390.56	7495.57
390.77	6238.11
390.98	4786.10
391.18	4018.11
391.39	3962.82
391.60	3547.08
391.81	3383.24
392.02	3250.13
392.23	3997.64
392.43	3506.12
392.64	3219.41
392.85	3217.36
393.06	3729.35
393.27	3436.49
393.47	3117.01
393.68	3180.50
393.89	3438.54
394.10	3770.31
394.31	3067.86
394.52	3094.48
394.72	3346.38
394.93	3745.73
395.14	3030.99
395.35	3188.69
395.56	3377.10
395.76	3325.90
395.97	3026.90
396.18	3350.48
396.39	3413.96
396.60	4171.71
396.80	3631.05
397.01	3377.10
397.22	3606.47
397.43	3618.76
397.64	3065.81
397.84	3241.93
398.05	3876.80
398.26	3459.02
398.47	3299.28
398.67	3389.39
398.88	3446.73
399.09	3579.85
399.30	3117.01
399.51	3196.88
399.71	3295.18
399.92	3395.53
400.13	3162.06
400.34	3141.58
400.54	3469.26
400.75	3788.74
400.96	3207.12
401.17	3510.22
401.37	3530.70
401.58	3487.69
401.79	3155.92
402.00	3246.03
402.21	3917.76
402.41	3540.94
402.62	3340.24
402.83	3459.02
403.04	3803.08
403.24	4206.53
403.45	3215.31
403.66	3467.21
403.87	3610.57
404.07	3766.21
404.28	3389.39
404.49	3452.88
404.70	3555.27
404.90	3590.09
405.11	3102.67
405.32	3221.45
405.52	3358.67
405.73	3307.47
405.94	3012.56
406.15	3246.03
406.35	3571.66
406.56	3672.01
406.77	3221.45
406.98	3084.24
407.18	3262.41
407.39	3766.21
407.60	3254.22
407.80	3231.69
408.01	3291.09
408.22	3649.48
408.43	3106.77
408.63	3311.57
408.84	3645.38
409.05	3610.57
409.25	3045.33
409.46	3162.06
409.67	3303.37
409.88	3352.52
410.08	3196.88
410.29	3117.01
410.50	3653.58
410.70	3569.61
410.91	3061.71
411.12	3182.54
411.32	3483.59
411.53	3239.89
411.74	3110.86
411.95	3239.89
412.15	3416.01
412.36	3659.72
412.57	3291.09
412.77	3418.06
412.98	3459.02
413.19	3366.86
413.39	3141.58
413.60	3229.65
413.81	3663.82
414.01	3194.83
414.22	3186.64
414.43	3440.59
414.63	3420.11
414.84	3592.14
415.05	3217.36
415.25	2992.08
415.46	3573.71
415.67	3231.69
415.87	3180.50
416.08	3092.43
416.29	3327.95
416.49	3528.65
416.70	3241.93
416.91	3164.11
417.11	3416.01
417.32	3631.05
417.53	3155.92
417.73	3258.32
417.94	3434.44
418.15	3514.31
418.35	3229.65
418.56	3182.54
418.77	3983.30
418.97	3512.27
419.18	3305.42
419.38	2959.31
419.59	3489.74
419.80	3770.31
420.00	3061.71
420.21	3184.59
420.42	3737.54
420.62	3497.93
420.83	3100.62
421.04	3114.96
421.24	3405.77
421.45	3565.51
421.65	3106.77
421.86	3196.88
422.07	3629.00
422.27	3542.99
422.48	3049.43
422.69	2965.46
422.89	3495.88
423.10	3352.52
423.30	3168.21
423.51	3233.74
423.72	3553.23
423.92	3610.57
424.13	3088.34
424.33	3198.93
424.54	3600.33
424.75	3518.41
424.95	3284.94
425.16	3112.91
425.36	3356.62
425.57	3626.95
425.78	3330.00
425.98	3319.76
426.19	3426.25
426.39	3243.98
426.60	3262.41
426.81	3327.95
427.01	3518.41
427.22	3362.76
427.42	2942.93
427.63	3098.58
427.83	3606.47
428.04	3839.94
428.25	3166.16
428.45	3256.27
428.66	3729.35
428.86	3395.53
429.07	3188.69
429.28	3139.54
429.48	3426.25
429.69	3344.33
429.89	3270.61
430.10	3149.78
430.30	3545.03
430.51	3698.63
430.71	3094.48
430.92	3219.41
431.13	3399.63
431.33	3508.17
431.54	3155.92
431.74	3403.72
431.95	3909.57
432.15	3254.22
432.36	3180.50
432.56	3153.87
432.77	3938.24
432.98	3807.17
433.18	3207.12
433.39	2975.70
433.59	3418.06
433.80	3911.62
434.00	3198.93
434.21	3172.30
434.41	3395.53
434.62	3928.00
434.82	3074.00
435.03	3157.97
435.23	3614.66
435.44	3106.77
435.64	3119.06
435.85	3180.50
436.06	3745.73
436.26	3680.20
436.47	3084.24
436.67	3133.39
436.88	3389.39
437.08	3753.93
437.29	3362.76
437.49	3332.05
437.70	3667.91
437.90	3444.68
438.11	3354.57
438.31	3147.73
438.52	3723.21
438.72	3626.95
438.93	3479.50
439.13	3301.33
439.34	3624.90
439.54	3377.10
439.75	3266.51
439.95	3190.74
440.16	3225.55
440.36	3336.14
440.57	3135.44
440.77	3131.34
440.98	3418.06
441.18	3565.51
441.39	3078.10
441.59	3004.37
441.80	3880.90
442.00	3577.80
442.21	3252.17
442.41	2975.70
442.62	3631.05
442.82	3305.42
443.02	3143.63
443.23	3119.06
443.43	3352.52
443.64	3665.86
443.84	3024.85
444.05	3278.80
444.25	3491.79
444.46	3330.00
444.66	3108.82
444.87	3411.92
445.07	3207.12
445.28	3385.29
445.48	3295.18
445.69	3209.17
445.89	3995.59
446.09	3336.14
446.30	3499.98
446.50	3583.95
446.71	4986.80
446.91	6057.89
447.12	6850.46
447.32	7387.02
447.53	7432.08
447.73	6174.63
447.93	5318.57
448.14	5156.79
448.34	5445.55
448.55	4485.05
448.75	4374.46
448.96	4243.39
449.16	4120.51
449.36	4085.70
449.57	3395.53
449.77	3239.89
449.98	3237.84
450.18	3547.08
450.39	3172.30
450.59	3409.87
450.79	3393.48
451.00	3354.57
451.20	3456.97
451.41	3166.16
451.61	3538.89
451.81	3403.72
452.02	3121.10
452.22	3174.35
452.43	3377.10
452.63	3295.18
452.84	3299.28
453.04	3000.27
453.24	3397.58
453.45	3246.03
453.65	3205.07
453.86	3205.07
454.06	3479.50
454.26	3469.26
454.47	3100.62
454.67	3362.76
454.87	3485.64
455.08	3401.68
455.28	3205.07
455.49	3223.50
455.69	3305.42
455.89	3893.19
456.10	3237.84
456.30	3078.10
456.51	3563.47
456.71	3585.99
456.91	3327.95
457.12	3121.10
457.32	3553.23
457.52	3157.97
457.73	3344.33
457.93	3475.40
458.14	3336.14
458.34	3061.71
458.54	3219.41
458.75	3203.02
458.95	3622.86
459.15	3477.45
459.36	3205.07
459.56	3084.24
459.76	3938.24
459.97	3424.20
460.17	3190.74
460.37	3256.27
460.58	3506.12
460.78	3563.47
460.99	3170.26
461.19	3172.30
461.39	3360.72
461.60	3463.12
461.80	3262.41
462.00	3160.02
462.21	3454.92
462.41	3260.37
462.61	3004.37
462.82	3016.66
463.02	3518.41
463.22	3413.96
463.43	3270.61
463.63	3041.23
463.83	3762.12
464.04	3469.26
464.24	3123.15
464.44	3229.65
464.64	3493.83
464.85	3647.43
465.05	3203.02
465.25	3061.71
465.46	3264.46
465.66	3502.03
465.86	3180.50
466.07	3215.31
466.27	3461.07
466.47	3123.15
466.68	3033.04
466.88	3250.13
467.08	3647.43
467.29	3712.97
467.49	3147.73
467.69	3315.66
467.89	3508.17
468.10	3440.59
468.30	3221.45
468.50	3315.66
468.71	3569.61
468.91	3059.67
469.11	3323.85
469.31	3338.19
469.52	3319.76
469.72	3786.69
469.92	3366.86
470.13	3141.58
470.33	3420.11
470.53	3530.70
470.73	3565.51
470.94	3893.19
471.14	3960.77
471.34	4575.16
471.54	4112.32
471.75	3905.48
471.95	3680.20
472.15	3758.02
472.36	3643.34
472.56	3565.51
472.76	3950.53
472.96	3712.97
473.17	3487.69
473.37	3239.89
473.57	3395.53
473.77	3551.18
473.98	3411.92
474.18	3092.43
474.38	4206.53
474.58	3313.61
474.79	3090.38
474.99	3350.48
475.19	3704.78
475.39	3243.98
475.60	3237.84
475.80	3172.30
476.00	3461.07
476.20	3426.25
476.41	3205.07
476.61	3213.26
476.81	3729.35
477.01	3248.08
477.21	3397.58
477.42	3356.62
477.62	3340.24
477.82	3553.23
478.02	3000.27
478.23	3182.54
478.43	3241.93
478.63	3422.16
478.83	3188.69
479.03	3266.51
479.24	3817.41
479.44	3928.00
479.64	3090.38
479.84	2983.89
480.04	3332.05
480.25	3561.42
480.45	3141.58
480.65	3090.38
480.85	3772.36
481.06	3379.15
481.26	3252.17
481.46	3131.34
481.66	3495.88
481.86	3246.03
482.06	3346.38
482.27	3274.70
482.47	3407.82
482.67	3551.18
482.87	3135.44
483.07	3160.02
483.28	3430.35
483.48	3100.62
483.68	3147.73
483.88	3047.38
484.08	2959.31
484.29	3149.78
484.49	3237.84
484.69	2934.74
484.89	3798.98
485.09	3686.34
485.29	3239.89
485.50	3286.99
485.70	3373.00
485.90	3692.49
486.10	3327.95
486.30	3155.92
486.50	3811.27
486.71	3454.92
486.91	3239.89
487.11	3229.65
487.31	3147.73
487.51	3446.73
487.71	3182.54
487.91	3090.38
488.12	3190.74
488.32	2918.36
488.52	3121.10
488.72	2883.54
488.92	3430.35
489.12	3672.01
489.32	3305.42
489.53	3166.16
489.73	3164.11
489.93	3862.47
490.13	3133.39
490.33	3035.09
490.53	3465.16
490.73	3667.91
490.94	2987.99
491.14	3266.51
491.34	3614.66
491.54	3495.88
491.74	4091.84
491.94	4472.76
492.14	5095.35
492.34	5203.89
492.54	4716.47
492.75	4208.58
492.95	4425.66
493.15	4116.42
493.35	3770.31
493.55	3762.12
493.75	3770.31
493.95	4071.36
494.15	3391.44
494.35	3188.69
494.56	3389.39
494.76	3344.33
494.96	3393.48
495.16	3037.14
495.36	3516.36
495.56	3479.50
495.76	3229.65
495.96	3131.34
496.16	3196.88
496.36	3864.52
496.56	3045.33
496.77	3291.09
496.97	3442.64
497.17	3704.78
497.37	3026.90
497.57	3297.23
497.77	3461.07
497.97	3207.12
498.17	3147.73
498.37	3090.38
498.57	3563.47
498.77	3377.10
498.97	3295.18
499.17	3583.95
499.38	3325.90
499.58	3502.03
499.78	3323.85
499.98	3307.47
500.18	3370.96
500.38	3246.03
500.58	3370.96
500.78	3723.21
500.98	6037.41
501.18	7769.99
501.38	9095.03
501.58	9971.56
501.78	9865.07
501.98	8558.46
502.18	7088.02
502.38	6223.78
502.58	6184.87
502.78	5431.21
502.98	5187.50
503.18	4941.75
503.38	4794.29
503.59	4188.10
503.79	3991.49
503.99	3684.30
504.19	3956.68
504.39	4052.93
504.59	3602.38
504.79	3483.59
504.99	3958.72
505.19	3571.66
505.39	3313.61
505.59	3524.55
505.79	3776.45
505.99	3678.15
506.19	3166.16
506.39	3420.11
506.59	3377.10
506.79	3426.25
506.99	3450.83
507.19	3117.01
507.39	3467.21
507.59	3123.15
507.79	3209.17
507.99	3141.58
508.19	3438.54
508.39	3336.14
508.59	3196.88
508.79	3225.55
508.99	3846.09
509.19	3272.65
509.39	3217.36
509.59	3067.86
509.79	3377.10
509.99	3446.73
510.19	3397.58
510.39	3297.23
510.59	3532.75
510.79	3393.48
510.99	2990.03
511.19	3082.19
511.39	3825.61
511.59	3657.67
511.79	3379.15
511.99	3200.98
512.19	3837.89
512.38	3436.49
512.58	3106.77
512.78	3057.62
512.98	3715.02
513.18	3837.89
513.38	3086.29
513.58	3217.36
513.78	3317.71
513.98	3446.73
514.18	3217.36
514.38	3205.07
514.58	3459.02
514.78	3313.61
514.98	3098.58
515.18	3209.17
515.38	3129.30
515.58	3813.32
515.78	3133.39
515.98	3229.65
516.18	3606.47
516.38	3352.52
516.57	3139.54
516.77	3022.80
516.97	3635.14
517.17	3336.14
517.37	2967.51
517.57	3209.17
517.77	3450.83
517.97	3264.46
518.17	3207.12
518.37	3024.85
518.57	3274.70
518.77	3401.68
518.97	3231.69
519.16	3166.16
519.36	3729.35
519.56	3325.90
519.76	3143.63
519.96	3256.27
520.16	3727.30
520.36	3147.73
520.56	3362.76
520.76	3094.48
520.96	3454.92
521.16	3590.09
521.35	3395.53
521.55	3278.80
521.75	3461.07
521.95	3381.20
522.15	3117.01
522.35	3026.90
522.55	3260.37
522.75	3590.09
522.95	3002.32
523.14	2963.41
523.34	3485.64
523.54	3280.85
523.74	3252.17
523.94	3256.27
524.14	3123.15
524.34	3534.79
524.54	3330.00
524.73	3170.26
524.93	3516.36
525.13	3483.59
525.33	3055.57
525.53	3493.83
525.73	3663.82
525.93	3401.68
526.13	3213.26
526.32	3030.99
526.52	3733.45
526.72	3637.19
526.92	3231.69
527.12	3090.38
527.32	3071.95
527.52	3524.55
527.71	3157.97
527.91	3254.22
528.11	3364.81
528.31	3348.43
528.51	3114.96
528.71	3305.42
528.90	3557.32
529.10	3678.15
529.30	3147.73
529.50	2877.40
529.70	3461.07
529.90	3282.89
530.09	3162.06
530.29	2932.69
530.49	3286.99
530.69	4001.73
530.89	3379.15
531.09	3338.19
531.28	3327.95
531.48	3635.14
531.68	3188.69
531.88	3147.73
532.08	3579.85
532.28	3407.82
532.47	3293.13
532.67	3303.37
532.87	3598.28
533.07	3338.19
533.27	3180.50
533.46	3231.69
533.66	3520.46
533.86	3366.86
534.06	3174.35
534.26	3155.92
534.45	3377.10
534.65	3588.04
534.85	3311.57
535.05	3133.39
535.25	3626.95
535.44	3084.24
535.64	3174.35
535.84	3229.65
536.04	3297.23
536.24	3323.85
536.43	3164.11
536.63	3129.30
536.83	3438.54
537.03	3424.20
537.22	3028.95
537.42	2992.08
537.62	3506.12
537.82	3262.41
538.02	3323.85
538.21	3229.65
538.41	4143.04
538.61	3553.23
538.81	3321.81
539.00	3289.04
539.20	3086.29
539.40	3456.97
539.60	3174.35
539.79	3405.77
539.99	3477.45
540.19	3233.74
540.39	3086.29
540.58	3088.34
540.78	3764.17
540.98	3440.59
541.18	3520.46
541.37	3143.63
541.57	3502.03
541.77	3569.61
541.97	3100.62
542.16	3033.04
542.36	3274.70
542.56	3583.95
542.76	3303.37
542.95	3250.13
543.15	3592.14
543.35	3549.13
543.54	3086.29
543.74	3151.82
543.94	3784.65
544.14	3250.13
544.33	3354.57
544.53	3143.63
544.73	3385.29
544.93	3284.94
545.12	3241.93
545.32	3147.73
545.52	3387.34
545.71	3184.59
545.91	3180.50
546.11	3049.43
546.30	3252.17
546.50	3385.29
546.70	3162.06
546.90	3174.35
547.09	3022.80
547.29	3424.20
547.49	3243.98
547.68	3172.30
547.88	3241.93
548.08	3585.99
548.27	3430.35
548.47	3162.06
548.67	3338.19
548.87	3588.04
549.06	3084.24
549.26	3092.43
549.46	3491.79
549.65	3401.68
549.85	3227.60
550.05	3170.26
550.24	3137.49
550.44	3432.40
550.64	3256.27
550.83	3180.50
551.03	3835.85
551.23	3641.29
551.42	3209.17
551.62	3221.45
551.82	3354.57
552.01	3256.27
552.21	3459.02
552.41	3241.93
552.60	3692.49
552.80	3420.11
553.00	3155.92
553.19	3112.91
553.39	3837.89
553.59	3135.44
553.78	3317.71
553.98	3119.06
554.17	3155.92
554.37	3524.55
554.57	3246.03
554.76	3047.38
554.96	3336.14
555.16	3532.75
555.35	3342.28
555.55	3346.38
555.75	3452.88
555.94	3516.36
556.14	3045.33
556.33	3094.48
556.53	3442.64
556.73	3430.35
556.92	3100.62
557.12	3106.77
557.32	3950.53
557.51	3641.29
557.71	3229.65
557.90	3348.43
558.10	3663.82
558.30	3375.05
558.49	3164.11
558.69	3205.07
558.88	3553.23
559.08	3467.21
559.28	3192.78
559.47	3186.64
559.67	3631.05
559.86	3911.62
560.06	3119.06
560.26	3117.01
560.45	3551.18
560.65	3426.25
560.84	3436.49
561.04	3108.82
561.24	3594.19
561.43	3297.23
561.63	3499.98
561.82	3379.15
562.02	3571.66
562.22	3207.12
562.41	3065.81
562.61	3114.96
562.80	3174.35
563.00	3958.72
563.19	3198.93
563.39	3239.89
563.59	3592.14
563.78	3178.45
563.98	2885.59
564.17	3225.55
564.37	3086.29
564.56	3358.67
564.76	3004.37
564.96	3286.99
565.15	3522.51
565.35	3989.44
565.54	3260.37
565.74	3143.63
565.93	3557.32
566.13	3418.06
566.32	3196.88
566.52	3262.41
566.71	3411.92
566.91	3581.90
567.11	3350.48
567.30	3080.14
567.50	3514.31
567.69	3487.69
567.89	3131.34
568.08	3059.67
568.28	3418.06
568.47	3155.92
568.67	3135.44
568.86	3131.34
569.06	3622.86
569.25	3317.71
569.45	3012.56
569.64	3237.84
569.84	3379.15
570.04	3487.69
570.23	3221.45
570.43	3309.52
570.62	3442.64
570.82	3723.21
571.01	3076.05
571.21	3192.78
571.40	3254.22
571.60	3581.90
571.79	3260.37
571.99	3147.73
572.18	3182.54
572.38	3555.27
572.57	3317.71
572.77	3198.93
572.96	4059.07
573.16	3598.28
573.35	3200.98
573.55	3295.18
573.74	3485.64
573.94	3493.83
574.13	3180.50
574.33	3420.11
574.52	3663.82
574.71	3477.45
574.91	3231.69
575.10	3074.00
575.30	3352.52
575.49	3241.93
575.69	3076.05
575.88	3141.58
576.08	3395.53
576.27	3520.46
576.47	3071.95
576.66	3352.52
576.86	3725.26
577.05	3493.83
577.25	3186.64
577.44	3370.96
577.64	3293.13
577.83	3622.86
578.02	3213.26
578.22	3258.32
578.41	3819.46
578.61	3334.09
578.80	3084.24
579.00	3207.12
579.19	3375.05
579.39	3532.75
579.58	3274.70
579.77	3170.26
579.97	3700.68
580.16	3692.49
580.36	3424.20
580.55	3192.78
580.75	3428.30
580.94	3411.92
581.13	3327.95
581.33	3438.54
581.52	3444.68
581.72	3827.65
581.91	3184.59
582.11	3114.96
582.30	3594.19
582.49	3469.26
582.69	3504.07
582.88	3131.34
583.08	3487.69
583.27	3682.25
583.47	3307.47
583.66	3147.73
583.85	3186.64
584.05	3336.14
584.24	3327.95
584.44	3241.93
584.63	3602.38
584.82	3727.30
585.02	3483.59
585.21	3254.22
585.41	3614.66
585.60	3428.30
585.79	3450.83
585.99	3565.51
586.18	3397.58
586.37	4405.18
586.57	6559.64
586.76	18394.86
586.96	37158.34
587.15	49822.98
587.34	57975.95
587.54	60759.14
587.73	53667.02
587.93	38974.89
588.12	29847.10
588.31	24618.63
588.51	21921.46
588.70	20588.23
588.89	17878.77
589.09	15406.87
589.28	13184.82
589.47	10358.63
589.67	7657.36
589.86	6293.41
590.06	5025.72
590.25	4609.98
590.44	3825.61
590.64	3590.09
590.83	3688.39
591.02	3760.07
591.22	3182.54
591.41	3266.51
591.60	3356.62
591.80	4040.64
591.99	2985.94
592.18	3131.34
592.38	3639.24
592.57	3266.51
592.76	3211.22
592.96	3246.03
593.15	3340.24
593.34	3688.39
593.54	3164.11
593.73	3235.79
593.92	3551.18
594.12	3508.17
594.31	3270.61
594.50	3373.00
594.70	3516.36
594.89	4048.83
595.08	3162.06
595.28	3360.72
595.47	4075.46
595.66	3651.53
595.86	3078.10
596.05	3020.75
596.24	3395.53
596.43	3829.70
596.63	3190.74
596.82	3364.81
597.01	3559.37
597.21	3698.63
597.40	3112.91
597.59	3182.54
597.79	3454.92
597.98	3557.32
598.17	3299.28
598.36	3168.21
598.56	3606.47
598.75	3354.57
598.94	3256.27
599.14	3250.13
599.33	3364.81
599.52	3598.28
599.71	3225.55
599.91	3209.17
600.10	3620.81
600.29	3434.44
600.48	3250.13
600.68	3299.28
600.87	3569.61
601.06	3321.81
601.26	3246.03
601.45	3397.58
601.64	3491.79
601.83	3704.78
602.03	3082.19
602.22	3033.04
602.41	3721.16
602.60	3930.05
602.80	3225.55
602.99	3358.67
603.18	3295.18
603.37	3536.84
603.57	3168.21
603.76	3207.12
603.95	3655.62
604.14	3340.24
604.34	3098.58
604.53	3119.06
604.72	3565.51
604.91	3618.76
605.10	3147.73
605.30	3065.81
605.49	3948.48
605.68	3567.56
605.87	3225.55
606.07	2987.99
606.26	3518.41
606.45	3514.31
606.64	3200.98
606.84	3069.91
607.03	3413.96
607.22	3645.38
607.41	3211.22
607.60	3147.73
607.80	3682.25
607.99	3418.06
608.18	3172.30
608.37	3266.51
608.56	3289.04
608.76	3667.91
608.95	3307.47
609.14	3127.25
609.33	3706.82
609.52	3755.97
609.72	3295.18
609.91	3239.89
610.10	3450.83
610.29	3731.40
610.48	3305.42
610.68	3313.61
610.87	3409.87
611.06	3592.14
611.25	3229.65
611.44	3385.29
611.63	3342.28
611.83	3737.54
612.02	3102.67
612.21	3377.10
612.40	3049.43
612.59	3225.55
612.79	3065.81
612.98	3278.80
613.17	3844.04
613.36	3432.40
613.55	3295.18
613.74	3153.87
613.93	3428.30
614.13	3545.03
614.32	3385.29
614.51	3284.94
614.70	3393.48
614.89	3311.57
615.08	3213.26
615.28	3502.03
615.47	3180.50
615.66	3596.23
615.85	3182.54
616.04	3194.83
616.23	3411.92
616.42	3391.44
616.62	3123.15
616.81	3225.55
617.00	3463.12
617.19	3569.61
617.38	3174.35
617.57	3274.70
617.76	3508.17
617.95	3569.61
618.15	3280.85
618.34	3375.05
618.53	3248.08
618.72	3721.16
618.91	3254.22
619.10	3272.65
619.29	3432.40
619.48	3493.83
619.68	3035.09
619.87	3143.63
620.06	3125.20
620.25	3573.71
620.44	3225.55
620.63	3141.58
620.82	3375.05
621.01	3436.49
621.20	3256.27
621.39	3248.08
621.59	3520.46
621.78	3305.42
621.97	3164.11
622.16	3327.95
622.35	3622.86
622.54	3608.52
622.73	3266.51
622.92	2901.97
623.11	3684.30
623.30	3330.00
623.49	3311.57
623.68	3063.76
623.88	3762.12
624.07	3362.76
624.26	3106.77
624.45	3139.54
624.64	3373.00
624.83	3493.83
625.02	3114.96
625.21	3207.12
625.40	3567.56
625.59	3778.50
625.78	3188.69
625.97	3268.56
626.16	3637.19
626.35	3626.95
626.54	3155.92
626.74	3393.48
626.93	3389.39
627.12	3434.44
627.31	3311.57
627.50	3186.64
627.69	3649.48
627.88	3248.08
628.07	3094.48
628.26	2891.73
628.45	3250.13
628.64	3246.03
628.83	3172.30
629.02	2979.79
629.21	3581.90
629.40	3534.79
629.59	3030.99
629.78	3143.63
629.97	3483.59
630.16	3454.92
630.35	3178.45
630.54	3278.80
630.73	3315.66
630.92	3350.48
631.11	3057.62
631.30	3227.60
631.49	3672.01
631.68	3338.19
631.87	3188.69
632.06	3098.58
632.25	3833.80
632.44	3401.68
632.63	3241.93
632.82	3135.44
633.01	3252.17
633.20	3461.07
633.39	3119.06
633.58	3039.19
633.77	3467.21
633.96	3606.47
634.15	3303.37
634.34	3278.80
634.53	3592.14
634.72	3301.33
634.91	3094.48
635.10	3139.54
635.29	3655.62
635.48	3516.36
635.67	3049.43
635.86	3082.19
636.05	3665.86
636.24	3405.77
636.43	3200.98
636.62	3237.84
636.81	2930.64
637.00	3438.54
637.19	3143.63
637.38	3190.74
637.57	3264.46
637.76	3420.11
637.95	3401.68
638.14	3321.81
638.33	3512.27
638.52	3385.29
638.71	3071.95
638.89	3074.00
639.08	4042.69
639.27	3715.02
639.46	3383.24
639.65	3676.10
639.84	3880.90
640.03	4032.45
640.22	3622.86
640.41	3559.37
640.60	3557.32
640.79	3524.55
640.98	3286.99
641.17	3393.48
641.36	3665.86
641.55	3606.47
641.74	3043.28
641.92	3016.66
642.11	3225.55
642.30	3352.52
642.49	3022.80
642.68	3147.73
642.87	3653.58
643.06	3561.42
643.25	3049.43
643.44	3076.05
643.63	3393.48
643.82	3561.42
644.00	3059.67
644.19	3188.69
644.38	3207.12
644.57	3461.07
644.76	3258.32
644.95	3330.00
645.14	3495.88
645.33	3362.76
645.52	3295.18
645.71	2961.36
645.89	3221.45
646.08	3438.54
646.27	3139.54
646.46	3405.77
646.65	3129.30
646.84	3522.51
647.03	3125.20
647.22	3358.67
647.40	3477.45
647.59	3393.48
647.78	2967.51
647.97	3176.40
648.16	3291.09
648.35	3739.59
648.54	3508.17
648.73	3227.60
648.91	3608.52
649.10	3405.77
649.29	3065.81
649.48	3117.01
649.67	3549.13
649.86	3405.77
650.05	3182.54
650.23	3334.09
650.42	3352.52
650.61	3721.16
650.80	3334.09
650.99	3426.25
651.18	3639.24
651.36	3672.01
651.55	3014.61
651.74	3395.53
651.93	3307.47
652.12	3405.77
652.31	3196.88
652.49	3213.26
652.68	3330.00
652.87	3809.22
653.06	3336.14
653.25	3489.74
653.44	3364.81
653.62	3813.32
653.81	3305.42
654.00	3170.26
654.19	3583.95
654.38	3985.35
654.56	3235.79
654.75	3098.58
654.94	3620.81
655.13	3483.59
655.32	3184.59
655.51	3213.26
655.69	3366.86
655.88	3555.27
656.07	3041.23
656.26	3207.12
656.45	3102.67
656.63	3450.83
656.82	3112.91
657.01	3516.36
657.20	3209.17
657.38	3833.80
657.57	3213.26
657.76	2992.08
657.95	3567.56
658.14	3286.99
658.32	3336.14
658.51	3082.19
658.70	3442.64
658.89	3393.48
659.08	3176.40
659.26	3381.20
659.45	3274.70
659.64	3565.51
659.83	3221.45
660.01	3624.90
660.20	3438.54
660.39	3860.42
660.58	2820.05
660.76	3184.59
660.95	3151.82
661.14	3459.02
661.33	3037.14
661.51	3147.73
661.70	3258.32
661.89	3428.30
662.08	3313.61
662.26	3000.27
662.45	3184.59
662.64	3913.67
662.83	3227.60
663.01	3121.10
663.20	3180.50
663.39	3817.41
663.58	3227.60
663.76	3174.35
663.95	3565.51
664.14	3147.73
664.32	3246.03
664.51	3086.29
664.70	3059.67
664.89	3510.22
665.07	3047.38
665.26	3407.82
665.45	3086.29
665.64	3577.80
665.82	3270.61
666.01	3346.38
666.20	3166.16
666.38	3608.52
666.57	3502.03
666.76	5769.13
666.95	12609.34
667.13	18880.22
667.32	22347.44
667.51	24911.49
667.69	25622.14
667.88	21008.06
668.07	15398.68
668.25	13143.86
668.44	11374.42
668.63	10098.53
668.81	8873.85
669.00	7616.40
669.19	7200.66
669.38	6412.19
669.56	5449.64
669.75	4702.14
669.94	4304.83
670.12	3798.98
670.31	3383.24
670.50	3483.59
670.68	3635.14
670.87	3493.83
671.06	3123.15
671.24	3235.79
671.43	3780.55
671.62	3483.59
671.80	3168.21
671.99	3231.69
672.18	3467.21
672.36	3596.23
672.55	3315.66
672.74	3307.47
672.92	3354.57
673.11	3590.09
673.29	3039.19
673.48	3358.67
673.67	3459.02
673.85	3672.01
674.04	3069.91
674.23	3241.93
674.41	3850.18
674.60	3239.89
674.79	3049.43
674.97	2973.65
675.16	3696.58
675.34	3700.68
675.53	3239.89
675.72	3194.83
675.90	3903.43
676.09	3381.20
676.28	3248.08
676.46	3053.52
676.65	3631.05
676.83	3280.85
677.02	3317.71
677.21	3364.81
677.39	3510.22
677.58	3266.51
677.77	3119.06
677.95	3127.25
678.14	3424.20
678.32	3373.00
678.51	3215.31
678.70	3549.13
678.88	3377.10
679.07	3463.12
679.25	3119.06
679.44	3237.84
679.63	3166.16
679.81	3475.40
680.00	3461.07
680.18	3319.76
680.37	3809.22
680.55	3446.73
680.74	3012.56
680.93	2942.93
681.11	3495.88
681.30	3428.30
681.48	3178.45
681.67	3262.41
681.85	3475.40
682.04	3256.27
682.23	3319.76
682.41	3350.48
682.60	3340.24
682.78	3360.72
682.97	3051.47
683.15	3231.69
683.34	3514.31
683.53	3758.02
683.71	3078.10
683.90	3237.84
684.08	3794.89
684.27	3362.76
684.45	3231.69
684.64	3274.70
684.82	3475.40
685.01	3555.27
685.19	3188.69
685.38	3510.22
685.57	3442.64
685.75	3305.42
685.94	3082.19
686.12	3084.24
686.31	3323.85
686.49	3827.65
686.68	2947.03
686.86	3157.97
687.05	3286.99
687.23	3786.69
687.42	3229.65
687.60	3037.14
687.79	3657.67
687.97	3805.13
688.16	3268.56
688.34	3379.15
688.53	3076.05
688.71	3553.23
688.90	3510.22
689.08	3260.37
689.27	3084.24
689.45	3729.35
689.64	3346.38
689.82	3262.41
690.01	3610.57
690.19	3467.21
690.38	3289.04
690.56	3325.90
690.75	3309.52
690.93	3307.47
691.12	3180.50
691.30	3284.94
691.49	3373.00
691.67	3391.44
691.86	3542.99
692.04	3182.54
692.23	3295.18
692.41	3395.53
692.60	3524.55
692.78	3411.92
692.97	3456.97
693.15	3581.90
693.34	3442.64
693.52	3375.05
693.71	3360.72
693.89	3301.33
694.08	3088.34
694.26	3190.74
694.44	3629.00
694.63	3579.85
694.81	3151.82
695.00	3188.69
695.18	3672.01
695.37	3975.11
695.55	3325.90
695.74	3278.80
695.92	3256.27
696.10	3735.50
696.29	3149.78
696.47	3155.92
696.66	3200.98
696.84	3184.59
697.03	3221.45
697.21	3434.44
697.40	4749.24
697.58	3661.77
697.76	3110.86
697.95	3289.04
698.13	3184.59
698.32	3291.09
698.50	3203.02
698.68	3194.83
698.87	3485.64
699.05	3794.89
699.24	3239.89
699.42	3196.88
699.61	3528.65
699.79	3420.11
699.97	3237.84
700.16	3016.66
700.34	3135.44
700.53	3393.48
700.71	3411.92
700.89	3338.19
701.08	3239.89
701.26	3422.16
701.45	3514.31
701.63	3170.26
701.81	3330.00
702.00	3252.17
702.18	3383.24
702.37	3108.82
702.55	3663.82
702.73	3454.92
702.92	3184.59
703.10	3590.09
703.28	3606.47
703.47	3217.36
703.65	3395.53
703.84	3295.18
704.02	3358.67
704.20	3758.02
704.39	3200.98
704.57	3203.02
704.75	3579.85
704.94	3465.16
705.12	3358.67
705.30	4057.03
705.49	8271.75
705.67	14743.33
705.86	19416.79
706.04	21532.34
706.22	23746.20
706.41	22369.96
706.59	16336.65
706.77	13567.79
706.96	11847.50
707.14	10831.71
707.32	9312.11
707.51	8253.31
707.69	6911.89
707.87	5851.05
708.06	4706.23
708.24	4327.36
708.42	4081.60
708.61	4290.49
708.79	3293.13
708.97	3348.43
709.16	3485.64
709.34	3497.93
709.52	3295.18
709.71	3280.85
709.89	3489.74
710.07	3284.94
710.26	3131.34
710.44	3145.68
710.62	3676.10
710.80	3444.68
710.99	3340.24
711.17	3332.05
711.35	3272.65
711.54	3256.27
711.72	3356.62
711.90	3262.41
712.09	3440.59
712.27	3332.05
712.45	3360.72
712.63	3188.69
712.82	3538.89
713.00	3395.53
713.18	3311.57
713.37	3352.52
713.55	3588.04
713.73	3592.14
713.91	3295.18
714.10	3180.50
714.28	3354.57
714.46	3534.79
714.65	3356.62
714.83	3221.45
715.01	3495.88
715.19	3452.88
715.38	3168.21
715.56	3375.05
715.74	3344.33
715.92	3231.69
716.11	3514.31
716.29	3016.66
716.47	3420.11
716.65	3467.21
716.84	3098.58
717.02	3282.89
717.20	3086.29
717.38	3278.80
717.57	3356.62
717.75	3196.88
717.93	3360.72
718.11	3563.47
718.30	3086.29
718.48	3188.69
718.66	3686.34
718.84	3649.48
719.03	3217.36
719.21	3061.71
719.39	3903.43
719.57	3692.49
719.75	3229.65
719.94	3196.88
720.12	3409.87
720.30	3454.92
720.48	3262.41
720.67	3166.16
720.85	3172.30
721.03	3362.76
721.21	3196.88
721.39	3276.75
721.58	3452.88
721.76	3512.27
721.94	3295.18
722.12	3291.09
722.30	3735.50
722.49	3352.52
722.67	3233.74
722.85	3196.88
723.03	3172.30
723.21	3346.38
723.40	3205.07
723.58	3323.85
723.76	3565.51
723.94	3641.29
724.12	3219.41
724.30	3440.59
724.49	3571.66
724.67	3237.84
724.85	3268.56
725.03	3061.71
725.21	3573.71
725.40	3696.58
725.58	3258.32
725.76	3459.02
725.94	3557.32
726.12	3311.57
726.30	3258.32
726.49	3190.74
726.67	3368.91
726.85	3563.47
727.03	3893.19
727.21	4886.45
727.39	6166.43
727.57	6311.84
727.76	6750.10
727.94	6733.72
728.12	6027.17
728.30	4919.22
728.48	4800.44
728.66	4519.87
728.84	4306.88
729.03	3895.24
729.21	3616.71
729.39	3592.14
729.57	3516.36
729.75	3502.03
729.93	3471.31
730.11	3106.77
730.30	3323.85
730.48	3461.07
730.66	3319.76
730.84	3307.47
731.02	3442.64
731.20	3332.05
731.38	3258.32
731.56	3049.43
731.74	3225.55
731.93	3465.16
732.11	3307.47
732.29	3188.69
732.47	3532.75
732.65	3520.46
732.83	3319.76
733.01	3272.65
733.19	3207.12
733.37	3649.48
733.56	3221.45
733.74	3041.23
733.92	3788.74
734.10	3346.38
734.28	3311.57
734.46	3022.80
734.64	3385.29
734.82	3334.09
735.00	3184.59
735.18	3172.30
735.36	3426.25
735.54	3428.30
735.73	3182.54
735.91	3336.14
736.09	3755.97
736.27	3452.88
736.45	3198.93
736.63	3008.47
736.81	3344.33
736.99	3665.86
737.17	3385.29
737.35	3106.77
737.53	3434.44
737.71	3321.81
737.89	3373.00
738.07	3155.92
738.25	3221.45
738.43	3114.96
738.61	3270.61
738.80	3063.76
738.98	3190.74
739.16	3305.42
739.34	3200.98
739.52	3567.56
739.70	3436.49
739.88	3596.23
740.06	3268.56
740.24	2944.98
740.42	3667.91
740.60	3157.97
740.78	3172.30
740.96	3078.10
741.14	3428.30
741.32	3504.07
741.50	3129.30
741.68	3385.29
741.86	3706.82
742.04	3164.11
742.22	3004.37
742.40	3160.02
742.58	3624.90
742.76	3340.24
742.94	3479.50
743.12	3033.04
743.30	3436.49
743.48	3534.79
743.66	3190.74
743.84	3198.93
744.02	3319.76
744.20	3416.01
744.38	3114.96
744.56	3180.50
744.74	3844.04
744.92	3573.71
745.10	3393.48
745.28	3241.93
745.46	3798.98
745.64	3373.00
745.82	3254.22
746.00	3086.29
746.18	3477.45
746.36	3223.50
746.54	3311.57
746.72	3252.17
746.90	3280.85
747.08	3653.58
747.26	3151.82
747.44	3282.89
747.62	3639.24
747.80	3459.02
747.98	3327.95
748.15	3233.74
748.33	3827.65
748.51	3469.26
748.69	3319.76
748.87	3106.77
749.05	3368.91
749.23	3381.20
749.41	3131.34
749.59	3141.58
749.77	3598.28
749.95	3340.24
750.13	3188.69
750.31	3336.14
750.49	3426.25
750.67	3663.82
750.85	3340.24
751.03	3184.59
751.20	3956.68
751.38	3469.26
751.56	3233.74
751.74	3237.84
751.92	3379.15
752.10	3278.80
752.28	3340.24
752.46	3157.97
752.64	3383.24
752.82	3352.52
753.00	3258.32
753.18	3069.91
753.35	3375.05
753.53	3323.85
753.71	3121.10
753.89	3160.02
754.07	3508.17
754.25	3647.43
754.43	3327.95
754.61	3133.39
754.79	3540.94
754.97	3358.67
755.14	3373.00
755.32	3088.34
755.50	3448.78
755.68	3467.21
755.86	3164.11
756.04	3170.26
756.22	3008.47
756.40	3659.72
756.57	3393.48
756.75	3127.25
756.93	3641.29
757.11	3721.16
757.29	3092.43
757.47	3082.19
757.65	3119.06
757.82	2918.36
758.00	3121.10
758.18	3106.77
758.36	3198.93
758.54	3811.27
758.72	3047.38
758.90	3278.80
759.07	3596.23
759.25	3282.89
759.43	3256.27
759.61	3114.96
759.79	4562.87
759.97	3674.06
760.15	3182.54
760.32	3149.78
760.50	3497.93
760.68	3858.37
760.86	3114.96
761.04	3459.02
761.22	3565.51
761.39	3440.59
761.57	3348.43
761.75	3188.69
761.93	3598.28
762.11	3315.66
762.28	3280.85
762.46	3188.69
762.64	3661.77
762.82	3114.96
763.00	3196.88
763.18	3452.88
763.35	3168.21
763.53	3565.51
763.71	3311.57
763.89	3209.17
764.07	3459.02
764.24	3475.40
764.42	3321.81
764.60	3182.54
764.78	3678.15
764.96	3655.62
765.13	3346.38
765.31	3071.95
765.49	3579.85
765.67	3227.60
765.84	3131.34
766.02	3119.06
766.20	3088.34
766.38	3583.95
766.56	3321.81
766.73	3307.47
766.91	3416.01
767.09	3459.02
767.27	3260.37
767.44	3041.23
767.62	3573.71
767.80	3454.92
767.98	3121.10
768.15	3215.31
768.33	3485.64
768.51	3577.80
768.69	3299.28
768.87	3155.92
769.04	3405.77
769.22	4061.12
769.40	3344.33
769.58	3377.10
769.75	3485.64
769.93	3686.34
770.11	3178.45
770.28	3139.54
770.46	3524.55
770.64	3422.16
770.82	3164.11
770.99	3053.52
771.17	3604.42
771.35	3338.19
771.53	3299.28
771.70	3131.34
771.88	3467.21
772.06	3407.82
772.23	3110.86
772.41	3241.93
772.59	3405.77
772.77	3291.09
772.94	3256.27
773.12	3276.75
773.30	3315.66
773.47	3450.83
773.65	3106.77
773.83	3383.24
774.01	3456.97
774.18	3127.25
774.36	3182.54
774.54	3108.82
774.71	3557.32
774.89	3141.58
775.07	3110.86
775.24	3203.02
775.42	3278.80
775.60	3821.51
775.78	3092.43
775.95	2996.18
776.13	3043.28
776.31	3190.74
776.48	3383.24
776.66	3442.64
776.84	3450.83
777.01	3295.18
777.19	3162.06
777.37	3096.53
777.54	3530.70
777.72	3921.86
777.90	3325.90
778.07	3143.63
778.25	4124.61
778.43	3688.39
778.60	3151.82
778.78	3295.18
778.96	3692.49
779.13	3102.67
779.31	3301.33
779.49	3229.65
779.66	3475.40
779.84	3272.65
780.01	3162.06
780.19	2994.13
780.37	3747.78
780.54	3635.14
780.72	2996.18
780.90	3160.02
781.07	3413.96
781.25	3254.22
781.43	3368.91
781.60	3123.15
781.78	3655.62
781.95	3538.89
782.13	3131.34
782.31	3190.74
782.48	3090.38
782.66	3475.40
782.83	3465.16
783.01	3264.46
783.19	3614.66
783.36	3375.05
783.54	3155.92
783.72	3278.80
783.89	3291.09
784.07	3508.17
784.24	3342.28
784.42	3387.34
784.60	3452.88
784.77	3491.79
784.95	2947.03
785.12	3176.40
785.30	3534.79
785.47	3182.54
785.65	3020.75
785.83	3278.80
786.00	3358.67
786.18	3461.07
786.35	3139.54
786.53	3112.91
786.71	3674.06
786.88	3629.00
787.06	3276.75
787.23	3268.56
787.41	3235.79
787.58	3348.43
787.76	3141.58
787.94	3254.22
788.11	3426.25
788.29	3229.65
788.46	3225.55
788.64	3022.80
788.81	3334.09
788.99	3205.07
789.16	3100.62
789.34	3233.74
789.52	3323.85
789.69	3336.14
789.87	3020.75
790.04	3160.02
790.22	3448.78
790.39	3719.11
790.57	3100.62
790.74	3076.05
790.92	3606.47
791.09	3108.82
791.27	3284.94
791.44	3272.65
791.62	3416.01
791.79	3522.51
791.97	3344.33
792.15	3577.80
792.32	3639.24
792.50	3565.51
792.67	3366.86
792.85	3559.37
793.02	3518.41
793.20	3422.16
793.37	3112.91
793.55	3117.01
793.72	3188.69
793.90	3571.66
794.07	3239.89
794.25	3051.47
794.42	3491.79
794.60	3373.00
794.77	3260.37
794.95	3321.81
795.12	3657.67
795.30	3321.81
795.47	2992.08
795.65	3549.13
795.82	3588.04
796.00	3254.22
796.17	3256.27
796.34	3149.78
796.52	3504.07
796.69	3637.19
796.87	3360.72
797.04	3434.44
797.22	3643.34
797.39	3426.25
797.57	3403.72
797.74	3256.27
797.92	3534.79
798.09	3248.08
798.27	3540.94
798.44	3053.52
798.62	3268.56
798.79	3418.06
798.96	3319.76
799.14	3215.31
799.31	3928.00
799.49	3364.81
799.66	3188.69
799.84	3274.70
800.01	3125.20
800.19	3534.79
800.36	2979.79
800.53	3268.56
800.71	3569.61
800.88	3770.31
801.06	3100.62
801.23	3225.55
801.41	3319.76
801.58	3348.43
801.75	3114.96
801.93	3332.05
802.10	3594.19
802.28	3346.38
802.45	3188.69
802.63	3332.05
802.80	3760.07
802.97	3280.85
803.15	3223.50
803.32	3135.44
803.50	3248.08
803.67	3246.03
803.84	3166.16
804.02	3356.62
804.19	3336.14
804.37	2987.99
804.54	2996.18
804.71	3129.30
804.89	3397.58
805.06	3258.32
805.24	3133.39
805.41	3059.67
805.58	3217.36
805.76	3936.20
805.93	3096.53
806.10	3364.81
806.28	3569.61
806.45	3446.73
806.63	3399.63
806.80	3215.31
806.97	3524.55
807.15	3487.69
807.32	3272.65
807.49	3239.89
807.67	3215.31
807.84	3598.28
808.01	2979.79
808.19	3305.42
808.36	3885.00
808.54	3332.05
808.71	3172.30
808.88	3114.96
809.06	3749.83
809.23	3674.06
809.40	3166.16
809.58	3131.34
809.75	3459.02
809.92	3100.62
810.10	3434.44
810.27	3315.66
810.44	3547.08
810.62	3583.95
810.79	3172.30
810.96	3160.02
811.14	3393.48
811.31	3606.47
811.48	3395.53
811.66	3264.46
811.83	3667.91
812.00	3495.88
812.18	3325.90
812.35	3524.55
812.52	3286.99
812.69	3264.46
812.87	3254.22
813.04	3100.62
813.21	3370.96
813.39	3241.93
813.56	3143.63
813.73	3436.49
813.91	3172.30
814.08	3397.58
814.25	3262.41
814.42	3051.47
814.60	3418.06
814.77	3459.02
814.94	3090.38
815.12	3254.22
815.29	3745.73
815.46	3246.03
815.63	3178.45
815.81	3135.44
815.98	3360.72
816.15	3397.58
816.33	3330.00
816.50	3139.54
816.67	3446.73
816.84	3319.76
817.02	3119.06
817.19	3207.12
817.36	3456.97
817.53	3436.49
817.71	3022.80
817.88	3155.92
818.05	3338.19
818.22	3424.20
818.40	3454.92
818.57	3229.65
818.74	3504.07
818.91	3311.57
819.09	3381.20
819.26	3264.46
819.43	3284.94
819.60	3252.17
819.78	3342.28
819.95	3190.74
820.12	3182.54
820.29	3821.51
820.47	3475.40
820.64	3082.19
820.81	3209.17
820.98	3266.51
821.15	3246.03
821.33	3352.52
821.50	3094.48
821.67	3610.57
821.84	3188.69
822.02	3143.63
822.19	3592.14
822.36	3344.33
822.53	3178.45
822.70	3082.19
822.88	3348.43
823.05	3770.31
823.22	3295.18
823.39	3190.74
823.56	3448.78
823.74	3893.19
823.91	3088.34
824.08	3127.25
824.25	3205.07
824.42	3784.65
824.60	3020.75
824.77	3248.08
824.94	3334.09
825.11	3522.51
825.28	3074.00
825.45	3393.48
825.63	3532.75
825.80	3305.42
825.97	3207.12
826.14	3250.13
826.31	3080.14
826.48	3651.53
826.66	3131.34
826.83	3143.63
827.00	3340.24
827.17	3190.74
827.34	3211.22
827.51	3155.92
827.69	3401.68
827.86	3153.87
828.03	3217.36
828.20	3284.94
828.37	3307.47
828.54	3481.55
828.71	3133.39
828.89	3364.81
829.06	3444.68
829.23	3704.78
829.40	3209.17
829.57	3119.06
829.74	3561.42
829.91	3256.27
830.09	3200.98
830.26	3299.28
830.43	3727.30
830.60	3344.33
830.77	3301.33
830.94	3409.87
831.11	3493.83
831.28	3221.45
831.46	3364.81
831.63	3114.96
831.80	3717.06
831.97	3264.46
832.14	3252.17
832.31	3225.55
832.48	3416.01
832.65	3690.44
832.82	3327.95
832.99	3280.85
833.17	3196.88
833.34	3766.21
833.51	3108.82
833.68	2961.36
833.85	3620.81
834.02	3235.79
834.19	3088.34
834.36	3223.50
834.53	3454.92
834.70	3616.71
834.87	3090.38
835.04	2951.12
835.22	3330.00
835.39	3422.16
835.56	3016.66
835.73	3065.81
835.90	3688.39
836.07	3252.17
836.24	3200.98
836.41	2947.03
836.58	3235.79
836.75	3583.95
836.92	2992.08
837.09	2955.22
837.26	3659.72
837.43	3463.12
837.60	3049.43
837.77	3049.43
837.94	3622.86
838.12	3706.82
838.29	2951.12
838.46	2926.55
838.63	3184.59
838.80	3856.33
838.97	3018.71
839.14	3074.00
839.31	3452.88
839.48	3551.18
839.65	2979.79
839.82	3112.91
839.99	3459.02
840.16	3516.36
840.33	2967.51
840.50	3051.47
840.67	3311.57
840.84	2953.17
841.01	2979.79
841.18	3018.71
841.35	3428.30
841.52	3526.60
841.69	3262.41
841.86	3188.69
842.03	3467.21
842.20	3672.01
842.37	2961.36
842.54	3110.86
842.71	3434.44
842.88	3071.95
843.05	3045.33
843.22	2918.36
843.39	3643.34
843.56	3260.37
843.73	2975.70
843.90	3076.05
844.07	3352.52
844.24	3651.53
844.41	3131.34
844.58	3053.52
844.75	3459.02
844.92	3495.88
845.09	3010.51
845.26	3067.86
845.43	3524.55
845.60	3364.81
845.77	3121.10
845.94	3190.74
846.10	3565.51
846.27	3110.86
846.44	2875.35
846.61	2881.49
846.78	3538.89
846.95	3594.19
847.12	2928.60
847.29	3049.43
847.46	3307.47
847.63	3637.19
847.80	2973.65
847.97	3037.14
848.14	3977.16
848.31	3303.37
848.48	2879.44
848.65	2961.36
848.82	3332.05
848.98	3938.24
849.15	3149.78
849.32	3106.77
849.49	3651.53
849.66	3360.72
849.83	3004.37
850.00	2922.45
850.17	3565.51
850.34	3336.14
850.51	2979.79
850.68	2981.84
850.85	3954.63
851.01	3485.64
851.18	3000.27
851.35	2983.89
851.52	3520.46
851.69	3739.59
851.86	2912.21
852.03	2904.02
852.20	3549.13
852.37	3528.65
852.53	2889.68
852.70	2959.31
852.87	3518.41
853.04	3618.76
853.21	2987.99
853.38	3270.61
853.55	3696.58
853.72	3710.92
853.89	2910.16
854.05	2955.22
854.22	3467.21
854.39	3436.49
854.56	2895.83
854.73	3207.12
854.90	3209.17
855.07	3434.44
855.23	2936.79
855.40	2942.93
855.57	3373.00
855.74	2938.84
855.91	3209.17
856.08	2840.53
856.25	3196.88
856.41	3321.81
856.58	3018.71
856.75	3106.77
856.92	3174.35
857.09	3616.71
857.26	2871.25
857.42	3053.52
857.59	3686.34
857.76	3313.61
857.93	2949.08
858.10	3123.15
858.27	3192.78
858.43	3518.41
858.60	2961.36
858.77	2899.92
858.94	3303.37
859.11	3737.54
859.27	3094.48
859.44	2969.55
859.61	3897.28
859.78	3573.71
859.95	3071.95
860.12	2975.70
860.28	3944.39
860.45	3907.52
860.62	2932.69
860.79	3123.15
860.95	3375.05
861.12	3278.80
861.29	2987.99
861.46	3033.04
861.63	3375.05
861.79	3499.98
861.96	2904.02
862.13	3012.56
862.30	3815.37
862.47	3301.33
862.63	2873.30
862.80	3014.61
862.97	3643.34
863.14	3450.83
863.30	3061.71
863.47	2969.55
863.64	3708.87
863.81	3563.47
863.97	2932.69
864.14	3078.10
864.31	3401.68
864.48	3448.78
864.65	3059.67
864.81	3114.96
864.98	3518.41
865.15	3610.57
865.32	3035.09
865.48	3117.01
865.65	3813.32
865.82	3280.85
865.98	3131.34
866.15	3065.81
866.32	3387.34
866.49	3354.57
866.65	3127.25
866.82	3078.10
866.99	3452.88
867.16	3262.41
867.32	2965.46
867.49	2914.26
867.66	3332.05
867.83	3354.57
867.99	2932.69
868.16	3106.77
868.33	3117.01
868.49	3454.92
868.66	3006.42
868.83	3131.34
868.99	3383.24
869.16	3405.77
869.33	3172.30
869.50	3219.41
869.66	3479.50
869.83	3424.20
870.00	2873.30
870.16	3155.92
870.33	3377.10
870.50	3547.08
870.66	3131.34
870.83	3037.14
871.00	3465.16
871.17	3577.80
871.33	3080.14
871.50	2979.79
871.67	3362.76
871.83	3133.39
872.00	3104.72
872.17	3065.81
872.33	3891.14
872.50	3778.50
872.67	3026.90
872.83	2944.98
873.00	3479.50
873.17	3485.64
873.33	3086.29
873.50	3065.81
873.67	3188.69
873.83	3237.84
874.00	3063.76
874.16	3217.36
874.33	3487.69
874.50	3172.30
874.66	2920.40
874.83	3125.20
875.00	3719.11
875.16	3581.90
875.33	3002.32
875.50	2775.00
875.66	3375.05
875.83	3459.02
875.99	3092.43
876.16	3178.45
876.33	3196.88
876.49	3434.44
876.66	3067.86
876.83	3045.33
876.99	3094.48
877.16	3301.33
877.32	3012.56
877.49	3110.86
877.66	3459.02
877.82	3749.83
877.99	3076.05
878.15	3375.05
878.32	3434.44
878.49	3528.65
878.65	3135.44
878.82	3401.68
878.98	3368.91
879.15	3590.09
879.32	3194.83
879.48	3239.89
879.65	3436.49
879.81	3311.57
879.98	3028.95
880.15	3043.28
880.31	3604.42
880.48	3190.74
880.64	3135.44
880.81	3176.40
880.97	3803.08
881.14	3712.97
881.31	2944.98
881.47	3164.11
881.64	3319.76
881.80	3041.23
881.97	3170.26
882.13	3078.10
882.30	3190.74
882.47	3241.93
882.63	3012.56
882.80	3016.66
882.96	3319.76
883.13	3606.47
883.29	3051.47
883.46	2940.88
883.62	3893.19
883.79	3450.83
883.95	3250.13
884.12	2918.36
884.29	3700.68
884.45	3397.58
884.62	3041.23
884.78	3076.05
884.95	3755.97
885.11	3176.40
885.28	3117.01
885.44	3067.86
885.61	3534.79
885.77	3665.86
885.94	3313.61
886.10	3100.62
886.27	3459.02
886.43	3848.13
886.60	3188.69
886.76	3002.32
886.93	3241.93
887.09	3477.45
887.26	2926.55
887.42	3131.34
887.59	3745.73
887.75	3878.85
887.92	3192.78
888.08	3188.69
888.25	3868.61
888.41	3559.37
888.58	3082.19
888.74	2959.31
888.91	3430.35
>>>>>End Processed Spectral Data<<<<<
