SpectraSuite Data File
++++++++++++++++++++++++++++++++++++
Date: Fri May 06 09:29:19 CEST 2016
User: root
Dark Spectrum Present: No
Reference Spectrum Present: No
Number of Sampled Component Spectra: 1
Spectrometers: USB4C02835
Integration Time (usec): 100000 (USB4C02835)
Spectra Averaged: 1 (USB4C02835)
Boxcar Smoothing: 0 (USB4C02835)
Correct for Electrical Dark: No (USB4C02835)
Strobe/Lamp Enabled: No (USB4C02835)
Correct for Detector Non-linearity: No (USB4C02835)
Correct for Stray Light: No (USB4C02835)
Number of Pixels in Processed Spectrum: 3648
>>>>>Begin Processed Spectral Data<<<<<
177.47	2330.59
177.69	2330.59
177.91	2330.59
178.13	2357.21
178.36	2371.55
178.58	3184.59
178.80	3190.74
179.02	3184.59
179.24	3243.98
179.46	2822.10
179.68	2926.55
179.90	3360.72
180.13	3540.94
180.35	2725.85
180.57	2926.55
180.79	3631.05
181.01	3327.95
181.23	2936.79
181.45	3123.15
181.67	3672.01
181.90	3723.21
182.12	3043.28
182.34	2809.81
182.56	3606.47
182.78	3585.99
183.00	2938.84
183.22	2987.99
183.44	3033.04
183.66	4079.55
183.89	3121.10
184.11	2949.08
184.33	3590.09
184.55	3647.43
184.77	2959.31
184.99	2957.27
185.21	3407.82
185.43	4093.89
185.65	2938.84
185.87	2885.59
186.10	4018.11
186.32	4069.31
186.54	3127.25
186.76	3106.77
186.98	3649.48
187.20	3379.15
187.42	3100.62
187.64	2924.50
187.86	3598.28
188.08	3762.12
188.30	2889.68
188.52	2979.79
188.75	3706.82
188.97	3778.50
189.19	2967.51
189.41	2926.55
189.63	3651.53
189.85	3395.53
190.07	2818.00
190.29	2791.38
190.51	3549.13
190.73	3168.21
190.95	3108.82
191.17	3045.33
191.39	3112.91
191.61	3311.57
191.84	3006.42
192.06	3180.50
192.28	3039.19
192.50	4184.00
192.72	3119.06
192.94	3006.42
193.16	3712.97
193.38	3604.42
193.60	2848.72
193.82	3190.74
194.04	3753.93
194.26	3518.41
194.48	3006.42
194.70	2901.97
194.92	3332.05
195.14	3626.95
195.36	2924.50
195.58	2998.23
195.80	3368.91
196.02	3315.66
196.24	2840.53
196.46	3071.95
196.69	3354.57
196.91	3932.10
197.13	2893.78
197.35	3037.14
197.57	3786.69
197.79	3598.28
198.01	3041.23
198.23	3010.51
198.45	3655.62
198.67	3157.97
198.89	2824.15
199.11	3133.39
199.33	3297.23
199.55	2947.03
199.77	2895.83
199.99	3129.30
200.21	3373.00
200.43	3477.45
200.65	2762.71
200.87	2756.57
201.09	3473.36
201.31	3389.39
201.53	2981.84
201.75	3010.51
201.97	3565.51
202.19	3391.44
202.41	3100.62
202.63	3018.71
202.85	3598.28
203.07	3561.42
203.29	3125.20
203.51	2861.01
203.73	3330.00
203.95	4147.14
204.17	2973.65
204.39	3108.82
204.61	3356.62
204.83	3350.48
205.05	3213.26
205.27	2977.75
205.49	3864.52
205.71	3499.98
205.93	2875.35
206.15	2940.88
206.37	3438.54
206.59	3430.35
206.81	2811.86
207.03	2924.50
207.25	3286.99
207.47	3565.51
207.69	3028.95
207.91	3188.69
208.13	3893.19
208.34	3330.00
208.56	2916.31
208.78	3037.14
209.00	3397.58
209.22	3360.72
209.44	2985.94
209.66	2910.16
209.88	3360.72
210.10	3461.07
210.32	2996.18
210.54	3049.43
210.76	3383.24
210.98	3807.17
211.20	2848.72
211.42	2998.23
211.64	3844.04
211.86	3561.42
212.08	2977.75
212.30	2942.93
212.52	3401.68
212.74	3616.71
212.96	3114.96
213.17	3000.27
213.39	3536.84
213.61	3864.52
213.83	2805.72
214.05	2811.86
214.27	3741.64
214.49	3291.09
214.71	2934.74
214.93	3059.67
215.15	3491.79
215.37	3643.34
215.59	2848.72
215.81	3049.43
216.03	3729.35
216.24	3475.40
216.46	2914.26
216.68	3008.47
216.90	3626.95
217.12	3657.67
217.34	2918.36
217.56	3147.73
217.78	3792.84
218.00	3573.71
218.22	2983.89
218.44	3018.71
218.66	3479.50
218.87	3837.89
219.09	3024.85
219.31	2953.17
219.53	3536.84
219.75	3377.10
219.97	3024.85
220.19	2969.55
220.41	3489.74
220.63	3749.83
220.85	2928.60
221.06	2967.51
221.28	3837.89
221.50	3633.10
221.72	3000.27
221.94	2852.82
222.16	3446.73
222.38	3645.38
222.60	2906.07
222.82	3000.27
223.03	3684.30
223.25	3239.89
223.47	2977.75
223.69	3250.13
223.91	3573.71
224.13	3413.96
224.35	2822.10
224.57	3172.30
224.78	3692.49
225.00	3207.12
225.22	3074.00
225.44	2877.40
225.66	3688.39
225.88	3454.92
226.10	3102.67
226.32	2965.46
226.53	3835.85
226.75	3297.23
226.97	3125.20
227.19	2951.12
227.41	3260.37
227.63	3336.14
227.85	2842.58
228.06	2949.08
228.28	3504.07
228.50	3665.86
228.72	2797.53
228.94	2873.30
229.16	3078.10
229.37	3229.65
229.59	2901.97
229.81	3194.83
230.03	3389.39
230.25	3078.10
230.47	2850.77
230.69	3002.32
230.90	3653.58
231.12	3319.76
231.34	3059.67
231.56	3078.10
231.78	3291.09
232.00	3471.31
232.21	3002.32
232.43	3028.95
232.65	3008.47
232.87	3590.09
233.09	2883.54
233.30	2885.59
233.52	3704.78
233.74	3475.40
233.96	2953.17
234.18	3190.74
234.40	3368.91
234.61	4044.74
234.83	2877.40
235.05	2947.03
235.27	4024.26
235.49	3835.85
235.70	2910.16
235.92	2969.55
236.14	3571.66
236.36	4059.07
236.58	2824.15
236.79	3080.14
237.01	3456.97
237.23	3422.16
237.45	3176.40
237.67	3102.67
237.88	3610.57
238.10	3850.18
238.32	2930.64
238.54	2906.07
238.76	3405.77
238.97	3215.31
239.19	2818.00
239.41	3012.56
239.63	3682.25
239.85	3307.47
240.06	2990.03
240.28	3065.81
240.50	3731.40
240.72	3461.07
240.93	2854.87
241.15	3082.19
241.37	3403.72
241.59	3747.78
241.81	2992.08
242.02	3098.58
242.24	3475.40
242.46	3633.10
242.68	2746.33
242.89	2924.50
243.11	3635.14
243.33	3356.62
243.55	2975.70
243.76	2967.51
243.98	3266.51
244.20	3420.11
244.42	2947.03
244.64	2914.26
244.85	3123.15
245.07	3291.09
245.29	2906.07
245.51	3016.66
245.72	3559.37
245.94	3698.63
246.16	2889.68
246.38	3045.33
246.59	3340.24
246.81	3250.13
247.03	2901.97
247.24	2869.20
247.46	3358.67
247.68	3538.89
247.90	2901.97
248.11	2979.79
248.33	3567.56
248.55	3436.49
248.77	2963.41
248.98	3078.10
249.20	3782.60
249.42	3532.75
249.64	2955.22
249.85	2865.11
250.07	3373.00
250.29	3680.20
250.50	3008.47
250.72	2912.21
250.94	3538.89
251.16	4083.65
251.37	2914.26
251.59	3037.14
251.81	3528.65
252.02	3844.04
252.24	2877.40
252.46	3147.73
252.68	3319.76
252.89	3370.96
253.11	2748.37
253.33	3100.62
253.54	3741.64
253.76	3200.98
253.98	2996.18
254.20	3000.27
254.41	3127.25
254.63	3456.97
254.85	2854.87
255.06	3061.71
255.28	3579.85
255.50	3362.76
255.71	2930.64
255.93	2811.86
256.15	3442.64
256.36	3518.41
256.58	2838.48
256.80	2901.97
257.02	3401.68
257.23	3334.09
257.45	3055.57
257.67	3123.15
257.88	3286.99
258.10	3602.38
258.32	3045.33
258.53	2985.94
258.75	3833.80
258.97	3233.74
259.18	2834.39
259.40	2899.92
259.62	3889.09
259.83	3753.93
260.05	3063.76
260.27	3975.11
260.48	3629.00
260.70	3272.65
260.92	2856.92
261.13	2940.88
261.35	3530.70
261.57	3555.27
261.78	2846.68
262.00	2889.68
262.22	3606.47
262.43	3233.74
262.65	3008.47
262.86	3028.95
263.08	3944.39
263.30	3426.25
263.51	2824.15
263.73	2985.94
263.95	3741.64
264.16	3272.65
264.38	2889.68
264.60	2861.01
264.81	3452.88
265.03	3737.54
265.25	3418.06
265.46	2824.15
265.68	3772.36
265.89	3633.10
266.11	2934.74
266.33	2922.45
266.54	3770.31
266.76	3561.42
266.98	3067.86
267.19	3155.92
267.41	3772.36
267.62	3442.64
267.84	2781.14
268.06	3043.28
268.27	3428.30
268.49	3655.62
268.70	2953.17
268.92	3047.38
269.14	3248.08
269.35	3125.20
269.57	3106.77
269.79	2990.03
270.00	3319.76
270.22	3876.80
270.43	2865.11
270.65	2846.68
270.87	3518.41
271.08	3635.14
271.30	3045.33
271.51	2996.18
271.73	3579.85
271.95	3770.31
272.16	2871.25
272.38	3082.19
272.59	3327.95
272.81	3502.03
273.02	2883.54
273.24	2977.75
273.46	3784.65
273.67	3155.92
273.89	2707.41
274.10	2918.36
274.32	3755.97
274.54	3561.42
274.75	3080.14
274.97	3157.97
275.18	3641.29
275.40	3549.13
275.61	2998.23
275.83	3145.68
276.05	3233.74
276.26	3430.35
276.48	3149.78
276.69	3100.62
276.91	3377.10
277.12	3753.93
277.34	3082.19
277.55	3266.51
277.77	3467.21
277.99	3395.53
278.20	3094.48
278.42	3010.51
278.63	3309.52
278.85	3248.08
279.06	3086.29
279.28	3215.31
279.49	3696.58
279.71	3579.85
279.93	3188.69
280.14	3207.12
280.36	3315.66
280.57	3780.55
280.79	3184.59
281.00	3000.27
281.22	3332.05
281.43	3645.38
281.65	2891.73
281.86	3000.27
282.08	3585.99
282.29	3794.89
282.51	3006.42
282.73	3049.43
282.94	3270.61
283.16	3606.47
283.37	3157.97
283.59	3076.05
283.80	3559.37
284.02	3393.48
284.23	3119.06
284.45	3198.93
284.66	3311.57
284.88	3266.51
285.09	2967.51
285.31	3121.10
285.52	3448.78
285.74	3221.45
285.95	3268.56
286.17	3108.82
286.38	3674.06
286.60	3338.19
286.81	3018.71
287.03	3059.67
287.24	3375.05
287.46	3551.18
287.67	3203.02
287.89	3332.05
288.10	3381.20
288.32	3469.26
288.53	3264.46
288.75	3143.63
288.96	3512.27
289.18	3319.76
289.39	2967.51
289.61	3248.08
289.82	3876.80
290.04	3819.46
290.25	3004.37
290.47	3112.91
290.68	3397.58
290.90	3633.10
291.11	2967.51
291.33	3284.94
291.54	3209.17
291.76	3340.24
291.97	3151.82
292.18	3209.17
292.40	3323.85
292.61	3311.57
292.83	3346.38
293.04	3131.34
293.26	3567.56
293.47	3403.72
293.69	3131.34
293.90	3002.32
294.12	3753.93
294.33	3491.79
294.55	3205.07
294.76	3235.79
294.97	3712.97
295.19	3946.44
295.40	3051.47
295.62	3192.78
295.83	3626.95
296.05	3299.28
296.26	3321.81
296.48	3057.62
296.69	3452.88
296.90	3446.73
297.12	3266.51
297.33	3246.03
297.55	3520.46
297.76	3616.71
297.98	3172.30
298.19	3252.17
298.41	3397.58
298.62	3299.28
298.83	3246.03
299.05	3207.12
299.26	3452.88
299.48	3182.54
299.69	3119.06
299.90	3137.49
300.12	3217.36
300.33	3631.05
300.55	3164.11
300.76	3119.06
300.98	3135.44
301.19	3585.99
301.40	3194.83
301.62	3045.33
301.83	3598.28
302.05	3454.92
302.26	3051.47
302.47	3157.97
302.69	3131.34
302.90	3430.35
303.12	2947.03
303.33	3215.31
303.54	3880.90
303.76	3336.14
303.97	2987.99
304.19	3250.13
304.40	3258.32
304.61	3534.79
304.83	3190.74
305.04	3119.06
305.26	3647.43
305.47	3246.03
305.68	3067.86
305.90	3041.23
306.11	3698.63
306.33	3465.16
306.54	2957.27
306.75	2985.94
306.97	3205.07
307.18	3250.13
307.39	3096.53
307.61	3172.30
307.82	3487.69
308.04	3592.14
308.25	2961.36
308.46	3231.69
308.68	3442.64
308.89	3454.92
309.10	3172.30
309.32	3078.10
309.53	3508.17
309.74	3526.60
309.96	3024.85
310.17	3174.35
310.39	3233.74
310.60	3526.60
310.81	3176.40
311.03	3065.81
311.24	3590.09
311.45	3389.39
311.67	3315.66
311.88	3231.69
312.09	3399.63
312.31	3303.37
312.52	2979.79
312.73	3059.67
312.95	3176.40
313.16	3295.18
313.37	3330.00
313.59	3303.37
313.80	3657.67
314.01	3823.56
314.23	3157.97
314.44	3045.33
314.65	3207.12
314.87	3188.69
315.08	3092.43
315.29	3086.29
315.51	3344.33
315.72	3127.25
315.93	3237.84
316.15	3160.02
316.36	3301.33
316.57	3428.30
316.79	3117.01
317.00	3000.27
317.21	3553.23
317.43	3266.51
317.64	3106.77
317.85	3057.62
318.07	3319.76
318.28	3364.81
318.49	3176.40
318.70	3305.42
318.92	3340.24
319.13	3428.30
319.34	3262.41
319.56	3055.57
319.77	3502.03
319.98	3549.13
320.20	3385.29
320.41	3274.70
320.62	3553.23
320.83	3196.88
321.05	3332.05
321.26	3117.01
321.47	3508.17
321.69	3663.82
321.90	3020.75
322.11	3129.30
322.32	3491.79
322.54	3786.69
322.75	3166.16
322.96	4175.81
323.18	3106.77
323.39	3026.90
323.60	2971.60
323.81	3188.69
324.03	3252.17
324.24	3405.77
324.45	3223.50
324.66	3010.51
324.88	3770.31
325.09	3829.70
325.30	3127.25
325.52	2996.18
325.73	3534.79
325.94	3203.02
326.15	2959.31
326.37	2959.31
326.58	3620.81
326.79	3782.60
327.00	3053.52
327.22	3071.95
327.43	3385.29
327.64	3231.69
327.85	3231.69
328.07	3090.38
328.28	3930.05
328.49	3352.52
328.70	3090.38
328.92	3028.95
329.13	3459.02
329.34	3542.99
329.55	3299.28
329.76	3303.37
329.98	3358.67
330.19	3651.53
330.40	3170.26
330.61	3254.22
330.83	3573.71
331.04	3272.65
331.25	3160.02
331.46	3237.84
331.68	3198.93
331.89	3686.34
332.10	3149.78
332.31	2987.99
332.52	3499.98
332.74	3645.38
332.95	2987.99
333.16	3135.44
333.37	3655.62
333.58	3336.14
333.80	3127.25
334.01	2928.60
334.22	3356.62
334.43	3370.96
334.64	3008.47
334.86	3049.43
335.07	3280.85
335.28	3790.79
335.49	3018.71
335.70	3178.45
335.92	3745.73
336.13	3901.38
336.34	3112.91
336.55	3049.43
336.76	3532.75
336.98	3045.33
337.19	3102.67
337.40	3100.62
337.61	3925.96
337.82	3411.92
338.04	3178.45
338.25	3002.32
338.46	3385.29
338.67	3440.59
338.88	3033.04
339.09	2983.89
339.31	3338.19
339.52	3198.93
339.73	3041.23
339.94	3125.20
340.15	3553.23
340.36	3315.66
340.58	3237.84
340.79	3010.51
341.00	3559.37
341.21	3160.02
341.42	3407.82
341.63	3102.67
341.85	3751.88
342.06	3526.60
342.27	3055.57
342.48	3297.23
342.69	3219.41
342.90	3479.50
343.12	3624.90
343.33	2983.89
343.54	3712.97
343.75	3735.50
343.96	3264.46
344.17	3041.23
344.38	3401.68
344.60	3246.03
344.81	3071.95
345.02	3061.71
345.23	3739.59
345.44	4007.87
345.65	3170.26
345.86	3209.17
346.07	3516.36
346.29	3248.08
346.50	3325.90
346.71	3205.07
346.92	3694.54
347.13	3860.42
347.34	3227.60
347.55	3020.75
347.76	3528.65
347.98	3114.96
348.19	3141.58
348.40	3229.65
348.61	3330.00
348.82	3864.52
349.03	3162.06
349.24	2983.89
349.45	3788.74
349.66	3061.71
349.88	3026.90
350.09	2994.13
350.30	3764.17
350.51	3778.50
350.72	3252.17
350.93	3063.76
351.14	3342.28
351.35	3549.13
351.56	3137.49
351.77	3188.69
351.99	3422.16
352.20	3684.30
352.41	3151.82
352.62	2893.78
352.83	3446.73
353.04	3428.30
353.25	3084.24
353.46	3033.04
353.67	3641.29
353.88	2981.84
354.09	2992.08
354.30	3131.34
354.52	3600.33
354.73	3368.91
354.94	3114.96
355.15	3164.11
355.36	3844.04
355.57	3336.14
355.78	3055.57
355.99	3082.19
356.20	3362.76
356.41	3698.63
356.62	3231.69
356.83	3186.64
357.04	3696.58
357.25	3074.00
357.46	3135.44
357.68	2996.18
357.89	3250.13
358.10	3428.30
358.31	3071.95
358.52	3110.86
358.73	3219.41
358.94	3188.69
359.15	3078.10
359.36	3178.45
359.57	3510.22
359.78	3424.20
359.99	3319.76
360.20	3059.67
360.41	3358.67
360.62	3542.99
360.83	3205.07
361.04	3088.34
361.25	3536.84
361.46	3786.69
361.67	3272.65
361.88	3110.86
362.09	3653.58
362.30	3549.13
362.51	3049.43
362.72	3192.78
362.93	3608.52
363.14	3624.90
363.35	3262.41
363.56	3030.99
363.78	3657.67
363.99	3682.25
364.20	3084.24
364.41	3180.50
364.62	3807.17
364.83	3411.92
365.04	3106.77
365.25	3200.98
365.46	3942.34
365.67	3272.65
365.88	3362.76
366.09	3162.06
366.30	3307.47
366.51	3540.94
366.72	3069.91
366.93	3008.47
367.14	3450.83
367.35	3643.34
367.56	3006.42
367.77	3137.49
367.98	3483.59
368.18	3581.90
368.39	3256.27
368.60	3108.82
368.81	3590.09
369.02	3545.03
369.23	3112.91
369.44	2944.98
369.65	3370.96
369.86	3618.76
370.07	3223.50
370.28	3086.29
370.49	3540.94
370.70	3491.79
370.91	2981.84
371.12	3008.47
371.33	3704.78
371.54	3336.14
371.75	3131.34
371.96	2820.05
372.17	3495.88
372.38	3418.06
372.59	3092.43
372.80	3121.10
373.01	3409.87
373.22	3573.71
373.43	3106.77
373.64	2932.69
373.85	3665.86
374.06	3833.80
374.26	3336.14
374.47	3246.03
374.68	3758.02
374.89	3430.35
375.10	3061.71
375.31	3172.30
375.52	3467.21
375.73	3489.74
375.94	2920.40
376.15	3221.45
376.36	3289.04
376.57	3325.90
376.78	3139.54
376.99	3172.30
377.20	3612.62
377.40	3299.28
377.61	3483.59
377.82	3110.86
378.03	3794.89
378.24	3524.55
378.45	3239.89
378.66	3227.60
378.87	3098.58
379.08	3100.62
379.29	3149.78
379.50	3246.03
379.71	3438.54
379.91	3592.14
380.12	3045.33
380.33	3160.02
380.54	3524.55
380.75	3385.29
380.96	3155.92
381.17	3188.69
381.38	3311.57
381.59	3444.68
381.80	3194.83
382.00	3280.85
382.21	3528.65
382.42	3674.06
382.63	3542.99
382.84	3303.37
383.05	3590.09
383.26	3639.24
383.47	3325.90
383.68	3084.24
383.88	3475.40
384.09	3426.25
384.30	3379.15
384.51	3190.74
384.72	3295.18
384.93	3114.96
385.14	3248.08
385.35	3395.53
385.55	3213.26
385.76	3665.86
385.97	3172.30
386.18	3016.66
386.39	3188.69
386.60	3401.68
386.81	3000.27
387.02	3123.15
387.22	3186.64
387.43	3600.33
387.64	3239.89
387.85	3467.21
388.06	3438.54
388.27	4423.61
388.48	7196.56
388.68	11128.66
388.89	13727.53
389.10	14608.16
389.31	14376.74
389.52	11712.33
389.73	10227.56
389.93	9619.31
390.14	8509.31
390.35	7960.45
390.56	7440.27
390.77	6199.20
390.98	4831.16
391.18	4073.41
391.39	3887.04
391.60	3393.48
391.81	3418.06
392.02	3211.22
392.23	3899.33
392.43	3448.78
392.64	3178.45
392.85	3264.46
393.06	3764.17
393.27	3434.44
393.47	3127.25
393.68	3256.27
393.89	3364.81
394.10	3698.63
394.31	3061.71
394.52	3106.77
394.72	3289.04
394.93	3676.10
395.14	2951.12
395.35	3217.36
395.56	3373.00
395.76	3348.43
395.97	3110.86
396.18	3286.99
396.39	3407.82
396.60	4036.55
396.80	3461.07
397.01	3391.44
397.22	3610.57
397.43	3663.82
397.64	3098.58
397.84	3196.88
398.05	3860.42
398.26	3520.46
398.47	3295.18
398.67	3323.85
398.88	3473.36
399.09	3536.84
399.30	3160.02
399.51	3266.51
399.71	3301.33
399.92	3446.73
400.13	3254.22
400.34	3112.91
400.54	3401.68
400.75	3815.37
400.96	3166.16
401.17	3418.06
401.37	3581.90
401.58	3520.46
401.79	3114.96
402.00	3196.88
402.21	3987.40
402.41	3518.41
402.62	3407.82
402.83	3532.75
403.04	3739.59
403.24	4261.82
403.45	3293.13
403.66	3413.96
403.87	3612.62
404.07	3749.83
404.28	3377.10
404.49	3450.83
404.70	3518.41
404.90	3649.48
405.11	3184.59
405.32	3233.74
405.52	3260.37
405.73	3352.52
405.94	3106.77
406.15	3262.41
406.35	3493.83
406.56	3690.44
406.77	3196.88
406.98	3145.68
407.18	3256.27
407.39	3893.19
407.60	3135.44
407.80	3280.85
408.01	3342.28
408.22	3577.80
408.43	3053.52
408.63	3327.95
408.84	3649.48
409.05	3678.15
409.25	3000.27
409.46	3186.64
409.67	3348.43
409.88	3325.90
410.08	3157.97
410.29	3129.30
410.50	3622.86
410.70	3516.36
410.91	2981.84
411.12	3235.79
411.32	3493.83
411.53	3282.89
411.74	3174.35
411.95	3157.97
412.15	3518.41
412.36	3534.79
412.57	3321.81
412.77	3289.04
412.98	3305.42
413.19	3381.20
413.39	3237.84
413.60	3196.88
413.81	3735.50
414.01	3231.69
414.22	3221.45
414.43	3330.00
414.63	3344.33
414.84	3585.99
415.05	3231.69
415.25	3018.71
415.46	3561.42
415.67	3295.18
415.87	3160.02
416.08	3151.82
416.29	3311.57
416.49	3655.62
416.70	3131.34
416.91	3176.40
417.11	3440.59
417.32	3624.90
417.53	3221.45
417.73	3192.78
417.94	3440.59
418.15	3493.83
418.35	3286.99
418.56	3270.61
418.77	3952.58
418.97	3416.01
419.18	3360.72
419.38	2930.64
419.59	3461.07
419.80	3790.79
420.00	3035.09
420.21	3166.16
420.42	3612.62
420.62	3547.08
420.83	3114.96
421.04	3094.48
421.24	3440.59
421.45	3579.85
421.65	3198.93
421.86	3178.45
422.07	3663.82
422.27	3477.45
422.48	3078.10
422.69	3008.47
422.89	3493.83
423.10	3385.29
423.30	3125.20
423.51	3178.45
423.72	3563.47
423.92	3624.90
424.13	2979.79
424.33	3231.69
424.54	3624.90
424.75	3573.71
424.95	3401.68
425.16	3137.49
425.36	3422.16
425.57	3626.95
425.78	3274.70
425.98	3254.22
426.19	3350.48
426.39	3248.08
426.60	3246.03
426.81	3272.65
427.01	3520.46
427.22	3221.45
427.42	2953.17
427.63	3047.38
427.83	3678.15
428.04	3784.65
428.25	3209.17
428.45	3180.50
428.66	3598.28
428.86	3495.88
429.07	3231.69
429.28	3164.11
429.48	3524.55
429.69	3223.50
429.89	3246.03
430.10	3170.26
430.30	3600.33
430.51	3692.49
430.71	3125.20
430.92	3248.08
431.13	3352.52
431.33	3553.23
431.54	3291.09
431.74	3286.99
431.95	3921.86
432.15	3291.09
432.36	3192.78
432.56	3221.45
432.77	3925.96
432.98	3772.36
433.18	3160.02
433.39	3014.61
433.59	3426.25
433.80	3878.85
434.00	3346.38
434.21	3172.30
434.41	3254.22
434.62	3946.44
434.82	3043.28
435.03	3071.95
435.23	3504.07
435.44	3065.81
435.64	3149.78
435.85	3229.65
436.06	3606.47
436.26	3700.68
436.47	3180.50
436.67	3188.69
436.88	3413.96
437.08	3723.21
437.29	3262.41
437.49	3291.09
437.70	3649.48
437.90	3444.68
438.11	3368.91
438.31	3297.23
438.52	3751.88
438.72	3606.47
438.93	3557.32
439.13	3213.26
439.34	3635.14
439.54	3352.52
439.75	3235.79
439.95	3286.99
440.16	3307.47
440.36	3332.05
440.57	3131.34
440.77	3119.06
440.98	3336.14
441.18	3483.59
441.39	3067.86
441.59	3024.85
441.80	3850.18
442.00	3463.12
442.21	3237.84
442.41	3067.86
442.62	3549.13
442.82	3323.85
443.02	3205.07
443.23	3262.41
443.43	3352.52
443.64	3794.89
443.84	3016.66
444.05	3291.09
444.25	3499.98
444.46	3274.70
444.66	3100.62
444.87	3420.11
445.07	3182.54
445.28	3352.52
445.48	3297.23
445.69	3225.55
445.89	3989.44
446.09	3319.76
446.30	3448.78
446.50	3514.31
446.71	4982.71
446.91	6154.15
447.12	6838.17
447.32	7200.66
447.53	7473.04
447.73	6168.48
447.93	5361.58
448.14	5087.15
448.34	5402.54
448.55	4442.04
448.75	4423.61
448.96	4132.80
449.16	4181.95
449.36	4065.22
449.57	3403.72
449.77	3278.80
449.98	3315.66
450.18	3608.52
450.39	3123.15
450.59	3424.20
450.79	3444.68
451.00	3270.61
451.20	3366.86
451.41	3221.45
451.61	3618.76
451.81	3381.20
452.02	3149.78
452.22	3176.40
452.43	3368.91
452.63	3264.46
452.84	3178.45
453.04	3098.58
453.24	3524.55
453.45	3241.93
453.65	3203.02
453.86	3151.82
454.06	3512.27
454.26	3516.36
454.47	3112.91
454.67	3303.37
454.87	3512.27
455.08	3352.52
455.28	3307.47
455.49	3350.48
455.69	3260.37
455.89	3887.04
456.10	3200.98
456.30	3203.02
456.51	3614.66
456.71	3454.92
456.91	3295.18
457.12	3190.74
457.32	3559.37
457.52	3237.84
457.73	3454.92
457.93	3418.06
458.14	3360.72
458.34	3086.29
458.54	3237.84
458.75	3133.39
458.95	3643.34
459.15	3495.88
459.36	3286.99
459.56	3172.30
459.76	3876.80
459.97	3344.33
460.17	3117.01
460.37	3264.46
460.58	3454.92
460.78	3590.09
460.99	3311.57
461.19	3123.15
461.39	3334.09
461.60	3364.81
461.80	3237.84
462.00	3098.58
462.21	3438.54
462.41	3200.98
462.61	3100.62
462.82	2949.08
463.02	3510.22
463.22	3430.35
463.43	3219.41
463.63	3069.91
463.83	3801.03
464.04	3577.80
464.24	3178.45
464.44	3108.82
464.64	3528.65
464.85	3678.15
465.05	3078.10
465.25	3026.90
465.46	3327.95
465.66	3493.83
465.86	3284.94
466.07	3100.62
466.27	3405.77
466.47	3114.96
466.68	3045.33
466.88	3272.65
467.08	3622.86
467.29	3665.86
467.49	3256.27
467.69	3286.99
467.89	3624.90
468.10	3379.15
468.30	3239.89
468.50	3274.70
468.71	3573.71
468.91	3049.43
469.11	3375.05
469.31	3309.52
469.52	3280.85
469.72	3807.17
469.92	3377.10
470.13	3162.06
470.33	3530.70
470.53	3512.27
470.73	3526.60
470.94	3854.28
471.14	4022.21
471.34	4609.98
471.54	4067.27
471.75	3805.13
471.95	3700.68
472.15	3803.08
472.36	3735.50
472.56	3485.64
472.76	3966.92
472.96	3850.18
473.17	3424.20
473.37	3246.03
473.57	3411.92
473.77	3622.86
473.98	3303.37
474.18	3020.75
474.38	4159.42
474.58	3387.34
474.79	3033.04
474.99	3330.00
475.19	3712.97
475.39	3286.99
475.60	3215.31
475.80	3084.24
476.00	3487.69
476.20	3330.00
476.41	3323.85
476.61	3188.69
476.81	3854.28
477.01	3168.21
477.21	3456.97
477.42	3284.94
477.62	3264.46
477.82	3534.79
478.02	3155.92
478.23	3131.34
478.43	3321.81
478.63	3362.76
478.83	3213.26
479.03	3299.28
479.24	3815.37
479.44	3885.00
479.64	3051.47
479.84	3010.51
480.04	3289.04
480.25	3624.90
480.45	3170.26
480.65	3211.22
480.85	3667.91
481.06	3362.76
481.26	3203.02
481.46	3114.96
481.66	3459.02
481.86	3237.84
482.06	3397.58
482.27	3200.98
482.47	3360.72
482.67	3575.75
482.87	3127.25
483.07	3084.24
483.28	3368.91
483.48	3196.88
483.68	3182.54
483.88	3033.04
484.08	2975.70
484.29	3272.65
484.49	3221.45
484.69	2979.79
484.89	3809.22
485.09	3590.09
485.29	3151.82
485.50	3307.47
485.70	3399.63
485.90	3760.07
486.10	3299.28
486.30	3147.73
486.50	3696.58
486.71	3585.99
486.91	3246.03
487.11	3291.09
487.31	3176.40
487.51	3661.77
487.71	3172.30
487.91	3090.38
488.12	3323.85
488.32	2996.18
488.52	3215.31
488.72	2893.78
488.92	3434.44
489.12	3672.01
489.32	3313.61
489.53	3164.11
489.73	3108.82
489.93	3809.22
490.13	3127.25
490.33	3010.51
490.53	3502.03
490.73	3735.50
490.94	3041.23
491.14	3309.52
491.34	3538.89
491.54	3637.19
491.74	3938.24
491.94	4478.91
492.14	5164.98
492.34	5171.12
492.54	4720.57
492.75	4028.35
492.95	4607.93
493.15	4126.66
493.35	3860.42
493.55	3801.03
493.75	3735.50
493.95	3868.61
494.15	3389.39
494.35	3274.70
494.56	3377.10
494.76	3309.52
494.96	3219.41
495.16	3127.25
495.36	3471.31
495.56	3461.07
495.76	3213.26
495.96	3139.54
496.16	3303.37
496.36	3862.47
496.56	3092.43
496.77	3327.95
496.97	3377.10
497.17	3870.66
497.37	2965.46
497.57	3362.76
497.77	3473.36
497.97	3246.03
498.17	3143.63
498.37	3123.15
498.57	3585.99
498.77	3393.48
498.97	3276.75
499.17	3631.05
499.38	3413.96
499.58	3579.85
499.78	3317.71
499.98	3248.08
500.18	3420.11
500.38	3250.13
500.58	3293.13
500.78	3786.69
500.98	6193.06
501.18	7862.15
501.38	9256.82
501.58	9944.94
501.78	10041.19
501.98	8353.66
502.18	7131.03
502.38	6143.91
502.58	6287.26
502.78	5582.76
502.98	5240.75
503.18	5064.63
503.38	4859.83
503.59	4155.33
503.79	4136.90
503.99	3667.91
504.19	3887.04
504.39	3934.15
504.59	3692.49
504.79	3424.20
504.99	3991.49
505.19	3622.86
505.39	3270.61
505.59	3590.09
505.79	3844.04
505.99	3663.82
506.19	3254.22
506.39	3438.54
506.59	3338.19
506.79	3370.96
506.99	3391.44
507.19	3125.20
507.39	3547.08
507.59	3143.63
507.79	3164.11
507.99	3102.67
508.19	3295.18
508.39	3309.52
508.59	3219.41
508.79	3252.17
508.99	3887.04
509.19	3291.09
509.39	3272.65
509.59	3033.04
509.79	3243.98
509.99	3514.31
510.19	3332.05
510.39	3323.85
510.59	3454.92
510.79	3295.18
510.99	2918.36
511.19	3074.00
511.39	3751.88
511.59	3663.82
511.79	3299.28
511.99	3125.20
512.19	3780.55
512.38	3563.47
512.58	3205.07
512.78	3074.00
512.98	3688.39
513.18	3794.89
513.38	3106.77
513.58	3262.41
513.78	3321.81
513.98	3377.10
514.18	3139.54
514.38	3178.45
514.58	3502.03
514.78	3393.48
514.98	3076.05
515.18	3143.63
515.38	3149.78
515.58	3950.53
515.78	3162.06
515.98	3205.07
516.18	3557.32
516.38	3491.79
516.57	3155.92
516.77	3143.63
516.97	3579.85
517.17	3366.86
517.37	2926.55
517.57	3114.96
517.77	3448.78
517.97	3274.70
518.17	3190.74
518.37	3051.47
518.57	3254.22
518.77	3284.94
518.97	3248.08
519.16	3205.07
519.36	3745.73
519.56	3348.43
519.76	3035.09
519.96	3166.16
520.16	3706.82
520.36	3231.69
520.56	3336.14
520.76	3047.38
520.96	3323.85
521.16	3672.01
521.35	3340.24
521.55	3340.24
521.75	3405.77
521.95	3313.61
522.15	3055.57
522.35	3018.71
522.55	3264.46
522.75	3547.08
522.95	3026.90
523.14	3037.14
523.34	3467.21
523.54	3284.94
523.74	3299.28
523.94	3241.93
524.14	3088.34
524.34	3532.75
524.54	3348.43
524.73	3157.97
524.93	3647.43
525.13	3454.92
525.33	3102.67
525.53	3364.81
525.73	3657.67
525.93	3526.60
526.13	3196.88
526.32	3053.52
526.52	3698.63
526.72	3583.95
526.92	3170.26
527.12	3065.81
527.32	3243.98
527.52	3524.55
527.71	3246.03
527.91	3209.17
528.11	3366.86
528.31	3397.58
528.51	3180.50
528.71	3266.51
528.90	3598.28
529.10	3629.00
529.30	3217.36
529.50	2891.73
529.70	3510.22
529.90	3354.57
530.09	3231.69
530.29	3100.62
530.49	3338.19
530.69	4036.55
530.89	3321.81
531.09	3188.69
531.28	3411.92
531.48	3610.57
531.68	3151.82
531.88	3151.82
532.08	3620.81
532.28	3336.14
532.47	3291.09
532.67	3266.51
532.87	3565.51
533.07	3205.07
533.27	3211.22
533.46	3176.40
533.66	3483.59
533.86	3475.40
534.06	3256.27
534.26	3155.92
534.45	3385.29
534.65	3657.67
534.85	3248.08
535.05	3102.67
535.25	3688.39
535.44	3094.48
535.64	3270.61
535.84	3205.07
536.04	3411.92
536.24	3370.96
536.43	3139.54
536.63	3139.54
536.83	3405.77
537.03	3385.29
537.22	2963.41
537.42	3033.04
537.62	3553.23
537.82	3282.89
538.02	3319.76
538.21	3284.94
538.41	4052.93
538.61	3563.47
538.81	3246.03
539.00	3325.90
539.20	3084.24
539.40	3381.20
539.60	3112.91
539.79	3348.43
539.99	3362.76
540.19	3198.93
540.39	3082.19
540.58	3268.56
540.78	3653.58
540.98	3401.68
541.18	3454.92
541.37	3117.01
541.57	3514.31
541.77	3524.55
541.97	3074.00
542.16	2969.55
542.36	3368.91
542.56	3209.17
542.76	3334.09
542.95	3272.65
543.15	3506.12
543.35	3663.82
543.54	3147.73
543.74	3094.48
543.94	3712.97
544.14	3274.70
544.33	3270.61
544.53	3270.61
544.73	3459.02
544.93	3356.62
545.12	3162.06
545.32	3237.84
545.52	3327.95
545.71	3217.36
545.91	3190.74
546.11	3086.29
546.30	3239.89
546.50	3307.47
546.70	3276.75
546.90	3180.50
547.09	2947.03
547.29	3434.44
547.49	3334.09
547.68	3151.82
547.88	3237.84
548.08	3641.29
548.27	3407.82
548.47	3121.10
548.67	3348.43
548.87	3481.55
549.06	3139.54
549.26	3114.96
549.46	3530.70
549.65	3266.51
549.85	3194.83
550.05	3205.07
550.24	3215.31
550.44	3481.55
550.64	3151.82
550.83	3262.41
551.03	3784.65
551.23	3659.72
551.42	3174.35
551.62	3352.52
551.82	3422.16
552.01	3383.24
552.21	3528.65
552.41	3209.17
552.60	3712.97
552.80	3465.16
553.00	3123.15
553.19	3176.40
553.39	3844.04
553.59	3166.16
553.78	3270.61
553.98	3069.91
554.17	3137.49
554.37	3487.69
554.57	3344.33
554.76	3065.81
554.96	3270.61
555.16	3491.79
555.35	3233.74
555.55	3309.52
555.75	3528.65
555.94	3602.38
556.14	3035.09
556.33	3217.36
556.53	3405.77
556.73	3418.06
556.92	3162.06
557.12	3123.15
557.32	3837.89
557.51	3770.31
557.71	3203.02
557.90	3321.81
558.10	3768.26
558.30	3424.20
558.49	3213.26
558.69	3168.21
558.88	3506.12
559.08	3536.84
559.28	3211.22
559.47	3205.07
559.67	3577.80
559.86	3948.48
560.06	3110.86
560.26	3203.02
560.45	3555.27
560.65	3393.48
560.84	3473.36
561.04	3110.86
561.24	3563.47
561.43	3180.50
561.63	3424.20
561.82	3289.04
562.02	3592.14
562.22	3215.31
562.41	3108.82
562.61	3172.30
562.80	3209.17
563.00	3971.01
563.19	3260.37
563.39	3252.17
563.59	3581.90
563.78	3178.45
563.98	2953.17
564.17	3215.31
564.37	3020.75
564.56	3420.11
564.76	3086.29
564.96	3284.94
565.15	3590.09
565.35	3960.77
565.54	3241.93
565.74	3155.92
565.93	3602.38
566.13	3504.07
566.32	3241.93
566.52	3311.57
566.71	3454.92
566.91	3633.10
567.11	3274.70
567.30	3059.67
567.50	3504.07
567.69	3469.26
567.89	3114.96
568.08	3094.48
568.28	3571.66
568.47	3143.63
568.67	3160.02
568.86	3235.79
569.06	3592.14
569.25	3311.57
569.45	2967.51
569.64	3209.17
569.84	3393.48
570.04	3459.02
570.23	3217.36
570.43	3248.08
570.62	3520.46
570.82	3821.51
571.01	3119.06
571.21	3141.58
571.40	3243.98
571.60	3592.14
571.79	3266.51
571.99	3174.35
572.18	3209.17
572.38	3485.64
572.57	3272.65
572.77	3239.89
572.96	3973.06
573.16	3459.02
573.35	3164.11
573.55	3362.76
573.74	3688.39
573.94	3395.53
574.13	3205.07
574.33	3323.85
574.52	3758.02
574.71	3409.87
574.91	3241.93
575.10	3030.99
575.30	3258.32
575.49	3256.27
575.69	3037.14
575.88	3168.21
576.08	3313.61
576.27	3796.93
576.47	3131.34
576.66	3352.52
576.86	3753.93
577.05	3477.45
577.25	3274.70
577.44	3397.58
577.64	3309.52
577.83	3680.20
578.02	3133.39
578.22	3330.00
578.41	3825.61
578.61	3336.14
578.80	3100.62
579.00	3164.11
579.19	3387.34
579.39	3487.69
579.58	3250.13
579.77	3250.13
579.97	3733.45
580.16	3661.77
580.36	3366.86
580.55	3278.80
580.75	3540.94
580.94	3557.32
581.13	3307.47
581.33	3409.87
581.52	3469.26
581.72	3739.59
581.91	3307.47
582.11	3180.50
582.30	3626.95
582.49	3475.40
582.69	3512.27
582.88	3213.26
583.08	3456.97
583.27	3653.58
583.47	3381.20
583.66	3092.43
583.85	3284.94
584.05	3373.00
584.24	3387.34
584.44	3237.84
584.63	3614.66
584.82	3669.96
585.02	3420.11
585.21	3338.19
585.41	3551.18
585.60	3366.86
585.79	3434.44
585.99	3491.79
586.18	3485.64
586.37	4458.43
586.57	6606.75
586.76	18675.43
586.96	37543.36
587.15	49894.66
587.34	57754.77
587.54	61250.65
587.73	53755.08
587.93	38628.79
588.12	30037.56
588.31	24553.10
588.51	22036.14
588.70	20625.09
588.89	18018.03
589.09	15359.77
589.28	13240.12
589.47	10366.82
589.67	7808.90
589.86	6221.73
590.06	5074.87
590.25	4374.46
590.44	3876.80
590.64	3653.58
590.83	3715.02
591.02	3663.82
591.22	3200.98
591.41	3223.50
591.60	3432.40
591.80	3979.20
591.99	3028.95
592.18	3166.16
592.38	3606.47
592.57	3354.57
592.76	3155.92
592.96	3282.89
593.15	3340.24
593.34	3694.54
593.54	3106.77
593.73	3323.85
593.92	3483.59
594.12	3549.13
594.31	3198.93
594.50	3379.15
594.70	3532.75
594.89	4114.37
595.08	3071.95
595.28	3348.43
595.47	4138.94
595.66	3606.47
595.86	3112.91
596.05	3078.10
596.24	3366.86
596.43	3893.19
596.63	3262.41
596.82	3362.76
597.01	3571.66
597.21	3686.34
597.40	3172.30
597.59	3258.32
597.79	3426.25
597.98	3549.13
598.17	3258.32
598.36	3239.89
598.56	3702.73
598.75	3295.18
598.94	3211.22
599.14	3205.07
599.33	3336.14
599.52	3647.43
599.71	3258.32
599.91	3149.78
600.10	3606.47
600.29	3497.93
600.48	3241.93
600.68	3375.05
600.87	3614.66
601.06	3256.27
601.26	3362.76
601.45	3362.76
601.64	3409.87
601.83	3772.36
602.03	3022.80
602.22	3106.77
602.41	3686.34
602.60	4007.87
602.80	3223.50
602.99	3272.65
603.18	3330.00
603.37	3442.64
603.57	3117.01
603.76	3205.07
603.95	3803.08
604.14	3334.09
604.34	3123.15
604.53	3151.82
604.72	3524.55
604.91	3620.81
605.10	3231.69
605.30	3047.38
605.49	3837.89
605.68	3614.66
605.87	3125.20
606.07	3088.34
606.26	3471.31
606.45	3551.18
606.64	3243.98
606.84	3100.62
607.03	3366.86
607.22	3719.11
607.41	3254.22
607.60	3166.16
607.80	3676.10
607.99	3432.40
608.18	3229.65
608.37	3233.74
608.56	3342.28
608.76	3688.39
608.95	3289.04
609.14	3098.58
609.33	3676.10
609.52	3856.33
609.72	3282.89
609.91	3319.76
610.10	3567.56
610.29	3721.16
610.48	3260.37
610.68	3303.37
610.87	3502.03
611.06	3663.82
611.25	3233.74
611.44	3278.80
611.63	3360.72
611.83	3829.70
612.02	3149.78
612.21	3330.00
612.40	3047.38
612.59	3243.98
612.79	3108.82
612.98	3258.32
613.17	3913.67
613.36	3456.97
613.55	3268.56
613.74	3168.21
613.93	3416.01
614.13	3489.74
614.32	3348.43
614.51	3106.77
614.70	3360.72
614.89	3418.06
615.08	3270.61
615.28	3532.75
615.47	3194.83
615.66	3598.28
615.85	3215.31
616.04	3229.65
616.23	3446.73
616.42	3450.83
616.62	3086.29
616.81	3174.35
617.00	3428.30
617.19	3581.90
617.38	3164.11
617.57	3266.51
617.76	3604.42
617.95	3643.34
618.15	3307.47
618.34	3379.15
618.53	3180.50
618.72	3745.73
618.91	3315.66
619.10	3186.64
619.29	3436.49
619.48	3438.54
619.68	3012.56
619.87	3166.16
620.06	3176.40
620.25	3639.24
620.44	3250.13
620.63	3123.15
620.82	3426.25
621.01	3428.30
621.20	3284.94
621.39	3295.18
621.59	3504.07
621.78	3354.57
621.97	3186.64
622.16	3332.05
622.35	3477.45
622.54	3489.74
622.73	3180.50
622.92	2965.46
623.11	3641.29
623.30	3350.48
623.49	3360.72
623.68	3090.38
623.88	3676.10
624.07	3315.66
624.26	3090.38
624.45	3086.29
624.64	3407.82
624.83	3571.66
625.02	3178.45
625.21	3192.78
625.40	3530.70
625.59	3712.97
625.78	3315.66
625.97	3278.80
626.16	3639.24
626.35	3592.14
626.54	3125.20
626.74	3385.29
626.93	3383.24
627.12	3442.64
627.31	3209.17
627.50	3215.31
627.69	3708.87
627.88	3323.85
628.07	3043.28
628.26	2996.18
628.45	3213.26
628.64	3213.26
628.83	3166.16
629.02	3049.43
629.21	3553.23
629.40	3553.23
629.59	3106.77
629.78	3149.78
629.97	3418.06
630.16	3430.35
630.35	3149.78
630.54	3272.65
630.73	3297.23
630.92	3409.87
631.11	3098.58
631.30	3272.65
631.49	3596.23
631.68	3465.16
631.87	3262.41
632.06	3121.10
632.25	3971.01
632.44	3446.73
632.63	3205.07
632.82	3209.17
633.01	3321.81
633.20	3444.68
633.39	3121.10
633.58	2940.88
633.77	3461.07
633.96	3567.56
634.15	3334.09
634.34	3162.06
634.53	3545.03
634.72	3391.44
634.91	3033.04
635.10	3239.89
635.29	3653.58
635.48	3420.11
635.67	3049.43
635.86	3063.76
636.05	3696.58
636.24	3450.83
636.43	3110.86
636.62	3295.18
636.81	2852.82
637.00	3485.64
637.19	3170.26
637.38	3196.88
637.57	3348.43
637.76	3344.33
637.95	3364.81
638.14	3375.05
638.33	3479.50
638.52	3428.30
638.71	2994.13
638.89	3061.71
639.08	4001.73
639.27	3704.78
639.46	3360.72
639.65	3608.52
639.84	3872.71
640.03	4083.65
640.22	3530.70
640.41	3493.83
640.60	3461.07
640.79	3626.95
640.98	3356.62
641.17	3416.01
641.36	3583.95
641.55	3592.14
641.74	3039.19
641.92	2998.23
642.11	3291.09
642.30	3344.33
642.49	3112.91
642.68	3157.97
642.87	3475.40
643.06	3596.23
643.25	3045.33
643.44	3125.20
643.63	3411.92
643.82	3518.41
644.00	3114.96
644.19	3190.74
644.38	3198.93
644.57	3573.71
644.76	3155.92
644.95	3278.80
645.14	3405.77
645.33	3370.96
645.52	3250.13
645.71	2979.79
645.89	3258.32
646.08	3389.39
646.27	3196.88
646.46	3360.72
646.65	3090.38
646.84	3446.73
647.03	3117.01
647.22	3241.93
647.40	3467.21
647.59	3465.16
647.78	2998.23
647.97	3172.30
648.16	3317.71
648.35	3741.64
648.54	3432.40
648.73	3248.08
648.91	3606.47
649.10	3434.44
649.29	3205.07
649.48	3172.30
649.67	3557.32
649.86	3381.20
650.05	3143.63
650.23	3313.61
650.42	3336.14
650.61	3725.26
650.80	3387.34
650.99	3454.92
651.18	3667.91
651.36	3686.34
651.55	3129.30
651.74	3346.38
651.93	3291.09
652.12	3344.33
652.31	3233.74
652.49	3254.22
652.68	3321.81
652.87	3745.73
653.06	3387.34
653.25	3450.83
653.44	3459.02
653.62	3878.85
653.81	3215.31
654.00	3221.45
654.19	3569.61
654.38	3940.29
654.56	3203.02
654.75	3180.50
654.94	3721.16
655.13	3493.83
655.32	3137.49
655.51	3270.61
655.69	3307.47
655.88	3635.14
656.07	3020.75
656.26	3262.41
656.45	3225.55
656.63	3477.45
656.82	3129.30
657.01	3459.02
657.20	3354.57
657.38	3835.85
657.57	3135.44
657.76	2951.12
657.95	3590.09
658.14	3313.61
658.32	3383.24
658.51	3074.00
658.70	3497.93
658.89	3491.79
659.08	3190.74
659.26	3303.37
659.45	3233.74
659.64	3532.75
659.83	3127.25
660.01	3565.51
660.20	3620.81
660.39	3813.32
660.58	2895.83
660.76	3246.03
660.95	3188.69
661.14	3502.03
661.33	3080.14
661.51	3348.43
661.70	3241.93
661.89	3532.75
662.08	3313.61
662.26	3088.34
662.45	3192.78
662.64	3827.65
662.83	3241.93
663.01	3131.34
663.20	3264.46
663.39	3700.68
663.58	3221.45
663.76	3153.87
663.95	3622.86
664.14	3323.85
664.32	3231.69
664.51	3024.85
664.70	3078.10
664.89	3467.21
665.07	3092.43
665.26	3303.37
665.45	3127.25
665.64	3524.55
665.82	3147.73
666.01	3262.41
666.20	3246.03
666.38	3712.97
666.57	3545.03
666.76	5822.38
666.95	12549.95
667.13	18804.45
667.32	22251.18
667.51	25214.59
667.69	25767.54
667.88	20770.50
668.07	15404.82
668.25	13291.32
668.44	11765.58
668.63	10071.91
668.81	8941.43
669.00	7696.27
669.19	7186.32
669.38	6320.03
669.56	5418.93
669.75	4732.86
669.94	4335.55
670.12	3768.26
670.31	3381.20
670.50	3348.43
670.68	3657.67
670.87	3493.83
671.06	3151.82
671.24	3205.07
671.43	3897.28
671.62	3444.68
671.80	3110.86
671.99	3270.61
672.18	3487.69
672.36	3532.75
672.55	3362.76
672.74	3246.03
672.92	3442.64
673.11	3684.30
673.29	3084.24
673.48	3336.14
673.67	3370.96
673.85	3663.82
674.04	3143.63
674.23	3284.94
674.41	3934.15
674.60	3188.69
674.79	3014.61
674.97	3065.81
675.16	3583.95
675.34	3651.53
675.53	3172.30
675.72	3254.22
675.90	3944.39
676.09	3344.33
676.28	3289.04
676.46	3078.10
676.65	3602.38
676.83	3223.50
677.02	3246.03
677.21	3362.76
677.39	3520.46
677.58	3272.65
677.77	3160.02
677.95	3117.01
678.14	3454.92
678.32	3303.37
678.51	3198.93
678.70	3614.66
678.88	3434.44
679.07	3461.07
679.25	3170.26
679.44	3194.83
679.63	3133.39
679.81	3397.58
680.00	3434.44
680.18	3217.36
680.37	3821.51
680.55	3536.84
680.74	3096.53
680.93	3000.27
681.11	3471.31
681.30	3475.40
681.48	3174.35
681.67	3200.98
681.85	3502.03
682.04	3252.17
682.23	3280.85
682.41	3358.67
682.60	3440.59
682.78	3377.10
682.97	3166.16
683.15	3229.65
683.34	3477.45
683.53	3782.60
683.71	3123.15
683.90	3250.13
684.08	3823.56
684.27	3246.03
684.45	3293.13
684.64	3305.42
684.82	3434.44
685.01	3637.19
685.19	3133.39
685.38	3618.76
685.57	3420.11
685.75	3227.60
685.94	3131.34
686.12	3037.14
686.31	3291.09
686.49	3827.65
686.68	3065.81
686.86	3192.78
687.05	3446.73
687.23	3749.83
687.42	3229.65
687.60	3084.24
687.79	3641.29
687.97	3772.36
688.16	3368.91
688.34	3485.64
688.53	3139.54
688.71	3536.84
688.90	3532.75
689.08	3229.65
689.27	3084.24
689.45	3549.13
689.64	3315.66
689.82	3299.28
690.01	3551.18
690.19	3508.17
690.38	3205.07
690.56	3278.80
690.75	3248.08
690.93	3270.61
691.12	3131.34
691.30	3233.74
691.49	3301.33
691.67	3381.20
691.86	3557.32
692.04	3250.13
692.23	3418.06
692.41	3454.92
692.60	3545.03
692.78	3442.64
692.97	3434.44
693.15	3610.57
693.34	3344.33
693.52	3534.79
693.71	3309.52
693.89	3362.76
694.08	3082.19
694.26	3196.88
694.44	3610.57
694.63	3553.23
694.81	3131.34
695.00	3252.17
695.18	3616.71
695.37	3964.87
695.55	3293.13
695.74	3264.46
695.92	3311.57
696.10	3659.72
696.29	3141.58
696.47	3217.36
696.66	3162.06
696.84	3213.26
697.03	3250.13
697.21	3495.88
697.40	4749.24
697.58	3629.00
697.76	3168.21
697.95	3155.92
698.13	3192.78
698.32	3278.80
698.50	3223.50
698.68	3192.78
698.87	3473.36
699.05	3778.50
699.24	3203.02
699.42	3229.65
699.61	3624.90
699.79	3491.79
699.97	3276.75
700.16	3061.71
700.34	3147.73
700.53	3471.31
700.71	3391.44
700.89	3291.09
701.08	3424.20
701.26	3493.83
701.45	3532.75
701.63	3256.27
701.81	3278.80
702.00	3180.50
702.18	3311.57
702.37	3260.37
702.55	3737.54
702.73	3438.54
702.92	3162.06
703.10	3510.22
703.28	3616.71
703.47	3180.50
703.65	3360.72
703.84	3289.04
704.02	3286.99
704.20	3715.02
704.39	3133.39
704.57	3209.17
704.75	3571.66
704.94	3559.37
705.12	3362.76
705.30	3946.44
705.49	8171.40
705.67	14657.31
705.86	19392.22
706.04	21878.45
706.22	24059.54
706.41	22453.93
706.59	16916.22
706.77	13387.57
706.96	11847.50
707.14	10862.43
707.32	9271.15
707.51	8306.56
707.69	6789.02
707.87	5703.59
708.06	4798.39
708.24	4319.17
708.42	4120.51
708.61	4233.15
708.79	3270.61
708.97	3401.68
709.16	3518.41
709.34	3467.21
709.52	3217.36
709.71	3180.50
709.89	3663.82
710.07	3200.98
710.26	3117.01
710.44	3217.36
710.62	3608.52
710.80	3465.16
710.99	3332.05
711.17	3280.85
711.35	3268.56
711.54	3241.93
711.72	3432.40
711.90	3266.51
712.09	3553.23
712.27	3315.66
712.45	3284.94
712.63	3248.08
712.82	3436.49
713.00	3424.20
713.18	3344.33
713.37	3418.06
713.55	3600.33
713.73	3448.78
713.91	3307.47
714.10	3266.51
714.28	3485.64
714.46	3520.46
714.65	3278.80
714.83	3256.27
715.01	3450.83
715.19	3368.91
715.38	3139.54
715.56	3344.33
715.74	3282.89
715.92	3221.45
716.11	3508.17
716.29	2949.08
716.47	3399.63
716.65	3368.91
716.84	3114.96
717.02	3303.37
717.20	3123.15
717.38	3336.14
717.57	3348.43
717.75	3274.70
717.93	3340.24
718.11	3526.60
718.30	3082.19
718.48	3266.51
718.66	3651.53
718.84	3663.82
719.03	3209.17
719.21	3002.32
719.39	3788.74
719.57	3536.84
719.75	3321.81
719.94	3090.38
720.12	3350.48
720.30	3373.00
720.48	3282.89
720.67	3252.17
720.85	3131.34
721.03	3346.38
721.21	3200.98
721.39	3280.85
721.58	3518.41
721.76	3518.41
721.94	3254.22
722.12	3379.15
722.30	3844.04
722.49	3262.41
722.67	3200.98
722.85	3295.18
723.03	3174.35
723.21	3403.72
723.40	3278.80
723.58	3391.44
723.76	3479.50
723.94	3710.92
724.12	3176.40
724.30	3397.58
724.49	3620.81
724.67	3188.69
724.85	3305.42
725.03	3084.24
725.21	3575.75
725.40	3733.45
725.58	3217.36
725.76	3426.25
725.94	3551.18
726.12	3237.84
726.30	3258.32
726.49	3086.29
726.67	3348.43
726.85	3526.60
727.03	3944.39
727.21	4853.69
727.39	6100.90
727.57	6459.29
727.76	6797.21
727.94	6723.48
728.12	5910.44
728.30	5164.98
728.48	4716.47
728.66	4435.90
728.84	4411.32
729.03	3962.82
729.21	3647.43
729.39	3557.32
729.57	3520.46
729.75	3532.75
729.93	3495.88
730.11	3160.02
730.30	3407.82
730.48	3364.81
730.66	3258.32
730.84	3291.09
731.02	3489.74
731.20	3338.19
731.38	3284.94
731.56	3002.32
731.74	3186.64
731.93	3559.37
732.11	3344.33
732.29	3182.54
732.47	3547.08
732.65	3495.88
732.83	3401.68
733.01	3323.85
733.19	3327.95
733.37	3622.86
733.56	3178.45
733.74	3082.19
733.92	3731.40
734.10	3336.14
734.28	3389.39
734.46	2992.08
734.64	3395.53
734.82	3397.58
735.00	3149.78
735.18	3119.06
735.36	3465.16
735.54	3387.34
735.73	3192.78
735.91	3370.96
736.09	3827.65
736.27	3504.07
736.45	3239.89
736.63	2926.55
736.81	3459.02
736.99	3649.48
737.17	3401.68
737.35	3100.62
737.53	3432.40
737.71	3418.06
737.89	3348.43
738.07	3157.97
738.25	3246.03
738.43	3074.00
738.61	3196.88
738.80	3139.54
738.98	3262.41
739.16	3225.55
739.34	3252.17
739.52	3485.64
739.70	3393.48
739.88	3602.38
740.06	3264.46
740.24	2951.12
740.42	3704.78
740.60	3155.92
740.78	3180.50
740.96	2967.51
741.14	3428.30
741.32	3499.98
741.50	3039.19
741.68	3504.07
741.86	3760.07
742.04	3264.46
742.22	3108.82
742.40	3184.59
742.58	3551.18
742.76	3268.56
742.94	3465.16
743.12	3049.43
743.30	3403.72
743.48	3585.99
743.66	3106.77
743.84	3211.22
744.02	3444.68
744.20	3450.83
744.38	3084.24
744.56	3188.69
744.74	3856.33
744.92	3549.13
745.10	3377.10
745.28	3286.99
745.46	3868.61
745.64	3450.83
745.82	3231.69
746.00	3149.78
746.18	3569.61
746.36	3246.03
746.54	3295.18
746.72	3221.45
746.90	3207.12
747.08	3762.12
747.26	3139.54
747.44	3360.72
747.62	3557.32
747.80	3542.99
747.98	3323.85
748.15	3270.61
748.33	3919.81
748.51	3426.25
748.69	3239.89
748.87	3106.77
749.05	3409.87
749.23	3348.43
749.41	3157.97
749.59	3229.65
749.77	3643.34
749.95	3411.92
750.13	3170.26
750.31	3383.24
750.49	3446.73
750.67	3626.95
750.85	3311.57
751.03	3172.30
751.20	3930.05
751.38	3413.96
751.56	3321.81
751.74	3246.03
751.92	3418.06
752.10	3203.02
752.28	3370.96
752.46	3147.73
752.64	3459.02
752.82	3430.35
753.00	3303.37
753.18	3098.58
753.35	3354.57
753.53	3370.96
753.71	3123.15
753.89	3260.37
754.07	3461.07
754.25	3631.05
754.43	3327.95
754.61	3114.96
754.79	3567.56
754.97	3469.26
755.14	3430.35
755.32	3114.96
755.50	3459.02
755.68	3479.50
755.86	3145.68
756.04	3155.92
756.22	3037.14
756.40	3602.38
756.57	3420.11
756.75	3256.27
756.93	3667.91
757.11	3657.67
757.29	3141.58
757.47	3082.19
757.65	3139.54
757.82	2977.75
758.00	3051.47
758.18	3104.72
758.36	3297.23
758.54	3852.23
758.72	3059.67
758.90	3280.85
759.07	3540.94
759.25	3317.71
759.43	3325.90
759.61	3110.86
759.79	4605.88
759.97	3542.99
760.15	3203.02
760.32	3147.73
760.50	3567.56
760.68	3778.50
760.86	3024.85
761.04	3389.39
761.22	3610.57
761.39	3463.12
761.57	3409.87
761.75	3155.92
761.93	3655.62
762.11	3444.68
762.28	3317.71
762.46	3192.78
762.64	3672.01
762.82	3090.38
763.00	3088.34
763.18	3465.16
763.35	3157.97
763.53	3655.62
763.71	3264.46
763.89	3131.34
764.07	3473.36
764.24	3465.16
764.42	3274.70
764.60	3170.26
764.78	3524.55
764.96	3674.06
765.13	3428.30
765.31	3117.01
765.49	3565.51
765.67	3280.85
765.84	3213.26
766.02	3143.63
766.20	3125.20
766.38	3522.51
766.56	3327.95
766.73	3323.85
766.91	3442.64
767.09	3393.48
767.27	3239.89
767.44	3119.06
767.62	3540.94
767.80	3590.09
767.98	3088.34
768.15	3168.21
768.33	3655.62
768.51	3684.30
768.69	3311.57
768.87	3139.54
769.04	3407.82
769.22	4011.97
769.40	3286.99
769.58	3356.62
769.75	3489.74
769.93	3721.16
770.11	3303.37
770.28	3145.68
770.46	3639.24
770.64	3510.22
770.82	3243.98
770.99	3090.38
771.17	3729.35
771.35	3348.43
771.53	3252.17
771.70	3166.16
771.88	3585.99
772.06	3430.35
772.23	3217.36
772.41	3250.13
772.59	3438.54
772.77	3139.54
772.94	3211.22
773.12	3264.46
773.30	3381.20
773.47	3395.53
773.65	3094.48
773.83	3352.52
774.01	3444.68
774.18	3086.29
774.36	3237.84
774.54	3141.58
774.71	3510.22
774.89	3088.34
775.07	3053.52
775.24	3131.34
775.42	3362.76
775.60	3825.61
775.78	3057.62
775.95	3110.86
776.13	3057.62
776.31	3145.68
776.48	3438.54
776.66	3426.25
776.84	3319.76
777.01	3260.37
777.19	3110.86
777.37	3149.78
777.54	3545.03
777.72	3909.57
777.90	3299.28
778.07	3135.44
778.25	4138.94
778.43	3608.52
778.60	3143.63
778.78	3268.56
778.96	3733.45
779.13	3221.45
779.31	3286.99
779.49	3291.09
779.66	3583.95
779.84	3418.06
780.01	3114.96
780.19	3084.24
780.37	3717.06
780.54	3583.95
780.72	3049.43
780.90	3256.27
781.07	3387.34
781.25	3258.32
781.43	3395.53
781.60	3211.22
781.78	3735.50
781.95	3483.59
782.13	3160.02
782.31	3123.15
782.48	3102.67
782.66	3416.01
782.83	3428.30
783.01	3286.99
783.19	3626.95
783.36	3330.00
783.54	3188.69
783.72	3286.99
783.89	3309.52
784.07	3487.69
784.24	3272.65
784.42	3325.90
784.60	3573.71
784.77	3524.55
784.95	2916.31
785.12	3166.16
785.30	3467.21
785.47	3327.95
785.65	3123.15
785.83	3213.26
786.00	3315.66
786.18	3411.92
786.35	3110.86
786.53	3086.29
786.71	3753.93
786.88	3524.55
787.06	3284.94
787.23	3274.70
787.41	3225.55
787.58	3401.68
787.76	3155.92
787.94	3168.21
788.11	3422.16
788.29	3196.88
788.46	3192.78
788.64	2996.18
788.81	3315.66
788.99	3266.51
789.16	3112.91
789.34	3143.63
789.52	3307.47
789.69	3370.96
789.87	3033.04
790.04	3182.54
790.22	3450.83
790.39	3827.65
790.57	3092.43
790.74	3162.06
790.92	3555.27
791.09	3137.49
791.27	3239.89
791.44	3315.66
791.62	3360.72
791.79	3588.04
791.97	3270.61
792.15	3526.60
792.32	3569.61
792.50	3581.90
792.67	3368.91
792.85	3540.94
793.02	3499.98
793.20	3373.00
793.37	3086.29
793.55	3139.54
793.72	3229.65
793.90	3608.52
794.07	3182.54
794.25	3078.10
794.42	3401.68
794.60	3176.40
794.77	3258.32
794.95	3346.38
795.12	3661.77
795.30	3434.44
795.47	2975.70
795.65	3534.79
795.82	3524.55
796.00	3278.80
796.17	3309.52
796.34	3086.29
796.52	3551.18
796.69	3678.15
796.87	3235.79
797.04	3362.76
797.22	3637.19
797.39	3430.35
797.57	3409.87
797.74	3311.57
797.92	3450.83
798.09	3307.47
798.27	3520.46
798.44	3188.69
798.62	3270.61
798.79	3489.74
798.96	3368.91
799.14	3196.88
799.31	4007.87
799.49	3401.68
799.66	3160.02
799.84	3278.80
800.01	3225.55
800.19	3481.55
800.36	2975.70
800.53	3217.36
800.71	3588.04
800.88	3794.89
801.06	3123.15
801.23	3051.47
801.41	3418.06
801.58	3336.14
801.75	3219.41
801.93	3321.81
802.10	3606.47
802.28	3409.87
802.45	3235.79
802.63	3334.09
802.80	3721.16
802.97	3344.33
803.15	3194.83
803.32	3143.63
803.50	3254.22
803.67	3198.93
803.84	3213.26
804.02	3223.50
804.19	3434.44
804.37	2963.41
804.54	3002.32
804.71	3143.63
804.89	3420.11
805.06	3200.98
805.24	3080.14
805.41	3065.81
805.58	3358.67
805.76	4042.69
805.93	3108.82
806.10	3317.71
806.28	3569.61
806.45	3495.88
806.63	3366.86
806.80	3246.03
806.97	3524.55
807.15	3440.59
807.32	3299.28
807.49	3143.63
807.67	3280.85
807.84	3475.40
808.01	3000.27
808.19	3381.20
808.36	3868.61
808.54	3346.38
808.71	3250.13
808.88	3215.31
809.06	3690.44
809.23	3733.45
809.40	3229.65
809.58	3200.98
809.75	3362.76
809.92	3200.98
810.10	3456.97
810.27	3166.16
810.44	3565.51
810.62	3569.61
810.79	3213.26
810.96	3164.11
811.14	3360.72
811.31	3573.71
811.48	3436.49
811.66	3254.22
811.83	3653.58
812.00	3430.35
812.18	3233.74
812.35	3565.51
812.52	3327.95
812.69	3282.89
812.87	3133.39
813.04	3078.10
813.21	3422.16
813.39	3217.36
813.56	3127.25
813.73	3409.87
813.91	3149.78
814.08	3370.96
814.25	3203.02
814.42	3063.76
814.60	3373.00
814.77	3487.69
814.94	3149.78
815.12	3250.13
815.29	3727.30
815.46	3356.62
815.63	3151.82
815.81	3135.44
815.98	3342.28
816.15	3383.24
816.33	3346.38
816.50	3219.41
816.67	3418.06
816.84	3416.01
817.02	3063.76
817.19	3176.40
817.36	3508.17
817.53	3518.41
817.71	3155.92
817.88	3225.55
818.05	3389.39
818.22	3321.81
818.40	3284.94
818.57	3141.58
818.74	3516.36
818.91	3348.43
819.09	3389.39
819.26	3256.27
819.43	3303.37
819.60	3291.09
819.78	3401.68
819.95	3295.18
820.12	3205.07
820.29	3753.93
820.47	3420.11
820.64	3139.54
820.81	3186.64
820.98	3200.98
821.15	3311.57
821.33	3284.94
821.50	3069.91
821.67	3516.36
821.84	3114.96
822.02	3221.45
822.19	3639.24
822.36	3381.20
822.53	3121.10
822.70	3082.19
822.88	3325.90
823.05	3762.12
823.22	3356.62
823.39	3166.16
823.56	3463.12
823.74	3835.85
823.91	3047.38
824.08	3112.91
824.25	3184.59
824.42	3704.78
824.60	3057.62
824.77	3278.80
824.94	3395.53
825.11	3626.95
825.28	3055.57
825.45	3370.96
825.63	3526.60
825.80	3098.58
825.97	3319.76
826.14	3319.76
826.31	3114.96
826.48	3598.28
826.66	3155.92
826.83	3151.82
827.00	3360.72
827.17	3198.93
827.34	3260.37
827.51	3008.47
827.69	3368.91
827.86	3108.82
828.03	3317.71
828.20	3180.50
828.37	3399.63
828.54	3547.08
828.71	3114.96
828.89	3270.61
829.06	3499.98
829.23	3665.86
829.40	3170.26
829.57	3131.34
829.74	3553.23
829.91	3291.09
830.09	3149.78
830.26	3317.71
830.43	3813.32
830.60	3231.69
830.77	3311.57
830.94	3368.91
831.11	3635.14
831.28	3321.81
831.46	3303.37
831.63	3166.16
831.80	3649.48
831.97	3215.31
832.14	3186.64
832.31	3213.26
832.48	3493.83
832.65	3639.24
832.82	3293.13
832.99	3264.46
833.17	3086.29
833.34	3755.97
833.51	3147.73
833.68	2959.31
833.85	3737.54
834.02	3190.74
834.19	3098.58
834.36	3196.88
834.53	3461.07
834.70	3704.78
834.87	3172.30
835.04	2979.79
835.22	3336.14
835.39	3309.52
835.56	2996.18
835.73	3018.71
835.90	3624.90
836.07	3276.75
836.24	3139.54
836.41	3012.56
836.58	3309.52
836.75	3624.90
836.92	2904.02
837.09	2914.26
837.26	3569.61
837.43	3483.59
837.60	3045.33
837.77	2992.08
837.94	3526.60
838.12	3688.39
838.29	2981.84
838.46	2934.74
838.63	3135.44
838.80	3774.41
838.97	3114.96
839.14	2967.51
839.31	3375.05
839.48	3528.65
839.65	3000.27
839.82	3129.30
839.99	3491.79
840.16	3463.12
840.33	2971.60
840.50	3057.62
840.67	3223.50
840.84	2897.88
841.01	2951.12
841.18	2965.46
841.35	3395.53
841.52	3553.23
841.69	3438.54
841.86	3110.86
842.03	3383.24
842.20	3647.43
842.37	2934.74
842.54	3106.77
842.71	3454.92
842.88	3157.97
843.05	3018.71
843.22	3000.27
843.39	3629.00
843.56	3278.80
843.73	3039.19
843.90	3018.71
844.07	3444.68
844.24	3559.37
844.41	3149.78
844.58	3020.75
844.75	3469.26
844.92	3553.23
845.09	3020.75
845.26	3002.32
845.43	3532.75
845.60	3377.10
845.77	3178.45
845.94	3164.11
846.10	3676.10
846.27	3110.86
846.44	2959.31
846.61	2891.73
846.78	3532.75
846.95	3608.52
847.12	2914.26
847.29	3055.57
847.46	3215.31
847.63	3569.61
847.80	2805.72
847.97	2885.59
848.14	3966.92
848.31	3354.57
848.48	2846.68
848.65	3033.04
848.82	3350.48
848.98	4032.45
849.15	3139.54
849.32	3061.71
849.49	3678.15
849.66	3459.02
849.83	2975.70
850.00	2987.99
850.17	3592.14
850.34	3377.10
850.51	2889.68
850.68	3047.38
850.85	3925.96
851.01	3452.88
851.18	2985.94
851.35	3139.54
851.52	3524.55
851.69	3694.54
851.86	2930.64
852.03	2969.55
852.20	3567.56
852.37	3426.25
852.53	2906.07
852.70	2938.84
852.87	3479.50
853.04	3471.31
853.21	2977.75
853.38	3321.81
853.55	3743.69
853.72	3639.24
853.89	2918.36
854.05	2983.89
854.22	3401.68
854.39	3403.72
854.56	3037.14
854.73	3182.54
854.90	3262.41
855.07	3409.87
855.23	2901.97
855.40	2918.36
855.57	3375.05
855.74	2987.99
855.91	3164.11
856.08	2879.44
856.25	3176.40
856.41	3280.85
856.58	3078.10
856.75	3057.62
856.92	3184.59
857.09	3669.96
857.26	2822.10
857.42	3028.95
857.59	3626.95
857.76	3315.66
857.93	2987.99
858.10	3141.58
858.27	3196.88
858.43	3452.88
858.60	3057.62
858.77	2930.64
858.94	3280.85
859.11	3641.29
859.27	3151.82
859.44	2912.21
859.61	3936.20
859.78	3645.38
859.95	2922.45
860.12	2947.03
860.28	3915.72
860.45	3887.04
860.62	2998.23
860.79	3106.77
860.95	3354.57
861.12	3262.41
861.29	2910.16
861.46	3010.51
861.63	3358.67
861.79	3581.90
861.96	2883.54
862.13	3063.76
862.30	3764.17
862.47	3303.37
862.63	2770.90
862.80	3008.47
862.97	3637.19
863.14	3508.17
863.30	3082.19
863.47	2844.63
863.64	3803.08
863.81	3483.59
863.97	3008.47
864.14	3041.23
864.31	3364.81
864.48	3506.12
864.65	2990.03
864.81	3098.58
864.98	3598.28
865.15	3647.43
865.32	3049.43
865.48	3141.58
865.65	3891.14
865.82	3286.99
865.98	3141.58
866.15	3000.27
866.32	3444.68
866.49	3295.18
866.65	3182.54
866.82	3076.05
866.99	3409.87
867.16	3266.51
867.32	2998.23
867.49	2910.16
867.66	3368.91
867.83	3268.56
867.99	2992.08
868.16	3010.51
868.33	3262.41
868.49	3420.11
868.66	3055.57
868.83	3131.34
868.99	3446.73
869.16	3446.73
869.33	3211.22
869.50	3082.19
869.66	3430.35
869.83	3508.17
870.00	2869.20
870.16	3172.30
870.33	3436.49
870.50	3608.52
870.66	3112.91
870.83	3008.47
871.00	3467.21
871.17	3547.08
871.33	3092.43
871.50	3000.27
871.67	3434.44
871.83	3030.99
872.00	3055.57
872.17	3057.62
872.33	3835.85
872.50	3712.97
872.67	2932.69
872.83	2996.18
873.00	3497.93
873.17	3428.30
873.33	3041.23
873.50	3004.37
873.67	3252.17
873.83	3229.65
874.00	3119.06
874.16	3217.36
874.33	3448.78
874.50	3262.41
874.66	2975.70
874.83	3151.82
875.00	3663.82
875.16	3745.73
875.33	3149.78
875.50	2826.20
875.66	3350.48
875.83	3467.21
875.99	3082.19
876.16	3125.20
876.33	3223.50
876.49	3409.87
876.66	3119.06
876.83	3121.10
876.99	3035.09
877.16	3321.81
877.32	2934.74
877.49	3139.54
877.66	3461.07
877.82	3712.97
877.99	3071.95
878.15	3276.75
878.32	3452.88
878.49	3491.79
878.65	3155.92
878.82	3370.96
878.98	3379.15
879.15	3712.97
879.32	3213.26
879.48	3205.07
879.65	3465.16
879.81	3413.96
879.98	3024.85
880.15	3157.97
880.31	3643.34
880.48	3260.37
880.64	3157.97
880.81	3225.55
880.97	3809.22
881.14	3729.35
881.31	3000.27
881.47	3223.50
881.64	3456.97
881.80	3067.86
881.97	3139.54
882.13	3063.76
882.30	3147.73
882.47	3332.05
882.63	3047.38
882.80	2977.75
882.96	3397.58
883.13	3663.82
883.29	3049.43
883.46	2949.08
883.62	3966.92
883.79	3362.76
883.95	3180.50
884.12	2979.79
884.29	3755.97
884.45	3461.07
884.62	2987.99
884.78	3018.71
884.95	3790.79
885.11	3098.58
885.28	3162.06
885.44	3018.71
885.61	3553.23
885.77	3762.12
885.94	3184.59
886.10	3049.43
886.27	3438.54
886.43	3788.74
886.60	3223.50
886.76	3039.19
886.93	3260.37
887.09	3497.93
887.26	2877.40
887.42	3082.19
887.59	3700.68
887.75	3903.43
887.92	3155.92
888.08	3168.21
888.25	3850.18
888.41	3690.44
888.58	3106.77
888.74	2987.99
888.91	3430.35
>>>>>End Processed Spectral Data<<<<<
