SpectraSuite Data File
++++++++++++++++++++++++++++++++++++
Date: Fri May 06 09:29:05 CEST 2016
User: root
Dark Spectrum Present: No
Reference Spectrum Present: No
Number of Sampled Component Spectra: 1
Spectrometers: USB4C02835
Integration Time (usec): 100000 (USB4C02835)
Spectra Averaged: 1 (USB4C02835)
Boxcar Smoothing: 0 (USB4C02835)
Correct for Electrical Dark: No (USB4C02835)
Strobe/Lamp Enabled: No (USB4C02835)
Correct for Detector Non-linearity: No (USB4C02835)
Correct for Stray Light: No (USB4C02835)
Number of Pixels in Processed Spectrum: 3648
>>>>>Begin Processed Spectral Data<<<<<
177.47	2381.79
177.69	2381.79
177.91	2381.79
178.13	2361.31
178.36	2295.77
178.58	3125.20
178.80	3231.69
179.02	3114.96
179.24	3151.82
179.46	2832.34
179.68	2967.51
179.90	3420.11
180.13	3471.31
180.35	2750.42
180.57	2881.49
180.79	3641.29
181.01	3442.64
181.23	3010.51
181.45	3127.25
181.67	3624.90
181.90	3598.28
182.12	3047.38
182.34	2848.72
182.56	3493.83
182.78	3581.90
183.00	2899.92
183.22	2971.60
183.44	3110.86
183.66	4147.14
183.89	3030.99
184.11	2992.08
184.33	3610.57
184.55	3717.06
184.77	2936.79
184.99	2949.08
185.21	3291.09
185.43	4100.03
185.65	2987.99
185.87	2934.74
186.10	3956.68
186.32	4001.73
186.54	3082.19
186.76	3057.62
186.98	3581.90
187.20	3330.00
187.42	2979.79
187.64	2975.70
187.86	3522.51
188.08	3739.59
188.30	2918.36
188.52	3024.85
188.75	3755.97
188.97	3731.40
189.19	2918.36
189.41	2975.70
189.63	3497.93
189.85	3418.06
190.07	2811.86
190.29	2762.71
190.51	3483.59
190.73	3145.68
190.95	3223.50
191.17	3063.76
191.39	3166.16
191.61	3403.72
191.84	3008.47
192.06	3145.68
192.28	3127.25
192.50	4157.38
192.72	3147.73
192.94	3071.95
193.16	3764.17
193.38	3532.75
193.60	2885.59
193.82	3090.38
194.04	3602.38
194.26	3557.32
194.48	2947.03
194.70	2901.97
194.92	3332.05
195.14	3639.24
195.36	2928.60
195.58	3065.81
195.80	3385.29
196.02	3307.47
196.24	2928.60
196.46	3164.11
196.69	3327.95
196.91	4044.74
197.13	2922.45
197.35	3028.95
197.57	3841.99
197.79	3573.71
198.01	2992.08
198.23	2987.99
198.45	3557.32
198.67	3264.46
198.89	2738.13
199.11	3061.71
199.33	3352.52
199.55	2983.89
199.77	2914.26
199.99	3086.29
200.21	3334.09
200.43	3545.03
200.65	2861.01
200.87	2795.48
201.09	3495.88
201.31	3348.43
201.53	2994.13
201.75	3004.37
201.97	3452.88
202.19	3448.78
202.41	2975.70
202.63	3151.82
202.85	3700.68
203.07	3553.23
203.29	3119.06
203.51	2877.40
203.73	3272.65
203.95	4081.60
204.17	2965.46
204.39	3067.86
204.61	3377.10
204.83	3411.92
205.05	3172.30
205.27	2969.55
205.49	3981.25
205.71	3405.77
205.93	2807.77
206.15	2824.15
206.37	3520.46
206.59	3573.71
206.81	2762.71
207.03	2820.05
207.25	3260.37
207.47	3635.14
207.69	3012.56
207.91	3231.69
208.13	3917.76
208.34	3348.43
208.56	2910.16
208.78	2926.55
209.00	3375.05
209.22	3352.52
209.44	3049.43
209.66	3004.37
209.88	3438.54
210.10	3360.72
210.32	3006.42
210.54	3074.00
210.76	3317.71
210.98	3704.78
211.20	2858.96
211.42	3067.86
211.64	3676.10
211.86	3514.31
212.08	3080.14
212.30	2969.55
212.52	3450.83
212.74	3547.08
212.96	3112.91
213.17	3057.62
213.39	3655.62
213.61	3901.38
213.83	2940.88
214.05	2832.34
214.27	3659.72
214.49	3100.62
214.71	2973.65
214.93	3082.19
215.15	3448.78
215.37	3604.42
215.59	2828.24
215.81	3065.81
216.03	3725.26
216.24	3557.32
216.46	2942.93
216.68	2971.60
216.90	3600.33
217.12	3665.86
217.34	2947.03
217.56	3114.96
217.78	3753.93
218.00	3629.00
218.22	3092.43
218.44	3119.06
218.66	3520.46
218.87	3862.47
219.09	2979.79
219.31	2975.70
219.53	3542.99
219.75	3385.29
219.97	3037.14
220.19	2985.94
220.41	3381.20
220.63	3782.60
220.85	2971.60
221.06	2967.51
221.28	3850.18
221.50	3602.38
221.72	2951.12
221.94	2889.68
222.16	3456.97
222.38	3659.72
222.60	2910.16
222.82	3047.38
223.03	3651.53
223.25	3233.74
223.47	2926.55
223.69	3178.45
223.91	3551.18
224.13	3471.31
224.35	2836.44
224.57	3184.59
224.78	3626.95
225.00	3213.26
225.22	3024.85
225.44	2901.97
225.66	3559.37
225.88	3438.54
226.10	3098.58
226.32	3016.66
226.53	3817.41
226.75	3354.57
226.97	3024.85
227.19	2942.93
227.41	3338.19
227.63	3413.96
227.85	2826.20
228.06	3051.47
228.28	3487.69
228.50	3594.19
228.72	2811.86
228.94	2901.97
229.16	3125.20
229.37	3229.65
229.59	2867.16
229.81	3239.89
230.03	3307.47
230.25	3135.44
230.47	2826.20
230.69	2983.89
230.90	3661.77
231.12	3264.46
231.34	3067.86
231.56	3033.04
231.78	3184.59
232.00	3452.88
232.21	3008.47
232.43	2971.60
232.65	3018.71
232.87	3504.07
233.09	2807.77
233.30	2922.45
233.52	3661.77
233.74	3440.59
233.96	2889.68
234.18	3172.30
234.40	3424.20
234.61	3999.68
234.83	2850.77
235.05	2865.11
235.27	4069.31
235.49	3717.06
235.70	2807.77
235.92	3024.85
236.14	3635.14
236.36	4052.93
236.58	2869.20
236.79	3082.19
237.01	3436.49
237.23	3448.78
237.45	3117.01
237.67	2940.88
237.88	3577.80
238.10	3862.47
238.32	2754.52
238.54	2897.88
238.76	3368.91
238.97	3248.08
239.19	2807.77
239.41	3002.32
239.63	3712.97
239.85	3319.76
240.06	2992.08
240.28	2967.51
240.50	3700.68
240.72	3450.83
240.93	2887.64
241.15	3170.26
241.37	3420.11
241.59	3794.89
241.81	2969.55
242.02	3006.42
242.24	3461.07
242.46	3606.47
242.68	2871.25
242.89	2934.74
243.11	3704.78
243.33	3377.10
243.55	2981.84
243.76	2990.03
243.98	3260.37
244.20	3368.91
244.42	2947.03
244.64	2926.55
244.85	3166.16
245.07	3291.09
245.29	2930.64
245.51	3071.95
245.72	3463.12
245.94	3717.06
246.16	2895.83
246.38	3022.80
246.59	3319.76
246.81	3289.04
247.03	2844.63
247.24	2770.90
247.46	3344.33
247.68	3438.54
247.90	2830.29
248.11	2977.75
248.33	3633.10
248.55	3336.14
248.77	2944.98
248.98	3051.47
249.20	3817.41
249.42	3426.25
249.64	2865.11
249.85	2932.69
250.07	3399.63
250.29	3651.53
250.50	3155.92
250.72	2844.63
250.94	3524.55
251.16	3856.33
251.37	2944.98
251.59	3080.14
251.81	3639.24
252.02	3866.56
252.24	2815.96
252.46	3104.72
252.68	3268.56
252.89	3266.51
253.11	2824.15
253.33	3123.15
253.54	3729.35
253.76	3233.74
253.98	2906.07
254.20	2938.84
254.41	3200.98
254.63	3430.35
254.85	2836.44
255.06	3047.38
255.28	3583.95
255.50	3340.24
255.71	2920.40
255.93	2791.38
256.15	3407.82
256.36	3682.25
256.58	2875.35
256.80	2838.48
257.02	3409.87
257.23	3346.38
257.45	2973.65
257.67	3168.21
257.88	3395.53
258.10	3508.17
258.32	3012.56
258.53	2918.36
258.75	3733.45
258.97	3280.85
259.18	2973.65
259.40	2928.60
259.62	4003.78
259.83	3811.27
260.05	2959.31
260.27	3880.90
260.48	3690.44
260.70	3203.02
260.92	2861.01
261.13	2992.08
261.35	3502.03
261.57	3536.84
261.78	2822.10
262.00	2928.60
262.22	3579.85
262.43	3166.16
262.65	2967.51
262.86	2944.98
263.08	3975.11
263.30	3518.41
263.51	2775.00
263.73	2942.93
263.95	3876.80
264.16	3254.22
264.38	2768.85
264.60	2877.40
264.81	3430.35
265.03	3629.00
265.25	3456.97
265.46	2871.25
265.68	3725.26
265.89	3573.71
266.11	2869.20
266.33	2959.31
266.54	3696.58
266.76	3583.95
266.98	3094.48
267.19	3237.84
267.41	3672.01
267.62	3459.02
267.84	2791.38
268.06	3057.62
268.27	3499.98
268.49	3678.15
268.70	3016.66
268.92	2949.08
269.14	3225.55
269.35	3162.06
269.57	3014.61
269.79	3030.99
270.00	3319.76
270.22	3919.81
270.43	2842.58
270.65	2836.44
270.87	3467.21
271.08	3620.81
271.30	3020.75
271.51	3074.00
271.73	3594.19
271.95	3712.97
272.16	2967.51
272.38	3176.40
272.59	3391.44
272.81	3573.71
273.02	2947.03
273.24	3020.75
273.46	3684.30
273.67	3168.21
273.89	2824.15
274.10	2908.12
274.32	3639.24
274.54	3508.17
274.75	3043.28
274.97	3067.86
275.18	3635.14
275.40	3569.61
275.61	2975.70
275.83	3182.54
276.05	3164.11
276.26	3452.88
276.48	3078.10
276.69	3131.34
276.91	3366.86
277.12	3786.69
277.34	3090.38
277.55	3174.35
277.77	3446.73
277.99	3307.47
278.20	3071.95
278.42	3035.09
278.63	3297.23
278.85	3233.74
279.06	3098.58
279.28	3164.11
279.49	3678.15
279.71	3583.95
279.93	3211.22
280.14	3172.30
280.36	3370.96
280.57	3647.43
280.79	3194.83
281.00	2994.13
281.22	3256.27
281.43	3686.34
281.65	2858.96
281.86	2955.22
282.08	3542.99
282.29	3844.04
282.51	2899.92
282.73	2987.99
282.94	3086.29
283.16	3680.20
283.37	3219.41
283.59	3102.67
283.80	3528.65
284.02	3373.00
284.23	3039.19
284.45	3172.30
284.66	3282.89
284.88	3280.85
285.09	3051.47
285.31	3078.10
285.52	3540.94
285.74	3157.97
285.95	3286.99
286.17	3112.91
286.38	3770.31
286.60	3358.67
286.81	2996.18
287.03	3086.29
287.24	3360.72
287.46	3614.66
287.67	3200.98
287.89	3286.99
288.10	3450.83
288.32	3477.45
288.53	3176.40
288.75	3237.84
288.96	3633.10
289.18	3360.72
289.39	3067.86
289.61	3190.74
289.82	3940.29
290.04	3962.82
290.25	3004.37
290.47	3086.29
290.68	3438.54
290.90	3657.67
291.11	2928.60
291.33	3221.45
291.54	3330.00
291.76	3356.62
291.97	3180.50
292.18	3217.36
292.40	3358.67
292.61	3289.04
292.83	3352.52
293.04	3108.82
293.26	3485.64
293.47	3344.33
293.69	3053.52
293.90	2985.94
294.12	3737.54
294.33	3442.64
294.55	3051.47
294.76	3299.28
294.97	3796.93
295.19	3952.58
295.40	3071.95
295.62	3090.38
295.83	3590.09
296.05	3356.62
296.26	3321.81
296.48	3020.75
296.69	3450.83
296.90	3426.25
297.12	3209.17
297.33	3272.65
297.55	3475.40
297.76	3508.17
297.98	3254.22
298.19	3348.43
298.41	3444.68
298.62	3215.31
298.83	3266.51
299.05	3217.36
299.26	3381.20
299.48	3270.61
299.69	3198.93
299.90	3049.43
300.12	3258.32
300.33	3516.36
300.55	3229.65
300.76	3178.45
300.98	3235.79
301.19	3614.66
301.40	3157.97
301.62	3110.86
301.83	3495.88
302.05	3422.16
302.26	3074.00
302.47	3213.26
302.69	3200.98
302.90	3483.59
303.12	2949.08
303.33	3278.80
303.54	3887.04
303.76	3395.53
303.97	3043.28
304.19	3268.56
304.40	3178.45
304.61	3555.27
304.83	3157.97
305.04	3061.71
305.26	3495.88
305.47	3319.76
305.68	3069.91
305.90	2877.40
306.11	3731.40
306.33	3422.16
306.54	2961.36
306.75	3094.48
306.97	3125.20
307.18	3211.22
307.39	3090.38
307.61	3155.92
307.82	3416.01
308.04	3542.99
308.25	2969.55
308.46	3217.36
308.68	3526.60
308.89	3436.49
309.10	3258.32
309.32	3104.72
309.53	3524.55
309.74	3526.60
309.96	2942.93
310.17	3172.30
310.39	3311.57
310.60	3588.04
310.81	3133.39
311.03	3014.61
311.24	3624.90
311.45	3385.29
311.67	3289.04
311.88	3196.88
312.09	3336.14
312.31	3344.33
312.52	3014.61
312.73	2981.84
312.95	3188.69
313.16	3282.89
313.37	3182.54
313.59	3286.99
313.80	3655.62
314.01	3821.51
314.23	3149.78
314.44	3088.34
314.65	3211.22
314.87	3272.65
315.08	3033.04
315.29	3045.33
315.51	3217.36
315.72	3094.48
315.93	3104.72
316.15	3123.15
316.36	3303.37
316.57	3397.58
316.79	3069.91
317.00	3051.47
317.21	3575.75
317.43	3270.61
317.64	3172.30
317.85	3084.24
318.07	3241.93
318.28	3346.38
318.49	3205.07
318.70	3327.95
318.92	3467.21
319.13	3459.02
319.34	3254.22
319.56	3041.23
319.77	3502.03
319.98	3534.79
320.20	3469.26
320.41	3311.57
320.62	3606.47
320.83	3145.68
321.05	3344.33
321.26	3200.98
321.47	3499.98
321.69	3712.97
321.90	2967.51
322.11	2955.22
322.32	3471.31
322.54	3674.06
322.75	3057.62
322.96	4163.52
323.18	3092.43
323.39	3057.62
323.60	2975.70
323.81	3172.30
324.03	3360.72
324.24	3411.92
324.45	3233.74
324.66	3114.96
324.88	3704.78
325.09	3815.37
325.30	3084.24
325.52	3074.00
325.73	3545.03
325.94	3231.69
326.15	2963.41
326.37	2955.22
326.58	3475.40
326.79	3852.23
327.00	2969.55
327.22	3041.23
327.43	3428.30
327.64	3293.13
327.85	3274.70
328.07	3084.24
328.28	3901.38
328.49	3297.23
328.70	3102.67
328.92	3139.54
329.13	3403.72
329.34	3592.14
329.55	3301.33
329.76	3295.18
329.98	3483.59
330.19	3770.31
330.40	3215.31
330.61	3192.78
330.83	3606.47
331.04	3362.76
331.25	3207.12
331.46	3110.86
331.68	3123.15
331.89	3635.14
332.10	3106.77
332.31	3000.27
332.52	3502.03
332.74	3647.43
332.95	3004.37
333.16	3074.00
333.37	3635.14
333.58	3375.05
333.80	3045.33
334.01	2967.51
334.22	3358.67
334.43	3432.40
334.64	2947.03
334.86	3127.25
335.07	3217.36
335.28	3745.73
335.49	2961.36
335.70	3172.30
335.92	3635.14
336.13	3915.72
336.34	3106.77
336.55	3123.15
336.76	3475.40
336.98	2983.89
337.19	3166.16
337.40	3127.25
337.61	4018.11
337.82	3354.57
338.04	3235.79
338.25	2983.89
338.46	3364.81
338.67	3336.14
338.88	2975.70
339.09	3024.85
339.31	3317.71
339.52	3170.26
339.73	3008.47
339.94	3123.15
340.15	3616.71
340.36	3289.04
340.58	3117.01
340.79	3002.32
341.00	3571.66
341.21	3254.22
341.42	3479.50
341.63	3100.62
341.85	3573.71
342.06	3370.96
342.27	3063.76
342.48	3256.27
342.69	3170.26
342.90	3540.94
343.12	3549.13
343.33	3051.47
343.54	3702.73
343.75	3751.88
343.96	3270.61
344.17	3012.56
344.38	3377.10
344.60	3129.30
344.81	3049.43
345.02	3108.82
345.23	3682.25
345.44	3934.15
345.65	3174.35
345.86	3139.54
346.07	3510.22
346.29	3358.67
346.50	3256.27
346.71	3168.21
346.92	3721.16
347.13	3903.43
347.34	3266.51
347.55	2955.22
347.76	3506.12
347.98	3127.25
348.19	3139.54
348.40	3291.09
348.61	3411.92
348.82	3735.50
349.03	3170.26
349.24	2992.08
349.45	3870.66
349.66	3014.61
349.88	3026.90
350.09	2955.22
350.30	3805.13
350.51	3762.12
350.72	3307.47
350.93	3039.19
351.14	3430.35
351.35	3547.08
351.56	3133.39
351.77	3170.26
351.99	3483.59
352.20	3663.82
352.41	3129.30
352.62	2930.64
352.83	3461.07
353.04	3438.54
353.25	3057.62
353.46	3028.95
353.67	3762.12
353.88	3108.82
354.09	2971.60
354.30	3190.74
354.52	3567.56
354.73	3416.01
354.94	3076.05
355.15	3235.79
355.36	3733.45
355.57	3299.28
355.78	2949.08
355.99	3039.19
356.20	3391.44
356.41	3733.45
356.62	3137.49
356.83	3106.77
357.04	3749.83
357.25	3133.39
357.46	3061.71
357.68	3049.43
357.89	3297.23
358.10	3428.30
358.31	3053.52
358.52	3176.40
358.73	3180.50
358.94	3182.54
359.15	3098.58
359.36	3182.54
359.57	3418.06
359.78	3387.34
359.99	3278.80
360.20	3119.06
360.41	3370.96
360.62	3532.75
360.83	3172.30
361.04	3092.43
361.25	3475.40
361.46	3813.32
361.67	3190.74
361.88	3098.58
362.09	3559.37
362.30	3557.32
362.51	3018.71
362.72	3160.02
362.93	3549.13
363.14	3467.21
363.35	3270.61
363.56	2985.94
363.78	3712.97
363.99	3592.14
364.20	3119.06
364.41	3264.46
364.62	3760.07
364.83	3569.61
365.04	3139.54
365.25	3149.78
365.46	3962.82
365.67	3260.37
365.88	3184.59
366.09	3151.82
366.30	3393.48
366.51	3463.12
366.72	3047.38
366.93	3082.19
367.14	3438.54
367.35	3669.96
367.56	3012.56
367.77	3231.69
367.98	3491.79
368.18	3565.51
368.39	3217.36
368.60	2959.31
368.81	3649.48
369.02	3520.46
369.23	3155.92
369.44	2926.55
369.65	3536.84
369.86	3495.88
370.07	3248.08
370.28	3043.28
370.49	3491.79
370.70	3524.55
370.91	3055.57
371.12	2944.98
371.33	3712.97
371.54	3270.61
371.75	3190.74
371.96	2756.57
372.17	3502.03
372.38	3411.92
372.59	3135.44
372.80	3057.62
373.01	3358.67
373.22	3483.59
373.43	3059.67
373.64	2955.22
373.85	3772.36
374.06	3782.60
374.26	3303.37
374.47	3155.92
374.68	3839.94
374.89	3532.75
375.10	3016.66
375.31	3188.69
375.52	3530.70
375.73	3471.31
375.94	2910.16
376.15	3139.54
376.36	3313.61
376.57	3348.43
376.78	3198.93
376.99	3172.30
377.20	3770.31
377.40	3440.59
377.61	3467.21
377.82	3063.76
378.03	3710.92
378.24	3573.71
378.45	3254.22
378.66	3207.12
378.87	3084.24
379.08	3131.34
379.29	3162.06
379.50	3286.99
379.71	3424.20
379.91	3577.80
380.12	3055.57
380.33	3227.60
380.54	3428.30
380.75	3356.62
380.96	3074.00
381.17	3205.07
381.38	3420.11
381.59	3430.35
381.80	3149.78
382.00	3264.46
382.21	3450.83
382.42	3805.13
382.63	3542.99
382.84	3327.95
383.05	3598.28
383.26	3813.32
383.47	3211.22
383.68	3061.71
383.88	3565.51
384.09	3434.44
384.30	3284.94
384.51	3203.02
384.72	3305.42
384.93	3155.92
385.14	3157.97
385.35	3485.64
385.55	3198.93
385.76	3745.73
385.97	3139.54
386.18	3016.66
386.39	3280.85
386.60	3358.67
386.81	3059.67
387.02	3026.90
387.22	3149.78
387.43	3616.71
387.64	3231.69
387.85	3327.95
388.06	3413.96
388.27	4282.30
388.48	7200.66
388.68	11059.03
388.89	13514.55
389.10	14833.44
389.31	14460.71
389.52	11857.74
389.73	10348.39
389.93	9566.06
390.14	8521.60
390.35	7833.48
390.56	7477.13
390.77	6231.97
390.98	4739.00
391.18	4126.66
391.39	4016.07
391.60	3405.77
391.81	3403.72
392.02	3207.12
392.23	3905.48
392.43	3450.83
392.64	3278.80
392.85	3278.80
393.06	3741.64
393.27	3473.36
393.47	3071.95
393.68	3213.26
393.89	3336.14
394.10	3655.62
394.31	3213.26
394.52	3045.33
394.72	3282.89
394.93	3796.93
395.14	2951.12
395.35	3250.13
395.56	3323.85
395.76	3446.73
395.97	3125.20
396.18	3209.17
396.39	3403.72
396.60	4118.47
396.80	3475.40
397.01	3360.72
397.22	3592.14
397.43	3547.08
397.64	3114.96
397.84	3205.07
398.05	3887.04
398.26	3334.09
398.47	3375.05
398.67	3362.76
398.88	3368.91
399.09	3577.80
399.30	3147.73
399.51	3198.93
399.71	3315.66
399.92	3463.12
400.13	3200.98
400.34	3135.44
400.54	3575.75
400.75	3758.02
400.96	3147.73
401.17	3491.79
401.37	3534.79
401.58	3387.34
401.79	3055.57
402.00	3241.93
402.21	3934.15
402.41	3499.98
402.62	3422.16
402.83	3569.61
403.04	3721.16
403.24	4202.43
403.45	3303.37
403.66	3344.33
403.87	3680.20
404.07	3745.73
404.28	3323.85
404.49	3422.16
404.70	3557.32
404.90	3626.95
405.11	3098.58
405.32	3323.85
405.52	3360.72
405.73	3246.03
405.94	3063.76
406.15	3254.22
406.35	3604.42
406.56	3571.66
406.77	3258.32
406.98	3123.15
407.18	3227.60
407.39	3672.01
407.60	3112.91
407.80	3207.12
408.01	3356.62
408.22	3540.94
408.43	3049.43
408.63	3254.22
408.84	3641.29
409.05	3592.14
409.25	3059.67
409.46	3141.58
409.67	3403.72
409.88	3346.38
410.08	3174.35
410.29	3114.96
410.50	3669.96
410.70	3557.32
410.91	2998.23
411.12	3200.98
411.32	3428.30
411.53	3211.22
411.74	3030.99
411.95	3266.51
412.15	3399.63
412.36	3565.51
412.57	3286.99
412.77	3313.61
412.98	3346.38
413.19	3299.28
413.39	3174.35
413.60	3207.12
413.81	3772.36
414.01	3297.23
414.22	3151.82
414.43	3366.86
414.63	3317.71
414.84	3561.42
415.05	3205.07
415.25	3022.80
415.46	3585.99
415.67	3366.86
415.87	3227.60
416.08	3123.15
416.29	3416.01
416.49	3493.83
416.70	3262.41
416.91	3221.45
417.11	3424.20
417.32	3618.76
417.53	3219.41
417.73	3237.84
417.94	3493.83
418.15	3442.64
418.35	3205.07
418.56	3168.21
418.77	3973.06
418.97	3497.93
419.18	3299.28
419.38	2920.40
419.59	3461.07
419.80	3813.32
420.00	3106.77
420.21	3180.50
420.42	3706.82
420.62	3475.40
420.83	3069.91
421.04	3119.06
421.24	3450.83
421.45	3721.16
421.65	3205.07
421.86	3188.69
422.07	3655.62
422.27	3551.18
422.48	3123.15
422.69	2922.45
422.89	3397.58
423.10	3368.91
423.30	3110.86
423.51	3246.03
423.72	3596.23
423.92	3610.57
424.13	3033.04
424.33	3231.69
424.54	3674.06
424.75	3491.79
424.95	3418.06
425.16	3094.48
425.36	3358.67
425.57	3637.19
425.78	3332.05
425.98	3297.23
426.19	3354.57
426.39	3274.70
426.60	3309.52
426.81	3237.84
427.01	3442.64
427.22	3272.65
427.42	3010.51
427.63	3121.10
427.83	3672.01
428.04	3782.60
428.25	3246.03
428.45	3229.65
428.66	3641.29
428.86	3334.09
429.07	3239.89
429.28	3139.54
429.48	3495.88
429.69	3309.52
429.89	3321.81
430.10	3143.63
430.30	3590.09
430.51	3631.05
430.71	3119.06
430.92	3241.93
431.13	3293.13
431.33	3502.03
431.54	3295.18
431.74	3403.72
431.95	3860.42
432.15	3225.55
432.36	3160.02
432.56	3196.88
432.77	3885.00
432.98	3866.56
433.18	3246.03
433.39	3049.43
433.59	3483.59
433.80	3909.57
434.00	3299.28
434.21	3194.83
434.41	3286.99
434.62	3919.81
434.82	3035.09
435.03	3051.47
435.23	3465.16
435.44	3016.66
435.64	3129.30
435.85	3229.65
436.06	3710.92
436.26	3764.17
436.47	3147.73
436.67	3151.82
436.88	3399.63
437.08	3712.97
437.29	3237.84
437.49	3268.56
437.70	3696.58
437.90	3487.69
438.11	3305.42
438.31	3268.56
438.52	3700.68
438.72	3637.19
438.93	3545.03
439.13	3274.70
439.34	3581.90
439.54	3381.20
439.75	3319.76
439.95	3270.61
440.16	3155.92
440.36	3506.12
440.57	3137.49
440.77	3190.74
440.98	3471.31
441.18	3565.51
441.39	3094.48
441.59	3080.14
441.80	3934.15
442.00	3348.43
442.21	3278.80
442.41	2977.75
442.62	3715.02
442.82	3350.48
443.02	3133.39
443.23	3143.63
443.43	3377.10
443.64	3796.93
443.84	2994.13
444.05	3239.89
444.25	3391.44
444.46	3295.18
444.66	3162.06
444.87	3426.25
445.07	3112.91
445.28	3426.25
445.48	3385.29
445.69	3260.37
445.89	3997.64
446.09	3409.87
446.30	3452.88
446.50	3512.27
446.71	5052.34
446.91	6201.25
447.12	6909.85
447.32	7323.54
447.53	7315.34
447.73	6285.22
447.93	5230.51
448.14	5214.13
448.34	5480.36
448.55	4444.09
448.75	4409.28
448.96	4233.15
449.16	4184.00
449.36	4018.11
449.57	3350.48
449.77	3266.51
449.98	3327.95
450.18	3561.42
450.39	3071.95
450.59	3436.49
450.79	3432.40
451.00	3330.00
451.20	3278.80
451.41	3198.93
451.61	3549.13
451.81	3360.72
452.02	3141.58
452.22	3180.50
452.43	3336.14
452.63	3330.00
452.84	3266.51
453.04	3057.62
453.24	3448.78
453.45	3233.74
453.65	3203.02
453.86	3207.12
454.06	3483.59
454.26	3491.79
454.47	3074.00
454.67	3338.19
454.87	3506.12
455.08	3393.48
455.28	3237.84
455.49	3317.71
455.69	3270.61
455.89	3866.56
456.10	3274.70
456.30	3133.39
456.51	3645.38
456.71	3493.83
456.91	3362.76
457.12	3074.00
457.32	3538.89
457.52	3215.31
457.73	3368.91
457.93	3278.80
458.14	3205.07
458.34	3059.67
458.54	3172.30
458.75	3069.91
458.95	3631.05
459.15	3454.92
459.36	3192.78
459.56	3117.01
459.76	3934.15
459.97	3459.02
460.17	3102.67
460.37	3194.83
460.58	3448.78
460.78	3575.75
460.99	3278.80
461.19	3180.50
461.39	3317.71
461.60	3416.01
461.80	3217.36
462.00	3041.23
462.21	3475.40
462.41	3299.28
462.61	3004.37
462.82	2969.55
463.02	3540.94
463.22	3401.68
463.43	3174.35
463.63	3117.01
463.83	3706.82
464.04	3456.97
464.24	3155.92
464.44	3194.83
464.64	3436.49
464.85	3606.47
465.05	3223.50
465.25	3041.23
465.46	3319.76
465.66	3608.52
465.86	3252.17
466.07	3162.06
466.27	3393.48
466.47	3092.43
466.68	2947.03
466.88	3319.76
467.08	3573.71
467.29	3723.21
467.49	3151.82
467.69	3260.37
467.89	3622.86
468.10	3375.05
468.30	3317.71
468.50	3295.18
468.71	3661.77
468.91	3133.39
469.11	3368.91
469.31	3270.61
469.52	3248.08
469.72	3841.99
469.92	3432.40
470.13	3237.84
470.33	3413.96
470.53	3463.12
470.73	3483.59
470.94	3823.56
471.14	4097.99
471.34	4523.96
471.54	4071.36
471.75	3917.76
471.95	3798.98
472.15	3688.39
472.36	3692.49
472.56	3524.55
472.76	3952.58
472.96	3889.09
473.17	3405.77
473.37	3246.03
473.57	3340.24
473.77	3520.46
473.98	3319.76
474.18	3024.85
474.38	4108.23
474.58	3358.67
474.79	3012.56
474.99	3286.99
475.19	3618.76
475.39	3237.84
475.60	3235.79
475.80	3133.39
476.00	3518.41
476.20	3416.01
476.41	3180.50
476.61	3264.46
476.81	3745.73
477.01	3176.40
477.21	3418.06
477.42	3254.22
477.62	3297.23
477.82	3534.79
478.02	3131.34
478.23	3151.82
478.43	3293.13
478.63	3354.57
478.83	3151.82
479.03	3237.84
479.24	3745.73
479.44	3899.33
479.64	3110.86
479.84	3037.14
480.04	3323.85
480.25	3622.86
480.45	3090.38
480.65	3108.82
480.85	3817.41
481.06	3358.67
481.26	3235.79
481.46	3125.20
481.66	3442.64
481.86	3264.46
482.06	3358.67
482.27	3209.17
482.47	3383.24
482.67	3598.28
482.87	3117.01
483.07	3200.98
483.28	3362.76
483.48	3196.88
483.68	3117.01
483.88	3049.43
484.08	3067.86
484.29	3155.92
484.49	3291.09
484.69	3074.00
484.89	3725.26
485.09	3581.90
485.29	3280.85
485.50	3362.76
485.70	3319.76
485.90	3788.74
486.10	3354.57
486.30	3018.71
486.50	3743.69
486.71	3569.61
486.91	3243.98
487.11	3246.03
487.31	3237.84
487.51	3545.03
487.71	3164.11
487.91	3074.00
488.12	3276.75
488.32	2897.88
488.52	3131.34
488.72	2957.27
488.92	3428.30
489.12	3712.97
489.32	3307.47
489.53	3090.38
489.73	3168.21
489.93	3774.41
490.13	3174.35
490.33	3016.66
490.53	3407.82
490.73	3590.09
490.94	2994.13
491.14	3266.51
491.34	3536.84
491.54	3571.66
491.74	4005.83
491.94	4554.68
492.14	5138.35
492.34	5228.46
492.54	4749.24
492.75	4100.03
492.95	4472.76
493.15	4093.89
493.35	3809.22
493.55	3780.55
493.75	3798.98
493.95	3968.96
494.15	3416.01
494.35	3241.93
494.56	3418.06
494.76	3303.37
494.96	3370.96
495.16	3082.19
495.36	3413.96
495.56	3475.40
495.76	3153.87
495.96	3194.83
496.16	3256.27
496.36	3864.52
496.56	3147.73
496.77	3248.08
496.97	3332.05
497.17	3723.21
497.37	2998.23
497.57	3319.76
497.77	3418.06
497.97	3270.61
498.17	3221.45
498.37	3096.53
498.57	3594.19
498.77	3362.76
498.97	3375.05
499.17	3491.79
499.38	3409.87
499.58	3592.14
499.78	3336.14
499.98	3278.80
500.18	3450.83
500.38	3262.41
500.58	3360.72
500.78	3751.88
500.98	6180.77
501.18	7786.38
501.38	9115.51
501.58	9998.18
501.78	10061.67
501.98	8632.19
502.18	7057.30
502.38	6211.49
502.58	6285.22
502.78	5492.65
502.98	5283.76
503.18	5023.67
503.38	4763.58
503.59	4114.37
503.79	4009.92
503.99	3772.36
504.19	4050.88
504.39	3966.92
504.59	3592.14
504.79	3512.27
504.99	4057.03
505.19	3665.86
505.39	3327.95
505.59	3514.31
505.79	3819.46
505.99	3606.47
506.19	3205.07
506.39	3459.02
506.59	3262.41
506.79	3362.76
506.99	3465.16
507.19	3074.00
507.39	3579.85
507.59	3100.62
507.79	3180.50
507.99	3020.75
508.19	3450.83
508.39	3344.33
508.59	3182.54
508.79	3227.60
508.99	3839.94
509.19	3274.70
509.39	3205.07
509.59	3092.43
509.79	3307.47
509.99	3540.94
510.19	3286.99
510.39	3258.32
510.59	3583.95
510.79	3266.51
510.99	3004.37
511.19	3127.25
511.39	3860.42
511.59	3641.29
511.79	3319.76
511.99	3092.43
512.19	3909.57
512.38	3434.44
512.58	3157.97
512.78	3030.99
512.98	3712.97
513.18	3817.41
513.38	3094.48
513.58	3188.69
513.78	3405.77
513.98	3426.25
514.18	3221.45
514.38	3164.11
514.58	3518.41
514.78	3305.42
514.98	3100.62
515.18	3164.11
515.38	3180.50
515.58	3819.46
515.78	3045.33
515.98	3172.30
516.18	3635.14
516.38	3393.48
516.57	3102.67
516.77	3157.97
516.97	3624.90
517.17	3284.94
517.37	2996.18
517.57	3172.30
517.77	3493.83
517.97	3248.08
518.17	3127.25
518.37	3047.38
518.57	3295.18
518.77	3295.18
518.97	3194.83
519.16	3246.03
519.36	3694.54
519.56	3330.00
519.76	3104.72
519.96	3196.88
520.16	3786.69
520.36	3270.61
520.56	3270.61
520.76	3117.01
520.96	3332.05
521.16	3649.48
521.35	3389.39
521.55	3313.61
521.75	3391.44
521.95	3356.62
522.15	3133.39
522.35	3010.51
522.55	3286.99
522.75	3573.71
522.95	3063.76
523.14	2975.70
523.34	3411.92
523.54	3282.89
523.74	3319.76
523.94	3192.78
524.14	3145.68
524.34	3516.36
524.54	3381.20
524.73	3100.62
524.93	3559.37
525.13	3430.35
525.33	2987.99
525.53	3461.07
525.73	3614.66
525.93	3385.29
526.13	3227.60
526.32	3049.43
526.52	3692.49
526.72	3573.71
526.92	3256.27
527.12	3094.48
527.32	3168.21
527.52	3508.17
527.71	3141.58
527.91	3256.27
528.11	3313.61
528.31	3405.77
528.51	3176.40
528.71	3311.57
528.90	3567.56
529.10	3770.31
529.30	3164.11
529.50	2848.72
529.70	3499.98
529.90	3297.23
530.09	3151.82
530.29	2998.23
530.49	3231.69
530.69	4091.84
530.89	3305.42
531.09	3352.52
531.28	3327.95
531.48	3624.90
531.68	3168.21
531.88	3176.40
532.08	3626.95
532.28	3422.16
532.47	3217.36
532.67	3389.39
532.87	3588.04
533.07	3225.55
533.27	3203.02
533.46	3237.84
533.66	3567.56
533.86	3323.85
534.06	3207.12
534.26	3198.93
534.45	3336.14
534.65	3626.95
534.85	3274.70
535.05	3098.58
535.25	3639.24
535.44	3055.57
535.64	3252.17
535.84	3188.69
536.04	3229.65
536.24	3303.37
536.43	3129.30
536.63	3043.28
536.83	3377.10
537.03	3393.48
537.22	3067.86
537.42	3033.04
537.62	3542.99
537.82	3274.70
538.02	3327.95
538.21	3205.07
538.41	4083.65
538.61	3583.95
538.81	3186.64
539.00	3270.61
539.20	3180.50
539.40	3389.39
539.60	3121.10
539.79	3452.88
539.99	3471.31
540.19	3307.47
540.39	3090.38
540.58	3264.46
540.78	3643.34
540.98	3473.36
541.18	3450.83
541.37	3174.35
541.57	3385.29
541.77	3450.83
541.97	3104.72
542.16	2985.94
542.36	3373.00
542.56	3276.75
542.76	3330.00
542.95	3297.23
543.15	3561.42
543.35	3573.71
543.54	3147.73
543.74	3053.52
543.94	3774.41
544.14	3237.84
544.33	3270.61
544.53	3147.73
544.73	3401.68
544.93	3354.57
545.12	3114.96
545.32	3221.45
545.52	3401.68
545.71	3213.26
545.91	3200.98
546.11	3102.67
546.30	3272.65
546.50	3459.02
546.70	3303.37
546.90	3213.26
547.09	2992.08
547.29	3452.88
547.49	3352.52
547.68	3160.02
547.88	3153.87
548.08	3532.75
548.27	3446.73
548.47	3160.02
548.67	3295.18
548.87	3510.22
549.06	3110.86
549.26	3166.16
549.46	3465.16
549.65	3362.76
549.85	3211.22
550.05	3168.21
550.24	3125.20
550.44	3344.33
550.64	3176.40
550.83	3254.22
551.03	3801.03
551.23	3657.67
551.42	3260.37
551.62	3221.45
551.82	3397.58
552.01	3393.48
552.21	3557.32
552.41	3295.18
552.60	3688.39
552.80	3522.51
553.00	3078.10
553.19	3141.58
553.39	3876.80
553.59	3123.15
553.78	3385.29
553.98	3028.95
554.17	3088.34
554.37	3450.83
554.57	3291.09
554.76	3063.76
554.96	3295.18
555.16	3459.02
555.35	3188.69
555.55	3385.29
555.75	3442.64
555.94	3606.47
556.14	2969.55
556.33	3180.50
556.53	3399.63
556.73	3370.96
556.92	3162.06
557.12	3139.54
557.32	3893.19
557.51	3805.13
557.71	3213.26
557.90	3346.38
558.10	3708.87
558.30	3393.48
558.49	3239.89
558.69	3180.50
558.88	3678.15
559.08	3434.44
559.28	3168.21
559.47	3274.70
559.67	3622.86
559.86	3887.04
560.06	3164.11
560.26	3135.44
560.45	3592.14
560.65	3397.58
560.84	3518.41
561.04	3057.62
561.24	3624.90
561.43	3123.15
561.63	3502.03
561.82	3274.70
562.02	3559.37
562.22	3205.07
562.41	3098.58
562.61	3104.72
562.80	3184.59
563.00	4050.88
563.19	3211.22
563.39	3258.32
563.59	3538.89
563.78	3200.98
563.98	2942.93
564.17	3164.11
564.37	3149.78
564.56	3350.48
564.76	3065.81
564.96	3305.42
565.15	3475.40
565.35	3956.68
565.54	3254.22
565.74	3143.63
565.93	3618.76
566.13	3428.30
566.32	3284.94
566.52	3237.84
566.71	3432.40
566.91	3700.68
567.11	3362.76
567.30	3043.28
567.50	3508.17
567.69	3532.75
567.89	3092.43
568.08	3098.58
568.28	3518.41
568.47	3227.60
568.67	3237.84
568.86	3104.72
569.06	3590.09
569.25	3362.76
569.45	3057.62
569.64	3166.16
569.84	3356.62
570.04	3450.83
570.23	3223.50
570.43	3186.64
570.62	3545.03
570.82	3770.31
571.01	2953.17
571.21	3143.63
571.40	3266.51
571.60	3602.38
571.79	3243.98
571.99	3186.64
572.18	3229.65
572.38	3459.02
572.57	3151.82
572.77	3262.41
572.96	4077.51
573.16	3512.27
573.35	3215.31
573.55	3344.33
573.74	3495.88
573.94	3377.10
574.13	3149.78
574.33	3291.09
574.52	3803.08
574.71	3362.76
574.91	3200.98
575.10	3041.23
575.30	3342.28
575.49	3250.13
575.69	3061.71
575.88	3074.00
576.08	3395.53
576.27	3596.23
576.47	3020.75
576.66	3221.45
576.86	3792.84
577.05	3557.32
577.25	3205.07
577.44	3321.81
577.64	3321.81
577.83	3641.29
578.02	3139.54
578.22	3377.10
578.41	3798.98
578.61	3401.68
578.80	3012.56
579.00	3207.12
579.19	3411.92
579.39	3444.68
579.58	3311.57
579.77	3207.12
579.97	3741.64
580.16	3672.01
580.36	3391.44
580.55	3203.02
580.75	3555.27
580.94	3373.00
581.13	3397.58
581.33	3477.45
581.52	3487.69
581.72	3844.04
581.91	3260.37
582.11	3174.35
582.30	3549.13
582.49	3430.35
582.69	3504.07
582.88	3160.02
583.08	3545.03
583.27	3559.37
583.47	3358.67
583.66	3186.64
583.85	3260.37
584.05	3358.67
584.24	3362.76
584.44	3227.60
584.63	3692.49
584.82	3696.58
585.02	3481.55
585.21	3344.33
585.41	3657.67
585.60	3434.44
585.79	3336.14
585.99	3459.02
586.18	3348.43
586.37	4405.18
586.57	6649.75
586.76	18646.76
586.96	37373.38
587.15	50277.63
587.34	58207.37
587.54	61531.22
587.73	54056.14
587.93	39026.09
588.12	30266.93
588.31	24747.65
588.51	22288.04
588.70	20231.88
588.89	18099.95
589.09	15173.40
589.28	13340.47
589.47	10309.47
589.67	7739.27
589.86	6369.18
590.06	5005.24
590.25	4485.05
590.44	3885.00
590.64	3510.22
590.83	3633.10
591.02	3647.43
591.22	3147.73
591.41	3262.41
591.60	3407.82
591.80	3962.82
591.99	3129.30
592.18	3270.61
592.38	3674.06
592.57	3260.37
592.76	3123.15
592.96	3217.36
593.15	3436.49
593.34	3651.53
593.54	3127.25
593.73	3319.76
593.92	3557.32
594.12	3473.36
594.31	3231.69
594.50	3426.25
594.70	3536.84
594.89	4057.03
595.08	3059.67
595.28	3336.14
595.47	4231.10
595.66	3712.97
595.86	3112.91
596.05	3035.09
596.24	3418.06
596.43	3837.89
596.63	3213.26
596.82	3403.72
597.01	3532.75
597.21	3866.56
597.40	3121.10
597.59	3246.03
597.79	3377.10
597.98	3545.03
598.17	3248.08
598.36	3211.22
598.56	3577.80
598.75	3319.76
598.94	3264.46
599.14	3256.27
599.33	3356.62
599.52	3653.58
599.71	3248.08
599.91	3190.74
600.10	3590.09
600.29	3467.21
600.48	3215.31
600.68	3266.51
600.87	3508.17
601.06	3297.23
601.26	3340.24
601.45	3383.24
601.64	3463.12
601.83	3778.50
602.03	3061.71
602.22	3125.20
602.41	3708.87
602.60	4102.08
602.80	3252.17
602.99	3395.53
603.18	3352.52
603.37	3493.83
603.57	3084.24
603.76	3090.38
603.95	3665.86
604.14	3352.52
604.34	3106.77
604.53	3141.58
604.72	3407.82
604.91	3631.05
605.10	3203.02
605.30	3059.67
605.49	3860.42
605.68	3561.42
605.87	3217.36
606.07	3082.19
606.26	3495.88
606.45	3620.81
606.64	3160.02
606.84	3102.67
607.03	3334.09
607.22	3631.05
607.41	3340.24
607.60	3043.28
607.80	3690.44
607.99	3424.20
608.18	3215.31
608.37	3168.21
608.56	3352.52
608.76	3608.52
608.95	3319.76
609.14	3100.62
609.33	3721.16
609.52	3782.60
609.72	3342.28
609.91	3362.76
610.10	3438.54
610.29	3753.93
610.48	3340.24
610.68	3319.76
610.87	3432.40
611.06	3631.05
611.25	3225.55
611.44	3327.95
611.63	3311.57
611.83	3758.02
612.02	3114.96
612.21	3246.03
612.40	3024.85
612.59	3262.41
612.79	3117.01
612.98	3235.79
613.17	3876.80
613.36	3381.20
613.55	3264.46
613.74	3157.97
613.93	3508.17
614.13	3461.07
614.32	3401.68
614.51	3100.62
614.70	3409.87
614.89	3334.09
615.08	3299.28
615.28	3555.27
615.47	3309.52
615.66	3522.51
615.85	3307.47
616.04	3231.69
616.23	3420.11
616.42	3463.12
616.62	3098.58
616.81	3182.54
617.00	3467.21
617.19	3555.27
617.38	3205.07
617.57	3295.18
617.76	3575.75
617.95	3524.55
618.15	3352.52
618.34	3448.78
618.53	3227.60
618.72	3696.58
618.91	3205.07
619.10	3254.22
619.29	3456.97
619.48	3395.53
619.68	3145.68
619.87	3104.72
620.06	3117.01
620.25	3532.75
620.44	3131.34
620.63	3119.06
620.82	3450.83
621.01	3502.03
621.20	3153.87
621.39	3264.46
621.59	3491.79
621.78	3403.72
621.97	3168.21
622.16	3344.33
622.35	3530.70
622.54	3647.43
622.73	3250.13
622.92	2983.89
623.11	3622.86
623.30	3368.91
623.49	3381.20
623.68	3133.39
623.88	3692.49
624.07	3325.90
624.26	3131.34
624.45	3147.73
624.64	3229.65
624.83	3487.69
625.02	3264.46
625.21	3194.83
625.40	3481.55
625.59	3819.46
625.78	3348.43
625.97	3209.17
626.16	3735.50
626.35	3643.34
626.54	3190.74
626.74	3385.29
626.93	3295.18
627.12	3377.10
627.31	3184.59
627.50	3123.15
627.69	3622.86
627.88	3258.32
628.07	3088.34
628.26	2975.70
628.45	3278.80
628.64	3231.69
628.83	3211.22
629.02	3096.53
629.21	3532.75
629.40	3542.99
629.59	3092.43
629.78	3145.68
629.97	3483.59
630.16	3536.84
630.35	3246.03
630.54	3246.03
630.73	3336.14
630.92	3434.44
631.11	3098.58
631.30	3221.45
631.49	3647.43
631.68	3418.06
631.87	3203.02
632.06	3106.77
632.25	3975.11
632.44	3454.92
632.63	3286.99
632.82	3250.13
633.01	3278.80
633.20	3467.21
633.39	3157.97
633.58	3016.66
633.77	3487.69
633.96	3518.41
634.15	3194.83
634.34	3295.18
634.53	3524.55
634.72	3411.92
634.91	3102.67
635.10	3121.10
635.29	3698.63
635.48	3557.32
635.67	3129.30
635.86	2977.75
636.05	3743.69
636.24	3434.44
636.43	3114.96
636.62	3319.76
636.81	2891.73
637.00	3489.74
637.19	3141.58
637.38	3227.60
637.57	3362.76
637.76	3387.34
637.95	3493.83
638.14	3350.48
638.33	3516.36
638.52	3477.45
638.71	3084.24
638.89	3086.29
639.08	4054.98
639.27	3633.10
639.46	3401.68
639.65	3712.97
639.84	3872.71
640.03	4063.17
640.22	3477.45
640.41	3438.54
640.60	3442.64
640.79	3579.85
640.98	3366.86
641.17	3389.39
641.36	3682.25
641.55	3626.95
641.74	2953.17
641.92	3049.43
642.11	3360.72
642.30	3387.34
642.49	3168.21
642.68	3160.02
642.87	3590.09
643.06	3581.90
643.25	2987.99
643.44	3008.47
643.63	3383.24
643.82	3571.66
644.00	3080.14
644.19	3270.61
644.38	3211.22
644.57	3487.69
644.76	3205.07
644.95	3272.65
645.14	3567.56
645.33	3442.64
645.52	3215.31
645.71	3065.81
645.89	3205.07
646.08	3411.92
646.27	3262.41
646.46	3348.43
646.65	3164.11
646.84	3444.68
647.03	3137.49
647.22	3313.61
647.40	3450.83
647.59	3352.52
647.78	2930.64
647.97	3139.54
648.16	3270.61
648.35	3733.45
648.54	3469.26
648.73	3303.37
648.91	3461.07
649.10	3508.17
649.29	3200.98
649.48	3098.58
649.67	3485.64
649.86	3479.50
650.05	3157.97
650.23	3327.95
650.42	3264.46
650.61	3665.86
650.80	3461.07
650.99	3434.44
651.18	3629.00
651.36	3674.06
651.55	3049.43
651.74	3373.00
651.93	3354.57
652.12	3350.48
652.31	3274.70
652.49	3293.13
652.68	3319.76
652.87	3827.65
653.06	3338.19
653.25	3422.16
653.44	3422.16
653.62	3807.17
653.81	3246.03
654.00	3133.39
654.19	3665.86
654.38	4032.45
654.56	3188.69
654.75	3098.58
654.94	3674.06
655.13	3461.07
655.32	3155.92
655.51	3203.02
655.69	3356.62
655.88	3561.42
656.07	3063.76
656.26	3213.26
656.45	3174.35
656.63	3467.21
656.82	3143.63
657.01	3479.50
657.20	3270.61
657.38	3778.50
657.57	3176.40
657.76	3010.51
657.95	3542.99
658.14	3323.85
658.32	3237.84
658.51	3082.19
658.70	3432.40
658.89	3512.27
659.08	3252.17
659.26	3444.68
659.45	3209.17
659.64	3516.36
659.83	3125.20
660.01	3606.47
660.20	3524.55
660.39	3753.93
660.58	2830.29
660.76	3254.22
660.95	3127.25
661.14	3434.44
661.33	3114.96
661.51	3309.52
661.70	3344.33
661.89	3514.31
662.08	3252.17
662.26	2951.12
662.45	3221.45
662.64	3772.36
662.83	3227.60
663.01	3057.62
663.20	3360.72
663.39	3715.02
663.58	3184.59
663.76	3168.21
663.95	3524.55
664.14	3172.30
664.32	3268.56
664.51	3063.76
664.70	3020.75
664.89	3532.75
665.07	3028.95
665.26	3307.47
665.45	3172.30
665.64	3438.54
665.82	3172.30
666.01	3350.48
666.20	3139.54
666.38	3688.39
666.57	3469.26
666.76	5744.55
666.95	12803.90
667.13	18740.96
667.32	22341.29
667.51	25224.83
667.69	25802.36
667.88	20965.06
668.07	15552.27
668.25	13080.38
668.44	11747.15
668.63	10436.45
668.81	9058.17
669.00	7755.66
669.19	7262.10
669.38	6471.58
669.56	5441.45
669.75	4818.87
669.94	4370.37
670.12	3829.70
670.31	3434.44
670.50	3463.12
670.68	3602.38
670.87	3463.12
671.06	3229.65
671.24	3334.09
671.43	3835.85
671.62	3475.40
671.80	3149.78
671.99	3280.85
672.18	3540.94
672.36	3561.42
672.55	3383.24
672.74	3217.36
672.92	3313.61
673.11	3526.60
673.29	3024.85
673.48	3364.81
673.67	3366.86
673.85	3598.28
674.04	3110.86
674.23	3379.15
674.41	3778.50
674.60	3147.73
674.79	2983.89
674.97	3002.32
675.16	3600.33
675.34	3688.39
675.53	3155.92
675.72	3190.74
675.90	3776.45
676.09	3375.05
676.28	3323.85
676.46	3012.56
676.65	3549.13
676.83	3338.19
677.02	3164.11
677.21	3258.32
677.39	3504.07
677.58	3307.47
677.77	3170.26
677.95	3100.62
678.14	3377.10
678.32	3356.62
678.51	3164.11
678.70	3526.60
678.88	3395.53
679.07	3491.79
679.25	3180.50
679.44	3243.98
679.63	3160.02
679.81	3495.88
680.00	3477.45
680.18	3280.85
680.37	3809.22
680.55	3549.13
680.74	3051.47
680.93	2938.84
681.11	3553.23
681.30	3403.72
681.48	3186.64
681.67	3248.08
681.85	3481.55
682.04	3215.31
682.23	3282.89
682.41	3387.34
682.60	3315.66
682.78	3368.91
682.97	3102.67
683.15	3274.70
683.34	3483.59
683.53	3809.22
683.71	3090.38
683.90	3239.89
684.08	3846.09
684.27	3346.38
684.45	3209.17
684.64	3422.16
684.82	3418.06
685.01	3475.40
685.19	3160.02
685.38	3493.83
685.57	3356.62
685.75	3370.96
685.94	3155.92
686.12	3057.62
686.31	3334.09
686.49	3749.83
686.68	2912.21
686.86	3174.35
687.05	3399.63
687.23	3807.17
687.42	3231.69
687.60	3008.47
687.79	3616.71
687.97	3786.69
688.16	3375.05
688.34	3411.92
688.53	3084.24
688.71	3495.88
688.90	3475.40
689.08	3188.69
689.27	3074.00
689.45	3610.57
689.64	3332.05
689.82	3325.90
690.01	3596.23
690.19	3508.17
690.38	3268.56
690.56	3272.65
690.75	3266.51
690.93	3338.19
691.12	3108.82
691.30	3239.89
691.49	3284.94
691.67	3413.96
691.86	3545.03
692.04	3246.03
692.23	3327.95
692.41	3442.64
692.60	3528.65
692.78	3418.06
692.97	3440.59
693.15	3579.85
693.34	3346.38
693.52	3495.88
693.71	3299.28
693.89	3295.18
694.08	3014.61
694.26	3262.41
694.44	3635.14
694.63	3610.57
694.81	3127.25
695.00	3205.07
695.18	3674.06
695.37	4014.02
695.55	3274.70
695.74	3286.99
695.92	3305.42
696.10	3741.64
696.29	3069.91
696.47	3239.89
696.66	3117.01
696.84	3289.04
697.03	3243.98
697.21	3491.79
697.40	4775.86
697.58	3706.82
697.76	3164.11
697.95	3174.35
698.13	3219.41
698.32	3370.96
698.50	3186.64
698.68	3186.64
698.87	3569.61
699.05	3751.88
699.24	3131.34
699.42	3178.45
699.61	3450.83
699.79	3424.20
699.97	3231.69
700.16	3047.38
700.34	3141.58
700.53	3567.56
700.71	3430.35
700.89	3254.22
701.08	3360.72
701.26	3409.87
701.45	3508.17
701.63	3098.58
701.81	3276.75
702.00	3196.88
702.18	3311.57
702.37	3123.15
702.55	3622.86
702.73	3418.06
702.92	3217.36
703.10	3522.51
703.28	3592.14
703.47	3170.26
703.65	3379.15
703.84	3268.56
704.02	3373.00
704.20	3758.02
704.39	3157.97
704.57	3174.35
704.75	3653.58
704.94	3516.36
705.12	3416.01
705.30	4003.78
705.49	8365.95
705.67	14886.68
705.86	19250.91
706.04	21825.20
706.22	23905.94
706.41	22585.00
706.59	16545.54
706.77	13590.32
706.96	11958.09
707.14	11020.12
707.32	9482.10
707.51	8234.88
707.69	7026.58
707.87	5926.82
708.06	4851.64
708.24	4356.03
708.42	4067.27
708.61	4216.77
708.79	3289.04
708.97	3336.14
709.16	3569.61
709.34	3387.34
709.52	3176.40
709.71	3291.09
709.89	3516.36
710.07	3237.84
710.26	3121.10
710.44	3180.50
710.62	3735.50
710.80	3368.91
710.99	3317.71
711.17	3348.43
711.35	3307.47
711.54	3291.09
711.72	3477.45
711.90	3254.22
712.09	3516.36
712.27	3262.41
712.45	3336.14
712.63	3147.73
712.82	3528.65
713.00	3393.48
713.18	3364.81
713.37	3430.35
713.55	3626.95
713.73	3598.28
713.91	3246.03
714.10	3289.04
714.28	3420.11
714.46	3553.23
714.65	3327.95
714.83	3252.17
715.01	3426.25
715.19	3432.40
715.38	3198.93
715.56	3321.81
715.74	3303.37
715.92	3307.47
716.11	3590.09
716.29	2910.16
716.47	3444.68
716.65	3344.33
716.84	3033.04
717.02	3198.93
717.20	3104.72
717.38	3258.32
717.57	3330.00
717.75	3254.22
717.93	3311.57
718.11	3581.90
718.30	3045.33
718.48	3239.89
718.66	3696.58
718.84	3706.82
719.03	3205.07
719.21	3049.43
719.39	3741.64
719.57	3598.28
719.75	3286.99
719.94	3139.54
720.12	3385.29
720.30	3395.53
720.48	3299.28
720.67	3274.70
720.85	3168.21
721.03	3278.80
721.21	3221.45
721.39	3303.37
721.58	3569.61
721.76	3450.83
721.94	3278.80
722.12	3381.20
722.30	3811.27
722.49	3403.72
722.67	3192.78
722.85	3239.89
723.03	3104.72
723.21	3301.33
723.40	3235.79
723.58	3336.14
723.76	3561.42
723.94	3725.26
724.12	3225.55
724.30	3481.55
724.49	3643.34
724.67	3264.46
724.85	3219.41
725.03	3057.62
725.21	3567.56
725.40	3764.17
725.58	3221.45
725.76	3426.25
725.94	3438.54
726.12	3205.07
726.30	3282.89
726.49	3137.49
726.67	3325.90
726.85	3569.61
727.03	3948.48
727.21	4999.09
727.39	6211.49
727.57	6459.29
727.76	6723.48
727.94	6752.15
728.12	6000.55
728.30	5109.68
728.48	4800.44
728.66	4528.06
728.84	4380.61
729.03	3887.04
729.21	3682.25
729.39	3532.75
729.57	3442.64
729.75	3534.79
729.93	3395.53
730.11	3117.01
730.30	3401.68
730.48	3303.37
730.66	3231.69
730.84	3196.88
731.02	3383.24
731.20	3291.09
731.38	3262.41
731.56	3039.19
731.74	3198.93
731.93	3487.69
732.11	3268.56
732.29	3131.34
732.47	3626.95
732.65	3528.65
732.83	3360.72
733.01	3360.72
733.19	3323.85
733.37	3590.09
733.56	3188.69
733.74	3086.29
733.92	3725.26
734.10	3436.49
734.28	3454.92
734.46	3053.52
734.64	3358.67
734.82	3426.25
735.00	3237.84
735.18	3100.62
735.36	3432.40
735.54	3366.86
735.73	3127.25
735.91	3403.72
736.09	3786.69
736.27	3420.11
736.45	3221.45
736.63	2942.93
736.81	3411.92
736.99	3635.14
737.17	3456.97
737.35	3155.92
737.53	3450.83
737.71	3368.91
737.89	3459.02
738.07	3131.34
738.25	3350.48
738.43	3049.43
738.61	3256.27
738.80	3043.28
738.98	3237.84
739.16	3282.89
739.34	3170.26
739.52	3461.07
739.70	3393.48
739.88	3616.71
740.06	3401.68
740.24	2969.55
740.42	3667.91
740.60	3078.10
740.78	3243.98
740.96	2998.23
741.14	3336.14
741.32	3506.12
741.50	3098.58
741.68	3440.59
741.86	3760.07
742.04	3211.22
742.22	3082.19
742.40	3133.39
742.58	3592.14
742.76	3286.99
742.94	3385.29
743.12	3028.95
743.30	3538.89
743.48	3608.52
743.66	3129.30
743.84	3129.30
744.02	3307.47
744.20	3473.36
744.38	3112.91
744.56	3104.72
744.74	3819.46
744.92	3557.32
745.10	3442.64
745.28	3205.07
745.46	3755.97
745.64	3346.38
745.82	3286.99
746.00	3188.69
746.18	3532.75
746.36	3256.27
746.54	3368.91
746.72	3260.37
746.90	3233.74
747.08	3751.88
747.26	3237.84
747.44	3319.76
747.62	3594.19
747.80	3450.83
747.98	3258.32
748.15	3194.83
748.33	3788.74
748.51	3518.41
748.69	3307.47
748.87	3061.71
749.05	3454.92
749.23	3364.81
749.41	3139.54
749.59	3166.16
749.77	3708.87
749.95	3444.68
750.13	3188.69
750.31	3397.58
750.49	3418.06
750.67	3608.52
750.85	3282.89
751.03	3188.69
751.20	3887.04
751.38	3434.44
751.56	3311.57
751.74	3194.83
751.92	3395.53
752.10	3160.02
752.28	3430.35
752.46	3217.36
752.64	3471.31
752.82	3420.11
753.00	3295.18
753.18	3131.34
753.35	3370.96
753.53	3336.14
753.71	3082.19
753.89	3188.69
754.07	3502.03
754.25	3622.86
754.43	3291.09
754.61	3157.97
754.79	3522.51
754.97	3336.14
755.14	3368.91
755.32	3178.45
755.50	3430.35
755.68	3450.83
755.86	3104.72
756.04	3164.11
756.22	3088.34
756.40	3702.73
756.57	3422.16
756.75	3153.87
756.93	3631.05
757.11	3618.76
757.29	3041.23
757.47	3094.48
757.65	3172.30
757.82	2994.13
758.00	3125.20
758.18	3184.59
758.36	3336.14
758.54	3815.37
758.72	3053.52
758.90	3315.66
759.07	3508.17
759.25	3301.33
759.43	3317.71
759.61	3030.99
759.79	4556.73
759.97	3737.54
760.15	3168.21
760.32	3164.11
760.50	3463.12
760.68	3786.69
760.86	3065.81
761.04	3450.83
761.22	3600.33
761.39	3495.88
761.57	3325.90
761.75	3133.39
761.93	3565.51
762.11	3407.82
762.28	3250.13
762.46	3157.97
762.64	3661.77
762.82	3221.45
763.00	3155.92
763.18	3475.40
763.35	3248.08
763.53	3571.66
763.71	3327.95
763.89	3092.43
764.07	3413.96
764.24	3444.68
764.42	3297.23
764.60	3262.41
764.78	3506.12
764.96	3612.62
765.13	3295.18
765.31	3000.27
765.49	3645.38
765.67	3262.41
765.84	3205.07
766.02	3090.38
766.20	3176.40
766.38	3538.89
766.56	3250.13
766.73	3319.76
766.91	3477.45
767.09	3491.79
767.27	3225.55
767.44	3082.19
767.62	3610.57
767.80	3565.51
767.98	3106.77
768.15	3213.26
768.33	3565.51
768.51	3569.61
768.69	3373.00
768.87	3217.36
769.04	3405.77
769.22	3934.15
769.40	3350.48
769.58	3346.38
769.75	3526.60
769.93	3686.34
770.11	3227.60
770.28	3074.00
770.46	3549.13
770.64	3532.75
770.82	3217.36
770.99	3030.99
771.17	3588.04
771.35	3393.48
771.53	3256.27
771.70	3174.35
771.88	3536.84
772.06	3442.64
772.23	3209.17
772.41	3276.75
772.59	3381.20
772.77	3231.69
772.94	3219.41
773.12	3303.37
773.30	3409.87
773.47	3528.65
773.65	3147.73
773.83	3336.14
774.01	3483.59
774.18	2987.99
774.36	3162.06
774.54	3033.04
774.71	3497.93
774.89	3133.39
775.07	3041.23
775.24	3182.54
775.42	3319.76
775.60	3809.22
775.78	3063.76
775.95	3094.48
776.13	3018.71
776.31	3123.15
776.48	3416.01
776.66	3399.63
776.84	3362.76
777.01	3231.69
777.19	3078.10
777.37	3117.01
777.54	3567.56
777.72	3880.90
777.90	3319.76
778.07	3190.74
778.25	4124.61
778.43	3575.75
778.60	3110.86
778.78	3241.93
778.96	3784.65
779.13	3233.74
779.31	3241.93
779.49	3254.22
779.66	3434.44
779.84	3442.64
780.01	3143.63
780.19	3092.43
780.37	3786.69
780.54	3606.47
780.72	3135.44
780.90	3233.74
781.07	3342.28
781.25	3246.03
781.43	3381.20
781.60	3168.21
781.78	3792.84
781.95	3426.25
782.13	3229.65
782.31	3139.54
782.48	3078.10
782.66	3397.58
782.83	3467.21
783.01	3311.57
783.19	3626.95
783.36	3387.34
783.54	3110.86
783.72	3321.81
783.89	3297.23
784.07	3571.66
784.24	3364.81
784.42	3346.38
784.60	3499.98
784.77	3483.59
784.95	2934.74
785.12	3297.23
785.30	3420.11
785.47	3252.17
785.65	3074.00
785.83	3284.94
786.00	3389.39
786.18	3411.92
786.35	3209.17
786.53	3082.19
786.71	3616.71
786.88	3606.47
787.06	3315.66
787.23	3307.47
787.41	3184.59
787.58	3364.81
787.76	3200.98
787.94	3196.88
788.11	3502.03
788.29	3172.30
788.46	3172.30
788.64	3051.47
788.81	3360.72
788.99	3246.03
789.16	3147.73
789.34	3229.65
789.52	3342.28
789.69	3362.76
789.87	3006.42
790.04	3221.45
790.22	3368.91
790.39	3848.13
790.57	3028.95
790.74	3155.92
790.92	3735.50
791.09	3041.23
791.27	3325.90
791.44	3268.56
791.62	3319.76
791.79	3600.33
791.97	3280.85
792.15	3491.79
792.32	3604.42
792.50	3559.37
792.67	3368.91
792.85	3491.79
793.02	3438.54
793.20	3268.56
793.37	3155.92
793.55	3176.40
793.72	3180.50
793.90	3620.81
794.07	3205.07
794.25	3061.71
794.42	3532.75
794.60	3366.86
794.77	3258.32
794.95	3368.91
795.12	3598.28
795.30	3385.29
795.47	2969.55
795.65	3532.75
795.82	3481.55
796.00	3274.70
796.17	3311.57
796.34	3084.24
796.52	3489.74
796.69	3520.46
796.87	3307.47
797.04	3411.92
797.22	3657.67
797.39	3436.49
797.57	3373.00
797.74	3325.90
797.92	3499.98
798.09	3313.61
798.27	3678.15
798.44	3151.82
798.62	3282.89
798.79	3485.64
798.96	3268.56
799.14	3209.17
799.31	3950.53
799.49	3375.05
799.66	3237.84
799.84	3217.36
800.01	3270.61
800.19	3471.31
800.36	3000.27
800.53	3211.22
800.71	3549.13
800.88	3717.06
801.06	3153.87
801.23	3211.22
801.41	3354.57
801.58	3403.72
801.75	3157.97
801.93	3246.03
802.10	3651.53
802.28	3377.10
802.45	3250.13
802.63	3334.09
802.80	3684.30
802.97	3309.52
803.15	3194.83
803.32	3151.82
803.50	3260.37
803.67	3237.84
803.84	3196.88
804.02	3301.33
804.19	3295.18
804.37	3000.27
804.54	2992.08
804.71	3213.26
804.89	3440.59
805.06	3260.37
805.24	3184.59
805.41	2973.65
805.58	3286.99
805.76	4042.69
805.93	3123.15
806.10	3368.91
806.28	3610.57
806.45	3512.27
806.63	3356.62
806.80	3301.33
806.97	3540.94
807.15	3463.12
807.32	3266.51
807.49	3307.47
807.67	3192.78
807.84	3495.88
808.01	3016.66
808.19	3409.87
808.36	3868.61
808.54	3354.57
808.71	3221.45
808.88	3121.10
809.06	3729.35
809.23	3747.78
809.40	3241.93
809.58	3123.15
809.75	3426.25
809.92	3145.68
810.10	3508.17
810.27	3172.30
810.44	3569.61
810.62	3602.38
810.79	3268.56
810.96	3256.27
811.14	3241.93
811.31	3520.46
811.48	3430.35
811.66	3248.08
811.83	3629.00
812.00	3545.03
812.18	3319.76
812.35	3461.07
812.52	3397.58
812.69	3401.68
812.87	3133.39
813.04	3172.30
813.21	3409.87
813.39	3231.69
813.56	3162.06
813.73	3508.17
813.91	3172.30
814.08	3387.34
814.25	3184.59
814.42	3057.62
814.60	3438.54
814.77	3418.06
814.94	3104.72
815.12	3348.43
815.29	3758.02
815.46	3256.27
815.63	3203.02
815.81	3129.30
815.98	3368.91
816.15	3356.62
816.33	3239.89
816.50	3241.93
816.67	3362.76
816.84	3409.87
817.02	3100.62
817.19	3178.45
817.36	3469.26
817.53	3483.59
817.71	3076.05
817.88	3188.69
818.05	3413.96
818.22	3401.68
818.40	3342.28
818.57	3176.40
818.74	3520.46
818.91	3370.96
819.09	3301.33
819.26	3282.89
819.43	3250.13
819.60	3205.07
819.78	3344.33
819.95	3274.70
820.12	3268.56
820.29	3729.35
820.47	3532.75
820.64	3139.54
820.81	3076.05
820.98	3270.61
821.15	3243.98
821.33	3270.61
821.50	3106.77
821.67	3547.08
821.84	3110.86
822.02	3270.61
822.19	3620.81
822.36	3358.67
822.53	3123.15
822.70	3090.38
822.88	3336.14
823.05	3725.26
823.22	3262.41
823.39	3186.64
823.56	3428.30
823.74	3803.08
823.91	3002.32
824.08	3194.83
824.25	3131.34
824.42	3788.74
824.60	3045.33
824.77	3311.57
824.94	3397.58
825.11	3614.66
825.28	3088.34
825.45	3360.72
825.63	3547.08
825.80	3219.41
825.97	3270.61
826.14	3336.14
826.31	3110.86
826.48	3577.80
826.66	3203.02
826.83	3123.15
827.00	3370.96
827.17	3231.69
827.34	3286.99
827.51	3157.97
827.69	3375.05
827.86	3100.62
828.03	3262.41
828.20	3213.26
828.37	3264.46
828.54	3555.27
828.71	3074.00
828.89	3286.99
829.06	3483.59
829.23	3766.21
829.40	3166.16
829.57	3141.58
829.74	3563.47
829.91	3364.81
830.09	3174.35
830.26	3350.48
830.43	3751.88
830.60	3338.19
830.77	3286.99
830.94	3336.14
831.11	3592.14
831.28	3303.37
831.46	3307.47
831.63	3200.98
831.80	3704.78
831.97	3286.99
832.14	3305.42
832.31	3241.93
832.48	3491.79
832.65	3663.82
832.82	3391.44
832.99	3192.78
833.17	3182.54
833.34	3639.24
833.51	3088.34
833.68	3002.32
833.85	3573.71
834.02	3227.60
834.19	3057.62
834.36	3260.37
834.53	3448.78
834.70	3655.62
834.87	3155.92
835.04	2926.55
835.22	3262.41
835.39	3373.00
835.56	2990.03
835.73	3020.75
835.90	3651.53
836.07	3174.35
836.24	3207.12
836.41	3020.75
836.58	3241.93
836.75	3616.71
836.92	2990.03
837.09	2963.41
837.26	3631.05
837.43	3473.36
837.60	2996.18
837.77	3049.43
837.94	3653.58
838.12	3674.06
838.29	2926.55
838.46	2910.16
838.63	3143.63
838.80	3710.92
838.97	3143.63
839.14	2983.89
839.31	3459.02
839.48	3553.23
839.65	2992.08
839.82	3088.34
839.99	3469.26
840.16	3375.05
840.33	3022.80
840.50	3090.38
840.67	3354.57
840.84	2992.08
841.01	2981.84
841.18	2987.99
841.35	3405.77
841.52	3520.46
841.69	3342.28
841.86	3035.09
842.03	3352.52
842.20	3606.47
842.37	2885.59
842.54	3153.87
842.71	3409.87
842.88	3182.54
843.05	3063.76
843.22	3024.85
843.39	3698.63
843.56	3319.76
843.73	2971.60
843.90	3057.62
844.07	3375.05
844.24	3680.20
844.41	3174.35
844.58	3020.75
844.75	3483.59
844.92	3514.31
845.09	3006.42
845.26	2998.23
845.43	3596.23
845.60	3317.71
845.77	3151.82
845.94	3145.68
846.10	3639.24
846.27	3108.82
846.44	2926.55
846.61	2938.84
846.78	3514.31
846.95	3575.75
847.12	2961.36
847.29	3000.27
847.46	3323.85
847.63	3649.48
847.80	2981.84
847.97	3026.90
848.14	3971.01
848.31	3327.95
848.48	2885.59
848.65	3057.62
848.82	3278.80
848.98	3899.33
849.15	3264.46
849.32	3047.38
849.49	3694.54
849.66	3370.96
849.83	3033.04
850.00	3008.47
850.17	3635.14
850.34	3307.47
850.51	3074.00
850.68	3074.00
850.85	3950.53
851.01	3432.40
851.18	2953.17
851.35	3104.72
851.52	3499.98
851.69	3805.13
851.86	2977.75
852.03	2996.18
852.20	3575.75
852.37	3352.52
852.53	2920.40
852.70	2959.31
852.87	3573.71
853.04	3647.43
853.21	2944.98
853.38	3377.10
853.55	3657.67
853.72	3622.86
853.89	2893.78
854.05	2963.41
854.22	3448.78
854.39	3332.05
854.56	3006.42
854.73	3164.11
854.90	3280.85
855.07	3411.92
855.23	2992.08
855.40	2891.73
855.57	3360.72
855.74	2934.74
855.91	3258.32
856.08	2867.16
856.25	3127.25
856.41	3344.33
856.58	3008.47
856.75	3069.91
856.92	3168.21
857.09	3618.76
857.26	2854.87
857.42	3065.81
857.59	3608.52
857.76	3346.38
857.93	2985.94
858.10	3108.82
858.27	3207.12
858.43	3368.91
858.60	3055.57
858.77	2852.82
858.94	3264.46
859.11	3583.95
859.27	3117.01
859.44	2957.27
859.61	3870.66
859.78	3542.99
859.95	3020.75
860.12	2879.44
860.28	3958.72
860.45	3833.80
860.62	2959.31
860.79	3098.58
860.95	3342.28
861.12	3276.75
861.29	2856.92
861.46	2967.51
861.63	3469.26
861.79	3604.42
861.96	2883.54
862.13	3051.47
862.30	3669.96
862.47	3327.95
862.63	2883.54
862.80	3151.82
862.97	3639.24
863.14	3565.51
863.30	2981.84
863.47	2975.70
863.64	3755.97
863.81	3434.44
863.97	2914.26
864.14	3041.23
864.31	3395.53
864.48	3442.64
864.65	3049.43
864.81	3141.58
864.98	3502.03
865.15	3739.59
865.32	3114.96
865.48	3059.67
865.65	3772.36
865.82	3323.85
865.98	3133.39
866.15	3069.91
866.32	3360.72
866.49	3348.43
866.65	3182.54
866.82	3061.71
866.99	3393.48
867.16	3289.04
867.32	3069.91
867.49	2953.17
867.66	3315.66
867.83	3315.66
867.99	2918.36
868.16	3086.29
868.33	3229.65
868.49	3452.88
868.66	3004.37
868.83	3221.45
868.99	3463.12
869.16	3557.32
869.33	3180.50
869.50	3102.67
869.66	3516.36
869.83	3395.53
870.00	2904.02
870.16	3143.63
870.33	3379.15
870.50	3555.27
870.66	3035.09
870.83	3082.19
871.00	3428.30
871.17	3553.23
871.33	3155.92
871.50	2936.79
871.67	3454.92
871.83	3377.10
872.00	3018.71
872.17	3012.56
872.33	3831.75
872.50	3682.25
872.67	2955.22
872.83	3006.42
873.00	3528.65
873.17	3352.52
873.33	3051.47
873.50	3078.10
873.67	3305.42
873.83	3270.61
874.00	3053.52
874.16	3100.62
874.33	3438.54
874.50	3172.30
874.66	2959.31
874.83	3123.15
875.00	3676.10
875.16	3540.94
875.33	3008.47
875.50	2754.52
875.66	3342.28
875.83	3475.40
875.99	3076.05
876.16	3139.54
876.33	3274.70
876.49	3426.25
876.66	3092.43
876.83	3026.90
876.99	3129.30
877.16	3352.52
877.32	2955.22
877.49	3174.35
877.66	3477.45
877.82	3768.26
877.99	3065.81
878.15	3268.56
878.32	3467.21
878.49	3549.13
878.65	3137.49
878.82	3336.14
878.98	3276.75
879.15	3639.24
879.32	3301.33
879.48	3164.11
879.65	3409.87
879.81	3405.77
879.98	3069.91
880.15	3074.00
880.31	3606.47
880.48	3203.02
880.64	3135.44
880.81	3123.15
880.97	3817.41
881.14	3696.58
881.31	3002.32
881.47	3174.35
881.64	3463.12
881.80	3100.62
881.97	3270.61
882.13	3010.51
882.30	3168.21
882.47	3311.57
882.63	2987.99
882.80	3041.23
882.96	3381.20
883.13	3624.90
883.29	3008.47
883.46	3000.27
883.62	3905.48
883.79	3520.46
883.95	3233.74
884.12	2942.93
884.29	3680.20
884.45	3493.83
884.62	3022.80
884.78	2977.75
884.95	3721.16
885.11	3200.98
885.28	3086.29
885.44	3065.81
885.61	3659.72
885.77	3721.16
885.94	3256.27
886.10	3090.38
886.27	3440.59
886.43	3956.68
886.60	3180.50
886.76	3016.66
886.93	3254.22
887.09	3389.39
887.26	2871.25
887.42	3086.29
887.59	3561.42
887.75	3917.76
887.92	3258.32
888.08	3147.73
888.25	3794.89
888.41	3657.67
888.58	3086.29
888.74	2992.08
888.91	3440.59
>>>>>End Processed Spectral Data<<<<<
