SpectraSuite Data File
++++++++++++++++++++++++++++++++++++
Date: Fri May 06 09:28:45 CEST 2016
User: root
Dark Spectrum Present: No
Reference Spectrum Present: No
Number of Sampled Component Spectra: 1
Spectrometers: USB4C02835
Integration Time (usec): 100000 (USB4C02835)
Spectra Averaged: 1 (USB4C02835)
Boxcar Smoothing: 0 (USB4C02835)
Correct for Electrical Dark: No (USB4C02835)
Strobe/Lamp Enabled: No (USB4C02835)
Correct for Detector Non-linearity: No (USB4C02835)
Correct for Stray Light: No (USB4C02835)
Number of Pixels in Processed Spectrum: 3648
>>>>>Begin Processed Spectral Data<<<<<
177.47	2373.60
177.69	2373.60
177.91	2373.60
178.13	2336.73
178.36	2306.01
178.58	3127.25
178.80	3229.65
179.02	3059.67
179.24	3229.65
179.46	2766.81
179.68	2906.07
179.90	3311.57
180.13	3438.54
180.35	2815.96
180.57	2844.63
180.79	3581.90
181.01	3405.77
181.23	2926.55
181.45	3180.50
181.67	3604.42
181.90	3575.75
182.12	3106.77
182.34	2795.48
182.56	3545.03
182.78	3567.56
183.00	2856.92
183.22	2942.93
183.44	3086.29
183.66	4067.27
183.89	3110.86
184.11	2908.12
184.33	3563.47
184.55	3706.82
184.77	2918.36
184.99	2926.55
185.21	3348.43
185.43	3975.11
185.65	3016.66
185.87	2969.55
186.10	3975.11
186.32	4022.21
186.54	3098.58
186.76	3131.34
186.98	3639.24
187.20	3454.92
187.42	3016.66
187.64	2914.26
187.86	3606.47
188.08	3780.55
188.30	2969.55
188.52	3016.66
188.75	3778.50
188.97	3657.67
189.19	2963.41
189.41	2947.03
189.63	3547.08
189.85	3383.24
190.07	2844.63
190.29	2836.44
190.51	3491.79
190.73	3067.86
190.95	3172.30
191.17	2967.51
191.39	3151.82
191.61	3389.39
191.84	2994.13
192.06	3049.43
192.28	3153.87
192.50	4128.70
192.72	3104.72
192.94	2981.84
193.16	3663.82
193.38	3547.08
193.60	2877.40
193.82	3186.64
194.04	3620.81
194.26	3471.31
194.48	2987.99
194.70	2987.99
194.92	3409.87
195.14	3672.01
195.36	2906.07
195.58	2971.60
195.80	3381.20
196.02	3264.46
196.24	2942.93
196.46	3065.81
196.69	3401.68
196.91	3917.76
197.13	2912.21
197.35	3024.85
197.57	3819.46
197.79	3596.23
198.01	3016.66
198.23	3018.71
198.45	3622.86
198.67	3147.73
198.89	2793.43
199.11	3071.95
199.33	3325.90
199.55	2955.22
199.77	2904.02
199.99	3205.07
200.21	3397.58
200.43	3573.71
200.65	2873.30
200.87	2740.18
201.09	3499.98
201.31	3436.49
201.53	2969.55
201.75	3061.71
201.97	3489.74
202.19	3336.14
202.41	3035.09
202.63	3057.62
202.85	3491.79
203.07	3512.27
203.29	3114.96
203.51	2852.82
203.73	3217.36
203.95	4136.90
204.17	2961.36
204.39	3166.16
204.61	3467.21
204.83	3303.37
205.05	3170.26
205.27	2924.50
205.49	3874.76
205.71	3424.20
205.93	2772.95
206.15	2891.73
206.37	3526.60
206.59	3385.29
206.81	2795.48
207.03	2852.82
207.25	3254.22
207.47	3598.28
207.69	2922.45
207.91	3205.07
208.13	3778.50
208.34	3209.17
208.56	2983.89
208.78	2990.03
209.00	3405.77
209.22	3391.44
209.44	2971.60
209.66	2852.82
209.88	3487.69
210.10	3377.10
210.32	2947.03
210.54	2953.17
210.76	3307.47
210.98	3626.95
211.20	2781.14
211.42	3094.48
211.64	3641.29
211.86	3557.32
212.08	3067.86
212.30	3010.51
212.52	3426.25
212.74	3508.17
212.96	3100.62
213.17	3018.71
213.39	3661.77
213.61	3831.75
213.83	2893.78
214.05	2838.48
214.27	3704.78
214.49	3264.46
214.71	2930.64
214.93	3016.66
215.15	3444.68
215.37	3633.10
215.59	2820.05
215.81	3119.06
216.03	3706.82
216.24	3395.53
216.46	3008.47
216.68	3014.61
216.90	3616.71
217.12	3696.58
217.34	2961.36
217.56	3117.01
217.78	3712.97
218.00	3551.18
218.22	3014.61
218.44	2990.03
218.66	3520.46
218.87	3837.89
219.09	2934.74
219.31	3000.27
219.53	3467.21
219.75	3377.10
219.97	3043.28
220.19	3035.09
220.41	3401.68
220.63	3768.26
220.85	3033.04
221.06	2967.51
221.28	3733.45
221.50	3598.28
221.72	2920.40
221.94	2789.33
222.16	3483.59
222.38	3729.35
222.60	2904.02
222.82	2983.89
223.03	3721.16
223.25	3205.07
223.47	2951.12
223.69	3282.89
223.91	3549.13
224.13	3436.49
224.35	2893.78
224.57	3131.34
224.78	3565.51
225.00	3252.17
225.22	3057.62
225.44	2885.59
225.66	3563.47
225.88	3315.66
226.10	3104.72
226.32	2994.13
226.53	3803.08
226.75	3395.53
226.97	3018.71
227.19	3022.80
227.41	3332.05
227.63	3428.30
227.85	2820.05
228.06	3065.81
228.28	3573.71
228.50	3704.78
228.72	2775.00
228.94	2940.88
229.16	3051.47
229.37	3200.98
229.59	2838.48
229.81	3268.56
230.03	3377.10
230.25	3123.15
230.47	2740.18
230.69	2961.36
230.90	3692.49
231.12	3266.51
231.34	3065.81
231.56	2992.08
231.78	3157.97
232.00	3545.03
232.21	3063.76
232.43	2961.36
232.65	3022.80
232.87	3491.79
233.09	2891.73
233.30	2930.64
233.52	3569.61
233.74	3469.26
233.96	2979.79
234.18	3174.35
234.40	3520.46
234.61	3989.44
234.83	2914.26
235.05	2838.48
235.27	4132.80
235.49	3700.68
235.70	2809.81
235.92	2994.13
236.14	3618.76
236.36	4007.87
236.58	2893.78
236.79	3119.06
237.01	3395.53
237.23	3348.43
237.45	3188.69
237.67	3028.95
237.88	3608.52
238.10	3823.56
238.32	2848.72
238.54	2863.06
238.76	3426.25
238.97	3268.56
239.19	2926.55
239.41	3061.71
239.63	3762.12
239.85	3262.41
240.06	3006.42
240.28	2947.03
240.50	3721.16
240.72	3459.02
240.93	2871.25
241.15	3090.38
241.37	3440.59
241.59	3755.97
241.81	3039.19
242.02	3086.29
242.24	3510.22
242.46	3608.52
242.68	2731.99
242.89	2983.89
243.11	3645.38
243.33	3456.97
243.55	2959.31
243.76	2965.46
243.98	3276.75
244.20	3344.33
244.42	2955.22
244.64	2910.16
244.85	3145.68
245.07	3233.74
245.29	3006.42
245.51	3049.43
245.72	3551.18
245.94	3721.16
246.16	2910.16
246.38	2969.55
246.59	3391.44
246.81	3225.55
247.03	2811.86
247.24	2760.66
247.46	3266.51
247.68	3381.20
247.90	2910.16
248.11	2998.23
248.33	3598.28
248.55	3428.30
248.77	2967.51
248.98	3008.47
249.20	3780.55
249.42	3491.79
249.64	2963.41
249.85	2889.68
250.07	3393.48
250.29	3565.51
250.50	3082.19
250.72	2924.50
250.94	3487.69
251.16	3932.10
251.37	2949.08
251.59	3018.71
251.81	3536.84
252.02	3770.31
252.24	2895.83
252.46	3090.38
252.68	3383.24
252.89	3297.23
253.11	2807.77
253.33	3090.38
253.54	3786.69
253.76	3270.61
253.98	3012.56
254.20	2904.02
254.41	3131.34
254.63	3424.20
254.85	2815.96
255.06	3137.49
255.28	3579.85
255.50	3364.81
255.71	2944.98
255.93	2715.61
256.15	3465.16
256.36	3602.38
256.58	2926.55
256.80	2807.77
257.02	3344.33
257.23	3289.04
257.45	2994.13
257.67	3100.62
257.88	3268.56
258.10	3504.07
258.32	2973.65
258.53	3090.38
258.75	3811.27
258.97	3262.41
259.18	2848.72
259.40	2930.64
259.62	3923.91
259.83	3737.54
260.05	2967.51
260.27	4040.64
260.48	3694.54
260.70	3254.22
260.92	2838.48
261.13	3008.47
261.35	3626.95
261.57	3590.09
261.78	2787.29
262.00	2932.69
262.22	3594.19
262.43	3336.14
262.65	2973.65
262.86	2961.36
263.08	4005.83
263.30	3450.83
263.51	2779.09
263.73	2955.22
263.95	3680.20
264.16	3270.61
264.38	2844.63
264.60	2840.53
264.81	3459.02
265.03	3852.23
265.25	3397.58
265.46	2906.07
265.68	3729.35
265.89	3674.06
266.11	2820.05
266.33	2873.30
266.54	3614.66
266.76	3540.94
266.98	3084.24
267.19	3137.49
267.41	3727.30
267.62	3438.54
267.84	2738.13
268.06	3106.77
268.27	3465.16
268.49	3680.20
268.70	3055.57
268.92	2979.79
269.14	3286.99
269.35	3065.81
269.57	3155.92
269.79	3078.10
270.00	3268.56
270.22	3885.00
270.43	2836.44
270.65	2787.29
270.87	3499.98
271.08	3618.76
271.30	3033.04
271.51	3012.56
271.73	3608.52
271.95	3772.36
272.16	2959.31
272.38	3147.73
272.59	3289.04
272.81	3504.07
273.02	2928.60
273.24	3024.85
273.46	3805.13
273.67	3155.92
273.89	2799.57
274.10	2875.35
274.32	3753.93
274.54	3581.90
274.75	3127.25
274.97	3094.48
275.18	3569.61
275.40	3606.47
275.61	3006.42
275.83	3094.48
276.05	3180.50
276.26	3297.23
276.48	3074.00
276.69	3153.87
276.91	3362.76
277.12	3803.08
277.34	3127.25
277.55	3178.45
277.77	3448.78
277.99	3278.80
278.20	3209.17
278.42	3028.95
278.63	3323.85
278.85	3260.37
279.06	3028.95
279.28	3241.93
279.49	3661.77
279.71	3647.43
279.93	3180.50
280.14	3190.74
280.36	3323.85
280.57	3618.76
280.79	3143.63
281.00	3024.85
281.22	3348.43
281.43	3751.88
281.65	2947.03
281.86	3016.66
282.08	3524.55
282.29	3944.39
282.51	2977.75
282.73	2930.64
282.94	3119.06
283.16	3626.95
283.37	3170.26
283.59	3139.54
283.80	3594.19
284.02	3463.12
284.23	3067.86
284.45	3186.64
284.66	3217.36
284.88	3233.74
285.09	2959.31
285.31	3198.93
285.52	3536.84
285.74	3080.14
285.95	3315.66
286.17	3123.15
286.38	3778.50
286.60	3264.46
286.81	3065.81
287.03	3131.34
287.24	3422.16
287.46	3518.41
287.67	3180.50
287.89	3305.42
288.10	3461.07
288.32	3422.16
288.53	3237.84
288.75	3186.64
288.96	3692.49
289.18	3262.41
289.39	3074.00
289.61	3133.39
289.82	3852.23
290.04	3841.99
290.25	2944.98
290.47	3104.72
290.68	3469.26
290.90	3682.25
291.11	2879.44
291.33	3272.65
291.54	3205.07
291.76	3403.72
291.97	3246.03
292.18	3209.17
292.40	3303.37
292.61	3293.13
292.83	3381.20
293.04	3102.67
293.26	3471.31
293.47	3395.53
293.69	3098.58
293.90	2983.89
294.12	3678.15
294.33	3461.07
294.55	3182.54
294.76	3213.26
294.97	3712.97
295.19	3913.67
295.40	3061.71
295.62	3243.98
295.83	3635.14
296.05	3227.60
296.26	3346.38
296.48	3129.30
296.69	3344.33
296.90	3450.83
297.12	3225.55
297.33	3250.13
297.55	3495.88
297.76	3463.12
297.98	3176.40
298.19	3284.94
298.41	3454.92
298.62	3213.26
298.83	3358.67
299.05	3168.21
299.26	3342.28
299.48	3274.70
299.69	3221.45
299.90	3004.37
300.12	3323.85
300.33	3616.71
300.55	3096.53
300.76	3205.07
300.98	3229.65
301.19	3606.47
301.40	3061.71
301.62	3098.58
301.83	3641.29
302.05	3416.01
302.26	3057.62
302.47	3160.02
302.69	3176.40
302.90	3532.75
303.12	3033.04
303.33	3149.78
303.54	3942.34
303.76	3272.65
303.97	3076.05
304.19	3323.85
304.40	3358.67
304.61	3516.36
304.83	3213.26
305.04	3211.22
305.26	3643.34
305.47	3364.81
305.68	3110.86
305.90	3008.47
306.11	3686.34
306.33	3428.30
306.54	2887.64
306.75	3022.80
306.97	3147.73
307.18	3246.03
307.39	3053.52
307.61	3213.26
307.82	3323.85
308.04	3624.90
308.25	2934.74
308.46	3266.51
308.68	3467.21
308.89	3375.05
309.10	3233.74
309.32	3088.34
309.53	3434.44
309.74	3612.62
309.96	3049.43
310.17	3184.59
310.39	3289.04
310.60	3516.36
310.81	3190.74
311.03	3041.23
311.24	3573.71
311.45	3475.40
311.67	3360.72
311.88	3301.33
312.09	3352.52
312.31	3360.72
312.52	3059.67
312.73	3045.33
312.95	3180.50
313.16	3264.46
313.37	3284.94
313.59	3233.74
313.80	3614.66
314.01	3766.21
314.23	3063.76
314.44	3002.32
314.65	3157.97
314.87	3289.04
315.08	3104.72
315.29	3155.92
315.51	3192.78
315.72	3117.01
315.93	3215.31
316.15	3149.78
316.36	3354.57
316.57	3430.35
316.79	3069.91
317.00	3008.47
317.21	3577.80
317.43	3203.02
317.64	3143.63
317.85	3043.28
318.07	3305.42
318.28	3309.52
318.49	3213.26
318.70	3385.29
318.92	3459.02
319.13	3598.28
319.34	3209.17
319.56	2979.79
319.77	3534.79
319.98	3559.37
320.20	3418.06
320.41	3205.07
320.62	3442.64
320.83	3192.78
321.05	3319.76
321.26	3137.49
321.47	3540.94
321.69	3766.21
321.90	2934.74
322.11	3016.66
322.32	3461.07
322.54	3774.41
322.75	3098.58
322.96	4282.30
323.18	3147.73
323.39	2967.51
323.60	3022.80
323.81	3196.88
324.03	3330.00
324.24	3454.92
324.45	3200.98
324.66	3041.23
324.88	3596.23
325.09	3794.89
325.30	3141.58
325.52	3020.75
325.73	3489.74
325.94	3239.89
326.15	2994.13
326.37	2920.40
326.58	3633.10
326.79	3852.23
327.00	3037.14
327.22	3047.38
327.43	3401.68
327.64	3229.65
327.85	3297.23
328.07	3203.02
328.28	3878.85
328.49	3407.82
328.70	3117.01
328.92	3123.15
329.13	3338.19
329.34	3512.27
329.55	3262.41
329.76	3241.93
329.98	3327.95
330.19	3764.17
330.40	3237.84
330.61	3198.93
330.83	3557.32
331.04	3225.55
331.25	3180.50
331.46	3160.02
331.68	3180.50
331.89	3692.49
332.10	3145.68
332.31	2944.98
332.52	3354.57
332.74	3704.78
332.95	2924.50
333.16	3086.29
333.37	3612.62
333.58	3280.85
333.80	3147.73
334.01	2877.40
334.22	3422.16
334.43	3315.66
334.64	2979.79
334.86	3106.77
335.07	3221.45
335.28	3811.27
335.49	2981.84
335.70	3110.86
335.92	3770.31
336.13	3960.77
336.34	3098.58
336.55	3024.85
336.76	3534.79
336.98	3069.91
337.19	3069.91
337.40	3166.16
337.61	4097.99
337.82	3330.00
338.04	3139.54
338.25	2944.98
338.46	3385.29
338.67	3379.15
338.88	3057.62
339.09	3076.05
339.31	3352.52
339.52	3155.92
339.73	3069.91
339.94	3168.21
340.15	3622.86
340.36	3330.00
340.58	3129.30
340.79	3063.76
341.00	3499.98
341.21	3250.13
341.42	3442.64
341.63	3139.54
341.85	3639.24
342.06	3436.49
342.27	3035.09
342.48	3229.65
342.69	3061.71
342.90	3489.74
343.12	3622.86
343.33	3024.85
343.54	3684.30
343.75	3727.30
343.96	3315.66
344.17	3024.85
344.38	3346.38
344.60	3237.84
344.81	3030.99
345.02	3157.97
345.23	3735.50
345.44	4036.55
345.65	3108.82
345.86	3231.69
346.07	3485.64
346.29	3332.05
346.50	3270.61
346.71	3127.25
346.92	3815.37
347.13	4026.31
347.34	3241.93
347.55	2981.84
347.76	3524.55
347.98	3145.68
348.19	3174.35
348.40	3262.41
348.61	3379.15
348.82	3766.21
349.03	3121.10
349.24	3028.95
349.45	3958.72
349.66	3022.80
349.88	3071.95
350.09	3020.75
350.30	3753.93
350.51	3704.78
350.72	3330.00
350.93	2969.55
351.14	3342.28
351.35	3524.55
351.56	3074.00
351.77	3121.10
351.99	3520.46
352.20	3706.82
352.41	3205.07
352.62	2967.51
352.83	3430.35
353.04	3446.73
353.25	3065.81
353.46	3153.87
353.67	3672.01
353.88	3067.86
354.09	2944.98
354.30	3123.15
354.52	3696.58
354.73	3416.01
354.94	3026.90
355.15	3119.06
355.36	3919.81
355.57	3321.81
355.78	3051.47
355.99	3143.63
356.20	3459.02
356.41	3811.27
356.62	3143.63
356.83	3125.20
357.04	3643.34
357.25	3057.62
357.46	3069.91
357.68	3012.56
357.89	3182.54
358.10	3452.88
358.31	2996.18
358.52	3129.30
358.73	3176.40
358.94	3276.75
359.15	3166.16
359.36	3131.34
359.57	3479.50
359.78	3321.81
359.99	3239.89
360.20	3092.43
360.41	3424.20
360.62	3557.32
360.83	3192.78
361.04	3108.82
361.25	3534.79
361.46	3805.13
361.67	3205.07
361.88	3139.54
362.09	3598.28
362.30	3540.94
362.51	3059.67
362.72	3139.54
362.93	3618.76
363.14	3491.79
363.35	3299.28
363.56	2934.74
363.78	3729.35
363.99	3706.82
364.20	3168.21
364.41	3203.02
364.62	3876.80
364.83	3510.22
365.04	3108.82
365.25	3141.58
365.46	3952.58
365.67	3305.42
365.88	3280.85
366.09	3125.20
366.30	3377.10
366.51	3401.68
366.72	3151.82
366.93	3090.38
367.14	3532.75
367.35	3606.47
367.56	3026.90
367.77	3176.40
367.98	3473.36
368.18	3532.75
368.39	3155.92
368.60	3053.52
368.81	3688.39
369.02	3479.50
369.23	3104.72
369.44	2955.22
369.65	3469.26
369.86	3616.71
370.07	3198.93
370.28	2996.18
370.49	3551.18
370.70	3577.80
370.91	3039.19
371.12	2938.84
371.33	3715.02
371.54	3336.14
371.75	3239.89
371.96	2770.90
372.17	3547.08
372.38	3342.28
372.59	3141.58
372.80	3078.10
373.01	3340.24
373.22	3473.36
373.43	3100.62
373.64	2987.99
373.85	3639.24
374.06	3790.79
374.26	3250.13
374.47	3180.50
374.68	3809.22
374.89	3512.27
375.10	3057.62
375.31	3127.25
375.52	3463.12
375.73	3473.36
375.94	2940.88
376.15	3190.74
376.36	3209.17
376.57	3373.00
376.78	3215.31
376.99	3237.84
377.20	3725.26
377.40	3305.42
377.61	3465.16
377.82	3037.14
378.03	3776.45
378.24	3590.09
378.45	3133.39
378.66	3198.93
378.87	3082.19
379.08	3108.82
379.29	3102.67
379.50	3284.94
379.71	3450.83
379.91	3598.28
380.12	3100.62
380.33	3196.88
380.54	3467.21
380.75	3448.78
380.96	3090.38
381.17	3174.35
381.38	3391.44
381.59	3368.91
381.80	3174.35
382.00	3313.61
382.21	3483.59
382.42	3743.69
382.63	3518.41
382.84	3270.61
383.05	3696.58
383.26	3749.83
383.47	3321.81
383.68	3106.77
383.88	3471.31
384.09	3483.59
384.30	3366.86
384.51	3250.13
384.72	3346.38
384.93	3241.93
385.14	3127.25
385.35	3401.68
385.55	3166.16
385.76	3717.06
385.97	3055.57
386.18	2967.51
386.39	3262.41
386.60	3272.65
386.81	3110.86
387.02	3041.23
387.22	3184.59
387.43	3659.72
387.64	3205.07
387.85	3395.53
388.06	3397.58
388.27	4378.56
388.48	7368.59
388.68	10981.21
388.89	13690.67
389.10	15013.66
389.31	14468.90
389.52	11796.30
389.73	10409.83
389.93	9650.03
390.14	8419.20
390.35	7968.65
390.56	7483.28
390.77	6350.75
390.98	4853.69
391.18	4083.65
391.39	3952.58
391.60	3444.68
391.81	3297.23
392.02	3123.15
392.23	4028.35
392.43	3499.98
392.64	3176.40
392.85	3278.80
393.06	3798.98
393.27	3442.64
393.47	3057.62
393.68	3198.93
393.89	3370.96
394.10	3635.14
394.31	3125.20
394.52	3088.34
394.72	3272.65
394.93	3762.12
395.14	3053.52
395.35	3184.59
395.56	3332.05
395.76	3393.48
395.97	3137.49
396.18	3256.27
396.39	3413.96
396.60	4132.80
396.80	3518.41
397.01	3336.14
397.22	3508.17
397.43	3657.67
397.64	3094.48
397.84	3180.50
398.05	3827.65
398.26	3387.34
398.47	3301.33
398.67	3377.10
398.88	3450.83
399.09	3561.42
399.30	3047.38
399.51	3235.79
399.71	3313.61
399.92	3450.83
400.13	3266.51
400.34	3155.92
400.54	3420.11
400.75	3768.26
400.96	3192.78
401.17	3465.16
401.37	3583.95
401.58	3473.36
401.79	3180.50
402.00	3305.42
402.21	3960.77
402.41	3616.71
402.62	3377.10
402.83	3559.37
403.04	3819.46
403.24	4179.90
403.45	3250.13
403.66	3522.51
403.87	3712.97
404.07	3786.69
404.28	3418.06
404.49	3450.83
404.70	3467.21
404.90	3655.62
405.11	3170.26
405.32	3227.60
405.52	3311.57
405.73	3319.76
405.94	3102.67
406.15	3231.69
406.35	3547.08
406.56	3647.43
406.77	3186.64
406.98	3143.63
407.18	3291.09
407.39	3805.13
407.60	3155.92
407.80	3252.17
408.01	3334.09
408.22	3573.71
408.43	3133.39
408.63	3258.32
408.84	3639.24
409.05	3657.67
409.25	3074.00
409.46	3147.73
409.67	3311.57
409.88	3303.37
410.08	3168.21
410.29	3069.91
410.50	3721.16
410.70	3594.19
410.91	3090.38
411.12	3209.17
411.32	3549.13
411.53	3254.22
411.74	3157.97
411.95	3180.50
412.15	3428.30
412.36	3579.85
412.57	3305.42
412.77	3338.19
412.98	3348.43
413.19	3315.66
413.39	3221.45
413.60	3149.78
413.81	3719.11
414.01	3170.26
414.22	3157.97
414.43	3430.35
414.63	3309.52
414.84	3618.76
415.05	3174.35
415.25	3037.14
415.46	3600.33
415.67	3286.99
415.87	3198.93
416.08	3127.25
416.29	3403.72
416.49	3561.42
416.70	3184.59
416.91	3168.21
417.11	3342.28
417.32	3635.14
417.53	3243.98
417.73	3250.13
417.94	3487.69
418.15	3452.88
418.35	3217.36
418.56	3231.69
418.77	3923.91
418.97	3377.10
419.18	3268.56
419.38	2879.44
419.59	3463.12
419.80	3753.93
420.00	2990.03
420.21	3131.34
420.42	3723.21
420.62	3583.95
420.83	3182.54
421.04	3174.35
421.24	3389.39
421.45	3606.47
421.65	3239.89
421.86	3194.83
422.07	3698.63
422.27	3479.50
422.48	3080.14
422.69	2994.13
422.89	3420.11
423.10	3413.96
423.30	3186.64
423.51	3254.22
423.72	3604.42
423.92	3604.42
424.13	3051.47
424.33	3272.65
424.54	3579.85
424.75	3495.88
424.95	3418.06
425.16	3117.01
425.36	3479.50
425.57	3686.34
425.78	3264.46
425.98	3286.99
426.19	3352.52
426.39	3340.24
426.60	3278.80
426.81	3327.95
427.01	3573.71
427.22	3282.89
427.42	3000.27
427.63	3196.88
427.83	3606.47
428.04	3821.51
428.25	3213.26
428.45	3295.18
428.66	3663.82
428.86	3319.76
429.07	3166.16
429.28	3139.54
429.48	3497.93
429.69	3309.52
429.89	3221.45
430.10	3104.72
430.30	3590.09
430.51	3661.77
430.71	3114.96
430.92	3160.02
431.13	3364.81
431.33	3547.08
431.54	3241.93
431.74	3323.85
431.95	3852.23
432.15	3221.45
432.36	3153.87
432.56	3223.50
432.77	3909.57
432.98	3827.65
433.18	3260.37
433.39	3012.56
433.59	3434.44
433.80	3928.00
434.00	3280.85
434.21	3223.50
434.41	3297.23
434.62	4018.11
434.82	3024.85
435.03	3026.90
435.23	3532.75
435.44	3078.10
435.64	3049.43
435.85	3133.39
436.06	3672.01
436.26	3696.58
436.47	3170.26
436.67	3039.19
436.88	3409.87
437.08	3696.58
437.29	3250.13
437.49	3352.52
437.70	3676.10
437.90	3434.44
438.11	3375.05
438.31	3211.22
438.52	3653.58
438.72	3686.34
438.93	3473.36
439.13	3299.28
439.34	3608.52
439.54	3360.72
439.75	3254.22
439.95	3188.69
440.16	3264.46
440.36	3321.81
440.57	3125.20
440.77	3139.54
440.98	3405.77
441.18	3557.32
441.39	3076.05
441.59	3080.14
441.80	3889.09
442.00	3391.44
442.21	3256.27
442.41	3016.66
442.62	3680.20
442.82	3299.28
443.02	3131.34
443.23	3184.59
443.43	3336.14
443.64	3682.25
443.84	3012.56
444.05	3203.02
444.25	3491.79
444.46	3368.91
444.66	3104.72
444.87	3375.05
445.07	3147.73
445.28	3362.76
445.48	3360.72
445.69	3254.22
445.89	3997.64
446.09	3424.20
446.30	3420.11
446.50	3487.69
446.71	5042.10
446.91	6109.09
447.12	6961.05
447.32	7161.75
447.53	7423.89
447.73	6293.41
447.93	5351.34
448.14	5191.60
448.34	5455.79
448.55	4511.68
448.75	4384.70
448.96	4204.48
449.16	4102.08
449.36	3966.92
449.57	3426.25
449.77	3205.07
449.98	3436.49
450.18	3581.90
450.39	3059.67
450.59	3319.76
450.79	3346.38
451.00	3246.03
451.20	3311.57
451.41	3149.78
451.61	3502.03
451.81	3418.06
452.02	3102.67
452.22	3205.07
452.43	3360.72
452.63	3260.37
452.84	3248.08
453.04	3090.38
453.24	3540.94
453.45	3291.09
453.65	3262.41
453.86	3282.89
454.06	3373.00
454.26	3477.45
454.47	3133.39
454.67	3321.81
454.87	3545.03
455.08	3434.44
455.28	3315.66
455.49	3483.59
455.69	3182.54
455.89	3909.57
456.10	3295.18
456.30	3215.31
456.51	3518.41
456.71	3493.83
456.91	3256.27
457.12	3153.87
457.32	3502.03
457.52	3295.18
457.73	3344.33
457.93	3246.03
458.14	3305.42
458.34	3057.62
458.54	3160.02
458.75	3135.44
458.95	3735.50
459.15	3487.69
459.36	3186.64
459.56	3237.84
459.76	3946.44
459.97	3442.64
460.17	3155.92
460.37	3178.45
460.58	3442.64
460.78	3635.14
460.99	3135.44
461.19	3164.11
461.39	3239.89
461.60	3444.68
461.80	3186.64
462.00	3049.43
462.21	3438.54
462.41	3282.89
462.61	2998.23
462.82	3000.27
463.02	3499.98
463.22	3393.48
463.43	3203.02
463.63	3061.71
463.83	3676.10
464.04	3508.17
464.24	3049.43
464.44	3160.02
464.64	3444.68
464.85	3573.71
465.05	3127.25
465.25	3090.38
465.46	3379.15
465.66	3573.71
465.86	3307.47
466.07	3090.38
466.27	3370.96
466.47	3127.25
466.68	3004.37
466.88	3248.08
467.08	3610.57
467.29	3624.90
467.49	3170.26
467.69	3315.66
467.89	3569.61
468.10	3397.58
468.30	3248.08
468.50	3289.04
468.71	3608.52
468.91	3129.30
469.11	3313.61
469.31	3262.41
469.52	3344.33
469.72	3813.32
469.92	3413.96
470.13	3188.69
470.33	3495.88
470.53	3567.56
470.73	3450.83
470.94	3889.09
471.14	4038.59
471.34	4679.61
471.54	4151.23
471.75	3921.86
471.95	3682.25
472.15	3725.26
472.36	3655.62
472.56	3581.90
472.76	4032.45
472.96	3784.65
473.17	3385.29
473.37	3217.36
473.57	3330.00
473.77	3499.98
473.98	3276.75
474.18	3078.10
474.38	4165.57
474.58	3391.44
474.79	3076.05
474.99	3262.41
475.19	3688.39
475.39	3231.69
475.60	3180.50
475.80	3051.47
476.00	3520.46
476.20	3377.10
476.41	3256.27
476.61	3207.12
476.81	3778.50
477.01	3336.14
477.21	3444.68
477.42	3313.61
477.62	3344.33
477.82	3606.47
478.02	3123.15
478.23	3155.92
478.43	3278.80
478.63	3379.15
478.83	3125.20
479.03	3229.65
479.24	3753.93
479.44	3807.17
479.64	3160.02
479.84	3024.85
480.04	3270.61
480.25	3663.82
480.45	3059.67
480.65	3137.49
480.85	3807.17
481.06	3260.37
481.26	3303.37
481.46	3215.31
481.66	3540.94
481.86	3243.98
482.06	3409.87
482.27	3209.17
482.47	3313.61
482.67	3559.37
482.87	3139.54
483.07	3221.45
483.28	3350.48
483.48	3166.16
483.68	3155.92
483.88	3049.43
484.08	3067.86
484.29	3102.67
484.49	3225.55
484.69	2983.89
484.89	3770.31
485.09	3641.29
485.29	3168.21
485.50	3323.85
485.70	3330.00
485.90	3739.59
486.10	3291.09
486.30	3024.85
486.50	3751.88
486.71	3465.16
486.91	3225.55
487.11	3258.32
487.31	3178.45
487.51	3641.29
487.71	3125.20
487.91	3106.77
488.12	3266.51
488.32	2971.60
488.52	3110.86
488.72	2904.02
488.92	3387.34
489.12	3708.87
489.32	3256.27
489.53	3127.25
489.73	3172.30
489.93	3833.80
490.13	3147.73
490.33	3037.14
490.53	3532.75
490.73	3717.06
490.94	3012.56
491.14	3274.70
491.34	3616.71
491.54	3442.64
491.74	3991.49
491.94	4376.51
492.14	5052.34
492.34	5128.11
492.54	4661.18
492.75	4143.04
492.95	4483.00
493.15	4155.33
493.35	3831.75
493.55	3844.04
493.75	3764.17
493.95	4089.79
494.15	3389.39
494.35	3196.88
494.56	3407.82
494.76	3346.38
494.96	3368.91
495.16	3078.10
495.36	3516.36
495.56	3428.30
495.76	3231.69
495.96	3166.16
496.16	3203.02
496.36	3864.52
496.56	3096.53
496.77	3252.17
496.97	3467.21
497.17	3665.86
497.37	2992.08
497.57	3295.18
497.77	3549.13
497.97	3170.26
498.17	3217.36
498.37	3200.98
498.57	3571.66
498.77	3377.10
498.97	3303.37
499.17	3481.55
499.38	3426.25
499.58	3575.75
499.78	3332.05
499.98	3289.04
500.18	3317.71
500.38	3305.42
500.58	3344.33
500.78	3747.78
500.98	6072.23
501.18	7858.06
501.38	9078.65
501.58	10098.53
501.78	10112.87
501.98	8425.34
502.18	7141.27
502.38	6186.91
502.58	6252.45
502.78	5515.18
502.98	5121.97
503.18	4978.61
503.38	4794.29
503.59	4106.18
503.79	4048.83
503.99	3635.14
504.19	3958.72
504.39	3968.96
504.59	3600.33
504.79	3520.46
504.99	4003.78
505.19	3557.32
505.39	3377.10
505.59	3540.94
505.79	3817.41
505.99	3639.24
506.19	3168.21
506.39	3422.16
506.59	3346.38
506.79	3360.72
506.99	3395.53
507.19	3155.92
507.39	3444.68
507.59	3174.35
507.79	3172.30
507.99	3082.19
508.19	3452.88
508.39	3336.14
508.59	3139.54
508.79	3243.98
508.99	3989.44
509.19	3286.99
509.39	3262.41
509.59	3102.67
509.79	3256.27
509.99	3524.55
510.19	3330.00
510.39	3309.52
510.59	3442.64
510.79	3364.81
510.99	2959.31
511.19	3100.62
511.39	3835.85
511.59	3661.77
511.79	3325.90
511.99	3139.54
512.19	3897.28
512.38	3436.49
512.58	3170.26
512.78	3024.85
512.98	3733.45
513.18	3776.45
513.38	3102.67
513.58	3258.32
513.78	3375.05
513.98	3233.74
514.18	3205.07
514.38	3149.78
514.58	3534.79
514.78	3264.46
514.98	3082.19
515.18	3248.08
515.38	3217.36
515.58	3831.75
515.78	3164.11
515.98	3237.84
516.18	3575.75
516.38	3448.78
516.57	3162.06
516.77	3164.11
516.97	3573.71
517.17	3416.01
517.37	2979.79
517.57	3227.60
517.77	3477.45
517.97	3309.52
518.17	3241.93
518.37	3047.38
518.57	3379.15
518.77	3399.63
518.97	3151.82
519.16	3135.44
519.36	3690.44
519.56	3354.57
519.76	3053.52
519.96	3205.07
520.16	3776.45
520.36	3198.93
520.56	3284.94
520.76	3121.10
520.96	3368.91
521.16	3663.82
521.35	3327.95
521.55	3293.13
521.75	3377.10
521.95	3344.33
522.15	3129.30
522.35	3043.28
522.55	3282.89
522.75	3643.34
522.95	3133.39
523.14	2951.12
523.34	3385.29
523.54	3383.24
523.74	3256.27
523.94	3250.13
524.14	3108.82
524.34	3559.37
524.54	3352.52
524.73	3223.50
524.93	3602.38
525.13	3409.87
525.33	3106.77
525.53	3381.20
525.73	3669.96
525.93	3436.49
526.13	3184.59
526.32	3100.62
526.52	3745.73
526.72	3682.25
526.92	3143.63
527.12	3125.20
527.32	3074.00
527.52	3553.23
527.71	3196.88
527.91	3125.20
528.11	3368.91
528.31	3352.52
528.51	3131.34
528.71	3401.68
528.90	3504.07
529.10	3588.04
529.30	3217.36
529.50	2920.40
529.70	3477.45
529.90	3401.68
530.09	3172.30
530.29	2983.89
530.49	3256.27
530.69	4085.70
530.89	3291.09
531.09	3284.94
531.28	3352.52
531.48	3686.34
531.68	3147.73
531.88	3250.13
532.08	3647.43
532.28	3379.15
532.47	3237.84
532.67	3209.17
532.87	3649.48
533.07	3235.79
533.27	3170.26
533.46	3344.33
533.66	3512.27
533.86	3360.72
534.06	3213.26
534.26	3065.81
534.45	3422.16
534.65	3581.90
534.85	3332.05
535.05	3076.05
535.25	3571.66
535.44	3084.24
535.64	3213.26
535.84	3215.31
536.04	3330.00
536.24	3397.58
536.43	3121.10
536.63	3123.15
536.83	3413.96
537.03	3405.77
537.22	2981.84
537.42	2959.31
537.62	3520.46
537.82	3264.46
538.02	3454.92
538.21	3250.13
538.41	4016.07
538.61	3549.13
538.81	3196.88
539.00	3301.33
539.20	3000.27
539.40	3416.01
539.60	3067.86
539.79	3381.20
539.99	3567.56
540.19	3264.46
540.39	3114.96
540.58	3174.35
540.78	3622.86
540.98	3413.96
541.18	3387.34
541.37	3256.27
541.57	3409.87
541.77	3489.74
541.97	3100.62
542.16	3055.57
542.36	3373.00
542.56	3585.99
542.76	3307.47
542.95	3276.75
543.15	3624.90
543.35	3573.71
543.54	3106.77
543.74	3092.43
543.94	3696.58
544.14	3246.03
544.33	3344.33
544.53	3184.59
544.73	3373.00
544.93	3397.58
545.12	3110.86
545.32	3162.06
545.52	3385.29
545.71	3198.93
545.91	3153.87
546.11	3147.73
546.30	3241.93
546.50	3416.01
546.70	3246.03
546.90	3270.61
547.09	3067.86
547.29	3432.40
547.49	3272.65
547.68	3182.54
547.88	3231.69
548.08	3561.42
548.27	3411.92
548.47	3157.97
548.67	3368.91
548.87	3463.12
549.06	3198.93
549.26	3065.81
549.46	3551.18
549.65	3291.09
549.85	3164.11
550.05	3135.44
550.24	3155.92
550.44	3411.92
550.64	3229.65
550.83	3205.07
551.03	3807.17
551.23	3688.39
551.42	3186.64
551.62	3338.19
551.82	3487.69
552.01	3428.30
552.21	3610.57
552.41	3213.26
552.60	3731.40
552.80	3377.10
553.00	3129.30
553.19	3229.65
553.39	3780.55
553.59	3131.34
553.78	3346.38
553.98	3125.20
554.17	3205.07
554.37	3475.40
554.57	3293.13
554.76	3035.09
554.96	3368.91
555.16	3481.55
555.35	3274.70
555.55	3362.76
555.75	3391.44
555.94	3682.25
556.14	3018.71
556.33	3246.03
556.53	3362.76
556.73	3446.73
556.92	3174.35
557.12	3106.77
557.32	3913.67
557.51	3721.16
557.71	3241.93
557.90	3342.28
558.10	3729.35
558.30	3295.18
558.49	3221.45
558.69	3151.82
558.88	3590.09
559.08	3479.50
559.28	3225.55
559.47	3200.98
559.67	3643.34
559.86	3805.13
560.06	3102.67
560.26	3282.89
560.45	3561.42
560.65	3389.39
560.84	3487.69
561.04	3080.14
561.24	3559.37
561.43	3241.93
561.63	3354.57
561.82	3219.41
562.02	3551.18
562.22	3229.65
562.41	3117.01
562.61	3164.11
562.80	3166.16
563.00	3917.76
563.19	3219.41
563.39	3348.43
563.59	3547.08
563.78	3278.80
563.98	2969.55
564.17	3182.54
564.37	3069.91
564.56	3416.01
564.76	3074.00
564.96	3297.23
565.15	3526.60
565.35	3893.19
565.54	3180.50
565.74	3176.40
565.93	3524.55
566.13	3344.33
566.32	3239.89
566.52	3295.18
566.71	3360.72
566.91	3592.14
567.11	3268.56
567.30	3160.02
567.50	3547.08
567.69	3602.38
567.89	3147.73
568.08	3086.29
568.28	3485.64
568.47	3194.83
568.67	3196.88
568.86	3149.78
569.06	3651.53
569.25	3446.73
569.45	3121.10
569.64	3264.46
569.84	3262.41
570.04	3459.02
570.23	3198.93
570.43	3289.04
570.62	3510.22
570.82	3755.97
571.01	3121.10
571.21	3092.43
571.40	3164.11
571.60	3563.47
571.79	3243.98
571.99	3147.73
572.18	3211.22
572.38	3459.02
572.57	3213.26
572.77	3227.60
572.96	4097.99
573.16	3385.29
573.35	3203.02
573.55	3325.90
573.74	3469.26
573.94	3368.91
574.13	3084.24
574.33	3321.81
574.52	3676.10
574.71	3444.68
574.91	3237.84
575.10	3026.90
575.30	3330.00
575.49	3231.69
575.69	3069.91
575.88	3131.34
576.08	3354.57
576.27	3762.12
576.47	3008.47
576.66	3344.33
576.86	3672.01
577.05	3465.16
577.25	3321.81
577.44	3383.24
577.64	3348.43
577.83	3690.44
578.02	3110.86
578.22	3266.51
578.41	3852.23
578.61	3395.53
578.80	3082.19
579.00	3223.50
579.19	3430.35
579.39	3563.47
579.58	3309.52
579.77	3286.99
579.97	3674.06
580.16	3592.14
580.36	3397.58
580.55	3164.11
580.75	3588.04
580.94	3370.96
581.13	3352.52
581.33	3448.78
581.52	3348.43
581.72	3801.03
581.91	3327.95
582.11	3057.62
582.30	3530.70
582.49	3379.15
582.69	3487.69
582.88	3196.88
583.08	3436.49
583.27	3655.62
583.47	3373.00
583.66	3143.63
583.85	3198.93
584.05	3364.81
584.24	3340.24
584.44	3198.93
584.63	3635.14
584.82	3680.20
585.02	3459.02
585.21	3278.80
585.41	3545.03
585.60	3434.44
585.79	3442.64
585.99	3518.41
586.18	3504.07
586.37	4507.58
586.57	6606.75
586.76	18759.39
586.96	37277.13
587.15	49863.94
587.34	58088.59
587.54	61828.18
587.73	54492.35
587.93	39140.78
588.12	29998.65
588.31	25093.76
588.51	21939.89
588.70	20678.34
588.89	18013.93
589.09	15451.92
589.28	13518.64
589.47	10307.43
589.67	7952.26
589.86	6203.30
590.06	4978.61
590.25	4646.84
590.44	3827.65
590.64	3608.52
590.83	3667.91
591.02	3712.97
591.22	3217.36
591.41	3243.98
591.60	3391.44
591.80	3905.48
591.99	3022.80
592.18	3106.77
592.38	3565.51
592.57	3360.72
592.76	3162.06
592.96	3309.52
593.15	3362.76
593.34	3745.73
593.54	3151.82
593.73	3352.52
593.92	3518.41
594.12	3549.13
594.31	3286.99
594.50	3344.33
594.70	3565.51
594.89	3991.49
595.08	3108.82
595.28	3342.28
595.47	4136.90
595.66	3643.34
595.86	3094.48
596.05	3065.81
596.24	3254.22
596.43	3874.76
596.63	3256.27
596.82	3299.28
597.01	3602.38
597.21	3772.36
597.40	3172.30
597.59	3221.45
597.79	3389.39
597.98	3534.79
598.17	3332.05
598.36	3239.89
598.56	3657.67
598.75	3375.05
598.94	3192.78
599.14	3286.99
599.33	3358.67
599.52	3633.10
599.71	3272.65
599.91	3155.92
600.10	3561.42
600.29	3471.31
600.48	3325.90
600.68	3332.05
600.87	3440.59
601.06	3282.89
601.26	3303.37
601.45	3370.96
601.64	3459.02
601.83	3733.45
602.03	3151.82
602.22	3121.10
602.41	3721.16
602.60	3925.96
602.80	3229.65
602.99	3387.34
603.18	3344.33
603.37	3487.69
603.57	3137.49
603.76	3184.59
603.95	3708.87
604.14	3387.34
604.34	3092.43
604.53	3153.87
604.72	3411.92
604.91	3608.52
605.10	3098.58
605.30	3067.86
605.49	3903.43
605.68	3547.08
605.87	3151.82
606.07	3121.10
606.26	3489.74
606.45	3581.90
606.64	3151.82
606.84	3057.62
607.03	3467.21
607.22	3667.91
607.41	3227.60
607.60	3135.44
607.80	3715.02
607.99	3459.02
608.18	3166.16
608.37	3180.50
608.56	3330.00
608.76	3653.58
608.95	3346.38
609.14	3094.48
609.33	3590.09
609.52	3774.41
609.72	3252.17
609.91	3266.51
610.10	3565.51
610.29	3753.93
610.48	3317.71
610.68	3311.57
610.87	3444.68
611.06	3573.71
611.25	3182.54
611.44	3241.93
611.63	3336.14
611.83	3741.64
612.02	3106.77
612.21	3262.41
612.40	3026.90
612.59	3155.92
612.79	3127.25
612.98	3196.88
613.17	3829.70
613.36	3358.67
613.55	3264.46
613.74	3149.78
613.93	3362.76
614.13	3499.98
614.32	3348.43
614.51	3164.11
614.70	3418.06
614.89	3362.76
615.08	3309.52
615.28	3475.40
615.47	3241.93
615.66	3487.69
615.85	3194.83
616.04	3133.39
616.23	3469.26
616.42	3418.06
616.62	3213.26
616.81	3174.35
617.00	3448.78
617.19	3487.69
617.38	3217.36
617.57	3332.05
617.76	3663.82
617.95	3590.09
618.15	3375.05
618.34	3405.77
618.53	3102.67
618.72	3618.76
618.91	3299.28
619.10	3332.05
619.29	3360.72
619.48	3360.72
619.68	3065.81
619.87	3180.50
620.06	3114.96
620.25	3604.42
620.44	3119.06
620.63	3217.36
620.82	3475.40
621.01	3540.94
621.20	3213.26
621.39	3225.55
621.59	3477.45
621.78	3305.42
621.97	3254.22
622.16	3327.95
622.35	3567.56
622.54	3553.23
622.73	3213.26
622.92	3002.32
623.11	3672.01
623.30	3401.68
623.49	3348.43
623.68	3037.14
623.88	3755.97
624.07	3231.69
624.26	3049.43
624.45	3135.44
624.64	3399.63
624.83	3565.51
625.02	3178.45
625.21	3180.50
625.40	3608.52
625.59	3725.26
625.78	3223.50
625.97	3213.26
626.16	3729.35
626.35	3598.28
626.54	3094.48
626.74	3356.62
626.93	3360.72
627.12	3432.40
627.31	3221.45
627.50	3164.11
627.69	3624.90
627.88	3342.28
628.07	3061.71
628.26	2971.60
628.45	3270.61
628.64	3219.41
628.83	3170.26
629.02	2955.22
629.21	3606.47
629.40	3532.75
629.59	3063.76
629.78	3127.25
629.97	3373.00
630.16	3479.50
630.35	3182.54
630.54	3221.45
630.73	3348.43
630.92	3391.44
631.11	3037.14
631.30	3252.17
631.49	3594.19
631.68	3346.38
631.87	3221.45
632.06	3084.24
632.25	3975.11
632.44	3362.76
632.63	3217.36
632.82	3280.85
633.01	3315.66
633.20	3475.40
633.39	3180.50
633.58	2998.23
633.77	3465.16
633.96	3557.32
634.15	3344.33
634.34	3278.80
634.53	3420.11
634.72	3346.38
634.91	2987.99
635.10	3123.15
635.29	3561.42
635.48	3532.75
635.67	3092.43
635.86	3071.95
636.05	3706.82
636.24	3452.88
636.43	3147.73
636.62	3200.98
636.81	2936.79
637.00	3403.72
637.19	3182.54
637.38	3149.78
637.57	3315.66
637.76	3456.97
637.95	3354.57
638.14	3368.91
638.33	3430.35
638.52	3442.64
638.71	3059.67
638.89	3074.00
639.08	4026.31
639.27	3583.95
639.46	3420.11
639.65	3643.34
639.84	3864.52
640.03	4065.22
640.22	3516.36
640.41	3536.84
640.60	3444.68
640.79	3557.32
640.98	3352.52
641.17	3319.76
641.36	3680.20
641.55	3485.64
641.74	3067.86
641.92	3071.95
642.11	3280.85
642.30	3401.68
642.49	3139.54
642.68	3143.63
642.87	3551.18
643.06	3467.21
643.25	2996.18
643.44	3098.58
643.63	3495.88
643.82	3565.51
644.00	3033.04
644.19	3284.94
644.38	3145.68
644.57	3577.80
644.76	3172.30
644.95	3213.26
645.14	3389.39
645.33	3489.74
645.52	3282.89
645.71	3078.10
645.89	3274.70
646.08	3428.30
646.27	3307.47
646.46	3348.43
646.65	3094.48
646.84	3553.23
647.03	3057.62
647.22	3272.65
647.40	3504.07
647.59	3385.29
647.78	2934.74
647.97	3186.64
648.16	3217.36
648.35	3674.06
648.54	3485.64
648.73	3223.50
648.91	3655.62
649.10	3456.97
649.29	3071.95
649.48	3231.69
649.67	3506.12
649.86	3467.21
650.05	3205.07
650.23	3368.91
650.42	3237.84
650.61	3778.50
650.80	3334.09
650.99	3471.31
651.18	3616.71
651.36	3635.14
651.55	3088.34
651.74	3344.33
651.93	3311.57
652.12	3391.44
652.31	3223.50
652.49	3190.74
652.68	3377.10
652.87	3700.68
653.06	3301.33
653.25	3520.46
653.44	3440.59
653.62	3737.54
653.81	3207.12
654.00	3162.06
654.19	3536.84
654.38	4032.45
654.56	3321.81
654.75	3178.45
654.94	3651.53
655.13	3487.69
655.32	3076.05
655.51	3213.26
655.69	3364.81
655.88	3565.51
656.07	3039.19
656.26	3178.45
656.45	3164.11
656.63	3520.46
656.82	3180.50
657.01	3471.31
657.20	3303.37
657.38	3776.45
657.57	3057.62
657.76	2979.79
657.95	3577.80
658.14	3321.81
658.32	3264.46
658.51	3071.95
658.70	3452.88
658.89	3459.02
659.08	3209.17
659.26	3409.87
659.45	3192.78
659.64	3536.84
659.83	3180.50
660.01	3585.99
660.20	3547.08
660.39	3860.42
660.58	2865.11
660.76	3246.03
660.95	3071.95
661.14	3393.48
661.33	2934.74
661.51	3219.41
661.70	3295.18
661.89	3493.83
662.08	3231.69
662.26	3051.47
662.45	3180.50
662.64	3794.89
662.83	3233.74
663.01	3127.25
663.20	3321.81
663.39	3784.65
663.58	3172.30
663.76	3188.69
663.95	3522.51
664.14	3213.26
664.32	3254.22
664.51	3135.44
664.70	3051.47
664.89	3450.83
665.07	3037.14
665.26	3309.52
665.45	3157.97
665.64	3622.86
665.82	3108.82
666.01	3325.90
666.20	3178.45
666.38	3688.39
666.57	3510.22
666.76	5787.56
666.95	12738.37
667.13	19066.59
667.32	22400.68
667.51	25054.85
667.69	25712.25
667.88	20979.39
668.07	15642.39
668.25	13260.60
668.44	11845.45
668.63	10424.16
668.81	9078.65
669.00	7778.19
669.19	7196.56
669.38	6434.72
669.56	5416.88
669.75	4802.49
669.94	4423.61
670.12	3776.45
670.31	3409.87
670.50	3436.49
670.68	3663.82
670.87	3448.78
671.06	3180.50
671.24	3297.23
671.43	3764.17
671.62	3508.17
671.80	3225.55
671.99	3340.24
672.18	3459.02
672.36	3641.29
672.55	3311.57
672.74	3215.31
672.92	3297.23
673.11	3551.18
673.29	3078.10
673.48	3346.38
673.67	3352.52
673.85	3633.10
674.04	3166.16
674.23	3303.37
674.41	3917.76
674.60	3211.22
674.79	2992.08
674.97	3051.47
675.16	3598.28
675.34	3674.06
675.53	3131.34
675.72	3237.84
675.90	3854.28
676.09	3442.64
676.28	3334.09
676.46	3010.51
676.65	3540.94
676.83	3272.65
677.02	3295.18
677.21	3272.65
677.39	3452.88
677.58	3221.45
677.77	3135.44
677.95	3061.71
678.14	3321.81
678.32	3315.66
678.51	3155.92
678.70	3532.75
678.88	3284.94
679.07	3467.21
679.25	3184.59
679.44	3168.21
679.63	3100.62
679.81	3510.22
680.00	3467.21
680.18	3264.46
680.37	3831.75
680.55	3413.96
680.74	3061.71
680.93	2885.59
681.11	3557.32
681.30	3395.53
681.48	3131.34
681.67	3133.39
681.85	3428.30
682.04	3319.76
682.23	3295.18
682.41	3323.85
682.60	3377.10
682.78	3459.02
682.97	3098.58
683.15	3301.33
683.34	3467.21
683.53	3692.49
683.71	3041.23
683.90	3237.84
684.08	3733.45
684.27	3391.44
684.45	3291.09
684.64	3409.87
684.82	3463.12
685.01	3563.47
685.19	3104.72
685.38	3487.69
685.57	3483.59
685.75	3254.22
685.94	3067.86
686.12	3049.43
686.31	3385.29
686.49	3805.13
686.68	2973.65
686.86	3262.41
687.05	3405.77
687.23	3819.46
687.42	3254.22
687.60	3035.09
687.79	3614.66
687.97	3743.69
688.16	3364.81
688.34	3311.57
688.53	3094.48
688.71	3569.61
688.90	3508.17
689.08	3231.69
689.27	3008.47
689.45	3639.24
689.64	3317.71
689.82	3258.32
690.01	3528.65
690.19	3549.13
690.38	3190.74
690.56	3270.61
690.75	3274.70
690.93	3330.00
691.12	3149.78
691.30	3286.99
691.49	3284.94
691.67	3426.25
691.86	3491.79
692.04	3233.74
692.23	3344.33
692.41	3532.75
692.60	3530.70
692.78	3405.77
692.97	3430.35
693.15	3557.32
693.34	3336.14
693.52	3377.10
693.71	3360.72
693.89	3303.37
694.08	3041.23
694.26	3262.41
694.44	3622.86
694.63	3592.14
694.81	3119.06
695.00	3246.03
695.18	3747.78
695.37	4026.31
695.55	3340.24
695.74	3350.48
695.92	3303.37
696.10	3649.48
696.29	3114.96
696.47	3186.64
696.66	3188.69
696.84	3233.74
697.03	3264.46
697.21	3434.44
697.40	4788.15
697.58	3692.49
697.76	3172.30
697.95	3151.82
698.13	3176.40
698.32	3338.19
698.50	3325.90
698.68	3231.69
698.87	3444.68
699.05	3788.74
699.24	3192.78
699.42	3229.65
699.61	3463.12
699.79	3446.73
699.97	3264.46
700.16	3020.75
700.34	3270.61
700.53	3407.82
700.71	3383.24
700.89	3301.33
701.08	3330.00
701.26	3395.53
701.45	3510.22
701.63	3246.03
701.81	3327.95
702.00	3270.61
702.18	3262.41
702.37	3149.78
702.55	3696.58
702.73	3432.40
702.92	3135.44
703.10	3516.36
703.28	3598.28
703.47	3065.81
703.65	3370.96
703.84	3336.14
704.02	3282.89
704.20	3876.80
704.39	3119.06
704.57	3213.26
704.75	3622.86
704.94	3428.30
705.12	3393.48
705.30	3985.35
705.49	8228.74
705.67	14559.01
705.86	19443.42
706.04	21823.16
706.22	24213.13
706.41	22824.61
706.59	16762.62
706.77	13385.52
706.96	11986.76
707.14	10891.10
707.32	9402.22
707.51	8302.47
707.69	6975.38
707.87	5943.21
708.06	4812.73
708.24	4253.63
708.42	4046.79
708.61	4280.25
708.79	3231.69
708.97	3393.48
709.16	3516.36
709.34	3411.92
709.52	3196.88
709.71	3182.54
709.89	3583.95
710.07	3334.09
710.26	3151.82
710.44	3180.50
710.62	3608.52
710.80	3420.11
710.99	3354.57
711.17	3321.81
711.35	3373.00
711.54	3237.84
711.72	3342.28
711.90	3307.47
712.09	3524.55
712.27	3291.09
712.45	3307.47
712.63	3172.30
712.82	3534.79
713.00	3356.62
713.18	3321.81
713.37	3442.64
713.55	3581.90
713.73	3573.71
713.91	3295.18
714.10	3188.69
714.28	3364.81
714.46	3532.75
714.65	3266.51
714.83	3223.50
715.01	3506.12
715.19	3450.83
715.38	3078.10
715.56	3336.14
715.74	3344.33
715.92	3327.95
716.11	3575.75
716.29	2969.55
716.47	3426.25
716.65	3393.48
716.84	3117.01
717.02	3237.84
717.20	3106.77
717.38	3286.99
717.57	3350.48
717.75	3264.46
717.93	3368.91
718.11	3524.55
718.30	3119.06
718.48	3182.54
718.66	3672.01
718.84	3690.44
719.03	3221.45
719.21	3086.29
719.39	3794.89
719.57	3469.26
719.75	3293.13
719.94	3131.34
720.12	3391.44
720.30	3370.96
720.48	3356.62
720.67	3272.65
720.85	3280.85
721.03	3344.33
721.21	3157.97
721.39	3223.50
721.58	3663.82
721.76	3442.64
721.94	3223.50
722.12	3327.95
722.30	3788.74
722.49	3307.47
722.67	3147.73
722.85	3237.84
723.03	3123.15
723.21	3321.81
723.40	3278.80
723.58	3295.18
723.76	3557.32
723.94	3672.01
724.12	3213.26
724.30	3526.60
724.49	3659.72
724.67	3200.98
724.85	3250.13
725.03	3117.01
725.21	3565.51
725.40	3631.05
725.58	3264.46
725.76	3420.11
725.94	3553.23
726.12	3160.02
726.30	3325.90
726.49	3055.57
726.67	3379.15
726.85	3545.03
727.03	3870.66
727.21	4978.61
727.39	6070.18
727.57	6490.01
727.76	6901.65
727.94	6731.67
728.12	6055.84
728.30	5033.91
728.48	4792.25
728.66	4534.20
728.84	4378.56
729.03	3915.72
729.21	3747.78
729.39	3526.60
729.57	3479.50
729.75	3444.68
729.93	3483.59
730.11	3168.21
730.30	3264.46
730.48	3334.09
730.66	3248.08
730.84	3274.70
731.02	3491.79
731.20	3344.33
731.38	3295.18
731.56	3065.81
731.74	3117.01
731.93	3528.65
732.11	3321.81
732.29	3205.07
732.47	3520.46
732.65	3450.83
732.83	3454.92
733.01	3360.72
733.19	3303.37
733.37	3575.75
733.56	3192.78
733.74	3129.30
733.92	3745.73
734.10	3315.66
734.28	3385.29
734.46	3024.85
734.64	3286.99
734.82	3344.33
735.00	3233.74
735.18	3180.50
735.36	3493.83
735.54	3413.96
735.73	3145.68
735.91	3401.68
736.09	3751.88
736.27	3405.77
736.45	3217.36
736.63	2926.55
736.81	3254.22
736.99	3651.53
737.17	3463.12
737.35	3106.77
737.53	3508.17
737.71	3418.06
737.89	3354.57
738.07	3151.82
738.25	3295.18
738.43	3192.78
738.61	3229.65
738.80	2994.13
738.98	3231.69
739.16	3317.71
739.34	3196.88
739.52	3547.08
739.70	3418.06
739.88	3624.90
740.06	3293.13
740.24	2971.60
740.42	3692.49
740.60	2985.94
740.78	3180.50
740.96	3012.56
741.14	3370.96
741.32	3473.36
741.50	3041.23
741.68	3409.87
741.86	3741.64
742.04	3196.88
742.22	3084.24
742.40	3143.63
742.58	3641.29
742.76	3246.03
742.94	3448.78
743.12	3020.75
743.30	3465.16
743.48	3620.81
743.66	3157.97
743.84	3180.50
744.02	3356.62
744.20	3432.40
744.38	3143.63
744.56	3221.45
744.74	3792.84
744.92	3612.62
745.10	3381.20
745.28	3176.40
745.46	3755.97
745.64	3352.52
745.82	3190.74
746.00	3106.77
746.18	3504.07
746.36	3266.51
746.54	3319.76
746.72	3213.26
746.90	3252.17
747.08	3704.78
747.26	3192.78
747.44	3270.61
747.62	3590.09
747.80	3598.28
747.98	3248.08
748.15	3248.08
748.33	3749.83
748.51	3459.02
748.69	3323.85
748.87	3141.58
749.05	3422.16
749.23	3301.33
749.41	3108.82
749.59	3207.12
749.77	3663.82
749.95	3387.34
750.13	3071.95
750.31	3325.90
750.49	3479.50
750.67	3602.38
750.85	3428.30
751.03	3184.59
751.20	3936.20
751.38	3409.87
751.56	3319.76
751.74	3229.65
751.92	3403.72
752.10	3082.19
752.28	3344.33
752.46	3217.36
752.64	3420.11
752.82	3401.68
753.00	3258.32
753.18	3127.25
753.35	3397.58
753.53	3327.95
753.71	3135.44
753.89	3268.56
754.07	3473.36
754.25	3700.68
754.43	3350.48
754.61	3162.06
754.79	3504.07
754.97	3323.85
755.14	3387.34
755.32	3147.73
755.50	3422.16
755.68	3483.59
755.86	3086.29
756.04	3246.03
756.22	3090.38
756.40	3604.42
756.57	3389.39
756.75	3237.84
756.93	3770.31
757.11	3536.84
757.29	3045.33
757.47	3100.62
757.65	3221.45
757.82	2967.51
758.00	3065.81
758.18	3168.21
758.36	3233.74
758.54	3770.31
758.72	2987.99
758.90	3352.52
759.07	3416.01
759.25	3223.50
759.43	3192.78
759.61	3018.71
759.79	4603.83
759.97	3629.00
760.15	3215.31
760.32	3266.51
760.50	3522.51
760.68	3792.84
760.86	3082.19
761.04	3401.68
761.22	3600.33
761.39	3387.34
761.57	3377.10
761.75	3172.30
761.93	3516.36
762.11	3420.11
762.28	3352.52
762.46	3131.34
762.64	3665.86
762.82	3114.96
763.00	3198.93
763.18	3420.11
763.35	3211.22
763.53	3573.71
763.71	3299.28
763.89	3110.86
764.07	3602.38
764.24	3385.29
764.42	3266.51
764.60	3223.50
764.78	3573.71
764.96	3565.51
765.13	3463.12
765.31	3090.38
765.49	3579.85
765.67	3239.89
765.84	3176.40
766.02	3149.78
766.20	3059.67
766.38	3475.40
766.56	3299.28
766.73	3278.80
766.91	3348.43
767.09	3522.51
767.27	3223.50
767.44	3121.10
767.62	3563.47
767.80	3473.36
767.98	3096.53
768.15	3213.26
768.33	3588.04
768.51	3614.66
768.69	3356.62
768.87	3114.96
769.04	3416.01
769.22	3999.68
769.40	3354.57
769.58	3291.09
769.75	3579.85
769.93	3708.87
770.11	3147.73
770.28	3076.05
770.46	3620.81
770.64	3512.27
770.82	3194.83
770.99	3147.73
771.17	3649.48
771.35	3248.08
771.53	3237.84
771.70	3133.39
771.88	3626.95
772.06	3356.62
772.23	3162.06
772.41	3246.03
772.59	3391.44
772.77	3278.80
772.94	3276.75
773.12	3278.80
773.30	3254.22
773.47	3491.79
773.65	3086.29
773.83	3375.05
774.01	3379.15
774.18	3037.14
774.36	3188.69
774.54	3080.14
774.71	3542.99
774.89	3151.82
775.07	3080.14
775.24	3270.61
775.42	3309.52
775.60	3893.19
775.78	3074.00
775.95	3074.00
776.13	3106.77
776.31	3092.43
776.48	3348.43
776.66	3323.85
776.84	3385.29
777.01	3313.61
777.19	3057.62
777.37	3125.20
777.54	3588.04
777.72	3973.06
777.90	3293.13
778.07	3143.63
778.25	4171.71
778.43	3704.78
778.60	3219.41
778.78	3297.23
778.96	3741.64
779.13	3164.11
779.31	3233.74
779.49	3239.89
779.66	3467.21
779.84	3438.54
780.01	3131.34
780.19	3106.77
780.37	3823.56
780.54	3483.59
780.72	3065.81
780.90	3233.74
781.07	3344.33
781.25	3274.70
781.43	3368.91
781.60	3205.07
781.78	3665.86
781.95	3499.98
782.13	3149.78
782.31	3209.17
782.48	3065.81
782.66	3381.20
782.83	3413.96
783.01	3366.86
783.19	3604.42
783.36	3368.91
783.54	3139.54
783.72	3278.80
783.89	3258.32
784.07	3499.98
784.24	3454.92
784.42	3352.52
784.60	3450.83
784.77	3463.12
784.95	2918.36
785.12	3141.58
785.30	3420.11
785.47	3207.12
785.65	3092.43
785.83	3182.54
786.00	3325.90
786.18	3467.21
786.35	3094.48
786.53	3141.58
786.71	3635.14
786.88	3549.13
787.06	3229.65
787.23	3278.80
787.41	3153.87
787.58	3383.24
787.76	3100.62
787.94	3246.03
788.11	3479.50
788.29	3100.62
788.46	3188.69
788.64	3026.90
788.81	3282.89
788.99	3221.45
789.16	3160.02
789.34	3258.32
789.52	3409.87
789.69	3297.23
789.87	2967.51
790.04	3190.74
790.22	3516.36
790.39	3854.28
790.57	3119.06
790.74	3174.35
790.92	3641.29
791.09	3119.06
791.27	3278.80
791.44	3284.94
791.62	3346.38
791.79	3577.80
791.97	3252.17
792.15	3528.65
792.32	3688.39
792.50	3565.51
792.67	3319.76
792.85	3440.59
793.02	3428.30
793.20	3360.72
793.37	3076.05
793.55	3121.10
793.72	3149.78
793.90	3598.28
794.07	3157.97
794.25	3117.01
794.42	3479.50
794.60	3434.44
794.77	3219.41
794.95	3276.75
795.12	3532.75
795.30	3487.69
795.47	2994.13
795.65	3526.60
795.82	3491.79
796.00	3252.17
796.17	3266.51
796.34	3028.95
796.52	3536.84
796.69	3635.14
796.87	3229.65
797.04	3375.05
797.22	3622.86
797.39	3456.97
797.57	3360.72
797.74	3282.89
797.92	3495.88
798.09	3354.57
798.27	3526.60
798.44	3215.31
798.62	3286.99
798.79	3499.98
798.96	3330.00
799.14	3184.59
799.31	3966.92
799.49	3352.52
799.66	3221.45
799.84	3239.89
800.01	3145.68
800.19	3477.45
800.36	2998.23
800.53	3278.80
800.71	3520.46
800.88	3712.97
801.06	3205.07
801.23	3172.30
801.41	3317.71
801.58	3313.61
801.75	3164.11
801.93	3221.45
802.10	3657.67
802.28	3385.29
802.45	3203.02
802.63	3248.08
802.80	3696.58
802.97	3330.00
803.15	3178.45
803.32	3067.86
803.50	3266.51
803.67	3274.70
803.84	3127.25
804.02	3280.85
804.19	3401.68
804.37	3000.27
804.54	3041.23
804.71	3153.87
804.89	3436.49
805.06	3286.99
805.24	3078.10
805.41	3039.19
805.58	3284.94
805.76	3917.76
805.93	3190.74
806.10	3237.84
806.28	3512.27
806.45	3518.41
806.63	3321.81
806.80	3278.80
806.97	3530.70
807.15	3459.02
807.32	3319.76
807.49	3137.49
807.67	3274.70
807.84	3493.83
808.01	2985.94
808.19	3436.49
808.36	3864.52
808.54	3373.00
808.71	3166.16
808.88	3135.44
809.06	3647.43
809.23	3764.17
809.40	3235.79
809.58	3121.10
809.75	3428.30
809.92	3108.82
810.10	3473.36
810.27	3227.60
810.44	3643.34
810.62	3545.03
810.79	3168.21
810.96	3207.12
811.14	3303.37
811.31	3557.32
811.48	3411.92
811.66	3307.47
811.83	3631.05
812.00	3567.56
812.18	3282.89
812.35	3549.13
812.52	3348.43
812.69	3321.81
812.87	3172.30
813.04	3117.01
813.21	3426.25
813.39	3311.57
813.56	3078.10
813.73	3487.69
813.91	3053.52
814.08	3428.30
814.25	3194.83
814.42	3074.00
814.60	3360.72
814.77	3485.64
814.94	3135.44
815.12	3280.85
815.29	3774.41
815.46	3264.46
815.63	3256.27
815.81	3155.92
815.98	3350.48
816.15	3450.83
816.33	3248.08
816.50	3153.87
816.67	3354.57
816.84	3409.87
817.02	3137.49
817.19	3211.22
817.36	3485.64
817.53	3575.75
817.71	3112.91
817.88	3227.60
818.05	3395.53
818.22	3323.85
818.40	3350.48
818.57	3207.12
818.74	3481.55
818.91	3403.72
819.09	3250.13
819.26	3336.14
819.43	3317.71
819.60	3327.95
819.78	3336.14
819.95	3272.65
820.12	3248.08
820.29	3758.02
820.47	3569.61
820.64	3106.77
820.81	3170.26
820.98	3192.78
821.15	3209.17
821.33	3344.33
821.50	3069.91
821.67	3518.41
821.84	3207.12
822.02	3188.69
822.19	3688.39
822.36	3321.81
822.53	3112.91
822.70	3098.58
822.88	3450.83
823.05	3745.73
823.22	3254.22
823.39	3145.68
823.56	3461.07
823.74	3784.65
823.91	2994.13
824.08	3157.97
824.25	3155.92
824.42	3780.55
824.60	3092.43
824.77	3241.93
824.94	3459.02
825.11	3506.12
825.28	3135.44
825.45	3319.76
825.63	3495.88
825.80	3225.55
825.97	3256.27
826.14	3160.02
826.31	3172.30
826.48	3553.23
826.66	3125.20
826.83	3057.62
827.00	3397.58
827.17	3254.22
827.34	3219.41
827.51	3084.24
827.69	3467.21
827.86	3059.67
828.03	3217.36
828.20	3217.36
828.37	3303.37
828.54	3530.70
828.71	3123.15
828.89	3254.22
829.06	3491.79
829.23	3700.68
829.40	3155.92
829.57	3160.02
829.74	3680.20
829.91	3352.52
830.09	3090.38
830.26	3362.76
830.43	3762.12
830.60	3356.62
830.77	3295.18
830.94	3401.68
831.11	3633.10
831.28	3254.22
831.46	3248.08
831.63	3186.64
831.80	3729.35
831.97	3205.07
832.14	3215.31
832.31	3174.35
832.48	3420.11
832.65	3653.58
832.82	3307.47
832.99	3205.07
833.17	3235.79
833.34	3755.97
833.51	3143.63
833.68	3080.14
833.85	3665.86
834.02	3252.17
834.19	3041.23
834.36	3198.93
834.53	3473.36
834.70	3706.82
834.87	3250.13
835.04	2947.03
835.22	3266.51
835.39	3323.85
835.56	2947.03
835.73	2990.03
835.90	3663.82
836.07	3196.88
836.24	3239.89
836.41	2979.79
836.58	3217.36
836.75	3633.10
836.92	2965.46
837.09	2940.88
837.26	3651.53
837.43	3577.80
837.60	3084.24
837.77	3045.33
837.94	3561.42
838.12	3708.87
838.29	2922.45
838.46	2928.60
838.63	3160.02
838.80	3753.93
838.97	3067.86
839.14	2996.18
839.31	3520.46
839.48	3557.32
839.65	3055.57
839.82	3059.67
839.99	3444.68
840.16	3434.44
840.33	2973.65
840.50	3123.15
840.67	3229.65
840.84	2975.70
841.01	2961.36
841.18	2910.16
841.35	3327.95
841.52	3528.65
841.69	3305.42
841.86	3069.91
842.03	3450.83
842.20	3616.71
842.37	2969.55
842.54	3037.14
842.71	3442.64
842.88	3090.38
843.05	3000.27
843.22	2955.22
843.39	3665.86
843.56	3280.85
843.73	3028.95
843.90	3145.68
844.07	3461.07
844.24	3579.85
844.41	3139.54
844.58	2998.23
844.75	3504.07
844.92	3590.09
845.09	3098.58
845.26	3076.05
845.43	3520.46
845.60	3338.19
845.77	3074.00
845.94	3151.82
846.10	3594.19
846.27	3190.74
846.44	2852.82
846.61	2793.43
846.78	3542.99
846.95	3655.62
847.12	2998.23
847.29	3082.19
847.46	3274.70
847.63	3581.90
847.80	2987.99
847.97	3106.77
848.14	3925.96
848.31	3348.43
848.48	2885.59
848.65	3024.85
848.82	3254.22
848.98	3999.68
849.15	3256.27
849.32	3114.96
849.49	3672.01
849.66	3338.19
849.83	2963.41
850.00	2959.31
850.17	3557.32
850.34	3303.37
850.51	3000.27
850.68	2967.51
850.85	3901.38
851.01	3475.40
851.18	3053.52
851.35	3123.15
851.52	3559.37
851.69	3678.15
851.86	2983.89
852.03	2963.41
852.20	3626.95
852.37	3418.06
852.53	2846.68
852.70	2967.51
852.87	3520.46
853.04	3559.37
853.21	3008.47
853.38	3362.76
853.55	3712.97
853.72	3581.90
853.89	2957.27
854.05	2951.12
854.22	3454.92
854.39	3237.84
854.56	2998.23
854.73	3151.82
854.90	3203.02
855.07	3375.05
855.23	2963.41
855.40	2930.64
855.57	3368.91
855.74	2971.60
855.91	3147.73
856.08	2844.63
856.25	3198.93
856.41	3274.70
856.58	3010.51
856.75	3094.48
856.92	3307.47
857.09	3647.43
857.26	2861.01
857.42	3008.47
857.59	3522.51
857.76	3356.62
857.93	3002.32
858.10	3082.19
858.27	3147.73
858.43	3413.96
858.60	3065.81
858.77	2836.44
858.94	3241.93
859.11	3598.28
859.27	3114.96
859.44	2977.75
859.61	3919.81
859.78	3536.84
859.95	2987.99
860.12	2959.31
860.28	3954.63
860.45	3813.32
860.62	2953.17
860.79	3141.58
860.95	3336.14
861.12	3342.28
861.29	2895.83
861.46	2996.18
861.63	3389.39
861.79	3475.40
861.96	2955.22
862.13	3033.04
862.30	3688.39
862.47	3274.70
862.63	2770.90
862.80	3155.92
862.97	3667.91
863.14	3481.55
863.30	3026.90
863.47	2916.31
863.64	3743.69
863.81	3405.77
863.97	2885.59
864.14	3129.30
864.31	3356.62
864.48	3493.83
864.65	3024.85
864.81	3119.06
864.98	3522.51
865.15	3594.19
865.32	3094.48
865.48	3147.73
865.65	3768.26
865.82	3350.48
865.98	3147.73
866.15	3131.34
866.32	3348.43
866.49	3368.91
866.65	3203.02
866.82	3026.90
866.99	3387.34
867.16	3377.10
867.32	2994.13
867.49	2908.12
867.66	3397.58
867.83	3291.09
867.99	3004.37
868.16	3123.15
868.33	3164.11
868.49	3428.30
868.66	3041.23
868.83	3147.73
868.99	3428.30
869.16	3481.55
869.33	3235.79
869.50	3102.67
869.66	3438.54
869.83	3375.05
870.00	2975.70
870.16	3131.34
870.33	3450.83
870.50	3614.66
870.66	3155.92
870.83	2975.70
871.00	3434.44
871.17	3520.46
871.33	3030.99
871.50	2994.13
871.67	3430.35
871.83	3327.95
872.00	3053.52
872.17	3057.62
872.33	3928.00
872.50	3626.95
872.67	3022.80
872.83	3041.23
873.00	3532.75
873.17	3450.83
873.33	3074.00
873.50	3076.05
873.67	3246.03
873.83	3237.84
874.00	2990.03
874.16	3213.26
874.33	3364.81
874.50	3200.98
874.66	3002.32
874.83	3180.50
875.00	3549.13
875.16	3600.33
875.33	3153.87
875.50	2758.61
875.66	3338.19
875.83	3454.92
875.99	3114.96
876.16	3139.54
876.33	3182.54
876.49	3354.57
876.66	3114.96
876.83	3074.00
876.99	3162.06
877.16	3452.88
877.32	2963.41
877.49	3110.86
877.66	3524.55
877.82	3708.87
877.99	3166.16
878.15	3327.95
878.32	3479.50
878.49	3467.21
878.65	3139.54
878.82	3270.61
878.98	3321.81
879.15	3575.75
879.32	3276.75
879.48	3246.03
879.65	3387.34
879.81	3375.05
879.98	3094.48
880.15	3131.34
880.31	3669.96
880.48	3289.04
880.64	3129.30
880.81	3172.30
880.97	3786.69
881.14	3663.82
881.31	2969.55
881.47	3209.17
881.64	3446.73
881.80	3100.62
881.97	3289.04
882.13	2994.13
882.30	3178.45
882.47	3280.85
882.63	3067.86
882.80	3098.58
882.96	3311.57
883.13	3631.05
883.29	3035.09
883.46	2938.84
883.62	3911.62
883.79	3420.11
883.95	3239.89
884.12	2969.55
884.29	3672.01
884.45	3436.49
884.62	3004.37
884.78	3074.00
884.95	3778.50
885.11	3256.27
885.28	3102.67
885.44	3065.81
885.61	3510.22
885.77	3655.62
885.94	3143.63
886.10	3084.24
886.27	3426.25
886.43	3829.70
886.60	3213.26
886.76	3033.04
886.93	3151.82
887.09	3502.03
887.26	2844.63
887.42	3106.77
887.59	3600.33
887.75	4020.16
887.92	3274.70
888.08	3108.82
888.25	3829.70
888.41	3571.66
888.58	3209.17
888.74	2953.17
888.91	3409.87
>>>>>End Processed Spectral Data<<<<<
