SpectraSuite Data File
++++++++++++++++++++++++++++++++++++
Date: Fri May 06 09:28:29 CEST 2016
User: root
Dark Spectrum Present: No
Reference Spectrum Present: No
Number of Sampled Component Spectra: 1
Spectrometers: USB4C02835
Integration Time (usec): 100000 (USB4C02835)
Spectra Averaged: 1 (USB4C02835)
Boxcar Smoothing: 0 (USB4C02835)
Correct for Electrical Dark: No (USB4C02835)
Strobe/Lamp Enabled: No (USB4C02835)
Correct for Detector Non-linearity: No (USB4C02835)
Correct for Stray Light: No (USB4C02835)
Number of Pixels in Processed Spectrum: 3648
>>>>>Begin Processed Spectral Data<<<<<
177.47	2330.59
177.69	2330.59
177.91	2330.59
178.13	2400.22
178.36	2344.92
178.58	3123.15
178.80	3229.65
179.02	3117.01
179.24	3239.89
179.46	2928.60
179.68	2944.98
179.90	3420.11
180.13	3440.59
180.35	2748.37
180.57	2881.49
180.79	3641.29
181.01	3467.21
181.23	2934.74
181.45	3143.63
181.67	3581.90
181.90	3631.05
182.12	3033.04
182.34	2760.66
182.56	3639.24
182.78	3602.38
183.00	2920.40
183.22	2940.88
183.44	3090.38
183.66	4052.93
183.89	3094.48
184.11	2959.31
184.33	3565.51
184.55	3733.45
184.77	2951.12
184.99	3010.51
185.21	3375.05
185.43	4136.90
185.65	2877.40
185.87	2914.26
186.10	4005.83
186.32	4020.16
186.54	3135.44
186.76	3074.00
186.98	3678.15
187.20	3420.11
187.42	2996.18
187.64	2918.36
187.86	3598.28
188.08	3688.39
188.30	2901.97
188.52	3006.42
188.75	3753.93
188.97	3708.87
189.19	2969.55
189.41	2967.51
189.63	3559.37
189.85	3393.48
190.07	2830.29
190.29	2824.15
190.51	3483.59
190.73	3143.63
190.95	3192.78
191.17	3035.09
191.39	3153.87
191.61	3440.59
191.84	2947.03
192.06	3180.50
192.28	3162.06
192.50	4089.79
192.72	3096.53
192.94	3008.47
193.16	3798.98
193.38	3545.03
193.60	2947.03
193.82	3143.63
194.04	3637.19
194.26	3573.71
194.48	3016.66
194.70	2955.22
194.92	3467.21
195.14	3696.58
195.36	2951.12
195.58	3041.23
195.80	3446.73
196.02	3325.90
196.24	2881.49
196.46	3028.95
196.69	3362.76
196.91	3987.40
197.13	3037.14
197.35	3033.04
197.57	3803.08
197.79	3602.38
198.01	3004.37
198.23	3002.32
198.45	3575.75
198.67	3162.06
198.89	2840.53
199.11	3147.73
199.33	3307.47
199.55	2944.98
199.77	2910.16
199.99	3180.50
200.21	3469.26
200.43	3565.51
200.65	2873.30
200.87	2811.86
201.09	3481.55
201.31	3368.91
201.53	3049.43
201.75	2977.75
201.97	3518.41
202.19	3430.35
202.41	3030.99
202.63	3166.16
202.85	3645.38
203.07	3514.31
203.29	3065.81
203.51	2906.07
203.73	3286.99
203.95	4040.64
204.17	2953.17
204.39	3117.01
204.61	3418.06
204.83	3295.18
205.05	3067.86
205.27	2955.22
205.49	3928.00
205.71	3442.64
205.93	2818.00
206.15	2861.01
206.37	3506.12
206.59	3504.07
206.81	2803.67
207.03	2861.01
207.25	3225.55
207.47	3581.90
207.69	3014.61
207.91	3188.69
208.13	3809.22
208.34	3420.11
208.56	2856.92
208.78	2936.79
209.00	3448.78
209.22	3330.00
209.44	2949.08
209.66	2914.26
209.88	3508.17
210.10	3477.45
210.32	2936.79
210.54	3098.58
210.76	3377.10
210.98	3739.59
211.20	2807.77
211.42	3137.49
211.64	3747.78
211.86	3573.71
212.08	3049.43
212.30	2992.08
212.52	3416.01
212.74	3563.47
212.96	3196.88
213.17	3016.66
213.39	3672.01
213.61	3897.28
213.83	2914.26
214.05	2844.63
214.27	3694.54
214.49	3299.28
214.71	2901.97
214.93	3065.81
215.15	3583.95
215.37	3590.09
215.59	2795.48
215.81	3030.99
216.03	3721.16
216.24	3483.59
216.46	3008.47
216.68	2992.08
216.90	3592.14
217.12	3684.30
217.34	2932.69
217.56	3160.02
217.78	3698.63
218.00	3575.75
218.22	3125.20
218.44	3143.63
218.66	3516.36
218.87	3923.91
219.09	2983.89
219.31	2967.51
219.53	3555.27
219.75	3409.87
219.97	3012.56
220.19	3000.27
220.41	3508.17
220.63	3846.09
220.85	3049.43
221.06	2981.84
221.28	3678.15
221.50	3622.86
221.72	2854.87
221.94	2799.57
222.16	3526.60
222.38	3688.39
222.60	2959.31
222.82	3035.09
223.03	3590.09
223.25	3246.03
223.47	2924.50
223.69	3131.34
223.91	3620.81
224.13	3485.64
224.35	2873.30
224.57	3160.02
224.78	3622.86
225.00	3311.57
225.22	3016.66
225.44	2901.97
225.66	3712.97
225.88	3364.81
226.10	3108.82
226.32	2889.68
226.53	3860.42
226.75	3360.72
226.97	3026.90
227.19	3010.51
227.41	3268.56
227.63	3440.59
227.85	2795.48
228.06	3028.95
228.28	3428.30
228.50	3706.82
228.72	2779.09
228.94	2850.77
229.16	3123.15
229.37	3209.17
229.59	2914.26
229.81	3229.65
230.03	3383.24
230.25	3194.83
230.47	2811.86
230.69	2985.94
230.90	3657.67
231.12	3289.04
231.34	3123.15
231.56	3016.66
231.78	3213.26
232.00	3526.60
232.21	3098.58
232.43	3039.19
232.65	3024.85
232.87	3495.88
233.09	2803.67
233.30	2881.49
233.52	3676.10
233.74	3442.64
233.96	2922.45
234.18	3172.30
234.40	3393.48
234.61	3944.39
234.83	2885.59
235.05	3026.90
235.27	4052.93
235.49	3637.19
235.70	2863.06
235.92	3026.90
236.14	3547.08
236.36	4034.50
236.58	2873.30
236.79	3098.58
237.01	3463.12
237.23	3444.68
237.45	3196.88
237.67	3022.80
237.88	3536.84
238.10	3798.98
238.32	2934.74
238.54	2944.98
238.76	3370.96
238.97	3295.18
239.19	2873.30
239.41	3139.54
239.63	3674.06
239.85	3420.11
240.06	3024.85
240.28	2967.51
240.50	3567.56
240.72	3399.63
240.93	2875.35
241.15	3069.91
241.37	3463.12
241.59	3827.65
241.81	3012.56
242.02	3024.85
242.24	3516.36
242.46	3622.86
242.68	2770.90
242.89	2908.12
243.11	3622.86
243.33	3430.35
243.55	2918.36
243.76	2885.59
243.98	3297.23
244.20	3418.06
244.42	3000.27
244.64	2910.16
244.85	3172.30
245.07	3168.21
245.29	2918.36
245.51	2975.70
245.72	3557.32
245.94	3727.30
246.16	2918.36
246.38	2920.40
246.59	3280.85
246.81	3325.90
247.03	2883.54
247.24	2867.16
247.46	3334.09
247.68	3536.84
247.90	2959.31
248.11	2961.36
248.33	3645.38
248.55	3395.53
248.77	3037.14
248.98	3084.24
249.20	3868.61
249.42	3481.55
249.64	2934.74
249.85	2938.84
250.07	3354.57
250.29	3647.43
250.50	3069.91
250.72	2936.79
250.94	3522.51
251.16	3921.86
251.37	2879.44
251.59	3008.47
251.81	3651.53
252.02	3786.69
252.24	2822.10
252.46	3184.59
252.68	3311.57
252.89	3303.37
253.11	2762.71
253.33	3145.68
253.54	3766.21
253.76	3270.61
253.98	2920.40
254.20	2938.84
254.41	3119.06
254.63	3393.48
254.85	2877.40
255.06	3096.53
255.28	3590.09
255.50	3342.28
255.71	2904.02
255.93	2881.49
256.15	3426.25
256.36	3526.60
256.58	2842.58
256.80	2883.54
257.02	3452.88
257.23	3340.24
257.45	2983.89
257.67	3078.10
257.88	3246.03
258.10	3604.42
258.32	2951.12
258.53	3082.19
258.75	3860.42
258.97	3356.62
259.18	2783.19
259.40	2967.51
259.62	3880.90
259.83	3753.93
260.05	2955.22
260.27	3928.00
260.48	3682.25
260.70	3301.33
260.92	2787.29
261.13	2998.23
261.35	3545.03
261.57	3590.09
261.78	2863.06
262.00	2942.93
262.22	3610.57
262.43	3246.03
262.65	2985.94
262.86	3008.47
263.08	3991.49
263.30	3461.07
263.51	2777.05
263.73	2861.01
263.95	3917.76
264.16	3274.70
264.38	2824.15
264.60	2895.83
264.81	3444.68
265.03	3762.12
265.25	3497.93
265.46	2885.59
265.68	3710.92
265.89	3590.09
266.11	2820.05
266.33	2944.98
266.54	3768.26
266.76	3481.55
266.98	3102.67
267.19	3176.40
267.41	3712.97
267.62	3405.77
267.84	2764.76
268.06	3035.09
268.27	3463.12
268.49	3676.10
268.70	2942.93
268.92	2947.03
269.14	3235.79
269.35	3117.01
269.57	3153.87
269.79	3022.80
270.00	3311.57
270.22	3870.66
270.43	2920.40
270.65	2840.53
270.87	3477.45
271.08	3540.94
271.30	3104.72
271.51	2987.99
271.73	3624.90
271.95	3747.78
272.16	2899.92
272.38	3071.95
272.59	3282.89
272.81	3575.75
273.02	2820.05
273.24	3051.47
273.46	3737.54
273.67	3268.56
273.89	2858.96
274.10	2955.22
274.32	3788.74
274.54	3467.21
274.75	3033.04
274.97	3117.01
275.18	3571.66
275.40	3524.55
275.61	2973.65
275.83	3139.54
276.05	3229.65
276.26	3456.97
276.48	3086.29
276.69	3129.30
276.91	3381.20
277.12	3745.73
277.34	3180.50
277.55	3239.89
277.77	3442.64
277.99	3422.16
278.20	3110.86
278.42	2969.55
278.63	3256.27
278.85	3278.80
279.06	3112.91
279.28	3264.46
279.49	3717.06
279.71	3518.41
279.93	3182.54
280.14	3102.67
280.36	3346.38
280.57	3690.44
280.79	3149.78
281.00	3000.27
281.22	3362.76
281.43	3686.34
281.65	2881.49
281.86	2963.41
282.08	3502.03
282.29	3854.28
282.51	2959.31
282.73	2922.45
282.94	3098.58
283.16	3749.83
283.37	3164.11
283.59	3106.77
283.80	3526.60
284.02	3489.74
284.23	3106.77
284.45	3139.54
284.66	3278.80
284.88	3295.18
285.09	2977.75
285.31	3237.84
285.52	3491.79
285.74	3170.26
285.95	3243.98
286.17	3143.63
286.38	3655.62
286.60	3385.29
286.81	3043.28
287.03	3051.47
287.24	3444.68
287.46	3596.23
287.67	3225.55
287.89	3299.28
288.10	3420.11
288.32	3444.68
288.53	3250.13
288.75	3160.02
288.96	3676.10
289.18	3280.85
289.39	3078.10
289.61	3078.10
289.82	3962.82
290.04	3907.52
290.25	3000.27
290.47	3198.93
290.68	3356.62
290.90	3678.15
291.11	2830.29
291.33	3309.52
291.54	3286.99
291.76	3311.57
291.97	3264.46
292.18	3239.89
292.40	3405.77
292.61	3266.51
292.83	3401.68
293.04	3157.97
293.26	3508.17
293.47	3395.53
293.69	3110.86
293.90	2953.17
294.12	3661.77
294.33	3436.49
294.55	3114.96
294.76	3311.57
294.97	3755.97
295.19	3909.57
295.40	3080.14
295.62	3229.65
295.83	3598.28
296.05	3276.75
296.26	3352.52
296.48	3086.29
296.69	3442.64
296.90	3469.26
297.12	3221.45
297.33	3274.70
297.55	3502.03
297.76	3594.19
297.98	3190.74
298.19	3303.37
298.41	3469.26
298.62	3250.13
298.83	3278.80
299.05	3225.55
299.26	3411.92
299.48	3229.65
299.69	3291.09
299.90	3018.71
300.12	3250.13
300.33	3512.27
300.55	3176.40
300.76	3172.30
300.98	3213.26
301.19	3612.62
301.40	3141.58
301.62	3096.53
301.83	3614.66
302.05	3436.49
302.26	3018.71
302.47	3205.07
302.69	3166.16
302.90	3393.48
303.12	2936.79
303.33	3205.07
303.54	3876.80
303.76	3368.91
303.97	3049.43
304.19	3262.41
304.40	3196.88
304.61	3598.28
304.83	3176.40
305.04	3127.25
305.26	3563.47
305.47	3336.14
305.68	3102.67
305.90	2961.36
306.11	3669.96
306.33	3362.76
306.54	2967.51
306.75	3028.95
306.97	3207.12
307.18	3215.31
307.39	3028.95
307.61	3194.83
307.82	3370.96
308.04	3579.85
308.25	2977.75
308.46	3168.21
308.68	3467.21
308.89	3473.36
309.10	3194.83
309.32	3157.97
309.53	3459.02
309.74	3669.96
309.96	2936.79
310.17	3190.74
310.39	3323.85
310.60	3618.76
310.81	3145.68
311.03	3004.37
311.24	3688.39
311.45	3463.12
311.67	3344.33
311.88	3243.98
312.09	3340.24
312.31	3237.84
312.52	3004.37
312.73	3063.76
312.95	3160.02
313.16	3237.84
313.37	3323.85
313.59	3299.28
313.80	3592.14
314.01	3715.02
314.23	3117.01
314.44	3033.04
314.65	3119.06
314.87	3196.88
315.08	3045.33
315.29	3200.98
315.51	3221.45
315.72	3119.06
315.93	3133.39
316.15	3168.21
316.36	3299.28
316.57	3461.07
316.79	3043.28
317.00	3016.66
317.21	3518.41
317.43	3217.36
317.64	3135.44
317.85	3028.95
318.07	3315.66
318.28	3391.44
318.49	3092.43
318.70	3323.85
318.92	3413.96
319.13	3518.41
319.34	3385.29
319.56	3076.05
319.77	3518.41
319.98	3610.57
320.20	3370.96
320.41	3233.74
320.62	3559.37
320.83	3129.30
321.05	3360.72
321.26	3135.44
321.47	3360.72
321.69	3635.14
321.90	3074.00
322.11	3069.91
322.32	3542.99
322.54	3747.78
322.75	3143.63
322.96	4214.72
323.18	3127.25
323.39	3108.82
323.60	2996.18
323.81	3186.64
324.03	3282.89
324.24	3403.72
324.45	3190.74
324.66	3061.71
324.88	3690.44
325.09	3837.89
325.30	3088.34
325.52	2951.12
325.73	3542.99
325.94	3284.94
326.15	3071.95
326.37	2961.36
326.58	3641.29
326.79	3854.28
327.00	2985.94
327.22	3026.90
327.43	3413.96
327.64	3188.69
327.85	3221.45
328.07	3221.45
328.28	3917.76
328.49	3323.85
328.70	3094.48
328.92	3133.39
329.13	3438.54
329.34	3594.19
329.55	3338.19
329.76	3286.99
329.98	3387.34
330.19	3694.54
330.40	3217.36
330.61	3280.85
330.83	3665.86
331.04	3207.12
331.25	3104.72
331.46	3082.19
331.68	3237.84
331.89	3633.10
332.10	3110.86
332.31	2904.02
332.52	3438.54
332.74	3663.82
332.95	2959.31
333.16	3225.55
333.37	3708.87
333.58	3286.99
333.80	3196.88
334.01	2832.34
334.22	3368.91
334.43	3315.66
334.64	3004.37
334.86	3086.29
335.07	3270.61
335.28	3844.04
335.49	3096.53
335.70	3137.49
335.92	3766.21
336.13	3940.29
336.34	3147.73
336.55	3065.81
336.76	3487.69
336.98	3026.90
337.19	3129.30
337.40	3149.78
337.61	3964.87
337.82	3360.72
338.04	3172.30
338.25	2973.65
338.46	3393.48
338.67	3409.87
338.88	3022.80
339.09	3033.04
339.31	3350.48
339.52	3119.06
339.73	3026.90
339.94	3110.86
340.15	3592.14
340.36	3327.95
340.58	3129.30
340.79	3053.52
341.00	3590.09
341.21	3108.82
341.42	3385.29
341.63	3123.15
341.85	3620.81
342.06	3487.69
342.27	3057.62
342.48	3254.22
342.69	3209.17
342.90	3508.17
343.12	3514.31
343.33	3049.43
343.54	3698.63
343.75	3778.50
343.96	3270.61
344.17	2981.84
344.38	3444.68
344.60	3239.89
344.81	3020.75
345.02	3174.35
345.23	3667.91
345.44	3975.11
345.65	3215.31
345.86	3155.92
346.07	3426.25
346.29	3293.13
346.50	3235.79
346.71	3139.54
346.92	3710.92
347.13	3911.62
347.34	3217.36
347.55	2983.89
347.76	3540.94
347.98	3133.39
348.19	3151.82
348.40	3233.74
348.61	3258.32
348.82	3790.79
349.03	3117.01
349.24	2990.03
349.45	3911.62
349.66	2938.84
349.88	3018.71
350.09	2977.75
350.30	3741.64
350.51	3708.87
350.72	3282.89
350.93	3057.62
351.14	3295.18
351.35	3585.99
351.56	3164.11
351.77	3198.93
351.99	3575.75
352.20	3782.60
352.41	3270.61
352.62	2971.60
352.83	3456.97
353.04	3395.53
353.25	3196.88
353.46	3086.29
353.67	3659.72
353.88	3012.56
354.09	2977.75
354.30	3194.83
354.52	3561.42
354.73	3319.76
354.94	3000.27
355.15	3172.30
355.36	3960.77
355.57	3270.61
355.78	3008.47
355.99	3131.34
356.20	3321.81
356.41	3774.41
356.62	3129.30
356.83	3121.10
357.04	3727.30
357.25	3088.34
357.46	3102.67
357.68	2977.75
357.89	3213.26
358.10	3508.17
358.31	2977.75
358.52	3145.68
358.73	3157.97
358.94	3213.26
359.15	3143.63
359.36	3078.10
359.57	3434.44
359.78	3366.86
359.99	3274.70
360.20	2977.75
360.41	3413.96
360.62	3669.96
360.83	3166.16
361.04	3237.84
361.25	3516.36
361.46	3839.94
361.67	3213.26
361.88	3168.21
362.09	3565.51
362.30	3547.08
362.51	3067.86
362.72	3143.63
362.93	3614.66
363.14	3549.13
363.35	3172.30
363.56	3039.19
363.78	3674.06
363.99	3715.02
364.20	3117.01
364.41	3141.58
364.62	3839.94
364.83	3481.55
365.04	3174.35
365.25	3172.30
365.46	4036.55
365.67	3278.80
365.88	3330.00
366.09	3041.23
366.30	3356.62
366.51	3438.54
366.72	3016.66
366.93	3114.96
367.14	3463.12
367.35	3758.02
367.56	3033.04
367.77	3243.98
367.98	3426.25
368.18	3651.53
368.39	3315.66
368.60	3043.28
368.81	3604.42
369.02	3641.29
369.23	3096.53
369.44	2944.98
369.65	3426.25
369.86	3547.08
370.07	3209.17
370.28	3106.77
370.49	3510.22
370.70	3506.12
370.91	3024.85
371.12	2944.98
371.33	3725.26
371.54	3274.70
371.75	3213.26
371.96	2861.01
372.17	3493.83
372.38	3426.25
372.59	3071.95
372.80	3045.33
373.01	3338.19
373.22	3549.13
373.43	3092.43
373.64	2938.84
373.85	3758.02
374.06	3833.80
374.26	3207.12
374.47	3239.89
374.68	3770.31
374.89	3549.13
375.10	3006.42
375.31	3194.83
375.52	3426.25
375.73	3399.63
375.94	2838.48
376.15	3170.26
376.36	3309.52
376.57	3311.57
376.78	3172.30
376.99	3129.30
377.20	3741.64
377.40	3418.06
377.61	3452.88
377.82	3092.43
378.03	3772.36
378.24	3495.88
378.45	3227.60
378.66	3250.13
378.87	3053.52
379.08	3223.50
379.29	3196.88
379.50	3291.09
379.71	3438.54
379.91	3577.80
380.12	3190.74
380.33	3127.25
380.54	3344.33
380.75	3401.68
380.96	3086.29
381.17	3157.97
381.38	3346.38
381.59	3407.82
381.80	3143.63
382.00	3278.80
382.21	3459.02
382.42	3813.32
382.63	3551.18
382.84	3278.80
383.05	3639.24
383.26	3780.55
383.47	3268.56
383.68	3166.16
383.88	3524.55
384.09	3475.40
384.30	3315.66
384.51	3258.32
384.72	3364.81
384.93	3180.50
385.14	3172.30
385.35	3428.30
385.55	3147.73
385.76	3751.88
385.97	3098.58
386.18	2979.79
386.39	3231.69
386.60	3330.00
386.81	3094.48
387.02	3006.42
387.22	3209.17
387.43	3590.09
387.64	3190.74
387.85	3299.28
388.06	3395.53
388.27	4429.76
388.48	7303.06
388.68	10762.08
388.89	13543.22
389.10	14800.67
389.31	14137.13
389.52	11482.96
389.73	10094.44
389.93	9422.70
390.14	8306.56
390.35	7868.30
390.56	7366.54
390.77	6178.72
390.98	4724.66
391.18	4077.51
391.39	3960.77
391.60	3504.07
391.81	3352.52
392.02	3137.49
392.23	3983.30
392.43	3561.42
392.64	3260.37
392.85	3278.80
393.06	3813.32
393.27	3360.72
393.47	3098.58
393.68	3297.23
393.89	3389.39
394.10	3585.99
394.31	3139.54
394.52	3133.39
394.72	3375.05
394.93	3854.28
395.14	2916.31
395.35	3170.26
395.56	3354.57
395.76	3450.83
395.97	3094.48
396.18	3276.75
396.39	3311.57
396.60	4050.88
396.80	3502.03
397.01	3422.16
397.22	3520.46
397.43	3706.82
397.64	3125.20
397.84	3295.18
398.05	3770.31
398.26	3426.25
398.47	3280.85
398.67	3346.38
398.88	3428.30
399.09	3598.28
399.30	3133.39
399.51	3205.07
399.71	3348.43
399.92	3444.68
400.13	3164.11
400.34	3131.34
400.54	3465.16
400.75	3813.32
400.96	3114.96
401.17	3475.40
401.37	3575.75
401.58	3327.95
401.79	3028.95
402.00	3237.84
402.21	3903.43
402.41	3581.90
402.62	3362.76
402.83	3477.45
403.04	3805.13
403.24	4169.66
403.45	3319.76
403.66	3467.21
403.87	3641.29
404.07	3751.88
404.28	3344.33
404.49	3534.79
404.70	3461.07
404.90	3557.32
405.11	3119.06
405.32	3297.23
405.52	3332.05
405.73	3356.62
405.94	3045.33
406.15	3278.80
406.35	3624.90
406.56	3641.29
406.77	3227.60
406.98	3114.96
407.18	3358.67
407.39	3682.25
407.60	3188.69
407.80	3227.60
408.01	3315.66
408.22	3516.36
408.43	3096.53
408.63	3338.19
408.84	3706.82
409.05	3639.24
409.25	3016.66
409.46	3211.22
409.67	3360.72
409.88	3356.62
410.08	3250.13
410.29	3184.59
410.50	3622.86
410.70	3598.28
410.91	3069.91
411.12	3188.69
411.32	3403.72
411.53	3307.47
411.74	3151.82
411.95	3155.92
412.15	3403.72
412.36	3555.27
412.57	3366.86
412.77	3327.95
412.98	3440.59
413.19	3348.43
413.39	3196.88
413.60	3164.11
413.81	3655.62
414.01	3258.32
414.22	3123.15
414.43	3307.47
414.63	3303.37
414.84	3618.76
415.05	3082.19
415.25	3004.37
415.46	3614.66
415.67	3330.00
415.87	3184.59
416.08	3166.16
416.29	3403.72
416.49	3540.94
416.70	3205.07
416.91	3221.45
417.11	3385.29
417.32	3655.62
417.53	3274.70
417.73	3295.18
417.94	3360.72
418.15	3424.20
418.35	3217.36
418.56	3186.64
418.77	3893.19
418.97	3510.22
419.18	3266.51
419.38	2852.82
419.59	3409.87
419.80	3749.83
420.00	3049.43
420.21	3094.48
420.42	3702.73
420.62	3459.02
420.83	3141.58
421.04	3094.48
421.24	3403.72
421.45	3542.99
421.65	3176.40
421.86	3200.98
422.07	3803.08
422.27	3583.95
422.48	3139.54
422.69	2926.55
422.89	3393.48
423.10	3332.05
423.30	3051.47
423.51	3153.87
423.72	3465.16
423.92	3481.55
424.13	3000.27
424.33	3231.69
424.54	3581.90
424.75	3499.98
424.95	3487.69
425.16	3092.43
425.36	3477.45
425.57	3663.82
425.78	3362.76
425.98	3266.51
426.19	3393.48
426.39	3319.76
426.60	3286.99
426.81	3327.95
427.01	3502.03
427.22	3264.46
427.42	2942.93
427.63	3114.96
427.83	3643.34
428.04	3749.83
428.25	3215.31
428.45	3209.17
428.66	3659.72
428.86	3346.38
429.07	3157.97
429.28	3160.02
429.48	3397.58
429.69	3254.22
429.89	3213.26
430.10	3030.99
430.30	3590.09
430.51	3758.02
430.71	3080.14
430.92	3239.89
431.13	3409.87
431.33	3647.43
431.54	3213.26
431.74	3327.95
431.95	3983.30
432.15	3321.81
432.36	3215.31
432.56	3176.40
432.77	3876.80
432.98	3801.03
433.18	3256.27
433.39	3043.28
433.59	3465.16
433.80	3837.89
434.00	3282.89
434.21	3246.03
434.41	3315.66
434.62	3966.92
434.82	3065.81
435.03	3092.43
435.23	3479.50
435.44	3184.59
435.64	3061.71
435.85	3190.74
436.06	3598.28
436.26	3549.13
436.47	3082.19
436.67	3100.62
436.88	3344.33
437.08	3674.06
437.29	3268.56
437.49	3334.09
437.70	3737.54
437.90	3418.06
438.11	3495.88
438.31	3223.50
438.52	3702.73
438.72	3665.86
438.93	3493.83
439.13	3270.61
439.34	3573.71
439.54	3327.95
439.75	3227.60
439.95	3192.78
440.16	3182.54
440.36	3499.98
440.57	3143.63
440.77	3205.07
440.98	3403.72
441.18	3573.71
441.39	3033.04
441.59	3084.24
441.80	3966.92
442.00	3413.96
442.21	3213.26
442.41	3000.27
442.62	3684.30
442.82	3280.85
443.02	3145.68
443.23	3147.73
443.43	3356.62
443.64	3672.01
443.84	2971.60
444.05	3231.69
444.25	3409.87
444.46	3373.00
444.66	3141.58
444.87	3379.15
445.07	3043.28
445.28	3278.80
445.48	3364.81
445.69	3219.41
445.89	4042.69
446.09	3358.67
446.30	3485.64
446.50	3532.75
446.71	4974.52
446.91	6033.32
447.12	6887.32
447.32	7139.22
447.53	7311.25
447.73	6258.59
447.93	5267.38
448.14	5175.22
448.34	5531.56
448.55	4450.24
448.75	4360.13
448.96	4194.24
449.16	4126.66
449.36	4116.42
449.57	3405.77
449.77	3209.17
449.98	3348.43
450.18	3510.22
450.39	3041.23
450.59	3377.10
450.79	3481.55
451.00	3319.76
451.20	3407.82
451.41	3184.59
451.61	3506.12
451.81	3348.43
452.02	3078.10
452.22	3190.74
452.43	3393.48
452.63	3211.22
452.84	3250.13
453.04	3114.96
453.24	3440.59
453.45	3264.46
453.65	3229.65
453.86	3176.40
454.06	3506.12
454.26	3403.72
454.47	3149.78
454.67	3319.76
454.87	3551.18
455.08	3391.44
455.28	3373.00
455.49	3362.76
455.69	3293.13
455.89	3899.33
456.10	3266.51
456.30	3123.15
456.51	3682.25
456.71	3506.12
456.91	3303.37
457.12	3141.58
457.32	3524.55
457.52	3172.30
457.73	3284.94
457.93	3348.43
458.14	3446.73
458.34	3067.86
458.54	3278.80
458.75	3190.74
458.95	3598.28
459.15	3499.98
459.36	3254.22
459.56	3178.45
459.76	3911.62
459.97	3448.78
460.17	3067.86
460.37	3192.78
460.58	3569.61
460.78	3565.51
460.99	3219.41
461.19	3188.69
461.39	3340.24
461.60	3358.67
461.80	3223.50
462.00	3053.52
462.21	3434.44
462.41	3180.50
462.61	3047.38
462.82	2926.55
463.02	3598.28
463.22	3383.24
463.43	3207.12
463.63	3080.14
463.83	3766.21
464.04	3499.98
464.24	3174.35
464.44	3164.11
464.64	3489.74
464.85	3483.59
465.05	3266.51
465.25	3041.23
465.46	3295.18
465.66	3532.75
465.86	3219.41
466.07	3145.68
466.27	3438.54
466.47	3059.67
466.68	3037.14
466.88	3272.65
467.08	3631.05
467.29	3741.64
467.49	3086.29
467.69	3305.42
467.89	3569.61
468.10	3422.16
468.30	3278.80
468.50	3325.90
468.71	3602.38
468.91	3059.67
469.11	3315.66
469.31	3291.09
469.52	3160.02
469.72	3821.51
469.92	3413.96
470.13	3164.11
470.33	3471.31
470.53	3424.20
470.73	3549.13
470.94	3809.22
471.14	3956.68
471.34	4583.35
471.54	4122.56
471.75	3864.52
471.95	3811.27
472.15	3594.19
472.36	3672.01
472.56	3512.27
472.76	3997.64
472.96	3749.83
473.17	3420.11
473.37	3303.37
473.57	3323.85
473.77	3631.05
473.98	3303.37
474.18	3114.96
474.38	4194.24
474.58	3272.65
474.79	3014.61
474.99	3211.22
475.19	3700.68
475.39	3207.12
475.60	3225.55
475.80	3092.43
476.00	3446.73
476.20	3401.68
476.41	3256.27
476.61	3305.42
476.81	3790.79
477.01	3203.02
477.21	3387.34
477.42	3231.69
477.62	3305.42
477.82	3618.76
478.02	3026.90
478.23	3170.26
478.43	3217.36
478.63	3327.95
478.83	3198.93
479.03	3274.70
479.24	3719.11
479.44	4001.73
479.64	3106.77
479.84	2908.12
480.04	3381.20
480.25	3704.78
480.45	3106.77
480.65	3086.29
480.85	3784.65
481.06	3360.72
481.26	3260.37
481.46	3160.02
481.66	3590.09
481.86	3262.41
482.06	3373.00
482.27	3143.63
482.47	3323.85
482.67	3485.64
482.87	3200.98
483.07	3213.26
483.28	3379.15
483.48	3217.36
483.68	3143.63
483.88	3102.67
484.08	3000.27
484.29	3239.89
484.49	3258.32
484.69	2912.21
484.89	3807.17
485.09	3629.00
485.29	3180.50
485.50	3250.13
485.70	3348.43
485.90	3772.36
486.10	3336.14
486.30	3127.25
486.50	3715.02
486.71	3461.07
486.91	3272.65
487.11	3297.23
487.31	3143.63
487.51	3495.88
487.71	3178.45
487.91	3076.05
488.12	3256.27
488.32	2867.16
488.52	3129.30
488.72	2897.88
488.92	3471.31
489.12	3692.49
489.32	3211.22
489.53	3155.92
489.73	3135.44
489.93	3827.65
490.13	3139.54
490.33	2936.79
490.53	3508.17
490.73	3749.83
490.94	2977.75
491.14	3268.56
491.34	3610.57
491.54	3606.47
491.74	3948.48
491.94	4409.28
492.14	5070.77
492.34	5248.94
492.54	4609.98
492.75	4157.38
492.95	4470.72
493.15	4063.17
493.35	3745.73
493.55	3829.70
493.75	3760.07
493.95	4059.07
494.15	3416.01
494.35	3323.85
494.56	3446.73
494.76	3276.75
494.96	3368.91
495.16	3049.43
495.36	3350.48
495.56	3508.17
495.76	3203.02
495.96	3110.86
496.16	3194.83
496.36	3952.58
496.56	3151.82
496.77	3237.84
496.97	3450.83
497.17	3758.02
497.37	3026.90
497.57	3243.98
497.77	3528.65
497.97	3170.26
498.17	3198.93
498.37	3131.34
498.57	3520.46
498.77	3411.92
498.97	3360.72
499.17	3549.13
499.38	3416.01
499.58	3631.05
499.78	3254.22
499.98	3295.18
500.18	3352.52
500.38	3215.31
500.58	3418.06
500.78	3786.69
500.98	6137.76
501.18	7686.03
501.38	8935.29
501.58	9875.31
501.78	9981.80
501.98	8347.52
502.18	7032.72
502.38	6109.09
502.58	6154.15
502.78	5535.66
502.98	5111.73
503.18	5062.58
503.38	4704.18
503.59	4237.25
503.79	3985.35
503.99	3819.46
504.19	3977.16
504.39	3948.48
504.59	3581.90
504.79	3616.71
504.99	3946.44
505.19	3561.42
505.39	3389.39
505.59	3516.36
505.79	3880.90
505.99	3655.62
506.19	3172.30
506.39	3430.35
506.59	3307.47
506.79	3368.91
506.99	3364.81
507.19	3110.86
507.39	3518.41
507.59	3153.87
507.79	3114.96
507.99	3106.77
508.19	3422.16
508.39	3438.54
508.59	3157.97
508.79	3246.03
508.99	3876.80
509.19	3291.09
509.39	3219.41
509.59	3135.44
509.79	3276.75
509.99	3534.79
510.19	3346.38
510.39	3319.76
510.59	3534.79
510.79	3278.80
510.99	2934.74
511.19	3123.15
511.39	3823.56
511.59	3661.77
511.79	3344.33
511.99	3170.26
512.19	3903.43
512.38	3401.68
512.58	3086.29
512.78	3088.34
512.98	3753.93
513.18	3692.49
513.38	3121.10
513.58	3299.28
513.78	3387.34
513.98	3389.39
514.18	3133.39
514.38	3248.08
514.58	3524.55
514.78	3327.95
514.98	3110.86
515.18	3182.54
515.38	3149.78
515.58	3852.23
515.78	3188.69
515.98	3164.11
516.18	3524.55
516.38	3407.82
516.57	3164.11
516.77	3092.43
516.97	3557.32
517.17	3250.13
517.37	2971.60
517.57	3327.95
517.77	3381.20
517.97	3272.65
518.17	3192.78
518.37	3082.19
518.57	3332.05
518.77	3299.28
518.97	3176.40
519.16	3246.03
519.36	3643.34
519.56	3325.90
519.76	3055.57
519.96	3211.22
520.16	3770.31
520.36	3205.07
520.56	3262.41
520.76	3108.82
520.96	3377.10
521.16	3696.58
521.35	3442.64
521.55	3325.90
521.75	3424.20
521.95	3346.38
522.15	3078.10
522.35	3033.04
522.55	3358.67
522.75	3635.14
522.95	2979.79
523.14	3008.47
523.34	3473.36
523.54	3330.00
523.74	3330.00
523.94	3237.84
524.14	3147.73
524.34	3491.79
524.54	3456.97
524.73	3125.20
524.93	3663.82
525.13	3479.50
525.33	3049.43
525.53	3393.48
525.73	3561.42
525.93	3483.59
526.13	3186.64
526.32	2979.79
526.52	3712.97
526.72	3631.05
526.92	3190.74
527.12	3035.09
527.32	3155.92
527.52	3553.23
527.71	3188.69
527.91	3205.07
528.11	3381.20
528.31	3399.63
528.51	3178.45
528.71	3358.67
528.90	3569.61
529.10	3631.05
529.30	3180.50
529.50	2906.07
529.70	3647.43
529.90	3303.37
530.09	3114.96
530.29	3045.33
530.49	3227.60
530.69	4067.27
530.89	3377.10
531.09	3278.80
531.28	3348.43
531.48	3762.12
531.68	3205.07
531.88	3137.49
532.08	3577.80
532.28	3401.68
532.47	3270.61
532.67	3213.26
532.87	3557.32
533.07	3278.80
533.27	3172.30
533.46	3221.45
533.66	3448.78
533.86	3407.82
534.06	3274.70
534.26	3131.34
534.45	3352.52
534.65	3526.60
534.85	3248.08
535.05	3106.77
535.25	3647.43
535.44	3117.01
535.64	3164.11
535.84	3198.93
536.04	3348.43
536.24	3284.94
536.43	3157.97
536.63	3049.43
536.83	3420.11
537.03	3426.25
537.22	2971.60
537.42	2987.99
537.62	3624.90
537.82	3237.84
538.02	3366.86
538.21	3303.37
538.41	4065.22
538.61	3592.14
538.81	3313.61
539.00	3311.57
539.20	3094.48
539.40	3330.00
539.60	3035.09
539.79	3401.68
539.99	3459.02
540.19	3192.78
540.39	3143.63
540.58	3303.37
540.78	3661.77
540.98	3540.94
541.18	3438.54
541.37	3147.73
541.57	3397.58
541.77	3487.69
541.97	3078.10
542.16	3067.86
542.36	3319.76
542.56	3575.75
542.76	3299.28
542.95	3229.65
543.15	3637.19
543.35	3602.38
543.54	3108.82
543.74	3082.19
543.94	3741.64
544.14	3289.04
544.33	3336.14
544.53	3145.68
544.73	3344.33
544.93	3346.38
545.12	3200.98
545.32	3172.30
545.52	3332.05
545.71	3211.22
545.91	3180.50
546.11	3061.71
546.30	3250.13
546.50	3436.49
546.70	3268.56
546.90	3172.30
547.09	3049.43
547.29	3387.34
547.49	3315.66
547.68	3207.12
547.88	3278.80
548.08	3592.14
548.27	3358.67
548.47	3069.91
548.67	3289.04
548.87	3557.32
549.06	3076.05
549.26	3084.24
549.46	3495.88
549.65	3268.56
549.85	3190.74
550.05	3223.50
550.24	3221.45
550.44	3452.88
550.64	3233.74
550.83	3270.61
551.03	3725.26
551.23	3702.73
551.42	3209.17
551.62	3278.80
551.82	3330.00
552.01	3319.76
552.21	3444.68
552.41	3246.03
552.60	3780.55
552.80	3393.48
553.00	3098.58
553.19	3186.64
553.39	3829.70
553.59	3182.54
553.78	3340.24
553.98	3065.81
554.17	3114.96
554.37	3481.55
554.57	3284.94
554.76	2979.79
554.96	3280.85
555.16	3493.83
555.35	3272.65
555.55	3307.47
555.75	3573.71
555.94	3629.00
556.14	2971.60
556.33	3198.93
556.53	3393.48
556.73	3405.77
556.92	3157.97
557.12	3065.81
557.32	3897.28
557.51	3727.30
557.71	3188.69
557.90	3370.96
558.10	3751.88
558.30	3389.39
558.49	3233.74
558.69	3123.15
558.88	3540.94
559.08	3475.40
559.28	3207.12
559.47	3207.12
559.67	3549.13
559.86	3907.52
560.06	3110.86
560.26	3192.78
560.45	3643.34
560.65	3405.77
560.84	3463.12
561.04	3035.09
561.24	3532.75
561.43	3123.15
561.63	3471.31
561.82	3344.33
562.02	3583.95
562.22	3227.60
562.41	3100.62
562.61	3168.21
562.80	3241.93
563.00	3979.20
563.19	3221.45
563.39	3246.03
563.59	3641.29
563.78	3252.17
563.98	2987.99
564.17	3164.11
564.37	3049.43
564.56	3346.38
564.76	2994.13
564.96	3252.17
565.15	3467.21
565.35	3928.00
565.54	3215.31
565.74	3243.98
565.93	3530.70
566.13	3461.07
566.32	3235.79
566.52	3248.08
566.71	3420.11
566.91	3604.42
567.11	3362.76
567.30	3049.43
567.50	3551.18
567.69	3569.61
567.89	3125.20
568.08	3024.85
568.28	3475.40
568.47	3188.69
568.67	3186.64
568.86	3157.97
569.06	3569.61
569.25	3375.05
569.45	3028.95
569.64	3198.93
569.84	3334.09
570.04	3530.70
570.23	3100.62
570.43	3213.26
570.62	3364.81
570.82	3696.58
571.01	3078.10
571.21	3114.96
571.40	3248.08
571.60	3585.99
571.79	3295.18
571.99	3172.30
572.18	3147.73
572.38	3499.98
572.57	3332.05
572.77	3180.50
572.96	4067.27
573.16	3348.43
573.35	3149.78
573.55	3258.32
573.74	3573.71
573.94	3407.82
574.13	3178.45
574.33	3375.05
574.52	3774.41
574.71	3413.96
574.91	3209.17
575.10	3082.19
575.30	3338.19
575.49	3129.30
575.69	3110.86
575.88	3112.91
576.08	3420.11
576.27	3655.62
576.47	3041.23
576.66	3332.05
576.86	3721.16
577.05	3538.89
577.25	3233.74
577.44	3370.96
577.64	3297.23
577.83	3551.18
578.02	3147.73
578.22	3280.85
578.41	3915.72
578.61	3389.39
578.80	3000.27
579.00	3225.55
579.19	3436.49
579.39	3487.69
579.58	3237.84
579.77	3180.50
579.97	3721.16
580.16	3745.73
580.36	3397.58
580.55	3266.51
580.75	3567.56
580.94	3411.92
581.13	3330.00
581.33	3456.97
581.52	3428.30
581.72	3803.08
581.91	3266.51
582.11	3094.48
582.30	3618.76
582.49	3416.01
582.69	3416.01
582.88	3190.74
583.08	3524.55
583.27	3631.05
583.47	3346.38
583.66	3172.30
583.85	3286.99
584.05	3413.96
584.24	3289.04
584.44	3166.16
584.63	3680.20
584.82	3700.68
585.02	3422.16
585.21	3313.61
585.41	3551.18
585.60	3456.97
585.79	3434.44
585.99	3393.48
586.18	3508.17
586.37	4474.81
586.57	6686.62
586.76	18511.59
586.96	36767.18
587.15	49517.84
587.34	57697.42
587.54	60775.52
587.73	53421.26
587.93	39022.00
588.12	29771.32
588.31	24776.33
588.51	21761.72
588.70	20350.67
588.89	17731.31
589.09	15134.49
589.28	13201.21
589.47	10340.19
589.67	7741.32
589.86	6141.86
590.06	5025.72
590.25	4478.91
590.44	3798.98
590.64	3592.14
590.83	3663.82
591.02	3741.64
591.22	3119.06
591.41	3280.85
591.60	3375.05
591.80	4038.59
591.99	3033.04
592.18	3149.78
592.38	3571.66
592.57	3313.61
592.76	3207.12
592.96	3256.27
593.15	3456.97
593.34	3737.54
593.54	3239.89
593.73	3364.81
593.92	3569.61
594.12	3485.64
594.31	3227.60
594.50	3413.96
594.70	3583.95
594.89	4018.11
595.08	3016.66
595.28	3297.23
595.47	4034.50
595.66	3608.52
595.86	3123.15
596.05	3035.09
596.24	3309.52
596.43	3794.89
596.63	3223.50
596.82	3315.66
597.01	3559.37
597.21	3786.69
597.40	3119.06
597.59	3155.92
597.79	3426.25
597.98	3502.03
598.17	3246.03
598.36	3198.93
598.56	3616.71
598.75	3352.52
598.94	3274.70
599.14	3205.07
599.33	3348.43
599.52	3594.19
599.71	3246.03
599.91	3139.54
600.10	3577.80
600.29	3481.55
600.48	3366.86
600.68	3403.72
600.87	3502.03
601.06	3303.37
601.26	3276.75
601.45	3330.00
601.64	3393.48
601.83	3753.93
602.03	3039.19
602.22	3119.06
602.41	3719.11
602.60	3979.20
602.80	3274.70
602.99	3352.52
603.18	3375.05
603.37	3516.36
603.57	3049.43
603.76	3149.78
603.95	3721.16
604.14	3348.43
604.34	3117.01
604.53	3094.48
604.72	3577.80
604.91	3561.42
605.10	3188.69
605.30	3164.11
605.49	3966.92
605.68	3641.29
605.87	3188.69
606.07	3145.68
606.26	3573.71
606.45	3512.27
606.64	3219.41
606.84	3033.04
607.03	3444.68
607.22	3688.39
607.41	3205.07
607.60	3059.67
607.80	3661.77
607.99	3303.37
608.18	3282.89
608.37	3250.13
608.56	3246.03
608.76	3663.82
608.95	3340.24
609.14	3110.86
609.33	3729.35
609.52	3803.08
609.72	3305.42
609.91	3291.09
610.10	3416.01
610.29	3721.16
610.48	3258.32
610.68	3313.61
610.87	3379.15
611.06	3643.34
611.25	3229.65
611.44	3366.86
611.63	3332.05
611.83	3715.02
612.02	3125.20
612.21	3254.22
612.40	3071.95
612.59	3133.39
612.79	3069.91
612.98	3200.98
613.17	3844.04
613.36	3395.53
613.55	3260.37
613.74	3225.55
613.93	3424.20
614.13	3491.79
614.32	3356.62
614.51	3184.59
614.70	3409.87
614.89	3311.57
615.08	3274.70
615.28	3524.55
615.47	3200.98
615.66	3557.32
615.85	3127.25
616.04	3196.88
616.23	3426.25
616.42	3446.73
616.62	3143.63
616.81	3166.16
617.00	3534.79
617.19	3567.56
617.38	3184.59
617.57	3358.67
617.76	3581.90
617.95	3598.28
618.15	3258.32
618.34	3510.22
618.53	3137.49
618.72	3641.29
618.91	3264.46
619.10	3274.70
619.29	3311.57
619.48	3387.34
619.68	3090.38
619.87	3147.73
620.06	3164.11
620.25	3641.29
620.44	3149.78
620.63	3147.73
620.82	3499.98
621.01	3512.27
621.20	3241.93
621.39	3334.09
621.59	3561.42
621.78	3389.39
621.97	3207.12
622.16	3272.65
622.35	3524.55
622.54	3633.10
622.73	3303.37
622.92	2971.60
623.11	3680.20
623.30	3348.43
623.49	3340.24
623.68	3014.61
623.88	3729.35
624.07	3243.98
624.26	3076.05
624.45	3217.36
624.64	3358.67
624.83	3557.32
625.02	3178.45
625.21	3157.97
625.40	3491.79
625.59	3790.79
625.78	3233.74
625.97	3262.41
626.16	3708.87
626.35	3561.42
626.54	3258.32
626.74	3330.00
626.93	3385.29
627.12	3409.87
627.31	3338.19
627.50	3172.30
627.69	3612.62
627.88	3129.30
628.07	3104.72
628.26	3018.71
628.45	3207.12
628.64	3200.98
628.83	3164.11
629.02	2961.36
629.21	3577.80
629.40	3510.22
629.59	3016.66
629.78	3225.55
629.97	3516.36
630.16	3532.75
630.35	3190.74
630.54	3250.13
630.73	3256.27
630.92	3428.30
631.11	3117.01
631.30	3280.85
631.49	3622.86
631.68	3413.96
631.87	3194.83
632.06	3074.00
632.25	3950.53
632.44	3381.20
632.63	3176.40
632.82	3186.64
633.01	3291.09
633.20	3487.69
633.39	3084.24
633.58	2977.75
633.77	3461.07
633.96	3559.37
634.15	3348.43
634.34	3248.08
634.53	3518.41
634.72	3293.13
634.91	3059.67
635.10	3184.59
635.29	3549.13
635.48	3450.83
635.67	3004.37
635.86	3049.43
636.05	3780.55
636.24	3436.49
636.43	3131.34
636.62	3286.99
636.81	2951.12
637.00	3456.97
637.19	3114.96
637.38	3157.97
637.57	3418.06
637.76	3358.67
637.95	3471.31
638.14	3330.00
638.33	3524.55
638.52	3418.06
638.71	3041.23
638.89	3053.52
639.08	4050.88
639.27	3665.86
639.46	3442.64
639.65	3633.10
639.84	3901.38
640.03	4036.55
640.22	3534.79
640.41	3559.37
640.60	3502.03
640.79	3575.75
640.98	3397.58
641.17	3375.05
641.36	3723.21
641.55	3604.42
641.74	3045.33
641.92	3092.43
642.11	3301.33
642.30	3350.48
642.49	3022.80
642.68	3180.50
642.87	3483.59
643.06	3608.52
643.25	3069.91
643.44	3133.39
643.63	3395.53
643.82	3612.62
644.00	2985.94
644.19	3196.88
644.38	3270.61
644.57	3676.10
644.76	3200.98
644.95	3252.17
645.14	3413.96
645.33	3432.40
645.52	3340.24
645.71	3067.86
645.89	3280.85
646.08	3344.33
646.27	3198.93
646.46	3401.68
646.65	3092.43
646.84	3473.36
647.03	3106.77
647.22	3336.14
647.40	3444.68
647.59	3327.95
647.78	3006.42
647.97	3166.16
648.16	3305.42
648.35	3786.69
648.54	3512.27
648.73	3221.45
648.91	3532.75
649.10	3487.69
649.29	3098.58
649.48	3135.44
649.67	3555.27
649.86	3475.40
650.05	3184.59
650.23	3315.66
650.42	3309.52
650.61	3704.78
650.80	3411.92
650.99	3411.92
651.18	3585.99
651.36	3594.19
651.55	3067.86
651.74	3307.47
651.93	3282.89
652.12	3368.91
652.31	3188.69
652.49	3160.02
652.68	3346.38
652.87	3821.51
653.06	3284.94
653.25	3444.68
653.44	3444.68
653.62	3811.27
653.81	3200.98
654.00	3223.50
654.19	3553.23
654.38	3977.16
654.56	3262.41
654.75	3092.43
654.94	3618.76
655.13	3495.88
655.32	3172.30
655.51	3213.26
655.69	3323.85
655.88	3725.26
656.07	3108.82
656.26	3223.50
656.45	3149.78
656.63	3438.54
656.82	3151.82
657.01	3508.17
657.20	3330.00
657.38	3753.93
657.57	3133.39
657.76	3053.52
657.95	3604.42
658.14	3319.76
658.32	3254.22
658.51	3016.66
658.70	3516.36
658.89	3413.96
659.08	3264.46
659.26	3370.96
659.45	3213.26
659.64	3524.55
659.83	3114.96
660.01	3573.71
660.20	3508.17
660.39	3819.46
660.58	2924.50
660.76	3221.45
660.95	3055.57
661.14	3508.17
661.33	3020.75
661.51	3221.45
661.70	3387.34
661.89	3510.22
662.08	3196.88
662.26	3086.29
662.45	3233.74
662.64	3876.80
662.83	3289.04
663.01	3043.28
663.20	3231.69
663.39	3862.47
663.58	3307.47
663.76	3149.78
663.95	3563.47
664.14	3229.65
664.32	3262.41
664.51	3074.00
664.70	3133.39
664.89	3520.46
665.07	2932.69
665.26	3297.23
665.45	3147.73
665.64	3534.79
665.82	3198.93
666.01	3330.00
666.20	3141.58
666.38	3608.52
666.57	3551.18
666.76	5719.98
666.95	12519.23
667.13	18712.29
667.32	22494.89
667.51	24958.60
667.69	25341.57
667.88	20893.38
668.07	15200.02
668.25	13027.13
668.44	11528.02
668.63	10022.76
668.81	8832.89
669.00	7616.40
669.19	7194.51
669.38	6272.93
669.56	5476.27
669.75	4716.47
669.94	4388.80
670.12	3762.12
670.31	3416.01
670.50	3465.16
670.68	3524.55
670.87	3508.17
671.06	3141.58
671.24	3196.88
671.43	3733.45
671.62	3459.02
671.80	3176.40
671.99	3356.62
672.18	3542.99
672.36	3715.02
672.55	3389.39
672.74	3246.03
672.92	3315.66
673.11	3608.52
673.29	3114.96
673.48	3319.76
673.67	3397.58
673.85	3596.23
674.04	3188.69
674.23	3280.85
674.41	3852.23
674.60	3176.40
674.79	2971.60
674.97	3086.29
675.16	3596.23
675.34	3665.86
675.53	3172.30
675.72	3231.69
675.90	3860.42
676.09	3395.53
676.28	3307.47
676.46	3063.76
676.65	3530.70
676.83	3293.13
677.02	3278.80
677.21	3186.64
677.39	3479.50
677.58	3246.03
677.77	3176.40
677.95	3114.96
678.14	3340.24
678.32	3315.66
678.51	3264.46
678.70	3551.18
678.88	3297.23
679.07	3393.48
679.25	3155.92
679.44	3131.34
679.63	3203.02
679.81	3409.87
680.00	3487.69
680.18	3180.50
680.37	3809.22
680.55	3491.79
680.74	3080.14
680.93	2936.79
681.11	3506.12
681.30	3483.59
681.48	3180.50
681.67	3291.09
681.85	3452.88
682.04	3278.80
682.23	3286.99
682.41	3383.24
682.60	3366.86
682.78	3403.72
682.97	3076.05
683.15	3338.19
683.34	3536.84
683.53	3805.13
683.71	3110.86
683.90	3174.35
684.08	3743.69
684.27	3348.43
684.45	3196.88
684.64	3336.14
684.82	3416.01
685.01	3583.95
685.19	3182.54
685.38	3461.07
685.57	3459.02
685.75	3352.52
685.94	3141.58
686.12	3147.73
686.31	3305.42
686.49	3870.66
686.68	3004.37
686.86	3180.50
687.05	3319.76
687.23	3762.12
687.42	3123.15
687.60	3037.14
687.79	3643.34
687.97	3764.17
688.16	3332.05
688.34	3385.29
688.53	3100.62
688.71	3569.61
688.90	3545.03
689.08	3262.41
689.27	3119.06
689.45	3682.25
689.64	3327.95
689.82	3278.80
690.01	3545.03
690.19	3561.42
690.38	3297.23
690.56	3350.48
690.75	3233.74
690.93	3393.48
691.12	3178.45
691.30	3241.93
691.49	3276.75
691.67	3518.41
691.86	3538.89
692.04	3213.26
692.23	3360.72
692.41	3463.12
692.60	3545.03
692.78	3385.29
692.97	3418.06
693.15	3588.04
693.34	3399.63
693.52	3440.59
693.71	3293.13
693.89	3370.96
694.08	2979.79
694.26	3205.07
694.44	3639.24
694.63	3542.99
694.81	3123.15
695.00	3286.99
695.18	3706.82
695.37	4024.26
695.55	3348.43
695.74	3319.76
695.92	3250.13
696.10	3766.21
696.29	3076.05
696.47	3198.93
696.66	3246.03
696.84	3248.08
697.03	3309.52
697.21	3459.02
697.40	4833.21
697.58	3645.38
697.76	3229.65
697.95	3200.98
698.13	3215.31
698.32	3321.81
698.50	3166.16
698.68	3278.80
698.87	3528.65
699.05	3833.80
699.24	3176.40
699.42	3162.06
699.61	3471.31
699.79	3600.33
699.97	3338.19
700.16	3084.24
700.34	3215.31
700.53	3416.01
700.71	3383.24
700.89	3362.76
701.08	3370.96
701.26	3370.96
701.45	3577.80
701.63	3088.34
701.81	3321.81
702.00	3239.89
702.18	3321.81
702.37	3153.87
702.55	3735.50
702.73	3524.55
702.92	3174.35
703.10	3438.54
703.28	3561.42
703.47	3147.73
703.65	3432.40
703.84	3235.79
704.02	3303.37
704.20	3694.54
704.39	3135.44
704.57	3100.62
704.75	3672.01
704.94	3553.23
705.12	3401.68
705.30	3975.11
705.49	8114.05
705.67	14477.09
705.86	19369.69
706.04	21585.59
706.22	23889.56
706.41	22570.66
706.59	16430.85
706.77	13344.56
706.96	11773.77
707.14	10882.91
707.32	9150.32
707.51	8161.16
707.69	6735.77
707.87	5801.90
708.06	4837.30
708.24	4212.67
708.42	4126.66
708.61	4261.82
708.79	3252.17
708.97	3354.57
709.16	3401.68
709.34	3499.98
709.52	3166.16
709.71	3248.08
709.89	3520.46
710.07	3221.45
710.26	3157.97
710.44	3225.55
710.62	3573.71
710.80	3416.01
710.99	3282.89
711.17	3370.96
711.35	3254.22
711.54	3397.58
711.72	3395.53
711.90	3280.85
712.09	3477.45
712.27	3323.85
712.45	3311.57
712.63	3213.26
712.82	3491.79
713.00	3409.87
713.18	3391.44
713.37	3416.01
713.55	3540.94
713.73	3555.27
713.91	3282.89
714.10	3219.41
714.28	3461.07
714.46	3493.83
714.65	3338.19
714.83	3264.46
715.01	3471.31
715.19	3497.93
715.38	3088.34
715.56	3291.09
715.74	3246.03
715.92	3248.08
716.11	3426.25
716.29	2938.84
716.47	3332.05
716.65	3393.48
716.84	3127.25
717.02	3252.17
717.20	2990.03
717.38	3211.22
717.57	3377.10
717.75	3286.99
717.93	3350.48
718.11	3545.03
718.30	3151.82
718.48	3170.26
718.66	3641.29
718.84	3643.34
719.03	3241.93
719.21	3020.75
719.39	3825.61
719.57	3534.79
719.75	3295.18
719.94	3143.63
720.12	3385.29
720.30	3450.83
720.48	3340.24
720.67	3225.55
720.85	3225.55
721.03	3317.71
721.21	3127.25
721.39	3256.27
721.58	3606.47
721.76	3495.88
721.94	3217.36
722.12	3315.66
722.30	3749.83
722.49	3301.33
722.67	3155.92
722.85	3311.57
723.03	3151.82
723.21	3291.09
723.40	3164.11
723.58	3352.52
723.76	3569.61
723.94	3706.82
724.12	3217.36
724.30	3456.97
724.49	3655.62
724.67	3215.31
724.85	3327.95
725.03	3110.86
725.21	3553.23
725.40	3657.67
725.58	3266.51
725.76	3493.83
725.94	3629.00
726.12	3213.26
726.30	3223.50
726.49	3143.63
726.67	3336.14
726.85	3594.19
727.03	3901.38
727.21	4837.30
727.39	5994.40
727.57	6444.96
727.76	6778.78
727.94	6834.07
728.12	5961.64
728.30	5060.53
728.48	4806.58
728.66	4542.39
728.84	4466.62
729.03	3936.20
729.21	3643.34
729.39	3557.32
729.57	3499.98
729.75	3577.80
729.93	3459.02
730.11	3174.35
730.30	3348.43
730.48	3377.10
730.66	3250.13
730.84	3254.22
731.02	3485.64
731.20	3260.37
731.38	3223.50
731.56	3049.43
731.74	3211.22
731.93	3551.18
732.11	3418.06
732.29	3211.22
732.47	3635.14
732.65	3545.03
732.83	3469.26
733.01	3340.24
733.19	3293.13
733.37	3553.23
733.56	3205.07
733.74	3039.19
733.92	3696.58
734.10	3381.20
734.28	3467.21
734.46	3037.14
734.64	3364.81
734.82	3327.95
735.00	3264.46
735.18	3172.30
735.36	3481.55
735.54	3403.72
735.73	3069.91
735.91	3321.81
736.09	3733.45
736.27	3364.81
736.45	3309.52
736.63	2885.59
736.81	3426.25
736.99	3639.24
737.17	3350.48
737.35	3131.34
737.53	3426.25
737.71	3315.66
737.89	3426.25
738.07	3157.97
738.25	3248.08
738.43	3157.97
738.61	3176.40
738.80	3065.81
738.98	3215.31
739.16	3344.33
739.34	3117.01
739.52	3520.46
739.70	3491.79
739.88	3655.62
740.06	3362.76
740.24	2881.49
740.42	3649.48
740.60	3026.90
740.78	3231.69
740.96	2975.70
741.14	3348.43
741.32	3430.35
741.50	3010.51
741.68	3479.50
741.86	3721.16
742.04	3192.78
742.22	3188.69
742.40	3262.41
742.58	3497.93
742.76	3295.18
742.94	3413.96
743.12	2998.23
743.30	3424.20
743.48	3508.17
743.66	3176.40
743.84	3243.98
744.02	3383.24
744.20	3397.58
744.38	3057.62
744.56	3262.41
744.74	3768.26
744.92	3565.51
745.10	3469.26
745.28	3256.27
745.46	3831.75
745.64	3373.00
745.82	3231.69
746.00	3090.38
746.18	3618.76
746.36	3219.41
746.54	3227.60
746.72	3272.65
746.90	3246.03
747.08	3733.45
747.26	3225.55
747.44	3282.89
747.62	3538.89
747.80	3553.23
747.98	3360.72
748.15	3221.45
748.33	3829.70
748.51	3467.21
748.69	3315.66
748.87	3080.14
749.05	3311.57
749.23	3436.49
749.41	3106.77
749.59	3166.16
749.77	3639.24
749.95	3327.95
750.13	3125.20
750.31	3309.52
750.49	3418.06
750.67	3573.71
750.85	3321.81
751.03	3272.65
751.20	3885.00
751.38	3487.69
751.56	3336.14
751.74	3307.47
751.92	3428.30
752.10	3149.78
752.28	3393.48
752.46	3184.59
752.64	3483.59
752.82	3315.66
753.00	3266.51
753.18	3065.81
753.35	3282.89
753.53	3389.39
753.71	3110.86
753.89	3280.85
754.07	3430.35
754.25	3643.34
754.43	3264.46
754.61	3057.62
754.79	3524.55
754.97	3321.81
755.14	3430.35
755.32	3110.86
755.50	3440.59
755.68	3485.64
755.86	3069.91
756.04	3098.58
756.22	2987.99
756.40	3692.49
756.57	3418.06
756.75	3123.15
756.93	3659.72
757.11	3649.48
757.29	3178.45
757.47	3098.58
757.65	3149.78
757.82	2983.89
758.00	3157.97
758.18	3119.06
758.36	3336.14
758.54	3717.06
758.72	3053.52
758.90	3327.95
759.07	3508.17
759.25	3200.98
759.43	3309.52
759.61	3033.04
759.79	4601.79
759.97	3557.32
760.15	3241.93
760.32	3254.22
760.50	3495.88
760.68	3788.74
760.86	3092.43
761.04	3377.10
761.22	3590.09
761.39	3508.17
761.57	3289.04
761.75	3211.22
761.93	3594.19
762.11	3401.68
762.28	3254.22
762.46	3106.77
762.64	3635.14
762.82	3117.01
763.00	3082.19
763.18	3475.40
763.35	3246.03
763.53	3592.14
763.71	3340.24
763.89	3125.20
764.07	3506.12
764.24	3452.88
764.42	3323.85
764.60	3221.45
764.78	3504.07
764.96	3577.80
765.13	3385.29
765.31	3119.06
765.49	3643.34
765.67	3141.58
765.84	3213.26
766.02	3104.72
766.20	3145.68
766.38	3497.93
766.56	3278.80
766.73	3330.00
766.91	3434.44
767.09	3397.58
767.27	3254.22
767.44	3131.34
767.62	3602.38
767.80	3409.87
767.98	3084.24
768.15	3149.78
768.33	3606.47
768.51	3614.66
768.69	3344.33
768.87	3198.93
769.04	3463.12
769.22	3985.35
769.40	3330.00
769.58	3364.81
769.75	3524.55
769.93	3762.12
770.11	3209.17
770.28	3059.67
770.46	3647.43
770.64	3481.55
770.82	3188.69
770.99	3162.06
771.17	3559.37
771.35	3379.15
771.53	3217.36
771.70	3198.93
771.88	3485.64
772.06	3405.77
772.23	3174.35
772.41	3250.13
772.59	3352.52
772.77	3196.88
772.94	3221.45
773.12	3239.89
773.30	3340.24
773.47	3475.40
773.65	3147.73
773.83	3393.48
774.01	3461.07
774.18	3053.52
774.36	3243.98
774.54	3086.29
774.71	3520.46
774.89	3155.92
775.07	3020.75
775.24	3168.21
775.42	3418.06
775.60	3901.38
775.78	3092.43
775.95	3096.53
776.13	3076.05
776.31	3074.00
776.48	3377.10
776.66	3385.29
776.84	3327.95
777.01	3243.98
777.19	3076.05
777.37	3149.78
777.54	3618.76
777.72	3780.55
777.90	3319.76
778.07	3225.55
778.25	4179.90
778.43	3661.77
778.60	3231.69
778.78	3352.52
778.96	3731.40
779.13	3207.12
779.31	3317.71
779.49	3227.60
779.66	3452.88
779.84	3440.59
780.01	3069.91
780.19	3153.87
780.37	3747.78
780.54	3657.67
780.72	3028.95
780.90	3256.27
781.07	3360.72
781.25	3297.23
781.43	3442.64
781.60	3174.35
781.78	3669.96
781.95	3473.36
782.13	3125.20
782.31	3127.25
782.48	3117.01
782.66	3438.54
782.83	3440.59
783.01	3327.95
783.19	3655.62
783.36	3413.96
783.54	3080.14
783.72	3233.74
783.89	3346.38
784.07	3499.98
784.24	3254.22
784.42	3356.62
784.60	3497.93
784.77	3530.70
784.95	2918.36
785.12	3127.25
785.30	3483.59
785.47	3182.54
785.65	3092.43
785.83	3295.18
786.00	3330.00
786.18	3518.41
786.35	3112.91
786.53	3065.81
786.71	3651.53
786.88	3512.27
787.06	3196.88
787.23	3270.61
787.41	3280.85
787.58	3395.53
787.76	3088.34
787.94	3221.45
788.11	3413.96
788.29	3223.50
788.46	3172.30
788.64	3090.38
788.81	3352.52
788.99	3196.88
789.16	3192.78
789.34	3164.11
789.52	3233.74
789.69	3389.39
789.87	2951.12
790.04	3108.82
790.22	3383.24
790.39	3911.62
790.57	3074.00
790.74	3094.48
790.92	3663.82
791.09	3024.85
791.27	3303.37
791.44	3262.41
791.62	3413.96
791.79	3571.66
791.97	3346.38
792.15	3518.41
792.32	3579.85
792.50	3614.66
792.67	3360.72
792.85	3483.59
793.02	3545.03
793.20	3393.48
793.37	3018.71
793.55	3106.77
793.72	3123.15
793.90	3573.71
794.07	3162.06
794.25	3223.50
794.42	3481.55
794.60	3373.00
794.77	3213.26
794.95	3346.38
795.12	3655.62
795.30	3278.80
795.47	2901.97
795.65	3459.02
795.82	3528.65
796.00	3311.57
796.17	3270.61
796.34	3094.48
796.52	3520.46
796.69	3604.42
796.87	3340.24
797.04	3330.00
797.22	3651.53
797.39	3542.99
797.57	3307.47
797.74	3250.13
797.92	3557.32
798.09	3295.18
798.27	3430.35
798.44	3076.05
798.62	3297.23
798.79	3475.40
798.96	3399.63
799.14	3278.80
799.31	3971.01
799.49	3475.40
799.66	3256.27
799.84	3196.88
800.01	3145.68
800.19	3430.35
800.36	2934.74
800.53	3243.98
800.71	3477.45
800.88	3731.40
801.06	3076.05
801.23	3184.59
801.41	3364.81
801.58	3334.09
801.75	3082.19
801.93	3274.70
802.10	3549.13
802.28	3360.72
802.45	3256.27
802.63	3258.32
802.80	3715.02
802.97	3362.76
803.15	3250.13
803.32	3164.11
803.50	3258.32
803.67	3286.99
803.84	3186.64
804.02	3422.16
804.19	3377.10
804.37	3024.85
804.54	3082.19
804.71	3198.93
804.89	3364.81
805.06	3233.74
805.24	3082.19
805.41	3006.42
805.58	3266.51
805.76	3919.81
805.93	3178.45
806.10	3381.20
806.28	3581.90
806.45	3520.46
806.63	3305.42
806.80	3278.80
806.97	3430.35
807.15	3452.88
807.32	3336.14
807.49	3213.26
807.67	3157.97
807.84	3446.73
808.01	3012.56
808.19	3317.71
808.36	3872.71
808.54	3307.47
808.71	3155.92
808.88	3192.78
809.06	3717.06
809.23	3813.32
809.40	3196.88
809.58	3114.96
809.75	3471.31
809.92	3180.50
810.10	3440.59
810.27	3170.26
810.44	3573.71
810.62	3653.58
810.79	3221.45
810.96	3223.50
811.14	3370.96
811.31	3489.74
811.48	3334.09
811.66	3239.89
811.83	3739.59
812.00	3454.92
812.18	3239.89
812.35	3534.79
812.52	3313.61
812.69	3280.85
812.87	3205.07
813.04	3180.50
813.21	3411.92
813.39	3205.07
813.56	3110.86
813.73	3452.88
813.91	3092.43
814.08	3362.76
814.25	3231.69
814.42	3037.14
814.60	3356.62
814.77	3475.40
814.94	3170.26
815.12	3276.75
815.29	3723.21
815.46	3266.51
815.63	3186.64
815.81	3155.92
815.98	3391.44
816.15	3368.91
816.33	3250.13
816.50	3174.35
816.67	3450.83
816.84	3344.33
817.02	3117.01
817.19	3250.13
817.36	3385.29
817.53	3430.35
817.71	3059.67
817.88	3160.02
818.05	3452.88
818.22	3346.38
818.40	3366.86
818.57	3133.39
818.74	3532.75
818.91	3434.44
819.09	3319.76
819.26	3319.76
819.43	3289.04
819.60	3315.66
819.78	3399.63
819.95	3188.69
820.12	3227.60
820.29	3749.83
820.47	3512.27
820.64	3074.00
820.81	3098.58
820.98	3237.84
821.15	3258.32
821.33	3311.57
821.50	3069.91
821.67	3545.03
821.84	3205.07
822.02	3149.78
822.19	3639.24
822.36	3327.95
822.53	3117.01
822.70	3043.28
822.88	3266.51
823.05	3766.21
823.22	3180.50
823.39	3217.36
823.56	3422.16
823.74	3872.71
823.91	2947.03
824.08	3057.62
824.25	3186.64
824.42	3778.50
824.60	3065.81
824.77	3258.32
824.94	3344.33
825.11	3575.75
825.28	3024.85
825.45	3264.46
825.63	3393.48
825.80	3340.24
825.97	3319.76
826.14	3209.17
826.31	3049.43
826.48	3551.18
826.66	3205.07
826.83	3139.54
827.00	3459.02
827.17	3237.84
827.34	3297.23
827.51	3096.53
827.69	3381.20
827.86	3045.33
828.03	3280.85
828.20	3221.45
828.37	3274.70
828.54	3526.60
828.71	3104.72
828.89	3227.60
829.06	3471.31
829.23	3794.89
829.40	3211.22
829.57	3166.16
829.74	3553.23
829.91	3272.65
830.09	3254.22
830.26	3381.20
830.43	3706.82
830.60	3368.91
830.77	3278.80
830.94	3395.53
831.11	3592.14
831.28	3364.81
831.46	3270.61
831.63	3235.79
831.80	3667.91
831.97	3303.37
832.14	3289.04
832.31	3250.13
832.48	3573.71
832.65	3633.10
832.82	3254.22
832.99	3213.26
833.17	3203.02
833.34	3770.31
833.51	3098.58
833.68	2959.31
833.85	3651.53
834.02	3280.85
834.19	3141.58
834.36	3231.69
834.53	3475.40
834.70	3737.54
834.87	3157.97
835.04	2879.44
835.22	3221.45
835.39	3438.54
835.56	2987.99
835.73	2963.41
835.90	3688.39
836.07	3233.74
836.24	3227.60
836.41	3059.67
836.58	3246.03
836.75	3606.47
836.92	2973.65
837.09	2936.79
837.26	3581.90
837.43	3424.20
837.60	2992.08
837.77	3098.58
837.94	3631.05
838.12	3782.60
838.29	2914.26
838.46	2885.59
838.63	3221.45
838.80	3758.02
838.97	3049.43
839.14	2947.03
839.31	3446.73
839.48	3536.84
839.65	3037.14
839.82	3155.92
839.99	3399.63
840.16	3405.77
840.33	2985.94
840.50	3063.76
840.67	3221.45
840.84	2871.25
841.01	3012.56
841.18	2889.68
841.35	3319.76
841.52	3540.94
841.69	3383.24
841.86	3108.82
842.03	3413.96
842.20	3567.56
842.37	2987.99
842.54	3082.19
842.71	3364.81
842.88	3123.15
843.05	3010.51
843.22	2992.08
843.39	3651.53
843.56	3262.41
843.73	3006.42
843.90	3106.77
844.07	3405.77
844.24	3653.58
844.41	3092.43
844.58	3043.28
844.75	3420.11
844.92	3532.75
845.09	3035.09
845.26	3127.25
845.43	3479.50
845.60	3356.62
845.77	3188.69
845.94	3090.38
846.10	3694.54
846.27	3078.10
846.44	2899.92
846.61	2842.58
846.78	3499.98
846.95	3676.10
847.12	2969.55
847.29	3035.09
847.46	3243.98
847.63	3612.62
847.80	2979.79
847.97	3076.05
848.14	3928.00
848.31	3373.00
848.48	2877.40
848.65	2957.27
848.82	3336.14
848.98	4065.22
849.15	3137.49
849.32	3157.97
849.49	3647.43
849.66	3409.87
849.83	2963.41
850.00	3000.27
850.17	3542.99
850.34	3262.41
850.51	2914.26
850.68	3088.34
850.85	3848.13
851.01	3420.11
851.18	2994.13
851.35	3043.28
851.52	3520.46
851.69	3770.31
851.86	3018.71
852.03	3024.85
852.20	3551.18
852.37	3452.88
852.53	2869.20
852.70	2910.16
852.87	3481.55
853.04	3545.03
853.21	3002.32
853.38	3305.42
853.55	3774.41
853.72	3669.96
853.89	2955.22
854.05	3041.23
854.22	3463.12
854.39	3327.95
854.56	2916.31
854.73	3231.69
854.90	3149.78
855.07	3512.27
855.23	2957.27
855.40	2920.40
855.57	3334.09
855.74	2983.89
855.91	3205.07
856.08	2830.29
856.25	3098.58
856.41	3319.76
856.58	3033.04
856.75	3059.67
856.92	3184.59
857.09	3553.23
857.26	2803.67
857.42	3106.77
857.59	3598.28
857.76	3360.72
857.93	2979.79
858.10	3002.32
858.27	3155.92
858.43	3448.78
858.60	2959.31
858.77	2852.82
858.94	3299.28
859.11	3649.48
859.27	3114.96
859.44	2949.08
859.61	3866.56
859.78	3585.99
859.95	3047.38
860.12	2914.26
860.28	3956.68
860.45	3815.37
860.62	2977.75
860.79	3129.30
860.95	3323.85
861.12	3164.11
861.29	2975.70
861.46	3022.80
861.63	3399.63
861.79	3477.45
861.96	2805.72
862.13	3018.71
862.30	3647.43
862.47	3286.99
862.63	2836.44
862.80	3067.86
862.97	3608.52
863.14	3520.46
863.30	3008.47
863.47	2973.65
863.64	3766.21
863.81	3493.83
863.97	2877.40
864.14	3098.58
864.31	3422.16
864.48	3504.07
864.65	3033.04
864.81	3065.81
864.98	3596.23
865.15	3676.10
865.32	2998.23
865.48	3145.68
865.65	3803.08
865.82	3350.48
865.98	3041.23
866.15	3076.05
866.32	3491.79
866.49	3297.23
866.65	3227.60
866.82	3084.24
866.99	3332.05
867.16	3332.05
867.32	3090.38
867.49	2934.74
867.66	3336.14
867.83	3377.10
867.99	2985.94
868.16	3037.14
868.33	3256.27
868.49	3463.12
868.66	3008.47
868.83	3080.14
868.99	3420.11
869.16	3426.25
869.33	3229.65
869.50	3182.54
869.66	3475.40
869.83	3291.09
870.00	2934.74
870.16	3172.30
870.33	3452.88
870.50	3639.24
870.66	3223.50
870.83	2994.13
871.00	3426.25
871.17	3542.99
871.33	3108.82
871.50	2967.51
871.67	3444.68
871.83	3360.72
872.00	3033.04
872.17	3039.19
872.33	3798.98
872.50	3696.58
872.67	2940.88
872.83	2985.94
873.00	3450.83
873.17	3346.38
873.33	3047.38
873.50	3004.37
873.67	3289.04
873.83	3235.79
874.00	3004.37
874.16	3164.11
874.33	3485.64
874.50	3121.10
874.66	2850.77
874.83	3215.31
875.00	3631.05
875.16	3786.69
875.33	3153.87
875.50	2805.72
875.66	3418.06
875.83	3473.36
875.99	3125.20
876.16	3127.25
876.33	3207.12
876.49	3385.29
876.66	3024.85
876.83	3190.74
876.99	3088.34
877.16	3413.96
877.32	2965.46
877.49	3014.61
877.66	3450.83
877.82	3786.69
877.99	3155.92
878.15	3436.49
878.32	3475.40
878.49	3461.07
878.65	3104.72
878.82	3297.23
878.98	3393.48
879.15	3721.16
879.32	3241.93
879.48	3160.02
879.65	3401.68
879.81	3381.20
879.98	3004.37
880.15	3076.05
880.31	3491.79
880.48	3254.22
880.64	3139.54
880.81	3176.40
880.97	3749.83
881.14	3626.95
881.31	3018.71
881.47	3180.50
881.64	3362.76
881.80	3069.91
881.97	3286.99
882.13	3026.90
882.30	3188.69
882.47	3346.38
882.63	3076.05
882.80	3063.76
882.96	3325.90
883.13	3651.53
883.29	3012.56
883.46	2987.99
883.62	3876.80
883.79	3489.74
883.95	3155.92
884.12	2914.26
884.29	3614.66
884.45	3489.74
884.62	2983.89
884.78	2975.70
884.95	3731.40
885.11	3131.34
885.28	3168.21
885.44	3098.58
885.61	3600.33
885.77	3680.20
885.94	3188.69
886.10	3074.00
886.27	3395.53
886.43	3725.26
886.60	3241.93
886.76	3096.53
886.93	3280.85
887.09	3426.25
887.26	2891.73
887.42	3135.44
887.59	3631.05
887.75	3850.18
887.92	3219.41
888.08	3076.05
888.25	3928.00
888.41	3569.61
888.58	3102.67
888.74	3026.90
888.91	3284.94
>>>>>End Processed Spectral Data<<<<<
