SpectraSuite Data File
++++++++++++++++++++++++++++++++++++
Date: Fri May 06 09:28:49 CEST 2016
User: root
Dark Spectrum Present: No
Reference Spectrum Present: No
Number of Sampled Component Spectra: 1
Spectrometers: USB4C02835
Integration Time (usec): 100000 (USB4C02835)
Spectra Averaged: 1 (USB4C02835)
Boxcar Smoothing: 0 (USB4C02835)
Correct for Electrical Dark: No (USB4C02835)
Strobe/Lamp Enabled: No (USB4C02835)
Correct for Detector Non-linearity: No (USB4C02835)
Correct for Stray Light: No (USB4C02835)
Number of Pixels in Processed Spectrum: 3648
>>>>>Begin Processed Spectral Data<<<<<
177.47	2402.27
177.69	2402.27
177.91	2402.27
178.13	2299.87
178.36	2303.96
178.58	3190.74
178.80	3176.40
179.02	3151.82
179.24	3207.12
179.46	2869.20
179.68	2947.03
179.90	3309.52
180.13	3463.12
180.35	2797.53
180.57	2889.68
180.79	3602.38
181.01	3459.02
181.23	2848.72
181.45	3084.24
181.67	3545.03
181.90	3643.34
182.12	3000.27
182.34	2779.09
182.56	3612.62
182.78	3569.61
183.00	2910.16
183.22	3043.28
183.44	3123.15
183.66	4052.93
183.89	3090.38
184.11	2944.98
184.33	3577.80
184.55	3749.83
184.77	2959.31
184.99	2942.93
185.21	3297.23
185.43	3993.54
185.65	2885.59
185.87	2953.17
186.10	3956.68
186.32	4005.83
186.54	3026.90
186.76	3053.52
186.98	3571.66
187.20	3456.97
187.42	3012.56
187.64	2920.40
187.86	3502.03
188.08	3717.06
188.30	2885.59
188.52	3076.05
188.75	3798.98
188.97	3698.63
189.19	2965.46
189.41	2947.03
189.63	3534.79
189.85	3366.86
190.07	2807.77
190.29	2838.48
190.51	3475.40
190.73	3196.88
190.95	3125.20
191.17	2983.89
191.39	3065.81
191.61	3274.70
191.84	2932.69
192.06	3117.01
192.28	3135.44
192.50	4097.99
192.72	3180.50
192.94	3000.27
193.16	3798.98
193.38	3614.66
193.60	2875.35
193.82	3213.26
194.04	3698.63
194.26	3563.47
194.48	2961.36
194.70	2897.88
194.92	3444.68
195.14	3710.92
195.36	2891.73
195.58	3065.81
195.80	3409.87
196.02	3346.38
196.24	2873.30
196.46	3024.85
196.69	3256.27
196.91	4036.55
197.13	3000.27
197.35	3067.86
197.57	3844.04
197.79	3600.33
198.01	3010.51
198.23	3090.38
198.45	3608.52
198.67	3190.74
198.89	2762.71
199.11	3016.66
199.33	3311.57
199.55	3074.00
199.77	2813.91
199.99	3100.62
200.21	3368.91
200.43	3600.33
200.65	2840.53
200.87	2803.67
201.09	3446.73
201.31	3377.10
201.53	2996.18
201.75	3002.32
201.97	3520.46
202.19	3352.52
202.41	3035.09
202.63	3117.01
202.85	3532.75
203.07	3575.75
203.29	2994.13
203.51	2818.00
203.73	3295.18
203.95	3991.49
204.17	2971.60
204.39	3178.45
204.61	3379.15
204.83	3391.44
205.05	3221.45
205.27	2926.55
205.49	3991.49
205.71	3397.58
205.93	2805.72
206.15	2863.06
206.37	3456.97
206.59	3389.39
206.81	2844.63
207.03	2912.21
207.25	3282.89
207.47	3588.04
207.69	3053.52
207.91	3131.34
208.13	3848.13
208.34	3336.14
208.56	2920.40
208.78	2983.89
209.00	3360.72
209.22	3370.96
209.44	2908.12
209.66	2922.45
209.88	3493.83
210.10	3463.12
210.32	2910.16
210.54	3041.23
210.76	3327.95
210.98	3645.38
211.20	2738.13
211.42	3139.54
211.64	3768.26
211.86	3569.61
212.08	3033.04
212.30	3067.86
212.52	3370.96
212.74	3555.27
212.96	3108.82
213.17	3069.91
213.39	3696.58
213.61	3786.69
213.83	2895.83
214.05	2756.57
214.27	3753.93
214.49	3151.82
214.71	2961.36
214.93	3076.05
215.15	3411.92
215.37	3635.14
215.59	2770.90
215.81	2981.84
216.03	3657.67
216.24	3571.66
216.46	2942.93
216.68	3010.51
216.90	3569.61
217.12	3727.30
217.34	2914.26
217.56	3102.67
217.78	3708.87
218.00	3631.05
218.22	2987.99
218.44	3037.14
218.66	3504.07
218.87	3901.38
219.09	3026.90
219.31	2985.94
219.53	3520.46
219.75	3297.23
219.97	3039.19
220.19	3018.71
220.41	3469.26
220.63	3811.27
220.85	2977.75
221.06	3051.47
221.28	3778.50
221.50	3588.04
221.72	2957.27
221.94	2852.82
222.16	3467.21
222.38	3542.99
222.60	2861.01
222.82	3012.56
223.03	3719.11
223.25	3311.57
223.47	2912.21
223.69	3168.21
223.91	3604.42
224.13	3467.21
224.35	2863.06
224.57	3168.21
224.78	3592.14
225.00	3239.89
225.22	3098.58
225.44	2885.59
225.66	3655.62
225.88	3409.87
226.10	3133.39
226.32	2977.75
226.53	3776.45
226.75	3360.72
226.97	3086.29
227.19	2955.22
227.41	3340.24
227.63	3323.85
227.85	2830.29
228.06	3022.80
228.28	3483.59
228.50	3655.62
228.72	2861.01
228.94	2940.88
229.16	3098.58
229.37	3239.89
229.59	2861.01
229.81	3246.03
230.03	3362.76
230.25	3233.74
230.47	2811.86
230.69	2922.45
230.90	3622.86
231.12	3291.09
231.34	3049.43
231.56	2994.13
231.78	3192.78
232.00	3370.96
232.21	3090.38
232.43	2983.89
232.65	3006.42
232.87	3545.03
233.09	2830.29
233.30	2901.97
233.52	3651.53
233.74	3536.84
233.96	2912.21
234.18	3194.83
234.40	3444.68
234.61	4003.78
234.83	2813.91
235.05	2971.60
235.27	4001.73
235.49	3725.26
235.70	2799.57
235.92	3002.32
236.14	3590.09
236.36	4061.12
236.58	2856.92
236.79	3063.76
237.01	3475.40
237.23	3549.13
237.45	3248.08
237.67	3078.10
237.88	3567.56
238.10	3862.47
238.32	2813.91
238.54	2983.89
238.76	3397.58
238.97	3305.42
239.19	2830.29
239.41	2981.84
239.63	3762.12
239.85	3280.85
240.06	2996.18
240.28	2963.41
240.50	3624.90
240.72	3491.79
240.93	2883.54
241.15	3047.38
241.37	3440.59
241.59	3784.65
241.81	2944.98
242.02	3008.47
242.24	3608.52
242.46	3653.58
242.68	2840.53
242.89	2901.97
243.11	3643.34
243.33	3379.15
243.55	2947.03
243.76	2955.22
243.98	3221.45
244.20	3467.21
244.42	2967.51
244.64	2955.22
244.85	3108.82
245.07	3270.61
245.29	2932.69
245.51	2981.84
245.72	3499.98
245.94	3674.06
246.16	2947.03
246.38	2959.31
246.59	3327.95
246.81	3291.09
247.03	2885.59
247.24	2889.68
247.46	3358.67
247.68	3461.07
247.90	2795.48
248.11	2981.84
248.33	3549.13
248.55	3438.54
248.77	3004.37
248.98	3082.19
249.20	3764.17
249.42	3522.51
249.64	2906.07
249.85	2912.21
250.07	3366.86
250.29	3561.42
250.50	2979.79
250.72	2881.49
250.94	3569.61
251.16	4042.69
251.37	2955.22
251.59	2959.31
251.81	3508.17
252.02	3841.99
252.24	2879.44
252.46	3119.06
252.68	3264.46
252.89	3309.52
253.11	2830.29
253.33	3119.06
253.54	3741.64
253.76	3213.26
253.98	2936.79
254.20	2881.49
254.41	3149.78
254.63	3368.91
254.85	2789.33
255.06	3059.67
255.28	3606.47
255.50	3370.96
255.71	2965.46
255.93	2811.86
256.15	3342.28
256.36	3557.32
256.58	2789.33
256.80	2881.49
257.02	3373.00
257.23	3448.78
257.45	2985.94
257.67	3049.43
257.88	3405.77
258.10	3569.61
258.32	2975.70
258.53	2942.93
258.75	3895.24
258.97	3260.37
259.18	2840.53
259.40	2891.73
259.62	3901.38
259.83	3788.74
260.05	2998.23
260.27	3868.61
260.48	3665.86
260.70	3278.80
260.92	2818.00
261.13	3000.27
261.35	3538.89
261.57	3633.10
261.78	2901.97
262.00	2930.64
262.22	3592.14
262.43	3264.46
262.65	2924.50
262.86	3030.99
263.08	3995.59
263.30	3469.26
263.51	2832.34
263.73	2932.69
263.95	3882.95
264.16	3254.22
264.38	2918.36
264.60	2951.12
264.81	3467.21
265.03	3766.21
265.25	3391.44
265.46	2942.93
265.68	3780.55
265.89	3577.80
266.11	2901.97
266.33	2934.74
266.54	3674.06
266.76	3598.28
266.98	3028.95
267.19	3209.17
267.41	3694.54
267.62	3534.79
267.84	2705.37
268.06	3119.06
268.27	3588.04
268.49	3755.97
268.70	3129.30
268.92	2955.22
269.14	3262.41
269.35	3119.06
269.57	3186.64
269.79	3069.91
270.00	3342.28
270.22	3885.00
270.43	2852.82
270.65	2826.20
270.87	3432.40
271.08	3602.38
271.30	3143.63
271.51	3000.27
271.73	3583.95
271.95	3725.26
272.16	2904.02
272.38	3114.96
272.59	3360.72
272.81	3563.47
273.02	2844.63
273.24	3000.27
273.46	3602.38
273.67	3235.79
273.89	2813.91
274.10	2942.93
274.32	3674.06
274.54	3493.83
274.75	3157.97
274.97	3088.34
275.18	3649.48
275.40	3532.75
275.61	3018.71
275.83	3221.45
276.05	3178.45
276.26	3475.40
276.48	3217.36
276.69	3264.46
276.91	3262.41
277.12	3729.35
277.34	3127.25
277.55	3203.02
277.77	3385.29
277.99	3456.97
278.20	3069.91
278.42	3059.67
278.63	3332.05
278.85	3223.50
279.06	3051.47
279.28	3188.69
279.49	3778.50
279.71	3573.71
279.93	3168.21
280.14	3112.91
280.36	3377.10
280.57	3696.58
280.79	3246.03
281.00	2987.99
281.22	3379.15
281.43	3737.54
281.65	2910.16
281.86	3000.27
282.08	3446.73
282.29	3966.92
282.51	2998.23
282.73	2992.08
282.94	3051.47
283.16	3631.05
283.37	3188.69
283.59	3117.01
283.80	3510.22
284.02	3391.44
284.23	3143.63
284.45	3125.20
284.66	3299.28
284.88	3286.99
285.09	3010.51
285.31	3188.69
285.52	3459.02
285.74	3112.91
285.95	3356.62
286.17	3143.63
286.38	3626.95
286.60	3278.80
286.81	3012.56
287.03	3002.32
287.24	3370.96
287.46	3600.33
287.67	3186.64
287.89	3346.38
288.10	3385.29
288.32	3467.21
288.53	3225.55
288.75	3223.50
288.96	3622.86
289.18	3291.09
289.39	3059.67
289.61	3229.65
289.82	3882.95
290.04	3985.35
290.25	3035.09
290.47	3188.69
290.68	3389.39
290.90	3692.49
291.11	2893.78
291.33	3223.50
291.54	3319.76
291.76	3330.00
291.97	3258.32
292.18	3157.97
292.40	3379.15
292.61	3311.57
292.83	3393.48
293.04	3166.16
293.26	3502.03
293.47	3344.33
293.69	3022.80
293.90	2975.70
294.12	3737.54
294.33	3428.30
294.55	3088.34
294.76	3237.84
294.97	3762.12
295.19	3897.28
295.40	3149.78
295.62	3141.58
295.83	3669.96
296.05	3336.14
296.26	3389.39
296.48	3074.00
296.69	3416.01
296.90	3430.35
297.12	3229.65
297.33	3286.99
297.55	3463.12
297.76	3506.12
297.98	3196.88
298.19	3284.94
298.41	3377.10
298.62	3254.22
298.83	3346.38
299.05	3237.84
299.26	3344.33
299.48	3262.41
299.69	3227.60
299.90	3059.67
300.12	3196.88
300.33	3567.56
300.55	3143.63
300.76	3143.63
300.98	3180.50
301.19	3559.37
301.40	3106.77
301.62	3086.29
301.83	3534.79
302.05	3446.73
302.26	3055.57
302.47	3223.50
302.69	3203.02
302.90	3362.76
303.12	2908.12
303.33	3256.27
303.54	3848.13
303.76	3370.96
303.97	2977.75
304.19	3291.09
304.40	3262.41
304.61	3508.17
304.83	3112.91
305.04	3180.50
305.26	3610.57
305.47	3358.67
305.68	3076.05
305.90	2957.27
306.11	3686.34
306.33	3364.81
306.54	2998.23
306.75	3104.72
306.97	3084.24
307.18	3268.56
307.39	3106.77
307.61	3250.13
307.82	3330.00
308.04	3575.75
308.25	3004.37
308.46	3315.66
308.68	3440.59
308.89	3483.59
309.10	3254.22
309.32	3180.50
309.53	3407.82
309.74	3581.90
309.96	3022.80
310.17	3200.98
310.39	3336.14
310.60	3549.13
310.81	3045.33
311.03	2938.84
311.24	3516.36
311.45	3477.45
311.67	3338.19
311.88	3217.36
312.09	3295.18
312.31	3321.81
312.52	2983.89
312.73	3078.10
312.95	3137.49
313.16	3194.83
313.37	3233.74
313.59	3291.09
313.80	3528.65
314.01	3794.89
314.23	3041.23
314.44	2996.18
314.65	3233.74
314.87	3305.42
315.08	3078.10
315.29	3069.91
315.51	3239.89
315.72	3160.02
315.93	3131.34
316.15	3114.96
316.36	3336.14
316.57	3485.64
316.79	3090.38
317.00	3053.52
317.21	3549.13
317.43	3278.80
317.64	3143.63
317.85	2947.03
318.07	3217.36
318.28	3327.95
318.49	3162.06
318.70	3239.89
318.92	3432.40
319.13	3418.06
319.34	3311.57
319.56	3026.90
319.77	3473.36
319.98	3493.83
320.20	3401.68
320.41	3291.09
320.62	3577.80
320.83	3270.61
321.05	3379.15
321.26	3157.97
321.47	3545.03
321.69	3745.73
321.90	3026.90
322.11	3016.66
322.32	3516.36
322.54	3790.79
322.75	3121.10
322.96	4163.52
323.18	3139.54
323.39	3069.91
323.60	2994.13
323.81	3233.74
324.03	3319.76
324.24	3411.92
324.45	3235.79
324.66	3037.14
324.88	3690.44
325.09	3733.45
325.30	3033.04
325.52	3057.62
325.73	3592.14
325.94	3311.57
326.15	3049.43
326.37	2936.79
326.58	3643.34
326.79	3755.97
327.00	3108.82
327.22	3024.85
327.43	3479.50
327.64	3180.50
327.85	3209.17
328.07	3221.45
328.28	3841.99
328.49	3385.29
328.70	3078.10
328.92	3082.19
329.13	3395.53
329.34	3583.95
329.55	3377.10
329.76	3315.66
329.98	3405.77
330.19	3772.36
330.40	3243.98
330.61	3248.08
330.83	3590.09
331.04	3268.56
331.25	3241.93
331.46	3174.35
331.68	3155.92
331.89	3680.20
332.10	3135.44
332.31	2983.89
332.52	3485.64
332.74	3766.21
332.95	2920.40
333.16	3135.44
333.37	3565.51
333.58	3270.61
333.80	3102.67
334.01	2822.10
334.22	3465.16
334.43	3272.65
334.64	3035.09
334.86	3090.38
335.07	3237.84
335.28	3762.12
335.49	3016.66
335.70	3186.64
335.92	3782.60
336.13	3891.14
336.34	3057.62
336.55	3082.19
336.76	3604.42
336.98	3057.62
337.19	3112.91
337.40	3221.45
337.61	3991.49
337.82	3338.19
338.04	3252.17
338.25	2932.69
338.46	3452.88
338.67	3442.64
338.88	3051.47
339.09	3004.37
339.31	3330.00
339.52	3149.78
339.73	2990.03
339.94	3160.02
340.15	3608.52
340.36	3385.29
340.58	3121.10
340.79	3010.51
341.00	3545.03
341.21	3205.07
341.42	3389.39
341.63	3121.10
341.85	3610.57
342.06	3459.02
342.27	3055.57
342.48	3227.60
342.69	3090.38
342.90	3573.71
343.12	3510.22
343.33	3086.29
343.54	3663.82
343.75	3774.41
343.96	3262.41
344.17	3065.81
344.38	3364.81
344.60	3180.50
344.81	3045.33
345.02	3080.14
345.23	3669.96
345.44	4032.45
345.65	3180.50
345.86	3182.54
346.07	3522.51
346.29	3237.84
346.50	3266.51
346.71	3239.89
346.92	3758.02
347.13	3928.00
347.34	3256.27
347.55	2963.41
347.76	3547.08
347.98	3147.73
348.19	3188.69
348.40	3229.65
348.61	3385.29
348.82	3725.26
349.03	3151.82
349.24	3026.90
349.45	3768.26
349.66	3033.04
349.88	3127.25
350.09	3102.67
350.30	3696.58
350.51	3747.78
350.72	3356.62
350.93	3102.67
351.14	3411.92
351.35	3510.22
351.56	3145.68
351.77	3180.50
351.99	3487.69
352.20	3745.73
352.41	3229.65
352.62	2887.64
352.83	3512.27
353.04	3516.36
353.25	3162.06
353.46	3051.47
353.67	3676.10
353.88	3127.25
354.09	2981.84
354.30	3170.26
354.52	3616.71
354.73	3454.92
354.94	2994.13
355.15	3209.17
355.36	3948.48
355.57	3280.85
355.78	3041.23
355.99	3092.43
356.20	3465.16
356.41	3637.19
356.62	3155.92
356.83	3164.11
357.04	3741.64
357.25	3133.39
357.46	3139.54
357.68	3057.62
357.89	3231.69
358.10	3495.88
358.31	3024.85
358.52	3076.05
358.73	3180.50
358.94	3188.69
359.15	3143.63
359.36	3217.36
359.57	3522.51
359.78	3319.76
359.99	3340.24
360.20	2967.51
360.41	3373.00
360.62	3626.95
360.83	3227.60
361.04	3141.58
361.25	3553.23
361.46	3844.04
361.67	3266.51
361.88	3096.53
362.09	3651.53
362.30	3493.83
362.51	2987.99
362.72	3186.64
362.93	3626.95
363.14	3581.90
363.35	3276.75
363.56	3055.57
363.78	3715.02
363.99	3676.10
364.20	3098.58
364.41	3235.79
364.62	3844.04
364.83	3549.13
365.04	3135.44
365.25	3061.71
365.46	3942.34
365.67	3311.57
365.88	3356.62
366.09	3102.67
366.30	3246.03
366.51	3481.55
366.72	3100.62
366.93	3026.90
367.14	3459.02
367.35	3704.78
367.56	3045.33
367.77	3213.26
367.98	3440.59
368.18	3577.80
368.39	3233.74
368.60	3119.06
368.81	3647.43
369.02	3483.59
369.23	3061.71
369.44	2944.98
369.65	3401.68
369.86	3532.75
370.07	3248.08
370.28	2973.65
370.49	3549.13
370.70	3469.26
370.91	3053.52
371.12	2942.93
371.33	3672.01
371.54	3319.76
371.75	3182.54
371.96	2856.92
372.17	3528.65
372.38	3428.30
372.59	3030.99
372.80	3065.81
373.01	3401.68
373.22	3454.92
373.43	3061.71
373.64	2965.46
373.85	3659.72
374.06	3833.80
374.26	3264.46
374.47	3221.45
374.68	3715.02
374.89	3483.59
375.10	3035.09
375.31	3125.20
375.52	3483.59
375.73	3532.75
375.94	2951.12
376.15	3170.26
376.36	3217.36
376.57	3352.52
376.78	3180.50
376.99	3125.20
377.20	3766.21
377.40	3387.34
377.61	3440.59
377.82	3074.00
378.03	3809.22
378.24	3639.24
378.45	3241.93
378.66	3162.06
378.87	3065.81
379.08	3135.44
379.29	3131.34
379.50	3227.60
379.71	3373.00
379.91	3542.99
380.12	3127.25
380.33	3332.05
380.54	3418.06
380.75	3504.07
380.96	3178.45
381.17	3166.16
381.38	3403.72
381.59	3459.02
381.80	3151.82
382.00	3272.65
382.21	3491.79
382.42	3794.89
382.63	3565.51
382.84	3268.56
383.05	3657.67
383.26	3762.12
383.47	3280.85
383.68	3014.61
383.88	3581.90
384.09	3436.49
384.30	3317.71
384.51	3239.89
384.72	3395.53
384.93	3153.87
385.14	3274.70
385.35	3436.49
385.55	3139.54
385.76	3655.62
385.97	3192.78
386.18	2959.31
386.39	3178.45
386.60	3352.52
386.81	3162.06
387.02	2951.12
387.22	3125.20
387.43	3592.14
387.64	3094.48
387.85	3405.77
388.06	3524.55
388.27	4390.84
388.48	7157.65
388.68	10887.00
388.89	13684.53
389.10	14870.30
389.31	14456.61
389.52	11634.51
389.73	10106.73
389.93	9543.53
390.14	8521.60
390.35	7944.07
390.56	7278.48
390.77	6236.06
390.98	4724.66
391.18	4079.55
391.39	3952.58
391.60	3426.25
391.81	3465.16
392.02	3098.58
392.23	3903.43
392.43	3436.49
392.64	3268.56
392.85	3256.27
393.06	3762.12
393.27	3481.55
393.47	3041.23
393.68	3239.89
393.89	3325.90
394.10	3739.59
394.31	3143.63
394.52	3030.99
394.72	3297.23
394.93	3684.30
395.14	2967.51
395.35	3250.13
395.56	3254.22
395.76	3446.73
395.97	3106.77
396.18	3332.05
396.39	3438.54
396.60	4116.42
396.80	3557.32
397.01	3393.48
397.22	3563.47
397.43	3542.99
397.64	3059.67
397.84	3164.11
398.05	3860.42
398.26	3315.66
398.47	3307.47
398.67	3424.20
398.88	3479.50
399.09	3600.33
399.30	3065.81
399.51	3168.21
399.71	3266.51
399.92	3526.60
400.13	3297.23
400.34	3190.74
400.54	3555.27
400.75	3688.39
400.96	3172.30
401.17	3459.02
401.37	3551.18
401.58	3362.76
401.79	3092.43
402.00	3239.89
402.21	4034.50
402.41	3540.94
402.62	3409.87
402.83	3545.03
403.04	3739.59
403.24	4241.34
403.45	3256.27
403.66	3422.16
403.87	3639.24
404.07	3712.97
404.28	3409.87
404.49	3385.29
404.70	3493.83
404.90	3553.23
405.11	3192.78
405.32	3221.45
405.52	3276.75
405.73	3266.51
405.94	3143.63
406.15	3325.90
406.35	3522.51
406.56	3639.24
406.77	3221.45
406.98	3160.02
407.18	3229.65
407.39	3749.83
407.60	3190.74
407.80	3211.22
408.01	3338.19
408.22	3647.43
408.43	3057.62
408.63	3233.74
408.84	3653.58
409.05	3633.10
409.25	3104.72
409.46	3200.98
409.67	3325.90
409.88	3303.37
410.08	3139.54
410.29	3160.02
410.50	3606.47
410.70	3542.99
410.91	3035.09
411.12	3284.94
411.32	3401.68
411.53	3225.55
411.74	3141.58
411.95	3246.03
412.15	3450.83
412.36	3555.27
412.57	3305.42
412.77	3237.84
412.98	3438.54
413.19	3286.99
413.39	3213.26
413.60	3104.72
413.81	3620.81
414.01	3215.31
414.22	3143.63
414.43	3407.82
414.63	3317.71
414.84	3659.72
415.05	3235.79
415.25	2967.51
415.46	3571.66
415.67	3299.28
415.87	3194.83
416.08	3049.43
416.29	3375.05
416.49	3604.42
416.70	3266.51
416.91	3133.39
417.11	3311.57
417.32	3686.34
417.53	3157.97
417.73	3252.17
417.94	3413.96
418.15	3444.68
418.35	3248.08
418.56	3149.78
418.77	3932.10
418.97	3456.97
419.18	3250.13
419.38	2844.63
419.59	3477.45
419.80	3706.82
420.00	3090.38
420.21	3200.98
420.42	3774.41
420.62	3522.51
420.83	3155.92
421.04	3166.16
421.24	3463.12
421.45	3594.19
421.65	3133.39
421.86	3164.11
422.07	3694.54
422.27	3588.04
422.48	3051.47
422.69	2965.46
422.89	3467.21
423.10	3344.33
423.30	3104.72
423.51	3256.27
423.72	3540.94
423.92	3592.14
424.13	3088.34
424.33	3309.52
424.54	3598.28
424.75	3465.16
424.95	3381.20
425.16	3088.34
425.36	3344.33
425.57	3717.06
425.78	3282.89
425.98	3303.37
426.19	3483.59
426.39	3248.08
426.60	3368.91
426.81	3344.33
427.01	3479.50
427.22	3270.61
427.42	3024.85
427.63	3131.34
427.83	3655.62
428.04	3768.26
428.25	3194.83
428.45	3252.17
428.66	3655.62
428.86	3442.64
429.07	3194.83
429.28	3198.93
429.48	3446.73
429.69	3274.70
429.89	3293.13
430.10	3168.21
430.30	3579.85
430.51	3637.19
430.71	3092.43
430.92	3299.28
431.13	3452.88
431.33	3569.61
431.54	3254.22
431.74	3305.42
431.95	3944.39
432.15	3278.80
432.36	3117.01
432.56	3254.22
432.77	3864.52
432.98	3721.16
433.18	3289.04
433.39	3010.51
433.59	3430.35
433.80	3928.00
434.00	3225.55
434.21	3262.41
434.41	3295.18
434.62	3973.06
434.82	3000.27
435.03	3112.91
435.23	3463.12
435.44	3030.99
435.64	3033.04
435.85	3211.22
436.06	3600.33
436.26	3608.52
436.47	3155.92
436.67	3098.58
436.88	3456.97
437.08	3672.01
437.29	3295.18
437.49	3334.09
437.70	3766.21
437.90	3407.82
438.11	3352.52
438.31	3143.63
438.52	3710.92
438.72	3700.68
438.93	3436.49
439.13	3254.22
439.34	3573.71
439.54	3286.99
439.75	3276.75
439.95	3237.84
440.16	3338.19
440.36	3475.40
440.57	3174.35
440.77	3180.50
440.98	3522.51
441.18	3629.00
441.39	3094.48
441.59	3008.47
441.80	3895.24
442.00	3411.92
442.21	3239.89
442.41	2996.18
442.62	3708.87
442.82	3321.81
443.02	3139.54
443.23	3176.40
443.43	3305.42
443.64	3635.14
443.84	3014.61
444.05	3246.03
444.25	3516.36
444.46	3260.37
444.66	3147.73
444.87	3424.20
445.07	3057.62
445.28	3383.24
445.48	3346.38
445.69	3180.50
445.89	4005.83
446.09	3350.48
446.30	3430.35
446.50	3553.23
446.71	5074.87
446.91	6023.08
447.12	6842.26
447.32	7253.91
447.53	7362.45
447.73	6145.95
447.93	5302.19
448.14	5261.23
448.34	5488.56
448.55	4411.32
448.75	4421.56
448.96	4143.04
449.16	4093.89
449.36	4081.60
449.57	3393.48
449.77	3289.04
449.98	3344.33
450.18	3569.61
450.39	3053.52
450.59	3373.00
450.79	3395.53
451.00	3360.72
451.20	3438.54
451.41	3147.73
451.61	3579.85
451.81	3397.58
452.02	3104.72
452.22	3125.20
452.43	3317.71
452.63	3276.75
452.84	3241.93
453.04	3061.71
453.24	3418.06
453.45	3338.19
453.65	3172.30
453.86	3164.11
454.06	3442.64
454.26	3493.83
454.47	3074.00
454.67	3307.47
454.87	3526.60
455.08	3401.68
455.28	3305.42
455.49	3325.90
455.69	3311.57
455.89	3962.82
456.10	3270.61
456.30	3102.67
456.51	3577.80
456.71	3491.79
456.91	3350.48
457.12	3174.35
457.32	3555.27
457.52	3198.93
457.73	3385.29
457.93	3409.87
458.14	3284.94
458.34	3090.38
458.54	3123.15
458.75	3110.86
458.95	3606.47
459.15	3508.17
459.36	3188.69
459.56	3149.78
459.76	3911.62
459.97	3499.98
460.17	3188.69
460.37	3225.55
460.58	3493.83
460.78	3532.75
460.99	3231.69
461.19	3145.68
461.39	3250.13
461.60	3354.57
461.80	3086.29
462.00	3067.86
462.21	3446.73
462.41	3272.65
462.61	2992.08
462.82	2901.97
463.02	3540.94
463.22	3391.44
463.43	3215.31
463.63	3018.71
463.83	3766.21
464.04	3487.69
464.24	3147.73
464.44	3121.10
464.64	3583.95
464.85	3549.13
465.05	3149.78
465.25	3082.19
465.46	3262.41
465.66	3590.09
465.86	3221.45
466.07	3149.78
466.27	3413.96
466.47	3082.19
466.68	2983.89
466.88	3319.76
467.08	3610.57
467.29	3676.10
467.49	3203.02
467.69	3295.18
467.89	3534.79
468.10	3383.24
468.30	3205.07
468.50	3297.23
468.71	3600.33
468.91	3086.29
469.11	3379.15
469.31	3280.85
469.52	3231.69
469.72	3737.54
469.92	3459.02
470.13	3227.60
470.33	3459.02
470.53	3418.06
470.73	3561.42
470.94	3909.57
471.14	4063.17
471.34	4599.74
471.54	4130.75
471.75	3837.89
471.95	3776.45
472.15	3786.69
472.36	3690.44
472.56	3583.95
472.76	3913.67
472.96	3864.52
473.17	3368.91
473.37	3211.22
473.57	3340.24
473.77	3622.86
473.98	3377.10
474.18	3074.00
474.38	4040.64
474.58	3401.68
474.79	2957.27
474.99	3266.51
475.19	3669.96
475.39	3200.98
475.60	3227.60
475.80	3102.67
476.00	3428.30
476.20	3401.68
476.41	3272.65
476.61	3241.93
476.81	3743.69
477.01	3213.26
477.21	3502.03
477.42	3297.23
477.62	3299.28
477.82	3643.34
478.02	3135.44
478.23	3143.63
478.43	3289.04
478.63	3422.16
478.83	3248.08
479.03	3207.12
479.24	3758.02
479.44	3919.81
479.64	3149.78
479.84	3018.71
480.04	3250.13
480.25	3565.51
480.45	3168.21
480.65	3114.96
480.85	3823.56
481.06	3303.37
481.26	3344.33
481.46	3114.96
481.66	3477.45
481.86	3323.85
482.06	3364.81
482.27	3190.74
482.47	3327.95
482.67	3590.09
482.87	3211.22
483.07	3264.46
483.28	3368.91
483.48	3151.82
483.68	3239.89
483.88	3041.23
484.08	2981.84
484.29	3147.73
484.49	3248.08
484.69	2944.98
484.89	3762.12
485.09	3663.82
485.29	3092.43
485.50	3311.57
485.70	3352.52
485.90	3647.43
486.10	3307.47
486.30	3123.15
486.50	3672.01
486.71	3516.36
486.91	3280.85
487.11	3262.41
487.31	3114.96
487.51	3573.71
487.71	3178.45
487.91	3121.10
488.12	3258.32
488.32	2959.31
488.52	3241.93
488.72	2869.20
488.92	3473.36
489.12	3647.43
489.32	3323.85
489.53	3117.01
489.73	3139.54
489.93	3868.61
490.13	3102.67
490.33	3000.27
490.53	3477.45
490.73	3706.82
490.94	3039.19
491.14	3321.81
491.34	3557.32
491.54	3524.55
491.74	4026.31
491.94	4444.09
492.14	5148.59
492.34	5226.42
492.54	4736.95
492.75	4089.79
492.95	4409.28
493.15	4192.19
493.35	3839.94
493.55	3774.41
493.75	3708.87
493.95	4007.87
494.15	3342.28
494.35	3344.33
494.56	3393.48
494.76	3252.17
494.96	3274.70
495.16	3168.21
495.36	3489.74
495.56	3479.50
495.76	3246.03
495.96	3100.62
496.16	3286.99
496.36	3895.24
496.56	3131.34
496.77	3248.08
496.97	3422.16
497.17	3790.79
497.37	2977.75
497.57	3327.95
497.77	3502.03
497.97	3194.83
498.17	3174.35
498.37	3231.69
498.57	3508.17
498.77	3409.87
498.97	3295.18
499.17	3540.94
499.38	3397.58
499.58	3538.89
499.78	3327.95
499.98	3330.00
500.18	3405.77
500.38	3221.45
500.58	3327.95
500.78	3825.61
500.98	6068.13
501.18	7645.07
501.38	9082.74
501.58	9994.09
501.78	10106.73
501.98	8341.38
502.18	7004.05
502.38	6082.47
502.58	6328.22
502.78	5527.47
502.98	5167.03
503.18	4949.94
503.38	4691.90
503.59	4208.58
503.79	4059.07
503.99	3762.12
504.19	3958.72
504.39	3954.63
504.59	3629.00
504.79	3530.70
504.99	3991.49
505.19	3614.66
505.39	3323.85
505.59	3469.26
505.79	3835.85
505.99	3639.24
506.19	3215.31
506.39	3418.06
506.59	3385.29
506.79	3405.77
506.99	3381.20
507.19	3139.54
507.39	3461.07
507.59	3160.02
507.79	3180.50
507.99	3200.98
508.19	3340.24
508.39	3385.29
508.59	3172.30
508.79	3297.23
508.99	3878.85
509.19	3211.22
509.39	3340.24
509.59	3002.32
509.79	3389.39
509.99	3403.72
510.19	3350.48
510.39	3311.57
510.59	3491.79
510.79	3418.06
510.99	2973.65
511.19	3065.81
511.39	3823.56
511.59	3610.57
511.79	3274.70
511.99	3147.73
512.19	3844.04
512.38	3446.73
512.58	3033.04
512.78	3049.43
512.98	3749.83
513.18	3841.99
513.38	3067.86
513.58	3243.98
513.78	3407.82
513.98	3311.57
514.18	3198.93
514.38	3190.74
514.58	3487.69
514.78	3336.14
514.98	3061.71
515.18	3198.93
515.38	3123.15
515.58	3854.28
515.78	3147.73
515.98	3225.55
516.18	3516.36
516.38	3459.02
516.57	3168.21
516.77	3114.96
516.97	3612.62
517.17	3375.05
517.37	2901.97
517.57	3237.84
517.77	3520.46
517.97	3305.42
518.17	3233.74
518.37	3041.23
518.57	3336.14
518.77	3426.25
518.97	3180.50
519.16	3192.78
519.36	3753.93
519.56	3344.33
519.76	3157.97
519.96	3196.88
520.16	3739.59
520.36	3182.54
520.56	3332.05
520.76	3119.06
520.96	3356.62
521.16	3659.72
521.35	3358.67
521.55	3291.09
521.75	3416.01
521.95	3389.39
522.15	3096.53
522.35	3000.27
522.55	3377.10
522.75	3567.56
522.95	3022.80
523.14	3020.75
523.34	3413.96
523.54	3313.61
523.74	3262.41
523.94	3213.26
524.14	3082.19
524.34	3518.41
524.54	3438.54
524.73	3248.08
524.93	3551.18
525.13	3436.49
525.33	3035.09
525.53	3446.73
525.73	3667.91
525.93	3495.88
526.13	3274.70
526.32	3135.44
526.52	3647.43
526.72	3522.51
526.92	3119.06
527.12	3063.76
527.32	3102.67
527.52	3571.66
527.71	3198.93
527.91	3217.36
528.11	3352.52
528.31	3379.15
528.51	3078.10
528.71	3289.04
528.90	3631.05
529.10	3674.06
529.30	3221.45
529.50	2848.72
529.70	3567.56
529.90	3323.85
530.09	3133.39
530.29	3018.71
530.49	3323.85
530.69	3971.01
530.89	3383.24
531.09	3237.84
531.28	3203.02
531.48	3676.10
531.68	3213.26
531.88	3166.16
532.08	3577.80
532.28	3440.59
532.47	3221.45
532.67	3352.52
532.87	3563.47
533.07	3182.54
533.27	3131.34
533.46	3237.84
533.66	3487.69
533.86	3370.96
534.06	3229.65
534.26	3123.15
534.45	3375.05
534.65	3696.58
534.85	3274.70
535.05	3094.48
535.25	3645.38
535.44	3106.77
535.64	3186.64
535.84	3200.98
536.04	3282.89
536.24	3295.18
536.43	3123.15
536.63	3090.38
536.83	3342.28
537.03	3356.62
537.22	2938.84
537.42	3014.61
537.62	3585.99
537.82	3239.89
538.02	3442.64
538.21	3192.78
538.41	4122.56
538.61	3551.18
538.81	3176.40
539.00	3370.96
539.20	3137.49
539.40	3420.11
539.60	3123.15
539.79	3389.39
539.99	3416.01
540.19	3200.98
540.39	3143.63
540.58	3168.21
540.78	3708.87
540.98	3450.83
541.18	3346.38
541.37	3196.88
541.57	3418.06
541.77	3440.59
541.97	3106.77
542.16	3026.90
542.36	3352.52
542.56	3647.43
542.76	3311.57
542.95	3270.61
543.15	3559.37
543.35	3588.04
543.54	3182.54
543.74	3069.91
543.94	3848.13
544.14	3284.94
544.33	3276.75
544.53	3194.83
544.73	3276.75
544.93	3377.10
545.12	3178.45
545.32	3166.16
545.52	3459.02
545.71	3196.88
545.91	3184.59
546.11	3014.61
546.30	3157.97
546.50	3442.64
546.70	3237.84
546.90	3229.65
547.09	3096.53
547.29	3424.20
547.49	3373.00
547.68	3141.58
547.88	3237.84
548.08	3559.37
548.27	3405.77
548.47	3180.50
548.67	3323.85
548.87	3450.83
549.06	3151.82
549.26	3022.80
549.46	3526.60
549.65	3319.76
549.85	3254.22
550.05	3254.22
550.24	3155.92
550.44	3463.12
550.64	3241.93
550.83	3250.13
551.03	3850.18
551.23	3729.35
551.42	3254.22
551.62	3235.79
551.82	3438.54
552.01	3385.29
552.21	3434.44
552.41	3246.03
552.60	3784.65
552.80	3430.35
553.00	3061.71
553.19	3223.50
553.39	3772.36
553.59	3108.82
553.78	3278.80
553.98	3147.73
554.17	3184.59
554.37	3545.03
554.57	3303.37
554.76	3030.99
554.96	3311.57
555.16	3450.83
555.35	3334.09
555.55	3377.10
555.75	3487.69
555.94	3592.14
556.14	3028.95
556.33	3215.31
556.53	3393.48
556.73	3401.68
556.92	3190.74
557.12	3016.66
557.32	3903.43
557.51	3762.12
557.71	3184.59
557.90	3364.81
558.10	3694.54
558.30	3360.72
558.49	3231.69
558.69	3123.15
558.88	3526.60
559.08	3450.83
559.28	3194.83
559.47	3223.50
559.67	3575.75
559.86	3827.65
560.06	3133.39
560.26	3219.41
560.45	3510.22
560.65	3469.26
560.84	3448.78
561.04	3086.29
561.24	3561.42
561.43	3155.92
561.63	3393.48
561.82	3373.00
562.02	3641.29
562.22	3207.12
562.41	3198.93
562.61	3098.58
562.80	3256.27
563.00	4003.78
563.19	3276.75
563.39	3254.22
563.59	3473.36
563.78	3237.84
563.98	2977.75
564.17	3098.58
564.37	3098.58
564.56	3424.20
564.76	3074.00
564.96	3315.66
565.15	3450.83
565.35	3975.11
565.54	3182.54
565.74	3295.18
565.93	3532.75
566.13	3495.88
566.32	3260.37
566.52	3282.89
566.71	3471.31
566.91	3657.67
567.11	3262.41
567.30	3061.71
567.50	3536.84
567.69	3465.16
567.89	3141.58
568.08	3041.23
568.28	3430.35
568.47	3155.92
568.67	3203.02
568.86	3219.41
569.06	3647.43
569.25	3356.62
569.45	3074.00
569.64	3241.93
569.84	3303.37
570.04	3459.02
570.23	3151.82
570.43	3196.88
570.62	3475.40
570.82	3794.89
571.01	3094.48
571.21	3168.21
571.40	3348.43
571.60	3583.95
571.79	3221.45
571.99	3155.92
572.18	3262.41
572.38	3573.71
572.57	3229.65
572.77	3356.62
572.96	3999.68
573.16	3559.37
573.35	3221.45
573.55	3286.99
573.74	3368.91
573.94	3436.49
574.13	3157.97
574.33	3309.52
574.52	3755.97
574.71	3446.73
574.91	3235.79
575.10	3082.19
575.30	3311.57
575.49	3289.04
575.69	3045.33
575.88	3084.24
576.08	3370.96
576.27	3567.56
576.47	3049.43
576.66	3313.61
576.86	3815.37
577.05	3471.31
577.25	3229.65
577.44	3383.24
577.64	3413.96
577.83	3624.90
578.02	3102.67
578.22	3323.85
578.41	3827.65
578.61	3342.28
578.80	2977.75
579.00	3106.77
579.19	3434.44
579.39	3559.37
579.58	3270.61
579.77	3223.50
579.97	3698.63
580.16	3651.53
580.36	3344.33
580.55	3176.40
580.75	3495.88
580.94	3434.44
581.13	3338.19
581.33	3409.87
581.52	3385.29
581.72	3897.28
581.91	3250.13
582.11	3090.38
582.30	3602.38
582.49	3463.12
582.69	3536.84
582.88	3231.69
583.08	3430.35
583.27	3629.00
583.47	3411.92
583.66	3086.29
583.85	3250.13
584.05	3409.87
584.24	3352.52
584.44	3190.74
584.63	3631.05
584.82	3692.49
585.02	3403.72
585.21	3362.76
585.41	3606.47
585.60	3502.03
585.79	3362.76
585.99	3493.83
586.18	3520.46
586.37	4442.04
586.57	6608.80
586.76	18474.73
586.96	36996.56
587.15	49544.46
587.34	57687.18
587.54	61289.56
587.73	53837.00
587.93	38620.59
588.12	29507.13
588.31	24491.66
588.51	21980.85
588.70	20240.08
588.89	17846.00
589.09	15197.98
589.28	13266.74
589.47	10403.68
589.67	7858.06
589.86	6111.14
590.06	4999.09
590.25	4526.01
590.44	3921.86
590.64	3573.71
590.83	3672.01
591.02	3737.54
591.22	3147.73
591.41	3243.98
591.60	3370.96
591.80	4009.92
591.99	3037.14
592.18	3131.34
592.38	3721.16
592.57	3297.23
592.76	3188.69
592.96	3327.95
593.15	3483.59
593.34	3684.30
593.54	3182.54
593.73	3356.62
593.92	3530.70
594.12	3622.86
594.31	3307.47
594.50	3327.95
594.70	3590.09
594.89	4126.66
595.08	3096.53
595.28	3309.52
595.47	4001.73
595.66	3733.45
595.86	3168.21
596.05	3030.99
596.24	3270.61
596.43	3768.26
596.63	3209.17
596.82	3350.48
597.01	3585.99
597.21	3801.03
597.40	3149.78
597.59	3217.36
597.79	3389.39
597.98	3530.70
598.17	3297.23
598.36	3246.03
598.56	3631.05
598.75	3276.75
598.94	3272.65
599.14	3252.17
599.33	3332.05
599.52	3598.28
599.71	3205.07
599.91	3221.45
600.10	3534.79
600.29	3452.88
600.48	3272.65
600.68	3313.61
600.87	3481.55
601.06	3231.69
601.26	3252.17
601.45	3403.72
601.64	3321.81
601.83	3745.73
602.03	3057.62
602.22	3037.14
602.41	3696.58
602.60	4028.35
602.80	3250.13
602.99	3411.92
603.18	3389.39
603.37	3436.49
603.57	3106.77
603.76	3276.75
603.95	3715.02
604.14	3243.98
604.34	3174.35
604.53	3172.30
604.72	3444.68
604.91	3583.95
605.10	3121.10
605.30	3106.77
605.49	3932.10
605.68	3606.47
605.87	3215.31
606.07	3143.63
606.26	3450.83
606.45	3557.32
606.64	3143.63
606.84	3114.96
607.03	3438.54
607.22	3659.72
607.41	3229.65
607.60	3114.96
607.80	3620.81
607.99	3424.20
608.18	3127.25
608.37	3186.64
608.56	3268.56
608.76	3706.82
608.95	3366.86
609.14	3182.54
609.33	3663.82
609.52	3721.16
609.72	3311.57
609.91	3303.37
610.10	3495.88
610.29	3647.43
610.48	3356.62
610.68	3379.15
610.87	3356.62
611.06	3553.23
611.25	3200.98
611.44	3338.19
611.63	3356.62
611.83	3665.86
612.02	3182.54
612.21	3241.93
612.40	3045.33
612.59	3188.69
612.79	3125.20
612.98	3250.13
613.17	3790.79
613.36	3356.62
613.55	3291.09
613.74	3186.64
613.93	3416.01
614.13	3499.98
614.32	3332.05
614.51	3170.26
614.70	3344.33
614.89	3334.09
615.08	3284.94
615.28	3579.85
615.47	3293.13
615.66	3563.47
615.85	3182.54
616.04	3270.61
616.23	3461.07
616.42	3362.76
616.62	3176.40
616.81	3213.26
617.00	3528.65
617.19	3542.99
617.38	3088.34
617.57	3278.80
617.76	3577.80
617.95	3637.19
618.15	3348.43
618.34	3422.16
618.53	3137.49
618.72	3729.35
618.91	3258.32
619.10	3295.18
619.29	3340.24
619.48	3434.44
619.68	3090.38
619.87	3123.15
620.06	3098.58
620.25	3534.79
620.44	3164.11
620.63	3160.02
620.82	3516.36
621.01	3477.45
621.20	3145.68
621.39	3305.42
621.59	3471.31
621.78	3477.45
621.97	3213.26
622.16	3286.99
622.35	3590.09
622.54	3600.33
622.73	3235.79
622.92	2975.70
623.11	3745.73
623.30	3391.44
623.49	3370.96
623.68	3078.10
623.88	3733.45
624.07	3286.99
624.26	3033.04
624.45	3164.11
624.64	3366.86
624.83	3575.75
625.02	3217.36
625.21	3194.83
625.40	3448.78
625.59	3794.89
625.78	3254.22
625.97	3270.61
626.16	3731.40
626.35	3622.86
626.54	3209.17
626.74	3362.76
626.93	3258.32
627.12	3428.30
627.31	3237.84
627.50	3231.69
627.69	3553.23
627.88	3196.88
628.07	3094.48
628.26	2944.98
628.45	3200.98
628.64	3231.69
628.83	3129.30
629.02	3018.71
629.21	3643.34
629.40	3403.72
629.59	3035.09
629.78	3117.01
629.97	3407.82
630.16	3446.73
630.35	3188.69
630.54	3295.18
630.73	3307.47
630.92	3481.55
631.11	3063.76
631.30	3149.78
631.49	3635.14
631.68	3385.29
631.87	3174.35
632.06	3053.52
632.25	3874.76
632.44	3330.00
632.63	3213.26
632.82	3239.89
633.01	3334.09
633.20	3364.81
633.39	3157.97
633.58	2983.89
633.77	3485.64
633.96	3502.03
634.15	3276.75
634.34	3180.50
634.53	3467.21
634.72	3336.14
634.91	3033.04
635.10	3186.64
635.29	3590.09
635.48	3450.83
635.67	3061.71
635.86	3051.47
636.05	3774.41
636.24	3411.92
636.43	3114.96
636.62	3196.88
636.81	2852.82
637.00	3508.17
637.19	3160.02
637.38	3196.88
637.57	3330.00
637.76	3381.20
637.95	3389.39
638.14	3389.39
638.33	3436.49
638.52	3508.17
638.71	3061.71
638.89	3086.29
639.08	4018.11
639.27	3608.52
639.46	3356.62
639.65	3592.14
639.84	3985.35
640.03	3991.49
640.22	3571.66
640.41	3575.75
640.60	3485.64
640.79	3545.03
640.98	3364.81
641.17	3366.86
641.36	3645.38
641.55	3629.00
641.74	3012.56
641.92	3057.62
642.11	3295.18
642.30	3418.06
642.49	3069.91
642.68	3200.98
642.87	3549.13
643.06	3555.27
643.25	3084.24
643.44	3014.61
643.63	3436.49
643.82	3590.09
644.00	3051.47
644.19	3225.55
644.38	3233.74
644.57	3626.95
644.76	3157.97
644.95	3217.36
645.14	3549.13
645.33	3491.79
645.52	3266.51
645.71	2992.08
645.89	3246.03
646.08	3370.96
646.27	3207.12
646.46	3383.24
646.65	3168.21
646.84	3475.40
647.03	3114.96
647.22	3260.37
647.40	3489.74
647.59	3323.85
647.78	2979.79
647.97	3203.02
648.16	3260.37
648.35	3772.36
648.54	3397.58
648.73	3217.36
648.91	3538.89
649.10	3471.31
649.29	3135.44
649.48	3131.34
649.67	3461.07
649.86	3483.59
650.05	3256.27
650.23	3401.68
650.42	3340.24
650.61	3655.62
650.80	3387.34
650.99	3426.25
651.18	3604.42
651.36	3639.24
651.55	3065.81
651.74	3409.87
651.93	3327.95
652.12	3387.34
652.31	3223.50
652.49	3192.78
652.68	3270.61
652.87	3819.46
653.06	3233.74
653.25	3403.72
653.44	3475.40
653.62	3762.12
653.81	3217.36
654.00	3213.26
654.19	3639.24
654.38	4050.88
654.56	3303.37
654.75	3108.82
654.94	3569.61
655.13	3538.89
655.32	3246.03
655.51	3235.79
655.69	3233.74
655.88	3698.63
656.07	3106.77
656.26	3155.92
656.45	3200.98
656.63	3444.68
656.82	3131.34
657.01	3452.88
657.20	3237.84
657.38	3790.79
657.57	3082.19
657.76	2961.36
657.95	3622.86
658.14	3321.81
658.32	3246.03
658.51	3033.04
658.70	3491.79
658.89	3555.27
659.08	3239.89
659.26	3340.24
659.45	3213.26
659.64	3526.60
659.83	3188.69
660.01	3588.04
660.20	3489.74
660.39	3762.12
660.58	2869.20
660.76	3229.65
660.95	3143.63
661.14	3571.66
661.33	2975.70
661.51	3258.32
661.70	3311.57
661.89	3532.75
662.08	3194.83
662.26	3094.48
662.45	3227.60
662.64	3819.46
662.83	3215.31
663.01	2996.18
663.20	3319.76
663.39	3743.69
663.58	3280.85
663.76	3184.59
663.95	3622.86
664.14	3166.16
664.32	3342.28
664.51	3012.56
664.70	3033.04
664.89	3483.59
665.07	3043.28
665.26	3319.76
665.45	3119.06
665.64	3534.79
665.82	3133.39
666.01	3282.89
666.20	3160.02
666.38	3704.78
666.57	3497.93
666.76	5615.53
666.95	12650.30
667.13	18810.59
667.32	22128.30
667.51	25122.43
667.69	25495.16
667.88	20719.30
668.07	15361.81
668.25	13135.67
668.44	11589.46
668.63	10194.79
668.81	8925.05
669.00	7710.60
669.19	7186.32
669.38	6309.79
669.56	5324.72
669.75	4708.28
669.94	4310.97
670.12	3747.78
670.31	3416.01
670.50	3389.39
670.68	3680.20
670.87	3504.07
671.06	3102.67
671.24	3252.17
671.43	3704.78
671.62	3442.64
671.80	3188.69
671.99	3313.61
672.18	3469.26
672.36	3655.62
672.55	3282.89
672.74	3323.85
672.92	3442.64
673.11	3569.61
673.29	3016.66
673.48	3330.00
673.67	3364.81
673.85	3669.96
674.04	3131.34
674.23	3270.61
674.41	3833.80
674.60	3155.92
674.79	2930.64
674.97	2969.55
675.16	3676.10
675.34	3676.10
675.53	3121.10
675.72	3215.31
675.90	3829.70
676.09	3426.25
676.28	3268.56
676.46	3067.86
676.65	3559.37
676.83	3332.05
677.02	3252.17
677.21	3241.93
677.39	3469.26
677.58	3246.03
677.77	3192.78
677.95	3139.54
678.14	3356.62
678.32	3420.11
678.51	3280.85
678.70	3618.76
678.88	3286.99
679.07	3518.41
679.25	3188.69
679.44	3246.03
679.63	3174.35
679.81	3469.26
680.00	3483.59
680.18	3213.26
680.37	3782.60
680.55	3538.89
680.74	3117.01
680.93	2996.18
681.11	3540.94
681.30	3434.44
681.48	3139.54
681.67	3205.07
681.85	3420.11
682.04	3264.46
682.23	3284.94
682.41	3366.86
682.60	3317.71
682.78	3370.96
682.97	3076.05
683.15	3317.71
683.34	3549.13
683.53	3766.21
683.71	3137.49
683.90	3215.31
684.08	3790.79
684.27	3330.00
684.45	3252.17
684.64	3373.00
684.82	3430.35
685.01	3585.99
685.19	3131.34
685.38	3557.32
685.57	3446.73
685.75	3231.69
685.94	3114.96
686.12	3098.58
686.31	3303.37
686.49	3770.31
686.68	2928.60
686.86	3256.27
687.05	3362.76
687.23	3792.84
687.42	3217.36
687.60	3014.61
687.79	3610.57
687.97	3815.37
688.16	3381.20
688.34	3424.20
688.53	3117.01
688.71	3526.60
688.90	3512.27
689.08	3160.02
689.27	3135.44
689.45	3604.42
689.64	3360.72
689.82	3323.85
690.01	3545.03
690.19	3510.22
690.38	3172.30
690.56	3291.09
690.75	3299.28
690.93	3286.99
691.12	3194.83
691.30	3162.06
691.49	3246.03
691.67	3473.36
691.86	3514.31
692.04	3229.65
692.23	3340.24
692.41	3469.26
692.60	3573.71
692.78	3297.23
692.97	3479.50
693.15	3477.45
693.34	3489.74
693.52	3348.43
693.71	3387.34
693.89	3336.14
694.08	3024.85
694.26	3293.13
694.44	3680.20
694.63	3487.69
694.81	3090.38
695.00	3172.30
695.18	3680.20
695.37	3975.11
695.55	3309.52
695.74	3270.61
695.92	3340.24
696.10	3735.50
696.29	3127.25
696.47	3254.22
696.66	3145.68
696.84	3219.41
697.03	3149.78
697.21	3477.45
697.40	4820.92
697.58	3647.43
697.76	3139.54
697.95	3229.65
698.13	3286.99
698.32	3385.29
698.50	3186.64
698.68	3233.74
698.87	3491.79
699.05	3801.03
699.24	3239.89
699.42	3184.59
699.61	3551.18
699.79	3491.79
699.97	3241.93
700.16	3119.06
700.34	3196.88
700.53	3594.19
700.71	3424.20
700.89	3344.33
701.08	3342.28
701.26	3465.16
701.45	3540.94
701.63	3180.50
701.81	3295.18
702.00	3256.27
702.18	3338.19
702.37	3170.26
702.55	3680.20
702.73	3403.72
702.92	3155.92
703.10	3477.45
703.28	3516.36
703.47	3258.32
703.65	3325.90
703.84	3338.19
704.02	3286.99
704.20	3715.02
704.39	3200.98
704.57	3127.25
704.75	3489.74
704.94	3495.88
705.12	3397.58
705.30	4030.40
705.49	8130.44
705.67	14489.38
705.86	19412.70
706.04	21468.86
706.22	23705.24
706.41	22298.28
706.59	16434.95
706.77	13299.51
706.96	11839.31
707.14	10909.53
707.32	9308.02
707.51	8183.68
707.69	6686.62
707.87	5949.35
708.06	4788.15
708.24	4276.16
708.42	4018.11
708.61	4151.23
708.79	3248.08
708.97	3303.37
709.16	3624.90
709.34	3352.52
709.52	3203.02
709.71	3237.84
709.89	3514.31
710.07	3225.55
710.26	3139.54
710.44	3157.97
710.62	3610.57
710.80	3385.29
710.99	3344.33
711.17	3266.51
711.35	3299.28
711.54	3319.76
711.72	3397.58
711.90	3254.22
712.09	3440.59
712.27	3330.00
712.45	3307.47
712.63	3190.74
712.82	3567.56
713.00	3450.83
713.18	3305.42
713.37	3360.72
713.55	3692.49
713.73	3606.47
713.91	3282.89
714.10	3188.69
714.28	3430.35
714.46	3497.93
714.65	3393.48
714.83	3250.13
715.01	3403.72
715.19	3426.25
715.38	3125.20
715.56	3395.53
715.74	3237.84
715.92	3248.08
716.11	3504.07
716.29	2879.44
716.47	3411.92
716.65	3393.48
716.84	3059.67
717.02	3198.93
717.20	3133.39
717.38	3278.80
717.57	3385.29
717.75	3278.80
717.93	3391.44
718.11	3532.75
718.30	3086.29
718.48	3254.22
718.66	3723.21
718.84	3647.43
719.03	3264.46
719.21	3033.04
719.39	3878.85
719.57	3553.23
719.75	3243.98
719.94	3104.72
720.12	3385.29
720.30	3491.79
720.48	3264.46
720.67	3233.74
720.85	3235.79
721.03	3268.56
721.21	3188.69
721.39	3299.28
721.58	3569.61
721.76	3452.88
721.94	3254.22
722.12	3360.72
722.30	3737.54
722.49	3336.14
722.67	3176.40
722.85	3229.65
723.03	3162.06
723.21	3358.67
723.40	3286.99
723.58	3354.57
723.76	3551.18
723.94	3700.68
724.12	3172.30
724.30	3524.55
724.49	3590.09
724.67	3231.69
724.85	3250.13
725.03	3129.30
725.21	3516.36
725.40	3735.50
725.58	3211.22
725.76	3436.49
725.94	3547.08
726.12	3229.65
726.30	3270.61
726.49	3194.83
726.67	3377.10
726.85	3618.76
727.03	3940.29
727.21	4788.15
727.39	6145.95
727.57	6555.55
727.76	6700.95
727.94	6727.58
728.12	5838.76
728.30	4999.09
728.48	4757.43
728.66	4583.35
728.84	4331.45
729.03	3993.54
729.21	3657.67
729.39	3477.45
729.57	3536.84
729.75	3545.03
729.93	3413.96
730.11	3168.21
730.30	3368.91
730.48	3346.38
730.66	3239.89
730.84	3323.85
731.02	3405.77
731.20	3295.18
731.38	3266.51
731.56	3078.10
731.74	3131.34
731.93	3508.17
732.11	3383.24
732.29	3127.25
732.47	3557.32
732.65	3413.96
732.83	3379.15
733.01	3311.57
733.19	3286.99
733.37	3653.58
733.56	3196.88
733.74	3123.15
733.92	3807.17
734.10	3418.06
734.28	3352.52
734.46	3020.75
734.64	3336.14
734.82	3327.95
735.00	3213.26
735.18	3125.20
735.36	3463.12
735.54	3352.52
735.73	3203.02
735.91	3344.33
736.09	3807.17
736.27	3405.77
736.45	3278.80
736.63	2920.40
736.81	3450.83
736.99	3602.38
737.17	3420.11
737.35	3100.62
737.53	3495.88
737.71	3373.00
737.89	3452.88
738.07	3131.34
738.25	3323.85
738.43	3119.06
738.61	3182.54
738.80	3004.37
738.98	3280.85
739.16	3336.14
739.34	3194.83
739.52	3592.14
739.70	3395.53
739.88	3635.14
740.06	3366.86
740.24	2901.97
740.42	3749.83
740.60	3096.53
740.78	3178.45
740.96	3020.75
741.14	3332.05
741.32	3467.21
741.50	3024.85
741.68	3424.20
741.86	3774.41
742.04	3203.02
742.22	3125.20
742.40	3172.30
742.58	3542.99
742.76	3315.66
742.94	3442.64
743.12	2998.23
743.30	3348.43
743.48	3499.98
743.66	3141.58
743.84	3227.60
744.02	3274.70
744.20	3383.24
744.38	3125.20
744.56	3258.32
744.74	3893.19
744.92	3559.37
745.10	3395.53
745.28	3211.22
745.46	3831.75
745.64	3360.72
745.82	3295.18
746.00	3174.35
746.18	3561.42
746.36	3205.07
746.54	3266.51
746.72	3215.31
746.90	3229.65
747.08	3663.82
747.26	3196.88
747.44	3319.76
747.62	3506.12
747.80	3526.60
747.98	3243.98
748.15	3198.93
748.33	3846.09
748.51	3426.25
748.69	3289.04
748.87	3203.02
749.05	3332.05
749.23	3442.64
749.41	3125.20
749.59	3098.58
749.77	3602.38
749.95	3356.62
750.13	3198.93
750.31	3493.83
750.49	3502.03
750.67	3733.45
750.85	3338.19
751.03	3067.86
751.20	3868.61
751.38	3409.87
751.56	3299.28
751.74	3217.36
751.92	3452.88
752.10	3186.64
752.28	3381.20
752.46	3139.54
752.64	3422.16
752.82	3456.97
753.00	3325.90
753.18	3139.54
753.35	3286.99
753.53	3336.14
753.71	3133.39
753.89	3184.59
754.07	3516.36
754.25	3737.54
754.43	3336.14
754.61	3131.34
754.79	3561.42
754.97	3362.76
755.14	3377.10
755.32	3164.11
755.50	3411.92
755.68	3473.36
755.86	3125.20
756.04	3112.91
756.22	3123.15
756.40	3639.24
756.57	3321.81
756.75	3174.35
756.93	3672.01
757.11	3590.09
757.29	3108.82
757.47	3200.98
757.65	3119.06
757.82	2975.70
758.00	3043.28
758.18	3155.92
758.36	3305.42
758.54	3819.46
758.72	3071.95
758.90	3289.04
759.07	3499.98
759.25	3241.93
759.43	3319.76
759.61	3010.51
759.79	4663.22
759.97	3686.34
760.15	3219.41
760.32	3160.02
760.50	3542.99
760.68	3796.93
760.86	3043.28
761.04	3389.39
761.22	3579.85
761.39	3475.40
761.57	3272.65
761.75	3135.44
761.93	3571.66
762.11	3418.06
762.28	3303.37
762.46	3200.98
762.64	3688.39
762.82	3178.45
763.00	3219.41
763.18	3442.64
763.35	3147.73
763.53	3653.58
763.71	3321.81
763.89	3188.69
764.07	3405.77
764.24	3393.48
764.42	3323.85
764.60	3241.93
764.78	3485.64
764.96	3614.66
765.13	3450.83
765.31	3065.81
765.49	3604.42
765.67	3196.88
765.84	3182.54
766.02	3123.15
766.20	3022.80
766.38	3387.34
766.56	3217.36
766.73	3291.09
766.91	3409.87
767.09	3561.42
767.27	3123.15
767.44	3020.75
767.62	3577.80
767.80	3598.28
767.98	3143.63
768.15	3198.93
768.33	3518.41
768.51	3614.66
768.69	3248.08
768.87	3143.63
769.04	3475.40
769.22	3987.40
769.40	3358.67
769.58	3379.15
769.75	3518.41
769.93	3710.92
770.11	3164.11
770.28	3080.14
770.46	3600.33
770.64	3559.37
770.82	3153.87
770.99	3110.86
771.17	3571.66
771.35	3297.23
771.53	3276.75
771.70	3209.17
771.88	3606.47
772.06	3401.68
772.23	3143.63
772.41	3256.27
772.59	3418.06
772.77	3164.11
772.94	3254.22
773.12	3348.43
773.30	3289.04
773.47	3530.70
773.65	3119.06
773.83	3432.40
774.01	3495.88
774.18	3006.42
774.36	3176.40
774.54	3012.56
774.71	3497.93
774.89	3110.86
775.07	3106.77
775.24	3088.34
775.42	3295.18
775.60	3821.51
775.78	3176.40
775.95	3114.96
776.13	3213.26
776.31	3030.99
776.48	3338.19
776.66	3430.35
776.84	3315.66
777.01	3174.35
777.19	3131.34
777.37	3069.91
777.54	3583.95
777.72	3788.74
777.90	3262.41
778.07	3168.21
778.25	4093.89
778.43	3600.33
778.60	3219.41
778.78	3237.84
778.96	3729.35
779.13	3139.54
779.31	3297.23
779.49	3264.46
779.66	3520.46
779.84	3364.81
780.01	3129.30
780.19	3147.73
780.37	3567.56
780.54	3518.41
780.72	2977.75
780.90	3286.99
781.07	3334.09
781.25	3336.14
781.43	3315.66
781.60	3237.84
781.78	3610.57
781.95	3512.27
782.13	3219.41
782.31	3084.24
782.48	3008.47
782.66	3389.39
782.83	3391.44
783.01	3325.90
783.19	3606.47
783.36	3385.29
783.54	3106.77
783.72	3313.61
783.89	3354.57
784.07	3477.45
784.24	3360.72
784.42	3262.41
784.60	3450.83
784.77	3479.50
784.95	2947.03
785.12	3205.07
785.30	3467.21
785.47	3233.74
785.65	3178.45
785.83	3188.69
786.00	3248.08
786.18	3434.44
786.35	3117.01
786.53	3102.67
786.71	3606.47
786.88	3547.08
787.06	3229.65
787.23	3278.80
787.41	3129.30
787.58	3385.29
787.76	3133.39
787.94	3186.64
788.11	3518.41
788.29	3227.60
788.46	3207.12
788.64	3016.66
788.81	3409.87
788.99	3270.61
789.16	3172.30
789.34	3233.74
789.52	3295.18
789.69	3325.90
789.87	3014.61
790.04	3147.73
790.22	3383.24
790.39	3774.41
790.57	3102.67
790.74	3086.29
790.92	3569.61
791.09	3139.54
791.27	3266.51
791.44	3227.60
791.62	3344.33
791.79	3676.10
791.97	3276.75
792.15	3577.80
792.32	3528.65
792.50	3499.98
792.67	3401.68
792.85	3538.89
793.02	3475.40
793.20	3313.61
793.37	3026.90
793.55	3082.19
793.72	3143.63
793.90	3551.18
794.07	3153.87
794.25	3155.92
794.42	3454.92
794.60	3407.82
794.77	3252.17
794.95	3258.32
795.12	3622.86
795.30	3379.15
795.47	2996.18
795.65	3506.12
795.82	3538.89
796.00	3274.70
796.17	3254.22
796.34	3098.58
796.52	3540.94
796.69	3710.92
796.87	3243.98
797.04	3368.91
797.22	3624.90
797.39	3477.45
797.57	3309.52
797.74	3295.18
797.92	3573.71
798.09	3282.89
798.27	3444.68
798.44	3162.06
798.62	3264.46
798.79	3469.26
798.96	3321.81
799.14	3219.41
799.31	4020.16
799.49	3426.25
799.66	3219.41
799.84	3133.39
800.01	3127.25
800.19	3459.02
800.36	3045.33
800.53	3278.80
800.71	3553.23
800.88	3696.58
801.06	3133.39
801.23	3147.73
801.41	3307.47
801.58	3323.85
801.75	3209.17
801.93	3209.17
802.10	3540.94
802.28	3413.96
802.45	3215.31
802.63	3196.88
802.80	3798.98
802.97	3377.10
803.15	3186.64
803.32	3205.07
803.50	3286.99
803.67	3295.18
803.84	3131.34
804.02	3289.04
804.19	3323.85
804.37	2959.31
804.54	3106.77
804.71	3114.96
804.89	3409.87
805.06	3254.22
805.24	3086.29
805.41	3026.90
805.58	3323.85
805.76	3973.06
805.93	3133.39
806.10	3319.76
806.28	3551.18
806.45	3493.83
806.63	3346.38
806.80	3295.18
806.97	3528.65
807.15	3549.13
807.32	3311.57
807.49	3157.97
807.67	3203.02
807.84	3526.60
808.01	3088.34
808.19	3368.91
808.36	3946.44
808.54	3264.46
808.71	3131.34
808.88	3123.15
809.06	3774.41
809.23	3827.65
809.40	3274.70
809.58	3188.69
809.75	3356.62
809.92	3153.87
810.10	3418.06
810.27	3162.06
810.44	3506.12
810.62	3516.36
810.79	3301.33
810.96	3149.78
811.14	3352.52
811.31	3598.28
811.48	3383.24
811.66	3278.80
811.83	3641.29
812.00	3526.60
812.18	3313.61
812.35	3487.69
812.52	3442.64
812.69	3248.08
812.87	3123.15
813.04	3100.62
813.21	3452.88
813.39	3192.78
813.56	3166.16
813.73	3481.55
813.91	3149.78
814.08	3475.40
814.25	3139.54
814.42	3010.51
814.60	3483.59
814.77	3487.69
814.94	3147.73
815.12	3260.37
815.29	3893.19
815.46	3356.62
815.63	3223.50
815.81	3145.68
815.98	3395.53
816.15	3407.82
816.33	3340.24
816.50	3205.07
816.67	3438.54
816.84	3473.36
817.02	3078.10
817.19	3213.26
817.36	3499.98
817.53	3637.19
817.71	3076.05
817.88	3160.02
818.05	3377.10
818.22	3373.00
818.40	3418.06
818.57	3106.77
818.74	3534.79
818.91	3336.14
819.09	3315.66
819.26	3364.81
819.43	3291.09
819.60	3323.85
819.78	3397.58
819.95	3223.50
820.12	3123.15
820.29	3708.87
820.47	3383.24
820.64	3200.98
820.81	3065.81
820.98	3274.70
821.15	3229.65
821.33	3311.57
821.50	3090.38
821.67	3631.05
821.84	3168.21
822.02	3213.26
822.19	3620.81
822.36	3373.00
822.53	3182.54
822.70	3114.96
822.88	3299.28
823.05	3839.94
823.22	3264.46
823.39	3182.54
823.56	3450.83
823.74	3749.83
823.91	3041.23
824.08	3114.96
824.25	3176.40
824.42	3727.30
824.60	2963.41
824.77	3370.96
824.94	3344.33
825.11	3540.94
825.28	3053.52
825.45	3346.38
825.63	3413.96
825.80	3196.88
825.97	3215.31
826.14	3217.36
826.31	3164.11
826.48	3545.03
826.66	3223.50
826.83	3188.69
827.00	3309.52
827.17	3205.07
827.34	3239.89
827.51	3129.30
827.69	3409.87
827.86	3110.86
828.03	3192.78
828.20	3258.32
828.37	3293.13
828.54	3604.42
828.71	3094.48
828.89	3262.41
829.06	3340.24
829.23	3688.39
829.40	3246.03
829.57	3155.92
829.74	3547.08
829.91	3291.09
830.09	3069.91
830.26	3401.68
830.43	3725.26
830.60	3317.71
830.77	3258.32
830.94	3407.82
831.11	3626.95
831.28	3327.95
831.46	3321.81
831.63	3198.93
831.80	3588.04
831.97	3231.69
832.14	3299.28
832.31	3282.89
832.48	3528.65
832.65	3661.77
832.82	3377.10
832.99	3319.76
833.17	3205.07
833.34	3721.16
833.51	3112.91
833.68	3000.27
833.85	3639.24
834.02	3211.22
834.19	3117.01
834.36	3123.15
834.53	3487.69
834.70	3573.71
834.87	3243.98
835.04	2998.23
835.22	3282.89
835.39	3450.83
835.56	3006.42
835.73	3117.01
835.90	3710.92
836.07	3254.22
836.24	3180.50
836.41	3004.37
836.58	3246.03
836.75	3583.95
836.92	3045.33
837.09	2994.13
837.26	3608.52
837.43	3528.65
837.60	3000.27
837.77	3039.19
837.94	3604.42
838.12	3721.16
838.29	2928.60
838.46	2953.17
838.63	3145.68
838.80	3680.20
838.97	3016.66
839.14	2959.31
839.31	3467.21
839.48	3534.79
839.65	2990.03
839.82	3127.25
839.99	3373.00
840.16	3459.02
840.33	2934.74
840.50	2992.08
840.67	3346.38
840.84	2957.27
841.01	2959.31
841.18	3028.95
841.35	3391.44
841.52	3600.33
841.69	3356.62
841.86	3012.56
842.03	3409.87
842.20	3790.79
842.37	3012.56
842.54	3141.58
842.71	3395.53
842.88	3057.62
843.05	3051.47
843.22	2969.55
843.39	3499.98
843.56	3344.33
843.73	3022.80
843.90	3047.38
844.07	3442.64
844.24	3649.48
844.41	3145.68
844.58	3041.23
844.75	3411.92
844.92	3534.79
845.09	3090.38
845.26	3061.71
845.43	3577.80
845.60	3295.18
845.77	3166.16
845.94	3137.49
846.10	3577.80
846.27	3147.73
846.44	2861.01
846.61	2883.54
846.78	3540.94
846.95	3635.14
847.12	2932.69
847.29	3065.81
847.46	3188.69
847.63	3663.82
847.80	2963.41
847.97	3014.61
848.14	3880.90
848.31	3272.65
848.48	2889.68
848.65	2953.17
848.82	3284.94
848.98	3975.11
849.15	3121.10
849.32	3112.91
849.49	3667.91
849.66	3438.54
849.83	2953.17
850.00	3000.27
850.17	3596.23
850.34	3409.87
850.51	2936.79
850.68	3049.43
850.85	3903.43
851.01	3512.27
851.18	2897.88
851.35	3170.26
851.52	3489.74
851.69	3794.89
851.86	3004.37
852.03	2969.55
852.20	3583.95
852.37	3467.21
852.53	2889.68
852.70	2934.74
852.87	3504.07
853.04	3602.38
853.21	2947.03
853.38	3311.57
853.55	3747.78
853.72	3721.16
853.89	2832.34
854.05	2983.89
854.22	3452.88
854.39	3352.52
854.56	2975.70
854.73	3164.11
854.90	3278.80
855.07	3389.39
855.23	2887.64
855.40	2897.88
855.57	3420.11
855.74	2926.55
855.91	3157.97
856.08	2832.34
856.25	3155.92
856.41	3286.99
856.58	2996.18
856.75	3057.62
856.92	3190.74
857.09	3598.28
857.26	2775.00
857.42	3049.43
857.59	3592.14
857.76	3356.62
857.93	2942.93
858.10	3078.10
858.27	3221.45
858.43	3493.83
858.60	3078.10
858.77	2938.84
858.94	3266.51
859.11	3661.77
859.27	3086.29
859.44	2897.88
859.61	3942.34
859.78	3536.84
859.95	2965.46
860.12	3002.32
860.28	3817.41
860.45	3811.27
860.62	2906.07
860.79	3065.81
860.95	3385.29
861.12	3272.65
861.29	2971.60
861.46	2985.94
861.63	3438.54
861.79	3434.44
861.96	2869.20
862.13	2996.18
862.30	3725.26
862.47	3262.41
862.63	2830.29
862.80	3063.76
862.97	3717.06
863.14	3499.98
863.30	3059.67
863.47	2951.12
863.64	3712.97
863.81	3459.02
863.97	2852.82
864.14	3028.95
864.31	3319.76
864.48	3518.41
864.65	2983.89
864.81	3182.54
864.98	3477.45
865.15	3663.82
865.32	3141.58
865.48	3104.72
865.65	3821.51
865.82	3348.43
865.98	2994.13
866.15	3076.05
866.32	3469.26
866.49	3305.42
866.65	3219.41
866.82	2992.08
866.99	3389.39
867.16	3260.37
867.32	3035.09
867.49	2928.60
867.66	3422.16
867.83	3313.61
867.99	2879.44
868.16	3049.43
868.33	3239.89
868.49	3471.31
868.66	3053.52
868.83	3172.30
868.99	3422.16
869.16	3522.51
869.33	3250.13
869.50	3082.19
869.66	3422.16
869.83	3393.48
870.00	2914.26
870.16	3129.30
870.33	3381.20
870.50	3641.29
870.66	3088.34
870.83	2983.89
871.00	3373.00
871.17	3450.83
871.33	3074.00
871.50	2951.12
871.67	3346.38
871.83	3155.92
872.00	3174.35
872.17	3100.62
872.33	3794.89
872.50	3753.93
872.67	2963.41
872.83	2983.89
873.00	3534.79
873.17	3401.68
873.33	3090.38
873.50	3090.38
873.67	3319.76
873.83	3323.85
874.00	2992.08
874.16	3096.53
874.33	3481.55
874.50	3229.65
874.66	2955.22
874.83	3127.25
875.00	3626.95
875.16	3665.86
875.33	3086.29
875.50	2764.76
875.66	3311.57
875.83	3532.75
875.99	3067.86
876.16	3133.39
876.33	3231.69
876.49	3346.38
876.66	3033.04
876.83	3055.57
876.99	3084.24
877.16	3416.01
877.32	2977.75
877.49	3143.63
877.66	3542.99
877.82	3739.59
877.99	3104.72
878.15	3289.04
878.32	3481.55
878.49	3465.16
878.65	3168.21
878.82	3291.09
878.98	3313.61
879.15	3663.82
879.32	3266.51
879.48	3260.37
879.65	3409.87
879.81	3327.95
879.98	3065.81
880.15	3123.15
880.31	3553.23
880.48	3143.63
880.64	3174.35
880.81	3092.43
880.97	3827.65
881.14	3712.97
881.31	2967.51
881.47	3229.65
881.64	3368.91
881.80	3092.43
881.97	3235.79
882.13	3043.28
882.30	3180.50
882.47	3254.22
882.63	2940.88
882.80	2957.27
882.96	3401.68
883.13	3590.09
883.29	3010.51
883.46	3018.71
883.62	3936.20
883.79	3444.68
883.95	3151.82
884.12	2934.74
884.29	3651.53
884.45	3420.11
884.62	3020.75
884.78	2922.45
884.95	3751.88
885.11	3276.75
885.28	3102.67
885.44	3024.85
885.61	3569.61
885.77	3741.64
885.94	3157.97
886.10	3065.81
886.27	3475.40
886.43	3774.41
886.60	3254.22
886.76	3053.52
886.93	3157.97
887.09	3479.50
887.26	2967.51
887.42	3096.53
887.59	3639.24
887.75	4009.92
887.92	3278.80
888.08	3098.58
888.25	3835.85
888.41	3647.43
888.58	3104.72
888.74	2953.17
888.91	3317.71
>>>>>End Processed Spectral Data<<<<<
