SpectraSuite Data File
++++++++++++++++++++++++++++++++++++
Date: Fri May 06 09:28:47 CEST 2016
User: root
Dark Spectrum Present: No
Reference Spectrum Present: No
Number of Sampled Component Spectra: 1
Spectrometers: USB4C02835
Integration Time (usec): 100000 (USB4C02835)
Spectra Averaged: 1 (USB4C02835)
Boxcar Smoothing: 0 (USB4C02835)
Correct for Electrical Dark: No (USB4C02835)
Strobe/Lamp Enabled: No (USB4C02835)
Correct for Detector Non-linearity: No (USB4C02835)
Correct for Stray Light: No (USB4C02835)
Number of Pixels in Processed Spectrum: 3648
>>>>>Begin Processed Spectral Data<<<<<
177.47	2336.73
177.69	2336.73
177.91	2336.73
178.13	2326.49
178.36	2299.87
178.58	3225.55
178.80	3246.03
179.02	3141.58
179.24	3286.99
179.46	2840.53
179.68	2828.24
179.90	3340.24
180.13	3559.37
180.35	2729.94
180.57	2897.88
180.79	3639.24
181.01	3397.58
181.23	2955.22
181.45	3137.49
181.67	3581.90
181.90	3633.10
182.12	3074.00
182.34	2832.34
182.56	3600.33
182.78	3483.59
183.00	2944.98
183.22	2910.16
183.44	3090.38
183.66	4057.03
183.89	3127.25
184.11	2901.97
184.33	3565.51
184.55	3604.42
184.77	2955.22
184.99	2914.26
185.21	3352.52
185.43	4147.14
185.65	3012.56
185.87	2906.07
186.10	4014.02
186.32	3999.68
186.54	3151.82
186.76	3014.61
186.98	3704.78
187.20	3434.44
187.42	2992.08
187.64	2906.07
187.86	3565.51
188.08	3737.54
188.30	2883.54
188.52	2990.03
188.75	3751.88
188.97	3682.25
189.19	2836.44
189.41	2914.26
189.63	3545.03
189.85	3368.91
190.07	2895.83
190.29	2824.15
190.51	3459.02
190.73	3192.78
190.95	3157.97
191.17	3016.66
191.39	3069.91
191.61	3346.38
191.84	2944.98
192.06	3086.29
192.28	3178.45
192.50	4157.38
192.72	3098.58
192.94	3022.80
193.16	3758.02
193.38	3618.76
193.60	2799.57
193.82	3196.88
194.04	3686.34
194.26	3463.12
194.48	3022.80
194.70	2904.02
194.92	3459.02
195.14	3786.69
195.36	2887.64
195.58	3049.43
195.80	3418.06
196.02	3309.52
196.24	2928.60
196.46	3076.05
196.69	3321.81
196.91	3846.09
197.13	2990.03
197.35	2951.12
197.57	3809.22
197.79	3663.82
198.01	3024.85
198.23	3041.23
198.45	3592.14
198.67	3215.31
198.89	2740.18
199.11	3127.25
199.33	3278.80
199.55	3000.27
199.77	2924.50
199.99	3139.54
200.21	3368.91
200.43	3506.12
200.65	2789.33
200.87	2746.33
201.09	3479.50
201.31	3409.87
201.53	3024.85
201.75	3049.43
201.97	3549.13
202.19	3512.27
202.41	3026.90
202.63	3024.85
202.85	3616.71
203.07	3516.36
203.29	3139.54
203.51	2772.95
203.73	3274.70
203.95	4032.45
204.17	2838.48
204.39	3047.38
204.61	3434.44
204.83	3401.68
205.05	3076.05
205.27	2947.03
205.49	3925.96
205.71	3387.34
205.93	2830.29
206.15	2904.02
206.37	3418.06
206.59	3391.44
206.81	2807.77
207.03	2881.49
207.25	3268.56
207.47	3655.62
207.69	2914.26
207.91	3172.30
208.13	3850.18
208.34	3336.14
208.56	2914.26
208.78	3037.14
209.00	3354.57
209.22	3297.23
209.44	3041.23
209.66	2916.31
209.88	3475.40
210.10	3479.50
210.32	3006.42
210.54	3092.43
210.76	3307.47
210.98	3706.82
211.20	2811.86
211.42	3082.19
211.64	3708.87
211.86	3585.99
212.08	3033.04
212.30	2987.99
212.52	3313.61
212.74	3540.94
212.96	3059.67
213.17	3033.04
213.39	3678.15
213.61	3889.09
213.83	2934.74
214.05	2813.91
214.27	3780.55
214.49	3319.76
214.71	2881.49
214.93	3082.19
215.15	3522.51
215.37	3637.19
215.59	2764.76
215.81	2983.89
216.03	3692.49
216.24	3352.52
216.46	2959.31
216.68	2985.94
216.90	3567.56
217.12	3686.34
217.34	2875.35
217.56	3246.03
217.78	3876.80
218.00	3606.47
218.22	3030.99
218.44	3041.23
218.66	3516.36
218.87	3788.74
219.09	3084.24
219.31	3008.47
219.53	3598.28
219.75	3317.71
219.97	2961.36
220.19	2979.79
220.41	3416.01
220.63	3819.46
220.85	3012.56
221.06	2983.89
221.28	3753.93
221.50	3583.95
221.72	2922.45
221.94	2852.82
222.16	3442.64
222.38	3581.90
222.60	3022.80
222.82	3004.37
223.03	3606.47
223.25	3170.26
223.47	2959.31
223.69	3168.21
223.91	3622.86
224.13	3456.97
224.35	2840.53
224.57	3086.29
224.78	3557.32
225.00	3182.54
225.22	3133.39
225.44	2828.24
225.66	3504.07
225.88	3356.62
226.10	3059.67
226.32	3004.37
226.53	3848.13
226.75	3426.25
226.97	3074.00
227.19	2985.94
227.41	3246.03
227.63	3344.33
227.85	2818.00
228.06	2983.89
228.28	3459.02
228.50	3698.63
228.72	2793.43
228.94	2912.21
229.16	3016.66
229.37	3278.80
229.59	2867.16
229.81	3252.17
230.03	3434.44
230.25	3145.68
230.47	2783.19
230.69	2949.08
230.90	3606.47
231.12	3262.41
231.34	3043.28
231.56	3049.43
231.78	3227.60
232.00	3450.83
232.21	3033.04
232.43	2996.18
232.65	2947.03
232.87	3542.99
233.09	2803.67
233.30	2875.35
233.52	3760.07
233.74	3430.35
233.96	2858.96
234.18	3211.22
234.40	3424.20
234.61	3983.30
234.83	2824.15
235.05	2930.64
235.27	3987.40
235.49	3649.48
235.70	2852.82
235.92	3012.56
236.14	3526.60
236.36	4020.16
236.58	2836.44
236.79	2975.70
237.01	3479.50
237.23	3477.45
237.45	3139.54
237.67	2885.59
237.88	3577.80
238.10	3839.94
238.32	2879.44
238.54	2983.89
238.76	3409.87
238.97	3278.80
239.19	2879.44
239.41	2983.89
239.63	3725.26
239.85	3356.62
240.06	2996.18
240.28	2926.55
240.50	3680.20
240.72	3475.40
240.93	2893.78
241.15	3035.09
241.37	3422.16
241.59	3798.98
241.81	3037.14
242.02	3041.23
242.24	3471.31
242.46	3555.27
242.68	2799.57
242.89	2820.05
243.11	3676.10
243.33	3352.52
243.55	2906.07
243.76	2957.27
243.98	3213.26
244.20	3454.92
244.42	2942.93
244.64	2920.40
244.85	3133.39
245.07	3270.61
245.29	2985.94
245.51	2992.08
245.72	3540.94
245.94	3631.05
246.16	2951.12
246.38	3008.47
246.59	3319.76
246.81	3213.26
247.03	2803.67
247.24	2807.77
247.46	3375.05
247.68	3491.79
247.90	2889.68
248.11	2951.12
248.33	3540.94
248.55	3399.63
248.77	2987.99
248.98	3102.67
249.20	3770.31
249.42	3440.59
249.64	2914.26
249.85	2885.59
250.07	3418.06
250.29	3559.37
250.50	2977.75
250.72	2873.30
250.94	3557.32
251.16	3942.34
251.37	2893.78
251.59	3067.86
251.81	3571.66
252.02	3780.55
252.24	2838.48
252.46	3137.49
252.68	3289.04
252.89	3344.33
253.11	2820.05
253.33	3149.78
253.54	3782.60
253.76	3246.03
253.98	2955.22
254.20	2912.21
254.41	3194.83
254.63	3430.35
254.85	2787.29
255.06	3106.77
255.28	3551.18
255.50	3393.48
255.71	2957.27
255.93	2723.80
256.15	3422.16
256.36	3577.80
256.58	2852.82
256.80	2889.68
257.02	3563.47
257.23	3379.15
257.45	2959.31
257.67	3041.23
257.88	3375.05
258.10	3614.66
258.32	2959.31
258.53	2930.64
258.75	3803.08
258.97	3340.24
259.18	2951.12
259.40	2879.44
259.62	3917.76
259.83	3901.38
260.05	2924.50
260.27	4003.78
260.48	3669.96
260.70	3264.46
260.92	2877.40
261.13	3033.04
261.35	3444.68
261.57	3583.95
261.78	2871.25
262.00	2889.68
262.22	3585.99
262.43	3295.18
262.65	2990.03
262.86	2992.08
263.08	4003.78
263.30	3467.21
263.51	2828.24
263.73	3012.56
263.95	3823.56
264.16	3258.32
264.38	2818.00
264.60	2942.93
264.81	3330.00
265.03	3739.59
265.25	3495.88
265.46	2979.79
265.68	3647.43
265.89	3680.20
266.11	2875.35
266.33	2942.93
266.54	3788.74
266.76	3606.47
266.98	3059.67
267.19	3164.11
267.41	3706.82
267.62	3481.55
267.84	2756.57
268.06	3092.43
268.27	3491.79
268.49	3680.20
268.70	3012.56
268.92	2985.94
269.14	3227.60
269.35	3088.34
269.57	3094.48
269.79	3082.19
270.00	3289.04
270.22	3880.90
270.43	2807.77
270.65	2834.39
270.87	3518.41
271.08	3610.57
271.30	3028.95
271.51	2965.46
271.73	3590.09
271.95	3721.16
272.16	2928.60
272.38	3147.73
272.59	3342.28
272.81	3518.41
273.02	2893.78
273.24	3041.23
273.46	3727.30
273.67	3200.98
273.89	2820.05
274.10	2979.79
274.32	3696.58
274.54	3485.64
274.75	3067.86
274.97	3108.82
275.18	3594.19
275.40	3436.49
275.61	2963.41
275.83	3106.77
276.05	3178.45
276.26	3426.25
276.48	3061.71
276.69	3190.74
276.91	3315.66
277.12	3811.27
277.34	3131.34
277.55	3248.08
277.77	3411.92
277.99	3368.91
278.20	3135.44
278.42	2971.60
278.63	3370.96
278.85	3225.55
279.06	3143.63
279.28	3211.22
279.49	3719.11
279.71	3614.66
279.93	3100.62
280.14	3168.21
280.36	3270.61
280.57	3690.44
280.79	3254.22
281.00	3030.99
281.22	3280.85
281.43	3715.02
281.65	2883.54
281.86	3030.99
282.08	3575.75
282.29	3876.80
282.51	3010.51
282.73	2996.18
282.94	3033.04
283.16	3600.33
283.37	3176.40
283.59	3059.67
283.80	3577.80
284.02	3530.70
284.23	3065.81
284.45	3098.58
284.66	3225.55
284.88	3282.89
285.09	2977.75
285.31	3209.17
285.52	3536.84
285.74	3147.73
285.95	3295.18
286.17	3151.82
286.38	3725.26
286.60	3354.57
286.81	2959.31
287.03	3041.23
287.24	3393.48
287.46	3618.76
287.67	3299.28
287.89	3274.70
288.10	3420.11
288.32	3434.44
288.53	3266.51
288.75	3102.67
288.96	3647.43
289.18	3405.77
289.39	3043.28
289.61	3157.97
289.82	3868.61
290.04	3887.04
290.25	3028.95
290.47	3172.30
290.68	3405.77
290.90	3626.95
291.11	2877.40
291.33	3286.99
291.54	3317.71
291.76	3303.37
291.97	3270.61
292.18	3192.78
292.40	3291.09
292.61	3305.42
292.83	3405.77
293.04	3080.14
293.26	3491.79
293.47	3434.44
293.69	3069.91
293.90	2987.99
294.12	3624.90
294.33	3456.97
294.55	3196.88
294.76	3293.13
294.97	3719.11
295.19	3862.47
295.40	3071.95
295.62	3157.97
295.83	3598.28
296.05	3258.32
296.26	3307.47
296.48	3147.73
296.69	3467.21
296.90	3475.40
297.12	3166.16
297.33	3227.60
297.55	3461.07
297.76	3528.65
297.98	3147.73
298.19	3325.90
298.41	3471.31
298.62	3325.90
298.83	3274.70
299.05	3268.56
299.26	3420.11
299.48	3307.47
299.69	3227.60
299.90	3098.58
300.12	3229.65
300.33	3651.53
300.55	3190.74
300.76	3143.63
300.98	3256.27
301.19	3661.77
301.40	3119.06
301.62	3108.82
301.83	3602.38
302.05	3479.50
302.26	3020.75
302.47	3262.41
302.69	3182.54
302.90	3438.54
303.12	2953.17
303.33	3200.98
303.54	3841.99
303.76	3323.85
303.97	3041.23
304.19	3336.14
304.40	3196.88
304.61	3590.09
304.83	3225.55
305.04	3125.20
305.26	3590.09
305.47	3237.84
305.68	2994.13
305.90	2910.16
306.11	3821.51
306.33	3409.87
306.54	2961.36
306.75	3084.24
306.97	3131.34
307.18	3239.89
307.39	3074.00
307.61	3254.22
307.82	3420.11
308.04	3522.51
308.25	2918.36
308.46	3272.65
308.68	3420.11
308.89	3438.54
309.10	3160.02
309.32	3098.58
309.53	3434.44
309.74	3583.95
309.96	3035.09
310.17	3207.12
310.39	3381.20
310.60	3565.51
310.81	3166.16
311.03	3024.85
311.24	3635.14
311.45	3551.18
311.67	3237.84
311.88	3276.75
312.09	3370.96
312.31	3375.05
312.52	3086.29
312.73	3074.00
312.95	3155.92
313.16	3254.22
313.37	3301.33
313.59	3313.61
313.80	3694.54
314.01	3839.94
314.23	3133.39
314.44	3030.99
314.65	3192.78
314.87	3323.85
315.08	3053.52
315.29	3114.96
315.51	3229.65
315.72	3164.11
315.93	3180.50
316.15	3084.24
316.36	3350.48
316.57	3436.49
316.79	2955.22
317.00	3059.67
317.21	3598.28
317.43	3221.45
317.64	3172.30
317.85	3053.52
318.07	3297.23
318.28	3356.62
318.49	3119.06
318.70	3280.85
318.92	3512.27
319.13	3491.79
319.34	3260.37
319.56	3090.38
319.77	3471.31
319.98	3536.84
320.20	3338.19
320.41	3344.33
320.62	3545.03
320.83	3262.41
321.05	3303.37
321.26	3155.92
321.47	3526.60
321.69	3758.02
321.90	3035.09
322.11	3100.62
322.32	3551.18
322.54	3833.80
322.75	3100.62
322.96	4190.14
323.18	3106.77
323.39	3028.95
323.60	3039.19
323.81	3174.35
324.03	3315.66
324.24	3450.83
324.45	3209.17
324.66	3020.75
324.88	3657.67
325.09	3835.85
325.30	2969.55
325.52	2987.99
325.73	3581.90
325.94	3174.35
326.15	2979.79
326.37	2932.69
326.58	3614.66
326.79	3776.45
327.00	3008.47
327.22	3047.38
327.43	3344.33
327.64	3237.84
327.85	3223.50
328.07	3155.92
328.28	3803.08
328.49	3221.45
328.70	3139.54
328.92	3094.48
329.13	3409.87
329.34	3518.41
329.55	3293.13
329.76	3254.22
329.98	3338.19
330.19	3655.62
330.40	3157.97
330.61	3217.36
330.83	3606.47
331.04	3280.85
331.25	3203.02
331.46	3248.08
331.68	3157.97
331.89	3565.51
332.10	3147.73
332.31	3002.32
332.52	3436.49
332.74	3649.48
332.95	2934.74
333.16	3088.34
333.37	3588.04
333.58	3403.72
333.80	3147.73
334.01	2957.27
334.22	3432.40
334.43	3303.37
334.64	3065.81
334.86	3059.67
335.07	3276.75
335.28	3721.16
335.49	2969.55
335.70	3123.15
335.92	3774.41
336.13	3950.53
336.34	3117.01
336.55	3082.19
336.76	3573.71
336.98	3049.43
337.19	3102.67
337.40	3174.35
337.61	3983.30
337.82	3373.00
338.04	3176.40
338.25	2875.35
338.46	3381.20
338.67	3360.72
338.88	2990.03
339.09	3055.57
339.31	3303.37
339.52	3186.64
339.73	3000.27
339.94	3139.54
340.15	3604.42
340.36	3303.37
340.58	3135.44
340.79	3006.42
341.00	3559.37
341.21	3155.92
341.42	3377.10
341.63	3129.30
341.85	3649.48
342.06	3471.31
342.27	3065.81
342.48	3264.46
342.69	3221.45
342.90	3493.83
343.12	3551.18
343.33	2992.08
343.54	3688.39
343.75	3776.45
343.96	3303.37
344.17	2998.23
344.38	3401.68
344.60	3248.08
344.81	3071.95
345.02	3082.19
345.23	3715.02
345.44	3999.68
345.65	3112.91
345.86	3114.96
346.07	3510.22
346.29	3278.80
346.50	3246.03
346.71	3252.17
346.92	3749.83
347.13	3919.81
347.34	3235.79
347.55	2924.50
347.76	3606.47
347.98	3100.62
348.19	3196.88
348.40	3303.37
348.61	3368.91
348.82	3733.45
349.03	3153.87
349.24	3006.42
349.45	3819.46
349.66	3051.47
349.88	3131.34
350.09	3053.52
350.30	3807.17
350.51	3739.59
350.72	3342.28
350.93	3090.38
351.14	3280.85
351.35	3553.23
351.56	3123.15
351.77	3196.88
351.99	3549.13
352.20	3721.16
352.41	3233.74
352.62	2961.36
352.83	3573.71
353.04	3504.07
353.25	3104.72
353.46	3188.69
353.67	3696.58
353.88	3059.67
354.09	2981.84
354.30	3274.70
354.52	3635.14
354.73	3405.77
354.94	3098.58
355.15	3149.78
355.36	3958.72
355.57	3293.13
355.78	3030.99
355.99	3041.23
356.20	3342.28
356.41	3717.06
356.62	3149.78
356.83	3110.86
357.04	3651.53
357.25	3114.96
357.46	3094.48
357.68	3008.47
357.89	3313.61
358.10	3420.11
358.31	3074.00
358.52	3176.40
358.73	3264.46
358.94	3190.74
359.15	3233.74
359.36	3162.06
359.57	3469.26
359.78	3264.46
359.99	3254.22
360.20	2957.27
360.41	3397.58
360.62	3598.28
360.83	3143.63
361.04	3139.54
361.25	3590.09
361.46	3792.84
361.67	3246.03
361.88	3139.54
362.09	3592.14
362.30	3647.43
362.51	2981.84
362.72	3200.98
362.93	3657.67
363.14	3506.12
363.35	3178.45
363.56	3133.39
363.78	3733.45
363.99	3590.09
364.20	3108.82
364.41	3160.02
364.62	3856.33
364.83	3534.79
365.04	3123.15
365.25	3098.58
365.46	3936.20
365.67	3348.43
365.88	3280.85
366.09	3057.62
366.30	3297.23
366.51	3481.55
366.72	3121.10
366.93	3061.71
367.14	3440.59
367.35	3712.97
367.56	3004.37
367.77	3190.74
367.98	3409.87
368.18	3495.88
368.39	3237.84
368.60	3065.81
368.81	3598.28
369.02	3561.42
369.23	3090.38
369.44	2944.98
369.65	3354.57
369.86	3598.28
370.07	3198.93
370.28	3035.09
370.49	3497.93
370.70	3534.79
370.91	3047.38
371.12	3035.09
371.33	3772.36
371.54	3280.85
371.75	3207.12
371.96	2795.48
372.17	3493.83
372.38	3393.48
372.59	3157.97
372.80	3084.24
373.01	3344.33
373.22	3454.92
373.43	3065.81
373.64	3000.27
373.85	3698.63
374.06	3807.17
374.26	3270.61
374.47	3323.85
374.68	3708.87
374.89	3475.40
375.10	3033.04
375.31	3162.06
375.52	3506.12
375.73	3442.64
375.94	2926.55
376.15	3198.93
376.36	3299.28
376.57	3362.76
376.78	3157.97
376.99	3196.88
377.20	3672.01
377.40	3348.43
377.61	3424.20
377.82	3106.77
378.03	3729.35
378.24	3641.29
378.45	3182.54
378.66	3151.82
378.87	3094.48
379.08	3119.06
379.29	3153.87
379.50	3229.65
379.71	3422.16
379.91	3672.01
380.12	3090.38
380.33	3243.98
380.54	3483.59
380.75	3442.64
380.96	3166.16
381.17	3147.73
381.38	3360.72
381.59	3397.58
381.80	3243.98
382.00	3336.14
382.21	3489.74
382.42	3772.36
382.63	3508.17
382.84	3190.74
383.05	3710.92
383.26	3803.08
383.47	3276.75
383.68	3045.33
383.88	3475.40
384.09	3465.16
384.30	3352.52
384.51	3299.28
384.72	3338.19
384.93	3135.44
385.14	3205.07
385.35	3411.92
385.55	3198.93
385.76	3747.78
385.97	3074.00
386.18	3086.29
386.39	3311.57
386.60	3260.37
386.81	3082.19
387.02	3053.52
387.22	3147.73
387.43	3569.61
387.64	3166.16
387.85	3319.76
388.06	3407.82
388.27	4405.18
388.48	7253.91
388.68	10856.28
388.89	13649.71
389.10	14825.25
389.31	14604.07
389.52	11802.44
389.73	10254.18
389.93	9719.66
390.14	8441.73
390.35	7974.79
390.56	7452.56
390.77	6242.21
390.98	4757.43
391.18	4044.74
391.39	3895.24
391.60	3514.31
391.81	3389.39
392.02	3166.16
392.23	3921.86
392.43	3446.73
392.64	3213.26
392.85	3213.26
393.06	3864.52
393.27	3485.64
393.47	3061.71
393.68	3256.27
393.89	3385.29
394.10	3758.02
394.31	3176.40
394.52	3139.54
394.72	3319.76
394.93	3766.21
395.14	2971.60
395.35	3207.12
395.56	3385.29
395.76	3420.11
395.97	3123.15
396.18	3336.14
396.39	3418.06
396.60	4067.27
396.80	3508.17
397.01	3358.67
397.22	3575.75
397.43	3649.48
397.64	3028.95
397.84	3229.65
398.05	3919.81
398.26	3420.11
398.47	3297.23
398.67	3346.38
398.88	3395.53
399.09	3643.34
399.30	3110.86
399.51	3229.65
399.71	3278.80
399.92	3407.82
400.13	3184.59
400.34	3119.06
400.54	3483.59
400.75	3743.69
400.96	3182.54
401.17	3491.79
401.37	3565.51
401.58	3434.44
401.79	3065.81
402.00	3254.22
402.21	3971.01
402.41	3526.60
402.62	3354.57
402.83	3571.66
403.04	3692.49
403.24	4270.01
403.45	3264.46
403.66	3434.44
403.87	3569.61
404.07	3704.78
404.28	3340.24
404.49	3383.24
404.70	3481.55
404.90	3651.53
405.11	3147.73
405.32	3205.07
405.52	3360.72
405.73	3248.08
405.94	3114.96
406.15	3190.74
406.35	3620.81
406.56	3561.42
406.77	3254.22
406.98	3151.82
407.18	3289.04
407.39	3745.73
407.60	3143.63
407.80	3293.13
408.01	3389.39
408.22	3598.28
408.43	3033.04
408.63	3280.85
408.84	3696.58
409.05	3667.91
409.25	3080.14
409.46	3133.39
409.67	3401.68
409.88	3198.93
410.08	3117.01
410.29	3051.47
410.50	3641.29
410.70	3622.86
410.91	3074.00
411.12	3231.69
411.32	3508.17
411.53	3280.85
411.74	3104.72
411.95	3133.39
412.15	3399.63
412.36	3573.71
412.57	3252.17
412.77	3317.71
412.98	3454.92
413.19	3346.38
413.39	3139.54
413.60	3147.73
413.81	3770.31
414.01	3180.50
414.22	3149.78
414.43	3393.48
414.63	3332.05
414.84	3581.90
415.05	3229.65
415.25	3026.90
415.46	3530.70
415.67	3356.62
415.87	3209.17
416.08	3184.59
416.29	3420.11
416.49	3608.52
416.70	3184.59
416.91	3149.78
417.11	3395.53
417.32	3594.19
417.53	3225.55
417.73	3272.65
417.94	3467.21
418.15	3526.60
418.35	3180.50
418.56	3180.50
418.77	4134.85
418.97	3420.11
419.18	3237.84
419.38	2885.59
419.59	3434.44
419.80	3762.12
420.00	3041.23
420.21	3114.96
420.42	3731.40
420.62	3553.23
420.83	3153.87
421.04	3063.76
421.24	3403.72
421.45	3594.19
421.65	3250.13
421.86	3166.16
422.07	3626.95
422.27	3651.53
422.48	3051.47
422.69	2938.84
422.89	3373.00
423.10	3381.20
423.30	3133.39
423.51	3209.17
423.72	3534.79
423.92	3590.09
424.13	3026.90
424.33	3205.07
424.54	3653.58
424.75	3516.36
424.95	3440.59
425.16	3076.05
425.36	3399.63
425.57	3588.04
425.78	3297.23
425.98	3268.56
426.19	3387.34
426.39	3338.19
426.60	3268.56
426.81	3323.85
427.01	3518.41
427.22	3297.23
427.42	2969.55
427.63	3166.16
427.83	3643.34
428.04	3770.31
428.25	3131.34
428.45	3192.78
428.66	3712.97
428.86	3368.91
429.07	3200.98
429.28	3217.36
429.48	3456.97
429.69	3295.18
429.89	3258.32
430.10	3217.36
430.30	3559.37
430.51	3629.00
430.71	3059.67
430.92	3262.41
431.13	3364.81
431.33	3602.38
431.54	3268.56
431.74	3262.41
431.95	3901.38
432.15	3327.95
432.36	3166.16
432.56	3196.88
432.77	3852.23
432.98	3897.28
433.18	3266.51
433.39	3074.00
433.59	3377.10
433.80	3872.71
434.00	3309.52
434.21	3246.03
434.41	3280.85
434.62	3952.58
434.82	3004.37
435.03	3143.63
435.23	3569.61
435.44	3061.71
435.64	3102.67
435.85	3215.31
436.06	3614.66
436.26	3690.44
436.47	3157.97
436.67	3166.16
436.88	3426.25
437.08	3712.97
437.29	3215.31
437.49	3338.19
437.70	3694.54
437.90	3475.40
438.11	3336.14
438.31	3190.74
438.52	3696.58
438.72	3647.43
438.93	3520.46
439.13	3270.61
439.34	3573.71
439.54	3260.37
439.75	3270.61
439.95	3264.46
440.16	3213.26
440.36	3467.21
440.57	3205.07
440.77	3164.11
440.98	3499.98
441.18	3534.79
441.39	3065.81
441.59	3026.90
441.80	3880.90
442.00	3461.07
442.21	3248.08
442.41	3051.47
442.62	3667.91
442.82	3264.46
443.02	3155.92
443.23	3182.54
443.43	3352.52
443.64	3803.08
443.84	3000.27
444.05	3241.93
444.25	3428.30
444.46	3395.53
444.66	3065.81
444.87	3340.24
445.07	3078.10
445.28	3436.49
445.48	3368.91
445.69	3231.69
445.89	4003.78
446.09	3301.33
446.30	3403.72
446.50	3577.80
446.71	5097.39
446.91	6143.91
447.12	6883.22
447.32	7292.82
447.53	7286.67
447.73	6162.34
447.93	5435.31
448.14	5144.50
448.34	5373.87
448.55	4523.96
448.75	4335.55
448.96	4173.76
449.16	4163.52
449.36	4007.87
449.57	3473.36
449.77	3299.28
449.98	3321.81
450.18	3561.42
450.39	3180.50
450.59	3459.02
450.79	3399.63
451.00	3350.48
451.20	3401.68
451.41	3119.06
451.61	3559.37
451.81	3428.30
452.02	3119.06
452.22	3200.98
452.43	3428.30
452.63	3323.85
452.84	3258.32
453.04	3049.43
453.24	3522.51
453.45	3282.89
453.65	3270.61
453.86	3164.11
454.06	3534.79
454.26	3360.72
454.47	3049.43
454.67	3418.06
454.87	3512.27
455.08	3420.11
455.28	3418.06
455.49	3364.81
455.69	3299.28
455.89	3983.30
456.10	3254.22
456.30	3143.63
456.51	3581.90
456.71	3375.05
456.91	3364.81
457.12	3168.21
457.32	3532.75
457.52	3295.18
457.73	3342.28
457.93	3420.11
458.14	3293.13
458.34	3121.10
458.54	3264.46
458.75	3180.50
458.95	3631.05
459.15	3592.14
459.36	3284.94
459.56	3117.01
459.76	4028.35
459.97	3485.64
460.17	3188.69
460.37	3239.89
460.58	3418.06
460.78	3616.71
460.99	3205.07
461.19	3196.88
461.39	3352.52
461.60	3426.25
461.80	3213.26
462.00	3094.48
462.21	3499.98
462.41	3215.31
462.61	3078.10
462.82	3037.14
463.02	3438.54
463.22	3418.06
463.43	3217.36
463.63	2977.75
463.83	3733.45
464.04	3499.98
464.24	3096.53
464.44	3108.82
464.64	3409.87
464.85	3608.52
465.05	3180.50
465.25	3094.48
465.46	3352.52
465.66	3594.19
465.86	3295.18
466.07	3100.62
466.27	3497.93
466.47	3172.30
466.68	3004.37
466.88	3291.09
467.08	3536.84
467.29	3672.01
467.49	3151.82
467.69	3289.04
467.89	3577.80
468.10	3432.40
468.30	3246.03
468.50	3229.65
468.71	3618.76
468.91	3213.26
469.11	3323.85
469.31	3266.51
469.52	3170.26
469.72	3909.57
469.92	3416.01
470.13	3256.27
470.33	3405.77
470.53	3483.59
470.73	3545.03
470.94	3852.23
471.14	4016.07
471.34	4622.27
471.54	4145.09
471.75	3880.90
471.95	3803.08
472.15	3788.74
472.36	3688.39
472.56	3549.13
472.76	3946.44
472.96	3809.22
473.17	3436.49
473.37	3205.07
473.57	3459.02
473.77	3639.24
473.98	3330.00
474.18	3049.43
474.38	4212.67
474.58	3397.58
474.79	3002.32
474.99	3239.89
475.19	3614.66
475.39	3225.55
475.60	3256.27
475.80	3069.91
476.00	3491.79
476.20	3352.52
476.41	3207.12
476.61	3213.26
476.81	3622.86
477.01	3256.27
477.21	3418.06
477.42	3340.24
477.62	3258.32
477.82	3667.91
478.02	3110.86
478.23	3198.93
478.43	3284.94
478.63	3379.15
478.83	3256.27
479.03	3239.89
479.24	3766.21
479.44	3940.29
479.64	3137.49
479.84	3033.04
480.04	3266.51
480.25	3678.15
480.45	3041.23
480.65	3153.87
480.85	3805.13
481.06	3311.57
481.26	3262.41
481.46	3180.50
481.66	3393.48
481.86	3297.23
482.06	3356.62
482.27	3295.18
482.47	3375.05
482.67	3493.83
482.87	3225.55
483.07	3225.55
483.28	3274.70
483.48	3164.11
483.68	3188.69
483.88	3065.81
484.08	2985.94
484.29	3194.83
484.49	3241.93
484.69	2963.41
484.89	3743.69
485.09	3641.29
485.29	3250.13
485.50	3336.14
485.70	3317.71
485.90	3778.50
486.10	3297.23
486.30	3119.06
486.50	3723.21
486.71	3467.21
486.91	3237.84
487.11	3215.31
487.31	3133.39
487.51	3502.03
487.71	3180.50
487.91	3049.43
488.12	3219.41
488.32	2889.68
488.52	3086.29
488.72	2871.25
488.92	3536.84
489.12	3753.93
489.32	3268.56
489.53	3227.60
489.73	3180.50
489.93	3792.84
490.13	3082.19
490.33	3049.43
490.53	3463.12
490.73	3624.90
490.94	3041.23
491.14	3276.75
491.34	3565.51
491.54	3583.95
491.74	4073.41
491.94	4394.94
492.14	5148.59
492.34	5177.26
492.54	4650.94
492.75	4124.61
492.95	4538.30
493.15	4134.85
493.35	3801.03
493.55	3745.73
493.75	3850.18
493.95	4091.84
494.15	3377.10
494.35	3205.07
494.56	3512.27
494.76	3270.61
494.96	3364.81
495.16	3074.00
495.36	3459.02
495.56	3436.49
495.76	3237.84
495.96	3166.16
496.16	3205.07
496.36	3798.98
496.56	3035.09
496.77	3221.45
496.97	3418.06
497.17	3764.17
497.37	2985.94
497.57	3327.95
497.77	3397.58
497.97	3256.27
498.17	3248.08
498.37	3168.21
498.57	3655.62
498.77	3268.56
498.97	3383.24
499.17	3545.03
499.38	3381.20
499.58	3573.71
499.78	3307.47
499.98	3340.24
500.18	3395.53
500.38	3194.83
500.58	3381.20
500.78	3741.64
500.98	6154.15
501.18	7858.06
501.38	9033.59
501.58	10176.36
501.78	9994.09
501.98	8359.81
502.18	7051.16
502.38	6293.41
502.58	6092.71
502.78	5511.08
502.98	5207.98
503.18	5154.74
503.38	4888.50
503.59	4147.14
503.79	4100.03
503.99	3762.12
504.19	3930.05
504.39	3919.81
504.59	3602.38
504.79	3565.51
504.99	3850.18
505.19	3647.43
505.39	3360.72
505.59	3565.51
505.79	3803.08
505.99	3622.86
506.19	3160.02
506.39	3428.30
506.59	3254.22
506.79	3336.14
506.99	3315.66
507.19	3155.92
507.39	3530.70
507.59	3160.02
507.79	3184.59
507.99	3143.63
508.19	3436.49
508.39	3319.76
508.59	3119.06
508.79	3270.61
508.99	3819.46
509.19	3272.65
509.39	3260.37
509.59	3057.62
509.79	3325.90
509.99	3540.94
510.19	3289.04
510.39	3352.52
510.59	3465.16
510.79	3258.32
510.99	3004.37
511.19	3157.97
511.39	3803.08
511.59	3645.38
511.79	3346.38
511.99	3157.97
512.19	3798.98
512.38	3434.44
512.58	3166.16
512.78	2990.03
512.98	3719.11
513.18	3803.08
513.38	3076.05
513.58	3203.02
513.78	3401.68
513.98	3434.44
514.18	3129.30
514.38	3205.07
514.58	3559.37
514.78	3344.33
514.98	3074.00
515.18	3149.78
515.38	3127.25
515.58	3809.22
515.78	3209.17
515.98	3149.78
516.18	3692.49
516.38	3475.40
516.57	3139.54
516.77	3174.35
516.97	3651.53
517.17	3266.51
517.37	2930.64
517.57	3229.65
517.77	3454.92
517.97	3356.62
518.17	3295.18
518.37	3114.96
518.57	3303.37
518.77	3430.35
518.97	3162.06
519.16	3182.54
519.36	3723.21
519.56	3327.95
519.76	3059.67
519.96	3200.98
520.16	3794.89
520.36	3170.26
520.56	3336.14
520.76	3123.15
520.96	3330.00
521.16	3655.62
521.35	3379.15
521.55	3272.65
521.75	3491.79
521.95	3340.24
522.15	3096.53
522.35	3082.19
522.55	3319.76
522.75	3622.86
522.95	3061.71
523.14	3000.27
523.34	3502.03
523.54	3387.34
523.74	3215.31
523.94	3258.32
524.14	3119.06
524.34	3524.55
524.54	3377.10
524.73	3190.74
524.93	3667.91
525.13	3430.35
525.33	3002.32
525.53	3407.82
525.73	3555.27
525.93	3491.79
526.13	3180.50
526.32	3002.32
526.52	3622.86
526.72	3774.41
526.92	3172.30
527.12	3084.24
527.32	3246.03
527.52	3475.40
527.71	3200.98
527.91	3221.45
528.11	3364.81
528.31	3418.06
528.51	3100.62
528.71	3282.89
528.90	3497.93
529.10	3635.14
529.30	3237.84
529.50	2893.78
529.70	3524.55
529.90	3315.66
530.09	3200.98
530.29	2965.46
530.49	3348.43
530.69	4069.31
530.89	3352.52
531.09	3231.69
531.28	3293.13
531.48	3760.07
531.68	3100.62
531.88	3184.59
532.08	3622.86
532.28	3319.76
532.47	3254.22
532.67	3274.70
532.87	3551.18
533.07	3205.07
533.27	3203.02
533.46	3274.70
533.66	3520.46
533.86	3405.77
534.06	3243.98
534.26	3135.44
534.45	3387.34
534.65	3616.71
534.85	3270.61
535.05	3131.34
535.25	3674.06
535.44	3123.15
535.64	3325.90
535.84	3184.59
536.04	3282.89
536.24	3354.57
536.43	3055.57
536.63	3129.30
536.83	3473.36
537.03	3461.07
537.22	3006.42
537.42	3024.85
537.62	3389.39
537.82	3274.70
538.02	3321.81
538.21	3178.45
538.41	4042.69
538.61	3598.28
538.81	3229.65
539.00	3276.75
539.20	3168.21
539.40	3330.00
539.60	3188.69
539.79	3405.77
539.99	3530.70
540.19	3264.46
540.39	3100.62
540.58	3198.93
540.78	3737.54
540.98	3370.96
541.18	3409.87
541.37	3213.26
541.57	3438.54
541.77	3524.55
541.97	3133.39
542.16	2987.99
542.36	3377.10
542.56	3616.71
542.76	3344.33
542.95	3299.28
543.15	3598.28
543.35	3469.26
543.54	3221.45
543.74	2987.99
543.94	3766.21
544.14	3260.37
544.33	3286.99
544.53	3164.11
544.73	3373.00
544.93	3278.80
545.12	3180.50
545.32	3248.08
545.52	3356.62
545.71	3102.67
545.91	3205.07
546.11	3063.76
546.30	3346.38
546.50	3393.48
546.70	3266.51
546.90	3223.50
547.09	3110.86
547.29	3411.92
547.49	3235.79
547.68	3170.26
547.88	3299.28
548.08	3553.23
548.27	3481.55
548.47	3100.62
548.67	3299.28
548.87	3559.37
549.06	3076.05
549.26	3125.20
549.46	3463.12
549.65	3319.76
549.85	3153.87
550.05	3213.26
550.24	3172.30
550.44	3370.96
550.64	3268.56
550.83	3162.06
551.03	3663.82
551.23	3624.90
551.42	3176.40
551.62	3293.13
551.82	3502.03
552.01	3325.90
552.21	3518.41
552.41	3209.17
552.60	3737.54
552.80	3459.02
553.00	3119.06
553.19	3157.97
553.39	3819.46
553.59	3172.30
553.78	3282.89
553.98	3127.25
554.17	3133.39
554.37	3540.94
554.57	3192.78
554.76	3139.54
554.96	3305.42
555.16	3393.48
555.35	3309.52
555.55	3383.24
555.75	3532.75
555.94	3633.10
556.14	2961.36
556.33	3252.17
556.53	3379.15
556.73	3424.20
556.92	3141.58
557.12	3135.44
557.32	3866.56
557.51	3731.40
557.71	3203.02
557.90	3377.10
558.10	3678.15
558.30	3297.23
558.49	3213.26
558.69	3139.54
558.88	3561.42
559.08	3475.40
559.28	3215.31
559.47	3321.81
559.67	3626.95
559.86	3823.56
560.06	3082.19
560.26	3168.21
560.45	3606.47
560.65	3385.29
560.84	3440.59
561.04	3022.80
561.24	3567.56
561.43	3203.02
561.63	3432.40
561.82	3426.25
562.02	3538.89
562.22	3246.03
562.41	3157.97
562.61	3164.11
562.80	3217.36
563.00	3934.15
563.19	3233.74
563.39	3241.93
563.59	3534.79
563.78	3235.79
563.98	2932.69
564.17	3172.30
564.37	3014.61
564.56	3393.48
564.76	3043.28
564.96	3246.03
565.15	3512.27
565.35	4016.07
565.54	3196.88
565.74	3092.43
565.93	3635.14
566.13	3522.51
566.32	3266.51
566.52	3297.23
566.71	3532.75
566.91	3618.76
567.11	3280.85
567.30	3147.73
567.50	3600.33
567.69	3463.12
567.89	3071.95
568.08	3055.57
568.28	3545.03
568.47	3145.68
568.67	3190.74
568.86	3110.86
569.06	3581.90
569.25	3346.38
569.45	3037.14
569.64	3307.47
569.84	3377.10
570.04	3473.36
570.23	3182.54
570.43	3303.37
570.62	3407.82
570.82	3758.02
571.01	3151.82
571.21	3133.39
571.40	3307.47
571.60	3676.10
571.79	3293.13
571.99	3157.97
572.18	3264.46
572.38	3487.69
572.57	3307.47
572.77	3254.22
572.96	3995.59
573.16	3469.26
573.35	3133.39
573.55	3373.00
573.74	3495.88
573.94	3454.92
574.13	3237.84
574.33	3336.14
574.52	3770.31
574.71	3477.45
574.91	3209.17
575.10	3049.43
575.30	3262.41
575.49	3164.11
575.69	3114.96
575.88	3133.39
576.08	3377.10
576.27	3706.82
576.47	3082.19
576.66	3254.22
576.86	3731.40
577.05	3403.72
577.25	3252.17
577.44	3373.00
577.64	3354.57
577.83	3631.05
578.02	3117.01
578.22	3311.57
578.41	3782.60
578.61	3336.14
578.80	3037.14
579.00	3166.16
579.19	3430.35
579.39	3469.26
579.58	3286.99
579.77	3229.65
579.97	3702.73
580.16	3696.58
580.36	3327.95
580.55	3235.79
580.75	3534.79
580.94	3436.49
581.13	3319.76
581.33	3418.06
581.52	3336.14
581.72	3860.42
581.91	3295.18
582.11	3198.93
582.30	3637.19
582.49	3450.83
582.69	3471.31
582.88	3168.21
583.08	3553.23
583.27	3717.06
583.47	3280.85
583.66	3125.20
583.85	3155.92
584.05	3397.58
584.24	3352.52
584.44	3155.92
584.63	3624.90
584.82	3659.72
585.02	3446.73
585.21	3364.81
585.41	3602.38
585.60	3483.59
585.79	3420.11
585.99	3442.64
586.18	3467.21
586.37	4450.24
586.57	6633.37
586.76	18611.94
586.96	37344.71
587.15	50265.34
587.34	58064.01
587.54	61437.01
587.73	54025.42
587.93	39038.38
588.12	29806.14
588.31	24702.60
588.51	22199.98
588.70	20649.67
588.89	17932.01
589.09	15419.16
589.28	13291.32
589.47	10479.46
589.67	7946.12
589.86	6131.62
590.06	4974.52
590.25	4528.06
590.44	3844.04
590.64	3633.10
590.83	3747.78
591.02	3727.30
591.22	3149.78
591.41	3209.17
591.60	3305.42
591.80	3995.59
591.99	3065.81
592.18	3260.37
592.38	3559.37
592.57	3344.33
592.76	3200.98
592.96	3233.74
593.15	3354.57
593.34	3600.33
593.54	3188.69
593.73	3366.86
593.92	3540.94
594.12	3510.22
594.31	3190.74
594.50	3375.05
594.70	3522.51
594.89	4040.64
595.08	3119.06
595.28	3319.76
595.47	4147.14
595.66	3672.01
595.86	3129.30
596.05	3057.62
596.24	3330.00
596.43	3893.19
596.63	3205.07
596.82	3381.20
597.01	3475.40
597.21	3831.75
597.40	3143.63
597.59	3239.89
597.79	3332.05
597.98	3606.47
598.17	3282.89
598.36	3180.50
598.56	3635.14
598.75	3344.33
598.94	3246.03
599.14	3250.13
599.33	3332.05
599.52	3563.47
599.71	3264.46
599.91	3147.73
600.10	3661.77
600.29	3387.34
600.48	3295.18
600.68	3373.00
600.87	3557.32
601.06	3278.80
601.26	3250.13
601.45	3315.66
601.64	3430.35
601.83	3729.35
602.03	3074.00
602.22	3098.58
602.41	3715.02
602.60	4034.50
602.80	3303.37
602.99	3434.44
603.18	3270.61
603.37	3528.65
603.57	3049.43
603.76	3258.32
603.95	3661.77
604.14	3387.34
604.34	3090.38
604.53	3192.78
604.72	3551.18
604.91	3622.86
605.10	3194.83
605.30	3018.71
605.49	3899.33
605.68	3551.18
605.87	3254.22
606.07	3004.37
606.26	3504.07
606.45	3604.42
606.64	3157.97
606.84	2985.94
607.03	3420.11
607.22	3653.58
607.41	3229.65
607.60	3133.39
607.80	3614.66
607.99	3395.53
608.18	3246.03
608.37	3139.54
608.56	3286.99
608.76	3620.81
608.95	3321.81
609.14	3135.44
609.33	3581.90
609.52	3803.08
609.72	3217.36
609.91	3231.69
610.10	3475.40
610.29	3835.85
610.48	3278.80
610.68	3362.76
610.87	3426.25
611.06	3598.28
611.25	3209.17
611.44	3307.47
611.63	3362.76
611.83	3694.54
612.02	3047.38
612.21	3276.75
612.40	3059.67
612.59	3278.80
612.79	3074.00
612.98	3303.37
613.17	3907.52
613.36	3416.01
613.55	3295.18
613.74	3139.54
613.93	3418.06
614.13	3436.49
614.32	3438.54
614.51	3190.74
614.70	3364.81
614.89	3336.14
615.08	3258.32
615.28	3485.64
615.47	3178.45
615.66	3567.56
615.85	3182.54
616.04	3264.46
616.23	3471.31
616.42	3364.81
616.62	3180.50
616.81	3246.03
617.00	3450.83
617.19	3592.14
617.38	3280.85
617.57	3270.61
617.76	3592.14
617.95	3585.99
618.15	3319.76
618.34	3422.16
618.53	3172.30
618.72	3739.59
618.91	3356.62
619.10	3286.99
619.29	3389.39
619.48	3481.55
619.68	3041.23
619.87	3172.30
620.06	3198.93
620.25	3639.24
620.44	3102.67
620.63	3043.28
620.82	3526.60
621.01	3426.25
621.20	3280.85
621.39	3254.22
621.59	3504.07
621.78	3446.73
621.97	3209.17
622.16	3411.92
622.35	3485.64
622.54	3602.38
622.73	3270.61
622.92	2871.25
623.11	3698.63
623.30	3381.20
623.49	3284.94
623.68	3082.19
623.88	3809.22
624.07	3196.88
624.26	3133.39
624.45	3190.74
624.64	3319.76
624.83	3516.36
625.02	3186.64
625.21	3200.98
625.40	3639.24
625.59	3706.82
625.78	3237.84
625.97	3282.89
626.16	3733.45
626.35	3631.05
626.54	3190.74
626.74	3442.64
626.93	3323.85
627.12	3475.40
627.31	3225.55
627.50	3180.50
627.69	3674.06
627.88	3231.69
628.07	3112.91
628.26	3014.61
628.45	3262.41
628.64	3194.83
628.83	3188.69
629.02	3059.67
629.21	3585.99
629.40	3454.92
629.59	3053.52
629.78	3246.03
629.97	3418.06
630.16	3549.13
630.35	3155.92
630.54	3198.93
630.73	3313.61
630.92	3452.88
631.11	3090.38
631.30	3295.18
631.49	3559.37
631.68	3418.06
631.87	3241.93
632.06	3151.82
632.25	3897.28
632.44	3409.87
632.63	3182.54
632.82	3188.69
633.01	3344.33
633.20	3557.32
633.39	3098.58
633.58	2961.36
633.77	3567.56
633.96	3561.42
634.15	3364.81
634.34	3211.22
634.53	3538.89
634.72	3270.61
634.91	2987.99
635.10	3225.55
635.29	3596.23
635.48	3520.46
635.67	3022.80
635.86	3043.28
636.05	3700.68
636.24	3377.10
636.43	3188.69
636.62	3229.65
636.81	2918.36
637.00	3456.97
637.19	3190.74
637.38	3166.16
637.57	3354.57
637.76	3450.83
637.95	3387.34
638.14	3311.57
638.33	3350.48
638.52	3430.35
638.71	3055.57
638.89	3082.19
639.08	4048.83
639.27	3594.19
639.46	3364.81
639.65	3663.82
639.84	3798.98
640.03	4140.99
640.22	3483.59
640.41	3536.84
640.60	3459.02
640.79	3565.51
640.98	3405.77
641.17	3336.14
641.36	3581.90
641.55	3659.72
641.74	3041.23
641.92	3135.44
642.11	3270.61
642.30	3368.91
642.49	3078.10
642.68	3143.63
642.87	3626.95
643.06	3563.47
643.25	3049.43
643.44	3168.21
643.63	3436.49
643.82	3434.44
644.00	3094.48
644.19	3233.74
644.38	3190.74
644.57	3559.37
644.76	3200.98
644.95	3303.37
645.14	3569.61
645.33	3395.53
645.52	3188.69
645.71	3039.19
645.89	3225.55
646.08	3469.26
646.27	3237.84
646.46	3395.53
646.65	3227.60
646.84	3459.02
647.03	3178.45
647.22	3393.48
647.40	3459.02
647.59	3411.92
647.78	2983.89
647.97	3176.40
648.16	3203.02
648.35	3803.08
648.54	3456.97
648.73	3209.17
648.91	3649.48
649.10	3459.02
649.29	3100.62
649.48	3110.86
649.67	3477.45
649.86	3508.17
650.05	3227.60
650.23	3266.51
650.42	3346.38
650.61	3665.86
650.80	3393.48
650.99	3448.78
651.18	3565.51
651.36	3616.71
651.55	3094.48
651.74	3350.48
651.93	3299.28
652.12	3346.38
652.31	3262.41
652.49	3295.18
652.68	3317.71
652.87	3743.69
653.06	3293.13
653.25	3452.88
653.44	3434.44
653.62	3801.03
653.81	3211.22
654.00	3176.40
654.19	3637.19
654.38	3983.30
654.56	3299.28
654.75	3078.10
654.94	3598.28
655.13	3526.60
655.32	3090.38
655.51	3205.07
655.69	3323.85
655.88	3641.29
656.07	2994.13
656.26	3112.91
656.45	3088.34
656.63	3483.59
656.82	3205.07
657.01	3442.64
657.20	3305.42
657.38	3786.69
657.57	3106.77
657.76	3035.09
657.95	3579.85
658.14	3368.91
658.32	3289.04
658.51	3114.96
658.70	3483.59
658.89	3520.46
659.08	3225.55
659.26	3309.52
659.45	3174.35
659.64	3469.26
659.83	3123.15
660.01	3600.33
660.20	3479.50
660.39	3784.65
660.58	2869.20
660.76	3225.55
660.95	3166.16
661.14	3479.50
661.33	3078.10
661.51	3344.33
661.70	3332.05
661.89	3512.27
662.08	3106.77
662.26	3024.85
662.45	3166.16
662.64	3839.94
662.83	3282.89
663.01	3069.91
663.20	3299.28
663.39	3770.31
663.58	3200.98
663.76	3184.59
663.95	3594.19
664.14	3221.45
664.32	3217.36
664.51	3037.14
664.70	3100.62
664.89	3479.50
665.07	3117.01
665.26	3295.18
665.45	3192.78
665.64	3518.41
665.82	3157.97
666.01	3252.17
666.20	3203.02
666.38	3600.33
666.57	3456.97
666.76	5633.96
666.95	12756.80
667.13	18986.72
667.32	22417.07
667.51	25085.57
667.69	25839.22
667.88	21100.22
668.07	15595.28
668.25	13244.21
668.44	11913.03
668.63	10323.81
668.81	8947.58
669.00	7851.91
669.19	7276.43
669.38	6229.92
669.56	5416.88
669.75	4851.64
669.94	4394.94
670.12	3815.37
670.31	3442.64
670.50	3399.63
670.68	3506.12
670.87	3524.55
671.06	3198.93
671.24	3246.03
671.43	3909.57
671.62	3401.68
671.80	3233.74
671.99	3291.09
672.18	3516.36
672.36	3651.53
672.55	3364.81
672.74	3231.69
672.92	3356.62
673.11	3557.32
673.29	3059.67
673.48	3364.81
673.67	3360.72
673.85	3702.73
674.04	3147.73
674.23	3354.57
674.41	3831.75
674.60	3145.68
674.79	2975.70
674.97	3018.71
675.16	3633.10
675.34	3581.90
675.53	3196.88
675.72	3246.03
675.90	3876.80
676.09	3260.37
676.28	3368.91
676.46	3043.28
676.65	3608.52
676.83	3315.66
677.02	3174.35
677.21	3332.05
677.39	3641.29
677.58	3319.76
677.77	3176.40
677.95	3106.77
678.14	3235.79
678.32	3368.91
678.51	3223.50
678.70	3565.51
678.88	3303.37
679.07	3428.30
679.25	3196.88
679.44	3172.30
679.63	3209.17
679.81	3469.26
680.00	3450.83
680.18	3172.30
680.37	3862.47
680.55	3467.21
680.74	3131.34
680.93	2940.88
681.11	3446.73
681.30	3491.79
681.48	3174.35
681.67	3229.65
681.85	3393.48
682.04	3188.69
682.23	3307.47
682.41	3399.63
682.60	3399.63
682.78	3420.11
682.97	3057.62
683.15	3227.60
683.34	3459.02
683.53	3803.08
683.71	3094.48
683.90	3211.22
684.08	3807.17
684.27	3373.00
684.45	3192.78
684.64	3344.33
684.82	3432.40
685.01	3518.41
685.19	3180.50
685.38	3469.26
685.57	3434.44
685.75	3264.46
685.94	3119.06
686.12	3076.05
686.31	3401.68
686.49	3702.73
686.68	2977.75
686.86	3174.35
687.05	3340.24
687.23	3704.78
687.42	3172.30
687.60	3078.10
687.79	3616.71
687.97	3762.12
688.16	3278.80
688.34	3370.96
688.53	3086.29
688.71	3573.71
688.90	3495.88
689.08	3213.26
689.27	2983.89
689.45	3667.91
689.64	3305.42
689.82	3315.66
690.01	3467.21
690.19	3502.03
690.38	3194.83
690.56	3270.61
690.75	3223.50
690.93	3346.38
691.12	3174.35
691.30	3264.46
691.49	3299.28
691.67	3401.68
691.86	3577.80
692.04	3286.99
692.23	3346.38
692.41	3420.11
692.60	3545.03
692.78	3356.62
692.97	3497.93
693.15	3585.99
693.34	3373.00
693.52	3397.58
693.71	3299.28
693.89	3305.42
694.08	3074.00
694.26	3227.60
694.44	3702.73
694.63	3585.99
694.81	3096.53
695.00	3174.35
695.18	3723.21
695.37	4038.59
695.55	3323.85
695.74	3311.57
695.92	3266.51
696.10	3614.66
696.29	3051.47
696.47	3194.83
696.66	3205.07
696.84	3235.79
697.03	3246.03
697.21	3444.68
697.40	4792.25
697.58	3616.71
697.76	3221.45
697.95	3239.89
698.13	3237.84
698.32	3196.88
698.50	3239.89
698.68	3188.69
698.87	3581.90
699.05	3755.97
699.24	3143.63
699.42	3147.73
699.61	3565.51
699.79	3555.27
699.97	3198.93
700.16	2987.99
700.34	3129.30
700.53	3436.49
700.71	3385.29
700.89	3252.17
701.08	3313.61
701.26	3411.92
701.45	3506.12
701.63	3147.73
701.81	3340.24
702.00	3268.56
702.18	3278.80
702.37	3237.84
702.55	3708.87
702.73	3475.40
702.92	3188.69
703.10	3475.40
703.28	3540.94
703.47	3223.50
703.65	3391.44
703.84	3278.80
704.02	3344.33
704.20	3706.82
704.39	3166.16
704.57	3131.34
704.75	3616.71
704.94	3624.90
705.12	3413.96
705.30	3983.30
705.49	8208.26
705.67	14575.39
705.86	19490.52
706.04	21825.20
706.22	24110.74
706.41	22697.64
706.59	16840.45
706.77	13692.72
706.96	11749.20
707.14	10784.60
707.32	9391.98
707.51	8171.40
707.69	6920.09
707.87	5853.09
708.06	4810.68
708.24	4249.54
708.42	4106.18
708.61	4351.93
708.79	3229.65
708.97	3346.38
709.16	3504.07
709.34	3395.53
709.52	3155.92
709.71	3278.80
709.89	3594.19
710.07	3260.37
710.26	3176.40
710.44	3231.69
710.62	3565.51
710.80	3434.44
710.99	3307.47
711.17	3346.38
711.35	3286.99
711.54	3270.61
711.72	3405.77
711.90	3190.74
712.09	3477.45
712.27	3297.23
712.45	3395.53
712.63	3176.40
712.82	3483.59
713.00	3479.50
713.18	3332.05
713.37	3401.68
713.55	3633.10
713.73	3557.32
713.91	3299.28
714.10	3188.69
714.28	3448.78
714.46	3487.69
714.65	3299.28
714.83	3237.84
715.01	3391.44
715.19	3403.72
715.38	3166.16
715.56	3409.87
715.74	3258.32
715.92	3264.46
716.11	3448.78
716.29	3018.71
716.47	3385.29
716.65	3336.14
716.84	3155.92
717.02	3237.84
717.20	3106.77
717.38	3256.27
717.57	3368.91
717.75	3196.88
717.93	3338.19
718.11	3592.14
718.30	3102.67
718.48	3209.17
718.66	3749.83
718.84	3696.58
719.03	3209.17
719.21	3055.57
719.39	3829.70
719.57	3624.90
719.75	3297.23
719.94	3184.59
720.12	3303.37
720.30	3385.29
720.48	3207.12
720.67	3315.66
720.85	3172.30
721.03	3313.61
721.21	3221.45
721.39	3278.80
721.58	3612.62
721.76	3495.88
721.94	3231.69
722.12	3262.41
722.30	3827.65
722.49	3258.32
722.67	3170.26
722.85	3280.85
723.03	3098.58
723.21	3352.52
723.40	3221.45
723.58	3409.87
723.76	3596.23
723.94	3753.93
724.12	3237.84
724.30	3436.49
724.49	3553.23
724.67	3231.69
724.85	3280.85
725.03	3098.58
725.21	3559.37
725.40	3745.73
725.58	3270.61
725.76	3348.43
725.94	3581.90
726.12	3262.41
726.30	3233.74
726.49	3194.83
726.67	3327.95
726.85	3590.09
727.03	3921.86
727.21	4855.73
727.39	5994.40
727.57	6524.83
727.76	6797.21
727.94	6766.49
728.12	6041.51
728.30	5060.53
728.48	4722.62
728.66	4517.82
728.84	4358.08
729.03	3913.67
729.21	3606.47
729.39	3534.79
729.57	3514.31
729.75	3569.61
729.93	3438.54
730.11	3174.35
730.30	3248.08
730.48	3479.50
730.66	3239.89
730.84	3321.81
731.02	3450.83
731.20	3190.74
731.38	3200.98
731.56	3117.01
731.74	3143.63
731.93	3549.13
732.11	3418.06
732.29	3129.30
732.47	3553.23
732.65	3467.21
732.83	3436.49
733.01	3307.47
733.19	3233.74
733.37	3592.14
733.56	3155.92
733.74	3053.52
733.92	3706.82
734.10	3352.52
734.28	3252.17
734.46	3039.19
734.64	3385.29
734.82	3315.66
735.00	3155.92
735.18	3160.02
735.36	3450.83
735.54	3422.16
735.73	3129.30
735.91	3360.72
736.09	3780.55
736.27	3362.76
736.45	3346.38
736.63	2926.55
736.81	3330.00
736.99	3610.57
737.17	3459.02
737.35	3145.68
737.53	3499.98
737.71	3395.53
737.89	3375.05
738.07	3157.97
738.25	3291.09
738.43	3059.67
738.61	3260.37
738.80	3078.10
738.98	3311.57
739.16	3282.89
739.34	3168.21
739.52	3493.83
739.70	3434.44
739.88	3532.75
740.06	3325.90
740.24	2869.20
740.42	3663.82
740.60	3026.90
740.78	3225.55
740.96	2934.74
741.14	3373.00
741.32	3354.57
741.50	2967.51
741.68	3487.69
741.86	3708.87
742.04	3196.88
742.22	3151.82
742.40	3229.65
742.58	3497.93
742.76	3303.37
742.94	3403.72
743.12	3051.47
743.30	3401.68
743.48	3565.51
743.66	3147.73
743.84	3164.11
744.02	3391.44
744.20	3364.81
744.38	3071.95
744.56	3182.54
744.74	3870.66
744.92	3450.83
745.10	3416.01
745.28	3270.61
745.46	3649.48
745.64	3422.16
745.82	3262.41
746.00	3155.92
746.18	3485.64
746.36	3252.17
746.54	3223.50
746.72	3196.88
746.90	3196.88
747.08	3647.43
747.26	3119.06
747.44	3377.10
747.62	3602.38
747.80	3461.07
747.98	3274.70
748.15	3149.78
748.33	3872.71
748.51	3508.17
748.69	3278.80
748.87	3043.28
749.05	3338.19
749.23	3356.62
749.41	3188.69
749.59	3184.59
749.77	3626.95
749.95	3342.28
750.13	3098.58
750.31	3373.00
750.49	3424.20
750.67	3692.49
750.85	3352.52
751.03	3143.63
751.20	3829.70
751.38	3444.68
751.56	3278.80
751.74	3200.98
751.92	3405.77
752.10	3205.07
752.28	3395.53
752.46	3207.12
752.64	3413.96
752.82	3418.06
753.00	3336.14
753.18	3213.26
753.35	3387.34
753.53	3463.12
753.71	3098.58
753.89	3215.31
754.07	3520.46
754.25	3610.57
754.43	3268.56
754.61	3108.82
754.79	3477.45
754.97	3393.48
755.14	3358.67
755.32	3135.44
755.50	3442.64
755.68	3428.30
755.86	3180.50
756.04	3203.02
756.22	3090.38
756.40	3639.24
756.57	3379.15
756.75	3141.58
756.93	3698.63
757.11	3739.59
757.29	3076.05
757.47	3219.41
757.65	3180.50
757.82	2987.99
758.00	3069.91
758.18	3157.97
758.36	3274.70
758.54	3778.50
758.72	3020.75
758.90	3325.90
759.07	3504.07
759.25	3225.55
759.43	3299.28
759.61	3000.27
759.79	4573.11
759.97	3674.06
760.15	3237.84
760.32	3178.45
760.50	3459.02
760.68	3807.17
760.86	3069.91
761.04	3424.20
761.22	3659.72
761.39	3504.07
761.57	3334.09
761.75	3180.50
761.93	3502.03
762.11	3440.59
762.28	3325.90
762.46	3155.92
762.64	3620.81
762.82	3139.54
763.00	3123.15
763.18	3416.01
763.35	3215.31
763.53	3633.10
763.71	3284.94
763.89	3100.62
764.07	3497.93
764.24	3377.10
764.42	3381.20
764.60	3188.69
764.78	3610.57
764.96	3655.62
765.13	3301.33
765.31	3084.24
765.49	3569.61
765.67	3166.16
765.84	3117.01
766.02	3147.73
766.20	3127.25
766.38	3524.55
766.56	3332.05
766.73	3248.08
766.91	3395.53
767.09	3438.54
767.27	3196.88
767.44	3188.69
767.62	3483.59
767.80	3491.79
767.98	3221.45
768.15	3155.92
768.33	3590.09
768.51	3688.39
768.69	3303.37
768.87	3229.65
769.04	3440.59
769.22	4069.31
769.40	3358.67
769.58	3346.38
769.75	3606.47
769.93	3688.39
770.11	3174.35
770.28	3162.06
770.46	3657.67
770.64	3479.50
770.82	3239.89
770.99	3135.44
771.17	3647.43
771.35	3409.87
771.53	3317.71
771.70	3139.54
771.88	3524.55
772.06	3440.59
772.23	3211.22
772.41	3338.19
772.59	3295.18
772.77	3254.22
772.94	3344.33
773.12	3336.14
773.30	3256.27
773.47	3409.87
773.65	3051.47
773.83	3311.57
774.01	3389.39
774.18	3084.24
774.36	3209.17
774.54	3098.58
774.71	3497.93
774.89	3160.02
775.07	3074.00
775.24	3155.92
775.42	3299.28
775.60	3823.56
775.78	3149.78
775.95	3028.95
776.13	3104.72
776.31	3092.43
776.48	3442.64
776.66	3366.86
776.84	3311.57
777.01	3157.97
777.19	3076.05
777.37	3149.78
777.54	3631.05
777.72	3878.85
777.90	3332.05
778.07	3069.91
778.25	4190.14
778.43	3682.25
778.60	3155.92
778.78	3303.37
778.96	3690.44
779.13	3102.67
779.31	3219.41
779.49	3262.41
779.66	3434.44
779.84	3342.28
780.01	3106.77
780.19	3094.48
780.37	3755.97
780.54	3618.76
780.72	3051.47
780.90	3246.03
781.07	3278.80
781.25	3397.58
781.43	3387.34
781.60	3145.68
781.78	3717.06
781.95	3422.16
782.13	3229.65
782.31	3213.26
782.48	3041.23
782.66	3409.87
782.83	3454.92
783.01	3362.76
783.19	3626.95
783.36	3354.57
783.54	3114.96
783.72	3250.13
783.89	3375.05
784.07	3420.11
784.24	3342.28
784.42	3383.24
784.60	3538.89
784.77	3438.54
784.95	2971.60
785.12	3143.63
785.30	3489.74
785.47	3254.22
785.65	3041.23
785.83	3360.72
786.00	3385.29
786.18	3508.17
786.35	3100.62
786.53	3131.34
786.71	3694.54
786.88	3487.69
787.06	3248.08
787.23	3254.22
787.41	3223.50
787.58	3411.92
787.76	3172.30
787.94	3282.89
788.11	3467.21
788.29	3114.96
788.46	3151.82
788.64	3028.95
788.81	3254.22
788.99	3270.61
789.16	3164.11
789.34	3117.01
789.52	3311.57
789.69	3377.10
789.87	2938.84
790.04	3102.67
790.22	3364.81
790.39	3815.37
790.57	3145.68
790.74	3166.16
790.92	3651.53
791.09	3067.86
791.27	3276.75
791.44	3241.93
791.62	3368.91
791.79	3588.04
791.97	3323.85
792.15	3461.07
792.32	3510.22
792.50	3657.67
792.67	3418.06
792.85	3563.47
793.02	3407.82
793.20	3348.43
793.37	3125.20
793.55	3176.40
793.72	3168.21
793.90	3649.48
794.07	3196.88
794.25	3133.39
794.42	3502.03
794.60	3389.39
794.77	3262.41
794.95	3389.39
795.12	3592.14
795.30	3344.33
795.47	3030.99
795.65	3454.92
795.82	3573.71
796.00	3348.43
796.17	3330.00
796.34	3090.38
796.52	3424.20
796.69	3600.33
796.87	3262.41
797.04	3399.63
797.22	3633.10
797.39	3540.94
797.57	3336.14
797.74	3301.33
797.92	3547.08
798.09	3319.76
798.27	3583.95
798.44	3170.26
798.62	3352.52
798.79	3477.45
798.96	3385.29
799.14	3166.16
799.31	3901.38
799.49	3463.12
799.66	3170.26
799.84	3266.51
800.01	3166.16
800.19	3477.45
800.36	2992.08
800.53	3233.74
800.71	3497.93
800.88	3815.37
801.06	3133.39
801.23	3157.97
801.41	3467.21
801.58	3305.42
801.75	3184.59
801.93	3225.55
802.10	3606.47
802.28	3377.10
802.45	3286.99
802.63	3231.69
802.80	3803.08
802.97	3330.00
803.15	3237.84
803.32	3160.02
803.50	3225.55
803.67	3262.41
803.84	3188.69
804.02	3305.42
804.19	3330.00
804.37	2996.18
804.54	3008.47
804.71	3067.86
804.89	3420.11
805.06	3188.69
805.24	3153.87
805.41	3000.27
805.58	3289.04
805.76	3944.39
805.93	3182.54
806.10	3330.00
806.28	3647.43
806.45	3389.39
806.63	3413.96
806.80	3266.51
806.97	3542.99
807.15	3493.83
807.32	3276.75
807.49	3172.30
807.67	3137.49
807.84	3469.26
808.01	2979.79
808.19	3411.92
808.36	3796.93
808.54	3303.37
808.71	3143.63
808.88	3168.21
809.06	3698.63
809.23	3796.93
809.40	3180.50
809.58	3094.48
809.75	3536.84
809.92	3147.73
810.10	3473.36
810.27	3190.74
810.44	3563.47
810.62	3631.05
810.79	3252.17
810.96	3246.03
811.14	3385.29
811.31	3534.79
811.48	3307.47
811.66	3309.52
811.83	3657.67
812.00	3561.42
812.18	3264.46
812.35	3581.90
812.52	3438.54
812.69	3370.96
812.87	3166.16
813.04	3182.54
813.21	3461.07
813.39	3272.65
813.56	3164.11
813.73	3473.36
813.91	3110.86
814.08	3420.11
814.25	3198.93
814.42	3014.61
814.60	3346.38
814.77	3508.17
814.94	3129.30
815.12	3272.65
815.29	3923.91
815.46	3356.62
815.63	3248.08
815.81	3203.02
815.98	3342.28
816.15	3469.26
816.33	3229.65
816.50	3190.74
816.67	3450.83
816.84	3377.10
817.02	3086.29
817.19	3192.78
817.36	3514.31
817.53	3436.49
817.71	3059.67
817.88	3192.78
818.05	3373.00
818.22	3229.65
818.40	3362.76
818.57	3133.39
818.74	3499.98
818.91	3401.68
819.09	3428.30
819.26	3305.42
819.43	3295.18
819.60	3250.13
819.78	3469.26
819.95	3256.27
820.12	3272.65
820.29	3710.92
820.47	3452.88
820.64	3057.62
820.81	3131.34
820.98	3303.37
821.15	3213.26
821.33	3321.81
821.50	3117.01
821.67	3547.08
821.84	3215.31
822.02	3162.06
822.19	3592.14
822.36	3338.19
822.53	3123.15
822.70	3053.52
822.88	3413.96
823.05	3782.60
823.22	3268.56
823.39	3147.73
823.56	3370.96
823.74	3837.89
823.91	2961.36
824.08	3067.86
824.25	3219.41
824.42	3710.92
824.60	3033.04
824.77	3282.89
824.94	3397.58
825.11	3534.79
825.28	3084.24
825.45	3362.76
825.63	3504.07
825.80	3164.11
825.97	3229.65
826.14	3241.93
826.31	3125.20
826.48	3499.98
826.66	3125.20
826.83	3180.50
827.00	3364.81
827.17	3200.98
827.34	3299.28
827.51	3147.73
827.69	3395.53
827.86	3139.54
828.03	3237.84
828.20	3190.74
828.37	3321.81
828.54	3510.22
828.71	3155.92
828.89	3231.69
829.06	3454.92
829.23	3735.50
829.40	3172.30
829.57	3123.15
829.74	3581.90
829.91	3368.91
830.09	3192.78
830.26	3319.76
830.43	3825.61
830.60	3336.14
830.77	3381.20
830.94	3407.82
831.11	3641.29
831.28	3319.76
831.46	3346.38
831.63	3166.16
831.80	3672.01
831.97	3237.84
832.14	3237.84
832.31	3106.77
832.48	3477.45
832.65	3559.37
832.82	3282.89
832.99	3217.36
833.17	3211.22
833.34	3721.16
833.51	3090.38
833.68	3004.37
833.85	3686.34
834.02	3254.22
834.19	3135.44
834.36	3246.03
834.53	3459.02
834.70	3674.06
834.87	3180.50
835.04	2981.84
835.22	3223.50
835.39	3354.57
835.56	2992.08
835.73	3037.14
835.90	3622.86
836.07	3313.61
836.24	3069.91
836.41	3018.71
836.58	3264.46
836.75	3661.77
836.92	3000.27
837.09	2959.31
837.26	3629.00
837.43	3532.75
837.60	3057.62
837.77	3028.95
837.94	3588.04
838.12	3747.78
838.29	2877.40
838.46	2934.74
838.63	3241.93
838.80	3778.50
838.97	3119.06
839.14	2996.18
839.31	3393.48
839.48	3559.37
839.65	3047.38
839.82	3139.54
839.99	3495.88
840.16	3491.79
840.33	3012.56
840.50	3055.57
840.67	3299.28
840.84	2899.92
841.01	2908.12
841.18	2936.79
841.35	3454.92
841.52	3520.46
841.69	3315.66
841.86	3088.34
842.03	3436.49
842.20	3540.94
842.37	3000.27
842.54	3074.00
842.71	3405.77
842.88	3061.71
843.05	3059.67
843.22	3024.85
843.39	3624.90
843.56	3264.46
843.73	3016.66
843.90	3053.52
844.07	3495.88
844.24	3655.62
844.41	3143.63
844.58	3071.95
844.75	3409.87
844.92	3510.22
845.09	3057.62
845.26	3030.99
845.43	3631.05
845.60	3321.81
845.77	3110.86
845.94	3123.15
846.10	3585.99
846.27	3155.92
846.44	2983.89
846.61	2953.17
846.78	3573.71
846.95	3620.81
847.12	2938.84
847.29	3069.91
847.46	3215.31
847.63	3542.99
847.80	2924.50
847.97	2969.55
848.14	3932.10
848.31	3405.77
848.48	2832.34
848.65	2996.18
848.82	3295.18
848.98	4034.50
849.15	3170.26
849.32	3192.78
849.49	3643.34
849.66	3278.80
849.83	3012.56
850.00	2940.88
850.17	3551.18
850.34	3354.57
850.51	2971.60
850.68	3014.61
850.85	3964.87
851.01	3493.83
851.18	2961.36
851.35	3016.66
851.52	3553.23
851.69	3760.07
851.86	2953.17
852.03	2977.75
852.20	3561.42
852.37	3491.79
852.53	2926.55
852.70	2942.93
852.87	3481.55
853.04	3524.55
853.21	2965.46
853.38	3311.57
853.55	3762.12
853.72	3801.03
853.89	2908.12
854.05	2983.89
854.22	3444.68
854.39	3276.75
854.56	2899.92
854.73	3172.30
854.90	3286.99
855.07	3352.52
855.23	2924.50
855.40	2936.79
855.57	3379.15
855.74	2975.70
855.91	3246.03
856.08	2918.36
856.25	3108.82
856.41	3321.81
856.58	2977.75
856.75	3016.66
856.92	3225.55
857.09	3592.14
857.26	2844.63
857.42	3076.05
857.59	3499.98
857.76	3395.53
857.93	2977.75
858.10	3147.73
858.27	3200.98
858.43	3461.07
858.60	3010.51
858.77	2934.74
858.94	3262.41
859.11	3590.09
859.27	3078.10
859.44	3000.27
859.61	3944.39
859.78	3606.47
859.95	3039.19
860.12	2994.13
860.28	3854.28
860.45	3852.23
860.62	2914.26
860.79	3069.91
860.95	3465.16
861.12	3233.74
861.29	2953.17
861.46	2957.27
861.63	3416.01
861.79	3557.32
861.96	2920.40
862.13	2975.70
862.30	3762.12
862.47	3280.85
862.63	2908.12
862.80	3028.95
862.97	3592.14
863.14	3467.21
863.30	2942.93
863.47	2924.50
863.64	3852.23
863.81	3397.58
863.97	2828.24
864.14	3055.57
864.31	3399.63
864.48	3485.64
864.65	3012.56
864.81	3098.58
864.98	3588.04
865.15	3729.35
865.32	3114.96
865.48	3151.82
865.65	3827.65
865.82	3340.24
865.98	3127.25
866.15	3139.54
866.32	3344.33
866.49	3401.68
866.65	3184.59
866.82	3067.86
866.99	3428.30
867.16	3319.76
867.32	3049.43
867.49	2942.93
867.66	3360.72
867.83	3319.76
867.99	2930.64
868.16	3106.77
868.33	3237.84
868.49	3403.72
868.66	2975.70
868.83	3094.48
868.99	3399.63
869.16	3485.64
869.33	3162.06
869.50	3114.96
869.66	3432.40
869.83	3319.76
870.00	2809.81
870.16	3198.93
870.33	3387.34
870.50	3590.09
870.66	3119.06
870.83	2977.75
871.00	3426.25
871.17	3559.37
871.33	3096.53
871.50	3010.51
871.67	3360.72
871.83	3143.63
872.00	3125.20
872.17	3092.43
872.33	3868.61
872.50	3725.26
872.67	2990.03
872.83	3010.51
873.00	3610.57
873.17	3391.44
873.33	3157.97
873.50	3098.58
873.67	3211.22
873.83	3229.65
874.00	3043.28
874.16	3200.98
874.33	3454.92
874.50	3129.30
874.66	2977.75
874.83	3108.82
875.00	3491.79
875.16	3715.02
875.33	3121.10
875.50	2715.61
875.66	3424.20
875.83	3459.02
875.99	3074.00
876.16	3108.82
876.33	3160.02
876.49	3413.96
876.66	3057.62
876.83	3131.34
876.99	3125.20
877.16	3385.29
877.32	2934.74
877.49	3141.58
877.66	3491.79
877.82	3651.53
877.99	3088.34
878.15	3340.24
878.32	3594.19
878.49	3481.55
878.65	3160.02
878.82	3309.52
878.98	3364.81
879.15	3624.90
879.32	3254.22
879.48	3194.83
879.65	3411.92
879.81	3477.45
879.98	3053.52
880.15	3086.29
880.31	3590.09
880.48	3203.02
880.64	3121.10
880.81	3229.65
880.97	3821.51
881.14	3672.01
881.31	2992.08
881.47	3237.84
881.64	3362.76
881.80	3084.24
881.97	3149.78
882.13	3131.34
882.30	3090.38
882.47	3227.60
882.63	2979.79
882.80	3018.71
882.96	3342.28
883.13	3614.66
883.29	2922.45
883.46	2951.12
883.62	3805.13
883.79	3432.40
883.95	3139.54
884.12	3033.04
884.29	3669.96
884.45	3405.77
884.62	3106.77
884.78	3035.09
884.95	3868.61
885.11	3164.11
885.28	3106.77
885.44	3110.86
885.61	3618.76
885.77	3737.54
885.94	3196.88
886.10	3041.23
886.27	3401.68
886.43	3872.71
886.60	3280.85
886.76	3035.09
886.93	3194.83
887.09	3403.72
887.26	2985.94
887.42	3182.54
887.59	3663.82
887.75	3958.72
887.92	3252.17
888.08	3125.20
888.25	3807.17
888.41	3631.05
888.58	3125.20
888.74	2979.79
888.91	3348.43
>>>>>End Processed Spectral Data<<<<<
