SpectraSuite Data File
++++++++++++++++++++++++++++++++++++
Date: Fri May 06 09:29:18 CEST 2016
User: root
Dark Spectrum Present: No
Reference Spectrum Present: No
Number of Sampled Component Spectra: 1
Spectrometers: USB4C02835
Integration Time (usec): 100000 (USB4C02835)
Spectra Averaged: 1 (USB4C02835)
Boxcar Smoothing: 0 (USB4C02835)
Correct for Electrical Dark: No (USB4C02835)
Strobe/Lamp Enabled: No (USB4C02835)
Correct for Detector Non-linearity: No (USB4C02835)
Correct for Stray Light: No (USB4C02835)
Number of Pixels in Processed Spectrum: 3648
>>>>>Begin Processed Spectral Data<<<<<
177.47	2324.44
177.69	2324.44
177.91	2324.44
178.13	2340.83
178.36	2269.15
178.58	3104.72
178.80	3188.69
179.02	3143.63
179.24	3205.07
179.46	2885.59
179.68	2873.30
179.90	3407.82
180.13	3479.50
180.35	2789.33
180.57	2879.44
180.79	3624.90
181.01	3377.10
181.23	2951.12
181.45	3055.57
181.67	3637.19
181.90	3692.49
182.12	3041.23
182.34	2789.33
182.56	3520.46
182.78	3536.84
183.00	2824.15
183.22	2971.60
183.44	3033.04
183.66	4167.62
183.89	3129.30
184.11	3043.28
184.33	3653.58
184.55	3690.44
184.77	2871.25
184.99	2985.94
185.21	3364.81
185.43	4095.94
185.65	2977.75
185.87	2918.36
186.10	4030.40
186.32	4110.27
186.54	3096.53
186.76	3069.91
186.98	3641.29
187.20	3360.72
187.42	2934.74
187.64	2963.41
187.86	3555.27
188.08	3770.31
188.30	2883.54
188.52	3002.32
188.75	3794.89
188.97	3708.87
189.19	2992.08
189.41	2930.64
189.63	3622.86
189.85	3272.65
190.07	2850.77
190.29	2836.44
190.51	3555.27
190.73	3155.92
190.95	3151.82
191.17	3049.43
191.39	3141.58
191.61	3391.44
191.84	3026.90
192.06	3061.71
192.28	3028.95
192.50	4198.34
192.72	3074.00
192.94	3088.34
193.16	3688.39
193.38	3534.79
193.60	2852.82
193.82	3221.45
194.04	3672.01
194.26	3530.70
194.48	2922.45
194.70	2942.93
194.92	3373.00
195.14	3565.51
195.36	2969.55
195.58	3098.58
195.80	3432.40
196.02	3239.89
196.24	2879.44
196.46	3082.19
196.69	3317.71
196.91	3966.92
197.13	3131.34
197.35	3033.04
197.57	3889.09
197.79	3614.66
198.01	3092.43
198.23	3012.56
198.45	3518.41
198.67	3147.73
198.89	2740.18
199.11	3104.72
199.33	3315.66
199.55	2969.55
199.77	2957.27
199.99	3153.87
200.21	3356.62
200.43	3590.09
200.65	2865.11
200.87	2840.53
201.09	3440.59
201.31	3381.20
201.53	3067.86
201.75	3098.58
201.97	3506.12
202.19	3467.21
202.41	3049.43
202.63	3000.27
202.85	3655.62
203.07	3524.55
203.29	3033.04
203.51	2918.36
203.73	3299.28
203.95	4059.07
204.17	2920.40
204.39	3092.43
204.61	3352.52
204.83	3229.65
205.05	3141.58
205.27	2967.51
205.49	3983.30
205.71	3532.75
205.93	2828.24
206.15	2830.29
206.37	3540.94
206.59	3373.00
206.81	2824.15
207.03	2840.53
207.25	3315.66
207.47	3581.90
207.69	3028.95
207.91	3155.92
208.13	3854.28
208.34	3303.37
208.56	2912.21
208.78	2951.12
209.00	3428.30
209.22	3340.24
209.44	3024.85
209.66	2873.30
209.88	3567.56
210.10	3436.49
210.32	2965.46
210.54	3037.14
210.76	3379.15
210.98	3655.62
211.20	2840.53
211.42	3069.91
211.64	3762.12
211.86	3592.14
212.08	3082.19
212.30	3026.90
212.52	3352.52
212.74	3608.52
212.96	3074.00
213.17	3020.75
213.39	3581.90
213.61	3770.31
213.83	2863.06
214.05	2830.29
214.27	3692.49
214.49	3278.80
214.71	2930.64
214.93	3094.48
215.15	3549.13
215.37	3639.24
215.59	2813.91
215.81	3014.61
216.03	3798.98
216.24	3430.35
216.46	2926.55
216.68	2977.75
216.90	3655.62
217.12	3688.39
217.34	2910.16
217.56	3160.02
217.78	3708.87
218.00	3606.47
218.22	3065.81
218.44	3104.72
218.66	3493.83
218.87	3776.45
219.09	2951.12
219.31	3035.09
219.53	3610.57
219.75	3377.10
219.97	3020.75
220.19	3022.80
220.41	3436.49
220.63	3878.85
220.85	3008.47
221.06	2955.22
221.28	3749.83
221.50	3563.47
221.72	2967.51
221.94	2856.92
222.16	3512.27
222.38	3725.26
222.60	2947.03
222.82	3000.27
223.03	3661.77
223.25	3217.36
223.47	2869.20
223.69	3223.50
223.91	3602.38
224.13	3465.16
224.35	2877.40
224.57	3166.16
224.78	3598.28
225.00	3190.74
225.22	2940.88
225.44	2914.26
225.66	3585.99
225.88	3354.57
226.10	3119.06
226.32	3002.32
226.53	3790.79
226.75	3459.02
226.97	3129.30
227.19	3014.61
227.41	3360.72
227.63	3309.52
227.85	2697.17
228.06	3065.81
228.28	3508.17
228.50	3651.53
228.72	2852.82
228.94	2969.55
229.16	3078.10
229.37	3270.61
229.59	2947.03
229.81	3227.60
230.03	3364.81
230.25	3135.44
230.47	2803.67
230.69	3020.75
230.90	3602.38
231.12	3254.22
231.34	3110.86
231.56	2996.18
231.78	3229.65
232.00	3512.27
232.21	3059.67
232.43	3030.99
232.65	3024.85
232.87	3512.27
233.09	2836.44
233.30	2887.64
233.52	3608.52
233.74	3375.05
233.96	2920.40
234.18	3164.11
234.40	3475.40
234.61	3958.72
234.83	2836.44
235.05	2971.60
235.27	4089.79
235.49	3782.60
235.70	2856.92
235.92	3024.85
236.14	3606.47
236.36	4067.27
236.58	2877.40
236.79	3149.78
237.01	3477.45
237.23	3446.73
237.45	3151.82
237.67	3041.23
237.88	3528.65
238.10	3903.43
238.32	2854.87
238.54	2996.18
238.76	3352.52
238.97	3248.08
239.19	2885.59
239.41	3028.95
239.63	3772.36
239.85	3315.66
240.06	2983.89
240.28	2973.65
240.50	3669.96
240.72	3364.81
240.93	2891.73
241.15	3127.25
241.37	3471.31
241.59	3700.68
241.81	3030.99
242.02	3033.04
242.24	3499.98
242.46	3616.71
242.68	2777.05
242.89	2887.64
243.11	3686.34
243.33	3430.35
243.55	2963.41
243.76	2967.51
243.98	3235.79
244.20	3401.68
244.42	2975.70
244.64	2969.55
244.85	3157.97
245.07	3184.59
245.29	2963.41
245.51	3045.33
245.72	3469.26
245.94	3706.82
246.16	2887.64
246.38	3010.51
246.59	3311.57
246.81	3254.22
247.03	2918.36
247.24	2828.24
247.46	3313.61
247.68	3477.45
247.90	2916.31
248.11	2963.41
248.33	3571.66
248.55	3438.54
248.77	3008.47
248.98	3096.53
249.20	3760.07
249.42	3448.78
249.64	2920.40
249.85	2865.11
250.07	3295.18
250.29	3624.90
250.50	3043.28
250.72	2869.20
250.94	3491.79
251.16	3860.42
251.37	2944.98
251.59	3043.28
251.81	3547.08
252.02	3712.97
252.24	2801.62
252.46	3141.58
252.68	3307.47
252.89	3362.76
253.11	2820.05
253.33	3127.25
253.54	3796.93
253.76	3209.17
253.98	2938.84
254.20	2918.36
254.41	3229.65
254.63	3385.29
254.85	2836.44
255.06	3090.38
255.28	3639.24
255.50	3385.29
255.71	2865.11
255.93	2815.96
256.15	3432.40
256.36	3540.94
256.58	2752.47
256.80	2906.07
257.02	3327.95
257.23	3454.92
257.45	3041.23
257.67	3074.00
257.88	3401.68
258.10	3600.33
258.32	2987.99
258.53	3092.43
258.75	3876.80
258.97	3354.57
259.18	2889.68
259.40	2961.36
259.62	3798.98
259.83	3819.46
260.05	2961.36
260.27	3907.52
260.48	3602.38
260.70	3354.57
260.92	2910.16
261.13	2985.94
261.35	3567.56
261.57	3522.51
261.78	2877.40
262.00	2942.93
262.22	3602.38
262.43	3309.52
262.65	2895.83
262.86	3020.75
263.08	4026.31
263.30	3467.21
263.51	2781.14
263.73	2904.02
263.95	3942.34
264.16	3272.65
264.38	2818.00
264.60	2893.78
264.81	3467.21
265.03	3723.21
265.25	3383.24
265.46	2899.92
265.68	3690.44
265.89	3614.66
266.11	2813.91
266.33	2912.21
266.54	3653.58
266.76	3565.51
266.98	3016.66
267.19	3215.31
267.41	3731.40
267.62	3385.29
267.84	2787.29
268.06	3164.11
268.27	3461.07
268.49	3723.21
268.70	3053.52
268.92	3030.99
269.14	3209.17
269.35	3155.92
269.57	3108.82
269.79	3117.01
270.00	3397.58
270.22	3819.46
270.43	2877.40
270.65	2881.49
270.87	3553.23
271.08	3676.10
271.30	3063.76
271.51	2916.31
271.73	3592.14
271.95	3762.12
272.16	2908.12
272.38	3155.92
272.59	3385.29
272.81	3526.60
273.02	2908.12
273.24	3000.27
273.46	3747.78
273.67	3141.58
273.89	2893.78
274.10	2910.16
274.32	3588.04
274.54	3549.13
274.75	3030.99
274.97	3092.43
275.18	3667.91
275.40	3561.42
275.61	2975.70
275.83	3078.10
276.05	3198.93
276.26	3471.31
276.48	3008.47
276.69	3143.63
276.91	3352.52
277.12	3835.85
277.34	3190.74
277.55	3233.74
277.77	3428.30
277.99	3321.81
278.20	3127.25
278.42	2992.08
278.63	3274.70
278.85	3217.36
279.06	3078.10
279.28	3219.41
279.49	3737.54
279.71	3592.14
279.93	3194.83
280.14	3141.58
280.36	3219.41
280.57	3536.84
280.79	3215.31
281.00	3012.56
281.22	3413.96
281.43	3665.86
281.65	2842.58
281.86	3004.37
282.08	3565.51
282.29	3852.23
282.51	2893.78
282.73	3043.28
282.94	3151.82
283.16	3571.66
283.37	3133.39
283.59	3045.33
283.80	3547.08
284.02	3323.85
284.23	3178.45
284.45	3125.20
284.66	3303.37
284.88	3323.85
285.09	3043.28
285.31	3246.03
285.52	3495.88
285.74	3133.39
285.95	3295.18
286.17	3225.55
286.38	3723.21
286.60	3325.90
286.81	3010.51
287.03	3033.04
287.24	3428.30
287.46	3588.04
287.67	3205.07
287.89	3297.23
288.10	3459.02
288.32	3401.68
288.53	3274.70
288.75	3180.50
288.96	3622.86
289.18	3295.18
289.39	3026.90
289.61	3229.65
289.82	3956.68
290.04	3979.20
290.25	2969.55
290.47	3143.63
290.68	3409.87
290.90	3669.96
291.11	2895.83
291.33	3270.61
291.54	3264.46
291.76	3305.42
291.97	3225.55
292.18	3229.65
292.40	3364.81
292.61	3286.99
292.83	3428.30
293.04	3143.63
293.26	3426.25
293.47	3393.48
293.69	3125.20
293.90	2990.03
294.12	3782.60
294.33	3532.75
294.55	3235.79
294.76	3350.48
294.97	3737.54
295.19	3966.92
295.40	3045.33
295.62	3129.30
295.83	3680.20
296.05	3239.89
296.26	3356.62
296.48	3102.67
296.69	3442.64
296.90	3448.78
297.12	3299.28
297.33	3213.26
297.55	3377.10
297.76	3499.98
297.98	3192.78
298.19	3313.61
298.41	3413.96
298.62	3215.31
298.83	3297.23
299.05	3239.89
299.26	3330.00
299.48	3334.09
299.69	3110.86
299.90	3088.34
300.12	3229.65
300.33	3565.51
300.55	3196.88
300.76	3149.78
300.98	3266.51
301.19	3567.56
301.40	3035.09
301.62	3057.62
301.83	3565.51
302.05	3397.58
302.26	3000.27
302.47	3213.26
302.69	3155.92
302.90	3442.64
303.12	2940.88
303.33	3182.54
303.54	3858.37
303.76	3338.19
303.97	3067.86
304.19	3311.57
304.40	3237.84
304.61	3569.61
304.83	3221.45
305.04	3129.30
305.26	3686.34
305.47	3305.42
305.68	3074.00
305.90	2955.22
306.11	3706.82
306.33	3420.11
306.54	3002.32
306.75	3065.81
306.97	3170.26
307.18	3258.32
307.39	3123.15
307.61	3188.69
307.82	3395.53
308.04	3557.32
308.25	2959.31
308.46	3336.14
308.68	3416.01
308.89	3454.92
309.10	3239.89
309.32	3155.92
309.53	3497.93
309.74	3581.90
309.96	3016.66
310.17	3149.78
310.39	3340.24
310.60	3573.71
310.81	3127.25
311.03	3024.85
311.24	3596.23
311.45	3479.50
311.67	3362.76
311.88	3303.37
312.09	3389.39
312.31	3233.74
312.52	2967.51
312.73	3018.71
312.95	3188.69
313.16	3147.73
313.37	3241.93
313.59	3360.72
313.80	3602.38
314.01	3786.69
314.23	3071.95
314.44	2990.03
314.65	3065.81
314.87	3280.85
315.08	3018.71
315.29	3168.21
315.51	3207.12
315.72	3164.11
315.93	3151.82
316.15	3119.06
316.36	3387.34
316.57	3516.36
316.79	3071.95
317.00	3024.85
317.21	3545.03
317.43	3291.09
317.64	3147.73
317.85	2947.03
318.07	3338.19
318.28	3330.00
318.49	3157.97
318.70	3307.47
318.92	3499.98
319.13	3516.36
319.34	3266.51
319.56	3061.71
319.77	3549.13
319.98	3637.19
320.20	3411.92
320.41	3215.31
320.62	3567.56
320.83	3155.92
321.05	3291.09
321.26	3094.48
321.47	3368.91
321.69	3807.17
321.90	2985.94
322.11	3057.62
322.32	3512.27
322.54	3790.79
322.75	3237.84
322.96	4237.25
323.18	3147.73
323.39	3123.15
323.60	2975.70
323.81	3235.79
324.03	3256.27
324.24	3360.72
324.45	3270.61
324.66	2977.75
324.88	3712.97
325.09	3844.04
325.30	3098.58
325.52	3000.27
325.73	3499.98
325.94	3233.74
326.15	2977.75
326.37	2904.02
326.58	3600.33
326.79	3811.27
327.00	3088.34
327.22	3076.05
327.43	3391.44
327.64	3196.88
327.85	3241.93
328.07	3143.63
328.28	3854.28
328.49	3262.41
328.70	3178.45
328.92	3094.48
329.13	3389.39
329.34	3516.36
329.55	3350.48
329.76	3213.26
329.98	3360.72
330.19	3753.93
330.40	3160.02
330.61	3252.17
330.83	3592.14
331.04	3278.80
331.25	3207.12
331.46	3155.92
331.68	3217.36
331.89	3659.72
332.10	3219.41
332.31	2998.23
332.52	3385.29
332.74	3712.97
332.95	3000.27
333.16	3065.81
333.37	3641.29
333.58	3352.52
333.80	3047.38
334.01	2889.68
334.22	3442.64
334.43	3274.70
334.64	3024.85
334.86	3030.99
335.07	3164.11
335.28	3772.36
335.49	3096.53
335.70	3182.54
335.92	3700.68
336.13	3975.11
336.34	3135.44
336.55	3094.48
336.76	3522.51
336.98	3002.32
337.19	3119.06
337.40	3264.46
337.61	4057.03
337.82	3319.76
338.04	3211.22
338.25	2963.41
338.46	3391.44
338.67	3395.53
338.88	3037.14
339.09	2963.41
339.31	3330.00
339.52	3203.02
339.73	3065.81
339.94	3143.63
340.15	3502.03
340.36	3321.81
340.58	3155.92
340.79	3024.85
341.00	3528.65
341.21	3180.50
341.42	3303.37
341.63	3057.62
341.85	3729.35
342.06	3487.69
342.27	3117.01
342.48	3321.81
342.69	3172.30
342.90	3516.36
343.12	3577.80
343.33	3076.05
343.54	3624.90
343.75	3721.16
343.96	3229.65
344.17	3053.52
344.38	3463.12
344.60	3256.27
344.81	3074.00
345.02	3137.49
345.23	3712.97
345.44	4093.89
345.65	3174.35
345.86	3166.16
346.07	3475.40
346.29	3270.61
346.50	3200.98
346.71	3188.69
346.92	3725.26
347.13	4024.26
347.34	3217.36
347.55	2959.31
347.76	3565.51
347.98	3100.62
348.19	3141.58
348.40	3305.42
348.61	3377.10
348.82	3755.97
349.03	3200.98
349.24	3071.95
349.45	3979.20
349.66	3047.38
349.88	3053.52
350.09	3022.80
350.30	3715.02
350.51	3735.50
350.72	3293.13
350.93	3110.86
351.14	3289.04
351.35	3493.83
351.56	3155.92
351.77	3198.93
351.99	3528.65
352.20	3688.39
352.41	3147.73
352.62	2883.54
352.83	3436.49
353.04	3428.30
353.25	3135.44
353.46	3139.54
353.67	3598.28
353.88	3024.85
354.09	3053.52
354.30	3215.31
354.52	3598.28
354.73	3434.44
354.94	3059.67
355.15	3209.17
355.36	3758.02
355.57	3262.41
355.78	2987.99
355.99	3155.92
356.20	3440.59
356.41	3653.58
356.62	3233.74
356.83	3114.96
357.04	3712.97
357.25	3106.77
357.46	3028.95
357.68	2994.13
357.89	3319.76
358.10	3352.52
358.31	3084.24
358.52	3184.59
358.73	3188.69
358.94	3248.08
359.15	3139.54
359.36	3135.44
359.57	3553.23
359.78	3420.11
359.99	3342.28
360.20	2926.55
360.41	3405.77
360.62	3553.23
360.83	3217.36
361.04	3117.01
361.25	3594.19
361.46	3753.93
361.67	3248.08
361.88	3065.81
362.09	3594.19
362.30	3440.59
362.51	3063.76
362.72	3100.62
362.93	3653.58
363.14	3577.80
363.35	3223.50
363.56	3028.95
363.78	3721.16
363.99	3680.20
364.20	3110.86
364.41	3215.31
364.62	3862.47
364.83	3479.50
365.04	3078.10
365.25	3149.78
365.46	3940.29
365.67	3340.24
365.88	3327.95
366.09	3045.33
366.30	3360.72
366.51	3426.25
366.72	2996.18
366.93	3108.82
367.14	3477.45
367.35	3801.03
367.56	3037.14
367.77	3166.16
367.98	3420.11
368.18	3629.00
368.39	3274.70
368.60	3094.48
368.81	3602.38
369.02	3532.75
369.23	3084.24
369.44	3024.85
369.65	3454.92
369.86	3479.50
370.07	3209.17
370.28	3049.43
370.49	3506.12
370.70	3475.40
370.91	2920.40
371.12	2906.07
371.33	3694.54
371.54	3317.71
371.75	3223.50
371.96	2801.62
372.17	3518.41
372.38	3377.10
372.59	3117.01
372.80	2963.41
373.01	3315.66
373.22	3481.55
373.43	3168.21
373.64	3012.56
373.85	3692.49
374.06	3839.94
374.26	3200.98
374.47	3233.74
374.68	3704.78
374.89	3540.94
375.10	3000.27
375.31	3229.65
375.52	3467.21
375.73	3428.30
375.94	2951.12
376.15	3221.45
376.36	3233.74
376.57	3291.09
376.78	3182.54
376.99	3147.73
377.20	3684.30
377.40	3385.29
377.61	3547.08
377.82	3082.19
378.03	3708.87
378.24	3651.53
378.45	3254.22
378.66	3172.30
378.87	3090.38
379.08	3205.07
379.29	3182.54
379.50	3342.28
379.71	3428.30
379.91	3669.96
380.12	3082.19
380.33	3198.93
380.54	3428.30
380.75	3461.07
380.96	3143.63
381.17	3037.14
381.38	3385.29
381.59	3426.25
381.80	3184.59
382.00	3286.99
382.21	3434.44
382.42	3770.31
382.63	3446.73
382.84	3293.13
383.05	3540.94
383.26	3721.16
383.47	3200.98
383.68	3033.04
383.88	3450.83
384.09	3456.97
384.30	3307.47
384.51	3196.88
384.72	3379.15
384.93	3160.02
385.14	3248.08
385.35	3383.24
385.55	3170.26
385.76	3727.30
385.97	3149.78
386.18	2985.94
386.39	3305.42
386.60	3239.89
386.81	3053.52
387.02	3043.28
387.22	3219.41
387.43	3530.70
387.64	3180.50
387.85	3321.81
388.06	3409.87
388.27	4417.47
388.48	7214.99
388.68	10833.75
388.89	13637.42
389.10	14776.09
389.31	14229.29
389.52	11646.80
389.73	10284.90
389.93	9482.10
390.14	8439.68
390.35	7880.58
390.56	7440.27
390.77	6248.35
390.98	4747.19
391.18	4071.36
391.39	3891.14
391.60	3483.59
391.81	3336.14
392.02	3182.54
392.23	3966.92
392.43	3540.94
392.64	3250.13
392.85	3200.98
393.06	3739.59
393.27	3434.44
393.47	3119.06
393.68	3225.55
393.89	3381.20
394.10	3715.02
394.31	3164.11
394.52	3119.06
394.72	3254.22
394.93	3739.59
395.14	2942.93
395.35	3221.45
395.56	3313.61
395.76	3381.20
395.97	3125.20
396.18	3307.47
396.39	3461.07
396.60	4114.37
396.80	3485.64
397.01	3340.24
397.22	3569.61
397.43	3579.85
397.64	3164.11
397.84	3262.41
398.05	3852.23
398.26	3313.61
398.47	3229.65
398.67	3438.54
398.88	3422.16
399.09	3585.99
399.30	3096.53
399.51	3188.69
399.71	3280.85
399.92	3413.96
400.13	3237.84
400.34	3074.00
400.54	3532.75
400.75	3825.61
400.96	3162.06
401.17	3387.34
401.37	3516.36
401.58	3438.54
401.79	3141.58
402.00	3264.46
402.21	3975.11
402.41	3551.18
402.62	3463.12
402.83	3506.12
403.04	3811.27
403.24	4210.62
403.45	3299.28
403.66	3430.35
403.87	3729.35
404.07	3792.84
404.28	3295.18
404.49	3383.24
404.70	3522.51
404.90	3622.86
405.11	3125.20
405.32	3262.41
405.52	3254.22
405.73	3286.99
405.94	3039.19
406.15	3188.69
406.35	3610.57
406.56	3637.19
406.77	3149.78
406.98	3139.54
407.18	3354.57
407.39	3721.16
407.60	3231.69
407.80	3221.45
408.01	3393.48
408.22	3522.51
408.43	3057.62
408.63	3311.57
408.84	3700.68
409.05	3629.00
409.25	3082.19
409.46	3149.78
409.67	3411.92
409.88	3317.71
410.08	3200.98
410.29	3098.58
410.50	3657.67
410.70	3522.51
410.91	3037.14
411.12	3182.54
411.32	3502.03
411.53	3209.17
411.74	3057.62
411.95	3233.74
412.15	3373.00
412.36	3704.78
412.57	3325.90
412.77	3286.99
412.98	3354.57
413.19	3344.33
413.39	3188.69
413.60	3231.69
413.81	3792.84
414.01	3198.93
414.22	3153.87
414.43	3330.00
414.63	3354.57
414.84	3680.20
415.05	3248.08
415.25	3057.62
415.46	3661.77
415.67	3393.48
415.87	3127.25
416.08	3119.06
416.29	3393.48
416.49	3567.56
416.70	3147.73
416.91	3119.06
417.11	3381.20
417.32	3706.82
417.53	3194.83
417.73	3254.22
417.94	3483.59
418.15	3504.07
418.35	3170.26
418.56	3229.65
418.77	3930.05
418.97	3545.03
419.18	3346.38
419.38	2863.06
419.59	3432.40
419.80	3805.13
420.00	3106.77
420.21	3174.35
420.42	3755.97
420.62	3545.03
420.83	3139.54
421.04	3125.20
421.24	3381.20
421.45	3588.04
421.65	3188.69
421.86	3196.88
422.07	3706.82
422.27	3573.71
422.48	3018.71
422.69	2971.60
422.89	3413.96
423.10	3405.77
423.30	3180.50
423.51	3182.54
423.72	3534.79
423.92	3672.01
424.13	3014.61
424.33	3168.21
424.54	3608.52
424.75	3557.32
424.95	3377.10
425.16	3172.30
425.36	3442.64
425.57	3688.39
425.78	3297.23
425.98	3299.28
426.19	3418.06
426.39	3254.22
426.60	3233.74
426.81	3307.47
427.01	3542.99
427.22	3336.14
427.42	3045.33
427.63	3047.38
427.83	3667.91
428.04	3876.80
428.25	3147.73
428.45	3225.55
428.66	3712.97
428.86	3434.44
429.07	3153.87
429.28	3174.35
429.48	3514.31
429.69	3311.57
429.89	3336.14
430.10	3114.96
430.30	3649.48
430.51	3696.58
430.71	3074.00
430.92	3250.13
431.13	3274.70
431.33	3614.66
431.54	3229.65
431.74	3352.52
431.95	3887.04
432.15	3229.65
432.36	3160.02
432.56	3246.03
432.77	3831.75
432.98	3885.00
433.18	3221.45
433.39	3063.76
433.59	3467.21
433.80	3903.43
434.00	3352.52
434.21	3147.73
434.41	3264.46
434.62	3968.96
434.82	3069.91
435.03	3090.38
435.23	3557.32
435.44	3129.30
435.64	3098.58
435.85	3176.40
436.06	3639.24
436.26	3641.29
436.47	3176.40
436.67	3098.58
436.88	3282.89
437.08	3712.97
437.29	3270.61
437.49	3379.15
437.70	3708.87
437.90	3393.48
438.11	3350.48
438.31	3213.26
438.52	3766.21
438.72	3594.19
438.93	3499.98
439.13	3354.57
439.34	3659.72
439.54	3334.09
439.75	3364.81
439.95	3248.08
440.16	3235.79
440.36	3471.31
440.57	3149.78
440.77	3143.63
440.98	3465.16
441.18	3436.49
441.39	3178.45
441.59	3004.37
441.80	3885.00
442.00	3370.96
442.21	3243.98
442.41	3074.00
442.62	3680.20
442.82	3198.93
443.02	3135.44
443.23	3100.62
443.43	3321.81
443.64	3712.97
443.84	3086.29
444.05	3243.98
444.25	3416.01
444.46	3377.10
444.66	3092.43
444.87	3450.83
445.07	3069.91
445.28	3442.64
445.48	3352.52
445.69	3262.41
445.89	4011.97
446.09	3358.67
446.30	3444.68
446.50	3622.86
446.71	5027.76
446.91	6191.01
447.12	6748.06
447.32	7104.40
447.53	7272.34
447.73	6238.11
447.93	5388.21
448.14	5246.90
448.34	5337.01
448.55	4429.76
448.75	4421.56
448.96	4235.20
449.16	4218.82
449.36	3968.96
449.57	3483.59
449.77	3254.22
449.98	3325.90
450.18	3604.42
450.39	3020.75
450.59	3360.72
450.79	3315.66
451.00	3250.13
451.20	3311.57
451.41	3205.07
451.61	3540.94
451.81	3405.77
452.02	3063.76
452.22	3213.26
452.43	3319.76
452.63	3321.81
452.84	3260.37
453.04	3067.86
453.24	3489.74
453.45	3223.50
453.65	3254.22
453.86	3151.82
454.06	3471.31
454.26	3426.25
454.47	3102.67
454.67	3342.28
454.87	3504.07
455.08	3368.91
455.28	3266.51
455.49	3291.09
455.69	3327.95
455.89	3893.19
456.10	3243.98
456.30	3078.10
456.51	3545.03
456.71	3450.83
456.91	3311.57
457.12	3217.36
457.32	3518.41
457.52	3147.73
457.73	3319.76
457.93	3364.81
458.14	3278.80
458.34	3094.48
458.54	3221.45
458.75	3131.34
458.95	3592.14
459.15	3592.14
459.36	3178.45
459.56	3133.39
459.76	4007.87
459.97	3495.88
460.17	3145.68
460.37	3205.07
460.58	3477.45
460.78	3565.51
460.99	3192.78
461.19	3117.01
461.39	3336.14
461.60	3295.18
461.80	3198.93
462.00	3069.91
462.21	3420.11
462.41	3227.60
462.61	3106.77
462.82	2957.27
463.02	3602.38
463.22	3510.22
463.43	3260.37
463.63	3061.71
463.83	3723.21
464.04	3524.55
464.24	3160.02
464.44	3135.44
464.64	3485.64
464.85	3629.00
465.05	3166.16
465.25	3039.19
465.46	3299.28
465.66	3581.90
465.86	3254.22
466.07	3147.73
466.27	3463.12
466.47	3110.86
466.68	2969.55
466.88	3330.00
467.08	3594.19
467.29	3643.34
467.49	3198.93
467.69	3370.96
467.89	3622.86
468.10	3364.81
468.30	3246.03
468.50	3282.89
468.71	3649.48
468.91	3096.53
469.11	3330.00
469.31	3186.64
469.52	3352.52
469.72	3770.31
469.92	3405.77
470.13	3196.88
470.33	3522.51
470.53	3565.51
470.73	3606.47
470.94	3885.00
471.14	4038.59
471.34	4607.93
471.54	4196.29
471.75	3975.11
471.95	3688.39
472.15	3696.58
472.36	3688.39
472.56	3508.17
472.76	3975.11
472.96	3852.23
473.17	3416.01
473.37	3178.45
473.57	3377.10
473.77	3637.19
473.98	3297.23
474.18	3157.97
474.38	4218.82
474.58	3311.57
474.79	3018.71
474.99	3297.23
475.19	3696.58
475.39	3284.94
475.60	3194.83
475.80	3131.34
476.00	3585.99
476.20	3348.43
476.41	3307.47
476.61	3192.78
476.81	3731.40
477.01	3286.99
477.21	3516.36
477.42	3274.70
477.62	3203.02
477.82	3647.43
478.02	3090.38
478.23	3139.54
478.43	3282.89
478.63	3463.12
478.83	3186.64
479.03	3184.59
479.24	3706.82
479.44	3880.90
479.64	3108.82
479.84	2981.84
480.04	3307.47
480.25	3633.10
480.45	3106.77
480.65	3094.48
480.85	3850.18
481.06	3420.11
481.26	3289.04
481.46	3102.67
481.66	3528.65
481.86	3301.33
482.06	3307.47
482.27	3172.30
482.47	3370.96
482.67	3549.13
482.87	3160.02
483.07	3221.45
483.28	3323.85
483.48	3231.69
483.68	3184.59
483.88	3114.96
484.08	3045.33
484.29	3151.82
484.49	3270.61
484.69	2969.55
484.89	3690.44
485.09	3661.77
485.29	3205.07
485.50	3336.14
485.70	3377.10
485.90	3747.78
486.10	3370.96
486.30	3119.06
486.50	3661.77
486.71	3575.75
486.91	3205.07
487.11	3180.50
487.31	3143.63
487.51	3538.89
487.71	3094.48
487.91	3018.71
488.12	3250.13
488.32	2953.17
488.52	3188.69
488.72	2906.07
488.92	3432.40
489.12	3704.78
489.32	3266.51
489.53	3155.92
489.73	3098.58
489.93	3854.28
490.13	3196.88
490.33	2951.12
490.53	3450.83
490.73	3702.73
490.94	3012.56
491.14	3252.17
491.34	3700.68
491.54	3616.71
491.74	3991.49
491.94	4452.28
492.14	5179.31
492.34	5160.88
492.54	4747.19
492.75	4089.79
492.95	4483.00
493.15	4059.07
493.35	3846.09
493.55	3745.73
493.75	3762.12
493.95	4061.12
494.15	3418.06
494.35	3223.50
494.56	3364.81
494.76	3293.13
494.96	3358.67
495.16	3090.38
495.36	3522.51
495.56	3452.88
495.76	3262.41
495.96	3178.45
496.16	3307.47
496.36	3844.04
496.56	3104.72
496.77	3327.95
496.97	3340.24
497.17	3698.63
497.37	3000.27
497.57	3205.07
497.77	3475.40
497.97	3188.69
498.17	3155.92
498.37	3139.54
498.57	3540.94
498.77	3368.91
498.97	3370.96
499.17	3463.12
499.38	3383.24
499.58	3561.42
499.78	3266.51
499.98	3317.71
500.18	3356.62
500.38	3284.94
500.58	3401.68
500.78	3807.17
500.98	6074.28
501.18	7753.61
501.38	9049.97
501.58	9873.26
501.78	10008.42
501.98	8292.23
502.18	6899.61
502.38	6090.66
502.58	6215.59
502.78	5506.99
502.98	5232.56
503.18	5087.15
503.38	4925.36
503.59	4108.23
503.79	3958.72
503.99	3739.59
504.19	3919.81
504.39	3960.77
504.59	3561.42
504.79	3545.03
504.99	4069.31
505.19	3678.15
505.39	3325.90
505.59	3493.83
505.79	3784.65
505.99	3590.09
506.19	3213.26
506.39	3465.16
506.59	3256.27
506.79	3350.48
506.99	3393.48
507.19	3053.52
507.39	3432.40
507.59	3141.58
507.79	3098.58
507.99	3123.15
508.19	3387.34
508.39	3409.87
508.59	3205.07
508.79	3248.08
508.99	3839.94
509.19	3112.91
509.39	3227.60
509.59	3180.50
509.79	3237.84
509.99	3454.92
510.19	3327.95
510.39	3313.61
510.59	3516.36
510.79	3346.38
510.99	2994.13
511.19	3074.00
511.39	3758.02
511.59	3688.39
511.79	3346.38
511.99	3166.16
512.19	3846.09
512.38	3538.89
512.58	3141.58
512.78	3051.47
512.98	3598.28
513.18	3823.56
513.38	3100.62
513.58	3323.85
513.78	3450.83
513.98	3340.24
514.18	3217.36
514.38	3137.49
514.58	3469.26
514.78	3303.37
514.98	3100.62
515.18	3160.02
515.38	3262.41
515.58	3848.13
515.78	3192.78
515.98	3188.69
516.18	3555.27
516.38	3489.74
516.57	3157.97
516.77	3168.21
516.97	3590.09
517.17	3356.62
517.37	3012.56
517.57	3223.50
517.77	3459.02
517.97	3360.72
518.17	3237.84
518.37	3022.80
518.57	3311.57
518.77	3286.99
518.97	3178.45
519.16	3196.88
519.36	3645.38
519.56	3272.65
519.76	3153.87
519.96	3237.84
520.16	3704.78
520.36	3114.96
520.56	3373.00
520.76	3123.15
520.96	3416.01
521.16	3600.33
521.35	3411.92
521.55	3207.12
521.75	3483.59
521.95	3368.91
522.15	3100.62
522.35	3008.47
522.55	3282.89
522.75	3575.75
522.95	3076.05
523.14	3030.99
523.34	3395.53
523.54	3405.77
523.74	3313.61
523.94	3252.17
524.14	3133.39
524.34	3514.31
524.54	3360.72
524.73	3237.84
524.93	3563.47
525.13	3450.83
525.33	3088.34
525.53	3336.14
525.73	3616.71
525.93	3452.88
526.13	3282.89
526.32	3028.95
526.52	3649.48
526.72	3542.99
526.92	3188.69
527.12	3080.14
527.32	3155.92
527.52	3565.51
527.71	3186.64
527.91	3207.12
528.11	3338.19
528.31	3448.78
528.51	3147.73
528.71	3340.24
528.90	3606.47
529.10	3694.54
529.30	3221.45
529.50	2897.88
529.70	3502.03
529.90	3444.68
530.09	3114.96
530.29	3000.27
530.49	3272.65
530.69	4024.26
530.89	3297.23
531.09	3313.61
531.28	3313.61
531.48	3706.82
531.68	3225.55
531.88	3043.28
532.08	3624.90
532.28	3352.52
532.47	3330.00
532.67	3170.26
532.87	3573.71
533.07	3266.51
533.27	3151.82
533.46	3160.02
533.66	3483.59
533.86	3311.57
534.06	3270.61
534.26	3131.34
534.45	3344.33
534.65	3667.91
534.85	3323.85
535.05	3133.39
535.25	3657.67
535.44	3127.25
535.64	3305.42
535.84	3209.17
536.04	3348.43
536.24	3389.39
536.43	3139.54
536.63	3160.02
536.83	3506.12
537.03	3444.68
537.22	2953.17
537.42	2998.23
537.62	3416.01
537.82	3274.70
538.02	3305.42
538.21	3172.30
538.41	4073.41
538.61	3573.71
538.81	3227.60
539.00	3205.07
539.20	3237.84
539.40	3327.95
539.60	3119.06
539.79	3418.06
539.99	3487.69
540.19	3268.56
540.39	3088.34
540.58	3262.41
540.78	3733.45
540.98	3467.21
541.18	3379.15
541.37	3256.27
541.57	3397.58
541.77	3508.17
541.97	3065.81
542.16	2979.79
542.36	3338.19
542.56	3289.04
542.76	3258.32
542.95	3280.85
543.15	3526.60
543.35	3569.61
543.54	3125.20
543.74	3069.91
543.94	3747.78
544.14	3342.28
544.33	3356.62
544.53	3143.63
544.73	3459.02
544.93	3340.24
545.12	3164.11
545.32	3147.73
545.52	3295.18
545.71	3221.45
545.91	3178.45
546.11	3119.06
546.30	3276.75
546.50	3442.64
546.70	3233.74
546.90	3215.31
547.09	3057.62
547.29	3493.83
547.49	3291.09
547.68	3162.06
547.88	3303.37
548.08	3520.46
548.27	3489.74
548.47	3141.58
548.67	3313.61
548.87	3499.98
549.06	3127.25
549.26	3076.05
549.46	3479.50
549.65	3332.05
549.85	3207.12
550.05	3151.82
550.24	3112.91
550.44	3479.50
550.64	3262.41
550.83	3284.94
551.03	3755.97
551.23	3717.06
551.42	3311.57
551.62	3243.98
551.82	3461.07
552.01	3379.15
552.21	3446.73
552.41	3239.89
552.60	3766.21
552.80	3581.90
553.00	3119.06
553.19	3190.74
553.39	3893.19
553.59	3127.25
553.78	3336.14
553.98	3092.43
554.17	3215.31
554.37	3438.54
554.57	3172.30
554.76	3043.28
554.96	3278.80
555.16	3430.35
555.35	3221.45
555.55	3463.12
555.75	3504.07
555.94	3536.84
556.14	3049.43
556.33	3164.11
556.53	3399.63
556.73	3352.52
556.92	3174.35
557.12	3080.14
557.32	3958.72
557.51	3758.02
557.71	3170.26
557.90	3405.77
558.10	3710.92
558.30	3405.77
558.49	3143.63
558.69	3067.86
558.88	3549.13
559.08	3434.44
559.28	3286.99
559.47	3237.84
559.67	3553.23
559.86	3903.43
560.06	3172.30
560.26	3239.89
560.45	3635.14
560.65	3342.28
560.84	3547.08
561.04	3090.38
561.24	3559.37
561.43	3100.62
561.63	3450.83
561.82	3280.85
562.02	3559.37
562.22	3254.22
562.41	3059.67
562.61	3067.86
562.80	3178.45
563.00	3925.96
563.19	3178.45
563.39	3241.93
563.59	3516.36
563.78	3172.30
563.98	2969.55
564.17	3219.41
564.37	3041.23
564.56	3356.62
564.76	3059.67
564.96	3260.37
565.15	3483.59
565.35	4132.80
565.54	3233.74
565.74	3297.23
565.93	3622.86
566.13	3428.30
566.32	3221.45
566.52	3239.89
566.71	3495.88
566.91	3590.09
567.11	3317.71
567.30	3061.71
567.50	3540.94
567.69	3624.90
567.89	3219.41
568.08	3082.19
568.28	3459.02
568.47	3155.92
568.67	3194.83
568.86	3172.30
569.06	3647.43
569.25	3305.42
569.45	3059.67
569.64	3170.26
569.84	3467.21
570.04	3479.50
570.23	3254.22
570.43	3280.85
570.62	3461.07
570.82	3782.60
571.01	3157.97
571.21	3133.39
571.40	3364.81
571.60	3567.56
571.79	3239.89
571.99	3133.39
572.18	3262.41
572.38	3395.53
572.57	3311.57
572.77	3205.07
572.96	4011.97
573.16	3440.59
573.35	3188.69
573.55	3379.15
573.74	3612.62
573.94	3346.38
574.13	3078.10
574.33	3362.76
574.52	3663.82
574.71	3536.84
574.91	3262.41
575.10	3035.09
575.30	3319.76
575.49	3237.84
575.69	3059.67
575.88	3057.62
576.08	3332.05
576.27	3581.90
576.47	3127.25
576.66	3395.53
576.86	3672.01
577.05	3446.73
577.25	3205.07
577.44	3303.37
577.64	3389.39
577.83	3540.94
578.02	3074.00
578.22	3295.18
578.41	3878.85
578.61	3375.05
578.80	3080.14
579.00	3164.11
579.19	3381.20
579.39	3469.26
579.58	3344.33
579.77	3157.97
579.97	3672.01
580.16	3682.25
580.36	3350.48
580.55	3221.45
580.75	3493.83
580.94	3510.22
581.13	3366.86
581.33	3538.89
581.52	3358.67
581.72	3901.38
581.91	3237.84
582.11	3211.22
582.30	3663.82
582.49	3485.64
582.69	3471.31
582.88	3272.65
583.08	3610.57
583.27	3590.09
583.47	3348.43
583.66	3209.17
583.85	3133.39
584.05	3401.68
584.24	3395.53
584.44	3172.30
584.63	3614.66
584.82	3762.12
585.02	3459.02
585.21	3346.38
585.41	3538.89
585.60	3440.59
585.79	3428.30
585.99	3434.44
586.18	3512.27
586.37	4343.74
586.57	6555.55
586.76	18026.22
586.96	37008.84
587.15	49116.43
587.34	57760.91
587.54	60445.80
587.73	53171.41
587.93	38583.73
588.12	30051.89
588.31	24268.43
588.51	21845.68
588.70	20287.18
588.89	17897.20
589.09	15224.60
589.28	12986.17
589.47	10241.89
589.67	7796.62
589.86	6176.67
590.06	4945.84
590.25	4507.58
590.44	3962.82
590.64	3610.57
590.83	3729.35
591.02	3704.78
591.22	3143.63
591.41	3229.65
591.60	3407.82
591.80	4020.16
591.99	3035.09
592.18	3104.72
592.38	3731.40
592.57	3350.48
592.76	3164.11
592.96	3250.13
593.15	3436.49
593.34	3760.07
593.54	3188.69
593.73	3387.34
593.92	3538.89
594.12	3573.71
594.31	3157.97
594.50	3319.76
594.70	3643.34
594.89	4095.94
595.08	3149.78
595.28	3330.00
595.47	4114.37
595.66	3649.48
595.86	3106.77
596.05	3002.32
596.24	3323.85
596.43	3876.80
596.63	3168.21
596.82	3330.00
597.01	3516.36
597.21	3872.71
597.40	3149.78
597.59	3246.03
597.79	3379.15
597.98	3655.62
598.17	3172.30
598.36	3174.35
598.56	3622.86
598.75	3250.13
598.94	3270.61
599.14	3209.17
599.33	3370.96
599.52	3516.36
599.71	3256.27
599.91	3127.25
600.10	3614.66
600.29	3463.12
600.48	3278.80
600.68	3254.22
600.87	3514.31
601.06	3356.62
601.26	3354.57
601.45	3239.89
601.64	3239.89
601.83	3815.37
602.03	3082.19
602.22	3084.24
602.41	3657.67
602.60	4048.83
602.80	3280.85
602.99	3383.24
603.18	3364.81
603.37	3456.97
603.57	3149.78
603.76	3213.26
603.95	3700.68
604.14	3327.95
604.34	3123.15
604.53	3133.39
604.72	3508.17
604.91	3631.05
605.10	3139.54
605.30	3051.47
605.49	3905.48
605.68	3477.45
605.87	3153.87
606.07	3090.38
606.26	3479.50
606.45	3602.38
606.64	3168.21
606.84	3131.34
607.03	3387.34
607.22	3647.43
607.41	3241.93
607.60	3145.68
607.80	3631.05
607.99	3334.09
608.18	3248.08
608.37	3155.92
608.56	3346.38
608.76	3622.86
608.95	3311.57
609.14	3123.15
609.33	3661.77
609.52	3755.97
609.72	3340.24
609.91	3299.28
610.10	3540.94
610.29	3788.74
610.48	3254.22
610.68	3346.38
610.87	3362.76
611.06	3651.53
611.25	3168.21
611.44	3354.57
611.63	3377.10
611.83	3807.17
612.02	3112.91
612.21	3295.18
612.40	3006.42
612.59	3209.17
612.79	3160.02
612.98	3235.79
613.17	3819.46
613.36	3467.21
613.55	3327.95
613.74	3139.54
613.93	3430.35
614.13	3520.46
614.32	3446.73
614.51	3223.50
614.70	3385.29
614.89	3327.95
615.08	3272.65
615.28	3491.79
615.47	3221.45
615.66	3532.75
615.85	3176.40
616.04	3215.31
616.23	3424.20
616.42	3491.79
616.62	3145.68
616.81	3182.54
617.00	3504.07
617.19	3547.08
617.38	3190.74
617.57	3321.81
617.76	3645.38
617.95	3510.22
618.15	3336.14
618.34	3409.87
618.53	3178.45
618.72	3641.29
618.91	3321.81
619.10	3248.08
619.29	3393.48
619.48	3454.92
619.68	2994.13
619.87	3114.96
620.06	3172.30
620.25	3563.47
620.44	3153.87
620.63	3160.02
620.82	3430.35
621.01	3446.73
621.20	3176.40
621.39	3286.99
621.59	3573.71
621.78	3473.36
621.97	3233.74
622.16	3301.33
622.35	3561.42
622.54	3680.20
622.73	3299.28
622.92	2910.16
623.11	3700.68
623.30	3350.48
623.49	3393.48
623.68	3041.23
623.88	3772.36
624.07	3295.18
624.26	3117.01
624.45	3133.39
624.64	3373.00
624.83	3442.64
625.02	3149.78
625.21	3215.31
625.40	3461.07
625.59	3758.02
625.78	3327.95
625.97	3258.32
626.16	3735.50
626.35	3604.42
626.54	3117.01
626.74	3393.48
626.93	3368.91
627.12	3397.58
627.31	3258.32
627.50	3246.03
627.69	3643.34
627.88	3254.22
628.07	3043.28
628.26	3057.62
628.45	3297.23
628.64	3229.65
628.83	3145.68
629.02	3059.67
629.21	3663.82
629.40	3506.12
629.59	3104.72
629.78	3078.10
629.97	3426.25
630.16	3487.69
630.35	3080.14
630.54	3299.28
630.73	3291.09
630.92	3475.40
631.11	3143.63
631.30	3321.81
631.49	3540.94
631.68	3395.53
631.87	3155.92
632.06	3061.71
632.25	3944.39
632.44	3456.97
632.63	3272.65
632.82	3205.07
633.01	3272.65
633.20	3422.16
633.39	3168.21
633.58	3016.66
633.77	3485.64
633.96	3549.13
634.15	3256.27
634.34	3307.47
634.53	3483.59
634.72	3303.37
634.91	3012.56
635.10	3340.24
635.29	3655.62
635.48	3524.55
635.67	3033.04
635.86	3096.53
636.05	3770.31
636.24	3467.21
636.43	3149.78
636.62	3266.51
636.81	2977.75
637.00	3471.31
637.19	3166.16
637.38	3262.41
637.57	3473.36
637.76	3448.78
637.95	3459.02
638.14	3299.28
638.33	3461.07
638.52	3463.12
638.71	3082.19
638.89	3149.78
639.08	4018.11
639.27	3641.29
639.46	3317.71
639.65	3592.14
639.84	3860.42
640.03	4024.26
640.22	3618.76
640.41	3540.94
640.60	3516.36
640.79	3598.28
640.98	3338.19
641.17	3358.67
641.36	3665.86
641.55	3635.14
641.74	2994.13
641.92	3127.25
642.11	3311.57
642.30	3284.94
642.49	3055.57
642.68	3084.24
642.87	3516.36
643.06	3643.34
643.25	3080.14
643.44	3043.28
643.63	3442.64
643.82	3557.32
644.00	3053.52
644.19	3248.08
644.38	3233.74
644.57	3581.90
644.76	3114.96
644.95	3274.70
645.14	3571.66
645.33	3514.31
645.52	3215.31
645.71	3080.14
645.89	3200.98
646.08	3405.77
646.27	3094.48
646.46	3389.39
646.65	3186.64
646.84	3502.03
647.03	3108.82
647.22	3456.97
647.40	3422.16
647.59	3342.28
647.78	2992.08
647.97	3096.53
648.16	3262.41
648.35	3751.88
648.54	3426.25
648.73	3198.93
648.91	3606.47
649.10	3467.21
649.29	3114.96
649.48	3129.30
649.67	3579.85
649.86	3489.74
650.05	3186.64
650.23	3315.66
650.42	3299.28
650.61	3725.26
650.80	3405.77
650.99	3487.69
651.18	3710.92
651.36	3624.90
651.55	3106.77
651.74	3330.00
651.93	3336.14
652.12	3352.52
652.31	3200.98
652.49	3297.23
652.68	3395.53
652.87	3794.89
653.06	3254.22
653.25	3491.79
653.44	3436.49
653.62	3780.55
653.81	3307.47
654.00	3266.51
654.19	3604.42
654.38	3975.11
654.56	3286.99
654.75	3123.15
654.94	3682.25
655.13	3510.22
655.32	3172.30
655.51	3184.59
655.69	3301.33
655.88	3649.48
656.07	3028.95
656.26	3266.51
656.45	3256.27
656.63	3430.35
656.82	3194.83
657.01	3504.07
657.20	3254.22
657.38	3755.97
657.57	3139.54
657.76	3121.10
657.95	3577.80
658.14	3280.85
658.32	3340.24
658.51	3022.80
658.70	3557.32
658.89	3508.17
659.08	3235.79
659.26	3461.07
659.45	3254.22
659.64	3409.87
659.83	3147.73
660.01	3532.75
660.20	3514.31
660.39	3788.74
660.58	2869.20
660.76	3239.89
660.95	3172.30
661.14	3434.44
661.33	3078.10
661.51	3303.37
661.70	3237.84
661.89	3594.19
662.08	3241.93
662.26	3028.95
662.45	3160.02
662.64	3850.18
662.83	3225.55
663.01	3110.86
663.20	3334.09
663.39	3694.54
663.58	3254.22
663.76	3137.49
663.95	3444.68
664.14	3258.32
664.32	3256.27
664.51	3090.38
664.70	3061.71
664.89	3573.71
665.07	3082.19
665.26	3321.81
665.45	3217.36
665.64	3549.13
665.82	3071.95
666.01	3411.92
666.20	3190.74
666.38	3682.25
666.57	3483.59
666.76	5672.87
666.95	12670.78
667.13	18509.54
667.32	22386.35
667.51	24798.85
667.69	25585.27
667.88	20616.90
668.07	15238.94
668.25	12977.98
668.44	11640.65
668.63	10178.40
668.81	8841.08
669.00	7669.64
669.19	7124.88
669.38	6283.17
669.56	5484.46
669.75	4902.84
669.94	4237.25
670.12	3823.56
670.31	3442.64
670.50	3473.36
670.68	3575.75
670.87	3542.99
671.06	3176.40
671.24	3286.99
671.43	3788.74
671.62	3446.73
671.80	3182.54
671.99	3239.89
672.18	3479.50
672.36	3672.01
672.55	3311.57
672.74	3303.37
672.92	3426.25
673.11	3610.57
673.29	3043.28
673.48	3377.10
673.67	3340.24
673.85	3596.23
674.04	3114.96
674.23	3330.00
674.41	3915.72
674.60	3198.93
674.79	2983.89
674.97	3074.00
675.16	3583.95
675.34	3725.26
675.53	3213.26
675.72	3207.12
675.90	3905.48
676.09	3409.87
676.28	3231.69
676.46	3069.91
676.65	3674.06
676.83	3266.51
677.02	3223.50
677.21	3274.70
677.39	3526.60
677.58	3305.42
677.77	3106.77
677.95	3065.81
678.14	3381.20
678.32	3344.33
678.51	3160.02
678.70	3532.75
678.88	3289.04
679.07	3426.25
679.25	3237.84
679.44	3184.59
679.63	3155.92
679.81	3495.88
680.00	3479.50
680.18	3266.51
680.37	3772.36
680.55	3438.54
680.74	3114.96
680.93	2965.46
681.11	3444.68
681.30	3438.54
681.48	3106.77
681.67	3231.69
681.85	3510.22
682.04	3213.26
682.23	3383.24
682.41	3286.99
682.60	3426.25
682.78	3368.91
682.97	3119.06
683.15	3264.46
683.34	3512.27
683.53	3743.69
683.71	3037.14
683.90	3239.89
684.08	3792.84
684.27	3340.24
684.45	3243.98
684.64	3344.33
684.82	3377.10
685.01	3547.08
685.19	3209.17
685.38	3559.37
685.57	3442.64
685.75	3280.85
685.94	3125.20
686.12	3071.95
686.31	3360.72
686.49	3876.80
686.68	2973.65
686.86	3235.79
687.05	3362.76
687.23	3796.93
687.42	3248.08
687.60	3020.75
687.79	3657.67
687.97	3837.89
688.16	3373.00
688.34	3438.54
688.53	3074.00
688.71	3491.79
688.90	3510.22
689.08	3250.13
689.27	3037.14
689.45	3655.62
689.64	3297.23
689.82	3278.80
690.01	3497.93
690.19	3493.83
690.38	3254.22
690.56	3250.13
690.75	3260.37
690.93	3211.22
691.12	3114.96
691.30	3282.89
691.49	3299.28
691.67	3465.16
691.86	3471.31
692.04	3239.89
692.23	3366.86
692.41	3393.48
692.60	3475.40
692.78	3416.01
692.97	3352.52
693.15	3524.55
693.34	3442.64
693.52	3442.64
693.71	3352.52
693.89	3383.24
694.08	3071.95
694.26	3254.22
694.44	3620.81
694.63	3530.70
694.81	3117.01
695.00	3260.37
695.18	3727.30
695.37	4024.26
695.55	3289.04
695.74	3207.12
695.92	3284.94
696.10	3616.71
696.29	3119.06
696.47	3190.74
696.66	3166.16
696.84	3221.45
697.03	3254.22
697.21	3504.07
697.40	4798.39
697.58	3715.02
697.76	3196.88
697.95	3106.77
698.13	3198.93
698.32	3334.09
698.50	3057.62
698.68	3215.31
698.87	3499.98
699.05	3737.54
699.24	3168.21
699.42	3149.78
699.61	3532.75
699.79	3483.59
699.97	3235.79
700.16	3071.95
700.34	3190.74
700.53	3411.92
700.71	3459.02
700.89	3405.77
701.08	3397.58
701.26	3413.96
701.45	3514.31
701.63	3172.30
701.81	3276.75
702.00	3289.04
702.18	3274.70
702.37	3164.11
702.55	3649.48
702.73	3434.44
702.92	3125.20
703.10	3542.99
703.28	3647.43
703.47	3180.50
703.65	3407.82
703.84	3235.79
704.02	3368.91
704.20	3895.24
704.39	3123.15
704.57	3149.78
704.75	3624.90
704.94	3542.99
705.12	3401.68
705.30	4046.79
705.49	8169.35
705.67	14415.65
705.86	19031.77
706.04	21403.32
706.22	23715.48
706.41	22220.46
706.59	16490.24
706.77	13412.15
706.96	11829.07
707.14	10760.03
707.32	9283.44
707.51	8128.39
707.69	6821.78
707.87	5803.94
708.06	4843.45
708.24	4310.97
708.42	4083.65
708.61	4247.49
708.79	3284.94
708.97	3426.25
709.16	3467.21
709.34	3534.79
709.52	3190.74
709.71	3174.35
709.89	3598.28
710.07	3205.07
710.26	3053.52
710.44	3262.41
710.62	3606.47
710.80	3475.40
710.99	3286.99
711.17	3332.05
711.35	3319.76
711.54	3282.89
711.72	3446.73
711.90	3323.85
712.09	3551.18
712.27	3336.14
712.45	3352.52
712.63	3196.88
712.82	3461.07
713.00	3461.07
713.18	3327.95
713.37	3450.83
713.55	3647.43
713.73	3567.56
713.91	3272.65
714.10	3217.36
714.28	3397.58
714.46	3573.71
714.65	3293.13
714.83	3246.03
715.01	3493.83
715.19	3432.40
715.38	3131.34
715.56	3362.76
715.74	3215.31
715.92	3293.13
716.11	3528.65
716.29	3018.71
716.47	3370.96
716.65	3368.91
716.84	3035.09
717.02	3248.08
717.20	3139.54
717.38	3332.05
717.57	3246.03
717.75	3164.11
717.93	3321.81
718.11	3616.71
718.30	3014.61
718.48	3266.51
718.66	3657.67
718.84	3688.39
719.03	3262.41
719.21	3024.85
719.39	3856.33
719.57	3594.19
719.75	3266.51
719.94	3164.11
720.12	3397.58
720.30	3440.59
720.48	3278.80
720.67	3164.11
720.85	3211.22
721.03	3354.57
721.21	3096.53
721.39	3264.46
721.58	3536.84
721.76	3454.92
721.94	3291.09
722.12	3313.61
722.30	3712.97
722.49	3411.92
722.67	3174.35
722.85	3215.31
723.03	3112.91
723.21	3256.27
723.40	3248.08
723.58	3346.38
723.76	3567.56
723.94	3739.59
724.12	3164.11
724.30	3483.59
724.49	3497.93
724.67	3241.93
724.85	3303.37
725.03	3063.76
725.21	3551.18
725.40	3598.28
725.58	3176.40
725.76	3436.49
725.94	3649.48
726.12	3133.39
726.30	3215.31
726.49	3194.83
726.67	3303.37
726.85	3600.33
727.03	3872.71
727.21	4919.22
727.39	6047.65
727.57	6358.94
727.76	6817.69
727.94	6819.74
728.12	5736.36
728.30	4951.99
728.48	4771.77
728.66	4552.63
728.84	4382.65
729.03	3991.49
729.21	3725.26
729.39	3524.55
729.57	3471.31
729.75	3565.51
729.93	3549.13
730.11	3170.26
730.30	3330.00
730.48	3446.73
730.66	3297.23
730.84	3338.19
731.02	3362.76
731.20	3303.37
731.38	3286.99
731.56	3020.75
731.74	3166.16
731.93	3485.64
732.11	3305.42
732.29	3213.26
732.47	3569.61
732.65	3499.98
732.83	3377.10
733.01	3303.37
733.19	3295.18
733.37	3551.18
733.56	3246.03
733.74	3033.04
733.92	3733.45
734.10	3338.19
734.28	3321.81
734.46	3049.43
734.64	3434.44
734.82	3418.06
735.00	3184.59
735.18	3190.74
735.36	3493.83
735.54	3422.16
735.73	3088.34
735.91	3325.90
736.09	3708.87
736.27	3375.05
736.45	3274.70
736.63	3049.43
736.81	3393.48
736.99	3690.44
737.17	3375.05
737.35	3170.26
737.53	3506.12
737.71	3428.30
737.89	3407.82
738.07	3123.15
738.25	3239.89
738.43	3119.06
738.61	3303.37
738.80	3016.66
738.98	3172.30
739.16	3307.47
739.34	3229.65
739.52	3459.02
739.70	3438.54
739.88	3534.79
740.06	3309.52
740.24	2928.60
740.42	3667.91
740.60	3026.90
740.78	3266.51
740.96	2920.40
741.14	3356.62
741.32	3422.16
741.50	3061.71
741.68	3477.45
741.86	3807.17
742.04	3196.88
742.22	3133.39
742.40	3227.60
742.58	3594.19
742.76	3233.74
742.94	3432.40
743.12	3030.99
743.30	3426.25
743.48	3536.84
743.66	3094.48
743.84	3184.59
744.02	3393.48
744.20	3479.50
744.38	3086.29
744.56	3129.30
744.74	3762.12
744.92	3614.66
745.10	3540.94
745.28	3258.32
745.46	3780.55
745.64	3340.24
745.82	3223.50
746.00	3082.19
746.18	3479.50
746.36	3211.22
746.54	3266.51
746.72	3291.09
746.90	3127.25
747.08	3747.78
747.26	3264.46
747.44	3340.24
747.62	3536.84
747.80	3594.19
747.98	3270.61
748.15	3164.11
748.33	3796.93
748.51	3512.27
748.69	3237.84
748.87	3174.35
749.05	3430.35
749.23	3381.20
749.41	3196.88
749.59	3141.58
749.77	3614.66
749.95	3348.43
750.13	3108.82
750.31	3323.85
750.49	3370.96
750.67	3622.86
750.85	3381.20
751.03	3133.39
751.20	3913.67
751.38	3424.20
751.56	3190.74
751.74	3231.69
751.92	3370.96
752.10	3155.92
752.28	3407.82
752.46	3149.78
752.64	3411.92
752.82	3379.15
753.00	3307.47
753.18	3131.34
753.35	3332.05
753.53	3311.57
753.71	3133.39
753.89	3184.59
754.07	3551.18
754.25	3704.78
754.43	3280.85
754.61	3174.35
754.79	3577.80
754.97	3323.85
755.14	3397.58
755.32	3067.86
755.50	3442.64
755.68	3557.32
755.86	3125.20
756.04	3190.74
756.22	3008.47
756.40	3663.82
756.57	3413.96
756.75	3143.63
756.93	3598.28
757.11	3649.48
757.29	3039.19
757.47	3108.82
757.65	3119.06
757.82	2977.75
758.00	3106.77
758.18	3190.74
758.36	3243.98
758.54	3772.36
758.72	2985.94
758.90	3305.42
759.07	3499.98
759.25	3272.65
759.43	3276.75
759.61	3104.72
759.79	4609.98
759.97	3643.34
760.15	3164.11
760.32	3117.01
760.50	3520.46
760.68	3764.17
760.86	3078.10
761.04	3401.68
761.22	3624.90
761.39	3569.61
761.57	3291.09
761.75	3264.46
761.93	3542.99
762.11	3401.68
762.28	3395.53
762.46	3141.58
762.64	3665.86
762.82	3188.69
763.00	3080.14
763.18	3483.59
763.35	3164.11
763.53	3524.55
763.71	3366.86
763.89	3123.15
764.07	3483.59
764.24	3442.64
764.42	3348.43
764.60	3221.45
764.78	3463.12
764.96	3731.40
765.13	3407.82
765.31	3090.38
765.49	3674.06
765.67	3237.84
765.84	3133.39
766.02	3137.49
766.20	3049.43
766.38	3483.59
766.56	3323.85
766.73	3307.47
766.91	3506.12
767.09	3528.65
767.27	3262.41
767.44	3100.62
767.62	3596.23
767.80	3504.07
767.98	3074.00
768.15	3182.54
768.33	3553.23
768.51	3528.65
768.69	3321.81
768.87	3147.73
769.04	3467.21
769.22	4106.18
769.40	3356.62
769.58	3375.05
769.75	3518.41
769.93	3803.08
770.11	3221.45
770.28	3108.82
770.46	3602.38
770.64	3549.13
770.82	3147.73
770.99	3078.10
771.17	3551.18
771.35	3313.61
771.53	3215.31
771.70	3026.90
771.88	3579.85
772.06	3461.07
772.23	3135.44
772.41	3276.75
772.59	3481.55
772.77	3250.13
772.94	3282.89
773.12	3301.33
773.30	3270.61
773.47	3493.83
773.65	3045.33
773.83	3336.14
774.01	3413.96
774.18	3117.01
774.36	3205.07
774.54	3139.54
774.71	3596.23
774.89	3160.02
775.07	3053.52
775.24	3147.73
775.42	3354.57
775.60	3809.22
775.78	3192.78
775.95	3059.67
776.13	3127.25
776.31	3071.95
776.48	3364.81
776.66	3430.35
776.84	3373.00
777.01	3291.09
777.19	3180.50
777.37	3074.00
777.54	3569.61
777.72	3919.81
777.90	3274.70
778.07	3131.34
778.25	4143.04
778.43	3690.44
778.60	3160.02
778.78	3270.61
778.96	3708.87
779.13	3096.53
779.31	3305.42
779.49	3254.22
779.66	3514.31
779.84	3368.91
780.01	3098.58
780.19	3153.87
780.37	3739.59
780.54	3551.18
780.72	3055.57
780.90	3207.12
781.07	3403.72
781.25	3297.23
781.43	3409.87
781.60	3155.92
781.78	3747.78
781.95	3497.93
782.13	3182.54
782.31	3207.12
782.48	3030.99
782.66	3450.83
782.83	3440.59
783.01	3350.48
783.19	3618.76
783.36	3360.72
783.54	3076.05
783.72	3268.56
783.89	3366.86
784.07	3510.22
784.24	3295.18
784.42	3444.68
784.60	3536.84
784.77	3508.17
784.95	2944.98
785.12	3180.50
785.30	3448.78
785.47	3241.93
785.65	3168.21
785.83	3264.46
786.00	3346.38
786.18	3368.91
786.35	3090.38
786.53	3043.28
786.71	3620.81
786.88	3669.96
787.06	3295.18
787.23	3286.99
787.41	3196.88
787.58	3405.77
787.76	3102.67
787.94	3182.54
788.11	3536.84
788.29	3196.88
788.46	3188.69
788.64	3033.04
788.81	3450.83
788.99	3227.60
789.16	3106.77
789.34	3198.93
789.52	3373.00
789.69	3309.52
789.87	2981.84
790.04	3192.78
790.22	3395.53
790.39	3876.80
790.57	3186.64
790.74	3033.04
790.92	3633.10
791.09	3035.09
791.27	3303.37
791.44	3217.36
791.62	3401.68
791.79	3684.30
791.97	3385.29
792.15	3553.23
792.32	3581.90
792.50	3579.85
792.67	3385.29
792.85	3567.56
793.02	3473.36
793.20	3332.05
793.37	3074.00
793.55	3112.91
793.72	3211.22
793.90	3651.53
794.07	3203.02
794.25	3200.98
794.42	3370.96
794.60	3364.81
794.77	3252.17
794.95	3346.38
795.12	3637.19
795.30	3430.35
795.47	2955.22
795.65	3622.86
795.82	3551.18
796.00	3325.90
796.17	3354.57
796.34	3104.72
796.52	3452.88
796.69	3626.95
796.87	3319.76
797.04	3264.46
797.22	3702.73
797.39	3495.88
797.57	3405.77
797.74	3352.52
797.92	3502.03
798.09	3420.11
798.27	3536.84
798.44	3192.78
798.62	3241.93
798.79	3377.10
798.96	3289.04
799.14	3192.78
799.31	3975.11
799.49	3434.44
799.66	3170.26
799.84	3192.78
800.01	3262.41
800.19	3510.22
800.36	2973.65
800.53	3256.27
800.71	3504.07
800.88	3803.08
801.06	3131.34
801.23	3207.12
801.41	3370.96
801.58	3362.76
801.75	3149.78
801.93	3213.26
802.10	3676.10
802.28	3338.19
802.45	3239.89
802.63	3286.99
802.80	3753.93
802.97	3323.85
803.15	3188.69
803.32	3203.02
803.50	3235.79
803.67	3295.18
803.84	3123.15
804.02	3321.81
804.19	3393.48
804.37	2953.17
804.54	3051.47
804.71	3135.44
804.89	3475.40
805.06	3229.65
805.24	3143.63
805.41	3045.33
805.58	3252.17
805.76	3928.00
805.93	3213.26
806.10	3256.27
806.28	3547.08
806.45	3479.50
806.63	3272.65
806.80	3313.61
806.97	3532.75
807.15	3475.40
807.32	3282.89
807.49	3225.55
807.67	3147.73
807.84	3534.79
808.01	2983.89
808.19	3373.00
808.36	3852.23
808.54	3311.57
808.71	3172.30
808.88	3160.02
809.06	3649.48
809.23	3776.45
809.40	3157.97
809.58	3168.21
809.75	3512.27
809.92	3178.45
810.10	3393.48
810.27	3168.21
810.44	3506.12
810.62	3602.38
810.79	3246.03
810.96	3231.69
811.14	3270.61
811.31	3575.75
811.48	3344.33
811.66	3307.47
811.83	3725.26
812.00	3604.42
812.18	3280.85
812.35	3512.27
812.52	3383.24
812.69	3362.76
812.87	3188.69
813.04	3180.50
813.21	3391.44
813.39	3291.09
813.56	3037.14
813.73	3491.79
813.91	3139.54
814.08	3440.59
814.25	3141.58
814.42	3016.66
814.60	3471.31
814.77	3469.26
814.94	3157.97
815.12	3258.32
815.29	3774.41
815.46	3289.04
815.63	3221.45
815.81	3160.02
815.98	3418.06
816.15	3436.49
816.33	3282.89
816.50	3262.41
816.67	3508.17
816.84	3438.54
817.02	3078.10
817.19	3188.69
817.36	3598.28
817.53	3491.79
817.71	3114.96
817.88	3196.88
818.05	3366.86
818.22	3344.33
818.40	3444.68
818.57	3155.92
818.74	3524.55
818.91	3327.95
819.09	3319.76
819.26	3305.42
819.43	3327.95
819.60	3321.81
819.78	3309.52
819.95	3295.18
820.12	3178.45
820.29	3868.61
820.47	3442.64
820.64	3057.62
820.81	3102.67
820.98	3274.70
821.15	3262.41
821.33	3340.24
821.50	3125.20
821.67	3547.08
821.84	3176.40
822.02	3135.44
822.19	3694.54
822.36	3336.14
822.53	3168.21
822.70	3082.19
822.88	3426.25
823.05	3731.40
823.22	3303.37
823.39	3184.59
823.56	3461.07
823.74	3807.17
823.91	3008.47
824.08	3114.96
824.25	3229.65
824.42	3739.59
824.60	3055.57
824.77	3231.69
824.94	3370.96
825.11	3663.82
825.28	3033.04
825.45	3381.20
825.63	3514.31
825.80	3303.37
825.97	3262.41
826.14	3305.42
826.31	3074.00
826.48	3557.32
826.66	3135.44
826.83	3094.48
827.00	3397.58
827.17	3221.45
827.34	3182.54
827.51	3117.01
827.69	3342.28
827.86	3096.53
828.03	3303.37
828.20	3223.50
828.37	3274.70
828.54	3493.83
828.71	3082.19
828.89	3356.62
829.06	3446.73
829.23	3782.60
829.40	3149.78
829.57	3168.21
829.74	3579.85
829.91	3344.33
830.09	3114.96
830.26	3344.33
830.43	3796.93
830.60	3348.43
830.77	3221.45
830.94	3385.29
831.11	3618.76
831.28	3270.61
831.46	3307.47
831.63	3233.74
831.80	3653.58
831.97	3262.41
832.14	3205.07
832.31	3254.22
832.48	3512.27
832.65	3667.91
832.82	3434.44
832.99	3176.40
833.17	3280.85
833.34	3747.78
833.51	3082.19
833.68	2953.17
833.85	3620.81
834.02	3200.98
834.19	3188.69
834.36	3239.89
834.53	3506.12
834.70	3596.23
834.87	3190.74
835.04	2934.74
835.22	3282.89
835.39	3280.85
835.56	3004.37
835.73	2967.51
835.90	3655.62
836.07	3270.61
836.24	3151.82
836.41	3010.51
836.58	3200.98
836.75	3524.55
836.92	3057.62
837.09	3018.71
837.26	3594.19
837.43	3516.36
837.60	3096.53
837.77	3012.56
837.94	3641.29
838.12	3723.21
838.29	2975.70
838.46	2971.60
838.63	3176.40
838.80	3872.71
838.97	3071.95
839.14	2987.99
839.31	3463.12
839.48	3512.27
839.65	3078.10
839.82	3063.76
839.99	3524.55
840.16	3452.88
840.33	2973.65
840.50	3024.85
840.67	3272.65
840.84	2873.30
841.01	2979.79
841.18	2996.18
841.35	3356.62
841.52	3563.47
841.69	3405.77
841.86	3051.47
842.03	3422.16
842.20	3622.86
842.37	3078.10
842.54	3024.85
842.71	3454.92
842.88	3141.58
843.05	2959.31
843.22	3033.04
843.39	3639.24
843.56	3278.80
843.73	3020.75
843.90	3076.05
844.07	3428.30
844.24	3643.34
844.41	3082.19
844.58	3074.00
844.75	3385.29
844.92	3569.61
845.09	3092.43
845.26	3074.00
845.43	3528.65
845.60	3373.00
845.77	3129.30
845.94	3106.77
846.10	3659.72
846.27	3078.10
846.44	2926.55
846.61	2807.77
846.78	3524.55
846.95	3674.06
847.12	2936.79
847.29	3016.66
847.46	3207.12
847.63	3608.52
847.80	2887.64
847.97	3104.72
848.14	3942.34
848.31	3395.53
848.48	2826.20
848.65	3039.19
848.82	3286.99
848.98	4042.69
849.15	3117.01
849.32	3157.97
849.49	3680.20
849.66	3446.73
849.83	2967.51
850.00	2934.74
850.17	3528.65
850.34	3360.72
850.51	3002.32
850.68	3045.33
850.85	3878.85
851.01	3440.59
851.18	2951.12
851.35	3114.96
851.52	3508.17
851.69	3815.37
851.86	2961.36
852.03	3035.09
852.20	3635.14
852.37	3366.86
852.53	2938.84
852.70	2936.79
852.87	3530.70
853.04	3491.79
853.21	3004.37
853.38	3250.13
853.55	3739.59
853.72	3622.86
853.89	2901.97
854.05	3002.32
854.22	3305.42
854.39	3354.57
854.56	3000.27
854.73	3174.35
854.90	3221.45
855.07	3430.35
855.23	2955.22
855.40	2908.12
855.57	3373.00
855.74	3016.66
855.91	3227.60
856.08	2861.01
856.25	3172.30
856.41	3348.43
856.58	2987.99
856.75	3035.09
856.92	3182.54
857.09	3641.29
857.26	2871.25
857.42	3112.91
857.59	3522.51
857.76	3295.18
857.93	2973.65
858.10	3090.38
858.27	3221.45
858.43	3452.88
858.60	3024.85
858.77	2969.55
858.94	3268.56
859.11	3571.66
859.27	3080.14
859.44	2897.88
859.61	3889.09
859.78	3588.04
859.95	2996.18
860.12	2926.55
860.28	3936.20
860.45	3903.43
860.62	2942.93
860.79	3166.16
860.95	3407.82
861.12	3262.41
861.29	2936.79
861.46	2963.41
861.63	3442.64
861.79	3508.17
861.96	2949.08
862.13	2996.18
862.30	3712.97
862.47	3272.65
862.63	2918.36
862.80	3098.58
862.97	3614.66
863.14	3561.42
863.30	3033.04
863.47	2922.45
863.64	3760.07
863.81	3444.68
863.97	2879.44
864.14	3084.24
864.31	3332.05
864.48	3442.64
864.65	3012.56
864.81	3100.62
864.98	3551.18
865.15	3700.68
865.32	3094.48
865.48	3098.58
865.65	3788.74
865.82	3383.24
865.98	3166.16
866.15	3016.66
866.32	3465.16
866.49	3270.61
866.65	3262.41
866.82	3082.19
866.99	3379.15
867.16	3209.17
867.32	3067.86
867.49	2881.49
867.66	3389.39
867.83	3303.37
867.99	2936.79
868.16	3018.71
868.33	3110.86
868.49	3395.53
868.66	3049.43
868.83	3082.19
868.99	3504.07
869.16	3487.69
869.33	3192.78
869.50	3119.06
869.66	3444.68
869.83	3334.09
870.00	2998.23
870.16	3196.88
870.33	3348.43
870.50	3655.62
870.66	3106.77
870.83	2987.99
871.00	3403.72
871.17	3598.28
871.33	3065.81
871.50	2961.36
871.67	3418.06
871.83	3104.72
872.00	3114.96
872.17	2992.08
872.33	3885.00
872.50	3661.77
872.67	2975.70
872.83	2996.18
873.00	3504.07
873.17	3428.30
873.33	3096.53
873.50	3039.19
873.67	3246.03
873.83	3225.55
874.00	3037.14
874.16	3139.54
874.33	3420.11
874.50	3155.92
874.66	3063.76
874.83	3162.06
875.00	3708.87
875.16	3684.30
875.33	3051.47
875.50	2822.10
875.66	3373.00
875.83	3393.48
875.99	3012.56
876.16	3200.98
876.33	3237.84
876.49	3368.91
876.66	3053.52
876.83	3110.86
876.99	3114.96
877.16	3442.64
877.32	2969.55
877.49	3139.54
877.66	3590.09
877.82	3622.86
877.99	3186.64
878.15	3309.52
878.32	3459.02
878.49	3536.84
878.65	3078.10
878.82	3192.78
878.98	3262.41
879.15	3532.75
879.32	3192.78
879.48	3348.43
879.65	3403.72
879.81	3479.50
879.98	3028.95
880.15	3092.43
880.31	3536.84
880.48	3243.98
880.64	3141.58
880.81	3139.54
880.97	3866.56
881.14	3770.31
881.31	3051.47
881.47	3223.50
881.64	3397.58
881.80	3094.48
881.97	3221.45
882.13	2967.51
882.30	3200.98
882.47	3250.13
882.63	2975.70
882.80	3018.71
882.96	3332.05
883.13	3676.10
883.29	3041.23
883.46	3008.47
883.62	3917.76
883.79	3409.87
883.95	3200.98
884.12	2971.60
884.29	3686.34
884.45	3540.94
884.62	3049.43
884.78	2928.60
884.95	3727.30
885.11	3207.12
885.28	3069.91
885.44	3135.44
885.61	3647.43
885.77	3786.69
885.94	3213.26
886.10	3043.28
886.27	3487.69
886.43	3807.17
886.60	3239.89
886.76	3139.54
886.93	3196.88
887.09	3469.26
887.26	2959.31
887.42	3160.02
887.59	3633.10
887.75	3989.44
887.92	3319.76
888.08	3205.07
888.25	3811.27
888.41	3649.48
888.58	3112.91
888.74	2901.97
888.91	3354.57
>>>>>End Processed Spectral Data<<<<<
