SpectraSuite Data File
++++++++++++++++++++++++++++++++++++
Date: Fri May 06 09:28:54 CEST 2016
User: root
Dark Spectrum Present: No
Reference Spectrum Present: No
Number of Sampled Component Spectra: 1
Spectrometers: USB4C02835
Integration Time (usec): 100000 (USB4C02835)
Spectra Averaged: 1 (USB4C02835)
Boxcar Smoothing: 0 (USB4C02835)
Correct for Electrical Dark: No (USB4C02835)
Strobe/Lamp Enabled: No (USB4C02835)
Correct for Detector Non-linearity: No (USB4C02835)
Correct for Stray Light: No (USB4C02835)
Number of Pixels in Processed Spectrum: 3648
>>>>>Begin Processed Spectral Data<<<<<
177.47	2326.49
177.69	2326.49
177.91	2326.49
178.13	2320.35
178.36	2353.12
178.58	3084.24
178.80	3215.31
179.02	3098.58
179.24	3313.61
179.46	2842.58
179.68	2965.46
179.90	3375.05
180.13	3542.99
180.35	2762.71
180.57	2863.06
180.79	3536.84
181.01	3413.96
181.23	3002.32
181.45	3147.73
181.67	3631.05
181.90	3620.81
182.12	2971.60
182.34	2805.72
182.56	3618.76
182.78	3592.14
183.00	2922.45
183.22	2977.75
183.44	3094.48
183.66	4036.55
183.89	3065.81
184.11	2987.99
184.33	3631.05
184.55	3667.91
184.77	2961.36
184.99	2912.21
185.21	3420.11
185.43	4014.02
185.65	3010.51
185.87	2942.93
186.10	3999.68
186.32	4036.55
186.54	3086.29
186.76	3045.33
186.98	3674.06
187.20	3385.29
187.42	2947.03
187.64	2846.68
187.86	3600.33
188.08	3706.82
188.30	2906.07
188.52	3108.82
188.75	3702.73
188.97	3745.73
189.19	2897.88
189.41	2934.74
189.63	3542.99
189.85	3409.87
190.07	2889.68
190.29	2770.90
190.51	3506.12
190.73	3182.54
190.95	3213.26
191.17	3063.76
191.39	3127.25
191.61	3330.00
191.84	2990.03
192.06	3160.02
192.28	3131.34
192.50	4124.61
192.72	3143.63
192.94	3074.00
193.16	3788.74
193.38	3469.26
193.60	2889.68
193.82	3160.02
194.04	3667.91
194.26	3626.95
194.48	2912.21
194.70	2936.79
194.92	3385.29
195.14	3614.66
195.36	2934.74
195.58	3016.66
195.80	3450.83
196.02	3246.03
196.24	2914.26
196.46	3078.10
196.69	3311.57
196.91	4036.55
197.13	3127.25
197.35	3010.51
197.57	3780.55
197.79	3680.20
198.01	3102.67
198.23	2985.94
198.45	3532.75
198.67	3176.40
198.89	2803.67
199.11	3106.77
199.33	3299.28
199.55	3074.00
199.77	2934.74
199.99	3151.82
200.21	3297.23
200.43	3506.12
200.65	2844.63
200.87	2869.20
201.09	3434.44
201.31	3379.15
201.53	2944.98
201.75	3110.86
201.97	3542.99
202.19	3438.54
202.41	3045.33
202.63	3094.48
202.85	3618.76
203.07	3512.27
203.29	3059.67
203.51	2918.36
203.73	3286.99
203.95	4007.87
204.17	2885.59
204.39	3145.68
204.61	3391.44
204.83	3336.14
205.05	3213.26
205.27	2940.88
205.49	3917.76
205.71	3385.29
205.93	2805.72
206.15	2820.05
206.37	3506.12
206.59	3385.29
206.81	2869.20
207.03	2848.72
207.25	3268.56
207.47	3549.13
207.69	2992.08
207.91	3278.80
208.13	3807.17
208.34	3272.65
208.56	2861.01
208.78	2979.79
209.00	3307.47
209.22	3239.89
209.44	2985.94
209.66	2977.75
209.88	3463.12
210.10	3442.64
210.32	2983.89
210.54	2992.08
210.76	3389.39
210.98	3723.21
211.20	2850.77
211.42	3082.19
211.64	3745.73
211.86	3557.32
212.08	3020.75
212.30	2992.08
212.52	3434.44
212.74	3581.90
212.96	3080.14
213.17	3026.90
213.39	3680.20
213.61	3921.86
213.83	2901.97
214.05	2873.30
214.27	3688.39
214.49	3262.41
214.71	2906.07
214.93	2983.89
215.15	3508.17
215.37	3704.78
215.59	2750.42
215.81	3049.43
216.03	3743.69
216.24	3393.48
216.46	2942.93
216.68	2936.79
216.90	3721.16
217.12	3559.37
217.34	2906.07
217.56	3143.63
217.78	3846.09
218.00	3577.80
218.22	3143.63
218.44	3033.04
218.66	3534.79
218.87	3854.28
219.09	3016.66
219.31	2930.64
219.53	3467.21
219.75	3338.19
219.97	2949.08
220.19	2918.36
220.41	3399.63
220.63	3839.94
220.85	2938.84
221.06	2992.08
221.28	3776.45
221.50	3688.39
221.72	2983.89
221.94	2820.05
222.16	3471.31
222.38	3614.66
222.60	2953.17
222.82	3059.67
223.03	3641.29
223.25	3209.17
223.47	2842.58
223.69	3172.30
223.91	3573.71
224.13	3493.83
224.35	2891.73
224.57	3151.82
224.78	3631.05
225.00	3190.74
225.22	3080.14
225.44	2922.45
225.66	3528.65
225.88	3368.91
226.10	3055.57
226.32	2904.02
226.53	3717.06
226.75	3383.24
226.97	3074.00
227.19	2942.93
227.41	3303.37
227.63	3348.43
227.85	2756.57
228.06	3010.51
228.28	3528.65
228.50	3676.10
228.72	2779.09
228.94	2922.45
229.16	3106.77
229.37	3207.12
229.59	2865.11
229.81	3213.26
230.03	3397.58
230.25	3143.63
230.47	2828.24
230.69	2975.70
230.90	3643.34
231.12	3373.00
231.34	3057.62
231.56	3102.67
231.78	3211.22
232.00	3530.70
232.21	3002.32
232.43	2910.16
232.65	3020.75
232.87	3600.33
233.09	2869.20
233.30	2947.03
233.52	3717.06
233.74	3413.96
233.96	2873.30
234.18	3172.30
234.40	3360.72
234.61	3901.38
234.83	2830.29
235.05	2920.40
235.27	3993.54
235.49	3696.58
235.70	2824.15
235.92	2953.17
236.14	3557.32
236.36	3999.68
236.58	2873.30
236.79	2961.36
237.01	3469.26
237.23	3426.25
237.45	3223.50
237.67	3014.61
237.88	3465.16
238.10	3827.65
238.32	2893.78
238.54	2979.79
238.76	3444.68
238.97	3264.46
239.19	2865.11
239.41	2942.93
239.63	3641.29
239.85	3311.57
240.06	3045.33
240.28	2914.26
240.50	3684.30
240.72	3463.12
240.93	2848.72
241.15	3080.14
241.37	3348.43
241.59	3749.83
241.81	2940.88
242.02	3045.33
242.24	3516.36
242.46	3674.06
242.68	2772.95
242.89	2926.55
243.11	3667.91
243.33	3442.64
243.55	2975.70
243.76	2930.64
243.98	3303.37
244.20	3368.91
244.42	2983.89
244.64	2926.55
244.85	3168.21
245.07	3190.74
245.29	2901.97
245.51	3002.32
245.72	3467.21
245.94	3672.01
246.16	2897.88
246.38	3000.27
246.59	3327.95
246.81	3254.22
247.03	2883.54
247.24	2879.44
247.46	3407.82
247.68	3461.07
247.90	2932.69
248.11	2996.18
248.33	3643.34
248.55	3405.77
248.77	3071.95
248.98	3028.95
249.20	3876.80
249.42	3524.55
249.64	2936.79
249.85	2922.45
250.07	3364.81
250.29	3614.66
250.50	3055.57
250.72	2871.25
250.94	3612.62
251.16	3876.80
251.37	2928.60
251.59	2971.60
251.81	3483.59
252.02	3762.12
252.24	2770.90
252.46	3098.58
252.68	3284.94
252.89	3330.00
253.11	2811.86
253.33	3164.11
253.54	3747.78
253.76	3125.20
253.98	3016.66
254.20	2918.36
254.41	3180.50
254.63	3413.96
254.85	2834.39
255.06	3065.81
255.28	3598.28
255.50	3368.91
255.71	2881.49
255.93	2824.15
256.15	3479.50
256.36	3532.75
256.58	2787.29
256.80	2924.50
257.02	3459.02
257.23	3373.00
257.45	3028.95
257.67	3117.01
257.88	3422.16
258.10	3545.03
258.32	2971.60
258.53	3026.90
258.75	3823.56
258.97	3254.22
259.18	2822.10
259.40	2899.92
259.62	3885.00
259.83	3717.06
260.05	2928.60
260.27	3954.63
260.48	3612.62
260.70	3264.46
260.92	2803.67
261.13	2922.45
261.35	3483.59
261.57	3524.55
261.78	2889.68
262.00	2865.11
262.22	3559.37
262.43	3278.80
262.65	2947.03
262.86	2928.60
263.08	4016.07
263.30	3487.69
263.51	2795.48
263.73	2963.41
263.95	3885.00
264.16	3282.89
264.38	2840.53
264.60	2910.16
264.81	3422.16
265.03	3774.41
265.25	3370.96
265.46	2875.35
265.68	3823.56
265.89	3663.82
266.11	2744.28
266.33	2873.30
266.54	3723.21
266.76	3528.65
266.98	3067.86
267.19	3188.69
267.41	3690.44
267.62	3389.39
267.84	2785.24
268.06	3037.14
268.27	3504.07
268.49	3655.62
268.70	3055.57
268.92	2910.16
269.14	3336.14
269.35	3198.93
269.57	3186.64
269.79	2975.70
270.00	3352.52
270.22	3821.51
270.43	2795.48
270.65	2869.20
270.87	3493.83
271.08	3647.43
271.30	3084.24
271.51	2957.27
271.73	3645.38
271.95	3819.46
272.16	2914.26
272.38	3137.49
272.59	3303.37
272.81	3631.05
273.02	2854.87
273.24	3024.85
273.46	3764.17
273.67	3188.69
273.89	2924.50
274.10	2983.89
274.32	3762.12
274.54	3444.68
274.75	3082.19
274.97	3143.63
275.18	3659.72
275.40	3563.47
275.61	3022.80
275.83	3135.44
276.05	3235.79
276.26	3387.34
276.48	3080.14
276.69	3123.15
276.91	3213.26
277.12	3786.69
277.34	3137.49
277.55	3268.56
277.77	3428.30
277.99	3379.15
278.20	3135.44
278.42	2987.99
278.63	3274.70
278.85	3235.79
279.06	3082.19
279.28	3229.65
279.49	3710.92
279.71	3569.61
279.93	3157.97
280.14	3074.00
280.36	3311.57
280.57	3639.24
280.79	3123.15
281.00	2987.99
281.22	3291.09
281.43	3682.25
281.65	2863.06
281.86	2992.08
282.08	3565.51
282.29	3928.00
282.51	2961.36
282.73	2996.18
282.94	3127.25
283.16	3633.10
283.37	3174.35
283.59	3182.54
283.80	3575.75
284.02	3477.45
284.23	3127.25
284.45	3133.39
284.66	3272.65
284.88	3258.32
285.09	3057.62
285.31	3166.16
285.52	3561.42
285.74	3071.95
285.95	3256.27
286.17	3170.26
286.38	3690.44
286.60	3278.80
286.81	3061.71
287.03	3061.71
287.24	3442.64
287.46	3475.40
287.67	3332.05
287.89	3272.65
288.10	3524.55
288.32	3424.20
288.53	3229.65
288.75	3211.22
288.96	3633.10
289.18	3301.33
289.39	2953.17
289.61	3194.83
289.82	3905.48
290.04	3862.47
290.25	2977.75
290.47	3112.91
290.68	3395.53
290.90	3639.24
291.11	2914.26
291.33	3215.31
291.54	3358.67
291.76	3338.19
291.97	3182.54
292.18	3149.78
292.40	3325.90
292.61	3340.24
292.83	3471.31
293.04	3108.82
293.26	3493.83
293.47	3340.24
293.69	3065.81
293.90	3059.67
294.12	3749.83
294.33	3385.29
294.55	3166.16
294.76	3284.94
294.97	3721.16
295.19	3876.80
295.40	3086.29
295.62	3229.65
295.83	3635.14
296.05	3278.80
296.26	3411.92
296.48	3092.43
296.69	3391.44
296.90	3487.69
297.12	3254.22
297.33	3246.03
297.55	3440.59
297.76	3487.69
297.98	3129.30
298.19	3360.72
298.41	3469.26
298.62	3188.69
298.83	3356.62
299.05	3299.28
299.26	3375.05
299.48	3307.47
299.69	3178.45
299.90	3106.77
300.12	3254.22
300.33	3573.71
300.55	3125.20
300.76	3243.98
300.98	3268.56
301.19	3577.80
301.40	3135.44
301.62	3108.82
301.83	3557.32
302.05	3483.59
302.26	3164.11
302.47	3166.16
302.69	3207.12
302.90	3467.21
303.12	2944.98
303.33	3225.55
303.54	3874.76
303.76	3413.96
303.97	3119.06
304.19	3330.00
304.40	3289.04
304.61	3547.08
304.83	3182.54
305.04	3137.49
305.26	3690.44
305.47	3381.20
305.68	3078.10
305.90	2967.51
306.11	3825.61
306.33	3403.72
306.54	2979.79
306.75	3082.19
306.97	3172.30
307.18	3340.24
307.39	3035.09
307.61	3174.35
307.82	3485.64
308.04	3506.12
308.25	3074.00
308.46	3262.41
308.68	3518.41
308.89	3499.98
309.10	3186.64
309.32	3221.45
309.53	3375.05
309.74	3557.32
309.96	2979.79
310.17	3190.74
310.39	3313.61
310.60	3600.33
310.81	3131.34
311.03	3067.86
311.24	3715.02
311.45	3444.68
311.67	3305.42
311.88	3172.30
312.09	3385.29
312.31	3321.81
312.52	3008.47
312.73	3114.96
312.95	3172.30
313.16	3303.37
313.37	3280.85
313.59	3297.23
313.80	3721.16
314.01	3778.50
314.23	3168.21
314.44	2994.13
314.65	3131.34
314.87	3297.23
315.08	3127.25
315.29	3129.30
315.51	3268.56
315.72	3147.73
315.93	3149.78
316.15	3141.58
316.36	3356.62
316.57	3559.37
316.79	3071.95
317.00	2985.94
317.21	3602.38
317.43	3250.13
317.64	3162.06
317.85	3004.37
318.07	3352.52
318.28	3354.57
318.49	3248.08
318.70	3336.14
318.92	3430.35
319.13	3403.72
319.34	3293.13
319.56	3076.05
319.77	3420.11
319.98	3645.38
320.20	3461.07
320.41	3321.81
320.62	3604.42
320.83	3200.98
321.05	3254.22
321.26	3106.77
321.47	3542.99
321.69	3684.30
321.90	3041.23
322.11	2983.89
322.32	3553.23
322.54	3792.84
322.75	3180.50
322.96	4210.62
323.18	3125.20
323.39	3074.00
323.60	2951.12
323.81	3149.78
324.03	3293.13
324.24	3383.24
324.45	3192.78
324.66	3055.57
324.88	3702.73
325.09	3901.38
325.30	3047.38
325.52	2955.22
325.73	3508.17
325.94	3266.51
326.15	3012.56
326.37	2934.74
326.58	3614.66
326.79	3870.66
327.00	3037.14
327.22	3090.38
327.43	3446.73
327.64	3309.52
327.85	3352.52
328.07	3098.58
328.28	3997.64
328.49	3313.61
328.70	3104.72
328.92	3108.82
329.13	3452.88
329.34	3606.47
329.55	3344.33
329.76	3276.75
329.98	3405.77
330.19	3758.02
330.40	3164.11
330.61	3237.84
330.83	3608.52
331.04	3198.93
331.25	3180.50
331.46	3190.74
331.68	3262.41
331.89	3682.25
332.10	3200.98
332.31	3018.71
332.52	3459.02
332.74	3704.78
332.95	2994.13
333.16	3045.33
333.37	3626.95
333.58	3358.67
333.80	3090.38
334.01	2893.78
334.22	3373.00
334.43	3381.20
334.64	3028.95
334.86	2979.79
335.07	3227.60
335.28	3755.97
335.49	2973.65
335.70	3174.35
335.92	3731.40
336.13	3858.37
336.34	3059.67
336.55	3041.23
336.76	3483.59
336.98	3051.47
337.19	3112.91
337.40	3223.50
337.61	4018.11
337.82	3330.00
338.04	3143.63
338.25	2957.27
338.46	3422.16
338.67	3352.52
338.88	3018.71
339.09	3002.32
339.31	3397.58
339.52	3143.63
339.73	3039.19
339.94	3213.26
340.15	3563.47
340.36	3295.18
340.58	3176.40
340.79	3041.23
341.00	3563.47
341.21	3184.59
341.42	3381.20
341.63	3141.58
341.85	3678.15
342.06	3512.27
342.27	3100.62
342.48	3233.74
342.69	3166.16
342.90	3493.83
343.12	3540.94
343.33	3033.04
343.54	3663.82
343.75	3729.35
343.96	3205.07
344.17	2924.50
344.38	3411.92
344.60	3205.07
344.81	3020.75
345.02	3057.62
345.23	3743.69
345.44	3968.96
345.65	3237.84
345.86	3172.30
346.07	3538.89
346.29	3301.33
346.50	3254.22
346.71	3241.93
346.92	3768.26
347.13	3925.96
347.34	3200.98
347.55	2992.08
347.76	3469.26
347.98	3106.77
348.19	3112.91
348.40	3149.78
348.61	3377.10
348.82	3833.80
349.03	3100.62
349.24	3043.28
349.45	3868.61
349.66	3006.42
349.88	3084.24
350.09	2959.31
350.30	3803.08
350.51	3745.73
350.72	3276.75
350.93	3114.96
351.14	3397.58
351.35	3483.59
351.56	3207.12
351.77	3090.38
351.99	3479.50
352.20	3727.30
352.41	3217.36
352.62	2983.89
352.83	3387.34
353.04	3444.68
353.25	3125.20
353.46	3121.10
353.67	3743.69
353.88	3067.86
354.09	3041.23
354.30	3114.96
354.52	3575.75
354.73	3430.35
354.94	3065.81
355.15	3239.89
355.36	3885.00
355.57	3366.86
355.78	3010.51
355.99	3114.96
356.20	3358.67
356.41	3590.09
356.62	3164.11
356.83	3153.87
357.04	3739.59
357.25	3137.49
357.46	3104.72
357.68	3016.66
357.89	3252.17
358.10	3475.40
358.31	3016.66
358.52	3157.97
358.73	3223.50
358.94	3268.56
359.15	3147.73
359.36	3143.63
359.57	3442.64
359.78	3366.86
359.99	3327.95
360.20	3082.19
360.41	3418.06
360.62	3606.47
360.83	3155.92
361.04	3082.19
361.25	3616.71
361.46	3764.17
361.67	3303.37
361.88	3114.96
362.09	3680.20
362.30	3559.37
362.51	3166.16
362.72	3252.17
362.93	3542.99
363.14	3508.17
363.35	3235.79
363.56	2940.88
363.78	3733.45
363.99	3600.33
364.20	3129.30
364.41	3213.26
364.62	3852.23
364.83	3545.03
365.04	3125.20
365.25	3135.44
365.46	3979.20
365.67	3295.18
365.88	3307.47
366.09	3088.34
366.30	3270.61
366.51	3395.53
366.72	3067.86
366.93	3024.85
367.14	3522.51
367.35	3737.54
367.56	3108.82
367.77	3172.30
367.98	3401.68
368.18	3614.66
368.39	3227.60
368.60	3078.10
368.81	3616.71
369.02	3559.37
369.23	3133.39
369.44	2983.89
369.65	3405.77
369.86	3516.36
370.07	3205.07
370.28	3033.04
370.49	3479.50
370.70	3520.46
370.91	3000.27
371.12	3012.56
371.33	3659.72
371.54	3119.06
371.75	3223.50
371.96	2828.24
372.17	3499.98
372.38	3399.63
372.59	3133.39
372.80	3078.10
373.01	3409.87
373.22	3534.79
373.43	2979.79
373.64	2887.64
373.85	3694.54
374.06	3788.74
374.26	3313.61
374.47	3276.75
374.68	3751.88
374.89	3450.83
375.10	2996.18
375.31	3190.74
375.52	3524.55
375.73	3561.42
375.94	2893.78
376.15	3231.69
376.36	3260.37
376.57	3330.00
376.78	3166.16
376.99	3225.55
377.20	3805.13
377.40	3346.38
377.61	3461.07
377.82	3065.81
378.03	3704.78
378.24	3551.18
378.45	3147.73
378.66	3223.50
378.87	3033.04
379.08	3053.52
379.29	3071.95
379.50	3352.52
379.71	3405.77
379.91	3508.17
380.12	3002.32
380.33	3217.36
380.54	3485.64
380.75	3381.20
380.96	3020.75
381.17	3108.82
381.38	3366.86
381.59	3409.87
381.80	3180.50
382.00	3215.31
382.21	3467.21
382.42	3809.22
382.63	3405.77
382.84	3246.03
383.05	3581.90
383.26	3776.45
383.47	3307.47
383.68	3106.77
383.88	3479.50
384.09	3479.50
384.30	3344.33
384.51	3246.03
384.72	3387.34
384.93	3215.31
385.14	3164.11
385.35	3379.15
385.55	3069.91
385.76	3776.45
385.97	3170.26
386.18	3061.71
386.39	3293.13
386.60	3366.86
386.81	3121.10
387.02	2996.18
387.22	3196.88
387.43	3534.79
387.64	3246.03
387.85	3395.53
388.06	3497.93
388.27	4333.50
388.48	7272.34
388.68	11007.83
388.89	13877.04
389.10	14925.60
389.31	14481.19
389.52	11784.01
389.73	10264.42
389.93	9695.08
390.14	8525.69
390.35	7817.10
390.56	7442.32
390.77	6225.82
390.98	4851.64
391.18	4050.88
391.39	3874.76
391.60	3542.99
391.81	3428.30
392.02	3196.88
392.23	4048.83
392.43	3534.79
392.64	3231.69
392.85	3213.26
393.06	3835.85
393.27	3362.76
393.47	3067.86
393.68	3182.54
393.89	3327.95
394.10	3696.58
394.31	3041.23
394.52	3065.81
394.72	3330.00
394.93	3745.73
395.14	3055.57
395.35	3233.74
395.56	3254.22
395.76	3409.87
395.97	3092.43
396.18	3276.75
396.39	3479.50
396.60	4081.60
396.80	3473.36
397.01	3346.38
397.22	3598.28
397.43	3598.28
397.64	3110.86
397.84	3209.17
398.05	3956.68
398.26	3418.06
398.47	3254.22
398.67	3436.49
398.88	3512.27
399.09	3663.82
399.30	3131.34
399.51	3141.58
399.71	3278.80
399.92	3489.74
400.13	3225.55
400.34	3160.02
400.54	3487.69
400.75	3839.94
400.96	3203.02
401.17	3477.45
401.37	3547.08
401.58	3409.87
401.79	3123.15
402.00	3194.83
402.21	3936.20
402.41	3553.23
402.62	3444.68
402.83	3573.71
403.04	3774.41
403.24	4177.86
403.45	3295.18
403.66	3444.68
403.87	3633.10
404.07	3817.41
404.28	3387.34
404.49	3459.02
404.70	3473.36
404.90	3637.19
405.11	3147.73
405.32	3280.85
405.52	3280.85
405.73	3299.28
405.94	3114.96
406.15	3188.69
406.35	3618.76
406.56	3622.86
406.77	3231.69
406.98	3110.86
407.18	3190.74
407.39	3778.50
407.60	3200.98
407.80	3268.56
408.01	3297.23
408.22	3606.47
408.43	3008.47
408.63	3293.13
408.84	3676.10
409.05	3563.47
409.25	2998.23
409.46	3184.59
409.67	3295.18
409.88	3311.57
410.08	3143.63
410.29	3145.68
410.50	3723.21
410.70	3557.32
410.91	3039.19
411.12	3229.65
411.32	3399.63
411.53	3241.93
411.74	3215.31
411.95	3215.31
412.15	3401.68
412.36	3561.42
412.57	3248.08
412.77	3276.75
412.98	3409.87
413.19	3336.14
413.39	3180.50
413.60	3215.31
413.81	3684.30
414.01	3196.88
414.22	3141.58
414.43	3393.48
414.63	3291.09
414.84	3680.20
415.05	3213.26
415.25	3000.27
415.46	3542.99
415.67	3293.13
415.87	3203.02
416.08	3225.55
416.29	3362.76
416.49	3637.19
416.70	3227.60
416.91	3149.78
417.11	3483.59
417.32	3717.06
417.53	3258.32
417.73	3278.80
417.94	3450.83
418.15	3426.25
418.35	3209.17
418.56	3188.69
418.77	4030.40
418.97	3493.83
419.18	3246.03
419.38	2867.16
419.59	3348.43
419.80	3811.27
420.00	3090.38
420.21	3184.59
420.42	3739.59
420.62	3626.95
420.83	3219.41
421.04	3164.11
421.24	3411.92
421.45	3645.38
421.65	3112.91
421.86	3233.74
422.07	3674.06
422.27	3631.05
422.48	3096.53
422.69	2992.08
422.89	3477.45
423.10	3409.87
423.30	3184.59
423.51	3239.89
423.72	3528.65
423.92	3598.28
424.13	3090.38
424.33	3250.13
424.54	3655.62
424.75	3459.02
424.95	3368.91
425.16	3100.62
425.36	3424.20
425.57	3567.56
425.78	3237.84
425.98	3297.23
426.19	3360.72
426.39	3256.27
426.60	3338.19
426.81	3315.66
427.01	3567.56
427.22	3145.68
427.42	3016.66
427.63	3106.77
427.83	3721.16
428.04	3848.13
428.25	3160.02
428.45	3229.65
428.66	3614.66
428.86	3356.62
429.07	3188.69
429.28	3131.34
429.48	3473.36
429.69	3295.18
429.89	3286.99
430.10	3141.58
430.30	3571.66
430.51	3710.92
430.71	3028.95
430.92	3164.11
431.13	3284.94
431.33	3471.31
431.54	3327.95
431.74	3319.76
431.95	4007.87
432.15	3207.12
432.36	3155.92
432.56	3213.26
432.77	3975.11
432.98	3805.13
433.18	3162.06
433.39	3014.61
433.59	3377.10
433.80	3880.90
434.00	3319.76
434.21	3225.55
434.41	3209.17
434.62	3934.15
434.82	3076.05
435.03	3078.10
435.23	3516.36
435.44	3026.90
435.64	3098.58
435.85	3149.78
436.06	3569.61
436.26	3657.67
436.47	3196.88
436.67	3176.40
436.88	3319.76
437.08	3751.88
437.29	3235.79
437.49	3278.80
437.70	3680.20
437.90	3385.29
438.11	3303.37
438.31	3291.09
438.52	3692.49
438.72	3622.86
438.93	3420.11
439.13	3188.69
439.34	3606.47
439.54	3276.75
439.75	3256.27
439.95	3188.69
440.16	3346.38
440.36	3475.40
440.57	3200.98
440.77	3162.06
440.98	3461.07
441.18	3518.41
441.39	3090.38
441.59	3051.47
441.80	3958.72
442.00	3442.64
442.21	3241.93
442.41	3092.43
442.62	3764.17
442.82	3305.42
443.02	3112.91
443.23	3182.54
443.43	3366.86
443.64	3758.02
443.84	3074.00
444.05	3254.22
444.25	3418.06
444.46	3348.43
444.66	3104.72
444.87	3418.06
445.07	3084.24
445.28	3403.72
445.48	3321.81
445.69	3200.98
445.89	3993.54
446.09	3375.05
446.30	3442.64
446.50	3547.08
446.71	5093.30
446.91	6193.06
447.12	6940.57
447.32	7235.47
447.53	7335.82
447.73	6317.98
447.93	5431.21
448.14	5150.64
448.34	5459.88
448.55	4491.20
448.75	4376.51
448.96	4134.85
449.16	4165.57
449.36	4087.75
449.57	3401.68
449.77	3330.00
449.98	3338.19
450.18	3622.86
450.39	3149.78
450.59	3438.54
450.79	3416.01
451.00	3368.91
451.20	3399.63
451.41	3170.26
451.61	3413.96
451.81	3393.48
452.02	3090.38
452.22	3205.07
452.43	3270.61
452.63	3213.26
452.84	3248.08
453.04	3131.34
453.24	3397.58
453.45	3217.36
453.65	3172.30
453.86	3209.17
454.06	3467.21
454.26	3540.94
454.47	3043.28
454.67	3325.90
454.87	3557.32
455.08	3381.20
455.28	3282.89
455.49	3373.00
455.69	3282.89
455.89	3844.04
456.10	3256.27
456.30	3096.53
456.51	3583.95
456.71	3430.35
456.91	3276.75
457.12	3131.34
457.32	3532.75
457.52	3180.50
457.73	3295.18
457.93	3360.72
458.14	3340.24
458.34	3047.38
458.54	3145.68
458.75	3102.67
458.95	3557.32
459.15	3508.17
459.36	3200.98
459.56	3114.96
459.76	3934.15
459.97	3493.83
460.17	3145.68
460.37	3254.22
460.58	3461.07
460.78	3583.95
460.99	3182.54
461.19	3205.07
461.39	3327.95
461.60	3459.02
461.80	3209.17
462.00	3102.67
462.21	3467.21
462.41	3248.08
462.61	3018.71
462.82	3020.75
463.02	3516.36
463.22	3432.40
463.43	3172.30
463.63	3074.00
463.83	3614.66
464.04	3585.99
464.24	3190.74
464.44	3160.02
464.64	3405.77
464.85	3565.51
465.05	3170.26
465.25	3069.91
465.46	3243.98
465.66	3614.66
465.86	3307.47
466.07	3067.86
466.27	3467.21
466.47	3065.81
466.68	2983.89
466.88	3250.13
467.08	3598.28
467.29	3776.45
467.49	3131.34
467.69	3225.55
467.89	3624.90
468.10	3315.66
468.30	3172.30
468.50	3235.79
468.71	3567.56
468.91	3137.49
469.11	3395.53
469.31	3270.61
469.52	3252.17
469.72	3809.22
469.92	3510.22
470.13	3190.74
470.33	3397.58
470.53	3516.36
470.73	3569.61
470.94	3882.95
471.14	4069.31
471.34	4540.35
471.54	4153.28
471.75	3940.29
471.95	3788.74
472.15	3837.89
472.36	3633.10
472.56	3528.65
472.76	3975.11
472.96	3811.27
473.17	3446.73
473.37	3291.09
473.57	3350.48
473.77	3585.99
473.98	3391.44
474.18	3065.81
474.38	4177.86
474.58	3340.24
474.79	3026.90
474.99	3291.09
475.19	3618.76
475.39	3256.27
475.60	3297.23
475.80	3125.20
476.00	3506.12
476.20	3387.34
476.41	3241.93
476.61	3227.60
476.81	3721.16
477.01	3278.80
477.21	3545.03
477.42	3295.18
477.62	3295.18
477.82	3655.62
478.02	3049.43
478.23	3160.02
478.43	3327.95
478.63	3411.92
478.83	3198.93
479.03	3274.70
479.24	3844.04
479.44	3856.33
479.64	3170.26
479.84	2906.07
480.04	3332.05
480.25	3639.24
480.45	3123.15
480.65	3137.49
480.85	3741.64
481.06	3295.18
481.26	3291.09
481.46	3123.15
481.66	3499.98
481.86	3231.69
482.06	3377.10
482.27	3213.26
482.47	3330.00
482.67	3614.66
482.87	3194.83
483.07	3200.98
483.28	3340.24
483.48	3272.65
483.68	3219.41
483.88	3071.95
484.08	2947.03
484.29	3182.54
484.49	3254.22
484.69	3039.19
484.89	3811.27
485.09	3631.05
485.29	3127.25
485.50	3379.15
485.70	3362.76
485.90	3672.01
486.10	3348.43
486.30	3117.01
486.50	3604.42
486.71	3536.84
486.91	3227.60
487.11	3284.94
487.31	3172.30
487.51	3510.22
487.71	3209.17
487.91	3106.77
488.12	3262.41
488.32	2879.44
488.52	3172.30
488.72	2883.54
488.92	3432.40
489.12	3688.39
489.32	3325.90
489.53	3153.87
489.73	3213.26
489.93	3821.51
490.13	3200.98
490.33	3010.51
490.53	3454.92
490.73	3674.06
490.94	3043.28
491.14	3266.51
491.34	3569.61
491.54	3559.37
491.74	4044.74
491.94	4448.19
492.14	5091.25
492.34	5214.13
492.54	4624.31
492.75	4175.81
492.95	4384.70
493.15	4120.51
493.35	3825.61
493.55	3741.64
493.75	3622.86
493.95	4106.18
494.15	3332.05
494.35	3313.61
494.56	3446.73
494.76	3336.14
494.96	3313.61
495.16	3041.23
495.36	3469.26
495.56	3438.54
495.76	3229.65
495.96	3071.95
496.16	3323.85
496.36	3868.61
496.56	3084.24
496.77	3196.88
496.97	3381.20
497.17	3755.97
497.37	3000.27
497.57	3385.29
497.77	3516.36
497.97	3266.51
498.17	3205.07
498.37	3209.17
498.57	3631.05
498.77	3381.20
498.97	3360.72
499.17	3553.23
499.38	3407.82
499.58	3549.13
499.78	3348.43
499.98	3411.92
500.18	3409.87
500.38	3229.65
500.58	3377.10
500.78	3821.51
500.98	6133.67
501.18	7862.15
501.38	9023.35
501.58	10051.43
501.78	10067.81
501.98	8400.77
502.18	7128.98
502.38	6246.30
502.58	6264.74
502.78	5461.93
502.98	5185.46
503.18	5052.34
503.38	4853.69
503.59	4159.42
503.79	3952.58
503.99	3702.73
504.19	4032.45
504.39	3946.44
504.59	3626.95
504.79	3557.32
504.99	4040.64
505.19	3618.76
505.39	3346.38
505.59	3569.61
505.79	3837.89
505.99	3581.90
506.19	3205.07
506.39	3426.25
506.59	3313.61
506.79	3342.28
506.99	3444.68
507.19	3160.02
507.39	3450.83
507.59	3241.93
507.79	3217.36
507.99	3110.86
508.19	3430.35
508.39	3303.37
508.59	3215.31
508.79	3260.37
508.99	3921.86
509.19	3217.36
509.39	3274.70
509.59	3063.76
509.79	3332.05
509.99	3432.40
510.19	3299.28
510.39	3233.74
510.59	3561.42
510.79	3274.70
510.99	3016.66
511.19	3084.24
511.39	3794.89
511.59	3663.82
511.79	3375.05
511.99	3121.10
512.19	3823.56
512.38	3426.25
512.58	3162.06
512.78	3076.05
512.98	3667.91
513.18	3874.76
513.38	3114.96
513.58	3225.55
513.78	3373.00
513.98	3440.59
514.18	3190.74
514.38	3166.16
514.58	3530.70
514.78	3274.70
514.98	3057.62
515.18	3172.30
515.38	3200.98
515.58	3831.75
515.78	3166.16
515.98	3145.68
516.18	3655.62
516.38	3391.44
516.57	3149.78
516.77	3143.63
516.97	3553.23
517.17	3348.43
517.37	2969.55
517.57	3248.08
517.77	3420.11
517.97	3252.17
518.17	3233.74
518.37	3035.09
518.57	3282.89
518.77	3364.81
518.97	3207.12
519.16	3223.50
519.36	3694.54
519.56	3309.52
519.76	3117.01
519.96	3184.59
520.16	3837.89
520.36	3178.45
520.56	3286.99
520.76	3174.35
520.96	3327.95
521.16	3592.14
521.35	3291.09
521.55	3225.55
521.75	3334.09
521.95	3286.99
522.15	3104.72
522.35	3049.43
522.55	3340.24
522.75	3538.89
522.95	2992.08
523.14	2953.17
523.34	3549.13
523.54	3332.05
523.74	3342.28
523.94	3286.99
524.14	3069.91
524.34	3557.32
524.54	3368.91
524.73	3250.13
524.93	3444.68
525.13	3467.21
525.33	3033.04
525.53	3407.82
525.73	3565.51
525.93	3403.72
526.13	3151.82
526.32	3112.91
526.52	3684.30
526.72	3590.09
526.92	3227.60
527.12	3090.38
527.32	3145.68
527.52	3520.46
527.71	3160.02
527.91	3203.02
528.11	3370.96
528.31	3483.59
528.51	3094.48
528.71	3368.91
528.90	3524.55
529.10	3698.63
529.30	3284.94
529.50	2912.21
529.70	3585.99
529.90	3311.57
530.09	3131.34
530.29	3082.19
530.49	3299.28
530.69	4061.12
530.89	3352.52
531.09	3305.42
531.28	3373.00
531.48	3616.71
531.68	3141.58
531.88	3180.50
532.08	3620.81
532.28	3344.33
532.47	3186.64
532.67	3256.27
532.87	3598.28
533.07	3256.27
533.27	3231.69
533.46	3225.55
533.66	3551.18
533.86	3385.29
534.06	3221.45
534.26	3196.88
534.45	3375.05
534.65	3590.09
534.85	3323.85
535.05	3106.77
535.25	3631.05
535.44	3106.77
535.64	3194.83
535.84	3131.34
536.04	3266.51
536.24	3467.21
536.43	3082.19
536.63	3151.82
536.83	3432.40
537.03	3434.44
537.22	2963.41
537.42	3041.23
537.62	3588.04
537.82	3248.08
538.02	3360.72
538.21	3241.93
538.41	4104.13
538.61	3512.27
538.81	3227.60
539.00	3332.05
539.20	3149.78
539.40	3346.38
539.60	3090.38
539.79	3405.77
539.99	3352.52
540.19	3250.13
540.39	3028.95
540.58	3221.45
540.78	3688.39
540.98	3456.97
541.18	3360.72
541.37	3231.69
541.57	3397.58
541.77	3526.60
541.97	3041.23
542.16	2936.79
542.36	3411.92
542.56	3583.95
542.76	3323.85
542.95	3338.19
543.15	3583.95
543.35	3575.75
543.54	3123.15
543.74	3051.47
543.94	3831.75
544.14	3266.51
544.33	3360.72
544.53	3180.50
544.73	3364.81
544.93	3327.95
545.12	3117.01
545.32	3145.68
545.52	3364.81
545.71	3262.41
545.91	3157.97
546.11	3069.91
546.30	3295.18
546.50	3370.96
546.70	3305.42
546.90	3168.21
547.09	3008.47
547.29	3512.27
547.49	3375.05
547.68	3221.45
547.88	3248.08
548.08	3663.82
548.27	3497.93
548.47	3080.14
548.67	3295.18
548.87	3559.37
549.06	3184.59
549.26	3059.67
549.46	3487.69
549.65	3295.18
549.85	3147.73
550.05	3172.30
550.24	3139.54
550.44	3379.15
550.64	3221.45
550.83	3172.30
551.03	3729.35
551.23	3739.59
551.42	3207.12
551.62	3252.17
551.82	3407.82
552.01	3395.53
552.21	3481.55
552.41	3227.60
552.60	3739.59
552.80	3524.55
553.00	3112.91
553.19	3223.50
553.39	3864.52
553.59	3231.69
553.78	3332.05
553.98	3100.62
554.17	3133.39
554.37	3536.84
554.57	3262.41
554.76	3086.29
554.96	3299.28
555.16	3565.51
555.35	3319.76
555.55	3393.48
555.75	3520.46
555.94	3581.90
556.14	3045.33
556.33	3207.12
556.53	3385.29
556.73	3475.40
556.92	3145.68
557.12	3098.58
557.32	3833.80
557.51	3712.97
557.71	3258.32
557.90	3370.96
558.10	3772.36
558.30	3340.24
558.49	3205.07
558.69	3108.82
558.88	3575.75
559.08	3499.98
559.28	3215.31
559.47	3254.22
559.67	3575.75
559.86	3854.28
560.06	3127.25
560.26	3239.89
560.45	3559.37
560.65	3338.19
560.84	3526.60
561.04	3016.66
561.24	3487.69
561.43	3229.65
561.63	3448.78
561.82	3358.67
562.02	3561.42
562.22	3254.22
562.41	3129.30
562.61	3121.10
562.80	3205.07
563.00	4042.69
563.19	3291.09
563.39	3332.05
563.59	3649.48
563.78	3268.56
563.98	2942.93
564.17	3082.19
564.37	3139.54
564.56	3393.48
564.76	3018.71
564.96	3301.33
565.15	3364.81
565.35	3993.54
565.54	3260.37
565.74	3254.22
565.93	3540.94
566.13	3475.40
566.32	3268.56
566.52	3278.80
566.71	3471.31
566.91	3616.71
567.11	3229.65
567.30	3045.33
567.50	3475.40
567.69	3506.12
567.89	3160.02
568.08	3041.23
568.28	3502.03
568.47	3172.30
568.67	3141.58
568.86	3131.34
569.06	3729.35
569.25	3356.62
569.45	3012.56
569.64	3194.83
569.84	3274.70
570.04	3524.55
570.23	3200.98
570.43	3209.17
570.62	3475.40
570.82	3655.62
571.01	2996.18
571.21	3192.78
571.40	3274.70
571.60	3557.32
571.79	3297.23
571.99	3074.00
572.18	3217.36
572.38	3502.03
572.57	3160.02
572.77	3225.55
572.96	3960.77
573.16	3434.44
573.35	3219.41
573.55	3327.95
573.74	3434.44
573.94	3327.95
574.13	3131.34
574.33	3436.49
574.52	3633.10
574.71	3434.44
574.91	3166.16
575.10	3053.52
575.30	3233.74
575.49	3176.40
575.69	3084.24
575.88	3055.57
576.08	3375.05
576.27	3696.58
576.47	3008.47
576.66	3340.24
576.86	3737.54
577.05	3487.69
577.25	3289.04
577.44	3360.72
577.64	3334.09
577.83	3647.43
578.02	3151.82
578.22	3317.71
578.41	3870.66
578.61	3305.42
578.80	3037.14
579.00	3198.93
579.19	3553.23
579.39	3510.22
579.58	3286.99
579.77	3203.02
579.97	3784.65
580.16	3641.29
580.36	3385.29
580.55	3260.37
580.75	3512.27
580.94	3477.45
581.13	3313.61
581.33	3481.55
581.52	3422.16
581.72	3821.51
581.91	3256.27
582.11	3164.11
582.30	3651.53
582.49	3450.83
582.69	3444.68
582.88	3192.78
583.08	3624.90
583.27	3676.10
583.47	3442.64
583.66	3096.53
583.85	3264.46
584.05	3426.25
584.24	3303.37
584.44	3121.10
584.63	3682.25
584.82	3745.73
585.02	3405.77
585.21	3321.81
585.41	3592.14
585.60	3434.44
585.79	3393.48
585.99	3551.18
586.18	3434.44
586.37	4405.18
586.57	6834.07
586.76	18743.01
586.96	37520.84
587.15	50021.64
587.34	58008.71
587.54	61742.16
587.73	54269.12
587.93	39355.82
588.12	30266.93
588.31	24882.82
588.51	22171.31
588.70	20491.98
588.89	18083.56
589.09	15247.13
589.28	13401.91
589.47	10577.76
589.67	7921.54
589.86	6076.32
590.06	4923.32
590.25	4511.68
590.44	3835.85
590.64	3618.76
590.83	3665.86
591.02	3645.38
591.22	3155.92
591.41	3248.08
591.60	3403.72
591.80	4024.26
591.99	3014.61
592.18	3221.45
592.38	3635.14
592.57	3366.86
592.76	3137.49
592.96	3243.98
593.15	3350.48
593.34	3737.54
593.54	3176.40
593.73	3352.52
593.92	3493.83
594.12	3504.07
594.31	3291.09
594.50	3438.54
594.70	3606.47
594.89	4040.64
595.08	3082.19
595.28	3346.38
595.47	4132.80
595.66	3706.82
595.86	3102.67
596.05	2998.23
596.24	3284.94
596.43	3940.29
596.63	3297.23
596.82	3370.96
597.01	3469.26
597.21	3848.13
597.40	3178.45
597.59	3223.50
597.79	3389.39
597.98	3610.57
598.17	3246.03
598.36	3276.75
598.56	3663.82
598.75	3379.15
598.94	3284.94
599.14	3188.69
599.33	3293.13
599.52	3602.38
599.71	3293.13
599.91	3182.54
600.10	3530.70
600.29	3442.64
600.48	3278.80
600.68	3270.61
600.87	3532.75
601.06	3342.28
601.26	3330.00
601.45	3356.62
601.64	3395.53
601.83	3745.73
602.03	3119.06
602.22	3145.68
602.41	3684.30
602.60	3958.72
602.80	3188.69
602.99	3405.77
603.18	3258.32
603.37	3499.98
603.57	3149.78
603.76	3200.98
603.95	3700.68
604.14	3313.61
604.34	3057.62
604.53	3174.35
604.72	3553.23
604.91	3534.79
605.10	3108.82
605.30	3061.71
605.49	3885.00
605.68	3600.33
605.87	3096.53
606.07	3096.53
606.26	3491.79
606.45	3598.28
606.64	3250.13
606.84	3016.66
607.03	3373.00
607.22	3637.19
607.41	3297.23
607.60	3246.03
607.80	3727.30
607.99	3340.24
608.18	3194.83
608.37	3170.26
608.56	3297.23
608.76	3594.19
608.95	3264.46
609.14	3145.68
609.33	3680.20
609.52	3766.21
609.72	3254.22
609.91	3278.80
610.10	3510.22
610.29	3784.65
610.48	3373.00
610.68	3327.95
610.87	3416.01
611.06	3606.47
611.25	3196.88
611.44	3315.66
611.63	3315.66
611.83	3690.44
612.02	3057.62
612.21	3352.52
612.40	3102.67
612.59	3205.07
612.79	3106.77
612.98	3291.09
613.17	3794.89
613.36	3389.39
613.55	3282.89
613.74	3166.16
613.93	3426.25
614.13	3594.19
614.32	3332.05
614.51	3135.44
614.70	3420.11
614.89	3274.70
615.08	3209.17
615.28	3487.69
615.47	3200.98
615.66	3614.66
615.85	3172.30
616.04	3176.40
616.23	3465.16
616.42	3502.03
616.62	3178.45
616.81	3241.93
617.00	3418.06
617.19	3567.56
617.38	3176.40
617.57	3266.51
617.76	3612.62
617.95	3653.58
618.15	3373.00
618.34	3432.40
618.53	3133.39
618.72	3569.61
618.91	3270.61
619.10	3280.85
619.29	3373.00
619.48	3454.92
619.68	3043.28
619.87	3205.07
620.06	3110.86
620.25	3680.20
620.44	3151.82
620.63	3151.82
620.82	3502.03
621.01	3448.78
621.20	3239.89
621.39	3340.24
621.59	3512.27
621.78	3487.69
621.97	3188.69
622.16	3297.23
622.35	3588.04
622.54	3518.41
622.73	3256.27
622.92	3076.05
623.11	3682.25
623.30	3346.38
623.49	3254.22
623.68	2994.13
623.88	3639.24
624.07	3360.72
624.26	3135.44
624.45	3096.53
624.64	3459.02
624.83	3518.41
625.02	3198.93
625.21	3215.31
625.40	3409.87
625.59	3712.97
625.78	3200.98
625.97	3246.03
626.16	3796.93
626.35	3614.66
626.54	3174.35
626.74	3420.11
626.93	3344.33
627.12	3364.81
627.31	3274.70
627.50	3248.08
627.69	3594.19
627.88	3231.69
628.07	3164.11
628.26	2963.41
628.45	3229.65
628.64	3215.31
628.83	3139.54
629.02	3049.43
629.21	3583.95
629.40	3514.31
629.59	3028.95
629.78	3137.49
629.97	3626.95
630.16	3461.07
630.35	3151.82
630.54	3250.13
630.73	3286.99
630.92	3426.25
631.11	3119.06
631.30	3260.37
631.49	3626.95
631.68	3385.29
631.87	3209.17
632.06	3139.54
632.25	3885.00
632.44	3444.68
632.63	3237.84
632.82	3160.02
633.01	3356.62
633.20	3524.55
633.39	3200.98
633.58	3049.43
633.77	3456.97
633.96	3557.32
634.15	3315.66
634.34	3188.69
634.53	3530.70
634.72	3311.57
634.91	3024.85
635.10	3114.96
635.29	3667.91
635.48	3545.03
635.67	3039.19
635.86	3082.19
636.05	3811.27
636.24	3461.07
636.43	3200.98
636.62	3313.61
636.81	2951.12
637.00	3370.96
637.19	3188.69
637.38	3196.88
637.57	3340.24
637.76	3385.29
637.95	3385.29
638.14	3260.37
638.33	3559.37
638.52	3463.12
638.71	3041.23
638.89	3074.00
639.08	4024.26
639.27	3602.38
639.46	3358.67
639.65	3704.78
639.84	3831.75
640.03	3973.06
640.22	3504.07
640.41	3475.40
640.60	3508.17
640.79	3700.68
640.98	3448.78
641.17	3370.96
641.36	3753.93
641.55	3629.00
641.74	3020.75
641.92	3067.86
642.11	3188.69
642.30	3319.76
642.49	3057.62
642.68	3221.45
642.87	3565.51
643.06	3592.14
643.25	3057.62
643.44	3057.62
643.63	3362.76
643.82	3506.12
644.00	3051.47
644.19	3164.11
644.38	3262.41
644.57	3614.66
644.76	3213.26
644.95	3327.95
645.14	3485.64
645.33	3399.63
645.52	3282.89
645.71	3053.52
645.89	3190.74
646.08	3401.68
646.27	3219.41
646.46	3350.48
646.65	3125.20
646.84	3459.02
647.03	3078.10
647.22	3348.43
647.40	3432.40
647.59	3370.96
647.78	2932.69
647.97	3160.02
648.16	3278.80
648.35	3672.01
648.54	3387.34
648.73	3188.69
648.91	3624.90
649.10	3497.93
649.29	3151.82
649.48	3094.48
649.67	3555.27
649.86	3526.60
650.05	3246.03
650.23	3274.70
650.42	3307.47
650.61	3643.34
650.80	3360.72
650.99	3450.83
651.18	3565.51
651.36	3604.42
651.55	3084.24
651.74	3356.62
651.93	3284.94
652.12	3436.49
652.31	3200.98
652.49	3268.56
652.68	3319.76
652.87	3792.84
653.06	3303.37
653.25	3524.55
653.44	3401.68
653.62	3792.84
653.81	3237.84
654.00	3151.82
654.19	3616.71
654.38	3981.25
654.56	3297.23
654.75	3114.96
654.94	3590.09
655.13	3469.26
655.32	3147.73
655.51	3297.23
655.69	3282.89
655.88	3655.62
656.07	3094.48
656.26	3178.45
656.45	3137.49
656.63	3413.96
656.82	3129.30
657.01	3497.93
657.20	3364.81
657.38	3753.93
657.57	3059.67
657.76	2990.03
657.95	3590.09
658.14	3246.03
658.32	3270.61
658.51	3078.10
658.70	3510.22
658.89	3495.88
659.08	3225.55
659.26	3360.72
659.45	3209.17
659.64	3545.03
659.83	3135.44
660.01	3590.09
660.20	3590.09
660.39	3741.64
660.58	2912.21
660.76	3272.65
660.95	3207.12
661.14	3387.34
661.33	3004.37
661.51	3217.36
661.70	3346.38
661.89	3530.70
662.08	3213.26
662.26	2979.79
662.45	3241.93
662.64	3792.84
662.83	3252.17
663.01	3121.10
663.20	3319.76
663.39	3819.46
663.58	3200.98
663.76	3172.30
663.95	3583.95
664.14	3252.17
664.32	3237.84
664.51	3059.67
664.70	3104.72
664.89	3491.79
665.07	3055.57
665.26	3368.91
665.45	3117.01
665.64	3536.84
665.82	3176.40
666.01	3325.90
666.20	3168.21
666.38	3661.77
666.57	3542.99
666.76	5789.61
666.95	12595.01
667.13	18966.24
667.32	22673.06
667.51	25136.77
667.69	25839.22
667.88	21249.72
668.07	15603.47
668.25	13313.84
668.44	12011.34
668.63	10495.84
668.81	8873.85
669.00	7870.34
669.19	7272.34
669.38	6344.61
669.56	5349.29
669.75	4732.86
669.94	4399.04
670.12	3901.38
670.31	3497.93
670.50	3420.11
670.68	3620.81
670.87	3502.03
671.06	3149.78
671.24	3270.61
671.43	3823.56
671.62	3491.79
671.80	3172.30
671.99	3293.13
672.18	3491.79
672.36	3528.65
672.55	3299.28
672.74	3248.08
672.92	3356.62
673.11	3633.10
673.29	3047.38
673.48	3321.81
673.67	3399.63
673.85	3669.96
674.04	3114.96
674.23	3301.33
674.41	3784.65
674.60	3239.89
674.79	3004.37
674.97	3045.33
675.16	3639.24
675.34	3674.06
675.53	3209.17
675.72	3227.60
675.90	3837.89
676.09	3315.66
676.28	3266.51
676.46	2983.89
676.65	3592.14
676.83	3272.65
677.02	3221.45
677.21	3280.85
677.39	3512.27
677.58	3352.52
677.77	3065.81
677.95	3121.10
678.14	3401.68
678.32	3422.16
678.51	3217.36
678.70	3508.17
678.88	3360.72
679.07	3422.16
679.25	3102.67
679.44	3250.13
679.63	3106.77
679.81	3491.79
680.00	3526.60
680.18	3166.16
680.37	3758.02
680.55	3471.31
680.74	3033.04
680.93	2910.16
681.11	3614.66
681.30	3452.88
681.48	3135.44
681.67	3246.03
681.85	3497.93
682.04	3295.18
682.23	3348.43
682.41	3330.00
682.60	3295.18
682.78	3330.00
682.97	3125.20
683.15	3219.41
683.34	3516.36
683.53	3776.45
683.71	3071.95
683.90	3248.08
684.08	3862.47
684.27	3413.96
684.45	3205.07
684.64	3280.85
684.82	3454.92
685.01	3497.93
685.19	3211.22
685.38	3461.07
685.57	3395.53
685.75	3270.61
685.94	3094.48
686.12	3178.45
686.31	3364.81
686.49	3792.84
686.68	3006.42
686.86	3196.88
687.05	3391.44
687.23	3803.08
687.42	3219.41
687.60	3033.04
687.79	3612.62
687.97	3833.80
688.16	3276.75
688.34	3459.02
688.53	3102.67
688.71	3606.47
688.90	3506.12
689.08	3360.72
689.27	3039.19
689.45	3592.14
689.64	3348.43
689.82	3225.55
690.01	3590.09
690.19	3487.69
690.38	3303.37
690.56	3256.27
690.75	3313.61
690.93	3280.85
691.12	3174.35
691.30	3229.65
691.49	3270.61
691.67	3330.00
691.86	3512.27
692.04	3233.74
692.23	3332.05
692.41	3473.36
692.60	3559.37
692.78	3393.48
692.97	3467.21
693.15	3581.90
693.34	3381.20
693.52	3405.77
693.71	3344.33
693.89	3416.01
694.08	3082.19
694.26	3241.93
694.44	3653.58
694.63	3616.71
694.81	3092.43
695.00	3241.93
695.18	3723.21
695.37	3973.06
695.55	3352.52
695.74	3248.08
695.92	3266.51
696.10	3674.06
696.29	3100.62
696.47	3217.36
696.66	3194.83
696.84	3178.45
697.03	3246.03
697.21	3432.40
697.40	4755.38
697.58	3717.06
697.76	3266.51
697.95	3223.50
698.13	3205.07
698.32	3293.13
698.50	3225.55
698.68	3162.06
698.87	3549.13
699.05	3786.69
699.24	3272.65
699.42	3282.89
699.61	3485.64
699.79	3434.44
699.97	3260.37
700.16	3131.34
700.34	3164.11
700.53	3399.63
700.71	3424.20
700.89	3344.33
701.08	3323.85
701.26	3426.25
701.45	3524.55
701.63	3200.98
701.81	3237.84
702.00	3174.35
702.18	3340.24
702.37	3176.40
702.55	3712.97
702.73	3454.92
702.92	3088.34
703.10	3567.56
703.28	3610.57
703.47	3215.31
703.65	3360.72
703.84	3299.28
704.02	3350.48
704.20	3737.54
704.39	3162.06
704.57	3176.40
704.75	3592.14
704.94	3590.09
705.12	3413.96
705.30	4050.88
705.49	8400.77
705.67	14741.28
705.86	19459.80
706.04	21675.70
706.22	24016.53
706.41	22646.44
706.59	16822.02
706.77	13459.25
706.96	11949.90
707.14	10946.39
707.32	9357.17
707.51	8382.34
707.69	7032.72
707.87	5836.71
708.06	4769.72
708.24	4212.67
708.42	4032.45
708.61	4198.34
708.79	3311.57
708.97	3430.35
709.16	3561.42
709.34	3381.20
709.52	3229.65
709.71	3231.69
709.89	3542.99
710.07	3280.85
710.26	3074.00
710.44	3221.45
710.62	3618.76
710.80	3502.03
710.99	3387.34
711.17	3295.18
711.35	3305.42
711.54	3336.14
711.72	3336.14
711.90	3301.33
712.09	3557.32
712.27	3274.70
712.45	3307.47
712.63	3188.69
712.82	3542.99
713.00	3358.67
713.18	3336.14
713.37	3409.87
713.55	3663.82
713.73	3600.33
713.91	3258.32
714.10	3221.45
714.28	3422.16
714.46	3479.50
714.65	3280.85
714.83	3258.32
715.01	3495.88
715.19	3518.41
715.38	3180.50
715.56	3399.63
715.74	3315.66
715.92	3250.13
716.11	3502.03
716.29	2885.59
716.47	3479.50
716.65	3422.16
716.84	3108.82
717.02	3246.03
717.20	3123.15
717.38	3248.08
717.57	3266.51
717.75	3293.13
717.93	3344.33
718.11	3598.28
718.30	3155.92
718.48	3188.69
718.66	3706.82
718.84	3743.69
719.03	3172.30
719.21	3071.95
719.39	3835.85
719.57	3557.32
719.75	3237.84
719.94	3149.78
720.12	3409.87
720.30	3506.12
720.48	3231.69
720.67	3157.97
720.85	3223.50
721.03	3377.10
721.21	3192.78
721.39	3164.11
721.58	3545.03
721.76	3489.74
721.94	3192.78
722.12	3315.66
722.30	3794.89
722.49	3221.45
722.67	3162.06
722.85	3280.85
723.03	3139.54
723.21	3303.37
723.40	3200.98
723.58	3282.89
723.76	3583.95
723.94	3581.90
724.12	3196.88
724.30	3473.36
724.49	3610.57
724.67	3237.84
724.85	3233.74
725.03	3145.68
725.21	3532.75
725.40	3641.29
725.58	3241.93
725.76	3434.44
725.94	3512.27
726.12	3231.69
726.30	3252.17
726.49	3217.36
726.67	3266.51
726.85	3420.11
727.03	3858.37
727.21	4974.52
727.39	6018.98
727.57	6563.74
727.76	6875.03
727.94	6854.55
728.12	5808.04
728.30	5117.87
728.48	4870.07
728.66	4566.97
728.84	4370.37
729.03	3966.92
729.21	3696.58
729.39	3618.76
729.57	3536.84
729.75	3499.98
729.93	3475.40
730.11	3174.35
730.30	3250.13
730.48	3368.91
730.66	3172.30
730.84	3311.57
731.02	3397.58
731.20	3344.33
731.38	3225.55
731.56	3100.62
731.74	3207.12
731.93	3436.49
732.11	3393.48
732.29	3170.26
732.47	3618.76
732.65	3465.16
732.83	3399.63
733.01	3403.72
733.19	3250.13
733.37	3594.19
733.56	3270.61
733.74	3125.20
733.92	3893.19
734.10	3307.47
734.28	3362.76
734.46	2990.03
734.64	3395.53
734.82	3338.19
735.00	3182.54
735.18	3215.31
735.36	3391.44
735.54	3461.07
735.73	3196.88
735.91	3303.37
736.09	3700.68
736.27	3454.92
736.45	3278.80
736.63	2912.21
736.81	3346.38
736.99	3729.35
737.17	3448.78
737.35	3149.78
737.53	3373.00
737.71	3323.85
737.89	3467.21
738.07	3151.82
738.25	3323.85
738.43	3200.98
738.61	3289.04
738.80	3133.39
738.98	3227.60
739.16	3364.81
739.34	3192.78
739.52	3530.70
739.70	3381.20
739.88	3516.36
740.06	3409.87
740.24	2969.55
740.42	3739.59
740.60	3088.34
740.78	3151.82
740.96	3012.56
741.14	3385.29
741.32	3450.83
741.50	3049.43
741.68	3483.59
741.86	3825.61
742.04	3170.26
742.22	3143.63
742.40	3174.35
742.58	3567.56
742.76	3305.42
742.94	3442.64
743.12	3049.43
743.30	3420.11
743.48	3475.40
743.66	3119.06
743.84	3260.37
744.02	3305.42
744.20	3459.02
744.38	3096.53
744.56	3149.78
744.74	3794.89
744.92	3575.75
745.10	3475.40
745.28	3284.94
745.46	3798.98
745.64	3405.77
745.82	3323.85
746.00	3188.69
746.18	3516.36
746.36	3219.41
746.54	3229.65
746.72	3213.26
746.90	3262.41
747.08	3739.59
747.26	3221.45
747.44	3274.70
747.62	3604.42
747.80	3475.40
747.98	3303.37
748.15	3172.30
748.33	3860.42
748.51	3446.73
748.69	3348.43
748.87	3166.16
749.05	3373.00
749.23	3450.83
749.41	3137.49
749.59	3149.78
749.77	3585.99
749.95	3289.04
750.13	3184.59
750.31	3327.95
750.49	3483.59
750.67	3631.05
750.85	3332.05
751.03	3196.88
751.20	3919.81
751.38	3532.75
751.56	3301.33
751.74	3223.50
751.92	3368.91
752.10	3231.69
752.28	3393.48
752.46	3174.35
752.64	3385.29
752.82	3403.72
753.00	3241.93
753.18	3108.82
753.35	3350.48
753.53	3352.52
753.71	3096.53
753.89	3262.41
754.07	3534.79
754.25	3657.67
754.43	3248.08
754.61	3166.16
754.79	3495.88
754.97	3377.10
755.14	3389.39
755.32	3059.67
755.50	3467.21
755.68	3461.07
755.86	3147.73
756.04	3071.95
756.22	3033.04
756.40	3583.95
756.57	3430.35
756.75	3174.35
756.93	3624.90
757.11	3581.90
757.29	3076.05
757.47	3114.96
757.65	3086.29
757.82	3016.66
758.00	3209.17
758.18	3131.34
758.36	3252.17
758.54	3733.45
758.72	2983.89
758.90	3346.38
759.07	3508.17
759.25	3229.65
759.43	3307.47
759.61	3022.80
759.79	4614.07
759.97	3712.97
760.15	3221.45
760.32	3110.86
760.50	3534.79
760.68	3891.14
760.86	3090.38
761.04	3471.31
761.22	3567.56
761.39	3422.16
761.57	3356.62
761.75	3182.54
761.93	3618.76
762.11	3409.87
762.28	3332.05
762.46	3149.78
762.64	3596.23
762.82	3205.07
763.00	3147.73
763.18	3397.58
763.35	3225.55
763.53	3663.82
763.71	3282.89
763.89	3205.07
764.07	3432.40
764.24	3581.90
764.42	3286.99
764.60	3266.51
764.78	3524.55
764.96	3598.28
765.13	3362.76
765.31	3004.37
765.49	3577.80
765.67	3194.83
765.84	3190.74
766.02	3184.59
766.20	3065.81
766.38	3520.46
766.56	3266.51
766.73	3348.43
766.91	3448.78
767.09	3403.72
767.27	3196.88
767.44	3067.86
767.62	3545.03
767.80	3373.00
767.98	3188.69
768.15	3254.22
768.33	3567.56
768.51	3616.71
768.69	3385.29
768.87	3215.31
769.04	3495.88
769.22	3952.58
769.40	3370.96
769.58	3334.09
769.75	3618.76
769.93	3729.35
770.11	3272.65
770.28	3039.19
770.46	3606.47
770.64	3524.55
770.82	3268.56
770.99	3086.29
771.17	3602.38
771.35	3342.28
771.53	3270.61
771.70	3092.43
771.88	3612.62
772.06	3438.54
772.23	3045.33
772.41	3231.69
772.59	3473.36
772.77	3237.84
772.94	3213.26
773.12	3231.69
773.30	3385.29
773.47	3471.31
773.65	3102.67
773.83	3344.33
774.01	3461.07
774.18	3117.01
774.36	3246.03
774.54	3049.43
774.71	3504.07
774.89	3182.54
775.07	3149.78
775.24	3223.50
775.42	3278.80
775.60	3919.81
775.78	3129.30
775.95	3000.27
776.13	3090.38
776.31	3059.67
776.48	3403.72
776.66	3381.20
776.84	3344.33
777.01	3155.92
777.19	3176.40
777.37	3178.45
777.54	3542.99
777.72	3901.38
777.90	3289.04
778.07	3180.50
778.25	4143.04
778.43	3592.14
778.60	3256.27
778.78	3297.23
778.96	3758.02
779.13	3129.30
779.31	3254.22
779.49	3243.98
779.66	3567.56
779.84	3424.20
780.01	3196.88
780.19	3125.20
780.37	3723.21
780.54	3631.05
780.72	3035.09
780.90	3198.93
781.07	3321.81
781.25	3336.14
781.43	3401.68
781.60	3139.54
781.78	3659.72
781.95	3549.13
782.13	3196.88
782.31	3176.40
782.48	3114.96
782.66	3393.48
782.83	3381.20
783.01	3317.71
783.19	3637.19
783.36	3448.78
783.54	3141.58
783.72	3223.50
783.89	3350.48
784.07	3444.68
784.24	3327.95
784.42	3338.19
784.60	3534.79
784.77	3502.03
784.95	2934.74
785.12	3117.01
785.30	3477.45
785.47	3303.37
785.65	3108.82
785.83	3291.09
786.00	3385.29
786.18	3432.40
786.35	3135.44
786.53	3139.54
786.71	3680.20
786.88	3557.32
787.06	3289.04
787.23	3278.80
787.41	3270.61
787.58	3360.72
787.76	3051.47
787.94	3225.55
788.11	3555.27
788.29	3125.20
788.46	3190.74
788.64	3041.23
788.81	3340.24
788.99	3289.04
789.16	3127.25
789.34	3180.50
789.52	3352.52
789.69	3311.57
789.87	2928.60
790.04	3160.02
790.22	3366.86
790.39	3882.95
790.57	3143.63
790.74	3104.72
790.92	3712.97
791.09	3104.72
791.27	3311.57
791.44	3268.56
791.62	3340.24
791.79	3561.42
791.97	3338.19
792.15	3459.02
792.32	3596.23
792.50	3581.90
792.67	3430.35
792.85	3452.88
793.02	3594.19
793.20	3336.14
793.37	2998.23
793.55	3110.86
793.72	3131.34
793.90	3565.51
794.07	3174.35
794.25	3108.82
794.42	3545.03
794.60	3403.72
794.77	3178.45
794.95	3321.81
795.12	3622.86
795.30	3379.15
795.47	2994.13
795.65	3590.09
795.82	3575.75
796.00	3280.85
796.17	3282.89
796.34	3172.30
796.52	3512.27
796.69	3559.37
796.87	3315.66
797.04	3336.14
797.22	3682.25
797.39	3555.27
797.57	3305.42
797.74	3268.56
797.92	3575.75
798.09	3338.19
798.27	3536.84
798.44	3190.74
798.62	3276.75
798.79	3491.79
798.96	3350.48
799.14	3110.86
799.31	4030.40
799.49	3438.54
799.66	3123.15
799.84	3274.70
800.01	3227.60
800.19	3475.40
800.36	3016.66
800.53	3264.46
800.71	3569.61
800.88	3731.40
801.06	3125.20
801.23	3184.59
801.41	3330.00
801.58	3348.43
801.75	3231.69
801.93	3239.89
802.10	3604.42
802.28	3454.92
802.45	3319.76
802.63	3330.00
802.80	3712.97
802.97	3256.27
803.15	3172.30
803.32	3176.40
803.50	3311.57
803.67	3364.81
803.84	3119.06
804.02	3305.42
804.19	3352.52
804.37	2969.55
804.54	3000.27
804.71	3147.73
804.89	3428.30
805.06	3241.93
805.24	3080.14
805.41	3006.42
805.58	3311.57
805.76	3968.96
805.93	3209.17
806.10	3319.76
806.28	3516.36
806.45	3477.45
806.63	3327.95
806.80	3272.65
806.97	3442.64
807.15	3436.49
807.32	3364.81
807.49	3172.30
807.67	3114.96
807.84	3483.59
808.01	3010.51
808.19	3325.90
808.36	3835.85
808.54	3313.61
808.71	3209.17
808.88	3121.10
809.06	3721.16
809.23	3813.32
809.40	3293.13
809.58	3143.63
809.75	3508.17
809.92	3117.01
810.10	3461.07
810.27	3090.38
810.44	3524.55
810.62	3643.34
810.79	3295.18
810.96	3217.36
811.14	3313.61
811.31	3520.46
811.48	3395.53
811.66	3282.89
811.83	3672.01
812.00	3553.23
812.18	3295.18
812.35	3379.15
812.52	3317.71
812.69	3366.86
812.87	3207.12
813.04	3100.62
813.21	3401.68
813.39	3297.23
813.56	3186.64
813.73	3518.41
813.91	3041.23
814.08	3487.69
814.25	3246.03
814.42	2967.51
814.60	3434.44
814.77	3493.83
814.94	3131.34
815.12	3260.37
815.29	3819.46
815.46	3413.96
815.63	3182.54
815.81	3176.40
815.98	3321.81
816.15	3506.12
816.33	3235.79
816.50	3274.70
816.67	3385.29
816.84	3325.90
817.02	3047.38
817.19	3164.11
817.36	3508.17
817.53	3516.36
817.71	3041.23
817.88	3174.35
818.05	3362.76
818.22	3385.29
818.40	3319.76
818.57	3119.06
818.74	3528.65
818.91	3446.73
819.09	3389.39
819.26	3332.05
819.43	3299.28
819.60	3319.76
819.78	3395.53
819.95	3180.50
820.12	3264.46
820.29	3721.16
820.47	3502.03
820.64	3151.82
820.81	3149.78
820.98	3258.32
821.15	3194.83
821.33	3356.62
821.50	3061.71
821.67	3551.18
821.84	3086.29
822.02	3231.69
822.19	3686.34
822.36	3397.58
822.53	3108.82
822.70	3051.47
822.88	3344.33
823.05	3723.21
823.22	3223.50
823.39	3172.30
823.56	3276.75
823.74	3846.09
823.91	2985.94
824.08	3149.78
824.25	3176.40
824.42	3762.12
824.60	3098.58
824.77	3254.22
824.94	3323.85
825.11	3549.13
825.28	3100.62
825.45	3299.28
825.63	3401.68
825.80	3166.16
825.97	3313.61
826.14	3211.22
826.31	3076.05
826.48	3565.51
826.66	3172.30
826.83	3131.34
827.00	3403.72
827.17	3225.55
827.34	3196.88
827.51	3084.24
827.69	3416.01
827.86	3043.28
828.03	3233.74
828.20	3172.30
828.37	3338.19
828.54	3542.99
828.71	3082.19
828.89	3286.99
829.06	3426.25
829.23	3766.21
829.40	3170.26
829.57	3143.63
829.74	3561.42
829.91	3321.81
830.09	3112.91
830.26	3274.70
830.43	3747.78
830.60	3387.34
830.77	3350.48
830.94	3370.96
831.11	3657.67
831.28	3315.66
831.46	3286.99
831.63	3182.54
831.80	3655.62
831.97	3215.31
832.14	3270.61
832.31	3215.31
832.48	3497.93
832.65	3600.33
832.82	3368.91
832.99	3231.69
833.17	3209.17
833.34	3729.35
833.51	3143.63
833.68	2959.31
833.85	3553.23
834.02	3184.59
834.19	3106.77
834.36	3233.74
834.53	3528.65
834.70	3692.49
834.87	3151.82
835.04	2973.65
835.22	3188.69
835.39	3352.52
835.56	3035.09
835.73	2936.79
835.90	3588.04
836.07	3248.08
836.24	3143.63
836.41	2973.65
836.58	3243.98
836.75	3606.47
836.92	3037.14
837.09	2914.26
837.26	3583.95
837.43	3542.99
837.60	2959.31
837.77	3026.90
837.94	3659.72
838.12	3688.39
838.29	2975.70
838.46	2920.40
838.63	3145.68
838.80	3801.03
838.97	3127.25
839.14	2934.74
839.31	3471.31
839.48	3471.31
839.65	3061.71
839.82	3147.73
839.99	3452.88
840.16	3456.97
840.33	2961.36
840.50	3074.00
840.67	3217.36
840.84	3012.56
841.01	2947.03
841.18	3022.80
841.35	3452.88
841.52	3588.04
841.69	3332.05
841.86	3108.82
842.03	3344.33
842.20	3600.33
842.37	2987.99
842.54	3106.77
842.71	3381.20
842.88	3139.54
843.05	3065.81
843.22	3002.32
843.39	3631.05
843.56	3209.17
843.73	2949.08
843.90	3071.95
844.07	3391.44
844.24	3655.62
844.41	3024.85
844.58	3108.82
844.75	3459.02
844.92	3618.76
845.09	3033.04
845.26	3045.33
845.43	3520.46
845.60	3295.18
845.77	3090.38
845.94	3121.10
846.10	3577.80
846.27	3065.81
846.44	2912.21
846.61	2957.27
846.78	3493.83
846.95	3694.54
847.12	2953.17
847.29	3133.39
847.46	3262.41
847.63	3639.24
847.80	2858.96
847.97	2992.08
848.14	3946.44
848.31	3319.76
848.48	2889.68
848.65	2942.93
848.82	3289.04
848.98	3946.44
849.15	3225.55
849.32	3084.24
849.49	3618.76
849.66	3440.59
849.83	3030.99
850.00	2949.08
850.17	3559.37
850.34	3293.13
850.51	3051.47
850.68	3047.38
850.85	3999.68
851.01	3504.07
851.18	2904.02
851.35	3043.28
851.52	3536.84
851.69	3735.50
851.86	2959.31
852.03	2969.55
852.20	3639.24
852.37	3504.07
852.53	2914.26
852.70	2914.26
852.87	3583.95
853.04	3594.19
853.21	2961.36
853.38	3293.13
853.55	3696.58
853.72	3772.36
853.89	2871.25
854.05	2992.08
854.22	3428.30
854.39	3278.80
854.56	2967.51
854.73	3110.86
854.90	3311.57
855.07	3317.71
855.23	2889.68
855.40	2920.40
855.57	3358.67
855.74	2920.40
855.91	3272.65
856.08	2861.01
856.25	3053.52
856.41	3465.16
856.58	3039.19
856.75	3043.28
856.92	3172.30
857.09	3577.80
857.26	2848.72
857.42	3074.00
857.59	3616.71
857.76	3354.57
857.93	2951.12
858.10	3092.43
858.27	3065.81
858.43	3413.96
858.60	3000.27
858.77	2967.51
858.94	3368.91
859.11	3663.82
859.27	3139.54
859.44	2912.21
859.61	3987.40
859.78	3614.66
859.95	3129.30
860.12	2920.40
860.28	3903.43
860.45	3860.42
860.62	2934.74
860.79	3098.58
860.95	3352.52
861.12	3225.55
861.29	2871.25
861.46	3006.42
861.63	3301.33
861.79	3469.26
861.96	2873.30
862.13	3074.00
862.30	3704.78
862.47	3309.52
862.63	2906.07
862.80	3078.10
862.97	3655.62
863.14	3571.66
863.30	3061.71
863.47	2910.16
863.64	3801.03
863.81	3450.83
863.97	2805.72
864.14	3022.80
864.31	3416.01
864.48	3528.65
864.65	3080.14
864.81	3086.29
864.98	3518.41
865.15	3649.48
865.32	3084.24
865.48	3131.34
865.65	3782.60
865.82	3297.23
865.98	3155.92
866.15	3000.27
866.32	3526.60
866.49	3354.57
866.65	3219.41
866.82	3053.52
866.99	3411.92
867.16	3344.33
867.32	3037.14
867.49	2944.98
867.66	3416.01
867.83	3360.72
867.99	2916.31
868.16	3045.33
868.33	3131.34
868.49	3430.35
868.66	3016.66
868.83	3168.21
868.99	3377.10
869.16	3385.29
869.33	3168.21
869.50	3131.34
869.66	3450.83
869.83	3354.57
870.00	2971.60
870.16	3168.21
870.33	3354.57
870.50	3555.27
870.66	3086.29
870.83	3035.09
871.00	3440.59
871.17	3577.80
871.33	3102.67
871.50	2936.79
871.67	3385.29
871.83	3139.54
872.00	3131.34
872.17	2992.08
872.33	3885.00
872.50	3661.77
872.67	2963.41
872.83	3053.52
873.00	3495.88
873.17	3428.30
873.33	3096.53
873.50	3069.91
873.67	3297.23
873.83	3272.65
874.00	3039.19
874.16	3172.30
874.33	3420.11
874.50	3082.19
874.66	3004.37
874.83	3145.68
875.00	3606.47
875.16	3678.15
875.33	3065.81
875.50	2775.00
875.66	3317.71
875.83	3411.92
875.99	3035.09
876.16	3067.86
876.33	3229.65
876.49	3346.38
876.66	3051.47
876.83	3065.81
876.99	3092.43
877.16	3452.88
877.32	2951.12
877.49	3090.38
877.66	3532.75
877.82	3733.45
877.99	3139.54
878.15	3325.90
878.32	3491.79
878.49	3540.94
878.65	3090.38
878.82	3315.66
878.98	3260.37
879.15	3645.38
879.32	3276.75
879.48	3203.02
879.65	3407.82
879.81	3416.01
879.98	3092.43
880.15	3061.71
880.31	3608.52
880.48	3174.35
880.64	3121.10
880.81	3131.34
880.97	3741.64
881.14	3702.73
881.31	3010.51
881.47	3176.40
881.64	3430.35
881.80	3114.96
881.97	3221.45
882.13	3018.71
882.30	3223.50
882.47	3303.37
882.63	2975.70
882.80	2979.79
882.96	3338.19
883.13	3610.57
883.29	3047.38
883.46	3053.52
883.62	4032.45
883.79	3401.68
883.95	3209.17
884.12	2975.70
884.29	3676.10
884.45	3489.74
884.62	3061.71
884.78	3057.62
884.95	3827.65
885.11	3272.65
885.28	3155.92
885.44	3051.47
885.61	3551.18
885.77	3739.59
885.94	3241.93
886.10	3049.43
886.27	3416.01
886.43	3831.75
886.60	3237.84
886.76	3049.43
886.93	3157.97
887.09	3467.21
887.26	2865.11
887.42	3053.52
887.59	3686.34
887.75	3880.90
887.92	3286.99
888.08	3139.54
888.25	3772.36
888.41	3598.28
888.58	3114.96
888.74	2990.03
888.91	3217.36
>>>>>End Processed Spectral Data<<<<<
