SpectraSuite Data File
++++++++++++++++++++++++++++++++++++
Date: Fri May 06 09:29:08 CEST 2016
User: root
Dark Spectrum Present: No
Reference Spectrum Present: No
Number of Sampled Component Spectra: 1
Spectrometers: USB4C02835
Integration Time (usec): 100000 (USB4C02835)
Spectra Averaged: 1 (USB4C02835)
Boxcar Smoothing: 0 (USB4C02835)
Correct for Electrical Dark: No (USB4C02835)
Strobe/Lamp Enabled: No (USB4C02835)
Correct for Detector Non-linearity: No (USB4C02835)
Correct for Stray Light: No (USB4C02835)
Number of Pixels in Processed Spectrum: 3648
>>>>>Begin Processed Spectral Data<<<<<
177.47	2346.97
177.69	2346.97
177.91	2346.97
178.13	2314.20
178.36	2357.21
178.58	3221.45
178.80	3264.46
179.02	3149.78
179.24	3192.78
179.46	2897.88
179.68	2934.74
179.90	3436.49
180.13	3428.30
180.35	2768.85
180.57	2854.87
180.79	3663.82
181.01	3360.72
181.23	2955.22
181.45	3041.23
181.67	3547.08
181.90	3659.72
182.12	3069.91
182.34	2873.30
182.56	3626.95
182.78	3555.27
183.00	2965.46
183.22	3000.27
183.44	3043.28
183.66	4112.32
183.89	3100.62
184.11	2963.41
184.33	3538.89
184.55	3758.02
184.77	2918.36
184.99	3051.47
185.21	3397.58
185.43	3968.96
185.65	2924.50
185.87	2901.97
186.10	3938.24
186.32	4061.12
186.54	3100.62
186.76	3125.20
186.98	3700.68
187.20	3477.45
187.42	3022.80
187.64	2914.26
187.86	3549.13
188.08	3772.36
188.30	2869.20
188.52	3002.32
188.75	3786.69
188.97	3704.78
189.19	3018.71
189.41	2914.26
189.63	3524.55
189.85	3319.76
190.07	2830.29
190.29	2822.10
190.51	3493.83
190.73	3162.06
190.95	3221.45
191.17	2975.70
191.39	3090.38
191.61	3338.19
191.84	2916.31
192.06	3024.85
192.28	3065.81
192.50	4087.75
192.72	3178.45
192.94	3055.57
193.16	3657.67
193.38	3585.99
193.60	2850.77
193.82	3131.34
194.04	3690.44
194.26	3502.03
194.48	2992.08
194.70	2926.55
194.92	3446.73
195.14	3594.19
195.36	2936.79
195.58	2994.13
195.80	3461.07
196.02	3293.13
196.24	2844.63
196.46	3037.14
196.69	3401.68
196.91	3966.92
197.13	2938.84
197.35	2938.84
197.57	3794.89
197.79	3561.42
198.01	3033.04
198.23	2951.12
198.45	3575.75
198.67	3223.50
198.89	2811.86
199.11	3057.62
199.33	3352.52
199.55	2953.17
199.77	2875.35
199.99	3205.07
200.21	3344.33
200.43	3477.45
200.65	2811.86
200.87	2830.29
201.09	3436.49
201.31	3438.54
201.53	3014.61
201.75	3051.47
201.97	3485.64
202.19	3364.81
202.41	3024.85
202.63	3084.24
202.85	3540.94
203.07	3542.99
203.29	3080.14
203.51	2820.05
203.73	3264.46
203.95	4048.83
204.17	2901.97
204.39	3071.95
204.61	3403.72
204.83	3401.68
205.05	3127.25
205.27	2963.41
205.49	3985.35
205.71	3516.36
205.93	2824.15
206.15	2830.29
206.37	3532.75
206.59	3387.34
206.81	2789.33
207.03	2861.01
207.25	3295.18
207.47	3481.55
207.69	3006.42
207.91	3209.17
208.13	3848.13
208.34	3332.05
208.56	2875.35
208.78	2965.46
209.00	3391.44
209.22	3397.58
209.44	3004.37
209.66	2879.44
209.88	3530.70
210.10	3409.87
210.32	2963.41
210.54	2953.17
210.76	3370.96
210.98	3590.09
211.20	2822.10
211.42	3106.77
211.64	3712.97
211.86	3549.13
212.08	2998.23
212.30	2979.79
212.52	3422.16
212.74	3585.99
212.96	3008.47
213.17	3108.82
213.39	3706.82
213.61	3885.00
213.83	2936.79
214.05	2910.16
214.27	3764.17
214.49	3221.45
214.71	2942.93
214.93	3074.00
215.15	3524.55
215.37	3741.64
215.59	2832.34
215.81	3002.32
216.03	3764.17
216.24	3514.31
216.46	3006.42
216.68	3000.27
216.90	3690.44
217.12	3749.83
217.34	2944.98
217.56	3149.78
217.78	3743.69
218.00	3561.42
218.22	3080.14
218.44	3139.54
218.66	3536.84
218.87	3829.70
219.09	3026.90
219.31	3018.71
219.53	3547.08
219.75	3360.72
219.97	3094.48
220.19	3055.57
220.41	3446.73
220.63	3774.41
220.85	2985.94
221.06	3004.37
221.28	3782.60
221.50	3547.08
221.72	3045.33
221.94	2795.48
222.16	3434.44
222.38	3770.31
222.60	2920.40
222.82	3129.30
223.03	3661.77
223.25	3243.98
223.47	2891.73
223.69	3239.89
223.91	3647.43
224.13	3461.07
224.35	2889.68
224.57	3123.15
224.78	3594.19
225.00	3280.85
225.22	3090.38
225.44	2906.07
225.66	3567.56
225.88	3332.05
226.10	3039.19
226.32	2918.36
226.53	3798.98
226.75	3348.43
226.97	3057.62
227.19	3018.71
227.41	3248.08
227.63	3366.86
227.85	2805.72
228.06	3067.86
228.28	3467.21
228.50	3622.86
228.72	2768.85
228.94	2969.55
229.16	3051.47
229.37	3213.26
229.59	2951.12
229.81	3356.62
230.03	3311.57
230.25	3205.07
230.47	2797.53
230.69	2994.13
230.90	3637.19
231.12	3274.70
231.34	3057.62
231.56	3018.71
231.78	3254.22
232.00	3420.11
232.21	3078.10
232.43	3018.71
232.65	2996.18
232.87	3686.34
233.09	2893.78
233.30	2881.49
233.52	3655.62
233.74	3397.58
233.96	2885.59
234.18	3182.54
234.40	3454.92
234.61	4018.11
234.83	2869.20
235.05	2906.07
235.27	3952.58
235.49	3731.40
235.70	2826.20
235.92	2994.13
236.14	3590.09
236.36	4028.35
236.58	2818.00
236.79	3057.62
237.01	3370.96
237.23	3518.41
237.45	3223.50
237.67	3004.37
237.88	3592.14
238.10	3870.66
238.32	2873.30
238.54	2920.40
238.76	3426.25
238.97	3188.69
239.19	2858.96
239.41	2961.36
239.63	3616.71
239.85	3303.37
240.06	3096.53
240.28	2967.51
240.50	3604.42
240.72	3432.40
240.93	2820.05
241.15	3174.35
241.37	3512.27
241.59	3807.17
241.81	2947.03
242.02	3002.32
242.24	3600.33
242.46	3549.13
242.68	2822.10
242.89	2924.50
243.11	3610.57
243.33	3459.02
243.55	2908.12
243.76	2920.40
243.98	3379.15
244.20	3383.24
244.42	2949.08
244.64	2899.92
244.85	3215.31
245.07	3305.42
245.29	3004.37
245.51	3051.47
245.72	3499.98
245.94	3655.62
246.16	2908.12
246.38	3061.71
246.59	3354.57
246.81	3286.99
247.03	2791.38
247.24	2842.58
247.46	3317.71
247.68	3422.16
247.90	2906.07
248.11	3020.75
248.33	3559.37
248.55	3459.02
248.77	3004.37
248.98	3094.48
249.20	3772.36
249.42	3518.41
249.64	2904.02
249.85	2867.16
250.07	3420.11
250.29	3502.03
250.50	3047.38
250.72	2875.35
250.94	3536.84
251.16	3925.96
251.37	2875.35
251.59	3090.38
251.81	3528.65
252.02	3753.93
252.24	2836.44
252.46	3074.00
252.68	3354.57
252.89	3252.17
253.11	2813.91
253.33	3194.83
253.54	3721.16
253.76	3157.97
253.98	2967.51
254.20	2951.12
254.41	3207.12
254.63	3502.03
254.85	2764.76
255.06	3043.28
255.28	3524.55
255.50	3446.73
255.71	2987.99
255.93	2762.71
256.15	3495.88
256.36	3606.47
256.58	2795.48
256.80	2875.35
257.02	3405.77
257.23	3356.62
257.45	2985.94
257.67	3151.82
257.88	3325.90
258.10	3522.51
258.32	2985.94
258.53	3012.56
258.75	3831.75
258.97	3416.01
259.18	2850.77
259.40	2865.11
259.62	3792.84
259.83	3819.46
260.05	2930.64
260.27	3975.11
260.48	3641.29
260.70	3239.89
260.92	2822.10
261.13	2990.03
261.35	3520.46
261.57	3516.36
261.78	2787.29
262.00	2906.07
262.22	3639.24
262.43	3213.26
262.65	2961.36
262.86	2953.17
263.08	4067.27
263.30	3504.07
263.51	2783.19
263.73	2895.83
263.95	3747.78
264.16	3303.37
264.38	2785.24
264.60	2844.63
264.81	3512.27
265.03	3676.10
265.25	3348.43
265.46	2856.92
265.68	3766.21
265.89	3604.42
266.11	2856.92
266.33	2961.36
266.54	3780.55
266.76	3477.45
266.98	3065.81
267.19	3200.98
267.41	3659.72
267.62	3401.68
267.84	2777.05
268.06	3002.32
268.27	3538.89
268.49	3682.25
268.70	3047.38
268.92	3033.04
269.14	3237.84
269.35	3127.25
269.57	3084.24
269.79	3057.62
270.00	3305.42
270.22	3870.66
270.43	2834.39
270.65	2877.40
270.87	3491.79
271.08	3598.28
271.30	3088.34
271.51	2881.49
271.73	3545.03
271.95	3805.13
272.16	2885.59
272.38	3065.81
272.59	3381.20
272.81	3536.84
273.02	2881.49
273.24	3018.71
273.46	3727.30
273.67	3131.34
273.89	2770.90
274.10	2942.93
274.32	3811.27
274.54	3577.80
274.75	3141.58
274.97	3100.62
275.18	3612.62
275.40	3600.33
275.61	3018.71
275.83	3149.78
276.05	3229.65
276.26	3481.55
276.48	3035.09
276.69	3123.15
276.91	3317.71
277.12	3921.86
277.34	3172.30
277.55	3209.17
277.77	3444.68
277.99	3395.53
278.20	3215.31
278.42	2959.31
278.63	3264.46
278.85	3223.50
279.06	3086.29
279.28	3155.92
279.49	3669.96
279.71	3524.55
279.93	3129.30
280.14	3151.82
280.36	3276.75
280.57	3590.09
280.79	3207.12
281.00	2977.75
281.22	3317.71
281.43	3682.25
281.65	2875.35
281.86	3041.23
282.08	3575.75
282.29	3876.80
282.51	3008.47
282.73	2963.41
282.94	3117.01
283.16	3542.99
283.37	3160.02
283.59	3090.38
283.80	3600.33
284.02	3436.49
284.23	3129.30
284.45	3106.77
284.66	3305.42
284.88	3381.20
285.09	2987.99
285.31	3166.16
285.52	3528.65
285.74	3172.30
285.95	3237.84
286.17	3076.05
286.38	3768.26
286.60	3289.04
286.81	3074.00
287.03	3067.86
287.24	3452.88
287.46	3618.76
287.67	3252.17
287.89	3293.13
288.10	3459.02
288.32	3450.83
288.53	3139.54
288.75	3194.83
288.96	3710.92
289.18	3364.81
289.39	2992.08
289.61	3190.74
289.82	3917.76
290.04	3848.13
290.25	3016.66
290.47	3168.21
290.68	3454.92
290.90	3579.85
291.11	2906.07
291.33	3237.84
291.54	3231.69
291.76	3305.42
291.97	3237.84
292.18	3200.98
292.40	3323.85
292.61	3344.33
292.83	3381.20
293.04	3166.16
293.26	3483.59
293.47	3428.30
293.69	2987.99
293.90	2977.75
294.12	3665.86
294.33	3481.55
294.55	3184.59
294.76	3284.94
294.97	3782.60
295.19	3870.66
295.40	3176.40
295.62	3207.12
295.83	3606.47
296.05	3239.89
296.26	3336.14
296.48	3055.57
296.69	3442.64
296.90	3383.24
297.12	3248.08
297.33	3260.37
297.55	3473.36
297.76	3594.19
297.98	3205.07
298.19	3311.57
298.41	3497.93
298.62	3254.22
298.83	3377.10
299.05	3231.69
299.26	3452.88
299.48	3330.00
299.69	3168.21
299.90	3084.24
300.12	3307.47
300.33	3622.86
300.55	3133.39
300.76	3082.19
300.98	3213.26
301.19	3631.05
301.40	3180.50
301.62	3061.71
301.83	3579.85
302.05	3536.84
302.26	3067.86
302.47	3239.89
302.69	3170.26
302.90	3467.21
303.12	2924.50
303.33	3233.74
303.54	3876.80
303.76	3330.00
303.97	2985.94
304.19	3352.52
304.40	3237.84
304.61	3542.99
304.83	3250.13
305.04	3166.16
305.26	3696.58
305.47	3338.19
305.68	3147.73
305.90	3045.33
306.11	3737.54
306.33	3338.19
306.54	2961.36
306.75	3030.99
306.97	3074.00
307.18	3221.45
307.39	3094.48
307.61	3196.88
307.82	3477.45
308.04	3538.89
308.25	2922.45
308.46	3262.41
308.68	3383.24
308.89	3450.83
309.10	3237.84
309.32	3055.57
309.53	3420.11
309.74	3561.42
309.96	3035.09
310.17	3209.17
310.39	3264.46
310.60	3510.22
310.81	3147.73
311.03	3002.32
311.24	3585.99
311.45	3483.59
311.67	3366.86
311.88	3188.69
312.09	3368.91
312.31	3317.71
312.52	3012.56
312.73	3082.19
312.95	3162.06
313.16	3233.74
313.37	3229.65
313.59	3241.93
313.80	3606.47
314.01	3831.75
314.23	3069.91
314.44	3026.90
314.65	3164.11
314.87	3346.38
315.08	3110.86
315.29	3190.74
315.51	3151.82
315.72	3102.67
315.93	3213.26
316.15	3123.15
316.36	3313.61
316.57	3493.83
316.79	3055.57
317.00	2963.41
317.21	3534.79
317.43	3334.09
317.64	3127.25
317.85	2932.69
318.07	3282.89
318.28	3385.29
318.49	3188.69
318.70	3354.57
318.92	3454.92
319.13	3524.55
319.34	3262.41
319.56	3028.95
319.77	3569.61
319.98	3602.38
320.20	3405.77
320.41	3319.76
320.62	3514.31
320.83	3143.63
321.05	3291.09
321.26	3155.92
321.47	3413.96
321.69	3733.45
321.90	3016.66
322.11	3043.28
322.32	3536.84
322.54	3831.75
322.75	3102.67
322.96	4196.29
323.18	3143.63
323.39	3076.05
323.60	2994.13
323.81	3215.31
324.03	3344.33
324.24	3356.62
324.45	3256.27
324.66	3061.71
324.88	3655.62
325.09	3786.69
325.30	3088.34
325.52	2992.08
325.73	3549.13
325.94	3252.17
326.15	3004.37
326.37	3004.37
326.58	3637.19
326.79	3811.27
327.00	3002.32
327.22	3028.95
327.43	3321.81
327.64	3291.09
327.85	3286.99
328.07	3119.06
328.28	3868.61
328.49	3340.24
328.70	3147.73
328.92	3086.29
329.13	3422.16
329.34	3512.27
329.55	3323.85
329.76	3301.33
329.98	3336.14
330.19	3708.87
330.40	3192.78
330.61	3235.79
330.83	3598.28
331.04	3254.22
331.25	3157.97
331.46	3123.15
331.68	3235.79
331.89	3657.67
332.10	3114.96
332.31	2967.51
332.52	3430.35
332.74	3674.06
332.95	2908.12
333.16	3080.14
333.37	3651.53
333.58	3338.19
333.80	3131.34
334.01	2887.64
334.22	3409.87
334.43	3280.85
334.64	3008.47
334.86	3074.00
335.07	3323.85
335.28	3768.26
335.49	3076.05
335.70	3082.19
335.92	3739.59
336.13	4007.87
336.34	3110.86
336.55	3098.58
336.76	3514.31
336.98	3000.27
337.19	3098.58
337.40	3143.63
337.61	3975.11
337.82	3383.24
338.04	3121.10
338.25	2932.69
338.46	3348.43
338.67	3413.96
338.88	2983.89
339.09	2977.75
339.31	3403.72
339.52	3155.92
339.73	3086.29
339.94	3090.38
340.15	3665.86
340.36	3289.04
340.58	3168.21
340.79	2981.84
341.00	3522.51
341.21	3272.65
341.42	3356.62
341.63	3160.02
341.85	3669.96
342.06	3479.50
342.27	3057.62
342.48	3286.99
342.69	3168.21
342.90	3575.75
343.12	3545.03
343.33	3076.05
343.54	3643.34
343.75	3747.78
343.96	3194.83
344.17	3028.95
344.38	3467.21
344.60	3241.93
344.81	3059.67
345.02	3071.95
345.23	3698.63
345.44	4034.50
345.65	3114.96
345.86	3188.69
346.07	3565.51
346.29	3348.43
346.50	3252.17
346.71	3239.89
346.92	3749.83
347.13	3928.00
347.34	3219.41
347.55	2963.41
347.76	3526.60
347.98	3084.24
348.19	3104.72
348.40	3246.03
348.61	3373.00
348.82	3753.93
349.03	3090.38
349.24	3022.80
349.45	3823.56
349.66	3004.37
349.88	3061.71
350.09	2951.12
350.30	3753.93
350.51	3663.82
350.72	3330.00
350.93	3114.96
351.14	3332.05
351.35	3542.99
351.56	3174.35
351.77	3231.69
351.99	3487.69
352.20	3770.31
352.41	3182.54
352.62	3014.61
352.83	3459.02
353.04	3428.30
353.25	3033.04
353.46	3125.20
353.67	3647.43
353.88	3024.85
354.09	3024.85
354.30	3157.97
354.52	3612.62
354.73	3373.00
354.94	3094.48
355.15	3172.30
355.36	3925.96
355.57	3282.89
355.78	2961.36
355.99	3082.19
356.20	3401.68
356.41	3665.86
356.62	3186.64
356.83	3098.58
357.04	3745.73
357.25	3168.21
357.46	3065.81
357.68	2996.18
357.89	3274.70
358.10	3379.15
358.31	3069.91
358.52	3102.67
358.73	3196.88
358.94	3260.37
359.15	3110.86
359.36	3125.20
359.57	3424.20
359.78	3346.38
359.99	3309.52
360.20	3002.32
360.41	3401.68
360.62	3592.14
360.83	3211.22
361.04	3106.77
361.25	3585.99
361.46	3770.31
361.67	3237.84
361.88	3047.38
362.09	3684.30
362.30	3540.94
362.51	3108.82
362.72	3215.31
362.93	3581.90
363.14	3569.61
363.35	3151.82
363.56	3055.57
363.78	3723.21
363.99	3745.73
364.20	3131.34
364.41	3143.63
364.62	3805.13
364.83	3579.85
365.04	3069.91
365.25	3102.67
365.46	3952.58
365.67	3243.98
365.88	3307.47
366.09	3028.95
366.30	3422.16
366.51	3502.03
366.72	2963.41
366.93	3067.86
367.14	3407.82
367.35	3790.79
367.56	3069.91
367.77	3243.98
367.98	3450.83
368.18	3491.79
368.39	3262.41
368.60	3049.43
368.81	3581.90
369.02	3532.75
369.23	3129.30
369.44	2942.93
369.65	3422.16
369.86	3569.61
370.07	3176.40
370.28	2955.22
370.49	3530.70
370.70	3477.45
370.91	2990.03
371.12	2918.36
371.33	3678.15
371.54	3321.81
371.75	3188.69
371.96	2822.10
372.17	3405.77
372.38	3375.05
372.59	3125.20
372.80	2983.89
373.01	3430.35
373.22	3502.03
373.43	3119.06
373.64	2998.23
373.85	3762.12
374.06	3801.03
374.26	3272.65
374.47	3239.89
374.68	3731.40
374.89	3454.92
375.10	3082.19
375.31	3207.12
375.52	3545.03
375.73	3436.49
375.94	2967.51
376.15	3241.93
376.36	3246.03
376.57	3293.13
376.78	3100.62
376.99	3203.02
377.20	3733.45
377.40	3352.52
377.61	3479.50
377.82	3106.77
378.03	3692.49
378.24	3551.18
378.45	3192.78
378.66	3209.17
378.87	3119.06
379.08	3164.11
379.29	3086.29
379.50	3248.08
379.71	3428.30
379.91	3598.28
380.12	3074.00
380.33	3264.46
380.54	3393.48
380.75	3389.39
380.96	3078.10
381.17	3135.44
381.38	3405.77
381.59	3538.89
381.80	3151.82
382.00	3330.00
382.21	3471.31
382.42	3889.09
382.63	3536.84
382.84	3225.55
383.05	3547.08
383.26	3854.28
383.47	3268.56
383.68	3057.62
383.88	3532.75
384.09	3545.03
384.30	3352.52
384.51	3221.45
384.72	3395.53
384.93	3071.95
385.14	3166.16
385.35	3467.21
385.55	3080.14
385.76	3688.39
385.97	3108.82
386.18	3045.33
386.39	3319.76
386.60	3291.09
386.81	2992.08
387.02	3018.71
387.22	3117.01
387.43	3559.37
387.64	3225.55
387.85	3387.34
388.06	3428.30
388.27	4372.41
388.48	7235.47
388.68	10811.23
388.89	13678.38
389.10	14610.21
389.31	14321.45
389.52	11704.14
389.73	10135.40
389.93	9510.77
390.14	8423.30
390.35	7980.93
390.56	7544.72
390.77	6324.13
390.98	4865.97
391.18	4104.13
391.39	3985.35
391.60	3405.77
391.81	3344.33
392.02	3133.39
392.23	3991.49
392.43	3538.89
392.64	3205.07
392.85	3237.84
393.06	3827.65
393.27	3448.78
393.47	3135.44
393.68	3286.99
393.89	3342.28
394.10	3676.10
394.31	3157.97
394.52	3094.48
394.72	3223.50
394.93	3801.03
395.14	3041.23
395.35	3203.02
395.56	3286.99
395.76	3389.39
395.97	3082.19
396.18	3303.37
396.39	3377.10
396.60	4100.03
396.80	3510.22
397.01	3327.95
397.22	3604.42
397.43	3612.62
397.64	3106.77
397.84	3241.93
398.05	3885.00
398.26	3360.72
398.47	3282.89
398.67	3366.86
398.88	3479.50
399.09	3592.14
399.30	3141.58
399.51	3098.58
399.71	3295.18
399.92	3528.65
400.13	3215.31
400.34	3137.49
400.54	3436.49
400.75	3829.70
400.96	3194.83
401.17	3418.06
401.37	3520.46
401.58	3452.88
401.79	3182.54
402.00	3284.94
402.21	3964.87
402.41	3502.03
402.62	3368.91
402.83	3569.61
403.04	3755.97
403.24	4214.72
403.45	3282.89
403.66	3416.01
403.87	3573.71
404.07	3696.58
404.28	3391.44
404.49	3418.06
404.70	3477.45
404.90	3626.95
405.11	3092.43
405.32	3274.70
405.52	3323.85
405.73	3401.68
405.94	3065.81
406.15	3213.26
406.35	3712.97
406.56	3631.05
406.77	3180.50
406.98	3098.58
407.18	3266.51
407.39	3758.02
407.60	3147.73
407.80	3307.47
408.01	3334.09
408.22	3555.27
408.43	3051.47
408.63	3196.88
408.84	3620.81
409.05	3659.72
409.25	3063.76
409.46	3188.69
409.67	3377.10
409.88	3344.33
410.08	3086.29
410.29	3147.73
410.50	3723.21
410.70	3545.03
410.91	3090.38
411.12	3205.07
411.32	3393.48
411.53	3297.23
411.74	3192.78
411.95	3223.50
412.15	3538.89
412.36	3540.94
412.57	3278.80
412.77	3344.33
412.98	3364.81
413.19	3387.34
413.39	3243.98
413.60	3192.78
413.81	3741.64
414.01	3147.73
414.22	3209.17
414.43	3430.35
414.63	3358.67
414.84	3540.94
415.05	3149.78
415.25	2901.97
415.46	3514.31
415.67	3313.61
415.87	3168.21
416.08	3166.16
416.29	3311.57
416.49	3575.75
416.70	3237.84
416.91	3139.54
417.11	3340.24
417.32	3661.77
417.53	3262.41
417.73	3280.85
417.94	3493.83
418.15	3491.79
418.35	3131.34
418.56	3164.11
418.77	4003.78
418.97	3418.06
419.18	3327.95
419.38	2865.11
419.59	3426.25
419.80	3805.13
420.00	3114.96
420.21	3205.07
420.42	3700.68
420.62	3524.55
420.83	3194.83
421.04	3143.63
421.24	3405.77
421.45	3581.90
421.65	3139.54
421.86	3147.73
422.07	3717.06
422.27	3637.19
422.48	3125.20
422.69	2959.31
422.89	3389.39
423.10	3383.24
423.30	3102.67
423.51	3192.78
423.72	3520.46
423.92	3653.58
424.13	3059.67
424.33	3278.80
424.54	3581.90
424.75	3479.50
424.95	3356.62
425.16	3119.06
425.36	3456.97
425.57	3661.77
425.78	3364.81
425.98	3213.26
426.19	3413.96
426.39	3207.12
426.60	3303.37
426.81	3237.84
427.01	3557.32
427.22	3264.46
427.42	2947.03
427.63	3094.48
427.83	3661.77
428.04	3794.89
428.25	3239.89
428.45	3268.56
428.66	3715.02
428.86	3397.58
429.07	3180.50
429.28	3235.79
429.48	3430.35
429.69	3282.89
429.89	3209.17
430.10	3028.95
430.30	3610.57
430.51	3667.91
430.71	3047.38
430.92	3215.31
431.13	3297.23
431.33	3608.52
431.54	3235.79
431.74	3377.10
431.95	3968.96
432.15	3315.66
432.36	3178.45
432.56	3196.88
432.77	3878.85
432.98	3817.41
433.18	3239.89
433.39	3022.80
433.59	3393.48
433.80	3930.05
434.00	3278.80
434.21	3151.82
434.41	3313.61
434.62	3893.19
434.82	3074.00
435.03	3069.91
435.23	3487.69
435.44	3063.76
435.64	3065.81
435.85	3139.54
436.06	3606.47
436.26	3710.92
436.47	3149.78
436.67	3033.04
436.88	3497.93
437.08	3686.34
437.29	3327.95
437.49	3393.48
437.70	3790.79
437.90	3344.33
438.11	3297.23
438.31	3299.28
438.52	3700.68
438.72	3706.82
438.93	3467.21
439.13	3200.98
439.34	3622.86
439.54	3332.05
439.75	3278.80
439.95	3168.21
440.16	3276.75
440.36	3434.44
440.57	3139.54
440.77	3141.58
440.98	3473.36
441.18	3629.00
441.39	3084.24
441.59	3127.25
441.80	3813.32
442.00	3471.31
442.21	3239.89
442.41	3078.10
442.62	3592.14
442.82	3366.86
443.02	3094.48
443.23	3155.92
443.43	3397.58
443.64	3698.63
443.84	2936.79
444.05	3215.31
444.25	3399.63
444.46	3487.69
444.66	3121.10
444.87	3379.15
445.07	3094.48
445.28	3358.67
445.48	3368.91
445.69	3125.20
445.89	4036.55
446.09	3411.92
446.30	3393.48
446.50	3536.84
446.71	5003.19
446.91	6043.56
447.12	6786.97
447.32	7210.90
447.53	7391.12
447.73	6131.62
447.93	5318.57
448.14	5224.37
448.34	5400.49
448.55	4470.72
448.75	4370.37
448.96	4140.99
449.16	4081.60
449.36	4108.23
449.57	3467.21
449.77	3162.06
449.98	3393.48
450.18	3561.42
450.39	3174.35
450.59	3373.00
450.79	3442.64
451.00	3192.78
451.20	3366.86
451.41	3231.69
451.61	3540.94
451.81	3489.74
452.02	3114.96
452.22	3180.50
452.43	3250.13
452.63	3254.22
452.84	3323.85
453.04	3104.72
453.24	3444.68
453.45	3291.09
453.65	3149.78
453.86	3145.68
454.06	3540.94
454.26	3456.97
454.47	3098.58
454.67	3356.62
454.87	3514.31
455.08	3395.53
455.28	3356.62
455.49	3385.29
455.69	3268.56
455.89	3868.61
456.10	3225.55
456.30	3078.10
456.51	3626.95
456.71	3573.71
456.91	3313.61
457.12	3133.39
457.32	3493.83
457.52	3176.40
457.73	3354.57
457.93	3348.43
458.14	3330.00
458.34	3110.86
458.54	3131.34
458.75	3049.43
458.95	3598.28
459.15	3540.94
459.36	3209.17
459.56	3221.45
459.76	3903.43
459.97	3506.12
460.17	3196.88
460.37	3192.78
460.58	3438.54
460.78	3614.66
460.99	3321.81
461.19	3164.11
461.39	3332.05
461.60	3344.33
461.80	3211.22
462.00	3074.00
462.21	3358.67
462.41	3270.61
462.61	3016.66
462.82	2965.46
463.02	3614.66
463.22	3461.07
463.43	3147.73
463.63	3059.67
463.83	3684.30
464.04	3540.94
464.24	3125.20
464.44	3155.92
464.64	3493.83
464.85	3536.84
465.05	3192.78
465.25	3051.47
465.46	3430.35
465.66	3569.61
465.86	3309.52
466.07	3141.58
466.27	3381.20
466.47	3106.77
466.68	3020.75
466.88	3389.39
467.08	3649.48
467.29	3731.40
467.49	3135.44
467.69	3327.95
467.89	3532.75
468.10	3370.96
468.30	3327.95
468.50	3303.37
468.71	3532.75
468.91	3112.91
469.11	3344.33
469.31	3272.65
469.52	3256.27
469.72	3854.28
469.92	3413.96
470.13	3180.50
470.33	3409.87
470.53	3532.75
470.73	3583.95
470.94	3813.32
471.14	4079.55
471.34	4489.15
471.54	4003.78
471.75	3862.47
471.95	3686.34
472.15	3721.16
472.36	3631.05
472.56	3506.12
472.76	3844.04
472.96	3786.69
473.17	3383.24
473.37	3280.85
473.57	3348.43
473.77	3592.14
473.98	3327.95
474.18	3157.97
474.38	4118.47
474.58	3327.95
474.79	2967.51
474.99	3198.93
475.19	3796.93
475.39	3225.55
475.60	3229.65
475.80	3117.01
476.00	3534.79
476.20	3436.49
476.41	3221.45
476.61	3237.84
476.81	3833.80
477.01	3166.16
477.21	3477.45
477.42	3299.28
477.62	3315.66
477.82	3577.80
478.02	3096.53
478.23	3182.54
478.43	3248.08
478.63	3360.72
478.83	3147.73
479.03	3311.57
479.24	3796.93
479.44	3856.33
479.64	3135.44
479.84	2963.41
480.04	3330.00
480.25	3684.30
480.45	3088.34
480.65	3074.00
480.85	3745.73
481.06	3401.68
481.26	3225.55
481.46	3207.12
481.66	3522.51
481.86	3192.78
482.06	3340.24
482.27	3252.17
482.47	3354.57
482.67	3598.28
482.87	3276.75
483.07	3098.58
483.28	3303.37
483.48	3104.72
483.68	3180.50
483.88	3078.10
484.08	3033.04
484.29	3110.86
484.49	3301.33
484.69	2910.16
484.89	3764.17
485.09	3733.45
485.29	3219.41
485.50	3268.56
485.70	3354.57
485.90	3733.45
486.10	3325.90
486.30	3147.73
486.50	3704.78
486.71	3522.51
486.91	3262.41
487.11	3231.69
487.31	3149.78
487.51	3665.86
487.71	3180.50
487.91	3035.09
488.12	3311.57
488.32	2875.35
488.52	3188.69
488.72	2895.83
488.92	3416.01
489.12	3737.54
489.32	3364.81
489.53	3129.30
489.73	3074.00
489.93	3798.98
490.13	3205.07
490.33	3024.85
490.53	3504.07
490.73	3696.58
490.94	3000.27
491.14	3223.50
491.34	3643.34
491.54	3581.90
491.74	4014.02
491.94	4466.62
492.14	5054.39
492.34	5066.67
492.54	4753.34
492.75	4122.56
492.95	4464.57
493.15	4128.70
493.35	3870.66
493.55	3672.01
493.75	3745.73
493.95	3952.58
494.15	3387.34
494.35	3256.27
494.56	3381.20
494.76	3352.52
494.96	3344.33
495.16	3008.47
495.36	3436.49
495.56	3442.64
495.76	3237.84
495.96	3172.30
496.16	3278.80
496.36	3796.93
496.56	3123.15
496.77	3276.75
496.97	3467.21
497.17	3729.35
497.37	2928.60
497.57	3286.99
497.77	3549.13
497.97	3239.89
498.17	3284.94
498.37	3188.69
498.57	3665.86
498.77	3364.81
498.97	3307.47
499.17	3592.14
499.38	3327.95
499.58	3542.99
499.78	3278.80
499.98	3295.18
500.18	3463.12
500.38	3200.98
500.58	3364.81
500.78	3798.98
500.98	6166.43
501.18	7686.03
501.38	9129.84
501.58	9916.26
501.78	10045.29
501.98	8175.49
502.18	7014.29
502.38	6236.06
502.58	6291.36
502.78	5457.84
502.98	5267.38
503.18	5025.72
503.38	4808.63
503.59	4132.80
503.79	3938.24
503.99	3684.30
504.19	3987.40
504.39	3940.29
504.59	3657.67
504.79	3534.79
504.99	4009.92
505.19	3629.00
505.39	3397.58
505.59	3614.66
505.79	3788.74
505.99	3622.86
506.19	3168.21
506.39	3422.16
506.59	3291.09
506.79	3381.20
506.99	3424.20
507.19	3084.24
507.39	3483.59
507.59	3166.16
507.79	3166.16
507.99	3190.74
508.19	3493.83
508.39	3397.58
508.59	3211.22
508.79	3264.46
508.99	3860.42
509.19	3293.13
509.39	3235.79
509.59	3082.19
509.79	3356.62
509.99	3549.13
510.19	3385.29
510.39	3225.55
510.59	3485.64
510.79	3270.61
510.99	3024.85
511.19	3123.15
511.39	3846.09
511.59	3741.64
511.79	3303.37
511.99	3151.82
512.19	3868.61
512.38	3448.78
512.58	3123.15
512.78	3053.52
512.98	3651.53
513.18	3729.35
513.38	3065.81
513.58	3250.13
513.78	3428.30
513.98	3342.28
514.18	3174.35
514.38	3180.50
514.58	3522.51
514.78	3291.09
514.98	3090.38
515.18	3121.10
515.38	3190.74
515.58	3829.70
515.78	3192.78
515.98	3239.89
516.18	3590.09
516.38	3430.35
516.57	3131.34
516.77	3090.38
516.97	3534.79
517.17	3350.48
517.37	2967.51
517.57	3229.65
517.77	3456.97
517.97	3301.33
518.17	3229.65
518.37	3084.24
518.57	3309.52
518.77	3395.53
518.97	3186.64
519.16	3184.59
519.36	3688.39
519.56	3286.99
519.76	3090.38
519.96	3209.17
520.16	3735.50
520.36	3258.32
520.56	3336.14
520.76	3147.73
520.96	3375.05
521.16	3635.14
521.35	3366.86
521.55	3223.50
521.75	3368.91
521.95	3370.96
522.15	3131.34
522.35	3041.23
522.55	3336.14
522.75	3602.38
522.95	3063.76
523.14	3018.71
523.34	3532.75
523.54	3321.81
523.74	3272.65
523.94	3174.35
524.14	3155.92
524.34	3549.13
524.54	3348.43
524.73	3145.68
524.93	3483.59
525.13	3395.53
525.33	3114.96
525.53	3463.12
525.73	3608.52
525.93	3424.20
526.13	3286.99
526.32	3069.91
526.52	3682.25
526.72	3606.47
526.92	3227.60
527.12	3028.95
527.32	3243.98
527.52	3483.59
527.71	3209.17
527.91	3176.40
528.11	3454.92
528.31	3338.19
528.51	3180.50
528.71	3344.33
528.90	3639.24
529.10	3680.20
529.30	3221.45
529.50	2947.03
529.70	3547.08
529.90	3362.76
530.09	3180.50
530.29	3043.28
530.49	3330.00
530.69	4048.83
530.89	3336.14
531.09	3311.57
531.28	3278.80
531.48	3647.43
531.68	3157.97
531.88	3211.22
532.08	3604.42
532.28	3389.39
532.47	3227.60
532.67	3213.26
532.87	3534.79
533.07	3215.31
533.27	3182.54
533.46	3295.18
533.66	3524.55
533.86	3428.30
534.06	3207.12
534.26	3133.39
534.45	3330.00
534.65	3626.95
534.85	3276.75
535.05	3096.53
535.25	3590.09
535.44	3082.19
535.64	3250.13
535.84	3246.03
536.04	3321.81
536.24	3358.67
536.43	3065.81
536.63	3121.10
536.83	3450.83
537.03	3438.54
537.22	2992.08
537.42	2967.51
537.62	3542.99
537.82	3311.57
538.02	3391.44
538.21	3221.45
538.41	4069.31
538.61	3651.53
538.81	3243.98
539.00	3291.09
539.20	3098.58
539.40	3368.91
539.60	3149.78
539.79	3422.16
539.99	3438.54
540.19	3188.69
540.39	3131.34
540.58	3246.03
540.78	3708.87
540.98	3516.36
541.18	3411.92
541.37	3223.50
541.57	3479.50
541.77	3469.26
541.97	3147.73
542.16	3076.05
542.36	3401.68
542.56	3282.89
542.76	3264.46
542.95	3250.13
543.15	3522.51
543.35	3606.47
543.54	3155.92
543.74	3057.62
543.94	3678.15
544.14	3313.61
544.33	3360.72
544.53	3221.45
544.73	3330.00
544.93	3364.81
545.12	3200.98
545.32	3147.73
545.52	3442.64
545.71	3233.74
545.91	3172.30
546.11	3049.43
546.30	3295.18
546.50	3426.25
546.70	3274.70
546.90	3235.79
547.09	3084.24
547.29	3434.44
547.49	3346.38
547.68	3100.62
547.88	3284.94
548.08	3643.34
548.27	3405.77
548.47	3139.54
548.67	3377.10
548.87	3524.55
549.06	3221.45
549.26	3004.37
549.46	3590.09
549.65	3387.34
549.85	3209.17
550.05	3145.68
550.24	3186.64
550.44	3407.82
550.64	3205.07
550.83	3188.69
551.03	3731.40
551.23	3573.71
551.42	3166.16
551.62	3291.09
551.82	3483.59
552.01	3272.65
552.21	3516.36
552.41	3213.26
552.60	3725.26
552.80	3467.21
553.00	3200.98
553.19	3080.14
553.39	3868.61
553.59	3192.78
553.78	3373.00
553.98	3147.73
554.17	3188.69
554.37	3532.75
554.57	3176.40
554.76	3028.95
554.96	3360.72
555.16	3434.44
555.35	3274.70
555.55	3352.52
555.75	3579.85
555.94	3606.47
556.14	2955.22
556.33	3354.57
556.53	3377.10
556.73	3436.49
556.92	3291.09
557.12	3114.96
557.32	3887.04
557.51	3764.17
557.71	3256.27
557.90	3368.91
558.10	3723.21
558.30	3360.72
558.49	3246.03
558.69	3139.54
558.88	3565.51
559.08	3491.79
559.28	3250.13
559.47	3157.97
559.67	3551.18
559.86	3844.04
560.06	3188.69
560.26	3237.84
560.45	3526.60
560.65	3413.96
560.84	3542.99
561.04	3110.86
561.24	3563.47
561.43	3147.73
561.63	3514.31
561.82	3262.41
562.02	3542.99
562.22	3229.65
562.41	3114.96
562.61	3106.77
562.80	3203.02
563.00	3950.53
563.19	3151.82
563.39	3248.08
563.59	3559.37
563.78	3198.93
563.98	2961.36
564.17	3131.34
564.37	3041.23
564.56	3325.90
564.76	3037.14
564.96	3233.74
565.15	3454.92
565.35	3895.24
565.54	3252.17
565.74	3231.69
565.93	3528.65
566.13	3436.49
566.32	3194.83
566.52	3233.74
566.71	3502.03
566.91	3588.04
567.11	3286.99
567.30	3112.91
567.50	3489.74
567.69	3502.03
567.89	3094.48
568.08	3006.42
568.28	3469.26
568.47	3164.11
568.67	3250.13
568.86	3123.15
569.06	3674.06
569.25	3321.81
569.45	3024.85
569.64	3200.98
569.84	3340.24
570.04	3463.12
570.23	3215.31
570.43	3256.27
570.62	3506.12
570.82	3798.98
571.01	3010.51
571.21	3131.34
571.40	3256.27
571.60	3557.32
571.79	3248.08
571.99	3143.63
572.18	3172.30
572.38	3493.83
572.57	3250.13
572.77	3262.41
572.96	3983.30
573.16	3524.55
573.35	3137.49
573.55	3295.18
573.74	3663.82
573.94	3473.36
574.13	3190.74
574.33	3346.38
574.52	3745.73
574.71	3444.68
574.91	3231.69
575.10	3082.19
575.30	3309.52
575.49	3243.98
575.69	3108.82
575.88	3092.43
576.08	3356.62
576.27	3663.82
576.47	3153.87
576.66	3237.84
576.86	3758.02
577.05	3483.59
577.25	3211.22
577.44	3336.14
577.64	3334.09
577.83	3600.33
578.02	3098.58
578.22	3289.04
578.41	3962.82
578.61	3338.19
578.80	3049.43
579.00	3237.84
579.19	3426.25
579.39	3475.40
579.58	3221.45
579.77	3237.84
579.97	3772.36
580.16	3676.10
580.36	3307.47
580.55	3190.74
580.75	3534.79
580.94	3438.54
581.13	3364.81
581.33	3362.76
581.52	3356.62
581.72	3788.74
581.91	3295.18
582.11	3098.58
582.30	3622.86
582.49	3420.11
582.69	3450.83
582.88	3221.45
583.08	3512.27
583.27	3606.47
583.47	3346.38
583.66	3168.21
583.85	3188.69
584.05	3377.10
584.24	3352.52
584.44	3295.18
584.63	3594.19
584.82	3676.10
585.02	3424.20
585.21	3319.76
585.41	3538.89
585.60	3416.01
585.79	3366.86
585.99	3532.75
586.18	3444.68
586.37	4544.44
586.57	6653.85
586.76	18431.72
586.96	36967.88
587.15	49061.14
587.34	57154.71
587.54	60818.53
587.73	53478.61
587.93	38946.22
588.12	29959.73
588.31	24624.78
588.51	21827.25
588.70	20174.54
588.89	17659.63
589.09	15130.39
589.28	13272.89
589.47	10245.99
589.67	7882.63
589.86	6305.70
590.06	4876.21
590.25	4564.92
590.44	3891.14
590.64	3514.31
590.83	3758.02
591.02	3663.82
591.22	3248.08
591.41	3254.22
591.60	3418.06
591.80	3952.58
591.99	3020.75
592.18	3205.07
592.38	3690.44
592.57	3309.52
592.76	3147.73
592.96	3272.65
593.15	3299.28
593.34	3782.60
593.54	3123.15
593.73	3309.52
593.92	3516.36
594.12	3534.79
594.31	3295.18
594.50	3368.91
594.70	3573.71
594.89	4093.89
595.08	2998.23
595.28	3364.81
595.47	4130.75
595.66	3633.10
595.86	3123.15
596.05	3059.67
596.24	3418.06
596.43	3897.28
596.63	3299.28
596.82	3348.43
597.01	3520.46
597.21	3852.23
597.40	3172.30
597.59	3223.50
597.79	3434.44
597.98	3614.66
598.17	3229.65
598.36	3215.31
598.56	3592.14
598.75	3377.10
598.94	3188.69
599.14	3254.22
599.33	3346.38
599.52	3647.43
599.71	3246.03
599.91	3129.30
600.10	3653.58
600.29	3585.99
600.48	3305.42
600.68	3311.57
600.87	3508.17
601.06	3319.76
601.26	3403.72
601.45	3364.81
601.64	3377.10
601.83	3821.51
602.03	3094.48
602.22	3090.38
602.41	3710.92
602.60	4005.83
602.80	3243.98
602.99	3389.39
603.18	3323.85
603.37	3454.92
603.57	3061.71
603.76	3186.64
603.95	3665.86
604.14	3373.00
604.34	3135.44
604.53	3155.92
604.72	3422.16
604.91	3637.19
605.10	3108.82
605.30	3000.27
605.49	3962.82
605.68	3592.14
605.87	3139.54
606.07	3149.78
606.26	3442.64
606.45	3600.33
606.64	3250.13
606.84	3018.71
607.03	3395.53
607.22	3715.02
607.41	3297.23
607.60	3168.21
607.80	3676.10
607.99	3411.92
608.18	3280.85
608.37	3160.02
608.56	3352.52
608.76	3606.47
608.95	3321.81
609.14	3155.92
609.33	3712.97
609.52	3762.12
609.72	3264.46
609.91	3272.65
610.10	3487.69
610.29	3747.78
610.48	3368.91
610.68	3313.61
610.87	3448.78
611.06	3672.01
611.25	3182.54
611.44	3327.95
611.63	3459.02
611.83	3692.49
612.02	3139.54
612.21	3295.18
612.40	3000.27
612.59	3221.45
612.79	3123.15
612.98	3237.84
613.17	3903.43
613.36	3440.59
613.55	3262.41
613.74	3084.24
613.93	3426.25
614.13	3502.03
614.32	3383.24
614.51	3215.31
614.70	3317.71
614.89	3291.09
615.08	3295.18
615.28	3469.26
615.47	3151.82
615.66	3516.36
615.85	3241.93
616.04	3239.89
616.23	3487.69
616.42	3542.99
616.62	3207.12
616.81	3225.55
617.00	3504.07
617.19	3545.03
617.38	3172.30
617.57	3254.22
617.76	3583.95
617.95	3667.91
618.15	3350.48
618.34	3526.60
618.53	3262.41
618.72	3741.64
618.91	3332.05
619.10	3209.17
619.29	3368.91
619.48	3364.81
619.68	3106.77
619.87	3114.96
620.06	3131.34
620.25	3477.45
620.44	3176.40
620.63	3166.16
620.82	3393.48
621.01	3530.70
621.20	3178.45
621.39	3250.13
621.59	3473.36
621.78	3499.98
621.97	3221.45
622.16	3307.47
622.35	3557.32
622.54	3559.37
622.73	3209.17
622.92	2947.03
623.11	3710.92
623.30	3340.24
623.49	3299.28
623.68	3057.62
623.88	3770.31
624.07	3186.64
624.26	3078.10
624.45	3209.17
624.64	3344.33
624.83	3542.99
625.02	3114.96
625.21	3147.73
625.40	3454.92
625.59	3696.58
625.78	3297.23
625.97	3262.41
626.16	3723.21
626.35	3665.86
626.54	3231.69
626.74	3461.07
626.93	3391.44
627.12	3319.76
627.31	3241.93
627.50	3200.98
627.69	3569.61
627.88	3229.65
628.07	3094.48
628.26	3076.05
628.45	3360.72
628.64	3219.41
628.83	3166.16
629.02	3098.58
629.21	3569.61
629.40	3452.88
629.59	3000.27
629.78	3194.83
629.97	3489.74
630.16	3491.79
630.35	3205.07
630.54	3266.51
630.73	3323.85
630.92	3366.86
631.11	3182.54
631.30	3200.98
631.49	3721.16
631.68	3393.48
631.87	3229.65
632.06	3135.44
632.25	3893.19
632.44	3461.07
632.63	3239.89
632.82	3200.98
633.01	3297.23
633.20	3493.83
633.39	3092.43
633.58	2953.17
633.77	3573.71
633.96	3571.66
634.15	3360.72
634.34	3256.27
634.53	3602.38
634.72	3313.61
634.91	3051.47
635.10	3127.25
635.29	3612.62
635.48	3491.79
635.67	3020.75
635.86	3119.06
636.05	3753.93
636.24	3506.12
636.43	3065.81
636.62	3297.23
636.81	2985.94
637.00	3395.53
637.19	3133.39
637.38	3129.30
637.57	3338.19
637.76	3405.77
637.95	3459.02
638.14	3311.57
638.33	3499.98
638.52	3366.86
638.71	3114.96
638.89	3074.00
639.08	4024.26
639.27	3585.99
639.46	3401.68
639.65	3604.42
639.84	3854.28
640.03	3993.54
640.22	3581.90
640.41	3538.89
640.60	3428.30
640.79	3608.52
640.98	3450.83
641.17	3379.15
641.36	3659.72
641.55	3569.61
641.74	3033.04
641.92	3090.38
642.11	3207.12
642.30	3360.72
642.49	3082.19
642.68	3164.11
642.87	3538.89
643.06	3542.99
643.25	2994.13
643.44	3016.66
643.63	3303.37
643.82	3637.19
644.00	3114.96
644.19	3200.98
644.38	3264.46
644.57	3653.58
644.76	3229.65
644.95	3278.80
645.14	3549.13
645.33	3454.92
645.52	3336.14
645.71	3006.42
645.89	3207.12
646.08	3454.92
646.27	3155.92
646.46	3385.29
646.65	3168.21
646.84	3520.46
647.03	3049.43
647.22	3354.57
647.40	3502.03
647.59	3375.05
647.78	2938.84
647.97	3172.30
648.16	3194.83
648.35	3741.64
648.54	3411.92
648.73	3332.05
648.91	3516.36
649.10	3463.12
649.29	3153.87
649.48	3147.73
649.67	3567.56
649.86	3512.27
650.05	3221.45
650.23	3282.89
650.42	3385.29
650.61	3698.63
650.80	3422.16
650.99	3444.68
651.18	3655.62
651.36	3618.76
651.55	3108.82
651.74	3360.72
651.93	3323.85
652.12	3381.20
652.31	3260.37
652.49	3194.83
652.68	3327.95
652.87	3755.97
653.06	3313.61
653.25	3395.53
653.44	3399.63
653.62	3817.41
653.81	3313.61
654.00	3186.64
654.19	3659.72
654.38	4028.35
654.56	3229.65
654.75	3112.91
654.94	3639.24
655.13	3467.21
655.32	3151.82
655.51	3252.17
655.69	3422.16
655.88	3606.47
656.07	3090.38
656.26	3229.65
656.45	3123.15
656.63	3442.64
656.82	3067.86
657.01	3516.36
657.20	3246.03
657.38	3870.66
657.57	3170.26
657.76	3024.85
657.95	3583.95
658.14	3272.65
658.32	3284.94
658.51	3082.19
658.70	3459.02
658.89	3555.27
659.08	3174.35
659.26	3405.77
659.45	3286.99
659.64	3520.46
659.83	3135.44
660.01	3602.38
660.20	3436.49
660.39	3753.93
660.58	2906.07
660.76	3239.89
660.95	3131.34
661.14	3512.27
661.33	3092.43
661.51	3200.98
661.70	3364.81
661.89	3565.51
662.08	3229.65
662.26	3020.75
662.45	3332.05
662.64	3821.51
662.83	3250.13
663.01	3112.91
663.20	3315.66
663.39	3760.07
663.58	3241.93
663.76	3182.54
663.95	3557.32
664.14	3233.74
664.32	3162.06
664.51	3057.62
664.70	3121.10
664.89	3518.41
665.07	3067.86
665.26	3311.57
665.45	3205.07
665.64	3450.83
665.82	3123.15
666.01	3332.05
666.20	3139.54
666.38	3686.34
666.57	3520.46
666.76	5728.17
666.95	12699.45
667.13	18683.62
667.32	22343.34
667.51	24905.35
667.69	25362.04
667.88	20522.69
668.07	15234.84
668.25	13084.47
668.44	11671.37
668.63	10311.52
668.81	8806.27
669.00	7833.48
669.19	7200.66
669.38	6367.13
669.56	5320.62
669.75	4753.34
669.94	4405.18
670.12	3747.78
670.31	3381.20
670.50	3471.31
670.68	3631.05
670.87	3477.45
671.06	3100.62
671.24	3266.51
671.43	3663.82
671.62	3327.95
671.80	3149.78
671.99	3327.95
672.18	3450.83
672.36	3594.19
672.55	3340.24
672.74	3227.60
672.92	3387.34
673.11	3663.82
673.29	3018.71
673.48	3381.20
673.67	3434.44
673.85	3715.02
674.04	3098.58
674.23	3297.23
674.41	3934.15
674.60	3200.98
674.79	3014.61
674.97	3084.24
675.16	3612.62
675.34	3655.62
675.53	3160.02
675.72	3262.41
675.90	3825.61
676.09	3432.40
676.28	3260.37
676.46	3078.10
676.65	3573.71
676.83	3258.32
677.02	3293.13
677.21	3323.85
677.39	3557.32
677.58	3274.70
677.77	3188.69
677.95	3139.54
678.14	3377.10
678.32	3395.53
678.51	3233.74
678.70	3571.66
678.88	3323.85
679.07	3491.79
679.25	3217.36
679.44	3209.17
679.63	3135.44
679.81	3399.63
680.00	3452.88
680.18	3219.41
680.37	3876.80
680.55	3477.45
680.74	3092.43
680.93	2953.17
681.11	3540.94
681.30	3454.92
681.48	3223.50
681.67	3252.17
681.85	3434.44
682.04	3241.93
682.23	3340.24
682.41	3352.52
682.60	3444.68
682.78	3370.96
682.97	3141.58
683.15	3227.60
683.34	3389.39
683.53	3733.45
683.71	3123.15
683.90	3209.17
684.08	3872.71
684.27	3368.91
684.45	3186.64
684.64	3344.33
684.82	3479.50
685.01	3549.13
685.19	3084.24
685.38	3454.92
685.57	3471.31
685.75	3241.93
685.94	3108.82
686.12	3123.15
686.31	3356.62
686.49	3796.93
686.68	2955.22
686.86	3241.93
687.05	3428.30
687.23	3680.20
687.42	3289.04
687.60	3006.42
687.79	3643.34
687.97	3772.36
688.16	3256.27
688.34	3332.05
688.53	3108.82
688.71	3561.42
688.90	3583.95
689.08	3172.30
689.27	3092.43
689.45	3549.13
689.64	3309.52
689.82	3246.03
690.01	3565.51
690.19	3524.55
690.38	3246.03
690.56	3327.95
690.75	3250.13
690.93	3309.52
691.12	3135.44
691.30	3157.97
691.49	3280.85
691.67	3411.92
691.86	3528.65
692.04	3157.97
692.23	3344.33
692.41	3395.53
692.60	3491.79
692.78	3475.40
692.97	3502.03
693.15	3661.77
693.34	3276.75
693.52	3459.02
693.71	3364.81
693.89	3336.14
694.08	2957.27
694.26	3217.36
694.44	3608.52
694.63	3639.24
694.81	3139.54
695.00	3274.70
695.18	3751.88
695.37	3987.40
695.55	3325.90
695.74	3293.13
695.92	3237.84
696.10	3710.92
696.29	3100.62
696.47	3166.16
696.66	3215.31
696.84	3190.74
697.03	3239.89
697.21	3540.94
697.40	4853.69
697.58	3659.72
697.76	3151.82
697.95	3291.09
698.13	3227.60
698.32	3319.76
698.50	3166.16
698.68	3262.41
698.87	3618.76
699.05	3729.35
699.24	3180.50
699.42	3123.15
699.61	3571.66
699.79	3424.20
699.97	3266.51
700.16	2985.94
700.34	3114.96
700.53	3575.75
700.71	3444.68
700.89	3356.62
701.08	3479.50
701.26	3428.30
701.45	3585.99
701.63	3168.21
701.81	3368.91
702.00	3254.22
702.18	3256.27
702.37	3209.17
702.55	3729.35
702.73	3467.21
702.92	3194.83
703.10	3483.59
703.28	3493.83
703.47	3139.54
703.65	3381.20
703.84	3213.26
704.02	3323.85
704.20	3721.16
704.39	3186.64
704.57	3229.65
704.75	3645.38
704.94	3510.22
705.12	3395.53
705.30	4061.12
705.49	8105.86
705.67	14358.31
705.86	19351.26
706.04	21305.02
706.22	23738.01
706.41	22236.84
706.59	16652.03
706.77	13528.88
706.96	11687.76
707.14	10882.91
707.32	9203.57
707.51	8165.25
707.69	6840.22
707.87	5963.68
708.06	4749.24
708.24	4224.96
708.42	4052.93
708.61	4224.96
708.79	3317.71
708.97	3327.95
709.16	3553.23
709.34	3463.12
709.52	3231.69
709.71	3221.45
709.89	3692.49
710.07	3217.36
710.26	3098.58
710.44	3166.16
710.62	3663.82
710.80	3481.55
710.99	3293.13
711.17	3280.85
711.35	3342.28
711.54	3325.90
711.72	3405.77
711.90	3250.13
712.09	3559.37
712.27	3311.57
712.45	3299.28
712.63	3172.30
712.82	3493.83
713.00	3395.53
713.18	3295.18
713.37	3348.43
713.55	3678.15
713.73	3557.32
713.91	3352.52
714.10	3225.55
714.28	3444.68
714.46	3506.12
714.65	3338.19
714.83	3239.89
715.01	3426.25
715.19	3459.02
715.38	3186.64
715.56	3334.09
715.74	3319.76
715.92	3256.27
716.11	3594.19
716.29	2985.94
716.47	3387.34
716.65	3391.44
716.84	3084.24
717.02	3250.13
717.20	3078.10
717.38	3307.47
717.57	3350.48
717.75	3252.17
717.93	3311.57
718.11	3547.08
718.30	2985.94
718.48	3248.08
718.66	3729.35
718.84	3653.58
719.03	3239.89
719.21	3082.19
719.39	3817.41
719.57	3551.18
719.75	3340.24
719.94	3184.59
720.12	3319.76
720.30	3510.22
720.48	3276.75
720.67	3225.55
720.85	3213.26
721.03	3434.44
721.21	3112.91
721.39	3360.72
721.58	3590.09
721.76	3512.27
721.94	3297.23
722.12	3323.85
722.30	3829.70
722.49	3323.85
722.67	3233.74
722.85	3262.41
723.03	3129.30
723.21	3338.19
723.40	3203.02
723.58	3303.37
723.76	3569.61
723.94	3567.56
724.12	3233.74
724.30	3463.12
724.49	3561.42
724.67	3262.41
724.85	3205.07
725.03	3106.77
725.21	3626.95
725.40	3706.82
725.58	3237.84
725.76	3436.49
725.94	3506.12
726.12	3213.26
726.30	3370.96
726.49	3209.17
726.67	3278.80
726.85	3545.03
727.03	3958.72
727.21	4888.50
727.39	6184.87
727.57	6436.77
727.76	6754.20
727.94	6571.93
728.12	5898.15
728.30	5148.59
728.48	4773.82
728.66	4517.82
728.84	4392.89
729.03	3981.25
729.21	3626.95
729.39	3594.19
729.57	3413.96
729.75	3465.16
729.93	3520.46
730.11	3076.05
730.30	3319.76
730.48	3422.16
730.66	3286.99
730.84	3286.99
731.02	3399.63
731.20	3311.57
731.38	3184.59
731.56	2977.75
731.74	3182.54
731.93	3497.93
732.11	3422.16
732.29	3174.35
732.47	3483.59
732.65	3499.98
732.83	3350.48
733.01	3403.72
733.19	3356.62
733.37	3637.19
733.56	3198.93
733.74	3114.96
733.92	3837.89
734.10	3348.43
734.28	3413.96
734.46	2940.88
734.64	3413.96
734.82	3315.66
735.00	3180.50
735.18	3151.82
735.36	3387.34
735.54	3377.10
735.73	3194.83
735.91	3342.28
736.09	3735.50
736.27	3436.49
736.45	3256.27
736.63	2975.70
736.81	3330.00
736.99	3719.11
737.17	3454.92
737.35	3182.54
737.53	3477.45
737.71	3352.52
737.89	3387.34
738.07	3082.19
738.25	3319.76
738.43	3133.39
738.61	3233.74
738.80	3119.06
738.98	3293.13
739.16	3315.66
739.34	3272.65
739.52	3518.41
739.70	3360.72
739.88	3563.47
740.06	3278.80
740.24	2979.79
740.42	3706.82
740.60	3088.34
740.78	3280.85
740.96	2967.51
741.14	3307.47
741.32	3362.76
741.50	3110.86
741.68	3436.49
741.86	3786.69
742.04	3229.65
742.22	3176.40
742.40	3239.89
742.58	3573.71
742.76	3321.81
742.94	3508.17
743.12	2975.70
743.30	3385.29
743.48	3534.79
743.66	3147.73
743.84	3225.55
744.02	3393.48
744.20	3428.30
744.38	3102.67
744.56	3223.50
744.74	3825.61
744.92	3557.32
745.10	3448.78
745.28	3284.94
745.46	3745.73
745.64	3420.11
745.82	3268.56
746.00	3180.50
746.18	3540.94
746.36	3200.98
746.54	3319.76
746.72	3276.75
746.90	3235.79
747.08	3651.53
747.26	3221.45
747.44	3270.61
747.62	3579.85
747.80	3502.03
747.98	3301.33
748.15	3241.93
748.33	3803.08
748.51	3442.64
748.69	3334.09
748.87	3117.01
749.05	3413.96
749.23	3399.63
749.41	3205.07
749.59	3102.67
749.77	3725.26
749.95	3336.14
750.13	3145.68
750.31	3473.36
750.49	3405.77
750.67	3624.90
750.85	3321.81
751.03	3239.89
751.20	4011.97
751.38	3483.59
751.56	3229.65
751.74	3184.59
751.92	3465.16
752.10	3286.99
752.28	3338.19
752.46	3256.27
752.64	3336.14
752.82	3356.62
753.00	3360.72
753.18	3114.96
753.35	3299.28
753.53	3452.88
753.71	3092.43
753.89	3272.65
754.07	3495.88
754.25	3665.86
754.43	3336.14
754.61	3131.34
754.79	3565.51
754.97	3385.29
755.14	3383.24
755.32	3170.26
755.50	3512.27
755.68	3491.79
755.86	3059.67
756.04	3102.67
756.22	3108.82
756.40	3524.55
756.57	3393.48
756.75	3078.10
756.93	3622.86
757.11	3645.38
757.29	3082.19
757.47	3133.39
757.65	3082.19
757.82	2928.60
758.00	3133.39
758.18	3213.26
758.36	3260.37
758.54	3839.94
758.72	3061.71
758.90	3311.57
759.07	3592.14
759.25	3270.61
759.43	3311.57
759.61	3074.00
759.79	4556.73
759.97	3651.53
760.15	3194.83
760.32	3207.12
760.50	3422.16
760.68	3764.17
760.86	3049.43
761.04	3493.83
761.22	3585.99
761.39	3424.20
761.57	3325.90
761.75	3237.84
761.93	3553.23
762.11	3422.16
762.28	3266.51
762.46	3182.54
762.64	3653.58
762.82	3119.06
763.00	3110.86
763.18	3432.40
763.35	3166.16
763.53	3639.24
763.71	3256.27
763.89	3182.54
764.07	3461.07
764.24	3499.98
764.42	3315.66
764.60	3200.98
764.78	3618.76
764.96	3583.95
765.13	3360.72
765.31	3082.19
765.49	3565.51
765.67	3254.22
765.84	3166.16
766.02	3139.54
766.20	3137.49
766.38	3590.09
766.56	3317.71
766.73	3297.23
766.91	3512.27
767.09	3534.79
767.27	3272.65
767.44	3145.68
767.62	3549.13
767.80	3360.72
767.98	3063.76
768.15	3157.97
768.33	3610.57
768.51	3694.54
768.69	3278.80
768.87	3207.12
769.04	3403.72
769.22	3985.35
769.40	3342.28
769.58	3348.43
769.75	3561.42
769.93	3702.73
770.11	3172.30
770.28	3074.00
770.46	3569.61
770.64	3559.37
770.82	3172.30
770.99	3117.01
771.17	3510.22
771.35	3381.20
771.53	3336.14
771.70	3192.78
771.88	3567.56
772.06	3424.20
772.23	3139.54
772.41	3246.03
772.59	3434.44
772.77	3207.12
772.94	3205.07
773.12	3262.41
773.30	3409.87
773.47	3524.55
773.65	3024.85
773.83	3336.14
774.01	3364.81
774.18	3004.37
774.36	3243.98
774.54	3106.77
774.71	3491.79
774.89	3114.96
775.07	3063.76
775.24	3246.03
775.42	3313.61
775.60	3813.32
775.78	3172.30
775.95	2992.08
776.13	3053.52
776.31	3098.58
776.48	3463.12
776.66	3436.49
776.84	3346.38
777.01	3270.61
777.19	3114.96
777.37	3203.02
777.54	3571.66
777.72	3880.90
777.90	3305.42
778.07	3131.34
778.25	4093.89
778.43	3667.91
778.60	3145.68
778.78	3323.85
778.96	3665.86
779.13	3237.84
779.31	3225.55
779.49	3205.07
779.66	3553.23
779.84	3434.44
780.01	3125.20
780.19	3196.88
780.37	3667.91
780.54	3598.28
780.72	3047.38
780.90	3205.07
781.07	3436.49
781.25	3252.17
781.43	3418.06
781.60	3192.78
781.78	3690.44
781.95	3518.41
782.13	3203.02
782.31	3151.82
782.48	3012.56
782.66	3370.96
782.83	3444.68
783.01	3270.61
783.19	3563.47
783.36	3340.24
783.54	3166.16
783.72	3225.55
783.89	3274.70
784.07	3434.44
784.24	3389.39
784.42	3303.37
784.60	3475.40
784.77	3481.55
784.95	3004.37
785.12	3221.45
785.30	3534.79
785.47	3286.99
785.65	3041.23
785.83	3221.45
786.00	3461.07
786.18	3409.87
786.35	3176.40
786.53	3094.48
786.71	3700.68
786.88	3569.61
787.06	3215.31
787.23	3213.26
787.41	3196.88
787.58	3401.68
787.76	3149.78
787.94	3164.11
788.11	3442.64
788.29	3160.02
788.46	3209.17
788.64	3041.23
788.81	3381.20
788.99	3346.38
789.16	3190.74
789.34	3297.23
789.52	3448.78
789.69	3373.00
789.87	2975.70
790.04	3149.78
790.22	3444.68
790.39	3860.42
790.57	3147.73
790.74	3106.77
790.92	3682.25
791.09	3096.53
791.27	3258.32
791.44	3241.93
791.62	3422.16
791.79	3631.05
791.97	3297.23
792.15	3577.80
792.32	3676.10
792.50	3483.59
792.67	3397.58
792.85	3502.03
793.02	3477.45
793.20	3303.37
793.37	3057.62
793.55	3139.54
793.72	3241.93
793.90	3549.13
794.07	3133.39
794.25	3100.62
794.42	3426.25
794.60	3383.24
794.77	3237.84
794.95	3358.67
795.12	3614.66
795.30	3354.57
795.47	2922.45
795.65	3516.36
795.82	3520.46
796.00	3317.71
796.17	3286.99
796.34	3071.95
796.52	3456.97
796.69	3602.38
796.87	3348.43
797.04	3295.18
797.22	3655.62
797.39	3483.59
797.57	3340.24
797.74	3286.99
797.92	3502.03
798.09	3356.62
798.27	3518.41
798.44	3225.55
798.62	3334.09
798.79	3504.07
798.96	3409.87
799.14	3276.75
799.31	3977.16
799.49	3350.48
799.66	3153.87
799.84	3217.36
800.01	3133.39
800.19	3565.51
800.36	3020.75
800.53	3262.41
800.71	3542.99
800.88	3753.93
801.06	3114.96
801.23	3108.82
801.41	3368.91
801.58	3327.95
801.75	3211.22
801.93	3250.13
802.10	3592.14
802.28	3399.63
802.45	3246.03
802.63	3264.46
802.80	3676.10
802.97	3373.00
803.15	3215.31
803.32	3131.34
803.50	3297.23
803.67	3327.95
803.84	3168.21
804.02	3213.26
804.19	3352.52
804.37	2879.44
804.54	3041.23
804.71	3250.13
804.89	3405.77
805.06	3256.27
805.24	3145.68
805.41	2987.99
805.58	3250.13
805.76	3854.28
805.93	3149.78
806.10	3362.76
806.28	3618.76
806.45	3520.46
806.63	3356.62
806.80	3319.76
806.97	3577.80
807.15	3452.88
807.32	3264.46
807.49	3180.50
807.67	3235.79
807.84	3594.19
808.01	3020.75
808.19	3325.90
808.36	3870.66
808.54	3340.24
808.71	3235.79
808.88	3182.54
809.06	3721.16
809.23	3766.21
809.40	3209.17
809.58	3119.06
809.75	3381.20
809.92	3198.93
810.10	3508.17
810.27	3166.16
810.44	3569.61
810.62	3600.33
810.79	3284.94
810.96	3162.06
811.14	3356.62
811.31	3561.42
811.48	3360.72
811.66	3258.32
811.83	3745.73
812.00	3645.38
812.18	3227.60
812.35	3549.13
812.52	3389.39
812.69	3377.10
812.87	3100.62
813.04	3123.15
813.21	3463.12
813.39	3416.01
813.56	3137.49
813.73	3499.98
813.91	3188.69
814.08	3434.44
814.25	3215.31
814.42	2987.99
814.60	3368.91
814.77	3413.96
814.94	3155.92
815.12	3299.28
815.29	3776.45
815.46	3293.13
815.63	3162.06
815.81	3205.07
815.98	3444.68
816.15	3399.63
816.33	3295.18
816.50	3274.70
816.67	3444.68
816.84	3360.72
817.02	3084.24
817.19	3205.07
817.36	3479.50
817.53	3497.93
817.71	3119.06
817.88	3131.34
818.05	3368.91
818.22	3385.29
818.40	3373.00
818.57	3141.58
818.74	3420.11
818.91	3323.85
819.09	3450.83
819.26	3305.42
819.43	3311.57
819.60	3258.32
819.78	3389.39
819.95	3348.43
820.12	3239.89
820.29	3762.12
820.47	3581.90
820.64	3151.82
820.81	3092.43
820.98	3301.33
821.15	3243.98
821.33	3319.76
821.50	3149.78
821.67	3469.26
821.84	3125.20
822.02	3172.30
822.19	3495.88
822.36	3309.52
822.53	3155.92
822.70	3082.19
822.88	3360.72
823.05	3680.20
823.22	3317.71
823.39	3174.35
823.56	3383.24
823.74	3917.76
823.91	3051.47
824.08	3049.43
824.25	3176.40
824.42	3696.58
824.60	3061.71
824.77	3278.80
824.94	3336.14
825.11	3592.14
825.28	3078.10
825.45	3241.93
825.63	3430.35
825.80	3268.56
825.97	3315.66
826.14	3305.42
826.31	3080.14
826.48	3483.59
826.66	3241.93
826.83	3106.77
827.00	3413.96
827.17	3237.84
827.34	3262.41
827.51	3141.58
827.69	3391.44
827.86	3127.25
828.03	3186.64
828.20	3305.42
828.37	3299.28
828.54	3508.17
828.71	3018.71
828.89	3278.80
829.06	3510.22
829.23	3796.93
829.40	3194.83
829.57	3114.96
829.74	3538.89
829.91	3360.72
830.09	3190.74
830.26	3368.91
830.43	3725.26
830.60	3395.53
830.77	3262.41
830.94	3350.48
831.11	3608.52
831.28	3348.43
831.46	3280.85
831.63	3219.41
831.80	3602.38
831.97	3286.99
832.14	3307.47
832.31	3151.82
832.48	3418.06
832.65	3657.67
832.82	3317.71
832.99	3227.60
833.17	3260.37
833.34	3680.20
833.51	3125.20
833.68	2985.94
833.85	3659.72
834.02	3229.65
834.19	3160.02
834.36	3174.35
834.53	3469.26
834.70	3602.38
834.87	3186.64
835.04	2893.78
835.22	3213.26
835.39	3360.72
835.56	2955.22
835.73	3096.53
835.90	3698.63
836.07	3149.78
836.24	3139.54
836.41	3024.85
836.58	3299.28
836.75	3612.62
836.92	2973.65
837.09	2885.59
837.26	3575.75
837.43	3538.89
837.60	3045.33
837.77	3043.28
837.94	3661.77
838.12	3743.69
838.29	2904.02
838.46	2940.88
838.63	3172.30
838.80	3766.21
838.97	3080.14
839.14	3057.62
839.31	3540.94
839.48	3678.15
839.65	2996.18
839.82	3094.48
839.99	3463.12
840.16	3479.50
840.33	3012.56
840.50	3076.05
840.67	3198.93
840.84	2996.18
841.01	3035.09
841.18	2985.94
841.35	3395.53
841.52	3581.90
841.69	3332.05
841.86	3100.62
842.03	3377.10
842.20	3663.82
842.37	3049.43
842.54	3102.67
842.71	3422.16
842.88	3057.62
843.05	3024.85
843.22	2994.13
843.39	3567.56
843.56	3280.85
843.73	3016.66
843.90	3149.78
844.07	3434.44
844.24	3641.29
844.41	3166.16
844.58	3092.43
844.75	3428.30
844.92	3504.07
845.09	3047.38
845.26	3030.99
845.43	3624.90
845.60	3379.15
845.77	3143.63
845.94	3000.27
846.10	3600.33
846.27	3071.95
846.44	2883.54
846.61	2856.92
846.78	3538.89
846.95	3598.28
847.12	3000.27
847.29	3000.27
847.46	3256.27
847.63	3602.38
847.80	2969.55
847.97	2930.64
848.14	3966.92
848.31	3485.64
848.48	2854.87
848.65	2985.94
848.82	3336.14
848.98	4081.60
849.15	3172.30
849.32	3145.68
849.49	3631.05
849.66	3407.82
849.83	3002.32
850.00	3024.85
850.17	3606.47
850.34	3338.19
850.51	2947.03
850.68	3051.47
850.85	3950.53
851.01	3610.57
851.18	2987.99
851.35	3090.38
851.52	3545.03
851.69	3721.16
851.86	2959.31
852.03	2975.70
852.20	3659.72
852.37	3461.07
852.53	2910.16
852.70	2957.27
852.87	3446.73
853.04	3581.90
853.21	3051.47
853.38	3327.95
853.55	3700.68
853.72	3704.78
853.89	2897.88
854.05	3014.61
854.22	3450.83
854.39	3354.57
854.56	2938.84
854.73	3127.25
854.90	3286.99
855.07	3375.05
855.23	2949.08
855.40	2881.49
855.57	3403.72
855.74	3045.33
855.91	3243.98
856.08	2877.40
856.25	3184.59
856.41	3325.90
856.58	3014.61
856.75	3106.77
856.92	3174.35
857.09	3637.19
857.26	2877.40
857.42	3090.38
857.59	3559.37
857.76	3375.05
857.93	2947.03
858.10	3045.33
858.27	3219.41
858.43	3426.25
858.60	3080.14
858.77	2901.97
858.94	3309.52
859.11	3633.10
859.27	3110.86
859.44	2916.31
859.61	3917.76
859.78	3604.42
859.95	2963.41
860.12	2965.46
860.28	3895.24
860.45	3821.51
860.62	2936.79
860.79	3168.21
860.95	3286.99
861.12	3239.89
861.29	2844.63
861.46	3026.90
861.63	3360.72
861.79	3407.82
861.96	2969.55
862.13	2985.94
862.30	3758.02
862.47	3317.71
862.63	2916.31
862.80	3049.43
862.97	3629.00
863.14	3510.22
863.30	3071.95
863.47	2967.51
863.64	3700.68
863.81	3499.98
863.97	2934.74
864.14	3008.47
864.31	3338.19
864.48	3483.59
864.65	2967.51
864.81	3049.43
864.98	3538.89
865.15	3669.96
865.32	3016.66
865.48	3141.58
865.65	3823.56
865.82	3278.80
865.98	3065.81
866.15	3000.27
866.32	3313.61
866.49	3248.08
866.65	3250.13
866.82	3074.00
866.99	3401.68
867.16	3256.27
867.32	3043.28
867.49	2920.40
867.66	3456.97
867.83	3327.95
867.99	2992.08
868.16	3055.57
868.33	3139.54
868.49	3393.48
868.66	3014.61
868.83	3057.62
868.99	3463.12
869.16	3528.65
869.33	3262.41
869.50	3053.52
869.66	3508.17
869.83	3428.30
870.00	2877.40
870.16	3125.20
870.33	3395.53
870.50	3606.47
870.66	3047.38
870.83	3014.61
871.00	3461.07
871.17	3551.18
871.33	3192.78
871.50	3000.27
871.67	3360.72
871.83	3246.03
872.00	3094.48
872.17	2969.55
872.33	3778.50
872.50	3723.21
872.67	3016.66
872.83	2983.89
873.00	3561.42
873.17	3446.73
873.33	3049.43
873.50	3053.52
873.67	3108.82
873.83	3295.18
874.00	3123.15
874.16	3117.01
874.33	3524.55
874.50	3182.54
874.66	2959.31
874.83	3127.25
875.00	3612.62
875.16	3676.10
875.33	3045.33
875.50	2813.91
875.66	3364.81
875.83	3463.12
875.99	3117.01
876.16	3133.39
876.33	3188.69
876.49	3364.81
876.66	3135.44
876.83	3117.01
876.99	3098.58
877.16	3377.10
877.32	3010.51
877.49	3139.54
877.66	3551.18
877.82	3729.35
877.99	3129.30
878.15	3272.65
878.32	3491.79
878.49	3411.92
878.65	3223.50
878.82	3360.72
878.98	3332.05
879.15	3530.70
879.32	3231.69
879.48	3348.43
879.65	3483.59
879.81	3389.39
879.98	3160.02
880.15	3200.98
880.31	3549.13
880.48	3217.36
880.64	3096.53
880.81	3178.45
880.97	3798.98
881.14	3688.39
881.31	3057.62
881.47	3264.46
881.64	3420.11
881.80	3074.00
881.97	3215.31
882.13	3119.06
882.30	3153.87
882.47	3264.46
882.63	3074.00
882.80	3033.04
882.96	3444.68
883.13	3606.47
883.29	2996.18
883.46	3039.19
883.62	3925.96
883.79	3508.17
883.95	3246.03
884.12	3000.27
884.29	3661.77
884.45	3454.92
884.62	3063.76
884.78	2977.75
884.95	3811.27
885.11	3182.54
885.28	3114.96
885.44	3114.96
885.61	3483.59
885.77	3762.12
885.94	3246.03
886.10	3108.82
886.27	3514.31
886.43	3930.05
886.60	3151.82
886.76	3024.85
886.93	3233.74
887.09	3559.37
887.26	2906.07
887.42	3188.69
887.59	3710.92
887.75	3856.33
887.92	3301.33
888.08	3164.11
888.25	3803.08
888.41	3653.58
888.58	3133.39
888.74	2967.51
888.91	3313.61
>>>>>End Processed Spectral Data<<<<<
