SpectraSuite Data File
++++++++++++++++++++++++++++++++++++
Date: Fri May 06 09:28:38 CEST 2016
User: root
Dark Spectrum Present: No
Reference Spectrum Present: No
Number of Sampled Component Spectra: 1
Spectrometers: USB4C02835
Integration Time (usec): 100000 (USB4C02835)
Spectra Averaged: 1 (USB4C02835)
Boxcar Smoothing: 0 (USB4C02835)
Correct for Electrical Dark: No (USB4C02835)
Strobe/Lamp Enabled: No (USB4C02835)
Correct for Detector Non-linearity: No (USB4C02835)
Correct for Stray Light: No (USB4C02835)
Number of Pixels in Processed Spectrum: 3648
>>>>>Begin Processed Spectral Data<<<<<
177.47	2363.36
177.69	2363.36
177.91	2363.36
178.13	2301.92
178.36	2265.05
178.58	3098.58
178.80	3293.13
179.02	3094.48
179.24	3160.02
179.46	2820.05
179.68	2975.70
179.90	3377.10
180.13	3436.49
180.35	2740.18
180.57	2904.02
180.79	3549.13
181.01	3426.25
181.23	3035.09
181.45	3076.05
181.67	3532.75
181.90	3608.52
182.12	3016.66
182.34	2752.47
182.56	3622.86
182.78	3561.42
183.00	2873.30
183.22	2877.40
183.44	3020.75
183.66	4106.18
183.89	2998.23
184.11	2973.65
184.33	3585.99
184.55	3758.02
184.77	3061.71
184.99	2975.70
185.21	3321.81
185.43	4083.65
185.65	3000.27
185.87	2889.68
186.10	3991.49
186.32	4009.92
186.54	3102.67
186.76	3131.34
186.98	3715.02
187.20	3362.76
187.42	3024.85
187.64	2944.98
187.86	3557.32
188.08	3657.67
188.30	2942.93
188.52	3004.37
188.75	3725.26
188.97	3729.35
189.19	2979.79
189.41	2951.12
189.63	3600.33
189.85	3319.76
190.07	2783.19
190.29	2840.53
190.51	3579.85
190.73	3164.11
190.95	3086.29
191.17	3059.67
191.39	3104.72
191.61	3383.24
191.84	2981.84
192.06	3090.38
192.28	3127.25
192.50	4167.62
192.72	3151.82
192.94	2975.70
193.16	3692.49
193.38	3557.32
193.60	2832.34
193.82	3164.11
194.04	3688.39
194.26	3549.13
194.48	3086.29
194.70	2893.78
194.92	3413.96
195.14	3649.48
195.36	2906.07
195.58	2987.99
195.80	3473.36
196.02	3362.76
196.24	2965.46
196.46	3028.95
196.69	3416.01
196.91	3891.14
197.13	2971.60
197.35	2992.08
197.57	3809.22
197.79	3565.51
198.01	2992.08
198.23	3028.95
198.45	3559.37
198.67	3223.50
198.89	2772.95
199.11	3100.62
199.33	3293.13
199.55	2955.22
199.77	2926.55
199.99	3129.30
200.21	3373.00
200.43	3430.35
200.65	2830.29
200.87	2772.95
201.09	3477.45
201.31	3424.20
201.53	2926.55
201.75	3030.99
201.97	3481.55
202.19	3434.44
202.41	3065.81
202.63	3057.62
202.85	3551.18
203.07	3508.17
203.29	3069.91
203.51	2897.88
203.73	3250.13
203.95	4069.31
204.17	3045.33
204.39	3164.11
204.61	3459.02
204.83	3354.57
205.05	3143.63
205.27	2922.45
205.49	4026.31
205.71	3461.07
205.93	2770.90
206.15	2881.49
206.37	3426.25
206.59	3446.73
206.81	2775.00
207.03	2848.72
207.25	3270.61
207.47	3608.52
207.69	2910.16
207.91	3200.98
208.13	3846.09
208.34	3327.95
208.56	2977.75
208.78	2955.22
209.00	3381.20
209.22	3330.00
209.44	2975.70
209.66	2922.45
209.88	3532.75
210.10	3397.58
210.32	2951.12
210.54	2959.31
210.76	3340.24
210.98	3669.96
211.20	2807.77
211.42	3192.78
211.64	3803.08
211.86	3592.14
212.08	3033.04
212.30	3008.47
212.52	3340.24
212.74	3536.84
212.96	3071.95
213.17	3082.19
213.39	3696.58
213.61	3784.65
213.83	2906.07
214.05	2828.24
214.27	3657.67
214.49	3233.74
214.71	2924.50
214.93	3047.38
215.15	3450.83
215.37	3633.10
215.59	2805.72
215.81	3063.76
216.03	3737.54
216.24	3469.26
216.46	2944.98
216.68	3074.00
216.90	3618.76
217.12	3659.72
217.34	2934.74
217.56	3198.93
217.78	3715.02
218.00	3647.43
218.22	3121.10
218.44	3061.71
218.66	3469.26
218.87	3817.41
219.09	2979.79
219.31	2965.46
219.53	3471.31
219.75	3344.33
219.97	3123.15
220.19	2996.18
220.41	3438.54
220.63	3762.12
220.85	3028.95
221.06	3012.56
221.28	3712.97
221.50	3561.42
221.72	2971.60
221.94	2856.92
222.16	3409.87
222.38	3715.02
222.60	2936.79
222.82	3041.23
223.03	3719.11
223.25	3229.65
223.47	2895.83
223.69	3307.47
223.91	3559.37
224.13	3467.21
224.35	2858.96
224.57	3092.43
224.78	3651.53
225.00	3219.41
225.22	3065.81
225.44	2844.63
225.66	3585.99
225.88	3344.33
226.10	3160.02
226.32	2934.74
226.53	3749.83
226.75	3315.66
226.97	3057.62
227.19	2983.89
227.41	3303.37
227.63	3403.72
227.85	2840.53
228.06	3020.75
228.28	3475.40
228.50	3631.05
228.72	2797.53
228.94	3002.32
229.16	3074.00
229.37	3194.83
229.59	2940.88
229.81	3270.61
230.03	3360.72
230.25	3100.62
230.47	2822.10
230.69	2951.12
230.90	3528.65
231.12	3289.04
231.34	3112.91
231.56	3006.42
231.78	3168.21
232.00	3520.46
232.21	3061.71
232.43	3059.67
232.65	2990.03
232.87	3471.31
233.09	2818.00
233.30	2922.45
233.52	3616.71
233.74	3475.40
233.96	2926.55
234.18	3211.22
234.40	3434.44
234.61	4001.73
234.83	2875.35
235.05	2889.68
235.27	4052.93
235.49	3710.92
235.70	2836.44
235.92	3004.37
236.14	3606.47
236.36	4110.27
236.58	2867.16
236.79	3008.47
237.01	3407.82
237.23	3448.78
237.45	3166.16
237.67	3090.38
237.88	3540.94
238.10	3936.20
238.32	2920.40
238.54	2914.26
238.76	3526.60
238.97	3278.80
239.19	2858.96
239.41	2996.18
239.63	3663.82
239.85	3246.03
240.06	2992.08
240.28	2934.74
240.50	3694.54
240.72	3508.17
240.93	2873.30
241.15	3061.71
241.37	3340.24
241.59	3715.02
241.81	3000.27
242.02	3059.67
242.24	3504.07
242.46	3624.90
242.68	2815.96
242.89	2861.01
243.11	3667.91
243.33	3391.44
243.55	2926.55
243.76	2940.88
243.98	3303.37
244.20	3459.02
244.42	2936.79
244.64	2906.07
244.85	3176.40
245.07	3286.99
245.29	2928.60
245.51	3022.80
245.72	3499.98
245.94	3676.10
246.16	2887.64
246.38	2951.12
246.59	3330.00
246.81	3350.48
247.03	2893.78
247.24	2795.48
247.46	3393.48
247.68	3452.88
247.90	2830.29
248.11	3041.23
248.33	3542.99
248.55	3420.11
248.77	2918.36
248.98	3086.29
249.20	3815.37
249.42	3465.16
249.64	2959.31
249.85	2844.63
250.07	3352.52
250.29	3583.95
250.50	3033.04
250.72	2897.88
250.94	3499.98
251.16	3952.58
251.37	2965.46
251.59	3114.96
251.81	3526.60
252.02	3852.23
252.24	2811.86
252.46	3057.62
252.68	3188.69
252.89	3278.80
253.11	2754.52
253.33	3090.38
253.54	3794.89
253.76	3155.92
253.98	3053.52
254.20	2940.88
254.41	3170.26
254.63	3387.34
254.85	2811.86
255.06	3049.43
255.28	3577.80
255.50	3373.00
255.71	2932.69
255.93	2832.34
256.15	3463.12
256.36	3565.51
256.58	2793.43
256.80	2820.05
257.02	3428.30
257.23	3319.76
257.45	3043.28
257.67	3086.29
257.88	3303.37
258.10	3471.31
258.32	2901.97
258.53	3104.72
258.75	3862.47
258.97	3274.70
259.18	2865.11
259.40	2854.87
259.62	3852.23
259.83	3811.27
260.05	2975.70
260.27	3960.77
260.48	3735.50
260.70	3205.07
260.92	2895.83
261.13	3047.38
261.35	3459.02
261.57	3622.86
261.78	2815.96
262.00	3000.27
262.22	3569.61
262.43	3344.33
262.65	2975.70
262.86	2936.79
263.08	3960.77
263.30	3493.83
263.51	2795.48
263.73	2901.97
263.95	3801.03
264.16	3237.84
264.38	2877.40
264.60	2912.21
264.81	3465.16
265.03	3762.12
265.25	3436.49
265.46	2877.40
265.68	3723.21
265.89	3567.56
266.11	2832.34
266.33	2930.64
266.54	3700.68
266.76	3452.88
266.98	3000.27
267.19	3190.74
267.41	3688.39
267.62	3411.92
267.84	2764.76
268.06	3086.29
268.27	3522.51
268.49	3706.82
268.70	2965.46
268.92	2975.70
269.14	3203.02
269.35	3123.15
269.57	3104.72
269.79	3006.42
270.00	3321.81
270.22	3885.00
270.43	2809.81
270.65	2854.87
270.87	3545.03
271.08	3594.19
271.30	3123.15
271.51	2930.64
271.73	3659.72
271.95	3778.50
272.16	2936.79
272.38	3051.47
272.59	3452.88
272.81	3676.10
273.02	2953.17
273.24	3024.85
273.46	3633.10
273.67	3207.12
273.89	2926.55
274.10	2938.84
274.32	3745.73
274.54	3497.93
274.75	3102.67
274.97	3100.62
275.18	3631.05
275.40	3516.36
275.61	2959.31
275.83	3174.35
276.05	3227.60
276.26	3409.87
276.48	3135.44
276.69	3180.50
276.91	3373.00
277.12	3798.98
277.34	3147.73
277.55	3225.55
277.77	3444.68
277.99	3307.47
278.20	3078.10
278.42	3016.66
278.63	3260.37
278.85	3313.61
279.06	3051.47
279.28	3131.34
279.49	3704.78
279.71	3590.09
279.93	3172.30
280.14	3190.74
280.36	3303.37
280.57	3729.35
280.79	3131.34
281.00	2938.84
281.22	3403.72
281.43	3651.53
281.65	2930.64
281.86	3039.19
282.08	3602.38
282.29	3755.97
282.51	2994.13
282.73	3008.47
282.94	3172.30
283.16	3647.43
283.37	3186.64
283.59	3162.06
283.80	3459.02
284.02	3411.92
284.23	3139.54
284.45	3172.30
284.66	3301.33
284.88	3334.09
285.09	2990.03
285.31	3188.69
285.52	3499.98
285.74	3092.43
285.95	3336.14
286.17	3106.77
286.38	3690.44
286.60	3313.61
286.81	3041.23
287.03	3018.71
287.24	3428.30
287.46	3641.29
287.67	3215.31
287.89	3276.75
288.10	3375.05
288.32	3530.70
288.53	3196.88
288.75	3178.45
288.96	3551.18
289.18	3313.61
289.39	2990.03
289.61	3143.63
289.82	3958.72
290.04	3903.43
290.25	2985.94
290.47	3147.73
290.68	3334.09
290.90	3694.54
291.11	2879.44
291.33	3213.26
291.54	3307.47
291.76	3377.10
291.97	3215.31
292.18	3149.78
292.40	3393.48
292.61	3338.19
292.83	3432.40
293.04	3033.04
293.26	3481.55
293.47	3452.88
293.69	3049.43
293.90	2981.84
294.12	3747.78
294.33	3377.10
294.55	3198.93
294.76	3280.85
294.97	3647.43
295.19	3944.39
295.40	3098.58
295.62	3112.91
295.83	3594.19
296.05	3278.80
296.26	3356.62
296.48	3102.67
296.69	3366.86
296.90	3422.16
297.12	3274.70
297.33	3344.33
297.55	3459.02
297.76	3547.08
297.98	3256.27
298.19	3278.80
298.41	3409.87
298.62	3198.93
298.83	3315.66
299.05	3233.74
299.26	3305.42
299.48	3409.87
299.69	3237.84
299.90	3141.58
300.12	3311.57
300.33	3606.47
300.55	3157.97
300.76	3180.50
300.98	3176.40
301.19	3588.04
301.40	3053.52
301.62	3082.19
301.83	3594.19
302.05	3440.59
302.26	3092.43
302.47	3164.11
302.69	3248.08
302.90	3346.38
303.12	2924.50
303.33	3180.50
303.54	3872.71
303.76	3336.14
303.97	3016.66
304.19	3252.17
304.40	3319.76
304.61	3565.51
304.83	3213.26
305.04	3149.78
305.26	3524.55
305.47	3274.70
305.68	3092.43
305.90	3022.80
306.11	3700.68
306.33	3436.49
306.54	2994.13
306.75	3022.80
306.97	3160.02
307.18	3231.69
307.39	3047.38
307.61	3172.30
307.82	3424.20
308.04	3614.66
308.25	2969.55
308.46	3221.45
308.68	3493.83
308.89	3373.00
309.10	3205.07
309.32	3153.87
309.53	3489.74
309.74	3622.86
309.96	3018.71
310.17	3198.93
310.39	3344.33
310.60	3680.20
310.81	3018.71
311.03	3012.56
311.24	3557.32
311.45	3467.21
311.67	3317.71
311.88	3252.17
312.09	3395.53
312.31	3411.92
312.52	2987.99
312.73	2990.03
312.95	3141.58
313.16	3250.13
313.37	3264.46
313.59	3297.23
313.80	3637.19
314.01	3792.84
314.23	3114.96
314.44	3020.75
314.65	3200.98
314.87	3278.80
315.08	3096.53
315.29	3119.06
315.51	3235.79
315.72	3160.02
315.93	3162.06
316.15	3104.72
316.36	3282.89
316.57	3426.25
316.79	3143.63
317.00	3071.95
317.21	3502.03
317.43	3227.60
317.64	3114.96
317.85	3020.75
318.07	3289.04
318.28	3278.80
318.49	3151.82
318.70	3330.00
318.92	3426.25
319.13	3403.72
319.34	3289.04
319.56	3102.67
319.77	3497.93
319.98	3600.33
320.20	3422.16
320.41	3246.03
320.62	3540.94
320.83	3268.56
321.05	3229.65
321.26	3184.59
321.47	3493.83
321.69	3739.59
321.90	2994.13
322.11	3053.52
322.32	3495.88
322.54	3704.78
322.75	3131.34
322.96	4151.23
323.18	3114.96
323.39	3024.85
323.60	2994.13
323.81	3262.41
324.03	3305.42
324.24	3434.44
324.45	3188.69
324.66	3086.29
324.88	3803.08
325.09	3856.33
325.30	3063.76
325.52	3016.66
325.73	3577.80
325.94	3217.36
326.15	2953.17
326.37	2934.74
326.58	3755.97
326.79	3837.89
327.00	3076.05
327.22	3139.54
327.43	3395.53
327.64	3180.50
327.85	3313.61
328.07	3172.30
328.28	3940.29
328.49	3340.24
328.70	3092.43
328.92	3127.25
329.13	3434.44
329.34	3526.60
329.55	3346.38
329.76	3330.00
329.98	3401.68
330.19	3674.06
330.40	3211.22
330.61	3260.37
330.83	3674.06
331.04	3311.57
331.25	3223.50
331.46	3172.30
331.68	3200.98
331.89	3631.05
332.10	3162.06
332.31	3030.99
332.52	3450.83
332.74	3762.12
332.95	2977.75
333.16	3037.14
333.37	3540.94
333.58	3307.47
333.80	3196.88
334.01	2930.64
334.22	3438.54
334.43	3377.10
334.64	3069.91
334.86	3024.85
335.07	3327.95
335.28	3846.09
335.49	2987.99
335.70	3233.74
335.92	3801.03
336.13	3860.42
336.34	3155.92
336.55	2996.18
336.76	3526.60
336.98	3010.51
337.19	3188.69
337.40	3205.07
337.61	4030.40
337.82	3395.53
338.04	3194.83
338.25	3051.47
338.46	3438.54
338.67	3332.05
338.88	3033.04
339.09	2953.17
339.31	3393.48
339.52	3160.02
339.73	3065.81
339.94	3209.17
340.15	3526.60
340.36	3375.05
340.58	3145.68
340.79	3055.57
341.00	3551.18
341.21	3198.93
341.42	3418.06
341.63	3139.54
341.85	3669.96
342.06	3448.78
342.27	3080.14
342.48	3237.84
342.69	3188.69
342.90	3510.22
343.12	3504.07
343.33	3045.33
343.54	3665.86
343.75	3715.02
343.96	3254.22
344.17	3016.66
344.38	3358.67
344.60	3231.69
344.81	3035.09
345.02	3067.86
345.23	3731.40
345.44	4032.45
345.65	3143.63
345.86	3217.36
346.07	3475.40
346.29	3358.67
346.50	3303.37
346.71	3149.78
346.92	3682.25
347.13	3794.89
347.34	3211.22
347.55	2910.16
347.76	3534.79
347.98	3069.91
348.19	3172.30
348.40	3286.99
348.61	3440.59
348.82	3798.98
349.03	3145.68
349.24	2963.41
349.45	3893.19
349.66	3057.62
349.88	3049.43
350.09	3030.99
350.30	3696.58
350.51	3688.39
350.72	3373.00
350.93	3067.86
351.14	3315.66
351.35	3467.21
351.56	3043.28
351.77	3180.50
351.99	3602.38
352.20	3684.30
352.41	3235.79
352.62	2942.93
352.83	3473.36
353.04	3385.29
353.25	3069.91
353.46	3094.48
353.67	3719.11
353.88	3045.33
354.09	2949.08
354.30	3127.25
354.52	3606.47
354.73	3401.68
354.94	3100.62
355.15	3188.69
355.36	3903.43
355.57	3282.89
355.78	2983.89
355.99	3106.77
356.20	3438.54
356.41	3723.21
356.62	3180.50
356.83	3157.97
357.04	3735.50
357.25	3088.34
357.46	3106.77
357.68	3010.51
357.89	3174.35
358.10	3422.16
358.31	3035.09
358.52	3180.50
358.73	3151.82
358.94	3186.64
359.15	3160.02
359.36	3110.86
359.57	3502.03
359.78	3311.57
359.99	3311.57
360.20	3010.51
360.41	3446.73
360.62	3499.98
360.83	3188.69
361.04	3145.68
361.25	3547.08
361.46	3794.89
361.67	3229.65
361.88	3090.38
362.09	3598.28
362.30	3489.74
362.51	3002.32
362.72	3205.07
362.93	3618.76
363.14	3547.08
363.35	3286.99
363.56	2967.51
363.78	3704.78
363.99	3622.86
364.20	3016.66
364.41	3221.45
364.62	3872.71
364.83	3518.41
365.04	3065.81
365.25	3108.82
365.46	3872.71
365.67	3145.68
365.88	3336.14
366.09	3155.92
366.30	3385.29
366.51	3454.92
366.72	2992.08
366.93	3004.37
367.14	3499.98
367.35	3739.59
367.56	3035.09
367.77	3225.55
367.98	3409.87
368.18	3540.94
368.39	3278.80
368.60	3086.29
368.81	3688.39
369.02	3575.75
369.23	3151.82
369.44	2942.93
369.65	3377.10
369.86	3561.42
370.07	3280.85
370.28	2975.70
370.49	3553.23
370.70	3491.79
370.91	2996.18
371.12	2973.65
371.33	3643.34
371.54	3313.61
371.75	3162.06
371.96	2906.07
372.17	3532.75
372.38	3389.39
372.59	3143.63
372.80	3024.85
373.01	3344.33
373.22	3438.54
373.43	3094.48
373.64	2963.41
373.85	3721.16
374.06	3770.31
374.26	3350.48
374.47	3217.36
374.68	3741.64
374.89	3512.27
375.10	2983.89
375.31	3188.69
375.52	3499.98
375.73	3446.73
375.94	2967.51
376.15	3219.41
376.36	3237.84
376.57	3289.04
376.78	3121.10
376.99	3155.92
377.20	3758.02
377.40	3321.81
377.61	3383.24
377.82	3088.34
378.03	3796.93
378.24	3518.41
378.45	3233.74
378.66	3198.93
378.87	3102.67
379.08	3106.77
379.29	3133.39
379.50	3317.71
379.71	3442.64
379.91	3594.19
380.12	3071.95
380.33	3239.89
380.54	3383.24
380.75	3463.12
380.96	2985.94
381.17	3145.68
381.38	3444.68
381.59	3450.83
381.80	3153.87
382.00	3262.41
382.21	3522.51
382.42	3846.09
382.63	3538.89
382.84	3246.03
383.05	3717.06
383.26	3819.46
383.47	3157.97
383.68	3071.95
383.88	3557.32
384.09	3444.68
384.30	3334.09
384.51	3266.51
384.72	3344.33
384.93	3182.54
385.14	3209.17
385.35	3461.07
385.55	3131.34
385.76	3680.20
385.97	3147.73
386.18	2916.31
386.39	3301.33
386.60	3358.67
386.81	3098.58
387.02	2971.60
387.22	3231.69
387.43	3643.34
387.64	3106.77
387.85	3332.05
388.06	3422.16
388.27	4405.18
388.48	7210.90
388.68	10698.59
388.89	13416.24
389.10	14501.67
389.31	14051.11
389.52	11380.56
389.73	10155.88
389.93	9312.11
390.14	8288.13
390.35	7643.02
390.56	7501.71
390.77	6195.11
390.98	4812.73
391.18	4073.41
391.39	4093.89
391.60	3471.31
391.81	3422.16
392.02	3149.78
392.23	3960.77
392.43	3471.31
392.64	3248.08
392.85	3291.09
393.06	3841.99
393.27	3375.05
393.47	3082.19
393.68	3348.43
393.89	3467.21
394.10	3753.93
394.31	3160.02
394.52	3067.86
394.72	3194.83
394.93	3762.12
395.14	3049.43
395.35	3215.31
395.56	3352.52
395.76	3393.48
395.97	3143.63
396.18	3272.65
396.39	3327.95
396.60	4095.94
396.80	3444.68
397.01	3432.40
397.22	3575.75
397.43	3583.95
397.64	3160.02
397.84	3205.07
398.05	3782.60
398.26	3489.74
398.47	3297.23
398.67	3379.15
398.88	3522.51
399.09	3614.66
399.30	3139.54
399.51	3194.83
399.71	3327.95
399.92	3479.50
400.13	3270.61
400.34	3213.26
400.54	3463.12
400.75	3784.65
400.96	3188.69
401.17	3475.40
401.37	3506.12
401.58	3356.62
401.79	3151.82
402.00	3264.46
402.21	3872.71
402.41	3538.89
402.62	3391.44
402.83	3469.26
403.04	3755.97
403.24	4255.68
403.45	3311.57
403.66	3467.21
403.87	3651.53
404.07	3688.39
404.28	3381.20
404.49	3487.69
404.70	3489.74
404.90	3651.53
405.11	3188.69
405.32	3254.22
405.52	3291.09
405.73	3313.61
405.94	3016.66
406.15	3117.01
406.35	3563.47
406.56	3606.47
406.77	3188.69
406.98	3117.01
407.18	3323.85
407.39	3690.44
407.60	3196.88
407.80	3248.08
408.01	3377.10
408.22	3547.08
408.43	3102.67
408.63	3303.37
408.84	3622.86
409.05	3622.86
409.25	3121.10
409.46	3209.17
409.67	3280.85
409.88	3301.33
410.08	3200.98
410.29	3082.19
410.50	3651.53
410.70	3475.40
410.91	3059.67
411.12	3190.74
411.32	3401.68
411.53	3254.22
411.74	3184.59
411.95	3135.44
412.15	3461.07
412.36	3606.47
412.57	3305.42
412.77	3305.42
412.98	3352.52
413.19	3311.57
413.39	3182.54
413.60	3180.50
413.81	3688.39
414.01	3217.36
414.22	3151.82
414.43	3362.76
414.63	3416.01
414.84	3696.58
415.05	3225.55
415.25	2938.84
415.46	3516.36
415.67	3323.85
415.87	3164.11
416.08	3121.10
416.29	3336.14
416.49	3569.61
416.70	3217.36
416.91	3164.11
417.11	3387.34
417.32	3735.50
417.53	3209.17
417.73	3270.61
417.94	3413.96
418.15	3465.16
418.35	3225.55
418.56	3145.68
418.77	3991.49
418.97	3426.25
419.18	3305.42
419.38	2840.53
419.59	3467.21
419.80	3786.69
420.00	3061.71
420.21	3225.55
420.42	3682.25
420.62	3477.45
420.83	3157.97
421.04	3151.82
421.24	3434.44
421.45	3694.54
421.65	3192.78
421.86	3174.35
422.07	3581.90
422.27	3559.37
422.48	3074.00
422.69	2947.03
422.89	3477.45
423.10	3340.24
423.30	3129.30
423.51	3139.54
423.72	3596.23
423.92	3569.61
424.13	3008.47
424.33	3235.79
424.54	3639.24
424.75	3454.92
424.95	3401.68
425.16	3043.28
425.36	3448.78
425.57	3694.54
425.78	3356.62
425.98	3264.46
426.19	3362.76
426.39	3291.09
426.60	3205.07
426.81	3309.52
427.01	3538.89
427.22	3264.46
427.42	3024.85
427.63	3108.82
427.83	3598.28
428.04	3770.31
428.25	3168.21
428.45	3235.79
428.66	3653.58
428.86	3336.14
429.07	3270.61
429.28	3215.31
429.48	3418.06
429.69	3295.18
429.89	3274.70
430.10	3104.72
430.30	3608.52
430.51	3616.71
430.71	3022.80
430.92	3205.07
431.13	3289.04
431.33	3536.84
431.54	3229.65
431.74	3330.00
431.95	3936.20
432.15	3264.46
432.36	3053.52
432.56	3260.37
432.77	3958.72
432.98	3772.36
433.18	3286.99
433.39	3041.23
433.59	3393.48
433.80	3891.14
434.00	3270.61
434.21	3221.45
434.41	3262.41
434.62	3999.68
434.82	3008.47
435.03	3137.49
435.23	3602.38
435.44	3117.01
435.64	3135.44
435.85	3192.78
436.06	3667.91
436.26	3700.68
436.47	3141.58
436.67	3014.61
436.88	3319.76
437.08	3641.29
437.29	3262.41
437.49	3295.18
437.70	3698.63
437.90	3428.30
438.11	3413.96
438.31	3182.54
438.52	3725.26
438.72	3672.01
438.93	3436.49
439.13	3264.46
439.34	3577.80
439.54	3309.52
439.75	3213.26
439.95	3221.45
440.16	3282.89
440.36	3532.75
440.57	3141.58
440.77	3198.93
440.98	3370.96
441.18	3622.86
441.39	3045.33
441.59	2998.23
441.80	3930.05
442.00	3370.96
442.21	3305.42
442.41	2981.84
442.62	3676.10
442.82	3350.48
443.02	3143.63
443.23	3139.54
443.43	3471.31
443.64	3669.96
443.84	2994.13
444.05	3162.06
444.25	3442.64
444.46	3297.23
444.66	3164.11
444.87	3430.35
445.07	3160.02
445.28	3350.48
445.48	3344.33
445.69	3286.99
445.89	3995.59
446.09	3465.16
446.30	3387.34
446.50	3575.75
446.71	5099.44
446.91	5994.40
447.12	6741.91
447.32	7069.59
447.53	7346.06
447.73	6162.34
447.93	5267.38
448.14	4988.85
448.34	5429.17
448.55	4421.56
448.75	4442.04
448.96	4057.03
449.16	4208.58
449.36	4050.88
449.57	3366.86
449.77	3334.09
449.98	3356.62
450.18	3502.03
450.39	3088.34
450.59	3420.11
450.79	3368.91
451.00	3270.61
451.20	3409.87
451.41	3184.59
451.61	3551.18
451.81	3471.31
452.02	3137.49
452.22	3188.69
452.43	3266.51
452.63	3280.85
452.84	3221.45
453.04	3215.31
453.24	3479.50
453.45	3256.27
453.65	3168.21
453.86	3112.91
454.06	3565.51
454.26	3502.03
454.47	3166.16
454.67	3317.71
454.87	3540.94
455.08	3274.70
455.28	3260.37
455.49	3321.81
455.69	3213.26
455.89	3917.76
456.10	3221.45
456.30	3074.00
456.51	3657.67
456.71	3409.87
456.91	3344.33
457.12	3188.69
457.32	3520.46
457.52	3237.84
457.73	3313.61
457.93	3456.97
458.14	3323.85
458.34	3045.33
458.54	3178.45
458.75	3166.16
458.95	3643.34
459.15	3450.83
459.36	3172.30
459.56	3205.07
459.76	3897.28
459.97	3461.07
460.17	3127.25
460.37	3248.08
460.58	3532.75
460.78	3561.42
460.99	3241.93
461.19	3155.92
461.39	3303.37
461.60	3397.58
461.80	3180.50
462.00	3100.62
462.21	3471.31
462.41	3250.13
462.61	3035.09
462.82	2932.69
463.02	3538.89
463.22	3444.68
463.43	3188.69
463.63	3143.63
463.83	3805.13
464.04	3530.70
464.24	3137.49
464.44	3049.43
464.64	3512.27
464.85	3452.88
465.05	3258.32
465.25	3176.40
465.46	3307.47
465.66	3536.84
465.86	3223.50
466.07	3127.25
466.27	3373.00
466.47	3139.54
466.68	3035.09
466.88	3297.23
467.08	3549.13
467.29	3624.90
467.49	3114.96
467.69	3280.85
467.89	3610.57
468.10	3422.16
468.30	3227.60
468.50	3254.22
468.71	3616.71
468.91	3129.30
469.11	3364.81
469.31	3276.75
469.52	3276.75
469.72	3784.65
469.92	3483.59
470.13	3180.50
470.33	3491.79
470.53	3532.75
470.73	3471.31
470.94	3852.23
471.14	4052.93
471.34	4548.54
471.54	4140.99
471.75	3942.34
471.95	3721.16
472.15	3807.17
472.36	3614.66
472.56	3467.21
472.76	3903.43
472.96	3893.19
473.17	3389.39
473.37	3231.69
473.57	3344.33
473.77	3471.31
473.98	3293.13
474.18	3172.30
474.38	4186.05
474.58	3252.17
474.79	3117.01
474.99	3270.61
475.19	3669.96
475.39	3227.60
475.60	3258.32
475.80	3098.58
476.00	3561.42
476.20	3321.81
476.41	3264.46
476.61	3080.14
476.81	3794.89
477.01	3327.95
477.21	3524.55
477.42	3221.45
477.62	3209.17
477.82	3682.25
478.02	3028.95
478.23	3125.20
478.43	3356.62
478.63	3436.49
478.83	3188.69
479.03	3330.00
479.24	3768.26
479.44	3901.38
479.64	3100.62
479.84	2975.70
480.04	3358.67
480.25	3624.90
480.45	3057.62
480.65	3108.82
480.85	3762.12
481.06	3315.66
481.26	3344.33
481.46	3127.25
481.66	3463.12
481.86	3217.36
482.06	3381.20
482.27	3221.45
482.47	3411.92
482.67	3524.55
482.87	3157.97
483.07	3264.46
483.28	3327.95
483.48	3125.20
483.68	3176.40
483.88	2992.08
484.08	3037.14
484.29	3223.50
484.49	3280.85
484.69	2944.98
484.89	3692.49
485.09	3661.77
485.29	3123.15
485.50	3327.95
485.70	3360.72
485.90	3739.59
486.10	3375.05
486.30	3213.26
486.50	3753.93
486.71	3442.64
486.91	3219.41
487.11	3254.22
487.31	3110.86
487.51	3585.99
487.71	3162.06
487.91	3043.28
488.12	3213.26
488.32	2914.26
488.52	3131.34
488.72	2897.88
488.92	3465.16
489.12	3657.67
489.32	3278.80
489.53	3069.91
489.73	3172.30
489.93	3846.09
490.13	3172.30
490.33	2981.84
490.53	3483.59
490.73	3528.65
490.94	3061.71
491.14	3246.03
491.34	3604.42
491.54	3602.38
491.74	3962.82
491.94	4382.65
492.14	5156.79
492.34	4999.09
492.54	4605.88
492.75	4161.47
492.95	4411.32
493.15	4065.22
493.35	3792.84
493.55	3770.31
493.75	3827.65
493.95	4011.97
494.15	3379.15
494.35	3225.55
494.56	3332.05
494.76	3278.80
494.96	3373.00
495.16	3125.20
495.36	3373.00
495.56	3471.31
495.76	3330.00
495.96	3200.98
496.16	3188.69
496.36	3835.85
496.56	3160.02
496.77	3256.27
496.97	3364.81
497.17	3801.03
497.37	3049.43
497.57	3272.65
497.77	3561.42
497.97	3198.93
498.17	3258.32
498.37	3131.34
498.57	3592.14
498.77	3319.76
498.97	3327.95
499.17	3559.37
499.38	3389.39
499.58	3485.64
499.78	3393.48
499.98	3299.28
500.18	3385.29
500.38	3260.37
500.58	3330.00
500.78	3796.93
500.98	6090.66
501.18	7653.26
501.38	8828.79
501.58	9797.48
501.78	9930.60
501.98	8206.21
502.18	7028.63
502.38	6070.18
502.58	6078.37
502.78	5380.01
502.98	5203.89
503.18	5099.44
503.38	4833.21
503.59	4210.62
503.79	4007.87
503.99	3712.97
504.19	3975.11
504.39	3948.48
504.59	3635.14
504.79	3528.65
504.99	3979.20
505.19	3614.66
505.39	3313.61
505.59	3547.08
505.79	3856.33
505.99	3559.37
506.19	3203.02
506.39	3377.10
506.59	3233.74
506.79	3321.81
506.99	3377.10
507.19	3100.62
507.39	3426.25
507.59	3188.69
507.79	3192.78
507.99	3117.01
508.19	3342.28
508.39	3397.58
508.59	3289.04
508.79	3227.60
508.99	3868.61
509.19	3348.43
509.39	3239.89
509.59	3127.25
509.79	3262.41
509.99	3577.80
510.19	3289.04
510.39	3305.42
510.59	3553.23
510.79	3241.93
510.99	2969.55
511.19	3149.78
511.39	3741.64
511.59	3774.41
511.79	3303.37
511.99	3205.07
512.19	3817.41
512.38	3364.81
512.58	3098.58
512.78	3119.06
512.98	3706.82
513.18	3739.59
513.38	3110.86
513.58	3241.93
513.78	3358.67
513.98	3379.15
514.18	3139.54
514.38	3184.59
514.58	3499.98
514.78	3426.25
514.98	3065.81
515.18	3178.45
515.38	3192.78
515.58	3796.93
515.78	3088.34
515.98	3104.72
516.18	3590.09
516.38	3542.99
516.57	3094.48
516.77	3180.50
516.97	3600.33
517.17	3338.19
517.37	2944.98
517.57	3172.30
517.77	3508.17
517.97	3215.31
518.17	3272.65
518.37	3002.32
518.57	3239.89
518.77	3373.00
518.97	3215.31
519.16	3248.08
519.36	3735.50
519.56	3303.37
519.76	3078.10
519.96	3127.25
520.16	3768.26
520.36	3192.78
520.56	3360.72
520.76	3053.52
520.96	3368.91
521.16	3684.30
521.35	3346.38
521.55	3284.94
521.75	3487.69
521.95	3356.62
522.15	3121.10
522.35	3049.43
522.55	3338.19
522.75	3608.52
522.95	2949.08
523.14	3010.51
523.34	3487.69
523.54	3280.85
523.74	3213.26
523.94	3192.78
524.14	3145.68
524.34	3522.51
524.54	3391.44
524.73	3286.99
524.93	3659.72
525.13	3459.02
525.33	3096.53
525.53	3430.35
525.73	3606.47
525.93	3465.16
526.13	3227.60
526.32	3059.67
526.52	3694.54
526.72	3614.66
526.92	3166.16
527.12	3020.75
527.32	3149.78
527.52	3469.26
527.71	3155.92
527.91	3164.11
528.11	3321.81
528.31	3395.53
528.51	3170.26
528.71	3313.61
528.90	3518.41
529.10	3690.44
529.30	3178.45
529.50	2885.59
529.70	3420.11
529.90	3315.66
530.09	3114.96
530.29	2967.51
530.49	3291.09
530.69	4083.65
530.89	3327.95
531.09	3237.84
531.28	3330.00
531.48	3594.19
531.68	3139.54
531.88	3106.77
532.08	3532.75
532.28	3327.95
532.47	3262.41
532.67	3225.55
532.87	3475.40
533.07	3139.54
533.27	3157.97
533.46	3266.51
533.66	3555.27
533.86	3405.77
534.06	3246.03
534.26	3084.24
534.45	3313.61
534.65	3594.19
534.85	3260.37
535.05	3164.11
535.25	3626.95
535.44	3141.58
535.64	3231.69
535.84	3227.60
536.04	3311.57
536.24	3260.37
536.43	3119.06
536.63	3082.19
536.83	3477.45
537.03	3469.26
537.22	3033.04
537.42	2947.03
537.62	3504.07
537.82	3274.70
538.02	3387.34
538.21	3192.78
538.41	4052.93
538.61	3565.51
538.81	3274.70
539.00	3266.51
539.20	3065.81
539.40	3250.13
539.60	3129.30
539.79	3413.96
539.99	3475.40
540.19	3215.31
540.39	3016.66
540.58	3209.17
540.78	3655.62
540.98	3487.69
541.18	3440.59
541.37	3246.03
541.57	3456.97
541.77	3487.69
541.97	3098.58
542.16	3002.32
542.36	3342.28
542.56	3616.71
542.76	3375.05
542.95	3221.45
543.15	3604.42
543.35	3581.90
543.54	3143.63
543.74	3127.25
543.94	3649.48
544.14	3305.42
544.33	3278.80
544.53	3200.98
544.73	3399.63
544.93	3297.23
545.12	3270.61
545.32	3260.37
545.52	3471.31
545.71	3160.02
545.91	3246.03
546.11	3094.48
546.30	3196.88
546.50	3434.44
546.70	3280.85
546.90	3198.93
547.09	3063.76
547.29	3540.94
547.49	3293.13
547.68	3151.82
547.88	3223.50
548.08	3559.37
548.27	3401.68
548.47	3121.10
548.67	3340.24
548.87	3524.55
549.06	3211.22
549.26	3074.00
549.46	3450.83
549.65	3198.93
549.85	3207.12
550.05	3225.55
550.24	3147.73
550.44	3332.05
550.64	3235.79
550.83	3286.99
551.03	3762.12
551.23	3618.76
551.42	3266.51
551.62	3231.69
551.82	3487.69
552.01	3362.76
552.21	3487.69
552.41	3196.88
552.60	3682.25
552.80	3422.16
553.00	3168.21
553.19	3164.11
553.39	3745.73
553.59	3194.83
553.78	3286.99
553.98	3153.87
554.17	3217.36
554.37	3493.83
554.57	3258.32
554.76	2967.51
554.96	3295.18
555.16	3440.59
555.35	3270.61
555.55	3348.43
555.75	3506.12
555.94	3626.95
556.14	3014.61
556.33	3243.98
556.53	3379.15
556.73	3387.34
556.92	3164.11
557.12	3086.29
557.32	3940.29
557.51	3702.73
557.71	3219.41
557.90	3309.52
558.10	3682.25
558.30	3252.17
558.49	3209.17
558.69	3112.91
558.88	3553.23
559.08	3479.50
559.28	3147.73
559.47	3346.38
559.67	3495.88
559.86	3803.08
560.06	3057.62
560.26	3157.97
560.45	3497.93
560.65	3475.40
560.84	3461.07
561.04	3106.77
561.24	3567.56
561.43	3147.73
561.63	3373.00
561.82	3293.13
562.02	3475.40
562.22	3168.21
562.41	3117.01
562.61	3094.48
562.80	3272.65
563.00	3913.67
563.19	3225.55
563.39	3272.65
563.59	3540.94
563.78	3250.13
563.98	2883.54
564.17	3143.63
564.37	3139.54
564.56	3289.04
564.76	3069.91
564.96	3270.61
565.15	3418.06
565.35	3971.01
565.54	3190.74
565.74	3178.45
565.93	3583.95
566.13	3391.44
566.32	3221.45
566.52	3241.93
566.71	3442.64
566.91	3643.34
567.11	3303.37
567.30	3129.30
567.50	3555.27
567.69	3524.55
567.89	3151.82
568.08	3002.32
568.28	3483.59
568.47	3192.78
568.67	3139.54
568.86	3155.92
569.06	3674.06
569.25	3395.53
569.45	2963.41
569.64	3213.26
569.84	3354.57
570.04	3413.96
570.23	3198.93
570.43	3213.26
570.62	3426.25
570.82	3735.50
571.01	3047.38
571.21	3151.82
571.40	3289.04
571.60	3583.95
571.79	3153.87
571.99	3164.11
572.18	3198.93
572.38	3577.80
572.57	3332.05
572.77	3264.46
572.96	4091.84
573.16	3454.92
573.35	3190.74
573.55	3303.37
573.74	3434.44
573.94	3313.61
574.13	3135.44
574.33	3370.96
574.52	3721.16
574.71	3450.83
574.91	3192.78
575.10	3010.51
575.30	3397.58
575.49	3221.45
575.69	3063.76
575.88	3069.91
576.08	3291.09
576.27	3604.42
576.47	3045.33
576.66	3305.42
576.86	3704.78
577.05	3495.88
577.25	3239.89
577.44	3352.52
577.64	3291.09
577.83	3614.66
578.02	3114.96
578.22	3295.18
578.41	3876.80
578.61	3383.24
578.80	3012.56
579.00	3221.45
579.19	3452.88
579.39	3508.17
579.58	3289.04
579.77	3225.55
579.97	3721.16
580.16	3633.10
580.36	3424.20
580.55	3274.70
580.75	3530.70
580.94	3450.83
581.13	3344.33
581.33	3416.01
581.52	3444.68
581.72	3870.66
581.91	3184.59
582.11	3117.01
582.30	3553.23
582.49	3463.12
582.69	3504.07
582.88	3268.56
583.08	3549.13
583.27	3696.58
583.47	3377.10
583.66	3117.01
583.85	3198.93
584.05	3393.48
584.24	3280.85
584.44	3157.97
584.63	3610.57
584.82	3676.10
585.02	3362.76
585.21	3364.81
585.41	3565.51
585.60	3471.31
585.79	3428.30
585.99	3452.88
586.18	3424.20
586.37	4446.14
586.57	6604.70
586.76	17983.21
586.96	36230.62
587.15	48878.87
587.34	56253.61
587.54	60320.87
587.73	52581.60
587.93	37529.03
588.12	29349.44
588.31	24166.03
588.51	21616.31
588.70	19932.88
588.89	17465.08
589.09	15007.52
589.28	12881.72
589.47	10264.42
589.67	7782.28
589.86	6283.17
590.06	4917.17
590.25	4552.63
590.44	3846.09
590.64	3590.09
590.83	3766.21
591.02	3680.20
591.22	3200.98
591.41	3270.61
591.60	3350.48
591.80	3919.81
591.99	2998.23
592.18	3155.92
592.38	3669.96
592.57	3274.70
592.76	3209.17
592.96	3293.13
593.15	3469.26
593.34	3717.06
593.54	3145.68
593.73	3297.23
593.92	3581.90
594.12	3565.51
594.31	3155.92
594.50	3356.62
594.70	3506.12
594.89	3981.25
595.08	3067.86
595.28	3379.15
595.47	4102.08
595.66	3690.44
595.86	3049.43
596.05	3057.62
596.24	3323.85
596.43	3790.79
596.63	3237.84
596.82	3350.48
597.01	3409.87
597.21	3768.26
597.40	3084.24
597.59	3215.31
597.79	3387.34
597.98	3633.10
598.17	3198.93
598.36	3176.40
598.56	3680.20
598.75	3303.37
598.94	3282.89
599.14	3198.93
599.33	3373.00
599.52	3565.51
599.71	3276.75
599.91	3186.64
600.10	3594.19
600.29	3499.98
600.48	3313.61
600.68	3274.70
600.87	3403.72
601.06	3289.04
601.26	3319.76
601.45	3344.33
601.64	3407.82
601.83	3774.41
602.03	3100.62
602.22	3098.58
602.41	3629.00
602.60	3960.77
602.80	3286.99
602.99	3377.10
603.18	3368.91
603.37	3448.78
603.57	3108.82
603.76	3157.97
603.95	3676.10
604.14	3381.20
604.34	3086.29
604.53	3127.25
604.72	3411.92
604.91	3624.90
605.10	3155.92
605.30	3076.05
605.49	3895.24
605.68	3542.99
605.87	3178.45
606.07	3071.95
606.26	3430.35
606.45	3551.18
606.64	3186.64
606.84	3133.39
607.03	3483.59
607.22	3559.37
607.41	3123.15
607.60	3123.15
607.80	3659.72
607.99	3342.28
608.18	3219.41
608.37	3246.03
608.56	3241.93
608.76	3680.20
608.95	3352.52
609.14	3102.67
609.33	3657.67
609.52	3776.45
609.72	3332.05
609.91	3274.70
610.10	3534.79
610.29	3704.78
610.48	3309.52
610.68	3229.65
610.87	3387.34
611.06	3590.09
611.25	3196.88
611.44	3315.66
611.63	3276.75
611.83	3698.63
612.02	3047.38
612.21	3334.09
612.40	2996.18
612.59	3270.61
612.79	3096.53
612.98	3205.07
613.17	3811.27
613.36	3459.02
613.55	3235.79
613.74	3209.17
613.93	3397.58
614.13	3485.64
614.32	3311.57
614.51	3221.45
614.70	3395.53
614.89	3383.24
615.08	3243.98
615.28	3534.79
615.47	3190.74
615.66	3508.17
615.85	3235.79
616.04	3215.31
616.23	3444.68
616.42	3426.25
616.62	3119.06
616.81	3160.02
617.00	3516.36
617.19	3514.31
617.38	3200.98
617.57	3258.32
617.76	3565.51
617.95	3626.95
618.15	3309.52
618.34	3407.82
618.53	3176.40
618.72	3700.68
618.91	3266.51
619.10	3215.31
619.29	3370.96
619.48	3489.74
619.68	3035.09
619.87	3133.39
620.06	3194.83
620.25	3624.90
620.44	3131.34
620.63	3172.30
620.82	3422.16
621.01	3420.11
621.20	3162.06
621.39	3225.55
621.59	3545.03
621.78	3446.73
621.97	3225.55
622.16	3352.52
622.35	3542.99
622.54	3585.99
622.73	3215.31
622.92	3010.51
623.11	3749.83
623.30	3393.48
623.49	3284.94
623.68	3102.67
623.88	3766.21
624.07	3360.72
624.26	3108.82
624.45	3221.45
624.64	3442.64
624.83	3518.41
625.02	3241.93
625.21	3213.26
625.40	3422.16
625.59	3680.20
625.78	3307.47
625.97	3211.22
626.16	3731.40
626.35	3575.75
626.54	3123.15
626.74	3430.35
626.93	3348.43
627.12	3420.11
627.31	3215.31
627.50	3203.02
627.69	3641.29
627.88	3276.75
628.07	3121.10
628.26	3033.04
628.45	3315.66
628.64	3340.24
628.83	3166.16
629.02	2953.17
629.21	3641.29
629.40	3610.57
629.59	3067.86
629.78	3139.54
629.97	3395.53
630.16	3483.59
630.35	3200.98
630.54	3291.09
630.73	3295.18
630.92	3448.78
631.11	3102.67
631.30	3241.93
631.49	3596.23
631.68	3424.20
631.87	3221.45
632.06	3059.67
632.25	3952.58
632.44	3448.78
632.63	3241.93
632.82	3184.59
633.01	3286.99
633.20	3401.68
633.39	3119.06
633.58	3000.27
633.77	3422.16
633.96	3442.64
634.15	3340.24
634.34	3239.89
634.53	3520.46
634.72	3280.85
634.91	3147.73
635.10	3221.45
635.29	3633.10
635.48	3602.38
635.67	3067.86
635.86	3045.33
636.05	3639.24
636.24	3454.92
636.43	3071.95
636.62	3264.46
636.81	2965.46
637.00	3477.45
637.19	3117.01
637.38	3213.26
637.57	3311.57
637.76	3434.44
637.95	3438.54
638.14	3299.28
638.33	3432.40
638.52	3409.87
638.71	3061.71
638.89	3020.75
639.08	4110.27
639.27	3551.18
639.46	3401.68
639.65	3641.29
639.84	3872.71
640.03	3962.82
640.22	3508.17
640.41	3524.55
640.60	3442.64
640.79	3563.47
640.98	3327.95
641.17	3375.05
641.36	3561.42
641.55	3559.37
641.74	2985.94
641.92	3051.47
642.11	3262.41
642.30	3364.81
642.49	3100.62
642.68	3166.16
642.87	3553.23
643.06	3528.65
643.25	2994.13
643.44	3094.48
643.63	3405.77
643.82	3573.71
644.00	3147.73
644.19	3192.78
644.38	3266.51
644.57	3565.51
644.76	3155.92
644.95	3248.08
645.14	3432.40
645.33	3368.91
645.52	3305.42
645.71	3043.28
645.89	3260.37
646.08	3381.20
646.27	3172.30
646.46	3360.72
646.65	3133.39
646.84	3502.03
647.03	3125.20
647.22	3330.00
647.40	3516.36
647.59	3358.67
647.78	2985.94
647.97	3106.77
648.16	3239.89
648.35	3712.97
648.54	3442.64
648.73	3190.74
648.91	3604.42
649.10	3450.83
649.29	3020.75
649.48	3078.10
649.67	3481.55
649.86	3399.63
650.05	3225.55
650.23	3293.13
650.42	3344.33
650.61	3708.87
650.80	3442.64
650.99	3409.87
651.18	3588.04
651.36	3663.82
651.55	3092.43
651.74	3409.87
651.93	3313.61
652.12	3520.46
652.31	3221.45
652.49	3215.31
652.68	3411.92
652.87	3690.44
653.06	3360.72
653.25	3491.79
653.44	3438.54
653.62	3708.87
653.81	3233.74
654.00	3250.13
654.19	3540.94
654.38	4028.35
654.56	3342.28
654.75	3139.54
654.94	3631.05
655.13	3446.73
655.32	3155.92
655.51	3231.69
655.69	3315.66
655.88	3600.33
656.07	2996.18
656.26	3172.30
656.45	3221.45
656.63	3436.49
656.82	3184.59
657.01	3475.40
657.20	3346.38
657.38	3770.31
657.57	3149.78
657.76	3094.48
657.95	3647.43
658.14	3313.61
658.32	3297.23
658.51	3012.56
658.70	3520.46
658.89	3485.64
659.08	3215.31
659.26	3403.72
659.45	3311.57
659.64	3540.94
659.83	3217.36
660.01	3540.94
660.20	3420.11
660.39	3764.17
660.58	2885.59
660.76	3243.98
660.95	3086.29
661.14	3502.03
661.33	3035.09
661.51	3129.30
661.70	3321.81
661.89	3520.46
662.08	3280.85
662.26	3037.14
662.45	3203.02
662.64	3805.13
662.83	3231.69
663.01	3004.37
663.20	3301.33
663.39	3780.55
663.58	3274.70
663.76	3104.72
663.95	3553.23
664.14	3164.11
664.32	3299.28
664.51	3061.71
664.70	3010.51
664.89	3495.88
665.07	3049.43
665.26	3291.09
665.45	3139.54
665.64	3510.22
665.82	3102.67
666.01	3373.00
666.20	3151.82
666.38	3626.95
666.57	3575.75
666.76	5748.65
666.95	12300.10
667.13	18611.94
667.32	22249.13
667.51	24520.33
667.69	25026.18
667.88	20420.30
668.07	15101.72
668.25	12967.74
668.44	11415.38
668.63	10147.69
668.81	8957.82
669.00	7493.52
669.19	7153.55
669.38	6260.64
669.56	5207.98
669.75	4698.04
669.94	4294.59
670.12	3735.50
670.31	3428.30
670.50	3381.20
670.68	3622.86
670.87	3493.83
671.06	3131.34
671.24	3239.89
671.43	3737.54
671.62	3514.31
671.80	3219.41
671.99	3223.50
672.18	3362.76
672.36	3643.34
672.55	3297.23
672.74	3276.75
672.92	3309.52
673.11	3512.27
673.29	3000.27
673.48	3422.16
673.67	3373.00
673.85	3643.34
674.04	3147.73
674.23	3317.71
674.41	3891.14
674.60	3227.60
674.79	2932.69
674.97	3000.27
675.16	3651.53
675.34	3651.53
675.53	3147.73
675.72	3211.22
675.90	3841.99
676.09	3358.67
676.28	3217.36
676.46	2992.08
676.65	3659.72
676.83	3229.65
677.02	3166.16
677.21	3293.13
677.39	3465.16
677.58	3172.30
677.77	3088.34
677.95	3106.77
678.14	3338.19
678.32	3317.71
678.51	3243.98
678.70	3436.49
678.88	3278.80
679.07	3526.60
679.25	3198.93
679.44	3217.36
679.63	3114.96
679.81	3497.93
680.00	3456.97
680.18	3264.46
680.37	3727.30
680.55	3436.49
680.74	2996.18
680.93	2975.70
681.11	3422.16
681.30	3463.12
681.48	3178.45
681.67	3200.98
681.85	3430.35
682.04	3207.12
682.23	3362.76
682.41	3344.33
682.60	3413.96
682.78	3291.09
682.97	3119.06
683.15	3278.80
683.34	3463.12
683.53	3721.16
683.71	3030.99
683.90	3213.26
684.08	3811.27
684.27	3317.71
684.45	3321.81
684.64	3338.19
684.82	3373.00
685.01	3585.99
685.19	3221.45
685.38	3516.36
685.57	3401.68
685.75	3346.38
685.94	3188.69
686.12	3137.49
686.31	3397.58
686.49	3774.41
686.68	2967.51
686.86	3231.69
687.05	3338.19
687.23	3725.26
687.42	3174.35
687.60	3100.62
687.79	3540.94
687.97	3770.31
688.16	3295.18
688.34	3395.53
688.53	3149.78
688.71	3547.08
688.90	3510.22
689.08	3223.50
689.27	3117.01
689.45	3569.61
689.64	3352.52
689.82	3278.80
690.01	3528.65
690.19	3481.55
690.38	3276.75
690.56	3282.89
690.75	3299.28
690.93	3354.57
691.12	3143.63
691.30	3274.70
691.49	3373.00
691.67	3430.35
691.86	3583.95
692.04	3155.92
692.23	3354.57
692.41	3459.02
692.60	3547.08
692.78	3397.58
692.97	3407.82
693.15	3624.90
693.34	3405.77
693.52	3409.87
693.71	3233.74
693.89	3280.85
694.08	3065.81
694.26	3194.83
694.44	3626.95
694.63	3545.03
694.81	3086.29
695.00	3246.03
695.18	3727.30
695.37	3928.00
695.55	3278.80
695.74	3354.57
695.92	3368.91
696.10	3764.17
696.29	3094.48
696.47	3239.89
696.66	3184.59
696.84	3203.02
697.03	3270.61
697.21	3459.02
697.40	4763.58
697.58	3657.67
697.76	3104.72
697.95	3221.45
698.13	3143.63
698.32	3299.28
698.50	3121.10
698.68	3114.96
698.87	3502.03
699.05	3837.89
699.24	3153.87
699.42	3174.35
699.61	3540.94
699.79	3467.21
699.97	3295.18
700.16	3008.47
700.34	3133.39
700.53	3473.36
700.71	3428.30
700.89	3274.70
701.08	3336.14
701.26	3491.79
701.45	3547.08
701.63	3229.65
701.81	3280.85
702.00	3254.22
702.18	3270.61
702.37	3172.30
702.55	3706.82
702.73	3524.55
702.92	3213.26
703.10	3510.22
703.28	3532.75
703.47	3168.21
703.65	3422.16
703.84	3311.57
704.02	3336.14
704.20	3719.11
704.39	3139.54
704.57	3106.77
704.75	3626.95
704.94	3532.75
705.12	3387.34
705.30	3983.30
705.49	7952.26
705.67	14135.08
705.86	19062.49
706.04	21262.01
706.22	23166.62
706.41	21769.91
706.59	16523.01
706.77	13313.84
706.96	11339.60
707.14	10803.04
707.32	9254.77
707.51	8058.76
707.69	6672.28
707.87	5824.42
708.06	4806.58
708.24	4175.81
708.42	4085.70
708.61	4302.78
708.79	3274.70
708.97	3393.48
709.16	3516.36
709.34	3403.72
709.52	3262.41
709.71	3299.28
709.89	3596.23
710.07	3309.52
710.26	3092.43
710.44	3166.16
710.62	3641.29
710.80	3446.73
710.99	3315.66
711.17	3270.61
711.35	3221.45
711.54	3278.80
711.72	3473.36
711.90	3237.84
712.09	3542.99
712.27	3307.47
712.45	3284.94
712.63	3194.83
712.82	3450.83
713.00	3411.92
713.18	3334.09
713.37	3393.48
713.55	3549.13
713.73	3518.41
713.91	3280.85
714.10	3211.22
714.28	3401.68
714.46	3524.55
714.65	3416.01
714.83	3264.46
715.01	3381.20
715.19	3475.40
715.38	3135.44
715.56	3352.52
715.74	3323.85
715.92	3280.85
716.11	3577.80
716.29	3033.04
716.47	3487.69
716.65	3334.09
716.84	3012.56
717.02	3184.59
717.20	3074.00
717.38	3352.52
717.57	3352.52
717.75	3266.51
717.93	3352.52
718.11	3581.90
718.30	3045.33
718.48	3239.89
718.66	3739.59
718.84	3631.05
719.03	3278.80
719.21	3106.77
719.39	3854.28
719.57	3514.31
719.75	3368.91
719.94	3110.86
720.12	3352.52
720.30	3416.01
720.48	3155.92
720.67	3151.82
720.85	3221.45
721.03	3368.91
721.21	3141.58
721.39	3297.23
721.58	3491.79
721.76	3416.01
721.94	3190.74
722.12	3370.96
722.30	3753.93
722.49	3284.94
722.67	3237.84
722.85	3272.65
723.03	3188.69
723.21	3293.13
723.40	3180.50
723.58	3373.00
723.76	3563.47
723.94	3622.86
724.12	3354.57
724.30	3440.59
724.49	3637.19
724.67	3155.92
724.85	3243.98
725.03	3112.91
725.21	3575.75
725.40	3717.06
725.58	3194.83
725.76	3411.92
725.94	3532.75
726.12	3221.45
726.30	3291.09
726.49	3100.62
726.67	3266.51
726.85	3663.82
727.03	4102.08
727.21	4827.06
727.39	6016.93
727.57	6360.99
727.76	6737.82
727.94	6735.77
728.12	5910.44
728.30	5097.39
728.48	4700.09
728.66	4493.24
728.84	4384.70
729.03	3938.24
729.21	3663.82
729.39	3526.60
729.57	3463.12
729.75	3516.36
729.93	3467.21
730.11	3057.62
730.30	3327.95
730.48	3330.00
730.66	3198.93
730.84	3286.99
731.02	3487.69
731.20	3403.72
731.38	3196.88
731.56	3123.15
731.74	3153.87
731.93	3485.64
732.11	3266.51
732.29	3213.26
732.47	3577.80
732.65	3430.35
732.83	3401.68
733.01	3286.99
733.19	3297.23
733.37	3528.65
733.56	3286.99
733.74	3141.58
733.92	3661.77
734.10	3497.93
734.28	3377.10
734.46	2965.46
734.64	3422.16
734.82	3338.19
735.00	3207.12
735.18	3141.58
735.36	3422.16
735.54	3461.07
735.73	3143.63
735.91	3411.92
736.09	3780.55
736.27	3391.44
736.45	3299.28
736.63	2955.22
736.81	3270.61
736.99	3758.02
737.17	3385.29
737.35	3106.77
737.53	3499.98
737.71	3442.64
737.89	3454.92
738.07	3182.54
738.25	3229.65
738.43	3076.05
738.61	3223.50
738.80	3174.35
738.98	3215.31
739.16	3254.22
739.34	3258.32
739.52	3495.88
739.70	3381.20
739.88	3643.34
740.06	3368.91
740.24	2981.84
740.42	3616.71
740.60	2963.41
740.78	3151.82
740.96	2914.26
741.14	3383.24
741.32	3444.68
741.50	3026.90
741.68	3424.20
741.86	3717.06
742.04	3276.75
742.22	3100.62
742.40	3155.92
742.58	3553.23
742.76	3237.84
742.94	3422.16
743.12	3033.04
743.30	3336.14
743.48	3590.09
743.66	3086.29
743.84	3274.70
744.02	3393.48
744.20	3442.64
744.38	3131.34
744.56	3160.02
744.74	3835.85
744.92	3538.89
745.10	3454.92
745.28	3280.85
745.46	3809.22
745.64	3389.39
745.82	3307.47
746.00	3157.97
746.18	3479.50
746.36	3196.88
746.54	3237.84
746.72	3229.65
746.90	3243.98
747.08	3731.40
747.26	3164.11
747.44	3307.47
747.62	3622.86
747.80	3502.03
747.98	3344.33
748.15	3215.31
748.33	3921.86
748.51	3461.07
748.69	3264.46
748.87	3098.58
749.05	3356.62
749.23	3393.48
749.41	3217.36
749.59	3149.78
749.77	3626.95
749.95	3463.12
750.13	3246.03
750.31	3266.51
750.49	3401.68
750.67	3592.14
750.85	3344.33
751.03	3188.69
751.20	3901.38
751.38	3387.34
751.56	3237.84
751.74	3194.83
751.92	3338.19
752.10	3264.46
752.28	3413.96
752.46	3200.98
752.64	3364.81
752.82	3461.07
753.00	3282.89
753.18	3090.38
753.35	3323.85
753.53	3413.96
753.71	3143.63
753.89	3250.13
754.07	3532.75
754.25	3690.44
754.43	3309.52
754.61	3123.15
754.79	3528.65
754.97	3360.72
755.14	3450.83
755.32	3035.09
755.50	3467.21
755.68	3473.36
755.86	3186.64
756.04	3141.58
756.22	3104.72
756.40	3647.43
756.57	3395.53
756.75	3125.20
756.93	3655.62
757.11	3639.24
757.29	3059.67
757.47	3082.19
757.65	3153.87
757.82	3106.77
758.00	3147.73
758.18	3110.86
758.36	3307.47
758.54	3864.52
758.72	3035.09
758.90	3301.33
759.07	3647.43
759.25	3190.74
759.43	3295.18
759.61	3045.33
759.79	4603.83
759.97	3698.63
760.15	3225.55
760.32	3205.07
760.50	3598.28
760.68	3755.97
760.86	3008.47
761.04	3420.11
761.22	3569.61
761.39	3393.48
761.57	3317.71
761.75	3260.37
761.93	3577.80
762.11	3377.10
762.28	3319.76
762.46	3100.62
762.64	3719.11
762.82	3141.58
763.00	3076.05
763.18	3422.16
763.35	3217.36
763.53	3526.60
763.71	3280.85
763.89	3065.81
764.07	3508.17
764.24	3442.64
764.42	3323.85
764.60	3305.42
764.78	3608.52
764.96	3651.53
765.13	3344.33
765.31	3086.29
765.49	3585.99
765.67	3203.02
765.84	3170.26
766.02	3108.82
766.20	3127.25
766.38	3475.40
766.56	3330.00
766.73	3286.99
766.91	3424.20
767.09	3499.98
767.27	3256.27
767.44	3145.68
767.62	3608.52
767.80	3495.88
767.98	3080.14
768.15	3180.50
768.33	3618.76
768.51	3573.71
768.69	3368.91
768.87	3196.88
769.04	3391.44
769.22	4030.40
769.40	3348.43
769.58	3377.10
769.75	3479.50
769.93	3764.17
770.11	3172.30
770.28	3051.47
770.46	3647.43
770.64	3516.36
770.82	3293.13
770.99	3143.63
771.17	3674.06
771.35	3426.25
771.53	3291.09
771.70	3100.62
771.88	3530.70
772.06	3325.90
772.23	3203.02
772.41	3160.02
772.59	3448.78
772.77	3196.88
772.94	3282.89
773.12	3315.66
773.30	3340.24
773.47	3532.75
773.65	3106.77
773.83	3336.14
774.01	3420.11
774.18	3047.38
774.36	3149.78
774.54	3065.81
774.71	3475.40
774.89	3133.39
775.07	3080.14
775.24	3192.78
775.42	3405.77
775.60	3856.33
775.78	3143.63
775.95	3047.38
776.13	3053.52
776.31	3147.73
776.48	3385.29
776.66	3379.15
776.84	3356.62
777.01	3200.98
777.19	3119.06
777.37	3061.71
777.54	3590.09
777.72	3805.13
777.90	3233.74
778.07	3166.16
778.25	4171.71
778.43	3749.83
778.60	3205.07
778.78	3291.09
778.96	3758.02
779.13	3246.03
779.31	3243.98
779.49	3330.00
779.66	3481.55
779.84	3422.16
780.01	3209.17
780.19	3129.30
780.37	3712.97
780.54	3602.38
780.72	2985.94
780.90	3246.03
781.07	3409.87
781.25	3315.66
781.43	3366.86
781.60	3090.38
781.78	3782.60
781.95	3448.78
782.13	3184.59
782.31	3217.36
782.48	3037.14
782.66	3479.50
782.83	3413.96
783.01	3362.76
783.19	3592.14
783.36	3311.57
783.54	3086.29
783.72	3254.22
783.89	3370.96
784.07	3444.68
784.24	3319.76
784.42	3330.00
784.60	3536.84
784.77	3551.18
784.95	2947.03
785.12	3088.34
785.30	3434.44
785.47	3315.66
785.65	3127.25
785.83	3213.26
786.00	3315.66
786.18	3418.06
786.35	3100.62
786.53	3176.40
786.71	3798.98
786.88	3463.12
787.06	3252.17
787.23	3256.27
787.41	3223.50
787.58	3334.09
787.76	3045.33
787.94	3223.50
788.11	3575.75
788.29	3016.66
788.46	3295.18
788.64	3082.19
788.81	3332.05
788.99	3194.83
789.16	3141.58
789.34	3207.12
789.52	3223.50
789.69	3289.04
789.87	3018.71
790.04	3164.11
790.22	3348.43
790.39	3807.17
790.57	3100.62
790.74	3049.43
790.92	3723.21
791.09	3119.06
791.27	3274.70
791.44	3237.84
791.62	3403.72
791.79	3598.28
791.97	3309.52
792.15	3549.13
792.32	3614.66
792.50	3639.24
792.67	3411.92
792.85	3471.31
793.02	3418.06
793.20	3319.76
793.37	3086.29
793.55	3168.21
793.72	3160.02
793.90	3633.10
794.07	3147.73
794.25	3168.21
794.42	3499.98
794.60	3370.96
794.77	3252.17
794.95	3340.24
795.12	3557.32
795.30	3416.01
795.47	2955.22
795.65	3553.23
795.82	3444.68
796.00	3321.81
796.17	3344.33
796.34	3106.77
796.52	3575.75
796.69	3704.78
796.87	3360.72
797.04	3293.13
797.22	3602.38
797.39	3450.83
797.57	3399.63
797.74	3299.28
797.92	3534.79
798.09	3284.94
798.27	3491.79
798.44	3166.16
798.62	3258.32
798.79	3508.17
798.96	3321.81
799.14	3088.34
799.31	4026.31
799.49	3444.68
799.66	3209.17
799.84	3254.22
800.01	3129.30
800.19	3491.79
800.36	2942.93
800.53	3186.64
800.71	3495.88
800.88	3860.42
801.06	3162.06
801.23	3108.82
801.41	3336.14
801.58	3432.40
801.75	3170.26
801.93	3250.13
802.10	3678.15
802.28	3407.82
802.45	3221.45
802.63	3246.03
802.80	3704.78
802.97	3424.20
803.15	3170.26
803.32	3127.25
803.50	3180.50
803.67	3383.24
803.84	3176.40
804.02	3327.95
804.19	3282.89
804.37	3004.37
804.54	3074.00
804.71	3149.78
804.89	3356.62
805.06	3225.55
805.24	3078.10
805.41	3030.99
805.58	3360.72
805.76	4016.07
805.93	3164.11
806.10	3319.76
806.28	3549.13
806.45	3469.26
806.63	3348.43
806.80	3143.63
806.97	3534.79
807.15	3495.88
807.32	3274.70
807.49	3174.35
807.67	3129.30
807.84	3577.80
808.01	3004.37
808.19	3338.19
808.36	3848.13
808.54	3332.05
808.71	3211.22
808.88	3170.26
809.06	3721.16
809.23	3751.88
809.40	3278.80
809.58	3145.68
809.75	3424.20
809.92	3184.59
810.10	3440.59
810.27	3180.50
810.44	3559.37
810.62	3583.95
810.79	3176.40
810.96	3268.56
811.14	3295.18
811.31	3639.24
811.48	3379.15
811.66	3227.60
811.83	3641.29
812.00	3575.75
812.18	3276.75
812.35	3504.07
812.52	3325.90
812.69	3239.89
812.87	3119.06
813.04	3164.11
813.21	3413.96
813.39	3282.89
813.56	3123.15
813.73	3487.69
813.91	3143.63
814.08	3444.68
814.25	3250.13
814.42	3037.14
814.60	3330.00
814.77	3491.79
814.94	3088.34
815.12	3250.13
815.29	3823.56
815.46	3327.95
815.63	3239.89
815.81	3174.35
815.98	3440.59
816.15	3289.04
816.33	3254.22
816.50	3182.54
816.67	3379.15
816.84	3409.87
817.02	3188.69
817.19	3205.07
817.36	3465.16
817.53	3514.31
817.71	3067.86
817.88	3170.26
818.05	3399.63
818.22	3356.62
818.40	3344.33
818.57	3176.40
818.74	3536.84
818.91	3323.85
819.09	3405.77
819.26	3278.80
819.43	3231.69
819.60	3307.47
819.78	3436.49
819.95	3200.98
820.12	3153.87
820.29	3760.07
820.47	3504.07
820.64	3102.67
820.81	3196.88
820.98	3278.80
821.15	3239.89
821.33	3373.00
821.50	3053.52
821.67	3540.94
821.84	3071.95
822.02	3170.26
822.19	3575.75
822.36	3401.68
822.53	3016.66
822.70	3147.73
822.88	3344.33
823.05	3676.10
823.22	3282.89
823.39	3270.61
823.56	3413.96
823.74	3788.74
823.91	3047.38
824.08	3057.62
824.25	3239.89
824.42	3815.37
824.60	3014.61
824.77	3299.28
824.94	3393.48
825.11	3555.27
825.28	3076.05
825.45	3352.52
825.63	3493.83
825.80	3246.03
825.97	3272.65
826.14	3213.26
826.31	3153.87
826.48	3585.99
826.66	3086.29
826.83	3143.63
827.00	3418.06
827.17	3151.82
827.34	3176.40
827.51	3129.30
827.69	3364.81
827.86	3149.78
828.03	3239.89
828.20	3256.27
828.37	3377.10
828.54	3526.60
828.71	3112.91
828.89	3303.37
829.06	3508.17
829.23	3686.34
829.40	3182.54
829.57	3131.34
829.74	3655.62
829.91	3209.17
830.09	3147.73
830.26	3286.99
830.43	3837.89
830.60	3387.34
830.77	3299.28
830.94	3395.53
831.11	3651.53
831.28	3350.48
831.46	3397.58
831.63	3180.50
831.80	3649.48
831.97	3225.55
832.14	3262.41
832.31	3278.80
832.48	3426.25
832.65	3633.10
832.82	3370.96
832.99	3256.27
833.17	3145.68
833.34	3717.06
833.51	3110.86
833.68	3020.75
833.85	3715.02
834.02	3237.84
834.19	3117.01
834.36	3239.89
834.53	3383.24
834.70	3626.95
834.87	3162.06
835.04	2901.97
835.22	3256.27
835.39	3375.05
835.56	2955.22
835.73	3018.71
835.90	3721.16
836.07	3207.12
836.24	3207.12
836.41	3043.28
836.58	3223.50
836.75	3680.20
836.92	3065.81
837.09	2897.88
837.26	3614.66
837.43	3588.04
837.60	3033.04
837.77	3035.09
837.94	3637.19
838.12	3690.44
838.29	2926.55
838.46	2936.79
838.63	3143.63
838.80	3798.98
838.97	3049.43
839.14	3035.09
839.31	3506.12
839.48	3542.99
839.65	2924.50
839.82	3047.38
839.99	3487.69
840.16	3456.97
840.33	2920.40
840.50	3106.77
840.67	3209.17
840.84	3010.51
841.01	2926.55
841.18	3033.04
841.35	3426.25
841.52	3565.51
841.69	3393.48
841.86	3092.43
842.03	3307.47
842.20	3608.52
842.37	2936.79
842.54	3065.81
842.71	3323.85
842.88	3166.16
843.05	3012.56
843.22	2983.89
843.39	3663.82
843.56	3250.13
843.73	2992.08
843.90	3053.52
844.07	3473.36
844.24	3590.09
844.41	3065.81
844.58	3049.43
844.75	3434.44
844.92	3542.99
845.09	3069.91
845.26	2959.31
845.43	3559.37
845.60	3336.14
845.77	3125.20
845.94	3108.82
846.10	3581.90
846.27	3067.86
846.44	2877.40
846.61	2938.84
846.78	3489.74
846.95	3557.32
847.12	2918.36
847.29	3069.91
847.46	3237.84
847.63	3645.38
847.80	2930.64
847.97	3030.99
848.14	3905.48
848.31	3397.58
848.48	2932.69
848.65	3076.05
848.82	3299.28
848.98	4005.83
849.15	3098.58
849.32	3133.39
849.49	3672.01
849.66	3440.59
849.83	3035.09
850.00	2938.84
850.17	3635.14
850.34	3323.85
850.51	2983.89
850.68	3024.85
850.85	3928.00
851.01	3487.69
851.18	2967.51
851.35	3067.86
851.52	3424.20
851.69	3688.39
851.86	3010.51
852.03	3061.71
852.20	3631.05
852.37	3379.15
852.53	2918.36
852.70	2885.59
852.87	3493.83
853.04	3596.23
853.21	3002.32
853.38	3338.19
853.55	3844.04
853.72	3665.86
853.89	2912.21
854.05	2983.89
854.22	3389.39
854.39	3321.81
854.56	2922.45
854.73	3131.34
854.90	3225.55
855.07	3422.16
855.23	2926.55
855.40	2895.83
855.57	3381.20
855.74	2983.89
855.91	3176.40
856.08	2850.77
856.25	3125.20
856.41	3280.85
856.58	2996.18
856.75	2969.55
856.92	3209.17
857.09	3637.19
857.26	2779.09
857.42	3088.34
857.59	3545.03
857.76	3381.20
857.93	2942.93
858.10	3082.19
858.27	3225.55
858.43	3428.30
858.60	3004.37
858.77	2904.02
858.94	3319.76
859.11	3651.53
859.27	3084.24
859.44	2899.92
859.61	3897.28
859.78	3569.61
859.95	3041.23
860.12	2947.03
860.28	3856.33
860.45	3764.17
860.62	2940.88
860.79	3231.69
860.95	3262.41
861.12	3207.12
861.29	2871.25
861.46	3008.47
861.63	3393.48
861.79	3454.92
861.96	2901.97
862.13	2975.70
862.30	3741.64
862.47	3221.45
862.63	2879.44
862.80	3022.80
862.97	3594.19
863.14	3479.50
863.30	3141.58
863.47	2979.79
863.64	3755.97
863.81	3491.79
863.97	2992.08
864.14	3045.33
864.31	3463.12
864.48	3391.44
864.65	3067.86
864.81	3098.58
864.98	3563.47
865.15	3631.05
865.32	3125.20
865.48	3131.34
865.65	3760.07
865.82	3311.57
865.98	3123.15
866.15	3106.77
866.32	3305.42
866.49	3364.81
866.65	3209.17
866.82	3033.04
866.99	3502.03
867.16	3262.41
867.32	2963.41
867.49	2926.55
867.66	3364.81
867.83	3291.09
867.99	2920.40
868.16	3049.43
868.33	3133.39
868.49	3493.83
868.66	2977.75
868.83	3137.49
868.99	3422.16
869.16	3510.22
869.33	3104.72
869.50	3098.58
869.66	3364.81
869.83	3295.18
870.00	2910.16
870.16	3098.58
870.33	3438.54
870.50	3667.91
870.66	3139.54
870.83	3059.67
871.00	3407.82
871.17	3633.10
871.33	3108.82
871.50	2947.03
871.67	3401.68
871.83	3213.26
872.00	3037.14
872.17	3024.85
872.33	3841.99
872.50	3672.01
872.67	3051.47
872.83	2975.70
873.00	3553.23
873.17	3413.96
873.33	3114.96
873.50	2951.12
873.67	3313.61
873.83	3207.12
874.00	2977.75
874.16	3241.93
874.33	3483.59
874.50	3145.68
874.66	2979.79
874.83	3057.62
875.00	3702.73
875.16	3663.82
875.33	3119.06
875.50	2797.53
875.66	3301.33
875.83	3459.02
875.99	3037.14
876.16	3135.44
876.33	3209.17
876.49	3352.52
876.66	3141.58
876.83	3110.86
876.99	3098.58
877.16	3387.34
877.32	2975.70
877.49	3094.48
877.66	3598.28
877.82	3694.54
877.99	3004.37
878.15	3309.52
878.32	3516.36
878.49	3540.94
878.65	3039.19
878.82	3248.08
878.98	3297.23
879.15	3590.09
879.32	3209.17
879.48	3229.65
879.65	3375.05
879.81	3379.15
879.98	3088.34
880.15	3082.19
880.31	3559.37
880.48	3219.41
880.64	3139.54
880.81	3174.35
880.97	3805.13
881.14	3692.49
881.31	3008.47
881.47	3225.55
881.64	3375.05
881.80	3065.81
881.97	3266.51
882.13	2987.99
882.30	3166.16
882.47	3344.33
882.63	3071.95
882.80	2940.88
882.96	3340.24
883.13	3624.90
883.29	3065.81
883.46	2961.36
883.62	3878.85
883.79	3418.06
883.95	3239.89
884.12	2961.36
884.29	3631.05
884.45	3432.40
884.62	3057.62
884.78	2967.51
884.95	3835.85
885.11	3246.03
885.28	3121.10
885.44	3059.67
885.61	3508.17
885.77	3706.82
885.94	3203.02
886.10	3123.15
886.27	3518.41
886.43	3864.52
886.60	3323.85
886.76	2990.03
886.93	3280.85
887.09	3434.44
887.26	2947.03
887.42	3076.05
887.59	3715.02
887.75	3952.58
887.92	3332.05
888.08	3188.69
888.25	3811.27
888.41	3639.24
888.58	3078.10
888.74	2975.70
888.91	3352.52
>>>>>End Processed Spectral Data<<<<<
