SpectraSuite Data File
++++++++++++++++++++++++++++++++++++
Date: Fri May 06 09:28:23 CEST 2016
User: root
Dark Spectrum Present: No
Reference Spectrum Present: No
Number of Sampled Component Spectra: 1
Spectrometers: USB4C02835
Integration Time (usec): 100000 (USB4C02835)
Spectra Averaged: 1 (USB4C02835)
Boxcar Smoothing: 0 (USB4C02835)
Correct for Electrical Dark: No (USB4C02835)
Strobe/Lamp Enabled: No (USB4C02835)
Correct for Detector Non-linearity: No (USB4C02835)
Correct for Stray Light: No (USB4C02835)
Number of Pixels in Processed Spectrum: 3648
>>>>>Begin Processed Spectral Data<<<<<
177.47	2361.31
177.69	2361.31
177.91	2361.31
178.13	2295.77
178.36	2285.53
178.58	3078.10
178.80	3305.42
179.02	2987.99
179.24	3172.30
179.46	2818.00
179.68	2934.74
179.90	3401.68
180.13	3444.68
180.35	2779.09
180.57	2775.00
180.79	3653.58
181.01	3370.96
181.23	2928.60
181.45	3055.57
181.67	3590.09
181.90	3508.17
182.12	3139.54
182.34	2797.53
182.56	3598.28
182.78	3557.32
183.00	2981.84
183.22	2940.88
183.44	3117.01
183.66	4151.23
183.89	3088.34
184.11	2926.55
184.33	3649.48
184.55	3692.49
184.77	2932.69
184.99	2969.55
185.21	3334.09
185.43	4100.03
185.65	2963.41
185.87	2955.22
186.10	3997.64
186.32	4042.69
186.54	3207.12
186.76	3074.00
186.98	3706.82
187.20	3368.91
187.42	2975.70
187.64	2959.31
187.86	3516.36
188.08	3796.93
188.30	2787.29
188.52	3000.27
188.75	3672.01
188.97	3794.89
189.19	2942.93
189.41	2881.49
189.63	3622.86
189.85	3452.88
190.07	2793.43
190.29	2881.49
190.51	3590.09
190.73	3151.82
190.95	3211.22
191.17	2944.98
191.39	3121.10
191.61	3250.13
191.84	2994.13
192.06	3098.58
192.28	3182.54
192.50	4188.10
192.72	3207.12
192.94	2987.99
193.16	3723.21
193.38	3485.64
193.60	2867.16
193.82	3157.97
194.04	3655.62
194.26	3612.62
194.48	2957.27
194.70	2926.55
194.92	3362.76
195.14	3598.28
195.36	2854.87
195.58	3057.62
195.80	3397.58
196.02	3356.62
196.24	2910.16
196.46	3008.47
196.69	3450.83
196.91	3882.95
197.13	3010.51
197.35	3041.23
197.57	3774.41
197.79	3680.20
198.01	3033.04
198.23	2987.99
198.45	3555.27
198.67	3207.12
198.89	2842.58
199.11	3090.38
199.33	3276.75
199.55	2975.70
199.77	2887.64
199.99	3063.76
200.21	3428.30
200.43	3635.14
200.65	2889.68
200.87	2709.46
201.09	3534.79
201.31	3418.06
201.53	3057.62
201.75	2998.23
201.97	3463.12
202.19	3452.88
202.41	3125.20
202.63	3049.43
202.85	3600.33
203.07	3561.42
203.29	3114.96
203.51	2861.01
203.73	3274.70
203.95	4093.89
204.17	2955.22
204.39	3188.69
204.61	3477.45
204.83	3336.14
205.05	3186.64
205.27	2959.31
205.49	3977.16
205.71	3497.93
205.93	2770.90
206.15	2901.97
206.37	3471.31
206.59	3456.97
206.81	2770.90
207.03	2861.01
207.25	3352.52
207.47	3633.10
207.69	2932.69
207.91	3147.73
208.13	3788.74
208.34	3282.89
208.56	2994.13
208.78	3008.47
209.00	3352.52
209.22	3366.86
209.44	3024.85
209.66	2926.55
209.88	3508.17
210.10	3368.91
210.32	2922.45
210.54	3018.71
210.76	3311.57
210.98	3690.44
211.20	2858.96
211.42	3117.01
211.64	3772.36
211.86	3565.51
212.08	2981.84
212.30	3010.51
212.52	3428.30
212.74	3555.27
212.96	3106.77
213.17	3090.38
213.39	3590.09
213.61	3917.76
213.83	2967.51
214.05	2932.69
214.27	3631.05
214.49	3282.89
214.71	2934.74
214.93	3098.58
215.15	3495.88
215.37	3723.21
215.59	2799.57
215.81	3041.23
216.03	3784.65
216.24	3452.88
216.46	3016.66
216.68	2971.60
216.90	3643.34
217.12	3739.59
217.34	2889.68
217.56	3243.98
217.78	3792.84
218.00	3629.00
218.22	3037.14
218.44	3016.66
218.66	3514.31
218.87	3866.56
219.09	3035.09
219.31	3008.47
219.53	3549.13
219.75	3360.72
219.97	3082.19
220.19	3010.51
220.41	3395.53
220.63	3753.93
220.85	2914.26
221.06	2940.88
221.28	3864.52
221.50	3575.75
221.72	2936.79
221.94	2858.96
222.16	3459.02
222.38	3620.81
222.60	2971.60
222.82	3008.47
223.03	3585.99
223.25	3196.88
223.47	2918.36
223.69	3203.02
223.91	3604.42
224.13	3450.83
224.35	2848.72
224.57	3192.78
224.78	3622.86
225.00	3119.06
225.22	3014.61
225.44	2908.12
225.66	3608.52
225.88	3342.28
226.10	3069.91
226.32	3024.85
226.53	3819.46
226.75	3358.67
226.97	3049.43
227.19	2893.78
227.41	3303.37
227.63	3393.48
227.85	2752.47
228.06	3020.75
228.28	3508.17
228.50	3706.82
228.72	2791.38
228.94	2924.50
229.16	3100.62
229.37	3176.40
229.59	2883.54
229.81	3188.69
230.03	3448.78
230.25	3139.54
230.47	2811.86
230.69	2992.08
230.90	3594.19
231.12	3256.27
231.34	3033.04
231.56	3028.95
231.78	3268.56
232.00	3426.25
232.21	3067.86
232.43	3020.75
232.65	2987.99
232.87	3549.13
233.09	2813.91
233.30	2854.87
233.52	3676.10
233.74	3426.25
233.96	2985.94
234.18	3145.68
234.40	3403.72
234.61	3964.87
234.83	2746.33
235.05	3041.23
235.27	4054.98
235.49	3743.69
235.70	2844.63
235.92	2942.93
236.14	3588.04
236.36	4034.50
236.58	2908.12
236.79	3008.47
237.01	3491.79
237.23	3413.96
237.45	3196.88
237.67	3110.86
237.88	3606.47
238.10	3712.97
238.32	2877.40
238.54	2914.26
238.76	3469.26
238.97	3227.60
239.19	2832.34
239.41	3051.47
239.63	3733.45
239.85	3356.62
240.06	2961.36
240.28	2942.93
240.50	3665.86
240.72	3508.17
240.93	2881.49
241.15	3086.29
241.37	3411.92
241.59	3860.42
241.81	2994.13
242.02	3045.33
242.24	3551.18
242.46	3620.81
242.68	2828.24
242.89	2895.83
243.11	3641.29
243.33	3452.88
243.55	2965.46
243.76	2926.55
243.98	3295.18
244.20	3362.76
244.42	3016.66
244.64	2928.60
244.85	3239.89
245.07	3233.74
245.29	3016.66
245.51	3045.33
245.72	3530.70
245.94	3629.00
246.16	2883.54
246.38	2983.89
246.59	3377.10
246.81	3264.46
247.03	2772.95
247.24	2799.57
247.46	3332.05
247.68	3532.75
247.90	2891.73
248.11	3039.19
248.33	3532.75
248.55	3411.92
248.77	2981.84
248.98	3102.67
249.20	3862.47
249.42	3502.03
249.64	2944.98
249.85	2947.03
250.07	3420.11
250.29	3573.71
250.50	3071.95
250.72	2861.01
250.94	3530.70
251.16	3960.77
251.37	3006.42
251.59	3022.80
251.81	3536.84
252.02	3686.34
252.24	2856.92
252.46	3106.77
252.68	3340.24
252.89	3274.70
253.11	2807.77
253.33	3137.49
253.54	3831.75
253.76	3139.54
253.98	2975.70
254.20	2975.70
254.41	3155.92
254.63	3444.68
254.85	2869.20
255.06	3100.62
255.28	3551.18
255.50	3364.81
255.71	2918.36
255.93	2883.54
256.15	3385.29
256.36	3635.14
256.58	2856.92
256.80	2934.74
257.02	3370.96
257.23	3428.30
257.45	2951.12
257.67	3112.91
257.88	3383.24
258.10	3598.28
258.32	2940.88
258.53	3020.75
258.75	3811.27
258.97	3280.85
259.18	2844.63
259.40	2926.55
259.62	3819.46
259.83	3774.41
260.05	2985.94
260.27	3921.86
260.48	3645.38
260.70	3350.48
260.92	2789.33
261.13	3059.67
261.35	3540.94
261.57	3514.31
261.78	2799.57
262.00	2961.36
262.22	3680.20
262.43	3299.28
262.65	2926.55
262.86	3000.27
263.08	3973.06
263.30	3362.76
263.51	2777.05
263.73	2961.36
263.95	3837.89
264.16	3223.50
264.38	2879.44
264.60	2893.78
264.81	3413.96
265.03	3778.50
265.25	3448.78
265.46	2934.74
265.68	3704.78
265.89	3581.90
266.11	2803.67
266.33	2924.50
266.54	3688.39
266.76	3549.13
266.98	3059.67
267.19	3149.78
267.41	3672.01
267.62	3397.58
267.84	2768.85
268.06	3139.54
268.27	3479.50
268.49	3688.39
268.70	2996.18
268.92	2961.36
269.14	3243.98
269.35	3180.50
269.57	3131.34
269.79	3008.47
270.00	3338.19
270.22	3866.56
270.43	2881.49
270.65	2877.40
270.87	3493.83
271.08	3592.14
271.30	2977.75
271.51	2928.60
271.73	3688.39
271.95	3792.84
272.16	2893.78
272.38	3141.58
272.59	3383.24
272.81	3643.34
273.02	2881.49
273.24	3035.09
273.46	3739.59
273.67	3147.73
273.89	2793.43
274.10	2934.74
274.32	3637.19
274.54	3557.32
274.75	2973.65
274.97	3033.04
275.18	3684.30
275.40	3559.37
275.61	3024.85
275.83	3139.54
276.05	3239.89
276.26	3387.34
276.48	3117.01
276.69	3180.50
276.91	3344.33
277.12	3696.58
277.34	3139.54
277.55	3198.93
277.77	3444.68
277.99	3399.63
278.20	3102.67
278.42	2963.41
278.63	3307.47
278.85	3254.22
279.06	3049.43
279.28	3102.67
279.49	3606.47
279.71	3657.67
279.93	3061.71
280.14	3098.58
280.36	3164.11
280.57	3639.24
280.79	3174.35
281.00	2930.64
281.22	3301.33
281.43	3657.67
281.65	2965.46
281.86	2985.94
282.08	3569.61
282.29	3876.80
282.51	2959.31
282.73	3076.05
282.94	3098.58
283.16	3592.14
283.37	3194.83
283.59	3090.38
283.80	3493.83
284.02	3454.92
284.23	3215.31
284.45	3215.31
284.66	3332.05
284.88	3194.83
285.09	3067.86
285.31	3102.67
285.52	3540.94
285.74	3178.45
285.95	3266.51
286.17	3135.44
286.38	3712.97
286.60	3313.61
286.81	3086.29
287.03	3043.28
287.24	3456.97
287.46	3655.62
287.67	3237.84
287.89	3258.32
288.10	3495.88
288.32	3526.60
288.53	3207.12
288.75	3205.07
288.96	3585.99
289.18	3282.89
289.39	3020.75
289.61	3205.07
289.82	3878.85
290.04	3850.18
290.25	3012.56
290.47	3237.84
290.68	3373.00
290.90	3682.25
291.11	2918.36
291.33	3246.03
291.54	3340.24
291.76	3358.67
291.97	3309.52
292.18	3080.14
292.40	3350.48
292.61	3344.33
292.83	3434.44
293.04	3125.20
293.26	3559.37
293.47	3401.68
293.69	3014.61
293.90	2932.69
294.12	3688.39
294.33	3434.44
294.55	3223.50
294.76	3319.76
294.97	3786.69
295.19	3897.28
295.40	3117.01
295.62	3153.87
295.83	3663.82
296.05	3262.41
296.26	3336.14
296.48	3104.72
296.69	3432.40
296.90	3393.48
297.12	3203.02
297.33	3258.32
297.55	3438.54
297.76	3565.51
297.98	3205.07
298.19	3323.85
298.41	3465.16
298.62	3192.78
298.83	3330.00
299.05	3221.45
299.26	3364.81
299.48	3188.69
299.69	3166.16
299.90	3043.28
300.12	3340.24
300.33	3577.80
300.55	3114.96
300.76	3129.30
300.98	3231.69
301.19	3569.61
301.40	3051.47
301.62	3067.86
301.83	3540.94
302.05	3504.07
302.26	3039.19
302.47	3282.89
302.69	3256.27
302.90	3461.07
303.12	3020.75
303.33	3319.76
303.54	3891.14
303.76	3393.48
303.97	3028.95
304.19	3362.76
304.40	3241.93
304.61	3555.27
304.83	3203.02
305.04	3166.16
305.26	3567.56
305.47	3346.38
305.68	3149.78
305.90	2940.88
306.11	3694.54
306.33	3352.52
306.54	2926.55
306.75	3086.29
306.97	3090.38
307.18	3239.89
307.39	3053.52
307.61	3207.12
307.82	3463.12
308.04	3585.99
308.25	2928.60
308.46	3243.98
308.68	3440.59
308.89	3487.69
309.10	3229.65
309.32	3100.62
309.53	3381.20
309.74	3504.07
309.96	3057.62
310.17	3205.07
310.39	3291.09
310.60	3626.95
310.81	3200.98
311.03	2996.18
311.24	3629.00
311.45	3506.12
311.67	3348.43
311.88	3301.33
312.09	3360.72
312.31	3229.65
312.52	3047.38
312.73	3059.67
312.95	3157.97
313.16	3243.98
313.37	3225.55
313.59	3295.18
313.80	3606.47
314.01	3848.13
314.23	3028.95
314.44	3004.37
314.65	3223.50
314.87	3311.57
315.08	3076.05
315.29	3131.34
315.51	3237.84
315.72	3117.01
315.93	3100.62
316.15	3170.26
316.36	3354.57
316.57	3485.64
316.79	3061.71
317.00	2992.08
317.21	3661.77
317.43	3295.18
317.64	3131.34
317.85	3008.47
318.07	3330.00
318.28	3272.65
318.49	3180.50
318.70	3305.42
318.92	3448.78
319.13	3512.27
319.34	3280.85
319.56	3055.57
319.77	3452.88
319.98	3635.14
320.20	3323.85
320.41	3270.61
320.62	3622.86
320.83	3176.40
321.05	3370.96
321.26	3200.98
321.47	3436.49
321.69	3708.87
321.90	2914.26
322.11	3014.61
322.32	3506.12
322.54	3841.99
322.75	3174.35
322.96	4319.17
323.18	3074.00
323.39	3033.04
323.60	3000.27
323.81	3239.89
324.03	3381.20
324.24	3502.03
324.45	3241.93
324.66	3067.86
324.88	3690.44
325.09	3878.85
325.30	3082.19
325.52	3000.27
325.73	3536.84
325.94	3229.65
326.15	2940.88
326.37	2967.51
326.58	3616.71
326.79	3907.52
327.00	3067.86
327.22	3041.23
327.43	3385.29
327.64	3264.46
327.85	3221.45
328.07	3049.43
328.28	3899.33
328.49	3323.85
328.70	3086.29
328.92	3043.28
329.13	3356.62
329.34	3565.51
329.55	3362.76
329.76	3239.89
329.98	3377.10
330.19	3659.72
330.40	3213.26
330.61	3248.08
330.83	3604.42
331.04	3246.03
331.25	3168.21
331.46	3209.17
331.68	3139.54
331.89	3712.97
332.10	3131.34
332.31	2932.69
332.52	3506.12
332.74	3755.97
332.95	2951.12
333.16	3164.11
333.37	3588.04
333.58	3280.85
333.80	3082.19
334.01	2891.73
334.22	3422.16
334.43	3330.00
334.64	3004.37
334.86	3043.28
335.07	3256.27
335.28	3721.16
335.49	3008.47
335.70	3188.69
335.92	3745.73
336.13	3915.72
336.34	3065.81
336.55	3035.09
336.76	3590.09
336.98	2967.51
337.19	3182.54
337.40	3215.31
337.61	4057.03
337.82	3383.24
338.04	3223.50
338.25	2879.44
338.46	3450.83
338.67	3391.44
338.88	2942.93
339.09	3039.19
339.31	3354.57
339.52	3125.20
339.73	2992.08
339.94	3147.73
340.15	3590.09
340.36	3319.76
340.58	3102.67
340.79	3039.19
341.00	3629.00
341.21	3180.50
341.42	3348.43
341.63	3065.81
341.85	3614.66
342.06	3475.40
342.27	2987.99
342.48	3250.13
342.69	3176.40
342.90	3547.08
343.12	3526.60
343.33	2992.08
343.54	3618.76
343.75	3827.65
343.96	3260.37
344.17	3004.37
344.38	3330.00
344.60	3215.31
344.81	3078.10
345.02	3180.50
345.23	3733.45
345.44	4011.97
345.65	3176.40
345.86	3170.26
346.07	3344.33
346.29	3301.33
346.50	3229.65
346.71	3225.55
346.92	3712.97
347.13	3993.54
347.34	3164.11
347.55	2942.93
347.76	3626.95
347.98	3233.74
348.19	3254.22
348.40	3350.48
348.61	3321.81
348.82	3782.60
349.03	3241.93
349.24	3020.75
349.45	3786.69
349.66	3008.47
349.88	3074.00
350.09	2987.99
350.30	3811.27
350.51	3739.59
350.72	3309.52
350.93	3024.85
351.14	3336.14
351.35	3504.07
351.56	3104.72
351.77	3164.11
351.99	3524.55
352.20	3739.59
352.41	3260.37
352.62	2934.74
352.83	3368.91
353.04	3409.87
353.25	3110.86
353.46	3157.97
353.67	3663.82
353.88	3028.95
354.09	2979.79
354.30	3231.69
354.52	3696.58
354.73	3368.91
354.94	3018.71
355.15	3114.96
355.36	3960.77
355.57	3336.14
355.78	3067.86
355.99	3119.06
356.20	3368.91
356.41	3665.86
356.62	3270.61
356.83	3157.97
357.04	3739.59
357.25	3074.00
357.46	3086.29
357.68	3030.99
357.89	3194.83
358.10	3422.16
358.31	3139.54
358.52	3174.35
358.73	3243.98
358.94	3176.40
359.15	3106.77
359.36	3100.62
359.57	3354.57
359.78	3295.18
359.99	3354.57
360.20	2951.12
360.41	3409.87
360.62	3606.47
360.83	3184.59
361.04	3100.62
361.25	3573.71
361.46	3809.22
361.67	3213.26
361.88	3082.19
362.09	3692.49
362.30	3518.41
362.51	3033.04
362.72	3168.21
362.93	3555.27
363.14	3483.59
363.35	3190.74
363.56	2998.23
363.78	3735.50
363.99	3577.80
364.20	3086.29
364.41	3157.97
364.62	3786.69
364.83	3518.41
365.04	3114.96
365.25	3153.87
365.46	3954.63
365.67	3295.18
365.88	3352.52
366.09	3020.75
366.30	3319.76
366.51	3459.02
366.72	3008.47
366.93	3004.37
367.14	3471.31
367.35	3704.78
367.56	3024.85
367.77	3248.08
367.98	3487.69
368.18	3504.07
368.39	3295.18
368.60	3080.14
368.81	3614.66
369.02	3592.14
369.23	3100.62
369.44	3002.32
369.65	3387.34
369.86	3469.26
370.07	3258.32
370.28	3004.37
370.49	3432.40
370.70	3532.75
370.91	3014.61
371.12	2955.22
371.33	3778.50
371.54	3270.61
371.75	3233.74
371.96	2824.15
372.17	3555.27
372.38	3360.72
372.59	3117.01
372.80	3071.95
373.01	3418.06
373.22	3475.40
373.43	3061.71
373.64	2975.70
373.85	3758.02
374.06	3758.02
374.26	3280.85
374.47	3194.83
374.68	3821.51
374.89	3438.54
375.10	3086.29
375.31	3211.22
375.52	3467.21
375.73	3469.26
375.94	2969.55
376.15	3207.12
376.36	3252.17
376.57	3250.13
376.78	3207.12
376.99	3174.35
377.20	3737.54
377.40	3321.81
377.61	3409.87
377.82	3092.43
378.03	3792.84
378.24	3585.99
378.45	3248.08
378.66	3258.32
378.87	3143.63
379.08	3117.01
379.29	3108.82
379.50	3286.99
379.71	3479.50
379.91	3545.03
380.12	3139.54
380.33	3205.07
380.54	3395.53
380.75	3436.49
380.96	3176.40
381.17	3119.06
381.38	3467.21
381.59	3342.28
381.80	3192.78
382.00	3295.18
382.21	3428.30
382.42	3725.26
382.63	3434.44
382.84	3248.08
383.05	3598.28
383.26	3741.64
383.47	3344.33
383.68	3010.51
383.88	3540.94
384.09	3473.36
384.30	3340.24
384.51	3237.84
384.72	3409.87
384.93	3182.54
385.14	3203.02
385.35	3407.82
385.55	3071.95
385.76	3690.44
385.97	3037.14
386.18	2963.41
386.39	3274.70
386.60	3282.89
386.81	3092.43
387.02	3020.75
387.22	3184.59
387.43	3585.99
387.64	3221.45
387.85	3332.05
388.06	3477.45
388.27	4444.09
388.48	7309.20
388.68	10962.78
388.89	13524.79
389.10	14892.83
389.31	14241.57
389.52	11880.27
389.73	10217.32
389.93	9406.32
390.14	8417.15
390.35	7729.03
390.56	7391.12
390.77	6324.13
390.98	4732.86
391.18	4044.74
391.39	3975.11
391.60	3434.44
391.81	3424.20
392.02	3225.55
392.23	4020.16
392.43	3487.69
392.64	3211.22
392.85	3192.78
393.06	3760.07
393.27	3454.92
393.47	3133.39
393.68	3117.01
393.89	3364.81
394.10	3661.77
394.31	3102.67
394.52	2983.89
394.72	3305.42
394.93	3772.36
395.14	3002.32
395.35	3282.89
395.56	3401.68
395.76	3317.71
395.97	3200.98
396.18	3262.41
396.39	3459.02
396.60	4083.65
396.80	3532.75
397.01	3377.10
397.22	3573.71
397.43	3649.48
397.64	3074.00
397.84	3225.55
398.05	3807.17
398.26	3340.24
398.47	3264.46
398.67	3377.10
398.88	3436.49
399.09	3620.81
399.30	3114.96
399.51	3221.45
399.71	3307.47
399.92	3430.35
400.13	3198.93
400.34	3172.30
400.54	3475.40
400.75	3803.08
400.96	3092.43
401.17	3418.06
401.37	3491.79
401.58	3426.25
401.79	3088.34
402.00	3182.54
402.21	3921.86
402.41	3581.90
402.62	3366.86
402.83	3514.31
403.04	3821.51
403.24	4257.73
403.45	3160.02
403.66	3454.92
403.87	3641.29
404.07	3774.41
404.28	3436.49
404.49	3499.98
404.70	3555.27
404.90	3510.22
405.11	3106.77
405.32	3205.07
405.52	3258.32
405.73	3246.03
405.94	3139.54
406.15	3299.28
406.35	3610.57
406.56	3602.38
406.77	3200.98
406.98	3182.54
407.18	3246.03
407.39	3680.20
407.60	3162.06
407.80	3235.79
408.01	3323.85
408.22	3524.55
408.43	3024.85
408.63	3321.81
408.84	3610.57
409.05	3616.71
409.25	3051.47
409.46	3147.73
409.67	3461.07
409.88	3250.13
410.08	3172.30
410.29	3080.14
410.50	3631.05
410.70	3565.51
410.91	3057.62
411.12	3200.98
411.32	3465.16
411.53	3203.02
411.74	3192.78
411.95	3217.36
412.15	3373.00
412.36	3600.33
412.57	3286.99
412.77	3379.15
412.98	3434.44
413.19	3418.06
413.39	3188.69
413.60	3196.88
413.81	3758.02
414.01	3243.98
414.22	3180.50
414.43	3352.52
414.63	3305.42
414.84	3661.77
415.05	3194.83
415.25	3033.04
415.46	3536.84
415.67	3389.39
415.87	3114.96
416.08	3196.88
416.29	3409.87
416.49	3588.04
416.70	3172.30
416.91	3176.40
417.11	3338.19
417.32	3739.59
417.53	3229.65
417.73	3270.61
417.94	3475.40
418.15	3542.99
418.35	3188.69
418.56	3190.74
418.77	3956.68
418.97	3471.31
419.18	3284.94
419.38	2861.01
419.59	3452.88
419.80	3749.83
420.00	3074.00
420.21	3194.83
420.42	3788.74
420.62	3489.74
420.83	3151.82
421.04	3069.91
421.24	3403.72
421.45	3618.76
421.65	3084.24
421.86	3133.39
422.07	3639.24
422.27	3547.08
422.48	3051.47
422.69	2981.84
422.89	3508.17
423.10	3348.43
423.30	3172.30
423.51	3205.07
423.72	3485.64
423.92	3616.71
424.13	3065.81
424.33	3205.07
424.54	3649.48
424.75	3465.16
424.95	3387.34
425.16	3135.44
425.36	3418.06
425.57	3663.82
425.78	3260.37
425.98	3207.12
426.19	3391.44
426.39	3321.81
426.60	3209.17
426.81	3377.10
427.01	3547.08
427.22	3225.55
427.42	2928.60
427.63	3117.01
427.83	3676.10
428.04	3893.19
428.25	3289.04
428.45	3258.32
428.66	3700.68
428.86	3442.64
429.07	3221.45
429.28	3188.69
429.48	3442.64
429.69	3278.80
429.89	3211.22
430.10	3018.71
430.30	3581.90
430.51	3649.48
430.71	3051.47
430.92	3307.47
431.13	3375.05
431.33	3567.56
431.54	3282.89
431.74	3346.38
431.95	3975.11
432.15	3252.17
432.36	3164.11
432.56	3248.08
432.77	3940.29
432.98	3841.99
433.18	3258.32
433.39	3024.85
433.59	3405.77
433.80	3831.75
434.00	3317.71
434.21	3229.65
434.41	3282.89
434.62	4001.73
434.82	3018.71
435.03	3026.90
435.23	3592.14
435.44	3106.77
435.64	3092.43
435.85	3278.80
436.06	3635.14
436.26	3694.54
436.47	3254.22
436.67	3100.62
436.88	3424.20
437.08	3717.06
437.29	3260.37
437.49	3284.94
437.70	3780.55
437.90	3403.72
438.11	3358.67
438.31	3182.54
438.52	3700.68
438.72	3592.14
438.93	3483.59
439.13	3278.80
439.34	3631.05
439.54	3258.32
439.75	3246.03
439.95	3262.41
440.16	3258.32
440.36	3422.16
440.57	3190.74
440.77	3176.40
440.98	3418.06
441.18	3510.22
441.39	3045.33
441.59	3117.01
441.80	3893.19
442.00	3432.40
442.21	3209.17
442.41	3069.91
442.62	3592.14
442.82	3340.24
443.02	3225.55
443.23	3274.70
443.43	3397.58
443.64	3835.85
443.84	2994.13
444.05	3225.55
444.25	3432.40
444.46	3235.79
444.66	3082.19
444.87	3280.85
445.07	3049.43
445.28	3332.05
445.48	3254.22
445.69	3198.93
445.89	3968.96
446.09	3403.72
446.30	3452.88
446.50	3530.70
446.71	5070.77
446.91	6158.24
447.12	6836.12
447.32	7131.03
447.53	7198.61
447.73	6182.82
447.93	5320.62
448.14	5244.85
448.34	5463.98
448.55	4460.48
448.75	4327.36
448.96	4081.60
449.16	4136.90
449.36	4026.31
449.57	3430.35
449.77	3280.85
449.98	3303.37
450.18	3516.36
450.39	2990.03
450.59	3313.61
450.79	3524.55
451.00	3217.36
451.20	3364.81
451.41	3127.25
451.61	3606.47
451.81	3530.70
452.02	3100.62
452.22	3180.50
452.43	3323.85
452.63	3278.80
452.84	3254.22
453.04	3141.58
453.24	3465.16
453.45	3340.24
453.65	3203.02
453.86	3225.55
454.06	3504.07
454.26	3432.40
454.47	3125.20
454.67	3289.04
454.87	3536.84
455.08	3354.57
455.28	3313.61
455.49	3377.10
455.69	3278.80
455.89	3919.81
456.10	3280.85
456.30	3123.15
456.51	3536.84
456.71	3512.27
456.91	3289.04
457.12	3123.15
457.32	3579.85
457.52	3262.41
457.73	3311.57
457.93	3438.54
458.14	3258.32
458.34	3061.71
458.54	3209.17
458.75	3155.92
458.95	3602.38
459.15	3504.07
459.36	3231.69
459.56	3145.68
459.76	3987.40
459.97	3487.69
460.17	3092.43
460.37	3192.78
460.58	3559.37
460.78	3602.38
460.99	3272.65
461.19	3114.96
461.39	3348.43
461.60	3497.93
461.80	3172.30
462.00	3051.47
462.21	3471.31
462.41	3272.65
462.61	2969.55
462.82	3006.42
463.02	3559.37
463.22	3456.97
463.43	3162.06
463.63	3063.76
463.83	3743.69
464.04	3588.04
464.24	3112.91
464.44	3106.77
464.64	3420.11
464.85	3567.56
465.05	3211.22
465.25	3037.14
465.46	3260.37
465.66	3532.75
465.86	3360.72
466.07	3213.26
466.27	3346.38
466.47	3098.58
466.68	3016.66
466.88	3270.61
467.08	3573.71
467.29	3649.48
467.49	3217.36
467.69	3311.57
467.89	3547.08
468.10	3483.59
468.30	3344.33
468.50	3295.18
468.71	3631.05
468.91	3106.77
469.11	3248.08
469.31	3305.42
469.52	3227.60
469.72	3837.89
469.92	3420.11
470.13	3262.41
470.33	3467.21
470.53	3489.74
470.73	3536.84
470.94	3854.28
471.14	3993.54
471.34	4616.12
471.54	4204.48
471.75	4032.45
471.95	3629.00
472.15	3790.79
472.36	3663.82
472.56	3514.31
472.76	3942.34
472.96	3737.54
473.17	3379.15
473.37	3342.28
473.57	3393.48
473.77	3606.47
473.98	3248.08
474.18	3078.10
474.38	4110.27
474.58	3364.81
474.79	3047.38
474.99	3307.47
475.19	3715.02
475.39	3211.22
475.60	3233.74
475.80	2967.51
476.00	3454.92
476.20	3317.71
476.41	3260.37
476.61	3174.35
476.81	3835.85
477.01	3336.14
477.21	3475.40
477.42	3256.27
477.62	3272.65
477.82	3604.42
478.02	3106.77
478.23	3190.74
478.43	3291.09
478.63	3360.72
478.83	3151.82
479.03	3299.28
479.24	3733.45
479.44	3913.67
479.64	3160.02
479.84	3004.37
480.04	3313.61
480.25	3637.19
480.45	3057.62
480.65	3057.62
480.85	3715.02
481.06	3239.89
481.26	3266.51
481.46	3160.02
481.66	3446.73
481.86	3237.84
482.06	3340.24
482.27	3211.22
482.47	3340.24
482.67	3532.75
482.87	3184.59
483.07	3352.52
483.28	3299.28
483.48	3164.11
483.68	3166.16
483.88	3067.86
484.08	3076.05
484.29	3246.03
484.49	3291.09
484.69	2926.55
484.89	3782.60
485.09	3710.92
485.29	3114.96
485.50	3459.02
485.70	3440.59
485.90	3776.45
486.10	3338.19
486.30	3164.11
486.50	3717.06
486.71	3508.17
486.91	3227.60
487.11	3221.45
487.31	3151.82
487.51	3626.95
487.71	3139.54
487.91	3071.95
488.12	3276.75
488.32	2959.31
488.52	3164.11
488.72	2854.87
488.92	3387.34
489.12	3780.55
489.32	3272.65
489.53	3098.58
489.73	3114.96
489.93	3770.31
490.13	3200.98
490.33	2990.03
490.53	3487.69
490.73	3682.25
490.94	3041.23
491.14	3264.46
491.34	3649.48
491.54	3514.31
491.74	3882.95
491.94	4485.05
492.14	5138.35
492.34	5205.94
492.54	4716.47
492.75	4165.57
492.95	4517.82
493.15	4124.61
493.35	3917.76
493.55	3805.13
493.75	3708.87
493.95	3993.54
494.15	3393.48
494.35	3256.27
494.56	3381.20
494.76	3176.40
494.96	3323.85
495.16	3049.43
495.36	3442.64
495.56	3379.15
495.76	3280.85
495.96	3141.58
496.16	3254.22
496.36	3835.85
496.56	3074.00
496.77	3221.45
496.97	3399.63
497.17	3743.69
497.37	2983.89
497.57	3231.69
497.77	3516.36
497.97	3203.02
498.17	3188.69
498.37	3133.39
498.57	3608.52
498.77	3262.41
498.97	3293.13
499.17	3557.32
499.38	3401.68
499.58	3540.94
499.78	3338.19
499.98	3264.46
500.18	3389.39
500.38	3248.08
500.58	3360.72
500.78	3698.63
500.98	6135.71
501.18	7827.34
501.38	9080.69
501.58	9959.27
501.78	10024.81
501.98	8425.34
502.18	7102.36
502.38	6254.50
502.58	6301.60
502.78	5515.18
502.98	5234.61
503.18	4958.13
503.38	4863.93
503.59	4163.52
503.79	4075.46
503.99	3702.73
504.19	4093.89
504.39	3866.56
504.59	3733.45
504.79	3499.98
504.99	4040.64
505.19	3600.33
505.39	3289.04
505.59	3575.75
505.79	3745.73
505.99	3659.72
506.19	3149.78
506.39	3332.05
506.59	3307.47
506.79	3354.57
506.99	3330.00
507.19	3131.34
507.39	3590.09
507.59	3139.54
507.79	3127.25
507.99	3180.50
508.19	3426.25
508.39	3319.76
508.59	3225.55
508.79	3295.18
508.99	3999.68
509.19	3262.41
509.39	3221.45
509.59	3051.47
509.79	3301.33
509.99	3481.55
510.19	3358.67
510.39	3315.66
510.59	3502.03
510.79	3311.57
510.99	2977.75
511.19	3145.68
511.39	3737.54
511.59	3704.78
511.79	3391.44
511.99	3151.82
512.19	3839.94
512.38	3426.25
512.58	3147.73
512.78	3012.56
512.98	3633.10
513.18	3827.65
513.38	3069.91
513.58	3291.09
513.78	3467.21
513.98	3362.76
514.18	3184.59
514.38	3106.77
514.58	3524.55
514.78	3315.66
514.98	3018.71
515.18	3264.46
515.38	3135.44
515.58	3774.41
515.78	3098.58
515.98	3221.45
516.18	3667.91
516.38	3489.74
516.57	3123.15
516.77	3160.02
516.97	3495.88
517.17	3286.99
517.37	2996.18
517.57	3237.84
517.77	3444.68
517.97	3248.08
518.17	3205.07
518.37	2975.70
518.57	3289.04
518.77	3469.26
518.97	3235.79
519.16	3186.64
519.36	3622.86
519.56	3338.19
519.76	3045.33
519.96	3231.69
520.16	3741.64
520.36	3250.13
520.56	3352.52
520.76	3065.81
520.96	3356.62
521.16	3717.06
521.35	3413.96
521.55	3258.32
521.75	3424.20
521.95	3403.72
522.15	3153.87
522.35	3086.29
522.55	3346.38
522.75	3655.62
522.95	3114.96
523.14	3119.06
523.34	3565.51
523.54	3260.37
523.74	3356.62
523.94	3196.88
524.14	3164.11
524.34	3461.07
524.54	3354.57
524.73	3168.21
524.93	3499.98
525.13	3463.12
525.33	3078.10
525.53	3446.73
525.73	3559.37
525.93	3465.16
526.13	3174.35
526.32	3035.09
526.52	3635.14
526.72	3661.77
526.92	3256.27
527.12	3119.06
527.32	3160.02
527.52	3483.59
527.71	3258.32
527.91	3274.70
528.11	3352.52
528.31	3444.68
528.51	3131.34
528.71	3295.18
528.90	3624.90
529.10	3637.19
529.30	3160.02
529.50	2934.74
529.70	3504.07
529.90	3258.32
530.09	3133.39
530.29	3065.81
530.49	3278.80
530.69	4028.35
530.89	3336.14
531.09	3235.79
531.28	3254.22
531.48	3719.11
531.68	3129.30
531.88	3196.88
532.08	3618.76
532.28	3360.72
532.47	3246.03
532.67	3270.61
532.87	3557.32
533.07	3198.93
533.27	3164.11
533.46	3209.17
533.66	3510.22
533.86	3377.10
534.06	3229.65
534.26	3139.54
534.45	3403.72
534.65	3608.52
534.85	3260.37
535.05	3123.15
535.25	3602.38
535.44	3057.62
535.64	3264.46
535.84	3205.07
536.04	3397.58
536.24	3385.29
536.43	3145.68
536.63	3108.82
536.83	3375.05
537.03	3381.20
537.22	2961.36
537.42	2990.03
537.62	3508.17
537.82	3307.47
538.02	3297.23
538.21	3270.61
538.41	4048.83
538.61	3598.28
538.81	3200.98
539.00	3344.33
539.20	3096.53
539.40	3319.76
539.60	3063.76
539.79	3411.92
539.99	3461.07
540.19	3305.42
540.39	3129.30
540.58	3174.35
540.78	3694.54
540.98	3481.55
541.18	3440.59
541.37	3194.83
541.57	3561.42
541.77	3516.36
541.97	3028.95
542.16	3049.43
542.36	3319.76
542.56	3678.15
542.76	3401.68
542.95	3266.51
543.15	3622.86
543.35	3647.43
543.54	3164.11
543.74	3088.34
543.94	3637.19
544.14	3364.81
544.33	3319.76
544.53	3227.60
544.73	3420.11
544.93	3370.96
545.12	3135.44
545.32	3166.16
545.52	3377.10
545.71	3211.22
545.91	3184.59
546.11	3076.05
546.30	3252.17
546.50	3463.12
546.70	3309.52
546.90	3160.02
547.09	2992.08
547.29	3516.36
547.49	3336.14
547.68	3137.49
547.88	3215.31
548.08	3577.80
548.27	3426.25
548.47	3209.17
548.67	3377.10
548.87	3463.12
549.06	3149.78
549.26	3121.10
549.46	3489.74
549.65	3221.45
549.85	3188.69
550.05	3147.73
550.24	3192.78
550.44	3420.11
550.64	3225.55
550.83	3213.26
551.03	3798.98
551.23	3649.48
551.42	3166.16
551.62	3235.79
551.82	3473.36
552.01	3342.28
552.21	3461.07
552.41	3221.45
552.60	3758.02
552.80	3485.64
553.00	3135.44
553.19	3172.30
553.39	3819.46
553.59	3108.82
553.78	3323.85
553.98	3059.67
554.17	3258.32
554.37	3461.07
554.57	3305.42
554.76	3082.19
554.96	3280.85
555.16	3477.45
555.35	3272.65
555.55	3323.85
555.75	3446.73
555.94	3532.75
556.14	2996.18
556.33	3182.54
556.53	3336.14
556.73	3428.30
556.92	3117.01
557.12	3188.69
557.32	3858.37
557.51	3798.98
557.71	3155.92
557.90	3303.37
558.10	3678.15
558.30	3289.04
558.49	3237.84
558.69	3227.60
558.88	3524.55
559.08	3475.40
559.28	3180.50
559.47	3209.17
559.67	3536.84
559.86	3909.57
560.06	3127.25
560.26	3248.08
560.45	3542.99
560.65	3360.72
560.84	3469.26
561.04	3043.28
561.24	3547.08
561.43	3229.65
561.63	3426.25
561.82	3313.61
562.02	3565.51
562.22	3246.03
562.41	3119.06
562.61	3125.20
562.80	3125.20
563.00	3946.44
563.19	3262.41
563.39	3233.74
563.59	3516.36
563.78	3160.02
563.98	2930.64
564.17	3149.78
564.37	3098.58
564.56	3360.72
564.76	3028.95
564.96	3344.33
565.15	3463.12
565.35	3964.87
565.54	3250.13
565.74	3098.58
565.93	3491.79
566.13	3471.31
566.32	3309.52
566.52	3239.89
566.71	3368.91
566.91	3692.49
567.11	3270.61
567.30	3143.63
567.50	3471.31
567.69	3534.79
567.89	3057.62
568.08	3108.82
568.28	3565.51
568.47	3215.31
568.67	3198.93
568.86	3149.78
569.06	3573.71
569.25	3321.81
569.45	3082.19
569.64	3200.98
569.84	3418.06
570.04	3446.73
570.23	3162.06
570.43	3207.12
570.62	3452.88
570.82	3788.74
571.01	3065.81
571.21	3172.30
571.40	3213.26
571.60	3542.99
571.79	3295.18
571.99	3145.68
572.18	3166.16
572.38	3469.26
572.57	3262.41
572.77	3215.31
572.96	3944.39
573.16	3487.69
573.35	3211.22
573.55	3297.23
573.74	3641.29
573.94	3262.41
574.13	3102.67
574.33	3340.24
574.52	3774.41
574.71	3413.96
574.91	3188.69
575.10	3065.81
575.30	3286.99
575.49	3284.94
575.69	3168.21
575.88	3168.21
576.08	3426.25
576.27	3682.25
576.47	3078.10
576.66	3319.76
576.86	3788.74
577.05	3448.78
577.25	3254.22
577.44	3379.15
577.64	3284.94
577.83	3571.66
578.02	3178.45
578.22	3262.41
578.41	3809.22
578.61	3438.54
578.80	3098.58
579.00	3198.93
579.19	3354.57
579.39	3516.36
579.58	3280.85
579.77	3106.77
579.97	3803.08
580.16	3712.97
580.36	3364.81
580.55	3321.81
580.75	3569.61
580.94	3366.86
581.13	3409.87
581.33	3405.77
581.52	3448.78
581.72	3872.71
581.91	3241.93
582.11	3114.96
582.30	3598.28
582.49	3436.49
582.69	3551.18
582.88	3225.55
583.08	3518.41
583.27	3645.38
583.47	3313.61
583.66	3145.68
583.85	3211.22
584.05	3360.72
584.24	3262.41
584.44	3176.40
584.63	3581.90
584.82	3655.62
585.02	3438.54
585.21	3295.18
585.41	3594.19
585.60	3454.92
585.79	3459.02
585.99	3528.65
586.18	3524.55
586.37	4548.54
586.57	6549.40
586.76	18824.93
586.96	36715.98
587.15	49904.90
587.34	57744.53
587.54	61680.72
587.73	53411.02
587.93	38612.40
588.12	29898.30
588.31	24665.74
588.51	22036.14
588.70	20563.65
588.89	17981.17
589.09	15339.29
589.28	13289.27
589.47	10544.99
589.67	7753.61
589.86	6328.22
590.06	4933.56
590.25	4550.59
590.44	3848.13
590.64	3631.05
590.83	3737.54
591.02	3717.06
591.22	3117.01
591.41	3260.37
591.60	3362.76
591.80	3948.48
591.99	3024.85
592.18	3170.26
592.38	3624.90
592.57	3366.86
592.76	3155.92
592.96	3246.03
593.15	3413.96
593.34	3696.58
593.54	3248.08
593.73	3332.05
593.92	3547.08
594.12	3649.48
594.31	3309.52
594.50	3352.52
594.70	3585.99
594.89	4040.64
595.08	3074.00
595.28	3338.19
595.47	4140.99
595.66	3667.91
595.86	3069.91
596.05	2996.18
596.24	3330.00
596.43	3801.03
596.63	3262.41
596.82	3344.33
597.01	3559.37
597.21	3819.46
597.40	3151.82
597.59	3217.36
597.79	3430.35
597.98	3577.80
598.17	3114.96
598.36	3145.68
598.56	3538.89
598.75	3338.19
598.94	3237.84
599.14	3272.65
599.33	3309.52
599.52	3549.13
599.71	3176.40
599.91	3133.39
600.10	3639.24
600.29	3547.08
600.48	3289.04
600.68	3323.85
600.87	3637.19
601.06	3270.61
601.26	3315.66
601.45	3307.47
601.64	3299.28
601.83	3782.60
602.03	3102.67
602.22	3061.71
602.41	3753.93
602.60	4026.31
602.80	3340.24
602.99	3368.91
603.18	3323.85
603.37	3454.92
603.57	3074.00
603.76	3180.50
603.95	3678.15
604.14	3315.66
604.34	3051.47
604.53	3135.44
604.72	3487.69
604.91	3710.92
605.10	3151.82
605.30	3049.43
605.49	3983.30
605.68	3598.28
605.87	3188.69
606.07	3166.16
606.26	3526.60
606.45	3516.36
606.64	3192.78
606.84	3067.86
607.03	3522.51
607.22	3626.95
607.41	3233.74
607.60	3112.91
607.80	3678.15
607.99	3395.53
608.18	3184.59
608.37	3182.54
608.56	3289.04
608.76	3680.20
608.95	3301.33
609.14	3127.25
609.33	3729.35
609.52	3762.12
609.72	3299.28
609.91	3266.51
610.10	3401.68
610.29	3788.74
610.48	3311.57
610.68	3286.99
610.87	3465.16
611.06	3672.01
611.25	3198.93
611.44	3373.00
611.63	3401.68
611.83	3700.68
612.02	3098.58
612.21	3286.99
612.40	3039.19
612.59	3155.92
612.79	3082.19
612.98	3323.85
613.17	3805.13
613.36	3442.64
613.55	3231.69
613.74	3186.64
613.93	3442.64
614.13	3456.97
614.32	3342.28
614.51	3188.69
614.70	3395.53
614.89	3254.22
615.08	3295.18
615.28	3514.31
615.47	3196.88
615.66	3502.03
615.85	3217.36
616.04	3188.69
616.23	3397.58
616.42	3467.21
616.62	3110.86
616.81	3131.34
617.00	3493.83
617.19	3573.71
617.38	3223.50
617.57	3266.51
617.76	3620.81
617.95	3594.19
618.15	3315.66
618.34	3459.02
618.53	3170.26
618.72	3559.37
618.91	3213.26
619.10	3282.89
619.29	3481.55
619.48	3373.00
619.68	3039.19
619.87	3137.49
620.06	3200.98
620.25	3598.28
620.44	3149.78
620.63	3149.78
620.82	3471.31
621.01	3483.59
621.20	3254.22
621.39	3313.61
621.59	3524.55
621.78	3420.11
621.97	3221.45
622.16	3319.76
622.35	3487.69
622.54	3616.71
622.73	3209.17
622.92	2985.94
623.11	3684.30
623.30	3418.06
623.49	3327.95
623.68	3106.77
623.88	3737.54
624.07	3291.09
624.26	3076.05
624.45	3196.88
624.64	3485.64
624.83	3467.21
625.02	3151.82
625.21	3184.59
625.40	3444.68
625.59	3725.26
625.78	3260.37
625.97	3276.75
626.16	3678.15
626.35	3542.99
626.54	3149.78
626.74	3352.52
626.93	3336.14
627.12	3422.16
627.31	3284.94
627.50	3229.65
627.69	3559.37
627.88	3254.22
628.07	3074.00
628.26	2977.75
628.45	3248.08
628.64	3147.73
628.83	3098.58
629.02	3102.67
629.21	3561.42
629.40	3514.31
629.59	3061.71
629.78	3139.54
629.97	3444.68
630.16	3444.68
630.35	3155.92
630.54	3215.31
630.73	3348.43
630.92	3436.49
631.11	3108.82
631.30	3182.54
631.49	3647.43
631.68	3348.43
631.87	3172.30
632.06	3061.71
632.25	3989.44
632.44	3428.30
632.63	3184.59
632.82	3221.45
633.01	3362.76
633.20	3456.97
633.39	3123.15
633.58	2932.69
633.77	3512.27
633.96	3491.79
634.15	3307.47
634.34	3237.84
634.53	3481.55
634.72	3295.18
634.91	2994.13
635.10	3239.89
635.29	3631.05
635.48	3477.45
635.67	2977.75
635.86	3067.86
636.05	3667.91
636.24	3428.30
636.43	3155.92
636.62	3332.05
636.81	2949.08
637.00	3461.07
637.19	3172.30
637.38	3180.50
637.57	3348.43
637.76	3516.36
637.95	3366.86
638.14	3330.00
638.33	3485.64
638.52	3399.63
638.71	3018.71
638.89	3018.71
639.08	4198.34
639.27	3598.28
639.46	3399.63
639.65	3655.62
639.84	3899.33
640.03	3973.06
640.22	3581.90
640.41	3483.59
640.60	3479.50
640.79	3661.77
640.98	3385.29
641.17	3385.29
641.36	3708.87
641.55	3616.71
641.74	3053.52
641.92	3147.73
642.11	3305.42
642.30	3416.01
642.49	3045.33
642.68	3135.44
642.87	3557.32
643.06	3542.99
643.25	3041.23
643.44	3094.48
643.63	3424.20
643.82	3538.89
644.00	3065.81
644.19	3243.98
644.38	3188.69
644.57	3542.99
644.76	3143.63
644.95	3330.00
645.14	3477.45
645.33	3440.59
645.52	3182.54
645.71	3039.19
645.89	3233.74
646.08	3381.20
646.27	3174.35
646.46	3276.75
646.65	3133.39
646.84	3438.54
647.03	3102.67
647.22	3319.76
647.40	3459.02
647.59	3434.44
647.78	2951.12
647.97	3172.30
648.16	3229.65
648.35	3764.17
648.54	3381.20
648.73	3143.63
648.91	3667.91
649.10	3542.99
649.29	3149.78
649.48	3207.12
649.67	3526.60
649.86	3440.59
650.05	3174.35
650.23	3286.99
650.42	3301.33
650.61	3708.87
650.80	3416.01
650.99	3442.64
651.18	3641.29
651.36	3669.96
651.55	3084.24
651.74	3379.15
651.93	3375.05
652.12	3459.02
652.31	3147.73
652.49	3264.46
652.68	3344.33
652.87	3721.16
653.06	3297.23
653.25	3477.45
653.44	3413.96
653.62	3819.46
653.81	3178.45
654.00	3248.08
654.19	3612.62
654.38	4032.45
654.56	3239.89
654.75	3076.05
654.94	3592.14
655.13	3495.88
655.32	3119.06
655.51	3237.84
655.69	3323.85
655.88	3682.25
656.07	2951.12
656.26	3211.22
656.45	3157.97
656.63	3424.20
656.82	3141.58
657.01	3499.98
657.20	3289.04
657.38	3741.64
657.57	3143.63
657.76	3016.66
657.95	3665.86
658.14	3362.76
658.32	3323.85
658.51	2985.94
658.70	3461.07
658.89	3524.55
659.08	3274.70
659.26	3368.91
659.45	3237.84
659.64	3571.66
659.83	3157.97
660.01	3524.55
660.20	3405.77
660.39	3868.61
660.58	2869.20
660.76	3213.26
660.95	3086.29
661.14	3428.30
661.33	3057.62
661.51	3268.56
661.70	3307.47
661.89	3536.84
662.08	3192.78
662.26	3084.24
662.45	3256.27
662.64	3725.26
662.83	3268.56
663.01	3139.54
663.20	3342.28
663.39	3796.93
663.58	3297.23
663.76	3051.47
663.95	3553.23
664.14	3137.49
664.32	3250.13
664.51	3041.23
664.70	3147.73
664.89	3442.64
665.07	3049.43
665.26	3319.76
665.45	3149.78
665.64	3559.37
665.82	3098.58
666.01	3393.48
666.20	3182.54
666.38	3612.62
666.57	3452.88
666.76	5746.60
666.95	12810.04
667.13	18634.47
667.32	22318.76
667.51	24878.72
667.69	25357.95
667.88	20836.03
668.07	15423.25
668.25	13266.74
668.44	11628.37
668.63	10250.08
668.81	8898.42
669.00	7743.37
669.19	7104.40
669.38	6354.85
669.56	5423.02
669.75	4771.77
669.94	4376.51
670.12	3755.97
670.31	3418.06
670.50	3444.68
670.68	3680.20
670.87	3540.94
671.06	3172.30
671.24	3215.31
671.43	3635.14
671.62	3373.00
671.80	3205.07
671.99	3319.76
672.18	3448.78
672.36	3542.99
672.55	3381.20
672.74	3243.98
672.92	3336.14
673.11	3614.66
673.29	2996.18
673.48	3336.14
673.67	3352.52
673.85	3665.86
674.04	3182.54
674.23	3309.52
674.41	3846.09
674.60	3186.64
674.79	2949.08
674.97	3063.76
675.16	3577.80
675.34	3631.05
675.53	3213.26
675.72	3239.89
675.90	3819.46
676.09	3424.20
676.28	3289.04
676.46	3078.10
676.65	3575.75
676.83	3213.26
677.02	3215.31
677.21	3262.41
677.39	3452.88
677.58	3274.70
677.77	3129.30
677.95	3061.71
678.14	3366.86
678.32	3330.00
678.51	3207.12
678.70	3549.13
678.88	3381.20
679.07	3469.26
679.25	3192.78
679.44	3162.06
679.63	3155.92
679.81	3485.64
680.00	3469.26
680.18	3286.99
680.37	3907.52
680.55	3555.27
680.74	2969.55
680.93	2887.64
681.11	3459.02
681.30	3426.25
681.48	3098.58
681.67	3219.41
681.85	3479.50
682.04	3180.50
682.23	3373.00
682.41	3358.67
682.60	3350.48
682.78	3362.76
682.97	3135.44
683.15	3258.32
683.34	3575.75
683.53	3766.21
683.71	3026.90
683.90	3231.69
684.08	3790.79
684.27	3338.19
684.45	3293.13
684.64	3336.14
684.82	3393.48
685.01	3542.99
685.19	3190.74
685.38	3467.21
685.57	3508.17
685.75	3239.89
685.94	3141.58
686.12	3125.20
686.31	3266.51
686.49	3778.50
686.68	2979.79
686.86	3239.89
687.05	3416.01
687.23	3772.36
687.42	3237.84
687.60	3086.29
687.79	3715.02
687.97	3848.13
688.16	3348.43
688.34	3430.35
688.53	3190.74
688.71	3563.47
688.90	3514.31
689.08	3172.30
689.27	3059.67
689.45	3559.37
689.64	3428.30
689.82	3256.27
690.01	3608.52
690.19	3491.79
690.38	3278.80
690.56	3209.17
690.75	3223.50
690.93	3477.45
691.12	3198.93
691.30	3266.51
691.49	3356.62
691.67	3475.40
691.86	3540.94
692.04	3223.50
692.23	3448.78
692.41	3436.49
692.60	3469.26
692.78	3422.16
692.97	3461.07
693.15	3532.75
693.34	3383.24
693.52	3411.92
693.71	3405.77
693.89	3336.14
694.08	3037.14
694.26	3192.78
694.44	3645.38
694.63	3598.28
694.81	3059.67
695.00	3264.46
695.18	3725.26
695.37	3975.11
695.55	3278.80
695.74	3295.18
695.92	3268.56
696.10	3733.45
696.29	3100.62
696.47	3243.98
696.66	3241.93
696.84	3350.48
697.03	3258.32
697.21	3524.55
697.40	4775.86
697.58	3672.01
697.76	3100.62
697.95	3110.86
698.13	3164.11
698.32	3262.41
698.50	3254.22
698.68	3248.08
698.87	3463.12
699.05	3938.24
699.24	3184.59
699.42	3239.89
699.61	3516.36
699.79	3483.59
699.97	3246.03
700.16	3035.09
700.34	3100.62
700.53	3475.40
700.71	3409.87
700.89	3370.96
701.08	3299.28
701.26	3366.86
701.45	3581.90
701.63	3151.82
701.81	3291.09
702.00	3262.41
702.18	3311.57
702.37	3237.84
702.55	3661.77
702.73	3416.01
702.92	3080.14
703.10	3512.27
703.28	3624.90
703.47	3168.21
703.65	3368.91
703.84	3370.96
704.02	3338.19
704.20	3755.97
704.39	3110.86
704.57	3160.02
704.75	3579.85
704.94	3596.23
705.12	3405.77
705.30	3950.53
705.49	8161.16
705.67	14554.91
705.86	19326.68
706.04	21431.99
706.22	23932.56
706.41	22265.52
706.59	16709.38
706.77	13348.66
706.96	11827.02
707.14	11005.78
707.32	9496.43
707.51	8150.92
707.69	6846.36
707.87	5795.75
708.06	4800.44
708.24	4319.17
708.42	4016.07
708.61	4270.01
708.79	3332.05
708.97	3418.06
709.16	3471.31
709.34	3467.21
709.52	3241.93
709.71	3368.91
709.89	3608.52
710.07	3186.64
710.26	3090.38
710.44	3166.16
710.62	3676.10
710.80	3409.87
710.99	3397.58
711.17	3354.57
711.35	3340.24
711.54	3317.71
711.72	3393.48
711.90	3215.31
712.09	3522.51
712.27	3264.46
712.45	3348.43
712.63	3207.12
712.82	3465.16
713.00	3461.07
713.18	3340.24
713.37	3442.64
713.55	3631.05
713.73	3612.62
713.91	3381.20
714.10	3190.74
714.28	3340.24
714.46	3524.55
714.65	3354.57
714.83	3323.85
715.01	3499.98
715.19	3424.20
715.38	3143.63
715.56	3315.66
715.74	3254.22
715.92	3305.42
716.11	3534.79
716.29	2940.88
716.47	3436.49
716.65	3356.62
716.84	3092.43
717.02	3241.93
717.20	3043.28
717.38	3241.93
717.57	3348.43
717.75	3231.69
717.93	3385.29
718.11	3573.71
718.30	3082.19
718.48	3227.60
718.66	3700.68
718.84	3649.48
719.03	3274.70
719.21	3026.90
719.39	3788.74
719.57	3536.84
719.75	3284.94
719.94	3114.96
720.12	3295.18
720.30	3520.46
720.48	3305.42
720.67	3133.39
720.85	3262.41
721.03	3354.57
721.21	3213.26
721.39	3241.93
721.58	3581.90
721.76	3477.45
721.94	3180.50
722.12	3338.19
722.30	3755.97
722.49	3389.39
722.67	3223.50
722.85	3186.64
723.03	3155.92
723.21	3354.57
723.40	3190.74
723.58	3315.66
723.76	3491.79
723.94	3682.25
724.12	3200.98
724.30	3442.64
724.49	3612.62
724.67	3213.26
724.85	3358.67
725.03	3033.04
725.21	3461.07
725.40	3678.15
725.58	3223.50
725.76	3438.54
725.94	3569.61
726.12	3205.07
726.30	3303.37
726.49	3182.54
726.67	3387.34
726.85	3559.37
727.03	3979.20
727.21	4917.17
727.39	6180.77
727.57	6508.44
727.76	6813.59
727.94	6866.84
728.12	5980.07
728.30	5003.19
728.48	4835.25
728.66	4607.93
728.84	4321.21
729.03	3950.53
729.21	3674.06
729.39	3475.40
729.57	3409.87
729.75	3538.89
729.93	3518.41
730.11	3157.97
730.30	3295.18
730.48	3422.16
730.66	3248.08
730.84	3278.80
731.02	3518.41
731.20	3346.38
731.38	3258.32
731.56	3114.96
731.74	3180.50
731.93	3475.40
732.11	3383.24
732.29	3182.54
732.47	3516.36
732.65	3454.92
732.83	3397.58
733.01	3360.72
733.19	3317.71
733.37	3516.36
733.56	3215.31
733.74	3114.96
733.92	3729.35
734.10	3354.57
734.28	3395.53
734.46	2942.93
734.64	3354.57
734.82	3327.95
735.00	3112.91
735.18	3074.00
735.36	3416.01
735.54	3397.58
735.73	3178.45
735.91	3389.39
736.09	3725.26
736.27	3409.87
736.45	3278.80
736.63	2990.03
736.81	3334.09
736.99	3633.10
737.17	3422.16
737.35	3246.03
737.53	3475.40
737.71	3422.16
737.89	3456.97
738.07	3241.93
738.25	3346.38
738.43	3098.58
738.61	3143.63
738.80	3082.19
738.98	3254.22
739.16	3289.04
739.34	3162.06
739.52	3553.23
739.70	3354.57
739.88	3606.47
740.06	3217.36
740.24	2918.36
740.42	3682.25
740.60	3074.00
740.78	3160.02
740.96	2975.70
741.14	3389.39
741.32	3508.17
741.50	3000.27
741.68	3483.59
741.86	3831.75
742.04	3170.26
742.22	3155.92
742.40	3139.54
742.58	3602.38
742.76	3391.44
742.94	3475.40
743.12	3028.95
743.30	3389.39
743.48	3485.64
743.66	3080.14
743.84	3190.74
744.02	3364.81
744.20	3454.92
744.38	3080.14
744.56	3172.30
744.74	3903.43
744.92	3590.09
745.10	3336.14
745.28	3164.11
745.46	3747.78
745.64	3405.77
745.82	3303.37
746.00	3053.52
746.18	3563.47
746.36	3192.78
746.54	3307.47
746.72	3239.89
746.90	3141.58
747.08	3786.69
747.26	3235.79
747.44	3323.85
747.62	3573.71
747.80	3522.51
747.98	3332.05
748.15	3123.15
748.33	3741.64
748.51	3461.07
748.69	3301.33
748.87	3188.69
749.05	3327.95
749.23	3418.06
749.41	3112.91
749.59	3110.86
749.77	3606.47
749.95	3370.96
750.13	3184.59
750.31	3360.72
750.49	3444.68
750.67	3592.14
750.85	3270.61
751.03	3207.12
751.20	3895.24
751.38	3413.96
751.56	3313.61
751.74	3194.83
751.92	3327.95
752.10	3192.78
752.28	3409.87
752.46	3160.02
752.64	3397.58
752.82	3409.87
753.00	3311.57
753.18	3166.16
753.35	3346.38
753.53	3368.91
753.71	3078.10
753.89	3205.07
754.07	3583.95
754.25	3669.96
754.43	3254.22
754.61	3151.82
754.79	3481.55
754.97	3395.53
755.14	3399.63
755.32	3141.58
755.50	3467.21
755.68	3497.93
755.86	3149.78
756.04	3137.49
756.22	3129.30
756.40	3659.72
756.57	3397.58
756.75	3164.11
756.93	3680.20
757.11	3602.38
757.29	3123.15
757.47	3164.11
757.65	3065.81
757.82	3020.75
758.00	3069.91
758.18	3168.21
758.36	3264.46
758.54	3844.04
758.72	3049.43
758.90	3354.57
759.07	3514.31
759.25	3133.39
759.43	3215.31
759.61	3049.43
759.79	4534.20
759.97	3526.60
760.15	3186.64
760.32	3246.03
760.50	3594.19
760.68	3844.04
760.86	3123.15
761.04	3454.92
761.22	3690.44
761.39	3461.07
761.57	3346.38
761.75	3211.22
761.93	3571.66
762.11	3407.82
762.28	3289.04
762.46	3217.36
762.64	3653.58
762.82	3178.45
763.00	3135.44
763.18	3352.52
763.35	3184.59
763.53	3573.71
763.71	3282.89
763.89	3186.64
764.07	3475.40
764.24	3459.02
764.42	3274.70
764.60	3184.59
764.78	3524.55
764.96	3629.00
765.13	3444.68
765.31	3039.19
765.49	3612.62
765.67	3225.55
765.84	3147.73
766.02	3147.73
766.20	3172.30
766.38	3430.35
766.56	3262.41
766.73	3317.71
766.91	3430.35
767.09	3551.18
767.27	3260.37
767.44	3061.71
767.62	3688.39
767.80	3450.83
767.98	3114.96
768.15	3239.89
768.33	3534.79
768.51	3592.14
768.69	3297.23
768.87	3192.78
769.04	3422.16
769.22	4067.27
769.40	3280.85
769.58	3309.52
769.75	3602.38
769.93	3745.73
770.11	3213.26
770.28	3061.71
770.46	3647.43
770.64	3534.79
770.82	3317.71
770.99	3098.58
771.17	3520.46
771.35	3418.06
771.53	3307.47
771.70	3188.69
771.88	3583.95
772.06	3475.40
772.23	3200.98
772.41	3332.05
772.59	3418.06
772.77	3229.65
772.94	3243.98
773.12	3270.61
773.30	3303.37
773.47	3430.35
773.65	3065.81
773.83	3340.24
774.01	3389.39
774.18	3061.71
774.36	3170.26
774.54	3127.25
774.71	3497.93
774.89	3104.72
775.07	3065.81
775.24	3200.98
775.42	3307.47
775.60	3866.56
775.78	3024.85
775.95	2951.12
776.13	3065.81
776.31	3057.62
776.48	3377.10
776.66	3428.30
776.84	3256.27
777.01	3196.88
777.19	3104.72
777.37	3123.15
777.54	3592.14
777.72	3856.33
777.90	3321.81
778.07	3082.19
778.25	4024.26
778.43	3631.05
778.60	3114.96
778.78	3280.85
778.96	3755.97
779.13	3139.54
779.31	3289.04
779.49	3223.50
779.66	3428.30
779.84	3366.86
780.01	3174.35
780.19	3168.21
780.37	3717.06
780.54	3610.57
780.72	2975.70
780.90	3112.91
781.07	3332.05
781.25	3231.69
781.43	3440.59
781.60	3139.54
781.78	3610.57
781.95	3475.40
782.13	3147.73
782.31	3174.35
782.48	3110.86
782.66	3549.13
782.83	3407.82
783.01	3327.95
783.19	3690.44
783.36	3370.96
783.54	3114.96
783.72	3299.28
783.89	3383.24
784.07	3444.68
784.24	3385.29
784.42	3377.10
784.60	3465.16
784.77	3518.41
784.95	2901.97
785.12	3196.88
785.30	3534.79
785.47	3215.31
785.65	3012.56
785.83	3239.89
786.00	3219.41
786.18	3444.68
786.35	3227.60
786.53	3123.15
786.71	3708.87
786.88	3518.41
787.06	3196.88
787.23	3293.13
787.41	3112.91
787.58	3348.43
787.76	3139.54
787.94	3233.74
788.11	3434.44
788.29	3225.55
788.46	3168.21
788.64	3061.71
788.81	3344.33
788.99	3239.89
789.16	3155.92
789.34	3274.70
789.52	3422.16
789.69	3401.68
789.87	3010.51
790.04	3135.44
790.22	3444.68
790.39	3975.11
790.57	3194.83
790.74	3123.15
790.92	3545.03
791.09	3106.77
791.27	3241.93
791.44	3254.22
791.62	3424.20
791.79	3641.29
791.97	3360.72
792.15	3540.94
792.32	3559.37
792.50	3522.51
792.67	3452.88
792.85	3555.27
793.02	3444.68
793.20	3280.85
793.37	3194.83
793.55	3074.00
793.72	3133.39
793.90	3620.81
794.07	3145.68
794.25	3145.68
794.42	3387.34
794.60	3422.16
794.77	3295.18
794.95	3348.43
795.12	3649.48
795.30	3364.81
795.47	2832.34
795.65	3590.09
795.82	3526.60
796.00	3336.14
796.17	3235.79
796.34	3112.91
796.52	3549.13
796.69	3653.58
796.87	3303.37
797.04	3409.87
797.22	3676.10
797.39	3542.99
797.57	3418.06
797.74	3311.57
797.92	3592.14
798.09	3330.00
798.27	3493.83
798.44	3153.87
798.62	3229.65
798.79	3450.83
798.96	3327.95
799.14	3151.82
799.31	3956.68
799.49	3338.19
799.66	3160.02
799.84	3237.84
800.01	3049.43
800.19	3483.59
800.36	3002.32
800.53	3229.65
800.71	3508.17
800.88	3719.11
801.06	3055.57
801.23	3094.48
801.41	3352.52
801.58	3399.63
801.75	3168.21
801.93	3254.22
802.10	3633.10
802.28	3418.06
802.45	3188.69
802.63	3278.80
802.80	3774.41
802.97	3340.24
803.15	3194.83
803.32	3180.50
803.50	3334.09
803.67	3241.93
803.84	3196.88
804.02	3307.47
804.19	3385.29
804.37	2969.55
804.54	2926.55
804.71	3137.49
804.89	3467.21
805.06	3200.98
805.24	3184.59
805.41	3000.27
805.58	3264.46
805.76	3942.34
805.93	3170.26
806.10	3315.66
806.28	3502.03
806.45	3491.79
806.63	3379.15
806.80	3303.37
806.97	3479.50
807.15	3436.49
807.32	3250.13
807.49	3262.41
807.67	3176.40
807.84	3499.98
808.01	3037.14
808.19	3319.76
808.36	3856.33
808.54	3327.95
808.71	3188.69
808.88	3141.58
809.06	3672.01
809.23	3798.98
809.40	3258.32
809.58	3153.87
809.75	3487.69
809.92	3157.97
810.10	3477.45
810.27	3141.58
810.44	3577.80
810.62	3598.28
810.79	3246.03
810.96	3186.64
811.14	3219.41
811.31	3590.09
811.48	3352.52
811.66	3340.24
811.83	3665.86
812.00	3583.95
812.18	3307.47
812.35	3465.16
812.52	3330.00
812.69	3250.13
812.87	3090.38
813.04	3198.93
813.21	3411.92
813.39	3352.52
813.56	3082.19
813.73	3487.69
813.91	3049.43
814.08	3448.78
814.25	3162.06
814.42	3024.85
814.60	3297.23
814.77	3463.12
814.94	3162.06
815.12	3192.78
815.29	3766.21
815.46	3266.51
815.63	3190.74
815.81	3190.74
815.98	3344.33
816.15	3434.44
816.33	3274.70
816.50	3235.79
816.67	3475.40
816.84	3426.25
817.02	3139.54
817.19	3172.30
817.36	3440.59
817.53	3442.64
817.71	3045.33
817.88	3229.65
818.05	3350.48
818.22	3444.68
818.40	3407.82
818.57	3221.45
818.74	3696.58
818.91	3426.25
819.09	3438.54
819.26	3274.70
819.43	3231.69
819.60	3231.69
819.78	3325.90
819.95	3258.32
820.12	3225.55
820.29	3846.09
820.47	3526.60
820.64	3090.38
820.81	3176.40
820.98	3266.51
821.15	3262.41
821.33	3295.18
821.50	3145.68
821.67	3520.46
821.84	3200.98
822.02	3192.78
822.19	3557.32
822.36	3284.94
822.53	3166.16
822.70	3125.20
822.88	3358.67
823.05	3704.78
823.22	3282.89
823.39	3149.78
823.56	3450.83
823.74	3788.74
823.91	3051.47
824.08	3110.86
824.25	3127.25
824.42	3792.84
824.60	3010.51
824.77	3307.47
824.94	3362.76
825.11	3585.99
825.28	3002.32
825.45	3305.42
825.63	3461.07
825.80	3221.45
825.97	3305.42
826.14	3219.41
826.31	3117.01
826.48	3569.61
826.66	3176.40
826.83	3135.44
827.00	3368.91
827.17	3176.40
827.34	3229.65
827.51	3051.47
827.69	3438.54
827.86	3088.34
828.03	3180.50
828.20	3272.65
828.37	3282.89
828.54	3542.99
828.71	3084.24
828.89	3262.41
829.06	3442.64
829.23	3790.79
829.40	3153.87
829.57	3139.54
829.74	3573.71
829.91	3319.76
830.09	3131.34
830.26	3389.39
830.43	3751.88
830.60	3422.16
830.77	3256.27
830.94	3352.52
831.11	3569.61
831.28	3286.99
831.46	3297.23
831.63	3153.87
831.80	3622.86
831.97	3307.47
832.14	3246.03
832.31	3237.84
832.48	3401.68
832.65	3553.23
832.82	3332.05
832.99	3291.09
833.17	3219.41
833.34	3743.69
833.51	3198.93
833.68	2977.75
833.85	3688.39
834.02	3241.93
834.19	3164.11
834.36	3200.98
834.53	3471.31
834.70	3649.48
834.87	3145.68
835.04	2944.98
835.22	3200.98
835.39	3305.42
835.56	2994.13
835.73	3112.91
835.90	3737.54
836.07	3196.88
836.24	3160.02
836.41	3008.47
836.58	3233.74
836.75	3737.54
836.92	3106.77
837.09	2934.74
837.26	3524.55
837.43	3549.13
837.60	3065.81
837.77	2994.13
837.94	3536.84
838.12	3723.21
838.29	2934.74
838.46	2932.69
838.63	3151.82
838.80	3778.50
838.97	3039.19
839.14	2928.60
839.31	3491.79
839.48	3567.56
839.65	3039.19
839.82	3106.77
839.99	3401.68
840.16	3446.73
840.33	2955.22
840.50	3002.32
840.67	3299.28
840.84	2990.03
841.01	2944.98
841.18	2955.22
841.35	3411.92
841.52	3512.27
841.69	3303.37
841.86	3051.47
842.03	3495.88
842.20	3600.33
842.37	2996.18
842.54	3074.00
842.71	3459.02
842.88	3139.54
843.05	3098.58
843.22	3016.66
843.39	3596.23
843.56	3284.94
843.73	2985.94
843.90	3067.86
844.07	3463.12
844.24	3585.99
844.41	3125.20
844.58	3041.23
844.75	3397.58
844.92	3520.46
845.09	3057.62
845.26	3047.38
845.43	3585.99
845.60	3295.18
845.77	3096.53
845.94	3082.19
846.10	3620.81
846.27	3151.82
846.44	2889.68
846.61	2926.55
846.78	3506.12
846.95	3663.82
847.12	3024.85
847.29	3022.80
847.46	3336.14
847.63	3518.41
847.80	2959.31
847.97	3074.00
848.14	3950.53
848.31	3334.09
848.48	2854.87
848.65	2934.74
848.82	3280.85
848.98	4005.83
849.15	3092.43
849.32	3162.06
849.49	3647.43
849.66	3403.72
849.83	2973.65
850.00	2938.84
850.17	3653.58
850.34	3272.65
850.51	2949.08
850.68	3067.86
850.85	3821.51
851.01	3532.75
851.18	2949.08
851.35	3018.71
851.52	3549.13
851.69	3704.78
851.86	2981.84
852.03	2969.55
852.20	3579.85
852.37	3434.44
852.53	2820.05
852.70	2883.54
852.87	3567.56
853.04	3563.47
853.21	2965.46
853.38	3188.69
853.55	3678.15
853.72	3731.40
853.89	2893.78
854.05	2971.60
854.22	3348.43
854.39	3270.61
854.56	2953.17
854.73	3174.35
854.90	3280.85
855.07	3426.25
855.23	2985.94
855.40	2897.88
855.57	3317.71
855.74	2908.12
855.91	3196.88
856.08	2861.01
856.25	3123.15
856.41	3280.85
856.58	3018.71
856.75	3008.47
856.92	3196.88
857.09	3631.05
857.26	2871.25
857.42	3067.86
857.59	3569.61
857.76	3340.24
857.93	2981.84
858.10	3094.48
858.27	3219.41
858.43	3409.87
858.60	3108.82
858.77	2904.02
858.94	3268.56
859.11	3715.02
859.27	3131.34
859.44	2944.98
859.61	3887.04
859.78	3610.57
859.95	3063.76
860.12	2953.17
860.28	3889.09
860.45	3878.85
860.62	2918.36
860.79	3076.05
860.95	3336.14
861.12	3280.85
861.29	2973.65
861.46	3018.71
861.63	3389.39
861.79	3524.55
861.96	2873.30
862.13	3057.62
862.30	3606.47
862.47	3282.89
862.63	2926.55
862.80	3020.75
862.97	3663.82
863.14	3561.42
863.30	3010.51
863.47	2947.03
863.64	3788.74
863.81	3471.31
863.97	2897.88
864.14	3010.51
864.31	3368.91
864.48	3499.98
864.65	3000.27
864.81	3035.09
864.98	3504.07
865.15	3647.43
865.32	3106.77
865.48	3141.58
865.65	3813.32
865.82	3377.10
865.98	3114.96
866.15	3082.19
866.32	3354.57
866.49	3370.96
866.65	3205.07
866.82	3057.62
866.99	3389.39
867.16	3289.04
867.32	2955.22
867.49	2865.11
867.66	3254.22
867.83	3311.57
867.99	2969.55
868.16	3061.71
868.33	3215.31
868.49	3401.68
868.66	3024.85
868.83	3125.20
868.99	3459.02
869.16	3436.49
869.33	3184.59
869.50	3053.52
869.66	3426.25
869.83	3282.89
870.00	2893.78
870.16	3086.29
870.33	3454.92
870.50	3678.15
870.66	3076.05
870.83	3016.66
871.00	3381.20
871.17	3497.93
871.33	3104.72
871.50	2975.70
871.67	3354.57
871.83	3106.77
872.00	3057.62
872.17	3004.37
872.33	3831.75
872.50	3655.62
872.67	3008.47
872.83	2926.55
873.00	3432.40
873.17	3450.83
873.33	3078.10
873.50	3074.00
873.67	3227.60
873.83	3254.22
874.00	3026.90
874.16	3123.15
874.33	3383.24
874.50	3207.12
874.66	2893.78
874.83	3123.15
875.00	3653.58
875.16	3688.39
875.33	3139.54
875.50	2772.95
875.66	3368.91
875.83	3413.96
875.99	3151.82
876.16	3205.07
876.33	3280.85
876.49	3385.29
876.66	3151.82
876.83	3094.48
876.99	3098.58
877.16	3373.00
877.32	2990.03
877.49	3119.06
877.66	3526.60
877.82	3721.16
877.99	3112.91
878.15	3358.67
878.32	3512.27
878.49	3540.94
878.65	3143.63
878.82	3319.76
878.98	3360.72
879.15	3633.10
879.32	3243.98
879.48	3256.27
879.65	3424.20
879.81	3393.48
879.98	3041.23
880.15	3135.44
880.31	3583.95
880.48	3262.41
880.64	3147.73
880.81	3155.92
880.97	3735.50
881.14	3784.65
881.31	2971.60
881.47	3209.17
881.64	3348.43
881.80	3139.54
881.97	3205.07
882.13	2975.70
882.30	3213.26
882.47	3297.23
882.63	3037.14
882.80	2963.41
882.96	3342.28
883.13	3633.10
883.29	2967.51
883.46	3010.51
883.62	3950.53
883.79	3368.91
883.95	3168.21
884.12	2992.08
884.29	3649.48
884.45	3508.17
884.62	3033.04
884.78	3000.27
884.95	3837.89
885.11	3188.69
885.28	3035.09
885.44	3041.23
885.61	3514.31
885.77	3684.30
885.94	3237.84
886.10	3114.96
886.27	3518.41
886.43	3801.03
886.60	3188.69
886.76	3063.76
886.93	3192.78
887.09	3461.07
887.26	2850.77
887.42	3110.86
887.59	3643.34
887.75	3917.76
887.92	3172.30
888.08	3196.88
888.25	3741.64
888.41	3655.62
888.58	3119.06
888.74	2973.65
888.91	3368.91
>>>>>End Processed Spectral Data<<<<<
