SpectraSuite Data File
++++++++++++++++++++++++++++++++++++
Date: Fri May 06 09:28:46 CEST 2016
User: root
Dark Spectrum Present: No
Reference Spectrum Present: No
Number of Sampled Component Spectra: 1
Spectrometers: USB4C02835
Integration Time (usec): 100000 (USB4C02835)
Spectra Averaged: 1 (USB4C02835)
Boxcar Smoothing: 0 (USB4C02835)
Correct for Electrical Dark: No (USB4C02835)
Strobe/Lamp Enabled: No (USB4C02835)
Correct for Detector Non-linearity: No (USB4C02835)
Correct for Stray Light: No (USB4C02835)
Number of Pixels in Processed Spectrum: 3648
>>>>>Begin Processed Spectral Data<<<<<
177.47	2396.12
177.69	2396.12
177.91	2396.12
178.13	2324.44
178.36	2277.34
178.58	3143.63
178.80	3274.70
179.02	3106.77
179.24	3229.65
179.46	2848.72
179.68	2940.88
179.90	3428.30
180.13	3448.78
180.35	2772.95
180.57	2856.92
180.79	3616.71
181.01	3375.05
181.23	3012.56
181.45	3125.20
181.67	3585.99
181.90	3559.37
182.12	3020.75
182.34	2846.68
182.56	3575.75
182.78	3629.00
183.00	3000.27
183.22	2977.75
183.44	3151.82
183.66	4120.51
183.89	3090.38
184.11	2969.55
184.33	3659.72
184.55	3657.67
184.77	2938.84
184.99	2983.89
185.21	3340.24
185.43	4016.07
185.65	3030.99
185.87	2963.41
186.10	3962.82
186.32	4026.31
186.54	3108.82
186.76	3123.15
186.98	3639.24
187.20	3389.39
187.42	2987.99
187.64	2910.16
187.86	3680.20
188.08	3637.19
188.30	2901.97
188.52	2967.51
188.75	3782.60
188.97	3702.73
189.19	2887.64
189.41	2854.87
189.63	3594.19
189.85	3450.83
190.07	2848.72
190.29	2842.58
190.51	3575.75
190.73	3117.01
190.95	3080.14
191.17	3039.19
191.39	3102.67
191.61	3426.25
191.84	2975.70
192.06	3078.10
192.28	3147.73
192.50	4220.86
192.72	3051.47
192.94	3092.43
193.16	3688.39
193.38	3528.65
193.60	2918.36
193.82	3082.19
194.04	3694.54
194.26	3618.76
194.48	3006.42
194.70	2983.89
194.92	3319.76
195.14	3590.09
195.36	2920.40
195.58	3043.28
195.80	3413.96
196.02	3297.23
196.24	2918.36
196.46	3041.23
196.69	3399.63
196.91	4003.78
197.13	2949.08
197.35	3102.67
197.57	3678.15
197.79	3575.75
198.01	3074.00
198.23	3022.80
198.45	3575.75
198.67	3141.58
198.89	2764.76
199.11	2969.55
199.33	3278.80
199.55	3028.95
199.77	2885.59
199.99	3155.92
200.21	3330.00
200.43	3676.10
200.65	2842.58
200.87	2799.57
201.09	3450.83
201.31	3434.44
201.53	3024.85
201.75	3016.66
201.97	3502.03
202.19	3407.82
202.41	3061.71
202.63	3067.86
202.85	3618.76
203.07	3514.31
203.29	2994.13
203.51	2879.44
203.73	3272.65
203.95	4018.11
204.17	2947.03
204.39	3207.12
204.61	3479.50
204.83	3373.00
205.05	3076.05
205.27	2992.08
205.49	3911.62
205.71	3436.49
205.93	2787.29
206.15	2885.59
206.37	3493.83
206.59	3475.40
206.81	2815.96
207.03	2881.49
207.25	3254.22
207.47	3592.14
207.69	2963.41
207.91	3131.34
208.13	3874.76
208.34	3366.86
208.56	2936.79
208.78	2967.51
209.00	3413.96
209.22	3311.57
209.44	2924.50
209.66	2885.59
209.88	3514.31
210.10	3375.05
210.32	2953.17
210.54	3114.96
210.76	3385.29
210.98	3708.87
211.20	2854.87
211.42	3067.86
211.64	3747.78
211.86	3594.19
212.08	3030.99
212.30	3002.32
212.52	3424.20
212.74	3575.75
212.96	3090.38
213.17	3028.95
213.39	3577.80
213.61	3841.99
213.83	2893.78
214.05	2834.39
214.27	3692.49
214.49	3213.26
214.71	2844.63
214.93	3100.62
215.15	3428.30
215.37	3618.76
215.59	2867.16
215.81	3041.23
216.03	3739.59
216.24	3473.36
216.46	2938.84
216.68	3000.27
216.90	3682.25
217.12	3708.87
217.34	2953.17
217.56	3182.54
217.78	3768.26
218.00	3520.46
218.22	3082.19
218.44	3039.19
218.66	3522.51
218.87	3925.96
219.09	2959.31
219.31	2973.65
219.53	3397.58
219.75	3385.29
219.97	2975.70
220.19	3037.14
220.41	3438.54
220.63	3753.93
220.85	2996.18
221.06	3037.14
221.28	3739.59
221.50	3633.10
221.72	2887.64
221.94	2813.91
222.16	3491.79
222.38	3708.87
222.60	2947.03
222.82	3008.47
223.03	3635.14
223.25	3184.59
223.47	2830.29
223.69	3207.12
223.91	3577.80
224.13	3506.12
224.35	2861.01
224.57	3180.50
224.78	3647.43
225.00	3225.55
225.22	3086.29
225.44	2904.02
225.66	3588.04
225.88	3467.21
226.10	3147.73
226.32	2908.12
226.53	3868.61
226.75	3317.71
226.97	3157.97
227.19	3049.43
227.41	3307.47
227.63	3336.14
227.85	2799.57
228.06	3039.19
228.28	3450.83
228.50	3620.81
228.72	2828.24
228.94	2963.41
229.16	3065.81
229.37	3198.93
229.59	2881.49
229.81	3299.28
230.03	3258.32
230.25	3133.39
230.47	2854.87
230.69	2994.13
230.90	3735.50
231.12	3260.37
231.34	3067.86
231.56	3053.52
231.78	3198.93
232.00	3526.60
232.21	3098.58
232.43	2936.79
232.65	3041.23
232.87	3618.76
233.09	2846.68
233.30	2842.58
233.52	3639.24
233.74	3459.02
233.96	2885.59
234.18	3174.35
234.40	3469.26
234.61	4016.07
234.83	2879.44
235.05	2928.60
235.27	4011.97
235.49	3631.05
235.70	2772.95
235.92	3037.14
236.14	3573.71
236.36	4040.64
236.58	2877.40
236.79	3086.29
237.01	3387.34
237.23	3395.53
237.45	3172.30
237.67	2951.12
237.88	3551.18
238.10	3835.85
238.32	2854.87
238.54	2926.55
238.76	3491.79
238.97	3209.17
239.19	2848.72
239.41	3016.66
239.63	3696.58
239.85	3399.63
240.06	2969.55
240.28	2934.74
240.50	3592.14
240.72	3373.00
240.93	2836.44
241.15	3018.71
241.37	3405.77
241.59	3846.09
241.81	3026.90
242.02	3000.27
242.24	3524.55
242.46	3643.34
242.68	2781.14
242.89	2883.54
243.11	3620.81
243.33	3340.24
243.55	2953.17
243.76	3059.67
243.98	3299.28
244.20	3475.40
244.42	2957.27
244.64	2879.44
244.85	3123.15
245.07	3258.32
245.29	3014.61
245.51	3006.42
245.72	3508.17
245.94	3710.92
246.16	2924.50
246.38	2975.70
246.59	3246.03
246.81	3336.14
247.03	2852.82
247.24	2861.01
247.46	3383.24
247.68	3487.69
247.90	2787.29
248.11	3020.75
248.33	3565.51
248.55	3483.59
248.77	2971.60
248.98	3080.14
249.20	3753.93
249.42	3518.41
249.64	2928.60
249.85	2922.45
250.07	3387.34
250.29	3614.66
250.50	3004.37
250.72	2947.03
250.94	3565.51
251.16	3923.91
251.37	2924.50
251.59	3041.23
251.81	3553.23
252.02	3815.37
252.24	2873.30
252.46	3106.77
252.68	3256.27
252.89	3254.22
253.11	2775.00
253.33	3141.58
253.54	3749.83
253.76	3229.65
253.98	2994.13
254.20	3033.04
254.41	3250.13
254.63	3364.81
254.85	2820.05
255.06	3074.00
255.28	3522.51
255.50	3344.33
255.71	3030.99
255.93	2717.65
256.15	3438.54
256.36	3532.75
256.58	2836.44
256.80	2901.97
257.02	3403.72
257.23	3370.96
257.45	3006.42
257.67	3135.44
257.88	3346.38
258.10	3553.23
258.32	2979.79
258.53	3082.19
258.75	3798.98
258.97	3354.57
259.18	2906.07
259.40	2926.55
259.62	3827.65
259.83	3768.26
260.05	2996.18
260.27	3936.20
260.48	3631.05
260.70	3231.69
260.92	2781.14
261.13	3033.04
261.35	3471.31
261.57	3448.78
261.78	2875.35
262.00	2832.34
262.22	3553.23
262.43	3299.28
262.65	2922.45
262.86	2928.60
263.08	4024.26
263.30	3528.65
263.51	2844.63
263.73	2969.55
263.95	3915.72
264.16	3264.46
264.38	2842.58
264.60	2987.99
264.81	3499.98
265.03	3751.88
265.25	3450.83
265.46	2955.22
265.68	3696.58
265.89	3641.29
266.11	2799.57
266.33	2994.13
266.54	3674.06
266.76	3481.55
266.98	3037.14
267.19	3229.65
267.41	3631.05
267.62	3426.25
267.84	2762.71
268.06	3127.25
268.27	3542.99
268.49	3704.78
268.70	2944.98
268.92	2973.65
269.14	3368.91
269.35	3155.92
269.57	3071.95
269.79	2977.75
270.00	3299.28
270.22	3801.03
270.43	2799.57
270.65	2834.39
270.87	3524.55
271.08	3602.38
271.30	3106.77
271.51	2959.31
271.73	3598.28
271.95	3819.46
272.16	2869.20
272.38	3160.02
272.59	3409.87
272.81	3567.56
273.02	2897.88
273.24	3061.71
273.46	3684.30
273.67	3143.63
273.89	2848.72
274.10	2979.79
274.32	3706.82
274.54	3565.51
274.75	3014.61
274.97	3043.28
275.18	3596.23
275.40	3518.41
275.61	2932.69
275.83	3196.88
276.05	3143.63
276.26	3448.78
276.48	3022.80
276.69	3147.73
276.91	3364.81
277.12	3737.54
277.34	3067.86
277.55	3274.70
277.77	3461.07
277.99	3327.95
278.20	3123.15
278.42	3020.75
278.63	3311.57
278.85	3327.95
279.06	3135.44
279.28	3194.83
279.49	3680.20
279.71	3577.80
279.93	3205.07
280.14	3082.19
280.36	3289.04
280.57	3708.87
280.79	3256.27
281.00	2992.08
281.22	3264.46
281.43	3663.82
281.65	2949.08
281.86	3020.75
282.08	3635.14
282.29	3878.85
282.51	2940.88
282.73	2969.55
282.94	3102.67
283.16	3641.29
283.37	3135.44
283.59	3164.11
283.80	3522.51
284.02	3444.68
284.23	3168.21
284.45	3094.48
284.66	3162.06
284.88	3291.09
285.09	2979.79
285.31	3180.50
285.52	3495.88
285.74	3123.15
285.95	3237.84
286.17	3160.02
286.38	3678.15
286.60	3305.42
286.81	3076.05
287.03	3057.62
287.24	3497.93
287.46	3557.32
287.67	3270.61
287.89	3278.80
288.10	3459.02
288.32	3512.27
288.53	3254.22
288.75	3188.69
288.96	3639.24
289.18	3342.28
289.39	3041.23
289.61	3192.78
289.82	3964.87
290.04	3805.13
290.25	2959.31
290.47	3239.89
290.68	3459.02
290.90	3727.30
291.11	2854.87
291.33	3307.47
291.54	3307.47
291.76	3286.99
291.97	3172.30
292.18	3162.06
292.40	3450.83
292.61	3264.46
292.83	3418.06
293.04	3119.06
293.26	3469.26
293.47	3383.24
293.69	3074.00
293.90	3035.09
294.12	3729.35
294.33	3387.34
294.55	3127.25
294.76	3350.48
294.97	3737.54
295.19	3846.09
295.40	3162.06
295.62	3137.49
295.83	3622.86
296.05	3297.23
296.26	3393.48
296.48	3108.82
296.69	3387.34
296.90	3434.44
297.12	3200.98
297.33	3200.98
297.55	3588.04
297.76	3583.95
297.98	3205.07
298.19	3295.18
298.41	3452.88
298.62	3241.93
298.83	3227.60
299.05	3149.78
299.26	3317.71
299.48	3233.74
299.69	3149.78
299.90	3082.19
300.12	3246.03
300.33	3604.42
300.55	3182.54
300.76	3149.78
300.98	3286.99
301.19	3614.66
301.40	3114.96
301.62	3112.91
301.83	3569.61
302.05	3514.31
302.26	3078.10
302.47	3239.89
302.69	3125.20
302.90	3397.58
303.12	2906.07
303.33	3252.17
303.54	3968.96
303.76	3356.62
303.97	3063.76
304.19	3352.52
304.40	3155.92
304.61	3577.80
304.83	3127.25
305.04	3157.97
305.26	3653.58
305.47	3313.61
305.68	3088.34
305.90	3088.34
306.11	3669.96
306.33	3340.24
306.54	2981.84
306.75	3129.30
306.97	3145.68
307.18	3254.22
307.39	3012.56
307.61	3217.36
307.82	3526.60
308.04	3557.32
308.25	2983.89
308.46	3205.07
308.68	3401.68
308.89	3383.24
309.10	3233.74
309.32	3172.30
309.53	3446.73
309.74	3508.17
309.96	3012.56
310.17	3250.13
310.39	3377.10
310.60	3606.47
310.81	3172.30
311.03	2994.13
311.24	3624.90
311.45	3491.79
311.67	3403.72
311.88	3239.89
312.09	3221.45
312.31	3289.04
312.52	3047.38
312.73	3045.33
312.95	3223.50
313.16	3293.13
313.37	3223.50
313.59	3260.37
313.80	3715.02
314.01	3778.50
314.23	3157.97
314.44	2985.94
314.65	3157.97
314.87	3346.38
315.08	3051.47
315.29	3112.91
315.51	3317.71
315.72	3205.07
315.93	3164.11
316.15	3188.69
316.36	3428.30
316.57	3459.02
316.79	3069.91
317.00	3026.90
317.21	3606.47
317.43	3260.37
317.64	3164.11
317.85	3041.23
318.07	3323.85
318.28	3395.53
318.49	3151.82
318.70	3309.52
318.92	3497.93
319.13	3397.58
319.34	3225.55
319.56	3119.06
319.77	3545.03
319.98	3534.79
320.20	3366.86
320.41	3327.95
320.62	3540.94
320.83	3233.74
321.05	3280.85
321.26	3147.73
321.47	3430.35
321.69	3766.21
321.90	2961.36
322.11	2992.08
322.32	3569.61
322.54	3819.46
322.75	3065.81
322.96	4186.05
323.18	3137.49
323.39	3098.58
323.60	2985.94
323.81	3291.09
324.03	3313.61
324.24	3397.58
324.45	3264.46
324.66	3010.51
324.88	3729.35
325.09	3805.13
325.30	3074.00
325.52	3026.90
325.73	3516.36
325.94	3313.61
326.15	2955.22
326.37	2926.55
326.58	3626.95
326.79	3737.54
327.00	2979.79
327.22	3082.19
327.43	3452.88
327.64	3192.78
327.85	3207.12
328.07	3170.26
328.28	3794.89
328.49	3325.90
328.70	3104.72
328.92	3166.16
329.13	3434.44
329.34	3493.83
329.55	3336.14
329.76	3276.75
329.98	3358.67
330.19	3700.68
330.40	3176.40
330.61	3301.33
330.83	3639.24
331.04	3196.88
331.25	3184.59
331.46	3205.07
331.68	3168.21
331.89	3723.21
332.10	3139.54
332.31	2977.75
332.52	3487.69
332.74	3715.02
332.95	2975.70
333.16	3129.30
333.37	3594.19
333.58	3237.84
333.80	3100.62
334.01	2818.00
334.22	3407.82
334.43	3375.05
334.64	2975.70
334.86	3033.04
335.07	3303.37
335.28	3745.73
335.49	3024.85
335.70	3162.06
335.92	3760.07
336.13	3930.05
336.34	3104.72
336.55	3082.19
336.76	3499.98
336.98	3028.95
337.19	3090.38
337.40	3192.78
337.61	3999.68
337.82	3450.83
338.04	3188.69
338.25	3035.09
338.46	3368.91
338.67	3358.67
338.88	3041.23
339.09	3022.80
339.31	3364.81
339.52	3205.07
339.73	3043.28
339.94	3098.58
340.15	3542.99
340.36	3416.01
340.58	3151.82
340.79	2992.08
341.00	3569.61
341.21	3207.12
341.42	3336.14
341.63	3117.01
341.85	3663.82
342.06	3487.69
342.27	3053.52
342.48	3336.14
342.69	3190.74
342.90	3624.90
343.12	3461.07
343.33	3047.38
343.54	3606.47
343.75	3753.93
343.96	3313.61
344.17	3020.75
344.38	3413.96
344.60	3196.88
344.81	3055.57
345.02	3098.58
345.23	3747.78
345.44	3983.30
345.65	3200.98
345.86	3207.12
346.07	3626.95
346.29	3295.18
346.50	3319.76
346.71	3229.65
346.92	3801.03
347.13	3878.85
347.34	3211.22
347.55	2983.89
347.76	3467.21
347.98	3074.00
348.19	3121.10
348.40	3327.95
348.61	3346.38
348.82	3784.65
349.03	3096.53
349.24	3010.51
349.45	3874.76
349.66	3026.90
349.88	3057.62
350.09	2967.51
350.30	3723.21
350.51	3708.87
350.72	3317.71
350.93	3080.14
351.14	3360.72
351.35	3461.07
351.56	3106.77
351.77	3155.92
351.99	3565.51
352.20	3758.02
352.41	3260.37
352.62	2940.88
352.83	3450.83
353.04	3532.75
353.25	3065.81
353.46	3149.78
353.67	3731.40
353.88	3000.27
354.09	3008.47
354.30	3172.30
354.52	3598.28
354.73	3403.72
354.94	3065.81
355.15	3227.60
355.36	3876.80
355.57	3297.23
355.78	2963.41
355.99	3106.77
356.20	3272.65
356.41	3794.89
356.62	3149.78
356.83	3106.77
357.04	3698.63
357.25	3110.86
357.46	3096.53
357.68	3051.47
357.89	3237.84
358.10	3479.50
358.31	3131.34
358.52	3153.87
358.73	3221.45
358.94	3213.26
359.15	3082.19
359.36	3063.76
359.57	3467.21
359.78	3436.49
359.99	3332.05
360.20	3041.23
360.41	3364.81
360.62	3545.03
360.83	3248.08
361.04	3164.11
361.25	3542.99
361.46	3764.17
361.67	3278.80
361.88	3098.58
362.09	3712.97
362.30	3567.56
362.51	3102.67
362.72	3186.64
362.93	3614.66
363.14	3508.17
363.35	3221.45
363.56	3041.23
363.78	3692.49
363.99	3565.51
364.20	3125.20
364.41	3164.11
364.62	3903.43
364.83	3469.26
365.04	3094.48
365.25	3196.88
365.46	3989.44
365.67	3291.09
365.88	3330.00
366.09	3082.19
366.30	3342.28
366.51	3534.79
366.72	3078.10
366.93	3084.24
367.14	3416.01
367.35	3702.73
367.56	3043.28
367.77	3215.31
367.98	3448.78
368.18	3473.36
368.39	3205.07
368.60	3080.14
368.81	3522.51
369.02	3497.93
369.23	3090.38
369.44	2926.55
369.65	3516.36
369.86	3618.76
370.07	3155.92
370.28	3035.09
370.49	3524.55
370.70	3403.72
370.91	2971.60
371.12	3018.71
371.33	3606.47
371.54	3256.27
371.75	3164.11
371.96	2772.95
372.17	3483.59
372.38	3411.92
372.59	3168.21
372.80	3059.67
373.01	3332.05
373.22	3454.92
373.43	3061.71
373.64	2994.13
373.85	3708.87
374.06	3866.56
374.26	3289.04
374.47	3291.09
374.68	3692.49
374.89	3559.37
375.10	3080.14
375.31	3157.97
375.52	3444.68
375.73	3450.83
375.94	2936.79
376.15	3174.35
376.36	3340.24
376.57	3313.61
376.78	3155.92
376.99	3141.58
377.20	3682.25
377.40	3350.48
377.61	3399.63
377.82	3110.86
378.03	3801.03
378.24	3614.66
378.45	3246.03
378.66	3200.98
378.87	3106.77
379.08	3043.28
379.29	3110.86
379.50	3254.22
379.71	3430.35
379.91	3577.80
380.12	3059.67
380.33	3180.50
380.54	3401.68
380.75	3373.00
380.96	3170.26
381.17	3096.53
381.38	3303.37
381.59	3461.07
381.80	3166.16
382.00	3311.57
382.21	3483.59
382.42	3770.31
382.63	3559.37
382.84	3305.42
383.05	3712.97
383.26	3774.41
383.47	3139.54
383.68	3141.58
383.88	3612.62
384.09	3420.11
384.30	3393.48
384.51	3196.88
384.72	3405.77
384.93	3166.16
385.14	3207.12
385.35	3389.39
385.55	3119.06
385.76	3749.83
385.97	3145.68
386.18	2961.36
386.39	3237.84
386.60	3303.37
386.81	3049.43
387.02	3049.43
387.22	3260.37
387.43	3598.28
387.64	3229.65
387.85	3342.28
388.06	3370.96
388.27	4341.69
388.48	7159.70
388.68	10870.62
388.89	13711.15
389.10	14788.38
389.31	14473.00
389.52	11605.84
389.73	10348.39
389.93	9322.35
390.14	8636.28
390.35	7972.74
390.56	7425.93
390.77	6227.87
390.98	4640.70
391.18	4138.94
391.39	3966.92
391.60	3465.16
391.81	3405.77
392.02	3237.84
392.23	4022.21
392.43	3418.06
392.64	3239.89
392.85	3246.03
393.06	3790.79
393.27	3389.39
393.47	3133.39
393.68	3200.98
393.89	3325.90
394.10	3706.82
394.31	3082.19
394.52	3084.24
394.72	3293.13
394.93	3700.68
395.14	2994.13
395.35	3237.84
395.56	3327.95
395.76	3430.35
395.97	3119.06
396.18	3231.69
396.39	3350.48
396.60	3966.92
396.80	3526.60
397.01	3409.87
397.22	3635.14
397.43	3704.78
397.64	3110.86
397.84	3135.44
398.05	3876.80
398.26	3330.00
398.47	3303.37
398.67	3368.91
398.88	3481.55
399.09	3682.25
399.30	3094.48
399.51	3104.72
399.71	3303.37
399.92	3409.87
400.13	3262.41
400.34	3160.02
400.54	3450.83
400.75	3893.19
400.96	3205.07
401.17	3542.99
401.37	3577.80
401.58	3536.84
401.79	3057.62
402.00	3303.37
402.21	3848.13
402.41	3545.03
402.62	3377.10
402.83	3497.93
403.04	3844.04
403.24	4280.25
403.45	3205.07
403.66	3430.35
403.87	3600.33
404.07	3774.41
404.28	3461.07
404.49	3520.46
404.70	3542.99
404.90	3635.14
405.11	3108.82
405.32	3180.50
405.52	3342.28
405.73	3231.69
405.94	3033.04
406.15	3145.68
406.35	3549.13
406.56	3655.62
406.77	3225.55
406.98	3114.96
407.18	3256.27
407.39	3837.89
407.60	3172.30
407.80	3289.04
408.01	3280.85
408.22	3542.99
408.43	3045.33
408.63	3182.54
408.84	3633.10
409.05	3633.10
409.25	3041.23
409.46	3233.74
409.67	3446.73
409.88	3215.31
410.08	3157.97
410.29	3067.86
410.50	3674.06
410.70	3532.75
410.91	2996.18
411.12	3172.30
411.32	3459.02
411.53	3157.97
411.74	3180.50
411.95	3284.94
412.15	3409.87
412.36	3631.05
412.57	3278.80
412.77	3311.57
412.98	3403.72
413.19	3270.61
413.39	3246.03
413.60	3123.15
413.81	3739.59
414.01	3166.16
414.22	3117.01
414.43	3350.48
414.63	3295.18
414.84	3604.42
415.05	3252.17
415.25	3030.99
415.46	3571.66
415.67	3350.48
415.87	3196.88
416.08	3147.73
416.29	3356.62
416.49	3588.04
416.70	3248.08
416.91	3194.83
417.11	3426.25
417.32	3678.15
417.53	3276.75
417.73	3215.31
417.94	3405.77
418.15	3547.08
418.35	3188.69
418.56	3168.21
418.77	4003.78
418.97	3461.07
419.18	3258.32
419.38	2832.34
419.59	3467.21
419.80	3817.41
420.00	3119.06
420.21	3141.58
420.42	3717.06
420.62	3479.50
420.83	3143.63
421.04	3106.77
421.24	3465.16
421.45	3583.95
421.65	3205.07
421.86	3270.61
422.07	3559.37
422.27	3495.88
422.48	3112.91
422.69	3016.66
422.89	3485.64
423.10	3332.05
423.30	3098.58
423.51	3196.88
423.72	3526.60
423.92	3567.56
424.13	3069.91
424.33	3323.85
424.54	3633.10
424.75	3524.55
424.95	3465.16
425.16	3117.01
425.36	3444.68
425.57	3665.86
425.78	3336.14
425.98	3252.17
426.19	3360.72
426.39	3291.09
426.60	3250.13
426.81	3278.80
427.01	3506.12
427.22	3258.32
427.42	2977.75
427.63	3141.58
427.83	3727.30
428.04	3895.24
428.25	3172.30
428.45	3217.36
428.66	3700.68
428.86	3325.90
429.07	3219.41
429.28	3102.67
429.48	3442.64
429.69	3241.93
429.89	3221.45
430.10	3094.48
430.30	3663.82
430.51	3598.28
430.71	3078.10
430.92	3286.99
431.13	3334.09
431.33	3608.52
431.54	3205.07
431.74	3442.64
431.95	3993.54
432.15	3260.37
432.36	3137.49
432.56	3217.36
432.77	3917.76
432.98	3827.65
433.18	3297.23
433.39	3086.29
433.59	3391.44
433.80	3897.28
434.00	3295.18
434.21	3239.89
434.41	3299.28
434.62	3942.34
434.82	3051.47
435.03	3139.54
435.23	3524.55
435.44	3094.48
435.64	3086.29
435.85	3180.50
436.06	3540.94
436.26	3698.63
436.47	3172.30
436.67	3033.04
436.88	3237.84
437.08	3686.34
437.29	3213.26
437.49	3344.33
437.70	3684.30
437.90	3434.44
438.11	3370.96
438.31	3229.65
438.52	3762.12
438.72	3614.66
438.93	3510.22
439.13	3303.37
439.34	3643.34
439.54	3340.24
439.75	3264.46
439.95	3131.34
440.16	3223.50
440.36	3487.69
440.57	3200.98
440.77	3143.63
440.98	3411.92
441.18	3499.98
441.39	3063.76
441.59	3020.75
441.80	3885.00
442.00	3370.96
442.21	3280.85
442.41	3039.19
442.62	3702.73
442.82	3284.94
443.02	3082.19
443.23	3231.69
443.43	3299.28
443.64	3852.23
443.84	3033.04
444.05	3246.03
444.25	3448.78
444.46	3430.35
444.66	3186.64
444.87	3295.18
445.07	3071.95
445.28	3358.67
445.48	3303.37
445.69	3266.51
445.89	4034.50
446.09	3330.00
446.30	3456.97
446.50	3530.70
446.71	5058.48
446.91	6254.50
447.12	6946.71
447.32	7225.23
447.53	7427.98
447.73	6135.71
447.93	5439.40
448.14	5158.83
448.34	5515.18
448.55	4456.38
448.75	4462.52
448.96	4184.00
449.16	4212.67
449.36	4057.03
449.57	3354.57
449.77	3274.70
449.98	3354.57
450.18	3536.84
450.39	3139.54
450.59	3387.34
450.79	3475.40
451.00	3248.08
451.20	3295.18
451.41	3084.24
451.61	3545.03
451.81	3403.72
452.02	3084.24
452.22	3143.63
452.43	3397.58
452.63	3278.80
452.84	3194.83
453.04	3131.34
453.24	3561.42
453.45	3286.99
453.65	3184.59
453.86	3117.01
454.06	3522.51
454.26	3459.02
454.47	3119.06
454.67	3373.00
454.87	3575.75
455.08	3356.62
455.28	3205.07
455.49	3375.05
455.69	3286.99
455.89	3919.81
456.10	3264.46
456.30	3155.92
456.51	3659.72
456.71	3487.69
456.91	3313.61
457.12	3172.30
457.32	3530.70
457.52	3198.93
457.73	3319.76
457.93	3346.38
458.14	3338.19
458.34	3016.66
458.54	3180.50
458.75	3139.54
458.95	3606.47
459.15	3532.75
459.36	3180.50
459.56	3176.40
459.76	3993.54
459.97	3379.15
460.17	3143.63
460.37	3207.12
460.58	3516.36
460.78	3614.66
460.99	3203.02
461.19	3151.82
461.39	3229.65
461.60	3418.06
461.80	3172.30
462.00	3067.86
462.21	3387.34
462.41	3301.33
462.61	3098.58
462.82	2947.03
463.02	3508.17
463.22	3438.54
463.43	3196.88
463.63	3092.43
463.83	3774.41
464.04	3483.59
464.24	3047.38
464.44	3184.59
464.64	3516.36
464.85	3575.75
465.05	3192.78
465.25	3071.95
465.46	3340.24
465.66	3614.66
465.86	3321.81
466.07	3133.39
466.27	3387.34
466.47	3149.78
466.68	3006.42
466.88	3280.85
467.08	3575.75
467.29	3702.73
467.49	3168.21
467.69	3315.66
467.89	3534.79
468.10	3438.54
468.30	3295.18
468.50	3250.13
468.71	3592.14
468.91	3131.34
469.11	3395.53
469.31	3258.32
469.52	3280.85
469.72	3885.00
469.92	3444.68
470.13	3164.11
470.33	3321.81
470.53	3459.02
470.73	3499.98
470.94	3813.32
471.14	4097.99
471.34	4540.35
471.54	4112.32
471.75	3862.47
471.95	3755.97
472.15	3688.39
472.36	3665.86
472.56	3561.42
472.76	3891.14
472.96	3768.26
473.17	3395.53
473.37	3254.22
473.57	3383.24
473.77	3532.75
473.98	3315.66
474.18	3043.28
474.38	4091.84
474.58	3311.57
474.79	3010.51
474.99	3262.41
475.19	3741.64
475.39	3295.18
475.60	3286.99
475.80	3059.67
476.00	3559.37
476.20	3327.95
476.41	3323.85
476.61	3262.41
476.81	3815.37
477.01	3213.26
477.21	3422.16
477.42	3256.27
477.62	3336.14
477.82	3602.38
478.02	3135.44
478.23	3119.06
478.43	3153.87
478.63	3352.52
478.83	3223.50
479.03	3313.61
479.24	3815.37
479.44	3805.13
479.64	3067.86
479.84	3008.47
480.04	3264.46
480.25	3624.90
480.45	3086.29
480.65	3041.23
480.85	3796.93
481.06	3254.22
481.26	3246.03
481.46	3129.30
481.66	3479.50
481.86	3307.47
482.06	3346.38
482.27	3227.60
482.47	3309.52
482.67	3600.33
482.87	3200.98
483.07	3237.84
483.28	3344.33
483.48	3180.50
483.68	3135.44
483.88	3092.43
484.08	3010.51
484.29	3256.27
484.49	3274.70
484.69	2947.03
484.89	3694.54
485.09	3669.96
485.29	3094.48
485.50	3344.33
485.70	3325.90
485.90	3739.59
486.10	3323.85
486.30	3127.25
486.50	3690.44
486.71	3440.59
486.91	3182.54
487.11	3289.04
487.31	3145.68
487.51	3481.55
487.71	3010.51
487.91	3112.91
488.12	3301.33
488.32	2990.03
488.52	3198.93
488.72	2924.50
488.92	3516.36
489.12	3758.02
489.32	3307.47
489.53	3141.58
489.73	3149.78
489.93	3909.57
490.13	3217.36
490.33	3000.27
490.53	3459.02
490.73	3723.21
490.94	3059.67
491.14	3342.28
491.34	3557.32
491.54	3510.22
491.74	4052.93
491.94	4442.04
492.14	5148.59
492.34	5189.55
492.54	4693.94
492.75	4126.66
492.95	4353.98
493.15	4126.66
493.35	3803.08
493.55	3796.93
493.75	3776.45
493.95	3950.53
494.15	3307.47
494.35	3258.32
494.56	3444.68
494.76	3254.22
494.96	3319.76
495.16	3157.97
495.36	3387.34
495.56	3452.88
495.76	3196.88
495.96	3149.78
496.16	3309.52
496.36	3774.41
496.56	3082.19
496.77	3264.46
496.97	3418.06
497.17	3723.21
497.37	3026.90
497.57	3295.18
497.77	3459.02
497.97	3246.03
498.17	3135.44
498.37	3205.07
498.57	3596.23
498.77	3315.66
498.97	3332.05
499.17	3514.31
499.38	3418.06
499.58	3542.99
499.78	3395.53
499.98	3368.91
500.18	3389.39
500.38	3229.65
500.58	3344.33
500.78	3698.63
500.98	5965.73
501.18	7800.71
501.38	9037.69
501.58	10076.01
501.78	10143.59
501.98	8368.00
502.18	7137.17
502.38	6145.95
502.58	6305.70
502.78	5572.52
502.98	5253.04
503.18	4976.56
503.38	4859.83
503.59	4184.00
503.79	4042.69
503.99	3807.17
504.19	3981.25
504.39	4040.64
504.59	3682.25
504.79	3497.93
504.99	3956.68
505.19	3559.37
505.39	3268.56
505.59	3516.36
505.79	3868.61
505.99	3661.77
506.19	3246.03
506.39	3454.92
506.59	3323.85
506.79	3391.44
506.99	3420.11
507.19	3133.39
507.39	3620.81
507.59	3248.08
507.79	3164.11
507.99	3067.86
508.19	3389.39
508.39	3270.61
508.59	3231.69
508.79	3217.36
508.99	3817.41
509.19	3270.61
509.39	3211.22
509.59	3088.34
509.79	3393.48
509.99	3477.45
510.19	3430.35
510.39	3266.51
510.59	3491.79
510.79	3321.81
510.99	3000.27
511.19	3160.02
511.39	3852.23
511.59	3651.53
511.79	3362.76
511.99	3160.02
512.19	3878.85
512.38	3368.91
512.58	3149.78
512.78	3067.86
512.98	3733.45
513.18	3731.40
513.38	3131.34
513.58	3305.42
513.78	3411.92
513.98	3352.52
514.18	3162.06
514.38	3180.50
514.58	3653.58
514.78	3340.24
514.98	3033.04
515.18	3203.02
515.38	3151.82
515.58	3792.84
515.78	3235.79
515.98	3209.17
516.18	3536.84
516.38	3493.83
516.57	3114.96
516.77	3147.73
516.97	3571.66
517.17	3303.37
517.37	2949.08
517.57	3231.69
517.77	3479.50
517.97	3327.95
518.17	3233.74
518.37	2992.08
518.57	3274.70
518.77	3350.48
518.97	3270.61
519.16	3192.78
519.36	3780.55
519.56	3241.93
519.76	3114.96
519.96	3246.03
520.16	3706.82
520.36	3174.35
520.56	3268.56
520.76	3106.77
520.96	3399.63
521.16	3577.80
521.35	3397.58
521.55	3336.14
521.75	3452.88
521.95	3381.20
522.15	3074.00
522.35	3067.86
522.55	3307.47
522.75	3655.62
522.95	2998.23
523.14	3053.52
523.34	3405.77
523.54	3319.76
523.74	3332.05
523.94	3270.61
524.14	3108.82
524.34	3459.02
524.54	3428.30
524.73	3209.17
524.93	3583.95
525.13	3456.97
525.33	3080.14
525.53	3411.92
525.73	3592.14
525.93	3493.83
526.13	3284.94
526.32	3002.32
526.52	3657.67
526.72	3590.09
526.92	3209.17
527.12	3082.19
527.32	3114.96
527.52	3559.37
527.71	3196.88
527.91	3219.41
528.11	3391.44
528.31	3426.25
528.51	3164.11
528.71	3286.99
528.90	3620.81
529.10	3669.96
529.30	3168.21
529.50	2910.16
529.70	3456.97
529.90	3377.10
530.09	3178.45
530.29	3045.33
530.49	3313.61
530.69	3993.54
530.89	3411.92
531.09	3274.70
531.28	3209.17
531.48	3723.21
531.68	3153.87
531.88	3176.40
532.08	3653.58
532.28	3471.31
532.47	3223.50
532.67	3272.65
532.87	3540.94
533.07	3196.88
533.27	3188.69
533.46	3229.65
533.66	3493.83
533.86	3497.93
534.06	3231.69
534.26	3166.16
534.45	3338.19
534.65	3629.00
534.85	3200.98
535.05	3004.37
535.25	3635.14
535.44	3166.16
535.64	3196.88
535.84	3143.63
536.04	3325.90
536.24	3360.72
536.43	3123.15
536.63	3170.26
536.83	3452.88
537.03	3397.58
537.22	2963.41
537.42	2977.75
537.62	3428.30
537.82	3196.88
538.02	3291.09
538.21	3190.74
538.41	4065.22
538.61	3565.51
538.81	3274.70
539.00	3268.56
539.20	3065.81
539.40	3350.48
539.60	3094.48
539.79	3467.21
539.99	3444.68
540.19	3325.90
540.39	3141.58
540.58	3219.41
540.78	3661.77
540.98	3495.88
541.18	3463.12
541.37	3217.36
541.57	3442.64
541.77	3475.40
541.97	3123.15
542.16	3045.33
542.36	3438.54
542.56	3696.58
542.76	3270.61
542.95	3233.74
543.15	3542.99
543.35	3626.95
543.54	3137.49
543.74	3090.38
543.94	3747.78
544.14	3246.03
544.33	3323.85
544.53	3168.21
544.73	3393.48
544.93	3364.81
545.12	3110.86
545.32	3131.34
545.52	3354.57
545.71	3184.59
545.91	3164.11
546.11	3112.91
546.30	3192.78
546.50	3436.49
546.70	3217.36
546.90	3155.92
547.09	3004.37
547.29	3434.44
547.49	3325.90
547.68	3180.50
547.88	3323.85
548.08	3545.03
548.27	3473.36
548.47	3100.62
548.67	3303.37
548.87	3499.98
549.06	3129.30
549.26	3053.52
549.46	3499.98
549.65	3237.84
549.85	3276.75
550.05	3139.54
550.24	3217.36
550.44	3530.70
550.64	3219.41
550.83	3278.80
551.03	3741.64
551.23	3624.90
551.42	3307.47
551.62	3264.46
551.82	3393.48
552.01	3366.86
552.21	3504.07
552.41	3233.74
552.60	3743.69
552.80	3477.45
553.00	3186.64
553.19	3211.22
553.39	3796.93
553.59	3139.54
553.78	3399.63
553.98	3112.91
554.17	3160.02
554.37	3526.60
554.57	3186.64
554.76	3016.66
554.96	3295.18
555.16	3352.52
555.35	3270.61
555.55	3301.33
555.75	3497.93
555.94	3631.05
556.14	3041.23
556.33	3184.59
556.53	3370.96
556.73	3438.54
556.92	3190.74
557.12	3106.77
557.32	3823.56
557.51	3700.68
557.71	3188.69
557.90	3379.15
558.10	3723.21
558.30	3330.00
558.49	3209.17
558.69	3168.21
558.88	3590.09
559.08	3510.22
559.28	3217.36
559.47	3221.45
559.67	3631.05
559.86	3872.71
560.06	3084.24
560.26	3162.06
560.45	3547.08
560.65	3338.19
560.84	3567.56
561.04	3063.76
561.24	3622.86
561.43	3157.97
561.63	3379.15
561.82	3299.28
562.02	3491.79
562.22	3280.85
562.41	3145.68
562.61	3141.58
562.80	3139.54
563.00	3995.59
563.19	3198.93
563.39	3299.28
563.59	3538.89
563.78	3170.26
563.98	2928.60
564.17	3141.58
564.37	3010.51
564.56	3307.47
564.76	3143.63
564.96	3330.00
565.15	3444.68
565.35	3999.68
565.54	3196.88
565.74	3229.65
565.93	3549.13
566.13	3491.79
566.32	3274.70
566.52	3330.00
566.71	3516.36
566.91	3661.77
567.11	3264.46
567.30	3086.29
567.50	3516.36
567.69	3491.79
567.89	3127.25
568.08	3018.71
568.28	3393.48
568.47	3182.54
568.67	3135.44
568.86	3082.19
569.06	3540.94
569.25	3356.62
569.45	3022.80
569.64	3172.30
569.84	3340.24
570.04	3442.64
570.23	3221.45
570.43	3248.08
570.62	3489.74
570.82	3819.46
571.01	3057.62
571.21	3215.31
571.40	3284.94
571.60	3565.51
571.79	3248.08
571.99	3170.26
572.18	3239.89
572.38	3559.37
572.57	3231.69
572.77	3168.21
572.96	3985.35
573.16	3463.12
573.35	3135.44
573.55	3377.10
573.74	3471.31
573.94	3407.82
574.13	3209.17
574.33	3354.57
574.52	3682.25
574.71	3442.64
574.91	3186.64
575.10	3057.62
575.30	3352.52
575.49	3119.06
575.69	3106.77
575.88	3135.44
576.08	3493.83
576.27	3592.14
576.47	3106.77
576.66	3317.71
576.86	3780.55
577.05	3446.73
577.25	3317.71
577.44	3352.52
577.64	3395.53
577.83	3538.89
578.02	3196.88
578.22	3313.61
578.41	3895.24
578.61	3254.22
578.80	3051.47
579.00	3215.31
579.19	3418.06
579.39	3561.42
579.58	3309.52
579.77	3139.54
579.97	3712.97
580.16	3708.87
580.36	3352.52
580.55	3246.03
580.75	3528.65
580.94	3463.12
581.13	3336.14
581.33	3426.25
581.52	3479.50
581.72	3844.04
581.91	3297.23
582.11	3131.34
582.30	3690.44
582.49	3422.16
582.69	3506.12
582.88	3237.84
583.08	3536.84
583.27	3704.78
583.47	3358.67
583.66	3057.62
583.85	3243.98
584.05	3395.53
584.24	3362.76
584.44	3119.06
584.63	3665.86
584.82	3717.06
585.02	3297.23
585.21	3262.41
585.41	3520.46
585.60	3411.92
585.79	3413.96
585.99	3477.45
586.18	3438.54
586.37	4474.81
586.57	6545.31
586.76	18693.86
586.96	37354.95
587.15	50078.98
587.34	58223.75
587.54	61344.86
587.73	53779.66
587.93	39134.63
588.12	29728.31
588.31	24708.74
588.51	22056.62
588.70	20432.58
588.89	17870.58
589.09	15126.30
589.28	13244.21
589.47	10405.73
589.67	7860.10
589.86	6246.30
590.06	5076.91
590.25	4532.15
590.44	3921.86
590.64	3678.15
590.83	3723.21
591.02	3696.58
591.22	3106.77
591.41	3272.65
591.60	3524.55
591.80	3948.48
591.99	3067.86
592.18	3225.55
592.38	3672.01
592.57	3231.69
592.76	3098.58
592.96	3293.13
593.15	3373.00
593.34	3665.86
593.54	3114.96
593.73	3346.38
593.92	3536.84
594.12	3508.17
594.31	3282.89
594.50	3364.81
594.70	3475.40
594.89	4059.07
595.08	3008.47
595.28	3313.61
595.47	4159.42
595.66	3698.63
595.86	3155.92
596.05	3030.99
596.24	3315.66
596.43	3837.89
596.63	3284.94
596.82	3383.24
597.01	3459.02
597.21	3772.36
597.40	3129.30
597.59	3151.82
597.79	3350.48
597.98	3561.42
598.17	3297.23
598.36	3194.83
598.56	3715.02
598.75	3368.91
598.94	3231.69
599.14	3229.65
599.33	3385.29
599.52	3700.68
599.71	3262.41
599.91	3200.98
600.10	3680.20
600.29	3502.03
600.48	3221.45
600.68	3305.42
600.87	3606.47
601.06	3239.89
601.26	3295.18
601.45	3381.20
601.64	3430.35
601.83	3715.02
602.03	3074.00
602.22	3053.52
602.41	3633.10
602.60	4095.94
602.80	3286.99
602.99	3375.05
603.18	3315.66
603.37	3450.83
603.57	3137.49
603.76	3147.73
603.95	3688.39
604.14	3368.91
604.34	3110.86
604.53	3082.19
604.72	3467.21
604.91	3606.47
605.10	3164.11
605.30	2940.88
605.49	3895.24
605.68	3600.33
605.87	3205.07
606.07	3182.54
606.26	3454.92
606.45	3542.99
606.64	3233.74
606.84	3100.62
607.03	3416.01
607.22	3641.29
607.41	3233.74
607.60	3174.35
607.80	3643.34
607.99	3442.64
608.18	3192.78
608.37	3227.60
608.56	3260.37
608.76	3647.43
608.95	3268.56
609.14	3155.92
609.33	3585.99
609.52	3747.78
609.72	3303.37
609.91	3278.80
610.10	3487.69
610.29	3739.59
610.48	3241.93
610.68	3297.23
610.87	3426.25
611.06	3594.19
611.25	3194.83
611.44	3303.37
611.63	3346.38
611.83	3682.25
612.02	3147.73
612.21	3305.42
612.40	2944.98
612.59	3168.21
612.79	3151.82
612.98	3266.51
613.17	3862.47
613.36	3491.79
613.55	3297.23
613.74	3205.07
613.93	3405.77
614.13	3516.36
614.32	3393.48
614.51	3237.84
614.70	3411.92
614.89	3389.39
615.08	3254.22
615.28	3471.31
615.47	3186.64
615.66	3422.16
615.85	3151.82
616.04	3229.65
616.23	3426.25
616.42	3364.81
616.62	3143.63
616.81	3125.20
617.00	3454.92
617.19	3608.52
617.38	3188.69
617.57	3325.90
617.76	3557.32
617.95	3588.04
618.15	3319.76
618.34	3516.36
618.53	3117.01
618.72	3674.06
618.91	3200.98
619.10	3280.85
619.29	3393.48
619.48	3422.16
619.68	3100.62
619.87	3057.62
620.06	3149.78
620.25	3614.66
620.44	3203.02
620.63	3166.16
620.82	3510.22
621.01	3516.36
621.20	3291.09
621.39	3233.74
621.59	3551.18
621.78	3487.69
621.97	3114.96
622.16	3233.74
622.35	3583.95
622.54	3606.47
622.73	3241.93
622.92	3028.95
623.11	3708.87
623.30	3311.57
623.49	3344.33
623.68	3033.04
623.88	3790.79
624.07	3303.37
624.26	3074.00
624.45	3164.11
624.64	3430.35
624.83	3475.40
625.02	3186.64
625.21	3239.89
625.40	3463.12
625.59	3676.10
625.78	3213.26
625.97	3231.69
626.16	3680.20
626.35	3575.75
626.54	3147.73
626.74	3360.72
626.93	3282.89
627.12	3356.62
627.31	3164.11
627.50	3239.89
627.69	3588.04
627.88	3327.95
628.07	3151.82
628.26	3004.37
628.45	3344.33
628.64	3205.07
628.83	3225.55
629.02	3100.62
629.21	3649.48
629.40	3456.97
629.59	3051.47
629.78	3178.45
629.97	3518.41
630.16	3409.87
630.35	3153.87
630.54	3258.32
630.73	3313.61
630.92	3383.24
631.11	3053.52
631.30	3209.17
631.49	3661.77
631.68	3373.00
631.87	3207.12
632.06	3096.53
632.25	3942.34
632.44	3436.49
632.63	3280.85
632.82	3270.61
633.01	3319.76
633.20	3479.50
633.39	3229.65
633.58	2979.79
633.77	3454.92
633.96	3581.90
634.15	3325.90
634.34	3205.07
634.53	3553.23
634.72	3256.27
634.91	2992.08
635.10	3137.49
635.29	3508.17
635.48	3454.92
635.67	3020.75
635.86	3080.14
636.05	3723.21
636.24	3411.92
636.43	3166.16
636.62	3246.03
636.81	2901.97
637.00	3436.49
637.19	3090.38
637.38	3190.74
637.57	3370.96
637.76	3461.07
637.95	3452.88
638.14	3350.48
638.33	3428.30
638.52	3471.31
638.71	3114.96
638.89	3024.85
639.08	4007.87
639.27	3663.82
639.46	3471.31
639.65	3674.06
639.84	3839.94
640.03	3985.35
640.22	3514.31
640.41	3516.36
640.60	3557.32
640.79	3631.05
640.98	3379.15
641.17	3422.16
641.36	3676.10
641.55	3606.47
641.74	3104.72
641.92	3194.83
642.11	3246.03
642.30	3364.81
642.49	3102.67
642.68	3209.17
642.87	3545.03
643.06	3532.75
643.25	3024.85
643.44	3082.19
643.63	3420.11
643.82	3518.41
644.00	3043.28
644.19	3215.31
644.38	3194.83
644.57	3592.14
644.76	3207.12
644.95	3246.03
645.14	3463.12
645.33	3375.05
645.52	3332.05
645.71	2977.75
645.89	3200.98
646.08	3502.03
646.27	3250.13
646.46	3397.58
646.65	3078.10
646.84	3436.49
647.03	3141.58
647.22	3377.10
647.40	3436.49
647.59	3387.34
647.78	2953.17
647.97	3174.35
648.16	3266.51
648.35	3663.82
648.54	3440.59
648.73	3190.74
648.91	3583.95
649.10	3416.01
649.29	3157.97
649.48	3065.81
649.67	3567.56
649.86	3528.65
650.05	3188.69
650.23	3334.09
650.42	3237.84
650.61	3745.73
650.80	3373.00
650.99	3413.96
651.18	3741.64
651.36	3647.43
651.55	3180.50
651.74	3313.61
651.93	3385.29
652.12	3336.14
652.31	3221.45
652.49	3182.54
652.68	3352.52
652.87	3778.50
653.06	3293.13
653.25	3413.96
653.44	3459.02
653.62	3774.41
653.81	3217.36
654.00	3178.45
654.19	3616.71
654.38	4061.12
654.56	3301.33
654.75	3135.44
654.94	3633.10
655.13	3459.02
655.32	3098.58
655.51	3246.03
655.69	3330.00
655.88	3649.48
656.07	2975.70
656.26	3299.28
656.45	3180.50
656.63	3520.46
656.82	3129.30
657.01	3526.60
657.20	3323.85
657.38	3819.46
657.57	3123.15
657.76	3084.24
657.95	3633.10
658.14	3258.32
658.32	3350.48
658.51	3008.47
658.70	3530.70
658.89	3493.83
659.08	3225.55
659.26	3373.00
659.45	3198.93
659.64	3581.90
659.83	3200.98
660.01	3575.75
660.20	3477.45
660.39	3749.83
660.58	2918.36
660.76	3256.27
660.95	3043.28
661.14	3446.73
661.33	3063.76
661.51	3252.17
661.70	3295.18
661.89	3459.02
662.08	3227.60
662.26	3012.56
662.45	3194.83
662.64	3772.36
662.83	3192.78
663.01	3098.58
663.20	3276.75
663.39	3717.06
663.58	3198.93
663.76	3074.00
663.95	3516.36
664.14	3153.87
664.32	3262.41
664.51	3080.14
664.70	3094.48
664.89	3622.86
665.07	3049.43
665.26	3278.80
665.45	3127.25
665.64	3532.75
665.82	3160.02
666.01	3246.03
666.20	3180.50
666.38	3637.19
666.57	3471.31
666.76	5740.46
666.95	12732.22
667.13	18732.77
667.32	22699.69
667.51	25081.47
667.69	25710.20
667.88	21132.99
668.07	15390.49
668.25	13430.58
668.44	11839.31
668.63	10139.49
668.81	8970.10
669.00	7733.13
669.19	7237.52
669.38	6287.26
669.56	5449.64
669.75	4794.29
669.94	4308.93
670.12	3807.17
670.31	3444.68
670.50	3461.07
670.68	3741.64
670.87	3618.76
671.06	3139.54
671.24	3264.46
671.43	3839.94
671.62	3454.92
671.80	3182.54
671.99	3356.62
672.18	3467.21
672.36	3583.95
672.55	3252.17
672.74	3321.81
672.92	3364.81
673.11	3606.47
673.29	3049.43
673.48	3499.98
673.67	3385.29
673.85	3639.24
674.04	3155.92
674.23	3235.79
674.41	3905.48
674.60	3155.92
674.79	3088.34
674.97	3000.27
675.16	3676.10
675.34	3715.02
675.53	3162.06
675.72	3286.99
675.90	3876.80
676.09	3370.96
676.28	3348.43
676.46	2994.13
676.65	3526.60
676.83	3282.89
677.02	3256.27
677.21	3338.19
677.39	3471.31
677.58	3258.32
677.77	3145.68
677.95	3135.44
678.14	3385.29
678.32	3377.10
678.51	3227.60
678.70	3536.84
678.88	3377.10
679.07	3407.82
679.25	3248.08
679.44	3254.22
679.63	3180.50
679.81	3522.51
680.00	3409.87
680.18	3276.75
680.37	3909.57
680.55	3377.10
680.74	3110.86
680.93	2924.50
681.11	3540.94
681.30	3524.55
681.48	3207.12
681.67	3274.70
681.85	3459.02
682.04	3248.08
682.23	3286.99
682.41	3350.48
682.60	3360.72
682.78	3340.24
682.97	3045.33
683.15	3311.57
683.34	3463.12
683.53	3798.98
683.71	3086.29
683.90	3221.45
684.08	3860.42
684.27	3264.46
684.45	3229.65
684.64	3364.81
684.82	3459.02
685.01	3553.23
685.19	3139.54
685.38	3434.44
685.57	3508.17
685.75	3270.61
685.94	3102.67
686.12	3139.54
686.31	3358.67
686.49	3897.28
686.68	3028.95
686.86	3182.54
687.05	3420.11
687.23	3821.51
687.42	3221.45
687.60	3063.76
687.79	3674.06
687.97	3780.55
688.16	3352.52
688.34	3401.68
688.53	3106.77
688.71	3573.71
688.90	3518.41
689.08	3229.65
689.27	3096.53
689.45	3590.09
689.64	3323.85
689.82	3330.00
690.01	3491.79
690.19	3563.47
690.38	3262.41
690.56	3284.94
690.75	3200.98
690.93	3311.57
691.12	3131.34
691.30	3307.47
691.49	3299.28
691.67	3444.68
691.86	3581.90
692.04	3151.82
692.23	3332.05
692.41	3352.52
692.60	3608.52
692.78	3360.72
692.97	3471.31
693.15	3524.55
693.34	3401.68
693.52	3395.53
693.71	3270.61
693.89	3338.19
694.08	2985.94
694.26	3286.99
694.44	3661.77
694.63	3540.94
694.81	3106.77
695.00	3207.12
695.18	3624.90
695.37	4007.87
695.55	3344.33
695.74	3311.57
695.92	3227.60
696.10	3643.34
696.29	3074.00
696.47	3135.44
696.66	3190.74
696.84	3192.78
697.03	3252.17
697.21	3444.68
697.40	4782.01
697.58	3672.01
697.76	3254.22
697.95	3248.08
698.13	3174.35
698.32	3330.00
698.50	3176.40
698.68	3270.61
698.87	3569.61
699.05	3753.93
699.24	3235.79
699.42	3131.34
699.61	3442.64
699.79	3495.88
699.97	3213.26
700.16	3063.76
700.34	3209.17
700.53	3504.07
700.71	3452.88
700.89	3319.76
701.08	3268.56
701.26	3459.02
701.45	3528.65
701.63	3241.93
701.81	3321.81
702.00	3200.98
702.18	3297.23
702.37	3231.69
702.55	3692.49
702.73	3487.69
702.92	3207.12
703.10	3516.36
703.28	3549.13
703.47	3205.07
703.65	3373.00
703.84	3282.89
704.02	3336.14
704.20	3774.41
704.39	3176.40
704.57	3119.06
704.75	3606.47
704.94	3510.22
705.12	3313.61
705.30	4044.74
705.49	8191.88
705.67	14497.57
705.86	19472.09
706.04	21667.51
706.22	24055.44
706.41	22552.23
706.59	16713.47
706.77	13592.37
706.96	11712.33
707.14	11067.22
707.32	9344.88
707.51	8189.83
707.69	6948.76
707.87	5912.49
708.06	4861.88
708.24	4239.30
708.42	4016.07
708.61	4214.72
708.79	3330.00
708.97	3411.92
709.16	3590.09
709.34	3471.31
709.52	3237.84
709.71	3184.59
709.89	3516.36
710.07	3194.83
710.26	3219.41
710.44	3262.41
710.62	3659.72
710.80	3420.11
710.99	3284.94
711.17	3346.38
711.35	3342.28
711.54	3327.95
711.72	3409.87
711.90	3205.07
712.09	3514.31
712.27	3309.52
712.45	3350.48
712.63	3182.54
712.82	3454.92
713.00	3424.20
713.18	3280.85
713.37	3416.01
713.55	3643.34
713.73	3542.99
713.91	3305.42
714.10	3198.93
714.28	3395.53
714.46	3489.74
714.65	3321.81
714.83	3332.05
715.01	3434.44
715.19	3469.26
715.38	3180.50
715.56	3291.09
715.74	3278.80
715.92	3301.33
716.11	3551.18
716.29	2889.68
716.47	3465.16
716.65	3399.63
716.84	3104.72
717.02	3229.65
717.20	3086.29
717.38	3297.23
717.57	3385.29
717.75	3278.80
717.93	3340.24
718.11	3532.75
718.30	3069.91
718.48	3282.89
718.66	3655.62
718.84	3698.63
719.03	3223.50
719.21	3067.86
719.39	3815.37
719.57	3585.99
719.75	3270.61
719.94	3121.10
720.12	3346.38
720.30	3459.02
720.48	3346.38
720.67	3221.45
720.85	3241.93
721.03	3375.05
721.21	3155.92
721.39	3342.28
721.58	3579.85
721.76	3358.67
721.94	3237.84
722.12	3264.46
722.30	3772.36
722.49	3274.70
722.67	3233.74
722.85	3325.90
723.03	3098.58
723.21	3362.76
723.40	3239.89
723.58	3336.14
723.76	3573.71
723.94	3655.62
724.12	3266.51
724.30	3438.54
724.49	3608.52
724.67	3282.89
724.85	3295.18
725.03	3106.77
725.21	3577.80
725.40	3704.78
725.58	3225.55
725.76	3454.92
725.94	3522.51
726.12	3162.06
726.30	3332.05
726.49	3180.50
726.67	3340.24
726.85	3592.14
727.03	3925.96
727.21	5007.28
727.39	6051.75
727.57	6524.83
727.76	6694.81
727.94	6688.67
728.12	5937.06
728.30	4943.80
728.48	4859.83
728.66	4577.21
728.84	4425.66
729.03	3968.96
729.21	3760.07
729.39	3530.70
729.57	3438.54
729.75	3479.50
729.93	3454.92
730.11	3213.26
730.30	3305.42
730.48	3391.44
730.66	3307.47
730.84	3282.89
731.02	3536.84
731.20	3305.42
731.38	3196.88
731.56	3037.14
731.74	3123.15
731.93	3579.85
732.11	3336.14
732.29	3155.92
732.47	3540.94
732.65	3463.12
732.83	3391.44
733.01	3317.71
733.19	3270.61
733.37	3626.95
733.56	3278.80
733.74	3010.51
733.92	3841.99
734.10	3342.28
734.28	3317.71
734.46	3059.67
734.64	3360.72
734.82	3313.61
735.00	3207.12
735.18	3184.59
735.36	3499.98
735.54	3391.44
735.73	3139.54
735.91	3344.33
736.09	3774.41
736.27	3442.64
736.45	3315.66
736.63	2955.22
736.81	3422.16
736.99	3557.32
737.17	3401.68
737.35	3164.11
737.53	3495.88
737.71	3401.68
737.89	3356.62
738.07	3141.58
738.25	3233.74
738.43	3104.72
738.61	3217.36
738.80	3057.62
738.98	3297.23
739.16	3352.52
739.34	3213.26
739.52	3522.51
739.70	3413.96
739.88	3585.99
740.06	3344.33
740.24	2953.17
740.42	3694.54
740.60	3045.33
740.78	3186.64
740.96	2967.51
741.14	3428.30
741.32	3438.54
741.50	3076.05
741.68	3450.83
741.86	3794.89
742.04	3143.63
742.22	3051.47
742.40	3157.97
742.58	3518.41
742.76	3309.52
742.94	3448.78
743.12	3059.67
743.30	3524.55
743.48	3569.61
743.66	3096.53
743.84	3172.30
744.02	3389.39
744.20	3432.40
744.38	3100.62
744.56	3221.45
744.74	3798.98
744.92	3551.18
745.10	3381.20
745.28	3301.33
745.46	3782.60
745.64	3426.25
745.82	3239.89
746.00	3133.39
746.18	3549.13
746.36	3207.12
746.54	3248.08
746.72	3272.65
746.90	3311.57
747.08	3841.99
747.26	3182.54
747.44	3356.62
747.62	3547.08
747.80	3565.51
747.98	3334.09
748.15	3174.35
748.33	3831.75
748.51	3536.84
748.69	3289.04
748.87	3084.24
749.05	3409.87
749.23	3340.24
749.41	3061.71
749.59	3186.64
749.77	3672.01
749.95	3370.96
750.13	3131.34
750.31	3344.33
750.49	3411.92
750.67	3704.78
750.85	3235.79
751.03	3225.55
751.20	3844.04
751.38	3450.83
751.56	3248.08
751.74	3176.40
751.92	3420.11
752.10	3289.04
752.28	3346.38
752.46	3114.96
752.64	3385.29
752.82	3450.83
753.00	3303.37
753.18	3160.02
753.35	3315.66
753.53	3446.73
753.71	3069.91
753.89	3264.46
754.07	3456.97
754.25	3655.62
754.43	3319.76
754.61	3125.20
754.79	3577.80
754.97	3305.42
755.14	3428.30
755.32	3149.78
755.50	3442.64
755.68	3518.41
755.86	3198.93
756.04	3147.73
756.22	3114.96
756.40	3594.19
756.57	3397.58
756.75	3153.87
756.93	3725.26
757.11	3745.73
757.29	3030.99
757.47	3098.58
757.65	3131.34
757.82	2885.59
758.00	3125.20
758.18	3129.30
758.36	3235.79
758.54	3788.74
758.72	3108.82
758.90	3346.38
759.07	3588.04
759.25	3248.08
759.43	3325.90
759.61	3051.47
759.79	4628.41
759.97	3649.48
760.15	3178.45
760.32	3141.58
760.50	3491.79
760.68	3751.88
760.86	3012.56
761.04	3373.00
761.22	3557.32
761.39	3426.25
761.57	3364.81
761.75	3168.21
761.93	3571.66
762.11	3416.01
762.28	3338.19
762.46	3139.54
762.64	3659.72
762.82	3188.69
763.00	3141.58
763.18	3354.57
763.35	3174.35
763.53	3581.90
763.71	3293.13
763.89	3147.73
764.07	3438.54
764.24	3469.26
764.42	3209.17
764.60	3184.59
764.78	3397.58
764.96	3635.14
765.13	3399.63
765.31	3018.71
765.49	3588.04
765.67	3229.65
765.84	3172.30
766.02	3135.44
766.20	3172.30
766.38	3528.65
766.56	3383.24
766.73	3299.28
766.91	3452.88
767.09	3547.08
767.27	3174.35
767.44	3129.30
767.62	3522.51
767.80	3532.75
767.98	3125.20
768.15	3254.22
768.33	3553.23
768.51	3645.38
768.69	3350.48
768.87	3131.34
769.04	3440.59
769.22	3966.92
769.40	3293.13
769.58	3330.00
769.75	3606.47
769.93	3688.39
770.11	3205.07
770.28	3123.15
770.46	3643.34
770.64	3553.23
770.82	3243.98
770.99	3174.35
771.17	3661.77
771.35	3303.37
771.53	3221.45
771.70	3069.91
771.88	3540.94
772.06	3448.78
772.23	3127.25
772.41	3231.69
772.59	3442.64
772.77	3295.18
772.94	3256.27
773.12	3258.32
773.30	3246.03
773.47	3504.07
773.65	3043.28
773.83	3354.57
774.01	3352.52
774.18	3049.43
774.36	3243.98
774.54	3069.91
774.71	3434.44
774.89	3121.10
775.07	3071.95
775.24	3104.72
775.42	3254.22
775.60	3860.42
775.78	3119.06
775.95	3053.52
776.13	3067.86
776.31	3098.58
776.48	3397.58
776.66	3397.58
776.84	3444.68
777.01	3235.79
777.19	3067.86
777.37	3139.54
777.54	3524.55
777.72	3893.19
777.90	3299.28
778.07	3117.01
778.25	4104.13
778.43	3612.62
778.60	3200.98
778.78	3403.72
778.96	3747.78
779.13	3182.54
779.31	3241.93
779.49	3241.93
779.66	3446.73
779.84	3426.25
780.01	3141.58
780.19	3147.73
780.37	3758.02
780.54	3516.36
780.72	3059.67
780.90	3237.84
781.07	3336.14
781.25	3295.18
781.43	3461.07
781.60	3194.83
781.78	3704.78
781.95	3434.44
782.13	3119.06
782.31	3180.50
782.48	3049.43
782.66	3436.49
782.83	3438.54
783.01	3401.68
783.19	3622.86
783.36	3409.87
783.54	3098.58
783.72	3319.76
783.89	3340.24
784.07	3499.98
784.24	3297.23
784.42	3311.57
784.60	3485.64
784.77	3459.02
784.95	3024.85
785.12	3233.74
785.30	3463.12
785.47	3205.07
785.65	3100.62
785.83	3301.33
786.00	3321.81
786.18	3502.03
786.35	3069.91
786.53	3063.76
786.71	3653.58
786.88	3608.52
787.06	3278.80
787.23	3305.42
787.41	3262.41
787.58	3403.72
787.76	3117.01
787.94	3151.82
788.11	3538.89
788.29	3227.60
788.46	3160.02
788.64	3024.85
788.81	3256.27
788.99	3276.75
789.16	3139.54
789.34	3223.50
789.52	3291.09
789.69	3303.37
789.87	2973.65
790.04	3164.11
790.22	3426.25
790.39	3825.61
790.57	3088.34
790.74	3106.77
790.92	3663.82
791.09	3110.86
791.27	3289.04
791.44	3323.85
791.62	3373.00
791.79	3534.79
791.97	3307.47
792.15	3545.03
792.32	3518.41
792.50	3581.90
792.67	3381.20
792.85	3508.17
793.02	3520.46
793.20	3315.66
793.37	3030.99
793.55	3106.77
793.72	3188.69
793.90	3594.19
794.07	3170.26
794.25	3045.33
794.42	3497.93
794.60	3426.25
794.77	3213.26
794.95	3305.42
795.12	3637.19
795.30	3387.34
795.47	2967.51
795.65	3528.65
795.82	3516.36
796.00	3317.71
796.17	3327.95
796.34	3078.10
796.52	3485.64
796.69	3629.00
796.87	3338.19
797.04	3342.28
797.22	3549.13
797.39	3506.12
797.57	3368.91
797.74	3307.47
797.92	3491.79
798.09	3311.57
798.27	3459.02
798.44	3200.98
798.62	3370.96
798.79	3469.26
798.96	3418.06
799.14	3164.11
799.31	3991.49
799.49	3416.01
799.66	3174.35
799.84	3403.72
800.01	3137.49
800.19	3483.59
800.36	2992.08
800.53	3182.54
800.71	3520.46
800.88	3792.84
801.06	3192.78
801.23	3190.74
801.41	3336.14
801.58	3354.57
801.75	3219.41
801.93	3180.50
802.10	3612.62
802.28	3391.44
802.45	3301.33
802.63	3295.18
802.80	3778.50
802.97	3297.23
803.15	3209.17
803.32	3164.11
803.50	3330.00
803.67	3256.27
803.84	3133.39
804.02	3262.41
804.19	3405.77
804.37	2893.78
804.54	2996.18
804.71	3145.68
804.89	3442.64
805.06	3286.99
805.24	3092.43
805.41	3049.43
805.58	3231.69
805.76	3997.64
805.93	3164.11
806.10	3340.24
806.28	3551.18
806.45	3516.36
806.63	3358.67
806.80	3305.42
806.97	3469.26
807.15	3481.55
807.32	3282.89
807.49	3188.69
807.67	3184.59
807.84	3489.74
808.01	3061.71
808.19	3370.96
808.36	3938.24
808.54	3360.72
808.71	3246.03
808.88	3110.86
809.06	3700.68
809.23	3805.13
809.40	3231.69
809.58	3155.92
809.75	3418.06
809.92	3127.25
810.10	3446.73
810.27	3106.77
810.44	3559.37
810.62	3631.05
810.79	3280.85
810.96	3225.55
811.14	3370.96
811.31	3483.59
811.48	3385.29
811.66	3231.69
811.83	3770.31
812.00	3618.76
812.18	3334.09
812.35	3538.89
812.52	3426.25
812.69	3338.19
812.87	3215.31
813.04	3168.21
813.21	3377.10
813.39	3237.84
813.56	3143.63
813.73	3426.25
813.91	3196.88
814.08	3430.35
814.25	3176.40
814.42	3008.47
814.60	3430.35
814.77	3422.16
814.94	3104.72
815.12	3246.03
815.29	3772.36
815.46	3286.99
815.63	3168.21
815.81	3194.83
815.98	3305.42
816.15	3446.73
816.33	3352.52
816.50	3207.12
816.67	3416.01
816.84	3422.16
817.02	3063.76
817.19	3286.99
817.36	3573.71
817.53	3495.88
817.71	3049.43
817.88	3188.69
818.05	3336.14
818.22	3360.72
818.40	3368.91
818.57	3102.67
818.74	3567.56
818.91	3377.10
819.09	3364.81
819.26	3280.85
819.43	3262.41
819.60	3332.05
819.78	3418.06
819.95	3207.12
820.12	3233.74
820.29	3813.32
820.47	3438.54
820.64	3117.01
820.81	3190.74
820.98	3260.37
821.15	3198.93
821.33	3305.42
821.50	3137.49
821.67	3590.09
821.84	3157.97
822.02	3205.07
822.19	3573.71
822.36	3340.24
822.53	3151.82
822.70	3049.43
822.88	3346.38
823.05	3762.12
823.22	3274.70
823.39	3241.93
823.56	3393.48
823.74	3788.74
823.91	2990.03
824.08	3133.39
824.25	3129.30
824.42	3758.02
824.60	3086.29
824.77	3262.41
824.94	3403.72
825.11	3567.56
825.28	3016.66
825.45	3403.72
825.63	3401.68
825.80	3315.66
825.97	3241.93
826.14	3338.19
826.31	2998.23
826.48	3545.03
826.66	3125.20
826.83	3139.54
827.00	3428.30
827.17	3231.69
827.34	3330.00
827.51	3131.34
827.69	3442.64
827.86	3096.53
828.03	3211.22
828.20	3200.98
828.37	3342.28
828.54	3549.13
828.71	3055.57
828.89	3268.56
829.06	3336.14
829.23	3737.54
829.40	3157.97
829.57	3108.82
829.74	3606.47
829.91	3278.80
830.09	3094.48
830.26	3338.19
830.43	3848.13
830.60	3325.90
830.77	3311.57
830.94	3434.44
831.11	3651.53
831.28	3256.27
831.46	3286.99
831.63	3104.72
831.80	3604.42
831.97	3323.85
832.14	3192.78
832.31	3280.85
832.48	3401.68
832.65	3684.30
832.82	3366.86
832.99	3166.16
833.17	3178.45
833.34	3631.05
833.51	3157.97
833.68	2938.84
833.85	3680.20
834.02	3241.93
834.19	3069.91
834.36	3229.65
834.53	3461.07
834.70	3612.62
834.87	3194.83
835.04	2863.06
835.22	3211.22
835.39	3313.61
835.56	2969.55
835.73	2983.89
835.90	3647.43
836.07	3188.69
836.24	3123.15
836.41	2987.99
836.58	3227.60
836.75	3569.61
836.92	3076.05
837.09	2975.70
837.26	3604.42
837.43	3592.14
837.60	3033.04
837.77	3026.90
837.94	3647.43
838.12	3680.20
838.29	2938.84
838.46	2951.12
838.63	3200.98
838.80	3739.59
838.97	3041.23
839.14	2953.17
839.31	3442.64
839.48	3540.94
839.65	3002.32
839.82	3125.20
839.99	3422.16
840.16	3502.03
840.33	2934.74
840.50	3067.86
840.67	3276.75
840.84	3037.14
841.01	2893.78
841.18	2920.40
841.35	3401.68
841.52	3610.57
841.69	3358.67
841.86	3074.00
842.03	3319.76
842.20	3643.34
842.37	2965.46
842.54	3080.14
842.71	3379.15
842.88	3102.67
843.05	2996.18
843.22	2918.36
843.39	3674.06
843.56	3352.52
843.73	2990.03
843.90	3061.71
844.07	3481.55
844.24	3618.76
844.41	3117.01
844.58	3059.67
844.75	3489.74
844.92	3516.36
845.09	3084.24
845.26	3086.29
845.43	3581.90
845.60	3330.00
845.77	3157.97
845.94	3248.08
846.10	3588.04
846.27	3047.38
846.44	2883.54
846.61	2983.89
846.78	3506.12
846.95	3682.25
847.12	2873.30
847.29	3049.43
847.46	3264.46
847.63	3598.28
847.80	2947.03
847.97	3061.71
848.14	3962.82
848.31	3391.44
848.48	2893.78
848.65	3006.42
848.82	3274.70
848.98	3954.63
849.15	3188.69
849.32	3176.40
849.49	3614.66
849.66	3442.64
849.83	2973.65
850.00	2901.97
850.17	3651.53
850.34	3325.90
850.51	2938.84
850.68	3020.75
850.85	3889.09
851.01	3459.02
851.18	2893.78
851.35	3069.91
851.52	3487.69
851.69	3735.50
851.86	2961.36
852.03	2932.69
852.20	3534.79
852.37	3368.91
852.53	2932.69
852.70	3018.71
852.87	3489.74
853.04	3606.47
853.21	3039.19
853.38	3350.48
853.55	3741.64
853.72	3667.91
853.89	2928.60
854.05	3008.47
854.22	3362.76
854.39	3336.14
854.56	3018.71
854.73	3176.40
854.90	3241.93
855.07	3430.35
855.23	2998.23
855.40	2885.59
855.57	3393.48
855.74	2992.08
855.91	3182.54
856.08	2861.01
856.25	3110.86
856.41	3340.24
856.58	3000.27
856.75	3035.09
856.92	3209.17
857.09	3583.95
857.26	2815.96
857.42	3004.37
857.59	3604.42
857.76	3348.43
857.93	2959.31
858.10	3088.34
858.27	3270.61
858.43	3547.08
858.60	3010.51
858.77	2899.92
858.94	3344.33
859.11	3676.10
859.27	3137.49
859.44	2918.36
859.61	3919.81
859.78	3612.62
859.95	3008.47
860.12	2955.22
860.28	3909.57
860.45	3782.60
860.62	3008.47
860.79	3090.38
860.95	3348.43
861.12	3311.57
861.29	2967.51
861.46	2992.08
861.63	3430.35
861.79	3499.98
861.96	2910.16
862.13	3067.86
862.30	3762.12
862.47	3229.65
862.63	2889.68
862.80	3174.35
862.97	3559.37
863.14	3508.17
863.30	3045.33
863.47	2985.94
863.64	3774.41
863.81	3487.69
863.97	2920.40
864.14	3033.04
864.31	3366.86
864.48	3516.36
864.65	3004.37
864.81	3129.30
864.98	3549.13
865.15	3641.29
865.32	3037.14
865.48	3108.82
865.65	3833.80
865.82	3293.13
865.98	3170.26
866.15	2965.46
866.32	3385.29
866.49	3319.76
866.65	3176.40
866.82	3043.28
866.99	3409.87
867.16	3338.19
867.32	3080.14
867.49	2985.94
867.66	3375.05
867.83	3332.05
867.99	2963.41
868.16	3028.95
868.33	3190.74
868.49	3434.44
868.66	3045.33
868.83	3090.38
868.99	3401.68
869.16	3436.49
869.33	3215.31
869.50	3016.66
869.66	3491.79
869.83	3338.19
870.00	2887.64
870.16	3164.11
870.33	3387.34
870.50	3592.14
870.66	3119.06
870.83	3016.66
871.00	3475.40
871.17	3536.84
871.33	3180.50
871.50	2889.68
871.67	3411.92
871.83	3323.85
872.00	3084.24
872.17	3008.47
872.33	3819.46
872.50	3561.42
872.67	3030.99
872.83	3012.56
873.00	3575.75
873.17	3403.72
873.33	3063.76
873.50	3051.47
873.67	3192.78
873.83	3344.33
874.00	3074.00
874.16	3143.63
874.33	3344.33
874.50	3217.36
874.66	3002.32
874.83	3114.96
875.00	3655.62
875.16	3694.54
875.33	3117.01
875.50	2721.75
875.66	3260.37
875.83	3485.64
875.99	3129.30
876.16	3209.17
876.33	3280.85
876.49	3434.44
876.66	3043.28
876.83	3114.96
876.99	3026.90
877.16	3411.92
877.32	2932.69
877.49	3145.68
877.66	3540.94
877.82	3649.48
877.99	3180.50
878.15	3262.41
878.32	3442.64
878.49	3540.94
878.65	3133.39
878.82	3327.95
878.98	3307.47
879.15	3620.81
879.32	3200.98
879.48	3233.74
879.65	3327.95
879.81	3321.81
879.98	3030.99
880.15	3022.80
880.31	3631.05
880.48	3172.30
880.64	3137.49
880.81	3078.10
880.97	3770.31
881.14	3790.79
881.31	3026.90
881.47	3176.40
881.64	3405.77
881.80	3049.43
881.97	3203.02
882.13	2996.18
882.30	3180.50
882.47	3317.71
882.63	2947.03
882.80	3000.27
882.96	3330.00
883.13	3610.57
883.29	3067.86
883.46	3008.47
883.62	3788.74
883.79	3475.40
883.95	3164.11
884.12	2955.22
884.29	3690.44
884.45	3479.50
884.62	2994.13
884.78	2928.60
884.95	3790.79
885.11	3151.82
885.28	3188.69
885.44	3084.24
885.61	3639.24
885.77	3749.83
885.94	3192.78
886.10	3067.86
886.27	3432.40
886.43	3770.31
886.60	3223.50
886.76	3008.47
886.93	3235.79
887.09	3442.64
887.26	2875.35
887.42	3114.96
887.59	3686.34
887.75	3913.67
887.92	3254.22
888.08	3108.82
888.25	3872.71
888.41	3647.43
888.58	3067.86
888.74	2918.36
888.91	3336.14
>>>>>End Processed Spectral Data<<<<<
