SpectraSuite Data File
++++++++++++++++++++++++++++++++++++
Date: Fri May 06 09:29:16 CEST 2016
User: root
Dark Spectrum Present: No
Reference Spectrum Present: No
Number of Sampled Component Spectra: 1
Spectrometers: USB4C02835
Integration Time (usec): 100000 (USB4C02835)
Spectra Averaged: 1 (USB4C02835)
Boxcar Smoothing: 0 (USB4C02835)
Correct for Electrical Dark: No (USB4C02835)
Strobe/Lamp Enabled: No (USB4C02835)
Correct for Detector Non-linearity: No (USB4C02835)
Correct for Stray Light: No (USB4C02835)
Number of Pixels in Processed Spectrum: 3648
>>>>>Begin Processed Spectral Data<<<<<
177.47	2375.64
177.69	2375.64
177.91	2375.64
178.13	2324.44
178.36	2330.59
178.58	3127.25
178.80	3286.99
179.02	3137.49
179.24	3229.65
179.46	2936.79
179.68	2920.40
179.90	3409.87
180.13	3540.94
180.35	2803.67
180.57	2861.01
180.79	3606.47
181.01	3395.53
181.23	2912.21
181.45	3145.68
181.67	3629.00
181.90	3610.57
182.12	3102.67
182.34	2797.53
182.56	3698.63
182.78	3520.46
183.00	2914.26
183.22	2928.60
183.44	3049.43
183.66	4194.24
183.89	3022.80
184.11	3014.61
184.33	3657.67
184.55	3651.53
184.77	2871.25
184.99	2998.23
185.21	3373.00
185.43	3950.53
185.65	2977.75
185.87	2955.22
186.10	3991.49
186.32	4050.88
186.54	3106.77
186.76	3039.19
186.98	3684.30
187.20	3450.83
187.42	3024.85
187.64	2990.03
187.86	3530.70
188.08	3725.26
188.30	2912.21
188.52	2942.93
188.75	3764.17
188.97	3780.55
189.19	2963.41
189.41	2850.77
189.63	3522.51
189.85	3383.24
190.07	2840.53
190.29	2818.00
190.51	3575.75
190.73	3162.06
190.95	3157.97
191.17	3035.09
191.39	3090.38
191.61	3327.95
191.84	3016.66
192.06	3213.26
192.28	3149.78
192.50	4089.79
192.72	3198.93
192.94	2971.60
193.16	3676.10
193.38	3534.79
193.60	2881.49
193.82	3166.16
194.04	3579.85
194.26	3534.79
194.48	2998.23
194.70	2963.41
194.92	3340.24
195.14	3616.71
195.36	2959.31
195.58	3000.27
195.80	3411.92
196.02	3291.09
196.24	2910.16
196.46	3051.47
196.69	3180.50
196.91	3991.49
197.13	3084.24
197.35	3008.47
197.57	3805.13
197.79	3633.10
198.01	3047.38
198.23	3000.27
198.45	3590.09
198.67	3203.02
198.89	2783.19
199.11	3026.90
199.33	3327.95
199.55	2957.27
199.77	2856.92
199.99	3153.87
200.21	3370.96
200.43	3491.79
200.65	2777.05
200.87	2815.96
201.09	3463.12
201.31	3409.87
201.53	2924.50
201.75	3067.86
201.97	3440.59
202.19	3399.63
202.41	3008.47
202.63	3125.20
202.85	3639.24
203.07	3452.88
203.29	3028.95
203.51	2885.59
203.73	3307.47
203.95	4077.51
204.17	3000.27
204.39	3076.05
204.61	3434.44
204.83	3389.39
205.05	3114.96
205.27	2996.18
205.49	3913.67
205.71	3475.40
205.93	2856.92
206.15	2844.63
206.37	3536.84
206.59	3391.44
206.81	2729.94
207.03	2906.07
207.25	3315.66
207.47	3598.28
207.69	2977.75
207.91	3262.41
208.13	3844.04
208.34	3393.48
208.56	3016.66
208.78	2983.89
209.00	3373.00
209.22	3356.62
209.44	2996.18
209.66	2971.60
209.88	3471.31
210.10	3426.25
210.32	2934.74
210.54	3033.04
210.76	3395.53
210.98	3690.44
211.20	2863.06
211.42	3135.44
211.64	3733.45
211.86	3581.90
212.08	3078.10
212.30	2996.18
212.52	3391.44
212.74	3502.03
212.96	3069.91
213.17	3020.75
213.39	3610.57
213.61	3827.65
213.83	2922.45
214.05	2832.34
214.27	3715.02
214.49	3237.84
214.71	2912.21
214.93	3030.99
215.15	3352.52
215.37	3626.95
215.59	2809.81
215.81	2994.13
216.03	3850.18
216.24	3481.55
216.46	2977.75
216.68	3004.37
216.90	3588.04
217.12	3674.06
217.34	2924.50
217.56	3196.88
217.78	3751.88
218.00	3606.47
218.22	3035.09
218.44	3080.14
218.66	3573.71
218.87	3770.31
219.09	3114.96
219.31	2967.51
219.53	3502.03
219.75	3481.55
219.97	3061.71
220.19	3067.86
220.41	3485.64
220.63	3805.13
220.85	3080.14
221.06	3008.47
221.28	3805.13
221.50	3577.80
221.72	2934.74
221.94	2869.20
222.16	3506.12
222.38	3684.30
222.60	2914.26
222.82	2969.55
223.03	3710.92
223.25	3248.08
223.47	2840.53
223.69	3268.56
223.91	3542.99
224.13	3430.35
224.35	2844.63
224.57	3190.74
224.78	3573.71
225.00	3295.18
225.22	3053.52
225.44	2885.59
225.66	3622.86
225.88	3401.68
226.10	3069.91
226.32	3002.32
226.53	3712.97
226.75	3370.96
226.97	3125.20
227.19	3004.37
227.41	3262.41
227.63	3426.25
227.85	2811.86
228.06	3086.29
228.28	3479.50
228.50	3696.58
228.72	2772.95
228.94	2953.17
229.16	3026.90
229.37	3188.69
229.59	2977.75
229.81	3217.36
230.03	3332.05
230.25	3174.35
230.47	2799.57
230.69	2940.88
230.90	3678.15
231.12	3354.57
231.34	3067.86
231.56	3000.27
231.78	3282.89
232.00	3506.12
232.21	3039.19
232.43	3067.86
232.65	3037.14
232.87	3483.59
233.09	2895.83
233.30	2854.87
233.52	3639.24
233.74	3391.44
233.96	2893.78
234.18	3164.11
234.40	3430.35
234.61	4050.88
234.83	2836.44
235.05	2979.79
235.27	3991.49
235.49	3770.31
235.70	2852.82
235.92	2942.93
236.14	3573.71
236.36	4026.31
236.58	2901.97
236.79	3004.37
237.01	3512.27
237.23	3434.44
237.45	3180.50
237.67	3024.85
237.88	3471.31
238.10	3819.46
238.32	2893.78
238.54	2979.79
238.76	3411.92
238.97	3207.12
239.19	2867.16
239.41	3065.81
239.63	3643.34
239.85	3338.19
240.06	2942.93
240.28	3014.61
240.50	3667.91
240.72	3434.44
240.93	2854.87
241.15	3149.78
241.37	3452.88
241.59	3839.94
241.81	3096.53
242.02	3061.71
242.24	3471.31
242.46	3635.14
242.68	2811.86
242.89	2906.07
243.11	3758.02
243.33	3471.31
243.55	3002.32
243.76	2910.16
243.98	3393.48
244.20	3442.64
244.42	2953.17
244.64	2953.17
244.85	3211.22
245.07	3172.30
245.29	3030.99
245.51	2953.17
245.72	3516.36
245.94	3643.34
246.16	2977.75
246.38	3008.47
246.59	3311.57
246.81	3299.28
247.03	2854.87
247.24	2846.68
247.46	3311.57
247.68	3444.68
247.90	2920.40
248.11	2977.75
248.33	3557.32
248.55	3450.83
248.77	3000.27
248.98	3074.00
249.20	3745.73
249.42	3504.07
249.64	2906.07
249.85	2887.64
250.07	3352.52
250.29	3565.51
250.50	3051.47
250.72	2901.97
250.94	3483.59
251.16	4018.11
251.37	2901.97
251.59	3028.95
251.81	3602.38
252.02	3745.73
252.24	2832.34
252.46	3051.47
252.68	3299.28
252.89	3297.23
253.11	2797.53
253.33	3164.11
253.54	3809.22
253.76	3291.09
253.98	2928.60
254.20	2869.20
254.41	3180.50
254.63	3409.87
254.85	2764.76
255.06	3131.34
255.28	3495.88
255.50	3401.68
255.71	2910.16
255.93	2793.43
256.15	3432.40
256.36	3614.66
256.58	2738.13
256.80	2934.74
257.02	3397.58
257.23	3368.91
257.45	2947.03
257.67	3076.05
257.88	3373.00
258.10	3549.13
258.32	2881.49
258.53	2973.65
258.75	3825.61
258.97	3295.18
259.18	2820.05
259.40	2813.91
259.62	3944.39
259.83	3805.13
260.05	2955.22
260.27	3952.58
260.48	3602.38
260.70	3233.74
260.92	2787.29
261.13	3018.71
261.35	3614.66
261.57	3542.99
261.78	2820.05
262.00	2922.45
262.22	3559.37
262.43	3233.74
262.65	2955.22
262.86	2994.13
263.08	3999.68
263.30	3502.03
263.51	2787.29
263.73	2844.63
263.95	3839.94
264.16	3213.26
264.38	2805.72
264.60	2873.30
264.81	3456.97
265.03	3614.66
265.25	3471.31
265.46	2934.74
265.68	3712.97
265.89	3598.28
266.11	2828.24
266.33	2940.88
266.54	3784.65
266.76	3626.95
266.98	3022.80
267.19	3149.78
267.41	3782.60
267.62	3510.22
267.84	2807.77
268.06	2996.18
268.27	3450.83
268.49	3641.29
268.70	3088.34
268.92	3010.51
269.14	3307.47
269.35	3114.96
269.57	3041.23
269.79	3057.62
270.00	3389.39
270.22	3870.66
270.43	2799.57
270.65	2795.48
270.87	3530.70
271.08	3583.95
271.30	3076.05
271.51	3002.32
271.73	3549.13
271.95	3837.89
272.16	2947.03
272.38	3110.86
272.59	3379.15
272.81	3600.33
273.02	2873.30
273.24	2977.75
273.46	3796.93
273.67	3123.15
273.89	2869.20
274.10	2963.41
274.32	3696.58
274.54	3450.83
274.75	3008.47
274.97	3020.75
275.18	3569.61
275.40	3547.08
275.61	2992.08
275.83	3241.93
276.05	3260.37
276.26	3489.74
276.48	3053.52
276.69	3180.50
276.91	3289.04
277.12	3760.07
277.34	3125.20
277.55	3231.69
277.77	3448.78
277.99	3352.52
278.20	3053.52
278.42	2975.70
278.63	3295.18
278.85	3289.04
279.06	3092.43
279.28	3239.89
279.49	3631.05
279.71	3629.00
279.93	3096.53
280.14	3176.40
280.36	3291.09
280.57	3633.10
280.79	3127.25
281.00	3002.32
281.22	3342.28
281.43	3690.44
281.65	2922.45
281.86	3006.42
282.08	3532.75
282.29	3885.00
282.51	2936.79
282.73	2969.55
282.94	3106.77
283.16	3618.76
283.37	3217.36
283.59	3125.20
283.80	3590.09
284.02	3393.48
284.23	3117.01
284.45	3192.78
284.66	3276.75
284.88	3272.65
285.09	2949.08
285.31	3200.98
285.52	3493.83
285.74	3137.49
285.95	3317.71
286.17	3221.45
286.38	3653.58
286.60	3268.56
286.81	3082.19
287.03	3082.19
287.24	3430.35
287.46	3635.14
287.67	3166.16
287.89	3321.81
288.10	3426.25
288.32	3411.92
288.53	3307.47
288.75	3196.88
288.96	3647.43
289.18	3256.27
289.39	2979.79
289.61	3108.82
289.82	4007.87
290.04	3876.80
290.25	2990.03
290.47	3286.99
290.68	3497.93
290.90	3622.86
291.11	2879.44
291.33	3284.94
291.54	3301.33
291.76	3305.42
291.97	3215.31
292.18	3147.73
292.40	3305.42
292.61	3297.23
292.83	3397.58
293.04	3119.06
293.26	3567.56
293.47	3385.29
293.69	3033.04
293.90	3028.95
294.12	3712.97
294.33	3516.36
294.55	3180.50
294.76	3293.13
294.97	3786.69
295.19	3887.04
295.40	3125.20
295.62	3203.02
295.83	3635.14
296.05	3315.66
296.26	3336.14
296.48	3100.62
296.69	3442.64
296.90	3381.20
297.12	3235.79
297.33	3321.81
297.55	3499.98
297.76	3532.75
297.98	3180.50
298.19	3330.00
298.41	3442.64
298.62	3289.04
298.83	3289.04
299.05	3184.59
299.26	3385.29
299.48	3254.22
299.69	3131.34
299.90	2981.84
300.12	3237.84
300.33	3629.00
300.55	3145.68
300.76	3174.35
300.98	3217.36
301.19	3524.55
301.40	3076.05
301.62	3006.42
301.83	3567.56
302.05	3401.68
302.26	3033.04
302.47	3141.58
302.69	3203.02
302.90	3387.34
303.12	2934.74
303.33	3127.25
303.54	3872.71
303.76	3377.10
303.97	2967.51
304.19	3215.31
304.40	3258.32
304.61	3600.33
304.83	3155.92
305.04	3147.73
305.26	3659.72
305.47	3350.48
305.68	3137.49
305.90	3041.23
306.11	3753.93
306.33	3444.68
306.54	2928.60
306.75	3114.96
306.97	3080.14
307.18	3266.51
307.39	3094.48
307.61	3256.27
307.82	3426.25
308.04	3518.41
308.25	2985.94
308.46	3270.61
308.68	3459.02
308.89	3510.22
309.10	3194.83
309.32	3127.25
309.53	3418.06
309.74	3573.71
309.96	3006.42
310.17	3213.26
310.39	3368.91
310.60	3612.62
310.81	3106.77
311.03	3074.00
311.24	3614.66
311.45	3477.45
311.67	3360.72
311.88	3180.50
312.09	3284.94
312.31	3313.61
312.52	2922.45
312.73	3090.38
312.95	3209.17
313.16	3213.26
313.37	3258.32
313.59	3237.84
313.80	3590.09
314.01	3747.78
314.23	3110.86
314.44	3028.95
314.65	3110.86
314.87	3319.76
315.08	3198.93
315.29	3035.09
315.51	3256.27
315.72	3131.34
315.93	3090.38
316.15	3203.02
316.36	3442.64
316.57	3475.40
316.79	3096.53
317.00	3033.04
317.21	3635.14
317.43	3289.04
317.64	3164.11
317.85	2994.13
318.07	3274.70
318.28	3452.88
318.49	3147.73
318.70	3299.28
318.92	3428.30
319.13	3483.59
319.34	3174.35
319.56	3063.76
319.77	3532.75
319.98	3588.04
320.20	3360.72
320.41	3266.51
320.62	3567.56
320.83	3246.03
321.05	3256.27
321.26	3182.54
321.47	3469.26
321.69	3702.73
321.90	2992.08
322.11	3047.38
322.32	3526.60
322.54	3903.43
322.75	3137.49
322.96	4202.43
323.18	3151.82
323.39	3063.76
323.60	2975.70
323.81	3205.07
324.03	3381.20
324.24	3430.35
324.45	3237.84
324.66	2971.60
324.88	3674.06
325.09	3864.52
325.30	3123.15
325.52	3074.00
325.73	3538.89
325.94	3254.22
326.15	3088.34
326.37	2916.31
326.58	3618.76
326.79	3772.36
327.00	3057.62
327.22	3035.09
327.43	3334.09
327.64	3278.80
327.85	3303.37
328.07	3170.26
328.28	4020.16
328.49	3317.71
328.70	3174.35
328.92	3131.34
329.13	3405.77
329.34	3536.84
329.55	3350.48
329.76	3305.42
329.98	3360.72
330.19	3706.82
330.40	3125.20
330.61	3225.55
330.83	3723.21
331.04	3157.97
331.25	3207.12
331.46	3188.69
331.68	3135.44
331.89	3653.58
332.10	3104.72
332.31	2957.27
332.52	3409.87
332.74	3788.74
332.95	2973.65
333.16	3065.81
333.37	3590.09
333.58	3325.90
333.80	3121.10
334.01	2906.07
334.22	3454.92
334.43	3311.57
334.64	3016.66
334.86	3065.81
335.07	3237.84
335.28	3745.73
335.49	2996.18
335.70	3104.72
335.92	3684.30
336.13	3944.39
336.34	3155.92
336.55	3049.43
336.76	3610.57
336.98	3026.90
337.19	3104.72
337.40	3166.16
337.61	4071.36
337.82	3299.28
338.04	3155.92
338.25	2908.12
338.46	3407.82
338.67	3358.67
338.88	3033.04
339.09	3053.52
339.31	3311.57
339.52	3151.82
339.73	3080.14
339.94	3149.78
340.15	3549.13
340.36	3303.37
340.58	3147.73
340.79	2951.12
341.00	3565.51
341.21	3166.16
341.42	3387.34
341.63	3106.77
341.85	3706.82
342.06	3573.71
342.27	3065.81
342.48	3243.98
342.69	3157.97
342.90	3573.71
343.12	3592.14
343.33	3035.09
343.54	3647.43
343.75	3704.78
343.96	3217.36
344.17	3067.86
344.38	3422.16
344.60	3311.57
344.81	3106.77
345.02	3039.19
345.23	3676.10
345.44	4087.75
345.65	3127.25
345.86	3123.15
346.07	3549.13
346.29	3358.67
346.50	3358.67
346.71	3196.88
346.92	3792.84
347.13	3885.00
347.34	3215.31
347.55	2994.13
347.76	3536.84
347.98	3051.47
348.19	3186.64
348.40	3250.13
348.61	3262.41
348.82	3823.56
349.03	3186.64
349.24	2971.60
349.45	3860.42
349.66	2891.73
349.88	2994.13
350.09	2944.98
350.30	3708.87
350.51	3667.91
350.72	3373.00
350.93	3078.10
351.14	3299.28
351.35	3657.67
351.56	3092.43
351.77	3180.50
351.99	3577.80
352.20	3690.44
352.41	3213.26
352.62	3020.75
352.83	3471.31
353.04	3438.54
353.25	3166.16
353.46	3131.34
353.67	3674.06
353.88	3004.37
354.09	3004.37
354.30	3207.12
354.52	3661.77
354.73	3424.20
354.94	3037.14
355.15	3200.98
355.36	3821.51
355.57	3311.57
355.78	3016.66
355.99	3000.27
356.20	3442.64
356.41	3770.31
356.62	3219.41
356.83	3151.82
357.04	3704.78
357.25	3076.05
357.46	3092.43
357.68	2967.51
357.89	3252.17
358.10	3452.88
358.31	3043.28
358.52	3143.63
358.73	3209.17
358.94	3233.74
359.15	3114.96
359.36	3137.49
359.57	3409.87
359.78	3370.96
359.99	3268.56
360.20	3037.14
360.41	3364.81
360.62	3592.14
360.83	3200.98
361.04	3225.55
361.25	3553.23
361.46	3823.56
361.67	3231.69
361.88	3153.87
362.09	3686.34
362.30	3440.59
362.51	3129.30
362.72	3147.73
362.93	3620.81
363.14	3569.61
363.35	3246.03
363.56	3067.86
363.78	3729.35
363.99	3622.86
364.20	3164.11
364.41	3200.98
364.62	3934.15
364.83	3518.41
365.04	3114.96
365.25	3174.35
365.46	3987.40
365.67	3229.65
365.88	3307.47
366.09	3090.38
366.30	3303.37
366.51	3422.16
366.72	3071.95
366.93	3059.67
367.14	3385.29
367.35	3667.91
367.56	2944.98
367.77	3262.41
367.98	3467.21
368.18	3524.55
368.39	3188.69
368.60	3059.67
368.81	3565.51
369.02	3438.54
369.23	3131.34
369.44	2975.70
369.65	3362.76
369.86	3590.09
370.07	3190.74
370.28	3069.91
370.49	3475.40
370.70	3573.71
370.91	3055.57
371.12	3033.04
371.33	3758.02
371.54	3289.04
371.75	3196.88
371.96	2772.95
372.17	3487.69
372.38	3393.48
372.59	3174.35
372.80	3024.85
373.01	3393.48
373.22	3420.11
373.43	3092.43
373.64	2990.03
373.85	3780.55
374.06	3899.33
374.26	3327.95
374.47	3211.22
374.68	3796.93
374.89	3452.88
375.10	3065.81
375.31	3246.03
375.52	3438.54
375.73	3471.31
375.94	2951.12
376.15	3229.65
376.36	3348.43
376.57	3323.85
376.78	3114.96
376.99	3176.40
377.20	3721.16
377.40	3258.32
377.61	3383.24
377.82	3074.00
378.03	3735.50
378.24	3534.79
378.45	3246.03
378.66	3215.31
378.87	3186.64
379.08	3143.63
379.29	3094.48
379.50	3299.28
379.71	3323.85
379.91	3631.05
380.12	3098.58
380.33	3246.03
380.54	3360.72
380.75	3354.57
380.96	3086.29
381.17	3157.97
381.38	3465.16
381.59	3481.55
381.80	3170.26
382.00	3321.81
382.21	3426.25
382.42	3790.79
382.63	3506.12
382.84	3286.99
383.05	3655.62
383.26	3676.10
383.47	3264.46
383.68	3024.85
383.88	3553.23
384.09	3459.02
384.30	3307.47
384.51	3262.41
384.72	3381.20
384.93	3194.83
385.14	3207.12
385.35	3450.83
385.55	3164.11
385.76	3729.35
385.97	3137.49
386.18	2901.97
386.39	3239.89
386.60	3360.72
386.81	3094.48
387.02	3004.37
387.22	3160.02
387.43	3581.90
387.64	3196.88
387.85	3286.99
388.06	3516.36
388.27	4396.99
388.48	7321.49
388.68	10870.62
388.89	13524.79
389.10	14718.75
389.31	14534.43
389.52	11603.79
389.73	10215.27
389.93	9609.07
390.14	8355.71
390.35	7882.63
390.56	7223.19
390.77	6244.26
390.98	4777.91
391.18	4114.37
391.39	3903.43
391.60	3467.21
391.81	3330.00
392.02	3180.50
392.23	4016.07
392.43	3454.92
392.64	3297.23
392.85	3311.57
393.06	3803.08
393.27	3373.00
393.47	3098.58
393.68	3164.11
393.89	3393.48
394.10	3753.93
394.31	3147.73
394.52	3037.14
394.72	3254.22
394.93	3749.83
395.14	2983.89
395.35	3311.57
395.56	3354.57
395.76	3454.92
395.97	3026.90
396.18	3311.57
396.39	3360.72
396.60	4007.87
396.80	3506.12
397.01	3338.19
397.22	3719.11
397.43	3602.38
397.64	3094.48
397.84	3207.12
398.05	3860.42
398.26	3403.72
398.47	3237.84
398.67	3319.76
398.88	3499.98
399.09	3602.38
399.30	3092.43
399.51	3196.88
399.71	3268.56
399.92	3438.54
400.13	3157.97
400.34	3170.26
400.54	3483.59
400.75	3770.31
400.96	3227.60
401.17	3577.80
401.37	3571.66
401.58	3420.11
401.79	3074.00
402.00	3239.89
402.21	3975.11
402.41	3545.03
402.62	3307.47
402.83	3532.75
403.04	3784.65
403.24	4263.87
403.45	3237.84
403.66	3428.30
403.87	3647.43
404.07	3778.50
404.28	3418.06
404.49	3424.20
404.70	3557.32
404.90	3663.82
405.11	3143.63
405.32	3266.51
405.52	3295.18
405.73	3229.65
405.94	3086.29
406.15	3256.27
406.35	3604.42
406.56	3565.51
406.77	3221.45
406.98	3215.31
407.18	3301.33
407.39	3778.50
407.60	3155.92
407.80	3268.56
408.01	3348.43
408.22	3569.61
408.43	3057.62
408.63	3282.89
408.84	3637.19
409.05	3735.50
409.25	3080.14
409.46	3217.36
409.67	3405.77
409.88	3278.80
410.08	3184.59
410.29	3114.96
410.50	3635.14
410.70	3581.90
410.91	3039.19
411.12	3250.13
411.32	3481.55
411.53	3295.18
411.74	3209.17
411.95	3141.58
412.15	3465.16
412.36	3518.41
412.57	3237.84
412.77	3389.39
412.98	3522.51
413.19	3358.67
413.39	3170.26
413.60	3190.74
413.81	3739.59
414.01	3270.61
414.22	3137.49
414.43	3327.95
414.63	3334.09
414.84	3608.52
415.05	3211.22
415.25	3051.47
415.46	3696.58
415.67	3336.14
415.87	3209.17
416.08	3155.92
416.29	3430.35
416.49	3561.42
416.70	3241.93
416.91	3174.35
417.11	3368.91
417.32	3602.38
417.53	3254.22
417.73	3248.08
417.94	3467.21
418.15	3524.55
418.35	3229.65
418.56	3182.54
418.77	3991.49
418.97	3495.88
419.18	3297.23
419.38	2885.59
419.59	3426.25
419.80	3801.03
420.00	2996.18
420.21	3157.97
420.42	3741.64
420.62	3647.43
420.83	3192.78
421.04	3131.34
421.24	3450.83
421.45	3688.39
421.65	3217.36
421.86	3190.74
422.07	3641.29
422.27	3524.55
422.48	3114.96
422.69	2979.79
422.89	3352.52
423.10	3336.14
423.30	3090.38
423.51	3207.12
423.72	3536.84
423.92	3583.95
424.13	3086.29
424.33	3364.81
424.54	3565.51
424.75	3440.59
424.95	3407.82
425.16	3139.54
425.36	3444.68
425.57	3645.38
425.78	3336.14
425.98	3235.79
426.19	3389.39
426.39	3311.57
426.60	3284.94
426.81	3340.24
427.01	3491.79
427.22	3299.28
427.42	3049.43
427.63	3039.19
427.83	3600.33
428.04	3854.28
428.25	3243.98
428.45	3274.70
428.66	3770.31
428.86	3377.10
429.07	3149.78
429.28	3170.26
429.48	3409.87
429.69	3235.79
429.89	3301.33
430.10	3106.77
430.30	3549.13
430.51	3678.15
430.71	3098.58
430.92	3239.89
431.13	3282.89
431.33	3594.19
431.54	3250.13
431.74	3340.24
431.95	3897.28
432.15	3209.17
432.36	3137.49
432.56	3282.89
432.77	3944.39
432.98	3887.04
433.18	3289.04
433.39	3059.67
433.59	3375.05
433.80	3903.43
434.00	3264.46
434.21	3194.83
434.41	3282.89
434.62	3887.04
434.82	3014.61
435.03	3071.95
435.23	3608.52
435.44	3117.01
435.64	3082.19
435.85	3211.22
436.06	3585.99
436.26	3696.58
436.47	3213.26
436.67	3086.29
436.88	3381.20
437.08	3688.39
437.29	3266.51
437.49	3323.85
437.70	3737.54
437.90	3430.35
438.11	3356.62
438.31	3286.99
438.52	3749.83
438.72	3618.76
438.93	3467.21
439.13	3295.18
439.34	3473.36
439.54	3348.43
439.75	3321.81
439.95	3160.02
440.16	3252.17
440.36	3502.03
440.57	3164.11
440.77	3155.92
440.98	3442.64
441.18	3567.56
441.39	3041.23
441.59	3082.19
441.80	3923.91
442.00	3360.72
442.21	3307.47
442.41	3014.61
442.62	3680.20
442.82	3370.96
443.02	3157.97
443.23	3082.19
443.43	3395.53
443.64	3729.35
443.84	2996.18
444.05	3229.65
444.25	3446.73
444.46	3342.28
444.66	3196.88
444.87	3332.05
445.07	3065.81
445.28	3354.57
445.48	3360.72
445.69	3207.12
445.89	4095.94
446.09	3426.25
446.30	3456.97
446.50	3471.31
446.71	5091.25
446.91	6281.12
447.12	6827.93
447.32	7237.52
447.53	7282.58
447.73	6031.27
447.93	5279.66
448.14	5179.31
448.34	5468.08
448.55	4476.86
448.75	4347.84
448.96	4212.67
449.16	4167.62
449.36	4001.73
449.57	3403.72
449.77	3239.89
449.98	3364.81
450.18	3504.07
450.39	3078.10
450.59	3436.49
450.79	3387.34
451.00	3360.72
451.20	3397.58
451.41	3246.03
451.61	3446.73
451.81	3549.13
452.02	3143.63
452.22	3172.30
452.43	3413.96
452.63	3282.89
452.84	3284.94
453.04	3129.30
453.24	3467.21
453.45	3256.27
453.65	3213.26
453.86	3231.69
454.06	3489.74
454.26	3499.98
454.47	3160.02
454.67	3364.81
454.87	3571.66
455.08	3379.15
455.28	3280.85
455.49	3311.57
455.69	3293.13
455.89	3887.04
456.10	3256.27
456.30	3053.52
456.51	3637.19
456.71	3524.55
456.91	3354.57
457.12	3131.34
457.32	3577.80
457.52	3295.18
457.73	3286.99
457.93	3411.92
458.14	3350.48
458.34	3028.95
458.54	3190.74
458.75	3112.91
458.95	3614.66
459.15	3461.07
459.36	3151.82
459.56	3164.11
459.76	4028.35
459.97	3413.96
460.17	3106.77
460.37	3237.84
460.58	3467.21
460.78	3614.66
460.99	3252.17
461.19	3096.53
461.39	3317.71
461.60	3379.15
461.80	3170.26
462.00	3074.00
462.21	3459.02
462.41	3166.16
462.61	3002.32
462.82	2967.51
463.02	3563.47
463.22	3409.87
463.43	3188.69
463.63	3076.05
463.83	3669.96
464.04	3573.71
464.24	3155.92
464.44	3168.21
464.64	3401.68
464.85	3626.95
465.05	3213.26
465.25	3024.85
465.46	3289.04
465.66	3592.14
465.86	3295.18
466.07	3155.92
466.27	3418.06
466.47	3123.15
466.68	3053.52
466.88	3270.61
467.08	3639.24
467.29	3682.25
467.49	3200.98
467.69	3352.52
467.89	3528.65
468.10	3497.93
468.30	3192.78
468.50	3311.57
468.71	3598.28
468.91	3219.41
469.11	3381.20
469.31	3282.89
469.52	3303.37
469.72	3819.46
469.92	3379.15
470.13	3104.72
470.33	3516.36
470.53	3536.84
470.73	3532.75
470.94	3690.44
471.14	4005.83
471.34	4605.88
471.54	4081.60
471.75	3903.43
471.95	3764.17
472.15	3844.04
472.36	3737.54
472.56	3524.55
472.76	3909.57
472.96	3770.31
473.17	3489.74
473.37	3254.22
473.57	3286.99
473.77	3557.32
473.98	3385.29
474.18	3094.48
474.38	4200.38
474.58	3327.95
474.79	3059.67
474.99	3286.99
475.19	3827.65
475.39	3260.37
475.60	3250.13
475.80	3119.06
476.00	3485.64
476.20	3350.48
476.41	3233.74
476.61	3180.50
476.81	3811.27
477.01	3260.37
477.21	3483.59
477.42	3340.24
477.62	3350.48
477.82	3532.75
478.02	3151.82
478.23	3088.34
478.43	3186.64
478.63	3469.26
478.83	3143.63
479.03	3203.02
479.24	3760.07
479.44	3921.86
479.64	3098.58
479.84	3037.14
480.04	3299.28
480.25	3622.86
480.45	3069.91
480.65	3170.26
480.85	3745.73
481.06	3389.39
481.26	3227.60
481.46	3149.78
481.66	3565.51
481.86	3221.45
482.06	3336.14
482.27	3260.37
482.47	3362.76
482.67	3590.09
482.87	3186.64
483.07	3270.61
483.28	3266.51
483.48	3172.30
483.68	3262.41
483.88	3137.49
484.08	3020.75
484.29	3188.69
484.49	3237.84
484.69	2936.79
484.89	3715.02
485.09	3672.01
485.29	3233.74
485.50	3332.05
485.70	3381.20
485.90	3715.02
486.10	3379.15
486.30	3114.96
486.50	3743.69
486.71	3606.47
486.91	3229.65
487.11	3311.57
487.31	3203.02
487.51	3575.75
487.71	3176.40
487.91	3117.01
488.12	3280.85
488.32	3000.27
488.52	3213.26
488.72	2895.83
488.92	3485.64
489.12	3749.83
489.32	3321.81
489.53	3172.30
489.73	3106.77
489.93	3915.72
490.13	3133.39
490.33	3026.90
490.53	3448.78
490.73	3731.40
490.94	3028.95
491.14	3286.99
491.34	3624.90
491.54	3506.12
491.74	4075.46
491.94	4386.75
492.14	5097.39
492.34	5167.03
492.54	4700.09
492.75	4085.70
492.95	4411.32
493.15	4114.37
493.35	3864.52
493.55	3706.82
493.75	3772.36
493.95	4016.07
494.15	3399.63
494.35	3291.09
494.56	3364.81
494.76	3299.28
494.96	3336.14
495.16	3106.77
495.36	3522.51
495.56	3436.49
495.76	3190.74
495.96	3133.39
496.16	3260.37
496.36	3864.52
496.56	3110.86
496.77	3276.75
496.97	3459.02
497.17	3770.31
497.37	3039.19
497.57	3305.42
497.77	3534.79
497.97	3172.30
498.17	3166.16
498.37	3162.06
498.57	3557.32
498.77	3352.52
498.97	3305.42
499.17	3481.55
499.38	3364.81
499.58	3573.71
499.78	3307.47
499.98	3309.52
500.18	3368.91
500.38	3182.54
500.58	3391.44
500.78	3758.02
500.98	6172.58
501.18	7653.26
501.38	9103.22
501.58	9889.64
501.78	10024.81
501.98	8447.87
502.18	7049.11
502.38	6191.01
502.58	6176.67
502.78	5459.88
502.98	5210.03
503.18	5001.14
503.38	4876.21
503.59	4171.71
503.79	4014.02
503.99	3682.25
504.19	3964.87
504.39	3966.92
504.59	3581.90
504.79	3557.32
504.99	3960.77
505.19	3643.34
505.39	3272.65
505.59	3504.07
505.79	3758.02
505.99	3610.57
506.19	3129.30
506.39	3344.33
506.59	3278.80
506.79	3336.14
506.99	3397.58
507.19	3139.54
507.39	3446.73
507.59	3131.34
507.79	3172.30
507.99	3065.81
508.19	3405.77
508.39	3334.09
508.59	3168.21
508.79	3194.83
508.99	3958.72
509.19	3200.98
509.39	3186.64
509.59	3045.33
509.79	3350.48
509.99	3536.84
510.19	3360.72
510.39	3323.85
510.59	3506.12
510.79	3383.24
510.99	3018.71
511.19	3092.43
511.39	3794.89
511.59	3639.24
511.79	3373.00
511.99	3164.11
512.19	3944.39
512.38	3497.93
512.58	3114.96
512.78	3084.24
512.98	3780.55
513.18	3895.24
513.38	3067.86
513.58	3250.13
513.78	3385.29
513.98	3424.20
514.18	3188.69
514.38	3119.06
514.58	3598.28
514.78	3373.00
514.98	2996.18
515.18	3213.26
515.38	3178.45
515.58	3829.70
515.78	3192.78
515.98	3151.82
516.18	3631.05
516.38	3405.77
516.57	3143.63
516.77	3117.01
516.97	3626.95
517.17	3319.76
517.37	2955.22
517.57	3184.59
517.77	3428.30
517.97	3303.37
518.17	3268.56
518.37	3028.95
518.57	3297.23
518.77	3387.34
518.97	3239.89
519.16	3133.39
519.36	3768.26
519.56	3286.99
519.76	3067.86
519.96	3176.40
520.16	3678.15
520.36	3321.81
520.56	3289.04
520.76	3045.33
520.96	3373.00
521.16	3602.38
521.35	3438.54
521.55	3264.46
521.75	3557.32
521.95	3309.52
522.15	3147.73
522.35	3084.24
522.55	3219.41
522.75	3624.90
522.95	2969.55
523.14	3065.81
523.34	3309.52
523.54	3282.89
523.74	3295.18
523.94	3338.19
524.14	3119.06
524.34	3448.78
524.54	3366.86
524.73	3182.54
524.93	3678.15
525.13	3499.98
525.33	3045.33
525.53	3393.48
525.73	3526.60
525.93	3407.82
526.13	3182.54
526.32	3020.75
526.52	3778.50
526.72	3626.95
526.92	3194.83
527.12	3061.71
527.32	3229.65
527.52	3590.09
527.71	3164.11
527.91	3192.78
528.11	3350.48
528.31	3467.21
528.51	3123.15
528.71	3274.70
528.90	3620.81
529.10	3721.16
529.30	3196.88
529.50	2877.40
529.70	3528.65
529.90	3239.89
530.09	3196.88
530.29	2912.21
530.49	3297.23
530.69	4048.83
530.89	3217.36
531.09	3295.18
531.28	3344.33
531.48	3755.97
531.68	3155.92
531.88	3205.07
532.08	3618.76
532.28	3391.44
532.47	3289.04
532.67	3270.61
532.87	3565.51
533.07	3266.51
533.27	3282.89
533.46	3231.69
533.66	3518.41
533.86	3450.83
534.06	3246.03
534.26	3180.50
534.45	3438.54
534.65	3600.33
534.85	3305.42
535.05	3055.57
535.25	3696.58
535.44	3063.76
535.64	3258.32
535.84	3227.60
536.04	3282.89
536.24	3334.09
536.43	3174.35
536.63	3114.96
536.83	3397.58
537.03	3389.39
537.22	3049.43
537.42	3000.27
537.62	3542.99
537.82	3286.99
538.02	3315.66
538.21	3213.26
538.41	4005.83
538.61	3510.22
538.81	3188.69
539.00	3284.94
539.20	3112.91
539.40	3330.00
539.60	3069.91
539.79	3418.06
539.99	3477.45
540.19	3327.95
540.39	3065.81
540.58	3231.69
540.78	3659.72
540.98	3485.64
541.18	3418.06
541.37	3305.42
541.57	3391.44
541.77	3456.97
541.97	3129.30
542.16	3000.27
542.36	3317.71
542.56	3321.81
542.76	3438.54
542.95	3182.54
543.15	3540.94
543.35	3565.51
543.54	3139.54
543.74	3176.40
543.94	3729.35
544.14	3291.09
544.33	3332.05
544.53	3114.96
544.73	3346.38
544.93	3346.38
545.12	3168.21
545.32	3166.16
545.52	3387.34
545.71	3250.13
545.91	3207.12
546.11	3076.05
546.30	3229.65
546.50	3454.92
546.70	3315.66
546.90	3196.88
547.09	3010.51
547.29	3450.83
547.49	3303.37
547.68	3178.45
547.88	3246.03
548.08	3614.66
548.27	3465.16
548.47	3125.20
548.67	3243.98
548.87	3526.60
549.06	3155.92
549.26	3094.48
549.46	3573.71
549.65	3330.00
549.85	3164.11
550.05	3286.99
550.24	3243.98
550.44	3401.68
550.64	3213.26
550.83	3225.55
551.03	3770.31
551.23	3661.77
551.42	3200.98
551.62	3076.05
551.82	3385.29
552.01	3336.14
552.21	3516.36
552.41	3225.55
552.60	3745.73
552.80	3491.79
553.00	3129.30
553.19	3174.35
553.39	3846.09
553.59	3129.30
553.78	3364.81
553.98	3164.11
554.17	3258.32
554.37	3540.94
554.57	3188.69
554.76	3057.62
554.96	3360.72
555.16	3430.35
555.35	3229.65
555.55	3323.85
555.75	3481.55
555.94	3657.67
556.14	2883.54
556.33	3160.02
556.53	3444.68
556.73	3330.00
556.92	3125.20
557.12	3100.62
557.32	3911.62
557.51	3760.07
557.71	3246.03
557.90	3344.33
558.10	3698.63
558.30	3348.43
558.49	3231.69
558.69	3063.76
558.88	3604.42
559.08	3475.40
559.28	3174.35
559.47	3243.98
559.67	3516.36
559.86	3856.33
560.06	3184.59
560.26	3200.98
560.45	3547.08
560.65	3385.29
560.84	3495.88
561.04	3106.77
561.24	3631.05
561.43	3135.44
561.63	3420.11
561.82	3321.81
562.02	3573.71
562.22	3295.18
562.41	3110.86
562.61	3190.74
562.80	3231.69
563.00	3889.09
563.19	3225.55
563.39	3286.99
563.59	3508.17
563.78	3235.79
563.98	2938.84
564.17	3227.60
564.37	3082.19
564.56	3397.58
564.76	3078.10
564.96	3313.61
565.15	3508.17
565.35	3981.25
565.54	3192.78
565.74	3237.84
565.93	3493.83
566.13	3469.26
566.32	3289.04
566.52	3278.80
566.71	3432.40
566.91	3680.20
567.11	3336.14
567.30	3080.14
567.50	3483.59
567.69	3579.85
567.89	3184.59
568.08	3096.53
568.28	3465.16
568.47	3108.82
568.67	3207.12
568.86	3203.02
569.06	3569.61
569.25	3348.43
569.45	2973.65
569.64	3256.27
569.84	3352.52
570.04	3418.06
570.23	3198.93
570.43	3291.09
570.62	3450.83
570.82	3745.73
571.01	3076.05
571.21	3104.72
571.40	3225.55
571.60	3575.75
571.79	3190.74
571.99	3157.97
572.18	3166.16
572.38	3512.27
572.57	3270.61
572.77	3221.45
572.96	4028.35
573.16	3463.12
573.35	3149.78
573.55	3330.00
573.74	3573.71
573.94	3360.72
574.13	3110.86
574.33	3401.68
574.52	3690.44
574.71	3481.55
574.91	3203.02
575.10	3035.09
575.30	3301.33
575.49	3254.22
575.69	3047.38
575.88	3215.31
576.08	3325.90
576.27	3645.38
576.47	3098.58
576.66	3344.33
576.86	3786.69
577.05	3540.94
577.25	3243.98
577.44	3370.96
577.64	3356.62
577.83	3590.09
578.02	3133.39
578.22	3397.58
578.41	3887.04
578.61	3430.35
578.80	3067.86
579.00	3200.98
579.19	3348.43
579.39	3499.98
579.58	3274.70
579.77	3168.21
579.97	3762.12
580.16	3610.57
580.36	3377.10
580.55	3188.69
580.75	3540.94
580.94	3440.59
581.13	3368.91
581.33	3420.11
581.52	3366.86
581.72	3792.84
581.91	3241.93
582.11	3184.59
582.30	3594.19
582.49	3403.72
582.69	3547.08
582.88	3190.74
583.08	3467.21
583.27	3729.35
583.47	3338.19
583.66	3143.63
583.85	3262.41
584.05	3434.44
584.24	3338.19
584.44	3270.61
584.63	3596.23
584.82	3639.24
585.02	3483.59
585.21	3315.66
585.41	3428.30
585.60	3524.55
585.79	3428.30
585.99	3405.77
586.18	3450.83
586.37	4450.24
586.57	6750.10
586.76	18417.38
586.96	37150.15
587.15	49577.23
587.34	57244.82
587.54	61201.50
587.73	53736.65
587.93	38868.40
588.12	29947.45
588.31	24673.93
588.51	21966.51
588.70	20514.50
588.89	17696.50
589.09	14995.23
589.28	13119.29
589.47	10465.12
589.67	7827.34
589.86	6342.56
590.06	5040.05
590.25	4489.15
590.44	3860.42
590.64	3606.47
590.83	3712.97
591.02	3737.54
591.22	3108.82
591.41	3319.76
591.60	3416.01
591.80	3993.54
591.99	2998.23
592.18	3143.63
592.38	3690.44
592.57	3293.13
592.76	3215.31
592.96	3317.71
593.15	3385.29
593.34	3706.82
593.54	3139.54
593.73	3307.47
593.92	3528.65
594.12	3477.45
594.31	3280.85
594.50	3336.14
594.70	3506.12
594.89	4050.88
595.08	3074.00
595.28	3327.95
595.47	4087.75
595.66	3612.62
595.86	3127.25
596.05	3157.97
596.24	3385.29
596.43	3878.85
596.63	3276.75
596.82	3428.30
597.01	3524.55
597.21	3825.61
597.40	3139.54
597.59	3219.41
597.79	3409.87
597.98	3659.72
598.17	3192.78
598.36	3213.26
598.56	3606.47
598.75	3405.77
598.94	3293.13
599.14	3282.89
599.33	3311.57
599.52	3524.55
599.71	3227.60
599.91	3239.89
600.10	3577.80
600.29	3508.17
600.48	3235.79
600.68	3358.67
600.87	3563.47
601.06	3373.00
601.26	3319.76
601.45	3295.18
601.64	3399.63
601.83	3747.78
602.03	3098.58
602.22	3067.86
602.41	3612.62
602.60	4054.98
602.80	3200.98
602.99	3305.42
603.18	3311.57
603.37	3508.17
603.57	3053.52
603.76	3221.45
603.95	3708.87
604.14	3280.85
604.34	3139.54
604.53	3098.58
604.72	3510.22
604.91	3629.00
605.10	3209.17
605.30	2985.94
605.49	3985.35
605.68	3540.94
605.87	3143.63
606.07	3213.26
606.26	3442.64
606.45	3622.86
606.64	3203.02
606.84	3104.72
607.03	3426.25
607.22	3618.76
607.41	3268.56
607.60	3162.06
607.80	3635.14
607.99	3387.34
608.18	3221.45
608.37	3182.54
608.56	3305.42
608.76	3622.86
608.95	3409.87
609.14	3135.44
609.33	3708.87
609.52	3755.97
609.72	3254.22
609.91	3295.18
610.10	3454.92
610.29	3788.74
610.48	3258.32
610.68	3295.18
610.87	3499.98
611.06	3684.30
611.25	3254.22
611.44	3311.57
611.63	3375.05
611.83	3821.51
612.02	3104.72
612.21	3354.57
612.40	2981.84
612.59	3168.21
612.79	3092.43
612.98	3229.65
613.17	3762.12
613.36	3360.72
613.55	3254.22
613.74	3110.86
613.93	3452.88
614.13	3590.09
614.32	3311.57
614.51	3160.02
614.70	3364.81
614.89	3356.62
615.08	3266.51
615.28	3528.65
615.47	3106.77
615.66	3510.22
615.85	3229.65
616.04	3211.22
616.23	3413.96
616.42	3495.88
616.62	3147.73
616.81	3123.15
617.00	3424.20
617.19	3575.75
617.38	3256.27
617.57	3246.03
617.76	3622.86
617.95	3588.04
618.15	3323.85
618.34	3467.21
618.53	3188.69
618.72	3753.93
618.91	3250.13
619.10	3237.84
619.29	3479.50
619.48	3542.99
619.68	3145.68
619.87	3188.69
620.06	3153.87
620.25	3579.85
620.44	3149.78
620.63	3110.86
620.82	3483.59
621.01	3467.21
621.20	3172.30
621.39	3231.69
621.59	3583.95
621.78	3399.63
621.97	3188.69
622.16	3295.18
622.35	3563.47
622.54	3547.08
622.73	3303.37
622.92	2961.36
623.11	3665.86
623.30	3319.76
623.49	3336.14
623.68	3090.38
623.88	3786.69
624.07	3254.22
624.26	3102.67
624.45	3192.78
624.64	3385.29
624.83	3538.89
625.02	3213.26
625.21	3157.97
625.40	3420.11
625.59	3729.35
625.78	3213.26
625.97	3221.45
626.16	3655.62
626.35	3559.37
626.54	3176.40
626.74	3397.58
626.93	3344.33
627.12	3360.72
627.31	3270.61
627.50	3213.26
627.69	3635.14
627.88	3315.66
628.07	3155.92
628.26	3008.47
628.45	3321.81
628.64	3231.69
628.83	3151.82
629.02	3008.47
629.21	3573.71
629.40	3559.37
629.59	3088.34
629.78	3151.82
629.97	3428.30
630.16	3493.83
630.35	3135.44
630.54	3276.75
630.73	3289.04
630.92	3385.29
631.11	3147.73
631.30	3299.28
631.49	3672.01
631.68	3405.77
631.87	3180.50
632.06	3065.81
632.25	4048.83
632.44	3454.92
632.63	3241.93
632.82	3217.36
633.01	3284.94
633.20	3442.64
633.39	3254.22
633.58	3008.47
633.77	3542.99
633.96	3594.19
634.15	3342.28
634.34	3252.17
634.53	3522.51
634.72	3268.56
634.91	3069.91
635.10	3246.03
635.29	3674.06
635.48	3510.22
635.67	3078.10
635.86	3074.00
636.05	3739.59
636.24	3454.92
636.43	3166.16
636.62	3248.08
636.81	2885.59
637.00	3485.64
637.19	3172.30
637.38	3192.78
637.57	3301.33
637.76	3416.01
637.95	3336.14
638.14	3348.43
638.33	3418.06
638.52	3459.02
638.71	3000.27
638.89	3028.95
639.08	4077.51
639.27	3674.06
639.46	3418.06
639.65	3551.18
639.84	3784.65
640.03	4097.99
640.22	3561.42
640.41	3499.98
640.60	3459.02
640.79	3473.36
640.98	3411.92
641.17	3422.16
641.36	3688.39
641.55	3706.82
641.74	3100.62
641.92	3098.58
642.11	3168.21
642.30	3336.14
642.49	3059.67
642.68	3135.44
642.87	3532.75
643.06	3631.05
643.25	3041.23
643.44	3067.86
643.63	3375.05
643.82	3639.24
644.00	3020.75
644.19	3182.54
644.38	3233.74
644.57	3602.38
644.76	3092.43
644.95	3268.56
645.14	3465.16
645.33	3409.87
645.52	3299.28
645.71	3071.95
645.89	3211.22
646.08	3377.10
646.27	3166.16
646.46	3368.91
646.65	3127.25
646.84	3461.07
647.03	3137.49
647.22	3276.75
647.40	3526.60
647.59	3377.10
647.78	2967.51
647.97	3160.02
648.16	3323.85
648.35	3792.84
648.54	3467.21
648.73	3190.74
648.91	3629.00
649.10	3461.07
649.29	3100.62
649.48	3104.72
649.67	3475.40
649.86	3403.72
650.05	3151.82
650.23	3317.71
650.42	3313.61
650.61	3846.09
650.80	3387.34
650.99	3430.35
651.18	3737.54
651.36	3682.25
651.55	3139.54
651.74	3291.09
651.93	3336.14
652.12	3401.68
652.31	3198.93
652.49	3250.13
652.68	3360.72
652.87	3798.98
653.06	3276.75
653.25	3461.07
653.44	3444.68
653.62	3758.02
653.81	3229.65
654.00	3176.40
654.19	3538.89
654.38	4044.74
654.56	3252.17
654.75	3086.29
654.94	3606.47
655.13	3461.07
655.32	3157.97
655.51	3250.13
655.69	3368.91
655.88	3606.47
656.07	3074.00
656.26	3188.69
656.45	3143.63
656.63	3442.64
656.82	3149.78
657.01	3465.16
657.20	3315.66
657.38	3710.92
657.57	3223.50
657.76	3010.51
657.95	3594.19
658.14	3264.46
658.32	3282.89
658.51	3102.67
658.70	3463.12
658.89	3547.08
659.08	3200.98
659.26	3362.76
659.45	3172.30
659.64	3596.23
659.83	3147.73
660.01	3592.14
660.20	3510.22
660.39	3796.93
660.58	2828.24
660.76	3280.85
660.95	3133.39
661.14	3481.55
661.33	3080.14
661.51	3280.85
661.70	3278.80
661.89	3469.26
662.08	3286.99
662.26	3082.19
662.45	3246.03
662.64	3868.61
662.83	3289.04
663.01	3100.62
663.20	3303.37
663.39	3725.26
663.58	3182.54
663.76	3239.89
663.95	3639.24
664.14	3250.13
664.32	3286.99
664.51	3057.62
664.70	3149.78
664.89	3598.28
665.07	3078.10
665.26	3319.76
665.45	3139.54
665.64	3518.41
665.82	3139.54
666.01	3342.28
666.20	3143.63
666.38	3657.67
666.57	3475.40
666.76	5715.88
666.95	12640.06
667.13	18896.61
667.32	22423.21
667.51	24800.90
667.69	25439.87
667.88	20666.05
668.07	15318.81
668.25	13291.32
668.44	11941.71
668.63	10370.91
668.81	8970.10
669.00	7767.95
669.19	7110.55
669.38	6569.88
669.56	5433.26
669.75	4704.18
669.94	4382.65
670.12	3735.50
670.31	3499.98
670.50	3389.39
670.68	3672.01
670.87	3557.32
671.06	3211.22
671.24	3268.56
671.43	3684.30
671.62	3420.11
671.80	3139.54
671.99	3282.89
672.18	3438.54
672.36	3606.47
672.55	3401.68
672.74	3319.76
672.92	3401.68
673.11	3651.53
673.29	3057.62
673.48	3303.37
673.67	3330.00
673.85	3604.42
674.04	3090.38
674.23	3262.41
674.41	3864.52
674.60	3176.40
674.79	2969.55
674.97	3067.86
675.16	3653.58
675.34	3745.73
675.53	3121.10
675.72	3260.37
675.90	3817.41
676.09	3459.02
676.28	3303.37
676.46	3074.00
676.65	3631.05
676.83	3321.81
677.02	3217.36
677.21	3229.65
677.39	3485.64
677.58	3258.32
677.77	3172.30
677.95	3051.47
678.14	3348.43
678.32	3370.96
678.51	3157.97
678.70	3485.64
678.88	3323.85
679.07	3446.73
679.25	3180.50
679.44	3178.45
679.63	3127.25
679.81	3475.40
680.00	3442.64
680.18	3200.98
680.37	3907.52
680.55	3418.06
680.74	3098.58
680.93	3004.37
681.11	3497.93
681.30	3454.92
681.48	3135.44
681.67	3233.74
681.85	3405.77
682.04	3282.89
682.23	3403.72
682.41	3356.62
682.60	3420.11
682.78	3377.10
682.97	3125.20
683.15	3266.51
683.34	3516.36
683.53	3723.21
683.71	3014.61
683.90	3241.93
684.08	3811.27
684.27	3405.77
684.45	3256.27
684.64	3430.35
684.82	3327.95
685.01	3665.86
685.19	3231.69
685.38	3559.37
685.57	3385.29
685.75	3295.18
685.94	3098.58
686.12	3139.54
686.31	3385.29
686.49	3839.94
686.68	2961.36
686.86	3182.54
687.05	3368.91
687.23	3780.55
687.42	3164.11
687.60	3071.95
687.79	3704.78
687.97	3782.60
688.16	3321.81
688.34	3411.92
688.53	3065.81
688.71	3590.09
688.90	3528.65
689.08	3239.89
689.27	3088.34
689.45	3637.19
689.64	3327.95
689.82	3243.98
690.01	3473.36
690.19	3459.02
690.38	3246.03
690.56	3338.19
690.75	3293.13
690.93	3334.09
691.12	3205.07
691.30	3180.50
691.49	3266.51
691.67	3397.58
691.86	3528.65
692.04	3248.08
692.23	3334.09
692.41	3307.47
692.60	3557.32
692.78	3370.96
692.97	3428.30
693.15	3645.38
693.34	3434.44
693.52	3467.21
693.71	3352.52
693.89	3241.93
694.08	3014.61
694.26	3250.13
694.44	3569.61
694.63	3495.88
694.81	3137.49
695.00	3213.26
695.18	3639.24
695.37	3968.96
695.55	3274.70
695.74	3377.10
695.92	3297.23
696.10	3745.73
696.29	3121.10
696.47	3225.55
696.66	3168.21
696.84	3239.89
697.03	3278.80
697.21	3475.40
697.40	4827.06
697.58	3735.50
697.76	3129.30
697.95	3192.78
698.13	3176.40
698.32	3317.71
698.50	3207.12
698.68	3235.79
698.87	3549.13
699.05	3755.97
699.24	3172.30
699.42	3198.93
699.61	3465.16
699.79	3459.02
699.97	3250.13
700.16	3074.00
700.34	3233.74
700.53	3389.39
700.71	3424.20
700.89	3358.67
701.08	3446.73
701.26	3368.91
701.45	3532.75
701.63	3243.98
701.81	3289.04
702.00	3219.41
702.18	3336.14
702.37	3219.41
702.55	3780.55
702.73	3471.31
702.92	3205.07
703.10	3485.64
703.28	3643.34
703.47	3188.69
703.65	3344.33
703.84	3315.66
704.02	3391.44
704.20	3745.73
704.39	3108.82
704.57	3172.30
704.75	3639.24
704.94	3516.36
705.12	3420.11
705.30	4018.11
705.49	8146.82
705.67	14425.89
705.86	19412.70
706.04	21681.85
706.22	23725.72
706.41	22322.86
706.59	16516.87
706.77	13385.52
706.96	11835.21
707.14	10882.91
707.32	9215.86
707.51	8183.68
707.69	6936.47
707.87	5775.27
708.06	4734.90
708.24	4220.86
708.42	3977.16
708.61	4280.25
708.79	3297.23
708.97	3360.72
709.16	3534.79
709.34	3456.97
709.52	3215.31
709.71	3237.84
709.89	3610.57
710.07	3278.80
710.26	3057.62
710.44	3192.78
710.62	3657.67
710.80	3477.45
710.99	3383.24
711.17	3305.42
711.35	3250.13
711.54	3225.55
711.72	3377.10
711.90	3262.41
712.09	3479.50
712.27	3270.61
712.45	3260.37
712.63	3200.98
712.82	3409.87
713.00	3377.10
713.18	3303.37
713.37	3352.52
713.55	3559.37
713.73	3600.33
713.91	3301.33
714.10	3205.07
714.28	3325.90
714.46	3438.54
714.65	3358.67
714.83	3286.99
715.01	3473.36
715.19	3542.99
715.38	3080.14
715.56	3344.33
715.74	3174.35
715.92	3297.23
716.11	3598.28
716.29	2967.51
716.47	3413.96
716.65	3499.98
716.84	3037.14
717.02	3205.07
717.20	3039.19
717.38	3274.70
717.57	3291.09
717.75	3293.13
717.93	3352.52
718.11	3549.13
718.30	3092.43
718.48	3205.07
718.66	3715.02
718.84	3698.63
719.03	3227.60
719.21	3092.43
719.39	3805.13
719.57	3610.57
719.75	3311.57
719.94	3071.95
720.12	3436.49
720.30	3409.87
720.48	3325.90
720.67	3235.79
720.85	3166.16
721.03	3377.10
721.21	3213.26
721.39	3278.80
721.58	3581.90
721.76	3377.10
721.94	3239.89
722.12	3327.95
722.30	3831.75
722.49	3278.80
722.67	3213.26
722.85	3280.85
723.03	3090.38
723.21	3354.57
723.40	3256.27
723.58	3303.37
723.76	3532.75
723.94	3755.97
724.12	3180.50
724.30	3467.21
724.49	3712.97
724.67	3170.26
724.85	3229.65
725.03	3033.04
725.21	3549.13
725.40	3688.39
725.58	3221.45
725.76	3452.88
725.94	3616.71
726.12	3248.08
726.30	3282.89
726.49	3184.59
726.67	3278.80
726.85	3592.14
727.03	3889.09
727.21	4923.32
727.39	6096.80
727.57	6379.42
727.76	6731.67
727.94	6518.68
728.12	5994.40
728.30	5066.67
728.48	4739.00
728.66	4526.01
728.84	4378.56
729.03	3887.04
729.21	3755.97
729.39	3559.37
729.57	3504.07
729.75	3575.75
729.93	3473.36
730.11	3180.50
730.30	3301.33
730.48	3379.15
730.66	3196.88
730.84	3311.57
731.02	3403.72
731.20	3262.41
731.38	3270.61
731.56	3033.04
731.74	3221.45
731.93	3534.79
732.11	3293.13
732.29	3155.92
732.47	3585.99
732.65	3536.84
732.83	3340.24
733.01	3274.70
733.19	3260.37
733.37	3635.14
733.56	3217.36
733.74	3114.96
733.92	3805.13
734.10	3350.48
734.28	3303.37
734.46	3010.51
734.64	3385.29
734.82	3348.43
735.00	3174.35
735.18	3217.36
735.36	3469.26
735.54	3459.02
735.73	3160.02
735.91	3377.10
736.09	3753.93
736.27	3397.58
736.45	3342.28
736.63	2996.18
736.81	3385.29
736.99	3585.99
737.17	3391.44
737.35	3098.58
737.53	3534.79
737.71	3397.58
737.89	3389.39
738.07	3184.59
738.25	3256.27
738.43	3123.15
738.61	3246.03
738.80	3123.15
738.98	3246.03
739.16	3338.19
739.34	3110.86
739.52	3526.60
739.70	3397.58
739.88	3549.13
740.06	3373.00
740.24	3016.66
740.42	3688.39
740.60	3080.14
740.78	3325.90
740.96	2967.51
741.14	3336.14
741.32	3450.83
741.50	3076.05
741.68	3524.55
741.86	3653.58
742.04	3172.30
742.22	3110.86
742.40	3215.31
742.58	3581.90
742.76	3268.56
742.94	3465.16
743.12	2998.23
743.30	3379.15
743.48	3520.46
743.66	3143.63
743.84	3184.59
744.02	3403.72
744.20	3469.26
744.38	3074.00
744.56	3147.73
744.74	3745.73
744.92	3565.51
745.10	3426.25
745.28	3313.61
745.46	3737.54
745.64	3459.02
745.82	3246.03
746.00	3143.63
746.18	3567.56
746.36	3170.26
746.54	3254.22
746.72	3246.03
746.90	3172.30
747.08	3758.02
747.26	3205.07
747.44	3248.08
747.62	3581.90
747.80	3499.98
747.98	3319.76
748.15	3205.07
748.33	3844.04
748.51	3436.49
748.69	3299.28
748.87	3135.44
749.05	3352.52
749.23	3401.68
749.41	3164.11
749.59	3190.74
749.77	3645.38
749.95	3364.81
750.13	3157.97
750.31	3385.29
750.49	3456.97
750.67	3641.29
750.85	3420.11
751.03	3168.21
751.20	3921.86
751.38	3399.63
751.56	3266.51
751.74	3246.03
751.92	3381.20
752.10	3200.98
752.28	3358.67
752.46	3100.62
752.64	3436.49
752.82	3379.15
753.00	3295.18
753.18	3127.25
753.35	3432.40
753.53	3375.05
753.71	3117.01
753.89	3262.41
754.07	3506.12
754.25	3651.53
754.43	3291.09
754.61	3151.82
754.79	3557.32
754.97	3352.52
755.14	3362.76
755.32	3168.21
755.50	3471.31
755.68	3389.39
755.86	3168.21
756.04	3117.01
756.22	3180.50
756.40	3573.71
756.57	3354.57
756.75	3151.82
756.93	3737.54
757.11	3680.20
757.29	3098.58
757.47	3076.05
757.65	3119.06
757.82	2940.88
758.00	3106.77
758.18	3147.73
758.36	3262.41
758.54	3831.75
758.72	3063.76
758.90	3362.76
759.07	3485.64
759.25	3286.99
759.43	3301.33
759.61	3037.14
759.79	4605.88
759.97	3598.28
760.15	3196.88
760.32	3243.98
760.50	3428.30
760.68	3811.27
760.86	3086.29
761.04	3364.81
761.22	3639.24
761.39	3438.54
761.57	3391.44
761.75	3170.26
761.93	3577.80
762.11	3452.88
762.28	3330.00
762.46	3123.15
762.64	3745.73
762.82	3176.40
763.00	3139.54
763.18	3356.62
763.35	3205.07
763.53	3569.61
763.71	3231.69
763.89	3123.15
764.07	3493.83
764.24	3385.29
764.42	3336.14
764.60	3180.50
764.78	3583.95
764.96	3596.23
765.13	3395.53
765.31	3074.00
765.49	3551.18
765.67	3162.06
765.84	3119.06
766.02	3086.29
766.20	3157.97
766.38	3502.03
766.56	3223.50
766.73	3237.84
766.91	3387.34
767.09	3504.07
767.27	3200.98
767.44	3106.77
767.62	3489.74
767.80	3473.36
767.98	3149.78
768.15	3182.54
768.33	3618.76
768.51	3682.25
768.69	3307.47
768.87	3229.65
769.04	3407.82
769.22	4044.74
769.40	3356.62
769.58	3362.76
769.75	3600.33
769.93	3676.10
770.11	3221.45
770.28	3010.51
770.46	3692.49
770.64	3530.70
770.82	3289.04
770.99	3131.34
771.17	3579.85
771.35	3364.81
771.53	3334.09
771.70	3135.44
771.88	3512.27
772.06	3370.96
772.23	3100.62
772.41	3155.92
772.59	3364.81
772.77	3254.22
772.94	3211.22
773.12	3221.45
773.30	3383.24
773.47	3448.78
773.65	3057.62
773.83	3377.10
774.01	3512.27
774.18	3082.19
774.36	3205.07
774.54	3071.95
774.71	3514.31
774.89	3125.20
775.07	3067.86
775.24	3106.77
775.42	3311.57
775.60	3817.41
775.78	3104.72
775.95	3149.78
776.13	3145.68
776.31	3041.23
776.48	3338.19
776.66	3389.39
776.84	3360.72
777.01	3168.21
777.19	3086.29
777.37	3149.78
777.54	3581.90
777.72	3885.00
777.90	3321.81
778.07	3203.02
778.25	4171.71
778.43	3583.95
778.60	3125.20
778.78	3370.96
778.96	3692.49
779.13	3147.73
779.31	3205.07
779.49	3225.55
779.66	3510.22
779.84	3289.04
780.01	3065.81
780.19	3219.41
780.37	3706.82
780.54	3608.52
780.72	3094.48
780.90	3203.02
781.07	3401.68
781.25	3303.37
781.43	3346.38
781.60	3170.26
781.78	3708.87
781.95	3493.83
782.13	3127.25
782.31	3129.30
782.48	3008.47
782.66	3323.85
782.83	3477.45
783.01	3387.34
783.19	3573.71
783.36	3440.59
783.54	3106.77
783.72	3200.98
783.89	3319.76
784.07	3428.30
784.24	3327.95
784.42	3327.95
784.60	3456.97
784.77	3516.36
784.95	2955.22
785.12	3190.74
785.30	3481.55
785.47	3295.18
785.65	3174.35
785.83	3282.89
786.00	3274.70
786.18	3499.98
786.35	3139.54
786.53	3104.72
786.71	3688.39
786.88	3502.03
787.06	3254.22
787.23	3303.37
787.41	3280.85
787.58	3424.20
787.76	3076.05
787.94	3260.37
788.11	3467.21
788.29	3176.40
788.46	3215.31
788.64	2992.08
788.81	3356.62
788.99	3289.04
789.16	3237.84
789.34	3272.65
789.52	3274.70
789.69	3303.37
789.87	3008.47
790.04	3246.03
790.22	3426.25
790.39	3825.61
790.57	3110.86
790.74	3131.34
790.92	3647.43
791.09	3114.96
791.27	3211.22
791.44	3272.65
791.62	3450.83
791.79	3629.00
791.97	3280.85
792.15	3559.37
792.32	3598.28
792.50	3594.19
792.67	3409.87
792.85	3495.88
793.02	3483.59
793.20	3301.33
793.37	3069.91
793.55	3112.91
793.72	3336.14
793.90	3571.66
794.07	3219.41
794.25	3200.98
794.42	3430.35
794.60	3409.87
794.77	3282.89
794.95	3385.29
795.12	3540.94
795.30	3332.05
795.47	3037.14
795.65	3567.56
795.82	3557.32
796.00	3323.85
796.17	3282.89
796.34	3149.78
796.52	3516.36
796.69	3696.58
796.87	3366.86
797.04	3362.76
797.22	3659.72
797.39	3585.99
797.57	3381.20
797.74	3377.10
797.92	3545.03
798.09	3327.95
798.27	3504.07
798.44	3205.07
798.62	3305.42
798.79	3516.36
798.96	3241.93
799.14	3256.27
799.31	4048.83
799.49	3426.25
799.66	3155.92
799.84	3248.08
800.01	3078.10
800.19	3491.79
800.36	2987.99
800.53	3260.37
800.71	3530.70
800.88	3721.16
801.06	3104.72
801.23	3092.43
801.41	3362.76
801.58	3352.52
801.75	3192.78
801.93	3229.65
802.10	3514.31
802.28	3364.81
802.45	3180.50
802.63	3180.50
802.80	3758.02
802.97	3377.10
803.15	3176.40
803.32	3139.54
803.50	3338.19
803.67	3239.89
803.84	3274.70
804.02	3260.37
804.19	3393.48
804.37	2975.70
804.54	2987.99
804.71	3108.82
804.89	3389.39
805.06	3338.19
805.24	3143.63
805.41	3004.37
805.58	3321.81
805.76	4024.26
805.93	3153.87
806.10	3336.14
806.28	3590.09
806.45	3516.36
806.63	3370.96
806.80	3260.37
806.97	3477.45
807.15	3491.79
807.32	3262.41
807.49	3198.93
807.67	3143.63
807.84	3475.40
808.01	3037.14
808.19	3274.70
808.36	3852.23
808.54	3354.57
808.71	3205.07
808.88	3127.25
809.06	3629.00
809.23	3741.64
809.40	3200.98
809.58	3141.58
809.75	3405.77
809.92	3223.50
810.10	3475.40
810.27	3221.45
810.44	3516.36
810.62	3606.47
810.79	3213.26
810.96	3200.98
811.14	3311.57
811.31	3532.75
811.48	3317.71
811.66	3270.61
811.83	3655.62
812.00	3577.80
812.18	3334.09
812.35	3555.27
812.52	3391.44
812.69	3354.57
812.87	3174.35
813.04	3108.82
813.21	3403.72
813.39	3260.37
813.56	3119.06
813.73	3461.07
813.91	3135.44
814.08	3483.59
814.25	3237.84
814.42	2947.03
814.60	3358.67
814.77	3504.07
814.94	3147.73
815.12	3368.91
815.29	3798.98
815.46	3409.87
815.63	3262.41
815.81	3141.58
815.98	3368.91
816.15	3362.76
816.33	3311.57
816.50	3205.07
816.67	3508.17
816.84	3360.72
817.02	3110.86
817.19	3096.53
817.36	3540.94
817.53	3483.59
817.71	3074.00
817.88	3196.88
818.05	3411.92
818.22	3364.81
818.40	3321.81
818.57	3243.98
818.74	3549.13
818.91	3344.33
819.09	3395.53
819.26	3270.61
819.43	3270.61
819.60	3260.37
819.78	3487.69
819.95	3274.70
820.12	3237.84
820.29	3782.60
820.47	3413.96
820.64	3051.47
820.81	3170.26
820.98	3252.17
821.15	3162.06
821.33	3373.00
821.50	3061.71
821.67	3590.09
821.84	3209.17
822.02	3217.36
822.19	3583.95
822.36	3301.33
822.53	3086.29
822.70	3020.75
822.88	3297.23
823.05	3688.39
823.22	3327.95
823.39	3237.84
823.56	3399.63
823.74	3764.17
823.91	3022.80
824.08	3135.44
824.25	3176.40
824.42	3747.78
824.60	3065.81
824.77	3321.81
824.94	3327.95
825.11	3598.28
825.28	3119.06
825.45	3299.28
825.63	3452.88
825.80	3233.74
825.97	3303.37
826.14	3198.93
826.31	3033.04
826.48	3592.14
826.66	3141.58
826.83	3123.15
827.00	3346.38
827.17	3246.03
827.34	3149.78
827.51	3119.06
827.69	3413.96
827.86	3090.38
828.03	3239.89
828.20	3252.17
828.37	3362.76
828.54	3540.94
828.71	3143.63
828.89	3233.74
829.06	3456.97
829.23	3680.20
829.40	3209.17
829.57	3139.54
829.74	3520.46
829.91	3327.95
830.09	3151.82
830.26	3358.67
830.43	3801.03
830.60	3366.86
830.77	3297.23
830.94	3422.16
831.11	3637.19
831.28	3340.24
831.46	3323.85
831.63	3203.02
831.80	3639.24
831.97	3297.23
832.14	3260.37
832.31	3266.51
832.48	3518.41
832.65	3680.20
832.82	3344.33
832.99	3266.51
833.17	3127.25
833.34	3743.69
833.51	3117.01
833.68	2944.98
833.85	3665.86
834.02	3223.50
834.19	3129.30
834.36	3291.09
834.53	3532.75
834.70	3688.39
834.87	3139.54
835.04	2977.75
835.22	3330.00
835.39	3346.38
835.56	3020.75
835.73	3000.27
835.90	3645.38
836.07	3205.07
836.24	3237.84
836.41	3057.62
836.58	3313.61
836.75	3504.07
836.92	3055.57
837.09	2934.74
837.26	3565.51
837.43	3557.32
837.60	3071.95
837.77	3090.38
837.94	3561.42
838.12	3692.49
838.29	2965.46
838.46	2906.07
838.63	3125.20
838.80	3715.02
838.97	3057.62
839.14	2975.70
839.31	3508.17
839.48	3553.23
839.65	3102.67
839.82	3100.62
839.99	3436.49
840.16	3413.96
840.33	2994.13
840.50	3074.00
840.67	3286.99
840.84	2932.69
841.01	3000.27
841.18	2936.79
841.35	3420.11
841.52	3643.34
841.69	3373.00
841.86	3016.66
842.03	3411.92
842.20	3645.38
842.37	3084.24
842.54	3172.30
842.71	3430.35
842.88	3051.47
843.05	3063.76
843.22	2949.08
843.39	3661.77
843.56	3278.80
843.73	2983.89
843.90	3049.43
844.07	3327.95
844.24	3659.72
844.41	3123.15
844.58	3049.43
844.75	3385.29
844.92	3510.22
845.09	3080.14
845.26	2973.65
845.43	3547.08
845.60	3323.85
845.77	3160.02
845.94	3123.15
846.10	3639.24
846.27	3164.11
846.44	2887.64
846.61	2951.12
846.78	3606.47
846.95	3647.43
847.12	2955.22
847.29	2947.03
847.46	3317.71
847.63	3639.24
847.80	2938.84
847.97	3010.51
848.14	3966.92
848.31	3395.53
848.48	2811.86
848.65	2928.60
848.82	3319.76
848.98	3938.24
849.15	3123.15
849.32	3149.78
849.49	3620.81
849.66	3391.44
849.83	3012.56
850.00	2965.46
850.17	3635.14
850.34	3348.43
850.51	2932.69
850.68	3055.57
850.85	4001.73
851.01	3510.22
851.18	2899.92
851.35	3006.42
851.52	3508.17
851.69	3712.97
851.86	3000.27
852.03	2992.08
852.20	3626.95
852.37	3426.25
852.53	2899.92
852.70	2951.12
852.87	3526.60
853.04	3545.03
853.21	2963.41
853.38	3330.00
853.55	3653.58
853.72	3643.34
853.89	2856.92
854.05	2996.18
854.22	3352.52
854.39	3344.33
854.56	2947.03
854.73	3215.31
854.90	3184.59
855.07	3463.12
855.23	2918.36
855.40	2908.12
855.57	3299.28
855.74	3014.61
855.91	3196.88
856.08	2856.92
856.25	3135.44
856.41	3274.70
856.58	3008.47
856.75	3100.62
856.92	3157.97
857.09	3633.10
857.26	2910.16
857.42	3098.58
857.59	3540.94
857.76	3315.66
857.93	2990.03
858.10	3024.85
858.27	3213.26
858.43	3416.01
858.60	3008.47
858.77	2889.68
858.94	3411.92
859.11	3657.67
859.27	3112.91
859.44	2926.55
859.61	3893.19
859.78	3551.18
859.95	2990.03
860.12	2854.87
860.28	3934.15
860.45	3792.84
860.62	2963.41
860.79	3114.96
860.95	3401.68
861.12	3299.28
861.29	2983.89
861.46	3026.90
861.63	3461.07
861.79	3504.07
861.96	2910.16
862.13	3008.47
862.30	3692.49
862.47	3252.17
862.63	2967.51
862.80	3063.76
862.97	3612.62
863.14	3516.36
863.30	3082.19
863.47	2901.97
863.64	3841.99
863.81	3454.92
863.97	2899.92
864.14	3114.96
864.31	3373.00
864.48	3497.93
864.65	2938.84
864.81	3143.63
864.98	3598.28
865.15	3606.47
865.32	3002.32
865.48	3090.38
865.65	3827.65
865.82	3299.28
865.98	3084.24
866.15	3102.67
866.32	3389.39
866.49	3248.08
866.65	3172.30
866.82	3051.47
866.99	3426.25
867.16	3301.33
867.32	3043.28
867.49	2981.84
867.66	3362.76
867.83	3221.45
867.99	2832.34
868.16	3033.04
868.33	3196.88
868.49	3502.03
868.66	3108.82
868.83	3174.35
868.99	3416.01
869.16	3467.21
869.33	3172.30
869.50	3090.38
869.66	3508.17
869.83	3319.76
870.00	2981.84
870.16	3071.95
870.33	3450.83
870.50	3639.24
870.66	3194.83
870.83	3008.47
871.00	3463.12
871.17	3540.94
871.33	3063.76
871.50	2985.94
871.67	3325.90
871.83	3360.72
872.00	3114.96
872.17	3100.62
872.33	3841.99
872.50	3659.72
872.67	3020.75
872.83	2975.70
873.00	3499.98
873.17	3467.21
873.33	3037.14
873.50	3006.42
873.67	3313.61
873.83	3291.09
874.00	3074.00
874.16	3166.16
874.33	3428.30
874.50	3164.11
874.66	2975.70
874.83	3074.00
875.00	3622.86
875.16	3696.58
875.33	3147.73
875.50	2779.09
875.66	3303.37
875.83	3463.12
875.99	3018.71
876.16	3108.82
876.33	3200.98
876.49	3362.76
876.66	3074.00
876.83	3086.29
876.99	3024.85
877.16	3387.34
877.32	3002.32
877.49	3155.92
877.66	3465.16
877.82	3704.78
877.99	3213.26
878.15	3299.28
878.32	3463.12
878.49	3526.60
878.65	3102.67
878.82	3409.87
878.98	3215.31
879.15	3665.86
879.32	3170.26
879.48	3262.41
879.65	3475.40
879.81	3289.04
879.98	3080.14
880.15	3117.01
880.31	3604.42
880.48	3174.35
880.64	3119.06
880.81	3176.40
880.97	3770.31
881.14	3715.02
881.31	2942.93
881.47	3188.69
881.64	3373.00
881.80	3125.20
881.97	3123.15
882.13	3057.62
882.30	3186.64
882.47	3319.76
882.63	3051.47
882.80	2949.08
882.96	3373.00
883.13	3649.48
883.29	3030.99
883.46	2983.89
883.62	3950.53
883.79	3510.22
883.95	3227.60
884.12	2926.55
884.29	3626.95
884.45	3438.54
884.62	2959.31
884.78	3024.85
884.95	3794.89
885.11	3266.51
885.28	3166.16
885.44	3033.04
885.61	3602.38
885.77	3682.25
885.94	3178.45
886.10	3102.67
886.27	3420.11
886.43	3831.75
886.60	3151.82
886.76	3049.43
886.93	3207.12
887.09	3528.65
887.26	2930.64
887.42	3172.30
887.59	3653.58
887.75	3919.81
887.92	3344.33
888.08	3168.21
888.25	3854.28
888.41	3565.51
888.58	3108.82
888.74	3000.27
888.91	3258.32
>>>>>End Processed Spectral Data<<<<<
