SpectraSuite Data File
++++++++++++++++++++++++++++++++++++
Date: Fri May 06 09:28:36 CEST 2016
User: root
Dark Spectrum Present: No
Reference Spectrum Present: No
Number of Sampled Component Spectra: 1
Spectrometers: USB4C02835
Integration Time (usec): 100000 (USB4C02835)
Spectra Averaged: 1 (USB4C02835)
Boxcar Smoothing: 0 (USB4C02835)
Correct for Electrical Dark: No (USB4C02835)
Strobe/Lamp Enabled: No (USB4C02835)
Correct for Detector Non-linearity: No (USB4C02835)
Correct for Stray Light: No (USB4C02835)
Number of Pixels in Processed Spectrum: 3648
>>>>>Begin Processed Spectral Data<<<<<
177.47	2394.08
177.69	2394.08
177.91	2394.08
178.13	2310.11
178.36	2342.88
178.58	3139.54
178.80	3172.30
179.02	3121.10
179.24	3229.65
179.46	2893.78
179.68	2947.03
179.90	3479.50
180.13	3450.83
180.35	2738.13
180.57	2893.78
180.79	3659.72
181.01	3411.92
181.23	2996.18
181.45	3020.75
181.67	3565.51
181.90	3682.25
182.12	2998.23
182.34	2811.86
182.56	3649.48
182.78	3571.66
183.00	2926.55
183.22	2963.41
183.44	3022.80
183.66	3964.87
183.89	3121.10
184.11	3000.27
184.33	3594.19
184.55	3749.83
184.77	2959.31
184.99	3000.27
185.21	3334.09
185.43	3971.01
185.65	2942.93
185.87	2942.93
186.10	3995.59
186.32	4054.98
186.54	3147.73
186.76	3051.47
186.98	3694.54
187.20	3473.36
187.42	3059.67
187.64	2942.93
187.86	3577.80
188.08	3639.24
188.30	2953.17
188.52	3026.90
188.75	3764.17
188.97	3784.65
189.19	2924.50
189.41	2889.68
189.63	3518.41
189.85	3332.05
190.07	2811.86
190.29	2826.20
190.51	3454.92
190.73	3246.03
190.95	3086.29
191.17	2979.79
191.39	3061.71
191.61	3442.64
191.84	2918.36
192.06	3143.63
192.28	3098.58
192.50	4220.86
192.72	3155.92
192.94	3102.67
193.16	3672.01
193.38	3512.27
193.60	2846.68
193.82	3213.26
194.04	3581.90
194.26	3485.64
194.48	3010.51
194.70	2951.12
194.92	3366.86
195.14	3657.67
195.36	2881.49
195.58	3033.04
195.80	3387.34
196.02	3291.09
196.24	2904.02
196.46	3024.85
196.69	3272.65
196.91	4087.75
197.13	3006.42
197.35	3110.86
197.57	3792.84
197.79	3631.05
198.01	3076.05
198.23	3008.47
198.45	3612.62
198.67	3200.98
198.89	2852.82
199.11	3074.00
199.33	3428.30
199.55	2996.18
199.77	3018.71
199.99	3205.07
200.21	3377.10
200.43	3499.98
200.65	2938.84
200.87	2820.05
201.09	3485.64
201.31	3299.28
201.53	2992.08
201.75	3035.09
201.97	3549.13
202.19	3514.31
202.41	3065.81
202.63	3082.19
202.85	3569.61
203.07	3575.75
203.29	3078.10
203.51	2930.64
203.73	3276.75
203.95	3997.64
204.17	2934.74
204.39	3149.78
204.61	3315.66
204.83	3387.34
205.05	3147.73
205.27	2969.55
205.49	4067.27
205.71	3413.96
205.93	2863.06
206.15	2852.82
206.37	3502.03
206.59	3379.15
206.81	2838.48
207.03	2848.72
207.25	3299.28
207.47	3559.37
207.69	2959.31
207.91	3246.03
208.13	3850.18
208.34	3327.95
208.56	2934.74
208.78	3010.51
209.00	3438.54
209.22	3360.72
209.44	2979.79
209.66	2951.12
209.88	3420.11
210.10	3485.64
210.32	2932.69
210.54	3053.52
210.76	3358.67
210.98	3598.28
211.20	2863.06
211.42	3053.52
211.64	3717.06
211.86	3534.79
212.08	3022.80
212.30	2955.22
212.52	3409.87
212.74	3581.90
212.96	3037.14
213.17	3000.27
213.39	3659.72
213.61	3856.33
213.83	2875.35
214.05	2805.72
214.27	3712.97
214.49	3139.54
214.71	2996.18
214.93	3057.62
215.15	3440.59
215.37	3608.52
215.59	2809.81
215.81	3016.66
216.03	3733.45
216.24	3481.55
216.46	3043.28
216.68	2975.70
216.90	3581.90
217.12	3782.60
217.34	2965.46
217.56	3178.45
217.78	3772.36
218.00	3585.99
218.22	3094.48
218.44	3028.95
218.66	3516.36
218.87	3876.80
219.09	3112.91
219.31	3043.28
219.53	3508.17
219.75	3397.58
219.97	2973.65
220.19	2971.60
220.41	3354.57
220.63	3833.80
220.85	3024.85
221.06	3002.32
221.28	3778.50
221.50	3598.28
221.72	2955.22
221.94	2897.88
222.16	3499.98
222.38	3661.77
222.60	2969.55
222.82	3055.57
223.03	3600.33
223.25	3155.92
223.47	2928.60
223.69	3166.16
223.91	3571.66
224.13	3504.07
224.35	2842.58
224.57	3196.88
224.78	3657.67
225.00	3235.79
225.22	3074.00
225.44	2901.97
225.66	3624.90
225.88	3524.55
226.10	3135.44
226.32	2961.36
226.53	3776.45
226.75	3289.04
226.97	3137.49
227.19	2914.26
227.41	3338.19
227.63	3282.89
227.85	2703.32
228.06	3016.66
228.28	3481.55
228.50	3600.33
228.72	2807.77
228.94	2971.60
229.16	3125.20
229.37	3178.45
229.59	2838.48
229.81	3264.46
230.03	3307.47
230.25	3139.54
230.47	2803.67
230.69	2963.41
230.90	3639.24
231.12	3207.12
231.34	3012.56
231.56	2992.08
231.78	3299.28
232.00	3499.98
232.21	2961.36
232.43	2967.51
232.65	3069.91
232.87	3526.60
233.09	2768.85
233.30	2858.96
233.52	3688.39
233.74	3434.44
233.96	2889.68
234.18	3176.40
234.40	3422.16
234.61	4079.55
234.83	2867.16
235.05	2869.20
235.27	4073.41
235.49	3690.44
235.70	2936.79
235.92	3047.38
236.14	3567.56
236.36	4038.59
236.58	2881.49
236.79	3117.01
237.01	3420.11
237.23	3403.72
237.45	3145.68
237.67	3059.67
237.88	3483.59
238.10	3887.04
238.32	2828.24
238.54	2965.46
238.76	3405.77
238.97	3246.03
239.19	2840.53
239.41	2973.65
239.63	3669.96
239.85	3323.85
240.06	3055.57
240.28	2940.88
240.50	3655.62
240.72	3444.68
240.93	2947.03
241.15	3065.81
241.37	3358.67
241.59	3741.64
241.81	3022.80
242.02	3041.23
242.24	3508.17
242.46	3602.38
242.68	2764.76
242.89	2865.11
243.11	3604.42
243.33	3499.98
243.55	2957.27
243.76	2901.97
243.98	3295.18
244.20	3452.88
244.42	2938.84
244.64	2947.03
244.85	3207.12
245.07	3207.12
245.29	2979.79
245.51	3002.32
245.72	3452.88
245.94	3680.20
246.16	2861.01
246.38	3018.71
246.59	3317.71
246.81	3311.57
247.03	2906.07
247.24	2828.24
247.46	3330.00
247.68	3518.41
247.90	2838.48
248.11	3033.04
248.33	3688.39
248.55	3465.16
248.77	2971.60
248.98	3084.24
249.20	3737.54
249.42	3528.65
249.64	2918.36
249.85	2873.30
250.07	3278.80
250.29	3631.05
250.50	3024.85
250.72	2895.83
250.94	3540.94
251.16	3928.00
251.37	2940.88
251.59	3059.67
251.81	3602.38
252.02	3755.97
252.24	2910.16
252.46	3096.53
252.68	3270.61
252.89	3250.13
253.11	2740.18
253.33	3106.77
253.54	3784.65
253.76	3209.17
253.98	2975.70
254.20	2901.97
254.41	3131.34
254.63	3377.10
254.85	2873.30
255.06	3104.72
255.28	3610.57
255.50	3391.44
255.71	2944.98
255.93	2856.92
256.15	3401.68
256.36	3649.48
256.58	2795.48
256.80	2869.20
257.02	3432.40
257.23	3385.29
257.45	3047.38
257.67	3114.96
257.88	3409.87
258.10	3545.03
258.32	2912.21
258.53	3074.00
258.75	3829.70
258.97	3276.75
259.18	2848.72
259.40	2926.55
259.62	3798.98
259.83	3794.89
260.05	3000.27
260.27	3942.34
260.48	3698.63
260.70	3225.55
260.92	2963.41
261.13	3030.99
261.35	3426.25
261.57	3590.09
261.78	2904.02
262.00	2953.17
262.22	3565.51
262.43	3237.84
262.65	2992.08
262.86	3002.32
263.08	3917.76
263.30	3522.51
263.51	2764.76
263.73	2897.88
263.95	3782.60
264.16	3311.57
264.38	2797.53
264.60	2881.49
264.81	3385.29
265.03	3790.79
265.25	3391.44
265.46	2893.78
265.68	3753.93
265.89	3571.66
266.11	2832.34
266.33	2961.36
266.54	3774.41
266.76	3620.81
266.98	3045.33
267.19	3215.31
267.41	3739.59
267.62	3303.37
267.84	2719.70
268.06	3196.88
268.27	3395.53
268.49	3751.88
268.70	3043.28
268.92	3008.47
269.14	3334.09
269.35	3221.45
269.57	3051.47
269.79	3061.71
270.00	3303.37
270.22	3870.66
270.43	2852.82
270.65	2828.24
270.87	3559.37
271.08	3633.10
271.30	3117.01
271.51	2910.16
271.73	3569.61
271.95	3803.08
272.16	2901.97
272.38	3108.82
272.59	3420.11
272.81	3508.17
273.02	2897.88
273.24	3033.04
273.46	3633.10
273.67	3102.67
273.89	2854.87
274.10	3022.80
274.32	3680.20
274.54	3477.45
274.75	3090.38
274.97	3061.71
275.18	3559.37
275.40	3491.79
275.61	2994.13
275.83	3125.20
276.05	3248.08
276.26	3475.40
276.48	3049.43
276.69	3106.77
276.91	3256.27
277.12	3778.50
277.34	3131.34
277.55	3196.88
277.77	3446.73
277.99	3428.30
278.20	3141.58
278.42	3008.47
278.63	3325.90
278.85	3182.54
279.06	3049.43
279.28	3200.98
279.49	3608.52
279.71	3608.52
279.93	3143.63
280.14	3168.21
280.36	3338.19
280.57	3678.15
280.79	3100.62
281.00	2965.46
281.22	3248.08
281.43	3753.93
281.65	2873.30
281.86	3051.47
282.08	3532.75
282.29	3895.24
282.51	3006.42
282.73	2920.40
282.94	3110.86
283.16	3612.62
283.37	3110.86
283.59	3141.58
283.80	3622.86
284.02	3491.79
284.23	3170.26
284.45	3203.02
284.66	3207.12
284.88	3250.13
285.09	3016.66
285.31	3155.92
285.52	3422.16
285.74	3119.06
285.95	3256.27
286.17	3110.86
286.38	3665.86
286.60	3346.38
286.81	3018.71
287.03	3094.48
287.24	3399.63
287.46	3575.75
287.67	3250.13
287.89	3293.13
288.10	3428.30
288.32	3362.76
288.53	3248.08
288.75	3192.78
288.96	3672.01
289.18	3262.41
289.39	3065.81
289.61	3176.40
289.82	3936.20
290.04	3993.54
290.25	2965.46
290.47	3160.02
290.68	3446.73
290.90	3575.75
291.11	2901.97
291.33	3215.31
291.54	3327.95
291.76	3291.09
291.97	3315.66
292.18	3284.94
292.40	3420.11
292.61	3286.99
292.83	3330.00
293.04	3143.63
293.26	3497.93
293.47	3463.12
293.69	3112.91
293.90	3061.71
294.12	3678.15
294.33	3401.68
294.55	3162.06
294.76	3313.61
294.97	3776.45
295.19	3874.76
295.40	3141.58
295.62	3180.50
295.83	3631.05
296.05	3270.61
296.26	3440.59
296.48	3157.97
296.69	3471.31
296.90	3438.54
297.12	3213.26
297.33	3254.22
297.55	3454.92
297.76	3512.27
297.98	3203.02
298.19	3299.28
298.41	3530.70
298.62	3274.70
298.83	3299.28
299.05	3205.07
299.26	3381.20
299.48	3348.43
299.69	3172.30
299.90	3069.91
300.12	3280.85
300.33	3659.72
300.55	3110.86
300.76	3200.98
300.98	3299.28
301.19	3561.42
301.40	3082.19
301.62	3045.33
301.83	3614.66
302.05	3465.16
302.26	3074.00
302.47	3157.97
302.69	3168.21
302.90	3497.93
303.12	2922.45
303.33	3270.61
303.54	3893.19
303.76	3401.68
303.97	2990.03
304.19	3354.57
304.40	3225.55
304.61	3452.88
304.83	3211.22
305.04	3123.15
305.26	3629.00
305.47	3282.89
305.68	3098.58
305.90	2959.31
306.11	3696.58
306.33	3463.12
306.54	2920.40
306.75	3092.43
306.97	3211.22
307.18	3215.31
307.39	3049.43
307.61	3229.65
307.82	3440.59
308.04	3495.88
308.25	2967.51
308.46	3243.98
308.68	3407.82
308.89	3495.88
309.10	3231.69
309.32	3168.21
309.53	3377.10
309.74	3559.37
309.96	3086.29
310.17	3229.65
310.39	3332.05
310.60	3547.08
310.81	3104.72
311.03	3047.38
311.24	3661.77
311.45	3514.31
311.67	3364.81
311.88	3184.59
312.09	3346.38
312.31	3375.05
312.52	2992.08
312.73	3000.27
312.95	3112.91
313.16	3229.65
313.37	3338.19
313.59	3233.74
313.80	3565.51
314.01	3807.17
314.23	3108.82
314.44	3033.04
314.65	3209.17
314.87	3297.23
315.08	3041.23
315.29	3104.72
315.51	3221.45
315.72	3117.01
315.93	3143.63
316.15	3129.30
316.36	3397.58
316.57	3483.59
316.79	3061.71
317.00	2965.46
317.21	3555.27
317.43	3278.80
317.64	3205.07
317.85	3033.04
318.07	3282.89
318.28	3416.01
318.49	3143.63
318.70	3297.23
318.92	3493.83
319.13	3422.16
319.34	3262.41
319.56	3098.58
319.77	3487.69
319.98	3590.09
320.20	3428.30
320.41	3278.80
320.62	3585.99
320.83	3198.93
321.05	3286.99
321.26	3129.30
321.47	3573.71
321.69	3712.97
321.90	2932.69
322.11	3133.39
322.32	3420.11
322.54	3696.58
322.75	3106.77
322.96	4288.45
323.18	3164.11
323.39	2944.98
323.60	2969.55
323.81	3184.59
324.03	3258.32
324.24	3358.67
324.45	3260.37
324.66	3057.62
324.88	3524.55
325.09	3811.27
325.30	3039.19
325.52	2990.03
325.73	3590.09
325.94	3313.61
326.15	2992.08
326.37	2938.84
326.58	3704.78
326.79	3852.23
327.00	3067.86
327.22	3057.62
327.43	3344.33
327.64	3301.33
327.85	3258.32
328.07	3211.22
328.28	3950.53
328.49	3319.76
328.70	3039.19
328.92	3080.14
329.13	3436.49
329.34	3549.13
329.55	3332.05
329.76	3213.26
329.98	3409.87
330.19	3684.30
330.40	3164.11
330.61	3209.17
330.83	3604.42
331.04	3358.67
331.25	3209.17
331.46	3174.35
331.68	3194.83
331.89	3672.01
332.10	3178.45
332.31	2934.74
332.52	3456.97
332.74	3704.78
332.95	2942.93
333.16	3051.47
333.37	3583.95
333.58	3246.03
333.80	3059.67
334.01	2936.79
334.22	3479.50
334.43	3348.43
334.64	3059.67
334.86	3002.32
335.07	3286.99
335.28	3723.21
335.49	2971.60
335.70	3178.45
335.92	3743.69
336.13	3925.96
336.34	3086.29
336.55	3084.24
336.76	3512.27
336.98	3012.56
337.19	3104.72
337.40	3188.69
337.61	3991.49
337.82	3278.80
338.04	3207.12
338.25	2957.27
338.46	3405.77
338.67	3266.51
338.88	2996.18
339.09	2957.27
339.31	3250.13
339.52	3196.88
339.73	3024.85
339.94	3131.34
340.15	3665.86
340.36	3352.52
340.58	3194.83
340.79	3069.91
341.00	3600.33
341.21	3256.27
341.42	3321.81
341.63	3098.58
341.85	3602.38
342.06	3485.64
342.27	3078.10
342.48	3260.37
342.69	3080.14
342.90	3491.79
343.12	3508.17
343.33	3076.05
343.54	3676.10
343.75	3819.46
343.96	3184.59
344.17	3051.47
344.38	3436.49
344.60	3266.51
344.81	3098.58
345.02	3090.38
345.23	3667.91
345.44	4014.02
345.65	3147.73
345.86	3254.22
346.07	3491.79
346.29	3270.61
346.50	3227.60
346.71	3172.30
346.92	3758.02
347.13	3901.38
347.34	3137.49
347.55	3049.43
347.76	3526.60
347.98	3200.98
348.19	3221.45
348.40	3291.09
348.61	3428.30
348.82	3766.21
349.03	3174.35
349.24	3059.67
349.45	3889.09
349.66	3059.67
349.88	3080.14
350.09	3092.43
350.30	3676.10
350.51	3747.78
350.72	3416.01
350.93	3143.63
351.14	3393.48
351.35	3538.89
351.56	3172.30
351.77	3215.31
351.99	3588.04
352.20	3723.21
352.41	3157.97
352.62	2985.94
352.83	3508.17
353.04	3411.92
353.25	3026.90
353.46	3139.54
353.67	3747.78
353.88	3006.42
354.09	2936.79
354.30	3225.55
354.52	3590.09
354.73	3381.20
354.94	3004.37
355.15	3157.97
355.36	3876.80
355.57	3293.13
355.78	3069.91
355.99	3094.48
356.20	3311.57
356.41	3708.87
356.62	3112.91
356.83	3174.35
357.04	3694.54
357.25	3059.67
357.46	3047.38
357.68	3043.28
357.89	3248.08
358.10	3348.43
358.31	3114.96
358.52	3160.02
358.73	3235.79
358.94	3217.36
359.15	3090.38
359.36	3110.86
359.57	3430.35
359.78	3379.15
359.99	3330.00
360.20	3012.56
360.41	3426.25
360.62	3471.31
360.83	3235.79
361.04	3033.04
361.25	3583.95
361.46	3758.02
361.67	3227.60
361.88	3069.91
362.09	3610.57
362.30	3499.98
362.51	3078.10
362.72	3198.93
362.93	3608.52
363.14	3606.47
363.35	3246.03
363.56	2959.31
363.78	3694.54
363.99	3667.91
364.20	3106.77
364.41	3170.26
364.62	3856.33
364.83	3561.42
365.04	3069.91
365.25	3192.78
365.46	3944.39
365.67	3221.45
365.88	3297.23
366.09	3088.34
366.30	3344.33
366.51	3461.07
366.72	2983.89
366.93	2985.94
367.14	3426.25
367.35	3723.21
367.56	2981.84
367.77	3248.08
367.98	3475.40
368.18	3569.61
368.39	3209.17
368.60	3080.14
368.81	3563.47
369.02	3469.26
369.23	3117.01
369.44	2920.40
369.65	3241.93
369.86	3479.50
370.07	3252.17
370.28	3033.04
370.49	3467.21
370.70	3612.62
370.91	2969.55
371.12	2955.22
371.33	3616.71
371.54	3272.65
371.75	3223.50
371.96	2836.44
372.17	3479.50
372.38	3391.44
372.59	3182.54
372.80	3141.58
373.01	3379.15
373.22	3450.83
373.43	3074.00
373.64	2983.89
373.85	3741.64
374.06	3780.55
374.26	3311.57
374.47	3289.04
374.68	3796.93
374.89	3467.21
375.10	3026.90
375.31	3215.31
375.52	3465.16
375.73	3524.55
375.94	2928.60
376.15	3225.55
376.36	3274.70
376.57	3340.24
376.78	3200.98
376.99	3188.69
377.20	3766.21
377.40	3297.23
377.61	3428.30
377.82	3043.28
378.03	3772.36
378.24	3508.17
378.45	3258.32
378.66	3209.17
378.87	3119.06
379.08	3143.63
379.29	3127.25
379.50	3213.26
379.71	3452.88
379.91	3528.65
380.12	3030.99
380.33	3246.03
380.54	3456.97
380.75	3440.59
380.96	3114.96
381.17	3094.48
381.38	3405.77
381.59	3454.92
381.80	3276.75
382.00	3239.89
382.21	3475.40
382.42	3788.74
382.63	3518.41
382.84	3250.13
383.05	3606.47
383.26	3733.45
383.47	3256.27
383.68	2975.70
383.88	3585.99
384.09	3418.06
384.30	3315.66
384.51	3258.32
384.72	3346.38
384.93	3127.25
385.14	3221.45
385.35	3413.96
385.55	3119.06
385.76	3776.45
385.97	3168.21
386.18	2973.65
386.39	3264.46
386.60	3289.04
386.81	3074.00
387.02	3063.76
387.22	3200.98
387.43	3516.36
387.64	3221.45
387.85	3377.10
388.06	3401.68
388.27	4462.52
388.48	7270.29
388.68	11081.56
388.89	13573.94
389.10	14866.21
389.31	14454.56
389.52	11640.65
389.73	10135.40
389.93	9463.66
390.14	8431.49
390.35	7915.40
390.56	7530.38
390.77	6115.23
390.98	4777.91
391.18	4153.28
391.39	3954.63
391.60	3508.17
391.81	3375.05
392.02	3166.16
392.23	3995.59
392.43	3565.51
392.64	3207.12
392.85	3137.49
393.06	3823.56
393.27	3377.10
393.47	3205.07
393.68	3153.87
393.89	3385.29
394.10	3698.63
394.31	3117.01
394.52	3055.57
394.72	3330.00
394.93	3831.75
395.14	3016.66
395.35	3209.17
395.56	3303.37
395.76	3389.39
395.97	3119.06
396.18	3143.63
396.39	3428.30
396.60	4130.75
396.80	3524.55
397.01	3330.00
397.22	3483.59
397.43	3659.72
397.64	3094.48
397.84	3258.32
398.05	3897.28
398.26	3403.72
398.47	3250.13
398.67	3446.73
398.88	3520.46
399.09	3547.08
399.30	3104.72
399.51	3221.45
399.71	3278.80
399.92	3379.15
400.13	3190.74
400.34	3164.11
400.54	3540.94
400.75	3805.13
400.96	3157.97
401.17	3479.50
401.37	3563.47
401.58	3506.12
401.79	3117.01
402.00	3286.99
402.21	3919.81
402.41	3405.77
402.62	3368.91
402.83	3565.51
403.04	3717.06
403.24	4202.43
403.45	3229.65
403.66	3418.06
403.87	3674.06
404.07	3798.98
404.28	3397.58
404.49	3502.03
404.70	3612.62
404.90	3565.51
405.11	3033.04
405.32	3284.94
405.52	3344.33
405.73	3246.03
405.94	2951.12
406.15	3217.36
406.35	3526.60
406.56	3553.23
406.77	3223.50
406.98	3078.10
407.18	3289.04
407.39	3682.25
407.60	3205.07
407.80	3289.04
408.01	3401.68
408.22	3588.04
408.43	3059.67
408.63	3338.19
408.84	3639.24
409.05	3606.47
409.25	3063.76
409.46	3184.59
409.67	3352.52
409.88	3303.37
410.08	3198.93
410.29	3166.16
410.50	3563.47
410.70	3493.83
410.91	3149.78
411.12	3211.22
411.32	3463.12
411.53	3229.65
411.74	3141.58
411.95	3205.07
412.15	3436.49
412.36	3557.32
412.57	3315.66
412.77	3297.23
412.98	3377.10
413.19	3461.07
413.39	3190.74
413.60	3205.07
413.81	3655.62
414.01	3192.78
414.22	3141.58
414.43	3258.32
414.63	3309.52
414.84	3585.99
415.05	3237.84
415.25	2963.41
415.46	3598.28
415.67	3303.37
415.87	3188.69
416.08	3125.20
416.29	3360.72
416.49	3534.79
416.70	3243.98
416.91	3133.39
417.11	3334.09
417.32	3672.01
417.53	3225.55
417.73	3305.42
417.94	3430.35
418.15	3483.59
418.35	3200.98
418.56	3254.22
418.77	3962.82
418.97	3461.07
419.18	3286.99
419.38	2869.20
419.59	3540.94
419.80	3786.69
420.00	3049.43
420.21	3207.12
420.42	3696.58
420.62	3540.94
420.83	3166.16
421.04	3176.40
421.24	3393.48
421.45	3588.04
421.65	3131.34
421.86	3219.41
422.07	3706.82
422.27	3559.37
422.48	3088.34
422.69	2938.84
422.89	3491.79
423.10	3405.77
423.30	3112.91
423.51	3215.31
423.72	3553.23
423.92	3538.89
424.13	3018.71
424.33	3241.93
424.54	3680.20
424.75	3483.59
424.95	3407.82
425.16	3110.86
425.36	3454.92
425.57	3753.93
425.78	3268.56
425.98	3239.89
426.19	3420.11
426.39	3282.89
426.60	3227.60
426.81	3344.33
427.01	3514.31
427.22	3311.57
427.42	3035.09
427.63	3033.04
427.83	3770.31
428.04	3798.98
428.25	3200.98
428.45	3194.83
428.66	3737.54
428.86	3393.48
429.07	3237.84
429.28	3147.73
429.48	3450.83
429.69	3297.23
429.89	3321.81
430.10	3092.43
430.30	3676.10
430.51	3690.44
430.71	3123.15
430.92	3157.97
431.13	3346.38
431.33	3622.86
431.54	3260.37
431.74	3352.52
431.95	3887.04
432.15	3246.03
432.36	3145.68
432.56	3205.07
432.77	3844.04
432.98	3860.42
433.18	3299.28
433.39	3000.27
433.59	3401.68
433.80	3880.90
434.00	3215.31
434.21	3256.27
434.41	3246.03
434.62	3909.57
434.82	3018.71
435.03	3061.71
435.23	3540.94
435.44	3125.20
435.64	3086.29
435.85	3254.22
436.06	3702.73
436.26	3624.90
436.47	3192.78
436.67	3131.34
436.88	3381.20
437.08	3760.07
437.29	3231.69
437.49	3373.00
437.70	3803.08
437.90	3448.78
438.11	3411.92
438.31	3332.05
438.52	3743.69
438.72	3534.79
438.93	3545.03
439.13	3270.61
439.34	3536.84
439.54	3368.91
439.75	3264.46
439.95	3209.17
440.16	3332.05
440.36	3444.68
440.57	3223.50
440.77	3096.53
440.98	3461.07
441.18	3575.75
441.39	3094.48
441.59	2994.13
441.80	3938.24
442.00	3459.02
442.21	3246.03
442.41	3090.38
442.62	3653.58
442.82	3321.81
443.02	3164.11
443.23	3141.58
443.43	3438.54
443.64	3663.82
443.84	2928.60
444.05	3295.18
444.25	3430.35
444.46	3295.18
444.66	3170.26
444.87	3405.77
445.07	3137.49
445.28	3340.24
445.48	3315.66
445.69	3215.31
445.89	3936.20
446.09	3368.91
446.30	3428.30
446.50	3522.51
446.71	5099.44
446.91	6246.30
447.12	6868.89
447.32	7270.29
447.53	7276.43
447.73	6111.14
447.93	5175.22
448.14	5261.23
448.34	5380.01
448.55	4485.05
448.75	4396.99
448.96	4044.74
449.16	4210.62
449.36	4067.27
449.57	3428.30
449.77	3221.45
449.98	3352.52
450.18	3504.07
450.39	3090.38
450.59	3385.29
450.79	3446.73
451.00	3237.84
451.20	3354.57
451.41	3149.78
451.61	3549.13
451.81	3401.68
452.02	3006.42
452.22	3176.40
452.43	3342.28
452.63	3246.03
452.84	3221.45
453.04	3098.58
453.24	3426.25
453.45	3270.61
453.65	3198.93
453.86	3178.45
454.06	3401.68
454.26	3446.73
454.47	3080.14
454.67	3346.38
454.87	3442.64
455.08	3370.96
455.28	3346.38
455.49	3346.38
455.69	3338.19
455.89	3901.38
456.10	3301.33
456.30	3184.59
456.51	3559.37
456.71	3432.40
456.91	3373.00
457.12	3149.78
457.32	3538.89
457.52	3231.69
457.73	3389.39
457.93	3330.00
458.14	3305.42
458.34	3037.14
458.54	3280.85
458.75	3131.34
458.95	3626.95
459.15	3493.83
459.36	3254.22
459.56	3203.02
459.76	3948.48
459.97	3545.03
460.17	3266.51
460.37	3237.84
460.58	3438.54
460.78	3620.81
460.99	3157.97
461.19	3172.30
461.39	3289.04
461.60	3454.92
461.80	3125.20
462.00	3045.33
462.21	3405.77
462.41	3248.08
462.61	3119.06
462.82	2963.41
463.02	3631.05
463.22	3450.83
463.43	3270.61
463.63	3059.67
463.83	3798.98
464.04	3483.59
464.24	3114.96
464.44	3086.29
464.64	3452.88
464.85	3545.03
465.05	3280.85
465.25	3078.10
465.46	3358.67
465.66	3565.51
465.86	3303.37
466.07	3172.30
466.27	3426.25
466.47	3088.34
466.68	2953.17
466.88	3321.81
467.08	3590.09
467.29	3585.99
467.49	3149.78
467.69	3274.70
467.89	3635.14
468.10	3413.96
468.30	3207.12
468.50	3215.31
468.71	3629.00
468.91	3039.19
469.11	3332.05
469.31	3246.03
469.52	3379.15
469.72	3844.04
469.92	3442.64
470.13	3192.78
470.33	3442.64
470.53	3418.06
470.73	3504.07
470.94	3827.65
471.14	3977.16
471.34	4556.73
471.54	4171.71
471.75	3930.05
471.95	3676.10
472.15	3753.93
472.36	3712.97
472.56	3612.62
472.76	3952.58
472.96	3774.41
473.17	3426.25
473.37	3278.80
473.57	3368.91
473.77	3542.99
473.98	3313.61
474.18	3057.62
474.38	4175.81
474.58	3368.91
474.79	3088.34
474.99	3270.61
475.19	3758.02
475.39	3282.89
475.60	3108.82
475.80	3133.39
476.00	3534.79
476.20	3375.05
476.41	3278.80
476.61	3172.30
476.81	3753.93
477.01	3272.65
477.21	3483.59
477.42	3299.28
477.62	3272.65
477.82	3633.10
478.02	3180.50
478.23	3090.38
478.43	3248.08
478.63	3346.38
478.83	3203.02
479.03	3221.45
479.24	3751.88
479.44	3889.09
479.64	3151.82
479.84	2985.94
480.04	3200.98
480.25	3655.62
480.45	3143.63
480.65	3090.38
480.85	3782.60
481.06	3338.19
481.26	3313.61
481.46	3139.54
481.66	3600.33
481.86	3258.32
482.06	3434.44
482.27	3205.07
482.47	3368.91
482.67	3510.22
482.87	3196.88
483.07	3241.93
483.28	3350.48
483.48	3188.69
483.68	3248.08
483.88	2977.75
484.08	3022.80
484.29	3178.45
484.49	3217.36
484.69	3004.37
484.89	3786.69
485.09	3661.77
485.29	3041.23
485.50	3342.28
485.70	3358.67
485.90	3698.63
486.10	3289.04
486.30	3174.35
486.50	3674.06
486.71	3557.32
486.91	3211.22
487.11	3246.03
487.31	3168.21
487.51	3614.66
487.71	3166.16
487.91	3090.38
488.12	3266.51
488.32	2883.54
488.52	3166.16
488.72	2887.64
488.92	3481.55
489.12	3729.35
489.32	3291.09
489.53	3094.48
489.73	3170.26
489.93	3749.83
490.13	3108.82
490.33	3065.81
490.53	3528.65
490.73	3702.73
490.94	3012.56
491.14	3344.33
491.34	3557.32
491.54	3534.79
491.74	3950.53
491.94	4403.13
492.14	5033.91
492.34	5085.11
492.54	4675.51
492.75	4089.79
492.95	4483.00
493.15	4032.45
493.35	3774.41
493.55	3696.58
493.75	3835.85
493.95	4077.51
494.15	3446.73
494.35	3356.62
494.56	3313.61
494.76	3303.37
494.96	3344.33
495.16	3055.57
495.36	3444.68
495.56	3438.54
495.76	3297.23
495.96	3151.82
496.16	3272.65
496.36	3868.61
496.56	3117.01
496.77	3229.65
496.97	3401.68
497.17	3762.12
497.37	2942.93
497.57	3346.38
497.77	3516.36
497.97	3274.70
498.17	3239.89
498.37	3121.10
498.57	3633.10
498.77	3289.04
498.97	3336.14
499.17	3413.96
499.38	3348.43
499.58	3512.27
499.78	3340.24
499.98	3336.14
500.18	3405.77
500.38	3299.28
500.58	3346.38
500.78	3743.69
500.98	6162.34
501.18	7839.62
501.38	8961.91
501.58	10106.73
501.78	10053.48
501.98	8419.20
502.18	6985.62
502.38	6215.59
502.58	6154.15
502.78	5527.47
502.98	5119.92
503.18	4974.52
503.38	4782.01
503.59	4134.85
503.79	3954.63
503.99	3809.22
504.19	3876.80
504.39	4018.11
504.59	3745.73
504.79	3473.36
504.99	4042.69
505.19	3602.38
505.39	3289.04
505.59	3528.65
505.79	3938.24
505.99	3633.10
506.19	3223.50
506.39	3418.06
506.59	3385.29
506.79	3334.09
506.99	3463.12
507.19	3121.10
507.39	3481.55
507.59	3147.73
507.79	3168.21
507.99	3168.21
508.19	3389.39
508.39	3368.91
508.59	3123.15
508.79	3264.46
508.99	3925.96
509.19	3227.60
509.39	3262.41
509.59	3043.28
509.79	3313.61
509.99	3502.03
510.19	3368.91
510.39	3229.65
510.59	3534.79
510.79	3416.01
510.99	3037.14
511.19	3035.09
511.39	3811.27
511.59	3698.63
511.79	3362.76
511.99	3164.11
512.19	3729.35
512.38	3512.27
512.58	3117.01
512.78	3024.85
512.98	3753.93
513.18	3753.93
513.38	3106.77
513.58	3221.45
513.78	3405.77
513.98	3344.33
514.18	3096.53
514.38	3135.44
514.58	3520.46
514.78	3299.28
514.98	2967.51
515.18	3139.54
515.38	3211.22
515.58	3856.33
515.78	3219.41
515.98	3180.50
516.18	3549.13
516.38	3395.53
516.57	3172.30
516.77	3157.97
516.97	3614.66
517.17	3334.09
517.37	2979.79
517.57	3209.17
517.77	3395.53
517.97	3233.74
518.17	3252.17
518.37	3037.14
518.57	3340.24
518.77	3348.43
518.97	3274.70
519.16	3192.78
519.36	3758.02
519.56	3260.37
519.76	3069.91
519.96	3217.36
520.16	3737.54
520.36	3270.61
520.56	3354.57
520.76	3100.62
520.96	3342.28
521.16	3598.28
521.35	3334.09
521.55	3336.14
521.75	3524.55
521.95	3327.95
522.15	3049.43
522.35	3082.19
522.55	3358.67
522.75	3655.62
522.95	3067.86
523.14	2953.17
523.34	3340.24
523.54	3301.33
523.74	3264.46
523.94	3248.08
524.14	3078.10
524.34	3620.81
524.54	3477.45
524.73	3133.39
524.93	3512.27
525.13	3549.13
525.33	3074.00
525.53	3436.49
525.73	3696.58
525.93	3403.72
526.13	3196.88
526.32	3018.71
526.52	3749.83
526.72	3573.71
526.92	3194.83
527.12	3043.28
527.32	3135.44
527.52	3477.45
527.71	3180.50
527.91	3164.11
528.11	3297.23
528.31	3575.75
528.51	3119.06
528.71	3325.90
528.90	3557.32
529.10	3594.19
529.30	3164.11
529.50	2936.79
529.70	3538.89
529.90	3301.33
530.09	3125.20
530.29	2987.99
530.49	3209.17
530.69	4018.11
530.89	3338.19
531.09	3258.32
531.28	3342.28
531.48	3712.97
531.68	3157.97
531.88	3180.50
532.08	3583.95
532.28	3327.95
532.47	3231.69
532.67	3200.98
532.87	3475.40
533.07	3139.54
533.27	3125.20
533.46	3235.79
533.66	3516.36
533.86	3379.15
534.06	3157.97
534.26	3074.00
534.45	3387.34
534.65	3571.66
534.85	3229.65
535.05	3121.10
535.25	3624.90
535.44	3135.44
535.64	3270.61
535.84	3190.74
536.04	3256.27
536.24	3411.92
536.43	3184.59
536.63	3043.28
536.83	3411.92
537.03	3499.98
537.22	2971.60
537.42	3039.19
537.62	3573.71
537.82	3293.13
538.02	3379.15
538.21	3270.61
538.41	4061.12
538.61	3467.21
538.81	3203.02
539.00	3291.09
539.20	3112.91
539.40	3436.49
539.60	3059.67
539.79	3428.30
539.99	3387.34
540.19	3307.47
540.39	3102.67
540.58	3264.46
540.78	3641.29
540.98	3461.07
541.18	3438.54
541.37	3309.52
541.57	3383.24
541.77	3473.36
541.97	3106.77
542.16	3002.32
542.36	3307.47
542.56	3706.82
542.76	3303.37
542.95	3266.51
543.15	3528.65
543.35	3649.48
543.54	3106.77
543.74	3024.85
543.94	3829.70
544.14	3256.27
544.33	3295.18
544.53	3184.59
544.73	3413.96
544.93	3364.81
545.12	3139.54
545.32	3194.83
545.52	3459.02
545.71	3141.58
545.91	3145.68
546.11	3076.05
546.30	3184.59
546.50	3391.44
546.70	3252.17
546.90	3147.73
547.09	3030.99
547.29	3463.12
547.49	3272.65
547.68	3110.86
547.88	3256.27
548.08	3565.51
548.27	3401.68
548.47	3168.21
548.67	3323.85
548.87	3432.40
549.06	3092.43
549.26	3096.53
549.46	3524.55
549.65	3360.72
549.85	3246.03
550.05	3141.58
550.24	3258.32
550.44	3420.11
550.64	3233.74
550.83	3272.65
551.03	3868.61
551.23	3747.78
551.42	3223.50
551.62	3321.81
551.82	3444.68
552.01	3373.00
552.21	3485.64
552.41	3203.02
552.60	3727.30
552.80	3434.44
553.00	3069.91
553.19	3182.54
553.39	3712.97
553.59	3092.43
553.78	3325.90
553.98	3102.67
554.17	3215.31
554.37	3555.27
554.57	3325.90
554.76	3030.99
554.96	3250.13
555.16	3405.77
555.35	3229.65
555.55	3393.48
555.75	3456.97
555.94	3499.98
556.14	3012.56
556.33	3205.07
556.53	3465.16
556.73	3401.68
556.92	3164.11
557.12	3049.43
557.32	3833.80
557.51	3758.02
557.71	3231.69
557.90	3389.39
558.10	3729.35
558.30	3362.76
558.49	3235.79
558.69	3164.11
558.88	3540.94
559.08	3506.12
559.28	3168.21
559.47	3188.69
559.67	3639.24
559.86	3909.57
560.06	3135.44
560.26	3231.69
560.45	3504.07
560.65	3311.57
560.84	3401.68
561.04	3000.27
561.24	3590.09
561.43	3217.36
561.63	3440.59
561.82	3362.76
562.02	3557.32
562.22	3301.33
562.41	3139.54
562.61	3043.28
562.80	3192.78
563.00	4028.35
563.19	3243.98
563.39	3350.48
563.59	3581.90
563.78	3231.69
563.98	2963.41
564.17	3106.77
564.37	3119.06
564.56	3438.54
564.76	3020.75
564.96	3237.84
565.15	3467.21
565.35	3960.77
565.54	3256.27
565.74	3178.45
565.93	3590.09
566.13	3483.59
566.32	3229.65
566.52	3286.99
566.71	3409.87
566.91	3723.21
567.11	3254.22
567.30	3098.58
567.50	3538.89
567.69	3577.80
567.89	3139.54
568.08	3051.47
568.28	3459.02
568.47	3215.31
568.67	3172.30
568.86	3147.73
569.06	3530.70
569.25	3278.80
569.45	3004.37
569.64	3168.21
569.84	3317.71
570.04	3401.68
570.23	3221.45
570.43	3219.41
570.62	3526.60
570.82	3778.50
571.01	3049.43
571.21	3196.88
571.40	3268.56
571.60	3633.10
571.79	3205.07
571.99	3141.58
572.18	3188.69
572.38	3526.60
572.57	3254.22
572.77	3250.13
572.96	3985.35
573.16	3557.32
573.35	3190.74
573.55	3399.63
573.74	3483.59
573.94	3387.34
574.13	3164.11
574.33	3354.57
574.52	3665.86
574.71	3393.48
574.91	3174.35
575.10	3114.96
575.30	3393.48
575.49	3229.65
575.69	3102.67
575.88	3168.21
576.08	3315.66
576.27	3647.43
576.47	3139.54
576.66	3274.70
576.86	3708.87
577.05	3477.45
577.25	3221.45
577.44	3366.86
577.64	3327.95
577.83	3602.38
578.02	3114.96
578.22	3325.90
578.41	3807.17
578.61	3424.20
578.80	3080.14
579.00	3272.65
579.19	3473.36
579.39	3512.27
579.58	3221.45
579.77	3239.89
579.97	3698.63
580.16	3680.20
580.36	3344.33
580.55	3266.51
580.75	3516.36
580.94	3475.40
581.13	3370.96
581.33	3416.01
581.52	3377.10
581.72	3852.23
581.91	3260.37
582.11	3114.96
582.30	3641.29
582.49	3477.45
582.69	3446.73
582.88	3145.68
583.08	3545.03
583.27	3626.95
583.47	3397.58
583.66	3088.34
583.85	3248.08
584.05	3307.47
584.24	3338.19
584.44	3141.58
584.63	3641.29
584.82	3704.78
585.02	3426.25
585.21	3344.33
585.41	3573.71
585.60	3438.54
585.79	3358.67
585.99	3502.03
586.18	3508.17
586.37	4440.00
586.57	6522.78
586.76	18505.45
586.96	36797.90
587.15	49929.48
587.34	57429.14
587.54	61150.30
587.73	53544.14
587.93	38706.61
588.12	29994.55
588.31	24518.28
588.51	21847.73
588.70	20301.51
588.89	17762.03
589.09	15425.30
589.28	13309.75
589.47	10368.87
589.67	7694.22
589.86	6217.63
590.06	4900.79
590.25	4532.15
590.44	3946.44
590.64	3618.76
590.83	3698.63
591.02	3645.38
591.22	3246.03
591.41	3250.13
591.60	3321.81
591.80	3983.30
591.99	3051.47
592.18	3229.65
592.38	3610.57
592.57	3286.99
592.76	3137.49
592.96	3231.69
593.15	3383.24
593.34	3721.16
593.54	3176.40
593.73	3270.61
593.92	3557.32
594.12	3524.55
594.31	3213.26
594.50	3393.48
594.70	3606.47
594.89	4048.83
595.08	3094.48
595.28	3272.65
595.47	4112.32
595.66	3659.72
595.86	3153.87
596.05	3090.38
596.24	3346.38
596.43	3850.18
596.63	3225.55
596.82	3354.57
597.01	3442.64
597.21	3846.09
597.40	3180.50
597.59	3276.75
597.79	3413.96
597.98	3618.76
598.17	3239.89
598.36	3229.65
598.56	3696.58
598.75	3311.57
598.94	3231.69
599.14	3313.61
599.33	3354.57
599.52	3637.19
599.71	3246.03
599.91	3135.44
600.10	3559.37
600.29	3477.45
600.48	3278.80
600.68	3317.71
600.87	3454.92
601.06	3276.75
601.26	3305.42
601.45	3377.10
601.64	3368.91
601.83	3788.74
602.03	3139.54
602.22	3190.74
602.41	3663.82
602.60	4022.21
602.80	3383.24
602.99	3364.81
603.18	3280.85
603.37	3456.97
603.57	3108.82
603.76	3180.50
603.95	3717.06
604.14	3348.43
604.34	3063.76
604.53	3151.82
604.72	3471.31
604.91	3674.06
605.10	3192.78
605.30	3059.67
605.49	3971.01
605.68	3516.36
605.87	3143.63
606.07	3143.63
606.26	3373.00
606.45	3598.28
606.64	3139.54
606.84	3108.82
607.03	3364.81
607.22	3579.85
607.41	3203.02
607.60	3164.11
607.80	3665.86
607.99	3381.20
608.18	3170.26
608.37	3235.79
608.56	3315.66
608.76	3598.28
608.95	3280.85
609.14	3123.15
609.33	3614.66
609.52	3739.59
609.72	3209.17
609.91	3246.03
610.10	3475.40
610.29	3696.58
610.48	3260.37
610.68	3321.81
610.87	3397.58
611.06	3606.47
611.25	3117.01
611.44	3336.14
611.63	3360.72
611.83	3692.49
612.02	3076.05
612.21	3246.03
612.40	3076.05
612.59	3207.12
612.79	3139.54
612.98	3291.09
613.17	3696.58
613.36	3489.74
613.55	3276.75
613.74	3133.39
613.93	3473.36
614.13	3499.98
614.32	3309.52
614.51	3213.26
614.70	3336.14
614.89	3346.38
615.08	3258.32
615.28	3534.79
615.47	3266.51
615.66	3495.88
615.85	3205.07
616.04	3235.79
616.23	3393.48
616.42	3463.12
616.62	3155.92
616.81	3297.23
617.00	3463.12
617.19	3538.89
617.38	3293.13
617.57	3252.17
617.76	3549.13
617.95	3579.85
618.15	3291.09
618.34	3436.49
618.53	3147.73
618.72	3764.17
618.91	3270.61
619.10	3231.69
619.29	3270.61
619.48	3430.35
619.68	3125.20
619.87	3125.20
620.06	3123.15
620.25	3598.28
620.44	3205.07
620.63	3155.92
620.82	3520.46
621.01	3506.12
621.20	3172.30
621.39	3291.09
621.59	3428.30
621.78	3477.45
621.97	3229.65
622.16	3338.19
622.35	3557.32
622.54	3600.33
622.73	3315.66
622.92	2965.46
623.11	3614.66
623.30	3387.34
623.49	3362.76
623.68	3008.47
623.88	3751.88
624.07	3325.90
624.26	3149.78
624.45	3119.06
624.64	3420.11
624.83	3549.13
625.02	3186.64
625.21	3143.63
625.40	3524.55
625.59	3663.82
625.78	3241.93
625.97	3248.08
626.16	3788.74
626.35	3553.23
626.54	3198.93
626.74	3395.53
626.93	3297.23
627.12	3389.39
627.31	3233.74
627.50	3207.12
627.69	3618.76
627.88	3225.55
628.07	3131.34
628.26	3067.86
628.45	3297.23
628.64	3205.07
628.83	3209.17
629.02	2990.03
629.21	3604.42
629.40	3553.23
629.59	3043.28
629.78	3246.03
629.97	3463.12
630.16	3409.87
630.35	3129.30
630.54	3268.56
630.73	3360.72
630.92	3391.44
631.11	3127.25
631.30	3231.69
631.49	3604.42
631.68	3413.96
631.87	3237.84
632.06	3082.19
632.25	3897.28
632.44	3401.68
632.63	3270.61
632.82	3231.69
633.01	3282.89
633.20	3491.79
633.39	3129.30
633.58	2936.79
633.77	3534.79
633.96	3557.32
634.15	3350.48
634.34	3229.65
634.53	3592.14
634.72	3313.61
634.91	2992.08
635.10	3207.12
635.29	3672.01
635.48	3526.60
635.67	3088.34
635.86	3012.56
636.05	3774.41
636.24	3401.68
636.43	3110.86
636.62	3172.30
636.81	2926.55
637.00	3467.21
637.19	3174.35
637.38	3119.06
637.57	3393.48
637.76	3477.45
637.95	3303.37
638.14	3315.66
638.33	3461.07
638.52	3495.88
638.71	3028.95
638.89	3135.44
639.08	4069.31
639.27	3661.77
639.46	3444.68
639.65	3702.73
639.84	3815.37
640.03	4081.60
640.22	3506.12
640.41	3542.99
640.60	3434.44
640.79	3590.09
640.98	3420.11
641.17	3436.49
641.36	3614.66
641.55	3647.43
641.74	3098.58
641.92	3153.87
642.11	3198.93
642.30	3362.76
642.49	3096.53
642.68	3106.77
642.87	3606.47
643.06	3608.52
643.25	3016.66
643.44	3061.71
643.63	3317.71
643.82	3532.75
644.00	3016.66
644.19	3215.31
644.38	3112.91
644.57	3598.28
644.76	3221.45
644.95	3262.41
645.14	3477.45
645.33	3416.01
645.52	3264.46
645.71	3049.43
645.89	3207.12
646.08	3467.21
646.27	3227.60
646.46	3303.37
646.65	3155.92
646.84	3436.49
647.03	3067.86
647.22	3299.28
647.40	3506.12
647.59	3432.40
647.78	2994.13
647.97	3209.17
648.16	3268.56
648.35	3649.48
648.54	3516.36
648.73	3203.02
648.91	3598.28
649.10	3444.68
649.29	3076.05
649.48	3102.67
649.67	3579.85
649.86	3393.48
650.05	3227.60
650.23	3270.61
650.42	3272.65
650.61	3694.54
650.80	3446.73
650.99	3411.92
651.18	3655.62
651.36	3567.56
651.55	3078.10
651.74	3286.99
651.93	3309.52
652.12	3387.34
652.31	3313.61
652.49	3219.41
652.68	3315.66
652.87	3725.26
653.06	3268.56
653.25	3545.03
653.44	3452.88
653.62	3841.99
653.81	3139.54
654.00	3172.30
654.19	3565.51
654.38	4097.99
654.56	3209.17
654.75	3063.76
654.94	3590.09
655.13	3434.44
655.32	3137.49
655.51	3289.04
655.69	3344.33
655.88	3624.90
656.07	3049.43
656.26	3194.83
656.45	3227.60
656.63	3461.07
656.82	3110.86
657.01	3555.27
657.20	3258.32
657.38	3631.05
657.57	3213.26
657.76	3014.61
657.95	3610.57
658.14	3348.43
658.32	3383.24
658.51	3028.95
658.70	3491.79
658.89	3516.36
659.08	3200.98
659.26	3442.64
659.45	3239.89
659.64	3534.79
659.83	3155.92
660.01	3516.36
660.20	3518.41
660.39	3727.30
660.58	2881.49
660.76	3260.37
660.95	3157.97
661.14	3456.97
661.33	3028.95
661.51	3174.35
661.70	3395.53
661.89	3518.41
662.08	3305.42
662.26	2994.13
662.45	3178.45
662.64	3829.70
662.83	3235.79
663.01	3092.43
663.20	3358.67
663.39	3805.13
663.58	3174.35
663.76	3139.54
663.95	3635.14
664.14	3207.12
664.32	3305.42
664.51	3061.71
664.70	3008.47
664.89	3569.61
665.07	2996.18
665.26	3348.43
665.45	3131.34
665.64	3559.37
665.82	3141.58
666.01	3258.32
666.20	3215.31
666.38	3715.02
666.57	3583.95
666.76	5728.17
666.95	12556.10
667.13	18802.40
667.32	22257.32
667.51	24995.46
667.69	25560.70
667.88	20889.28
668.07	15484.69
668.25	13377.33
668.44	11568.98
668.63	10200.93
668.81	8992.63
669.00	7722.89
669.19	7090.07
669.38	6277.02
669.56	5328.81
669.75	4812.73
669.94	4276.16
670.12	3864.52
670.31	3334.09
670.50	3475.40
670.68	3573.71
670.87	3499.98
671.06	3149.78
671.24	3188.69
671.43	3850.18
671.62	3456.97
671.80	3213.26
671.99	3303.37
672.18	3389.39
672.36	3641.29
672.55	3268.56
672.74	3278.80
672.92	3313.61
673.11	3581.90
673.29	3039.19
673.48	3368.91
673.67	3368.91
673.85	3641.29
674.04	3074.00
674.23	3192.78
674.41	3897.28
674.60	3207.12
674.79	3039.19
674.97	3106.77
675.16	3594.19
675.34	3641.29
675.53	3188.69
675.72	3225.55
675.90	3905.48
676.09	3377.10
676.28	3340.24
676.46	3018.71
676.65	3577.80
676.83	3235.79
677.02	3297.23
677.21	3309.52
677.39	3483.59
677.58	3276.75
677.77	3184.59
677.95	3098.58
678.14	3381.20
678.32	3422.16
678.51	3205.07
678.70	3577.80
678.88	3338.19
679.07	3471.31
679.25	3184.59
679.44	3221.45
679.63	3186.64
679.81	3426.25
680.00	3467.21
680.18	3258.32
680.37	3825.61
680.55	3518.41
680.74	3016.66
680.93	2910.16
681.11	3549.13
681.30	3454.92
681.48	3233.74
681.67	3239.89
681.85	3471.31
682.04	3311.57
682.23	3377.10
682.41	3295.18
682.60	3426.25
682.78	3471.31
682.97	3082.19
683.15	3268.56
683.34	3573.71
683.53	3772.36
683.71	3076.05
683.90	3256.27
684.08	3831.75
684.27	3387.34
684.45	3270.61
684.64	3286.99
684.82	3456.97
685.01	3592.14
685.19	3157.97
685.38	3510.22
685.57	3418.06
685.75	3297.23
685.94	3090.38
686.12	3131.34
686.31	3360.72
686.49	3811.27
686.68	3037.14
686.86	3203.02
687.05	3366.86
687.23	3749.83
687.42	3289.04
687.60	3020.75
687.79	3741.64
687.97	3755.97
688.16	3323.85
688.34	3364.81
688.53	3045.33
688.71	3633.10
688.90	3514.31
689.08	3282.89
689.27	2959.31
689.45	3631.05
689.64	3352.52
689.82	3233.74
690.01	3514.31
690.19	3567.56
690.38	3207.12
690.56	3284.94
690.75	3160.02
690.93	3280.85
691.12	3143.63
691.30	3194.83
691.49	3313.61
691.67	3442.64
691.86	3467.21
692.04	3246.03
692.23	3368.91
692.41	3352.52
692.60	3538.89
692.78	3473.36
692.97	3395.53
693.15	3624.90
693.34	3473.36
693.52	3424.20
693.71	3276.75
693.89	3274.70
694.08	3061.71
694.26	3248.08
694.44	3635.14
694.63	3585.99
694.81	3141.58
695.00	3149.78
695.18	3672.01
695.37	3964.87
695.55	3266.51
695.74	3307.47
695.92	3237.84
696.10	3704.78
696.29	3100.62
696.47	3198.93
696.66	3190.74
696.84	3198.93
697.03	3289.04
697.21	3448.78
697.40	4736.95
697.58	3747.78
697.76	3121.10
697.95	3157.97
698.13	3241.93
698.32	3344.33
698.50	3147.73
698.68	3182.54
698.87	3526.60
699.05	3821.51
699.24	3184.59
699.42	3188.69
699.61	3532.75
699.79	3459.02
699.97	3194.83
700.16	3139.54
700.34	3207.12
700.53	3532.75
700.71	3463.12
700.89	3268.56
701.08	3379.15
701.26	3368.91
701.45	3549.13
701.63	3252.17
701.81	3237.84
702.00	3311.57
702.18	3272.65
702.37	3137.49
702.55	3698.63
702.73	3452.88
702.92	3069.91
703.10	3575.75
703.28	3553.23
703.47	3209.17
703.65	3362.76
703.84	3346.38
704.02	3286.99
704.20	3825.61
704.39	3114.96
704.57	3157.97
704.75	3585.99
704.94	3499.98
705.12	3270.61
705.30	4032.45
705.49	8126.34
705.67	14679.84
705.86	19207.90
706.04	21679.80
706.22	23680.66
706.41	22451.88
706.59	16615.17
706.77	13606.70
706.96	11673.42
707.14	11171.67
707.32	9275.25
707.51	8017.80
707.69	6956.95
707.87	5830.57
708.06	4884.41
708.24	4304.83
708.42	4155.33
708.61	4218.82
708.79	3344.33
708.97	3346.38
709.16	3596.23
709.34	3401.68
709.52	3157.97
709.71	3262.41
709.89	3516.36
710.07	3248.08
710.26	3119.06
710.44	3198.93
710.62	3571.66
710.80	3411.92
710.99	3330.00
711.17	3327.95
711.35	3282.89
711.54	3248.08
711.72	3381.20
711.90	3211.22
712.09	3545.03
712.27	3383.24
712.45	3307.47
712.63	3182.54
712.82	3463.12
713.00	3442.64
713.18	3239.89
713.37	3452.88
713.55	3622.86
713.73	3579.85
713.91	3352.52
714.10	3258.32
714.28	3413.96
714.46	3491.79
714.65	3360.72
714.83	3246.03
715.01	3391.44
715.19	3434.44
715.38	3184.59
715.56	3389.39
715.74	3377.10
715.92	3250.13
716.11	3536.84
716.29	2947.03
716.47	3424.20
716.65	3418.06
716.84	3067.86
717.02	3295.18
717.20	3080.14
717.38	3153.87
717.57	3299.28
717.75	3221.45
717.93	3291.09
718.11	3485.64
718.30	3110.86
718.48	3276.75
718.66	3684.30
718.84	3581.90
719.03	3221.45
719.21	3090.38
719.39	3837.89
719.57	3596.23
719.75	3200.98
719.94	3139.54
720.12	3430.35
720.30	3536.84
720.48	3282.89
720.67	3194.83
720.85	3133.39
721.03	3391.44
721.21	3192.78
721.39	3229.65
721.58	3588.04
721.76	3446.73
721.94	3196.88
722.12	3258.32
722.30	3803.08
722.49	3272.65
722.67	3168.21
722.85	3235.79
723.03	3155.92
723.21	3327.95
723.40	3266.51
723.58	3325.90
723.76	3561.42
723.94	3651.53
724.12	3125.20
724.30	3450.83
724.49	3583.95
724.67	3276.75
724.85	3286.99
725.03	3057.62
725.21	3590.09
725.40	3622.86
725.58	3268.56
725.76	3469.26
725.94	3545.03
726.12	3170.26
726.30	3258.32
726.49	3186.64
726.67	3397.58
726.85	3592.14
727.03	3942.34
727.21	4945.84
727.39	6197.15
727.57	6389.66
727.76	6772.63
727.94	6686.62
728.12	5859.24
728.30	4982.71
728.48	4886.45
728.66	4368.32
728.84	4364.22
729.03	3966.92
729.21	3737.54
729.39	3536.84
729.57	3485.64
729.75	3567.56
729.93	3452.88
730.11	3123.15
730.30	3334.09
730.48	3454.92
730.66	3229.65
730.84	3248.08
731.02	3442.64
731.20	3280.85
731.38	3303.37
731.56	2975.70
731.74	3143.63
731.93	3508.17
732.11	3352.52
732.29	3186.64
732.47	3487.69
732.65	3430.35
732.83	3389.39
733.01	3231.69
733.19	3286.99
733.37	3626.95
733.56	3174.35
733.74	3053.52
733.92	3794.89
734.10	3323.85
734.28	3389.39
734.46	3014.61
734.64	3395.53
734.82	3377.10
735.00	3223.50
735.18	3131.34
735.36	3420.11
735.54	3370.96
735.73	3225.55
735.91	3352.52
736.09	3741.64
736.27	3375.05
736.45	3307.47
736.63	2959.31
736.81	3291.09
736.99	3622.86
737.17	3375.05
737.35	3192.78
737.53	3469.26
737.71	3364.81
737.89	3409.87
738.07	3139.54
738.25	3321.81
738.43	3168.21
738.61	3237.84
738.80	3164.11
738.98	3268.56
739.16	3385.29
739.34	3110.86
739.52	3446.73
739.70	3393.48
739.88	3637.19
740.06	3274.70
740.24	2887.64
740.42	3663.82
740.60	3065.81
740.78	3221.45
740.96	2959.31
741.14	3399.63
741.32	3407.82
741.50	3108.82
741.68	3393.48
741.86	3741.64
742.04	3178.45
742.22	3071.95
742.40	3203.02
742.58	3534.79
742.76	3233.74
742.94	3430.35
743.12	2926.55
743.30	3497.93
743.48	3489.74
743.66	3082.19
743.84	3309.52
744.02	3307.47
744.20	3393.48
744.38	3104.72
744.56	3106.77
744.74	3880.90
744.92	3534.79
745.10	3438.54
745.28	3332.05
745.46	3815.37
745.64	3338.19
745.82	3192.78
746.00	3149.78
746.18	3499.98
746.36	3229.65
746.54	3293.13
746.72	3172.30
746.90	3254.22
747.08	3725.26
747.26	3229.65
747.44	3319.76
747.62	3567.56
747.80	3461.07
747.98	3323.85
748.15	3141.58
748.33	3844.04
748.51	3487.69
748.69	3264.46
748.87	3106.77
749.05	3332.05
749.23	3434.44
749.41	3131.34
749.59	3129.30
749.77	3678.15
749.95	3330.00
750.13	3192.78
750.31	3381.20
750.49	3405.77
750.67	3622.86
750.85	3338.19
751.03	3227.60
751.20	3938.24
751.38	3409.87
751.56	3254.22
751.74	3239.89
751.92	3356.62
752.10	3194.83
752.28	3438.54
752.46	3094.48
752.64	3405.77
752.82	3401.68
753.00	3370.96
753.18	3098.58
753.35	3438.54
753.53	3352.52
753.71	3160.02
753.89	3190.74
754.07	3573.71
754.25	3659.72
754.43	3354.57
754.61	3104.72
754.79	3471.31
754.97	3442.64
755.14	3393.48
755.32	3110.86
755.50	3471.31
755.68	3524.55
755.86	3139.54
756.04	3114.96
756.22	3041.23
756.40	3581.90
756.57	3370.96
756.75	3198.93
756.93	3682.25
757.11	3639.24
757.29	3051.47
757.47	3078.10
757.65	3147.73
757.82	3004.37
758.00	3084.24
758.18	3141.58
758.36	3272.65
758.54	3848.13
758.72	3028.95
758.90	3330.00
759.07	3530.70
759.25	3209.17
759.43	3266.51
759.61	3135.44
759.79	4560.83
759.97	3626.95
760.15	3246.03
760.32	3153.87
760.50	3479.50
760.68	3895.24
760.86	3055.57
761.04	3467.21
761.22	3573.71
761.39	3475.40
761.57	3340.24
761.75	3229.65
761.93	3618.76
762.11	3385.29
762.28	3366.86
762.46	3125.20
762.64	3626.95
762.82	3254.22
763.00	3219.41
763.18	3377.10
763.35	3174.35
763.53	3561.42
763.71	3348.43
763.89	3184.59
764.07	3426.25
764.24	3477.45
764.42	3295.18
764.60	3207.12
764.78	3616.71
764.96	3672.01
765.13	3323.85
765.31	3086.29
765.49	3659.72
765.67	3221.45
765.84	3151.82
766.02	3098.58
766.20	3080.14
766.38	3512.27
766.56	3309.52
766.73	3332.05
766.91	3489.74
767.09	3491.79
767.27	3209.17
767.44	3086.29
767.62	3518.41
767.80	3504.07
767.98	3139.54
768.15	3264.46
768.33	3596.23
768.51	3676.10
768.69	3420.11
768.87	3153.87
769.04	3485.64
769.22	4118.47
769.40	3334.09
769.58	3299.28
769.75	3614.66
769.93	3696.58
770.11	3243.98
770.28	2990.03
770.46	3614.66
770.64	3495.88
770.82	3219.41
770.99	3164.11
771.17	3590.09
771.35	3354.57
771.53	3295.18
771.70	3098.58
771.88	3594.19
772.06	3411.92
772.23	3121.10
772.41	3188.69
772.59	3385.29
772.77	3252.17
772.94	3250.13
773.12	3303.37
773.30	3307.47
773.47	3475.40
773.65	3102.67
773.83	3387.34
774.01	3434.44
774.18	3092.43
774.36	3198.93
774.54	3108.82
774.71	3590.09
774.89	3184.59
775.07	3092.43
775.24	3125.20
775.42	3325.90
775.60	3856.33
775.78	3074.00
775.95	3067.86
776.13	3102.67
776.31	3149.78
776.48	3385.29
776.66	3401.68
776.84	3268.56
777.01	3289.04
777.19	3125.20
777.37	3131.34
777.54	3602.38
777.72	3829.70
777.90	3303.37
778.07	3237.84
778.25	4044.74
778.43	3622.86
778.60	3164.11
778.78	3284.94
778.96	3805.13
779.13	3264.46
779.31	3233.74
779.49	3276.75
779.66	3499.98
779.84	3350.48
780.01	3141.58
780.19	3172.30
780.37	3698.63
780.54	3542.99
780.72	3043.28
780.90	3243.98
781.07	3368.91
781.25	3346.38
781.43	3373.00
781.60	3198.93
781.78	3702.73
781.95	3418.06
782.13	3196.88
782.31	3104.72
782.48	3059.67
782.66	3418.06
782.83	3454.92
783.01	3323.85
783.19	3598.28
783.36	3389.39
783.54	3078.10
783.72	3330.00
783.89	3282.89
784.07	3483.59
784.24	3301.33
784.42	3442.64
784.60	3493.83
784.77	3518.41
784.95	2979.79
785.12	3215.31
785.30	3508.17
785.47	3274.70
785.65	3135.44
785.83	3282.89
786.00	3307.47
786.18	3508.17
786.35	3104.72
786.53	3219.41
786.71	3641.29
786.88	3514.31
787.06	3266.51
787.23	3192.78
787.41	3180.50
787.58	3401.68
787.76	3112.91
787.94	3172.30
788.11	3418.06
788.29	3198.93
788.46	3309.52
788.64	3024.85
788.81	3432.40
788.99	3225.55
789.16	3157.97
789.34	3182.54
789.52	3297.23
789.69	3301.33
789.87	3020.75
790.04	3143.63
790.22	3444.68
790.39	3786.69
790.57	2969.55
790.74	3135.44
790.92	3667.91
791.09	3030.99
791.27	3420.11
791.44	3272.65
791.62	3405.77
791.79	3643.34
791.97	3262.41
792.15	3547.08
792.32	3540.94
792.50	3549.13
792.67	3368.91
792.85	3508.17
793.02	3506.12
793.20	3340.24
793.37	3033.04
793.55	3057.62
793.72	3188.69
793.90	3545.03
794.07	3168.21
794.25	3139.54
794.42	3516.36
794.60	3391.44
794.77	3209.17
794.95	3354.57
795.12	3639.24
795.30	3428.30
795.47	2906.07
795.65	3516.36
795.82	3442.64
796.00	3301.33
796.17	3248.08
796.34	3098.58
796.52	3522.51
796.69	3639.24
796.87	3233.74
797.04	3366.86
797.22	3633.10
797.39	3487.69
797.57	3387.34
797.74	3260.37
797.92	3600.33
798.09	3352.52
798.27	3528.65
798.44	3164.11
798.62	3319.76
798.79	3526.60
798.96	3309.52
799.14	3241.93
799.31	4003.78
799.49	3354.57
799.66	3186.64
799.84	3231.69
800.01	3082.19
800.19	3516.36
800.36	2961.36
800.53	3239.89
800.71	3528.65
800.88	3733.45
801.06	3071.95
801.23	3139.54
801.41	3377.10
801.58	3368.91
801.75	3172.30
801.93	3229.65
802.10	3651.53
802.28	3393.48
802.45	3252.17
802.63	3225.55
802.80	3766.21
802.97	3344.33
803.15	3133.39
803.32	3178.45
803.50	3241.93
803.67	3295.18
803.84	3194.83
804.02	3274.70
804.19	3405.77
804.37	2947.03
804.54	3026.90
804.71	3166.16
804.89	3461.07
805.06	3260.37
805.24	3176.40
805.41	2951.12
805.58	3303.37
805.76	3938.24
805.93	3084.24
806.10	3305.42
806.28	3631.05
806.45	3471.31
806.63	3342.28
806.80	3311.57
806.97	3493.83
807.15	3545.03
807.32	3221.45
807.49	3190.74
807.67	3207.12
807.84	3416.01
808.01	3018.71
808.19	3434.44
808.36	3856.33
808.54	3338.19
808.71	3221.45
808.88	3139.54
809.06	3755.97
809.23	3739.59
809.40	3301.33
809.58	3123.15
809.75	3397.58
809.92	3184.59
810.10	3387.34
810.27	3200.98
810.44	3549.13
810.62	3639.24
810.79	3215.31
810.96	3205.07
811.14	3233.74
811.31	3487.69
811.48	3432.40
811.66	3239.89
811.83	3667.91
812.00	3510.22
812.18	3346.38
812.35	3481.55
812.52	3403.72
812.69	3350.48
812.87	3190.74
813.04	3114.96
813.21	3370.96
813.39	3243.98
813.56	3151.82
813.73	3440.59
813.91	3094.48
814.08	3428.30
814.25	3137.49
814.42	3092.43
814.60	3332.05
814.77	3360.72
814.94	3076.05
815.12	3282.89
815.29	3758.02
815.46	3303.37
815.63	3223.50
815.81	3215.31
815.98	3317.71
816.15	3420.11
816.33	3368.91
816.50	3207.12
816.67	3407.82
816.84	3321.81
817.02	3139.54
817.19	3172.30
817.36	3473.36
817.53	3532.75
817.71	3069.91
817.88	3207.12
818.05	3377.10
818.22	3354.57
818.40	3377.10
818.57	3196.88
818.74	3545.03
818.91	3413.96
819.09	3315.66
819.26	3307.47
819.43	3332.05
819.60	3227.60
819.78	3366.86
819.95	3248.08
820.12	3176.40
820.29	3659.72
820.47	3530.70
820.64	3090.38
820.81	3176.40
820.98	3246.03
821.15	3250.13
821.33	3299.28
821.50	3069.91
821.67	3499.98
821.84	3166.16
822.02	3190.74
822.19	3573.71
822.36	3352.52
822.53	3098.58
822.70	3096.53
822.88	3295.18
823.05	3739.59
823.22	3268.56
823.39	3200.98
823.56	3420.11
823.74	3876.80
823.91	2971.60
824.08	3076.05
824.25	3250.13
824.42	3672.01
824.60	3088.34
824.77	3282.89
824.94	3393.48
825.11	3616.71
825.28	3106.77
825.45	3358.67
825.63	3502.03
825.80	3227.60
825.97	3299.28
826.14	3252.17
826.31	3030.99
826.48	3549.13
826.66	3227.60
826.83	3192.78
827.00	3479.50
827.17	3250.13
827.34	3266.51
827.51	3114.96
827.69	3350.48
827.86	3041.23
828.03	3239.89
828.20	3295.18
828.37	3332.05
828.54	3557.32
828.71	3133.39
828.89	3229.65
829.06	3430.35
829.23	3729.35
829.40	3246.03
829.57	3147.73
829.74	3598.28
829.91	3332.05
830.09	3141.58
830.26	3377.10
830.43	3846.09
830.60	3344.33
830.77	3289.04
830.94	3446.73
831.11	3602.38
831.28	3340.24
831.46	3442.64
831.63	3188.69
831.80	3622.86
831.97	3313.61
832.14	3299.28
832.31	3196.88
832.48	3471.31
832.65	3616.71
832.82	3364.81
832.99	3233.74
833.17	3229.65
833.34	3663.82
833.51	3135.44
833.68	2994.13
833.85	3708.87
834.02	3213.26
834.19	3155.92
834.36	3194.83
834.53	3508.17
834.70	3606.47
834.87	3137.49
835.04	2936.79
835.22	3123.15
835.39	3370.96
835.56	2979.79
835.73	3020.75
835.90	3708.87
836.07	3235.79
836.24	3200.98
836.41	3028.95
836.58	3327.95
836.75	3637.19
836.92	3045.33
837.09	2965.46
837.26	3596.23
837.43	3442.64
837.60	2992.08
837.77	3043.28
837.94	3604.42
838.12	3708.87
838.29	3008.47
838.46	2930.64
838.63	3180.50
838.80	3745.73
838.97	3061.71
839.14	3051.47
839.31	3499.98
839.48	3592.14
839.65	3092.43
839.82	3117.01
839.99	3479.50
840.16	3469.26
840.33	2951.12
840.50	3086.29
840.67	3286.99
840.84	3002.32
841.01	2969.55
841.18	2992.08
841.35	3411.92
841.52	3532.75
841.69	3317.71
841.86	3117.01
842.03	3420.11
842.20	3618.76
842.37	3039.19
842.54	3084.24
842.71	3465.16
842.88	3200.98
843.05	3078.10
843.22	2971.60
843.39	3641.29
843.56	3311.57
843.73	2977.75
843.90	3155.92
844.07	3452.88
844.24	3655.62
844.41	3078.10
844.58	3069.91
844.75	3450.83
844.92	3512.27
845.09	3102.67
845.26	3016.66
845.43	3532.75
845.60	3346.38
845.77	3119.06
845.94	3035.09
846.10	3598.28
846.27	3098.58
846.44	2889.68
846.61	2934.74
846.78	3526.60
846.95	3651.53
847.12	2959.31
847.29	3053.52
847.46	3211.22
847.63	3710.92
847.80	2963.41
847.97	3092.43
848.14	3801.03
848.31	3403.72
848.48	2820.05
848.65	2936.79
848.82	3188.69
848.98	4083.65
849.15	3192.78
849.32	3180.50
849.49	3639.24
849.66	3368.91
849.83	2969.55
850.00	2969.55
850.17	3602.38
850.34	3401.68
850.51	2967.51
850.68	3010.51
850.85	3962.82
851.01	3526.60
851.18	3051.47
851.35	3076.05
851.52	3508.17
851.69	3643.34
851.86	3008.47
852.03	2887.64
852.20	3585.99
852.37	3545.03
852.53	2928.60
852.70	2967.51
852.87	3504.07
853.04	3502.03
853.21	2926.55
853.38	3303.37
853.55	3766.21
853.72	3633.10
853.89	2983.89
854.05	2951.12
854.22	3385.29
854.39	3327.95
854.56	2947.03
854.73	3168.21
854.90	3307.47
855.07	3442.64
855.23	2897.88
855.40	2944.98
855.57	3440.59
855.74	2953.17
855.91	3186.64
856.08	2910.16
856.25	3086.29
856.41	3395.53
856.58	2994.13
856.75	3039.19
856.92	3235.79
857.09	3557.32
857.26	2815.96
857.42	3090.38
857.59	3551.18
857.76	3393.48
857.93	2973.65
858.10	3090.38
858.27	3284.94
858.43	3489.74
858.60	3012.56
858.77	2910.16
858.94	3360.72
859.11	3696.58
859.27	3110.86
859.44	2951.12
859.61	3956.68
859.78	3635.14
859.95	3022.80
860.12	2936.79
860.28	3971.01
860.45	3766.21
860.62	2994.13
860.79	3166.16
860.95	3377.10
861.12	3237.84
861.29	2942.93
861.46	2979.79
861.63	3426.25
861.79	3481.55
861.96	2854.87
862.13	3016.66
862.30	3788.74
862.47	3264.46
862.63	2875.35
862.80	3160.02
862.97	3618.76
863.14	3585.99
863.30	3069.91
863.47	2965.46
863.64	3751.88
863.81	3516.36
863.97	2863.06
864.14	3033.04
864.31	3364.81
864.48	3448.78
864.65	2975.70
864.81	3151.82
864.98	3585.99
865.15	3647.43
865.32	3166.16
865.48	3039.19
865.65	3839.94
865.82	3280.85
865.98	3008.47
866.15	3106.77
866.32	3364.81
866.49	3389.39
866.65	3145.68
866.82	3067.86
866.99	3362.76
867.16	3295.18
867.32	3055.57
867.49	2879.44
867.66	3301.33
867.83	3223.50
867.99	2951.12
868.16	3069.91
868.33	3200.98
868.49	3360.72
868.66	2942.93
868.83	3141.58
868.99	3471.31
869.16	3487.69
869.33	3164.11
869.50	3133.39
869.66	3575.75
869.83	3377.10
870.00	2949.08
870.16	3094.48
870.33	3356.62
870.50	3602.38
870.66	3133.39
870.83	3000.27
871.00	3432.40
871.17	3561.42
871.33	3084.24
871.50	2975.70
871.67	3438.54
871.83	3205.07
872.00	3100.62
872.17	3045.33
872.33	3872.71
872.50	3700.68
872.67	3030.99
872.83	3047.38
873.00	3499.98
873.17	3477.45
873.33	2998.23
873.50	3053.52
873.67	3248.08
873.83	3284.94
874.00	3059.67
874.16	3102.67
874.33	3379.15
874.50	3112.91
874.66	3000.27
874.83	3157.97
875.00	3651.53
875.16	3706.82
875.33	3096.53
875.50	2764.76
875.66	3272.65
875.83	3368.91
875.99	3106.77
876.16	3188.69
876.33	3110.86
876.49	3315.66
876.66	3024.85
876.83	3039.19
876.99	3100.62
877.16	3434.44
877.32	2955.22
877.49	3123.15
877.66	3495.88
877.82	3776.45
877.99	3139.54
878.15	3313.61
878.32	3479.50
878.49	3450.83
878.65	3092.43
878.82	3303.37
878.98	3352.52
879.15	3600.33
879.32	3188.69
879.48	3196.88
879.65	3409.87
879.81	3276.75
879.98	3082.19
880.15	3131.34
880.31	3524.55
880.48	3213.26
880.64	3098.58
880.81	3223.50
880.97	3747.78
881.14	3684.30
881.31	3057.62
881.47	3133.39
881.64	3303.37
881.80	3127.25
881.97	3194.83
882.13	3059.67
882.30	3184.59
882.47	3303.37
882.63	3076.05
882.80	3059.67
882.96	3360.72
883.13	3542.99
883.29	2996.18
883.46	2996.18
883.62	3936.20
883.79	3403.72
883.95	3176.40
884.12	3016.66
884.29	3647.43
884.45	3477.45
884.62	3016.66
884.78	3045.33
884.95	3770.31
885.11	3194.83
885.28	3102.67
885.44	3092.43
885.61	3563.47
885.77	3790.79
885.94	3209.17
886.10	3117.01
886.27	3442.64
886.43	3852.23
886.60	3190.74
886.76	3033.04
886.93	3133.39
887.09	3540.94
887.26	2852.82
887.42	3192.78
887.59	3645.38
887.75	3925.96
887.92	3237.84
888.08	3090.38
888.25	3813.32
888.41	3655.62
888.58	3090.38
888.74	2934.74
888.91	3340.24
>>>>>End Processed Spectral Data<<<<<
