SpectraSuite Data File
++++++++++++++++++++++++++++++++++++
Date: Fri May 06 09:28:44 CEST 2016
User: root
Dark Spectrum Present: No
Reference Spectrum Present: No
Number of Sampled Component Spectra: 1
Spectrometers: USB4C02835
Integration Time (usec): 100000 (USB4C02835)
Spectra Averaged: 1 (USB4C02835)
Boxcar Smoothing: 0 (USB4C02835)
Correct for Electrical Dark: No (USB4C02835)
Strobe/Lamp Enabled: No (USB4C02835)
Correct for Detector Non-linearity: No (USB4C02835)
Correct for Stray Light: No (USB4C02835)
Number of Pixels in Processed Spectrum: 3648
>>>>>Begin Processed Spectral Data<<<<<
177.47	2312.16
177.69	2312.16
177.91	2312.16
178.13	2260.96
178.36	2318.30
178.58	3119.06
178.80	3270.61
179.02	3174.35
179.24	3164.11
179.46	2777.05
179.68	2936.79
179.90	3375.05
180.13	3442.64
180.35	2678.74
180.57	2764.76
180.79	3657.67
181.01	3430.35
181.23	2926.55
181.45	3059.67
181.67	3622.86
181.90	3592.14
182.12	2992.08
182.34	2779.09
182.56	3530.70
182.78	3557.32
183.00	2928.60
183.22	2969.55
183.44	3071.95
183.66	4016.07
183.89	3139.54
184.11	2963.41
184.33	3614.66
184.55	3723.21
184.77	2885.59
184.99	3008.47
185.21	3448.78
185.43	4026.31
185.65	3000.27
185.87	2942.93
186.10	3991.49
186.32	3956.68
186.54	3049.43
186.76	3022.80
186.98	3717.06
187.20	3471.31
187.42	3020.75
187.64	2961.36
187.86	3571.66
188.08	3690.44
188.30	2881.49
188.52	3014.61
188.75	3844.04
188.97	3749.83
189.19	2936.79
189.41	2912.21
189.63	3641.29
189.85	3385.29
190.07	2834.39
190.29	2768.85
190.51	3467.21
190.73	3178.45
190.95	3164.11
191.17	3055.57
191.39	3121.10
191.61	3426.25
191.84	3024.85
192.06	3039.19
192.28	3104.72
192.50	4229.06
192.72	3196.88
192.94	3065.81
193.16	3659.72
193.38	3463.12
193.60	2893.78
193.82	3198.93
194.04	3684.30
194.26	3526.60
194.48	3020.75
194.70	2977.75
194.92	3409.87
195.14	3614.66
195.36	2899.92
195.58	3024.85
195.80	3375.05
196.02	3317.71
196.24	2914.26
196.46	3106.77
196.69	3385.29
196.91	4052.93
197.13	3004.37
197.35	3018.71
197.57	3794.89
197.79	3532.75
198.01	3188.69
198.23	3014.61
198.45	3608.52
198.67	3172.30
198.89	2783.19
199.11	3037.14
199.33	3303.37
199.55	3067.86
199.77	2842.58
199.99	3127.25
200.21	3319.76
200.43	3471.31
200.65	2881.49
200.87	2836.44
201.09	3465.16
201.31	3432.40
201.53	2920.40
201.75	3100.62
201.97	3499.98
202.19	3559.37
202.41	3024.85
202.63	3051.47
202.85	3581.90
203.07	3452.88
203.29	3102.67
203.51	2912.21
203.73	3276.75
203.95	4167.62
204.17	2965.46
204.39	3172.30
204.61	3461.07
204.83	3264.46
205.05	3098.58
205.27	2967.51
205.49	3944.39
205.71	3381.20
205.93	2850.77
206.15	2873.30
206.37	3504.07
206.59	3413.96
206.81	2775.00
207.03	2770.90
207.25	3260.37
207.47	3479.50
207.69	2955.22
207.91	3164.11
208.13	3835.85
208.34	3397.58
208.56	3002.32
208.78	2987.99
209.00	3467.21
209.22	3405.77
209.44	2944.98
209.66	2912.21
209.88	3532.75
210.10	3401.68
210.32	2932.69
210.54	3057.62
210.76	3364.81
210.98	3731.40
211.20	2858.96
211.42	3082.19
211.64	3768.26
211.86	3569.61
212.08	2977.75
212.30	2942.93
212.52	3510.22
212.74	3610.57
212.96	3074.00
213.17	2969.55
213.39	3571.66
213.61	3872.71
213.83	2951.12
214.05	2844.63
214.27	3747.78
214.49	3227.60
214.71	2901.97
214.93	3098.58
215.15	3434.44
215.37	3641.29
215.59	2811.86
215.81	3051.47
216.03	3725.26
216.24	3436.49
216.46	2951.12
216.68	3053.52
216.90	3641.29
217.12	3620.81
217.34	2858.96
217.56	3157.97
217.78	3725.26
218.00	3499.98
218.22	3090.38
218.44	3059.67
218.66	3426.25
218.87	3837.89
219.09	3024.85
219.31	3016.66
219.53	3540.94
219.75	3360.72
219.97	3018.71
220.19	3051.47
220.41	3389.39
220.63	3839.94
220.85	3016.66
221.06	2928.60
221.28	3813.32
221.50	3612.62
221.72	3065.81
221.94	2940.88
222.16	3452.88
222.38	3751.88
222.60	2879.44
222.82	3016.66
223.03	3717.06
223.25	3178.45
223.47	2969.55
223.69	3207.12
223.91	3635.14
224.13	3538.89
224.35	2865.11
224.57	3110.86
224.78	3721.16
225.00	3194.83
225.22	3139.54
225.44	2848.72
225.66	3635.14
225.88	3301.33
226.10	3125.20
226.32	2955.22
226.53	3803.08
226.75	3311.57
226.97	3035.09
227.19	2992.08
227.41	3332.05
227.63	3368.91
227.85	2787.29
228.06	3012.56
228.28	3592.14
228.50	3704.78
228.72	2803.67
228.94	2914.26
229.16	3108.82
229.37	3229.65
229.59	2856.92
229.81	3262.41
230.03	3309.52
230.25	3286.99
230.47	2801.62
230.69	2920.40
230.90	3692.49
231.12	3311.57
231.34	2992.08
231.56	3041.23
231.78	3213.26
232.00	3528.65
232.21	2975.70
232.43	2975.70
232.65	2977.75
232.87	3567.56
233.09	2775.00
233.30	2908.12
233.52	3706.82
233.74	3438.54
233.96	2914.26
234.18	3125.20
234.40	3442.64
234.61	4048.83
234.83	2828.24
235.05	2901.97
235.27	3975.11
235.49	3721.16
235.70	2754.52
235.92	3026.90
236.14	3465.16
236.36	4020.16
236.58	2881.49
236.79	3082.19
237.01	3436.49
237.23	3385.29
237.45	3231.69
237.67	3000.27
237.88	3538.89
238.10	3971.01
238.32	2856.92
238.54	2963.41
238.76	3413.96
238.97	3252.17
239.19	2975.70
239.41	3006.42
239.63	3708.87
239.85	3332.05
240.06	3000.27
240.28	3016.66
240.50	3700.68
240.72	3436.49
240.93	2885.59
241.15	3086.29
241.37	3434.44
241.59	3758.02
241.81	2971.60
242.02	3026.90
242.24	3534.79
242.46	3502.03
242.68	2822.10
242.89	2865.11
243.11	3622.86
243.33	3411.92
243.55	2963.41
243.76	2967.51
243.98	3321.81
244.20	3385.29
244.42	2877.40
244.64	2912.21
244.85	3157.97
245.07	3188.69
245.29	2951.12
245.51	2987.99
245.72	3473.36
245.94	3637.19
246.16	2914.26
246.38	2957.27
246.59	3323.85
246.81	3280.85
247.03	2789.33
247.24	2877.40
247.46	3330.00
247.68	3469.26
247.90	2801.62
248.11	2969.55
248.33	3530.70
248.55	3375.05
248.77	2996.18
248.98	3020.75
249.20	3721.16
249.42	3502.03
249.64	2965.46
249.85	2897.88
250.07	3348.43
250.29	3549.13
250.50	3053.52
250.72	2828.24
250.94	3569.61
251.16	3903.43
251.37	2912.21
251.59	3074.00
251.81	3495.88
252.02	3839.94
252.24	2893.78
252.46	3069.91
252.68	3213.26
252.89	3334.09
253.11	2754.52
253.33	3168.21
253.54	3846.09
253.76	3211.22
253.98	2953.17
254.20	2901.97
254.41	3221.45
254.63	3370.96
254.85	2848.72
255.06	3090.38
255.28	3420.11
255.50	3393.48
255.71	2887.64
255.93	2877.40
256.15	3393.48
256.36	3524.55
256.58	2811.86
256.80	2895.83
257.02	3422.16
257.23	3418.06
257.45	3028.95
257.67	3127.25
257.88	3315.66
258.10	3614.66
258.32	2979.79
258.53	3061.71
258.75	3801.03
258.97	3311.57
259.18	2906.07
259.40	2861.01
259.62	3854.28
259.83	3796.93
260.05	3014.61
260.27	3950.53
260.48	3641.29
260.70	3239.89
260.92	2813.91
261.13	3057.62
261.35	3577.80
261.57	3590.09
261.78	2861.01
262.00	2916.31
262.22	3516.36
262.43	3209.17
262.65	2969.55
262.86	3016.66
263.08	3925.96
263.30	3520.46
263.51	2842.58
263.73	2901.97
263.95	3798.98
264.16	3237.84
264.38	2852.82
264.60	2897.88
264.81	3430.35
265.03	3749.83
265.25	3528.65
265.46	2918.36
265.68	3708.87
265.89	3600.33
266.11	2828.24
266.33	2936.79
266.54	3741.64
266.76	3536.84
266.98	2990.03
267.19	3157.97
267.41	3778.50
267.62	3426.25
267.84	2779.09
268.06	3114.96
268.27	3471.31
268.49	3749.83
268.70	3024.85
268.92	2975.70
269.14	3241.93
269.35	3180.50
269.57	3096.53
269.79	3035.09
270.00	3315.66
270.22	3817.41
270.43	2815.96
270.65	2861.01
270.87	3495.88
271.08	3565.51
271.30	3112.91
271.51	2926.55
271.73	3614.66
271.95	3829.70
272.16	2840.53
272.38	3151.82
272.59	3379.15
272.81	3588.04
273.02	2867.16
273.24	3008.47
273.46	3614.66
273.67	3258.32
273.89	2846.68
274.10	2942.93
274.32	3712.97
274.54	3555.27
274.75	3147.73
274.97	3033.04
275.18	3692.49
275.40	3504.07
275.61	3022.80
275.83	3067.86
276.05	3264.46
276.26	3399.63
276.48	3020.75
276.69	3057.62
276.91	3303.37
277.12	3751.88
277.34	3139.54
277.55	3344.33
277.77	3524.55
277.99	3391.44
278.20	3143.63
278.42	3020.75
278.63	3276.75
278.85	3237.84
279.06	3121.10
279.28	3209.17
279.49	3606.47
279.71	3637.19
279.93	3174.35
280.14	3155.92
280.36	3323.85
280.57	3680.20
280.79	3143.63
281.00	2975.70
281.22	3377.10
281.43	3672.01
281.65	2832.34
281.86	3037.14
282.08	3588.04
282.29	3905.48
282.51	3051.47
282.73	2983.89
282.94	3110.86
283.16	3555.27
283.37	3153.87
283.59	3147.73
283.80	3592.14
284.02	3360.72
284.23	3178.45
284.45	3114.96
284.66	3336.14
284.88	3293.13
285.09	3020.75
285.31	3155.92
285.52	3514.31
285.74	3196.88
285.95	3225.55
286.17	3106.77
286.38	3573.71
286.60	3313.61
286.81	2981.84
287.03	3059.67
287.24	3491.79
287.46	3696.58
287.67	3241.93
287.89	3272.65
288.10	3436.49
288.32	3446.73
288.53	3280.85
288.75	3106.77
288.96	3608.52
289.18	3352.52
289.39	3074.00
289.61	3153.87
289.82	3895.24
290.04	3872.71
290.25	2924.50
290.47	3160.02
290.68	3297.23
290.90	3659.72
291.11	2926.55
291.33	3268.56
291.54	3268.56
291.76	3434.44
291.97	3237.84
292.18	3221.45
292.40	3295.18
292.61	3286.99
292.83	3360.72
293.04	3164.11
293.26	3473.36
293.47	3362.76
293.69	3100.62
293.90	2955.22
294.12	3725.26
294.33	3434.44
294.55	3200.98
294.76	3360.72
294.97	3715.02
295.19	3901.38
295.40	3086.29
295.62	3196.88
295.83	3686.34
296.05	3297.23
296.26	3327.95
296.48	3149.78
296.69	3454.92
296.90	3352.52
297.12	3274.70
297.33	3241.93
297.55	3432.40
297.76	3563.47
297.98	3149.78
298.19	3327.95
298.41	3409.87
298.62	3229.65
298.83	3305.42
299.05	3307.47
299.26	3323.85
299.48	3262.41
299.69	3184.59
299.90	3078.10
300.12	3217.36
300.33	3602.38
300.55	3180.50
300.76	3157.97
300.98	3311.57
301.19	3606.47
301.40	3059.67
301.62	3022.80
301.83	3542.99
302.05	3475.40
302.26	3018.71
302.47	3190.74
302.69	3209.17
302.90	3469.26
303.12	2932.69
303.33	3250.13
303.54	3860.42
303.76	3272.65
303.97	3039.19
304.19	3334.09
304.40	3278.80
304.61	3542.99
304.83	3270.61
305.04	3139.54
305.26	3563.47
305.47	3278.80
305.68	3164.11
305.90	2959.31
306.11	3766.21
306.33	3383.24
306.54	2936.79
306.75	3106.77
306.97	3069.91
307.18	3262.41
307.39	3078.10
307.61	3155.92
307.82	3389.39
308.04	3573.71
308.25	2957.27
308.46	3270.61
308.68	3409.87
308.89	3393.48
309.10	3231.69
309.32	3133.39
309.53	3426.25
309.74	3520.46
309.96	2992.08
310.17	3205.07
310.39	3409.87
310.60	3545.03
310.81	3061.71
311.03	3024.85
311.24	3590.09
311.45	3368.91
311.67	3311.57
311.88	3235.79
312.09	3360.72
312.31	3332.05
312.52	2983.89
312.73	3059.67
312.95	3164.11
313.16	3270.61
313.37	3301.33
313.59	3262.41
313.80	3602.38
314.01	3680.20
314.23	3131.34
314.44	3004.37
314.65	3246.03
314.87	3205.07
315.08	3041.23
315.29	3114.96
315.51	3262.41
315.72	3100.62
315.93	3217.36
316.15	3094.48
316.36	3379.15
316.57	3444.68
316.79	3151.82
317.00	3057.62
317.21	3534.79
317.43	3360.72
317.64	3108.82
317.85	3055.57
318.07	3235.79
318.28	3467.21
318.49	3106.77
318.70	3344.33
318.92	3532.75
319.13	3461.07
319.34	3278.80
319.56	3006.42
319.77	3426.25
319.98	3612.62
320.20	3325.90
320.41	3231.69
320.62	3557.32
320.83	3192.78
321.05	3268.56
321.26	3053.52
321.47	3542.99
321.69	3704.78
321.90	2963.41
322.11	3123.15
322.32	3598.28
322.54	3731.40
322.75	3133.39
322.96	4239.30
323.18	3123.15
323.39	2996.18
323.60	3028.95
323.81	3139.54
324.03	3274.70
324.24	3401.68
324.45	3188.69
324.66	3043.28
324.88	3712.97
325.09	3829.70
325.30	3096.53
325.52	2975.70
325.73	3565.51
325.94	3246.03
326.15	2987.99
326.37	2871.25
326.58	3674.06
326.79	3827.65
327.00	3033.04
327.22	3092.43
327.43	3430.35
327.64	3213.26
327.85	3270.61
328.07	3096.53
328.28	3911.62
328.49	3278.80
328.70	3088.34
328.92	3119.06
329.13	3303.37
329.34	3633.10
329.55	3381.20
329.76	3262.41
329.98	3348.43
330.19	3815.37
330.40	3217.36
330.61	3315.66
330.83	3688.39
331.04	3254.22
331.25	3200.98
331.46	3215.31
331.68	3180.50
331.89	3727.30
332.10	3211.22
332.31	2922.45
332.52	3483.59
332.74	3729.35
332.95	2906.07
333.16	3051.47
333.37	3600.33
333.58	3303.37
333.80	3108.82
334.01	2871.25
334.22	3346.38
334.43	3278.80
334.64	3041.23
334.86	3061.71
335.07	3334.09
335.28	3856.33
335.49	2930.64
335.70	3184.59
335.92	3798.98
336.13	4014.02
336.34	3164.11
336.55	3065.81
336.76	3516.36
336.98	3057.62
337.19	3112.91
337.40	3143.63
337.61	3960.77
337.82	3409.87
338.04	3188.69
338.25	2942.93
338.46	3440.59
338.67	3350.48
338.88	2985.94
339.09	2994.13
339.31	3356.62
339.52	3147.73
339.73	2953.17
339.94	3192.78
340.15	3579.85
340.36	3364.81
340.58	3198.93
340.79	3049.43
341.00	3665.86
341.21	3174.35
341.42	3260.37
341.63	3127.25
341.85	3624.90
342.06	3499.98
342.27	3131.34
342.48	3258.32
342.69	3174.35
342.90	3581.90
343.12	3561.42
343.33	2940.88
343.54	3649.48
343.75	3807.17
343.96	3211.22
344.17	3049.43
344.38	3370.96
344.60	3139.54
344.81	3020.75
345.02	3205.07
345.23	3708.87
345.44	3977.16
345.65	3121.10
345.86	3188.69
346.07	3567.56
346.29	3297.23
346.50	3209.17
346.71	3178.45
346.92	3794.89
347.13	3889.09
347.34	3209.17
347.55	3030.99
347.76	3526.60
347.98	3176.40
348.19	3168.21
348.40	3340.24
348.61	3346.38
348.82	3743.69
349.03	3131.34
349.24	2983.89
349.45	3919.81
349.66	2983.89
349.88	3018.71
350.09	3026.90
350.30	3792.84
350.51	3717.06
350.72	3319.76
350.93	3049.43
351.14	3325.90
351.35	3551.18
351.56	3194.83
351.77	3295.18
351.99	3602.38
352.20	3776.45
352.41	3243.98
352.62	2926.55
352.83	3477.45
353.04	3504.07
353.25	3127.25
353.46	3129.30
353.67	3579.85
353.88	3016.66
354.09	2996.18
354.30	3190.74
354.52	3655.62
354.73	3438.54
354.94	3057.62
355.15	3135.44
355.36	3803.08
355.57	3397.58
355.78	3000.27
355.99	3082.19
356.20	3342.28
356.41	3700.68
356.62	3157.97
356.83	3180.50
357.04	3729.35
357.25	3030.99
357.46	3119.06
357.68	3024.85
357.89	3254.22
358.10	3418.06
358.31	3141.58
358.52	3166.16
358.73	3262.41
358.94	3143.63
359.15	3155.92
359.36	3049.43
359.57	3422.16
359.78	3381.20
359.99	3243.98
360.20	2975.70
360.41	3381.20
360.62	3635.14
360.83	3180.50
361.04	3198.93
361.25	3538.89
361.46	3878.85
361.67	3235.79
361.88	3055.57
362.09	3686.34
362.30	3614.66
362.51	3004.37
362.72	3176.40
362.93	3598.28
363.14	3594.19
363.35	3186.64
363.56	3008.47
363.78	3712.97
363.99	3764.17
364.20	3061.71
364.41	3143.63
364.62	3762.12
364.83	3510.22
365.04	3160.02
365.25	3147.73
365.46	3885.00
365.67	3282.89
365.88	3280.85
366.09	3082.19
366.30	3340.24
366.51	3407.82
366.72	3067.86
366.93	3078.10
367.14	3520.46
367.35	3743.69
367.56	3096.53
367.77	3250.13
367.98	3504.07
368.18	3538.89
368.39	3291.09
368.60	3012.56
368.81	3639.24
369.02	3530.70
369.23	3176.40
369.44	2981.84
369.65	3450.83
369.86	3557.32
370.07	3196.88
370.28	3033.04
370.49	3461.07
370.70	3561.42
370.91	3014.61
371.12	2944.98
371.33	3639.24
371.54	3385.29
371.75	3200.98
371.96	2897.88
372.17	3454.92
372.38	3375.05
372.59	3041.23
372.80	3010.51
373.01	3422.16
373.22	3526.60
373.43	3164.11
373.64	3002.32
373.85	3801.03
374.06	3895.24
374.26	3303.37
374.47	3227.60
374.68	3764.17
374.89	3471.31
375.10	3022.80
375.31	3188.69
375.52	3405.77
375.73	3526.60
375.94	2930.64
376.15	3188.69
376.36	3373.00
376.57	3344.33
376.78	3209.17
376.99	3157.97
377.20	3745.73
377.40	3297.23
377.61	3366.86
377.82	3067.86
378.03	3895.24
378.24	3600.33
378.45	3172.30
378.66	3280.85
378.87	3135.44
379.08	3063.76
379.29	3121.10
379.50	3258.32
379.71	3362.76
379.91	3526.60
380.12	3129.30
380.33	3172.30
380.54	3401.68
380.75	3483.59
380.96	3071.95
381.17	3137.49
381.38	3420.11
381.59	3403.72
381.80	3157.97
382.00	3176.40
382.21	3532.75
382.42	3745.73
382.63	3442.64
382.84	3303.37
383.05	3598.28
383.26	3774.41
383.47	3315.66
383.68	3078.10
383.88	3573.71
384.09	3413.96
384.30	3360.72
384.51	3133.39
384.72	3375.05
384.93	3196.88
385.14	3215.31
385.35	3413.96
385.55	3106.77
385.76	3700.68
385.97	3176.40
386.18	3049.43
386.39	3239.89
386.60	3323.85
386.81	3074.00
387.02	3030.99
387.22	3160.02
387.43	3510.22
387.64	3168.21
387.85	3340.24
388.06	3452.88
388.27	4427.71
388.48	7317.39
388.68	10739.55
388.89	13469.49
389.10	14673.70
389.31	14470.95
389.52	11747.15
389.73	10151.78
389.93	9430.90
390.14	8400.77
390.35	7858.06
390.56	7454.61
390.77	6268.83
390.98	4810.68
391.18	4016.07
391.39	3917.76
391.60	3481.55
391.81	3362.76
392.02	3239.89
392.23	3889.09
392.43	3461.07
392.64	3209.17
392.85	3250.13
393.06	3700.68
393.27	3487.69
393.47	3123.15
393.68	3254.22
393.89	3356.62
394.10	3747.78
394.31	3018.71
394.52	3102.67
394.72	3270.61
394.93	3794.89
395.14	3057.62
395.35	3291.09
395.56	3297.23
395.76	3467.21
395.97	3088.34
396.18	3321.81
396.39	3407.82
396.60	4159.42
396.80	3473.36
397.01	3393.48
397.22	3622.86
397.43	3643.34
397.64	3184.59
397.84	3241.93
398.05	3815.37
398.26	3385.29
398.47	3207.12
398.67	3422.16
398.88	3434.44
399.09	3526.60
399.30	3147.73
399.51	3188.69
399.71	3311.57
399.92	3428.30
400.13	3207.12
400.34	3178.45
400.54	3418.06
400.75	3753.93
400.96	3276.75
401.17	3383.24
401.37	3536.84
401.58	3383.24
401.79	3098.58
402.00	3264.46
402.21	3962.82
402.41	3598.28
402.62	3338.19
402.83	3526.60
403.04	3885.00
403.24	4274.11
403.45	3307.47
403.66	3516.36
403.87	3602.38
404.07	3786.69
404.28	3282.89
404.49	3430.35
404.70	3518.41
404.90	3547.08
405.11	3166.16
405.32	3286.99
405.52	3325.90
405.73	3205.07
405.94	3098.58
406.15	3252.17
406.35	3655.62
406.56	3596.23
406.77	3213.26
406.98	3125.20
407.18	3289.04
407.39	3782.60
407.60	3241.93
407.80	3198.93
408.01	3342.28
408.22	3618.76
408.43	3008.47
408.63	3303.37
408.84	3674.06
409.05	3583.95
409.25	3102.67
409.46	3164.11
409.67	3354.57
409.88	3383.24
410.08	3182.54
410.29	3035.09
410.50	3676.10
410.70	3604.42
410.91	3059.67
411.12	3237.84
411.32	3502.03
411.53	3225.55
411.74	3117.01
411.95	3153.87
412.15	3459.02
412.36	3569.61
412.57	3291.09
412.77	3264.46
412.98	3393.48
413.19	3346.38
413.39	3200.98
413.60	3213.26
413.81	3872.71
414.01	3209.17
414.22	3100.62
414.43	3422.16
414.63	3293.13
414.84	3585.99
415.05	3217.36
415.25	2971.60
415.46	3600.33
415.67	3360.72
415.87	3174.35
416.08	3117.01
416.29	3479.50
416.49	3655.62
416.70	3182.54
416.91	3080.14
417.11	3452.88
417.32	3631.05
417.53	3237.84
417.73	3239.89
417.94	3405.77
418.15	3477.45
418.35	3176.40
418.56	3229.65
418.77	4026.31
418.97	3450.83
419.18	3303.37
419.38	2873.30
419.59	3516.36
419.80	3731.40
420.00	3053.52
420.21	3198.93
420.42	3698.63
420.62	3608.52
420.83	3096.53
421.04	3057.62
421.24	3358.67
421.45	3633.10
421.65	3217.36
421.86	3137.49
422.07	3696.58
422.27	3514.31
422.48	3043.28
422.69	3000.27
422.89	3377.10
423.10	3446.73
423.30	3125.20
423.51	3176.40
423.72	3520.46
423.92	3600.33
424.13	3086.29
424.33	3205.07
424.54	3669.96
424.75	3407.82
424.95	3338.19
425.16	3055.57
425.36	3446.73
425.57	3637.19
425.78	3338.19
425.98	3205.07
426.19	3393.48
426.39	3276.75
426.60	3332.05
426.81	3282.89
427.01	3477.45
427.22	3192.78
427.42	2987.99
427.63	3151.82
427.83	3661.77
428.04	3815.37
428.25	3213.26
428.45	3289.04
428.66	3608.52
428.86	3321.81
429.07	3194.83
429.28	3147.73
429.48	3514.31
429.69	3256.27
429.89	3213.26
430.10	3133.39
430.30	3620.81
430.51	3715.02
430.71	3114.96
430.92	3182.54
431.13	3299.28
431.33	3641.29
431.54	3223.50
431.74	3399.63
431.95	3930.05
432.15	3196.88
432.36	3225.55
432.56	3207.12
432.77	3817.41
432.98	3782.60
433.18	3205.07
433.39	3057.62
433.59	3450.83
433.80	3901.38
434.00	3313.61
434.21	3157.97
434.41	3313.61
434.62	3987.40
434.82	3078.10
435.03	3143.63
435.23	3542.99
435.44	3104.72
435.64	3067.86
435.85	3217.36
436.06	3737.54
436.26	3737.54
436.47	3114.96
436.67	3074.00
436.88	3352.52
437.08	3696.58
437.29	3246.03
437.49	3219.41
437.70	3745.73
437.90	3385.29
438.11	3411.92
438.31	3243.98
438.52	3698.63
438.72	3727.30
438.93	3454.92
439.13	3280.85
439.34	3581.90
439.54	3411.92
439.75	3270.61
439.95	3231.69
440.16	3207.12
440.36	3485.64
440.57	3160.02
440.77	3215.31
440.98	3442.64
441.18	3555.27
441.39	3084.24
441.59	3016.66
441.80	3893.19
442.00	3454.92
442.21	3196.88
442.41	2926.55
442.62	3604.42
442.82	3307.47
443.02	3080.14
443.23	3129.30
443.43	3381.20
443.64	3739.59
443.84	3074.00
444.05	3278.80
444.25	3461.07
444.46	3332.05
444.66	3145.68
444.87	3413.96
445.07	3137.49
445.28	3454.92
445.48	3385.29
445.69	3213.26
445.89	4016.07
446.09	3444.68
446.30	3497.93
446.50	3555.27
446.71	5115.83
446.91	6109.09
447.12	6733.72
447.32	7331.73
447.53	7391.12
447.73	6061.99
447.93	5353.39
448.14	5162.93
448.34	5558.19
448.55	4491.20
448.75	4368.32
448.96	4044.74
449.16	4194.24
449.36	4024.26
449.57	3450.83
449.77	3262.41
449.98	3276.75
450.18	3575.75
450.39	3041.23
450.59	3434.44
450.79	3375.05
451.00	3229.65
451.20	3360.72
451.41	3172.30
451.61	3557.32
451.81	3397.58
452.02	3106.77
452.22	3198.93
452.43	3375.05
452.63	3307.47
452.84	3252.17
453.04	3018.71
453.24	3504.07
453.45	3311.57
453.65	3145.68
453.86	3160.02
454.06	3467.21
454.26	3508.17
454.47	3049.43
454.67	3327.95
454.87	3422.16
455.08	3356.62
455.28	3344.33
455.49	3416.01
455.69	3258.32
455.89	3946.44
456.10	3198.93
456.30	3076.05
456.51	3647.43
456.71	3518.41
456.91	3344.33
457.12	3176.40
457.32	3575.75
457.52	3211.22
457.73	3393.48
457.93	3377.10
458.14	3426.25
458.34	3028.95
458.54	3170.26
458.75	3088.34
458.95	3624.90
459.15	3559.37
459.36	3233.74
459.56	3133.39
459.76	3964.87
459.97	3522.51
460.17	3114.96
460.37	3225.55
460.58	3522.51
460.78	3706.82
460.99	3243.98
461.19	3112.91
461.39	3336.14
461.60	3418.06
461.80	3160.02
462.00	3076.05
462.21	3430.35
462.41	3235.79
462.61	3157.97
462.82	2942.93
463.02	3553.23
463.22	3459.02
463.43	3225.55
463.63	3094.48
463.83	3723.21
464.04	3555.27
464.24	3172.30
464.44	3174.35
464.64	3536.84
464.85	3598.28
465.05	3209.17
465.25	3078.10
465.46	3321.81
465.66	3540.94
465.86	3246.03
466.07	3082.19
466.27	3442.64
466.47	3078.10
466.68	2957.27
466.88	3307.47
467.08	3600.33
467.29	3684.30
467.49	3133.39
467.69	3278.80
467.89	3635.14
468.10	3405.77
468.30	3303.37
468.50	3256.27
468.71	3680.20
468.91	3057.62
469.11	3413.96
469.31	3278.80
469.52	3280.85
469.72	3944.39
469.92	3436.49
470.13	3203.02
470.33	3405.77
470.53	3526.60
470.73	3518.41
470.94	3885.00
471.14	4026.31
471.34	4558.78
471.54	3995.59
471.75	3925.96
471.95	3786.69
472.15	3794.89
472.36	3758.02
472.56	3504.07
472.76	4016.07
472.96	3864.52
473.17	3395.53
473.37	3196.88
473.57	3397.58
473.77	3674.06
473.98	3303.37
474.18	3098.58
474.38	4083.65
474.58	3262.41
474.79	3069.91
474.99	3321.81
475.19	3680.20
475.39	3211.22
475.60	3237.84
475.80	3192.78
476.00	3499.98
476.20	3342.28
476.41	3274.70
476.61	3258.32
476.81	3735.50
477.01	3327.95
477.21	3540.94
477.42	3235.79
477.62	3342.28
477.82	3641.29
478.02	3133.39
478.23	3172.30
478.43	3276.75
478.63	3397.58
478.83	3237.84
479.03	3246.03
479.24	3839.94
479.44	3899.33
479.64	3123.15
479.84	2953.17
480.04	3327.95
480.25	3549.13
480.45	3200.98
480.65	3092.43
480.85	3719.11
481.06	3241.93
481.26	3309.52
481.46	3174.35
481.66	3549.13
481.86	3315.66
482.06	3354.57
482.27	3194.83
482.47	3291.09
482.67	3524.55
482.87	3221.45
483.07	3221.45
483.28	3323.85
483.48	3131.34
483.68	3200.98
483.88	3057.62
484.08	3016.66
484.29	3237.84
484.49	3196.88
484.69	3002.32
484.89	3790.79
485.09	3717.06
485.29	3155.92
485.50	3293.13
485.70	3387.34
485.90	3753.93
486.10	3270.61
486.30	3162.06
486.50	3764.17
486.71	3485.64
486.91	3217.36
487.11	3243.98
487.31	3164.11
487.51	3590.09
487.71	3141.58
487.91	3098.58
488.12	3248.08
488.32	2863.06
488.52	3196.88
488.72	2883.54
488.92	3532.75
489.12	3692.49
489.32	3336.14
489.53	3180.50
489.73	3153.87
489.93	3827.65
490.13	3198.93
490.33	3035.09
490.53	3555.27
490.73	3790.79
490.94	3022.80
491.14	3276.75
491.34	3528.65
491.54	3487.69
491.74	4059.07
491.94	4499.39
492.14	5011.38
492.34	5160.88
492.54	4667.32
492.75	4110.27
492.95	4376.51
493.15	4140.99
493.35	3811.27
493.55	3733.45
493.75	3772.36
493.95	3942.34
494.15	3407.82
494.35	3266.51
494.56	3434.44
494.76	3327.95
494.96	3338.19
495.16	3076.05
495.36	3436.49
495.56	3448.78
495.76	3205.07
495.96	3149.78
496.16	3241.93
496.36	3919.81
496.56	3143.63
496.77	3254.22
496.97	3426.25
497.17	3743.69
497.37	2979.79
497.57	3280.85
497.77	3491.79
497.97	3188.69
498.17	3190.74
498.37	3133.39
498.57	3551.18
498.77	3348.43
498.97	3405.77
499.17	3581.90
499.38	3360.72
499.58	3526.60
499.78	3379.15
499.98	3346.38
500.18	3362.76
500.38	3254.22
500.58	3344.33
500.78	3672.01
500.98	5967.78
501.18	7712.65
501.38	9056.12
501.58	9901.93
501.78	9867.11
501.98	8443.78
502.18	7059.35
502.38	6121.38
502.58	6217.63
502.78	5453.74
502.98	5121.97
503.18	4992.95
503.38	4943.80
503.59	4179.90
503.79	4005.83
503.99	3624.90
504.19	3962.82
504.39	3987.40
504.59	3557.32
504.79	3569.61
504.99	4024.26
505.19	3612.62
505.39	3381.20
505.59	3526.60
505.79	3835.85
505.99	3612.62
506.19	3264.46
506.39	3456.97
506.59	3393.48
506.79	3237.84
506.99	3418.06
507.19	3063.76
507.39	3528.65
507.59	3149.78
507.79	3205.07
507.99	3160.02
508.19	3407.82
508.39	3293.13
508.59	3184.59
508.79	3237.84
508.99	3971.01
509.19	3299.28
509.39	3174.35
509.59	3061.71
509.79	3256.27
509.99	3524.55
510.19	3303.37
510.39	3334.09
510.59	3551.18
510.79	3385.29
510.99	2981.84
511.19	3012.56
511.39	3782.60
511.59	3712.97
511.79	3313.61
511.99	3123.15
512.19	3815.37
512.38	3477.45
512.58	3182.54
512.78	3051.47
512.98	3698.63
513.18	3778.50
513.38	3135.44
513.58	3231.69
513.78	3432.40
513.98	3416.01
514.18	3188.69
514.38	3182.54
514.58	3512.27
514.78	3305.42
514.98	3102.67
515.18	3121.10
515.38	3254.22
515.58	3805.13
515.78	3100.62
515.98	3114.96
516.18	3557.32
516.38	3389.39
516.57	3119.06
516.77	3082.19
516.97	3622.86
517.17	3325.90
517.37	2961.36
517.57	3131.34
517.77	3436.49
517.97	3307.47
518.17	3168.21
518.37	3090.38
518.57	3311.57
518.77	3305.42
518.97	3131.34
519.16	3182.54
519.36	3809.22
519.56	3289.04
519.76	3108.82
519.96	3190.74
520.16	3749.83
520.36	3237.84
520.56	3344.33
520.76	3100.62
520.96	3373.00
521.16	3598.28
521.35	3360.72
521.55	3336.14
521.75	3418.06
521.95	3393.48
522.15	3037.14
522.35	3061.71
522.55	3368.91
522.75	3608.52
522.95	3141.58
523.14	3026.90
523.34	3401.68
523.54	3266.51
523.74	3274.70
523.94	3323.85
524.14	3166.16
524.34	3434.44
524.54	3364.81
524.73	3139.54
524.93	3624.90
525.13	3487.69
525.33	3082.19
525.53	3360.72
525.73	3575.75
525.93	3475.40
526.13	3188.69
526.32	3074.00
526.52	3616.71
526.72	3721.16
526.92	3256.27
527.12	3088.34
527.32	3176.40
527.52	3526.60
527.71	3221.45
527.91	3264.46
528.11	3315.66
528.31	3471.31
528.51	3143.63
528.71	3332.05
528.90	3612.62
529.10	3653.58
529.30	3200.98
529.50	2985.94
529.70	3520.46
529.90	3299.28
530.09	3123.15
530.29	3004.37
530.49	3256.27
530.69	4081.60
530.89	3379.15
531.09	3250.13
531.28	3356.62
531.48	3723.21
531.68	3188.69
531.88	3157.97
532.08	3631.05
532.28	3401.68
532.47	3246.03
532.67	3235.79
532.87	3516.36
533.07	3284.94
533.27	3215.31
533.46	3229.65
533.66	3467.21
533.86	3393.48
534.06	3223.50
534.26	3110.86
534.45	3344.33
534.65	3643.34
534.85	3268.56
535.05	3057.62
535.25	3655.62
535.44	3086.29
535.64	3250.13
535.84	3211.22
536.04	3311.57
536.24	3366.86
536.43	3139.54
536.63	3168.21
536.83	3444.68
537.03	3442.64
537.22	2992.08
537.42	3008.47
537.62	3553.23
537.82	3264.46
538.02	3379.15
538.21	3252.17
538.41	3987.40
538.61	3590.09
538.81	3246.03
539.00	3286.99
539.20	3076.05
539.40	3426.25
539.60	3203.02
539.79	3418.06
539.99	3407.82
540.19	3272.65
540.39	3041.23
540.58	3215.31
540.78	3682.25
540.98	3463.12
541.18	3465.16
541.37	3200.98
541.57	3366.86
541.77	3571.66
541.97	3067.86
542.16	3033.04
542.36	3385.29
542.56	3622.86
542.76	3260.37
542.95	3256.27
543.15	3590.09
543.35	3510.22
543.54	3086.29
543.74	3033.04
543.94	3747.78
544.14	3305.42
544.33	3303.37
544.53	3127.25
544.73	3323.85
544.93	3356.62
545.12	3121.10
545.32	3219.41
545.52	3336.14
545.71	3170.26
545.91	3129.30
546.11	3121.10
546.30	3284.94
546.50	3461.07
546.70	3319.76
546.90	3162.06
547.09	3074.00
547.29	3469.26
547.49	3385.29
547.68	3184.59
547.88	3358.67
548.08	3635.14
548.27	3430.35
548.47	3110.86
548.67	3407.82
548.87	3514.31
549.06	3166.16
549.26	3084.24
549.46	3538.89
549.65	3344.33
549.85	3160.02
550.05	3164.11
550.24	3164.11
550.44	3436.49
550.64	3194.83
550.83	3262.41
551.03	3743.69
551.23	3616.71
551.42	3215.31
551.62	3268.56
551.82	3436.49
552.01	3334.09
552.21	3491.79
552.41	3264.46
552.60	3624.90
552.80	3401.68
553.00	3172.30
553.19	3235.79
553.39	3841.99
553.59	3209.17
553.78	3362.76
553.98	3139.54
554.17	3182.54
554.37	3493.83
554.57	3262.41
554.76	3033.04
554.96	3364.81
555.16	3403.72
555.35	3274.70
555.55	3327.95
555.75	3473.36
555.94	3545.03
556.14	3018.71
556.33	3157.97
556.53	3487.69
556.73	3381.20
556.92	3139.54
557.12	3065.81
557.32	3915.72
557.51	3790.79
557.71	3166.16
557.90	3346.38
558.10	3717.06
558.30	3293.13
558.49	3256.27
558.69	3065.81
558.88	3545.03
559.08	3534.79
559.28	3127.25
559.47	3291.09
559.67	3592.14
559.86	3860.42
560.06	3166.16
560.26	3147.73
560.45	3594.19
560.65	3459.02
560.84	3479.50
561.04	3125.20
561.24	3563.47
561.43	3139.54
561.63	3397.58
561.82	3356.62
562.02	3588.04
562.22	3205.07
562.41	3069.91
562.61	3164.11
562.80	3227.60
563.00	3973.06
563.19	3303.37
563.39	3321.81
563.59	3622.86
563.78	3235.79
563.98	2994.13
564.17	3184.59
564.37	3067.86
564.56	3389.39
564.76	3131.34
564.96	3252.17
565.15	3485.64
565.35	3983.30
565.54	3211.22
565.74	3278.80
565.93	3549.13
566.13	3370.96
566.32	3237.84
566.52	3303.37
566.71	3379.15
566.91	3667.91
567.11	3223.50
567.30	3059.67
567.50	3465.16
567.69	3557.32
567.89	3172.30
568.08	3035.09
568.28	3432.40
568.47	3139.54
568.67	3162.06
568.86	3133.39
569.06	3600.33
569.25	3336.14
569.45	3035.09
569.64	3272.65
569.84	3475.40
570.04	3581.90
570.23	3188.69
570.43	3237.84
570.62	3461.07
570.82	3770.31
571.01	3028.95
571.21	3180.50
571.40	3264.46
571.60	3549.13
571.79	3225.55
571.99	3155.92
572.18	3229.65
572.38	3395.53
572.57	3307.47
572.77	3221.45
572.96	3977.16
573.16	3524.55
573.35	3233.74
573.55	3346.38
573.74	3426.25
573.94	3389.39
574.13	3141.58
574.33	3401.68
574.52	3610.57
574.71	3405.77
574.91	3119.06
575.10	3074.00
575.30	3340.24
575.49	3268.56
575.69	3108.82
575.88	3114.96
576.08	3358.67
576.27	3581.90
576.47	3076.05
576.66	3340.24
576.86	3727.30
577.05	3461.07
577.25	3260.37
577.44	3352.52
577.64	3336.14
577.83	3663.82
578.02	3194.83
578.22	3268.56
578.41	3831.75
578.61	3354.57
578.80	3086.29
579.00	3207.12
579.19	3430.35
579.39	3493.83
579.58	3356.62
579.77	3237.84
579.97	3719.11
580.16	3686.34
580.36	3338.19
580.55	3237.84
580.75	3512.27
580.94	3426.25
581.13	3325.90
581.33	3430.35
581.52	3430.35
581.72	3864.52
581.91	3266.51
582.11	3129.30
582.30	3614.66
582.49	3508.17
582.69	3493.83
582.88	3196.88
583.08	3502.03
583.27	3657.67
583.47	3256.27
583.66	3246.03
583.85	3258.32
584.05	3485.64
584.24	3293.13
584.44	3155.92
584.63	3598.28
584.82	3678.15
585.02	3459.02
585.21	3321.81
585.41	3606.47
585.60	3401.68
585.79	3377.10
585.99	3487.69
586.18	3530.70
586.37	4429.76
586.57	6580.12
586.76	18321.13
586.96	36666.83
587.15	49575.18
587.34	57470.10
587.54	61084.76
587.73	53581.01
587.93	38739.38
588.12	29849.14
588.31	24546.95
588.51	21825.20
588.70	20373.19
588.89	17846.00
589.09	15357.72
589.28	13301.56
589.47	10303.33
589.67	7784.33
589.86	6145.95
590.06	4956.08
590.25	4540.35
590.44	3880.90
590.64	3551.18
590.83	3672.01
591.02	3626.95
591.22	3254.22
591.41	3209.17
591.60	3393.48
591.80	3999.68
591.99	3020.75
592.18	3164.11
592.38	3676.10
592.57	3356.62
592.76	3155.92
592.96	3323.85
593.15	3340.24
593.34	3631.05
593.54	3194.83
593.73	3325.90
593.92	3583.95
594.12	3545.03
594.31	3221.45
594.50	3377.10
594.70	3504.07
594.89	4100.03
595.08	3055.57
595.28	3342.28
595.47	4159.42
595.66	3663.82
595.86	3123.15
596.05	2932.69
596.24	3344.33
596.43	3880.90
596.63	3168.21
596.82	3434.44
597.01	3567.56
597.21	3876.80
597.40	3155.92
597.59	3215.31
597.79	3467.21
597.98	3598.28
598.17	3225.55
598.36	3207.12
598.56	3635.14
598.75	3250.13
598.94	3186.64
599.14	3233.74
599.33	3391.44
599.52	3635.14
599.71	3237.84
599.91	3221.45
600.10	3542.99
600.29	3461.07
600.48	3317.71
600.68	3274.70
600.87	3516.36
601.06	3299.28
601.26	3366.86
601.45	3405.77
601.64	3373.00
601.83	3758.02
602.03	3043.28
602.22	3155.92
602.41	3702.73
602.60	4020.16
602.80	3286.99
602.99	3356.62
603.18	3377.10
603.37	3477.45
603.57	3051.47
603.76	3198.93
603.95	3725.26
604.14	3336.14
604.34	3106.77
604.53	3114.96
604.72	3520.46
604.91	3653.58
605.10	3172.30
605.30	3131.34
605.49	3958.72
605.68	3526.60
605.87	3164.11
606.07	3188.69
606.26	3442.64
606.45	3573.71
606.64	3182.54
606.84	3006.42
607.03	3454.92
607.22	3626.95
607.41	3207.12
607.60	3209.17
607.80	3684.30
607.99	3432.40
608.18	3250.13
608.37	3211.22
608.56	3213.26
608.76	3581.90
608.95	3366.86
609.14	3188.69
609.33	3649.48
609.52	3731.40
609.72	3305.42
609.91	3401.68
610.10	3512.27
610.29	3764.17
610.48	3278.80
610.68	3299.28
610.87	3389.39
611.06	3588.04
611.25	3231.69
611.44	3278.80
611.63	3426.25
611.83	3753.93
612.02	3084.24
612.21	3338.19
612.40	2951.12
612.59	3172.30
612.79	3067.86
612.98	3262.41
613.17	3780.55
613.36	3436.49
613.55	3243.98
613.74	3211.22
613.93	3418.06
614.13	3467.21
614.32	3360.72
614.51	3266.51
614.70	3438.54
614.89	3325.90
615.08	3303.37
615.28	3528.65
615.47	3227.60
615.66	3502.03
615.85	3190.74
616.04	3266.51
616.23	3368.91
616.42	3469.26
616.62	3155.92
616.81	3166.16
617.00	3459.02
617.19	3608.52
617.38	3135.44
617.57	3246.03
617.76	3592.14
617.95	3694.54
618.15	3293.13
618.34	3450.83
618.53	3155.92
618.72	3622.86
618.91	3303.37
619.10	3248.08
619.29	3342.28
619.48	3436.49
619.68	2975.70
619.87	3205.07
620.06	3104.72
620.25	3524.55
620.44	3123.15
620.63	3129.30
620.82	3518.41
621.01	3547.08
621.20	3221.45
621.39	3248.08
621.59	3561.42
621.78	3356.62
621.97	3241.93
622.16	3321.81
622.35	3524.55
622.54	3645.38
622.73	3239.89
622.92	2955.22
623.11	3649.48
623.30	3346.38
623.49	3293.13
623.68	3078.10
623.88	3743.69
624.07	3272.65
624.26	3131.34
624.45	3133.39
624.64	3338.19
624.83	3608.52
625.02	3168.21
625.21	3149.78
625.40	3569.61
625.59	3700.68
625.78	3278.80
625.97	3250.13
626.16	3653.58
626.35	3540.94
626.54	3198.93
626.74	3352.52
626.93	3368.91
627.12	3346.38
627.31	3282.89
627.50	3190.74
627.69	3690.44
627.88	3231.69
628.07	3080.14
628.26	2996.18
628.45	3352.52
628.64	3184.59
628.83	3110.86
629.02	2981.84
629.21	3573.71
629.40	3573.71
629.59	3049.43
629.78	3131.34
629.97	3399.63
630.16	3454.92
630.35	3125.20
630.54	3207.12
630.73	3295.18
630.92	3364.81
631.11	3117.01
631.30	3182.54
631.49	3651.53
631.68	3524.55
631.87	3196.88
632.06	3117.01
632.25	3921.86
632.44	3426.25
632.63	3182.54
632.82	3143.63
633.01	3346.38
633.20	3542.99
633.39	3194.83
633.58	2901.97
633.77	3520.46
633.96	3610.57
634.15	3377.10
634.34	3305.42
634.53	3547.08
634.72	3266.51
634.91	3041.23
635.10	3200.98
635.29	3598.28
635.48	3416.01
635.67	3074.00
635.86	2985.94
636.05	3813.32
636.24	3401.68
636.43	3200.98
636.62	3254.22
636.81	2975.70
637.00	3409.87
637.19	3155.92
637.38	3231.69
637.57	3297.23
637.76	3383.24
637.95	3461.07
638.14	3336.14
638.33	3489.74
638.52	3401.68
638.71	3061.71
638.89	3051.47
639.08	4032.45
639.27	3653.58
639.46	3362.76
639.65	3649.48
639.84	3854.28
640.03	4077.51
640.22	3606.47
640.41	3467.21
640.60	3483.59
640.79	3594.19
640.98	3430.35
641.17	3370.96
641.36	3669.96
641.55	3680.20
641.74	3080.14
641.92	3123.15
642.11	3213.26
642.30	3442.64
642.49	3051.47
642.68	3207.12
642.87	3520.46
643.06	3592.14
643.25	2918.36
643.44	3135.44
643.63	3450.83
643.82	3536.84
644.00	3016.66
644.19	3200.98
644.38	3196.88
644.57	3581.90
644.76	3147.73
644.95	3315.66
645.14	3526.60
645.33	3364.81
645.52	3254.22
645.71	3076.05
645.89	3250.13
646.08	3360.72
646.27	3194.83
646.46	3360.72
646.65	3213.26
646.84	3475.40
647.03	3102.67
647.22	3370.96
647.40	3475.40
647.59	3385.29
647.78	3028.95
647.97	3190.74
648.16	3213.26
648.35	3745.73
648.54	3401.68
648.73	3213.26
648.91	3655.62
649.10	3377.10
649.29	3119.06
649.48	3100.62
649.67	3534.79
649.86	3475.40
650.05	3221.45
650.23	3317.71
650.42	3237.84
650.61	3723.21
650.80	3459.02
650.99	3475.40
651.18	3712.97
651.36	3729.35
651.55	3114.96
651.74	3295.18
651.93	3344.33
652.12	3403.72
652.31	3225.55
652.49	3272.65
652.68	3327.95
652.87	3719.11
653.06	3313.61
653.25	3467.21
653.44	3459.02
653.62	3753.93
653.81	3231.69
654.00	3213.26
654.19	3647.43
654.38	3934.15
654.56	3311.57
654.75	3194.83
654.94	3651.53
655.13	3510.22
655.32	3119.06
655.51	3248.08
655.69	3332.05
655.88	3659.72
656.07	2959.31
656.26	3250.13
656.45	3200.98
656.63	3405.77
656.82	3104.72
657.01	3499.98
657.20	3286.99
657.38	3784.65
657.57	3237.84
657.76	3030.99
657.95	3674.06
658.14	3395.53
658.32	3370.96
658.51	3094.48
658.70	3510.22
658.89	3532.75
659.08	3192.78
659.26	3416.01
659.45	3215.31
659.64	3493.83
659.83	3149.78
660.01	3585.99
660.20	3459.02
660.39	3723.21
660.58	2885.59
660.76	3231.69
660.95	3176.40
661.14	3448.78
661.33	3059.67
661.51	3258.32
661.70	3344.33
661.89	3508.17
662.08	3241.93
662.26	3055.57
662.45	3182.54
662.64	3905.48
662.83	3209.17
663.01	3090.38
663.20	3309.52
663.39	3837.89
663.58	3223.50
663.76	3088.34
663.95	3499.98
664.14	3274.70
664.32	3270.61
664.51	3035.09
664.70	3035.09
664.89	3442.64
665.07	2969.55
665.26	3334.09
665.45	3102.67
665.64	3577.80
665.82	3100.62
666.01	3289.04
666.20	3205.07
666.38	3592.14
666.57	3522.51
666.76	5728.17
666.95	12683.07
667.13	18743.01
667.32	22312.62
667.51	24721.03
667.69	25501.31
667.88	20905.66
668.07	15353.62
668.25	13283.13
668.44	11700.05
668.63	10227.56
668.81	8849.27
669.00	7581.58
669.19	7214.99
669.38	6270.88
669.56	5423.02
669.75	4718.52
669.94	4329.41
670.12	3821.51
670.31	3411.92
670.50	3409.87
670.68	3561.42
670.87	3553.23
671.06	3110.86
671.24	3286.99
671.43	3751.88
671.62	3518.41
671.80	3157.97
671.99	3307.47
672.18	3485.64
672.36	3567.56
672.55	3356.62
672.74	3330.00
672.92	3254.22
673.11	3598.28
673.29	2961.36
673.48	3387.34
673.67	3399.63
673.85	3610.57
674.04	3221.45
674.23	3258.32
674.41	3889.09
674.60	3229.65
674.79	3022.80
674.97	3010.51
675.16	3622.86
675.34	3573.71
675.53	3176.40
675.72	3213.26
675.90	3921.86
676.09	3305.42
676.28	3313.61
676.46	3110.86
676.65	3608.52
676.83	3315.66
677.02	3233.74
677.21	3246.03
677.39	3522.51
677.58	3207.12
677.77	3184.59
677.95	3053.52
678.14	3332.05
678.32	3383.24
678.51	3227.60
678.70	3534.79
678.88	3233.74
679.07	3534.79
679.25	3231.69
679.44	3129.30
679.63	3186.64
679.81	3553.23
680.00	3467.21
680.18	3307.47
680.37	3764.17
680.55	3524.55
680.74	3014.61
680.93	2924.50
681.11	3440.59
681.30	3510.22
681.48	3160.02
681.67	3180.50
681.85	3456.97
682.04	3284.94
682.23	3346.38
682.41	3366.86
682.60	3360.72
682.78	3444.68
682.97	3149.78
683.15	3270.61
683.34	3485.64
683.53	3768.26
683.71	3041.23
683.90	3303.37
684.08	3862.47
684.27	3438.54
684.45	3243.98
684.64	3434.44
684.82	3459.02
685.01	3475.40
685.19	3178.45
685.38	3459.02
685.57	3459.02
685.75	3276.75
685.94	3076.05
686.12	3164.11
686.31	3379.15
686.49	3766.21
686.68	3000.27
686.86	3184.59
687.05	3373.00
687.23	3729.35
687.42	3315.66
687.60	3006.42
687.79	3631.05
687.97	3786.69
688.16	3332.05
688.34	3418.06
688.53	3139.54
688.71	3635.14
688.90	3454.92
689.08	3256.27
689.27	3108.82
689.45	3618.76
689.64	3307.47
689.82	3248.08
690.01	3512.27
690.19	3508.17
690.38	3221.45
690.56	3327.95
690.75	3213.26
690.93	3348.43
691.12	3221.45
691.30	3190.74
691.49	3250.13
691.67	3438.54
691.86	3481.55
692.04	3178.45
692.23	3291.09
692.41	3463.12
692.60	3510.22
692.78	3428.30
692.97	3418.06
693.15	3565.51
693.34	3397.58
693.52	3399.63
693.71	3303.37
693.89	3317.71
694.08	3080.14
694.26	3198.93
694.44	3547.08
694.63	3594.19
694.81	3176.40
695.00	3225.55
695.18	3659.72
695.37	3995.59
695.55	3332.05
695.74	3274.70
695.92	3223.50
696.10	3657.67
696.29	3088.34
696.47	3213.26
696.66	3270.61
696.84	3217.36
697.03	3289.04
697.21	3536.84
697.40	4810.68
697.58	3731.40
697.76	3203.02
697.95	3190.74
698.13	3207.12
698.32	3401.68
698.50	3174.35
698.68	3211.22
698.87	3502.03
699.05	3772.36
699.24	3207.12
699.42	3289.04
699.61	3493.83
699.79	3442.64
699.97	3223.50
700.16	3061.71
700.34	3227.60
700.53	3405.77
700.71	3440.59
700.89	3360.72
701.08	3299.28
701.26	3502.03
701.45	3577.80
701.63	3180.50
701.81	3291.09
702.00	3166.16
702.18	3370.96
702.37	3157.97
702.55	3682.25
702.73	3477.45
702.92	3207.12
703.10	3508.17
703.28	3608.52
703.47	3217.36
703.65	3452.88
703.84	3282.89
704.02	3344.33
704.20	3801.03
704.39	3176.40
704.57	3086.29
704.75	3618.76
704.94	3479.50
705.12	3385.29
705.30	4003.78
705.49	8048.52
705.67	14561.06
705.86	19181.28
706.04	21331.64
706.22	23649.94
706.41	22380.20
706.59	16731.90
706.77	13326.13
706.96	11611.98
707.14	11001.69
707.32	9361.27
707.51	8130.44
707.69	6797.21
707.87	5828.52
708.06	4827.06
708.24	4288.45
708.42	4102.08
708.61	4351.93
708.79	3340.24
708.97	3381.20
709.16	3499.98
709.34	3440.59
709.52	3215.31
709.71	3215.31
709.89	3502.03
710.07	3250.13
710.26	3117.01
710.44	3213.26
710.62	3606.47
710.80	3516.36
710.99	3286.99
711.17	3395.53
711.35	3418.06
711.54	3338.19
711.72	3422.16
711.90	3256.27
712.09	3510.22
712.27	3295.18
712.45	3362.76
712.63	3200.98
712.82	3448.78
713.00	3459.02
713.18	3358.67
713.37	3401.68
713.55	3651.53
713.73	3528.65
713.91	3268.56
714.10	3254.22
714.28	3409.87
714.46	3504.07
714.65	3327.95
714.83	3139.54
715.01	3499.98
715.19	3502.03
715.38	3203.02
715.56	3381.20
715.74	3303.37
715.92	3332.05
716.11	3456.97
716.29	2953.17
716.47	3385.29
716.65	3360.72
716.84	3090.38
717.02	3166.16
717.20	2996.18
717.38	3215.31
717.57	3323.85
717.75	3223.50
717.93	3360.72
718.11	3573.71
718.30	3065.81
718.48	3237.84
718.66	3778.50
718.84	3602.38
719.03	3170.26
719.21	3082.19
719.39	3794.89
719.57	3528.65
719.75	3327.95
719.94	3149.78
720.12	3319.76
720.30	3452.88
720.48	3243.98
720.67	3207.12
720.85	3301.33
721.03	3344.33
721.21	3166.16
721.39	3278.80
721.58	3571.66
721.76	3512.27
721.94	3215.31
722.12	3297.23
722.30	3753.93
722.49	3352.52
722.67	3213.26
722.85	3260.37
723.03	3125.20
723.21	3319.76
723.40	3200.98
723.58	3413.96
723.76	3600.33
723.94	3747.78
724.12	3215.31
724.30	3377.10
724.49	3698.63
724.67	3149.78
724.85	3289.04
725.03	3141.58
725.21	3606.47
725.40	3561.42
725.58	3160.02
725.76	3358.67
725.94	3502.03
726.12	3297.23
726.30	3225.55
726.49	3190.74
726.67	3379.15
726.85	3493.83
727.03	3987.40
727.21	4949.94
727.39	6049.70
727.57	6477.73
727.76	6725.53
727.94	6586.27
728.12	5869.48
728.30	5031.86
728.48	4857.78
728.66	4532.15
728.84	4388.80
729.03	3925.96
729.21	3778.50
729.39	3506.12
729.57	3448.78
729.75	3551.18
729.93	3555.27
730.11	3139.54
730.30	3352.52
730.48	3360.72
730.66	3219.41
730.84	3190.74
731.02	3418.06
731.20	3373.00
731.38	3278.80
731.56	3041.23
731.74	3180.50
731.93	3463.12
732.11	3297.23
732.29	3235.79
732.47	3557.32
732.65	3416.01
732.83	3438.54
733.01	3278.80
733.19	3272.65
733.37	3573.71
733.56	3147.73
733.74	3041.23
733.92	3676.10
734.10	3385.29
734.28	3393.48
734.46	3076.05
734.64	3293.13
734.82	3354.57
735.00	3143.63
735.18	3203.02
735.36	3366.86
735.54	3346.38
735.73	3178.45
735.91	3395.53
736.09	3745.73
736.27	3499.98
736.45	3241.93
736.63	2934.74
736.81	3452.88
736.99	3745.73
737.17	3416.01
737.35	3125.20
737.53	3467.21
737.71	3416.01
737.89	3375.05
738.07	3157.97
738.25	3231.69
738.43	3233.74
738.61	3203.02
738.80	3100.62
738.98	3188.69
739.16	3307.47
739.34	3157.97
739.52	3446.73
739.70	3370.96
739.88	3610.57
740.06	3362.76
740.24	2977.75
740.42	3690.44
740.60	3008.47
740.78	3192.78
740.96	2975.70
741.14	3422.16
741.32	3405.77
741.50	3112.91
741.68	3456.97
741.86	3655.62
742.04	3207.12
742.22	3082.19
742.40	3192.78
742.58	3610.57
742.76	3319.76
742.94	3493.83
743.12	2996.18
743.30	3450.83
743.48	3516.36
743.66	3147.73
743.84	3221.45
744.02	3323.85
744.20	3483.59
744.38	3055.57
744.56	3119.06
744.74	3839.94
744.92	3579.85
745.10	3446.73
745.28	3223.50
745.46	3708.87
745.64	3463.12
745.82	3239.89
746.00	3221.45
746.18	3579.85
746.36	3237.84
746.54	3303.37
746.72	3243.98
746.90	3184.59
747.08	3704.78
747.26	3186.64
747.44	3286.99
747.62	3567.56
747.80	3555.27
747.98	3280.85
748.15	3186.64
748.33	3848.13
748.51	3491.79
748.69	3295.18
748.87	3039.19
749.05	3295.18
749.23	3399.63
749.41	3147.73
749.59	3155.92
749.77	3559.37
749.95	3375.05
750.13	3157.97
750.31	3262.41
750.49	3411.92
750.67	3538.89
750.85	3342.28
751.03	3243.98
751.20	3889.09
751.38	3487.69
751.56	3364.81
751.74	3229.65
751.92	3389.39
752.10	3147.73
752.28	3411.92
752.46	3225.55
752.64	3444.68
752.82	3397.58
753.00	3295.18
753.18	3157.97
753.35	3424.20
753.53	3332.05
753.71	3082.19
753.89	3141.58
754.07	3475.40
754.25	3663.82
754.43	3276.75
754.61	3051.47
754.79	3542.99
754.97	3352.52
755.14	3368.91
755.32	3114.96
755.50	3411.92
755.68	3504.07
755.86	3141.58
756.04	3141.58
756.22	3028.95
756.40	3622.86
756.57	3532.75
756.75	3172.30
756.93	3680.20
757.11	3635.14
757.29	3078.10
757.47	3174.35
757.65	3096.53
757.82	2854.87
758.00	3088.34
758.18	3184.59
758.36	3282.89
758.54	3837.89
758.72	2983.89
758.90	3321.81
759.07	3590.09
759.25	3250.13
759.43	3286.99
759.61	3063.76
759.79	4515.77
759.97	3696.58
760.15	3268.56
760.32	3168.21
760.50	3516.36
760.68	3852.23
760.86	3084.24
761.04	3491.79
761.22	3631.05
761.39	3479.50
761.57	3352.52
761.75	3182.54
761.93	3549.13
762.11	3403.72
762.28	3346.38
762.46	3090.38
762.64	3682.25
762.82	3145.68
763.00	3127.25
763.18	3354.57
763.35	3106.77
763.53	3598.28
763.71	3303.37
763.89	3153.87
764.07	3418.06
764.24	3426.25
764.42	3340.24
764.60	3264.46
764.78	3542.99
764.96	3598.28
765.13	3442.64
765.31	3055.57
765.49	3631.05
765.67	3137.49
765.84	3106.77
766.02	3239.89
766.20	3051.47
766.38	3520.46
766.56	3266.51
766.73	3352.52
766.91	3416.01
767.09	3430.35
767.27	3272.65
767.44	3141.58
767.62	3602.38
767.80	3418.06
767.98	3102.67
768.15	3266.51
768.33	3612.62
768.51	3655.62
768.69	3360.72
768.87	3125.20
769.04	3397.58
769.22	4067.27
769.40	3293.13
769.58	3311.57
769.75	3536.84
769.93	3710.92
770.11	3319.76
770.28	3024.85
770.46	3604.42
770.64	3481.55
770.82	3129.30
770.99	3090.38
771.17	3612.62
771.35	3397.58
771.53	3286.99
771.70	3137.49
771.88	3557.32
772.06	3487.69
772.23	3100.62
772.41	3221.45
772.59	3381.20
772.77	3258.32
772.94	3239.89
773.12	3264.46
773.30	3346.38
773.47	3401.68
773.65	3127.25
773.83	3397.58
774.01	3409.87
774.18	3010.51
774.36	3268.56
774.54	3047.38
774.71	3471.31
774.89	3074.00
775.07	3006.42
775.24	3262.41
775.42	3342.28
775.60	3829.70
775.78	3207.12
775.95	3069.91
776.13	3098.58
776.31	3069.91
776.48	3426.25
776.66	3405.77
776.84	3317.71
777.01	3258.32
777.19	3160.02
777.37	3078.10
777.54	3614.66
777.72	3905.48
777.90	3260.37
778.07	3164.11
778.25	4163.52
778.43	3645.38
778.60	3203.02
778.78	3305.42
778.96	3749.83
779.13	3215.31
779.31	3229.65
779.49	3278.80
779.66	3510.22
779.84	3420.11
780.01	3176.40
780.19	3071.95
780.37	3700.68
780.54	3624.90
780.72	3024.85
780.90	3192.78
781.07	3393.48
781.25	3260.37
781.43	3385.29
781.60	3192.78
781.78	3698.63
781.95	3504.07
782.13	3284.94
782.31	3188.69
782.48	3078.10
782.66	3434.44
782.83	3481.55
783.01	3295.18
783.19	3692.49
783.36	3385.29
783.54	3067.86
783.72	3260.37
783.89	3260.37
784.07	3420.11
784.24	3260.37
784.42	3338.19
784.60	3385.29
784.77	3491.79
784.95	2901.97
785.12	3188.69
785.30	3401.68
785.47	3209.17
785.65	3127.25
785.83	3346.38
786.00	3377.10
786.18	3364.81
786.35	3061.71
786.53	3162.06
786.71	3598.28
786.88	3497.93
787.06	3260.37
787.23	3297.23
787.41	3248.08
787.58	3305.42
787.76	3074.00
787.94	3235.79
788.11	3588.04
788.29	3119.06
788.46	3192.78
788.64	3061.71
788.81	3391.44
788.99	3184.59
789.16	3155.92
789.34	3241.93
789.52	3237.84
789.69	3254.22
789.87	2975.70
790.04	3229.65
790.22	3469.26
790.39	3950.53
790.57	3125.20
790.74	3057.62
790.92	3645.38
791.09	3162.06
791.27	3301.33
791.44	3264.46
791.62	3409.87
791.79	3596.23
791.97	3286.99
792.15	3475.40
792.32	3504.07
792.50	3538.89
792.67	3387.34
792.85	3532.75
793.02	3508.17
793.20	3401.68
793.37	3024.85
793.55	3041.23
793.72	3153.87
793.90	3563.47
794.07	3160.02
794.25	3151.82
794.42	3426.25
794.60	3313.61
794.77	3295.18
794.95	3338.19
795.12	3573.71
795.30	3391.44
795.47	2998.23
795.65	3522.51
795.82	3534.79
796.00	3262.41
796.17	3330.00
796.34	3098.58
796.52	3491.79
796.69	3702.73
796.87	3305.42
797.04	3336.14
797.22	3684.30
797.39	3567.56
797.57	3321.81
797.74	3264.46
797.92	3553.23
798.09	3303.37
798.27	3520.46
798.44	3172.30
798.62	3272.65
798.79	3508.17
798.96	3395.53
799.14	3190.74
799.31	4038.59
799.49	3391.44
799.66	3198.93
799.84	3246.03
800.01	3170.26
800.19	3534.79
800.36	3043.28
800.53	3239.89
800.71	3581.90
800.88	3762.12
801.06	3162.06
801.23	3151.82
801.41	3348.43
801.58	3387.34
801.75	3180.50
801.93	3209.17
802.10	3602.38
802.28	3260.37
802.45	3225.55
802.63	3366.86
802.80	3809.22
802.97	3293.13
803.15	3278.80
803.32	3166.16
803.50	3221.45
803.67	3278.80
803.84	3131.34
804.02	3321.81
804.19	3368.91
804.37	2944.98
804.54	3065.81
804.71	3090.38
804.89	3409.87
805.06	3227.60
805.24	3074.00
805.41	3026.90
805.58	3303.37
805.76	3909.57
805.93	3207.12
806.10	3346.38
806.28	3585.99
806.45	3409.87
806.63	3364.81
806.80	3313.61
806.97	3528.65
807.15	3434.44
807.32	3348.43
807.49	3174.35
807.67	3153.87
807.84	3459.02
808.01	3022.80
808.19	3358.67
808.36	3889.09
808.54	3297.23
808.71	3209.17
808.88	3114.96
809.06	3635.14
809.23	3764.17
809.40	3280.85
809.58	3200.98
809.75	3495.88
809.92	3266.51
810.10	3397.58
810.27	3172.30
810.44	3473.36
810.62	3710.92
810.79	3270.61
810.96	3182.54
811.14	3325.90
811.31	3596.23
811.48	3231.69
811.66	3299.28
811.83	3766.21
812.00	3542.99
812.18	3254.22
812.35	3481.55
812.52	3354.57
812.69	3313.61
812.87	3233.74
813.04	3139.54
813.21	3424.20
813.39	3248.08
813.56	3174.35
813.73	3469.26
813.91	3114.96
814.08	3379.15
814.25	3241.93
814.42	3049.43
814.60	3360.72
814.77	3385.29
814.94	3129.30
815.12	3246.03
815.29	3764.17
815.46	3262.41
815.63	3217.36
815.81	3203.02
815.98	3368.91
816.15	3405.77
816.33	3276.75
816.50	3213.26
816.67	3409.87
816.84	3461.07
817.02	3059.67
817.19	3239.89
817.36	3473.36
817.53	3536.84
817.71	3104.72
817.88	3133.39
818.05	3352.52
818.22	3377.10
818.40	3352.52
818.57	3147.73
818.74	3506.12
818.91	3348.43
819.09	3332.05
819.26	3340.24
819.43	3344.33
819.60	3248.08
819.78	3416.01
819.95	3215.31
820.12	3227.60
820.29	3794.89
820.47	3545.03
820.64	3170.26
820.81	3117.01
820.98	3219.41
821.15	3200.98
821.33	3266.51
821.50	3133.39
821.67	3526.60
821.84	3123.15
822.02	3207.12
822.19	3588.04
822.36	3237.84
822.53	3071.95
822.70	3033.04
822.88	3391.44
823.05	3739.59
823.22	3221.45
823.39	3178.45
823.56	3424.20
823.74	3862.47
823.91	3063.76
824.08	3157.97
824.25	3164.11
824.42	3772.36
824.60	3106.77
824.77	3207.12
824.94	3307.47
825.11	3565.51
825.28	3045.33
825.45	3325.90
825.63	3495.88
825.80	3196.88
825.97	3334.09
826.14	3342.28
826.31	3100.62
826.48	3489.74
826.66	3186.64
826.83	3108.82
827.00	3377.10
827.17	3289.04
827.34	3270.61
827.51	3143.63
827.69	3370.96
827.86	3063.76
828.03	3217.36
828.20	3139.54
828.37	3256.27
828.54	3559.37
828.71	3125.20
828.89	3295.18
829.06	3585.99
829.23	3698.63
829.40	3182.54
829.57	3147.73
829.74	3540.94
829.91	3280.85
830.09	3182.54
830.26	3301.33
830.43	3835.85
830.60	3426.25
830.77	3284.94
830.94	3366.86
831.11	3661.77
831.28	3381.20
831.46	3330.00
831.63	3227.60
831.80	3706.82
831.97	3344.33
832.14	3229.65
832.31	3180.50
832.48	3397.58
832.65	3672.01
832.82	3303.37
832.99	3241.93
833.17	3203.02
833.34	3663.82
833.51	3086.29
833.68	2942.93
833.85	3592.14
834.02	3209.17
834.19	3119.06
834.36	3284.94
834.53	3510.22
834.70	3680.20
834.87	3184.59
835.04	2895.83
835.22	3213.26
835.39	3377.10
835.56	3026.90
835.73	2951.12
835.90	3721.16
836.07	3213.26
836.24	3200.98
836.41	3012.56
836.58	3262.41
836.75	3649.48
836.92	3035.09
837.09	2983.89
837.26	3612.62
837.43	3532.75
837.60	3016.66
837.77	3049.43
837.94	3631.05
838.12	3688.39
838.29	2975.70
838.46	2893.78
838.63	3147.73
838.80	3876.80
838.97	3110.86
839.14	2914.26
839.31	3469.26
839.48	3518.41
839.65	3117.01
839.82	3108.82
839.99	3375.05
840.16	3463.12
840.33	2899.92
840.50	3157.97
840.67	3278.80
840.84	2994.13
841.01	2959.31
841.18	2967.51
841.35	3387.34
841.52	3477.45
841.69	3262.41
841.86	3026.90
842.03	3379.15
842.20	3626.95
842.37	3053.52
842.54	3067.86
842.71	3434.44
842.88	3143.63
843.05	2930.64
843.22	3047.38
843.39	3635.14
843.56	3280.85
843.73	2969.55
843.90	3141.58
844.07	3381.20
844.24	3643.34
844.41	3131.34
844.58	2996.18
844.75	3424.20
844.92	3524.55
845.09	3035.09
845.26	3024.85
845.43	3633.10
845.60	3381.20
845.77	3160.02
845.94	3098.58
846.10	3622.86
846.27	3186.64
846.44	2922.45
846.61	2848.72
846.78	3497.93
846.95	3651.53
847.12	3002.32
847.29	2959.31
847.46	3223.50
847.63	3618.76
847.80	2942.93
847.97	3074.00
848.14	3958.72
848.31	3340.24
848.48	2846.68
848.65	3049.43
848.82	3317.71
848.98	3921.86
849.15	3174.35
849.32	3123.15
849.49	3643.34
849.66	3397.58
849.83	2969.55
850.00	2961.36
850.17	3643.34
850.34	3362.76
850.51	2928.60
850.68	3074.00
850.85	3866.56
851.01	3518.41
851.18	3000.27
851.35	3108.82
851.52	3557.32
851.69	3733.45
851.86	2953.17
852.03	2969.55
852.20	3536.84
852.37	3459.02
852.53	2928.60
852.70	2910.16
852.87	3454.92
853.04	3700.68
853.21	2977.75
853.38	3327.95
853.55	3631.05
853.72	3731.40
853.89	2867.16
854.05	3014.61
854.22	3430.35
854.39	3276.75
854.56	2967.51
854.73	3196.88
854.90	3178.45
855.07	3368.91
855.23	2928.60
855.40	2936.79
855.57	3442.64
855.74	3051.47
855.91	3225.55
856.08	2861.01
856.25	3182.54
856.41	3340.24
856.58	2947.03
856.75	3030.99
856.92	3225.55
857.09	3721.16
857.26	2910.16
857.42	3051.47
857.59	3565.51
857.76	3350.48
857.93	3028.95
858.10	3123.15
858.27	3190.74
858.43	3547.08
858.60	3022.80
858.77	2916.31
858.94	3364.81
859.11	3585.99
859.27	3106.77
859.44	2934.74
859.61	3885.00
859.78	3624.90
859.95	3084.24
860.12	3000.27
860.28	3940.29
860.45	3891.14
860.62	3030.99
860.79	3180.50
860.95	3313.61
861.12	3258.32
861.29	2901.97
861.46	2996.18
861.63	3420.11
861.79	3524.55
861.96	2942.93
862.13	2983.89
862.30	3667.91
862.47	3327.95
862.63	2854.87
862.80	3131.34
862.97	3704.78
863.14	3461.07
863.30	3110.86
863.47	2940.88
863.64	3786.69
863.81	3551.18
863.97	2875.35
864.14	3037.14
864.31	3370.96
864.48	3401.68
864.65	3057.62
864.81	3110.86
864.98	3512.27
865.15	3633.10
865.32	3088.34
865.48	3088.34
865.65	3717.06
865.82	3385.29
865.98	3133.39
866.15	3043.28
866.32	3373.00
866.49	3323.85
866.65	3133.39
866.82	3069.91
866.99	3364.81
867.16	3231.69
867.32	3045.33
867.49	2926.55
867.66	3385.29
867.83	3325.90
867.99	2957.27
868.16	3057.62
868.33	3086.29
868.49	3385.29
868.66	3055.57
868.83	3086.29
868.99	3512.27
869.16	3399.63
869.33	3172.30
869.50	3106.77
869.66	3450.83
869.83	3450.83
870.00	2901.97
870.16	3145.68
870.33	3379.15
870.50	3643.34
870.66	3041.23
870.83	3028.95
871.00	3444.68
871.17	3499.98
871.33	3053.52
871.50	3033.04
871.67	3403.72
871.83	3362.76
872.00	3090.38
872.17	3039.19
872.33	3768.26
872.50	3694.54
872.67	3006.42
872.83	2983.89
873.00	3526.60
873.17	3489.74
873.33	3006.42
873.50	3049.43
873.67	3303.37
873.83	3176.40
874.00	3055.57
874.16	3135.44
874.33	3499.98
874.50	3200.98
874.66	3041.23
874.83	3155.92
875.00	3641.29
875.16	3590.09
875.33	3057.62
875.50	2783.19
875.66	3309.52
875.83	3487.69
875.99	3127.25
876.16	3076.05
876.33	3250.13
876.49	3272.65
876.66	2983.89
876.83	3033.04
876.99	3049.43
877.16	3411.92
877.32	3028.95
877.49	3184.59
877.66	3530.70
877.82	3747.78
877.99	3168.21
878.15	3389.39
878.32	3475.40
878.49	3430.35
878.65	3157.97
878.82	3241.93
878.98	3266.51
879.15	3643.34
879.32	3213.26
879.48	3270.61
879.65	3381.20
879.81	3346.38
879.98	3074.00
880.15	3090.38
880.31	3655.62
880.48	3215.31
880.64	3155.92
880.81	3164.11
880.97	3786.69
881.14	3647.43
881.31	2969.55
881.47	3153.87
881.64	3305.42
881.80	3114.96
881.97	3239.89
882.13	3063.76
882.30	3205.07
882.47	3198.93
882.63	2998.23
882.80	3016.66
882.96	3348.43
883.13	3635.14
883.29	3063.76
883.46	2967.51
883.62	3880.90
883.79	3395.53
883.95	3200.98
884.12	3004.37
884.29	3704.78
884.45	3516.36
884.62	3088.34
884.78	3020.75
884.95	3788.74
885.11	3153.87
885.28	3174.35
885.44	3059.67
885.61	3647.43
885.77	3710.92
885.94	3184.59
886.10	3059.67
886.27	3514.31
886.43	3790.79
886.60	3194.83
886.76	3090.38
886.93	3276.75
887.09	3506.12
887.26	3012.56
887.42	3123.15
887.59	3721.16
887.75	3887.04
887.92	3319.76
888.08	3192.78
888.25	3813.32
888.41	3663.82
888.58	3178.45
888.74	2969.55
888.91	3373.00
>>>>>End Processed Spectral Data<<<<<
