SpectraSuite Data File
++++++++++++++++++++++++++++++++++++
Date: Fri May 06 09:29:14 CEST 2016
User: root
Dark Spectrum Present: No
Reference Spectrum Present: No
Number of Sampled Component Spectra: 1
Spectrometers: USB4C02835
Integration Time (usec): 100000 (USB4C02835)
Spectra Averaged: 1 (USB4C02835)
Boxcar Smoothing: 0 (USB4C02835)
Correct for Electrical Dark: No (USB4C02835)
Strobe/Lamp Enabled: No (USB4C02835)
Correct for Detector Non-linearity: No (USB4C02835)
Correct for Stray Light: No (USB4C02835)
Number of Pixels in Processed Spectrum: 3648
>>>>>Begin Processed Spectral Data<<<<<
177.47	2373.60
177.69	2373.60
177.91	2373.60
178.13	2293.72
178.36	2349.02
178.58	3131.34
178.80	3243.98
179.02	3114.96
179.24	3209.17
179.46	2824.15
179.68	3071.95
179.90	3430.35
180.13	3485.64
180.35	2748.37
180.57	2947.03
180.79	3567.56
181.01	3438.54
181.23	3033.04
181.45	3114.96
181.67	3557.32
181.90	3614.66
182.12	2985.94
182.34	2852.82
182.56	3497.93
182.78	3573.71
183.00	2967.51
183.22	2904.02
183.44	3069.91
183.66	4108.23
183.89	3069.91
184.11	2926.55
184.33	3598.28
184.55	3540.94
184.77	2940.88
184.99	3004.37
185.21	3356.62
185.43	4116.42
185.65	3041.23
185.87	2926.55
186.10	4052.93
186.32	3948.48
186.54	2955.22
186.76	3096.53
186.98	3680.20
187.20	3467.21
187.42	3002.32
187.64	2938.84
187.86	3592.14
188.08	3676.10
188.30	2914.26
188.52	3026.90
188.75	3803.08
188.97	3674.06
189.19	2922.45
189.41	2854.87
189.63	3567.56
189.85	3389.39
190.07	2869.20
190.29	2838.48
190.51	3485.64
190.73	3198.93
190.95	3270.61
191.17	3018.71
191.39	3108.82
191.61	3330.00
191.84	3016.66
192.06	3129.30
192.28	3145.68
192.50	4175.81
192.72	3180.50
192.94	3076.05
193.16	3723.21
193.38	3549.13
193.60	2910.16
193.82	3057.62
194.04	3669.96
194.26	3471.31
194.48	3012.56
194.70	2942.93
194.92	3338.19
195.14	3592.14
195.36	2910.16
195.58	3057.62
195.80	3426.25
196.02	3274.70
196.24	2953.17
196.46	3028.95
196.69	3393.48
196.91	4050.88
197.13	2920.40
197.35	3049.43
197.57	3813.32
197.79	3563.47
198.01	3100.62
198.23	2979.79
198.45	3575.75
198.67	3125.20
198.89	2830.29
199.11	3035.09
199.33	3295.18
199.55	3008.47
199.77	2934.74
199.99	3160.02
200.21	3368.91
200.43	3549.13
200.65	2820.05
200.87	2781.14
201.09	3446.73
201.31	3430.35
201.53	2938.84
201.75	3074.00
201.97	3491.79
202.19	3479.50
202.41	3141.58
202.63	3033.04
202.85	3585.99
203.07	3495.88
203.29	3020.75
203.51	2850.77
203.73	3338.19
203.95	4024.26
204.17	2906.07
204.39	3133.39
204.61	3504.07
204.83	3354.57
205.05	3160.02
205.27	2992.08
205.49	3968.96
205.71	3444.68
205.93	2772.95
206.15	2918.36
206.37	3485.64
206.59	3430.35
206.81	2760.66
207.03	2850.77
207.25	3299.28
207.47	3655.62
207.69	3047.38
207.91	3188.69
208.13	3856.33
208.34	3344.33
208.56	2910.16
208.78	3057.62
209.00	3385.29
209.22	3368.91
209.44	2985.94
209.66	2926.55
209.88	3422.16
210.10	3436.49
210.32	2977.75
210.54	3004.37
210.76	3383.24
210.98	3682.25
211.20	2852.82
211.42	3059.67
211.64	3801.03
211.86	3579.85
212.08	3057.62
212.30	3016.66
212.52	3352.52
212.74	3532.75
212.96	3123.15
213.17	3106.77
213.39	3645.38
213.61	3897.28
213.83	2910.16
214.05	2781.14
214.27	3733.45
214.49	3172.30
214.71	2897.88
214.93	3086.29
215.15	3399.63
215.37	3583.95
215.59	2791.38
215.81	3016.66
216.03	3837.89
216.24	3495.88
216.46	2965.46
216.68	2967.51
216.90	3571.66
217.12	3641.29
217.34	2899.92
217.56	3172.30
217.78	3817.41
218.00	3598.28
218.22	3045.33
218.44	3055.57
218.66	3491.79
218.87	3805.13
219.09	3028.95
219.31	2942.93
219.53	3510.22
219.75	3332.05
219.97	3022.80
220.19	2944.98
220.41	3475.40
220.63	3700.68
220.85	3004.37
221.06	2953.17
221.28	3790.79
221.50	3649.48
221.72	2918.36
221.94	2863.06
222.16	3553.23
222.38	3766.21
222.60	2910.16
222.82	3049.43
223.03	3606.47
223.25	3155.92
223.47	2836.44
223.69	3157.97
223.91	3508.17
224.13	3475.40
224.35	2879.44
224.57	3184.59
224.78	3661.77
225.00	3188.69
225.22	3088.34
225.44	2969.55
225.66	3561.42
225.88	3303.37
226.10	3123.15
226.32	3000.27
226.53	3805.13
226.75	3366.86
226.97	3051.47
227.19	2969.55
227.41	3309.52
227.63	3395.53
227.85	2781.14
228.06	3000.27
228.28	3504.07
228.50	3620.81
228.72	2836.44
228.94	2887.64
229.16	3018.71
229.37	3205.07
229.59	2885.59
229.81	3211.22
230.03	3381.20
230.25	3233.74
230.47	2795.48
230.69	2959.31
230.90	3624.90
231.12	3264.46
231.34	3102.67
231.56	3045.33
231.78	3196.88
232.00	3483.59
232.21	3016.66
232.43	3022.80
232.65	3014.61
232.87	3551.18
233.09	2805.72
233.30	2850.77
233.52	3676.10
233.74	3403.72
233.96	2867.16
234.18	3147.73
234.40	3401.68
234.61	3897.28
234.83	2861.01
235.05	2967.51
235.27	4030.40
235.49	3762.12
235.70	2842.58
235.92	2983.89
236.14	3608.52
236.36	4020.16
236.58	2908.12
236.79	2975.70
237.01	3405.77
237.23	3461.07
237.45	3164.11
237.67	3100.62
237.88	3618.76
238.10	3770.31
238.32	2889.68
238.54	2869.20
238.76	3440.59
238.97	3213.26
239.19	2893.78
239.41	3014.61
239.63	3653.58
239.85	3366.86
240.06	3028.95
240.28	2918.36
240.50	3684.30
240.72	3491.79
240.93	2779.09
241.15	3102.67
241.37	3454.92
241.59	3663.82
241.81	2994.13
242.02	3018.71
242.24	3573.71
242.46	3530.70
242.68	2770.90
242.89	3000.27
243.11	3610.57
243.33	3442.64
243.55	2979.79
243.76	2936.79
243.98	3297.23
244.20	3428.30
244.42	2983.89
244.64	2910.16
244.85	3164.11
245.07	3262.41
245.29	3004.37
245.51	3043.28
245.72	3499.98
245.94	3672.01
246.16	2947.03
246.38	3018.71
246.59	3241.93
246.81	3254.22
247.03	2914.26
247.24	2772.95
247.46	3385.29
247.68	3481.55
247.90	2865.11
248.11	3041.23
248.33	3614.66
248.55	3456.97
248.77	3020.75
248.98	3074.00
249.20	3805.13
249.42	3491.79
249.64	2963.41
249.85	2910.16
250.07	3360.72
250.29	3688.39
250.50	3131.34
250.72	2877.40
250.94	3528.65
251.16	3966.92
251.37	2914.26
251.59	3069.91
251.81	3493.83
252.02	3784.65
252.24	2852.82
252.46	3047.38
252.68	3282.89
252.89	3370.96
253.11	2795.48
253.33	3147.73
253.54	3780.55
253.76	3248.08
253.98	2959.31
254.20	2942.93
254.41	3143.63
254.63	3413.96
254.85	2815.96
255.06	3041.23
255.28	3512.27
255.50	3315.66
255.71	2877.40
255.93	2805.72
256.15	3407.82
256.36	3600.33
256.58	2914.26
256.80	2926.55
257.02	3375.05
257.23	3354.57
257.45	2992.08
257.67	3057.62
257.88	3346.38
258.10	3524.55
258.32	2983.89
258.53	3002.32
258.75	3784.65
258.97	3354.57
259.18	2856.92
259.40	2965.46
259.62	3823.56
259.83	3762.12
260.05	3018.71
260.27	3905.48
260.48	3631.05
260.70	3180.50
260.92	2848.72
261.13	2983.89
261.35	3504.07
261.57	3534.79
261.78	2772.95
262.00	2887.64
262.22	3534.79
262.43	3360.72
262.65	2987.99
262.86	2983.89
263.08	4042.69
263.30	3495.88
263.51	2699.22
263.73	2942.93
263.95	3848.13
264.16	3256.27
264.38	2811.86
264.60	2906.07
264.81	3473.36
265.03	3639.24
265.25	3467.21
265.46	2897.88
265.68	3737.54
265.89	3706.82
266.11	2867.16
266.33	2930.64
266.54	3727.30
266.76	3594.19
266.98	3010.51
267.19	3078.10
267.41	3749.83
267.62	3434.44
267.84	2781.14
268.06	3045.33
268.27	3528.65
268.49	3762.12
268.70	3061.71
268.92	2977.75
269.14	3366.86
269.35	3129.30
269.57	3106.77
269.79	2971.60
270.00	3307.47
270.22	3805.13
270.43	2801.62
270.65	2842.58
270.87	3477.45
271.08	3661.77
271.30	3147.73
271.51	2942.93
271.73	3567.56
271.95	3827.65
272.16	2928.60
272.38	3112.91
272.59	3389.39
272.81	3608.52
273.02	2828.24
273.24	3016.66
273.46	3684.30
273.67	3155.92
273.89	2852.82
274.10	2914.26
274.32	3606.47
274.54	3551.18
274.75	3076.05
274.97	3147.73
275.18	3622.86
275.40	3604.42
275.61	2938.84
275.83	3168.21
276.05	3235.79
276.26	3405.77
276.48	3061.71
276.69	3121.10
276.91	3237.84
277.12	3678.15
277.34	3141.58
277.55	3205.07
277.77	3540.94
277.99	3463.12
278.20	3119.06
278.42	2985.94
278.63	3227.60
278.85	3219.41
279.06	3055.57
279.28	3180.50
279.49	3745.73
279.71	3577.80
279.93	3108.82
280.14	3200.98
280.36	3323.85
280.57	3573.71
280.79	3272.65
281.00	2996.18
281.22	3342.28
281.43	3745.73
281.65	2885.59
281.86	2996.18
282.08	3624.90
282.29	3917.76
282.51	2985.94
282.73	3000.27
282.94	3188.69
283.16	3626.95
283.37	3278.80
283.59	3172.30
283.80	3577.80
284.02	3467.21
284.23	3160.02
284.45	3133.39
284.66	3278.80
284.88	3366.86
285.09	3043.28
285.31	3223.50
285.52	3510.22
285.74	3076.05
285.95	3321.81
286.17	3096.53
286.38	3622.86
286.60	3403.72
286.81	3090.38
287.03	3051.47
287.24	3418.06
287.46	3604.42
287.67	3262.41
287.89	3297.23
288.10	3360.72
288.32	3508.17
288.53	3262.41
288.75	3200.98
288.96	3618.76
289.18	3221.45
289.39	3098.58
289.61	3217.36
289.82	3948.48
290.04	3876.80
290.25	2967.51
290.47	3127.25
290.68	3463.12
290.90	3672.01
291.11	2910.16
291.33	3274.70
291.54	3241.93
291.76	3379.15
291.97	3246.03
292.18	3250.13
292.40	3342.28
292.61	3327.95
292.83	3440.59
293.04	3141.58
293.26	3526.60
293.47	3389.39
293.69	3092.43
293.90	3026.90
294.12	3829.70
294.33	3420.11
294.55	3078.10
294.76	3282.89
294.97	3803.08
295.19	3985.35
295.40	3030.99
295.62	3227.60
295.83	3649.48
296.05	3276.75
296.26	3401.68
296.48	3102.67
296.69	3450.83
296.90	3487.69
297.12	3221.45
297.33	3217.36
297.55	3504.07
297.76	3508.17
297.98	3137.49
298.19	3274.70
298.41	3428.30
298.62	3221.45
298.83	3260.37
299.05	3303.37
299.26	3397.58
299.48	3362.76
299.69	3180.50
299.90	2992.08
300.12	3248.08
300.33	3633.10
300.55	3198.93
300.76	3198.93
300.98	3164.11
301.19	3600.33
301.40	3063.76
301.62	3076.05
301.83	3573.71
302.05	3454.92
302.26	3104.72
302.47	3217.36
302.69	3205.07
302.90	3422.16
303.12	2961.36
303.33	3254.22
303.54	3860.42
303.76	3344.33
303.97	3084.24
304.19	3352.52
304.40	3291.09
304.61	3606.47
304.83	3239.89
305.04	3149.78
305.26	3631.05
305.47	3305.42
305.68	3078.10
305.90	2985.94
306.11	3704.78
306.33	3502.03
306.54	3039.19
306.75	3063.76
306.97	3119.06
307.18	3291.09
307.39	3117.01
307.61	3215.31
307.82	3407.82
308.04	3452.88
308.25	3000.27
308.46	3215.31
308.68	3444.68
308.89	3461.07
309.10	3270.61
309.32	3102.67
309.53	3499.98
309.74	3555.27
309.96	3082.19
310.17	3207.12
310.39	3430.35
310.60	3649.48
310.81	3147.73
311.03	3010.51
311.24	3600.33
311.45	3467.21
311.67	3426.25
311.88	3164.11
312.09	3311.57
312.31	3278.80
312.52	2987.99
312.73	2959.31
312.95	3153.87
313.16	3225.55
313.37	3295.18
313.59	3334.09
313.80	3602.38
314.01	3696.58
314.23	3139.54
314.44	3037.14
314.65	3086.29
314.87	3291.09
315.08	3127.25
315.29	3127.25
315.51	3280.85
315.72	3084.24
315.93	3200.98
316.15	3172.30
316.36	3428.30
316.57	3444.68
316.79	3112.91
317.00	3096.53
317.21	3512.27
317.43	3305.42
317.64	3223.50
317.85	2975.70
318.07	3332.05
318.28	3344.33
318.49	3170.26
318.70	3280.85
318.92	3436.49
319.13	3477.45
319.34	3182.54
319.56	3067.86
319.77	3555.27
319.98	3583.95
320.20	3373.00
320.41	3317.71
320.62	3620.81
320.83	3223.50
321.05	3315.66
321.26	3182.54
321.47	3506.12
321.69	3717.06
321.90	3000.27
322.11	3043.28
322.32	3508.17
322.54	3749.83
322.75	3074.00
322.96	4282.30
323.18	3117.01
323.39	3041.23
323.60	2965.46
323.81	3168.21
324.03	3280.85
324.24	3452.88
324.45	3268.56
324.66	3061.71
324.88	3571.66
325.09	3872.71
325.30	3030.99
325.52	2944.98
325.73	3536.84
325.94	3250.13
326.15	3008.47
326.37	2983.89
326.58	3624.90
326.79	3829.70
327.00	3024.85
327.22	3123.15
327.43	3344.33
327.64	3151.82
327.85	3221.45
328.07	3100.62
328.28	3848.13
328.49	3418.06
328.70	3084.24
328.92	3063.76
329.13	3481.55
329.34	3606.47
329.55	3301.33
329.76	3278.80
329.98	3342.28
330.19	3807.17
330.40	3172.30
330.61	3209.17
330.83	3635.14
331.04	3252.17
331.25	3227.60
331.46	3196.88
331.68	3205.07
331.89	3674.06
332.10	3176.40
332.31	2926.55
332.52	3413.96
332.74	3721.16
332.95	2934.74
333.16	3098.58
333.37	3639.24
333.58	3348.43
333.80	3092.43
334.01	2848.72
334.22	3409.87
334.43	3250.13
334.64	2981.84
334.86	3082.19
335.07	3309.52
335.28	3782.60
335.49	2981.84
335.70	3215.31
335.92	3798.98
336.13	3981.25
336.34	3121.10
336.55	3086.29
336.76	3475.40
336.98	3016.66
337.19	3123.15
337.40	3198.93
337.61	4042.69
337.82	3428.30
338.04	3246.03
338.25	3028.95
338.46	3389.39
338.67	3405.77
338.88	3037.14
339.09	2973.65
339.31	3366.86
339.52	3237.84
339.73	3053.52
339.94	3176.40
340.15	3590.09
340.36	3297.23
340.58	3110.86
340.79	3067.86
341.00	3583.95
341.21	3217.36
341.42	3444.68
341.63	3123.15
341.85	3737.54
342.06	3428.30
342.27	3090.38
342.48	3246.03
342.69	3217.36
342.90	3516.36
343.12	3514.31
343.33	3020.75
343.54	3725.26
343.75	3692.49
343.96	3225.55
344.17	3051.47
344.38	3352.52
344.60	3270.61
344.81	2983.89
345.02	3137.49
345.23	3626.95
345.44	4034.50
345.65	3131.34
345.86	3121.10
346.07	3461.07
346.29	3323.85
346.50	3186.64
346.71	3192.78
346.92	3708.87
347.13	3854.28
347.34	3268.56
347.55	2967.51
347.76	3549.13
347.98	3164.11
348.19	3141.58
348.40	3272.65
348.61	3321.81
348.82	3762.12
349.03	3176.40
349.24	3035.09
349.45	3878.85
349.66	3057.62
349.88	3067.86
350.09	3037.14
350.30	3766.21
350.51	3682.25
350.72	3352.52
350.93	3131.34
351.14	3286.99
351.35	3598.28
351.56	3069.91
351.77	3151.82
351.99	3545.03
352.20	3762.12
352.41	3270.61
352.62	2926.55
352.83	3471.31
353.04	3411.92
353.25	3098.58
353.46	3139.54
353.67	3772.36
353.88	3030.99
354.09	2990.03
354.30	3135.44
354.52	3674.06
354.73	3405.77
354.94	3037.14
355.15	3155.92
355.36	3895.24
355.57	3262.41
355.78	3000.27
355.99	3155.92
356.20	3352.52
356.41	3735.50
356.62	3153.87
356.83	3078.10
357.04	3639.24
357.25	3086.29
357.46	3137.49
357.68	2992.08
357.89	3190.74
358.10	3446.73
358.31	3004.37
358.52	3117.01
358.73	3252.17
358.94	3176.40
359.15	3137.49
359.36	3168.21
359.57	3430.35
359.78	3397.58
359.99	3385.29
360.20	2992.08
360.41	3440.59
360.62	3618.76
360.83	3227.60
361.04	3123.15
361.25	3510.22
361.46	3807.17
361.67	3223.50
361.88	3155.92
362.09	3684.30
362.30	3528.65
362.51	2994.13
362.72	3160.02
362.93	3590.09
363.14	3551.18
363.35	3243.98
363.56	3016.66
363.78	3712.97
363.99	3635.14
364.20	3155.92
364.41	3172.30
364.62	3891.14
364.83	3512.27
365.04	3053.52
365.25	3160.02
365.46	3981.25
365.67	3274.70
365.88	3282.89
366.09	3131.34
366.30	3334.09
366.51	3485.64
366.72	3041.23
366.93	3024.85
367.14	3483.59
367.35	3776.45
367.56	2998.23
367.77	3231.69
367.98	3456.97
368.18	3581.90
368.39	3299.28
368.60	3088.34
368.81	3608.52
369.02	3530.70
369.23	3108.82
369.44	3020.75
369.65	3407.82
369.86	3559.37
370.07	3254.22
370.28	3018.71
370.49	3495.88
370.70	3594.19
370.91	3055.57
371.12	2967.51
371.33	3667.91
371.54	3295.18
371.75	3229.65
371.96	2785.24
372.17	3532.75
372.38	3475.40
372.59	3100.62
372.80	3071.95
373.01	3375.05
373.22	3461.07
373.43	3121.10
373.64	2975.70
373.85	3735.50
374.06	3819.46
374.26	3276.75
374.47	3205.07
374.68	3788.74
374.89	3524.55
375.10	3051.47
375.31	3139.54
375.52	3456.97
375.73	3510.22
375.94	2936.79
376.15	3250.13
376.36	3342.28
376.57	3332.05
376.78	3092.43
376.99	3188.69
377.20	3751.88
377.40	3344.33
377.61	3465.16
377.82	3127.25
378.03	3747.78
378.24	3567.56
378.45	3258.32
378.66	3205.07
378.87	3147.73
379.08	3129.30
379.29	3114.96
379.50	3274.70
379.71	3479.50
379.91	3684.30
380.12	3123.15
380.33	3190.74
380.54	3461.07
380.75	3348.43
380.96	3100.62
381.17	3198.93
381.38	3409.87
381.59	3518.41
381.80	3237.84
382.00	3352.52
382.21	3493.83
382.42	3778.50
382.63	3481.55
382.84	3295.18
383.05	3600.33
383.26	3745.73
383.47	3231.69
383.68	3004.37
383.88	3549.13
384.09	3426.25
384.30	3303.37
384.51	3282.89
384.72	3385.29
384.93	3178.45
385.14	3276.75
385.35	3323.85
385.55	3172.30
385.76	3778.50
385.97	3131.34
386.18	2994.13
386.39	3270.61
386.60	3237.84
386.81	3153.87
387.02	2985.94
387.22	3209.17
387.43	3575.75
387.64	3180.50
387.85	3373.00
388.06	3516.36
388.27	4460.48
388.48	7337.87
388.68	10837.85
388.89	13678.38
389.10	14778.14
389.31	14391.08
389.52	11636.56
389.73	10362.72
389.93	9512.81
390.14	8578.94
390.35	7989.13
390.56	7405.46
390.77	6076.32
390.98	4812.73
391.18	3977.16
391.39	3946.44
391.60	3516.36
391.81	3409.87
392.02	3196.88
392.23	3905.48
392.43	3579.85
392.64	3229.65
392.85	3176.40
393.06	3829.70
393.27	3430.35
393.47	3071.95
393.68	3141.58
393.89	3319.76
394.10	3772.36
394.31	3076.05
394.52	3049.43
394.72	3364.81
394.93	3698.63
395.14	3030.99
395.35	3221.45
395.56	3344.33
395.76	3352.52
395.97	3049.43
396.18	3155.92
396.39	3405.77
396.60	4081.60
396.80	3508.17
397.01	3411.92
397.22	3563.47
397.43	3633.10
397.64	3117.01
397.84	3239.89
398.05	3891.14
398.26	3373.00
398.47	3217.36
398.67	3332.05
398.88	3364.81
399.09	3600.33
399.30	3172.30
399.51	3207.12
399.71	3299.28
399.92	3444.68
400.13	3225.55
400.34	3094.48
400.54	3532.75
400.75	3692.49
400.96	3186.64
401.17	3477.45
401.37	3583.95
401.58	3358.67
401.79	3086.29
402.00	3248.08
402.21	3891.14
402.41	3516.36
402.62	3418.06
402.83	3526.60
403.04	3889.09
403.24	4267.97
403.45	3274.70
403.66	3409.87
403.87	3680.20
404.07	3770.31
404.28	3411.92
404.49	3373.00
404.70	3557.32
404.90	3614.66
405.11	3155.92
405.32	3198.93
405.52	3248.08
405.73	3352.52
405.94	3131.34
406.15	3246.03
406.35	3553.23
406.56	3624.90
406.77	3157.97
406.98	3125.20
407.18	3344.33
407.39	3780.55
407.60	3147.73
407.80	3256.27
408.01	3338.19
408.22	3633.10
408.43	3127.25
408.63	3332.05
408.84	3649.48
409.05	3622.86
409.25	3065.81
409.46	3198.93
409.67	3295.18
409.88	3219.41
410.08	3190.74
410.29	3133.39
410.50	3735.50
410.70	3549.13
410.91	3092.43
411.12	3225.55
411.32	3575.75
411.53	3262.41
411.74	3155.92
411.95	3133.39
412.15	3469.26
412.36	3508.17
412.57	3342.28
412.77	3336.14
412.98	3401.68
413.19	3350.48
413.39	3227.60
413.60	3215.31
413.81	3778.50
414.01	3123.15
414.22	3127.25
414.43	3401.68
414.63	3313.61
414.84	3512.27
415.05	3182.54
415.25	3002.32
415.46	3616.71
415.67	3289.04
415.87	3254.22
416.08	3125.20
416.29	3467.21
416.49	3577.80
416.70	3182.54
416.91	3117.01
417.11	3377.10
417.32	3651.53
417.53	3252.17
417.73	3213.26
417.94	3403.72
418.15	3483.59
418.35	3207.12
418.56	3252.17
418.77	3968.96
418.97	3487.69
419.18	3340.24
419.38	2828.24
419.59	3428.30
419.80	3672.01
420.00	3094.48
420.21	3157.97
420.42	3751.88
420.62	3551.18
420.83	3149.78
421.04	3188.69
421.24	3411.92
421.45	3620.81
421.65	3248.08
421.86	3155.92
422.07	3643.34
422.27	3557.32
422.48	3145.68
422.69	2971.60
422.89	3348.43
423.10	3442.64
423.30	3137.49
423.51	3231.69
423.72	3532.75
423.92	3649.48
424.13	2994.13
424.33	3205.07
424.54	3610.57
424.75	3467.21
424.95	3438.54
425.16	3080.14
425.36	3383.24
425.57	3659.72
425.78	3282.89
425.98	3262.41
426.19	3391.44
426.39	3217.36
426.60	3327.95
426.81	3360.72
427.01	3434.44
427.22	3188.69
427.42	3065.81
427.63	3053.52
427.83	3612.62
428.04	3778.50
428.25	3190.74
428.45	3198.93
428.66	3661.77
428.86	3391.44
429.07	3213.26
429.28	3264.46
429.48	3446.73
429.69	3256.27
429.89	3243.98
430.10	3069.91
430.30	3577.80
430.51	3594.19
430.71	3129.30
430.92	3209.17
431.13	3276.75
431.33	3561.42
431.54	3270.61
431.74	3317.71
431.95	3995.59
432.15	3223.50
432.36	3229.65
432.56	3250.13
432.77	3917.76
432.98	3885.00
433.18	3243.98
433.39	3041.23
433.59	3373.00
433.80	3921.86
434.00	3323.85
434.21	3278.80
434.41	3327.95
434.62	3944.39
434.82	2990.03
435.03	3100.62
435.23	3512.27
435.44	3110.86
435.64	3098.58
435.85	3209.17
436.06	3680.20
436.26	3657.67
436.47	3147.73
436.67	3086.29
436.88	3373.00
437.08	3729.35
437.29	3301.33
437.49	3289.04
437.70	3729.35
437.90	3401.68
438.11	3348.43
438.31	3274.70
438.52	3692.49
438.72	3624.90
438.93	3473.36
439.13	3237.84
439.34	3635.14
439.54	3360.72
439.75	3233.74
439.95	3174.35
440.16	3295.18
440.36	3368.91
440.57	3184.59
440.77	3155.92
440.98	3452.88
441.18	3499.98
441.39	3102.67
441.59	3090.38
441.80	3788.74
442.00	3442.64
442.21	3209.17
442.41	3035.09
442.62	3803.08
442.82	3278.80
443.02	3082.19
443.23	3180.50
443.43	3305.42
443.64	3782.60
443.84	2998.23
444.05	3270.61
444.25	3438.54
444.46	3286.99
444.66	3074.00
444.87	3397.58
445.07	3235.79
445.28	3354.57
445.48	3278.80
445.69	3260.37
445.89	4040.64
446.09	3395.53
446.30	3438.54
446.50	3532.75
446.71	5005.24
446.91	6051.75
447.12	6819.74
447.32	7163.79
447.53	7305.10
447.73	6174.63
447.93	5304.24
448.14	5244.85
448.34	5339.05
448.55	4491.20
448.75	4452.28
448.96	4184.00
449.16	4331.45
449.36	4108.23
449.57	3444.68
449.77	3254.22
449.98	3391.44
450.18	3618.76
450.39	3086.29
450.59	3473.36
450.79	3409.87
451.00	3254.22
451.20	3401.68
451.41	3207.12
451.61	3602.38
451.81	3448.78
452.02	3145.68
452.22	3127.25
452.43	3356.62
452.63	3291.09
452.84	3278.80
453.04	3071.95
453.24	3459.02
453.45	3237.84
453.65	3266.51
453.86	3246.03
454.06	3475.40
454.26	3403.72
454.47	3104.72
454.67	3272.65
454.87	3522.51
455.08	3411.92
455.28	3282.89
455.49	3278.80
455.69	3260.37
455.89	3878.85
456.10	3243.98
456.30	3114.96
456.51	3690.44
456.71	3520.46
456.91	3360.72
457.12	3123.15
457.32	3553.23
457.52	3184.59
457.73	3305.42
457.93	3368.91
458.14	3254.22
458.34	2992.08
458.54	3248.08
458.75	3135.44
458.95	3639.24
459.15	3450.83
459.36	3141.58
459.56	3110.86
459.76	3862.47
459.97	3450.83
460.17	3063.76
460.37	3246.03
460.58	3483.59
460.78	3596.23
460.99	3231.69
461.19	3137.49
461.39	3299.28
461.60	3309.52
461.80	3276.75
462.00	3041.23
462.21	3450.83
462.41	3254.22
462.61	3012.56
462.82	3000.27
463.02	3551.18
463.22	3471.31
463.43	3180.50
463.63	3039.19
463.83	3708.87
464.04	3483.59
464.24	3178.45
464.44	3246.03
464.64	3504.07
464.85	3516.36
465.05	3164.11
465.25	3049.43
465.46	3295.18
465.66	3594.19
465.86	3246.03
466.07	3065.81
466.27	3407.82
466.47	3104.72
466.68	3016.66
466.88	3282.89
467.08	3665.86
467.29	3727.30
467.49	3108.82
467.69	3280.85
467.89	3614.66
468.10	3411.92
468.30	3252.17
468.50	3272.65
468.71	3551.18
468.91	3141.58
469.11	3393.48
469.31	3256.27
469.52	3305.42
469.72	3917.76
469.92	3377.10
470.13	3133.39
470.33	3446.73
470.53	3448.78
470.73	3524.55
470.94	3829.70
471.14	3971.01
471.34	4566.97
471.54	4130.75
471.75	3915.72
471.95	3819.46
472.15	3817.41
472.36	3696.58
472.56	3565.51
472.76	3997.64
472.96	3786.69
473.17	3370.96
473.37	3231.69
473.57	3342.28
473.77	3626.95
473.98	3317.71
474.18	3149.78
474.38	4130.75
474.58	3235.79
474.79	3030.99
474.99	3319.76
475.19	3712.97
475.39	3164.11
475.60	3309.52
475.80	3141.58
476.00	3547.08
476.20	3387.34
476.41	3270.61
476.61	3092.43
476.81	3852.23
477.01	3188.69
477.21	3440.59
477.42	3272.65
477.62	3258.32
477.82	3583.95
478.02	3117.01
478.23	3196.88
478.43	3307.47
478.63	3459.02
478.83	3110.86
479.03	3246.03
479.24	3786.69
479.44	3813.32
479.64	3110.86
479.84	3004.37
480.04	3286.99
480.25	3624.90
480.45	3131.34
480.65	3092.43
480.85	3798.98
481.06	3319.76
481.26	3354.57
481.46	3102.67
481.66	3467.21
481.86	3282.89
482.06	3327.95
482.27	3268.56
482.47	3364.81
482.67	3631.05
482.87	3235.79
483.07	3295.18
483.28	3336.14
483.48	3196.88
483.68	3114.96
483.88	3106.77
484.08	3008.47
484.29	3258.32
484.49	3172.30
484.69	2953.17
484.89	3712.97
485.09	3655.62
485.29	3268.56
485.50	3303.37
485.70	3393.48
485.90	3788.74
486.10	3303.37
486.30	3063.76
486.50	3794.89
486.71	3475.40
486.91	3233.74
487.11	3221.45
487.31	3139.54
487.51	3563.47
487.71	3168.21
487.91	3160.02
488.12	3260.37
488.32	3002.32
488.52	3205.07
488.72	2951.12
488.92	3387.34
489.12	3602.38
489.32	3223.50
489.53	3225.55
489.73	3170.26
489.93	3885.00
490.13	3157.97
490.33	2951.12
490.53	3483.59
490.73	3688.39
490.94	2987.99
491.14	3252.17
491.34	3708.87
491.54	3600.33
491.74	3999.68
491.94	4517.82
492.14	5167.03
492.34	5152.69
492.54	4706.23
492.75	4132.80
492.95	4548.54
493.15	4061.12
493.35	3760.07
493.55	3743.69
493.75	3753.93
493.95	4073.41
494.15	3383.24
494.35	3282.89
494.56	3471.31
494.76	3385.29
494.96	3282.89
495.16	3108.82
495.36	3469.26
495.56	3393.48
495.76	3196.88
495.96	3229.65
496.16	3241.93
496.36	3821.51
496.56	3067.86
496.77	3182.54
496.97	3416.01
497.17	3788.74
497.37	2973.65
497.57	3311.57
497.77	3463.12
497.97	3243.98
498.17	3155.92
498.37	3141.58
498.57	3598.28
498.77	3342.28
498.97	3307.47
499.17	3620.81
499.38	3295.18
499.58	3581.90
499.78	3303.37
499.98	3311.57
500.18	3450.83
500.38	3321.81
500.58	3366.86
500.78	3764.17
500.98	6018.98
501.18	7786.38
501.38	8988.53
501.58	9826.15
501.78	10028.90
501.98	8384.38
502.18	7102.36
502.38	6152.10
502.58	6162.34
502.78	5408.69
502.98	5130.16
503.18	4978.61
503.38	4847.54
503.59	4245.44
503.79	4048.83
503.99	3739.59
504.19	3968.96
504.39	4022.21
504.59	3680.20
504.79	3510.22
504.99	4011.97
505.19	3649.48
505.39	3284.94
505.59	3502.03
505.79	3737.54
505.99	3682.25
506.19	3213.26
506.39	3483.59
506.59	3266.51
506.79	3377.10
506.99	3430.35
507.19	3106.77
507.39	3522.51
507.59	3141.58
507.79	3239.89
507.99	3127.25
508.19	3297.23
508.39	3340.24
508.59	3125.20
508.79	3233.74
508.99	4083.65
509.19	3352.52
509.39	3143.63
509.59	3028.95
509.79	3284.94
509.99	3516.36
510.19	3278.80
510.39	3256.27
510.59	3463.12
510.79	3346.38
510.99	3045.33
511.19	3082.19
511.39	3876.80
511.59	3682.25
511.79	3286.99
511.99	3200.98
512.19	3850.18
512.38	3454.92
512.58	3092.43
512.78	3092.43
512.98	3710.92
513.18	3887.04
513.38	3147.73
513.58	3276.75
513.78	3377.10
513.98	3270.61
514.18	3233.74
514.38	3176.40
514.58	3602.38
514.78	3395.53
514.98	3092.43
515.18	3174.35
515.38	3225.55
515.58	3860.42
515.78	3133.39
515.98	3254.22
516.18	3565.51
516.38	3418.06
516.57	3151.82
516.77	3123.15
516.97	3590.09
517.17	3438.54
517.37	3002.32
517.57	3139.54
517.77	3428.30
517.97	3305.42
518.17	3213.26
518.37	3059.67
518.57	3276.75
518.77	3405.77
518.97	3215.31
519.16	3219.41
519.36	3758.02
519.56	3278.80
519.76	3041.23
519.96	3246.03
520.16	3758.02
520.36	3121.10
520.56	3430.35
520.76	3078.10
520.96	3373.00
521.16	3639.24
521.35	3348.43
521.55	3348.43
521.75	3506.12
521.95	3358.67
522.15	3086.29
522.35	3065.81
522.55	3227.60
522.75	3590.09
522.95	3080.14
523.14	2998.23
523.34	3444.68
523.54	3262.41
523.74	3274.70
523.94	3301.33
524.14	3176.40
524.34	3483.59
524.54	3352.52
524.73	3211.22
524.93	3608.52
525.13	3413.96
525.33	3024.85
525.53	3405.77
525.73	3563.47
525.93	3377.10
526.13	3211.22
526.32	3037.14
526.52	3712.97
526.72	3641.29
526.92	3129.30
527.12	3063.76
527.32	3135.44
527.52	3577.80
527.71	3188.69
527.91	3155.92
528.11	3319.76
528.31	3375.05
528.51	3123.15
528.71	3311.57
528.90	3497.93
529.10	3725.26
529.30	3172.30
529.50	2924.50
529.70	3545.03
529.90	3340.24
530.09	3231.69
530.29	3000.27
530.49	3246.03
530.69	4091.84
530.89	3397.58
531.09	3330.00
531.28	3330.00
531.48	3721.16
531.68	3205.07
531.88	3082.19
532.08	3606.47
532.28	3485.64
532.47	3284.94
532.67	3200.98
532.87	3547.08
533.07	3223.50
533.27	3172.30
533.46	3338.19
533.66	3467.21
533.86	3352.52
534.06	3250.13
534.26	3164.11
534.45	3368.91
534.65	3643.34
534.85	3356.62
535.05	3139.54
535.25	3651.53
535.44	3084.24
535.64	3262.41
535.84	3166.16
536.04	3401.68
536.24	3368.91
536.43	3182.54
536.63	3117.01
536.83	3385.29
537.03	3399.63
537.22	3004.37
537.42	3061.71
537.62	3549.13
537.82	3241.93
538.02	3311.57
538.21	3246.03
538.41	4089.79
538.61	3567.56
538.81	3256.27
539.00	3401.68
539.20	3047.38
539.40	3362.76
539.60	3098.58
539.79	3409.87
539.99	3495.88
540.19	3330.00
540.39	3110.86
540.58	3196.88
540.78	3739.59
540.98	3557.32
541.18	3442.64
541.37	3254.22
541.57	3362.76
541.77	3471.31
541.97	3125.20
542.16	3112.91
542.36	3317.71
542.56	3354.57
542.76	3389.39
542.95	3254.22
543.15	3532.75
543.35	3614.66
543.54	3168.21
543.74	3084.24
543.94	3725.26
544.14	3317.71
544.33	3297.23
544.53	3172.30
544.73	3409.87
544.93	3385.29
545.12	3213.26
545.32	3223.50
545.52	3432.40
545.71	3170.26
545.91	3215.31
546.11	3131.34
546.30	3237.84
546.50	3473.36
546.70	3209.17
546.90	3231.69
547.09	3049.43
547.29	3575.75
547.49	3321.81
547.68	3190.74
547.88	3256.27
548.08	3493.83
548.27	3442.64
548.47	3166.16
548.67	3307.47
548.87	3563.47
549.06	3143.63
549.26	3082.19
549.46	3465.16
549.65	3276.75
549.85	3145.68
550.05	3221.45
550.24	3157.97
550.44	3483.59
550.64	3194.83
550.83	3229.65
551.03	3819.46
551.23	3712.97
551.42	3217.36
551.62	3295.18
551.82	3405.77
552.01	3354.57
552.21	3506.12
552.41	3205.07
552.60	3704.78
552.80	3450.83
553.00	3168.21
553.19	3231.69
553.39	3776.45
553.59	3151.82
553.78	3344.33
553.98	3082.19
554.17	3209.17
554.37	3487.69
554.57	3209.17
554.76	3090.38
554.96	3334.09
555.16	3532.75
555.35	3198.93
555.55	3387.34
555.75	3450.83
555.94	3622.86
556.14	2936.79
556.33	3192.78
556.53	3467.21
556.73	3436.49
556.92	3250.13
557.12	3090.38
557.32	3911.62
557.51	3772.36
557.71	3207.12
557.90	3327.95
558.10	3723.21
558.30	3334.09
558.49	3258.32
558.69	3147.73
558.88	3524.55
559.08	3450.83
559.28	3186.64
559.47	3266.51
559.67	3608.52
559.86	3854.28
560.06	3176.40
560.26	3225.55
560.45	3581.90
560.65	3360.72
560.84	3497.93
561.04	2981.84
561.24	3524.55
561.43	3133.39
561.63	3428.30
561.82	3338.19
562.02	3608.52
562.22	3198.93
562.41	3020.75
562.61	3100.62
562.80	3198.93
563.00	4036.55
563.19	3172.30
563.39	3149.78
563.59	3489.74
563.78	3280.85
563.98	2942.93
564.17	3153.87
564.37	3088.34
564.56	3403.72
564.76	3102.67
564.96	3270.61
565.15	3432.40
565.35	3903.43
565.54	3200.98
565.74	3235.79
565.93	3604.42
566.13	3313.61
566.32	3299.28
566.52	3280.85
566.71	3540.94
566.91	3631.05
567.11	3368.91
567.30	3084.24
567.50	3569.61
567.69	3540.94
567.89	3221.45
568.08	3047.38
568.28	3389.39
568.47	3117.01
568.67	3233.74
568.86	3160.02
569.06	3553.23
569.25	3403.72
569.45	2985.94
569.64	3264.46
569.84	3407.82
570.04	3508.17
570.23	3172.30
570.43	3231.69
570.62	3502.03
570.82	3862.47
571.01	3053.52
571.21	3143.63
571.40	3237.84
571.60	3647.43
571.79	3319.76
571.99	3151.82
572.18	3252.17
572.38	3526.60
572.57	3262.41
572.77	3227.60
572.96	3944.39
573.16	3475.40
573.35	3174.35
573.55	3338.19
573.74	3614.66
573.94	3434.44
574.13	3157.97
574.33	3291.09
574.52	3712.97
574.71	3483.59
574.91	3231.69
575.10	3076.05
575.30	3354.57
575.49	3241.93
575.69	3110.86
575.88	3164.11
576.08	3401.68
576.27	3723.21
576.47	3078.10
576.66	3313.61
576.86	3753.93
577.05	3506.12
577.25	3270.61
577.44	3352.52
577.64	3311.57
577.83	3725.26
578.02	3125.20
578.22	3352.52
578.41	3762.12
578.61	3418.06
578.80	3035.09
579.00	3196.88
579.19	3467.21
579.39	3534.79
579.58	3295.18
579.77	3252.17
579.97	3751.88
580.16	3606.47
580.36	3489.74
580.55	3286.99
580.75	3508.17
580.94	3401.68
581.13	3348.43
581.33	3518.41
581.52	3350.48
581.72	3821.51
581.91	3272.65
582.11	3180.50
582.30	3674.06
582.49	3395.53
582.69	3463.12
582.88	3241.93
583.08	3532.75
583.27	3690.44
583.47	3311.57
583.66	3198.93
583.85	3303.37
584.05	3409.87
584.24	3323.85
584.44	3200.98
584.63	3725.26
584.82	3624.90
585.02	3422.16
585.21	3307.47
585.41	3489.74
585.60	3395.53
585.79	3344.33
585.99	3434.44
586.18	3510.22
586.37	4458.43
586.57	6752.15
586.76	18345.70
586.96	36842.96
587.15	49476.88
587.34	57726.10
587.54	60918.88
587.73	53542.10
587.93	38895.02
588.12	29863.48
588.31	24489.61
588.51	21962.42
588.70	20190.92
588.89	17989.36
589.09	15015.71
589.28	13283.13
589.47	10395.49
589.67	8001.41
589.86	6205.35
590.06	4937.65
590.25	4544.44
590.44	3893.19
590.64	3592.14
590.83	3758.02
591.02	3725.26
591.22	3207.12
591.41	3209.17
591.60	3430.35
591.80	3999.68
591.99	3061.71
592.18	3205.07
592.38	3635.14
592.57	3278.80
592.76	3237.84
592.96	3323.85
593.15	3358.67
593.34	3696.58
593.54	3217.36
593.73	3366.86
593.92	3502.03
594.12	3545.03
594.31	3209.17
594.50	3395.53
594.70	3647.43
594.89	3932.10
595.08	3078.10
595.28	3293.13
595.47	4108.23
595.66	3686.34
595.86	3074.00
596.05	3049.43
596.24	3317.71
596.43	3831.75
596.63	3237.84
596.82	3352.52
597.01	3502.03
597.21	3772.36
597.40	3213.26
597.59	3256.27
597.79	3360.72
597.98	3518.41
598.17	3305.42
598.36	3254.22
598.56	3665.86
598.75	3354.57
598.94	3200.98
599.14	3246.03
599.33	3330.00
599.52	3657.67
599.71	3250.13
599.91	3172.30
600.10	3553.23
600.29	3489.74
600.48	3321.81
600.68	3278.80
600.87	3473.36
601.06	3291.09
601.26	3313.61
601.45	3418.06
601.64	3418.06
601.83	3811.27
602.03	2992.08
602.22	3133.39
602.41	3721.16
602.60	4016.07
602.80	3213.26
602.99	3409.87
603.18	3274.70
603.37	3532.75
603.57	3010.51
603.76	3184.59
603.95	3739.59
604.14	3315.66
604.34	3016.66
604.53	3155.92
604.72	3479.50
604.91	3596.23
605.10	3213.26
605.30	3008.47
605.49	3905.48
605.68	3624.90
605.87	3229.65
606.07	3123.15
606.26	3524.55
606.45	3645.38
606.64	3200.98
606.84	3010.51
607.03	3362.76
607.22	3639.24
607.41	3276.75
607.60	3098.58
607.80	3684.30
607.99	3393.48
608.18	3229.65
608.37	3250.13
608.56	3301.33
608.76	3682.25
608.95	3336.14
609.14	3137.49
609.33	3657.67
609.52	3745.73
609.72	3246.03
609.91	3264.46
610.10	3602.38
610.29	3784.65
610.48	3274.70
610.68	3360.72
610.87	3366.86
611.06	3672.01
611.25	3237.84
611.44	3354.57
611.63	3387.34
611.83	3753.93
612.02	3139.54
612.21	3291.09
612.40	3065.81
612.59	3221.45
612.79	3049.43
612.98	3241.93
613.17	3663.82
613.36	3506.12
613.55	3225.55
613.74	3258.32
613.93	3413.96
614.13	3520.46
614.32	3381.20
614.51	3180.50
614.70	3469.26
614.89	3315.66
615.08	3235.79
615.28	3567.56
615.47	3241.93
615.66	3557.32
615.85	3215.31
616.04	3133.39
616.23	3409.87
616.42	3436.49
616.62	3203.02
616.81	3157.97
617.00	3428.30
617.19	3473.36
617.38	3231.69
617.57	3270.61
617.76	3659.72
617.95	3575.75
618.15	3297.23
618.34	3358.67
618.53	3166.16
618.72	3657.67
618.91	3262.41
619.10	3229.65
619.29	3381.20
619.48	3401.68
619.68	3125.20
619.87	3131.34
620.06	3078.10
620.25	3569.61
620.44	3125.20
620.63	3121.10
620.82	3442.64
621.01	3409.87
621.20	3174.35
621.39	3327.95
621.59	3620.81
621.78	3426.25
621.97	3235.79
622.16	3362.76
622.35	3479.50
622.54	3684.30
622.73	3254.22
622.92	2934.74
623.11	3696.58
623.30	3411.92
623.49	3289.04
623.68	3030.99
623.88	3735.50
624.07	3354.57
624.26	3114.96
624.45	3176.40
624.64	3409.87
624.83	3581.90
625.02	3200.98
625.21	3190.74
625.40	3481.55
625.59	3708.87
625.78	3215.31
625.97	3264.46
626.16	3741.64
626.35	3594.19
626.54	3172.30
626.74	3303.37
626.93	3366.86
627.12	3352.52
627.31	3241.93
627.50	3200.98
627.69	3553.23
627.88	3262.41
628.07	3090.38
628.26	3008.47
628.45	3303.37
628.64	3233.74
628.83	3086.29
629.02	3061.71
629.21	3700.68
629.40	3559.37
629.59	3090.38
629.78	3174.35
629.97	3448.78
630.16	3461.07
630.35	3119.06
630.54	3198.93
630.73	3323.85
630.92	3452.88
631.11	3119.06
631.30	3264.46
631.49	3596.23
631.68	3375.05
631.87	3170.26
632.06	3055.57
632.25	3971.01
632.44	3385.29
632.63	3231.69
632.82	3155.92
633.01	3299.28
633.20	3403.72
633.39	3180.50
633.58	2998.23
633.77	3514.31
633.96	3622.86
634.15	3297.23
634.34	3278.80
634.53	3502.03
634.72	3356.62
634.91	2961.36
635.10	3164.11
635.29	3542.99
635.48	3475.40
635.67	3084.24
635.86	3074.00
636.05	3725.26
636.24	3483.59
636.43	3018.71
636.62	3305.42
636.81	2930.64
637.00	3442.64
637.19	3145.68
637.38	3155.92
637.57	3313.61
637.76	3393.48
637.95	3405.77
638.14	3319.76
638.33	3450.83
638.52	3434.44
638.71	3098.58
638.89	3117.01
639.08	4040.64
639.27	3696.58
639.46	3354.57
639.65	3639.24
639.84	3891.14
640.03	4054.98
640.22	3637.19
640.41	3512.27
640.60	3481.55
640.79	3602.38
640.98	3344.33
641.17	3272.65
641.36	3715.02
641.55	3631.05
641.74	3010.51
641.92	3106.77
642.11	3221.45
642.30	3309.52
642.49	3084.24
642.68	3131.34
642.87	3557.32
643.06	3536.84
643.25	3053.52
643.44	3067.86
643.63	3393.48
643.82	3573.71
644.00	3131.34
644.19	3213.26
644.38	3211.22
644.57	3614.66
644.76	3143.63
644.95	3196.88
645.14	3471.31
645.33	3366.86
645.52	3299.28
645.71	3084.24
645.89	3241.93
646.08	3416.01
646.27	3258.32
646.46	3373.00
646.65	3198.93
646.84	3489.74
647.03	3246.03
647.22	3299.28
647.40	3463.12
647.59	3401.68
647.78	2981.84
647.97	3254.22
648.16	3219.41
648.35	3801.03
648.54	3524.55
648.73	3223.50
648.91	3618.76
649.10	3413.96
649.29	3157.97
649.48	3137.49
649.67	3569.61
649.86	3459.02
650.05	3198.93
650.23	3393.48
650.42	3286.99
650.61	3743.69
650.80	3434.44
650.99	3442.64
651.18	3700.68
651.36	3631.05
651.55	3157.97
651.74	3362.76
651.93	3342.28
652.12	3461.07
652.31	3139.54
652.49	3198.93
652.68	3297.23
652.87	3755.97
653.06	3295.18
653.25	3459.02
653.44	3332.05
653.62	3692.49
653.81	3209.17
654.00	3211.22
654.19	3647.43
654.38	3979.20
654.56	3239.89
654.75	3098.58
654.94	3690.44
655.13	3387.34
655.32	3114.96
655.51	3295.18
655.69	3323.85
655.88	3626.95
656.07	3049.43
656.26	3168.21
656.45	3133.39
656.63	3381.20
656.82	3149.78
657.01	3461.07
657.20	3332.05
657.38	3784.65
657.57	3127.25
657.76	3082.19
657.95	3549.13
658.14	3315.66
658.32	3344.33
658.51	3024.85
658.70	3393.48
658.89	3528.65
659.08	3215.31
659.26	3321.81
659.45	3262.41
659.64	3536.84
659.83	3241.93
660.01	3561.42
660.20	3409.87
660.39	3885.00
660.58	2844.63
660.76	3207.12
660.95	3188.69
661.14	3387.34
661.33	3012.56
661.51	3188.69
661.70	3297.23
661.89	3549.13
662.08	3184.59
662.26	3012.56
662.45	3231.69
662.64	3811.27
662.83	3217.36
663.01	3086.29
663.20	3346.38
663.39	3782.60
663.58	3170.26
663.76	3194.83
663.95	3588.04
664.14	3194.83
664.32	3375.05
664.51	3084.24
664.70	3139.54
664.89	3489.74
665.07	3012.56
665.26	3344.33
665.45	3082.19
665.64	3596.23
665.82	3112.91
666.01	3315.66
666.20	3196.88
666.38	3655.62
666.57	3416.01
666.76	5769.13
666.95	12635.97
667.13	18912.99
667.32	22509.22
667.51	25040.51
667.69	25605.75
667.88	21055.17
668.07	15310.61
668.25	13225.78
668.44	11507.54
668.63	10200.93
668.81	8961.91
669.00	7700.36
669.19	7212.95
669.38	6354.85
669.56	5318.57
669.75	4763.58
669.94	4437.95
670.12	3823.56
670.31	3430.35
670.50	3377.10
670.68	3706.82
670.87	3545.03
671.06	3151.82
671.24	3258.32
671.43	3788.74
671.62	3385.29
671.80	3180.50
671.99	3344.33
672.18	3477.45
672.36	3608.52
672.55	3274.70
672.74	3272.65
672.92	3368.91
673.11	3549.13
673.29	2981.84
673.48	3325.90
673.67	3381.20
673.85	3616.71
674.04	3071.95
674.23	3311.57
674.41	3905.48
674.60	3239.89
674.79	3000.27
674.97	3039.19
675.16	3614.66
675.34	3674.06
675.53	3119.06
675.72	3241.93
675.90	3821.51
676.09	3344.33
676.28	3282.89
676.46	3022.80
676.65	3674.06
676.83	3233.74
677.02	3246.03
677.21	3303.37
677.39	3534.79
677.58	3280.85
677.77	3229.65
677.95	3139.54
678.14	3375.05
678.32	3395.53
678.51	3215.31
678.70	3590.09
678.88	3260.37
679.07	3428.30
679.25	3211.22
679.44	3225.55
679.63	3168.21
679.81	3475.40
680.00	3549.13
680.18	3278.80
680.37	3837.89
680.55	3467.21
680.74	3065.81
680.93	2983.89
681.11	3418.06
681.30	3409.87
681.48	3123.15
681.67	3235.79
681.85	3446.73
682.04	3209.17
682.23	3307.47
682.41	3407.82
682.60	3387.34
682.78	3385.29
682.97	3145.68
683.15	3241.93
683.34	3512.27
683.53	3753.93
683.71	3104.72
683.90	3180.50
684.08	3764.17
684.27	3327.95
684.45	3307.47
684.64	3344.33
684.82	3389.39
685.01	3614.66
685.19	3180.50
685.38	3487.69
685.57	3512.27
685.75	3262.41
685.94	3074.00
686.12	3051.47
686.31	3366.86
686.49	3848.13
686.68	2977.75
686.86	3200.98
687.05	3373.00
687.23	3831.75
687.42	3237.84
687.60	3002.32
687.79	3745.73
687.97	3786.69
688.16	3397.58
688.34	3426.25
688.53	3117.01
688.71	3616.71
688.90	3532.75
689.08	3239.89
689.27	3182.54
689.45	3655.62
689.64	3420.11
689.82	3282.89
690.01	3635.14
690.19	3557.32
690.38	3344.33
690.56	3319.76
690.75	3223.50
690.93	3293.13
691.12	3256.27
691.30	3188.69
691.49	3297.23
691.67	3514.31
691.86	3444.68
692.04	3262.41
692.23	3307.47
692.41	3399.63
692.60	3545.03
692.78	3397.58
692.97	3491.79
693.15	3612.62
693.34	3442.64
693.52	3452.88
693.71	3352.52
693.89	3352.52
694.08	3057.62
694.26	3157.97
694.44	3567.56
694.63	3506.12
694.81	3067.86
695.00	3274.70
695.18	3743.69
695.37	3872.71
695.55	3317.71
695.74	3315.66
695.92	3323.85
696.10	3712.97
696.29	3110.86
696.47	3198.93
696.66	3233.74
696.84	3266.51
697.03	3291.09
697.21	3493.83
697.40	4790.20
697.58	3655.62
697.76	3172.30
697.95	3096.53
698.13	3207.12
698.32	3246.03
698.50	3180.50
698.68	3223.50
698.87	3585.99
699.05	3817.41
699.24	3237.84
699.42	3223.50
699.61	3540.94
699.79	3383.24
699.97	3196.88
700.16	3082.19
700.34	3147.73
700.53	3430.35
700.71	3440.59
700.89	3360.72
701.08	3381.20
701.26	3434.44
701.45	3528.65
701.63	3301.33
701.81	3258.32
702.00	3227.60
702.18	3293.13
702.37	3145.68
702.55	3649.48
702.73	3538.89
702.92	3129.30
703.10	3510.22
703.28	3563.47
703.47	3098.58
703.65	3397.58
703.84	3368.91
704.02	3325.90
704.20	3672.01
704.39	3227.60
704.57	3147.73
704.75	3489.74
704.94	3536.84
705.12	3422.16
705.30	3925.96
705.49	8157.06
705.67	14516.00
705.86	19400.41
706.04	21604.02
706.22	23797.40
706.41	22236.84
706.59	16776.96
706.77	13412.15
706.96	11900.75
707.14	10958.68
707.32	9234.29
707.51	8238.98
707.69	6938.52
707.87	5785.51
708.06	4802.49
708.24	4247.49
708.42	3973.06
708.61	4181.95
708.79	3198.93
708.97	3409.87
709.16	3532.75
709.34	3485.64
709.52	3217.36
709.71	3166.16
709.89	3585.99
710.07	3241.93
710.26	3106.77
710.44	3262.41
710.62	3612.62
710.80	3321.81
710.99	3295.18
711.17	3286.99
711.35	3286.99
711.54	3307.47
711.72	3297.23
711.90	3246.03
712.09	3516.36
712.27	3311.57
712.45	3373.00
712.63	3180.50
712.82	3606.47
713.00	3446.73
713.18	3379.15
713.37	3356.62
713.55	3600.33
713.73	3542.99
713.91	3303.37
714.10	3203.02
714.28	3413.96
714.46	3499.98
714.65	3233.74
714.83	3200.98
715.01	3454.92
715.19	3373.00
715.38	3098.58
715.56	3379.15
715.74	3317.71
715.92	3266.51
716.11	3540.94
716.29	2938.84
716.47	3442.64
716.65	3389.39
716.84	3016.66
717.02	3260.37
717.20	3123.15
717.38	3264.46
717.57	3383.24
717.75	3360.72
717.93	3299.28
718.11	3594.19
718.30	3063.76
718.48	3256.27
718.66	3764.17
718.84	3635.14
719.03	3182.54
719.21	3090.38
719.39	3811.27
719.57	3551.18
719.75	3221.45
719.94	3174.35
720.12	3293.13
720.30	3424.20
720.48	3239.89
720.67	3172.30
720.85	3184.59
721.03	3325.90
721.21	3160.02
721.39	3252.17
721.58	3585.99
721.76	3475.40
721.94	3190.74
722.12	3301.33
722.30	3725.26
722.49	3366.86
722.67	3262.41
722.85	3241.93
723.03	3172.30
723.21	3352.52
723.40	3225.55
723.58	3319.76
723.76	3585.99
723.94	3637.19
724.12	3209.17
724.30	3416.01
724.49	3622.86
724.67	3254.22
724.85	3350.48
725.03	3129.30
725.21	3540.94
725.40	3733.45
725.58	3213.26
725.76	3459.02
725.94	3516.36
726.12	3221.45
726.30	3264.46
726.49	3131.34
726.67	3262.41
726.85	3571.66
727.03	3850.18
727.21	4827.06
727.39	6113.19
727.57	6379.42
727.76	6852.50
727.94	6596.51
728.12	5984.16
728.30	5003.19
728.48	4810.68
728.66	4419.52
728.84	4343.74
729.03	3979.20
729.21	3669.96
729.39	3594.19
729.57	3413.96
729.75	3499.98
729.93	3475.40
730.11	3049.43
730.30	3319.76
730.48	3450.83
730.66	3264.46
730.84	3311.57
731.02	3444.68
731.20	3274.70
731.38	3334.09
731.56	3112.91
731.74	3186.64
731.93	3567.56
732.11	3356.62
732.29	3241.93
732.47	3588.04
732.65	3518.41
732.83	3373.00
733.01	3323.85
733.19	3348.43
733.37	3592.14
733.56	3258.32
733.74	3076.05
733.92	3725.26
734.10	3352.52
734.28	3403.72
734.46	3018.71
734.64	3354.57
734.82	3393.48
735.00	3237.84
735.18	3141.58
735.36	3424.20
735.54	3409.87
735.73	3213.26
735.91	3409.87
736.09	3758.02
736.27	3483.59
736.45	3258.32
736.63	2961.36
736.81	3463.12
736.99	3729.35
737.17	3407.82
737.35	3061.71
737.53	3446.73
737.71	3362.76
737.89	3411.92
738.07	3207.12
738.25	3227.60
738.43	3160.02
738.61	3243.98
738.80	3061.71
738.98	3254.22
739.16	3319.76
739.34	3176.40
739.52	3502.03
739.70	3418.06
739.88	3559.37
740.06	3342.28
740.24	2955.22
740.42	3688.39
740.60	3037.14
740.78	3176.40
740.96	3002.32
741.14	3391.44
741.32	3477.45
741.50	3055.57
741.68	3483.59
741.86	3796.93
742.04	3172.30
742.22	3143.63
742.40	3143.63
742.58	3571.66
742.76	3243.98
742.94	3450.83
743.12	3112.91
743.30	3438.54
743.48	3549.13
743.66	3174.35
743.84	3200.98
744.02	3303.37
744.20	3467.21
744.38	3155.92
744.56	3213.26
744.74	3753.93
744.92	3549.13
745.10	3452.88
745.28	3213.26
745.46	3682.25
745.64	3407.82
745.82	3270.61
746.00	3110.86
746.18	3563.47
746.36	3256.27
746.54	3299.28
746.72	3268.56
746.90	3289.04
747.08	3665.86
747.26	3243.98
747.44	3299.28
747.62	3551.18
747.80	3479.50
747.98	3254.22
748.15	3203.02
748.33	3766.21
748.51	3444.68
748.69	3286.99
748.87	3061.71
749.05	3373.00
749.23	3377.10
749.41	3149.78
749.59	3155.92
749.77	3600.33
749.95	3358.67
750.13	3139.54
750.31	3434.44
750.49	3422.16
750.67	3704.78
750.85	3258.32
751.03	3221.45
751.20	3989.44
751.38	3385.29
751.56	3266.51
751.74	3246.03
751.92	3368.91
752.10	3280.85
752.28	3311.57
752.46	3241.93
752.64	3428.30
752.82	3471.31
753.00	3286.99
753.18	3094.48
753.35	3438.54
753.53	3352.52
753.71	3139.54
753.89	3286.99
754.07	3477.45
754.25	3643.34
754.43	3262.41
754.61	3102.67
754.79	3483.59
754.97	3360.72
755.14	3413.96
755.32	3098.58
755.50	3428.30
755.68	3516.36
755.86	3102.67
756.04	3143.63
756.22	3059.67
756.40	3665.86
756.57	3426.25
756.75	3223.50
756.93	3614.66
757.11	3635.14
757.29	3106.77
757.47	3108.82
757.65	3119.06
757.82	2963.41
758.00	3088.34
758.18	3131.34
758.36	3207.12
758.54	3715.02
758.72	3074.00
758.90	3393.48
759.07	3571.66
759.25	3209.17
759.43	3229.65
759.61	2979.79
759.79	4605.88
759.97	3712.97
760.15	3278.80
760.32	3207.12
760.50	3444.68
760.68	3876.80
760.86	3090.38
761.04	3475.40
761.22	3577.80
761.39	3461.07
761.57	3223.50
761.75	3268.56
761.93	3643.34
762.11	3422.16
762.28	3286.99
762.46	3172.30
762.64	3674.06
762.82	3168.21
763.00	3162.06
763.18	3311.57
763.35	3194.83
763.53	3510.22
763.71	3198.93
763.89	3205.07
764.07	3518.41
764.24	3420.11
764.42	3203.02
764.60	3194.83
764.78	3555.27
764.96	3604.42
765.13	3358.67
765.31	3102.67
765.49	3667.91
765.67	3223.50
765.84	3145.68
766.02	3194.83
766.20	3043.28
766.38	3532.75
766.56	3276.75
766.73	3319.76
766.91	3471.31
767.09	3368.91
767.27	3248.08
767.44	3102.67
767.62	3604.42
767.80	3499.98
767.98	3114.96
768.15	3229.65
768.33	3622.86
768.51	3643.34
768.69	3360.72
768.87	3182.54
769.04	3448.78
769.22	3923.91
769.40	3286.99
769.58	3325.90
769.75	3547.08
769.93	3657.67
770.11	3241.93
770.28	3000.27
770.46	3694.54
770.64	3403.72
770.82	3170.26
770.99	3117.01
771.17	3657.67
771.35	3313.61
771.53	3280.85
771.70	3104.72
771.88	3614.66
772.06	3426.25
772.23	3151.82
772.41	3252.17
772.59	3381.20
772.77	3223.50
772.94	3213.26
773.12	3286.99
773.30	3381.20
773.47	3461.07
773.65	3104.72
773.83	3364.81
774.01	3352.52
774.18	3090.38
774.36	3223.50
774.54	3117.01
774.71	3483.59
774.89	3151.82
775.07	3059.67
775.24	3213.26
775.42	3348.43
775.60	3805.13
775.78	3041.23
775.95	3104.72
776.13	3065.81
776.31	3119.06
776.48	3393.48
776.66	3411.92
776.84	3381.20
777.01	3260.37
777.19	3123.15
777.37	3104.72
777.54	3647.43
777.72	3893.19
777.90	3350.48
778.07	3221.45
778.25	4095.94
778.43	3665.86
778.60	3119.06
778.78	3344.33
778.96	3794.89
779.13	3203.02
779.31	3196.88
779.49	3248.08
779.66	3528.65
779.84	3397.58
780.01	3123.15
780.19	3174.35
780.37	3735.50
780.54	3555.27
780.72	3045.33
780.90	3254.22
781.07	3336.14
781.25	3370.96
781.43	3389.39
781.60	3209.17
781.78	3622.86
781.95	3510.22
782.13	3196.88
782.31	3174.35
782.48	3076.05
782.66	3434.44
782.83	3438.54
783.01	3377.10
783.19	3659.72
783.36	3426.25
783.54	3200.98
783.72	3272.65
783.89	3264.46
784.07	3452.88
784.24	3340.24
784.42	3313.61
784.60	3479.50
784.77	3573.71
784.95	2953.17
785.12	3129.30
785.30	3508.17
785.47	3196.88
785.65	3110.86
785.83	3196.88
786.00	3297.23
786.18	3424.20
786.35	3166.16
786.53	3205.07
786.71	3643.34
786.88	3489.74
787.06	3237.84
787.23	3225.55
787.41	3203.02
787.58	3338.19
787.76	3059.67
787.94	3270.61
788.11	3590.09
788.29	3217.36
788.46	3217.36
788.64	3020.75
788.81	3358.67
788.99	3149.78
789.16	3110.86
789.34	3278.80
789.52	3370.96
789.69	3272.65
789.87	2963.41
790.04	3188.69
790.22	3422.16
790.39	3835.85
790.57	3123.15
790.74	3063.76
790.92	3649.48
791.09	3135.44
791.27	3264.46
791.44	3332.05
791.62	3321.81
791.79	3579.85
791.97	3358.67
792.15	3528.65
792.32	3540.94
792.50	3614.66
792.67	3377.10
792.85	3516.36
793.02	3497.93
793.20	3334.09
793.37	3041.23
793.55	3061.71
793.72	3092.43
793.90	3549.13
794.07	3194.83
794.25	3213.26
794.42	3436.49
794.60	3448.78
794.77	3188.69
794.95	3354.57
795.12	3592.14
795.30	3422.16
795.47	3010.51
795.65	3610.57
795.82	3532.75
796.00	3332.05
796.17	3254.22
796.34	3035.09
796.52	3436.49
796.69	3704.78
796.87	3307.47
797.04	3334.09
797.22	3692.49
797.39	3489.74
797.57	3391.44
797.74	3323.85
797.92	3520.46
798.09	3323.85
798.27	3522.51
798.44	3129.30
798.62	3276.75
798.79	3516.36
798.96	3295.18
799.14	3196.88
799.31	4040.64
799.49	3434.44
799.66	3221.45
799.84	3262.41
800.01	3147.73
800.19	3547.08
800.36	2934.74
800.53	3188.69
800.71	3485.64
800.88	3737.54
801.06	3139.54
801.23	3160.02
801.41	3311.57
801.58	3346.38
801.75	3256.27
801.93	3278.80
802.10	3661.77
802.28	3377.10
802.45	3336.14
802.63	3246.03
802.80	3755.97
802.97	3313.61
803.15	3178.45
803.32	3198.93
803.50	3319.76
803.67	3291.09
803.84	3192.78
804.02	3323.85
804.19	3344.33
804.37	2930.64
804.54	2947.03
804.71	3141.58
804.89	3446.73
805.06	3307.47
805.24	3090.38
805.41	3037.14
805.58	3321.81
805.76	3942.34
805.93	3168.21
806.10	3375.05
806.28	3540.94
806.45	3413.96
806.63	3211.22
806.80	3262.41
806.97	3514.31
807.15	3461.07
807.32	3350.48
807.49	3117.01
807.67	3151.82
807.84	3506.12
808.01	3008.47
808.19	3368.91
808.36	3944.39
808.54	3332.05
808.71	3117.01
808.88	3133.39
809.06	3698.63
809.23	3770.31
809.40	3280.85
809.58	3110.86
809.75	3368.91
809.92	3151.82
810.10	3403.72
810.27	3108.82
810.44	3520.46
810.62	3610.57
810.79	3200.98
810.96	3205.07
811.14	3356.62
811.31	3657.67
811.48	3379.15
811.66	3252.17
811.83	3667.91
812.00	3559.37
812.18	3332.05
812.35	3520.46
812.52	3350.48
812.69	3352.52
812.87	3160.02
813.04	3119.06
813.21	3403.72
813.39	3266.51
813.56	3129.30
813.73	3495.88
813.91	3065.81
814.08	3411.92
814.25	3229.65
814.42	3076.05
814.60	3356.62
814.77	3332.05
814.94	3045.33
815.12	3198.93
815.29	3776.45
815.46	3352.52
815.63	3194.83
815.81	3114.96
815.98	3334.09
816.15	3428.30
816.33	3348.43
816.50	3241.93
816.67	3440.59
816.84	3422.16
817.02	3151.82
817.19	3153.87
817.36	3479.50
817.53	3526.60
817.71	3094.48
817.88	3178.45
818.05	3354.57
818.22	3385.29
818.40	3354.57
818.57	3213.26
818.74	3467.21
818.91	3360.72
819.09	3323.85
819.26	3319.76
819.43	3223.50
819.60	3303.37
819.78	3459.02
819.95	3319.76
820.12	3231.69
820.29	3794.89
820.47	3442.64
820.64	3076.05
820.81	3147.73
820.98	3250.13
821.15	3219.41
821.33	3280.85
821.50	3037.14
821.67	3606.47
821.84	3151.82
822.02	3200.98
822.19	3602.38
822.36	3352.52
822.53	3094.48
822.70	3041.23
822.88	3319.76
823.05	3708.87
823.22	3299.28
823.39	3192.78
823.56	3448.78
823.74	3874.76
823.91	2967.51
824.08	3135.44
824.25	3217.36
824.42	3706.82
824.60	3100.62
824.77	3262.41
824.94	3368.91
825.11	3559.37
825.28	2996.18
825.45	3426.25
825.63	3438.54
825.80	3262.41
825.97	3405.77
826.14	3262.41
826.31	3098.58
826.48	3637.19
826.66	3166.16
826.83	3139.54
827.00	3358.67
827.17	3209.17
827.34	3325.90
827.51	3100.62
827.69	3510.22
827.86	3131.34
828.03	3258.32
828.20	3186.64
828.37	3268.56
828.54	3542.99
828.71	3061.71
828.89	3293.13
829.06	3450.83
829.23	3712.97
829.40	3188.69
829.57	3225.55
829.74	3606.47
829.91	3237.84
830.09	3135.44
830.26	3303.37
830.43	3792.84
830.60	3307.47
830.77	3336.14
830.94	3387.34
831.11	3653.58
831.28	3282.89
831.46	3289.04
831.63	3164.11
831.80	3645.38
831.97	3311.57
832.14	3155.92
832.31	3213.26
832.48	3452.88
832.65	3575.75
832.82	3291.09
832.99	3272.65
833.17	3211.22
833.34	3741.64
833.51	3110.86
833.68	2930.64
833.85	3688.39
834.02	3151.82
834.19	3143.63
834.36	3164.11
834.53	3469.26
834.70	3647.43
834.87	3178.45
835.04	2949.08
835.22	3256.27
835.39	3385.29
835.56	3041.23
835.73	3074.00
835.90	3688.39
836.07	3178.45
836.24	3233.74
836.41	3026.90
836.58	3315.66
836.75	3672.01
836.92	3047.38
837.09	2957.27
837.26	3604.42
837.43	3459.02
837.60	3057.62
837.77	3086.29
837.94	3633.10
838.12	3626.95
838.29	2994.13
838.46	2934.74
838.63	3239.89
838.80	3735.50
838.97	3090.38
839.14	3000.27
839.31	3401.68
839.48	3559.37
839.65	3059.67
839.82	3053.52
839.99	3446.73
840.16	3485.64
840.33	2975.70
840.50	3080.14
840.67	3233.74
840.84	2881.49
841.01	2836.44
841.18	2922.45
841.35	3381.20
841.52	3549.13
841.69	3356.62
841.86	3035.09
842.03	3354.57
842.20	3616.71
842.37	2994.13
842.54	3059.67
842.71	3436.49
842.88	3139.54
843.05	3059.67
843.22	2992.08
843.39	3612.62
843.56	3246.03
843.73	2994.13
843.90	3090.38
844.07	3413.96
844.24	3626.95
844.41	3176.40
844.58	3098.58
844.75	3532.75
844.92	3667.91
845.09	3098.58
845.26	3028.95
845.43	3522.51
845.60	3377.10
845.77	3196.88
845.94	3180.50
846.10	3590.09
846.27	3110.86
846.44	2942.93
846.61	2867.16
846.78	3583.95
846.95	3674.06
847.12	3049.43
847.29	3094.48
847.46	3231.69
847.63	3641.29
847.80	2920.40
847.97	3086.29
848.14	3999.68
848.31	3383.24
848.48	2805.72
848.65	3000.27
848.82	3225.55
848.98	3999.68
849.15	3176.40
849.32	3108.82
849.49	3669.96
849.66	3389.39
849.83	3045.33
850.00	2942.93
850.17	3610.57
850.34	3330.00
850.51	2895.83
850.68	3209.17
850.85	3983.30
851.01	3393.48
851.18	3016.66
851.35	3041.23
851.52	3477.45
851.69	3801.03
851.86	2906.07
852.03	3033.04
852.20	3645.38
852.37	3405.77
852.53	2848.72
852.70	2965.46
852.87	3428.30
853.04	3495.88
853.21	2926.55
853.38	3338.19
853.55	3811.27
853.72	3729.35
853.89	2883.54
854.05	2930.64
854.22	3385.29
854.39	3334.09
854.56	2951.12
854.73	3237.84
854.90	3256.27
855.07	3409.87
855.23	2875.35
855.40	2973.65
855.57	3422.16
855.74	3006.42
855.91	3241.93
856.08	2885.59
856.25	3194.83
856.41	3297.23
856.58	2936.79
856.75	3053.52
856.92	3174.35
857.09	3590.09
857.26	2912.21
857.42	3162.06
857.59	3575.75
857.76	3336.14
857.93	3043.28
858.10	3078.10
858.27	3252.17
858.43	3479.50
858.60	2977.75
858.77	2969.55
858.94	3323.85
859.11	3663.82
859.27	3104.72
859.44	2889.68
859.61	3868.61
859.78	3606.47
859.95	3024.85
860.12	2996.18
860.28	3844.04
860.45	3815.37
860.62	3033.04
860.79	3106.77
860.95	3385.29
861.12	3291.09
861.29	2934.74
861.46	2998.23
861.63	3393.48
861.79	3493.83
861.96	2922.45
862.13	3067.86
862.30	3696.58
862.47	3319.76
862.63	2897.88
862.80	3108.82
862.97	3643.34
863.14	3549.13
863.30	3008.47
863.47	2985.94
863.64	3706.82
863.81	3461.07
863.97	2895.83
864.14	3090.38
864.31	3338.19
864.48	3452.88
864.65	3063.76
864.81	3094.48
864.98	3487.69
865.15	3639.24
865.32	3035.09
865.48	3033.04
865.65	3774.41
865.82	3243.98
865.98	3164.11
866.15	3049.43
866.32	3387.34
866.49	3336.14
866.65	3211.22
866.82	3065.81
866.99	3442.64
867.16	3362.76
867.32	3020.75
867.49	2930.64
867.66	3459.02
867.83	3319.76
867.99	3006.42
868.16	3059.67
868.33	3125.20
868.49	3385.29
868.66	3049.43
868.83	3151.82
868.99	3432.40
869.16	3401.68
869.33	3205.07
869.50	3123.15
869.66	3432.40
869.83	3395.53
870.00	2920.40
870.16	3135.44
870.33	3299.28
870.50	3545.03
870.66	3045.33
870.83	3086.29
871.00	3403.72
871.17	3487.69
871.33	3051.47
871.50	2965.46
871.67	3469.26
871.83	3315.66
872.00	3100.62
872.17	3076.05
872.33	3891.14
872.50	3592.14
872.67	2955.22
872.83	3024.85
873.00	3555.27
873.17	3456.97
873.33	3125.20
873.50	3016.66
873.67	3176.40
873.83	3227.60
874.00	3071.95
874.16	3176.40
874.33	3467.21
874.50	3114.96
874.66	2983.89
874.83	3094.48
875.00	3618.76
875.16	3641.29
875.33	3137.49
875.50	2795.48
875.66	3330.00
875.83	3395.53
875.99	3117.01
876.16	3192.78
876.33	3282.89
876.49	3399.63
876.66	3053.52
876.83	3074.00
876.99	3133.39
877.16	3481.55
877.32	2918.36
877.49	3082.19
877.66	3499.98
877.82	3813.32
877.99	3100.62
878.15	3360.72
878.32	3407.82
878.49	3489.74
878.65	3114.96
878.82	3289.04
878.98	3311.57
879.15	3647.43
879.32	3203.02
879.48	3223.50
879.65	3409.87
879.81	3332.05
879.98	3028.95
880.15	3207.12
880.31	3563.47
880.48	3217.36
880.64	3262.41
880.81	3151.82
880.97	3796.93
881.14	3753.93
881.31	3026.90
881.47	3284.94
881.64	3370.96
881.80	3057.62
881.97	3231.69
882.13	3094.48
882.30	3147.73
882.47	3315.66
882.63	2983.89
882.80	3033.04
882.96	3409.87
883.13	3639.24
883.29	3043.28
883.46	2977.75
883.62	3870.66
883.79	3422.16
883.95	3266.51
884.12	3010.51
884.29	3745.73
884.45	3383.24
884.62	2992.08
884.78	3012.56
884.95	3801.03
885.11	3215.31
885.28	3012.56
885.44	3071.95
885.61	3520.46
885.77	3618.76
885.94	3151.82
886.10	3049.43
886.27	3497.93
886.43	3794.89
886.60	3229.65
886.76	3000.27
886.93	3327.95
887.09	3491.79
887.26	2920.40
887.42	3198.93
887.59	3706.82
887.75	3911.62
887.92	3235.79
888.08	3196.88
888.25	3803.08
888.41	3631.05
888.58	3071.95
888.74	2969.55
888.91	3375.05
>>>>>End Processed Spectral Data<<<<<
