SpectraSuite Data File
++++++++++++++++++++++++++++++++++++
Date: Fri May 06 09:28:39 CEST 2016
User: root
Dark Spectrum Present: No
Reference Spectrum Present: No
Number of Sampled Component Spectra: 1
Spectrometers: USB4C02835
Integration Time (usec): 100000 (USB4C02835)
Spectra Averaged: 1 (USB4C02835)
Boxcar Smoothing: 0 (USB4C02835)
Correct for Electrical Dark: No (USB4C02835)
Strobe/Lamp Enabled: No (USB4C02835)
Correct for Detector Non-linearity: No (USB4C02835)
Correct for Stray Light: No (USB4C02835)
Number of Pixels in Processed Spectrum: 3648
>>>>>Begin Processed Spectral Data<<<<<
177.47	2330.59
177.69	2330.59
177.91	2330.59
178.13	2240.48
178.36	2328.54
178.58	3155.92
178.80	3190.74
179.02	3184.59
179.24	3192.78
179.46	2822.10
179.68	2947.03
179.90	3389.39
180.13	3366.86
180.35	2807.77
180.57	2865.11
180.79	3585.99
181.01	3409.87
181.23	2947.03
181.45	3110.86
181.67	3606.47
181.90	3766.21
182.12	3065.81
182.34	2789.33
182.56	3637.19
182.78	3477.45
183.00	2963.41
183.22	2971.60
183.44	3076.05
183.66	4077.51
183.89	3057.62
184.11	3004.37
184.33	3614.66
184.55	3665.86
184.77	2877.40
184.99	2918.36
185.21	3321.81
185.43	3991.49
185.65	2893.78
185.87	2926.55
186.10	4001.73
186.32	4003.78
186.54	3127.25
186.76	2985.94
186.98	3735.50
187.20	3397.58
187.42	2918.36
187.64	2805.72
187.86	3485.64
188.08	3682.25
188.30	2869.20
188.52	3004.37
188.75	3841.99
188.97	3737.54
189.19	2930.64
189.41	2930.64
189.63	3561.42
189.85	3342.28
190.07	2901.97
190.29	2748.37
190.51	3534.79
190.73	3172.30
190.95	3188.69
191.17	2983.89
191.39	3074.00
191.61	3276.75
191.84	3028.95
192.06	3174.35
192.28	3119.06
192.50	4194.24
192.72	3182.54
192.94	3074.00
193.16	3712.97
193.38	3565.51
193.60	2981.84
193.82	3106.77
194.04	3733.45
194.26	3516.36
194.48	3010.51
194.70	2987.99
194.92	3377.10
195.14	3649.48
195.36	2924.50
195.58	3041.23
195.80	3358.67
196.02	3399.63
196.24	2879.44
196.46	3024.85
196.69	3362.76
196.91	4011.97
197.13	2926.55
197.35	2955.22
197.57	3815.37
197.79	3649.48
198.01	3043.28
198.23	2979.79
198.45	3598.28
198.67	3233.74
198.89	2785.24
199.11	3108.82
199.33	3270.61
199.55	3016.66
199.77	2901.97
199.99	3147.73
200.21	3352.52
200.43	3504.07
200.65	2820.05
200.87	2844.63
201.09	3456.97
201.31	3368.91
201.53	2947.03
201.75	3065.81
201.97	3600.33
202.19	3438.54
202.41	3059.67
202.63	3045.33
202.85	3596.23
203.07	3526.60
203.29	3117.01
203.51	2904.02
203.73	3383.24
203.95	4032.45
204.17	2955.22
204.39	3151.82
204.61	3481.55
204.83	3430.35
205.05	3137.49
205.27	2963.41
205.49	4165.57
205.71	3446.73
205.93	2873.30
206.15	2844.63
206.37	3553.23
206.59	3409.87
206.81	2779.09
207.03	2883.54
207.25	3258.32
207.47	3573.71
207.69	2975.70
207.91	3217.36
208.13	3864.52
208.34	3381.20
208.56	2924.50
208.78	3014.61
209.00	3399.63
209.22	3393.48
209.44	3037.14
209.66	2875.35
209.88	3579.85
210.10	3409.87
210.32	2887.64
210.54	3026.90
210.76	3327.95
210.98	3645.38
211.20	2830.29
211.42	3106.77
211.64	3735.50
211.86	3608.52
212.08	3000.27
212.30	3051.47
212.52	3360.72
212.74	3534.79
212.96	3157.97
213.17	3078.10
213.39	3639.24
213.61	3772.36
213.83	2955.22
214.05	2838.48
214.27	3678.15
214.49	3252.17
214.71	2959.31
214.93	3127.25
215.15	3528.65
215.37	3641.29
215.59	2875.35
215.81	3061.71
216.03	3737.54
216.24	3418.06
216.46	2957.27
216.68	3004.37
216.90	3614.66
217.12	3649.48
217.34	2940.88
217.56	3182.54
217.78	3755.97
218.00	3604.42
218.22	3071.95
218.44	3020.75
218.66	3434.44
218.87	3817.41
219.09	3018.71
219.31	2904.02
219.53	3502.03
219.75	3397.58
219.97	3008.47
220.19	3084.24
220.41	3483.59
220.63	3788.74
220.85	2990.03
221.06	2904.02
221.28	3780.55
221.50	3639.24
221.72	2944.98
221.94	2912.21
222.16	3530.70
222.38	3639.24
222.60	2887.64
222.82	3041.23
223.03	3696.58
223.25	3139.54
223.47	2908.12
223.69	3198.93
223.91	3485.64
224.13	3454.92
224.35	2904.02
224.57	3100.62
224.78	3598.28
225.00	3223.50
225.22	3082.19
225.44	2850.77
225.66	3643.34
225.88	3342.28
226.10	3135.44
226.32	2932.69
226.53	3817.41
226.75	3338.19
226.97	3106.77
227.19	2975.70
227.41	3373.00
227.63	3352.52
227.85	2787.29
228.06	3016.66
228.28	3475.40
228.50	3606.47
228.72	2893.78
228.94	2955.22
229.16	3049.43
229.37	3227.60
229.59	2908.12
229.81	3248.08
230.03	3430.35
230.25	3164.11
230.47	2873.30
230.69	2904.02
230.90	3569.61
231.12	3401.68
231.34	3051.47
231.56	3004.37
231.78	3192.78
232.00	3448.78
232.21	3074.00
232.43	2967.51
232.65	3002.32
232.87	3495.88
233.09	2842.58
233.30	2822.10
233.52	3606.47
233.74	3420.11
233.96	2914.26
234.18	3235.79
234.40	3434.44
234.61	3960.77
234.83	2904.02
235.05	2969.55
235.27	3964.87
235.49	3721.16
235.70	2791.38
235.92	2979.79
236.14	3551.18
236.36	3925.96
236.58	2803.67
236.79	3086.29
237.01	3434.44
237.23	3475.40
237.45	3174.35
237.67	3008.47
237.88	3610.57
238.10	3831.75
238.32	2779.09
238.54	2920.40
238.76	3467.21
238.97	3209.17
239.19	2848.72
239.41	3039.19
239.63	3721.16
239.85	3368.91
240.06	3008.47
240.28	2967.51
240.50	3737.54
240.72	3475.40
240.93	2887.64
241.15	3080.14
241.37	3475.40
241.59	3811.27
241.81	3000.27
242.02	3061.71
242.24	3516.36
242.46	3606.47
242.68	2781.14
242.89	2895.83
243.11	3674.06
243.33	3401.68
243.55	2901.97
243.76	2983.89
243.98	3325.90
244.20	3381.20
244.42	2942.93
244.64	2947.03
244.85	3213.26
245.07	3270.61
245.29	2981.84
245.51	2990.03
245.72	3409.87
245.94	3731.40
246.16	2897.88
246.38	2951.12
246.59	3327.95
246.81	3327.95
247.03	2844.63
247.24	2815.96
247.46	3362.76
247.68	3510.22
247.90	2959.31
248.11	2985.94
248.33	3622.86
248.55	3428.30
248.77	3028.95
248.98	3045.33
249.20	3813.32
249.42	3514.31
249.64	2936.79
249.85	2930.64
250.07	3352.52
250.29	3692.49
250.50	2987.99
250.72	2824.15
250.94	3534.79
251.16	3958.72
251.37	2953.17
251.59	3014.61
251.81	3528.65
252.02	3831.75
252.24	2807.77
252.46	3141.58
252.68	3276.75
252.89	3297.23
253.11	2809.81
253.33	3229.65
253.54	3876.80
253.76	3231.69
253.98	3008.47
254.20	2969.55
254.41	3231.69
254.63	3450.83
254.85	2822.10
255.06	2990.03
255.28	3542.99
255.50	3399.63
255.71	2879.44
255.93	2813.91
256.15	3362.76
256.36	3508.17
256.58	2856.92
256.80	2951.12
257.02	3430.35
257.23	3403.72
257.45	3030.99
257.67	3094.48
257.88	3377.10
258.10	3590.09
258.32	3078.10
258.53	3090.38
258.75	3844.04
258.97	3389.39
259.18	2951.12
259.40	2865.11
259.62	3798.98
259.83	3751.88
260.05	2998.23
260.27	4089.79
260.48	3645.38
260.70	3280.85
260.92	2822.10
261.13	2942.93
261.35	3491.79
261.57	3540.94
261.78	2906.07
262.00	2899.92
262.22	3577.80
262.43	3282.89
262.65	2951.12
262.86	3033.04
263.08	4075.46
263.30	3502.03
263.51	2832.34
263.73	2967.51
263.95	3774.41
264.16	3358.67
264.38	2930.64
264.60	3000.27
264.81	3434.44
265.03	3737.54
265.25	3393.48
265.46	2912.21
265.68	3667.91
265.89	3551.18
266.11	2885.59
266.33	2920.40
266.54	3672.01
266.76	3614.66
266.98	3176.40
267.19	3233.74
267.41	3690.44
267.62	3407.82
267.84	2699.22
268.06	3053.52
268.27	3565.51
268.49	3635.14
268.70	3069.91
268.92	3000.27
269.14	3223.50
269.35	3207.12
269.57	3090.38
269.79	3016.66
270.00	3297.23
270.22	3839.94
270.43	2869.20
270.65	2840.53
270.87	3495.88
271.08	3659.72
271.30	3065.81
271.51	2930.64
271.73	3598.28
271.95	3723.21
272.16	2834.39
272.38	3033.04
272.59	3311.57
272.81	3612.62
273.02	2977.75
273.24	2987.99
273.46	3680.20
273.67	3262.41
273.89	2901.97
274.10	2979.79
274.32	3647.43
274.54	3469.26
274.75	3104.72
274.97	3053.52
275.18	3516.36
275.40	3622.86
275.61	2977.75
275.83	3139.54
276.05	3225.55
276.26	3393.48
276.48	3084.24
276.69	3229.65
276.91	3387.34
277.12	3860.42
277.34	3139.54
277.55	3270.61
277.77	3518.41
277.99	3385.29
278.20	3010.51
278.42	3035.09
278.63	3260.37
278.85	3239.89
279.06	3143.63
279.28	3215.31
279.49	3741.64
279.71	3542.99
279.93	3045.33
280.14	3223.50
280.36	3235.79
280.57	3745.73
280.79	3098.58
281.00	3012.56
281.22	3346.38
281.43	3770.31
281.65	2850.77
281.86	2967.51
282.08	3616.71
282.29	3891.14
282.51	3002.32
282.73	2895.83
282.94	3223.50
283.16	3606.47
283.37	3260.37
283.59	3114.96
283.80	3590.09
284.02	3389.39
284.23	3211.22
284.45	3196.88
284.66	3379.15
284.88	3282.89
285.09	3049.43
285.31	3121.10
285.52	3559.37
285.74	3035.09
285.95	3317.71
286.17	3084.24
286.38	3702.73
286.60	3317.71
286.81	2998.23
287.03	3098.58
287.24	3418.06
287.46	3590.09
287.67	3284.94
287.89	3346.38
288.10	3467.21
288.32	3424.20
288.53	3217.36
288.75	3209.17
288.96	3612.62
289.18	3321.81
289.39	3012.56
289.61	3112.91
289.82	3866.56
290.04	3860.42
290.25	2947.03
290.47	3170.26
290.68	3352.52
290.90	3610.57
291.11	2881.49
291.33	3276.75
291.54	3338.19
291.76	3237.84
291.97	3299.28
292.18	3196.88
292.40	3348.43
292.61	3270.61
292.83	3338.19
293.04	3149.78
293.26	3436.49
293.47	3393.48
293.69	2969.55
293.90	2922.45
294.12	3717.06
294.33	3436.49
294.55	3174.35
294.76	3403.72
294.97	3735.50
295.19	3909.57
295.40	3102.67
295.62	3231.69
295.83	3663.82
296.05	3344.33
296.26	3327.95
296.48	3110.86
296.69	3416.01
296.90	3450.83
297.12	3323.85
297.33	3188.69
297.55	3528.65
297.76	3536.84
297.98	3145.68
298.19	3252.17
298.41	3368.91
298.62	3248.08
298.83	3321.81
299.05	3192.78
299.26	3356.62
299.48	3217.36
299.69	3139.54
299.90	3041.23
300.12	3213.26
300.33	3565.51
300.55	3147.73
300.76	3188.69
300.98	3184.59
301.19	3528.65
301.40	3117.01
301.62	3164.11
301.83	3635.14
302.05	3467.21
302.26	3090.38
302.47	3215.31
302.69	3215.31
302.90	3436.49
303.12	2901.97
303.33	3233.74
303.54	3946.44
303.76	3340.24
303.97	3112.91
304.19	3336.14
304.40	3211.22
304.61	3538.89
304.83	3221.45
305.04	3055.57
305.26	3567.56
305.47	3313.61
305.68	3133.39
305.90	3000.27
306.11	3631.05
306.33	3436.49
306.54	2957.27
306.75	3065.81
306.97	3100.62
307.18	3178.45
307.39	3104.72
307.61	3139.54
307.82	3317.71
308.04	3508.17
308.25	2990.03
308.46	3258.32
308.68	3426.25
308.89	3450.83
309.10	3176.40
309.32	3020.75
309.53	3469.26
309.74	3575.75
309.96	2983.89
310.17	3106.77
310.39	3379.15
310.60	3553.23
310.81	3149.78
311.03	3041.23
311.24	3577.80
311.45	3436.49
311.67	3334.09
311.88	3229.65
312.09	3350.48
312.31	3282.89
312.52	3035.09
312.73	3014.61
312.95	3291.09
313.16	3188.69
313.37	3188.69
313.59	3286.99
313.80	3624.90
314.01	3704.78
314.23	3071.95
314.44	3037.14
314.65	3166.16
314.87	3323.85
315.08	3024.85
315.29	3043.28
315.51	3241.93
315.72	3153.87
315.93	3160.02
316.15	3155.92
316.36	3364.81
316.57	3569.61
316.79	3131.34
317.00	3074.00
317.21	3641.29
317.43	3180.50
317.64	3074.00
317.85	3018.71
318.07	3315.66
318.28	3368.91
318.49	3221.45
318.70	3270.61
318.92	3475.40
319.13	3463.12
319.34	3237.84
319.56	3026.90
319.77	3461.07
319.98	3557.32
320.20	3434.44
320.41	3286.99
320.62	3553.23
320.83	3239.89
321.05	3293.13
321.26	3155.92
321.47	3516.36
321.69	3669.96
321.90	3180.50
322.11	3076.05
322.32	3465.16
322.54	3766.21
322.75	3135.44
322.96	4110.27
323.18	3149.78
323.39	3043.28
323.60	2985.94
323.81	3188.69
324.03	3352.52
324.24	3405.77
324.45	3241.93
324.66	2963.41
324.88	3678.15
325.09	3807.17
325.30	3106.77
325.52	2957.27
325.73	3557.32
325.94	3209.17
326.15	2885.59
326.37	2951.12
326.58	3708.87
326.79	3856.33
327.00	3123.15
327.22	3061.71
327.43	3346.38
327.64	3207.12
327.85	3225.55
328.07	3155.92
328.28	3885.00
328.49	3444.68
328.70	3051.47
328.92	3100.62
329.13	3481.55
329.34	3588.04
329.55	3358.67
329.76	3315.66
329.98	3424.20
330.19	3762.12
330.40	3123.15
330.61	3209.17
330.83	3608.52
331.04	3233.74
331.25	3262.41
331.46	3139.54
331.68	3252.17
331.89	3647.43
332.10	3221.45
332.31	2854.87
332.52	3440.59
332.74	3737.54
332.95	3028.95
333.16	3067.86
333.37	3626.95
333.58	3344.33
333.80	3104.72
334.01	2869.20
334.22	3442.64
334.43	3295.18
334.64	2975.70
334.86	3074.00
335.07	3289.04
335.28	3821.51
335.49	3012.56
335.70	3196.88
335.92	3780.55
336.13	3993.54
336.34	3041.23
336.55	3035.09
336.76	3553.23
336.98	3004.37
337.19	3074.00
337.40	3155.92
337.61	3958.72
337.82	3323.85
338.04	3119.06
338.25	2967.51
338.46	3459.02
338.67	3364.81
338.88	2965.46
339.09	2996.18
339.31	3360.72
339.52	3147.73
339.73	3020.75
339.94	3194.83
340.15	3532.75
340.36	3381.20
340.58	3131.34
340.79	3010.51
341.00	3485.64
341.21	3223.50
341.42	3387.34
341.63	3164.11
341.85	3602.38
342.06	3530.70
342.27	3063.76
342.48	3211.22
342.69	3096.53
342.90	3477.45
343.12	3540.94
343.33	3010.51
343.54	3629.00
343.75	3827.65
343.96	3190.74
344.17	2992.08
344.38	3362.76
344.60	3155.92
344.81	3088.34
345.02	3106.77
345.23	3747.78
345.44	3971.01
345.65	3084.24
345.86	3219.41
346.07	3518.41
346.29	3248.08
346.50	3262.41
346.71	3160.02
346.92	3790.79
347.13	3811.27
347.34	3209.17
347.55	2983.89
347.76	3504.07
347.98	3094.48
348.19	3155.92
348.40	3336.14
348.61	3364.81
348.82	3649.48
349.03	3168.21
349.24	2994.13
349.45	3835.85
349.66	3028.95
349.88	3051.47
350.09	2994.13
350.30	3762.12
350.51	3674.06
350.72	3348.43
350.93	3061.71
351.14	3313.61
351.35	3590.09
351.56	3141.58
351.77	3149.78
351.99	3567.56
352.20	3733.45
352.41	3196.88
352.62	2926.55
352.83	3422.16
353.04	3483.59
353.25	3041.23
353.46	3131.34
353.67	3706.82
353.88	3065.81
354.09	2975.70
354.30	3174.35
354.52	3516.36
354.73	3393.48
354.94	3016.66
355.15	3106.77
355.36	3940.29
355.57	3278.80
355.78	2981.84
355.99	3084.24
356.20	3436.49
356.41	3723.21
356.62	3164.11
356.83	3149.78
357.04	3698.63
357.25	3063.76
357.46	3110.86
357.68	2953.17
357.89	3338.19
358.10	3424.20
358.31	3106.77
358.52	3180.50
358.73	3155.92
358.94	3143.63
359.15	3076.05
359.36	3125.20
359.57	3403.72
359.78	3405.77
359.99	3246.03
360.20	2969.55
360.41	3346.38
360.62	3626.95
360.83	3209.17
361.04	3168.21
361.25	3512.27
361.46	3764.17
361.67	3225.55
361.88	3133.39
362.09	3626.95
362.30	3508.17
362.51	3053.52
362.72	3127.25
362.93	3545.03
363.14	3614.66
363.35	3301.33
363.56	3028.95
363.78	3708.87
363.99	3631.05
364.20	3090.38
364.41	3090.38
364.62	3831.75
364.83	3459.02
365.04	3096.53
365.25	3131.34
365.46	3944.39
365.67	3334.09
365.88	3258.32
366.09	3108.82
366.30	3366.86
366.51	3418.06
366.72	3049.43
366.93	3090.38
367.14	3467.21
367.35	3721.16
367.56	3006.42
367.77	3209.17
367.98	3549.13
368.18	3606.47
368.39	3229.65
368.60	3082.19
368.81	3682.25
369.02	3565.51
369.23	3041.23
369.44	2938.84
369.65	3360.72
369.86	3491.79
370.07	3213.26
370.28	2992.08
370.49	3467.21
370.70	3522.51
370.91	3010.51
371.12	2961.36
371.33	3723.21
371.54	3317.71
371.75	3178.45
371.96	2848.72
372.17	3471.31
372.38	3377.10
372.59	3100.62
372.80	3063.76
373.01	3403.72
373.22	3545.03
373.43	3149.78
373.64	2942.93
373.85	3708.87
374.06	3839.94
374.26	3330.00
374.47	3198.93
374.68	3682.25
374.89	3532.75
375.10	3071.95
375.31	3194.83
375.52	3450.83
375.73	3467.21
375.94	2967.51
376.15	3176.40
376.36	3315.66
376.57	3385.29
376.78	3157.97
376.99	3092.43
377.20	3692.49
377.40	3270.61
377.61	3399.63
377.82	3084.24
378.03	3813.32
378.24	3557.32
378.45	3184.59
378.66	3207.12
378.87	3104.72
379.08	3186.64
379.29	3047.38
379.50	3276.75
379.71	3387.34
379.91	3672.01
380.12	3063.76
380.33	3213.26
380.54	3387.34
380.75	3383.24
380.96	3157.97
381.17	3162.06
381.38	3399.63
381.59	3532.75
381.80	3147.73
382.00	3352.52
382.21	3375.05
382.42	3819.46
382.63	3495.88
382.84	3307.47
383.05	3641.29
383.26	3733.45
383.47	3311.57
383.68	3004.37
383.88	3567.56
384.09	3497.93
384.30	3418.06
384.51	3211.22
384.72	3418.06
384.93	3170.26
385.14	3237.84
385.35	3385.29
385.55	3127.25
385.76	3704.78
385.97	3102.67
386.18	3043.28
386.39	3233.74
386.60	3387.34
386.81	3092.43
387.02	2987.99
387.22	3119.06
387.43	3540.94
387.64	3166.16
387.85	3336.14
388.06	3450.83
388.27	4349.89
388.48	7276.43
388.68	10811.23
388.89	13666.10
389.10	14808.86
389.31	14284.58
389.52	11532.11
389.73	10211.17
389.93	9471.86
390.14	8431.49
390.35	7804.81
390.56	7307.15
390.77	6279.07
390.98	4769.72
391.18	4087.75
391.39	3944.39
391.60	3450.83
391.81	3377.10
392.02	3186.64
392.23	4007.87
392.43	3528.65
392.64	3166.16
392.85	3209.17
393.06	3786.69
393.27	3459.02
393.47	3164.11
393.68	3280.85
393.89	3375.05
394.10	3811.27
394.31	3143.63
394.52	3055.57
394.72	3307.47
394.93	3725.26
395.14	3090.38
395.35	3213.26
395.56	3375.05
395.76	3334.09
395.97	3123.15
396.18	3221.45
396.39	3483.59
396.60	4020.16
396.80	3567.56
397.01	3373.00
397.22	3485.64
397.43	3655.62
397.64	3080.14
397.84	3190.74
398.05	3821.51
398.26	3403.72
398.47	3284.94
398.67	3411.92
398.88	3471.31
399.09	3643.34
399.30	3088.34
399.51	3149.78
399.71	3272.65
399.92	3465.16
400.13	3239.89
400.34	3190.74
400.54	3461.07
400.75	3841.99
400.96	3270.61
401.17	3487.69
401.37	3430.35
401.58	3330.00
401.79	3129.30
402.00	3221.45
402.21	4026.31
402.41	3645.38
402.62	3356.62
402.83	3485.64
403.04	3831.75
403.24	4190.14
403.45	3332.05
403.66	3385.29
403.87	3573.71
404.07	3762.12
404.28	3364.81
404.49	3487.69
404.70	3512.27
404.90	3561.42
405.11	3127.25
405.32	3246.03
405.52	3299.28
405.73	3297.23
405.94	3041.23
406.15	3241.93
406.35	3534.79
406.56	3577.80
406.77	3200.98
406.98	3213.26
407.18	3274.70
407.39	3796.93
407.60	3096.53
407.80	3262.41
408.01	3317.71
408.22	3657.67
408.43	3078.10
408.63	3260.37
408.84	3641.29
409.05	3626.95
409.25	3110.86
409.46	3192.78
409.67	3332.05
409.88	3305.42
410.08	3147.73
410.29	3082.19
410.50	3649.48
410.70	3581.90
410.91	3057.62
411.12	3256.27
411.32	3393.48
411.53	3166.16
411.74	3106.77
411.95	3196.88
412.15	3459.02
412.36	3577.80
412.57	3297.23
412.77	3350.48
412.98	3442.64
413.19	3344.33
413.39	3198.93
413.60	3157.97
413.81	3768.26
414.01	3153.87
414.22	3131.34
414.43	3356.62
414.63	3321.81
414.84	3614.66
415.05	3151.82
415.25	2944.98
415.46	3669.96
415.67	3264.46
415.87	3149.78
416.08	3129.30
416.29	3325.90
416.49	3520.46
416.70	3229.65
416.91	3117.01
417.11	3327.95
417.32	3749.83
417.53	3231.69
417.73	3258.32
417.94	3409.87
418.15	3459.02
418.35	3260.37
418.56	3184.59
418.77	3979.20
418.97	3450.83
419.18	3264.46
419.38	2893.78
419.59	3481.55
419.80	3839.94
420.00	3114.96
420.21	3147.73
420.42	3747.78
420.62	3542.99
420.83	3135.44
421.04	3069.91
421.24	3454.92
421.45	3637.19
421.65	3246.03
421.86	3176.40
422.07	3635.14
422.27	3608.52
422.48	3037.14
422.69	2942.93
422.89	3450.83
423.10	3403.72
423.30	3184.59
423.51	3227.60
423.72	3555.27
423.92	3549.13
424.13	3098.58
424.33	3268.56
424.54	3549.13
424.75	3540.94
424.95	3456.97
425.16	3098.58
425.36	3407.82
425.57	3663.82
425.78	3338.19
425.98	3239.89
426.19	3448.78
426.39	3207.12
426.60	3246.03
426.81	3303.37
427.01	3553.23
427.22	3239.89
427.42	2957.27
427.63	3135.44
427.83	3686.34
428.04	3786.69
428.25	3207.12
428.45	3213.26
428.66	3682.25
428.86	3403.72
429.07	3246.03
429.28	3186.64
429.48	3360.72
429.69	3250.13
429.89	3264.46
430.10	3129.30
430.30	3600.33
430.51	3655.62
430.71	3051.47
430.92	3289.04
431.13	3311.57
431.33	3635.14
431.54	3190.74
431.74	3334.09
431.95	3964.87
432.15	3184.59
432.36	3098.58
432.56	3229.65
432.77	3854.28
432.98	3729.35
433.18	3239.89
433.39	3006.42
433.59	3481.55
433.80	3928.00
434.00	3303.37
434.21	3307.47
434.41	3278.80
434.62	3852.23
434.82	3010.51
435.03	3125.20
435.23	3538.89
435.44	3065.81
435.64	3170.26
435.85	3198.93
436.06	3557.32
436.26	3663.82
436.47	3194.83
436.67	3016.66
436.88	3379.15
437.08	3686.34
437.29	3293.13
437.49	3313.61
437.70	3712.97
437.90	3305.42
438.11	3471.31
438.31	3254.22
438.52	3655.62
438.72	3635.14
438.93	3491.79
439.13	3254.22
439.34	3667.91
439.54	3342.28
439.75	3293.13
439.95	3207.12
440.16	3311.57
440.36	3395.53
440.57	3168.21
440.77	3155.92
440.98	3506.12
441.18	3577.80
441.39	3098.58
441.59	3008.47
441.80	4030.40
442.00	3467.21
442.21	3276.75
442.41	2969.55
442.62	3635.14
442.82	3289.04
443.02	3147.73
443.23	3188.69
443.43	3401.68
443.64	3678.15
443.84	3022.80
444.05	3258.32
444.25	3465.16
444.46	3327.95
444.66	3157.97
444.87	3426.25
445.07	3114.96
445.28	3375.05
445.48	3377.10
445.69	3221.45
445.89	4009.92
446.09	3407.82
446.30	3459.02
446.50	3561.42
446.71	5011.38
446.91	6061.99
447.12	6807.45
447.32	7251.86
447.53	7290.77
447.73	6051.75
447.93	5281.71
448.14	5259.18
448.34	5408.69
448.55	4497.34
448.75	4466.62
448.96	4155.33
449.16	4149.18
449.36	4003.78
449.57	3442.64
449.77	3250.13
449.98	3354.57
450.18	3590.09
450.39	3112.91
450.59	3373.00
450.79	3375.05
451.00	3332.05
451.20	3356.62
451.41	3131.34
451.61	3616.71
451.81	3413.96
452.02	3106.77
452.22	3237.84
452.43	3389.39
452.63	3196.88
452.84	3248.08
453.04	3135.44
453.24	3504.07
453.45	3256.27
453.65	3162.06
453.86	3229.65
454.06	3510.22
454.26	3440.59
454.47	3145.68
454.67	3395.53
454.87	3514.31
455.08	3428.30
455.28	3286.99
455.49	3317.71
455.69	3291.09
455.89	3821.51
456.10	3227.60
456.30	3147.73
456.51	3639.24
456.71	3559.37
456.91	3327.95
457.12	3147.73
457.32	3588.04
457.52	3205.07
457.73	3397.58
457.93	3387.34
458.14	3319.76
458.34	3065.81
458.54	3196.88
458.75	3184.59
458.95	3606.47
459.15	3502.03
459.36	3190.74
459.56	3164.11
459.76	3997.64
459.97	3502.03
460.17	3184.59
460.37	3207.12
460.58	3508.17
460.78	3631.05
460.99	3213.26
461.19	3135.44
461.39	3336.14
461.60	3420.11
461.80	3200.98
462.00	2975.70
462.21	3424.20
462.41	3209.17
462.61	2967.51
462.82	2957.27
463.02	3530.70
463.22	3448.78
463.43	3160.02
463.63	3082.19
463.83	3827.65
464.04	3524.55
464.24	3209.17
464.44	3117.01
464.64	3499.98
464.85	3622.86
465.05	3205.07
465.25	3067.86
465.46	3280.85
465.66	3655.62
465.86	3295.18
466.07	3174.35
466.27	3399.63
466.47	3153.87
466.68	3047.38
466.88	3207.12
467.08	3600.33
467.29	3706.82
467.49	3117.01
467.69	3237.84
467.89	3491.79
468.10	3409.87
468.30	3229.65
468.50	3305.42
468.71	3594.19
468.91	3082.19
469.11	3340.24
469.31	3239.89
469.52	3237.84
469.72	3770.31
469.92	3479.50
470.13	3164.11
470.33	3459.02
470.53	3491.79
470.73	3524.55
470.94	3848.13
471.14	4081.60
471.34	4599.74
471.54	4194.24
471.75	3911.62
471.95	3721.16
472.15	3696.58
472.36	3727.30
472.56	3581.90
472.76	3962.82
472.96	3733.45
473.17	3436.49
473.37	3323.85
473.57	3424.20
473.77	3520.46
473.98	3383.24
474.18	3110.86
474.38	4249.54
474.58	3239.89
474.79	2963.41
474.99	3340.24
475.19	3723.21
475.39	3356.62
475.60	3274.70
475.80	3051.47
476.00	3604.42
476.20	3364.81
476.41	3237.84
476.61	3280.85
476.81	3790.79
477.01	3264.46
477.21	3606.47
477.42	3317.71
477.62	3282.89
477.82	3624.90
478.02	3147.73
478.23	3192.78
478.43	3360.72
478.63	3352.52
478.83	3209.17
479.03	3260.37
479.24	3790.79
479.44	3901.38
479.64	3143.63
479.84	3041.23
480.04	3284.94
480.25	3616.71
480.45	3084.24
480.65	3098.58
480.85	3764.17
481.06	3332.05
481.26	3229.65
481.46	3172.30
481.66	3606.47
481.86	3260.37
482.06	3373.00
482.27	3237.84
482.47	3393.48
482.67	3561.42
482.87	3188.69
483.07	3155.92
483.28	3360.72
483.48	3151.82
483.68	3211.22
483.88	3049.43
484.08	3006.42
484.29	3155.92
484.49	3375.05
484.69	3000.27
484.89	3764.17
485.09	3676.10
485.29	3270.61
485.50	3317.71
485.70	3280.85
485.90	3766.21
486.10	3379.15
486.30	3141.58
486.50	3725.26
486.71	3481.55
486.91	3215.31
487.11	3272.65
487.31	3170.26
487.51	3495.88
487.71	3096.53
487.91	3149.78
488.12	3282.89
488.32	2955.22
488.52	3237.84
488.72	2961.36
488.92	3463.12
489.12	3762.12
489.32	3205.07
489.53	3196.88
489.73	3149.78
489.93	3786.69
490.13	3065.81
490.33	2973.65
490.53	3532.75
490.73	3684.30
490.94	3106.77
491.14	3286.99
491.34	3608.52
491.54	3585.99
491.74	3954.63
491.94	4503.48
492.14	5142.45
492.34	5173.17
492.54	4810.68
492.75	4177.86
492.95	4466.62
493.15	4149.18
493.35	3758.02
493.55	3778.50
493.75	3788.74
493.95	3983.30
494.15	3377.10
494.35	3284.94
494.56	3313.61
494.76	3334.09
494.96	3289.04
495.16	3035.09
495.36	3356.62
495.56	3495.88
495.76	3250.13
495.96	3205.07
496.16	3348.43
496.36	3827.65
496.56	3024.85
496.77	3233.74
496.97	3352.52
497.17	3696.58
497.37	2998.23
497.57	3297.23
497.77	3538.89
497.97	3205.07
498.17	3145.68
498.37	3190.74
498.57	3569.61
498.77	3327.95
498.97	3286.99
499.17	3536.84
499.38	3426.25
499.58	3499.98
499.78	3325.90
499.98	3354.57
500.18	3344.33
500.38	3315.66
500.58	3385.29
500.78	3696.58
500.98	6148.00
501.18	7890.82
501.38	9039.73
501.58	9817.96
501.78	9885.55
501.98	8267.65
502.18	7042.96
502.38	6293.41
502.58	6240.16
502.78	5482.41
502.98	5146.55
503.18	4941.75
503.38	4851.64
503.59	4200.38
503.79	4020.16
503.99	3655.62
504.19	3880.90
504.39	3936.20
504.59	3565.51
504.79	3493.83
504.99	4024.26
505.19	3669.96
505.39	3311.57
505.59	3604.42
505.79	3827.65
505.99	3682.25
506.19	3160.02
506.39	3393.48
506.59	3256.27
506.79	3373.00
506.99	3403.72
507.19	3074.00
507.39	3459.02
507.59	3227.60
507.79	3172.30
507.99	3147.73
508.19	3469.26
508.39	3385.29
508.59	3168.21
508.79	3305.42
508.99	3917.76
509.19	3286.99
509.39	3215.31
509.59	3074.00
509.79	3360.72
509.99	3448.78
510.19	3284.94
510.39	3272.65
510.59	3463.12
510.79	3301.33
510.99	2959.31
511.19	3151.82
511.39	3932.10
511.59	3698.63
511.79	3327.95
511.99	3186.64
512.19	3821.51
512.38	3434.44
512.58	3026.90
512.78	3053.52
512.98	3708.87
513.18	3755.97
513.38	3145.68
513.58	3274.70
513.78	3409.87
513.98	3393.48
514.18	3207.12
514.38	3241.93
514.58	3538.89
514.78	3258.32
514.98	3084.24
515.18	3286.99
515.38	3129.30
515.58	3831.75
515.78	3143.63
515.98	3243.98
516.18	3614.66
516.38	3352.52
516.57	3084.24
516.77	3069.91
516.97	3592.14
517.17	3303.37
517.37	2963.41
517.57	3192.78
517.77	3436.49
517.97	3196.88
518.17	3256.27
518.37	3067.86
518.57	3313.61
518.77	3342.28
518.97	3203.02
519.16	3188.69
519.36	3680.20
519.56	3332.05
519.76	3110.86
519.96	3135.44
520.16	3715.02
520.36	3264.46
520.56	3295.18
520.76	3106.77
520.96	3428.30
521.16	3620.81
521.35	3291.09
521.55	3190.74
521.75	3432.40
521.95	3254.22
522.15	3151.82
522.35	3016.66
522.55	3295.18
522.75	3610.57
522.95	3041.23
523.14	2975.70
523.34	3413.96
523.54	3434.44
523.74	3266.51
523.94	3192.78
524.14	3067.86
524.34	3512.27
524.54	3395.53
524.73	3147.73
524.93	3629.00
525.13	3508.17
525.33	3041.23
525.53	3358.67
525.73	3602.38
525.93	3530.70
526.13	3272.65
526.32	3074.00
526.52	3692.49
526.72	3575.75
526.92	3172.30
527.12	3082.19
527.32	3155.92
527.52	3493.83
527.71	3219.41
527.91	3153.87
528.11	3397.58
528.31	3426.25
528.51	3153.87
528.71	3336.14
528.90	3565.51
529.10	3696.58
529.30	3223.50
529.50	2957.27
529.70	3422.16
529.90	3356.62
530.09	3172.30
530.29	2928.60
530.49	3297.23
530.69	4022.21
530.89	3413.96
531.09	3289.04
531.28	3246.03
531.48	3702.73
531.68	3143.63
531.88	3172.30
532.08	3581.90
532.28	3409.87
532.47	3223.50
532.67	3246.03
532.87	3583.95
533.07	3172.30
533.27	3209.17
533.46	3196.88
533.66	3522.51
533.86	3418.06
534.06	3258.32
534.26	3182.54
534.45	3385.29
534.65	3639.24
534.85	3401.68
535.05	3121.10
535.25	3549.13
535.44	3139.54
535.64	3317.71
535.84	3284.94
536.04	3332.05
536.24	3354.57
536.43	3074.00
536.63	3098.58
536.83	3428.30
537.03	3389.39
537.22	2951.12
537.42	3022.80
537.62	3487.69
537.82	3293.13
538.02	3405.77
538.21	3256.27
538.41	4057.03
538.61	3516.36
538.81	3229.65
539.00	3375.05
539.20	3131.34
539.40	3272.65
539.60	3184.59
539.79	3450.83
539.99	3467.21
540.19	3217.36
540.39	3100.62
540.58	3209.17
540.78	3571.66
540.98	3448.78
541.18	3459.02
541.37	3264.46
541.57	3487.69
541.77	3487.69
541.97	3096.53
542.16	2963.41
542.36	3389.39
542.56	3721.16
542.76	3370.96
542.95	3274.70
543.15	3661.77
543.35	3635.14
543.54	3110.86
543.74	3145.68
543.94	3729.35
544.14	3377.10
544.33	3319.76
544.53	3182.54
544.73	3315.66
544.93	3362.76
545.12	3170.26
545.32	3139.54
545.52	3325.90
545.71	3239.89
545.91	3174.35
546.11	3084.24
546.30	3233.74
546.50	3397.58
546.70	3248.08
546.90	3241.93
547.09	3018.71
547.29	3475.40
547.49	3362.76
547.68	3215.31
547.88	3213.26
548.08	3635.14
548.27	3477.45
548.47	3139.54
548.67	3340.24
548.87	3446.73
549.06	3092.43
549.26	2990.03
549.46	3477.45
549.65	3317.71
549.85	3166.16
550.05	3178.45
550.24	3172.30
550.44	3514.31
550.64	3239.89
550.83	3289.04
551.03	3655.62
551.23	3622.86
551.42	3213.26
551.62	3196.88
551.82	3444.68
552.01	3338.19
552.21	3475.40
552.41	3182.54
552.60	3688.39
552.80	3508.17
553.00	3217.36
553.19	3174.35
553.39	3817.41
553.59	3155.92
553.78	3362.76
553.98	3149.78
554.17	3196.88
554.37	3463.12
554.57	3233.74
554.76	2975.70
554.96	3366.86
555.16	3502.03
555.35	3250.13
555.55	3327.95
555.75	3545.03
555.94	3608.52
556.14	2963.41
556.33	3229.65
556.53	3422.16
556.73	3448.78
556.92	3172.30
557.12	3090.38
557.32	3909.57
557.51	3758.02
557.71	3137.49
557.90	3362.76
558.10	3747.78
558.30	3327.95
558.49	3250.13
558.69	3151.82
558.88	3467.21
559.08	3499.98
559.28	3133.39
559.47	3286.99
559.67	3577.80
559.86	3794.89
560.06	3188.69
560.26	3237.84
560.45	3528.65
560.65	3401.68
560.84	3452.88
561.04	3114.96
561.24	3643.34
561.43	3188.69
561.63	3420.11
561.82	3297.23
562.02	3549.13
562.22	3231.69
562.41	3119.06
562.61	3164.11
562.80	3346.38
563.00	3909.57
563.19	3299.28
563.39	3223.50
563.59	3604.42
563.78	3190.74
563.98	2971.60
564.17	3094.48
564.37	3028.95
564.56	3352.52
564.76	3028.95
564.96	3280.85
565.15	3516.36
565.35	4003.78
565.54	3172.30
565.74	3188.69
565.93	3518.41
566.13	3393.48
566.32	3262.41
566.52	3278.80
566.71	3467.21
566.91	3680.20
567.11	3370.96
567.30	3014.61
567.50	3542.99
567.69	3514.31
567.89	3151.82
568.08	3082.19
568.28	3467.21
568.47	3166.16
568.67	3119.06
568.86	3207.12
569.06	3618.76
569.25	3299.28
569.45	3043.28
569.64	3213.26
569.84	3340.24
570.04	3467.21
570.23	3200.98
570.43	3303.37
570.62	3467.21
570.82	3786.69
571.01	3020.75
571.21	3098.58
571.40	3268.56
571.60	3565.51
571.79	3231.69
571.99	3110.86
572.18	3221.45
572.38	3508.17
572.57	3254.22
572.77	3278.80
572.96	3975.11
573.16	3526.60
573.35	3143.63
573.55	3336.14
573.74	3454.92
573.94	3356.62
574.13	3104.72
574.33	3370.96
574.52	3661.77
574.71	3350.48
574.91	3182.54
575.10	3035.09
575.30	3313.61
575.49	3233.74
575.69	3119.06
575.88	3123.15
576.08	3338.19
576.27	3672.01
576.47	3041.23
576.66	3309.52
576.86	3727.30
577.05	3467.21
577.25	3262.41
577.44	3334.09
577.64	3342.28
577.83	3649.48
578.02	3110.86
578.22	3340.24
578.41	3803.08
578.61	3327.95
578.80	3055.57
579.00	3221.45
579.19	3502.03
579.39	3499.98
579.58	3289.04
579.77	3209.17
579.97	3663.82
580.16	3594.19
580.36	3362.76
580.55	3274.70
580.75	3565.51
580.94	3547.08
581.13	3307.47
581.33	3403.72
581.52	3436.49
581.72	3885.00
581.91	3256.27
582.11	3178.45
582.30	3631.05
582.49	3504.07
582.69	3497.93
582.88	3131.34
583.08	3565.51
583.27	3620.81
583.47	3291.09
583.66	3221.45
583.85	3291.09
584.05	3358.67
584.24	3299.28
584.44	3131.34
584.63	3583.95
584.82	3715.02
585.02	3373.00
585.21	3289.04
585.41	3512.27
585.60	3393.48
585.79	3401.68
585.99	3502.03
586.18	3532.75
586.37	4511.68
586.57	6748.06
586.76	18314.98
586.96	36873.68
587.15	49483.02
587.34	57109.66
587.54	61234.27
587.73	53294.29
587.93	38284.73
588.12	29832.76
588.31	24592.01
588.51	21831.35
588.70	20291.27
588.89	17932.01
589.09	15294.23
589.28	13264.69
589.47	10219.36
589.67	7774.09
589.86	6260.64
590.06	4960.18
590.25	4550.59
590.44	3792.84
590.64	3600.33
590.83	3772.36
591.02	3665.86
591.22	3194.83
591.41	3203.02
591.60	3291.09
591.80	3919.81
591.99	2973.65
592.18	3135.44
592.38	3635.14
592.57	3327.95
592.76	3196.88
592.96	3286.99
593.15	3346.38
593.34	3633.10
593.54	3114.96
593.73	3340.24
593.92	3461.07
594.12	3469.26
594.31	3319.76
594.50	3313.61
594.70	3551.18
594.89	4034.50
595.08	3061.71
595.28	3336.14
595.47	4130.75
595.66	3764.17
595.86	3119.06
596.05	3078.10
596.24	3264.46
596.43	3848.13
596.63	3241.93
596.82	3330.00
597.01	3538.89
597.21	3817.41
597.40	3180.50
597.59	3174.35
597.79	3479.50
597.98	3653.58
598.17	3141.58
598.36	3303.37
598.56	3659.72
598.75	3321.81
598.94	3215.31
599.14	3252.17
599.33	3307.47
599.52	3649.48
599.71	3266.51
599.91	3229.65
600.10	3602.38
600.29	3559.37
600.48	3274.70
600.68	3278.80
600.87	3508.17
601.06	3311.57
601.26	3342.28
601.45	3340.24
601.64	3407.82
601.83	3778.50
602.03	3000.27
602.22	3123.15
602.41	3690.44
602.60	4009.92
602.80	3282.89
602.99	3354.57
603.18	3332.05
603.37	3559.37
603.57	3071.95
603.76	3192.78
603.95	3739.59
604.14	3311.57
604.34	3090.38
604.53	3166.16
604.72	3528.65
604.91	3545.03
605.10	3106.77
605.30	3057.62
605.49	3930.05
605.68	3557.32
605.87	3186.64
606.07	3110.86
606.26	3508.17
606.45	3567.56
606.64	3219.41
606.84	3076.05
607.03	3334.09
607.22	3657.67
607.41	3176.40
607.60	3221.45
607.80	3645.38
607.99	3438.54
608.18	3166.16
608.37	3182.54
608.56	3229.65
608.76	3663.82
608.95	3325.90
609.14	3119.06
609.33	3760.07
609.52	3786.69
609.72	3270.61
609.91	3293.13
610.10	3450.83
610.29	3717.06
610.48	3268.56
610.68	3393.48
610.87	3409.87
611.06	3534.79
611.25	3233.74
611.44	3366.86
611.63	3286.99
611.83	3698.63
612.02	3149.78
612.21	3291.09
612.40	3059.67
612.59	3141.58
612.79	3059.67
612.98	3291.09
613.17	3813.32
613.36	3461.07
613.55	3325.90
613.74	3108.82
613.93	3434.44
614.13	3481.55
614.32	3426.25
614.51	3286.99
614.70	3364.81
614.89	3438.54
615.08	3299.28
615.28	3532.75
615.47	3182.54
615.66	3502.03
615.85	3143.63
616.04	3209.17
616.23	3424.20
616.42	3393.48
616.62	3188.69
616.81	3198.93
617.00	3393.48
617.19	3493.83
617.38	3182.54
617.57	3309.52
617.76	3618.76
617.95	3575.75
618.15	3303.37
618.34	3362.76
618.53	3108.82
618.72	3710.92
618.91	3299.28
619.10	3254.22
619.29	3524.55
619.48	3397.58
619.68	3026.90
619.87	3106.77
620.06	3172.30
620.25	3536.84
620.44	3112.91
620.63	3217.36
620.82	3444.68
621.01	3483.59
621.20	3282.89
621.39	3184.59
621.59	3504.07
621.78	3442.64
621.97	3168.21
622.16	3284.94
622.35	3588.04
622.54	3672.01
622.73	3221.45
622.92	2852.82
623.11	3667.91
623.30	3350.48
623.49	3313.61
623.68	3024.85
623.88	3712.97
624.07	3323.85
624.26	3071.95
624.45	3131.34
624.64	3377.10
624.83	3446.73
625.02	3237.84
625.21	3229.65
625.40	3370.96
625.59	3723.21
625.78	3291.09
625.97	3227.60
626.16	3737.54
626.35	3573.71
626.54	3205.07
626.74	3397.58
626.93	3348.43
627.12	3370.96
627.31	3213.26
627.50	3233.74
627.69	3739.59
627.88	3213.26
628.07	3112.91
628.26	2955.22
628.45	3246.03
628.64	3182.54
628.83	3164.11
629.02	3065.81
629.21	3592.14
629.40	3465.16
629.59	3067.86
629.78	3172.30
629.97	3487.69
630.16	3481.55
630.35	3168.21
630.54	3225.55
630.73	3352.52
630.92	3477.45
631.11	3119.06
631.30	3262.41
631.49	3635.14
631.68	3446.73
631.87	3243.98
632.06	3162.06
632.25	3991.49
632.44	3446.73
632.63	3235.79
632.82	3270.61
633.01	3217.36
633.20	3475.40
633.39	3123.15
633.58	2959.31
633.77	3465.16
633.96	3600.33
634.15	3237.84
634.34	3227.60
634.53	3583.95
634.72	3360.72
634.91	2971.60
635.10	3188.69
635.29	3622.86
635.48	3485.64
635.67	3053.52
635.86	3076.05
636.05	3770.31
636.24	3444.68
636.43	3102.67
636.62	3284.94
636.81	2895.83
637.00	3487.69
637.19	3125.20
637.38	3200.98
637.57	3352.52
637.76	3401.68
637.95	3493.83
638.14	3307.47
638.33	3516.36
638.52	3483.59
638.71	3057.62
638.89	3024.85
639.08	4009.92
639.27	3624.90
639.46	3342.28
639.65	3633.10
639.84	3827.65
640.03	4081.60
640.22	3532.75
640.41	3493.83
640.60	3422.16
640.79	3608.52
640.98	3282.89
641.17	3436.49
641.36	3600.33
641.55	3669.96
641.74	3100.62
641.92	3117.01
642.11	3254.22
642.30	3385.29
642.49	3098.58
642.68	3135.44
642.87	3479.50
643.06	3618.76
643.25	3028.95
643.44	3125.20
643.63	3399.63
643.82	3592.14
644.00	3074.00
644.19	3174.35
644.38	3252.17
644.57	3569.61
644.76	3205.07
644.95	3246.03
645.14	3465.16
645.33	3499.98
645.52	3274.70
645.71	3024.85
645.89	3246.03
646.08	3399.63
646.27	3229.65
646.46	3422.16
646.65	3102.67
646.84	3456.97
647.03	3200.98
647.22	3370.96
647.40	3481.55
647.59	3426.25
647.78	3004.37
647.97	3219.41
648.16	3149.78
648.35	3731.40
648.54	3454.92
648.73	3248.08
648.91	3563.47
649.10	3350.48
649.29	3149.78
649.48	3092.43
649.67	3555.27
649.86	3506.12
650.05	3164.11
650.23	3297.23
650.42	3286.99
650.61	3727.30
650.80	3348.43
650.99	3471.31
651.18	3669.96
651.36	3649.48
651.55	3100.62
651.74	3327.95
651.93	3323.85
652.12	3413.96
652.31	3215.31
652.49	3262.41
652.68	3416.01
652.87	3657.67
653.06	3278.80
653.25	3385.29
653.44	3440.59
653.62	3807.17
653.81	3270.61
654.00	3200.98
654.19	3561.42
654.38	4030.40
654.56	3327.95
654.75	3143.63
654.94	3594.19
655.13	3540.94
655.32	3137.49
655.51	3176.40
655.69	3291.09
655.88	3565.51
656.07	2983.89
656.26	3196.88
656.45	3188.69
656.63	3379.15
656.82	3110.86
657.01	3532.75
657.20	3262.41
657.38	3731.40
657.57	3149.78
657.76	2977.75
657.95	3717.06
658.14	3352.52
658.32	3356.62
658.51	3061.71
658.70	3512.27
658.89	3399.63
659.08	3196.88
659.26	3368.91
659.45	3172.30
659.64	3559.37
659.83	3172.30
660.01	3493.83
660.20	3446.73
660.39	3780.55
660.58	2897.88
660.76	3243.98
660.95	3205.07
661.14	3530.70
661.33	3039.19
661.51	3231.69
661.70	3393.48
661.89	3504.07
662.08	3256.27
662.26	2992.08
662.45	3137.49
662.64	3801.03
662.83	3241.93
663.01	3117.01
663.20	3278.80
663.39	3706.82
663.58	3225.55
663.76	3117.01
663.95	3557.32
664.14	3278.80
664.32	3268.56
664.51	3090.38
664.70	2985.94
664.89	3499.98
665.07	3082.19
665.26	3346.38
665.45	3108.82
665.64	3534.79
665.82	3229.65
666.01	3377.10
666.20	3125.20
666.38	3616.71
666.57	3557.32
666.76	5777.32
666.95	12486.47
667.13	18745.06
667.32	22417.07
667.51	24739.46
667.69	25458.30
667.88	20903.62
668.07	15298.33
668.25	13262.65
668.44	11716.43
668.63	10137.45
668.81	8927.10
669.00	7831.43
669.19	7075.73
669.38	6221.73
669.56	5234.61
669.75	4812.73
669.94	4339.65
670.12	3770.31
670.31	3379.15
670.50	3483.59
670.68	3688.39
670.87	3465.16
671.06	3178.45
671.24	3319.76
671.43	3729.35
671.62	3446.73
671.80	3186.64
671.99	3278.80
672.18	3485.64
672.36	3629.00
672.55	3266.51
672.74	3254.22
672.92	3274.70
673.11	3612.62
673.29	3010.51
673.48	3418.06
673.67	3336.14
673.85	3649.48
674.04	3100.62
674.23	3293.13
674.41	3831.75
674.60	3231.69
674.79	2938.84
674.97	3102.67
675.16	3639.24
675.34	3663.82
675.53	3153.87
675.72	3272.65
675.90	3928.00
676.09	3270.61
676.28	3293.13
676.46	3147.73
676.65	3590.09
676.83	3196.88
677.02	3248.08
677.21	3344.33
677.39	3545.03
677.58	3299.28
677.77	3149.78
677.95	3155.92
678.14	3448.78
678.32	3379.15
678.51	3166.16
678.70	3516.36
678.88	3362.76
679.07	3459.02
679.25	3207.12
679.44	3239.89
679.63	3074.00
679.81	3491.79
680.00	3442.64
680.18	3270.61
680.37	3862.47
680.55	3524.55
680.74	3055.57
680.93	2942.93
681.11	3504.07
681.30	3461.07
681.48	3168.21
681.67	3231.69
681.85	3520.46
682.04	3268.56
682.23	3327.95
682.41	3258.32
682.60	3336.14
682.78	3428.30
682.97	3131.34
683.15	3258.32
683.34	3577.80
683.53	3745.73
683.71	3033.04
683.90	3155.92
684.08	3778.50
684.27	3356.62
684.45	3284.94
684.64	3354.57
684.82	3489.74
685.01	3545.03
685.19	3137.49
685.38	3585.99
685.57	3475.40
685.75	3215.31
685.94	3108.82
686.12	3041.23
686.31	3282.89
686.49	3878.85
686.68	2971.60
686.86	3209.17
687.05	3459.02
687.23	3712.97
687.42	3121.10
687.60	3049.43
687.79	3598.28
687.97	3805.13
688.16	3270.61
688.34	3387.34
688.53	3110.86
688.71	3581.90
688.90	3585.99
689.08	3176.40
689.27	3096.53
689.45	3567.56
689.64	3309.52
689.82	3203.02
690.01	3536.84
690.19	3499.98
690.38	3235.79
690.56	3282.89
690.75	3172.30
690.93	3284.94
691.12	3069.91
691.30	3215.31
691.49	3258.32
691.67	3471.31
691.86	3577.80
692.04	3217.36
692.23	3264.46
692.41	3450.83
692.60	3522.51
692.78	3393.48
692.97	3409.87
693.15	3561.42
693.34	3418.06
693.52	3358.67
693.71	3344.33
693.89	3295.18
694.08	3049.43
694.26	3264.46
694.44	3555.27
694.63	3499.98
694.81	3082.19
695.00	3223.50
695.18	3669.96
695.37	3962.82
695.55	3344.33
695.74	3323.85
695.92	3350.48
696.10	3624.90
696.29	3188.69
696.47	3180.50
696.66	3155.92
696.84	3237.84
697.03	3295.18
697.21	3485.64
697.40	4720.57
697.58	3592.14
697.76	3149.78
697.95	3196.88
698.13	3254.22
698.32	3319.76
698.50	3176.40
698.68	3223.50
698.87	3524.55
699.05	3807.17
699.24	3157.97
699.42	3221.45
699.61	3444.68
699.79	3467.21
699.97	3266.51
700.16	3074.00
700.34	3256.27
700.53	3444.68
700.71	3434.44
700.89	3307.47
701.08	3373.00
701.26	3389.39
701.45	3522.51
701.63	3223.50
701.81	3203.02
702.00	3299.28
702.18	3373.00
702.37	3180.50
702.55	3708.87
702.73	3448.78
702.92	3147.73
703.10	3426.25
703.28	3594.19
703.47	3176.40
703.65	3395.53
703.84	3305.42
704.02	3286.99
704.20	3776.45
704.39	3069.91
704.57	3069.91
704.75	3559.37
704.94	3475.40
705.12	3327.95
705.30	4059.07
705.49	8112.00
705.67	14526.24
705.86	19287.77
706.04	21479.10
706.22	23871.12
706.41	22255.28
706.59	16541.44
706.77	13389.62
706.96	11499.34
707.14	10946.39
707.32	9256.82
707.51	8185.73
707.69	6703.00
707.87	5906.34
708.06	4845.49
708.24	4212.67
708.42	4122.56
708.61	4253.63
708.79	3321.81
708.97	3319.76
709.16	3577.80
709.34	3471.31
709.52	3252.17
709.71	3180.50
709.89	3536.84
710.07	3209.17
710.26	3045.33
710.44	3172.30
710.62	3602.38
710.80	3487.69
710.99	3303.37
711.17	3389.39
711.35	3250.13
711.54	3272.65
711.72	3438.54
711.90	3219.41
712.09	3499.98
712.27	3225.55
712.45	3293.13
712.63	3147.73
712.82	3454.92
713.00	3542.99
713.18	3239.89
713.37	3434.44
713.55	3594.19
713.73	3569.61
713.91	3264.46
714.10	3137.49
714.28	3354.57
714.46	3436.49
714.65	3321.81
714.83	3246.03
715.01	3512.27
715.19	3420.11
715.38	3164.11
715.56	3319.76
715.74	3282.89
715.92	3286.99
716.11	3563.47
716.29	2947.03
716.47	3446.73
716.65	3338.19
716.84	3012.56
717.02	3198.93
717.20	3078.10
717.38	3373.00
717.57	3344.33
717.75	3262.41
717.93	3413.96
718.11	3624.90
718.30	3053.52
718.48	3200.98
718.66	3729.35
718.84	3690.44
719.03	3180.50
719.21	3096.53
719.39	3850.18
719.57	3618.76
719.75	3315.66
719.94	3160.02
720.12	3389.39
720.30	3383.24
720.48	3313.61
720.67	3241.93
720.85	3338.19
721.03	3360.72
721.21	3129.30
721.39	3219.41
721.58	3596.23
721.76	3444.68
721.94	3282.89
722.12	3362.76
722.30	3788.74
722.49	3356.62
722.67	3223.50
722.85	3205.07
723.03	3184.59
723.21	3323.85
723.40	3209.17
723.58	3332.05
723.76	3512.27
723.94	3725.26
724.12	3186.64
724.30	3399.63
724.49	3645.38
724.67	3252.17
724.85	3254.22
725.03	3086.29
725.21	3553.23
725.40	3715.02
725.58	3291.09
725.76	3436.49
725.94	3485.64
726.12	3209.17
726.30	3241.93
726.49	3125.20
726.67	3342.28
726.85	3606.47
727.03	3946.44
727.21	4933.56
727.39	6086.56
727.57	6612.89
727.76	6633.37
727.94	6719.39
728.12	5957.54
728.30	4949.94
728.48	4884.41
728.66	4495.29
728.84	4239.30
729.03	3907.52
729.21	3641.29
729.39	3559.37
729.57	3461.07
729.75	3520.46
729.93	3477.45
730.11	3182.54
730.30	3344.33
730.48	3346.38
730.66	3151.82
730.84	3297.23
731.02	3452.88
731.20	3385.29
731.38	3239.89
731.56	3067.86
731.74	3094.48
731.93	3426.25
732.11	3370.96
732.29	3194.83
732.47	3581.90
732.65	3524.55
732.83	3395.53
733.01	3362.76
733.19	3286.99
733.37	3585.99
733.56	3182.54
733.74	3069.91
733.92	3694.54
734.10	3327.95
734.28	3344.33
734.46	2959.31
734.64	3352.52
734.82	3305.42
735.00	3151.82
735.18	3164.11
735.36	3483.59
735.54	3373.00
735.73	3188.69
735.91	3348.43
736.09	3698.63
736.27	3383.24
736.45	3221.45
736.63	2965.46
736.81	3321.81
736.99	3733.45
737.17	3420.11
737.35	3223.50
737.53	3459.02
737.71	3278.80
737.89	3442.64
738.07	3155.92
738.25	3243.98
738.43	3205.07
738.61	3200.98
738.80	3014.61
738.98	3225.55
739.16	3319.76
739.34	3190.74
739.52	3553.23
739.70	3391.44
739.88	3606.47
740.06	3266.51
740.24	2938.84
740.42	3698.63
740.60	3170.26
740.78	3182.54
740.96	2967.51
741.14	3461.07
741.32	3477.45
741.50	3094.48
741.68	3469.26
741.86	3731.40
742.04	3225.55
742.22	3147.73
742.40	3141.58
742.58	3561.42
742.76	3258.32
742.94	3424.20
743.12	3049.43
743.30	3483.59
743.48	3483.59
743.66	3155.92
743.84	3207.12
744.02	3360.72
744.20	3401.68
744.38	3119.06
744.56	3094.48
744.74	3753.93
744.92	3577.80
745.10	3375.05
745.28	3180.50
745.46	3801.03
745.64	3330.00
745.82	3309.52
746.00	3135.44
746.18	3561.42
746.36	3227.60
746.54	3221.45
746.72	3248.08
746.90	3205.07
747.08	3717.06
747.26	3252.17
747.44	3311.57
747.62	3598.28
747.80	3454.92
747.98	3307.47
748.15	3250.13
748.33	3790.79
748.51	3450.83
748.69	3254.22
748.87	3100.62
749.05	3352.52
749.23	3352.52
749.41	3080.14
749.59	3108.82
749.77	3585.99
749.95	3258.32
750.13	3098.58
750.31	3426.25
750.49	3395.53
750.67	3622.86
750.85	3196.88
751.03	3205.07
751.20	3946.44
751.38	3452.88
751.56	3243.98
751.74	3166.16
751.92	3311.57
752.10	3153.87
752.28	3352.52
752.46	3174.35
752.64	3479.50
752.82	3442.64
753.00	3330.00
753.18	3149.78
753.35	3344.33
753.53	3391.44
753.71	3076.05
753.89	3252.17
754.07	3495.88
754.25	3655.62
754.43	3332.05
754.61	3117.01
754.79	3524.55
754.97	3409.87
755.14	3342.28
755.32	3086.29
755.50	3450.83
755.68	3395.53
755.86	3162.06
756.04	3127.25
756.22	3082.19
756.40	3606.47
756.57	3362.76
756.75	3200.98
756.93	3672.01
757.11	3545.03
757.29	3090.38
757.47	3106.77
757.65	3098.58
757.82	2998.23
758.00	3098.58
758.18	3176.40
758.36	3225.55
758.54	3872.71
758.72	2992.08
758.90	3379.15
759.07	3553.23
759.25	3272.65
759.43	3270.61
759.61	3094.48
759.79	4566.97
759.97	3690.44
760.15	3254.22
760.32	3209.17
760.50	3475.40
760.68	3917.76
760.86	3022.80
761.04	3413.96
761.22	3661.77
761.39	3477.45
761.57	3366.86
761.75	3098.58
761.93	3555.27
762.11	3389.39
762.28	3395.53
762.46	3059.67
762.64	3702.73
762.82	3110.86
763.00	3184.59
763.18	3389.39
763.35	3196.88
763.53	3592.14
763.71	3278.80
763.89	3203.02
764.07	3426.25
764.24	3528.65
764.42	3231.69
764.60	3246.03
764.78	3524.55
764.96	3629.00
765.13	3307.47
765.31	3088.34
765.49	3622.86
765.67	3209.17
765.84	3168.21
766.02	3098.58
766.20	3135.44
766.38	3467.21
766.56	3272.65
766.73	3373.00
766.91	3422.16
767.09	3444.68
767.27	3260.37
767.44	3127.25
767.62	3581.90
767.80	3426.25
767.98	3065.81
768.15	3209.17
768.33	3581.90
768.51	3557.32
768.69	3375.05
768.87	3141.58
769.04	3465.16
769.22	4016.07
769.40	3317.71
769.58	3430.35
769.75	3499.98
769.93	3708.87
770.11	3174.35
770.28	2994.13
770.46	3657.67
770.64	3434.44
770.82	3205.07
770.99	3143.63
771.17	3604.42
771.35	3377.10
771.53	3264.46
771.70	3100.62
771.88	3540.94
772.06	3387.34
772.23	3166.16
772.41	3221.45
772.59	3370.96
772.77	3250.13
772.94	3274.70
773.12	3225.55
773.30	3352.52
773.47	3510.22
773.65	3067.86
773.83	3385.29
774.01	3370.96
774.18	3088.34
774.36	3149.78
774.54	3155.92
774.71	3590.09
774.89	3129.30
775.07	3024.85
775.24	3203.02
775.42	3321.81
775.60	3755.97
775.78	3108.82
775.95	3123.15
776.13	3112.91
776.31	3194.83
776.48	3397.58
776.66	3432.40
776.84	3387.34
777.01	3246.03
777.19	3123.15
777.37	3125.20
777.54	3542.99
777.72	3741.64
777.90	3336.14
778.07	3176.40
778.25	4114.37
778.43	3688.39
778.60	3106.77
778.78	3295.18
778.96	3704.78
779.13	3139.54
779.31	3274.70
779.49	3258.32
779.66	3467.21
779.84	3346.38
780.01	3155.92
780.19	3143.63
780.37	3786.69
780.54	3536.84
780.72	3078.10
780.90	3205.07
781.07	3362.76
781.25	3350.48
781.43	3389.39
781.60	3127.25
781.78	3665.86
781.95	3489.74
782.13	3168.21
782.31	3196.88
782.48	3106.77
782.66	3454.92
782.83	3420.11
783.01	3405.77
783.19	3577.80
783.36	3426.25
783.54	3143.63
783.72	3344.33
783.89	3350.48
784.07	3407.82
784.24	3295.18
784.42	3354.57
784.60	3416.01
784.77	3557.32
784.95	2828.24
785.12	3145.68
785.30	3452.88
785.47	3297.23
785.65	3094.48
785.83	3319.76
786.00	3381.20
786.18	3510.22
786.35	3145.68
786.53	3092.43
786.71	3665.86
786.88	3536.84
787.06	3258.32
787.23	3286.99
787.41	3164.11
787.58	3446.73
787.76	3074.00
787.94	3198.93
788.11	3559.37
788.29	3182.54
788.46	3262.41
788.64	3033.04
788.81	3354.57
788.99	3241.93
789.16	3121.10
789.34	3219.41
789.52	3264.46
789.69	3313.61
789.87	2957.27
790.04	3143.63
790.22	3524.55
790.39	3772.36
790.57	3176.40
790.74	3137.49
790.92	3704.78
791.09	3141.58
791.27	3241.93
791.44	3309.52
791.62	3389.39
791.79	3641.29
791.97	3295.18
792.15	3540.94
792.32	3551.18
792.50	3551.18
792.67	3344.33
792.85	3504.07
793.02	3469.26
793.20	3319.76
793.37	3080.14
793.55	3074.00
793.72	3196.88
793.90	3596.23
794.07	3121.10
794.25	3035.09
794.42	3499.98
794.60	3336.14
794.77	3268.56
794.95	3286.99
795.12	3536.84
795.30	3336.14
795.47	3014.61
795.65	3604.42
795.82	3565.51
796.00	3256.27
796.17	3338.19
796.34	3114.96
796.52	3569.61
796.69	3618.76
796.87	3315.66
797.04	3352.52
797.22	3620.81
797.39	3452.88
797.57	3307.47
797.74	3301.33
797.92	3532.75
798.09	3338.19
798.27	3491.79
798.44	3172.30
798.62	3303.37
798.79	3516.36
798.96	3346.38
799.14	3176.40
799.31	4124.61
799.49	3506.12
799.66	3168.21
799.84	3319.76
800.01	3090.38
800.19	3524.55
800.36	2983.89
800.53	3252.17
800.71	3516.36
800.88	3774.41
801.06	3139.54
801.23	3139.54
801.41	3311.57
801.58	3262.41
801.75	3225.55
801.93	3225.55
802.10	3598.28
802.28	3405.77
802.45	3286.99
802.63	3243.98
802.80	3729.35
802.97	3375.05
803.15	3209.17
803.32	3192.78
803.50	3299.28
803.67	3289.04
803.84	3180.50
804.02	3258.32
804.19	3375.05
804.37	2940.88
804.54	3078.10
804.71	3147.73
804.89	3448.78
805.06	3254.22
805.24	3119.06
805.41	2977.75
805.58	3319.76
805.76	3860.42
805.93	3143.63
806.10	3262.41
806.28	3629.00
806.45	3426.25
806.63	3317.71
806.80	3223.50
806.97	3553.23
807.15	3428.30
807.32	3295.18
807.49	3131.34
807.67	3164.11
807.84	3444.68
808.01	3096.53
808.19	3399.63
808.36	3915.72
808.54	3297.23
808.71	3114.96
808.88	3100.62
809.06	3688.39
809.23	3827.65
809.40	3282.89
809.58	3074.00
809.75	3354.57
809.92	3205.07
810.10	3461.07
810.27	3164.11
810.44	3504.07
810.62	3606.47
810.79	3219.41
810.96	3221.45
811.14	3348.43
811.31	3512.27
811.48	3321.81
811.66	3291.09
811.83	3715.02
812.00	3538.89
812.18	3221.45
812.35	3481.55
812.52	3340.24
812.69	3325.90
812.87	3114.96
813.04	3164.11
813.21	3420.11
813.39	3270.61
813.56	3141.58
813.73	3422.16
813.91	3168.21
814.08	3420.11
814.25	3196.88
814.42	2987.99
814.60	3395.53
814.77	3452.88
814.94	3043.28
815.12	3291.09
815.29	3788.74
815.46	3297.23
815.63	3196.88
815.81	3196.88
815.98	3348.43
816.15	3346.38
816.33	3237.84
816.50	3229.65
816.67	3350.48
816.84	3401.68
817.02	3088.34
817.19	3250.13
817.36	3405.77
817.53	3504.07
817.71	3065.81
817.88	3194.83
818.05	3428.30
818.22	3422.16
818.40	3381.20
818.57	3215.31
818.74	3516.36
818.91	3342.28
819.09	3295.18
819.26	3358.67
819.43	3270.61
819.60	3327.95
819.78	3366.86
819.95	3223.50
820.12	3227.60
820.29	3780.55
820.47	3479.50
820.64	3117.01
820.81	3114.96
820.98	3266.51
821.15	3180.50
821.33	3276.75
821.50	3106.77
821.67	3520.46
821.84	3164.11
822.02	3168.21
822.19	3608.52
822.36	3291.09
822.53	3221.45
822.70	3006.42
822.88	3393.48
823.05	3766.21
823.22	3321.81
823.39	3178.45
823.56	3446.73
823.74	3831.75
823.91	3100.62
824.08	3039.19
824.25	3313.61
824.42	3741.64
824.60	3125.20
824.77	3256.27
824.94	3368.91
825.11	3598.28
825.28	3030.99
825.45	3465.16
825.63	3489.74
825.80	3223.50
825.97	3278.80
826.14	3219.41
826.31	3053.52
826.48	3665.86
826.66	3176.40
826.83	3196.88
827.00	3334.09
827.17	3205.07
827.34	3293.13
827.51	3137.49
827.69	3403.72
827.86	3125.20
828.03	3190.74
828.20	3262.41
828.37	3358.67
828.54	3553.23
828.71	3061.71
828.89	3211.22
829.06	3461.07
829.23	3760.07
829.40	3205.07
829.57	3157.97
829.74	3573.71
829.91	3280.85
830.09	3094.48
830.26	3377.10
830.43	3745.73
830.60	3330.00
830.77	3217.36
830.94	3461.07
831.11	3575.75
831.28	3336.14
831.46	3280.85
831.63	3209.17
831.80	3610.57
831.97	3180.50
832.14	3309.52
832.31	3192.78
832.48	3393.48
832.65	3622.86
832.82	3291.09
832.99	3334.09
833.17	3246.03
833.34	3680.20
833.51	3133.39
833.68	2951.12
833.85	3688.39
834.02	3213.26
834.19	3129.30
834.36	3213.26
834.53	3499.98
834.70	3651.53
834.87	3186.64
835.04	2901.97
835.22	3235.79
835.39	3366.86
835.56	2996.18
835.73	2953.17
835.90	3592.14
836.07	3213.26
836.24	3074.00
836.41	2994.13
836.58	3239.89
836.75	3592.14
836.92	3084.24
837.09	2938.84
837.26	3602.38
837.43	3583.95
837.60	3045.33
837.77	2969.55
837.94	3551.18
838.12	3801.03
838.29	2908.12
838.46	2906.07
838.63	3160.02
838.80	3803.08
838.97	3026.90
839.14	2985.94
839.31	3446.73
839.48	3561.42
839.65	3074.00
839.82	3119.06
839.99	3479.50
840.16	3459.02
840.33	2918.36
840.50	3127.25
840.67	3309.52
840.84	2879.44
841.01	2938.84
841.18	3010.51
841.35	3413.96
841.52	3524.55
841.69	3319.76
841.86	3084.24
842.03	3311.57
842.20	3585.99
842.37	2996.18
842.54	3057.62
842.71	3393.48
842.88	3153.87
843.05	2996.18
843.22	3076.05
843.39	3606.47
843.56	3330.00
843.73	2930.64
843.90	3090.38
844.07	3504.07
844.24	3657.67
844.41	3108.82
844.58	3053.52
844.75	3526.60
844.92	3506.12
845.09	3035.09
845.26	2981.84
845.43	3555.27
845.60	3360.72
845.77	3151.82
845.94	3090.38
846.10	3608.52
846.27	3119.06
846.44	2922.45
846.61	2887.64
846.78	3491.79
846.95	3542.99
847.12	3020.75
847.29	2967.51
847.46	3276.75
847.63	3614.66
847.80	2926.55
847.97	3106.77
848.14	3895.24
848.31	3385.29
848.48	2820.05
848.65	3028.95
848.82	3217.36
848.98	4059.07
849.15	3108.82
849.32	3160.02
849.49	3667.91
849.66	3373.00
849.83	3018.71
850.00	2934.74
850.17	3672.01
850.34	3360.72
850.51	2963.41
850.68	3086.29
850.85	3958.72
851.01	3465.16
851.18	2963.41
851.35	3098.58
851.52	3413.96
851.69	3731.40
851.86	2998.23
852.03	2928.60
852.20	3536.84
852.37	3502.03
852.53	2879.44
852.70	2983.89
852.87	3588.04
853.04	3577.80
853.21	2926.55
853.38	3239.89
853.55	3669.96
853.72	3741.64
853.89	2965.46
854.05	2994.13
854.22	3401.68
854.39	3270.61
854.56	3008.47
854.73	3153.87
854.90	3213.26
855.07	3393.48
855.23	2881.49
855.40	2918.36
855.57	3395.53
855.74	3018.71
855.91	3188.69
856.08	2904.02
856.25	3117.01
856.41	3327.95
856.58	2979.79
856.75	3000.27
856.92	3237.84
857.09	3680.20
857.26	2840.53
857.42	2928.60
857.59	3602.38
857.76	3325.90
857.93	3084.24
858.10	3139.54
858.27	3180.50
858.43	3471.31
858.60	3049.43
858.77	2887.64
858.94	3225.55
859.11	3661.77
859.27	3094.48
859.44	2934.74
859.61	3846.09
859.78	3649.48
859.95	3010.51
860.12	2910.16
860.28	3876.80
860.45	3819.46
860.62	2936.79
860.79	3123.15
860.95	3332.05
861.12	3307.47
861.29	2914.26
861.46	3012.56
861.63	3436.49
861.79	3547.08
861.96	2918.36
862.13	2975.70
862.30	3721.16
862.47	3256.27
862.63	2895.83
862.80	3041.23
862.97	3598.28
863.14	3499.98
863.30	3020.75
863.47	2881.49
863.64	3819.46
863.81	3542.99
863.97	2895.83
864.14	3016.66
864.31	3428.30
864.48	3356.62
864.65	2910.16
864.81	3110.86
864.98	3534.79
865.15	3624.90
865.32	3098.58
865.48	3053.52
865.65	3786.69
865.82	3266.51
865.98	3067.86
866.15	3112.91
866.32	3422.16
866.49	3268.56
866.65	3178.45
866.82	3049.43
866.99	3364.81
867.16	3256.27
867.32	3012.56
867.49	2904.02
867.66	3405.77
867.83	3254.22
867.99	2924.50
868.16	3086.29
868.33	3209.17
868.49	3475.40
868.66	3010.51
868.83	3133.39
868.99	3448.78
869.16	3411.92
869.33	3129.30
869.50	3125.20
869.66	3383.24
869.83	3346.38
870.00	2914.26
870.16	3092.43
870.33	3463.12
870.50	3583.95
870.66	3106.77
870.83	2992.08
871.00	3471.31
871.17	3508.17
871.33	3114.96
871.50	2947.03
871.67	3391.44
871.83	3084.24
872.00	3078.10
872.17	3076.05
872.33	3780.55
872.50	3739.59
872.67	2955.22
872.83	3020.75
873.00	3493.83
873.17	3491.79
873.33	3051.47
873.50	3047.38
873.67	3198.93
873.83	3264.46
874.00	3080.14
874.16	3155.92
874.33	3436.49
874.50	3168.21
874.66	2987.99
874.83	3100.62
875.00	3690.44
875.16	3633.10
875.33	3112.91
875.50	2750.42
875.66	3307.47
875.83	3438.54
875.99	3123.15
876.16	3184.59
876.33	3280.85
876.49	3348.43
876.66	3108.82
876.83	3057.62
876.99	3119.06
877.16	3459.02
877.32	3012.56
877.49	3094.48
877.66	3592.14
877.82	3755.97
877.99	3096.53
878.15	3346.38
878.32	3512.27
878.49	3590.09
878.65	3155.92
878.82	3352.52
878.98	3274.70
879.15	3700.68
879.32	3172.30
879.48	3246.03
879.65	3452.88
879.81	3344.33
879.98	3137.49
880.15	3026.90
880.31	3606.47
880.48	3254.22
880.64	3258.32
880.81	3131.34
880.97	3798.98
881.14	3698.63
881.31	3028.95
881.47	3176.40
881.64	3334.09
881.80	3020.75
881.97	3219.41
882.13	3059.67
882.30	3131.34
882.47	3307.47
882.63	3043.28
882.80	2975.70
882.96	3297.23
883.13	3672.01
883.29	2990.03
883.46	2957.27
883.62	3954.63
883.79	3334.09
883.95	3262.41
884.12	2987.99
884.29	3735.50
884.45	3418.06
884.62	3035.09
884.78	3037.14
884.95	3848.13
885.11	3237.84
885.28	3162.06
885.44	3069.91
885.61	3545.03
885.77	3737.54
885.94	3168.21
886.10	3164.11
886.27	3434.44
886.43	3790.79
886.60	3221.45
886.76	3033.04
886.93	3194.83
887.09	3456.97
887.26	2854.87
887.42	3063.76
887.59	3653.58
887.75	3919.81
887.92	3233.74
888.08	3211.22
888.25	3850.18
888.41	3635.14
888.58	3006.42
888.74	2930.64
888.91	3334.09
>>>>>End Processed Spectral Data<<<<<
