SpectraSuite Data File
++++++++++++++++++++++++++++++++++++
Date: Fri May 06 09:28:24 CEST 2016
User: root
Dark Spectrum Present: No
Reference Spectrum Present: No
Number of Sampled Component Spectra: 1
Spectrometers: USB4C02835
Integration Time (usec): 100000 (USB4C02835)
Spectra Averaged: 1 (USB4C02835)
Boxcar Smoothing: 0 (USB4C02835)
Correct for Electrical Dark: No (USB4C02835)
Strobe/Lamp Enabled: No (USB4C02835)
Correct for Detector Non-linearity: No (USB4C02835)
Correct for Stray Light: No (USB4C02835)
Number of Pixels in Processed Spectrum: 3648
>>>>>Begin Processed Spectral Data<<<<<
177.47	2346.97
177.69	2346.97
177.91	2346.97
178.13	2340.83
178.36	2365.40
178.58	3155.92
178.80	3266.51
179.02	3198.93
179.24	3135.44
179.46	2824.15
179.68	2883.54
179.90	3350.48
180.13	3520.46
180.35	2697.17
180.57	2887.64
180.79	3555.27
181.01	3434.44
181.23	2967.51
181.45	3098.58
181.67	3618.76
181.90	3657.67
182.12	3106.77
182.34	2865.11
182.56	3682.25
182.78	3475.40
183.00	2910.16
183.22	2963.41
183.44	3051.47
183.66	4075.46
183.89	3035.09
184.11	2951.12
184.33	3602.38
184.55	3721.16
184.77	2914.26
184.99	2961.36
185.21	3364.81
185.43	4081.60
185.65	2951.12
185.87	2944.98
186.10	4003.78
186.32	4040.64
186.54	3110.86
186.76	3082.19
186.98	3651.53
187.20	3389.39
187.42	3053.52
187.64	2967.51
187.86	3588.04
188.08	3682.25
188.30	2873.30
188.52	3043.28
188.75	3780.55
188.97	3829.70
189.19	2959.31
189.41	2940.88
189.63	3577.80
189.85	3444.68
190.07	2910.16
190.29	2844.63
190.51	3545.03
190.73	3213.26
190.95	3139.54
191.17	3002.32
191.39	3090.38
191.61	3344.33
191.84	2934.74
192.06	3035.09
192.28	3074.00
192.50	4157.38
192.72	3076.05
192.94	3074.00
193.16	3737.54
193.38	3588.04
193.60	2858.96
193.82	3053.52
194.04	3647.43
194.26	3594.19
194.48	2987.99
194.70	2936.79
194.92	3385.29
195.14	3633.10
195.36	2951.12
195.58	3028.95
195.80	3411.92
196.02	3352.52
196.24	2875.35
196.46	3033.04
196.69	3375.05
196.91	4085.70
197.13	3018.71
197.35	2996.18
197.57	3788.74
197.79	3631.05
198.01	3061.71
198.23	2971.60
198.45	3479.50
198.67	3178.45
198.89	2740.18
199.11	3096.53
199.33	3248.08
199.55	3016.66
199.77	2916.31
199.99	3125.20
200.21	3338.19
200.43	3573.71
200.65	2856.92
200.87	2803.67
201.09	3473.36
201.31	3411.92
201.53	3016.66
201.75	3069.91
201.97	3516.36
202.19	3502.03
202.41	3065.81
202.63	3100.62
202.85	3620.81
203.07	3555.27
203.29	3033.04
203.51	2992.08
203.73	3352.52
203.95	4057.03
204.17	3012.56
204.39	3125.20
204.61	3538.89
204.83	3426.25
205.05	3207.12
205.27	3000.27
205.49	3960.77
205.71	3461.07
205.93	2822.10
206.15	2852.82
206.37	3499.98
206.59	3436.49
206.81	2762.71
207.03	2910.16
207.25	3260.37
207.47	3653.58
207.69	2981.84
207.91	3188.69
208.13	3882.95
208.34	3327.95
208.56	2863.06
208.78	2975.70
209.00	3338.19
209.22	3397.58
209.44	3014.61
209.66	2885.59
209.88	3477.45
210.10	3387.34
210.32	2947.03
210.54	3043.28
210.76	3344.33
210.98	3676.10
211.20	2822.10
211.42	3028.95
211.64	3721.16
211.86	3571.66
212.08	2979.79
212.30	3037.14
212.52	3373.00
212.74	3569.61
212.96	3106.77
213.17	3033.04
213.39	3694.54
213.61	3876.80
213.83	2920.40
214.05	2818.00
214.27	3659.72
214.49	3229.65
214.71	2951.12
214.93	3084.24
215.15	3422.16
215.37	3629.00
215.59	2793.43
215.81	3061.71
216.03	3680.20
216.24	3393.48
216.46	2863.06
216.68	3039.19
216.90	3571.66
217.12	3680.20
217.34	2926.55
217.56	3135.44
217.78	3813.32
218.00	3608.52
218.22	3082.19
218.44	3131.34
218.66	3450.83
218.87	3762.12
219.09	3024.85
219.31	2889.68
219.53	3479.50
219.75	3350.48
219.97	3000.27
220.19	3033.04
220.41	3397.58
220.63	3790.79
220.85	2987.99
221.06	2990.03
221.28	3848.13
221.50	3569.61
221.72	2953.17
221.94	2799.57
222.16	3471.31
222.38	3665.86
222.60	2947.03
222.82	3065.81
223.03	3655.62
223.25	3231.69
223.47	2910.16
223.69	3145.68
223.91	3583.95
224.13	3504.07
224.35	2877.40
224.57	3153.87
224.78	3622.86
225.00	3213.26
225.22	3078.10
225.44	2869.20
225.66	3614.66
225.88	3297.23
226.10	3108.82
226.32	3026.90
226.53	3755.97
226.75	3352.52
226.97	3028.95
227.19	2985.94
227.41	3348.43
227.63	3432.40
227.85	2760.66
228.06	3008.47
228.28	3459.02
228.50	3665.86
228.72	2836.44
228.94	2863.06
229.16	3127.25
229.37	3207.12
229.59	2834.39
229.81	3180.50
230.03	3379.15
230.25	3250.13
230.47	2772.95
230.69	2981.84
230.90	3688.39
231.12	3217.36
231.34	3098.58
231.56	3028.95
231.78	3254.22
232.00	3411.92
232.21	2985.94
232.43	3028.95
232.65	3074.00
232.87	3540.94
233.09	2836.44
233.30	2959.31
233.52	3717.06
233.74	3291.09
233.96	2863.06
234.18	3155.92
234.40	3459.02
234.61	3901.38
234.83	2815.96
235.05	2881.49
235.27	3962.82
235.49	3694.54
235.70	2838.48
235.92	3061.71
236.14	3639.24
236.36	4007.87
236.58	2879.44
236.79	3043.28
237.01	3409.87
237.23	3467.21
237.45	3198.93
237.67	2985.94
237.88	3522.51
238.10	3780.55
238.32	2856.92
238.54	2951.12
238.76	3491.79
238.97	3235.79
239.19	2916.31
239.41	3047.38
239.63	3696.58
239.85	3299.28
240.06	2944.98
240.28	2994.13
240.50	3729.35
240.72	3502.03
240.93	2873.30
241.15	3033.04
241.37	3407.82
241.59	3770.31
241.81	2985.94
242.02	3000.27
242.24	3557.32
242.46	3606.47
242.68	2820.05
242.89	2934.74
243.11	3669.96
243.33	3403.72
243.55	2951.12
243.76	3010.51
243.98	3330.00
244.20	3364.81
244.42	2983.89
244.64	2955.22
244.85	3235.79
245.07	3221.45
245.29	2891.73
245.51	3037.14
245.72	3534.79
245.94	3622.86
246.16	2959.31
246.38	2965.46
246.59	3282.89
246.81	3274.70
247.03	2811.86
247.24	2887.64
247.46	3301.33
247.68	3491.79
247.90	2926.55
248.11	3014.61
248.33	3622.86
248.55	3454.92
248.77	2998.23
248.98	3053.52
249.20	3772.36
249.42	3452.88
249.64	2916.31
249.85	2908.12
250.07	3362.76
250.29	3567.56
250.50	3057.62
250.72	2871.25
250.94	3643.34
251.16	4016.07
251.37	2922.45
251.59	3033.04
251.81	3616.71
252.02	3778.50
252.24	2832.34
252.46	3069.91
252.68	3264.46
252.89	3303.37
253.11	2795.48
253.33	3123.15
253.54	3786.69
253.76	3184.59
253.98	2885.59
254.20	2928.60
254.41	3239.89
254.63	3383.24
254.85	2897.88
255.06	3149.78
255.28	3565.51
255.50	3393.48
255.71	2926.55
255.93	2721.75
256.15	3368.91
256.36	3665.86
256.58	2795.48
256.80	2828.24
257.02	3422.16
257.23	3299.28
257.45	3026.90
257.67	3133.39
257.88	3305.42
258.10	3526.60
258.32	2914.26
258.53	3041.23
258.75	3805.13
258.97	3221.45
259.18	2865.11
259.40	2979.79
259.62	3796.93
259.83	3876.80
260.05	3020.75
260.27	3966.92
260.48	3612.62
260.70	3186.64
260.92	2854.87
261.13	2947.03
261.35	3618.76
261.57	3553.23
261.78	2809.81
262.00	2924.50
262.22	3575.75
262.43	3272.65
262.65	2922.45
262.86	3008.47
263.08	3964.87
263.30	3499.98
263.51	2824.15
263.73	2949.08
263.95	3844.04
264.16	3248.08
264.38	2885.59
264.60	2934.74
264.81	3434.44
265.03	3766.21
265.25	3434.44
265.46	2881.49
265.68	3706.82
265.89	3680.20
266.11	2820.05
266.33	2965.46
266.54	3733.45
266.76	3540.94
266.98	3026.90
267.19	3104.72
267.41	3741.64
267.62	3393.48
267.84	2830.29
268.06	3045.33
268.27	3526.60
268.49	3649.48
268.70	3061.71
268.92	3049.43
269.14	3282.89
269.35	3123.15
269.57	3139.54
269.79	3098.58
270.00	3370.96
270.22	3856.33
270.43	2746.33
270.65	2805.72
270.87	3448.78
271.08	3622.86
271.30	3114.96
271.51	2924.50
271.73	3575.75
271.95	3803.08
272.16	2914.26
272.38	3080.14
272.59	3428.30
272.81	3602.38
273.02	2877.40
273.24	3030.99
273.46	3631.05
273.67	3200.98
273.89	2869.20
274.10	2863.06
274.32	3815.37
274.54	3540.94
274.75	3090.38
274.97	3033.04
275.18	3588.04
275.40	3588.04
275.61	2963.41
275.83	3135.44
276.05	3141.58
276.26	3467.21
276.48	3090.38
276.69	3188.69
276.91	3301.33
277.12	3780.55
277.34	3184.59
277.55	3254.22
277.77	3430.35
277.99	3370.96
278.20	3131.34
278.42	3006.42
278.63	3225.55
278.85	3248.08
279.06	3139.54
279.28	3180.50
279.49	3684.30
279.71	3581.90
279.93	3104.72
280.14	3096.53
280.36	3301.33
280.57	3639.24
280.79	3186.64
281.00	2992.08
281.22	3332.05
281.43	3682.25
281.65	2883.54
281.86	3024.85
282.08	3551.18
282.29	3852.23
282.51	2942.93
282.73	3012.56
282.94	3092.43
283.16	3688.39
283.37	3160.02
283.59	3172.30
283.80	3604.42
284.02	3448.78
284.23	3149.78
284.45	3170.26
284.66	3252.17
284.88	3207.12
285.09	2985.94
285.31	3153.87
285.52	3542.99
285.74	3119.06
285.95	3297.23
286.17	3139.54
286.38	3792.84
286.60	3327.95
286.81	3002.32
287.03	3088.34
287.24	3459.02
287.46	3657.67
287.67	3233.74
287.89	3340.24
288.10	3397.58
288.32	3514.31
288.53	3221.45
288.75	3207.12
288.96	3626.95
289.18	3311.57
289.39	3033.04
289.61	3213.26
289.82	3966.92
290.04	3934.15
290.25	2930.64
290.47	3229.65
290.68	3426.25
290.90	3631.05
291.11	2959.31
291.33	3237.84
291.54	3319.76
291.76	3313.61
291.97	3198.93
292.18	3188.69
292.40	3293.13
292.61	3272.65
292.83	3280.85
293.04	3119.06
293.26	3401.68
293.47	3395.53
293.69	3131.34
293.90	3059.67
294.12	3774.41
294.33	3416.01
294.55	3129.30
294.76	3330.00
294.97	3725.26
295.19	3862.47
295.40	3069.91
295.62	3114.96
295.83	3588.04
296.05	3377.10
296.26	3387.34
296.48	3141.58
296.69	3399.63
296.90	3510.22
297.12	3323.85
297.33	3192.78
297.55	3463.12
297.76	3585.99
297.98	3135.44
298.19	3344.33
298.41	3422.16
298.62	3200.98
298.83	3319.76
299.05	3172.30
299.26	3319.76
299.48	3270.61
299.69	3143.63
299.90	3100.62
300.12	3289.04
300.33	3557.32
300.55	3155.92
300.76	3123.15
300.98	3237.84
301.19	3618.76
301.40	3069.91
301.62	3106.77
301.83	3563.47
302.05	3446.73
302.26	3082.19
302.47	3190.74
302.69	3178.45
302.90	3387.34
303.12	2861.01
303.33	3164.11
303.54	3952.58
303.76	3325.90
303.97	3057.62
304.19	3330.00
304.40	3237.84
304.61	3532.75
304.83	3221.45
305.04	3067.86
305.26	3598.28
305.47	3266.51
305.68	3043.28
305.90	3004.37
306.11	3792.84
306.33	3360.72
306.54	2930.64
306.75	3061.71
306.97	3098.58
307.18	3282.89
307.39	3053.52
307.61	3286.99
307.82	3375.05
308.04	3663.82
308.25	2971.60
308.46	3237.84
308.68	3418.06
308.89	3475.40
309.10	3221.45
309.32	3084.24
309.53	3411.92
309.74	3575.75
309.96	2942.93
310.17	3188.69
310.39	3309.52
310.60	3651.53
310.81	3151.82
311.03	3002.32
311.24	3622.86
311.45	3459.02
311.67	3327.95
311.88	3186.64
312.09	3362.76
312.31	3313.61
312.52	3059.67
312.73	3000.27
312.95	3155.92
313.16	3293.13
313.37	3321.81
313.59	3284.94
313.80	3610.57
314.01	3848.13
314.23	3123.15
314.44	2947.03
314.65	3262.41
314.87	3262.41
315.08	3123.15
315.29	3184.59
315.51	3196.88
315.72	3069.91
315.93	3123.15
316.15	3127.25
316.36	3323.85
316.57	3395.53
316.79	3098.58
317.00	3012.56
317.21	3516.36
317.43	3239.89
317.64	3121.10
317.85	3014.61
318.07	3303.37
318.28	3350.48
318.49	3098.58
318.70	3393.48
318.92	3436.49
319.13	3485.64
319.34	3221.45
319.56	3106.77
319.77	3506.12
319.98	3608.52
320.20	3397.58
320.41	3250.13
320.62	3524.55
320.83	3164.11
321.05	3364.81
321.26	3176.40
321.47	3485.64
321.69	3581.90
321.90	3045.33
322.11	2985.94
322.32	3459.02
322.54	3864.52
322.75	3121.10
322.96	4339.65
323.18	3157.97
323.39	3127.25
323.60	3053.52
323.81	3149.78
324.03	3336.14
324.24	3344.33
324.45	3176.40
324.66	3018.71
324.88	3588.04
325.09	3764.17
325.30	3074.00
325.52	3000.27
325.73	3444.68
325.94	3239.89
326.15	3065.81
326.37	2969.55
326.58	3667.91
326.79	3835.85
327.00	3055.57
327.22	3104.72
327.43	3375.05
327.64	3225.55
327.85	3237.84
328.07	3184.59
328.28	3893.19
328.49	3356.62
328.70	3026.90
328.92	3082.19
329.13	3352.52
329.34	3571.66
329.55	3307.47
329.76	3303.37
329.98	3313.61
330.19	3723.21
330.40	3198.93
330.61	3270.61
330.83	3655.62
331.04	3286.99
331.25	3207.12
331.46	3135.44
331.68	3174.35
331.89	3606.47
332.10	3076.05
332.31	2959.31
332.52	3395.53
332.74	3729.35
332.95	2930.64
333.16	3090.38
333.37	3602.38
333.58	3293.13
333.80	3184.59
334.01	2920.40
334.22	3389.39
334.43	3362.76
334.64	3043.28
334.86	3094.48
335.07	3176.40
335.28	3672.01
335.49	2985.94
335.70	3127.25
335.92	3753.93
336.13	3977.16
336.34	3033.04
336.55	3061.71
336.76	3551.18
336.98	3026.90
337.19	3170.26
337.40	3166.16
337.61	3891.14
337.82	3416.01
338.04	3127.25
338.25	2910.16
338.46	3391.44
338.67	3459.02
338.88	3033.04
339.09	2955.22
339.31	3422.16
339.52	3188.69
339.73	2951.12
339.94	3147.73
340.15	3557.32
340.36	3360.72
340.58	3164.11
340.79	2979.79
341.00	3645.38
341.21	3143.63
341.42	3368.91
341.63	3094.48
341.85	3649.48
342.06	3471.31
342.27	3082.19
342.48	3237.84
342.69	3157.97
342.90	3559.37
343.12	3616.71
343.33	3000.27
343.54	3635.14
343.75	3739.59
343.96	3280.85
344.17	3106.77
344.38	3377.10
344.60	3155.92
344.81	3028.95
345.02	3053.52
345.23	3643.34
345.44	4034.50
345.65	3125.20
345.86	3092.43
346.07	3487.69
346.29	3305.42
346.50	3289.04
346.71	3141.58
346.92	3809.22
347.13	3866.56
347.34	3205.07
347.55	2987.99
347.76	3663.82
347.98	3125.20
348.19	3145.68
348.40	3213.26
348.61	3375.05
348.82	3819.46
349.03	3180.50
349.24	2959.31
349.45	3848.13
349.66	3016.66
349.88	3037.14
350.09	3022.80
350.30	3784.65
350.51	3796.93
350.72	3368.91
350.93	3051.47
351.14	3399.63
351.35	3520.46
351.56	3137.49
351.77	3235.79
351.99	3581.90
352.20	3672.01
352.41	3254.22
352.62	2955.22
352.83	3454.92
353.04	3381.20
353.25	3086.29
353.46	3127.25
353.67	3725.26
353.88	3000.27
354.09	3059.67
354.30	3188.69
354.52	3602.38
354.73	3411.92
354.94	3108.82
355.15	3121.10
355.36	3893.19
355.57	3260.37
355.78	2961.36
355.99	3059.67
356.20	3360.72
356.41	3686.34
356.62	3215.31
356.83	3190.74
357.04	3758.02
357.25	3151.82
357.46	3086.29
357.68	2969.55
357.89	3293.13
358.10	3481.55
358.31	3028.95
358.52	3114.96
358.73	3194.83
358.94	3170.26
359.15	3110.86
359.36	3065.81
359.57	3489.74
359.78	3389.39
359.99	3418.06
360.20	2967.51
360.41	3465.16
360.62	3706.82
360.83	3114.96
361.04	3131.34
361.25	3579.85
361.46	3848.13
361.67	3203.02
361.88	3123.15
362.09	3661.77
362.30	3477.45
362.51	2953.17
362.72	3100.62
362.93	3622.86
363.14	3532.75
363.35	3215.31
363.56	3008.47
363.78	3725.26
363.99	3680.20
364.20	3133.39
364.41	3157.97
364.62	3874.76
364.83	3510.22
365.04	3117.01
365.25	3157.97
365.46	3925.96
365.67	3254.22
365.88	3295.18
366.09	3018.71
366.30	3356.62
366.51	3469.26
366.72	3020.75
366.93	3057.62
367.14	3508.17
367.35	3700.68
367.56	3000.27
367.77	3114.96
367.98	3354.57
368.18	3565.51
368.39	3250.13
368.60	3024.85
368.81	3657.67
369.02	3538.89
369.23	3133.39
369.44	2947.03
369.65	3426.25
369.86	3649.48
370.07	3286.99
370.28	3002.32
370.49	3540.94
370.70	3491.79
370.91	3063.76
371.12	3014.61
371.33	3647.43
371.54	3317.71
371.75	3225.55
371.96	2854.87
372.17	3481.55
372.38	3461.07
372.59	3149.78
372.80	3076.05
373.01	3438.54
373.22	3483.59
373.43	3135.44
373.64	3030.99
373.85	3719.11
374.06	3731.40
374.26	3336.14
374.47	3231.69
374.68	3764.17
374.89	3475.40
375.10	3033.04
375.31	3215.31
375.52	3510.22
375.73	3426.25
375.94	2875.35
376.15	3213.26
376.36	3268.56
376.57	3354.57
376.78	3172.30
376.99	3176.40
377.20	3704.78
377.40	3360.72
377.61	3430.35
377.82	3098.58
378.03	3749.83
378.24	3610.57
378.45	3270.61
378.66	3215.31
378.87	3043.28
379.08	3080.14
379.29	3104.72
379.50	3227.60
379.71	3379.15
379.91	3600.33
380.12	3084.24
380.33	3207.12
380.54	3334.09
380.75	3434.44
380.96	3123.15
381.17	3155.92
381.38	3393.48
381.59	3467.21
381.80	3205.07
382.00	3319.76
382.21	3397.58
382.42	3747.78
382.63	3475.40
382.84	3342.28
383.05	3647.43
383.26	3770.31
383.47	3309.52
383.68	3057.62
383.88	3672.01
384.09	3454.92
384.30	3348.43
384.51	3268.56
384.72	3387.34
384.93	3200.98
385.14	3180.50
385.35	3461.07
385.55	3180.50
385.76	3727.30
385.97	3084.24
386.18	2965.46
386.39	3295.18
386.60	3305.42
386.81	3065.81
387.02	3012.56
387.22	3149.78
387.43	3592.14
387.64	3121.10
387.85	3354.57
388.06	3461.07
388.27	4450.24
388.48	7315.34
388.68	10925.91
388.89	13872.94
389.10	14982.94
389.31	14456.61
389.52	11644.75
389.73	10295.14
389.93	9408.37
390.14	8415.10
390.35	7989.13
390.56	7374.74
390.77	6166.43
390.98	4818.87
391.18	4083.65
391.39	3946.44
391.60	3452.88
391.81	3373.00
392.02	3162.06
392.23	3856.33
392.43	3491.79
392.64	3198.93
392.85	3225.55
393.06	3850.18
393.27	3434.44
393.47	3088.34
393.68	3182.54
393.89	3366.86
394.10	3737.54
394.31	3119.06
394.52	3084.24
394.72	3323.85
394.93	3778.50
395.14	3020.75
395.35	3295.18
395.56	3346.38
395.76	3426.25
395.97	3035.09
396.18	3297.23
396.39	3452.88
396.60	4136.90
396.80	3536.84
397.01	3336.14
397.22	3620.81
397.43	3655.62
397.64	3117.01
397.84	3133.39
398.05	3925.96
398.26	3393.48
398.47	3297.23
398.67	3266.51
398.88	3461.07
399.09	3616.71
399.30	3151.82
399.51	3205.07
399.71	3309.52
399.92	3430.35
400.13	3323.85
400.34	3090.38
400.54	3545.03
400.75	3796.93
400.96	3217.36
401.17	3413.96
401.37	3575.75
401.58	3440.59
401.79	3188.69
402.00	3293.13
402.21	3991.49
402.41	3606.47
402.62	3411.92
402.83	3549.13
403.04	3819.46
403.24	4184.00
403.45	3229.65
403.66	3409.87
403.87	3602.38
404.07	3786.69
404.28	3389.39
404.49	3446.73
404.70	3518.41
404.90	3661.77
405.11	3184.59
405.32	3219.41
405.52	3299.28
405.73	3311.57
405.94	3086.29
406.15	3229.65
406.35	3499.98
406.56	3647.43
406.77	3190.74
406.98	3203.02
407.18	3256.27
407.39	3708.87
407.60	3174.35
407.80	3284.94
408.01	3319.76
408.22	3581.90
408.43	3094.48
408.63	3254.22
408.84	3645.38
409.05	3592.14
409.25	3063.76
409.46	3133.39
409.67	3254.22
409.88	3254.22
410.08	3127.25
410.29	3143.63
410.50	3626.95
410.70	3524.55
410.91	3043.28
411.12	3252.17
411.32	3469.26
411.53	3309.52
411.74	3086.29
411.95	3227.60
412.15	3508.17
412.36	3598.28
412.57	3299.28
412.77	3368.91
412.98	3434.44
413.19	3272.65
413.39	3178.45
413.60	3209.17
413.81	3803.08
414.01	3248.08
414.22	3164.11
414.43	3327.95
414.63	3344.33
414.84	3629.00
415.05	3213.26
415.25	2959.31
415.46	3542.99
415.67	3311.57
415.87	3172.30
416.08	3157.97
416.29	3446.73
416.49	3598.28
416.70	3254.22
416.91	3190.74
417.11	3393.48
417.32	3608.52
417.53	3196.88
417.73	3190.74
417.94	3418.06
418.15	3508.17
418.35	3231.69
418.56	3338.19
418.77	3973.06
418.97	3452.88
419.18	3286.99
419.38	2875.35
419.59	3442.64
419.80	3792.84
420.00	2998.23
420.21	3243.98
420.42	3747.78
420.62	3583.95
420.83	3157.97
421.04	3139.54
421.24	3487.69
421.45	3608.52
421.65	3151.82
421.86	3153.87
422.07	3637.19
422.27	3614.66
422.48	3049.43
422.69	3006.42
422.89	3450.83
423.10	3360.72
423.30	3100.62
423.51	3246.03
423.72	3557.32
423.92	3637.19
424.13	3018.71
424.33	3235.79
424.54	3610.57
424.75	3553.23
424.95	3356.62
425.16	3094.48
425.36	3354.57
425.57	3674.06
425.78	3280.85
425.98	3321.81
426.19	3450.83
426.39	3270.61
426.60	3268.56
426.81	3327.95
427.01	3549.13
427.22	3217.36
427.42	3043.28
427.63	3096.53
427.83	3657.67
428.04	3784.65
428.25	3164.11
428.45	3229.65
428.66	3686.34
428.86	3393.48
429.07	3194.83
429.28	3135.44
429.48	3436.49
429.69	3321.81
429.89	3237.84
430.10	3098.58
430.30	3649.48
430.51	3729.35
430.71	3133.39
430.92	3223.50
431.13	3368.91
431.33	3567.56
431.54	3225.55
431.74	3356.62
431.95	3891.14
432.15	3139.54
432.36	3123.15
432.56	3248.08
432.77	3919.81
432.98	3819.46
433.18	3246.03
433.39	2996.18
433.59	3364.81
433.80	3913.67
434.00	3452.88
434.21	3231.69
434.41	3299.28
434.62	3934.15
434.82	3026.90
435.03	3149.78
435.23	3469.26
435.44	3131.34
435.64	3102.67
435.85	3278.80
436.06	3618.76
436.26	3710.92
436.47	3147.73
436.67	3069.91
436.88	3354.57
437.08	3624.90
437.29	3246.03
437.49	3352.52
437.70	3665.86
437.90	3452.88
438.11	3358.67
438.31	3272.65
438.52	3725.26
438.72	3616.71
438.93	3448.78
439.13	3241.93
439.34	3596.23
439.54	3293.13
439.75	3309.52
439.95	3235.79
440.16	3241.93
440.36	3493.83
440.57	3157.97
440.77	3172.30
440.98	3344.33
441.18	3567.56
441.39	3074.00
441.59	3039.19
441.80	3917.76
442.00	3409.87
442.21	3205.07
442.41	3049.43
442.62	3694.54
442.82	3305.42
443.02	3090.38
443.23	3215.31
443.43	3293.13
443.64	3723.21
443.84	3041.23
444.05	3196.88
444.25	3428.30
444.46	3319.76
444.66	3082.19
444.87	3360.72
445.07	3149.78
445.28	3399.63
445.48	3315.66
445.69	3237.84
445.89	4003.78
446.09	3428.30
446.30	3487.69
446.50	3579.85
446.71	5025.72
446.91	6068.13
447.12	6791.06
447.32	7229.33
447.53	7307.15
447.73	6127.52
447.93	5461.93
448.14	5228.46
448.34	5466.03
448.55	4452.28
448.75	4313.02
448.96	4102.08
449.16	4171.71
449.36	4001.73
449.57	3391.44
449.77	3200.98
449.98	3456.97
450.18	3559.37
450.39	3160.02
450.59	3334.09
450.79	3391.44
451.00	3317.71
451.20	3428.30
451.41	3239.89
451.61	3563.47
451.81	3327.95
452.02	3096.53
452.22	3172.30
452.43	3381.20
452.63	3262.41
452.84	3205.07
453.04	3104.72
453.24	3471.31
453.45	3254.22
453.65	3246.03
453.86	3200.98
454.06	3551.18
454.26	3434.44
454.47	3069.91
454.67	3338.19
454.87	3483.59
455.08	3395.53
455.28	3260.37
455.49	3418.06
455.69	3264.46
455.89	3903.43
456.10	3286.99
456.30	3129.30
456.51	3608.52
456.71	3467.21
456.91	3395.53
457.12	3182.54
457.32	3575.75
457.52	3172.30
457.73	3385.29
457.93	3350.48
458.14	3311.57
458.34	3049.43
458.54	3141.58
458.75	3123.15
458.95	3649.48
459.15	3440.59
459.36	3264.46
459.56	3176.40
459.76	3960.77
459.97	3504.07
460.17	3174.35
460.37	3237.84
460.58	3469.26
460.78	3565.51
460.99	3209.17
461.19	3194.83
461.39	3291.09
461.60	3397.58
461.80	3194.83
462.00	2987.99
462.21	3489.74
462.41	3303.37
462.61	3006.42
462.82	2885.59
463.02	3602.38
463.22	3448.78
463.43	3176.40
463.63	3082.19
463.83	3764.17
464.04	3461.07
464.24	3131.34
464.44	3078.10
464.64	3524.55
464.85	3534.79
465.05	3166.16
465.25	3121.10
465.46	3295.18
465.66	3565.51
465.86	3256.27
466.07	3086.29
466.27	3422.16
466.47	3106.77
466.68	3051.47
466.88	3268.56
467.08	3592.14
467.29	3635.14
467.49	3223.50
467.69	3305.42
467.89	3643.34
468.10	3428.30
468.30	3233.74
468.50	3280.85
468.71	3655.62
468.91	3074.00
469.11	3299.28
469.31	3278.80
469.52	3194.83
469.72	3825.61
469.92	3471.31
470.13	3137.49
470.33	3428.30
470.53	3538.89
470.73	3542.99
470.94	3915.72
471.14	3950.53
471.34	4571.07
471.54	4155.33
471.75	3921.86
471.95	3784.65
472.15	3700.68
472.36	3717.06
472.56	3631.05
472.76	3952.58
472.96	3762.12
473.17	3493.83
473.37	3229.65
473.57	3471.31
473.77	3510.22
473.98	3297.23
474.18	3117.01
474.38	4110.27
474.58	3297.23
474.79	3020.75
474.99	3319.76
475.19	3653.58
475.39	3182.54
475.60	3241.93
475.80	3092.43
476.00	3581.90
476.20	3338.19
476.41	3182.54
476.61	3215.31
476.81	3751.88
477.01	3305.42
477.21	3463.12
477.42	3305.42
477.62	3352.52
477.82	3594.19
478.02	3008.47
478.23	3168.21
478.43	3243.98
478.63	3377.10
478.83	3147.73
479.03	3223.50
479.24	3745.73
479.44	3893.19
479.64	2996.18
479.84	3008.47
480.04	3264.46
480.25	3649.48
480.45	3074.00
480.65	3155.92
480.85	3733.45
481.06	3311.57
481.26	3270.61
481.46	3108.82
481.66	3549.13
481.86	3286.99
482.06	3278.80
482.27	3338.19
482.47	3307.47
482.67	3545.03
482.87	3276.75
483.07	3149.78
483.28	3323.85
483.48	3184.59
483.68	3200.98
483.88	3131.34
484.08	3080.14
484.29	3200.98
484.49	3272.65
484.69	2912.21
484.89	3753.93
485.09	3747.78
485.29	3133.39
485.50	3266.51
485.70	3354.57
485.90	3645.38
486.10	3299.28
486.30	3125.20
486.50	3794.89
486.71	3534.79
486.91	3229.65
487.11	3192.78
487.31	3180.50
487.51	3553.23
487.71	3139.54
487.91	3088.34
488.12	3250.13
488.32	3037.14
488.52	3133.39
488.72	2877.40
488.92	3493.83
489.12	3749.83
489.32	3305.42
489.53	3164.11
489.73	3209.17
489.93	3876.80
490.13	3119.06
490.33	3049.43
490.53	3389.39
490.73	3696.58
490.94	3016.66
491.14	3243.98
491.34	3657.67
491.54	3563.47
491.74	3903.43
491.94	4458.43
492.14	5218.22
492.34	5255.09
492.54	4706.23
492.75	4032.45
492.95	4423.61
493.15	4046.79
493.35	3852.23
493.55	3821.51
493.75	3733.45
493.95	4075.46
494.15	3454.92
494.35	3291.09
494.56	3436.49
494.76	3297.23
494.96	3334.09
495.16	3119.06
495.36	3379.15
495.56	3516.36
495.76	3229.65
495.96	3172.30
496.16	3203.02
496.36	3844.04
496.56	3123.15
496.77	3188.69
496.97	3456.97
497.17	3704.78
497.37	2977.75
497.57	3270.61
497.77	3461.07
497.97	3225.55
498.17	3190.74
498.37	3127.25
498.57	3614.66
498.77	3366.86
498.97	3379.15
499.17	3512.27
499.38	3360.72
499.58	3592.14
499.78	3299.28
499.98	3354.57
500.18	3467.21
500.38	3246.03
500.58	3362.76
500.78	3803.08
500.98	6072.23
501.18	7726.99
501.38	9301.87
501.58	10164.07
501.78	10059.62
501.98	8265.60
502.18	7131.03
502.38	6059.94
502.58	6270.88
502.78	5369.77
502.98	5171.12
503.18	4999.09
503.38	4761.53
503.59	4179.90
503.79	4009.92
503.99	3680.20
504.19	3962.82
504.39	3987.40
504.59	3614.66
504.79	3504.07
504.99	4054.98
505.19	3674.06
505.39	3211.22
505.59	3581.90
505.79	3934.15
505.99	3610.57
506.19	3266.51
506.39	3395.53
506.59	3323.85
506.79	3346.38
506.99	3430.35
507.19	3172.30
507.39	3469.26
507.59	3074.00
507.79	3182.54
507.99	3090.38
508.19	3352.52
508.39	3344.33
508.59	3192.78
508.79	3360.72
508.99	3930.05
509.19	3319.76
509.39	3254.22
509.59	3131.34
509.79	3305.42
509.99	3418.06
510.19	3336.14
510.39	3319.76
510.59	3418.06
510.79	3356.62
510.99	3020.75
511.19	3131.34
511.39	3760.07
511.59	3723.21
511.79	3368.91
511.99	3149.78
512.19	3893.19
512.38	3416.01
512.58	3121.10
512.78	2992.08
512.98	3798.98
513.18	3764.17
513.38	3055.57
513.58	3307.47
513.78	3416.01
513.98	3434.44
514.18	3133.39
514.38	3211.22
514.58	3532.75
514.78	3399.63
514.98	3065.81
515.18	3188.69
515.38	3205.07
515.58	3844.04
515.78	3061.71
515.98	3172.30
516.18	3549.13
516.38	3487.69
516.57	3155.92
516.77	3164.11
516.97	3569.61
517.17	3327.95
517.37	2983.89
517.57	3246.03
517.77	3440.59
517.97	3221.45
518.17	3248.08
518.37	3000.27
518.57	3266.51
518.77	3373.00
518.97	3123.15
519.16	3235.79
519.36	3631.05
519.56	3338.19
519.76	3147.73
519.96	3250.13
520.16	3786.69
520.36	3209.17
520.56	3364.81
520.76	3200.98
520.96	3356.62
521.16	3665.86
521.35	3418.06
521.55	3319.76
521.75	3514.31
521.95	3377.10
522.15	3094.48
522.35	3065.81
522.55	3274.70
522.75	3633.10
522.95	3028.95
523.14	3008.47
523.34	3391.44
523.54	3301.33
523.74	3280.85
523.94	3241.93
524.14	3143.63
524.34	3495.88
524.54	3375.05
524.73	3196.88
524.93	3639.24
525.13	3448.78
525.33	3049.43
525.53	3401.68
525.73	3614.66
525.93	3452.88
526.13	3178.45
526.32	3037.14
526.52	3631.05
526.72	3639.24
526.92	3141.58
527.12	3092.43
527.32	3235.79
527.52	3483.59
527.71	3254.22
527.91	3100.62
528.11	3373.00
528.31	3385.29
528.51	3123.15
528.71	3397.58
528.90	3641.29
529.10	3715.02
529.30	3131.34
529.50	2918.36
529.70	3489.74
529.90	3354.57
530.09	3164.11
530.29	3033.04
530.49	3276.75
530.69	4089.79
530.89	3350.48
531.09	3266.51
531.28	3278.80
531.48	3745.73
531.68	3223.50
531.88	3098.58
532.08	3614.66
532.28	3315.66
532.47	3344.33
532.67	3225.55
532.87	3532.75
533.07	3229.65
533.27	3180.50
533.46	3203.02
533.66	3532.75
533.86	3354.57
534.06	3207.12
534.26	3078.10
534.45	3362.76
534.65	3622.86
534.85	3280.85
535.05	3092.43
535.25	3588.04
535.44	3049.43
535.64	3184.59
535.84	3233.74
536.04	3346.38
536.24	3375.05
536.43	3160.02
536.63	3131.34
536.83	3487.69
537.03	3557.32
537.22	3008.47
537.42	2963.41
537.62	3567.56
537.82	3231.69
538.02	3405.77
538.21	3213.26
538.41	4050.88
538.61	3475.40
538.81	3274.70
539.00	3346.38
539.20	3174.35
539.40	3307.47
539.60	3135.44
539.79	3340.24
539.99	3411.92
540.19	3182.54
540.39	3055.57
540.58	3250.13
540.78	3700.68
540.98	3456.97
541.18	3413.96
541.37	3276.75
541.57	3428.30
541.77	3583.95
541.97	3123.15
542.16	3065.81
542.36	3416.01
542.56	3639.24
542.76	3291.09
542.95	3194.83
543.15	3549.13
543.35	3532.75
543.54	3131.34
543.74	3123.15
543.94	3747.78
544.14	3297.23
544.33	3278.80
544.53	3203.02
544.73	3379.15
544.93	3389.39
545.12	3196.88
545.32	3182.54
545.52	3375.05
545.71	3164.11
545.91	3135.44
546.11	3084.24
546.30	3254.22
546.50	3461.07
546.70	3258.32
546.90	3160.02
547.09	3037.14
547.29	3495.88
547.49	3196.88
547.68	3190.74
547.88	3229.65
548.08	3604.42
548.27	3483.59
548.47	3119.06
548.67	3268.56
548.87	3657.67
549.06	3170.26
549.26	3035.09
549.46	3536.84
549.65	3311.57
549.85	3143.63
550.05	3172.30
550.24	3180.50
550.44	3454.92
550.64	3282.89
550.83	3192.78
551.03	3700.68
551.23	3649.48
551.42	3260.37
551.62	3246.03
551.82	3467.21
552.01	3459.02
552.21	3524.55
552.41	3227.60
552.60	3766.21
552.80	3483.59
553.00	3094.48
553.19	3256.27
553.39	3885.00
553.59	3123.15
553.78	3254.22
553.98	3147.73
554.17	3131.34
554.37	3434.44
554.57	3270.61
554.76	3057.62
554.96	3375.05
555.16	3436.49
555.35	3282.89
555.55	3323.85
555.75	3528.65
555.94	3614.66
556.14	2928.60
556.33	3182.54
556.53	3424.20
556.73	3403.72
556.92	3178.45
557.12	3157.97
557.32	3909.57
557.51	3682.25
557.71	3198.93
557.90	3336.14
558.10	3729.35
558.30	3354.57
558.49	3229.65
558.69	3086.29
558.88	3594.19
559.08	3487.69
559.28	3127.25
559.47	3190.74
559.67	3606.47
559.86	3819.46
560.06	3131.34
560.26	3258.32
560.45	3577.80
560.65	3342.28
560.84	3461.07
561.04	3102.67
561.24	3631.05
561.43	3188.69
561.63	3430.35
561.82	3389.39
562.02	3542.99
562.22	3223.50
562.41	3102.67
562.61	3098.58
562.80	3123.15
563.00	3979.20
563.19	3182.54
563.39	3225.55
563.59	3551.18
563.78	3186.64
563.98	2973.65
564.17	3139.54
564.37	3078.10
564.56	3362.76
564.76	3084.24
564.96	3323.85
565.15	3463.12
565.35	3913.67
565.54	3305.42
565.74	3256.27
565.93	3545.03
566.13	3452.88
566.32	3239.89
566.52	3305.42
566.71	3368.91
566.91	3575.75
567.11	3237.84
567.30	3053.52
567.50	3592.14
567.69	3600.33
567.89	3213.26
568.08	3061.71
568.28	3532.75
568.47	3217.36
568.67	3151.82
568.86	3223.50
569.06	3549.13
569.25	3366.86
569.45	3016.66
569.64	3286.99
569.84	3430.35
570.04	3489.74
570.23	3233.74
570.43	3231.69
570.62	3485.64
570.82	3745.73
571.01	3164.11
571.21	3108.82
571.40	3358.67
571.60	3622.86
571.79	3256.27
571.99	3127.25
572.18	3268.56
572.38	3540.94
572.57	3356.62
572.77	3186.64
572.96	4044.74
573.16	3434.44
573.35	3137.49
573.55	3334.09
573.74	3551.18
573.94	3323.85
574.13	3248.08
574.33	3286.99
574.52	3698.63
574.71	3467.21
574.91	3209.17
575.10	3074.00
575.30	3346.38
575.49	3182.54
575.69	3082.19
575.88	3092.43
576.08	3407.82
576.27	3745.73
576.47	3133.39
576.66	3321.81
576.86	3745.73
577.05	3542.99
577.25	3198.93
577.44	3307.47
577.64	3311.57
577.83	3631.05
578.02	3110.86
578.22	3299.28
578.41	3891.14
578.61	3350.48
578.80	3037.14
579.00	3200.98
579.19	3426.25
579.39	3504.07
579.58	3276.75
579.77	3223.50
579.97	3766.21
580.16	3557.32
580.36	3403.72
580.55	3246.03
580.75	3600.33
580.94	3420.11
581.13	3352.52
581.33	3469.26
581.52	3409.87
581.72	3796.93
581.91	3278.80
582.11	3106.77
582.30	3651.53
582.49	3465.16
582.69	3590.09
582.88	3160.02
583.08	3512.27
583.27	3655.62
583.47	3364.81
583.66	3086.29
583.85	3192.78
584.05	3426.25
584.24	3344.33
584.44	3246.03
584.63	3635.14
584.82	3647.43
585.02	3411.92
585.21	3291.09
585.41	3553.23
585.60	3375.05
585.79	3381.20
585.99	3471.31
586.18	3424.20
586.37	4419.52
586.57	6602.65
586.76	18542.31
586.96	37029.32
587.15	49954.05
587.34	57871.50
587.54	61586.52
587.73	53818.57
587.93	38960.56
588.12	30197.30
588.31	24694.41
588.51	22052.53
588.70	20235.98
588.89	18048.75
589.09	15197.98
589.28	13317.94
589.47	10569.57
589.67	7767.95
589.86	6305.70
590.06	4941.75
590.25	4446.14
590.44	3864.52
590.64	3542.99
590.83	3745.73
591.02	3706.82
591.22	3172.30
591.41	3205.07
591.60	3405.77
591.80	4020.16
591.99	3135.44
592.18	3094.48
592.38	3604.42
592.57	3321.81
592.76	3164.11
592.96	3227.60
593.15	3409.87
593.34	3729.35
593.54	3196.88
593.73	3286.99
593.92	3528.65
594.12	3598.28
594.31	3229.65
594.50	3381.20
594.70	3618.76
594.89	4069.31
595.08	3024.85
595.28	3299.28
595.47	4089.79
595.66	3624.90
595.86	3090.38
596.05	3045.33
596.24	3368.91
596.43	3907.52
596.63	3274.70
596.82	3370.96
597.01	3399.63
597.21	3805.13
597.40	3192.78
597.59	3229.65
597.79	3401.68
597.98	3637.19
598.17	3186.64
598.36	3270.61
598.56	3747.78
598.75	3385.29
598.94	3237.84
599.14	3336.14
599.33	3301.33
599.52	3555.27
599.71	3241.93
599.91	3203.02
600.10	3629.00
600.29	3491.79
600.48	3270.61
600.68	3340.24
600.87	3577.80
601.06	3227.60
601.26	3342.28
601.45	3379.15
601.64	3459.02
601.83	3745.73
602.03	3098.58
602.22	3141.58
602.41	3624.90
602.60	3923.91
602.80	3225.55
602.99	3393.48
603.18	3411.92
603.37	3504.07
603.57	3196.88
603.76	3176.40
603.95	3655.62
604.14	3313.61
604.34	3078.10
604.53	3141.58
604.72	3508.17
604.91	3604.42
605.10	3112.91
605.30	3014.61
605.49	3954.63
605.68	3557.32
605.87	3211.22
606.07	3114.96
606.26	3516.36
606.45	3481.55
606.64	3272.65
606.84	3008.47
607.03	3405.77
607.22	3653.58
607.41	3289.04
607.60	3203.02
607.80	3725.26
607.99	3401.68
608.18	3170.26
608.37	3194.83
608.56	3327.95
608.76	3581.90
608.95	3354.57
609.14	3082.19
609.33	3661.77
609.52	3807.17
609.72	3252.17
609.91	3246.03
610.10	3518.41
610.29	3792.84
610.48	3340.24
610.68	3346.38
610.87	3362.76
611.06	3665.86
611.25	3231.69
611.44	3295.18
611.63	3309.52
611.83	3776.45
612.02	3119.06
612.21	3338.19
612.40	3055.57
612.59	3270.61
612.79	3106.77
612.98	3280.85
613.17	3805.13
613.36	3389.39
613.55	3258.32
613.74	3184.59
613.93	3448.78
614.13	3614.66
614.32	3276.75
614.51	3258.32
614.70	3436.49
614.89	3413.96
615.08	3311.57
615.28	3454.92
615.47	3227.60
615.66	3499.98
615.85	3141.58
616.04	3131.34
616.23	3426.25
616.42	3450.83
616.62	3215.31
616.81	3192.78
617.00	3491.79
617.19	3614.66
617.38	3194.83
617.57	3280.85
617.76	3581.90
617.95	3631.05
618.15	3385.29
618.34	3411.92
618.53	3143.63
618.72	3626.95
618.91	3200.98
619.10	3317.71
619.29	3422.16
619.48	3358.67
619.68	3047.38
619.87	3092.43
620.06	3166.16
620.25	3530.70
620.44	3143.63
620.63	3200.98
620.82	3499.98
621.01	3473.36
621.20	3217.36
621.39	3284.94
621.59	3602.38
621.78	3440.59
621.97	3174.35
622.16	3344.33
622.35	3489.74
622.54	3631.05
622.73	3229.65
622.92	2930.64
623.11	3700.68
623.30	3360.72
623.49	3309.52
623.68	3035.09
623.88	3794.89
624.07	3252.17
624.26	3127.25
624.45	3194.83
624.64	3405.77
624.83	3428.30
625.02	3192.78
625.21	3133.39
625.40	3532.75
625.59	3717.06
625.78	3264.46
625.97	3250.13
626.16	3700.68
626.35	3614.66
626.54	3180.50
626.74	3342.28
626.93	3354.57
627.12	3305.42
627.31	3256.27
627.50	3235.79
627.69	3618.76
627.88	3170.26
628.07	3123.15
628.26	2953.17
628.45	3217.36
628.64	3205.07
628.83	3135.44
629.02	2959.31
629.21	3504.07
629.40	3393.48
629.59	3069.91
629.78	3114.96
629.97	3467.21
630.16	3567.56
630.35	3133.39
630.54	3266.51
630.73	3268.56
630.92	3438.54
631.11	3117.01
631.30	3248.08
631.49	3647.43
631.68	3426.25
631.87	3172.30
632.06	3084.24
632.25	4016.07
632.44	3420.11
632.63	3237.84
632.82	3194.83
633.01	3340.24
633.20	3524.55
633.39	3153.87
633.58	2947.03
633.77	3557.32
633.96	3545.03
634.15	3362.76
634.34	3209.17
634.53	3669.96
634.72	3330.00
634.91	3020.75
635.10	3098.58
635.29	3672.01
635.48	3483.59
635.67	2998.23
635.86	3035.09
636.05	3805.13
636.24	3389.39
636.43	3182.54
636.62	3221.45
636.81	2994.13
637.00	3432.40
637.19	3153.87
637.38	3213.26
637.57	3409.87
637.76	3452.88
637.95	3409.87
638.14	3303.37
638.33	3450.83
638.52	3405.77
638.71	3059.67
638.89	3065.81
639.08	4007.87
639.27	3647.43
639.46	3422.16
639.65	3690.44
639.84	3790.79
640.03	4073.41
640.22	3514.31
640.41	3542.99
640.60	3381.20
640.79	3665.86
640.98	3393.48
641.17	3395.53
641.36	3565.51
641.55	3624.90
641.74	3035.09
641.92	3041.23
642.11	3309.52
642.30	3362.76
642.49	3092.43
642.68	3229.65
642.87	3610.57
643.06	3483.59
643.25	3039.19
643.44	3125.20
643.63	3407.82
643.82	3626.95
644.00	3043.28
644.19	3258.32
644.38	3262.41
644.57	3618.76
644.76	3172.30
644.95	3286.99
645.14	3522.51
645.33	3389.39
645.52	3272.65
645.71	2979.79
645.89	3160.02
646.08	3426.25
646.27	3172.30
646.46	3391.44
646.65	3225.55
646.84	3405.77
647.03	3074.00
647.22	3403.72
647.40	3532.75
647.59	3448.78
647.78	2906.07
647.97	3143.63
648.16	3157.97
648.35	3723.21
648.54	3508.17
648.73	3282.89
648.91	3655.62
649.10	3467.21
649.29	3090.38
649.48	3137.49
649.67	3571.66
649.86	3434.44
650.05	3188.69
650.23	3262.41
650.42	3295.18
650.61	3651.53
650.80	3411.92
650.99	3444.68
651.18	3682.25
651.36	3645.38
651.55	3114.96
651.74	3336.14
651.93	3362.76
652.12	3416.01
652.31	3229.65
652.49	3231.69
652.68	3366.86
652.87	3741.64
653.06	3282.89
653.25	3491.79
653.44	3450.83
653.62	3723.21
653.81	3246.03
654.00	3176.40
654.19	3643.34
654.38	4065.22
654.56	3254.22
654.75	3166.16
654.94	3608.52
655.13	3473.36
655.32	3108.82
655.51	3278.80
655.69	3387.34
655.88	3651.53
656.07	3004.37
656.26	3209.17
656.45	3221.45
656.63	3467.21
656.82	3141.58
657.01	3506.12
657.20	3278.80
657.38	3776.45
657.57	3110.86
657.76	3080.14
657.95	3596.23
658.14	3346.38
658.32	3303.37
658.51	3039.19
658.70	3413.96
658.89	3510.22
659.08	3213.26
659.26	3377.10
659.45	3254.22
659.64	3477.45
659.83	3205.07
660.01	3524.55
660.20	3516.36
660.39	3778.50
660.58	2805.72
660.76	3192.78
660.95	3098.58
661.14	3444.68
661.33	3139.54
661.51	3133.39
661.70	3332.05
661.89	3579.85
662.08	3246.03
662.26	3028.95
662.45	3250.13
662.64	3811.27
662.83	3149.78
663.01	3174.35
663.20	3303.37
663.39	3831.75
663.58	3286.99
663.76	3125.20
663.95	3602.38
664.14	3215.31
664.32	3282.89
664.51	3067.86
664.70	3074.00
664.89	3467.21
665.07	3024.85
665.26	3307.47
665.45	3123.15
665.64	3520.46
665.82	3147.73
666.01	3368.91
666.20	3172.30
666.38	3614.66
666.57	3499.98
666.76	5754.79
666.95	12664.64
667.13	18910.94
667.32	22410.92
667.51	25022.08
667.69	25908.85
667.88	20915.90
668.07	15410.96
668.25	13197.11
668.44	11773.77
668.63	10202.98
668.81	9045.88
669.00	7735.18
669.19	7188.37
669.38	6297.50
669.56	5556.14
669.75	4839.35
669.94	4530.11
670.12	3772.36
670.31	3405.77
670.50	3485.64
670.68	3614.66
670.87	3456.97
671.06	3133.39
671.24	3246.03
671.43	3860.42
671.62	3424.20
671.80	3129.30
671.99	3303.37
672.18	3467.21
672.36	3614.66
672.55	3377.10
672.74	3182.54
672.92	3311.57
673.11	3606.47
673.29	2979.79
673.48	3409.87
673.67	3311.57
673.85	3704.78
674.04	3114.96
674.23	3229.65
674.41	3923.91
674.60	3239.89
674.79	3016.66
674.97	3008.47
675.16	3571.66
675.34	3614.66
675.53	3190.74
675.72	3237.84
675.90	3835.85
676.09	3360.72
676.28	3225.55
676.46	3026.90
676.65	3631.05
676.83	3313.61
677.02	3229.65
677.21	3309.52
677.39	3483.59
677.58	3237.84
677.77	3160.02
677.95	3061.71
678.14	3434.44
678.32	3377.10
678.51	3125.20
678.70	3534.79
678.88	3268.56
679.07	3442.64
679.25	3248.08
679.44	3194.83
679.63	3219.41
679.81	3370.96
680.00	3504.07
680.18	3211.22
680.37	3796.93
680.55	3508.17
680.74	3059.67
680.93	2881.49
681.11	3481.55
681.30	3395.53
681.48	3221.45
681.67	3243.98
681.85	3493.83
682.04	3274.70
682.23	3280.85
682.41	3336.14
682.60	3407.82
682.78	3354.57
682.97	3127.25
683.15	3235.79
683.34	3538.89
683.53	3819.46
683.71	3092.43
683.90	3176.40
684.08	3827.65
684.27	3370.96
684.45	3225.55
684.64	3362.76
684.82	3430.35
685.01	3581.90
685.19	3200.98
685.38	3487.69
685.57	3405.77
685.75	3264.46
685.94	3110.86
686.12	3030.99
686.31	3303.37
686.49	3866.56
686.68	2957.27
686.86	3166.16
687.05	3362.76
687.23	3669.96
687.42	3143.63
687.60	3067.86
687.79	3715.02
687.97	3672.01
688.16	3299.28
688.34	3381.20
688.53	3117.01
688.71	3581.90
688.90	3540.94
689.08	3215.31
689.27	3110.86
689.45	3719.11
689.64	3325.90
689.82	3323.85
690.01	3557.32
690.19	3567.56
690.38	3284.94
690.56	3313.61
690.75	3229.65
690.93	3295.18
691.12	3172.30
691.30	3211.22
691.49	3440.59
691.67	3438.54
691.86	3499.98
692.04	3192.78
692.23	3289.04
692.41	3436.49
692.60	3536.84
692.78	3422.16
692.97	3344.33
693.15	3542.99
693.34	3459.02
693.52	3405.77
693.71	3319.76
693.89	3330.00
694.08	3080.14
694.26	3174.35
694.44	3661.77
694.63	3573.71
694.81	3149.78
695.00	3219.41
695.18	3643.34
695.37	3999.68
695.55	3340.24
695.74	3344.33
695.92	3223.50
696.10	3622.86
696.29	3049.43
696.47	3112.91
696.66	3260.37
696.84	3319.76
697.03	3262.41
697.21	3483.59
697.40	4745.14
697.58	3672.01
697.76	3215.31
697.95	3172.30
698.13	3170.26
698.32	3336.14
698.50	3108.82
698.68	3227.60
698.87	3499.98
699.05	3823.56
699.24	3176.40
699.42	3155.92
699.61	3545.03
699.79	3370.96
699.97	3330.00
700.16	3086.29
700.34	3168.21
700.53	3579.85
700.71	3467.21
700.89	3381.20
701.08	3262.41
701.26	3409.87
701.45	3512.27
701.63	3174.35
701.81	3280.85
702.00	3229.65
702.18	3321.81
702.37	3149.78
702.55	3708.87
702.73	3493.83
702.92	3053.52
703.10	3600.33
703.28	3542.99
703.47	3174.35
703.65	3436.49
703.84	3223.50
704.02	3299.28
704.20	3794.89
704.39	3178.45
704.57	3178.45
704.75	3598.28
704.94	3430.35
705.12	3405.77
705.30	3964.87
705.49	8054.66
705.67	14479.14
705.86	19101.40
706.04	21647.03
706.22	23506.59
706.41	22247.08
706.59	16916.22
706.77	13309.75
706.96	11745.10
707.14	10968.92
707.32	9211.76
707.51	8191.88
707.69	6897.56
707.87	5744.55
708.06	4876.21
708.24	4239.30
708.42	4044.74
708.61	4237.25
708.79	3256.27
708.97	3385.29
709.16	3563.47
709.34	3428.30
709.52	3110.86
709.71	3203.02
709.89	3567.56
710.07	3315.66
710.26	3170.26
710.44	3272.65
710.62	3649.48
710.80	3446.73
710.99	3321.81
711.17	3342.28
711.35	3280.85
711.54	3325.90
711.72	3475.40
711.90	3284.94
712.09	3446.73
712.27	3303.37
712.45	3360.72
712.63	3172.30
712.82	3538.89
713.00	3383.24
713.18	3336.14
713.37	3385.29
713.55	3614.66
713.73	3542.99
713.91	3332.05
714.10	3262.41
714.28	3479.50
714.46	3581.90
714.65	3325.90
714.83	3264.46
715.01	3397.58
715.19	3495.88
715.38	3133.39
715.56	3295.18
715.74	3225.55
715.92	3276.75
716.11	3555.27
716.29	2971.60
716.47	3471.31
716.65	3409.87
716.84	3022.80
717.02	3213.26
717.20	3016.66
717.38	3276.75
717.57	3313.61
717.75	3241.93
717.93	3229.65
718.11	3557.32
718.30	3076.05
718.48	3254.22
718.66	3651.53
718.84	3624.90
719.03	3289.04
719.21	3028.95
719.39	3827.65
719.57	3608.52
719.75	3276.75
719.94	3147.73
720.12	3360.72
720.30	3426.25
720.48	3307.47
720.67	3155.92
720.85	3221.45
721.03	3342.28
721.21	3184.59
721.39	3278.80
721.58	3602.38
721.76	3563.47
721.94	3231.69
722.12	3332.05
722.30	3700.68
722.49	3418.06
722.67	3237.84
722.85	3272.65
723.03	3123.15
723.21	3321.81
723.40	3217.36
723.58	3309.52
723.76	3665.86
723.94	3735.50
724.12	3129.30
724.30	3491.79
724.49	3557.32
724.67	3268.56
724.85	3301.33
725.03	3192.78
725.21	3594.19
725.40	3735.50
725.58	3229.65
725.76	3456.97
725.94	3594.19
726.12	3164.11
726.30	3280.85
726.49	3184.59
726.67	3391.44
726.85	3567.56
727.03	3909.57
727.21	4982.71
727.39	6174.63
727.57	6469.53
727.76	6868.89
727.94	6698.91
728.12	5793.70
728.30	5005.24
728.48	4845.49
728.66	4466.62
728.84	4423.61
729.03	3946.44
729.21	3655.62
729.39	3506.12
729.57	3504.07
729.75	3499.98
729.93	3373.00
730.11	3133.39
730.30	3327.95
730.48	3411.92
730.66	3278.80
730.84	3352.52
731.02	3481.55
731.20	3356.62
731.38	3305.42
731.56	3028.95
731.74	3207.12
731.93	3534.79
732.11	3381.20
732.29	3213.26
732.47	3532.75
732.65	3479.50
732.83	3325.90
733.01	3301.33
733.19	3315.66
733.37	3491.79
733.56	3180.50
733.74	3016.66
733.92	3725.26
734.10	3327.95
734.28	3348.43
734.46	2992.08
734.64	3315.66
734.82	3379.15
735.00	3172.30
735.18	3205.07
735.36	3389.39
735.54	3436.49
735.73	3182.54
735.91	3397.58
736.09	3831.75
736.27	3508.17
736.45	3327.95
736.63	2987.99
736.81	3385.29
736.99	3676.10
737.17	3430.35
737.35	3065.81
737.53	3524.55
737.71	3418.06
737.89	3391.44
738.07	3133.39
738.25	3379.15
738.43	3100.62
738.61	3227.60
738.80	3090.38
738.98	3297.23
739.16	3309.52
739.34	3114.96
739.52	3465.16
739.70	3356.62
739.88	3540.94
740.06	3368.91
740.24	2940.88
740.42	3764.17
740.60	3026.90
740.78	3168.21
740.96	2987.99
741.14	3381.20
741.32	3456.97
741.50	3028.95
741.68	3452.88
741.86	3762.12
742.04	3258.32
742.22	3143.63
742.40	3213.26
742.58	3573.71
742.76	3258.32
742.94	3483.59
743.12	3096.53
743.30	3448.78
743.48	3583.95
743.66	3106.77
743.84	3237.84
744.02	3389.39
744.20	3370.96
744.38	3133.39
744.56	3209.17
744.74	3835.85
744.92	3549.13
745.10	3424.20
745.28	3346.38
745.46	3774.41
745.64	3389.39
745.82	3262.41
746.00	3100.62
746.18	3551.18
746.36	3207.12
746.54	3243.98
746.72	3221.45
746.90	3274.70
747.08	3715.02
747.26	3221.45
747.44	3311.57
747.62	3540.94
747.80	3547.08
747.98	3229.65
748.15	3188.69
748.33	3833.80
748.51	3393.48
748.69	3309.52
748.87	3078.10
749.05	3401.68
749.23	3389.39
749.41	3164.11
749.59	3176.40
749.77	3645.38
749.95	3448.78
750.13	3123.15
750.31	3411.92
750.49	3409.87
750.67	3702.73
750.85	3377.10
751.03	3194.83
751.20	3925.96
751.38	3393.48
751.56	3260.37
751.74	3229.65
751.92	3393.48
752.10	3272.65
752.28	3420.11
752.46	3184.59
752.64	3352.52
752.82	3346.38
753.00	3311.57
753.18	3104.72
753.35	3362.76
753.53	3430.35
753.71	3149.78
753.89	3282.89
754.07	3469.26
754.25	3667.91
754.43	3284.94
754.61	3114.96
754.79	3618.76
754.97	3442.64
755.14	3426.25
755.32	3139.54
755.50	3452.88
755.68	3502.03
755.86	3080.14
756.04	3147.73
756.22	3086.29
756.40	3608.52
756.57	3491.79
756.75	3221.45
756.93	3649.48
757.11	3569.61
757.29	3074.00
757.47	3135.44
757.65	3147.73
757.82	2953.17
758.00	3065.81
758.18	3119.06
758.36	3291.09
758.54	3846.09
758.72	3061.71
758.90	3266.51
759.07	3526.60
759.25	3299.28
759.43	3313.61
759.61	3057.62
759.79	4513.72
759.97	3606.47
760.15	3211.22
760.32	3188.69
760.50	3545.03
760.68	3721.16
760.86	3076.05
761.04	3428.30
761.22	3583.95
761.39	3477.45
761.57	3313.61
761.75	3190.74
761.93	3594.19
762.11	3454.92
762.28	3305.42
762.46	3117.01
762.64	3573.71
762.82	3141.58
763.00	3147.73
763.18	3377.10
763.35	3258.32
763.53	3473.36
763.71	3225.55
763.89	3082.19
764.07	3499.98
764.24	3526.60
764.42	3334.09
764.60	3200.98
764.78	3561.42
764.96	3678.15
765.13	3358.67
765.31	3117.01
765.49	3493.83
765.67	3198.93
765.84	3186.64
766.02	3129.30
766.20	3067.86
766.38	3420.11
766.56	3211.22
766.73	3327.95
766.91	3346.38
767.09	3420.11
767.27	3254.22
767.44	3069.91
767.62	3536.84
767.80	3491.79
767.98	3133.39
768.15	3205.07
768.33	3499.98
768.51	3672.01
768.69	3340.24
768.87	3168.21
769.04	3420.11
769.22	3993.54
769.40	3348.43
769.58	3352.52
769.75	3508.17
769.93	3667.91
770.11	3209.17
770.28	2996.18
770.46	3604.42
770.64	3452.88
770.82	3170.26
770.99	3182.54
771.17	3542.99
771.35	3295.18
771.53	3205.07
771.70	3174.35
771.88	3571.66
772.06	3336.14
772.23	3188.69
772.41	3336.14
772.59	3434.44
772.77	3209.17
772.94	3182.54
773.12	3241.93
773.30	3280.85
773.47	3508.17
773.65	3123.15
773.83	3385.29
774.01	3502.03
774.18	2998.23
774.36	3280.85
774.54	3018.71
774.71	3475.40
774.89	3125.20
775.07	3108.82
775.24	3180.50
775.42	3311.57
775.60	3831.75
775.78	3086.29
775.95	3084.24
776.13	3094.48
776.31	2975.70
776.48	3456.97
776.66	3409.87
776.84	3360.72
777.01	3231.69
777.19	3039.19
777.37	3262.41
777.54	3518.41
777.72	3788.74
777.90	3332.05
778.07	3213.26
778.25	4108.23
778.43	3665.86
778.60	3147.73
778.78	3264.46
778.96	3805.13
779.13	3178.45
779.31	3270.61
779.49	3264.46
779.66	3393.48
779.84	3356.62
780.01	3184.59
780.19	3174.35
780.37	3708.87
780.54	3663.82
780.72	2985.94
780.90	3303.37
781.07	3418.06
781.25	3354.57
781.43	3370.96
781.60	3237.84
781.78	3651.53
781.95	3477.45
782.13	3221.45
782.31	3108.82
782.48	3030.99
782.66	3340.24
782.83	3540.94
783.01	3317.71
783.19	3608.52
783.36	3397.58
783.54	3180.50
783.72	3336.14
783.89	3299.28
784.07	3430.35
784.24	3319.76
784.42	3356.62
784.60	3477.45
784.77	3506.12
784.95	2877.40
785.12	3213.26
785.30	3512.27
785.47	3254.22
785.65	3086.29
785.83	3262.41
786.00	3327.95
786.18	3491.79
786.35	3123.15
786.53	3172.30
786.71	3721.16
786.88	3510.22
787.06	3262.41
787.23	3272.65
787.41	3211.22
787.58	3413.96
787.76	3094.48
787.94	3268.56
788.11	3499.98
788.29	3157.97
788.46	3174.35
788.64	3076.05
788.81	3393.48
788.99	3221.45
789.16	3203.02
789.34	3293.13
789.52	3368.91
789.69	3307.47
789.87	3047.38
790.04	3147.73
790.22	3405.77
790.39	3803.08
790.57	3117.01
790.74	3094.48
790.92	3700.68
791.09	3184.59
791.27	3229.65
791.44	3198.93
791.62	3405.77
791.79	3528.65
791.97	3311.57
792.15	3614.66
792.32	3573.71
792.50	3508.17
792.67	3395.53
792.85	3571.66
793.02	3512.27
793.20	3303.37
793.37	3143.63
793.55	3071.95
793.72	3219.41
793.90	3598.28
794.07	3213.26
794.25	3110.86
794.42	3526.60
794.60	3409.87
794.77	3260.37
794.95	3319.76
795.12	3631.05
795.30	3350.48
795.47	2990.03
795.65	3502.03
795.82	3459.02
796.00	3250.13
796.17	3391.44
796.34	3086.29
796.52	3524.55
796.69	3639.24
796.87	3303.37
797.04	3307.47
797.22	3598.28
797.39	3547.08
797.57	3368.91
797.74	3280.85
797.92	3518.41
798.09	3295.18
798.27	3585.99
798.44	3108.82
798.62	3356.62
798.79	3452.88
798.96	3309.52
799.14	3182.54
799.31	4097.99
799.49	3319.76
799.66	3198.93
799.84	3227.60
800.01	3141.58
800.19	3444.68
800.36	2944.98
800.53	3284.94
800.71	3583.95
800.88	3790.79
801.06	3061.71
801.23	3225.55
801.41	3409.87
801.58	3200.98
801.75	3176.40
801.93	3241.93
802.10	3542.99
802.28	3454.92
802.45	3254.22
802.63	3286.99
802.80	3755.97
802.97	3375.05
803.15	3221.45
803.32	3192.78
803.50	3297.23
803.67	3272.65
803.84	3153.87
804.02	3260.37
804.19	3395.53
804.37	2987.99
804.54	3028.95
804.71	3168.21
804.89	3401.68
805.06	3174.35
805.24	3094.48
805.41	3069.91
805.58	3250.13
805.76	3946.44
805.93	3164.11
806.10	3313.61
806.28	3559.37
806.45	3473.36
806.63	3377.10
806.80	3198.93
806.97	3581.90
807.15	3475.40
807.32	3330.00
807.49	3174.35
807.67	3205.07
807.84	3594.19
808.01	3061.71
808.19	3377.10
808.36	3975.11
808.54	3352.52
808.71	3135.44
808.88	3123.15
809.06	3735.50
809.23	3829.70
809.40	3243.98
809.58	3190.74
809.75	3383.24
809.92	3205.07
810.10	3438.54
810.27	3157.97
810.44	3532.75
810.62	3602.38
810.79	3246.03
810.96	3188.69
811.14	3307.47
811.31	3618.76
811.48	3358.67
811.66	3256.27
811.83	3663.82
812.00	3581.90
812.18	3291.09
812.35	3432.40
812.52	3344.33
812.69	3182.54
812.87	3127.25
813.04	3139.54
813.21	3370.96
813.39	3246.03
813.56	3147.73
813.73	3430.35
813.91	3162.06
814.08	3456.97
814.25	3155.92
814.42	3002.32
814.60	3381.20
814.77	3411.92
814.94	3096.53
815.12	3272.65
815.29	3792.84
815.46	3319.76
815.63	3196.88
815.81	3139.54
815.98	3409.87
816.15	3420.11
816.33	3299.28
816.50	3295.18
816.67	3454.92
816.84	3422.16
817.02	3168.21
817.19	3164.11
817.36	3512.27
817.53	3475.40
817.71	3092.43
817.88	3188.69
818.05	3481.55
818.22	3393.48
818.40	3381.20
818.57	3147.73
818.74	3395.53
818.91	3413.96
819.09	3373.00
819.26	3237.84
819.43	3289.04
819.60	3270.61
819.78	3434.44
819.95	3256.27
820.12	3225.55
820.29	3774.41
820.47	3446.73
820.64	3131.34
820.81	3133.39
820.98	3246.03
821.15	3205.07
821.33	3411.92
821.50	3110.86
821.67	3581.90
821.84	3166.16
822.02	3209.17
822.19	3606.47
822.36	3311.57
822.53	3137.49
822.70	2967.51
822.88	3397.58
823.05	3747.78
823.22	3358.67
823.39	3100.62
823.56	3469.26
823.74	3905.48
823.91	3104.72
824.08	3037.14
824.25	3188.69
824.42	3751.88
824.60	3088.34
824.77	3323.85
824.94	3424.20
825.11	3559.37
825.28	3065.81
825.45	3321.81
825.63	3502.03
825.80	3182.54
825.97	3270.61
826.14	3342.28
826.31	3192.78
826.48	3585.99
826.66	3215.31
826.83	3227.60
827.00	3323.85
827.17	3176.40
827.34	3272.65
827.51	3104.72
827.69	3401.68
827.86	3110.86
828.03	3237.84
828.20	3309.52
828.37	3274.70
828.54	3512.27
828.71	3143.63
828.89	3272.65
829.06	3508.17
829.23	3731.40
829.40	3293.13
829.57	3139.54
829.74	3618.76
829.91	3254.22
830.09	3139.54
830.26	3393.48
830.43	3786.69
830.60	3356.62
830.77	3243.98
830.94	3307.47
831.11	3602.38
831.28	3311.57
831.46	3362.76
831.63	3139.54
831.80	3573.71
831.97	3207.12
832.14	3231.69
832.31	3186.64
832.48	3381.20
832.65	3663.82
832.82	3293.13
832.99	3272.65
833.17	3272.65
833.34	3688.39
833.51	3176.40
833.68	2977.75
833.85	3672.01
834.02	3162.06
834.19	3166.16
834.36	3229.65
834.53	3426.25
834.70	3626.95
834.87	3196.88
835.04	2899.92
835.22	3229.65
835.39	3409.87
835.56	2969.55
835.73	3028.95
835.90	3663.82
836.07	3192.78
836.24	3192.78
836.41	3076.05
836.58	3221.45
836.75	3704.78
836.92	2985.94
837.09	2910.16
837.26	3547.08
837.43	3592.14
837.60	3082.19
837.77	2985.94
837.94	3659.72
838.12	3688.39
838.29	2965.46
838.46	2861.01
838.63	3205.07
838.80	3745.73
838.97	3049.43
839.14	2887.64
839.31	3508.17
839.48	3495.88
839.65	2987.99
839.82	3123.15
839.99	3448.78
840.16	3454.92
840.33	2971.60
840.50	3100.62
840.67	3172.30
840.84	2947.03
841.01	2916.31
841.18	3000.27
841.35	3368.91
841.52	3604.42
841.69	3393.48
841.86	3092.43
842.03	3459.02
842.20	3688.39
842.37	2942.93
842.54	3051.47
842.71	3360.72
842.88	3139.54
843.05	3045.33
843.22	2944.98
843.39	3622.86
843.56	3254.22
843.73	3071.95
843.90	3067.86
844.07	3454.92
844.24	3567.56
844.41	3102.67
844.58	3010.51
844.75	3426.25
844.92	3508.17
845.09	3123.15
845.26	3035.09
845.43	3553.23
845.60	3356.62
845.77	3184.59
845.94	3018.71
846.10	3491.79
846.27	3131.34
846.44	2947.03
846.61	2930.64
846.78	3536.84
846.95	3682.25
847.12	2992.08
847.29	3016.66
847.46	3266.51
847.63	3631.05
847.80	2924.50
847.97	3028.95
848.14	4020.16
848.31	3366.86
848.48	2912.21
848.65	3000.27
848.82	3248.08
848.98	4065.22
849.15	3098.58
849.32	3166.16
849.49	3602.38
849.66	3368.91
849.83	3004.37
850.00	2944.98
850.17	3540.94
850.34	3373.00
850.51	2895.83
850.68	3039.19
850.85	3917.76
851.01	3573.71
851.18	3016.66
851.35	3051.47
851.52	3561.42
851.69	3649.48
851.86	2932.69
852.03	2953.17
852.20	3647.43
852.37	3426.25
852.53	2844.63
852.70	2893.78
852.87	3475.40
853.04	3596.23
853.21	3039.19
853.38	3264.46
853.55	3729.35
853.72	3731.40
853.89	2944.98
854.05	2961.36
854.22	3428.30
854.39	3307.47
854.56	2932.69
854.73	3176.40
854.90	3254.22
855.07	3377.10
855.23	2934.74
855.40	3033.04
855.57	3409.87
855.74	2926.55
855.91	3262.41
856.08	2897.88
856.25	3162.06
856.41	3246.03
856.58	2975.70
856.75	3106.77
856.92	3237.84
857.09	3596.23
857.26	2832.34
857.42	3059.67
857.59	3629.00
857.76	3338.19
857.93	2975.70
858.10	3106.77
858.27	3160.02
858.43	3483.59
858.60	3033.04
858.77	2928.60
858.94	3360.72
859.11	3702.73
859.27	3155.92
859.44	2920.40
859.61	3825.61
859.78	3614.66
859.95	3037.14
860.12	2906.07
860.28	3925.96
860.45	3819.46
860.62	2996.18
860.79	3155.92
860.95	3393.48
861.12	3262.41
861.29	2918.36
861.46	3049.43
861.63	3391.44
861.79	3499.98
861.96	2951.12
862.13	3033.04
862.30	3735.50
862.47	3321.81
862.63	2848.72
862.80	3092.43
862.97	3639.24
863.14	3573.71
863.30	3049.43
863.47	2990.03
863.64	3745.73
863.81	3444.68
863.97	2824.15
864.14	3035.09
864.31	3440.59
864.48	3465.16
864.65	2992.08
864.81	3176.40
864.98	3573.71
865.15	3682.25
865.32	3104.72
865.48	3028.95
865.65	3874.76
865.82	3368.91
865.98	3119.06
866.15	3149.78
866.32	3311.57
866.49	3381.20
866.65	3149.78
866.82	3125.20
866.99	3317.71
867.16	3297.23
867.32	3063.76
867.49	2969.55
867.66	3360.72
867.83	3311.57
867.99	2975.70
868.16	3102.67
868.33	3133.39
868.49	3403.72
868.66	3012.56
868.83	3143.63
868.99	3487.69
869.16	3479.50
869.33	3155.92
869.50	3104.72
869.66	3506.12
869.83	3454.92
870.00	2944.98
870.16	3157.97
870.33	3303.37
870.50	3571.66
870.66	3098.58
870.83	2975.70
871.00	3512.27
871.17	3561.42
871.33	3076.05
871.50	2920.40
871.67	3356.62
871.83	3237.84
872.00	3086.29
872.17	3024.85
872.33	3901.38
872.50	3663.82
872.67	2920.40
872.83	3028.95
873.00	3528.65
873.17	3434.44
873.33	3067.86
873.50	3055.57
873.67	3311.57
873.83	3278.80
874.00	3096.53
874.16	3106.77
874.33	3532.75
874.50	3133.39
874.66	2990.03
874.83	3200.98
875.00	3667.91
875.16	3631.05
875.33	3028.95
875.50	2793.43
875.66	3301.33
875.83	3495.88
875.99	3078.10
876.16	3147.73
876.33	3217.36
876.49	3379.15
876.66	3041.23
876.83	3133.39
876.99	3149.78
877.16	3319.76
877.32	2914.26
877.49	3139.54
877.66	3528.65
877.82	3770.31
877.99	3090.38
878.15	3362.76
878.32	3469.26
878.49	3424.20
878.65	3155.92
878.82	3278.80
878.98	3229.65
879.15	3600.33
879.32	3205.07
879.48	3211.22
879.65	3338.19
879.81	3387.34
879.98	3094.48
880.15	3139.54
880.31	3610.57
880.48	3268.56
880.64	3200.98
880.81	3180.50
880.97	3678.15
881.14	3700.68
881.31	3016.66
881.47	3188.69
881.64	3346.38
881.80	3090.38
881.97	3239.89
882.13	3008.47
882.30	3200.98
882.47	3356.62
882.63	2983.89
882.80	2967.51
882.96	3303.37
883.13	3604.42
883.29	3063.76
883.46	3028.95
883.62	3944.39
883.79	3512.27
883.95	3215.31
884.12	3016.66
884.29	3647.43
884.45	3432.40
884.62	3000.27
884.78	2949.08
884.95	3682.25
885.11	3237.84
885.28	3155.92
885.44	3067.86
885.61	3649.48
885.77	3719.11
885.94	3164.11
886.10	3041.23
886.27	3397.58
886.43	3753.93
886.60	3246.03
886.76	2985.94
886.93	3256.27
887.09	3434.44
887.26	2916.31
887.42	3110.86
887.59	3704.78
887.75	3897.28
887.92	3297.23
888.08	3135.44
888.25	3848.13
888.41	3616.71
888.58	3033.04
888.74	2944.98
888.91	3264.46
>>>>>End Processed Spectral Data<<<<<
