SpectraSuite Data File
++++++++++++++++++++++++++++++++++++
Date: Fri May 06 09:29:15 CEST 2016
User: root
Dark Spectrum Present: No
Reference Spectrum Present: No
Number of Sampled Component Spectra: 1
Spectrometers: USB4C02835
Integration Time (usec): 100000 (USB4C02835)
Spectra Averaged: 1 (USB4C02835)
Boxcar Smoothing: 0 (USB4C02835)
Correct for Electrical Dark: No (USB4C02835)
Strobe/Lamp Enabled: No (USB4C02835)
Correct for Detector Non-linearity: No (USB4C02835)
Correct for Stray Light: No (USB4C02835)
Number of Pixels in Processed Spectrum: 3648
>>>>>Begin Processed Spectral Data<<<<<
177.47	2281.44
177.69	2281.44
177.91	2281.44
178.13	2322.40
178.36	2301.92
178.58	3125.20
178.80	3239.89
179.02	3135.44
179.24	3231.69
179.46	2893.78
179.68	2852.82
179.90	3373.00
180.13	3481.55
180.35	2754.52
180.57	2869.20
180.79	3551.18
181.01	3411.92
181.23	3016.66
181.45	3151.82
181.67	3545.03
181.90	3661.77
182.12	3002.32
182.34	2762.71
182.56	3594.19
182.78	3594.19
183.00	2916.31
183.22	2936.79
183.44	3063.76
183.66	4196.29
183.89	3098.58
184.11	3010.51
184.33	3620.81
184.55	3770.31
184.77	2936.79
184.99	2985.94
185.21	3280.85
185.43	4073.41
185.65	2938.84
185.87	2936.79
186.10	3880.90
186.32	3981.25
186.54	3049.43
186.76	3067.86
186.98	3753.93
187.20	3370.96
187.42	2996.18
187.64	2867.16
187.86	3489.74
188.08	3710.92
188.30	2861.01
188.52	2994.13
188.75	3690.44
188.97	3721.16
189.19	2938.84
189.41	2967.51
189.63	3536.84
189.85	3428.30
190.07	2818.00
190.29	2811.86
190.51	3522.51
190.73	3139.54
190.95	3213.26
191.17	2967.51
191.39	3168.21
191.61	3438.54
191.84	2975.70
192.06	3112.91
192.28	3139.54
192.50	4188.10
192.72	3067.86
192.94	3106.77
193.16	3700.68
193.38	3559.37
193.60	2865.11
193.82	3155.92
194.04	3753.93
194.26	3585.99
194.48	2901.97
194.70	2944.98
194.92	3319.76
195.14	3686.34
195.36	2938.84
195.58	3123.15
195.80	3389.39
196.02	3377.10
196.24	2895.83
196.46	3055.57
196.69	3301.33
196.91	3891.14
197.13	2916.31
197.35	3026.90
197.57	3770.31
197.79	3608.52
198.01	3080.14
198.23	2961.36
198.45	3600.33
198.67	3178.45
198.89	2832.34
199.11	3119.06
199.33	3315.66
199.55	3004.37
199.77	2901.97
199.99	3125.20
200.21	3305.42
200.43	3573.71
200.65	2848.72
200.87	2746.33
201.09	3461.07
201.31	3327.95
201.53	2969.55
201.75	2963.41
201.97	3432.40
202.19	3416.01
202.41	2990.03
202.63	3086.29
202.85	3563.47
203.07	3536.84
203.29	3030.99
203.51	2971.60
203.73	3342.28
203.95	3987.40
204.17	2920.40
204.39	3102.67
204.61	3418.06
204.83	3391.44
205.05	3139.54
205.27	2932.69
205.49	3928.00
205.71	3442.64
205.93	2824.15
206.15	2897.88
206.37	3418.06
206.59	3413.96
206.81	2815.96
207.03	2904.02
207.25	3235.79
207.47	3635.14
207.69	2992.08
207.91	3213.26
208.13	3678.15
208.34	3303.37
208.56	2973.65
208.78	3002.32
209.00	3436.49
209.22	3401.68
209.44	2965.46
209.66	2928.60
209.88	3512.27
210.10	3313.61
210.32	2932.69
210.54	3053.52
210.76	3311.57
210.98	3715.02
211.20	2848.72
211.42	3096.53
211.64	3688.39
211.86	3551.18
212.08	3022.80
212.30	2961.36
212.52	3381.20
212.74	3493.83
212.96	3078.10
213.17	2990.03
213.39	3635.14
213.61	3827.65
213.83	2840.53
214.05	2795.48
214.27	3684.30
214.49	3266.51
214.71	2918.36
214.93	3127.25
215.15	3481.55
215.37	3708.87
215.59	2881.49
215.81	3076.05
216.03	3758.02
216.24	3463.12
216.46	2920.40
216.68	2996.18
216.90	3610.57
217.12	3719.11
217.34	2936.79
217.56	3112.91
217.78	3737.54
218.00	3532.75
218.22	3092.43
218.44	3188.69
218.66	3588.04
218.87	3868.61
219.09	2985.94
219.31	2920.40
219.53	3536.84
219.75	3360.72
219.97	2949.08
220.19	3033.04
220.41	3397.58
220.63	3723.21
220.85	3041.23
221.06	2971.60
221.28	3755.97
221.50	3549.13
221.72	2942.93
221.94	2904.02
222.16	3502.03
222.38	3723.21
222.60	2908.12
222.82	3037.14
223.03	3647.43
223.25	3254.22
223.47	2893.78
223.69	3221.45
223.91	3545.03
224.13	3405.77
224.35	2830.29
224.57	3135.44
224.78	3598.28
225.00	3284.94
225.22	3078.10
225.44	2918.36
225.66	3598.28
225.88	3311.57
226.10	3104.72
226.32	2936.79
226.53	3737.54
226.75	3411.92
226.97	3063.76
227.19	3043.28
227.41	3284.94
227.63	3299.28
227.85	2725.85
228.06	3041.23
228.28	3446.73
228.50	3655.62
228.72	2740.18
228.94	2852.82
229.16	3090.38
229.37	3160.02
229.59	2885.59
229.81	3174.35
230.03	3385.29
230.25	3215.31
230.47	2787.29
230.69	2944.98
230.90	3743.69
231.12	3239.89
231.34	3164.11
231.56	3053.52
231.78	3182.54
232.00	3467.21
232.21	3061.71
232.43	2961.36
232.65	2959.31
232.87	3493.83
233.09	2793.43
233.30	2844.63
233.52	3733.45
233.74	3334.09
233.96	2840.53
234.18	3200.98
234.40	3385.29
234.61	3987.40
234.83	2818.00
235.05	2910.16
235.27	4007.87
235.49	3698.63
235.70	2797.53
235.92	2959.31
236.14	3520.46
236.36	4048.83
236.58	2840.53
236.79	3051.47
237.01	3426.25
237.23	3397.58
237.45	3170.26
237.67	3012.56
237.88	3491.79
238.10	3848.13
238.32	2891.73
238.54	2879.44
238.76	3461.07
238.97	3235.79
239.19	2879.44
239.41	3010.51
239.63	3655.62
239.85	3291.09
240.06	2981.84
240.28	2981.84
240.50	3663.82
240.72	3522.51
240.93	2904.02
241.15	3104.72
241.37	3430.35
241.59	3700.68
241.81	2983.89
242.02	3024.85
242.24	3479.50
242.46	3614.66
242.68	2789.33
242.89	2854.87
243.11	3661.77
243.33	3387.34
243.55	2944.98
243.76	2957.27
243.98	3352.52
244.20	3477.45
244.42	2959.31
244.64	2953.17
244.85	3213.26
245.07	3235.79
245.29	2932.69
245.51	3020.75
245.72	3485.64
245.94	3639.24
246.16	2936.79
246.38	2961.36
246.59	3336.14
246.81	3256.27
247.03	2865.11
247.24	2764.76
247.46	3344.33
247.68	3469.26
247.90	2983.89
248.11	3008.47
248.33	3563.47
248.55	3389.39
248.77	2979.79
248.98	3176.40
249.20	3792.84
249.42	3434.44
249.64	2901.97
249.85	2936.79
250.07	3317.71
250.29	3581.90
250.50	3022.80
250.72	2828.24
250.94	3606.47
251.16	3952.58
251.37	2924.50
251.59	3035.09
251.81	3581.90
252.02	3782.60
252.24	2904.02
252.46	3155.92
252.68	3293.13
252.89	3336.14
253.11	2828.24
253.33	3125.20
253.54	3874.76
253.76	3239.89
253.98	2926.55
254.20	2969.55
254.41	3170.26
254.63	3411.92
254.85	2883.54
255.06	3106.77
255.28	3567.56
255.50	3332.05
255.71	2861.01
255.93	2885.59
256.15	3368.91
256.36	3540.94
256.58	2815.96
256.80	2867.16
257.02	3432.40
257.23	3321.81
257.45	3033.04
257.67	3041.23
257.88	3385.29
258.10	3581.90
258.32	2947.03
258.53	3067.86
258.75	3852.23
258.97	3315.66
259.18	2904.02
259.40	2951.12
259.62	3878.85
259.83	3841.99
260.05	2973.65
260.27	3925.96
260.48	3567.56
260.70	3276.75
260.92	2826.20
261.13	3008.47
261.35	3536.84
261.57	3524.55
261.78	2838.48
262.00	2951.12
262.22	3633.10
262.43	3305.42
262.65	2953.17
262.86	3008.47
263.08	4038.59
263.30	3377.10
263.51	2740.18
263.73	2869.20
263.95	3848.13
264.16	3198.93
264.38	2758.61
264.60	2910.16
264.81	3485.64
265.03	3645.38
265.25	3469.26
265.46	2920.40
265.68	3719.11
265.89	3631.05
266.11	2781.14
266.33	2926.55
266.54	3729.35
266.76	3602.38
266.98	3057.62
267.19	3131.34
267.41	3749.83
267.62	3405.77
267.84	2691.03
268.06	3082.19
268.27	3434.44
268.49	3712.97
268.70	2998.23
268.92	2961.36
269.14	3272.65
269.35	3092.43
269.57	3094.48
269.79	3080.14
270.00	3274.70
270.22	3839.94
270.43	2832.34
270.65	2848.72
270.87	3528.65
271.08	3661.77
271.30	3133.39
271.51	2901.97
271.73	3604.42
271.95	3833.80
272.16	2893.78
272.38	3188.69
272.59	3373.00
272.81	3633.10
273.02	2840.53
273.24	3053.52
273.46	3778.50
273.67	3192.78
273.89	2781.14
274.10	2967.51
274.32	3778.50
274.54	3549.13
274.75	3114.96
274.97	3012.56
275.18	3618.76
275.40	3418.06
275.61	3049.43
275.83	3129.30
276.05	3217.36
276.26	3506.12
276.48	3065.81
276.69	3162.06
276.91	3368.91
277.12	3737.54
277.34	3135.44
277.55	3262.41
277.77	3520.46
277.99	3354.57
278.20	3213.26
278.42	2983.89
278.63	3272.65
278.85	3243.98
279.06	2983.89
279.28	3135.44
279.49	3561.42
279.71	3626.95
279.93	3069.91
280.14	3164.11
280.36	3352.52
280.57	3637.19
280.79	3133.39
281.00	2932.69
281.22	3356.62
281.43	3618.76
281.65	2901.97
281.86	2985.94
282.08	3608.52
282.29	3825.61
282.51	2949.08
282.73	3026.90
282.94	3104.72
283.16	3547.08
283.37	3143.63
283.59	3125.20
283.80	3459.02
284.02	3360.72
284.23	3065.81
284.45	3102.67
284.66	3223.50
284.88	3272.65
285.09	3008.47
285.31	3151.82
285.52	3526.60
285.74	3041.23
285.95	3360.72
286.17	3067.86
286.38	3739.59
286.60	3254.22
286.81	3057.62
287.03	3086.29
287.24	3450.83
287.46	3549.13
287.67	3143.63
287.89	3243.98
288.10	3364.81
288.32	3510.22
288.53	3276.75
288.75	3223.50
288.96	3542.99
289.18	3282.89
289.39	3039.19
289.61	3205.07
289.82	3893.19
290.04	3868.61
290.25	2992.08
290.47	3246.03
290.68	3395.53
290.90	3676.10
291.11	2895.83
291.33	3229.65
291.54	3338.19
291.76	3278.80
291.97	3205.07
292.18	3196.88
292.40	3377.10
292.61	3299.28
292.83	3420.11
293.04	3098.58
293.26	3467.21
293.47	3368.91
293.69	3084.24
293.90	2955.22
294.12	3731.40
294.33	3442.64
294.55	3096.53
294.76	3258.32
294.97	3811.27
295.19	3975.11
295.40	3018.71
295.62	3145.68
295.83	3678.15
296.05	3289.04
296.26	3370.96
296.48	3110.86
296.69	3479.50
296.90	3377.10
297.12	3266.51
297.33	3268.56
297.55	3508.17
297.76	3635.14
297.98	3203.02
298.19	3270.61
298.41	3426.25
298.62	3297.23
298.83	3289.04
299.05	3192.78
299.26	3354.57
299.48	3293.13
299.69	3174.35
299.90	3024.85
300.12	3219.41
300.33	3575.75
300.55	3174.35
300.76	3174.35
300.98	3289.04
301.19	3585.99
301.40	3041.23
301.62	3094.48
301.83	3565.51
302.05	3489.74
302.26	3102.67
302.47	3172.30
302.69	3176.40
302.90	3483.59
303.12	2969.55
303.33	3284.94
303.54	3866.56
303.76	3305.42
303.97	3045.33
304.19	3258.32
304.40	3272.65
304.61	3610.57
304.83	3174.35
305.04	3225.55
305.26	3585.99
305.47	3243.98
305.68	3100.62
305.90	2965.46
306.11	3717.06
306.33	3418.06
306.54	2936.79
306.75	3090.38
306.97	3131.34
307.18	3299.28
307.39	3119.06
307.61	3092.43
307.82	3373.00
308.04	3497.93
308.25	2961.36
308.46	3319.76
308.68	3477.45
308.89	3387.34
309.10	3327.95
309.32	3102.67
309.53	3485.64
309.74	3542.99
309.96	3047.38
310.17	3164.11
310.39	3389.39
310.60	3575.75
310.81	3157.97
311.03	3086.29
311.24	3690.44
311.45	3411.92
311.67	3383.24
311.88	3248.08
312.09	3364.81
312.31	3330.00
312.52	3024.85
312.73	3045.33
312.95	3137.49
313.16	3239.89
313.37	3321.81
313.59	3315.66
313.80	3672.01
314.01	3753.93
314.23	3106.77
314.44	2992.08
314.65	3203.02
314.87	3248.08
315.08	3051.47
315.29	3071.95
315.51	3241.93
315.72	3117.01
315.93	3162.06
316.15	3160.02
316.36	3379.15
316.57	3452.88
316.79	3149.78
317.00	3057.62
317.21	3602.38
317.43	3270.61
317.64	3157.97
317.85	3035.09
318.07	3286.99
318.28	3311.57
318.49	3205.07
318.70	3264.46
318.92	3491.79
319.13	3549.13
319.34	3274.70
319.56	3131.34
319.77	3446.73
319.98	3583.95
320.20	3403.72
320.41	3258.32
320.62	3594.19
320.83	3190.74
321.05	3295.18
321.26	3182.54
321.47	3461.07
321.69	3680.20
321.90	3024.85
322.11	3037.14
322.32	3444.68
322.54	3831.75
322.75	3213.26
322.96	4237.25
323.18	3127.25
323.39	3071.95
323.60	3000.27
323.81	3178.45
324.03	3254.22
324.24	3360.72
324.45	3164.11
324.66	3008.47
324.88	3672.01
325.09	3755.97
325.30	3030.99
325.52	3008.47
325.73	3493.83
325.94	3254.22
326.15	2942.93
326.37	2936.79
326.58	3651.53
326.79	3895.24
327.00	3030.99
327.22	3051.47
327.43	3446.73
327.64	3268.56
327.85	3207.12
328.07	3129.30
328.28	3839.94
328.49	3373.00
328.70	3098.58
328.92	3151.82
329.13	3360.72
329.34	3497.93
329.55	3334.09
329.76	3266.51
329.98	3338.19
330.19	3645.38
330.40	3209.17
330.61	3278.80
330.83	3635.14
331.04	3233.74
331.25	3264.46
331.46	3129.30
331.68	3256.27
331.89	3590.09
332.10	3114.96
332.31	2969.55
332.52	3475.40
332.74	3753.93
332.95	2926.55
333.16	3117.01
333.37	3633.10
333.58	3385.29
333.80	3094.48
334.01	2926.55
334.22	3375.05
334.43	3334.09
334.64	3108.82
334.86	3037.14
335.07	3143.63
335.28	3794.89
335.49	2947.03
335.70	3149.78
335.92	3762.12
336.13	3860.42
336.34	3098.58
336.55	3135.44
336.76	3436.49
336.98	2969.55
337.19	3117.01
337.40	3155.92
337.61	4020.16
337.82	3411.92
338.04	3190.74
338.25	2990.03
338.46	3510.22
338.67	3377.10
338.88	2947.03
339.09	3063.76
339.31	3289.04
339.52	3196.88
339.73	3000.27
339.94	3184.59
340.15	3471.31
340.36	3330.00
340.58	3127.25
340.79	3106.77
341.00	3585.99
341.21	3250.13
341.42	3403.72
341.63	3096.53
341.85	3604.42
342.06	3436.49
342.27	3000.27
342.48	3237.84
342.69	3172.30
342.90	3512.27
343.12	3534.79
343.33	2985.94
343.54	3620.81
343.75	3760.07
343.96	3180.50
344.17	2983.89
344.38	3440.59
344.60	3258.32
344.81	3012.56
345.02	3102.67
345.23	3698.63
345.44	4016.07
345.65	3108.82
345.86	3174.35
346.07	3557.32
346.29	3344.33
346.50	3192.78
346.71	3151.82
346.92	3774.41
347.13	3946.44
347.34	3254.22
347.55	2998.23
347.76	3504.07
347.98	3043.28
348.19	3139.54
348.40	3237.84
348.61	3405.77
348.82	3778.50
349.03	3119.06
349.24	2996.18
349.45	3876.80
349.66	2985.94
349.88	3053.52
350.09	3041.23
350.30	3729.35
350.51	3723.21
350.72	3399.63
350.93	3041.23
351.14	3332.05
351.35	3530.70
351.56	3123.15
351.77	3164.11
351.99	3497.93
352.20	3731.40
352.41	3246.03
352.62	2930.64
352.83	3401.68
353.04	3401.68
353.25	3157.97
353.46	3180.50
353.67	3665.86
353.88	3092.43
354.09	3010.51
354.30	3192.78
354.52	3665.86
354.73	3424.20
354.94	3024.85
355.15	3153.87
355.36	3821.51
355.57	3303.37
355.78	3016.66
355.99	3022.80
356.20	3340.24
356.41	3778.50
356.62	3125.20
356.83	3104.72
357.04	3698.63
357.25	3172.30
357.46	3059.67
357.68	3037.14
357.89	3280.85
358.10	3411.92
358.31	3078.10
358.52	3172.30
358.73	3282.89
358.94	3172.30
359.15	3098.58
359.36	3254.22
359.57	3403.72
359.78	3370.96
359.99	3319.76
360.20	2885.59
360.41	3330.00
360.62	3583.95
360.83	3196.88
361.04	3133.39
361.25	3549.13
361.46	3844.04
361.67	3264.46
361.88	3100.62
362.09	3665.86
362.30	3434.44
362.51	2955.22
362.72	3229.65
362.93	3631.05
363.14	3493.83
363.35	3272.65
363.56	2971.60
363.78	3729.35
363.99	3696.58
364.20	3188.69
364.41	3170.26
364.62	3833.80
364.83	3479.50
365.04	3151.82
365.25	3145.68
365.46	4038.59
365.67	3286.99
365.88	3330.00
366.09	3086.29
366.30	3352.52
366.51	3436.49
366.72	3057.62
366.93	3055.57
367.14	3461.07
367.35	3715.02
367.56	2932.69
367.77	3176.40
367.98	3493.83
368.18	3532.75
368.39	3278.80
368.60	3033.04
368.81	3698.63
369.02	3450.83
369.23	3090.38
369.44	2983.89
369.65	3381.20
369.86	3598.28
370.07	3127.25
370.28	3094.48
370.49	3452.88
370.70	3489.74
370.91	3043.28
371.12	2959.31
371.33	3710.92
371.54	3381.20
371.75	3184.59
371.96	2795.48
372.17	3471.31
372.38	3401.68
372.59	3147.73
372.80	3000.27
373.01	3360.72
373.22	3493.83
373.43	3092.43
373.64	2971.60
373.85	3782.60
374.06	3835.85
374.26	3286.99
374.47	3274.70
374.68	3770.31
374.89	3510.22
375.10	3071.95
375.31	3172.30
375.52	3411.92
375.73	3467.21
375.94	2885.59
376.15	3229.65
376.36	3168.21
376.57	3327.95
376.78	3104.72
376.99	3147.73
377.20	3733.45
377.40	3393.48
377.61	3477.45
377.82	3119.06
378.03	3866.56
378.24	3522.51
378.45	3174.35
378.66	3172.30
378.87	3098.58
379.08	3114.96
379.29	3078.10
379.50	3297.23
379.71	3469.26
379.91	3545.03
380.12	3141.58
380.33	3248.08
380.54	3348.43
380.75	3327.95
380.96	3166.16
381.17	3147.73
381.38	3342.28
381.59	3450.83
381.80	3155.92
382.00	3321.81
382.21	3350.48
382.42	3717.06
382.63	3467.21
382.84	3211.22
383.05	3639.24
383.26	3606.47
383.47	3280.85
383.68	3080.14
383.88	3438.54
384.09	3393.48
384.30	3311.57
384.51	3252.17
384.72	3452.88
384.93	3147.73
385.14	3207.12
385.35	3393.48
385.55	3114.96
385.76	3741.64
385.97	3139.54
386.18	2965.46
386.39	3286.99
386.60	3248.08
386.81	3086.29
387.02	2979.79
387.22	3196.88
387.43	3598.28
387.64	3184.59
387.85	3313.61
388.06	3471.31
388.27	4470.72
388.48	7202.71
388.68	10780.51
388.89	13508.40
389.10	14786.33
389.31	14262.05
389.52	11632.46
389.73	10280.80
389.93	9443.18
390.14	8402.82
390.35	8021.89
390.56	7389.07
390.77	6201.25
390.98	4775.86
391.18	4089.79
391.39	3911.62
391.60	3418.06
391.81	3352.52
392.02	3168.21
392.23	3895.24
392.43	3516.36
392.64	3215.31
392.85	3174.35
393.06	3823.56
393.27	3434.44
393.47	3106.77
393.68	3229.65
393.89	3276.75
394.10	3743.69
394.31	3147.73
394.52	3176.40
394.72	3274.70
394.93	3790.79
395.14	2969.55
395.35	3280.85
395.56	3330.00
395.76	3364.81
395.97	3108.82
396.18	3243.98
396.39	3368.91
396.60	3993.54
396.80	3585.99
397.01	3330.00
397.22	3680.20
397.43	3657.67
397.64	3071.95
397.84	3180.50
398.05	3858.37
398.26	3385.29
398.47	3223.50
398.67	3413.96
398.88	3448.78
399.09	3547.08
399.30	3123.15
399.51	3155.92
399.71	3297.23
399.92	3362.76
400.13	3194.83
400.34	3094.48
400.54	3487.69
400.75	3755.97
400.96	3231.69
401.17	3469.26
401.37	3528.65
401.58	3403.72
401.79	3088.34
402.00	3250.13
402.21	3919.81
402.41	3540.94
402.62	3377.10
402.83	3506.12
403.04	3825.61
403.24	4302.78
403.45	3155.92
403.66	3438.54
403.87	3608.52
404.07	3841.99
404.28	3315.66
404.49	3475.40
404.70	3510.22
404.90	3614.66
405.11	3049.43
405.32	3286.99
405.52	3274.70
405.73	3272.65
405.94	3102.67
406.15	3256.27
406.35	3581.90
406.56	3622.86
406.77	3155.92
406.98	3102.67
407.18	3297.23
407.39	3823.56
407.60	3223.50
407.80	3196.88
408.01	3405.77
408.22	3606.47
408.43	3074.00
408.63	3313.61
408.84	3682.25
409.05	3569.61
409.25	3071.95
409.46	3186.64
409.67	3387.34
409.88	3268.56
410.08	3198.93
410.29	3063.76
410.50	3725.26
410.70	3612.62
410.91	3110.86
411.12	3278.80
411.32	3442.64
411.53	3321.81
411.74	3170.26
411.95	3196.88
412.15	3422.16
412.36	3614.66
412.57	3241.93
412.77	3246.03
412.98	3348.43
413.19	3219.41
413.39	3213.26
413.60	3108.82
413.81	3715.02
414.01	3286.99
414.22	3174.35
414.43	3362.76
414.63	3391.44
414.84	3567.56
415.05	3147.73
415.25	3006.42
415.46	3612.62
415.67	3303.37
415.87	3246.03
416.08	3213.26
416.29	3346.38
416.49	3602.38
416.70	3190.74
416.91	3074.00
417.11	3436.49
417.32	3661.77
417.53	3246.03
417.73	3239.89
417.94	3364.81
418.15	3553.23
418.35	3246.03
418.56	3200.98
418.77	3860.42
418.97	3436.49
419.18	3289.04
419.38	2756.57
419.59	3489.74
419.80	3717.06
420.00	3166.16
420.21	3090.38
420.42	3702.73
420.62	3567.56
420.83	3164.11
421.04	3139.54
421.24	3438.54
421.45	3604.42
421.65	3252.17
421.86	3213.26
422.07	3663.82
422.27	3575.75
422.48	3006.42
422.69	3033.04
422.89	3401.68
423.10	3393.48
423.30	3100.62
423.51	3207.12
423.72	3624.90
423.92	3647.43
424.13	3026.90
424.33	3248.08
424.54	3698.63
424.75	3422.16
424.95	3360.72
425.16	3084.24
425.36	3397.58
425.57	3645.38
425.78	3303.37
425.98	3258.32
426.19	3446.73
426.39	3215.31
426.60	3200.98
426.81	3270.61
427.01	3538.89
427.22	3211.22
427.42	2996.18
427.63	3080.14
427.83	3624.90
428.04	3866.56
428.25	3280.85
428.45	3278.80
428.66	3626.95
428.86	3526.60
429.07	3182.54
429.28	3153.87
429.48	3377.10
429.69	3239.89
429.89	3256.27
430.10	3053.52
430.30	3604.42
430.51	3712.97
430.71	3157.97
430.92	3305.42
431.13	3258.32
431.33	3592.14
431.54	3266.51
431.74	3362.76
431.95	3872.71
432.15	3188.69
432.36	3102.67
432.56	3237.84
432.77	3911.62
432.98	3751.88
433.18	3295.18
433.39	2971.60
433.59	3393.48
433.80	3887.04
434.00	3338.19
434.21	3174.35
434.41	3248.08
434.62	3946.44
434.82	3082.19
435.03	3147.73
435.23	3475.40
435.44	3102.67
435.64	3135.44
435.85	3160.02
436.06	3639.24
436.26	3674.06
436.47	3164.11
436.67	3145.68
436.88	3438.54
437.08	3698.63
437.29	3348.43
437.49	3278.80
437.70	3794.89
437.90	3420.11
438.11	3327.95
438.31	3217.36
438.52	3784.65
438.72	3565.51
438.93	3395.53
439.13	3213.26
439.34	3604.42
439.54	3379.15
439.75	3286.99
439.95	3258.32
440.16	3227.60
440.36	3512.27
440.57	3125.20
440.77	3131.34
440.98	3436.49
441.18	3594.19
441.39	3033.04
441.59	2967.51
441.80	3893.19
442.00	3389.39
442.21	3205.07
442.41	3002.32
442.62	3633.10
442.82	3362.76
443.02	3082.19
443.23	3217.36
443.43	3383.24
443.64	3753.93
443.84	3022.80
444.05	3250.13
444.25	3434.44
444.46	3395.53
444.66	3194.83
444.87	3446.73
445.07	3086.29
445.28	3373.00
445.48	3401.68
445.69	3200.98
445.89	4063.17
446.09	3368.91
446.30	3426.25
446.50	3571.66
446.71	5021.62
446.91	6119.33
447.12	6903.70
447.32	7137.17
447.53	7366.54
447.73	6158.24
447.93	5273.52
448.14	5144.50
448.34	5498.80
448.55	4544.44
448.75	4421.56
448.96	4214.72
449.16	4155.33
449.36	4020.16
449.57	3327.95
449.77	3231.69
449.98	3282.89
450.18	3557.32
450.39	3108.82
450.59	3334.09
450.79	3350.48
451.00	3246.03
451.20	3401.68
451.41	3160.02
451.61	3608.52
451.81	3475.40
452.02	3108.82
452.22	3135.44
452.43	3321.81
452.63	3229.65
452.84	3209.17
453.04	3160.02
453.24	3495.88
453.45	3373.00
453.65	3192.78
453.86	3252.17
454.06	3420.11
454.26	3459.02
454.47	3117.01
454.67	3348.43
454.87	3467.21
455.08	3336.14
455.28	3364.81
455.49	3393.48
455.69	3268.56
455.89	3876.80
456.10	3252.17
456.30	3164.11
456.51	3608.52
456.71	3413.96
456.91	3256.27
457.12	3151.82
457.32	3624.90
457.52	3256.27
457.73	3418.06
457.93	3293.13
458.14	3303.37
458.34	3059.67
458.54	3149.78
458.75	3063.76
458.95	3647.43
459.15	3416.01
459.36	3196.88
459.56	3178.45
459.76	4024.26
459.97	3461.07
460.17	3074.00
460.37	3194.83
460.58	3493.83
460.78	3620.81
460.99	3233.74
461.19	3096.53
461.39	3319.76
461.60	3370.96
461.80	3239.89
462.00	3063.76
462.21	3397.58
462.41	3270.61
462.61	3014.61
462.82	3002.32
463.02	3534.79
463.22	3477.45
463.43	3209.17
463.63	3082.19
463.83	3690.44
464.04	3467.21
464.24	3147.73
464.44	3125.20
464.64	3508.17
464.85	3592.14
465.05	3123.15
465.25	3137.49
465.46	3383.24
465.66	3573.71
465.86	3303.37
466.07	3108.82
466.27	3362.76
466.47	3051.47
466.68	2949.08
466.88	3274.70
467.08	3585.99
467.29	3774.41
467.49	3180.50
467.69	3356.62
467.89	3561.42
468.10	3387.34
468.30	3291.09
468.50	3196.88
468.71	3526.60
468.91	3125.20
469.11	3327.95
469.31	3293.13
469.52	3284.94
469.72	3837.89
469.92	3389.39
470.13	3162.06
470.33	3485.64
470.53	3461.07
470.73	3524.55
470.94	3887.04
471.14	4048.83
471.34	4644.79
471.54	4179.90
471.75	3790.79
471.95	3835.85
472.15	3719.11
472.36	3712.97
472.56	3483.59
472.76	3891.14
472.96	3729.35
473.17	3393.48
473.37	3227.60
473.57	3389.39
473.77	3559.37
473.98	3362.76
474.18	3033.04
474.38	4118.47
474.58	3327.95
474.79	3069.91
474.99	3346.38
475.19	3682.25
475.39	3295.18
475.60	3260.37
475.80	3129.30
476.00	3549.13
476.20	3399.63
476.41	3229.65
476.61	3209.17
476.81	3778.50
477.01	3291.09
477.21	3479.50
477.42	3319.76
477.62	3352.52
477.82	3565.51
478.02	3041.23
478.23	3198.93
478.43	3295.18
478.63	3432.40
478.83	3203.02
479.03	3289.04
479.24	3813.32
479.44	3880.90
479.64	3055.57
479.84	2959.31
480.04	3401.68
480.25	3688.39
480.45	3131.34
480.65	3114.96
480.85	3731.40
481.06	3307.47
481.26	3348.43
481.46	3102.67
481.66	3598.28
481.86	3272.65
482.06	3338.19
482.27	3145.68
482.47	3299.28
482.67	3567.56
482.87	3203.02
483.07	3256.27
483.28	3401.68
483.48	3221.45
483.68	3188.69
483.88	3065.81
484.08	3004.37
484.29	3139.54
484.49	3260.37
484.69	2969.55
484.89	3739.59
485.09	3676.10
485.29	3188.69
485.50	3323.85
485.70	3299.28
485.90	3723.21
486.10	3330.00
486.30	3061.71
486.50	3731.40
486.71	3532.75
486.91	3182.54
487.11	3280.85
487.31	3166.16
487.51	3559.37
487.71	3172.30
487.91	3149.78
488.12	3270.61
488.32	2967.51
488.52	3180.50
488.72	2934.74
488.92	3522.51
489.12	3770.31
489.32	3336.14
489.53	3127.25
489.73	3053.52
489.93	3882.95
490.13	3084.24
490.33	2965.46
490.53	3463.12
490.73	3696.58
490.94	2996.18
491.14	3295.18
491.34	3551.18
491.54	3487.69
491.74	4003.78
491.94	4558.78
492.14	5060.53
492.34	5132.21
492.54	4790.20
492.75	4020.16
492.95	4478.91
493.15	4057.03
493.35	3835.85
493.55	3700.68
493.75	3782.60
493.95	3999.68
494.15	3401.68
494.35	3246.03
494.56	3432.40
494.76	3221.45
494.96	3311.57
495.16	3028.95
495.36	3483.59
495.56	3536.84
495.76	3207.12
495.96	3078.10
496.16	3229.65
496.36	3925.96
496.56	3069.91
496.77	3278.80
496.97	3416.01
497.17	3758.02
497.37	3004.37
497.57	3317.71
497.77	3471.31
497.97	3237.84
498.17	3139.54
498.37	3196.88
498.57	3618.76
498.77	3289.04
498.97	3344.33
499.17	3524.55
499.38	3432.40
499.58	3526.60
499.78	3311.57
499.98	3352.52
500.18	3334.09
500.38	3262.41
500.58	3393.48
500.78	3813.32
500.98	6082.47
501.18	7839.62
501.38	9004.92
501.58	9783.15
501.78	9852.78
501.98	8392.58
502.18	6940.57
502.38	6129.57
502.58	6129.57
502.78	5574.57
502.98	5287.86
503.18	5109.68
503.38	4876.21
503.59	4198.34
503.79	3936.20
503.99	3712.97
504.19	3934.15
504.39	3991.49
504.59	3602.38
504.79	3549.13
504.99	3944.39
505.19	3633.10
505.39	3276.75
505.59	3577.80
505.79	3846.09
505.99	3698.63
506.19	3205.07
506.39	3409.87
506.59	3323.85
506.79	3362.76
506.99	3411.92
507.19	3088.34
507.39	3463.12
507.59	3129.30
507.79	3192.78
507.99	3114.96
508.19	3393.48
508.39	3385.29
508.59	3084.24
508.79	3231.69
508.99	3983.30
509.19	3295.18
509.39	3229.65
509.59	3090.38
509.79	3272.65
509.99	3495.88
510.19	3338.19
510.39	3262.41
510.59	3581.90
510.79	3317.71
510.99	2975.70
511.19	3155.92
511.39	3891.14
511.59	3674.06
511.79	3360.72
511.99	3084.24
512.19	3878.85
512.38	3420.11
512.58	3098.58
512.78	3078.10
512.98	3684.30
513.18	3798.98
513.38	3067.86
513.58	3237.84
513.78	3438.54
513.98	3389.39
514.18	3127.25
514.38	3168.21
514.58	3545.03
514.78	3336.14
514.98	3053.52
515.18	3207.12
515.38	3147.73
515.58	3733.45
515.78	3157.97
515.98	3217.36
516.18	3549.13
516.38	3438.54
516.57	3092.43
516.77	3098.58
516.97	3522.51
517.17	3262.41
517.37	2926.55
517.57	3213.26
517.77	3454.92
517.97	3278.80
518.17	3252.17
518.37	3000.27
518.57	3250.13
518.77	3377.10
518.97	3223.50
519.16	3221.45
519.36	3737.54
519.56	3254.22
519.76	3114.96
519.96	3266.51
520.16	3753.93
520.36	3305.42
520.56	3313.61
520.76	3149.78
520.96	3323.85
521.16	3680.20
521.35	3370.96
521.55	3338.19
521.75	3401.68
521.95	3295.18
522.15	3090.38
522.35	3035.09
522.55	3221.45
522.75	3641.29
522.95	3041.23
523.14	3074.00
523.34	3459.02
523.54	3303.37
523.74	3188.69
523.94	3180.50
524.14	3157.97
524.34	3520.46
524.54	3342.28
524.73	3196.88
524.93	3647.43
525.13	3424.20
525.33	3049.43
525.53	3403.72
525.73	3594.19
525.93	3416.01
526.13	3256.27
526.32	3065.81
526.52	3667.91
526.72	3624.90
526.92	3217.36
527.12	3028.95
527.32	3106.77
527.52	3510.22
527.71	3192.78
527.91	3149.78
528.11	3379.15
528.31	3440.59
528.51	3110.86
528.71	3336.14
528.90	3512.27
529.10	3747.78
529.30	3162.06
529.50	2955.22
529.70	3461.07
529.90	3346.38
530.09	3180.50
530.29	2992.08
530.49	3237.84
530.69	4081.60
530.89	3336.14
531.09	3200.98
531.28	3350.48
531.48	3696.58
531.68	3209.17
531.88	3180.50
532.08	3616.71
532.28	3399.63
532.47	3198.93
532.67	3266.51
532.87	3542.99
533.07	3233.74
533.27	3192.78
533.46	3184.59
533.66	3567.56
533.86	3387.34
534.06	3196.88
534.26	3145.68
534.45	3368.91
534.65	3631.05
534.85	3299.28
535.05	3133.39
535.25	3678.15
535.44	3057.62
535.64	3215.31
535.84	3164.11
536.04	3313.61
536.24	3395.53
536.43	3166.16
536.63	3114.96
536.83	3481.55
537.03	3426.25
537.22	2992.08
537.42	2852.82
537.62	3540.94
537.82	3321.81
538.02	3344.33
538.21	3219.41
538.41	4057.03
538.61	3606.47
538.81	3272.65
539.00	3276.75
539.20	3153.87
539.40	3356.62
539.60	3090.38
539.79	3432.40
539.99	3432.40
540.19	3286.99
540.39	3088.34
540.58	3280.85
540.78	3672.01
540.98	3446.73
541.18	3385.29
541.37	3215.31
541.57	3446.73
541.77	3512.27
541.97	3098.58
542.16	3043.28
542.36	3377.10
542.56	3336.14
542.76	3315.66
542.95	3284.94
543.15	3596.23
543.35	3620.81
543.54	3160.02
543.74	3114.96
543.94	3649.48
544.14	3336.14
544.33	3252.17
544.53	3151.82
544.73	3438.54
544.93	3252.17
545.12	3151.82
545.32	3141.58
545.52	3407.82
545.71	3203.02
545.91	3235.79
546.11	3082.19
546.30	3223.50
546.50	3506.12
546.70	3223.50
546.90	3252.17
547.09	2985.94
547.29	3444.68
547.49	3409.87
547.68	3162.06
547.88	3223.50
548.08	3622.86
548.27	3446.73
548.47	3071.95
548.67	3284.94
548.87	3487.69
549.06	3141.58
549.26	3092.43
549.46	3520.46
549.65	3352.52
549.85	3192.78
550.05	3096.53
550.24	3170.26
550.44	3411.92
550.64	3141.58
550.83	3176.40
551.03	3715.02
551.23	3669.96
551.42	3207.12
551.62	3215.31
551.82	3411.92
552.01	3385.29
552.21	3479.50
552.41	3254.22
552.60	3618.76
552.80	3438.54
553.00	3162.06
553.19	3205.07
553.39	3794.89
553.59	3213.26
553.78	3262.41
553.98	3166.16
554.17	3237.84
554.37	3510.22
554.57	3221.45
554.76	3000.27
554.96	3370.96
555.16	3508.17
555.35	3215.31
555.55	3327.95
555.75	3647.43
555.94	3577.80
556.14	3002.32
556.33	3209.17
556.53	3422.16
556.73	3434.44
556.92	3153.87
557.12	3114.96
557.32	3913.67
557.51	3749.83
557.71	3108.82
557.90	3366.86
558.10	3708.87
558.30	3387.34
558.49	3151.82
558.69	3141.58
558.88	3538.89
559.08	3518.41
559.28	3192.78
559.47	3237.84
559.67	3647.43
559.86	3782.60
560.06	3155.92
560.26	3213.26
560.45	3508.17
560.65	3379.15
560.84	3475.40
561.04	3074.00
561.24	3616.71
561.43	3223.50
561.63	3409.87
561.82	3225.55
562.02	3573.71
562.22	3151.82
562.41	3178.45
562.61	3104.72
562.80	3200.98
563.00	4069.31
563.19	3229.65
563.39	3274.70
563.59	3594.19
563.78	3166.16
563.98	2924.50
564.17	3190.74
564.37	3137.49
564.56	3426.25
564.76	3104.72
564.96	3319.76
565.15	3573.71
565.35	3944.39
565.54	3223.50
565.74	3176.40
565.93	3549.13
566.13	3375.05
566.32	3215.31
566.52	3233.74
566.71	3446.73
566.91	3690.44
567.11	3266.51
567.30	3213.26
567.50	3520.46
567.69	3518.41
567.89	3129.30
568.08	3037.14
568.28	3471.31
568.47	3176.40
568.67	3114.96
568.86	3170.26
569.06	3569.61
569.25	3397.58
569.45	3014.61
569.64	3282.89
569.84	3330.00
570.04	3459.02
570.23	3084.24
570.43	3215.31
570.62	3461.07
570.82	3880.90
571.01	3123.15
571.21	3151.82
571.40	3295.18
571.60	3606.47
571.79	3264.46
571.99	3145.68
572.18	3190.74
572.38	3465.16
572.57	3272.65
572.77	3217.36
572.96	4026.31
573.16	3493.83
573.35	3123.15
573.55	3307.47
573.74	3635.14
573.94	3389.39
574.13	3151.82
574.33	3336.14
574.52	3676.10
574.71	3434.44
574.91	3227.60
575.10	2977.75
575.30	3313.61
575.49	3229.65
575.69	3153.87
575.88	3149.78
576.08	3297.23
576.27	3674.06
576.47	3059.67
576.66	3346.38
576.86	3729.35
577.05	3532.75
577.25	3266.51
577.44	3403.72
577.64	3284.94
577.83	3571.66
578.02	3129.30
578.22	3276.75
578.41	3803.08
578.61	3403.72
578.80	3039.19
579.00	3172.30
579.19	3356.62
579.39	3549.13
579.58	3241.93
579.77	3205.07
579.97	3692.49
580.16	3684.30
580.36	3360.72
580.55	3209.17
580.75	3571.66
580.94	3467.21
581.13	3266.51
581.33	3456.97
581.52	3377.10
581.72	3837.89
581.91	3356.62
582.11	3123.15
582.30	3694.54
582.49	3465.16
582.69	3532.75
582.88	3174.35
583.08	3594.19
583.27	3579.85
583.47	3299.28
583.66	3153.87
583.85	3229.65
584.05	3344.33
584.24	3334.09
584.44	3330.00
584.63	3639.24
584.82	3672.01
585.02	3344.33
585.21	3303.37
585.41	3532.75
585.60	3442.64
585.79	3409.87
585.99	3493.83
586.18	3436.49
586.37	4571.07
586.57	6621.08
586.76	18536.17
586.96	36943.31
587.15	49280.27
587.34	57478.29
587.54	60843.10
587.73	53349.59
587.93	38538.68
588.12	29451.84
588.31	24403.60
588.51	21774.00
588.70	20303.56
588.89	17635.06
589.09	14905.12
589.28	13217.59
589.47	10264.42
589.67	7784.33
589.86	6244.26
590.06	4933.56
590.25	4450.24
590.44	3868.61
590.64	3635.14
590.83	3712.97
591.02	3688.39
591.22	3147.73
591.41	3284.94
591.60	3420.11
591.80	3928.00
591.99	3020.75
592.18	3157.97
592.38	3575.75
592.57	3373.00
592.76	3196.88
592.96	3321.81
593.15	3340.24
593.34	3690.44
593.54	3127.25
593.73	3266.51
593.92	3487.69
594.12	3575.75
594.31	3170.26
594.50	3344.33
594.70	3567.56
594.89	4089.79
595.08	3114.96
595.28	3383.24
595.47	4163.52
595.66	3669.96
595.86	3106.77
596.05	3039.19
596.24	3413.96
596.43	3905.48
596.63	3280.85
596.82	3323.85
597.01	3596.23
597.21	3803.08
597.40	3102.67
597.59	3229.65
597.79	3442.64
597.98	3600.33
598.17	3221.45
598.36	3282.89
598.56	3622.86
598.75	3346.38
598.94	3252.17
599.14	3250.13
599.33	3319.76
599.52	3592.14
599.71	3274.70
599.91	3209.17
600.10	3563.47
600.29	3456.97
600.48	3293.13
600.68	3311.57
600.87	3475.40
601.06	3229.65
601.26	3272.65
601.45	3418.06
601.64	3397.58
601.83	3811.27
602.03	3063.76
602.22	3035.09
602.41	3637.19
602.60	4052.93
602.80	3250.13
602.99	3418.06
603.18	3344.33
603.37	3473.36
603.57	3090.38
603.76	3168.21
603.95	3684.30
604.14	3385.29
604.34	3094.48
604.53	3100.62
604.72	3444.68
604.91	3657.67
605.10	3141.58
605.30	3108.82
605.49	3946.44
605.68	3502.03
605.87	3188.69
606.07	3205.07
606.26	3491.79
606.45	3629.00
606.64	3207.12
606.84	2987.99
607.03	3389.39
607.22	3721.16
607.41	3162.06
607.60	3200.98
607.80	3649.48
607.99	3393.48
608.18	3262.41
608.37	3184.59
608.56	3370.96
608.76	3618.76
608.95	3370.96
609.14	3188.69
609.33	3708.87
609.52	3848.13
609.72	3268.56
609.91	3336.14
610.10	3446.73
610.29	3794.89
610.48	3393.48
610.68	3311.57
610.87	3395.53
611.06	3585.99
611.25	3205.07
611.44	3315.66
611.63	3391.44
611.83	3688.39
612.02	3053.52
612.21	3368.91
612.40	3078.10
612.59	3174.35
612.79	3047.38
612.98	3264.46
613.17	3872.71
613.36	3387.34
613.55	3303.37
613.74	3166.16
613.93	3456.97
614.13	3553.23
614.32	3334.09
614.51	3198.93
614.70	3342.28
614.89	3336.14
615.08	3319.76
615.28	3553.23
615.47	3256.27
615.66	3590.09
615.85	3217.36
616.04	3160.02
616.23	3471.31
616.42	3442.64
616.62	3143.63
616.81	3248.08
617.00	3389.39
617.19	3594.19
617.38	3246.03
617.57	3215.31
617.76	3561.42
617.95	3608.52
618.15	3327.95
618.34	3487.69
618.53	3143.63
618.72	3698.63
618.91	3233.74
619.10	3303.37
619.29	3381.20
619.48	3436.49
619.68	3090.38
619.87	3172.30
620.06	3080.14
620.25	3624.90
620.44	3127.25
620.63	3106.77
620.82	3463.12
621.01	3370.96
621.20	3284.94
621.39	3278.80
621.59	3602.38
621.78	3422.16
621.97	3256.27
622.16	3323.85
622.35	3530.70
622.54	3555.27
622.73	3303.37
622.92	2959.31
623.11	3590.09
623.30	3327.95
623.49	3338.19
623.68	3026.90
623.88	3721.16
624.07	3377.10
624.26	3069.91
624.45	3145.68
624.64	3403.72
624.83	3549.13
625.02	3160.02
625.21	3200.98
625.40	3559.37
625.59	3758.02
625.78	3344.33
625.97	3348.43
626.16	3700.68
626.35	3534.79
626.54	3149.78
626.74	3383.24
626.93	3395.53
627.12	3440.59
627.31	3168.21
627.50	3170.26
627.69	3579.85
627.88	3315.66
628.07	3053.52
628.26	3010.51
628.45	3295.18
628.64	3184.59
628.83	3160.02
629.02	3016.66
629.21	3579.85
629.40	3428.30
629.59	3092.43
629.78	3172.30
629.97	3456.97
630.16	3413.96
630.35	3061.71
630.54	3297.23
630.73	3338.19
630.92	3463.12
631.11	3110.86
631.30	3295.18
631.49	3598.28
631.68	3377.10
631.87	3217.36
632.06	3147.73
632.25	3903.43
632.44	3467.21
632.63	3227.60
632.82	3174.35
633.01	3309.52
633.20	3436.49
633.39	3135.44
633.58	3047.38
633.77	3508.17
633.96	3612.62
634.15	3321.81
634.34	3295.18
634.53	3602.38
634.72	3313.61
634.91	2983.89
635.10	3182.54
635.29	3583.95
635.48	3528.65
635.67	3129.30
635.86	3076.05
636.05	3747.78
636.24	3454.92
636.43	3080.14
636.62	3276.75
636.81	2893.78
637.00	3434.44
637.19	3194.83
637.38	3082.19
637.57	3381.20
637.76	3475.40
637.95	3379.15
638.14	3256.27
638.33	3420.11
638.52	3483.59
638.71	3065.81
638.89	3051.47
639.08	4028.35
639.27	3657.67
639.46	3385.29
639.65	3616.71
639.84	3835.85
640.03	4011.97
640.22	3508.17
640.41	3463.12
640.60	3493.83
640.79	3661.77
640.98	3385.29
641.17	3413.96
641.36	3604.42
641.55	3608.52
641.74	3041.23
641.92	3153.87
642.11	3262.41
642.30	3303.37
642.49	3155.92
642.68	3174.35
642.87	3551.18
643.06	3540.94
643.25	3043.28
643.44	3059.67
643.63	3340.24
643.82	3567.56
644.00	2979.79
644.19	3194.83
644.38	3184.59
644.57	3559.37
644.76	3151.82
644.95	3262.41
645.14	3471.31
645.33	3413.96
645.52	3258.32
645.71	3076.05
645.89	3213.26
646.08	3411.92
646.27	3243.98
646.46	3432.40
646.65	3180.50
646.84	3510.22
647.03	3178.45
647.22	3336.14
647.40	3516.36
647.59	3360.72
647.78	3002.32
647.97	3166.16
648.16	3291.09
648.35	3700.68
648.54	3495.88
648.73	3231.69
648.91	3575.75
649.10	3452.88
649.29	3098.58
649.48	3110.86
649.67	3508.17
649.86	3454.92
650.05	3182.54
650.23	3336.14
650.42	3282.89
650.61	3755.97
650.80	3342.28
650.99	3411.92
651.18	3717.06
651.36	3692.49
651.55	3071.95
651.74	3342.28
651.93	3377.10
652.12	3379.15
652.31	3174.35
652.49	3200.98
652.68	3401.68
652.87	3782.60
653.06	3344.33
653.25	3483.59
653.44	3479.50
653.62	3780.55
653.81	3200.98
654.00	3221.45
654.19	3610.57
654.38	3921.86
654.56	3278.80
654.75	3123.15
654.94	3534.79
655.13	3479.50
655.32	3121.10
655.51	3157.97
655.69	3395.53
655.88	3641.29
656.07	3020.75
656.26	3149.78
656.45	3127.25
656.63	3409.87
656.82	3153.87
657.01	3520.46
657.20	3311.57
657.38	3772.36
657.57	3153.87
657.76	3117.01
657.95	3588.04
658.14	3368.91
658.32	3334.09
658.51	3061.71
658.70	3512.27
658.89	3502.03
659.08	3160.02
659.26	3438.54
659.45	3155.92
659.64	3534.79
659.83	3270.61
660.01	3491.79
660.20	3475.40
660.39	3712.97
660.58	2930.64
660.76	3241.93
660.95	3184.59
661.14	3471.31
661.33	2983.89
661.51	3286.99
661.70	3272.65
661.89	3542.99
662.08	3280.85
662.26	2996.18
662.45	3151.82
662.64	3798.98
662.83	3186.64
663.01	3139.54
663.20	3262.41
663.39	3846.09
663.58	3254.22
663.76	3200.98
663.95	3622.86
664.14	3217.36
664.32	3297.23
664.51	3074.00
664.70	3094.48
664.89	3557.32
665.07	3098.58
665.26	3389.39
665.45	3051.47
665.64	3616.71
665.82	3117.01
666.01	3305.42
666.20	3143.63
666.38	3655.62
666.57	3485.64
666.76	5676.97
666.95	12492.61
667.13	18921.18
667.32	22148.78
667.51	24870.53
667.69	25454.20
667.88	20817.60
668.07	15388.44
668.25	13154.10
668.44	11812.68
668.63	10192.74
668.81	8834.94
669.00	7798.66
669.19	7112.60
669.38	6293.41
669.56	5330.86
669.75	4698.04
669.94	4337.60
670.12	3790.79
670.31	3448.78
670.50	3409.87
670.68	3616.71
670.87	3493.83
671.06	3141.58
671.24	3332.05
671.43	3755.97
671.62	3395.53
671.80	3147.73
671.99	3307.47
672.18	3463.12
672.36	3536.84
672.55	3383.24
672.74	3246.03
672.92	3330.00
673.11	3557.32
673.29	3012.56
673.48	3352.52
673.67	3422.16
673.85	3592.14
674.04	3106.77
674.23	3233.74
674.41	3794.89
674.60	3231.69
674.79	3020.75
674.97	3074.00
675.16	3598.28
675.34	3710.92
675.53	3178.45
675.72	3155.92
675.90	3870.66
676.09	3305.42
676.28	3252.17
676.46	3055.57
676.65	3608.52
676.83	3254.22
677.02	3270.61
677.21	3252.17
677.39	3485.64
677.58	3299.28
677.77	3217.36
677.95	3104.72
678.14	3356.62
678.32	3395.53
678.51	3252.17
678.70	3516.36
678.88	3340.24
679.07	3428.30
679.25	3155.92
679.44	3157.97
679.63	3198.93
679.81	3479.50
680.00	3436.49
680.18	3200.98
680.37	3798.98
680.55	3495.88
680.74	3047.38
680.93	2983.89
681.11	3487.69
681.30	3479.50
681.48	3131.34
681.67	3151.82
681.85	3434.44
682.04	3196.88
682.23	3330.00
682.41	3391.44
682.60	3385.29
682.78	3438.54
682.97	3026.90
683.15	3289.04
683.34	3471.31
683.53	3805.13
683.71	3026.90
683.90	3241.93
684.08	3815.37
684.27	3284.94
684.45	3258.32
684.64	3370.96
684.82	3456.97
685.01	3577.80
685.19	3272.65
685.38	3508.17
685.57	3487.69
685.75	3342.28
685.94	3117.01
686.12	3090.38
686.31	3364.81
686.49	3852.23
686.68	2992.08
686.86	3221.45
687.05	3409.87
687.23	3749.83
687.42	3196.88
687.60	3043.28
687.79	3616.71
687.97	3803.08
688.16	3299.28
688.34	3403.72
688.53	3098.58
688.71	3569.61
688.90	3493.83
689.08	3184.59
689.27	3035.09
689.45	3643.34
689.64	3311.57
689.82	3321.81
690.01	3545.03
690.19	3518.41
690.38	3262.41
690.56	3266.51
690.75	3164.11
690.93	3327.95
691.12	3235.79
691.30	3217.36
691.49	3295.18
691.67	3475.40
691.86	3590.09
692.04	3205.07
692.23	3221.45
692.41	3356.62
692.60	3540.94
692.78	3446.73
692.97	3522.51
693.15	3557.32
693.34	3352.52
693.52	3391.44
693.71	3358.67
693.89	3348.43
694.08	3082.19
694.26	3248.08
694.44	3669.96
694.63	3553.23
694.81	3170.26
695.00	3143.63
695.18	3692.49
695.37	3975.11
695.55	3270.61
695.74	3243.98
695.92	3276.75
696.10	3641.29
696.29	3151.82
696.47	3194.83
696.66	3227.60
696.84	3246.03
697.03	3227.60
697.21	3524.55
697.40	4818.87
697.58	3639.24
697.76	3137.49
697.95	3225.55
698.13	3268.56
698.32	3340.24
698.50	3213.26
698.68	3270.61
698.87	3563.47
699.05	3698.63
699.24	3246.03
699.42	3219.41
699.61	3504.07
699.79	3430.35
699.97	3196.88
700.16	3104.72
700.34	3106.77
700.53	3450.83
700.71	3454.92
700.89	3303.37
701.08	3291.09
701.26	3452.88
701.45	3512.27
701.63	3180.50
701.81	3315.66
702.00	3266.51
702.18	3260.37
702.37	3106.77
702.55	3698.63
702.73	3510.22
702.92	3090.38
703.10	3540.94
703.28	3590.09
703.47	3151.82
703.65	3491.79
703.84	3246.03
704.02	3286.99
704.20	3708.87
704.39	3125.20
704.57	3157.97
704.75	3577.80
704.94	3622.86
705.12	3422.16
705.30	3948.48
705.49	8056.71
705.67	14602.02
705.86	19097.31
706.04	21393.08
706.22	23619.22
706.41	21894.83
706.59	16692.99
706.77	13229.88
706.96	11614.03
707.14	10805.08
707.32	9156.47
707.51	8087.43
707.69	6719.39
707.87	5859.24
708.06	4712.38
708.24	4286.40
708.42	4036.55
708.61	4351.93
708.79	3274.70
708.97	3385.29
709.16	3647.43
709.34	3471.31
709.52	3266.51
709.71	3286.99
709.89	3536.84
710.07	3186.64
710.26	3112.91
710.44	3180.50
710.62	3665.86
710.80	3385.29
710.99	3325.90
711.17	3362.76
711.35	3307.47
711.54	3278.80
711.72	3389.39
711.90	3254.22
712.09	3614.66
712.27	3313.61
712.45	3342.28
712.63	3190.74
712.82	3510.22
713.00	3444.68
713.18	3362.76
713.37	3385.29
713.55	3598.28
713.73	3538.89
713.91	3237.84
714.10	3260.37
714.28	3360.72
714.46	3499.98
714.65	3303.37
714.83	3270.61
715.01	3452.88
715.19	3479.50
715.38	3155.92
715.56	3319.76
715.74	3239.89
715.92	3256.27
716.11	3534.79
716.29	2852.82
716.47	3495.88
716.65	3469.26
716.84	3063.76
717.02	3282.89
717.20	3108.82
717.38	3246.03
717.57	3379.15
717.75	3286.99
717.93	3266.51
718.11	3594.19
718.30	3076.05
718.48	3289.04
718.66	3674.06
718.84	3661.77
719.03	3221.45
719.21	3028.95
719.39	3876.80
719.57	3592.14
719.75	3239.89
719.94	3153.87
720.12	3348.43
720.30	3454.92
720.48	3241.93
720.67	3221.45
720.85	3194.83
721.03	3428.30
721.21	3119.06
721.39	3278.80
721.58	3526.60
721.76	3407.82
721.94	3198.93
722.12	3274.70
722.30	3862.47
722.49	3303.37
722.67	3225.55
722.85	3182.54
723.03	3145.68
723.21	3348.43
723.40	3297.23
723.58	3346.38
723.76	3600.33
723.94	3723.21
724.12	3231.69
724.30	3446.73
724.49	3608.52
724.67	3198.93
724.85	3274.70
725.03	3147.73
725.21	3590.09
725.40	3643.34
725.58	3168.21
725.76	3438.54
725.94	3585.99
726.12	3229.65
726.30	3260.37
726.49	3188.69
726.67	3350.48
726.85	3545.03
727.03	3948.48
727.21	4857.78
727.39	6059.94
727.57	6432.67
727.76	6793.11
727.94	6580.12
728.12	5834.66
728.30	5023.67
728.48	4808.63
728.66	4450.24
728.84	4384.70
729.03	3844.04
729.21	3661.77
729.39	3479.50
729.57	3516.36
729.75	3524.55
729.93	3368.91
730.11	3133.39
730.30	3243.98
730.48	3426.25
730.66	3198.93
730.84	3323.85
731.02	3401.68
731.20	3327.95
731.38	3256.27
731.56	2977.75
731.74	3160.02
731.93	3540.94
732.11	3315.66
732.29	3172.30
732.47	3588.04
732.65	3526.60
732.83	3393.48
733.01	3321.81
733.19	3381.20
733.37	3467.21
733.56	3160.02
733.74	3098.58
733.92	3762.12
734.10	3311.57
734.28	3362.76
734.46	2987.99
734.64	3399.63
734.82	3321.81
735.00	3170.26
735.18	3092.43
735.36	3475.40
735.54	3362.76
735.73	3192.78
735.91	3311.57
736.09	3755.97
736.27	3489.74
736.45	3319.76
736.63	2998.23
736.81	3381.20
736.99	3667.91
737.17	3301.33
737.35	3174.35
737.53	3418.06
737.71	3348.43
737.89	3391.44
738.07	3168.21
738.25	3258.32
738.43	3121.10
738.61	3166.16
738.80	3137.49
738.98	3223.50
739.16	3403.72
739.34	3188.69
739.52	3524.55
739.70	3409.87
739.88	3692.49
740.06	3381.20
740.24	2901.97
740.42	3655.62
740.60	3127.25
740.78	3155.92
740.96	2901.97
741.14	3411.92
741.32	3448.78
741.50	3061.71
741.68	3436.49
741.86	3684.30
742.04	3205.07
742.22	3110.86
742.40	3160.02
742.58	3510.22
742.76	3295.18
742.94	3434.44
743.12	3002.32
743.30	3430.35
743.48	3493.83
743.66	3135.44
743.84	3180.50
744.02	3321.81
744.20	3403.72
744.38	3084.24
744.56	3164.11
744.74	3876.80
744.92	3545.03
745.10	3489.74
745.28	3362.76
745.46	3794.89
745.64	3428.30
745.82	3305.42
746.00	3155.92
746.18	3532.75
746.36	3282.89
746.54	3213.26
746.72	3213.26
746.90	3274.70
747.08	3696.58
747.26	3270.61
747.44	3389.39
747.62	3608.52
747.80	3569.61
747.98	3258.32
748.15	3172.30
748.33	3811.27
748.51	3520.46
748.69	3327.95
748.87	3074.00
749.05	3356.62
749.23	3332.05
749.41	3139.54
749.59	3176.40
749.77	3667.91
749.95	3438.54
750.13	3135.44
750.31	3395.53
750.49	3446.73
750.67	3672.01
750.85	3313.61
751.03	3166.16
751.20	3891.14
751.38	3409.87
751.56	3266.51
751.74	3229.65
751.92	3473.36
752.10	3147.73
752.28	3426.25
752.46	3166.16
752.64	3344.33
752.82	3428.30
753.00	3282.89
753.18	3213.26
753.35	3377.10
753.53	3426.25
753.71	3172.30
753.89	3239.89
754.07	3465.16
754.25	3571.66
754.43	3205.07
754.61	3100.62
754.79	3504.07
754.97	3381.20
755.14	3440.59
755.32	3094.48
755.50	3430.35
755.68	3426.25
755.86	3172.30
756.04	3131.34
756.22	3043.28
756.40	3637.19
756.57	3393.48
756.75	3135.44
756.93	3647.43
757.11	3573.71
757.29	3151.82
757.47	3104.72
757.65	3182.54
757.82	2932.69
758.00	3123.15
758.18	3164.11
758.36	3246.03
758.54	3774.41
758.72	3020.75
758.90	3307.47
759.07	3549.13
759.25	3305.42
759.43	3311.57
759.61	3045.33
759.79	4595.64
759.97	3641.29
760.15	3280.85
760.32	3231.69
760.50	3426.25
760.68	3786.69
760.86	3123.15
761.04	3454.92
761.22	3639.24
761.39	3497.93
761.57	3475.40
761.75	3207.12
761.93	3575.75
762.11	3340.24
762.28	3293.13
762.46	3043.28
762.64	3612.62
762.82	3129.30
763.00	3104.72
763.18	3373.00
763.35	3235.79
763.53	3592.14
763.71	3297.23
763.89	3209.17
764.07	3487.69
764.24	3473.36
764.42	3289.04
764.60	3246.03
764.78	3639.24
764.96	3600.33
765.13	3358.67
765.31	3082.19
765.49	3600.33
765.67	3266.51
765.84	3123.15
766.02	3131.34
766.20	3125.20
766.38	3536.84
766.56	3229.65
766.73	3332.05
766.91	3495.88
767.09	3469.26
767.27	3286.99
767.44	3149.78
767.62	3594.19
767.80	3409.87
767.98	3157.97
768.15	3168.21
768.33	3547.08
768.51	3667.91
768.69	3381.20
768.87	3198.93
769.04	3348.43
769.22	3975.11
769.40	3313.61
769.58	3397.58
769.75	3569.61
769.93	3727.30
770.11	3282.89
770.28	3133.39
770.46	3614.66
770.64	3510.22
770.82	3176.40
770.99	3096.53
771.17	3485.64
771.35	3368.91
771.53	3233.74
771.70	3143.63
771.88	3530.70
772.06	3379.15
772.23	3164.11
772.41	3227.60
772.59	3401.68
772.77	3225.55
772.94	3350.48
773.12	3272.65
773.30	3364.81
773.47	3495.88
773.65	3051.47
773.83	3397.58
774.01	3401.68
774.18	3100.62
774.36	3155.92
774.54	3106.77
774.71	3555.27
774.89	3147.73
775.07	3100.62
775.24	3256.27
775.42	3385.29
775.60	3796.93
775.78	3057.62
775.95	3104.72
776.13	3106.77
776.31	3067.86
776.48	3469.26
776.66	3391.44
776.84	3360.72
777.01	3157.97
777.19	3096.53
777.37	3104.72
777.54	3612.62
777.72	3852.23
777.90	3389.39
778.07	3196.88
778.25	4124.61
778.43	3643.34
778.60	3223.50
778.78	3327.95
778.96	3786.69
779.13	3176.40
779.31	3272.65
779.49	3207.12
779.66	3534.79
779.84	3418.06
780.01	3108.82
780.19	3078.10
780.37	3712.97
780.54	3606.47
780.72	3084.24
780.90	3196.88
781.07	3403.72
781.25	3250.13
781.43	3411.92
781.60	3229.65
781.78	3708.87
781.95	3463.12
782.13	3176.40
782.31	3090.38
782.48	3084.24
782.66	3360.72
782.83	3491.79
783.01	3393.48
783.19	3581.90
783.36	3450.83
783.54	3080.14
783.72	3243.98
783.89	3295.18
784.07	3565.51
784.24	3364.81
784.42	3428.30
784.60	3547.08
784.77	3495.88
784.95	2920.40
785.12	3213.26
785.30	3467.21
785.47	3256.27
785.65	3143.63
785.83	3254.22
786.00	3336.14
786.18	3461.07
786.35	3141.58
786.53	3139.54
786.71	3710.92
786.88	3493.83
787.06	3307.47
787.23	3248.08
787.41	3145.68
787.58	3446.73
787.76	3155.92
787.94	3250.13
788.11	3508.17
788.29	3213.26
788.46	3200.98
788.64	2990.03
788.81	3289.04
788.99	3178.45
789.16	3104.72
789.34	3200.98
789.52	3268.56
789.69	3377.10
789.87	3016.66
790.04	3147.73
790.22	3489.74
790.39	3880.90
790.57	3069.91
790.74	3096.53
790.92	3641.29
791.09	3063.76
791.27	3319.76
791.44	3334.09
791.62	3463.12
791.79	3585.99
791.97	3258.32
792.15	3534.79
792.32	3520.46
792.50	3534.79
792.67	3450.83
792.85	3514.31
793.02	3516.36
793.20	3260.37
793.37	3127.25
793.55	3102.67
793.72	3203.02
793.90	3639.24
794.07	3196.88
794.25	3133.39
794.42	3516.36
794.60	3313.61
794.77	3246.03
794.95	3389.39
795.12	3491.79
795.30	3340.24
795.47	3004.37
795.65	3573.71
795.82	3549.13
796.00	3327.95
796.17	3274.70
796.34	3076.05
796.52	3506.12
796.69	3608.52
796.87	3233.74
797.04	3348.43
797.22	3637.19
797.39	3444.68
797.57	3440.59
797.74	3274.70
797.92	3567.56
798.09	3309.52
798.27	3475.40
798.44	3098.58
798.62	3268.56
798.79	3426.25
798.96	3272.65
799.14	3225.55
799.31	3966.92
799.49	3323.85
799.66	3196.88
799.84	3237.84
800.01	3112.91
800.19	3520.46
800.36	2963.41
800.53	3286.99
800.71	3465.16
800.88	3790.79
801.06	3110.86
801.23	3127.25
801.41	3336.14
801.58	3344.33
801.75	3090.38
801.93	3229.65
802.10	3614.66
802.28	3379.15
802.45	3231.69
802.63	3258.32
802.80	3715.02
802.97	3264.46
803.15	3221.45
803.32	3131.34
803.50	3243.98
803.67	3315.66
803.84	3137.49
804.02	3278.80
804.19	3350.48
804.37	2967.51
804.54	3033.04
804.71	3168.21
804.89	3393.48
805.06	3203.02
805.24	3149.78
805.41	3065.81
805.58	3323.85
805.76	3930.05
805.93	3172.30
806.10	3334.09
806.28	3571.66
806.45	3499.98
806.63	3323.85
806.80	3280.85
806.97	3571.66
807.15	3493.83
807.32	3303.37
807.49	3221.45
807.67	3211.22
807.84	3585.99
808.01	3037.14
808.19	3301.33
808.36	3915.72
808.54	3360.72
808.71	3233.74
808.88	3184.59
809.06	3641.29
809.23	3723.21
809.40	3250.13
809.58	3041.23
809.75	3389.39
809.92	3248.08
810.10	3487.69
810.27	3147.73
810.44	3583.95
810.62	3631.05
810.79	3219.41
810.96	3155.92
811.14	3291.09
811.31	3596.23
811.48	3327.95
811.66	3233.74
811.83	3682.25
812.00	3598.28
812.18	3295.18
812.35	3489.74
812.52	3323.85
812.69	3258.32
812.87	3131.34
813.04	3141.58
813.21	3381.20
813.39	3260.37
813.56	3151.82
813.73	3475.40
813.91	3141.58
814.08	3401.68
814.25	3153.87
814.42	2987.99
814.60	3338.19
814.77	3510.22
814.94	3125.20
815.12	3250.13
815.29	3823.56
815.46	3229.65
815.63	3157.97
815.81	3157.97
815.98	3338.19
816.15	3420.11
816.33	3286.99
816.50	3188.69
816.67	3338.19
816.84	3370.96
817.02	3053.52
817.19	3160.02
817.36	3516.36
817.53	3510.22
817.71	3098.58
817.88	3190.74
818.05	3291.09
818.22	3352.52
818.40	3438.54
818.57	3198.93
818.74	3530.70
818.91	3373.00
819.09	3366.86
819.26	3278.80
819.43	3209.17
819.60	3192.78
819.78	3407.82
819.95	3196.88
820.12	3114.96
820.29	3729.35
820.47	3483.59
820.64	3098.58
820.81	3217.36
820.98	3250.13
821.15	3211.22
821.33	3327.95
821.50	3078.10
821.67	3573.71
821.84	3119.06
822.02	3235.79
822.19	3567.56
822.36	3362.76
822.53	3125.20
822.70	3020.75
822.88	3381.20
823.05	3698.63
823.22	3176.40
823.39	3225.55
823.56	3436.49
823.74	3917.76
823.91	3092.43
824.08	3143.63
824.25	3188.69
824.42	3721.16
824.60	2981.84
824.77	3241.93
824.94	3332.05
825.11	3622.86
825.28	3078.10
825.45	3377.10
825.63	3403.72
825.80	3229.65
825.97	3225.55
826.14	3237.84
826.31	3157.97
826.48	3569.61
826.66	3194.83
826.83	3151.82
827.00	3352.52
827.17	3248.08
827.34	3188.69
827.51	3065.81
827.69	3373.00
827.86	3184.59
828.03	3239.89
828.20	3280.85
828.37	3311.57
828.54	3532.75
828.71	3162.06
828.89	3299.28
829.06	3491.79
829.23	3770.31
829.40	3149.78
829.57	3112.91
829.74	3618.76
829.91	3209.17
830.09	3145.68
830.26	3332.05
830.43	3794.89
830.60	3381.20
830.77	3278.80
830.94	3336.14
831.11	3604.42
831.28	3340.24
831.46	3303.37
831.63	3182.54
831.80	3690.44
831.97	3211.22
832.14	3207.12
832.31	3147.73
832.48	3370.96
832.65	3710.92
832.82	3360.72
832.99	3166.16
833.17	3215.31
833.34	3811.27
833.51	3131.34
833.68	3057.62
833.85	3622.86
834.02	3192.78
834.19	3119.06
834.36	3229.65
834.53	3508.17
834.70	3674.06
834.87	3192.78
835.04	2953.17
835.22	3254.22
835.39	3332.05
835.56	3057.62
835.73	3078.10
835.90	3598.28
836.07	3157.97
836.24	3252.17
836.41	2969.55
836.58	3286.99
836.75	3598.28
836.92	3010.51
837.09	2969.55
837.26	3565.51
837.43	3528.65
837.60	3119.06
837.77	3047.38
837.94	3635.14
838.12	3760.07
838.29	2955.22
838.46	2822.10
838.63	3188.69
838.80	3766.21
838.97	3041.23
839.14	3030.99
839.31	3432.40
839.48	3499.98
839.65	2971.60
839.82	3153.87
839.99	3409.87
840.16	3499.98
840.33	2973.65
840.50	3065.81
840.67	3252.17
840.84	2912.21
841.01	2961.36
841.18	3028.95
841.35	3389.39
841.52	3561.42
841.69	3317.71
841.86	3053.52
842.03	3450.83
842.20	3575.75
842.37	3049.43
842.54	3092.43
842.71	3502.03
842.88	3102.67
843.05	3069.91
843.22	3028.95
843.39	3545.03
843.56	3293.13
843.73	3004.37
843.90	3057.62
844.07	3438.54
844.24	3686.34
844.41	3086.29
844.58	3121.10
844.75	3422.16
844.92	3512.27
845.09	3082.19
845.26	3022.80
845.43	3567.56
845.60	3305.42
845.77	3127.25
845.94	3147.73
846.10	3565.51
846.27	3063.76
846.44	2916.31
846.61	2940.88
846.78	3567.56
846.95	3606.47
847.12	2987.99
847.29	3010.51
847.46	3153.87
847.63	3592.14
847.80	2877.40
847.97	3123.15
848.14	3911.62
848.31	3340.24
848.48	2828.24
848.65	3088.34
848.82	3352.52
848.98	4016.07
849.15	3155.92
849.32	3114.96
849.49	3631.05
849.66	3364.81
849.83	2998.23
850.00	2992.08
850.17	3606.47
850.34	3411.92
850.51	2944.98
850.68	2992.08
850.85	4026.31
851.01	3491.79
851.18	2922.45
851.35	3059.67
851.52	3499.98
851.69	3680.20
851.86	2975.70
852.03	2881.49
852.20	3590.09
852.37	3424.20
852.53	2947.03
852.70	3016.66
852.87	3465.16
853.04	3635.14
853.21	2920.40
853.38	3395.53
853.55	3725.26
853.72	3733.45
853.89	2873.30
854.05	2992.08
854.22	3448.78
854.39	3313.61
854.56	3014.61
854.73	3198.93
854.90	3196.88
855.07	3434.44
855.23	2914.26
855.40	2820.05
855.57	3305.42
855.74	2992.08
855.91	3221.45
856.08	2813.91
856.25	3119.06
856.41	3229.65
856.58	3037.14
856.75	3045.33
856.92	3211.22
857.09	3633.10
857.26	2826.20
857.42	3143.63
857.59	3565.51
857.76	3385.29
857.93	3024.85
858.10	3076.05
858.27	3170.26
858.43	3530.70
858.60	3039.19
858.77	2904.02
858.94	3252.17
859.11	3637.19
859.27	3217.36
859.44	2836.44
859.61	3887.04
859.78	3557.32
859.95	3018.71
860.12	2953.17
860.28	3936.20
860.45	3827.65
860.62	2951.12
860.79	3086.29
860.95	3303.37
861.12	3246.03
861.29	2838.48
861.46	2983.89
861.63	3307.47
861.79	3463.12
861.96	2852.82
862.13	3000.27
862.30	3745.73
862.47	3254.22
862.63	2899.92
862.80	3125.20
862.97	3635.14
863.14	3463.12
863.30	3110.86
863.47	2944.98
863.64	3780.55
863.81	3442.64
863.97	2885.59
864.14	3051.47
864.31	3368.91
864.48	3426.25
864.65	2979.79
864.81	3166.16
864.98	3561.42
865.15	3661.77
865.32	3030.99
865.48	3135.44
865.65	3807.17
865.82	3280.85
865.98	3041.23
866.15	3090.38
866.32	3346.38
866.49	3276.75
866.65	3237.84
866.82	3041.23
866.99	3411.92
867.16	3270.61
867.32	2994.13
867.49	2895.83
867.66	3299.28
867.83	3282.89
867.99	2910.16
868.16	3090.38
868.33	3119.06
868.49	3448.78
868.66	2934.74
868.83	3168.21
868.99	3409.87
869.16	3450.83
869.33	3131.34
869.50	3088.34
869.66	3426.25
869.83	3299.28
870.00	2985.94
870.16	3141.58
870.33	3430.35
870.50	3663.82
870.66	3147.73
870.83	3035.09
871.00	3438.54
871.17	3483.59
871.33	3012.56
871.50	2940.88
871.67	3383.24
871.83	3307.47
872.00	3108.82
872.17	2971.60
872.33	3835.85
872.50	3676.10
872.67	2994.13
872.83	2959.31
873.00	3573.71
873.17	3426.25
873.33	3080.14
873.50	3049.43
873.67	3297.23
873.83	3303.37
874.00	3008.47
874.16	3166.16
874.33	3444.68
874.50	3190.74
874.66	2947.03
874.83	3135.44
875.00	3766.21
875.16	3655.62
875.33	3135.44
875.50	2801.62
875.66	3303.37
875.83	3461.07
875.99	3065.81
876.16	3086.29
876.33	3223.50
876.49	3465.16
876.66	3114.96
876.83	3076.05
876.99	3121.10
877.16	3403.72
877.32	2977.75
877.49	3084.24
877.66	3565.51
877.82	3794.89
877.99	3139.54
878.15	3264.46
878.32	3483.59
878.49	3440.59
878.65	3172.30
878.82	3409.87
878.98	3276.75
879.15	3594.19
879.32	3258.32
879.48	3174.35
879.65	3459.02
879.81	3264.46
879.98	3024.85
880.15	3119.06
880.31	3545.03
880.48	3266.51
880.64	3094.48
880.81	3090.38
880.97	3839.94
881.14	3710.92
881.31	2985.94
881.47	3188.69
881.64	3399.63
881.80	3110.86
881.97	3160.02
882.13	3033.04
882.30	3139.54
882.47	3235.79
882.63	3041.23
882.80	2957.27
882.96	3266.51
883.13	3639.24
883.29	3080.14
883.46	2975.70
883.62	3866.56
883.79	3483.59
883.95	3264.46
884.12	2967.51
884.29	3715.02
884.45	3532.75
884.62	3080.14
884.78	2934.74
884.95	3741.64
885.11	3248.08
885.28	3151.82
885.44	3039.19
885.61	3495.88
885.77	3813.32
885.94	3131.34
886.10	3074.00
886.27	3459.02
886.43	3770.31
886.60	3217.36
886.76	3051.47
886.93	3194.83
887.09	3434.44
887.26	2893.78
887.42	3110.86
887.59	3747.78
887.75	3948.48
887.92	3246.03
888.08	3231.69
888.25	3870.66
888.41	3606.47
888.58	3108.82
888.74	3008.47
888.91	3313.61
>>>>>End Processed Spectral Data<<<<<
