SpectraSuite Data File
++++++++++++++++++++++++++++++++++++
Date: Fri May 06 09:28:31 CEST 2016
User: root
Dark Spectrum Present: No
Reference Spectrum Present: No
Number of Sampled Component Spectra: 1
Spectrometers: USB4C02835
Integration Time (usec): 100000 (USB4C02835)
Spectra Averaged: 1 (USB4C02835)
Boxcar Smoothing: 0 (USB4C02835)
Correct for Electrical Dark: No (USB4C02835)
Strobe/Lamp Enabled: No (USB4C02835)
Correct for Detector Non-linearity: No (USB4C02835)
Correct for Stray Light: No (USB4C02835)
Number of Pixels in Processed Spectrum: 3648
>>>>>Begin Processed Spectral Data<<<<<
177.47	2410.46
177.69	2410.46
177.91	2410.46
178.13	2365.40
178.36	2285.53
178.58	3123.15
178.80	3266.51
179.02	3184.59
179.24	3198.93
179.46	2877.40
179.68	2928.60
179.90	3393.48
180.13	3461.07
180.35	2684.89
180.57	2848.72
180.79	3614.66
181.01	3424.20
181.23	2977.75
181.45	3090.38
181.67	3602.38
181.90	3565.51
182.12	3100.62
182.34	2877.40
182.56	3659.72
182.78	3502.03
183.00	2955.22
183.22	2934.74
183.44	3057.62
183.66	4159.42
183.89	3131.34
184.11	3055.57
184.33	3610.57
184.55	3659.72
184.77	2926.55
184.99	2897.88
185.21	3393.48
185.43	4020.16
185.65	2979.79
185.87	2906.07
186.10	3899.33
186.32	3958.72
186.54	3131.34
186.76	3012.56
186.98	3717.06
187.20	3424.20
187.42	3069.91
187.64	2955.22
187.86	3635.14
188.08	3735.50
188.30	2848.72
188.52	2916.31
188.75	3848.13
188.97	3684.30
189.19	2951.12
189.41	2928.60
189.63	3555.27
189.85	3370.96
190.07	2783.19
190.29	2820.05
190.51	3602.38
190.73	3137.49
190.95	3182.54
191.17	3026.90
191.39	3213.26
191.61	3364.81
191.84	2936.79
192.06	3094.48
192.28	3078.10
192.50	4132.80
192.72	3149.78
192.94	3061.71
193.16	3782.60
193.38	3579.85
193.60	2856.92
193.82	3209.17
194.04	3708.87
194.26	3583.95
194.48	3016.66
194.70	2990.03
194.92	3358.67
195.14	3622.86
195.36	2959.31
195.58	3028.95
195.80	3420.11
196.02	3262.41
196.24	2891.73
196.46	3053.52
196.69	3346.38
196.91	3911.62
197.13	3112.91
197.35	3022.80
197.57	3901.38
197.79	3674.06
198.01	3012.56
198.23	3016.66
198.45	3571.66
198.67	3147.73
198.89	2674.65
199.11	3035.09
199.33	3291.09
199.55	2930.64
199.77	2856.92
199.99	3108.82
200.21	3338.19
200.43	3528.65
200.65	2910.16
200.87	2834.39
201.09	3477.45
201.31	3356.62
201.53	3006.42
201.75	3055.57
201.97	3592.14
202.19	3483.59
202.41	2998.23
202.63	3084.24
202.85	3577.80
203.07	3532.75
203.29	3133.39
203.51	2840.53
203.73	3295.18
203.95	4102.08
204.17	2944.98
204.39	3125.20
204.61	3444.68
204.83	3407.82
205.05	3188.69
205.27	2959.31
205.49	3917.76
205.71	3446.73
205.93	2756.57
206.15	2854.87
206.37	3508.17
206.59	3403.72
206.81	2754.52
207.03	2901.97
207.25	3186.64
207.47	3600.33
207.69	2889.68
207.91	3272.65
208.13	3854.28
208.34	3393.48
208.56	2957.27
208.78	3028.95
209.00	3432.40
209.22	3330.00
209.44	2967.51
209.66	2942.93
209.88	3499.98
210.10	3450.83
210.32	2836.44
210.54	3055.57
210.76	3330.00
210.98	3698.63
211.20	2789.33
211.42	3151.82
211.64	3801.03
211.86	3579.85
212.08	3080.14
212.30	2961.36
212.52	3321.81
212.74	3551.18
212.96	3153.87
213.17	3057.62
213.39	3665.86
213.61	3803.08
213.83	2850.77
214.05	2850.77
214.27	3690.44
214.49	3237.84
214.71	2906.07
214.93	3065.81
215.15	3526.60
215.37	3712.97
215.59	2838.48
215.81	3053.52
216.03	3704.78
216.24	3508.17
216.46	2981.84
216.68	2973.65
216.90	3688.39
217.12	3696.58
217.34	2904.02
217.56	3117.01
217.78	3725.26
218.00	3606.47
218.22	2983.89
218.44	3024.85
218.66	3510.22
218.87	3829.70
219.09	2992.08
219.31	2910.16
219.53	3516.36
219.75	3346.38
219.97	2992.08
220.19	3014.61
220.41	3346.38
220.63	3778.50
220.85	2961.36
221.06	2973.65
221.28	3745.73
221.50	3606.47
221.72	2881.49
221.94	2953.17
222.16	3608.52
222.38	3653.58
222.60	2877.40
222.82	3043.28
223.03	3715.02
223.25	3172.30
223.47	2975.70
223.69	3262.41
223.91	3598.28
224.13	3452.88
224.35	2850.77
224.57	3243.98
224.78	3633.10
225.00	3196.88
225.22	3074.00
225.44	2940.88
225.66	3657.67
225.88	3336.14
226.10	3074.00
226.32	2961.36
226.53	3764.17
226.75	3354.57
226.97	3026.90
227.19	3037.14
227.41	3223.50
227.63	3391.44
227.85	2848.72
228.06	3090.38
228.28	3577.80
228.50	3706.82
228.72	2791.38
228.94	2918.36
229.16	3061.71
229.37	3196.88
229.59	2947.03
229.81	3190.74
230.03	3385.29
230.25	3213.26
230.47	2762.71
230.69	2944.98
230.90	3596.23
231.12	3362.76
231.34	3082.19
231.56	3043.28
231.78	3190.74
232.00	3502.03
232.21	3020.75
232.43	3030.99
232.65	3074.00
232.87	3553.23
233.09	2797.53
233.30	2885.59
233.52	3663.82
233.74	3422.16
233.96	2869.20
234.18	3135.44
234.40	3403.72
234.61	3975.11
234.83	2871.25
235.05	2904.02
235.27	3946.44
235.49	3692.49
235.70	2832.34
235.92	2983.89
236.14	3602.38
236.36	4016.07
236.58	2852.82
236.79	2979.79
237.01	3512.27
237.23	3340.24
237.45	3229.65
237.67	3069.91
237.88	3592.14
238.10	3827.65
238.32	2815.96
238.54	2990.03
238.76	3385.29
238.97	3274.70
239.19	2875.35
239.41	3033.04
239.63	3749.83
239.85	3409.87
240.06	2979.79
240.28	2944.98
240.50	3690.44
240.72	3413.96
240.93	2924.50
241.15	3127.25
241.37	3373.00
241.59	3753.93
241.81	3008.47
242.02	3184.59
242.24	3485.64
242.46	3661.77
242.68	2764.76
242.89	2852.82
243.11	3669.96
243.33	3446.73
243.55	2987.99
243.76	2936.79
243.98	3307.47
244.20	3391.44
244.42	2947.03
244.64	2938.84
244.85	3186.64
245.07	3258.32
245.29	2990.03
245.51	2973.65
245.72	3499.98
245.94	3643.34
246.16	2942.93
246.38	3000.27
246.59	3278.80
246.81	3248.08
247.03	2879.44
247.24	2781.14
247.46	3319.76
247.68	3483.59
247.90	2869.20
248.11	2967.51
248.33	3676.10
248.55	3403.72
248.77	3024.85
248.98	3151.82
249.20	3803.08
249.42	3456.97
249.64	2889.68
249.85	2822.10
250.07	3327.95
250.29	3585.99
250.50	3035.09
250.72	2885.59
250.94	3573.71
251.16	3917.76
251.37	2920.40
251.59	2983.89
251.81	3641.29
252.02	3794.89
252.24	2871.25
252.46	3090.38
252.68	3305.42
252.89	3313.61
253.11	2844.63
253.33	3049.43
253.54	3723.21
253.76	3215.31
253.98	2922.45
254.20	2949.08
254.41	3160.02
254.63	3409.87
254.85	2799.57
255.06	3166.16
255.28	3518.41
255.50	3401.68
255.71	2949.08
255.93	2869.20
256.15	3469.26
256.36	3508.17
256.58	2801.62
256.80	2885.59
257.02	3461.07
257.23	3409.87
257.45	2977.75
257.67	3053.52
257.88	3246.03
258.10	3516.36
258.32	2963.41
258.53	3067.86
258.75	3813.32
258.97	3258.32
259.18	2856.92
259.40	2924.50
259.62	3811.27
259.83	3803.08
260.05	2985.94
260.27	3934.15
260.48	3577.80
260.70	3188.69
260.92	2867.16
261.13	3022.80
261.35	3563.47
261.57	3561.42
261.78	2828.24
262.00	2879.44
262.22	3592.14
262.43	3262.41
262.65	2906.07
262.86	3020.75
263.08	4030.40
263.30	3463.12
263.51	2815.96
263.73	2969.55
263.95	3764.17
264.16	3250.13
264.38	2803.67
264.60	2865.11
264.81	3426.25
265.03	3712.97
265.25	3395.53
265.46	2883.54
265.68	3741.64
265.89	3631.05
266.11	2852.82
266.33	2930.64
266.54	3717.06
266.76	3549.13
266.98	3114.96
267.19	3209.17
267.41	3717.06
267.62	3385.29
267.84	2801.62
268.06	3047.38
268.27	3524.55
268.49	3637.19
268.70	2969.55
268.92	2998.23
269.14	3258.32
269.35	3094.48
269.57	3131.34
269.79	2949.08
270.00	3393.48
270.22	3815.37
270.43	2854.87
270.65	2838.48
270.87	3444.68
271.08	3626.95
271.30	3117.01
271.51	3016.66
271.73	3551.18
271.95	3739.59
272.16	2875.35
272.38	3149.78
272.59	3321.81
272.81	3559.37
273.02	2871.25
273.24	3090.38
273.46	3696.58
273.67	3157.97
273.89	2852.82
274.10	2918.36
274.32	3708.87
274.54	3475.40
274.75	3049.43
274.97	3088.34
275.18	3561.42
275.40	3477.45
275.61	3012.56
275.83	3053.52
276.05	3280.85
276.26	3385.29
276.48	3024.85
276.69	3196.88
276.91	3311.57
277.12	3766.21
277.34	3188.69
277.55	3286.99
277.77	3504.07
277.99	3389.39
278.20	3153.87
278.42	3039.19
278.63	3284.94
278.85	3213.26
279.06	3117.01
279.28	3139.54
279.49	3676.10
279.71	3680.20
279.93	3250.13
280.14	3149.78
280.36	3280.85
280.57	3639.24
280.79	3198.93
281.00	2951.12
281.22	3319.76
281.43	3698.63
281.65	3000.27
281.86	3010.51
282.08	3493.83
282.29	3901.38
282.51	2965.46
282.73	3090.38
282.94	3076.05
283.16	3604.42
283.37	3155.92
283.59	3119.06
283.80	3506.12
284.02	3381.20
284.23	3192.78
284.45	3098.58
284.66	3286.99
284.88	3336.14
285.09	3018.71
285.31	3188.69
285.52	3520.46
285.74	3151.82
285.95	3286.99
286.17	3207.12
286.38	3661.77
286.60	3246.03
286.81	3041.23
287.03	3096.53
287.24	3405.77
287.46	3528.65
287.67	3213.26
287.89	3276.75
288.10	3348.43
288.32	3418.06
288.53	3164.11
288.75	3157.97
288.96	3583.95
289.18	3338.19
289.39	2977.75
289.61	3153.87
289.82	3915.72
290.04	3868.61
290.25	2975.70
290.47	3100.62
290.68	3389.39
290.90	3633.10
291.11	2897.88
291.33	3291.09
291.54	3268.56
291.76	3215.31
291.97	3321.81
292.18	3098.58
292.40	3323.85
292.61	3254.22
292.83	3385.29
293.04	3125.20
293.26	3436.49
293.47	3344.33
293.69	3059.67
293.90	3014.61
294.12	3688.39
294.33	3338.19
294.55	3114.96
294.76	3286.99
294.97	3780.55
295.19	3919.81
295.40	3125.20
295.62	3248.08
295.83	3659.72
296.05	3192.78
296.26	3323.85
296.48	3100.62
296.69	3428.30
296.90	3493.83
297.12	3264.46
297.33	3223.50
297.55	3489.74
297.76	3555.27
297.98	3178.45
298.19	3309.52
298.41	3340.24
298.62	3311.57
298.83	3291.09
299.05	3190.74
299.26	3334.09
299.48	3264.46
299.69	3205.07
299.90	3090.38
300.12	3209.17
300.33	3672.01
300.55	3190.74
300.76	3205.07
300.98	3221.45
301.19	3456.97
301.40	3090.38
301.62	3082.19
301.83	3596.23
302.05	3413.96
302.26	3108.82
302.47	3243.98
302.69	3178.45
302.90	3524.55
303.12	2975.70
303.33	3262.41
303.54	3846.09
303.76	3362.76
303.97	3055.57
304.19	3284.94
304.40	3203.02
304.61	3516.36
304.83	3155.92
305.04	3153.87
305.26	3557.32
305.47	3348.43
305.68	3096.53
305.90	3006.42
306.11	3665.86
306.33	3385.29
306.54	2936.79
306.75	3059.67
306.97	3039.19
307.18	3325.90
307.39	3043.28
307.61	3119.06
307.82	3438.54
308.04	3540.94
308.25	2885.59
308.46	3311.57
308.68	3495.88
308.89	3479.50
309.10	3252.17
309.32	3188.69
309.53	3405.77
309.74	3469.26
309.96	3008.47
310.17	3219.41
310.39	3366.86
310.60	3651.53
310.81	3133.39
311.03	3100.62
311.24	3590.09
311.45	3426.25
311.67	3370.96
311.88	3246.03
312.09	3368.91
312.31	3286.99
312.52	3022.80
312.73	3076.05
312.95	3190.74
313.16	3225.55
313.37	3270.61
313.59	3303.37
313.80	3600.33
314.01	3811.27
314.23	3164.11
314.44	3067.86
314.65	3160.02
314.87	3295.18
315.08	3141.58
315.29	3151.82
315.51	3270.61
315.72	3184.59
315.93	3106.77
316.15	3063.76
316.36	3327.95
316.57	3461.07
316.79	3055.57
317.00	3008.47
317.21	3551.18
317.43	3252.17
317.64	3108.82
317.85	3098.58
318.07	3270.61
318.28	3368.91
318.49	3166.16
318.70	3342.28
318.92	3553.23
319.13	3508.17
319.34	3252.17
319.56	3024.85
319.77	3583.95
319.98	3590.09
320.20	3413.96
320.41	3340.24
320.62	3561.42
320.83	3164.11
321.05	3307.47
321.26	3139.54
321.47	3510.22
321.69	3682.25
321.90	2967.51
322.11	3069.91
322.32	3524.55
322.54	3749.83
322.75	3119.06
322.96	4216.77
323.18	3059.67
323.39	2983.89
323.60	3004.37
323.81	3223.50
324.03	3282.89
324.24	3516.36
324.45	3200.98
324.66	3000.27
324.88	3653.58
325.09	3917.76
325.30	3123.15
325.52	3078.10
325.73	3504.07
325.94	3262.41
326.15	2992.08
326.37	2985.94
326.58	3631.05
326.79	3811.27
327.00	3004.37
327.22	3041.23
327.43	3377.10
327.64	3196.88
327.85	3241.93
328.07	3147.73
328.28	3852.23
328.49	3311.57
328.70	3106.77
328.92	3108.82
329.13	3434.44
329.34	3573.71
329.55	3352.52
329.76	3164.11
329.98	3368.91
330.19	3676.10
330.40	3213.26
330.61	3198.93
330.83	3626.95
331.04	3213.26
331.25	3207.12
331.46	3166.16
331.68	3192.78
331.89	3766.21
332.10	3086.29
332.31	2897.88
332.52	3430.35
332.74	3688.39
332.95	2969.55
333.16	3106.77
333.37	3674.06
333.58	3370.96
333.80	3094.48
334.01	2938.84
334.22	3391.44
334.43	3340.24
334.64	2983.89
334.86	3051.47
335.07	3262.41
335.28	3819.46
335.49	2998.23
335.70	3182.54
335.92	3655.62
336.13	3950.53
336.34	3094.48
336.55	3059.67
336.76	3577.80
336.98	2992.08
337.19	3119.06
337.40	3149.78
337.61	4007.87
337.82	3405.77
338.04	3205.07
338.25	3035.09
338.46	3442.64
338.67	3446.73
338.88	3000.27
339.09	2951.12
339.31	3278.80
339.52	3192.78
339.73	2992.08
339.94	3088.34
340.15	3563.47
340.36	3291.09
340.58	3205.07
340.79	3065.81
341.00	3614.66
341.21	3178.45
341.42	3344.33
341.63	3045.33
341.85	3669.96
342.06	3518.41
342.27	3037.14
342.48	3256.27
342.69	3168.21
342.90	3631.05
343.12	3493.83
343.33	3047.38
343.54	3637.19
343.75	3725.26
343.96	3334.09
344.17	2953.17
344.38	3424.20
344.60	3282.89
344.81	3065.81
345.02	3141.58
345.23	3680.20
345.44	4046.79
345.65	3186.64
345.86	3149.78
346.07	3477.45
346.29	3321.81
346.50	3209.17
346.71	3135.44
346.92	3749.83
347.13	3940.29
347.34	3243.98
347.55	2961.36
347.76	3481.55
347.98	3117.01
348.19	3149.78
348.40	3258.32
348.61	3344.33
348.82	3747.78
349.03	3205.07
349.24	3012.56
349.45	3854.28
349.66	2977.75
349.88	3076.05
350.09	2971.60
350.30	3749.83
350.51	3688.39
350.72	3286.99
350.93	3049.43
351.14	3323.85
351.35	3520.46
351.56	3082.19
351.77	3205.07
351.99	3575.75
352.20	3770.31
352.41	3241.93
352.62	2924.50
352.83	3358.67
353.04	3393.48
353.25	3131.34
353.46	3149.78
353.67	3715.02
353.88	3082.19
354.09	2934.74
354.30	3190.74
354.52	3524.55
354.73	3393.48
354.94	3057.62
355.15	3129.30
355.36	3874.76
355.57	3346.38
355.78	2979.79
355.99	3065.81
356.20	3317.71
356.41	3704.78
356.62	3205.07
356.83	3139.54
357.04	3733.45
357.25	3112.91
357.46	3061.71
357.68	2967.51
357.89	3241.93
358.10	3436.49
358.31	3088.34
358.52	3110.86
358.73	3239.89
358.94	3293.13
359.15	3067.86
359.36	3145.68
359.57	3516.36
359.78	3354.57
359.99	3356.62
360.20	2953.17
360.41	3409.87
360.62	3557.32
360.83	3162.06
361.04	3112.91
361.25	3555.27
361.46	3772.36
361.67	3172.30
361.88	3092.43
362.09	3604.42
362.30	3528.65
362.51	2961.36
362.72	3192.78
362.93	3594.19
363.14	3553.23
363.35	3213.26
363.56	3012.56
363.78	3708.87
363.99	3622.86
364.20	3051.47
364.41	3104.72
364.62	3768.26
364.83	3567.56
365.04	3151.82
365.25	3145.68
365.46	3944.39
365.67	3233.74
365.88	3338.19
366.09	3114.96
366.30	3284.94
366.51	3416.01
366.72	2967.51
366.93	3127.25
367.14	3459.02
367.35	3731.40
367.56	3012.56
367.77	3203.02
367.98	3475.40
368.18	3614.66
368.39	3241.93
368.60	3092.43
368.81	3733.45
369.02	3459.02
369.23	3119.06
369.44	2953.17
369.65	3327.95
369.86	3573.71
370.07	3311.57
370.28	3020.75
370.49	3481.55
370.70	3502.03
370.91	3035.09
371.12	2987.99
371.33	3661.77
371.54	3241.93
371.75	3225.55
371.96	2842.58
372.17	3528.65
372.38	3487.69
372.59	3119.06
372.80	3092.43
373.01	3461.07
373.22	3448.78
373.43	3049.43
373.64	2992.08
373.85	3815.37
374.06	3848.13
374.26	3221.45
374.47	3213.26
374.68	3704.78
374.89	3407.82
375.10	3057.62
375.31	3123.15
375.52	3454.92
375.73	3516.36
375.94	2951.12
376.15	3207.12
376.36	3299.28
376.57	3307.47
376.78	3196.88
376.99	3106.77
377.20	3741.64
377.40	3442.64
377.61	3409.87
377.82	3143.63
378.03	3712.97
378.24	3649.48
378.45	3205.07
378.66	3186.64
378.87	3086.29
379.08	3162.06
379.29	3067.86
379.50	3248.08
379.71	3395.53
379.91	3608.52
380.12	3030.99
380.33	3188.69
380.54	3438.54
380.75	3495.88
380.96	3155.92
381.17	3157.97
381.38	3504.07
381.59	3407.82
381.80	3149.78
382.00	3317.71
382.21	3469.26
382.42	3891.14
382.63	3428.30
382.84	3239.89
383.05	3581.90
383.26	3753.93
383.47	3270.61
383.68	3129.30
383.88	3622.86
384.09	3489.74
384.30	3385.29
384.51	3266.51
384.72	3346.38
384.93	3135.44
385.14	3221.45
385.35	3469.26
385.55	3188.69
385.76	3780.55
385.97	3080.14
386.18	3041.23
386.39	3284.94
386.60	3368.91
386.81	3067.86
387.02	3008.47
387.22	3149.78
387.43	3635.14
387.64	3196.88
387.85	3303.37
388.06	3420.11
388.27	4308.93
388.48	7258.00
388.68	10790.75
388.89	13610.80
389.10	14776.09
389.31	14249.77
389.52	11673.42
389.73	10295.14
389.93	9561.97
390.14	8474.49
390.35	7882.63
390.56	7356.30
390.77	6320.03
390.98	4722.62
391.18	4063.17
391.39	3975.11
391.60	3512.27
391.81	3237.84
392.02	3182.54
392.23	3987.40
392.43	3608.52
392.64	3215.31
392.85	3293.13
393.06	3776.45
393.27	3446.73
393.47	3026.90
393.68	3200.98
393.89	3358.67
394.10	3723.21
394.31	3135.44
394.52	3024.85
394.72	3334.09
394.93	3805.13
395.14	2947.03
395.35	3235.79
395.56	3368.91
395.76	3405.77
395.97	3108.82
396.18	3227.60
396.39	3383.24
396.60	4128.70
396.80	3510.22
397.01	3436.49
397.22	3581.90
397.43	3665.86
397.64	3147.73
397.84	3194.83
398.05	3909.57
398.26	3459.02
398.47	3254.22
398.67	3411.92
398.88	3446.73
399.09	3590.09
399.30	3119.06
399.51	3196.88
399.71	3266.51
399.92	3426.25
400.13	3174.35
400.34	3082.19
400.54	3540.94
400.75	3794.89
400.96	3192.78
401.17	3405.77
401.37	3495.88
401.58	3456.97
401.79	3160.02
402.00	3188.69
402.21	3966.92
402.41	3518.41
402.62	3340.24
402.83	3540.94
403.04	3735.50
403.24	4102.08
403.45	3284.94
403.66	3424.20
403.87	3762.12
404.07	3704.78
404.28	3389.39
404.49	3450.83
404.70	3538.89
404.90	3579.85
405.11	3082.19
405.32	3192.78
405.52	3262.41
405.73	3223.50
405.94	3096.53
406.15	3174.35
406.35	3647.43
406.56	3624.90
406.77	3180.50
406.98	3074.00
407.18	3336.14
407.39	3727.30
407.60	3170.26
407.80	3246.03
408.01	3311.57
408.22	3557.32
408.43	3000.27
408.63	3280.85
408.84	3712.97
409.05	3614.66
409.25	3035.09
409.46	3221.45
409.67	3297.23
409.88	3260.37
410.08	3209.17
410.29	3102.67
410.50	3684.30
410.70	3590.09
410.91	3102.67
411.12	3231.69
411.32	3532.75
411.53	3262.41
411.74	3180.50
411.95	3239.89
412.15	3534.79
412.36	3504.07
412.57	3336.14
412.77	3319.76
412.98	3452.88
413.19	3395.53
413.39	3258.32
413.60	3149.78
413.81	3792.84
414.01	3180.50
414.22	3160.02
414.43	3295.18
414.63	3340.24
414.84	3614.66
415.05	3155.92
415.25	2963.41
415.46	3594.19
415.67	3352.52
415.87	3164.11
416.08	3149.78
416.29	3477.45
416.49	3588.04
416.70	3252.17
416.91	3160.02
417.11	3483.59
417.32	3655.62
417.53	3180.50
417.73	3266.51
417.94	3440.59
418.15	3360.72
418.35	3188.69
418.56	3198.93
418.77	4038.59
418.97	3395.53
419.18	3297.23
419.38	2889.68
419.59	3518.41
419.80	3737.54
420.00	3092.43
420.21	3188.69
420.42	3723.21
420.62	3542.99
420.83	3209.17
421.04	3141.58
421.24	3418.06
421.45	3639.24
421.65	3174.35
421.86	3162.06
422.07	3563.47
422.27	3598.28
422.48	3012.56
422.69	2940.88
422.89	3348.43
423.10	3342.28
423.30	3137.49
423.51	3147.73
423.72	3510.22
423.92	3610.57
424.13	2996.18
424.33	3264.46
424.54	3723.21
424.75	3495.88
424.95	3377.10
425.16	3117.01
425.36	3317.71
425.57	3659.72
425.78	3330.00
425.98	3321.81
426.19	3416.01
426.39	3223.50
426.60	3237.84
426.81	3176.40
427.01	3604.42
427.22	3176.40
427.42	2910.16
427.63	3125.20
427.83	3631.05
428.04	3852.23
428.25	3213.26
428.45	3182.54
428.66	3690.44
428.86	3448.78
429.07	3172.30
429.28	3106.77
429.48	3454.92
429.69	3272.65
429.89	3213.26
430.10	3012.56
430.30	3614.66
430.51	3706.82
430.71	3045.33
430.92	3237.84
431.13	3270.61
431.33	3608.52
431.54	3196.88
431.74	3387.34
431.95	3952.58
432.15	3198.93
432.36	3125.20
432.56	3141.58
432.77	3821.51
432.98	3827.65
433.18	3297.23
433.39	3043.28
433.59	3336.14
433.80	3854.28
434.00	3309.52
434.21	3149.78
434.41	3205.07
434.62	3946.44
434.82	2981.84
435.03	3155.92
435.23	3518.41
435.44	3057.62
435.64	3082.19
435.85	3223.50
436.06	3690.44
436.26	3688.39
436.47	3153.87
436.67	3078.10
436.88	3368.91
437.08	3739.59
437.29	3241.93
437.49	3305.42
437.70	3674.06
437.90	3383.24
438.11	3383.24
438.31	3219.41
438.52	3729.35
438.72	3553.23
438.93	3512.27
439.13	3168.21
439.34	3604.42
439.54	3305.42
439.75	3311.57
439.95	3293.13
440.16	3239.89
440.36	3463.12
440.57	3155.92
440.77	3205.07
440.98	3377.10
441.18	3502.03
441.39	3020.75
441.59	3045.33
441.80	3911.62
442.00	3381.20
442.21	3188.69
442.41	2983.89
442.62	3618.76
442.82	3340.24
443.02	3157.97
443.23	3248.08
443.43	3389.39
443.64	3731.40
443.84	3022.80
444.05	3280.85
444.25	3452.88
444.46	3420.11
444.66	3084.24
444.87	3352.52
445.07	3141.58
445.28	3411.92
445.48	3342.28
445.69	3198.93
445.89	4018.11
446.09	3389.39
446.30	3502.03
446.50	3553.23
446.71	4988.85
446.91	6125.47
447.12	6934.42
447.32	7331.73
447.53	7329.68
447.73	6309.79
447.93	5345.20
448.14	5216.18
448.34	5484.46
448.55	4446.14
448.75	4487.10
448.96	4126.66
449.16	4100.03
449.36	4040.64
449.57	3389.39
449.77	3188.69
449.98	3313.61
450.18	3616.71
450.39	3112.91
450.59	3442.64
450.79	3381.20
451.00	3340.24
451.20	3405.77
451.41	3133.39
451.61	3592.14
451.81	3303.37
452.02	3123.15
452.22	3182.54
452.43	3280.85
452.63	3340.24
452.84	3176.40
453.04	3106.77
453.24	3524.55
453.45	3229.65
453.65	3231.69
453.86	3133.39
454.06	3446.73
454.26	3418.06
454.47	3147.73
454.67	3438.54
454.87	3502.03
455.08	3348.43
455.28	3319.76
455.49	3305.42
455.69	3248.08
455.89	3930.05
456.10	3276.75
456.30	3057.62
456.51	3614.66
456.71	3528.65
456.91	3297.23
457.12	3117.01
457.32	3585.99
457.52	3198.93
457.73	3368.91
457.93	3332.05
458.14	3336.14
458.34	3043.28
458.54	3131.34
458.75	3119.06
458.95	3631.05
459.15	3467.21
459.36	3254.22
459.56	3166.16
459.76	3930.05
459.97	3479.50
460.17	3172.30
460.37	3215.31
460.58	3448.78
460.78	3557.32
460.99	3155.92
461.19	3100.62
461.39	3342.28
461.60	3379.15
461.80	3160.02
462.00	3041.23
462.21	3477.45
462.41	3160.02
462.61	3016.66
462.82	2942.93
463.02	3516.36
463.22	3469.26
463.43	3200.98
463.63	3043.28
463.83	3708.87
464.04	3471.31
464.24	3192.78
464.44	3155.92
464.64	3540.94
464.85	3669.96
465.05	3254.22
465.25	3049.43
465.46	3248.08
465.66	3641.29
465.86	3188.69
466.07	3119.06
466.27	3409.87
466.47	3098.58
466.68	2959.31
466.88	3356.62
467.08	3549.13
467.29	3698.63
467.49	3241.93
467.69	3321.81
467.89	3565.51
468.10	3389.39
468.30	3293.13
468.50	3295.18
468.71	3649.48
468.91	3172.30
469.11	3354.57
469.31	3272.65
469.52	3243.98
469.72	3952.58
469.92	3456.97
470.13	3254.22
470.33	3397.58
470.53	3592.14
470.73	3536.84
470.94	3880.90
471.14	4081.60
471.34	4579.26
471.54	4128.70
471.75	3991.49
471.95	3778.50
472.15	3715.02
472.36	3721.16
472.56	3487.69
472.76	4001.73
472.96	3731.40
473.17	3436.49
473.37	3291.09
473.57	3409.87
473.77	3573.71
473.98	3358.67
474.18	3100.62
474.38	4095.94
474.58	3348.43
474.79	3100.62
474.99	3289.04
475.19	3667.91
475.39	3284.94
475.60	3250.13
475.80	3166.16
476.00	3418.06
476.20	3379.15
476.41	3268.56
476.61	3262.41
476.81	3692.49
477.01	3260.37
477.21	3542.99
477.42	3209.17
477.62	3221.45
477.82	3719.11
478.02	3182.54
478.23	3172.30
478.43	3264.46
478.63	3409.87
478.83	3254.22
479.03	3260.37
479.24	3725.26
479.44	3864.52
479.64	3123.15
479.84	3057.62
480.04	3282.89
480.25	3696.58
480.45	3090.38
480.65	3094.48
480.85	3747.78
481.06	3405.77
481.26	3258.32
481.46	3125.20
481.66	3506.12
481.86	3307.47
482.06	3401.68
482.27	3282.89
482.47	3375.05
482.67	3475.40
482.87	3184.59
483.07	3295.18
483.28	3368.91
483.48	3221.45
483.68	3207.12
483.88	3108.82
484.08	2977.75
484.29	3172.30
484.49	3295.18
484.69	3010.51
484.89	3774.41
485.09	3725.26
485.29	3188.69
485.50	3270.61
485.70	3377.10
485.90	3712.97
486.10	3313.61
486.30	3186.64
486.50	3719.11
486.71	3477.45
486.91	3160.02
487.11	3221.45
487.31	3182.54
487.51	3518.41
487.71	3186.64
487.91	3141.58
488.12	3278.80
488.32	2926.55
488.52	3139.54
488.72	2871.25
488.92	3463.12
489.12	3758.02
489.32	3293.13
489.53	3117.01
489.73	3141.58
489.93	3786.69
490.13	3164.11
490.33	3078.10
490.53	3373.00
490.73	3710.92
490.94	2971.60
491.14	3241.93
491.34	3559.37
491.54	3536.84
491.74	3977.16
491.94	4474.81
492.14	5058.48
492.34	5154.74
492.54	4695.99
492.75	4181.95
492.95	4437.95
493.15	4089.79
493.35	3794.89
493.55	3751.88
493.75	3897.28
493.95	4048.83
494.15	3383.24
494.35	3207.12
494.56	3368.91
494.76	3274.70
494.96	3338.19
495.16	3030.99
495.36	3590.09
495.56	3459.02
495.76	3295.18
495.96	3225.55
496.16	3194.83
496.36	3919.81
496.56	3028.95
496.77	3266.51
496.97	3491.79
497.17	3680.20
497.37	3039.19
497.57	3254.22
497.77	3553.23
497.97	3129.30
498.17	3223.50
498.37	3129.30
498.57	3563.47
498.77	3379.15
498.97	3356.62
499.17	3542.99
499.38	3360.72
499.58	3622.86
499.78	3358.67
499.98	3303.37
500.18	3299.28
500.38	3219.41
500.58	3420.11
500.78	3708.87
500.98	6182.82
501.18	7847.82
501.38	8974.20
501.58	10080.10
501.78	9844.59
501.98	8343.42
502.18	7018.39
502.38	6195.11
502.58	6262.69
502.78	5449.64
502.98	5113.78
503.18	5099.44
503.38	4917.17
503.59	4216.77
503.79	4016.07
503.99	3672.01
504.19	3934.15
504.39	3911.62
504.59	3641.29
504.79	3518.41
504.99	3999.68
505.19	3657.67
505.39	3352.52
505.59	3483.59
505.79	3837.89
505.99	3649.48
506.19	3217.36
506.39	3471.31
506.59	3295.18
506.79	3344.33
506.99	3424.20
507.19	3098.58
507.39	3491.79
507.59	3192.78
507.79	3209.17
507.99	3151.82
508.19	3389.39
508.39	3348.43
508.59	3131.34
508.79	3272.65
508.99	3903.43
509.19	3321.81
509.39	3268.56
509.59	3053.52
509.79	3229.65
509.99	3508.17
510.19	3360.72
510.39	3293.13
510.59	3428.30
510.79	3422.16
510.99	2996.18
511.19	3084.24
511.39	3764.17
511.59	3704.78
511.79	3286.99
511.99	3135.44
512.19	3815.37
512.38	3508.17
512.58	3082.19
512.78	3055.57
512.98	3751.88
513.18	3790.79
513.38	3065.81
513.58	3231.69
513.78	3373.00
513.98	3420.11
514.18	3256.27
514.38	3164.11
514.58	3469.26
514.78	3311.57
514.98	3065.81
515.18	3229.65
515.38	3229.65
515.58	3803.08
515.78	3108.82
515.98	3207.12
516.18	3583.95
516.38	3420.11
516.57	3164.11
516.77	3231.69
516.97	3639.24
517.17	3289.04
517.37	2934.74
517.57	3262.41
517.77	3401.68
517.97	3350.48
518.17	3266.51
518.37	2953.17
518.57	3278.80
518.77	3391.44
518.97	3209.17
519.16	3160.02
519.36	3745.73
519.56	3295.18
519.76	3059.67
519.96	3188.69
520.16	3749.83
520.36	3155.92
520.56	3289.04
520.76	3125.20
520.96	3436.49
521.16	3655.62
521.35	3426.25
521.55	3303.37
521.75	3459.02
521.95	3264.46
522.15	3129.30
522.35	2959.31
522.55	3299.28
522.75	3657.67
522.95	3047.38
523.14	3014.61
523.34	3409.87
523.54	3385.29
523.74	3291.09
523.94	3252.17
524.14	3108.82
524.34	3536.84
524.54	3348.43
524.73	3233.74
524.93	3624.90
525.13	3430.35
525.33	3076.05
525.53	3370.96
525.73	3680.20
525.93	3428.30
526.13	3270.61
526.32	3106.77
526.52	3743.69
526.72	3598.28
526.92	3209.17
527.12	3035.09
527.32	3172.30
527.52	3413.96
527.71	3250.13
527.91	3182.54
528.11	3356.62
528.31	3434.44
528.51	3160.02
528.71	3280.85
528.90	3645.38
529.10	3700.68
529.30	3125.20
529.50	2990.03
529.70	3475.40
529.90	3319.76
530.09	3114.96
530.29	3016.66
530.49	3237.84
530.69	4061.12
530.89	3309.52
531.09	3250.13
531.28	3358.67
531.48	3667.91
531.68	3147.73
531.88	3170.26
532.08	3631.05
532.28	3370.96
532.47	3264.46
532.67	3291.09
532.87	3573.71
533.07	3233.74
533.27	3178.45
533.46	3280.85
533.66	3573.71
533.86	3422.16
534.06	3274.70
534.26	3149.78
534.45	3420.11
534.65	3614.66
534.85	3299.28
535.05	3129.30
535.25	3629.00
535.44	3094.48
535.64	3270.61
535.84	3198.93
536.04	3307.47
536.24	3323.85
536.43	3123.15
536.63	3086.29
536.83	3350.48
537.03	3368.91
537.22	2959.31
537.42	2940.88
537.62	3506.12
537.82	3186.64
538.02	3348.43
538.21	3174.35
538.41	4108.23
538.61	3516.36
538.81	3221.45
539.00	3264.46
539.20	3190.74
539.40	3338.19
539.60	3082.19
539.79	3418.06
539.99	3418.06
540.19	3278.80
540.39	3100.62
540.58	3235.79
540.78	3608.52
540.98	3452.88
541.18	3393.48
541.37	3170.26
541.57	3536.84
541.77	3561.42
541.97	3076.05
542.16	2975.70
542.36	3330.00
542.56	3602.38
542.76	3325.90
542.95	3334.09
543.15	3633.10
543.35	3555.27
543.54	3129.30
543.74	3125.20
543.94	3723.21
544.14	3334.09
544.33	3284.94
544.53	3223.50
544.73	3381.20
544.93	3311.57
545.12	3168.21
545.32	3149.78
545.52	3352.52
545.71	3170.26
545.91	3225.55
546.11	3076.05
546.30	3213.26
546.50	3362.76
546.70	3256.27
546.90	3155.92
547.09	3026.90
547.29	3491.79
547.49	3323.85
547.68	3198.93
547.88	3248.08
548.08	3581.90
548.27	3502.03
548.47	3164.11
548.67	3313.61
548.87	3461.07
549.06	3123.15
549.26	3053.52
549.46	3524.55
549.65	3299.28
549.85	3211.22
550.05	3147.73
550.24	3215.31
550.44	3424.20
550.64	3246.03
550.83	3243.98
551.03	3784.65
551.23	3717.06
551.42	3223.50
551.62	3237.84
551.82	3395.53
552.01	3307.47
552.21	3532.75
552.41	3231.69
552.60	3751.88
552.80	3465.16
553.00	3143.63
553.19	3133.39
553.39	3876.80
553.59	3239.89
553.78	3291.09
553.98	3102.67
554.17	3192.78
554.37	3493.83
554.57	3223.50
554.76	3004.37
554.96	3360.72
555.16	3424.20
555.35	3295.18
555.55	3422.16
555.75	3479.50
555.94	3655.62
556.14	3049.43
556.33	3235.79
556.53	3391.44
556.73	3387.34
556.92	3135.44
557.12	3082.19
557.32	3848.13
557.51	3762.12
557.71	3133.39
557.90	3325.90
558.10	3729.35
558.30	3352.52
558.49	3344.33
558.69	3192.78
558.88	3567.56
559.08	3491.79
559.28	3237.84
559.47	3178.45
559.67	3647.43
559.86	3862.47
560.06	3147.73
560.26	3264.46
560.45	3565.51
560.65	3313.61
560.84	3493.83
561.04	3061.71
561.24	3528.65
561.43	3196.88
561.63	3428.30
561.82	3225.55
562.02	3590.09
562.22	3213.26
562.41	3004.37
562.61	3127.25
562.80	3289.04
563.00	3925.96
563.19	3270.61
563.39	3250.13
563.59	3506.12
563.78	3151.82
563.98	2990.03
564.17	3162.06
564.37	3096.53
564.56	3346.38
564.76	3045.33
564.96	3299.28
565.15	3493.83
565.35	3977.16
565.54	3219.41
565.74	3178.45
565.93	3581.90
566.13	3350.48
566.32	3205.07
566.52	3268.56
566.71	3385.29
566.91	3594.19
567.11	3340.24
567.30	3133.39
567.50	3499.98
567.69	3483.59
567.89	3102.67
568.08	3131.34
568.28	3461.07
568.47	3186.64
568.67	3194.83
568.86	3143.63
569.06	3633.10
569.25	3418.06
569.45	3043.28
569.64	3233.74
569.84	3325.90
570.04	3479.50
570.23	3147.73
570.43	3209.17
570.62	3514.31
570.82	3819.46
571.01	3076.05
571.21	3190.74
571.40	3211.22
571.60	3524.55
571.79	3203.02
571.99	3149.78
572.18	3258.32
572.38	3512.27
572.57	3241.93
572.77	3272.65
572.96	3985.35
573.16	3520.46
573.35	3286.99
573.55	3364.81
573.74	3557.32
573.94	3295.18
574.13	3139.54
574.33	3233.74
574.52	3665.86
574.71	3434.44
574.91	3282.89
575.10	2992.08
575.30	3262.41
575.49	3266.51
575.69	3082.19
575.88	3112.91
576.08	3438.54
576.27	3672.01
576.47	3067.86
576.66	3303.37
576.86	3827.65
577.05	3467.21
577.25	3213.26
577.44	3354.57
577.64	3354.57
577.83	3674.06
578.02	3114.96
578.22	3344.33
578.41	3780.55
578.61	3475.40
578.80	3106.77
579.00	3131.34
579.19	3463.12
579.39	3534.79
579.58	3280.85
579.77	3256.27
579.97	3725.26
580.16	3676.10
580.36	3362.76
580.55	3194.83
580.75	3573.71
580.94	3469.26
581.13	3364.81
581.33	3403.72
581.52	3291.09
581.72	3786.69
581.91	3264.46
582.11	3207.12
582.30	3631.05
582.49	3508.17
582.69	3442.64
582.88	3182.54
583.08	3542.99
583.27	3645.38
583.47	3317.71
583.66	3133.39
583.85	3227.60
584.05	3438.54
584.24	3246.03
584.44	3188.69
584.63	3577.80
584.82	3614.66
585.02	3432.40
585.21	3377.10
585.41	3575.75
585.60	3495.88
585.79	3495.88
585.99	3485.64
586.18	3416.01
586.37	4483.00
586.57	6604.70
586.76	18638.56
586.96	37154.25
587.15	49954.05
587.34	57531.54
587.54	61285.46
587.73	54000.84
587.93	39101.87
588.12	29652.54
588.31	24848.00
588.51	22161.07
588.70	20330.19
588.89	18038.51
589.09	15216.41
589.28	13254.45
589.47	10332.00
589.67	7747.47
589.86	6287.26
590.06	5048.24
590.25	4509.63
590.44	3930.05
590.64	3577.80
590.83	3653.58
591.02	3772.36
591.22	3172.30
591.41	3248.08
591.60	3358.67
591.80	4018.11
591.99	3037.14
592.18	3192.78
592.38	3614.66
592.57	3399.63
592.76	3196.88
592.96	3319.76
593.15	3266.51
593.34	3682.25
593.54	3149.78
593.73	3282.89
593.92	3577.80
594.12	3596.23
594.31	3284.94
594.50	3295.18
594.70	3524.55
594.89	4065.22
595.08	3100.62
595.28	3293.13
595.47	4057.03
595.66	3704.78
595.86	3123.15
596.05	3020.75
596.24	3348.43
596.43	3809.22
596.63	3180.50
596.82	3356.62
597.01	3514.31
597.21	3805.13
597.40	3149.78
597.59	3250.13
597.79	3424.20
597.98	3547.08
598.17	3276.75
598.36	3186.64
598.56	3647.43
598.75	3315.66
598.94	3295.18
599.14	3278.80
599.33	3356.62
599.52	3547.08
599.71	3231.69
599.91	3155.92
600.10	3596.23
600.29	3315.66
600.48	3233.74
600.68	3356.62
600.87	3473.36
601.06	3268.56
601.26	3360.72
601.45	3311.57
601.64	3452.88
601.83	3790.79
602.03	3012.56
602.22	3108.82
602.41	3694.54
602.60	4016.07
602.80	3313.61
602.99	3352.52
603.18	3262.41
603.37	3518.41
603.57	3125.20
603.76	3155.92
603.95	3725.26
604.14	3344.33
604.34	3110.86
604.53	3065.81
604.72	3461.07
604.91	3698.63
605.10	3205.07
605.30	3141.58
605.49	3880.90
605.68	3700.68
605.87	3123.15
606.07	3094.48
606.26	3491.79
606.45	3631.05
606.64	3198.93
606.84	3106.77
607.03	3350.48
607.22	3663.82
607.41	3264.46
607.60	3104.72
607.80	3641.29
607.99	3383.24
608.18	3108.82
608.37	3213.26
608.56	3258.32
608.76	3614.66
608.95	3401.68
609.14	3184.59
609.33	3633.10
609.52	3807.17
609.72	3282.89
609.91	3231.69
610.10	3446.73
610.29	3723.21
610.48	3319.76
610.68	3330.00
610.87	3360.72
611.06	3542.99
611.25	3166.16
611.44	3297.23
611.63	3344.33
611.83	3739.59
612.02	3100.62
612.21	3260.37
612.40	2981.84
612.59	3254.22
612.79	3108.82
612.98	3205.07
613.17	3821.51
613.36	3426.25
613.55	3250.13
613.74	3123.15
613.93	3370.96
614.13	3581.90
614.32	3389.39
614.51	3229.65
614.70	3440.59
614.89	3373.00
615.08	3356.62
615.28	3495.88
615.47	3213.26
615.66	3504.07
615.85	3205.07
616.04	3149.78
616.23	3420.11
616.42	3454.92
616.62	3180.50
616.81	3160.02
617.00	3426.25
617.19	3540.94
617.38	3209.17
617.57	3301.33
617.76	3577.80
617.95	3567.56
618.15	3340.24
618.34	3444.68
618.53	3207.12
618.72	3698.63
618.91	3207.12
619.10	3223.50
619.29	3360.72
619.48	3489.74
619.68	3037.14
619.87	3164.11
620.06	3139.54
620.25	3557.32
620.44	3080.14
620.63	3213.26
620.82	3495.88
621.01	3430.35
621.20	3262.41
621.39	3303.37
621.59	3530.70
621.78	3385.29
621.97	3237.84
622.16	3358.67
622.35	3499.98
622.54	3600.33
622.73	3246.03
622.92	3047.38
623.11	3631.05
623.30	3405.77
623.49	3274.70
623.68	3037.14
623.88	3749.83
624.07	3270.61
624.26	3086.29
624.45	3223.50
624.64	3381.20
624.83	3506.12
625.02	3135.44
625.21	3241.93
625.40	3452.88
625.59	3723.21
625.78	3213.26
625.97	3289.04
626.16	3766.21
626.35	3518.41
626.54	3188.69
626.74	3416.01
626.93	3368.91
627.12	3418.06
627.31	3182.54
627.50	3211.22
627.69	3588.04
627.88	3235.79
628.07	3055.57
628.26	3016.66
628.45	3282.89
628.64	3194.83
628.83	3162.06
629.02	3006.42
629.21	3526.60
629.40	3475.40
629.59	3037.14
629.78	3078.10
629.97	3452.88
630.16	3463.12
630.35	3196.88
630.54	3332.05
630.73	3373.00
630.92	3465.16
631.11	3098.58
631.30	3307.47
631.49	3588.04
631.68	3381.20
631.87	3233.74
632.06	3135.44
632.25	3813.32
632.44	3471.31
632.63	3172.30
632.82	3227.60
633.01	3342.28
633.20	3461.07
633.39	3155.92
633.58	2959.31
633.77	3471.31
633.96	3504.07
634.15	3323.85
634.34	3297.23
634.53	3602.38
634.72	3262.41
634.91	2992.08
635.10	3246.03
635.29	3590.09
635.48	3459.02
635.67	3121.10
635.86	3033.04
636.05	3764.17
636.24	3379.15
636.43	3176.40
636.62	3237.84
636.81	2895.83
637.00	3499.98
637.19	3135.44
637.38	3256.27
637.57	3330.00
637.76	3352.52
637.95	3354.57
638.14	3364.81
638.33	3481.55
638.52	3510.22
638.71	3002.32
638.89	3035.09
639.08	4054.98
639.27	3594.19
639.46	3442.64
639.65	3674.06
639.84	3876.80
640.03	4087.75
640.22	3512.27
640.41	3430.35
640.60	3463.12
640.79	3532.75
640.98	3358.67
641.17	3389.39
641.36	3678.15
641.55	3747.78
641.74	3024.85
641.92	3151.82
642.11	3248.08
642.30	3422.16
642.49	3110.86
642.68	3143.63
642.87	3547.08
643.06	3581.90
643.25	3010.51
643.44	3086.29
643.63	3397.58
643.82	3512.27
644.00	3045.33
644.19	3174.35
644.38	3180.50
644.57	3579.85
644.76	3168.21
644.95	3237.84
645.14	3528.65
645.33	3418.06
645.52	3250.13
645.71	3065.81
645.89	3250.13
646.08	3411.92
646.27	3157.97
646.46	3442.64
646.65	3141.58
646.84	3493.83
647.03	3143.63
647.22	3377.10
647.40	3479.50
647.59	3395.53
647.78	2942.93
647.97	3225.55
648.16	3233.74
648.35	3674.06
648.54	3467.21
648.73	3147.73
648.91	3557.32
649.10	3485.64
649.29	3153.87
649.48	3180.50
649.67	3551.18
649.86	3491.79
650.05	3174.35
650.23	3352.52
650.42	3327.95
650.61	3798.98
650.80	3354.57
650.99	3540.94
651.18	3635.14
651.36	3747.78
651.55	3170.26
651.74	3373.00
651.93	3336.14
652.12	3444.68
652.31	3239.89
652.49	3250.13
652.68	3319.76
652.87	3682.25
653.06	3280.85
653.25	3467.21
653.44	3409.87
653.62	3788.74
653.81	3286.99
654.00	3198.93
654.19	3682.25
654.38	3975.11
654.56	3274.70
654.75	3153.87
654.94	3633.10
655.13	3461.07
655.32	3069.91
655.51	3231.69
655.69	3348.43
655.88	3639.24
656.07	3043.28
656.26	3194.83
656.45	3241.93
656.63	3336.14
656.82	3174.35
657.01	3477.45
657.20	3360.72
657.38	3862.47
657.57	3125.20
657.76	3000.27
657.95	3590.09
658.14	3291.09
658.32	3368.91
658.51	3051.47
658.70	3557.32
658.89	3538.89
659.08	3137.49
659.26	3395.53
659.45	3186.64
659.64	3532.75
659.83	3112.91
660.01	3514.31
660.20	3528.65
660.39	3725.26
660.58	2928.60
660.76	3260.37
660.95	3135.44
661.14	3465.16
661.33	3059.67
661.51	3250.13
661.70	3321.81
661.89	3506.12
662.08	3203.02
662.26	2969.55
662.45	3176.40
662.64	3762.12
662.83	3282.89
663.01	3098.58
663.20	3358.67
663.39	3798.98
663.58	3346.38
663.76	3180.50
663.95	3596.23
664.14	3190.74
664.32	3221.45
664.51	3063.76
664.70	3065.81
664.89	3542.99
665.07	3078.10
665.26	3422.16
665.45	3106.77
665.64	3561.42
665.82	3133.39
666.01	3373.00
666.20	3172.30
666.38	3655.62
666.57	3487.69
666.76	5676.97
666.95	12515.14
667.13	18808.54
667.32	22410.92
667.51	24905.35
667.69	25867.89
667.88	21108.41
668.07	15429.40
668.25	13070.14
668.44	11685.71
668.63	10149.73
668.81	8896.38
669.00	7669.64
669.19	7241.62
669.38	6459.29
669.56	5343.15
669.75	4739.00
669.94	4356.03
670.12	3745.73
670.31	3469.26
670.50	3383.24
670.68	3588.04
670.87	3538.89
671.06	3096.53
671.24	3250.13
671.43	3821.51
671.62	3459.02
671.80	3172.30
671.99	3413.96
672.18	3432.40
672.36	3590.09
672.55	3350.48
672.74	3237.84
672.92	3291.09
673.11	3661.77
673.29	3106.77
673.48	3262.41
673.67	3373.00
673.85	3686.34
674.04	3131.34
674.23	3258.32
674.41	3934.15
674.60	3135.44
674.79	3094.48
674.97	3018.71
675.16	3581.90
675.34	3663.82
675.53	3131.34
675.72	3231.69
675.90	3835.85
676.09	3289.04
676.28	3286.99
676.46	3039.19
676.65	3526.60
676.83	3241.93
677.02	3221.45
677.21	3262.41
677.39	3504.07
677.58	3246.03
677.77	3143.63
677.95	3063.76
678.14	3450.83
678.32	3385.29
678.51	3205.07
678.70	3499.98
678.88	3330.00
679.07	3514.31
679.25	3215.31
679.44	3237.84
679.63	3121.10
679.81	3477.45
680.00	3467.21
680.18	3280.85
680.37	3835.85
680.55	3516.36
680.74	3035.09
680.93	2985.94
681.11	3567.56
681.30	3362.76
681.48	3164.11
681.67	3217.36
681.85	3516.36
682.04	3174.35
682.23	3418.06
682.41	3377.10
682.60	3354.57
682.78	3483.59
682.97	3088.34
683.15	3299.28
683.34	3454.92
683.53	3753.93
683.71	3026.90
683.90	3246.03
684.08	3801.03
684.27	3327.95
684.45	3227.60
684.64	3426.25
684.82	3397.58
685.01	3620.81
685.19	3164.11
685.38	3477.45
685.57	3403.72
685.75	3323.85
685.94	3028.95
686.12	3129.30
686.31	3407.82
686.49	3807.17
686.68	2938.84
686.86	3178.45
687.05	3434.44
687.23	3803.08
687.42	3286.99
687.60	3033.04
687.79	3672.01
687.97	3833.80
688.16	3272.65
688.34	3418.06
688.53	3053.52
688.71	3600.33
688.90	3463.12
689.08	3246.03
689.27	3055.57
689.45	3598.28
689.64	3354.57
689.82	3352.52
690.01	3524.55
690.19	3559.37
690.38	3368.91
690.56	3270.61
690.75	3239.89
690.93	3295.18
691.12	3147.73
691.30	3157.97
691.49	3241.93
691.67	3413.96
691.86	3575.75
692.04	3196.88
692.23	3373.00
692.41	3366.86
692.60	3524.55
692.78	3407.82
692.97	3422.16
693.15	3639.24
693.34	3428.30
693.52	3389.39
693.71	3301.33
693.89	3418.06
694.08	3035.09
694.26	3241.93
694.44	3639.24
694.63	3526.60
694.81	3153.87
695.00	3307.47
695.18	3745.73
695.37	4030.40
695.55	3289.04
695.74	3270.61
695.92	3266.51
696.10	3721.16
696.29	3084.24
696.47	3162.06
696.66	3229.65
696.84	3239.89
697.03	3270.61
697.21	3422.16
697.40	4747.19
697.58	3643.34
697.76	3157.97
697.95	3168.21
698.13	3196.88
698.32	3354.57
698.50	3194.83
698.68	3205.07
698.87	3448.78
699.05	3819.46
699.24	3117.01
699.42	3231.69
699.61	3504.07
699.79	3381.20
699.97	3225.55
700.16	3117.01
700.34	3174.35
700.53	3430.35
700.71	3448.78
700.89	3346.38
701.08	3362.76
701.26	3342.28
701.45	3483.59
701.63	3194.83
701.81	3293.13
702.00	3237.84
702.18	3307.47
702.37	3164.11
702.55	3698.63
702.73	3442.64
702.92	3149.78
703.10	3522.51
703.28	3569.61
703.47	3180.50
703.65	3377.10
703.84	3295.18
704.02	3315.66
704.20	3680.20
704.39	3139.54
704.57	3164.11
704.75	3631.05
704.94	3569.61
705.12	3405.77
705.30	4073.41
705.49	8222.59
705.67	14438.18
705.86	19431.13
706.04	21784.24
706.22	23697.05
706.41	22673.06
706.59	16789.25
706.77	13522.74
706.96	11865.93
707.14	11056.98
707.32	9422.70
707.51	8253.31
707.69	6825.88
707.87	5758.89
708.06	4861.88
708.24	4321.21
708.42	4081.60
708.61	4294.59
708.79	3348.43
708.97	3368.91
709.16	3553.23
709.34	3475.40
709.52	3205.07
709.71	3180.50
709.89	3606.47
710.07	3237.84
710.26	3041.23
710.44	3235.79
710.62	3588.04
710.80	3424.20
710.99	3344.33
711.17	3295.18
711.35	3350.48
711.54	3358.67
711.72	3450.83
711.90	3338.19
712.09	3522.51
712.27	3311.57
712.45	3422.16
712.63	3246.03
712.82	3551.18
713.00	3469.26
713.18	3252.17
713.37	3473.36
713.55	3624.90
713.73	3641.29
713.91	3233.74
714.10	3188.69
714.28	3420.11
714.46	3495.88
714.65	3332.05
714.83	3254.22
715.01	3465.16
715.19	3518.41
715.38	3139.54
715.56	3362.76
715.74	3229.65
715.92	3239.89
716.11	3499.98
716.29	2971.60
716.47	3416.01
716.65	3409.87
716.84	3125.20
717.02	3309.52
717.20	3055.57
717.38	3340.24
717.57	3381.20
717.75	3250.13
717.93	3289.04
718.11	3536.84
718.30	3078.10
718.48	3272.65
718.66	3618.76
718.84	3653.58
719.03	3266.51
719.21	3067.86
719.39	3755.97
719.57	3549.13
719.75	3317.71
719.94	3117.01
720.12	3395.53
720.30	3434.44
720.48	3272.65
720.67	3164.11
720.85	3227.60
721.03	3330.00
721.21	3184.59
721.39	3254.22
721.58	3659.72
721.76	3411.92
721.94	3266.51
722.12	3299.28
722.30	3745.73
722.49	3405.77
722.67	3203.02
722.85	3190.74
723.03	3074.00
723.21	3278.80
723.40	3256.27
723.58	3311.57
723.76	3598.28
723.94	3733.45
724.12	3192.78
724.30	3475.40
724.49	3553.23
724.67	3194.83
724.85	3205.07
725.03	3129.30
725.21	3524.55
725.40	3635.14
725.58	3237.84
725.76	3332.05
725.94	3532.75
726.12	3164.11
726.30	3334.09
726.49	3131.34
726.67	3379.15
726.85	3565.51
727.03	3868.61
727.21	4992.95
727.39	6123.43
727.57	6516.64
727.76	6809.50
727.94	6578.08
728.12	5867.43
728.30	5017.52
728.48	4790.20
728.66	4429.76
728.84	4376.51
729.03	3983.30
729.21	3585.99
729.39	3536.84
729.57	3483.59
729.75	3514.31
729.93	3448.78
730.11	3160.02
730.30	3336.14
730.48	3385.29
730.66	3260.37
730.84	3311.57
731.02	3524.55
731.20	3334.09
731.38	3217.36
731.56	2998.23
731.74	3186.64
731.93	3399.63
732.11	3299.28
732.29	3229.65
732.47	3622.86
732.65	3465.16
732.83	3336.14
733.01	3305.42
733.19	3286.99
733.37	3590.09
733.56	3119.06
733.74	3153.87
733.92	3760.07
734.10	3297.23
734.28	3362.76
734.46	2992.08
734.64	3327.95
734.82	3325.90
735.00	3209.17
735.18	3137.49
735.36	3407.82
735.54	3418.06
735.73	3094.48
735.91	3342.28
736.09	3729.35
736.27	3461.07
736.45	3262.41
736.63	3033.04
736.81	3319.76
736.99	3581.90
737.17	3442.64
737.35	3186.64
737.53	3485.64
737.71	3401.68
737.89	3420.11
738.07	3182.54
738.25	3334.09
738.43	3071.95
738.61	3227.60
738.80	3063.76
738.98	3147.73
739.16	3379.15
739.34	3172.30
739.52	3469.26
739.70	3385.29
739.88	3602.38
740.06	3307.47
740.24	2904.02
740.42	3678.15
740.60	3035.09
740.78	3207.12
740.96	2985.94
741.14	3358.67
741.32	3426.25
741.50	3061.71
741.68	3479.50
741.86	3702.73
742.04	3190.74
742.22	3108.82
742.40	3182.54
742.58	3594.19
742.76	3225.55
742.94	3465.16
743.12	3076.05
743.30	3403.72
743.48	3565.51
743.66	3184.59
743.84	3186.64
744.02	3350.48
744.20	3442.64
744.38	3100.62
744.56	3219.41
744.74	3796.93
744.92	3637.19
745.10	3497.93
745.28	3289.04
745.46	3774.41
745.64	3426.25
745.82	3362.76
746.00	3172.30
746.18	3557.32
746.36	3268.56
746.54	3254.22
746.72	3219.41
746.90	3221.45
747.08	3737.54
747.26	3254.22
747.44	3336.14
747.62	3534.79
747.80	3604.42
747.98	3327.95
748.15	3209.17
748.33	3893.19
748.51	3506.12
748.69	3346.38
748.87	3026.90
749.05	3330.00
749.23	3344.33
749.41	3106.77
749.59	3184.59
749.77	3618.76
749.95	3434.44
750.13	3182.54
750.31	3377.10
750.49	3418.06
750.67	3536.84
750.85	3280.85
751.03	3184.59
751.20	3868.61
751.38	3352.52
751.56	3241.93
751.74	3170.26
751.92	3393.48
752.10	3182.54
752.28	3305.42
752.46	3207.12
752.64	3407.82
752.82	3395.53
753.00	3280.85
753.18	3053.52
753.35	3456.97
753.53	3397.58
753.71	3174.35
753.89	3264.46
754.07	3473.36
754.25	3717.06
754.43	3311.57
754.61	3176.40
754.79	3606.47
754.97	3393.48
755.14	3416.01
755.32	3135.44
755.50	3450.83
755.68	3467.21
755.86	3102.67
756.04	3082.19
756.22	3022.80
756.40	3622.86
756.57	3434.44
756.75	3184.59
756.93	3626.95
757.11	3598.28
757.29	3100.62
757.47	3106.77
757.65	3135.44
757.82	2930.64
758.00	3119.06
758.18	3133.39
758.36	3221.45
758.54	3841.99
758.72	3055.57
758.90	3364.81
759.07	3467.21
759.25	3336.14
759.43	3258.32
759.61	3053.52
759.79	4562.87
759.97	3600.33
760.15	3194.83
760.32	3229.65
760.50	3489.74
760.68	3798.98
760.86	3168.21
761.04	3450.83
761.22	3672.01
761.39	3538.89
761.57	3252.17
761.75	3192.78
761.93	3577.80
762.11	3327.95
762.28	3368.91
762.46	3129.30
762.64	3672.01
762.82	3186.64
763.00	3098.58
763.18	3399.63
763.35	3254.22
763.53	3565.51
763.71	3336.14
763.89	3164.11
764.07	3448.78
764.24	3463.12
764.42	3303.37
764.60	3213.26
764.78	3590.09
764.96	3592.14
765.13	3368.91
765.31	3014.61
765.49	3573.71
765.67	3207.12
765.84	3203.02
766.02	3094.48
766.20	3135.44
766.38	3516.36
766.56	3303.37
766.73	3274.70
766.91	3461.07
767.09	3530.70
767.27	3246.03
767.44	3090.38
767.62	3565.51
767.80	3461.07
767.98	3141.58
768.15	3180.50
768.33	3608.52
768.51	3610.57
768.69	3364.81
768.87	3147.73
769.04	3401.68
769.22	4007.87
769.40	3248.08
769.58	3346.38
769.75	3479.50
769.93	3690.44
770.11	3180.50
770.28	3018.71
770.46	3567.56
770.64	3454.92
770.82	3192.78
770.99	2985.94
771.17	3563.47
771.35	3362.76
771.53	3280.85
771.70	3155.92
771.88	3577.80
772.06	3418.06
772.23	3127.25
772.41	3223.50
772.59	3319.76
772.77	3254.22
772.94	3196.88
773.12	3299.28
773.30	3264.46
773.47	3475.40
773.65	3016.66
773.83	3280.85
774.01	3426.25
774.18	3043.28
774.36	3166.16
774.54	3123.15
774.71	3502.03
774.89	3092.43
775.07	3076.05
775.24	3205.07
775.42	3315.66
775.60	3819.46
775.78	3082.19
775.95	3063.76
776.13	3104.72
776.31	3069.91
776.48	3373.00
776.66	3426.25
776.84	3342.28
777.01	3299.28
777.19	3121.10
777.37	3135.44
777.54	3643.34
777.72	3899.33
777.90	3284.94
778.07	3194.83
778.25	4116.42
778.43	3700.68
778.60	3131.34
778.78	3301.33
778.96	3729.35
779.13	3192.78
779.31	3203.02
779.49	3246.03
779.66	3454.92
779.84	3452.88
780.01	3067.86
780.19	3110.86
780.37	3770.31
780.54	3659.72
780.72	3069.91
780.90	3286.99
781.07	3327.95
781.25	3274.70
781.43	3373.00
781.60	3129.30
781.78	3665.86
781.95	3459.02
782.13	3190.74
782.31	3108.82
782.48	3090.38
782.66	3403.72
782.83	3381.20
783.01	3305.42
783.19	3573.71
783.36	3381.20
783.54	3143.63
783.72	3266.51
783.89	3379.15
784.07	3473.36
784.24	3252.17
784.42	3346.38
784.60	3446.73
784.77	3526.60
784.95	3049.43
785.12	3194.83
785.30	3510.22
785.47	3235.79
785.65	3033.04
785.83	3223.50
786.00	3266.51
786.18	3407.82
786.35	3078.10
786.53	3160.02
786.71	3663.82
786.88	3471.31
787.06	3274.70
787.23	3280.85
787.41	3213.26
787.58	3450.83
787.76	3141.58
787.94	3207.12
788.11	3542.99
788.29	3223.50
788.46	3223.50
788.64	2973.65
788.81	3272.65
788.99	3205.07
789.16	3180.50
789.34	3229.65
789.52	3239.89
789.69	3332.05
789.87	2963.41
790.04	3198.93
790.22	3424.20
790.39	3764.17
790.57	3096.53
790.74	3092.43
790.92	3647.43
791.09	3033.04
791.27	3289.04
791.44	3178.45
791.62	3450.83
791.79	3483.59
791.97	3286.99
792.15	3491.79
792.32	3622.86
792.50	3504.07
792.67	3375.05
792.85	3567.56
793.02	3481.55
793.20	3338.19
793.37	3092.43
793.55	3096.53
793.72	3164.11
793.90	3581.90
794.07	3219.41
794.25	3051.47
794.42	3454.92
794.60	3381.20
794.77	3291.09
794.95	3354.57
795.12	3624.90
795.30	3368.91
795.47	2979.79
795.65	3583.95
795.82	3569.61
796.00	3217.36
796.17	3282.89
796.34	3127.25
796.52	3524.55
796.69	3626.95
796.87	3229.65
797.04	3321.81
797.22	3657.67
797.39	3454.92
797.57	3446.73
797.74	3264.46
797.92	3547.08
798.09	3360.72
798.27	3401.68
798.44	3256.27
798.62	3262.41
798.79	3471.31
798.96	3315.66
799.14	3192.78
799.31	3915.72
799.49	3327.95
799.66	3143.63
799.84	3239.89
800.01	3127.25
800.19	3479.50
800.36	2992.08
800.53	3332.05
800.71	3506.12
800.88	3743.69
801.06	3133.39
801.23	3168.21
801.41	3368.91
801.58	3438.54
801.75	3174.35
801.93	3311.57
802.10	3569.61
802.28	3311.57
802.45	3225.55
802.63	3321.81
802.80	3768.26
802.97	3393.48
803.15	3139.54
803.32	3147.73
803.50	3239.89
803.67	3196.88
803.84	3170.26
804.02	3205.07
804.19	3461.07
804.37	2998.23
804.54	3047.38
804.71	3248.08
804.89	3434.44
805.06	3250.13
805.24	3145.68
805.41	2961.36
805.58	3227.60
805.76	4018.11
805.93	3125.20
806.10	3289.04
806.28	3514.31
806.45	3442.64
806.63	3368.91
806.80	3258.32
806.97	3522.51
807.15	3448.78
807.32	3262.41
807.49	3174.35
807.67	3131.34
807.84	3534.79
808.01	3049.43
808.19	3266.51
808.36	3885.00
808.54	3346.38
808.71	3155.92
808.88	3147.73
809.06	3762.12
809.23	3905.48
809.40	3252.17
809.58	3172.30
809.75	3393.48
809.92	3110.86
810.10	3461.07
810.27	3147.73
810.44	3483.59
810.62	3569.61
810.79	3301.33
810.96	3200.98
811.14	3332.05
811.31	3565.51
811.48	3286.99
811.66	3252.17
811.83	3725.26
812.00	3561.42
812.18	3293.13
812.35	3430.35
812.52	3352.52
812.69	3274.70
812.87	3192.78
813.04	3061.71
813.21	3397.58
813.39	3262.41
813.56	3080.14
813.73	3428.30
813.91	3139.54
814.08	3483.59
814.25	3246.03
814.42	3008.47
814.60	3332.05
814.77	3532.75
814.94	3133.39
815.12	3264.46
815.29	3778.50
815.46	3303.37
815.63	3196.88
815.81	3225.55
815.98	3334.09
816.15	3364.81
816.33	3313.61
816.50	3162.06
816.67	3405.77
816.84	3418.06
817.02	3067.86
817.19	3211.22
817.36	3442.64
817.53	3440.59
817.71	3084.24
817.88	3278.80
818.05	3373.00
818.22	3444.68
818.40	3385.29
818.57	3123.15
818.74	3524.55
818.91	3352.52
819.09	3352.52
819.26	3284.94
819.43	3334.09
819.60	3219.41
819.78	3362.76
819.95	3237.84
820.12	3209.17
820.29	3815.37
820.47	3475.40
820.64	3131.34
820.81	3192.78
820.98	3268.56
821.15	3213.26
821.33	3346.38
821.50	3055.57
821.67	3532.75
821.84	3143.63
822.02	3270.61
822.19	3561.42
822.36	3286.99
822.53	3182.54
822.70	3043.28
822.88	3327.95
823.05	3686.34
823.22	3319.76
823.39	3166.16
823.56	3444.68
823.74	3788.74
823.91	3092.43
824.08	3084.24
824.25	3164.11
824.42	3770.31
824.60	3037.14
824.77	3319.76
824.94	3364.81
825.11	3588.04
825.28	3098.58
825.45	3303.37
825.63	3575.75
825.80	3254.22
825.97	3278.80
826.14	3256.27
826.31	3131.34
826.48	3528.65
826.66	3270.61
826.83	3080.14
827.00	3401.68
827.17	3145.68
827.34	3176.40
827.51	3065.81
827.69	3340.24
827.86	3221.45
828.03	3209.17
828.20	3223.50
828.37	3246.03
828.54	3485.64
828.71	3149.78
828.89	3268.56
829.06	3477.45
829.23	3770.31
829.40	3155.92
829.57	3188.69
829.74	3585.99
829.91	3260.37
830.09	3149.78
830.26	3356.62
830.43	3758.02
830.60	3463.12
830.77	3370.96
830.94	3416.01
831.11	3598.28
831.28	3356.62
831.46	3252.17
831.63	3190.74
831.80	3659.72
831.97	3260.37
832.14	3266.51
832.31	3184.59
832.48	3454.92
832.65	3598.28
832.82	3385.29
832.99	3200.98
833.17	3182.54
833.34	3704.78
833.51	3157.97
833.68	2926.55
833.85	3614.66
834.02	3215.31
834.19	3123.15
834.36	3221.45
834.53	3532.75
834.70	3643.34
834.87	3192.78
835.04	2877.40
835.22	3200.98
835.39	3385.29
835.56	2971.60
835.73	3061.71
835.90	3780.55
836.07	3231.69
836.24	3102.67
836.41	3008.47
836.58	3243.98
836.75	3655.62
836.92	3033.04
837.09	2992.08
837.26	3563.47
837.43	3598.28
837.60	3043.28
837.77	3067.86
837.94	3573.71
838.12	3682.25
838.29	3008.47
838.46	2889.68
838.63	3223.50
838.80	3743.69
838.97	3127.25
839.14	2901.97
839.31	3524.55
839.48	3647.43
839.65	3045.33
839.82	3127.25
839.99	3459.02
840.16	3432.40
840.33	2969.55
840.50	3074.00
840.67	3319.76
840.84	2920.40
841.01	2969.55
841.18	3008.47
841.35	3459.02
841.52	3559.37
841.69	3377.10
841.86	3016.66
842.03	3395.53
842.20	3622.86
842.37	3024.85
842.54	3074.00
842.71	3444.68
842.88	3141.58
843.05	3000.27
843.22	3037.14
843.39	3573.71
843.56	3311.57
843.73	2930.64
843.90	3121.10
844.07	3557.32
844.24	3645.38
844.41	3082.19
844.58	3026.90
844.75	3477.45
844.92	3512.27
845.09	3074.00
845.26	2998.23
845.43	3557.32
845.60	3340.24
845.77	3182.54
845.94	3123.15
846.10	3610.57
846.27	3151.82
846.44	2994.13
846.61	2842.58
846.78	3579.85
846.95	3590.09
847.12	2951.12
847.29	3055.57
847.46	3286.99
847.63	3606.47
847.80	2899.92
847.97	3033.04
848.14	3919.81
848.31	3399.63
848.48	2916.31
848.65	2996.18
848.82	3274.70
848.98	3985.35
849.15	3209.17
849.32	3205.07
849.49	3651.53
849.66	3381.20
849.83	2985.94
850.00	3016.66
850.17	3563.47
850.34	3362.76
850.51	3002.32
850.68	2985.94
850.85	3966.92
851.01	3473.36
851.18	2967.51
851.35	3100.62
851.52	3446.73
851.69	3706.82
851.86	2951.12
852.03	2967.51
852.20	3643.34
852.37	3407.82
852.53	2922.45
852.70	2951.12
852.87	3596.23
853.04	3573.71
853.21	3057.62
853.38	3342.28
853.55	3680.20
853.72	3737.54
853.89	2967.51
854.05	2953.17
854.22	3426.25
854.39	3295.18
854.56	3037.14
854.73	3162.06
854.90	3250.13
855.07	3375.05
855.23	2871.25
855.40	2904.02
855.57	3313.61
855.74	2953.17
855.91	3252.17
856.08	2877.40
856.25	3155.92
856.41	3358.67
856.58	3086.29
856.75	3080.14
856.92	3168.21
857.09	3663.82
857.26	2844.63
857.42	3041.23
857.59	3610.57
857.76	3368.91
857.93	2969.55
858.10	3090.38
858.27	3164.11
858.43	3411.92
858.60	3119.06
858.77	2904.02
858.94	3385.29
859.11	3528.65
859.27	3125.20
859.44	2947.03
859.61	3909.57
859.78	3596.23
859.95	2998.23
860.12	2979.79
860.28	3977.16
860.45	3811.27
860.62	3000.27
860.79	3149.78
860.95	3282.89
861.12	3246.03
861.29	2914.26
861.46	2951.12
861.63	3368.91
861.79	3491.79
861.96	2891.73
862.13	3035.09
862.30	3764.17
862.47	3272.65
862.63	2869.20
862.80	3055.57
862.97	3606.47
863.14	3522.51
863.30	3094.48
863.47	2981.84
863.64	3831.75
863.81	3467.21
863.97	2877.40
864.14	3106.77
864.31	3362.76
864.48	3467.21
864.65	2987.99
864.81	3123.15
864.98	3608.52
865.15	3715.02
865.32	3127.25
865.48	3084.24
865.65	3751.88
865.82	3327.95
865.98	3176.40
866.15	3057.62
866.32	3446.73
866.49	3319.76
866.65	3182.54
866.82	3076.05
866.99	3342.28
867.16	3291.09
867.32	3041.23
867.49	2973.65
867.66	3309.52
867.83	3313.61
867.99	2949.08
868.16	3078.10
868.33	3096.53
868.49	3346.38
868.66	2990.03
868.83	3160.02
868.99	3577.80
869.16	3450.83
869.33	3055.57
869.50	3164.11
869.66	3411.92
869.83	3375.05
870.00	2899.92
870.16	3135.44
870.33	3301.33
870.50	3524.55
870.66	3104.72
870.83	2987.99
871.00	3391.44
871.17	3549.13
871.33	3076.05
871.50	2969.55
871.67	3381.20
871.83	3297.23
872.00	3114.96
872.17	2977.75
872.33	3870.66
872.50	3717.06
872.67	3008.47
872.83	2971.60
873.00	3538.89
873.17	3436.49
873.33	3051.47
873.50	3028.95
873.67	3276.75
873.83	3262.41
874.00	3082.19
874.16	3170.26
874.33	3352.52
874.50	3153.87
874.66	2947.03
874.83	3155.92
875.00	3702.73
875.16	3702.73
875.33	3088.34
875.50	2781.14
875.66	3321.81
875.83	3483.59
875.99	3071.95
876.16	3155.92
876.33	3262.41
876.49	3454.92
876.66	3049.43
876.83	3067.86
876.99	3137.49
877.16	3411.92
877.32	2990.03
877.49	3117.01
877.66	3547.08
877.82	3723.21
877.99	3123.15
878.15	3393.48
878.32	3508.17
878.49	3545.03
878.65	3063.76
878.82	3346.38
878.98	3317.71
879.15	3651.53
879.32	3264.46
879.48	3203.02
879.65	3424.20
879.81	3352.52
879.98	3082.19
880.15	3084.24
880.31	3594.19
880.48	3270.61
880.64	3207.12
880.81	3067.86
880.97	3839.94
881.14	3698.63
881.31	2967.51
881.47	3233.74
881.64	3405.77
881.80	3155.92
881.97	3215.31
882.13	3088.34
882.30	3153.87
882.47	3270.61
882.63	3000.27
882.80	2983.89
882.96	3389.39
883.13	3643.34
883.29	2994.13
883.46	3024.85
883.62	3905.48
883.79	3473.36
883.95	3127.25
884.12	2957.27
884.29	3688.39
884.45	3422.16
884.62	3006.42
884.78	3041.23
884.95	3725.26
885.11	3291.09
885.28	3184.59
885.44	3110.86
885.61	3649.48
885.77	3680.20
885.94	3233.74
886.10	3100.62
886.27	3452.88
886.43	3862.47
886.60	3205.07
886.76	3074.00
886.93	3225.55
887.09	3389.39
887.26	2869.20
887.42	3176.40
887.59	3680.20
887.75	3930.05
887.92	3297.23
888.08	3104.72
888.25	3823.56
888.41	3639.24
888.58	3092.43
888.74	2942.93
888.91	3325.90
>>>>>End Processed Spectral Data<<<<<
