SpectraSuite Data File
++++++++++++++++++++++++++++++++++++
Date: Fri May 06 09:29:07 CEST 2016
User: root
Dark Spectrum Present: No
Reference Spectrum Present: No
Number of Sampled Component Spectra: 1
Spectrometers: USB4C02835
Integration Time (usec): 100000 (USB4C02835)
Spectra Averaged: 1 (USB4C02835)
Boxcar Smoothing: 0 (USB4C02835)
Correct for Electrical Dark: No (USB4C02835)
Strobe/Lamp Enabled: No (USB4C02835)
Correct for Detector Non-linearity: No (USB4C02835)
Correct for Stray Light: No (USB4C02835)
Number of Pixels in Processed Spectrum: 3648
>>>>>Begin Processed Spectral Data<<<<<
177.47	2340.83
177.69	2340.83
177.91	2340.83
178.13	2340.83
178.36	2375.64
178.58	3078.10
178.80	3229.65
179.02	3184.59
179.24	3168.21
179.46	2877.40
179.68	2910.16
179.90	3430.35
180.13	3395.53
180.35	2762.71
180.57	2844.63
180.79	3651.53
181.01	3508.17
181.23	2944.98
181.45	3178.45
181.67	3559.37
181.90	3559.37
182.12	3057.62
182.34	2824.15
182.56	3579.85
182.78	3467.21
183.00	2871.25
183.22	2961.36
183.44	3082.19
183.66	4014.02
183.89	3071.95
184.11	2992.08
184.33	3661.77
184.55	3659.72
184.77	2918.36
184.99	3018.71
185.21	3321.81
185.43	4007.87
185.65	2906.07
185.87	2994.13
186.10	4032.45
186.32	4024.26
186.54	3123.15
186.76	3086.29
186.98	3680.20
187.20	3467.21
187.42	2957.27
187.64	2971.60
187.86	3491.79
188.08	3774.41
188.30	2887.64
188.52	2977.75
188.75	3766.21
188.97	3712.97
189.19	2926.55
189.41	2916.31
189.63	3585.99
189.85	3330.00
190.07	2762.71
190.29	2791.38
190.51	3477.45
190.73	3155.92
190.95	3172.30
191.17	2947.03
191.39	3160.02
191.61	3389.39
191.84	2953.17
192.06	3131.34
192.28	3160.02
192.50	4093.89
192.72	3123.15
192.94	3141.58
193.16	3676.10
193.38	3493.83
193.60	2926.55
193.82	3129.30
194.04	3698.63
194.26	3604.42
194.48	2973.65
194.70	2908.12
194.92	3352.52
195.14	3608.52
195.36	2924.50
195.58	3018.71
195.80	3387.34
196.02	3377.10
196.24	2856.92
196.46	2967.51
196.69	3352.52
196.91	4007.87
197.13	2930.64
197.35	3057.62
197.57	3741.64
197.79	3585.99
198.01	3006.42
198.23	2977.75
198.45	3569.61
198.67	3237.84
198.89	2727.89
199.11	3074.00
199.33	3344.33
199.55	2963.41
199.77	2924.50
199.99	3151.82
200.21	3401.68
200.43	3608.52
200.65	2844.63
200.87	2822.10
201.09	3485.64
201.31	3352.52
201.53	2977.75
201.75	3153.87
201.97	3528.65
202.19	3532.75
202.41	3016.66
202.63	3086.29
202.85	3575.75
203.07	3504.07
203.29	3078.10
203.51	2873.30
203.73	3276.75
203.95	4024.26
204.17	2926.55
204.39	3135.44
204.61	3411.92
204.83	3311.57
205.05	3061.71
205.27	2971.60
205.49	4075.46
205.71	3391.44
205.93	2832.34
206.15	2877.40
206.37	3493.83
206.59	3405.77
206.81	2770.90
207.03	2901.97
207.25	3260.37
207.47	3678.15
207.69	3065.81
207.91	3196.88
208.13	3876.80
208.34	3282.89
208.56	2918.36
208.78	2992.08
209.00	3393.48
209.22	3346.38
209.44	2906.07
209.66	2904.02
209.88	3481.55
210.10	3364.81
210.32	2947.03
210.54	3039.19
210.76	3389.39
210.98	3624.90
211.20	2846.68
211.42	3114.96
211.64	3782.60
211.86	3569.61
212.08	3051.47
212.30	2920.40
212.52	3352.52
212.74	3561.42
212.96	2996.18
213.17	3008.47
213.39	3635.14
213.61	3870.66
213.83	2969.55
214.05	2789.33
214.27	3637.19
214.49	3239.89
214.71	2951.12
214.93	3045.33
215.15	3477.45
215.37	3672.01
215.59	2772.95
215.81	3145.68
216.03	3782.60
216.24	3401.68
216.46	2944.98
216.68	3026.90
216.90	3624.90
217.12	3692.49
217.34	2920.40
217.56	3112.91
217.78	3794.89
218.00	3629.00
218.22	3078.10
218.44	3131.34
218.66	3467.21
218.87	3891.14
219.09	2979.79
219.31	2961.36
219.53	3561.42
219.75	3409.87
219.97	2975.70
220.19	3092.43
220.41	3418.06
220.63	3829.70
220.85	3008.47
221.06	2990.03
221.28	3755.97
221.50	3635.14
221.72	2949.08
221.94	2934.74
222.16	3547.08
222.38	3680.20
222.60	2944.98
222.82	3051.47
223.03	3710.92
223.25	3166.16
223.47	2854.87
223.69	3139.54
223.91	3516.36
224.13	3532.75
224.35	2863.06
224.57	3164.11
224.78	3596.23
225.00	3205.07
225.22	3074.00
225.44	2852.82
225.66	3704.78
225.88	3393.48
226.10	3119.06
226.32	2987.99
226.53	3780.55
226.75	3340.24
226.97	3121.10
227.19	2914.26
227.41	3295.18
227.63	3254.22
227.85	2783.19
228.06	3114.96
228.28	3467.21
228.50	3758.02
228.72	2844.63
228.94	2926.55
229.16	3057.62
229.37	3149.78
229.59	2848.72
229.81	3241.93
230.03	3434.44
230.25	3194.83
230.47	2865.11
230.69	3041.23
230.90	3706.82
231.12	3207.12
231.34	3076.05
231.56	2979.79
231.78	3200.98
232.00	3518.41
232.21	3057.62
232.43	3057.62
232.65	3014.61
232.87	3485.64
233.09	2881.49
233.30	2942.93
233.52	3647.43
233.74	3483.59
233.96	2875.35
234.18	3123.15
234.40	3444.68
234.61	4050.88
234.83	2828.24
235.05	2932.69
235.27	4077.51
235.49	3821.51
235.70	2832.34
235.92	3024.85
236.14	3561.42
236.36	3991.49
236.58	2832.34
236.79	3090.38
237.01	3405.77
237.23	3450.83
237.45	3184.59
237.67	3080.14
237.88	3561.42
238.10	3952.58
238.32	2885.59
238.54	2904.02
238.76	3428.30
238.97	3321.81
239.19	2861.01
239.41	3106.77
239.63	3739.59
239.85	3229.65
240.06	2942.93
240.28	2992.08
240.50	3782.60
240.72	3454.92
240.93	2877.40
241.15	3088.34
241.37	3516.36
241.59	3712.97
241.81	3010.51
242.02	3086.29
242.24	3495.88
242.46	3604.42
242.68	2828.24
242.89	2934.74
243.11	3653.58
243.33	3467.21
243.55	2944.98
243.76	2977.75
243.98	3321.81
244.20	3446.73
244.42	2951.12
244.64	2916.31
244.85	3190.74
245.07	3272.65
245.29	2951.12
245.51	3174.35
245.72	3495.88
245.94	3663.82
246.16	2879.44
246.38	3008.47
246.59	3243.98
246.81	3319.76
247.03	2914.26
247.24	2879.44
247.46	3389.39
247.68	3524.55
247.90	2858.96
248.11	2967.51
248.33	3641.29
248.55	3502.03
248.77	2961.36
248.98	2987.99
249.20	3737.54
249.42	3508.17
249.64	2940.88
249.85	2926.55
250.07	3325.90
250.29	3686.34
250.50	2975.70
250.72	2901.97
250.94	3565.51
251.16	3909.57
251.37	2963.41
251.59	3008.47
251.81	3579.85
252.02	3794.89
252.24	2887.64
252.46	3057.62
252.68	3293.13
252.89	3336.14
253.11	2807.77
253.33	3157.97
253.54	3762.12
253.76	3190.74
253.98	3002.32
254.20	2975.70
254.41	3123.15
254.63	3317.71
254.85	2875.35
255.06	3127.25
255.28	3502.03
255.50	3418.06
255.71	2930.64
255.93	2756.57
256.15	3436.49
256.36	3547.08
256.58	2865.11
256.80	2885.59
257.02	3463.12
257.23	3373.00
257.45	2975.70
257.67	3160.02
257.88	3330.00
258.10	3645.38
258.32	2912.21
258.53	3016.66
258.75	3819.46
258.97	3317.71
259.18	2887.64
259.40	2912.21
259.62	3872.71
259.83	3782.60
260.05	2987.99
260.27	4001.73
260.48	3629.00
260.70	3223.50
260.92	2856.92
261.13	3008.47
261.35	3516.36
261.57	3483.59
261.78	2793.43
262.00	2944.98
262.22	3528.65
262.43	3252.17
262.65	3006.42
262.86	3008.47
263.08	3962.82
263.30	3422.16
263.51	2781.14
263.73	2854.87
263.95	3905.48
264.16	3256.27
264.38	2895.83
264.60	2881.49
264.81	3411.92
265.03	3653.58
265.25	3493.83
265.46	2844.63
265.68	3745.73
265.89	3663.82
266.11	2881.49
266.33	2975.70
266.54	3747.78
266.76	3571.66
266.98	2987.99
267.19	3209.17
267.41	3749.83
267.62	3491.79
267.84	2789.33
268.06	3057.62
268.27	3487.69
268.49	3737.54
268.70	3065.81
268.92	3006.42
269.14	3260.37
269.35	3112.91
269.57	3108.82
269.79	3000.27
270.00	3368.91
270.22	3819.46
270.43	2906.07
270.65	2811.86
270.87	3510.22
271.08	3633.10
271.30	3078.10
271.51	3049.43
271.73	3598.28
271.95	3805.13
272.16	2940.88
272.38	3147.73
272.59	3413.96
272.81	3602.38
273.02	2963.41
273.24	2994.13
273.46	3733.45
273.67	3254.22
273.89	2809.81
274.10	2955.22
274.32	3717.06
274.54	3481.55
274.75	3090.38
274.97	3090.38
275.18	3598.28
275.40	3606.47
275.61	2996.18
275.83	3092.43
276.05	3246.03
276.26	3418.06
276.48	3155.92
276.69	3069.91
276.91	3325.90
277.12	3794.89
277.34	3198.93
277.55	3198.93
277.77	3420.11
277.99	3264.46
278.20	3121.10
278.42	2998.23
278.63	3262.41
278.85	3262.41
279.06	3057.62
279.28	3186.64
279.49	3639.24
279.71	3571.66
279.93	3114.96
280.14	3172.30
280.36	3227.60
280.57	3678.15
280.79	3198.93
281.00	3035.09
281.22	3352.52
281.43	3721.16
281.65	2883.54
281.86	2985.94
282.08	3635.14
282.29	3835.85
282.51	2947.03
282.73	2985.94
282.94	3166.16
283.16	3598.28
283.37	3188.69
283.59	3133.39
283.80	3547.08
284.02	3438.54
284.23	3102.67
284.45	3088.34
284.66	3303.37
284.88	3241.93
285.09	2961.36
285.31	3151.82
285.52	3536.84
285.74	3205.07
285.95	3289.04
286.17	3121.10
286.38	3753.93
286.60	3446.73
286.81	3039.19
287.03	3098.58
287.24	3499.98
287.46	3581.90
287.67	3209.17
287.89	3276.75
288.10	3387.34
288.32	3502.03
288.53	3243.98
288.75	3131.34
288.96	3581.90
289.18	3270.61
289.39	3047.38
289.61	3160.02
289.82	3940.29
290.04	3870.66
290.25	2973.65
290.47	3209.17
290.68	3401.68
290.90	3688.39
291.11	2889.68
291.33	3317.71
291.54	3246.03
291.76	3215.31
291.97	3286.99
292.18	3196.88
292.40	3379.15
292.61	3297.23
292.83	3397.58
293.04	3131.34
293.26	3495.88
293.47	3424.20
293.69	3057.62
293.90	2979.79
294.12	3729.35
294.33	3370.96
294.55	3196.88
294.76	3330.00
294.97	3764.17
295.19	3901.38
295.40	3100.62
295.62	3211.22
295.83	3626.95
296.05	3229.65
296.26	3416.01
296.48	3092.43
296.69	3391.44
296.90	3403.72
297.12	3299.28
297.33	3291.09
297.55	3461.07
297.76	3598.28
297.98	3221.45
298.19	3266.51
298.41	3440.59
298.62	3170.26
298.83	3342.28
299.05	3203.02
299.26	3397.58
299.48	3203.02
299.69	3213.26
299.90	3061.71
300.12	3192.78
300.33	3614.66
300.55	3127.25
300.76	3205.07
300.98	3262.41
301.19	3614.66
301.40	3071.95
301.62	3153.87
301.83	3606.47
302.05	3454.92
302.26	3026.90
302.47	3219.41
302.69	3153.87
302.90	3381.20
303.12	2971.60
303.33	3227.60
303.54	3917.76
303.76	3332.05
303.97	3010.51
304.19	3332.05
304.40	3246.03
304.61	3491.79
304.83	3221.45
305.04	3084.24
305.26	3629.00
305.47	3305.42
305.68	3076.05
305.90	3016.66
306.11	3739.59
306.33	3393.48
306.54	2987.99
306.75	2957.27
306.97	3209.17
307.18	3319.76
307.39	3067.86
307.61	3215.31
307.82	3418.06
308.04	3538.89
308.25	2936.79
308.46	3270.61
308.68	3373.00
308.89	3426.25
309.10	3229.65
309.32	3133.39
309.53	3510.22
309.74	3667.91
309.96	3045.33
310.17	3135.44
310.39	3332.05
310.60	3549.13
310.81	3149.78
311.03	3065.81
311.24	3647.43
311.45	3532.75
311.67	3416.01
311.88	3250.13
312.09	3346.38
312.31	3229.65
312.52	3004.37
312.73	3074.00
312.95	3104.72
313.16	3266.51
313.37	3309.52
313.59	3295.18
313.80	3610.57
314.01	3868.61
314.23	3082.19
314.44	3024.85
314.65	3172.30
314.87	3223.50
315.08	3069.91
315.29	3102.67
315.51	3198.93
315.72	3117.01
315.93	3137.49
316.15	3133.39
316.36	3258.32
316.57	3420.11
316.79	3041.23
317.00	3067.86
317.21	3534.79
317.43	3207.12
317.64	3069.91
317.85	3057.62
318.07	3295.18
318.28	3387.34
318.49	3114.96
318.70	3319.76
318.92	3534.79
319.13	3377.10
319.34	3229.65
319.56	3082.19
319.77	3555.27
319.98	3588.04
320.20	3366.86
320.41	3321.81
320.62	3524.55
320.83	3170.26
321.05	3303.37
321.26	3160.02
321.47	3475.40
321.69	3651.53
321.90	3008.47
322.11	3094.48
322.32	3432.40
322.54	3745.73
322.75	3092.43
322.96	4190.14
323.18	3139.54
323.39	3041.23
323.60	3049.43
323.81	3188.69
324.03	3395.53
324.24	3411.92
324.45	3237.84
324.66	3028.95
324.88	3667.91
325.09	3848.13
325.30	3037.14
325.52	2990.03
325.73	3532.75
325.94	3336.14
326.15	2975.70
326.37	2918.36
326.58	3557.32
326.79	3860.42
327.00	2967.51
327.22	3106.77
327.43	3264.46
327.64	3192.78
327.85	3168.21
328.07	3139.54
328.28	3885.00
328.49	3295.18
328.70	3110.86
328.92	3010.51
329.13	3483.59
329.34	3530.70
329.55	3413.96
329.76	3334.09
329.98	3426.25
330.19	3680.20
330.40	3139.54
330.61	3246.03
330.83	3667.91
331.04	3241.93
331.25	3178.45
331.46	3186.64
331.68	3270.61
331.89	3590.09
332.10	3102.67
332.31	2942.93
332.52	3481.55
332.74	3667.91
332.95	2949.08
333.16	3090.38
333.37	3614.66
333.58	3309.52
333.80	3143.63
334.01	2994.13
334.22	3373.00
334.43	3323.85
334.64	3049.43
334.86	3069.91
335.07	3264.46
335.28	3811.27
335.49	3033.04
335.70	3176.40
335.92	3870.66
336.13	3887.04
336.34	3170.26
336.55	3090.38
336.76	3569.61
336.98	3057.62
337.19	3125.20
337.40	3172.30
337.61	4112.32
337.82	3356.62
338.04	3200.98
338.25	2930.64
338.46	3356.62
338.67	3407.82
338.88	3028.95
339.09	2965.46
339.31	3413.96
339.52	3205.07
339.73	3119.06
339.94	3303.37
340.15	3594.19
340.36	3336.14
340.58	3133.39
340.79	3037.14
341.00	3569.61
341.21	3205.07
341.42	3381.20
341.63	3074.00
341.85	3663.82
342.06	3420.11
342.27	3033.04
342.48	3276.75
342.69	3123.15
342.90	3592.14
343.12	3528.65
343.33	3059.67
343.54	3667.91
343.75	3768.26
343.96	3192.78
344.17	3008.47
344.38	3338.19
344.60	3315.66
344.81	3098.58
345.02	3041.23
345.23	3680.20
345.44	4018.11
345.65	3172.30
345.86	3190.74
346.07	3450.83
346.29	3262.41
346.50	3213.26
346.71	3180.50
346.92	3788.74
347.13	3860.42
347.34	3270.61
347.55	2947.03
347.76	3551.18
347.98	3188.69
348.19	3151.82
348.40	3295.18
348.61	3373.00
348.82	3762.12
349.03	3147.73
349.24	3028.95
349.45	3936.20
349.66	3030.99
349.88	3016.66
350.09	3000.27
350.30	3725.26
350.51	3672.01
350.72	3321.81
350.93	3129.30
351.14	3336.14
351.35	3526.60
351.56	3092.43
351.77	3139.54
351.99	3557.32
352.20	3692.49
352.41	3194.83
352.62	2920.40
352.83	3418.06
353.04	3278.80
353.25	3127.25
353.46	3108.82
353.67	3680.20
353.88	3024.85
354.09	3010.51
354.30	3125.20
354.52	3581.90
354.73	3475.40
354.94	3141.58
355.15	3141.58
355.36	3850.18
355.57	3346.38
355.78	3000.27
355.99	3102.67
356.20	3401.68
356.41	3749.83
356.62	3127.25
356.83	3166.16
357.04	3758.02
357.25	3053.52
357.46	3049.43
357.68	2973.65
357.89	3248.08
358.10	3420.11
358.31	3020.75
358.52	3112.91
358.73	3231.69
358.94	3217.36
359.15	3131.34
359.36	3155.92
359.57	3459.02
359.78	3334.09
359.99	3321.81
360.20	2947.03
360.41	3409.87
360.62	3618.76
360.83	3082.19
361.04	3065.81
361.25	3563.47
361.46	3815.37
361.67	3254.22
361.88	3108.82
362.09	3622.86
362.30	3532.75
362.51	3041.23
362.72	3141.58
362.93	3557.32
363.14	3631.05
363.35	3127.25
363.56	3084.24
363.78	3674.06
363.99	3696.58
364.20	3100.62
364.41	3233.74
364.62	3868.61
364.83	3526.60
365.04	3090.38
365.25	3207.12
365.46	3893.19
365.67	3221.45
365.88	3364.81
366.09	3123.15
366.30	3373.00
366.51	3491.79
366.72	3041.23
366.93	3076.05
367.14	3485.64
367.35	3760.07
367.56	3061.71
367.77	3237.84
367.98	3438.54
368.18	3475.40
368.39	3229.65
368.60	3020.75
368.81	3581.90
369.02	3467.21
369.23	3094.48
369.44	2996.18
369.65	3405.77
369.86	3497.93
370.07	3174.35
370.28	3059.67
370.49	3516.36
370.70	3540.94
370.91	2994.13
371.12	2947.03
371.33	3710.92
371.54	3291.09
371.75	3239.89
371.96	2828.24
372.17	3512.27
372.38	3477.45
372.59	3051.47
372.80	3131.34
373.01	3418.06
373.22	3483.59
373.43	3043.28
373.64	2953.17
373.85	3647.43
374.06	3798.98
374.26	3235.79
374.47	3243.98
374.68	3841.99
374.89	3534.79
375.10	3112.91
375.31	3139.54
375.52	3411.92
375.73	3489.74
375.94	2959.31
376.15	3188.69
376.36	3299.28
376.57	3362.76
376.78	3176.40
376.99	3221.45
377.20	3721.16
377.40	3307.47
377.61	3418.06
377.82	3127.25
378.03	3729.35
378.24	3526.60
378.45	3205.07
378.66	3139.54
378.87	3108.82
379.08	3098.58
379.29	3227.60
379.50	3237.84
379.71	3422.16
379.91	3643.34
380.12	3082.19
380.33	3174.35
380.54	3381.20
380.75	3346.38
380.96	3141.58
381.17	3149.78
381.38	3473.36
381.59	3385.29
381.80	3213.26
382.00	3397.58
382.21	3444.68
382.42	3835.85
382.63	3471.31
382.84	3237.84
383.05	3616.71
383.26	3790.79
383.47	3295.18
383.68	3082.19
383.88	3528.65
384.09	3452.88
384.30	3319.76
384.51	3248.08
384.72	3307.47
384.93	3147.73
385.14	3227.60
385.35	3508.17
385.55	3155.92
385.76	3706.82
385.97	3160.02
386.18	3010.51
386.39	3317.71
386.60	3274.70
386.81	3086.29
387.02	3037.14
387.22	3184.59
387.43	3581.90
387.64	3252.17
387.85	3338.19
388.06	3385.29
388.27	4321.21
388.48	7266.19
388.68	10921.82
388.89	13952.81
389.10	14915.36
389.31	14460.71
389.52	11788.11
389.73	10352.48
389.93	9527.15
390.14	8554.37
390.35	7962.50
390.56	7313.30
390.77	6238.11
390.98	4698.04
391.18	4026.31
391.39	3934.15
391.60	3493.83
391.81	3360.72
392.02	3147.73
392.23	3979.20
392.43	3440.59
392.64	3221.45
392.85	3174.35
393.06	3815.37
393.27	3418.06
393.47	3145.68
393.68	3250.13
393.89	3284.94
394.10	3704.78
394.31	3143.63
394.52	3106.77
394.72	3284.94
394.93	3747.78
395.14	3053.52
395.35	3196.88
395.56	3270.61
395.76	3385.29
395.97	3102.67
396.18	3205.07
396.39	3401.68
396.60	4138.94
396.80	3491.79
397.01	3399.63
397.22	3606.47
397.43	3696.58
397.64	3155.92
397.84	3272.65
398.05	3850.18
398.26	3370.96
398.47	3256.27
398.67	3332.05
398.88	3493.83
399.09	3655.62
399.30	3090.38
399.51	3205.07
399.71	3264.46
399.92	3489.74
400.13	3235.79
400.34	3131.34
400.54	3479.50
400.75	3745.73
400.96	3227.60
401.17	3557.32
401.37	3571.66
401.58	3325.90
401.79	3155.92
402.00	3223.50
402.21	3897.28
402.41	3590.09
402.62	3368.91
402.83	3459.02
403.04	3772.36
403.24	4263.87
403.45	3198.93
403.66	3397.58
403.87	3596.23
404.07	3774.41
404.28	3336.14
404.49	3438.54
404.70	3551.18
404.90	3635.14
405.11	3114.96
405.32	3225.55
405.52	3248.08
405.73	3254.22
405.94	3133.39
406.15	3188.69
406.35	3626.95
406.56	3551.18
406.77	3160.02
406.98	3139.54
407.18	3352.52
407.39	3835.85
407.60	3125.20
407.80	3231.69
408.01	3377.10
408.22	3540.94
408.43	2992.08
408.63	3295.18
408.84	3680.20
409.05	3647.43
409.25	3080.14
409.46	3221.45
409.67	3352.52
409.88	3352.52
410.08	3205.07
410.29	3104.72
410.50	3620.81
410.70	3499.98
410.91	3024.85
411.12	3211.22
411.32	3471.31
411.53	3219.41
411.74	3239.89
411.95	3213.26
412.15	3422.16
412.36	3651.53
412.57	3327.95
412.77	3346.38
412.98	3370.96
413.19	3356.62
413.39	3172.30
413.60	3196.88
413.81	3721.16
414.01	3270.61
414.22	3205.07
414.43	3358.67
414.63	3340.24
414.84	3614.66
415.05	3143.63
415.25	3004.37
415.46	3600.33
415.67	3327.95
415.87	3264.46
416.08	3098.58
416.29	3346.38
416.49	3557.32
416.70	3162.06
416.91	3186.64
417.11	3323.85
417.32	3729.35
417.53	3252.17
417.73	3278.80
417.94	3436.49
418.15	3524.55
418.35	3229.65
418.56	3180.50
418.77	3973.06
418.97	3422.16
419.18	3315.66
419.38	2779.09
419.59	3497.93
419.80	3807.17
420.00	3104.72
420.21	3184.59
420.42	3721.16
420.62	3542.99
420.83	3098.58
421.04	3149.78
421.24	3418.06
421.45	3598.28
421.65	3221.45
421.86	3129.30
422.07	3680.20
422.27	3545.03
422.48	3053.52
422.69	2983.89
422.89	3405.77
423.10	3467.21
423.30	3174.35
423.51	3231.69
423.72	3520.46
423.92	3528.65
424.13	3090.38
424.33	3174.35
424.54	3631.05
424.75	3459.02
424.95	3383.24
425.16	3098.58
425.36	3336.14
425.57	3674.06
425.78	3352.52
425.98	3327.95
426.19	3389.39
426.39	3291.09
426.60	3252.17
426.81	3295.18
427.01	3620.81
427.22	3264.46
427.42	2949.08
427.63	3112.91
427.83	3631.05
428.04	3807.17
428.25	3194.83
428.45	3207.12
428.66	3672.01
428.86	3452.88
429.07	3184.59
429.28	3223.50
429.48	3452.88
429.69	3344.33
429.89	3278.80
430.10	3092.43
430.30	3528.65
430.51	3741.64
430.71	3071.95
430.92	3182.54
431.13	3356.62
431.33	3594.19
431.54	3286.99
431.74	3403.72
431.95	3901.38
432.15	3227.60
432.36	3096.53
432.56	3221.45
432.77	3911.62
432.98	3846.09
433.18	3182.54
433.39	3016.66
433.59	3495.88
433.80	3805.13
434.00	3327.95
434.21	3188.69
434.41	3309.52
434.62	3844.04
434.82	2951.12
435.03	3074.00
435.23	3579.85
435.44	3096.53
435.64	3129.30
435.85	3166.16
436.06	3692.49
436.26	3637.19
436.47	3133.39
436.67	3084.24
436.88	3428.30
437.08	3620.81
437.29	3305.42
437.49	3231.69
437.70	3731.40
437.90	3354.57
438.11	3426.25
438.31	3289.04
438.52	3704.78
438.72	3676.10
438.93	3459.02
439.13	3248.08
439.34	3688.39
439.54	3323.85
439.75	3272.65
439.95	3278.80
440.16	3282.89
440.36	3426.25
440.57	3176.40
440.77	3100.62
440.98	3438.54
441.18	3520.46
441.39	3123.15
441.59	3057.62
441.80	3841.99
442.00	3444.68
442.21	3229.65
442.41	3012.56
442.62	3743.69
442.82	3327.95
443.02	3176.40
443.23	3217.36
443.43	3389.39
443.64	3723.21
443.84	2977.75
444.05	3254.22
444.25	3430.35
444.46	3315.66
444.66	3157.97
444.87	3430.35
445.07	3147.73
445.28	3352.52
445.48	3381.20
445.69	3215.31
445.89	4018.11
446.09	3354.57
446.30	3416.01
446.50	3569.61
446.71	5013.43
446.91	6133.67
447.12	6971.29
447.32	7202.71
447.53	7468.94
447.73	6098.85
447.93	5230.51
448.14	5087.15
448.34	5443.50
448.55	4411.32
448.75	4351.93
448.96	4190.14
449.16	4173.76
449.36	3946.44
449.57	3407.82
449.77	3190.74
449.98	3336.14
450.18	3518.41
450.39	3076.05
450.59	3385.29
450.79	3442.64
451.00	3327.95
451.20	3381.20
451.41	3229.65
451.61	3553.23
451.81	3370.96
452.02	3094.48
452.22	3143.63
452.43	3272.65
452.63	3256.27
452.84	3239.89
453.04	3074.00
453.24	3594.19
453.45	3250.13
453.65	3192.78
453.86	3125.20
454.06	3471.31
454.26	3467.21
454.47	3088.34
454.67	3352.52
454.87	3514.31
455.08	3413.96
455.28	3319.76
455.49	3381.20
455.69	3196.88
455.89	3846.09
456.10	3258.32
456.30	3131.34
456.51	3604.42
456.71	3573.71
456.91	3274.70
457.12	3139.54
457.32	3639.24
457.52	3184.59
457.73	3379.15
457.93	3272.65
458.14	3303.37
458.34	3024.85
458.54	3229.65
458.75	3143.63
458.95	3549.13
459.15	3528.65
459.36	3203.02
459.56	3166.16
459.76	3928.00
459.97	3530.70
460.17	3162.06
460.37	3237.84
460.58	3502.03
460.78	3614.66
460.99	3188.69
461.19	3237.84
461.39	3354.57
461.60	3454.92
461.80	3211.22
462.00	3094.48
462.21	3401.68
462.41	3239.89
462.61	3051.47
462.82	3000.27
463.02	3594.19
463.22	3409.87
463.43	3225.55
463.63	3123.15
463.83	3831.75
464.04	3551.18
464.24	3123.15
464.44	3106.77
464.64	3477.45
464.85	3657.67
465.05	3155.92
465.25	3114.96
465.46	3327.95
465.66	3598.28
465.86	3250.13
466.07	3196.88
466.27	3438.54
466.47	3024.85
466.68	3059.67
466.88	3313.61
467.08	3588.04
467.29	3674.06
467.49	3237.84
467.69	3354.57
467.89	3520.46
468.10	3254.22
468.30	3264.46
468.50	3229.65
468.71	3518.41
468.91	3114.96
469.11	3325.90
469.31	3215.31
469.52	3205.07
469.72	3751.88
469.92	3362.76
470.13	3178.45
470.33	3428.30
470.53	3448.78
470.73	3469.26
470.94	3798.98
471.14	4077.51
471.34	4618.17
471.54	4110.27
471.75	3897.28
471.95	3735.50
472.15	3753.93
472.36	3735.50
472.56	3471.31
472.76	3909.57
472.96	3737.54
473.17	3313.61
473.37	3262.41
473.57	3413.96
473.77	3573.71
473.98	3405.77
474.18	3061.71
474.38	4024.26
474.58	3352.52
474.79	2942.93
474.99	3348.43
475.19	3645.38
475.39	3274.70
475.60	3243.98
475.80	3147.73
476.00	3426.25
476.20	3399.63
476.41	3266.51
476.61	3270.61
476.81	3753.93
477.01	3327.95
477.21	3461.07
477.42	3330.00
477.62	3278.80
477.82	3598.28
478.02	3170.26
478.23	3190.74
478.43	3235.79
478.63	3426.25
478.83	3207.12
479.03	3241.93
479.24	3739.59
479.44	3942.34
479.64	3145.68
479.84	3004.37
480.04	3344.33
480.25	3618.76
480.45	3129.30
480.65	3065.81
480.85	3807.17
481.06	3317.71
481.26	3286.99
481.46	3127.25
481.66	3553.23
481.86	3352.52
482.06	3405.77
482.27	3207.12
482.47	3303.37
482.67	3565.51
482.87	3188.69
483.07	3252.17
483.28	3256.27
483.48	3241.93
483.68	3119.06
483.88	3012.56
484.08	2975.70
484.29	3258.32
484.49	3246.03
484.69	2904.02
484.89	3723.21
485.09	3635.14
485.29	3157.97
485.50	3418.06
485.70	3332.05
485.90	3643.34
486.10	3297.23
486.30	3102.67
486.50	3715.02
486.71	3549.13
486.91	3178.45
487.11	3284.94
487.31	3172.30
487.51	3477.45
487.71	3133.39
487.91	3092.43
488.12	3282.89
488.32	2926.55
488.52	3119.06
488.72	2832.34
488.92	3465.16
489.12	3712.97
489.32	3243.98
489.53	3203.02
489.73	3143.63
489.93	3813.32
490.13	3186.64
490.33	3010.51
490.53	3516.36
490.73	3821.51
490.94	3028.95
491.14	3250.13
491.34	3610.57
491.54	3612.62
491.74	3966.92
491.94	4483.00
492.14	5138.35
492.34	5281.71
492.54	4657.08
492.75	4048.83
492.95	4489.15
493.15	4147.14
493.35	3852.23
493.55	3712.97
493.75	3782.60
493.95	4065.22
494.15	3442.64
494.35	3213.26
494.56	3377.10
494.76	3323.85
494.96	3358.67
495.16	3117.01
495.36	3446.73
495.56	3448.78
495.76	3215.31
495.96	3229.65
496.16	3262.41
496.36	3860.42
496.56	3102.67
496.77	3299.28
496.97	3340.24
497.17	3794.89
497.37	3039.19
497.57	3229.65
497.77	3616.71
497.97	3239.89
498.17	3131.34
498.37	3153.87
498.57	3467.21
498.77	3370.96
498.97	3286.99
499.17	3493.83
499.38	3383.24
499.58	3581.90
499.78	3342.28
499.98	3325.90
500.18	3360.72
500.38	3217.36
500.58	3340.24
500.78	3760.07
500.98	6119.33
501.18	7772.04
501.38	9111.41
501.58	9910.12
501.78	10057.57
501.98	8333.18
502.18	7161.75
502.38	6236.06
502.58	6229.92
502.78	5533.61
502.98	5294.00
503.18	5023.67
503.38	4868.02
503.59	4151.23
503.79	4003.78
503.99	3712.97
504.19	3921.86
504.39	3876.80
504.59	3655.62
504.79	3557.32
504.99	3948.48
505.19	3704.78
505.39	3340.24
505.59	3493.83
505.79	3762.12
505.99	3557.32
506.19	3164.11
506.39	3459.02
506.59	3336.14
506.79	3375.05
506.99	3401.68
507.19	3108.82
507.39	3553.23
507.59	3090.38
507.79	3192.78
507.99	3151.82
508.19	3401.68
508.39	3334.09
508.59	3215.31
508.79	3286.99
508.99	3880.90
509.19	3305.42
509.39	3233.74
509.59	3041.23
509.79	3330.00
509.99	3524.55
510.19	3274.70
510.39	3299.28
510.59	3534.79
510.79	3262.41
510.99	3049.43
511.19	3198.93
511.39	3874.76
511.59	3690.44
511.79	3385.29
511.99	3049.43
512.19	3807.17
512.38	3446.73
512.58	3110.86
512.78	3076.05
512.98	3674.06
513.18	3887.04
513.38	3088.34
513.58	3194.83
513.78	3430.35
513.98	3385.29
514.18	3135.44
514.38	3164.11
514.58	3461.07
514.78	3323.85
514.98	3100.62
515.18	3196.88
515.38	3213.26
515.58	3819.46
515.78	3170.26
515.98	3176.40
516.18	3647.43
516.38	3510.22
516.57	3078.10
516.77	3160.02
516.97	3682.25
517.17	3291.09
517.37	2992.08
517.57	3196.88
517.77	3426.25
517.97	3237.84
518.17	3274.70
518.37	3049.43
518.57	3350.48
518.77	3368.91
518.97	3254.22
519.16	3221.45
519.36	3624.90
519.56	3373.00
519.76	3088.34
519.96	3164.11
520.16	3745.73
520.36	3213.26
520.56	3411.92
520.76	3131.34
520.96	3332.05
521.16	3610.57
521.35	3416.01
521.55	3286.99
521.75	3456.97
521.95	3327.95
522.15	3080.14
522.35	3061.71
522.55	3229.65
522.75	3651.53
522.95	3022.80
523.14	2987.99
523.34	3422.16
523.54	3260.37
523.74	3377.10
523.94	3311.57
524.14	3090.38
524.34	3536.84
524.54	3379.15
524.73	3108.82
524.93	3577.80
525.13	3444.68
525.33	3041.23
525.53	3354.57
525.73	3649.48
525.93	3454.92
526.13	3196.88
526.32	3033.04
526.52	3698.63
526.72	3598.28
526.92	3168.21
527.12	3110.86
527.32	3090.38
527.52	3461.07
527.71	3164.11
527.91	3198.93
528.11	3354.57
528.31	3428.30
528.51	3166.16
528.71	3299.28
528.90	3542.99
529.10	3590.09
529.30	3153.87
529.50	2934.74
529.70	3516.36
529.90	3360.72
530.09	3143.63
530.29	3074.00
530.49	3303.37
530.69	4075.46
530.89	3373.00
531.09	3231.69
531.28	3352.52
531.48	3678.15
531.68	3184.59
531.88	3157.97
532.08	3516.36
532.28	3377.10
532.47	3248.08
532.67	3284.94
532.87	3532.75
533.07	3203.02
533.27	3205.07
533.46	3205.07
533.66	3540.94
533.86	3422.16
534.06	3211.22
534.26	3151.82
534.45	3297.23
534.65	3663.82
534.85	3188.69
535.05	3078.10
535.25	3604.42
535.44	3074.00
535.64	3186.64
535.84	3209.17
536.04	3297.23
536.24	3393.48
536.43	3086.29
536.63	3084.24
536.83	3428.30
537.03	3424.20
537.22	2947.03
537.42	3018.71
537.62	3504.07
537.82	3291.09
538.02	3317.71
538.21	3248.08
538.41	4040.64
538.61	3557.32
538.81	3219.41
539.00	3368.91
539.20	3098.58
539.40	3344.33
539.60	3127.25
539.79	3422.16
539.99	3434.44
540.19	3225.55
540.39	3117.01
540.58	3284.94
540.78	3608.52
540.98	3446.73
541.18	3444.68
541.37	3229.65
541.57	3530.70
541.77	3545.03
541.97	3092.43
542.16	3016.66
542.36	3319.76
542.56	3327.95
542.76	3278.80
542.95	3282.89
543.15	3555.27
543.35	3614.66
543.54	3078.10
543.74	2996.18
543.94	3741.64
544.14	3330.00
544.33	3254.22
544.53	3164.11
544.73	3491.79
544.93	3303.37
545.12	3139.54
545.32	3119.06
545.52	3317.71
545.71	3213.26
545.91	3155.92
546.11	3166.16
546.30	3160.02
546.50	3409.87
546.70	3268.56
546.90	3174.35
547.09	3016.66
547.29	3434.44
547.49	3256.27
547.68	3227.60
547.88	3258.32
548.08	3508.17
548.27	3514.31
548.47	3168.21
548.67	3338.19
548.87	3512.27
549.06	3098.58
549.26	3010.51
549.46	3557.32
549.65	3330.00
549.85	3147.73
550.05	3192.78
550.24	3094.48
550.44	3467.21
550.64	3198.93
550.83	3280.85
551.03	3778.50
551.23	3657.67
551.42	3225.55
551.62	3188.69
551.82	3358.67
552.01	3416.01
552.21	3506.12
552.41	3182.54
552.60	3753.93
552.80	3434.44
553.00	3151.82
553.19	3221.45
553.39	3872.71
553.59	3198.93
553.78	3360.72
553.98	3160.02
554.17	3114.96
554.37	3565.51
554.57	3266.51
554.76	2979.79
554.96	3311.57
555.16	3389.39
555.35	3239.89
555.55	3327.95
555.75	3479.50
555.94	3608.52
556.14	2965.46
556.33	3229.65
556.53	3413.96
556.73	3389.39
556.92	3176.40
557.12	3117.01
557.32	3917.76
557.51	3753.93
557.71	3266.51
557.90	3352.52
558.10	3708.87
558.30	3346.38
558.49	3207.12
558.69	3200.98
558.88	3518.41
559.08	3395.53
559.28	3239.89
559.47	3182.54
559.67	3606.47
559.86	3839.94
560.06	3100.62
560.26	3112.91
560.45	3618.76
560.65	3383.24
560.84	3456.97
561.04	3057.62
561.24	3588.04
561.43	3166.16
561.63	3491.79
561.82	3360.72
562.02	3532.75
562.22	3225.55
562.41	3076.05
562.61	3055.57
562.80	3221.45
563.00	4018.11
563.19	3254.22
563.39	3235.79
563.59	3444.68
563.78	3162.06
563.98	2916.31
564.17	3215.31
564.37	2975.70
564.56	3493.83
564.76	3084.24
564.96	3301.33
565.15	3522.51
565.35	4007.87
565.54	3243.98
565.74	3172.30
565.93	3510.22
566.13	3411.92
566.32	3241.93
566.52	3295.18
566.71	3426.25
566.91	3577.80
567.11	3266.51
567.30	3096.53
567.50	3516.36
567.69	3573.71
567.89	3067.86
568.08	3065.81
568.28	3512.27
568.47	3160.02
568.67	3164.11
568.86	3114.96
569.06	3616.71
569.25	3266.51
569.45	3096.53
569.64	3235.79
569.84	3342.28
570.04	3499.98
570.23	3143.63
570.43	3280.85
570.62	3571.66
570.82	3735.50
571.01	3067.86
571.21	3180.50
571.40	3297.23
571.60	3573.71
571.79	3229.65
571.99	3108.82
572.18	3174.35
572.38	3510.22
572.57	3276.75
572.77	3260.37
572.96	3950.53
573.16	3487.69
573.35	3141.58
573.55	3313.61
573.74	3512.27
573.94	3356.62
574.13	3102.67
574.33	3327.95
574.52	3766.21
574.71	3442.64
574.91	3217.36
575.10	3055.57
575.30	3327.95
575.49	3182.54
575.69	3170.26
575.88	3074.00
576.08	3434.44
576.27	3622.86
576.47	3106.77
576.66	3323.85
576.86	3758.02
577.05	3483.59
577.25	3213.26
577.44	3325.90
577.64	3295.18
577.83	3678.15
578.02	3135.44
578.22	3362.76
578.41	3831.75
578.61	3370.96
578.80	3022.80
579.00	3178.45
579.19	3340.24
579.39	3565.51
579.58	3252.17
579.77	3213.26
579.97	3633.10
580.16	3639.24
580.36	3332.05
580.55	3256.27
580.75	3491.79
580.94	3401.68
581.13	3409.87
581.33	3377.10
581.52	3358.67
581.72	3852.23
581.91	3203.02
582.11	3174.35
582.30	3622.86
582.49	3506.12
582.69	3495.88
582.88	3166.16
583.08	3508.17
583.27	3657.67
583.47	3364.81
583.66	3143.63
583.85	3237.84
584.05	3446.73
584.24	3313.61
584.44	3164.11
584.63	3573.71
584.82	3753.93
585.02	3389.39
585.21	3346.38
585.41	3581.90
585.60	3456.97
585.79	3409.87
585.99	3487.69
586.18	3413.96
586.37	4442.04
586.57	6721.43
586.76	18495.21
586.96	37412.29
587.15	49669.39
587.34	58133.64
587.54	61135.96
587.73	53667.02
587.93	39040.43
588.12	30012.98
588.31	24723.08
588.51	21950.13
588.70	20623.05
588.89	18038.51
589.09	15150.87
589.28	13250.36
589.47	10375.01
589.67	7798.66
589.86	6279.07
590.06	5060.53
590.25	4554.68
590.44	3841.99
590.64	3540.94
590.83	3667.91
591.02	3686.34
591.22	3270.61
591.41	3246.03
591.60	3368.91
591.80	3917.76
591.99	3033.04
592.18	3295.18
592.38	3612.62
592.57	3278.80
592.76	3117.01
592.96	3246.03
593.15	3397.58
593.34	3672.01
593.54	3174.35
593.73	3385.29
593.92	3483.59
594.12	3530.70
594.31	3190.74
594.50	3475.40
594.70	3624.90
594.89	4100.03
595.08	3047.38
595.28	3321.81
595.47	4149.18
595.66	3698.63
595.86	3141.58
596.05	3055.57
596.24	3370.96
596.43	3798.98
596.63	3221.45
596.82	3373.00
597.01	3432.40
597.21	3895.24
597.40	3221.45
597.59	3262.41
597.79	3327.95
597.98	3579.85
598.17	3311.57
598.36	3223.50
598.56	3682.25
598.75	3336.14
598.94	3176.40
599.14	3248.08
599.33	3373.00
599.52	3639.24
599.71	3241.93
599.91	3211.22
600.10	3499.98
600.29	3508.17
600.48	3321.81
600.68	3336.14
600.87	3526.60
601.06	3327.95
601.26	3340.24
601.45	3364.81
601.64	3420.11
601.83	3725.26
602.03	3047.38
602.22	3063.76
602.41	3721.16
602.60	3942.34
602.80	3297.23
602.99	3461.07
603.18	3352.52
603.37	3426.25
603.57	3090.38
603.76	3266.51
603.95	3684.30
604.14	3377.10
604.34	3047.38
604.53	3149.78
604.72	3493.83
604.91	3610.57
605.10	3178.45
605.30	3067.86
605.49	3934.15
605.68	3610.57
605.87	3149.78
606.07	3164.11
606.26	3461.07
606.45	3555.27
606.64	3248.08
606.84	3026.90
607.03	3481.55
607.22	3655.62
607.41	3264.46
607.60	3119.06
607.80	3614.66
607.99	3397.58
608.18	3270.61
608.37	3207.12
608.56	3389.39
608.76	3696.58
608.95	3327.95
609.14	3147.73
609.33	3753.93
609.52	3766.21
609.72	3239.89
609.91	3327.95
610.10	3485.64
610.29	3712.97
610.48	3198.93
610.68	3352.52
610.87	3434.44
611.06	3594.19
611.25	3196.88
611.44	3346.38
611.63	3413.96
611.83	3706.82
612.02	3096.53
612.21	3313.61
612.40	3069.91
612.59	3135.44
612.79	3125.20
612.98	3276.75
613.17	3874.76
613.36	3483.59
613.55	3303.37
613.74	3094.48
613.93	3471.31
614.13	3536.84
614.32	3356.62
614.51	3215.31
614.70	3348.43
614.89	3344.33
615.08	3366.86
615.28	3524.55
615.47	3114.96
615.66	3616.71
615.85	3207.12
616.04	3270.61
616.23	3559.37
616.42	3360.72
616.62	3149.78
616.81	3239.89
617.00	3348.43
617.19	3538.89
617.38	3221.45
617.57	3303.37
617.76	3549.13
617.95	3602.38
618.15	3340.24
618.34	3463.12
618.53	3174.35
618.72	3649.48
618.91	3274.70
619.10	3293.13
619.29	3370.96
619.48	3454.92
619.68	2996.18
619.87	3178.45
620.06	3090.38
620.25	3557.32
620.44	3074.00
620.63	3094.48
620.82	3467.21
621.01	3506.12
621.20	3256.27
621.39	3237.84
621.59	3534.79
621.78	3405.77
621.97	3241.93
622.16	3368.91
622.35	3536.84
622.54	3626.95
622.73	3241.93
622.92	2912.21
623.11	3737.54
623.30	3373.00
623.49	3354.57
623.68	2992.08
623.88	3782.60
624.07	3368.91
624.26	3098.58
624.45	3082.19
624.64	3446.73
624.83	3563.47
625.02	3174.35
625.21	3229.65
625.40	3510.22
625.59	3835.85
625.78	3286.99
625.97	3237.84
626.16	3743.69
626.35	3547.08
626.54	3196.88
626.74	3354.57
626.93	3305.42
627.12	3483.59
627.31	3186.64
627.50	3172.30
627.69	3536.84
627.88	3254.22
628.07	3114.96
628.26	3004.37
628.45	3393.48
628.64	3282.89
628.83	3188.69
629.02	3043.28
629.21	3579.85
629.40	3475.40
629.59	3065.81
629.78	3211.22
629.97	3434.44
630.16	3424.20
630.35	3207.12
630.54	3248.08
630.73	3256.27
630.92	3440.59
631.11	3098.58
631.30	3252.17
631.49	3680.20
631.68	3403.72
631.87	3180.50
632.06	3139.54
632.25	3983.30
632.44	3416.01
632.63	3237.84
632.82	3164.11
633.01	3164.11
633.20	3477.45
633.39	3139.54
633.58	2971.60
633.77	3551.18
633.96	3506.12
634.15	3299.28
634.34	3352.52
634.53	3575.75
634.72	3358.67
634.91	2973.65
635.10	3102.67
635.29	3643.34
635.48	3467.21
635.67	3078.10
635.86	3074.00
636.05	3831.75
636.24	3461.07
636.43	3147.73
636.62	3270.61
636.81	2881.49
637.00	3485.64
637.19	3190.74
637.38	3217.36
637.57	3307.47
637.76	3330.00
637.95	3454.92
638.14	3327.95
638.33	3489.74
638.52	3428.30
638.71	3049.43
638.89	3018.71
639.08	3966.92
639.27	3657.67
639.46	3379.15
639.65	3641.29
639.84	3829.70
640.03	4026.31
640.22	3528.65
640.41	3526.60
640.60	3504.07
640.79	3581.90
640.98	3444.68
641.17	3469.26
641.36	3545.03
641.55	3674.06
641.74	3059.67
641.92	3065.81
642.11	3295.18
642.30	3416.01
642.49	3022.80
642.68	3135.44
642.87	3647.43
643.06	3542.99
643.25	2992.08
643.44	3076.05
643.63	3465.16
643.82	3557.32
644.00	3014.61
644.19	3213.26
644.38	3233.74
644.57	3676.10
644.76	3198.93
644.95	3243.98
645.14	3467.21
645.33	3393.48
645.52	3321.81
645.71	3033.04
645.89	3172.30
646.08	3364.81
646.27	3180.50
646.46	3401.68
646.65	3176.40
646.84	3428.30
647.03	3090.38
647.22	3344.33
647.40	3518.41
647.59	3401.68
647.78	2992.08
647.97	3284.94
648.16	3231.69
648.35	3749.83
648.54	3491.79
648.73	3192.78
648.91	3594.19
649.10	3499.98
649.29	3108.82
649.48	3117.01
649.67	3571.66
649.86	3393.48
650.05	3254.22
650.23	3278.80
650.42	3280.85
650.61	3682.25
650.80	3504.07
650.99	3413.96
651.18	3631.05
651.36	3594.19
651.55	3147.73
651.74	3389.39
651.93	3354.57
652.12	3418.06
652.31	3231.69
652.49	3213.26
652.68	3303.37
652.87	3717.06
653.06	3352.52
653.25	3512.27
653.44	3467.21
653.62	3876.80
653.81	3207.12
654.00	3225.55
654.19	3545.03
654.38	3966.92
654.56	3241.93
654.75	3055.57
654.94	3690.44
655.13	3456.97
655.32	3067.86
655.51	3256.27
655.69	3262.41
655.88	3631.05
656.07	2992.08
656.26	3217.36
656.45	3205.07
656.63	3354.57
656.82	3205.07
657.01	3534.79
657.20	3356.62
657.38	3704.78
657.57	2992.08
657.76	2975.70
657.95	3618.76
658.14	3352.52
658.32	3293.13
658.51	3016.66
658.70	3514.31
658.89	3477.45
659.08	3231.69
659.26	3426.25
659.45	3213.26
659.64	3434.44
659.83	3065.81
660.01	3608.52
660.20	3450.83
660.39	3784.65
660.58	2826.20
660.76	3235.79
660.95	3114.96
661.14	3499.98
661.33	3014.61
661.51	3270.61
661.70	3190.74
661.89	3520.46
662.08	3200.98
662.26	3043.28
662.45	3213.26
662.64	3829.70
662.83	3248.08
663.01	3078.10
663.20	3266.51
663.39	3727.30
663.58	3203.02
663.76	3114.96
663.95	3530.70
664.14	3272.65
664.32	3223.50
664.51	3080.14
664.70	3092.43
664.89	3549.13
665.07	3061.71
665.26	3336.14
665.45	3166.16
665.64	3573.71
665.82	3114.96
666.01	3368.91
666.20	3135.44
666.38	3643.34
666.57	3524.55
666.76	5672.87
666.95	12744.51
667.13	18720.48
667.32	22476.46
667.51	25063.04
667.69	25910.90
667.88	20987.58
668.07	15398.68
668.25	13088.57
668.44	11638.61
668.63	10252.13
668.81	8908.66
669.00	7778.19
669.19	7303.06
669.38	6410.14
669.56	5334.96
669.75	4782.01
669.94	4272.06
670.12	3835.85
670.31	3422.16
670.50	3504.07
670.68	3606.47
670.87	3479.50
671.06	3149.78
671.24	3315.66
671.43	3755.97
671.62	3418.06
671.80	3141.58
671.99	3336.14
672.18	3424.20
672.36	3633.10
672.55	3323.85
672.74	3286.99
672.92	3409.87
673.11	3575.75
673.29	3045.33
673.48	3422.16
673.67	3358.67
673.85	3598.28
674.04	3084.24
674.23	3207.12
674.41	3827.65
674.60	3225.55
674.79	3065.81
674.97	3084.24
675.16	3616.71
675.34	3708.87
675.53	3190.74
675.72	3319.76
675.90	3803.08
676.09	3313.61
676.28	3321.81
676.46	3059.67
676.65	3577.80
676.83	3297.23
677.02	3215.31
677.21	3305.42
677.39	3418.06
677.58	3262.41
677.77	3170.26
677.95	3092.43
678.14	3387.34
678.32	3358.67
678.51	3205.07
678.70	3538.89
678.88	3327.95
679.07	3510.22
679.25	3188.69
679.44	3239.89
679.63	3141.58
679.81	3487.69
680.00	3454.92
680.18	3262.41
680.37	3751.88
680.55	3602.38
680.74	2959.31
680.93	2828.24
681.11	3409.87
681.30	3401.68
681.48	3186.64
681.67	3270.61
681.85	3395.53
682.04	3248.08
682.23	3278.80
682.41	3395.53
682.60	3407.82
682.78	3342.28
682.97	3063.76
683.15	3176.40
683.34	3524.55
683.53	3770.31
683.71	3071.95
683.90	3180.50
684.08	3663.82
684.27	3258.32
684.45	3276.75
684.64	3254.22
684.82	3385.29
685.01	3555.27
685.19	3205.07
685.38	3450.83
685.57	3432.40
685.75	3241.93
685.94	3121.10
686.12	3067.86
686.31	3411.92
686.49	3854.28
686.68	2983.89
686.86	3153.87
687.05	3344.33
687.23	3786.69
687.42	3200.98
687.60	2994.13
687.79	3577.80
687.97	3715.02
688.16	3293.13
688.34	3385.29
688.53	3110.86
688.71	3545.03
688.90	3454.92
689.08	3274.70
689.27	3149.78
689.45	3538.89
689.64	3381.20
689.82	3246.03
690.01	3549.13
690.19	3534.79
690.38	3327.95
690.56	3295.18
690.75	3186.64
690.93	3368.91
691.12	3155.92
691.30	3235.79
691.49	3311.57
691.67	3459.02
691.86	3469.26
692.04	3215.31
692.23	3387.34
692.41	3424.20
692.60	3547.08
692.78	3309.52
692.97	3434.44
693.15	3561.42
693.34	3418.06
693.52	3346.38
693.71	3262.41
693.89	3358.67
694.08	2951.12
694.26	3297.23
694.44	3581.90
694.63	3633.10
694.81	3141.58
695.00	3319.76
695.18	3700.68
695.37	4022.21
695.55	3282.89
695.74	3299.28
695.92	3270.61
696.10	3672.01
696.29	3028.95
696.47	3211.22
696.66	3205.07
696.84	3127.25
697.03	3260.37
697.21	3514.31
697.40	4798.39
697.58	3733.45
697.76	3174.35
697.95	3188.69
698.13	3166.16
698.32	3330.00
698.50	3164.11
698.68	3215.31
698.87	3510.22
699.05	3827.65
699.24	3141.58
699.42	3203.02
699.61	3426.25
699.79	3459.02
699.97	3229.65
700.16	3033.04
700.34	3135.44
700.53	3512.27
700.71	3475.40
700.89	3354.57
701.08	3360.72
701.26	3340.24
701.45	3463.12
701.63	3200.98
701.81	3301.33
702.00	3231.69
702.18	3315.66
702.37	3198.93
702.55	3700.68
702.73	3516.36
702.92	3184.59
703.10	3573.71
703.28	3594.19
703.47	3184.59
703.65	3499.98
703.84	3248.08
704.02	3325.90
704.20	3737.54
704.39	3180.50
704.57	3207.12
704.75	3647.43
704.94	3506.12
705.12	3350.48
705.30	3932.10
705.49	8177.54
705.67	14671.65
705.86	19195.61
706.04	21677.75
706.22	23975.57
706.41	22652.58
706.59	16774.91
706.77	13668.14
706.96	11747.15
707.14	10950.49
707.32	9412.46
707.51	8132.48
707.69	6989.72
707.87	5910.44
708.06	4784.06
708.24	4265.92
708.42	4061.12
708.61	4220.86
708.79	3289.04
708.97	3327.95
709.16	3581.90
709.34	3538.89
709.52	3252.17
709.71	3276.75
709.89	3540.94
710.07	3209.17
710.26	3082.19
710.44	3280.85
710.62	3686.34
710.80	3438.54
710.99	3338.19
711.17	3321.81
711.35	3280.85
711.54	3305.42
711.72	3323.85
711.90	3248.08
712.09	3522.51
712.27	3291.09
712.45	3303.37
712.63	3166.16
712.82	3497.93
713.00	3422.16
713.18	3325.90
713.37	3420.11
713.55	3655.62
713.73	3520.46
713.91	3309.52
714.10	3215.31
714.28	3428.30
714.46	3479.50
714.65	3319.76
714.83	3274.70
715.01	3504.07
715.19	3491.79
715.38	3151.82
715.56	3352.52
715.74	3321.81
715.92	3327.95
716.11	3403.72
716.29	3000.27
716.47	3440.59
716.65	3368.91
716.84	3104.72
717.02	3246.03
717.20	3059.67
717.38	3205.07
717.57	3364.81
717.75	3291.09
717.93	3379.15
718.11	3483.59
718.30	3074.00
718.48	3209.17
718.66	3710.92
718.84	3672.01
719.03	3182.54
719.21	3065.81
719.39	3796.93
719.57	3567.56
719.75	3327.95
719.94	3057.62
720.12	3403.72
720.30	3409.87
720.48	3246.03
720.67	3231.69
720.85	3203.02
721.03	3409.87
721.21	3262.41
721.39	3327.95
721.58	3495.88
721.76	3495.88
721.94	3239.89
722.12	3401.68
722.30	3766.21
722.49	3235.79
722.67	3223.50
722.85	3219.41
723.03	3200.98
723.21	3303.37
723.40	3297.23
723.58	3332.05
723.76	3499.98
723.94	3606.47
724.12	3141.58
724.30	3477.45
724.49	3696.58
724.67	3231.69
724.85	3264.46
725.03	3061.71
725.21	3565.51
725.40	3717.06
725.58	3205.07
725.76	3356.62
725.94	3516.36
726.12	3229.65
726.30	3295.18
726.49	3112.91
726.67	3327.95
726.85	3567.56
727.03	3928.00
727.21	4956.08
727.39	6217.63
727.57	6479.77
727.76	6844.31
727.94	6678.43
728.12	5908.39
728.30	5025.72
728.48	4831.16
728.66	4575.16
728.84	4343.74
729.03	3999.68
729.21	3669.96
729.39	3518.41
729.57	3422.16
729.75	3569.61
729.93	3463.12
730.11	3221.45
730.30	3342.28
730.48	3432.40
730.66	3268.56
730.84	3305.42
731.02	3459.02
731.20	3368.91
731.38	3237.84
731.56	3028.95
731.74	3147.73
731.93	3557.32
732.11	3407.82
732.29	3207.12
732.47	3555.27
732.65	3409.87
732.83	3430.35
733.01	3395.53
733.19	3289.04
733.37	3567.56
733.56	3241.93
733.74	3160.02
733.92	3749.83
734.10	3336.14
734.28	3377.10
734.46	3065.81
734.64	3344.33
734.82	3416.01
735.00	3153.87
735.18	3149.78
735.36	3383.24
735.54	3379.15
735.73	3131.34
735.91	3350.48
736.09	3739.59
736.27	3467.21
736.45	3280.85
736.63	3012.56
736.81	3338.19
736.99	3655.62
737.17	3385.29
737.35	3196.88
737.53	3516.36
737.71	3442.64
737.89	3381.20
738.07	3143.63
738.25	3278.80
738.43	3143.63
738.61	3223.50
738.80	3088.34
738.98	3268.56
739.16	3307.47
739.34	3188.69
739.52	3536.84
739.70	3428.30
739.88	3639.24
740.06	3407.82
740.24	2967.51
740.42	3741.64
740.60	3143.63
740.78	3274.70
740.96	2992.08
741.14	3350.48
741.32	3436.49
741.50	3033.04
741.68	3403.72
741.86	3809.22
742.04	3299.28
742.22	3090.38
742.40	3221.45
742.58	3610.57
742.76	3289.04
742.94	3420.11
743.12	3053.52
743.30	3413.96
743.48	3526.60
743.66	3100.62
743.84	3229.65
744.02	3426.25
744.20	3370.96
744.38	3121.10
744.56	3196.88
744.74	3784.65
744.92	3497.93
745.10	3446.73
745.28	3276.75
745.46	3745.73
745.64	3360.72
745.82	3215.31
746.00	3149.78
746.18	3524.55
746.36	3264.46
746.54	3340.24
746.72	3268.56
746.90	3217.36
747.08	3749.83
747.26	3211.22
747.44	3334.09
747.62	3565.51
747.80	3600.33
747.98	3284.94
748.15	3211.22
748.33	3770.31
748.51	3493.83
748.69	3321.81
748.87	3098.58
749.05	3368.91
749.23	3461.07
749.41	3166.16
749.59	3114.96
749.77	3674.06
749.95	3295.18
750.13	3231.69
750.31	3366.86
750.49	3356.62
750.67	3680.20
750.85	3325.90
751.03	3192.78
751.20	3930.05
751.38	3491.79
751.56	3172.30
751.74	3239.89
751.92	3307.47
752.10	3221.45
752.28	3373.00
752.46	3207.12
752.64	3401.68
752.82	3444.68
753.00	3254.22
753.18	3162.06
753.35	3387.34
753.53	3379.15
753.71	3119.06
753.89	3246.03
754.07	3467.21
754.25	3633.10
754.43	3289.04
754.61	3026.90
754.79	3534.79
754.97	3463.12
755.14	3385.29
755.32	3166.16
755.50	3446.73
755.68	3465.16
755.86	3141.58
756.04	3164.11
756.22	3006.42
756.40	3567.56
756.57	3387.34
756.75	3215.31
756.93	3684.30
757.11	3585.99
757.29	3069.91
757.47	3139.54
757.65	3155.92
757.82	3012.56
758.00	3172.30
758.18	3096.53
758.36	3286.99
758.54	3747.78
758.72	3088.34
758.90	3327.95
759.07	3489.74
759.25	3282.89
759.43	3293.13
759.61	3065.81
759.79	4693.94
759.97	3612.62
760.15	3151.82
760.32	3104.72
760.50	3475.40
760.68	3794.89
760.86	3078.10
761.04	3487.69
761.22	3663.82
761.39	3450.83
761.57	3325.90
761.75	3160.02
761.93	3565.51
762.11	3375.05
762.28	3297.23
762.46	3047.38
762.64	3672.01
762.82	3180.50
763.00	3047.38
763.18	3471.31
763.35	3248.08
763.53	3614.66
763.71	3254.22
763.89	3139.54
764.07	3442.64
764.24	3440.59
764.42	3262.41
764.60	3170.26
764.78	3598.28
764.96	3614.66
765.13	3450.83
765.31	3078.10
765.49	3641.29
765.67	3237.84
765.84	3131.34
766.02	3182.54
766.20	3078.10
766.38	3545.03
766.56	3358.67
766.73	3321.81
766.91	3377.10
767.09	3291.09
767.27	3270.61
767.44	3074.00
767.62	3641.29
767.80	3522.51
767.98	3121.10
768.15	3141.58
768.33	3631.05
768.51	3573.71
768.69	3301.33
768.87	3241.93
769.04	3483.59
769.22	4038.59
769.40	3319.76
769.58	3344.33
769.75	3565.51
769.93	3764.17
770.11	3272.65
770.28	3121.10
770.46	3631.05
770.64	3516.36
770.82	3147.73
770.99	3094.48
771.17	3585.99
771.35	3395.53
771.53	3233.74
771.70	3188.69
771.88	3600.33
772.06	3409.87
772.23	3131.34
772.41	3256.27
772.59	3450.83
772.77	3233.74
772.94	3252.17
773.12	3237.84
773.30	3407.82
773.47	3375.05
773.65	3125.20
773.83	3317.71
774.01	3475.40
774.18	2977.75
774.36	3096.53
774.54	3065.81
774.71	3559.37
774.89	3135.44
775.07	3041.23
775.24	3139.54
775.42	3297.23
775.60	3854.28
775.78	3143.63
775.95	3080.14
776.13	3106.77
776.31	3133.39
776.48	3383.24
776.66	3389.39
776.84	3334.09
777.01	3203.02
777.19	3067.86
777.37	3127.25
777.54	3631.05
777.72	3876.80
777.90	3282.89
778.07	3065.81
778.25	4122.56
778.43	3567.56
778.60	3209.17
778.78	3340.24
778.96	3749.83
779.13	3182.54
779.31	3219.41
779.49	3289.04
779.66	3516.36
779.84	3387.34
780.01	3188.69
780.19	3067.86
780.37	3819.46
780.54	3614.66
780.72	3090.38
780.90	3180.50
781.07	3428.30
781.25	3266.51
781.43	3463.12
781.60	3188.69
781.78	3684.30
781.95	3495.88
782.13	3155.92
782.31	3108.82
782.48	3061.71
782.66	3454.92
782.83	3446.73
783.01	3387.34
783.19	3575.75
783.36	3456.97
783.54	3178.45
783.72	3356.62
783.89	3327.95
784.07	3497.93
784.24	3303.37
784.42	3403.72
784.60	3516.36
784.77	3522.51
784.95	2852.82
785.12	3145.68
785.30	3518.41
785.47	3203.02
785.65	3057.62
785.83	3215.31
786.00	3315.66
786.18	3516.36
786.35	3106.77
786.53	3196.88
786.71	3659.72
786.88	3616.71
787.06	3278.80
787.23	3231.69
787.41	3246.03
787.58	3291.09
787.76	3078.10
787.94	3215.31
788.11	3569.61
788.29	3256.27
788.46	3235.79
788.64	3030.99
788.81	3364.81
788.99	3164.11
789.16	3137.49
789.34	3241.93
789.52	3346.38
789.69	3385.29
789.87	3008.47
790.04	3229.65
790.22	3487.69
790.39	3889.09
790.57	3119.06
790.74	3100.62
790.92	3600.33
791.09	3114.96
791.27	3188.69
791.44	3209.17
791.62	3409.87
791.79	3557.32
791.97	3303.37
792.15	3524.55
792.32	3555.27
792.50	3491.79
792.67	3430.35
792.85	3540.94
793.02	3463.12
793.20	3368.91
793.37	3061.71
793.55	3041.23
793.72	3094.48
793.90	3592.14
794.07	3229.65
794.25	3157.97
794.42	3358.67
794.60	3420.11
794.77	3205.07
794.95	3311.57
795.12	3598.28
795.30	3418.06
795.47	3026.90
795.65	3528.65
795.82	3553.23
796.00	3389.39
796.17	3330.00
796.34	3098.58
796.52	3540.94
796.69	3565.51
796.87	3266.51
797.04	3409.87
797.22	3692.49
797.39	3506.12
797.57	3381.20
797.74	3315.66
797.92	3528.65
798.09	3330.00
798.27	3516.36
798.44	3160.02
798.62	3188.69
798.79	3561.42
798.96	3379.15
799.14	3198.93
799.31	4014.02
799.49	3452.88
799.66	3147.73
799.84	3196.88
800.01	3014.61
800.19	3575.75
800.36	2934.74
800.53	3262.41
800.71	3497.93
800.88	3792.84
801.06	3157.97
801.23	3231.69
801.41	3348.43
801.58	3250.13
801.75	3256.27
801.93	3246.03
802.10	3590.09
802.28	3350.48
802.45	3229.65
802.63	3200.98
802.80	3747.78
802.97	3364.81
803.15	3221.45
803.32	3207.12
803.50	3270.61
803.67	3231.69
803.84	3143.63
804.02	3303.37
804.19	3387.34
804.37	2912.21
804.54	2998.23
804.71	3164.11
804.89	3497.93
805.06	3172.30
805.24	3207.12
805.41	2992.08
805.58	3319.76
805.76	3979.20
805.93	3200.98
806.10	3286.99
806.28	3536.84
806.45	3436.49
806.63	3344.33
806.80	3256.27
806.97	3479.50
807.15	3418.06
807.32	3207.12
807.49	3190.74
807.67	3246.03
807.84	3561.42
808.01	3088.34
808.19	3336.14
808.36	3870.66
808.54	3289.04
808.71	3155.92
808.88	3160.02
809.06	3696.58
809.23	3864.52
809.40	3166.16
809.58	3100.62
809.75	3446.73
809.92	3106.77
810.10	3450.83
810.27	3223.50
810.44	3530.70
810.62	3565.51
810.79	3227.60
810.96	3180.50
811.14	3325.90
811.31	3573.71
811.48	3440.59
811.66	3284.94
811.83	3606.47
812.00	3549.13
812.18	3262.41
812.35	3534.79
812.52	3297.23
812.69	3213.26
812.87	3203.02
813.04	3127.25
813.21	3463.12
813.39	3313.61
813.56	3192.78
813.73	3407.82
813.91	3172.30
814.08	3502.03
814.25	3164.11
814.42	3043.28
814.60	3377.10
814.77	3385.29
814.94	3092.43
815.12	3260.37
815.29	3798.98
815.46	3254.22
815.63	3217.36
815.81	3205.07
815.98	3364.81
816.15	3352.52
816.33	3276.75
816.50	3229.65
816.67	3459.02
816.84	3405.77
817.02	3147.73
817.19	3114.96
817.36	3528.65
817.53	3370.96
817.71	3137.49
817.88	3133.39
818.05	3385.29
818.22	3364.81
818.40	3340.24
818.57	3151.82
818.74	3565.51
818.91	3473.36
819.09	3270.61
819.26	3286.99
819.43	3295.18
819.60	3266.51
819.78	3422.16
819.95	3272.65
820.12	3190.74
820.29	3768.26
820.47	3585.99
820.64	3145.68
820.81	3180.50
820.98	3229.65
821.15	3268.56
821.33	3299.28
821.50	3149.78
821.67	3487.69
821.84	3213.26
822.02	3170.26
822.19	3684.30
822.36	3309.52
822.53	3162.06
822.70	3074.00
822.88	3311.57
823.05	3723.21
823.22	3323.85
823.39	3153.87
823.56	3446.73
823.74	3739.59
823.91	3065.81
824.08	3063.76
824.25	3198.93
824.42	3645.38
824.60	3045.33
824.77	3291.09
824.94	3368.91
825.11	3553.23
825.28	3135.44
825.45	3286.99
825.63	3444.68
825.80	3170.26
825.97	3254.22
826.14	3194.83
826.31	3067.86
826.48	3579.85
826.66	3198.93
826.83	3117.01
827.00	3334.09
827.17	3200.98
827.34	3205.07
827.51	3127.25
827.69	3346.38
827.86	3024.85
828.03	3280.85
828.20	3180.50
828.37	3252.17
828.54	3502.03
828.71	3104.72
828.89	3315.66
829.06	3467.21
829.23	3753.93
829.40	3205.07
829.57	3153.87
829.74	3567.56
829.91	3289.04
830.09	3051.47
830.26	3264.46
830.43	3719.11
830.60	3360.72
830.77	3332.05
830.94	3356.62
831.11	3575.75
831.28	3403.72
831.46	3346.38
831.63	3139.54
831.80	3606.47
831.97	3233.74
832.14	3207.12
832.31	3192.78
832.48	3516.36
832.65	3581.90
832.82	3346.38
832.99	3200.98
833.17	3215.31
833.34	3772.36
833.51	3102.67
833.68	2981.84
833.85	3747.78
834.02	3360.72
834.19	3137.49
834.36	3180.50
834.53	3536.84
834.70	3661.77
834.87	3180.50
835.04	2938.84
835.22	3239.89
835.39	3313.61
835.56	2994.13
835.73	2987.99
835.90	3585.99
836.07	3213.26
836.24	3176.40
836.41	3045.33
836.58	3241.93
836.75	3712.97
836.92	3004.37
837.09	3012.56
837.26	3540.94
837.43	3532.75
837.60	3045.33
837.77	3028.95
837.94	3663.82
838.12	3690.44
838.29	2910.16
838.46	2934.74
838.63	3119.06
838.80	3737.54
838.97	3090.38
839.14	3041.23
839.31	3561.42
839.48	3504.07
839.65	3006.42
839.82	3133.39
839.99	3456.97
840.16	3430.35
840.33	3020.75
840.50	3039.19
840.67	3241.93
840.84	2969.55
841.01	2977.75
841.18	2983.89
841.35	3323.85
841.52	3569.61
841.69	3389.39
841.86	3049.43
842.03	3393.48
842.20	3651.53
842.37	3026.90
842.54	3067.86
842.71	3463.12
842.88	3096.53
843.05	3131.34
843.22	3041.23
843.39	3532.75
843.56	3215.31
843.73	3020.75
843.90	3149.78
844.07	3473.36
844.24	3686.34
844.41	3131.34
844.58	3127.25
844.75	3542.99
844.92	3499.98
845.09	3166.16
845.26	3041.23
845.43	3633.10
845.60	3336.14
845.77	3149.78
845.94	3119.06
846.10	3712.97
846.27	3147.73
846.44	2936.79
846.61	2863.06
846.78	3583.95
846.95	3569.61
847.12	2889.68
847.29	2959.31
847.46	3360.72
847.63	3565.51
847.80	2883.54
847.97	3000.27
848.14	3930.05
848.31	3301.33
848.48	2832.34
848.65	3030.99
848.82	3346.38
848.98	3995.59
849.15	3090.38
849.32	3090.38
849.49	3698.63
849.66	3342.28
849.83	2967.51
850.00	3000.27
850.17	3624.90
850.34	3225.55
850.51	2998.23
850.68	3020.75
850.85	3903.43
851.01	3518.41
851.18	2979.79
851.35	3024.85
851.52	3569.61
851.69	3811.27
851.86	2897.88
852.03	3016.66
852.20	3651.53
852.37	3477.45
852.53	2895.83
852.70	2877.40
852.87	3499.98
853.04	3639.24
853.21	3012.56
853.38	3350.48
853.55	3776.45
853.72	3688.39
853.89	2895.83
854.05	2951.12
854.22	3485.64
854.39	3321.81
854.56	2979.79
854.73	3174.35
854.90	3280.85
855.07	3370.96
855.23	2930.64
855.40	2930.64
855.57	3362.76
855.74	3006.42
855.91	3237.84
856.08	2928.60
856.25	3114.96
856.41	3315.66
856.58	3020.75
856.75	3139.54
856.92	3239.89
857.09	3624.90
857.26	2875.35
857.42	3061.71
857.59	3631.05
857.76	3375.05
857.93	2940.88
858.10	3127.25
858.27	3198.93
858.43	3467.21
858.60	3000.27
858.77	2977.75
858.94	3327.95
859.11	3622.86
859.27	3045.33
859.44	2908.12
859.61	3934.15
859.78	3557.32
859.95	3074.00
860.12	2949.08
860.28	3833.80
860.45	3874.76
860.62	2975.70
860.79	3082.19
860.95	3385.29
861.12	3346.38
861.29	2963.41
861.46	2994.13
861.63	3422.16
861.79	3452.88
861.96	2947.03
862.13	3084.24
862.30	3737.54
862.47	3262.41
862.63	2889.68
862.80	2992.08
862.97	3696.58
863.14	3508.17
863.30	3049.43
863.47	2881.49
863.64	3772.36
863.81	3522.51
863.97	2914.26
864.14	3000.27
864.31	3413.96
864.48	3479.50
864.65	2992.08
864.81	3162.06
864.98	3553.23
865.15	3702.73
865.32	3010.51
865.48	3043.28
865.65	3891.14
865.82	3315.66
865.98	3110.86
866.15	3080.14
866.32	3465.16
866.49	3336.14
866.65	3184.59
866.82	3057.62
866.99	3467.21
867.16	3301.33
867.32	3002.32
867.49	2922.45
867.66	3348.43
867.83	3366.86
867.99	2992.08
868.16	3049.43
868.33	3196.88
868.49	3428.30
868.66	3102.67
868.83	3119.06
868.99	3442.64
869.16	3508.17
869.33	3188.69
869.50	3131.34
869.66	3469.26
869.83	3323.85
870.00	2889.68
870.16	3080.14
870.33	3440.59
870.50	3608.52
870.66	3071.95
870.83	3069.91
871.00	3487.69
871.17	3506.12
871.33	3084.24
871.50	3041.23
871.67	3370.96
871.83	3418.06
872.00	3143.63
872.17	3059.67
872.33	3831.75
872.50	3639.24
872.67	3020.75
872.83	3012.56
873.00	3540.94
873.17	3356.62
873.33	3063.76
873.50	3119.06
873.67	3241.93
873.83	3295.18
874.00	3057.62
874.16	3256.27
874.33	3465.16
874.50	3084.24
874.66	2955.22
874.83	3104.72
875.00	3710.92
875.16	3612.62
875.33	3035.09
875.50	2715.61
875.66	3266.51
875.83	3381.20
875.99	3153.87
876.16	3131.34
876.33	3196.88
876.49	3424.20
876.66	3041.23
876.83	3086.29
876.99	3088.34
877.16	3411.92
877.32	2973.65
877.49	3094.48
877.66	3549.13
877.82	3745.73
877.99	3088.34
878.15	3301.33
878.32	3520.46
878.49	3483.59
878.65	3065.81
878.82	3409.87
878.98	3413.96
879.15	3631.05
879.32	3200.98
879.48	3250.13
879.65	3360.72
879.81	3444.68
879.98	3076.05
880.15	3155.92
880.31	3606.47
880.48	3284.94
880.64	3157.97
880.81	3139.54
880.97	3755.97
881.14	3721.16
881.31	2947.03
881.47	3174.35
881.64	3311.57
881.80	3053.52
881.97	3252.17
882.13	3090.38
882.30	3151.82
882.47	3301.33
882.63	3037.14
882.80	2967.51
882.96	3350.48
883.13	3614.66
883.29	3090.38
883.46	3010.51
883.62	3891.14
883.79	3444.68
883.95	3155.92
884.12	2869.20
884.29	3651.53
884.45	3530.70
884.62	3028.95
884.78	3010.51
884.95	3770.31
885.11	3213.26
885.28	3094.48
885.44	3071.95
885.61	3540.94
885.77	3729.35
885.94	3180.50
886.10	3092.43
886.27	3510.22
886.43	3907.52
886.60	3219.41
886.76	3008.47
886.93	3362.76
887.09	3395.53
887.26	2844.63
887.42	3166.16
887.59	3641.29
887.75	3833.80
887.92	3260.37
888.08	3092.43
888.25	3903.43
888.41	3680.20
888.58	3090.38
888.74	2963.41
888.91	3243.98
>>>>>End Processed Spectral Data<<<<<
