SpectraSuite Data File
++++++++++++++++++++++++++++++++++++
Date: Fri May 06 09:28:41 CEST 2016
User: root
Dark Spectrum Present: No
Reference Spectrum Present: No
Number of Sampled Component Spectra: 1
Spectrometers: USB4C02835
Integration Time (usec): 100000 (USB4C02835)
Spectra Averaged: 1 (USB4C02835)
Boxcar Smoothing: 0 (USB4C02835)
Correct for Electrical Dark: No (USB4C02835)
Strobe/Lamp Enabled: No (USB4C02835)
Correct for Detector Non-linearity: No (USB4C02835)
Correct for Stray Light: No (USB4C02835)
Number of Pixels in Processed Spectrum: 3648
>>>>>Begin Processed Spectral Data<<<<<
177.47	2379.74
177.69	2379.74
177.91	2379.74
178.13	2373.60
178.36	2312.16
178.58	3121.10
178.80	3192.78
179.02	3041.23
179.24	3262.41
179.46	2881.49
179.68	2844.63
179.90	3352.52
180.13	3436.49
180.35	2729.94
180.57	2858.96
180.79	3643.34
181.01	3291.09
181.23	2969.55
181.45	3174.35
181.67	3581.90
181.90	3674.06
182.12	3012.56
182.34	2795.48
182.56	3614.66
182.78	3579.85
183.00	2901.97
183.22	3010.51
183.44	3139.54
183.66	4024.26
183.89	3098.58
184.11	3033.04
184.33	3600.33
184.55	3682.25
184.77	2916.31
184.99	2887.64
185.21	3336.14
185.43	4005.83
185.65	2965.46
185.87	2932.69
186.10	3876.80
186.32	3905.48
186.54	3074.00
186.76	3100.62
186.98	3663.82
187.20	3426.25
187.42	3000.27
187.64	2957.27
187.86	3592.14
188.08	3706.82
188.30	2836.44
188.52	2977.75
188.75	3805.13
188.97	3768.26
189.19	2891.73
189.41	2850.77
189.63	3598.28
189.85	3264.46
190.07	2811.86
190.29	2801.62
190.51	3581.90
190.73	3172.30
190.95	3131.34
191.17	3000.27
191.39	3139.54
191.61	3485.64
191.84	2983.89
192.06	3205.07
192.28	3157.97
192.50	4159.42
192.72	3184.59
192.94	3076.05
193.16	3758.02
193.38	3626.95
193.60	2899.92
193.82	3184.59
194.04	3651.53
194.26	3573.71
194.48	3061.71
194.70	2959.31
194.92	3336.14
195.14	3567.56
195.36	2906.07
195.58	3098.58
195.80	3407.82
196.02	3381.20
196.24	3002.32
196.46	3016.66
196.69	3262.41
196.91	4081.60
197.13	2955.22
197.35	2985.94
197.57	3848.13
197.79	3555.27
198.01	3049.43
198.23	2947.03
198.45	3678.15
198.67	3162.06
198.89	2838.48
199.11	3074.00
199.33	3321.81
199.55	2971.60
199.77	2916.31
199.99	3104.72
200.21	3342.28
200.43	3461.07
200.65	2815.96
200.87	2781.14
201.09	3436.49
201.31	3381.20
201.53	2961.36
201.75	2985.94
201.97	3463.12
202.19	3448.78
202.41	3014.61
202.63	3088.34
202.85	3573.71
203.07	3497.93
203.29	3037.14
203.51	2955.22
203.73	3276.75
203.95	4040.64
204.17	2953.17
204.39	3096.53
204.61	3450.83
204.83	3334.09
205.05	3153.87
205.27	2967.51
205.49	3983.30
205.71	3422.16
205.93	2863.06
206.15	2871.25
206.37	3430.35
206.59	3553.23
206.81	2791.38
207.03	2846.68
207.25	3323.85
207.47	3620.81
207.69	2975.70
207.91	3205.07
208.13	3848.13
208.34	3323.85
208.56	2869.20
208.78	2959.31
209.00	3405.77
209.22	3373.00
209.44	3004.37
209.66	3002.32
209.88	3411.92
210.10	3387.34
210.32	2883.54
210.54	2998.23
210.76	3403.72
210.98	3655.62
211.20	2826.20
211.42	3067.86
211.64	3704.78
211.86	3616.71
212.08	3004.37
212.30	2879.44
212.52	3348.43
212.74	3532.75
212.96	3069.91
213.17	3057.62
213.39	3651.53
213.61	3860.42
213.83	2930.64
214.05	2828.24
214.27	3626.95
214.49	3174.35
214.71	2856.92
214.93	3010.51
215.15	3418.06
215.37	3659.72
215.59	2881.49
215.81	3041.23
216.03	3688.39
216.24	3416.01
216.46	3016.66
216.68	2994.13
216.90	3555.27
217.12	3700.68
217.34	2879.44
217.56	3106.77
217.78	3762.12
218.00	3600.33
218.22	3076.05
218.44	2990.03
218.66	3532.75
218.87	3803.08
219.09	3022.80
219.31	2932.69
219.53	3510.22
219.75	3364.81
219.97	3049.43
220.19	2973.65
220.41	3393.48
220.63	3835.85
220.85	3020.75
221.06	2987.99
221.28	3786.69
221.50	3583.95
221.72	2951.12
221.94	2924.50
222.16	3485.64
222.38	3743.69
222.60	2901.97
222.82	2990.03
223.03	3727.30
223.25	3200.98
223.47	2871.25
223.69	3246.03
223.91	3532.75
224.13	3358.67
224.35	2891.73
224.57	3139.54
224.78	3653.58
225.00	3114.96
225.22	3002.32
225.44	2830.29
225.66	3626.95
225.88	3389.39
226.10	3051.47
226.32	2967.51
226.53	3809.22
226.75	3401.68
226.97	3012.56
227.19	2889.68
227.41	3313.61
227.63	3389.39
227.85	2836.44
228.06	3063.76
228.28	3520.46
228.50	3622.86
228.72	2846.68
228.94	2924.50
229.16	3049.43
229.37	3260.37
229.59	2920.40
229.81	3248.08
230.03	3336.14
230.25	3166.16
230.47	2791.38
230.69	2879.44
230.90	3655.62
231.12	3330.00
231.34	3080.14
231.56	2969.55
231.78	3213.26
232.00	3446.73
232.21	2998.23
232.43	3041.23
232.65	3078.10
232.87	3508.17
233.09	2799.57
233.30	2877.40
233.52	3624.90
233.74	3487.69
233.96	2875.35
234.18	3229.65
234.40	3348.43
234.61	3966.92
234.83	2848.72
235.05	2910.16
235.27	4007.87
235.49	3682.25
235.70	2832.34
235.92	3016.66
236.14	3577.80
236.36	4081.60
236.58	2854.87
236.79	3069.91
237.01	3409.87
237.23	3430.35
237.45	3178.45
237.67	3008.47
237.88	3637.19
238.10	3846.09
238.32	2914.26
238.54	2901.97
238.76	3477.45
238.97	3237.84
239.19	2826.20
239.41	2983.89
239.63	3768.26
239.85	3387.34
240.06	3004.37
240.28	2910.16
240.50	3694.54
240.72	3364.81
240.93	2852.82
241.15	3049.43
241.37	3520.46
241.59	3803.08
241.81	2955.22
242.02	3057.62
242.24	3493.83
242.46	3631.05
242.68	2729.94
242.89	2877.40
243.11	3592.14
243.33	3385.29
243.55	2959.31
243.76	2932.69
243.98	3352.52
244.20	3411.92
244.42	3008.47
244.64	2983.89
244.85	3151.82
245.07	3246.03
245.29	2951.12
245.51	3037.14
245.72	3602.38
245.94	3688.39
246.16	2910.16
246.38	3026.90
246.59	3336.14
246.81	3231.69
247.03	2885.59
247.24	2850.77
247.46	3213.26
247.68	3383.24
247.90	2828.24
248.11	2955.22
248.33	3592.14
248.55	3459.02
248.77	3069.91
248.98	3094.48
249.20	3751.88
249.42	3530.70
249.64	2904.02
249.85	2846.68
250.07	3338.19
250.29	3594.19
250.50	3088.34
250.72	2912.21
250.94	3549.13
251.16	3999.68
251.37	2807.77
251.59	2940.88
251.81	3594.19
252.02	3764.17
252.24	2893.78
252.46	3092.43
252.68	3327.95
252.89	3360.72
253.11	2822.10
253.33	3190.74
253.54	3764.17
253.76	3188.69
253.98	3008.47
254.20	2944.98
254.41	3227.60
254.63	3426.25
254.85	2793.43
255.06	3016.66
255.28	3569.61
255.50	3336.14
255.71	2938.84
255.93	2820.05
256.15	3430.35
256.36	3667.91
256.58	2930.64
256.80	2879.44
257.02	3467.21
257.23	3305.42
257.45	2936.79
257.67	3065.81
257.88	3362.76
258.10	3622.86
258.32	2916.31
258.53	3071.95
258.75	3846.09
258.97	3330.00
259.18	2883.54
259.40	2930.64
259.62	3874.76
259.83	3758.02
260.05	3016.66
260.27	3983.30
260.48	3792.84
260.70	3223.50
260.92	2877.40
261.13	3094.48
261.35	3575.75
261.57	3596.23
261.78	2885.59
262.00	2924.50
262.22	3569.61
262.43	3297.23
262.65	3014.61
262.86	3008.47
263.08	4050.88
263.30	3479.50
263.51	2758.61
263.73	2881.49
263.95	3844.04
264.16	3317.71
264.38	2867.16
264.60	2875.35
264.81	3446.73
265.03	3784.65
265.25	3438.54
265.46	2971.60
265.68	3735.50
265.89	3569.61
266.11	2840.53
266.33	2901.97
266.54	3745.73
266.76	3520.46
266.98	3094.48
267.19	3157.97
267.41	3637.19
267.62	3434.44
267.84	2748.37
268.06	3020.75
268.27	3422.16
268.49	3704.78
268.70	3108.82
268.92	2985.94
269.14	3231.69
269.35	3102.67
269.57	3094.48
269.79	2975.70
270.00	3319.76
270.22	3844.04
270.43	2815.96
270.65	2803.67
270.87	3483.59
271.08	3715.02
271.30	3051.47
271.51	2951.12
271.73	3526.60
271.95	3805.13
272.16	2910.16
272.38	3157.97
272.59	3405.77
272.81	3569.61
273.02	2928.60
273.24	3016.66
273.46	3649.48
273.67	3125.20
273.89	2813.91
274.10	2949.08
274.32	3803.08
274.54	3459.02
274.75	2994.13
274.97	3020.75
275.18	3680.20
275.40	3559.37
275.61	2951.12
275.83	3137.49
276.05	3229.65
276.26	3377.10
276.48	3104.72
276.69	3108.82
276.91	3293.13
277.12	3811.27
277.34	3035.09
277.55	3254.22
277.77	3485.64
277.99	3336.14
278.20	3164.11
278.42	3016.66
278.63	3297.23
278.85	3200.98
279.06	3117.01
279.28	3166.16
279.49	3633.10
279.71	3567.56
279.93	3180.50
280.14	3190.74
280.36	3182.54
280.57	3655.62
280.79	3141.58
281.00	2963.41
281.22	3309.52
281.43	3815.37
281.65	2885.59
281.86	2963.41
282.08	3485.64
282.29	3905.48
282.51	2955.22
282.73	2971.60
282.94	3166.16
283.16	3592.14
283.37	3082.19
283.59	3149.78
283.80	3516.36
284.02	3387.34
284.23	3155.92
284.45	3094.48
284.66	3241.93
284.88	3303.37
285.09	2992.08
285.31	3205.07
285.52	3502.03
285.74	3200.98
285.95	3364.81
286.17	3145.68
286.38	3575.75
286.60	3286.99
286.81	3057.62
287.03	3037.14
287.24	3420.11
287.46	3602.38
287.67	3227.60
287.89	3311.57
288.10	3373.00
288.32	3473.36
288.53	3254.22
288.75	3155.92
288.96	3549.13
289.18	3254.22
289.39	3004.37
289.61	3076.05
289.82	3923.91
290.04	3813.32
290.25	3000.27
290.47	3145.68
290.68	3377.10
290.90	3553.23
291.11	2838.48
291.33	3243.98
291.54	3286.99
291.76	3280.85
291.97	3215.31
292.18	3250.13
292.40	3336.14
292.61	3336.14
292.83	3422.16
293.04	3082.19
293.26	3526.60
293.47	3366.86
293.69	2996.18
293.90	3033.04
294.12	3792.84
294.33	3452.88
294.55	3104.72
294.76	3299.28
294.97	3661.77
295.19	3844.04
295.40	3149.78
295.62	3164.11
295.83	3680.20
296.05	3233.74
296.26	3315.66
296.48	3143.63
296.69	3407.82
296.90	3327.95
297.12	3123.15
297.33	3221.45
297.55	3516.36
297.76	3551.18
297.98	3133.39
298.19	3307.47
298.41	3381.20
298.62	3282.89
298.83	3354.57
299.05	3196.88
299.26	3434.44
299.48	3241.93
299.69	3248.08
299.90	3016.66
300.12	3246.03
300.33	3598.28
300.55	3172.30
300.76	3172.30
300.98	3239.89
301.19	3624.90
301.40	3065.81
301.62	3008.47
301.83	3600.33
302.05	3456.97
302.26	3131.34
302.47	3215.31
302.69	3256.27
302.90	3442.64
303.12	2922.45
303.33	3188.69
303.54	3848.13
303.76	3293.13
303.97	3035.09
304.19	3280.85
304.40	3260.37
304.61	3561.42
304.83	3198.93
305.04	3155.92
305.26	3549.13
305.47	3330.00
305.68	3071.95
305.90	3018.71
306.11	3827.65
306.33	3483.59
306.54	2981.84
306.75	3076.05
306.97	3180.50
307.18	3323.85
307.39	3106.77
307.61	3192.78
307.82	3420.11
308.04	3581.90
308.25	2961.36
308.46	3172.30
308.68	3467.21
308.89	3327.95
309.10	3131.34
309.32	3223.50
309.53	3495.88
309.74	3610.57
309.96	3059.67
310.17	3243.98
310.39	3340.24
310.60	3524.55
310.81	3147.73
311.03	2987.99
311.24	3626.95
311.45	3405.77
311.67	3413.96
311.88	3221.45
312.09	3340.24
312.31	3327.95
312.52	2975.70
312.73	3106.77
312.95	3110.86
313.16	3284.94
313.37	3225.55
313.59	3321.81
313.80	3565.51
314.01	3762.12
314.23	3135.44
314.44	3035.09
314.65	3219.41
314.87	3327.95
315.08	3082.19
315.29	3160.02
315.51	3311.57
315.72	3125.20
315.93	3123.15
316.15	3094.48
316.36	3344.33
316.57	3483.59
316.79	3147.73
317.00	3061.71
317.21	3616.71
317.43	3260.37
317.64	3172.30
317.85	2930.64
318.07	3297.23
318.28	3311.57
318.49	3198.93
318.70	3352.52
318.92	3557.32
319.13	3510.22
319.34	3211.22
319.56	3094.48
319.77	3450.83
319.98	3567.56
320.20	3401.68
320.41	3262.41
320.62	3590.09
320.83	3215.31
321.05	3274.70
321.26	3174.35
321.47	3477.45
321.69	3704.78
321.90	3004.37
322.11	3059.67
322.32	3459.02
322.54	3780.55
322.75	3131.34
322.96	4143.04
323.18	3117.01
323.39	2990.03
323.60	2975.70
323.81	3213.26
324.03	3373.00
324.24	3381.20
324.45	3221.45
324.66	3059.67
324.88	3690.44
325.09	3768.26
325.30	3033.04
325.52	3024.85
325.73	3477.45
325.94	3246.03
326.15	3020.75
326.37	2951.12
326.58	3624.90
326.79	3831.75
327.00	3074.00
327.22	3047.38
327.43	3383.24
327.64	3196.88
327.85	3225.55
328.07	3100.62
328.28	3880.90
328.49	3393.48
328.70	3094.48
328.92	3125.20
329.13	3506.12
329.34	3506.12
329.55	3311.57
329.76	3229.65
329.98	3418.06
330.19	3674.06
330.40	3196.88
330.61	3346.38
330.83	3573.71
331.04	3264.46
331.25	3172.30
331.46	3209.17
331.68	3229.65
331.89	3667.91
332.10	3092.43
332.31	3006.42
332.52	3454.92
332.74	3753.93
332.95	2987.99
333.16	3155.92
333.37	3600.33
333.58	3336.14
333.80	3127.25
334.01	2899.92
334.22	3497.93
334.43	3299.28
334.64	2963.41
334.86	3088.34
335.07	3266.51
335.28	3780.55
335.49	3030.99
335.70	3067.86
335.92	3729.35
336.13	3936.20
336.34	3174.35
336.55	3055.57
336.76	3440.59
336.98	3059.67
337.19	3102.67
337.40	3188.69
337.61	3975.11
337.82	3389.39
338.04	3164.11
338.25	2947.03
338.46	3319.76
338.67	3338.19
338.88	3051.47
339.09	3014.61
339.31	3301.33
339.52	3196.88
339.73	3078.10
339.94	3172.30
340.15	3553.23
340.36	3221.45
340.58	3117.01
340.79	3010.51
341.00	3518.41
341.21	3168.21
341.42	3364.81
341.63	3047.38
341.85	3622.86
342.06	3469.26
342.27	3033.04
342.48	3295.18
342.69	3260.37
342.90	3493.83
343.12	3606.47
343.33	3024.85
343.54	3737.54
343.75	3825.61
343.96	3246.03
344.17	2981.84
344.38	3395.53
344.60	3237.84
344.81	3096.53
345.02	3110.86
345.23	3649.48
345.44	3958.72
345.65	3133.39
345.86	3086.29
346.07	3547.08
346.29	3352.52
346.50	3342.28
346.71	3198.93
346.92	3825.61
347.13	3856.33
347.34	3225.55
347.55	3028.95
347.76	3559.37
347.98	3137.49
348.19	3180.50
348.40	3295.18
348.61	3401.68
348.82	3796.93
349.03	3151.82
349.24	3002.32
349.45	3915.72
349.66	3051.47
349.88	3067.86
350.09	3049.43
350.30	3674.06
350.51	3739.59
350.72	3264.46
350.93	3104.72
351.14	3377.10
351.35	3575.75
351.56	3110.86
351.77	3182.54
351.99	3508.17
352.20	3762.12
352.41	3250.13
352.62	3004.37
352.83	3477.45
353.04	3401.68
353.25	3102.67
353.46	3137.49
353.67	3669.96
353.88	2959.31
354.09	3016.66
354.30	3155.92
354.52	3641.29
354.73	3360.72
354.94	3010.51
355.15	3110.86
355.36	3870.66
355.57	3346.38
355.78	2973.65
355.99	3125.20
356.20	3311.57
356.41	3758.02
356.62	3131.34
356.83	3114.96
357.04	3719.11
357.25	3114.96
357.46	3028.95
357.68	3059.67
357.89	3147.73
358.10	3491.79
358.31	3094.48
358.52	3209.17
358.73	3203.02
358.94	3291.09
359.15	3106.77
359.36	3108.82
359.57	3516.36
359.78	3370.96
359.99	3332.05
360.20	3010.51
360.41	3485.64
360.62	3594.19
360.83	3172.30
361.04	3168.21
361.25	3569.61
361.46	3829.70
361.67	3286.99
361.88	3024.85
362.09	3631.05
362.30	3448.78
362.51	2977.75
362.72	3180.50
362.93	3571.66
363.14	3555.27
363.35	3172.30
363.56	3084.24
363.78	3657.67
363.99	3704.78
364.20	3057.62
364.41	3190.74
364.62	3907.52
364.83	3504.07
365.04	3143.63
365.25	3061.71
365.46	3958.72
365.67	3364.81
365.88	3377.10
366.09	3035.09
366.30	3354.57
366.51	3422.16
366.72	3065.81
366.93	3028.95
367.14	3479.50
367.35	3780.55
367.56	3028.95
367.77	3272.65
367.98	3508.17
368.18	3559.37
368.39	3346.38
368.60	3039.19
368.81	3557.32
369.02	3588.04
369.23	3190.74
369.44	3008.47
369.65	3411.92
369.86	3608.52
370.07	3297.23
370.28	2983.89
370.49	3493.83
370.70	3508.17
370.91	2994.13
371.12	2994.13
371.33	3725.26
371.54	3319.76
371.75	3237.84
371.96	2830.29
372.17	3497.93
372.38	3418.06
372.59	3086.29
372.80	3014.61
373.01	3358.67
373.22	3487.69
373.43	3080.14
373.64	2951.12
373.85	3803.08
374.06	3786.69
374.26	3301.33
374.47	3196.88
374.68	3751.88
374.89	3450.83
375.10	3012.56
375.31	3196.88
375.52	3467.21
375.73	3542.99
375.94	2932.69
376.15	3239.89
376.36	3243.98
376.57	3286.99
376.78	3151.82
376.99	3110.86
377.20	3741.64
377.40	3254.22
377.61	3403.72
377.82	3149.78
378.03	3764.17
378.24	3497.93
378.45	3221.45
378.66	3213.26
378.87	3119.06
379.08	3147.73
379.29	3157.97
379.50	3250.13
379.71	3364.81
379.91	3626.95
380.12	3102.67
380.33	3176.40
380.54	3397.58
380.75	3432.40
380.96	3182.54
381.17	3139.54
381.38	3420.11
381.59	3448.78
381.80	3198.93
382.00	3188.69
382.21	3434.44
382.42	3731.40
382.63	3508.17
382.84	3241.93
383.05	3610.57
383.26	3700.68
383.47	3313.61
383.68	3102.67
383.88	3581.90
384.09	3569.61
384.30	3309.52
384.51	3164.11
384.72	3246.03
384.93	3155.92
385.14	3241.93
385.35	3387.34
385.55	3166.16
385.76	3690.44
385.97	3104.72
386.18	3049.43
386.39	3190.74
386.60	3268.56
386.81	3078.10
387.02	2967.51
387.22	3168.21
387.43	3549.13
387.64	3139.54
387.85	3407.82
388.06	3471.31
388.27	4362.17
388.48	7294.86
388.68	10919.77
388.89	13543.22
389.10	14677.79
389.31	14448.42
389.52	11849.55
389.73	10071.91
389.93	9539.44
390.14	8458.11
390.35	7837.58
390.56	7464.85
390.77	6174.63
390.98	4784.06
391.18	4093.89
391.39	3934.15
391.60	3444.68
391.81	3424.20
392.02	3117.01
392.23	3932.10
392.43	3491.79
392.64	3227.60
392.85	3258.32
393.06	3749.83
393.27	3405.77
393.47	3119.06
393.68	3231.69
393.89	3411.92
394.10	3663.82
394.31	3084.24
394.52	3024.85
394.72	3291.09
394.93	3712.97
395.14	3059.67
395.35	3221.45
395.56	3358.67
395.76	3397.58
395.97	3164.11
396.18	3311.57
396.39	3379.15
396.60	4065.22
396.80	3538.89
397.01	3456.97
397.22	3667.91
397.43	3704.78
397.64	3143.63
397.84	3114.96
398.05	3919.81
398.26	3323.85
398.47	3188.69
398.67	3356.62
398.88	3393.48
399.09	3639.24
399.30	3074.00
399.51	3229.65
399.71	3274.70
399.92	3520.46
400.13	3235.79
400.34	3180.50
400.54	3442.64
400.75	3733.45
400.96	3172.30
401.17	3495.88
401.37	3581.90
401.58	3413.96
401.79	3088.34
402.00	3231.69
402.21	3983.30
402.41	3512.27
402.62	3379.15
402.83	3555.27
403.04	3747.78
403.24	4222.91
403.45	3299.28
403.66	3409.87
403.87	3626.95
404.07	3749.83
404.28	3373.00
404.49	3391.44
404.70	3516.36
404.90	3626.95
405.11	3098.58
405.32	3293.13
405.52	3305.42
405.73	3291.09
405.94	3065.81
406.15	3207.12
406.35	3542.99
406.56	3516.36
406.77	3215.31
406.98	3100.62
407.18	3397.58
407.39	3846.09
407.60	3203.02
407.80	3196.88
408.01	3336.14
408.22	3559.37
408.43	3022.80
408.63	3241.93
408.84	3608.52
409.05	3569.61
409.25	3071.95
409.46	3133.39
409.67	3311.57
409.88	3383.24
410.08	3180.50
410.29	3098.58
410.50	3624.90
410.70	3575.75
410.91	3074.00
411.12	3227.60
411.32	3495.88
411.53	3196.88
411.74	3098.58
411.95	3276.75
412.15	3459.02
412.36	3557.32
412.57	3321.81
412.77	3305.42
412.98	3373.00
413.19	3289.04
413.39	3213.26
413.60	3205.07
413.81	3715.02
414.01	3213.26
414.22	3133.39
414.43	3366.86
414.63	3299.28
414.84	3618.76
415.05	3114.96
415.25	3000.27
415.46	3553.23
415.67	3270.61
415.87	3155.92
416.08	3084.24
416.29	3323.85
416.49	3545.03
416.70	3215.31
416.91	3125.20
417.11	3383.24
417.32	3657.67
417.53	3219.41
417.73	3219.41
417.94	3420.11
418.15	3450.83
418.35	3168.21
418.56	3188.69
418.77	3938.24
418.97	3520.46
419.18	3327.95
419.38	2906.07
419.59	3487.69
419.80	3764.17
420.00	3071.95
420.21	3129.30
420.42	3698.63
420.62	3516.36
420.83	3086.29
421.04	3170.26
421.24	3424.20
421.45	3585.99
421.65	3139.54
421.86	3123.15
422.07	3678.15
422.27	3573.71
422.48	3172.30
422.69	2969.55
422.89	3368.91
423.10	3493.83
423.30	3110.86
423.51	3239.89
423.72	3592.14
423.92	3688.39
424.13	3004.37
424.33	3164.11
424.54	3631.05
424.75	3528.65
424.95	3315.66
425.16	3164.11
425.36	3442.64
425.57	3688.39
425.78	3213.26
425.98	3270.61
426.19	3432.40
426.39	3262.41
426.60	3248.08
426.81	3289.04
427.01	3479.50
427.22	3180.50
427.42	3000.27
427.63	3096.53
427.83	3594.19
428.04	3743.69
428.25	3108.82
428.45	3254.22
428.66	3626.95
428.86	3401.68
429.07	3213.26
429.28	3248.08
429.48	3356.62
429.69	3286.99
429.89	3270.61
430.10	3098.58
430.30	3565.51
430.51	3643.34
430.71	3071.95
430.92	3231.69
431.13	3364.81
431.33	3598.28
431.54	3305.42
431.74	3395.53
431.95	3973.06
432.15	3250.13
432.36	3078.10
432.56	3178.45
432.77	3839.94
432.98	3846.09
433.18	3260.37
433.39	3012.56
433.59	3401.68
433.80	3899.33
434.00	3233.74
434.21	3256.27
434.41	3286.99
434.62	3952.58
434.82	3071.95
435.03	3086.29
435.23	3475.40
435.44	3133.39
435.64	3123.15
435.85	3168.21
436.06	3602.38
436.26	3596.23
436.47	3135.44
436.67	3114.96
436.88	3428.30
437.08	3676.10
437.29	3280.85
437.49	3321.81
437.70	3794.89
437.90	3459.02
438.11	3348.43
438.31	3297.23
438.52	3719.11
438.72	3610.57
438.93	3448.78
439.13	3262.41
439.34	3637.19
439.54	3336.14
439.75	3286.99
439.95	3254.22
440.16	3254.22
440.36	3411.92
440.57	3153.87
440.77	3155.92
440.98	3373.00
441.18	3612.62
441.39	3139.54
441.59	3084.24
441.80	3882.95
442.00	3469.26
442.21	3256.27
442.41	3047.38
442.62	3700.68
442.82	3373.00
443.02	3211.22
443.23	3188.69
443.43	3391.44
443.64	3710.92
443.84	3033.04
444.05	3215.31
444.25	3434.44
444.46	3321.81
444.66	3131.34
444.87	3385.29
445.07	3006.42
445.28	3407.82
445.48	3409.87
445.69	3229.65
445.89	3952.58
446.09	3424.20
446.30	3420.11
446.50	3467.21
446.71	4997.04
446.91	6180.77
447.12	6834.07
447.32	7260.05
447.53	7305.10
447.73	6178.72
447.93	5095.35
448.14	5076.91
448.34	5355.44
448.55	4519.87
448.75	4388.80
448.96	4118.47
449.16	4202.43
449.36	4011.97
449.57	3362.76
449.77	3203.02
449.98	3395.53
450.18	3567.56
450.39	3065.81
450.59	3276.75
450.79	3438.54
451.00	3391.44
451.20	3334.09
451.41	3133.39
451.61	3536.84
451.81	3370.96
452.02	3127.25
452.22	3180.50
452.43	3276.75
452.63	3166.16
452.84	3215.31
453.04	3174.35
453.24	3502.03
453.45	3330.00
453.65	3225.55
453.86	3100.62
454.06	3418.06
454.26	3377.10
454.47	3160.02
454.67	3366.86
454.87	3467.21
455.08	3393.48
455.28	3203.02
455.49	3327.95
455.69	3280.85
455.89	3919.81
456.10	3278.80
456.30	3119.06
456.51	3581.90
456.71	3475.40
456.91	3313.61
457.12	3139.54
457.32	3516.36
457.52	3151.82
457.73	3375.05
457.93	3385.29
458.14	3313.61
458.34	3151.82
458.54	3266.51
458.75	3112.91
458.95	3583.95
459.15	3418.06
459.36	3223.50
459.56	3123.15
459.76	4020.16
459.97	3385.29
460.17	3147.73
460.37	3186.64
460.58	3551.18
460.78	3540.94
460.99	3239.89
461.19	3157.97
461.39	3262.41
461.60	3461.07
461.80	3164.11
462.00	3022.80
462.21	3381.20
462.41	3184.59
462.61	3033.04
462.82	2942.93
463.02	3495.88
463.22	3475.40
463.43	3246.03
463.63	3018.71
463.83	3708.87
464.04	3512.27
464.24	3168.21
464.44	3149.78
464.64	3442.64
464.85	3573.71
465.05	3145.68
465.25	3114.96
465.46	3303.37
465.66	3616.71
465.86	3190.74
466.07	3166.16
466.27	3346.38
466.47	3155.92
466.68	3035.09
466.88	3254.22
467.08	3633.10
467.29	3729.35
467.49	3168.21
467.69	3282.89
467.89	3575.75
468.10	3309.52
468.30	3194.83
468.50	3348.43
468.71	3647.43
468.91	3049.43
469.11	3418.06
469.31	3237.84
469.52	3248.08
469.72	3770.31
469.92	3469.26
470.13	3176.40
470.33	3438.54
470.53	3626.95
470.73	3620.81
470.94	3819.46
471.14	4071.36
471.34	4605.88
471.54	4097.99
471.75	3872.71
471.95	3690.44
472.15	3794.89
472.36	3774.41
472.56	3610.57
472.76	3885.00
472.96	3844.04
473.17	3373.00
473.37	3291.09
473.57	3463.12
473.77	3649.48
473.98	3362.76
474.18	3119.06
474.38	4128.70
474.58	3428.30
474.79	3121.10
474.99	3373.00
475.19	3704.78
475.39	3243.98
475.60	3309.52
475.80	3084.24
476.00	3489.74
476.20	3401.68
476.41	3299.28
476.61	3133.39
476.81	3774.41
477.01	3289.04
477.21	3477.45
477.42	3289.04
477.62	3309.52
477.82	3606.47
478.02	3065.81
478.23	3155.92
478.43	3274.70
478.63	3424.20
478.83	3203.02
479.03	3198.93
479.24	3909.57
479.44	3975.11
479.64	3067.86
479.84	3063.76
480.04	3274.70
480.25	3579.85
480.45	3076.05
480.65	3125.20
480.85	3762.12
481.06	3348.43
481.26	3231.69
481.46	3129.30
481.66	3491.79
481.86	3291.09
482.06	3395.53
482.27	3237.84
482.47	3366.86
482.67	3596.23
482.87	3229.65
483.07	3213.26
483.28	3291.09
483.48	3149.78
483.68	3180.50
483.88	3039.19
484.08	3000.27
484.29	3248.08
484.49	3293.13
484.69	2944.98
484.89	3698.63
485.09	3639.24
485.29	3198.93
485.50	3348.43
485.70	3311.57
485.90	3696.58
486.10	3350.48
486.30	3114.96
486.50	3723.21
486.71	3491.79
486.91	3205.07
487.11	3370.96
487.31	3196.88
487.51	3624.90
487.71	3121.10
487.91	3055.57
488.12	3155.92
488.32	2965.46
488.52	3172.30
488.72	2887.64
488.92	3422.16
489.12	3725.26
489.32	3301.33
489.53	3237.84
489.73	3209.17
489.93	3848.13
490.13	3182.54
490.33	3016.66
490.53	3444.68
490.73	3739.59
490.94	3076.05
491.14	3307.47
491.34	3592.14
491.54	3491.79
491.74	4124.61
491.94	4411.32
492.14	5146.55
492.34	5179.31
492.54	4755.38
492.75	4243.39
492.95	4372.41
493.15	4190.14
493.35	3823.56
493.55	3862.47
493.75	3801.03
493.95	3973.06
494.15	3381.20
494.35	3272.65
494.56	3377.10
494.76	3303.37
494.96	3278.80
495.16	3030.99
495.36	3426.25
495.56	3590.09
495.76	3215.31
495.96	3133.39
496.16	3246.03
496.36	3852.23
496.56	3057.62
496.77	3176.40
496.97	3434.44
497.17	3801.03
497.37	2979.79
497.57	3346.38
497.77	3508.17
497.97	3194.83
498.17	3250.13
498.37	3239.89
498.57	3532.75
498.77	3323.85
498.97	3387.34
499.17	3510.22
499.38	3383.24
499.58	3569.61
499.78	3327.95
499.98	3295.18
500.18	3368.91
500.38	3219.41
500.58	3352.52
500.78	3706.82
500.98	6080.42
501.18	7767.95
501.38	9027.45
501.58	10094.44
501.78	9924.46
501.98	8308.61
502.18	6997.91
502.38	6100.90
502.58	6248.35
502.78	5566.38
502.98	5314.48
503.18	4978.61
503.38	4876.21
503.59	4200.38
503.79	4069.31
503.99	3755.97
504.19	3981.25
504.39	4003.78
504.59	3542.99
504.79	3524.55
504.99	3956.68
505.19	3694.54
505.39	3299.28
505.59	3532.75
505.79	3794.89
505.99	3635.14
506.19	3233.74
506.39	3418.06
506.59	3258.32
506.79	3360.72
506.99	3442.64
507.19	3108.82
507.39	3555.27
507.59	3141.58
507.79	3186.64
507.99	3114.96
508.19	3311.57
508.39	3332.05
508.59	3151.82
508.79	3196.88
508.99	3862.47
509.19	3309.52
509.39	3184.59
509.59	3125.20
509.79	3286.99
509.99	3450.83
510.19	3301.33
510.39	3301.33
510.59	3368.91
510.79	3295.18
510.99	2967.51
511.19	3135.44
511.39	3721.16
511.59	3684.30
511.79	3344.33
511.99	3200.98
512.19	3823.56
512.38	3411.92
512.58	3071.95
512.78	3082.19
512.98	3704.78
513.18	3782.60
513.38	3082.19
513.58	3295.18
513.78	3330.00
513.98	3356.62
514.18	3133.39
514.38	3254.22
514.58	3479.50
514.78	3289.04
514.98	3045.33
515.18	3139.54
515.38	3221.45
515.58	3829.70
515.78	3178.45
515.98	3188.69
516.18	3540.94
516.38	3450.83
516.57	3157.97
516.77	3176.40
516.97	3606.47
517.17	3295.18
517.37	2973.65
517.57	3213.26
517.77	3454.92
517.97	3377.10
518.17	3221.45
518.37	3000.27
518.57	3282.89
518.77	3276.75
518.97	3164.11
519.16	3168.21
519.36	3706.82
519.56	3196.88
519.76	3063.76
519.96	3207.12
520.16	3811.27
520.36	3250.13
520.56	3358.67
520.76	3051.47
520.96	3452.88
521.16	3622.86
521.35	3377.10
521.55	3205.07
521.75	3430.35
521.95	3338.19
522.15	3053.52
522.35	3055.57
522.55	3309.52
522.75	3551.18
522.95	3125.20
523.14	3033.04
523.34	3373.00
523.54	3317.71
523.74	3268.56
523.94	3237.84
524.14	3141.58
524.34	3542.99
524.54	3389.39
524.73	3205.07
524.93	3553.23
525.13	3477.45
525.33	3065.81
525.53	3389.39
525.73	3620.81
525.93	3491.79
526.13	3301.33
526.32	3065.81
526.52	3678.15
526.72	3608.52
526.92	3225.55
527.12	3094.48
527.32	3164.11
527.52	3524.55
527.71	3190.74
527.91	3137.49
528.11	3315.66
528.31	3393.48
528.51	3160.02
528.71	3297.23
528.90	3594.19
529.10	3698.63
529.30	3188.69
529.50	2967.51
529.70	3510.22
529.90	3418.06
530.09	3086.29
530.29	2918.36
530.49	3297.23
530.69	4048.83
530.89	3303.37
531.09	3268.56
531.28	3393.48
531.48	3641.29
531.68	3180.50
531.88	3184.59
532.08	3600.33
532.28	3379.15
532.47	3327.95
532.67	3268.56
532.87	3620.81
533.07	3205.07
533.27	3147.73
533.46	3246.03
533.66	3504.07
533.86	3424.20
534.06	3198.93
534.26	3084.24
534.45	3391.44
534.65	3612.62
534.85	3291.09
535.05	3137.49
535.25	3680.20
535.44	3069.91
535.64	3305.42
535.84	3243.98
536.04	3282.89
536.24	3354.57
536.43	3088.34
536.63	3030.99
536.83	3442.64
537.03	3370.96
537.22	2961.36
537.42	3051.47
537.62	3481.55
537.82	3311.57
538.02	3389.39
538.21	3241.93
538.41	4106.18
538.61	3557.32
538.81	3239.89
539.00	3381.20
539.20	3168.21
539.40	3297.23
539.60	3139.54
539.79	3401.68
539.99	3354.57
540.19	3184.59
540.39	3090.38
540.58	3198.93
540.78	3641.29
540.98	3471.31
541.18	3416.01
541.37	3168.21
541.57	3510.22
541.77	3499.98
541.97	3117.01
542.16	3057.62
542.36	3387.34
542.56	3614.66
542.76	3311.57
542.95	3293.13
543.15	3585.99
543.35	3547.08
543.54	3145.68
543.74	3049.43
543.94	3780.55
544.14	3323.85
544.33	3284.94
544.53	3102.67
544.73	3344.33
544.93	3327.95
545.12	3160.02
545.32	3196.88
545.52	3381.20
545.71	3235.79
545.91	3248.08
546.11	3176.40
546.30	3203.02
546.50	3467.21
546.70	3336.14
546.90	3172.30
547.09	3127.25
547.29	3420.11
547.49	3317.71
547.68	3157.97
547.88	3215.31
548.08	3614.66
548.27	3499.98
548.47	3160.02
548.67	3286.99
548.87	3542.99
549.06	3094.48
549.26	3135.44
549.46	3506.12
549.65	3340.24
549.85	3166.16
550.05	3135.44
550.24	3153.87
550.44	3405.77
550.64	3262.41
550.83	3301.33
551.03	3721.16
551.23	3686.34
551.42	3160.02
551.62	3264.46
551.82	3391.44
552.01	3342.28
552.21	3585.99
552.41	3246.03
552.60	3733.45
552.80	3391.44
553.00	3104.72
553.19	3129.30
553.39	3819.46
553.59	3147.73
553.78	3340.24
553.98	3094.48
554.17	3143.63
554.37	3549.13
554.57	3209.17
554.76	3035.09
554.96	3356.62
555.16	3387.34
555.35	3338.19
555.55	3368.91
555.75	3434.44
555.94	3524.55
556.14	2975.70
556.33	3211.22
556.53	3321.81
556.73	3358.67
556.92	3127.25
557.12	3157.97
557.32	3868.61
557.51	3784.65
557.71	3235.79
557.90	3344.33
558.10	3766.21
558.30	3399.63
558.49	3241.93
558.69	3184.59
558.88	3510.22
559.08	3461.07
559.28	3239.89
559.47	3266.51
559.67	3583.95
559.86	4024.26
560.06	3117.01
560.26	3164.11
560.45	3534.79
560.65	3336.14
560.84	3446.73
561.04	3074.00
561.24	3583.95
561.43	3200.98
561.63	3442.64
561.82	3252.17
562.02	3645.38
562.22	3215.31
562.41	3080.14
562.61	3166.16
562.80	3213.26
563.00	4075.46
563.19	3200.98
563.39	3315.66
563.59	3633.10
563.78	3311.57
563.98	2967.51
564.17	3221.45
564.37	3045.33
564.56	3456.97
564.76	3117.01
564.96	3321.81
565.15	3575.75
565.35	3999.68
565.54	3205.07
565.74	3221.45
565.93	3600.33
566.13	3463.12
566.32	3205.07
566.52	3303.37
566.71	3518.41
566.91	3579.85
567.11	3317.71
567.30	3123.15
567.50	3561.42
567.69	3540.94
567.89	3114.96
568.08	3074.00
568.28	3430.35
568.47	3196.88
568.67	3188.69
568.86	3176.40
569.06	3633.10
569.25	3295.18
569.45	3041.23
569.64	3205.07
569.84	3368.91
570.04	3459.02
570.23	3180.50
570.43	3157.97
570.62	3497.93
570.82	3784.65
571.01	2987.99
571.21	3157.97
571.40	3303.37
571.60	3639.24
571.79	3172.30
571.99	3157.97
572.18	3264.46
572.38	3471.31
572.57	3225.55
572.77	3198.93
572.96	4044.74
573.16	3520.46
573.35	3135.44
573.55	3254.22
573.74	3469.26
573.94	3260.37
574.13	3192.78
574.33	3352.52
574.52	3717.06
574.71	3409.87
574.91	3211.22
575.10	3014.61
575.30	3323.85
575.49	3221.45
575.69	3117.01
575.88	3110.86
576.08	3360.72
576.27	3655.62
576.47	3084.24
576.66	3319.76
576.86	3731.40
577.05	3557.32
577.25	3270.61
577.44	3278.80
577.64	3313.61
577.83	3631.05
578.02	3221.45
578.22	3258.32
578.41	3811.27
578.61	3354.57
578.80	3082.19
579.00	3237.84
579.19	3430.35
579.39	3516.36
579.58	3289.04
579.77	3307.47
579.97	3694.54
580.16	3647.43
580.36	3416.01
580.55	3203.02
580.75	3504.07
580.94	3475.40
581.13	3375.05
581.33	3426.25
581.52	3338.19
581.72	3858.37
581.91	3258.32
582.11	3180.50
582.30	3491.79
582.49	3454.92
582.69	3493.83
582.88	3295.18
583.08	3524.55
583.27	3676.10
583.47	3321.81
583.66	3168.21
583.85	3254.22
584.05	3506.12
584.24	3342.28
584.44	3237.84
584.63	3639.24
584.82	3739.59
585.02	3411.92
585.21	3295.18
585.41	3510.22
585.60	3454.92
585.79	3336.14
585.99	3454.92
586.18	3422.16
586.37	4405.18
586.57	6547.36
586.76	18384.62
586.96	37318.09
587.15	49562.89
587.34	57595.03
587.54	61037.66
587.73	53392.59
587.93	38655.41
588.12	29883.96
588.31	24635.02
588.51	21984.94
588.70	20389.58
588.89	17862.38
589.09	15120.15
589.28	13166.39
589.47	10428.26
589.67	7878.54
589.86	6180.77
590.06	4935.60
590.25	4450.24
590.44	3874.76
590.64	3571.66
590.83	3620.81
591.02	3657.67
591.22	3231.69
591.41	3180.50
591.60	3426.25
591.80	3991.49
591.99	2951.12
592.18	3135.44
592.38	3573.71
592.57	3252.17
592.76	3147.73
592.96	3274.70
593.15	3379.15
593.34	3620.81
593.54	3203.02
593.73	3313.61
593.92	3602.38
594.12	3532.75
594.31	3282.89
594.50	3373.00
594.70	3665.86
594.89	4061.12
595.08	3010.51
595.28	3309.52
595.47	4132.80
595.66	3682.25
595.86	3172.30
596.05	3043.28
596.24	3307.47
596.43	3903.43
596.63	3198.93
596.82	3377.10
597.01	3549.13
597.21	3758.02
597.40	3180.50
597.59	3229.65
597.79	3481.55
597.98	3573.71
598.17	3250.13
598.36	3272.65
598.56	3626.95
598.75	3340.24
598.94	3237.84
599.14	3198.93
599.33	3356.62
599.52	3700.68
599.71	3233.74
599.91	3123.15
600.10	3581.90
600.29	3456.97
600.48	3237.84
600.68	3295.18
600.87	3485.64
601.06	3301.33
601.26	3303.37
601.45	3291.09
601.64	3479.50
601.83	3753.93
602.03	3030.99
602.22	3074.00
602.41	3712.97
602.60	3995.59
602.80	3286.99
602.99	3403.72
603.18	3330.00
603.37	3475.40
603.57	3094.48
603.76	3160.02
603.95	3778.50
604.14	3330.00
604.34	3166.16
604.53	3133.39
604.72	3456.97
604.91	3491.79
605.10	3166.16
605.30	3026.90
605.49	3905.48
605.68	3532.75
605.87	3143.63
606.07	3112.91
606.26	3397.58
606.45	3633.10
606.64	3170.26
606.84	3094.48
607.03	3348.43
607.22	3620.81
607.41	3221.45
607.60	3221.45
607.80	3614.66
607.99	3393.48
608.18	3139.54
608.37	3237.84
608.56	3260.37
608.76	3663.82
608.95	3309.52
609.14	3172.30
609.33	3598.28
609.52	3696.58
609.72	3295.18
609.91	3280.85
610.10	3516.36
610.29	3772.36
610.48	3330.00
610.68	3327.95
610.87	3370.96
611.06	3626.95
611.25	3123.15
611.44	3272.65
611.63	3305.42
611.83	3731.40
612.02	3088.34
612.21	3217.36
612.40	3010.51
612.59	3241.93
612.79	3153.87
612.98	3225.55
613.17	3858.37
613.36	3459.02
613.55	3248.08
613.74	3170.26
613.93	3499.98
614.13	3450.83
614.32	3256.27
614.51	3196.88
614.70	3330.00
614.89	3448.78
615.08	3332.05
615.28	3418.06
615.47	3190.74
615.66	3465.16
615.85	3213.26
616.04	3286.99
616.23	3528.65
616.42	3420.11
616.62	3182.54
616.81	3223.50
617.00	3479.50
617.19	3631.05
617.38	3282.89
617.57	3315.66
617.76	3667.91
617.95	3581.90
618.15	3379.15
618.34	3340.24
618.53	3063.76
618.72	3694.54
618.91	3223.50
619.10	3272.65
619.29	3370.96
619.48	3428.30
619.68	3076.05
619.87	3147.73
620.06	3192.78
620.25	3723.21
620.44	3207.12
620.63	3139.54
620.82	3416.01
621.01	3452.88
621.20	3235.79
621.39	3250.13
621.59	3491.79
621.78	3377.10
621.97	3139.54
622.16	3336.14
622.35	3557.32
622.54	3596.23
622.73	3254.22
622.92	2977.75
623.11	3661.77
623.30	3383.24
623.49	3295.18
623.68	3067.86
623.88	3774.41
624.07	3319.76
624.26	3086.29
624.45	3157.97
624.64	3297.23
624.83	3530.70
625.02	3207.12
625.21	3180.50
625.40	3485.64
625.59	3692.49
625.78	3260.37
625.97	3209.17
626.16	3749.83
626.35	3594.19
626.54	3110.86
626.74	3409.87
626.93	3323.85
627.12	3428.30
627.31	3170.26
627.50	3250.13
627.69	3547.08
627.88	3272.65
628.07	3121.10
628.26	2951.12
628.45	3278.80
628.64	3334.09
628.83	3041.23
629.02	2996.18
629.21	3653.58
629.40	3549.13
629.59	3045.33
629.78	3225.55
629.97	3442.64
630.16	3389.39
630.35	3207.12
630.54	3241.93
630.73	3284.94
630.92	3278.80
631.11	3051.47
631.30	3178.45
631.49	3600.33
631.68	3327.95
631.87	3221.45
632.06	3061.71
632.25	4001.73
632.44	3491.79
632.63	3215.31
632.82	3213.26
633.01	3248.08
633.20	3522.51
633.39	3147.73
633.58	2938.84
633.77	3559.37
633.96	3467.21
634.15	3260.37
634.34	3305.42
634.53	3368.91
634.72	3340.24
634.91	3002.32
635.10	3147.73
635.29	3547.08
635.48	3397.58
635.67	3110.86
635.86	3065.81
636.05	3741.64
636.24	3477.45
636.43	3112.91
636.62	3231.69
636.81	2936.79
637.00	3428.30
637.19	3123.15
637.38	3205.07
637.57	3323.85
637.76	3358.67
637.95	3303.37
638.14	3450.83
638.33	3487.69
638.52	3375.05
638.71	3106.77
638.89	3026.90
639.08	4022.21
639.27	3657.67
639.46	3446.73
639.65	3708.87
639.84	3887.04
640.03	4009.92
640.22	3547.08
640.41	3499.98
640.60	3461.07
640.79	3614.66
640.98	3395.53
641.17	3327.95
641.36	3583.95
641.55	3680.20
641.74	2981.84
641.92	3114.96
642.11	3250.13
642.30	3311.57
642.49	3082.19
642.68	3219.41
642.87	3514.31
643.06	3618.76
643.25	3067.86
643.44	3123.15
643.63	3434.44
643.82	3499.98
644.00	2996.18
644.19	3215.31
644.38	3233.74
644.57	3516.36
644.76	3145.68
644.95	3346.38
645.14	3522.51
645.33	3391.44
645.52	3262.41
645.71	3051.47
645.89	3313.61
646.08	3411.92
646.27	3184.59
646.46	3340.24
646.65	3188.69
646.84	3487.69
647.03	3098.58
647.22	3348.43
647.40	3518.41
647.59	3391.44
647.78	2959.31
647.97	3221.45
648.16	3301.33
648.35	3690.44
648.54	3479.50
648.73	3221.45
648.91	3577.80
649.10	3499.98
649.29	3071.95
649.48	3100.62
649.67	3575.75
649.86	3499.98
650.05	3200.98
650.23	3403.72
650.42	3411.92
650.61	3647.43
650.80	3401.68
650.99	3430.35
651.18	3672.01
651.36	3674.06
651.55	3086.29
651.74	3370.96
651.93	3317.71
652.12	3463.12
652.31	3256.27
652.49	3260.37
652.68	3346.38
652.87	3805.13
653.06	3258.32
653.25	3461.07
653.44	3444.68
653.62	3870.66
653.81	3260.37
654.00	3123.15
654.19	3635.14
654.38	4005.83
654.56	3291.09
654.75	3153.87
654.94	3690.44
655.13	3409.87
655.32	3063.76
655.51	3315.66
655.69	3315.66
655.88	3674.06
656.07	3057.62
656.26	3166.16
656.45	3217.36
656.63	3432.40
656.82	3190.74
657.01	3461.07
657.20	3289.04
657.38	3780.55
657.57	3170.26
657.76	3020.75
657.95	3635.14
658.14	3362.76
658.32	3254.22
658.51	3114.96
658.70	3475.40
658.89	3506.12
659.08	3196.88
659.26	3403.72
659.45	3246.03
659.64	3561.42
659.83	3239.89
660.01	3616.71
660.20	3514.31
660.39	3706.82
660.58	2901.97
660.76	3239.89
660.95	3133.39
661.14	3499.98
661.33	2975.70
661.51	3188.69
661.70	3411.92
661.89	3547.08
662.08	3194.83
662.26	2977.75
662.45	3186.64
662.64	3794.89
662.83	3221.45
663.01	3100.62
663.20	3237.84
663.39	3807.17
663.58	3248.08
663.76	3186.64
663.95	3577.80
664.14	3172.30
664.32	3231.69
664.51	3067.86
664.70	3057.62
664.89	3499.98
665.07	3143.63
665.26	3203.02
665.45	3125.20
665.64	3520.46
665.82	3225.55
666.01	3248.08
666.20	3246.03
666.38	3631.05
666.57	3559.37
666.76	5746.60
666.95	12576.58
667.13	18837.22
667.32	22312.62
667.51	25042.56
667.69	25536.12
667.88	21268.16
668.07	15460.12
668.25	13057.85
668.44	11794.25
668.63	10340.19
668.81	8742.78
669.00	7874.44
669.19	7233.43
669.38	6186.91
669.56	5408.69
669.75	4747.19
669.94	4425.66
670.12	3811.27
670.31	3418.06
670.50	3454.92
670.68	3684.30
670.87	3504.07
671.06	3164.11
671.24	3223.50
671.43	3747.78
671.62	3399.63
671.80	3229.65
671.99	3295.18
672.18	3542.99
672.36	3598.28
672.55	3266.51
672.74	3205.07
672.92	3330.00
673.11	3698.63
673.29	3080.14
673.48	3399.63
673.67	3416.01
673.85	3545.03
674.04	3164.11
674.23	3327.95
674.41	3835.85
674.60	3254.22
674.79	3010.51
674.97	2987.99
675.16	3651.53
675.34	3606.47
675.53	3135.44
675.72	3211.22
675.90	3903.43
676.09	3401.68
676.28	3311.57
676.46	3047.38
676.65	3663.82
676.83	3227.60
677.02	3196.88
677.21	3246.03
677.39	3491.79
677.58	3336.14
677.77	3157.97
677.95	3131.34
678.14	3461.07
678.32	3389.39
678.51	3213.26
678.70	3528.65
678.88	3323.85
679.07	3491.79
679.25	3264.46
679.44	3250.13
679.63	3182.54
679.81	3467.21
680.00	3418.06
680.18	3174.35
680.37	3798.98
680.55	3565.51
680.74	3022.80
680.93	2969.55
681.11	3528.65
681.30	3495.88
681.48	3205.07
681.67	3241.93
681.85	3493.83
682.04	3229.65
682.23	3311.57
682.41	3338.19
682.60	3366.86
682.78	3330.00
682.97	3063.76
683.15	3200.98
683.34	3487.69
683.53	3712.97
683.71	3110.86
683.90	3289.04
684.08	3815.37
684.27	3303.37
684.45	3258.32
684.64	3299.28
684.82	3508.17
685.01	3483.59
685.19	3155.92
685.38	3487.69
685.57	3467.21
685.75	3348.43
685.94	3110.86
686.12	3155.92
686.31	3375.05
686.49	3780.55
686.68	2932.69
686.86	3258.32
687.05	3397.58
687.23	3721.16
687.42	3293.13
687.60	3041.23
687.79	3641.29
687.97	3801.03
688.16	3295.18
688.34	3403.72
688.53	3024.85
688.71	3530.70
688.90	3573.71
689.08	3237.84
689.27	3096.53
689.45	3606.47
689.64	3321.81
689.82	3313.61
690.01	3571.66
690.19	3547.08
690.38	3217.36
690.56	3276.75
690.75	3203.02
690.93	3409.87
691.12	3207.12
691.30	3221.45
691.49	3364.81
691.67	3436.49
691.86	3497.93
692.04	3280.85
692.23	3397.58
692.41	3401.68
692.60	3532.75
692.78	3399.63
692.97	3444.68
693.15	3635.14
693.34	3426.25
693.52	3401.68
693.71	3278.80
693.89	3446.73
694.08	2994.13
694.26	3190.74
694.44	3651.53
694.63	3606.47
694.81	3170.26
695.00	3289.04
695.18	3680.20
695.37	4022.21
695.55	3284.94
695.74	3262.41
695.92	3356.62
696.10	3665.86
696.29	3135.44
696.47	3252.17
696.66	3215.31
696.84	3243.98
697.03	3293.13
697.21	3483.59
697.40	4751.29
697.58	3704.78
697.76	3264.46
697.95	3196.88
698.13	3084.24
698.32	3282.89
698.50	3241.93
698.68	3200.98
698.87	3430.35
699.05	3782.60
699.24	3143.63
699.42	3110.86
699.61	3516.36
699.79	3409.87
699.97	3233.74
700.16	3123.15
700.34	3172.30
700.53	3418.06
700.71	3487.69
700.89	3389.39
701.08	3373.00
701.26	3438.54
701.45	3483.59
701.63	3172.30
701.81	3330.00
702.00	3246.03
702.18	3323.85
702.37	3127.25
702.55	3696.58
702.73	3483.59
702.92	3125.20
703.10	3377.10
703.28	3614.66
703.47	3196.88
703.65	3358.67
703.84	3336.14
704.02	3356.62
704.20	3745.73
704.39	3182.54
704.57	3207.12
704.75	3622.86
704.94	3518.41
705.12	3270.61
705.30	4009.92
705.49	8034.18
705.67	14804.77
705.86	19181.28
706.04	21325.50
706.22	23541.40
706.41	22445.74
706.59	16656.13
706.77	13539.12
706.96	11654.99
707.14	10757.98
707.32	9138.04
707.51	8109.96
707.69	6879.13
707.87	5803.94
708.06	4851.64
708.24	4243.39
708.42	4106.18
708.61	4313.02
708.79	3395.53
708.97	3407.82
709.16	3538.89
709.34	3524.55
709.52	3266.51
709.71	3229.65
709.89	3581.90
710.07	3254.22
710.26	3082.19
710.44	3184.59
710.62	3622.86
710.80	3407.82
710.99	3299.28
711.17	3358.67
711.35	3258.32
711.54	3323.85
711.72	3405.77
711.90	3182.54
712.09	3479.50
712.27	3311.57
712.45	3327.95
712.63	3241.93
712.82	3493.83
713.00	3510.22
713.18	3340.24
713.37	3395.53
713.55	3551.18
713.73	3606.47
713.91	3286.99
714.10	3164.11
714.28	3377.10
714.46	3477.45
714.65	3383.24
714.83	3237.84
715.01	3524.55
715.19	3440.59
715.38	3086.29
715.56	3397.58
715.74	3311.57
715.92	3280.85
716.11	3563.47
716.29	2965.46
716.47	3420.11
716.65	3463.12
716.84	3141.58
717.02	3250.13
717.20	3092.43
717.38	3258.32
717.57	3413.96
717.75	3207.12
717.93	3229.65
718.11	3626.95
718.30	3059.67
718.48	3262.41
718.66	3643.34
718.84	3723.21
719.03	3227.60
719.21	3045.33
719.39	3819.46
719.57	3565.51
719.75	3289.04
719.94	3176.40
720.12	3379.15
720.30	3397.58
720.48	3340.24
720.67	3231.69
720.85	3258.32
721.03	3260.37
721.21	3182.54
721.39	3237.84
721.58	3608.52
721.76	3401.68
721.94	3303.37
722.12	3354.57
722.30	3778.50
722.49	3375.05
722.67	3198.93
722.85	3225.55
723.03	3030.99
723.21	3305.42
723.40	3213.26
723.58	3336.14
723.76	3629.00
723.94	3637.19
724.12	3246.03
724.30	3454.92
724.49	3579.85
724.67	3164.11
724.85	3258.32
725.03	3057.62
725.21	3583.95
725.40	3702.73
725.58	3297.23
725.76	3463.12
725.94	3530.70
726.12	3260.37
726.30	3276.75
726.49	3098.58
726.67	3297.23
726.85	3614.66
727.03	3964.87
727.21	4962.23
727.39	6129.57
727.57	6522.78
727.76	6776.73
727.94	6655.90
728.12	6021.03
728.30	5064.63
728.48	4951.99
728.66	4470.72
728.84	4188.10
729.03	3950.53
729.21	3647.43
729.39	3545.03
729.57	3454.92
729.75	3565.51
729.93	3444.68
730.11	3123.15
730.30	3340.24
730.48	3360.72
730.66	3276.75
730.84	3334.09
731.02	3450.83
731.20	3346.38
731.38	3254.22
731.56	3147.73
731.74	3117.01
731.93	3508.17
732.11	3291.09
732.29	3119.06
732.47	3606.47
732.65	3516.36
732.83	3379.15
733.01	3338.19
733.19	3389.39
733.37	3610.57
733.56	3182.54
733.74	3090.38
733.92	3712.97
734.10	3379.15
734.28	3330.00
734.46	2953.17
734.64	3352.52
734.82	3403.72
735.00	3200.98
735.18	3186.64
735.36	3475.40
735.54	3542.99
735.73	3233.74
735.91	3317.71
736.09	3743.69
736.27	3426.25
736.45	3235.79
736.63	2938.84
736.81	3407.82
736.99	3672.01
737.17	3409.87
737.35	3121.10
737.53	3442.64
737.71	3346.38
737.89	3463.12
738.07	3217.36
738.25	3297.23
738.43	3123.15
738.61	3254.22
738.80	3102.67
738.98	3286.99
739.16	3370.96
739.34	3188.69
739.52	3516.36
739.70	3370.96
739.88	3547.08
740.06	3405.77
740.24	2901.97
740.42	3663.82
740.60	3049.43
740.78	3239.89
740.96	2934.74
741.14	3418.06
741.32	3360.72
741.50	3065.81
741.68	3487.69
741.86	3723.21
742.04	3225.55
742.22	3028.95
742.40	3192.78
742.58	3598.28
742.76	3338.19
742.94	3426.25
743.12	2987.99
743.30	3461.07
743.48	3553.23
743.66	3121.10
743.84	3223.50
744.02	3377.10
744.20	3450.83
744.38	3045.33
744.56	3170.26
744.74	3827.65
744.92	3553.23
745.10	3387.34
745.28	3254.22
745.46	3717.06
745.64	3413.96
745.82	3260.37
746.00	3155.92
746.18	3475.40
746.36	3231.69
746.54	3270.61
746.72	3289.04
746.90	3196.88
747.08	3639.24
747.26	3102.67
747.44	3385.29
747.62	3514.31
747.80	3575.75
747.98	3340.24
748.15	3172.30
748.33	3921.86
748.51	3407.82
748.69	3319.76
748.87	3139.54
749.05	3385.29
749.23	3413.96
749.41	3157.97
749.59	3129.30
749.77	3672.01
749.95	3330.00
750.13	3147.73
750.31	3334.09
750.49	3416.01
750.67	3631.05
750.85	3327.95
751.03	3139.54
751.20	3862.47
751.38	3493.83
751.56	3295.18
751.74	3184.59
751.92	3426.25
752.10	3229.65
752.28	3344.33
752.46	3164.11
752.64	3448.78
752.82	3481.55
753.00	3358.67
753.18	3127.25
753.35	3409.87
753.53	3375.05
753.71	3141.58
753.89	3221.45
754.07	3516.36
754.25	3672.01
754.43	3315.66
754.61	3094.48
754.79	3604.42
754.97	3450.83
755.14	3352.52
755.32	3098.58
755.50	3387.34
755.68	3499.98
755.86	3069.91
756.04	3155.92
756.22	3012.56
756.40	3614.66
756.57	3440.59
756.75	3135.44
756.93	3688.39
757.11	3545.03
757.29	3057.62
757.47	3078.10
757.65	3117.01
757.82	3002.32
758.00	3098.58
758.18	3215.31
758.36	3241.93
758.54	3899.33
758.72	3024.85
758.90	3399.63
759.07	3475.40
759.25	3307.47
759.43	3272.65
759.61	3065.81
759.79	4589.50
759.97	3651.53
760.15	3170.26
760.32	3135.44
760.50	3532.75
760.68	3809.22
760.86	3121.10
761.04	3524.55
761.22	3661.77
761.39	3407.82
761.57	3338.19
761.75	3174.35
761.93	3608.52
762.11	3411.92
762.28	3301.33
762.46	3155.92
762.64	3680.20
762.82	3125.20
763.00	3131.34
763.18	3440.59
763.35	3125.20
763.53	3545.03
763.71	3262.41
763.89	3131.34
764.07	3467.21
764.24	3454.92
764.42	3315.66
764.60	3217.36
764.78	3528.65
764.96	3518.41
765.13	3330.00
765.31	3114.96
765.49	3579.85
765.67	3164.11
765.84	3125.20
766.02	3125.20
766.20	3131.34
766.38	3594.19
766.56	3307.47
766.73	3241.93
766.91	3348.43
767.09	3387.34
767.27	3157.97
767.44	3098.58
767.62	3559.37
767.80	3422.16
767.98	3135.44
768.15	3239.89
768.33	3608.52
768.51	3733.45
768.69	3356.62
768.87	3123.15
769.04	3467.21
769.22	3966.92
769.40	3282.89
769.58	3356.62
769.75	3618.76
769.93	3712.97
770.11	3182.54
770.28	3074.00
770.46	3577.80
770.64	3446.73
770.82	3180.50
770.99	3139.54
771.17	3622.86
771.35	3395.53
771.53	3258.32
771.70	3127.25
771.88	3499.98
772.06	3332.05
772.23	3155.92
772.41	3184.59
772.59	3428.30
772.77	3209.17
772.94	3260.37
773.12	3270.61
773.30	3395.53
773.47	3510.22
773.65	3104.72
773.83	3356.62
774.01	3424.20
774.18	3114.96
774.36	3215.31
774.54	3086.29
774.71	3483.59
774.89	3090.38
775.07	3059.67
775.24	3194.83
775.42	3354.57
775.60	3897.28
775.78	3147.73
775.95	3043.28
776.13	3033.04
776.31	3098.58
776.48	3377.10
776.66	3395.53
776.84	3393.48
777.01	3260.37
777.19	3119.06
777.37	3094.48
777.54	3577.80
777.72	3803.08
777.90	3358.67
778.07	3131.34
778.25	4143.04
778.43	3676.10
778.60	3147.73
778.78	3338.19
778.96	3774.41
779.13	3094.48
779.31	3266.51
779.49	3295.18
779.66	3536.84
779.84	3338.19
780.01	3205.07
780.19	3125.20
780.37	3764.17
780.54	3567.56
780.72	3057.62
780.90	3231.69
781.07	3303.37
781.25	3289.04
781.43	3354.57
781.60	3108.82
781.78	3692.49
781.95	3624.90
782.13	3207.12
782.31	3151.82
782.48	3074.00
782.66	3534.79
782.83	3442.64
783.01	3289.04
783.19	3577.80
783.36	3422.16
783.54	3151.82
783.72	3256.27
783.89	3286.99
784.07	3481.55
784.24	3336.14
784.42	3297.23
784.60	3475.40
784.77	3493.83
784.95	2996.18
785.12	3157.97
785.30	3499.98
785.47	3264.46
785.65	3106.77
785.83	3180.50
786.00	3426.25
786.18	3483.59
786.35	3100.62
786.53	3141.58
786.71	3694.54
786.88	3524.55
787.06	3237.84
787.23	3274.70
787.41	3166.16
787.58	3344.33
787.76	3127.25
787.94	3252.17
788.11	3563.47
788.29	3227.60
788.46	3215.31
788.64	2967.51
788.81	3348.43
788.99	3282.89
789.16	3141.58
789.34	3215.31
789.52	3330.00
789.69	3262.41
789.87	3022.80
790.04	3137.49
790.22	3450.83
790.39	3827.65
790.57	3020.75
790.74	3172.30
790.92	3641.29
791.09	3076.05
791.27	3246.03
791.44	3254.22
791.62	3432.40
791.79	3545.03
791.97	3164.11
792.15	3545.03
792.32	3618.76
792.50	3692.49
792.67	3311.57
792.85	3487.69
793.02	3383.24
793.20	3305.42
793.37	3057.62
793.55	3141.58
793.72	3151.82
793.90	3518.41
794.07	3188.69
794.25	2987.99
794.42	3405.77
794.60	3321.81
794.77	3227.60
794.95	3334.09
795.12	3626.95
795.30	3368.91
795.47	2969.55
795.65	3434.44
795.82	3442.64
796.00	3254.22
796.17	3299.28
796.34	3149.78
796.52	3516.36
796.69	3596.23
796.87	3243.98
797.04	3377.10
797.22	3688.39
797.39	3477.45
797.57	3407.82
797.74	3338.19
797.92	3565.51
798.09	3305.42
798.27	3534.79
798.44	3102.67
798.62	3227.60
798.79	3409.87
798.96	3334.09
799.14	3084.24
799.31	3993.54
799.49	3317.71
799.66	3172.30
799.84	3219.41
800.01	3174.35
800.19	3485.64
800.36	2963.41
800.53	3276.75
800.71	3465.16
800.88	3764.17
801.06	3080.14
801.23	3155.92
801.41	3348.43
801.58	3389.39
801.75	3213.26
801.93	3280.85
802.10	3602.38
802.28	3362.76
802.45	3309.52
802.63	3200.98
802.80	3710.92
802.97	3342.28
803.15	3131.34
803.32	3147.73
803.50	3293.13
803.67	3305.42
803.84	3147.73
804.02	3311.57
804.19	3375.05
804.37	2971.60
804.54	2983.89
804.71	3147.73
804.89	3420.11
805.06	3170.26
805.24	3205.07
805.41	3014.61
805.58	3325.90
805.76	4022.21
805.93	3100.62
806.10	3336.14
806.28	3489.74
806.45	3491.79
806.63	3332.05
806.80	3227.60
806.97	3426.25
807.15	3370.96
807.32	3266.51
807.49	3231.69
807.67	3184.59
807.84	3516.36
808.01	3080.14
808.19	3352.52
808.36	3831.75
808.54	3428.30
808.71	3139.54
808.88	3151.82
809.06	3672.01
809.23	3819.46
809.40	3248.08
809.58	3117.01
809.75	3381.20
809.92	3231.69
810.10	3461.07
810.27	3166.16
810.44	3532.75
810.62	3633.10
810.79	3213.26
810.96	3164.11
811.14	3325.90
811.31	3479.50
811.48	3430.35
811.66	3180.50
811.83	3585.99
812.00	3647.43
812.18	3299.28
812.35	3499.98
812.52	3389.39
812.69	3284.94
812.87	3192.78
813.04	3069.91
813.21	3430.35
813.39	3223.50
813.56	3102.67
813.73	3485.64
813.91	3135.44
814.08	3360.72
814.25	3186.64
814.42	2985.94
814.60	3395.53
814.77	3420.11
814.94	3059.67
815.12	3325.90
815.29	3772.36
815.46	3332.05
815.63	3192.78
815.81	3246.03
815.98	3364.81
816.15	3373.00
816.33	3276.75
816.50	3229.65
816.67	3508.17
816.84	3360.72
817.02	3096.53
817.19	3237.84
817.36	3477.45
817.53	3532.75
817.71	3061.71
817.88	3164.11
818.05	3446.73
818.22	3352.52
818.40	3399.63
818.57	3149.78
818.74	3506.12
818.91	3364.81
819.09	3409.87
819.26	3358.67
819.43	3282.89
819.60	3215.31
819.78	3391.44
819.95	3221.45
820.12	3135.44
820.29	3848.13
820.47	3479.50
820.64	3141.58
820.81	3239.89
820.98	3192.78
821.15	3178.45
821.33	3239.89
821.50	3098.58
821.67	3604.42
821.84	3145.68
822.02	3209.17
822.19	3624.90
822.36	3389.39
822.53	3139.54
822.70	3082.19
822.88	3352.52
823.05	3766.21
823.22	3225.55
823.39	3200.98
823.56	3434.44
823.74	3778.50
823.91	3018.71
824.08	3133.39
824.25	3186.64
824.42	3778.50
824.60	3035.09
824.77	3280.85
824.94	3354.57
825.11	3526.60
825.28	3092.43
825.45	3444.68
825.63	3469.26
825.80	3313.61
825.97	3309.52
826.14	3190.74
826.31	3147.73
826.48	3585.99
826.66	3194.83
826.83	3180.50
827.00	3450.83
827.17	3221.45
827.34	3198.93
827.51	3160.02
827.69	3401.68
827.86	3119.06
828.03	3301.33
828.20	3172.30
828.37	3321.81
828.54	3524.55
828.71	3153.87
828.89	3258.32
829.06	3532.75
829.23	3684.30
829.40	3141.58
829.57	3176.40
829.74	3614.66
829.91	3344.33
830.09	3164.11
830.26	3368.91
830.43	3774.41
830.60	3340.24
830.77	3223.50
830.94	3420.11
831.11	3643.34
831.28	3262.41
831.46	3319.76
831.63	3239.89
831.80	3649.48
831.97	3246.03
832.14	3217.36
832.31	3194.83
832.48	3485.64
832.65	3622.86
832.82	3381.20
832.99	3243.98
833.17	3223.50
833.34	3696.58
833.51	3117.01
833.68	2955.22
833.85	3674.06
834.02	3219.41
834.19	3106.77
834.36	3209.17
834.53	3450.83
834.70	3585.99
834.87	3147.73
835.04	2910.16
835.22	3289.04
835.39	3303.37
835.56	2979.79
835.73	3061.71
835.90	3667.91
836.07	3196.88
836.24	3168.21
836.41	3065.81
836.58	3217.36
836.75	3579.85
836.92	2992.08
837.09	2963.41
837.26	3516.36
837.43	3563.47
837.60	3020.75
837.77	2987.99
837.94	3696.58
838.12	3674.06
838.29	2940.88
838.46	2953.17
838.63	3205.07
838.80	3741.64
838.97	3172.30
839.14	2920.40
839.31	3518.41
839.48	3534.79
839.65	2979.79
839.82	3141.58
839.99	3420.11
840.16	3422.16
840.33	2963.41
840.50	3053.52
840.67	3266.51
840.84	2951.12
841.01	2910.16
841.18	3030.99
841.35	3395.53
841.52	3614.66
841.69	3299.28
841.86	3045.33
842.03	3342.28
842.20	3581.90
842.37	2979.79
842.54	3030.99
842.71	3469.26
842.88	3129.30
843.05	3112.91
843.22	3010.51
843.39	3645.38
843.56	3250.13
843.73	2987.99
843.90	3028.95
844.07	3405.77
844.24	3581.90
844.41	3092.43
844.58	3024.85
844.75	3438.54
844.92	3493.83
845.09	3002.32
845.26	3057.62
845.43	3635.14
845.60	3315.66
845.77	3049.43
845.94	3200.98
846.10	3692.49
846.27	3135.44
846.44	2893.78
846.61	2904.02
846.78	3526.60
846.95	3762.12
847.12	2957.27
847.29	3090.38
847.46	3213.26
847.63	3561.42
847.80	2961.36
847.97	3035.09
848.14	3891.14
848.31	3420.11
848.48	2901.97
848.65	3002.32
848.82	3223.50
848.98	3989.44
849.15	3166.16
849.32	3205.07
849.49	3631.05
849.66	3524.55
849.83	2951.12
850.00	2985.94
850.17	3569.61
850.34	3323.85
850.51	3000.27
850.68	3006.42
850.85	3948.48
851.01	3524.55
851.18	2949.08
851.35	3098.58
851.52	3551.18
851.69	3762.12
851.86	2953.17
852.03	3016.66
852.20	3663.82
852.37	3440.59
852.53	2850.77
852.70	2887.64
852.87	3499.98
853.04	3569.61
853.21	3020.75
853.38	3299.28
853.55	3762.12
853.72	3561.42
853.89	2867.16
854.05	3045.33
854.22	3422.16
854.39	3420.11
854.56	2992.08
854.73	3200.98
854.90	3200.98
855.07	3393.48
855.23	2897.88
855.40	2918.36
855.57	3418.06
855.74	3039.19
855.91	3200.98
856.08	2893.78
856.25	3121.10
856.41	3274.70
856.58	2967.51
856.75	3030.99
856.92	3186.64
857.09	3596.23
857.26	2803.67
857.42	3057.62
857.59	3594.19
857.76	3358.67
857.93	3039.19
858.10	3149.78
858.27	3180.50
858.43	3452.88
858.60	3004.37
858.77	3020.75
858.94	3327.95
859.11	3641.29
859.27	3098.58
859.44	3012.56
859.61	3930.05
859.78	3598.28
859.95	3049.43
860.12	2959.31
860.28	3989.44
860.45	3858.37
860.62	3012.56
860.79	3082.19
860.95	3319.76
861.12	3174.35
861.29	2942.93
861.46	3004.37
861.63	3409.87
861.79	3542.99
861.96	2895.83
862.13	3010.51
862.30	3690.44
862.47	3192.78
862.63	2803.67
862.80	3076.05
862.97	3665.86
863.14	3534.79
863.30	3074.00
863.47	2918.36
863.64	3774.41
863.81	3473.36
863.97	2856.92
864.14	3065.81
864.31	3401.68
864.48	3483.59
864.65	2947.03
864.81	3121.10
864.98	3565.51
865.15	3721.16
865.32	3074.00
865.48	3069.91
865.65	3702.73
865.82	3272.65
865.98	3055.57
866.15	3020.75
866.32	3452.88
866.49	3272.65
866.65	3108.82
866.82	3065.81
866.99	3409.87
867.16	3377.10
867.32	3076.05
867.49	2850.77
867.66	3293.13
867.83	3368.91
867.99	2971.60
868.16	3051.47
868.33	3133.39
868.49	3434.44
868.66	3063.76
868.83	3114.96
868.99	3411.92
869.16	3575.75
869.33	3166.16
869.50	3147.73
869.66	3502.03
869.83	3395.53
870.00	2963.41
870.16	3117.01
870.33	3463.12
870.50	3532.75
870.66	3047.38
870.83	2955.22
871.00	3373.00
871.17	3585.99
871.33	3098.58
871.50	2987.99
871.67	3381.20
871.83	3147.73
872.00	3131.34
872.17	3024.85
872.33	3868.61
872.50	3659.72
872.67	2947.03
872.83	2979.79
873.00	3540.94
873.17	3440.59
873.33	3114.96
873.50	3098.58
873.67	3266.51
873.83	3270.61
874.00	3002.32
874.16	3127.25
874.33	3438.54
874.50	3026.90
874.66	2916.31
874.83	3145.68
875.00	3712.97
875.16	3596.23
875.33	3137.49
875.50	2762.71
875.66	3346.38
875.83	3461.07
875.99	3092.43
876.16	3250.13
876.33	3160.02
876.49	3358.67
876.66	3047.38
876.83	3102.67
876.99	3108.82
877.16	3352.52
877.32	2934.74
877.49	3057.62
877.66	3545.03
877.82	3819.46
877.99	3069.91
878.15	3307.47
878.32	3487.69
878.49	3438.54
878.65	3094.48
878.82	3274.70
878.98	3393.48
879.15	3616.71
879.32	3203.02
879.48	3188.69
879.65	3387.34
879.81	3368.91
879.98	3018.71
880.15	3135.44
880.31	3540.94
880.48	3248.08
880.64	3086.29
880.81	3123.15
880.97	3755.97
881.14	3741.64
881.31	2969.55
881.47	3248.08
881.64	3373.00
881.80	3049.43
881.97	3256.27
882.13	3049.43
882.30	3231.69
882.47	3262.41
882.63	3057.62
882.80	2996.18
882.96	3330.00
883.13	3647.43
883.29	3135.44
883.46	3067.86
883.62	3903.43
883.79	3450.83
883.95	3217.36
884.12	2942.93
884.29	3796.93
884.45	3473.36
884.62	3090.38
884.78	2975.70
884.95	3798.98
885.11	3211.22
885.28	3112.91
885.44	3057.62
885.61	3651.53
885.77	3780.55
885.94	3166.16
886.10	3045.33
886.27	3364.81
886.43	3907.52
886.60	3205.07
886.76	3098.58
886.93	3203.02
887.09	3485.64
887.26	2901.97
887.42	3141.58
887.59	3723.21
887.75	3889.09
887.92	3200.98
888.08	3153.87
888.25	3870.66
888.41	3604.42
888.58	3106.77
888.74	2969.55
888.91	3303.37
>>>>>End Processed Spectral Data<<<<<
