SpectraSuite Data File
++++++++++++++++++++++++++++++++++++
Date: Fri May 06 09:28:40 CEST 2016
User: root
Dark Spectrum Present: No
Reference Spectrum Present: No
Number of Sampled Component Spectra: 1
Spectrometers: USB4C02835
Integration Time (usec): 100000 (USB4C02835)
Spectra Averaged: 1 (USB4C02835)
Boxcar Smoothing: 0 (USB4C02835)
Correct for Electrical Dark: No (USB4C02835)
Strobe/Lamp Enabled: No (USB4C02835)
Correct for Detector Non-linearity: No (USB4C02835)
Correct for Stray Light: No (USB4C02835)
Number of Pixels in Processed Spectrum: 3648
>>>>>Begin Processed Spectral Data<<<<<
177.47	2230.24
177.69	2230.24
177.91	2230.24
178.13	2381.79
178.36	2402.27
178.58	3084.24
178.80	3237.84
179.02	3190.74
179.24	3139.54
179.46	2830.29
179.68	2973.65
179.90	3336.14
180.13	3426.25
180.35	2721.75
180.57	2926.55
180.79	3608.52
181.01	3403.72
181.23	2955.22
181.45	3102.67
181.67	3641.29
181.90	3690.44
182.12	3020.75
182.34	2844.63
182.56	3667.91
182.78	3551.18
183.00	2867.16
183.22	3014.61
183.44	3069.91
183.66	4157.38
183.89	3139.54
184.11	2944.98
184.33	3633.10
184.55	3723.21
184.77	2885.59
184.99	2985.94
185.21	3336.14
185.43	4020.16
185.65	3018.71
185.87	2969.55
186.10	4016.07
186.32	4011.97
186.54	3102.67
186.76	3063.76
186.98	3665.86
187.20	3504.07
187.42	2998.23
187.64	2969.55
187.86	3532.75
188.08	3696.58
188.30	2797.53
188.52	3041.23
188.75	3729.35
188.97	3747.78
189.19	2979.79
189.41	2875.35
189.63	3545.03
189.85	3385.29
190.07	2758.61
190.29	2844.63
190.51	3512.27
190.73	3166.16
190.95	3139.54
191.17	2928.60
191.39	3086.29
191.61	3368.91
191.84	3024.85
192.06	3131.34
192.28	3059.67
192.50	4143.04
192.72	3200.98
192.94	3039.19
193.16	3704.78
193.38	3602.38
193.60	2906.07
193.82	3147.73
194.04	3680.20
194.26	3579.85
194.48	2934.74
194.70	2992.08
194.92	3338.19
195.14	3706.82
195.36	2914.26
195.58	3016.66
195.80	3452.88
196.02	3334.09
196.24	2940.88
196.46	3016.66
196.69	3270.61
196.91	4018.11
197.13	3135.44
197.35	3102.67
197.57	3854.28
197.79	3569.61
198.01	3053.52
198.23	2983.89
198.45	3569.61
198.67	3198.93
198.89	2734.04
199.11	3010.51
199.33	3301.33
199.55	2977.75
199.77	2979.79
199.99	3131.34
200.21	3338.19
200.43	3461.07
200.65	2797.53
200.87	2858.96
201.09	3467.21
201.31	3344.33
201.53	2961.36
201.75	2985.94
201.97	3520.46
202.19	3542.99
202.41	3024.85
202.63	3110.86
202.85	3536.84
203.07	3397.58
203.29	3086.29
203.51	2920.40
203.73	3319.76
203.95	4034.50
204.17	2963.41
204.39	3125.20
204.61	3413.96
204.83	3364.81
205.05	3215.31
205.27	2957.27
205.49	3954.63
205.71	3493.83
205.93	2781.14
206.15	2762.71
206.37	3491.79
206.59	3436.49
206.81	2764.76
207.03	2885.59
207.25	3358.67
207.47	3565.51
207.69	2975.70
207.91	3190.74
208.13	3782.60
208.34	3362.76
208.56	2879.44
208.78	2975.70
209.00	3389.39
209.22	3276.75
209.44	3006.42
209.66	2975.70
209.88	3461.07
210.10	3342.28
210.32	2922.45
210.54	3059.67
210.76	3289.04
210.98	3612.62
211.20	2785.24
211.42	3119.06
211.64	3753.93
211.86	3506.12
212.08	3037.14
212.30	3043.28
212.52	3440.59
212.74	3663.82
212.96	3059.67
213.17	2994.13
213.39	3700.68
213.61	3876.80
213.83	2883.54
214.05	2854.87
214.27	3698.63
214.49	3278.80
214.71	2901.97
214.93	3018.71
215.15	3479.50
215.37	3581.90
215.59	2818.00
215.81	3035.09
216.03	3692.49
216.24	3364.81
216.46	3000.27
216.68	3049.43
216.90	3688.39
217.12	3753.93
217.34	2936.79
217.56	3248.08
217.78	3780.55
218.00	3532.75
218.22	3106.77
218.44	3059.67
218.66	3491.79
218.87	3803.08
219.09	3123.15
219.31	2912.21
219.53	3579.85
219.75	3430.35
219.97	3065.81
220.19	3084.24
220.41	3432.40
220.63	3813.32
220.85	3010.51
221.06	2944.98
221.28	3796.93
221.50	3647.43
221.72	2955.22
221.94	2963.41
222.16	3569.61
222.38	3704.78
222.60	2936.79
222.82	2944.98
223.03	3712.97
223.25	3209.17
223.47	2922.45
223.69	3217.36
223.91	3620.81
224.13	3463.12
224.35	2811.86
224.57	3119.06
224.78	3592.14
225.00	3246.03
225.22	3074.00
225.44	2918.36
225.66	3710.92
225.88	3323.85
226.10	3164.11
226.32	2910.16
226.53	3794.89
226.75	3336.14
226.97	3090.38
227.19	2979.79
227.41	3317.71
227.63	3254.22
227.85	2789.33
228.06	2977.75
228.28	3461.07
228.50	3680.20
228.72	2844.63
228.94	2906.07
229.16	3123.15
229.37	3215.31
229.59	2879.44
229.81	3184.59
230.03	3387.34
230.25	3147.73
230.47	2762.71
230.69	2979.79
230.90	3698.63
231.12	3368.91
231.34	3016.66
231.56	3028.95
231.78	3168.21
232.00	3411.92
232.21	3012.56
232.43	2987.99
232.65	3090.38
232.87	3530.70
233.09	2811.86
233.30	2914.26
233.52	3733.45
233.74	3430.35
233.96	2938.84
234.18	3252.17
234.40	3452.88
234.61	4034.50
234.83	2844.63
235.05	2926.55
235.27	3925.96
235.49	3700.68
235.70	2893.78
235.92	2922.45
236.14	3663.82
236.36	3995.59
236.58	2869.20
236.79	3076.05
237.01	3616.71
237.23	3463.12
237.45	3219.41
237.67	3069.91
237.88	3487.69
238.10	3745.73
238.32	2967.51
238.54	2875.35
238.76	3446.73
238.97	3278.80
239.19	2836.44
239.41	3000.27
239.63	3667.91
239.85	3342.28
240.06	2959.31
240.28	3000.27
240.50	3692.49
240.72	3450.83
240.93	2893.78
241.15	3114.96
241.37	3305.42
241.59	3796.93
241.81	2930.64
242.02	3024.85
242.24	3545.03
242.46	3549.13
242.68	2729.94
242.89	2895.83
243.11	3622.86
243.33	3330.00
243.55	3016.66
243.76	2944.98
243.98	3383.24
244.20	3418.06
244.42	2901.97
244.64	2895.83
244.85	3155.92
245.07	3305.42
245.29	2938.84
245.51	3069.91
245.72	3495.88
245.94	3631.05
246.16	2912.21
246.38	3024.85
246.59	3409.87
246.81	3297.23
247.03	2838.48
247.24	2871.25
247.46	3385.29
247.68	3528.65
247.90	2897.88
248.11	2942.93
248.33	3551.18
248.55	3424.20
248.77	2969.55
248.98	3074.00
249.20	3819.46
249.42	3516.36
249.64	2955.22
249.85	2883.54
250.07	3336.14
250.29	3590.09
250.50	3028.95
250.72	2897.88
250.94	3624.90
251.16	3835.85
251.37	2916.31
251.59	3123.15
251.81	3618.76
252.02	3897.28
252.24	2838.48
252.46	3039.19
252.68	3295.18
252.89	3254.22
253.11	2840.53
253.33	3133.39
253.54	3774.41
253.76	3110.86
253.98	3018.71
254.20	2953.17
254.41	3092.43
254.63	3393.48
254.85	2756.57
255.06	3100.62
255.28	3553.23
255.50	3393.48
255.71	2850.77
255.93	2820.05
256.15	3432.40
256.36	3569.61
256.58	2852.82
256.80	2854.87
257.02	3438.54
257.23	3336.14
257.45	2930.64
257.67	3106.77
257.88	3401.68
258.10	3506.12
258.32	3008.47
258.53	3043.28
258.75	3833.80
258.97	3274.70
259.18	2928.60
259.40	2912.21
259.62	3897.28
259.83	3747.78
260.05	3006.42
260.27	3971.01
260.48	3674.06
260.70	3313.61
260.92	2820.05
261.13	3020.75
261.35	3434.44
261.57	3532.75
261.78	2738.13
262.00	2920.40
262.22	3565.51
262.43	3309.52
262.65	2975.70
262.86	3008.47
263.08	3993.54
263.30	3375.05
263.51	2772.95
263.73	2848.72
263.95	3831.75
264.16	3235.79
264.38	2858.96
264.60	2897.88
264.81	3418.06
265.03	3764.17
265.25	3397.58
265.46	2854.87
265.68	3762.12
265.89	3690.44
266.11	2848.72
266.33	2922.45
266.54	3684.30
266.76	3477.45
266.98	3051.47
267.19	3194.83
267.41	3825.61
267.62	3385.29
267.84	2744.28
268.06	3065.81
268.27	3522.51
268.49	3737.54
268.70	3067.86
268.92	3020.75
269.14	3237.84
269.35	3205.07
269.57	3084.24
269.79	3092.43
270.00	3346.38
270.22	3749.83
270.43	2828.24
270.65	2805.72
270.87	3481.55
271.08	3616.71
271.30	3051.47
271.51	2897.88
271.73	3598.28
271.95	3739.59
272.16	2869.20
272.38	3131.34
272.59	3315.66
272.81	3565.51
273.02	2818.00
273.24	3026.90
273.46	3764.17
273.67	3157.97
273.89	2795.48
274.10	2963.41
274.32	3835.85
274.54	3481.55
274.75	3037.14
274.97	3035.09
275.18	3657.67
275.40	3516.36
275.61	2971.60
275.83	3145.68
276.05	3252.17
276.26	3334.09
276.48	3084.24
276.69	3223.50
276.91	3301.33
277.12	3788.74
277.34	3168.21
277.55	3278.80
277.77	3442.64
277.99	3344.33
278.20	3110.86
278.42	2914.26
278.63	3176.40
278.85	3295.18
279.06	3069.91
279.28	3114.96
279.49	3647.43
279.71	3704.78
279.93	3141.58
280.14	3174.35
280.36	3323.85
280.57	3649.48
280.79	3155.92
281.00	2944.98
281.22	3354.57
281.43	3676.10
281.65	2764.76
281.86	3002.32
282.08	3542.99
282.29	3901.38
282.51	2979.79
282.73	2904.02
282.94	3186.64
283.16	3631.05
283.37	3243.98
283.59	3162.06
283.80	3588.04
284.02	3368.91
284.23	3151.82
284.45	3090.38
284.66	3293.13
284.88	3272.65
285.09	2975.70
285.31	3235.79
285.52	3416.01
285.74	3160.02
285.95	3272.65
286.17	3119.06
286.38	3694.54
286.60	3336.14
286.81	2979.79
287.03	3086.29
287.24	3413.96
287.46	3581.90
287.67	3176.40
287.89	3289.04
288.10	3516.36
288.32	3532.75
288.53	3243.98
288.75	3209.17
288.96	3661.77
289.18	3377.10
289.39	3014.61
289.61	3151.82
289.82	3805.13
290.04	3897.28
290.25	2955.22
290.47	3188.69
290.68	3391.44
290.90	3706.82
291.11	2926.55
291.33	3248.08
291.54	3330.00
291.76	3358.67
291.97	3180.50
292.18	3225.55
292.40	3342.28
292.61	3321.81
292.83	3426.25
293.04	3121.10
293.26	3483.59
293.47	3426.25
293.69	3082.19
293.90	3082.19
294.12	3755.97
294.33	3385.29
294.55	3143.63
294.76	3330.00
294.97	3745.73
295.19	3954.63
295.40	3069.91
295.62	3211.22
295.83	3657.67
296.05	3352.52
296.26	3323.85
296.48	3121.10
296.69	3434.44
296.90	3411.92
297.12	3270.61
297.33	3198.93
297.55	3499.98
297.76	3526.60
297.98	3213.26
298.19	3338.19
298.41	3499.98
298.62	3256.27
298.83	3258.32
299.05	3272.65
299.26	3391.44
299.48	3215.31
299.69	3160.02
299.90	3084.24
300.12	3258.32
300.33	3612.62
300.55	3151.82
300.76	3221.45
300.98	3223.50
301.19	3647.43
301.40	3151.82
301.62	3108.82
301.83	3536.84
302.05	3459.02
302.26	3106.77
302.47	3188.69
302.69	3246.03
302.90	3383.24
303.12	2912.21
303.33	3186.64
303.54	3944.39
303.76	3284.94
303.97	3071.95
304.19	3246.03
304.40	3241.93
304.61	3567.56
304.83	3147.73
305.04	3168.21
305.26	3672.01
305.47	3233.74
305.68	3086.29
305.90	3100.62
306.11	3647.43
306.33	3442.64
306.54	2916.31
306.75	3133.39
306.97	3123.15
307.18	3303.37
307.39	3133.39
307.61	3233.74
307.82	3420.11
308.04	3547.08
308.25	2985.94
308.46	3248.08
308.68	3413.96
308.89	3463.12
309.10	3252.17
309.32	3219.41
309.53	3444.68
309.74	3633.10
309.96	3061.71
310.17	3153.87
310.39	3323.85
310.60	3569.61
310.81	3147.73
311.03	3061.71
311.24	3682.25
311.45	3491.79
311.67	3301.33
311.88	3151.82
312.09	3436.49
312.31	3270.61
312.52	3049.43
312.73	3065.81
312.95	3098.58
313.16	3246.03
313.37	3221.45
313.59	3205.07
313.80	3702.73
314.01	3762.12
314.23	3069.91
314.44	2996.18
314.65	3237.84
314.87	3225.55
315.08	3164.11
315.29	3098.58
315.51	3180.50
315.72	3145.68
315.93	3127.25
316.15	3182.54
316.36	3356.62
316.57	3426.25
316.79	3074.00
317.00	3049.43
317.21	3559.37
317.43	3319.76
317.64	3071.95
317.85	2994.13
318.07	3387.34
318.28	3319.76
318.49	3127.25
318.70	3358.67
318.92	3493.83
319.13	3483.59
319.34	3250.13
319.56	3151.82
319.77	3448.78
319.98	3491.79
320.20	3399.63
320.41	3286.99
320.62	3510.22
320.83	3284.94
321.05	3301.33
321.26	3155.92
321.47	3499.98
321.69	3682.25
321.90	2992.08
322.11	3102.67
322.32	3471.31
322.54	3745.73
322.75	3106.77
322.96	4196.29
323.18	3188.69
323.39	3061.71
323.60	3033.04
323.81	3174.35
324.03	3282.89
324.24	3471.31
324.45	3252.17
324.66	3012.56
324.88	3682.25
325.09	3862.47
325.30	3100.62
325.52	2996.18
325.73	3485.64
325.94	3286.99
326.15	3049.43
326.37	2854.87
326.58	3606.47
326.79	3854.28
327.00	3012.56
327.22	3078.10
327.43	3389.39
327.64	3196.88
327.85	3217.36
328.07	3209.17
328.28	3893.19
328.49	3313.61
328.70	3084.24
328.92	3145.68
329.13	3420.11
329.34	3538.89
329.55	3254.22
329.76	3276.75
329.98	3362.76
330.19	3651.53
330.40	3178.45
330.61	3311.57
330.83	3678.15
331.04	3305.42
331.25	3119.06
331.46	3153.87
331.68	3186.64
331.89	3700.68
332.10	3137.49
332.31	2979.79
332.52	3418.06
332.74	3669.96
332.95	2967.51
333.16	3112.91
333.37	3608.52
333.58	3360.72
333.80	3082.19
334.01	2928.60
334.22	3430.35
334.43	3313.61
334.64	3057.62
334.86	3018.71
335.07	3284.94
335.28	3762.12
335.49	3041.23
335.70	3250.13
335.92	3745.73
336.13	3788.74
336.34	3074.00
336.55	3076.05
336.76	3489.74
336.98	3030.99
337.19	3164.11
337.40	3223.50
337.61	3960.77
337.82	3409.87
338.04	3233.74
338.25	2969.55
338.46	3379.15
338.67	3338.19
338.88	3018.71
339.09	3114.96
339.31	3323.85
339.52	3200.98
339.73	3092.43
339.94	3086.29
340.15	3637.19
340.36	3295.18
340.58	3190.74
340.79	2967.51
341.00	3508.17
341.21	3162.06
341.42	3327.95
341.63	3094.48
341.85	3663.82
342.06	3479.50
342.27	3012.56
342.48	3213.26
342.69	3194.83
342.90	3575.75
343.12	3522.51
343.33	3035.09
343.54	3649.48
343.75	3723.21
343.96	3241.93
344.17	3010.51
344.38	3463.12
344.60	3274.70
344.81	3033.04
345.02	3067.86
345.23	3743.69
345.44	3868.61
345.65	3196.88
345.86	3186.64
346.07	3461.07
346.29	3284.94
346.50	3311.57
346.71	3147.73
346.92	3778.50
347.13	3973.06
347.34	3129.30
347.55	2953.17
347.76	3534.79
347.98	3217.36
348.19	3114.96
348.40	3299.28
348.61	3303.37
348.82	3735.50
349.03	3153.87
349.24	2998.23
349.45	3827.65
349.66	3028.95
349.88	2983.89
350.09	3080.14
350.30	3794.89
350.51	3712.97
350.72	3352.52
350.93	3110.86
351.14	3385.29
351.35	3440.59
351.56	3112.91
351.77	3203.02
351.99	3532.75
352.20	3778.50
352.41	3229.65
352.62	3020.75
352.83	3381.20
353.04	3416.01
353.25	3143.63
353.46	3114.96
353.67	3561.42
353.88	3033.04
354.09	3014.61
354.30	3229.65
354.52	3600.33
354.73	3373.00
354.94	3071.95
355.15	3157.97
355.36	3925.96
355.57	3303.37
355.78	3012.56
355.99	3067.86
356.20	3387.34
356.41	3794.89
356.62	3172.30
356.83	3127.25
357.04	3706.82
357.25	3067.86
357.46	3106.77
357.68	3069.91
357.89	3248.08
358.10	3469.26
358.31	3082.19
358.52	3184.59
358.73	3168.21
358.94	3241.93
359.15	3074.00
359.36	3188.69
359.57	3366.86
359.78	3403.72
359.99	3352.52
360.20	2942.93
360.41	3444.68
360.62	3538.89
360.83	3184.59
361.04	3110.86
361.25	3610.57
361.46	3778.50
361.67	3223.50
361.88	3100.62
362.09	3747.78
362.30	3516.36
362.51	3041.23
362.72	3207.12
362.93	3557.32
363.14	3461.07
363.35	3229.65
363.56	3008.47
363.78	3762.12
363.99	3676.10
364.20	3127.25
364.41	3192.78
364.62	3887.04
364.83	3520.46
365.04	3174.35
365.25	3088.34
365.46	3895.24
365.67	3276.75
365.88	3350.48
366.09	3045.33
366.30	3397.58
366.51	3428.30
366.72	3061.71
366.93	3018.71
367.14	3440.59
367.35	3807.17
367.56	3035.09
367.77	3166.16
367.98	3461.07
368.18	3481.55
368.39	3303.37
368.60	3014.61
368.81	3583.95
369.02	3602.38
369.23	3174.35
369.44	3033.04
369.65	3377.10
369.86	3438.54
370.07	3155.92
370.28	2963.41
370.49	3493.83
370.70	3481.55
370.91	2990.03
371.12	2947.03
371.33	3727.30
371.54	3307.47
371.75	3090.38
371.96	2795.48
372.17	3522.51
372.38	3459.02
372.59	3108.82
372.80	3033.04
373.01	3444.68
373.22	3512.27
373.43	3082.19
373.64	2922.45
373.85	3753.93
374.06	3837.89
374.26	3278.80
374.47	3219.41
374.68	3741.64
374.89	3436.49
375.10	3000.27
375.31	3233.74
375.52	3450.83
375.73	3512.27
375.94	2920.40
376.15	3227.60
376.36	3211.22
376.57	3301.33
376.78	3096.53
376.99	3223.50
377.20	3747.78
377.40	3381.20
377.61	3377.10
377.82	3151.82
378.03	3758.02
378.24	3596.23
378.45	3266.51
378.66	3272.65
378.87	3160.02
379.08	3119.06
379.29	3086.29
379.50	3256.27
379.71	3391.44
379.91	3606.47
380.12	3076.05
380.33	3139.54
380.54	3473.36
380.75	3385.29
380.96	3139.54
381.17	3100.62
381.38	3440.59
381.59	3436.49
381.80	3207.12
382.00	3256.27
382.21	3485.64
382.42	3774.41
382.63	3411.92
382.84	3252.17
383.05	3667.91
383.26	3745.73
383.47	3243.98
383.68	3067.86
383.88	3512.27
384.09	3538.89
384.30	3313.61
384.51	3291.09
384.72	3428.30
384.93	3205.07
385.14	3076.05
385.35	3452.88
385.55	3196.88
385.76	3649.48
385.97	3164.11
386.18	2912.21
386.39	3225.55
386.60	3311.57
386.81	3106.77
387.02	2963.41
387.22	3164.11
387.43	3547.08
387.64	3176.40
387.85	3360.72
388.06	3418.06
388.27	4380.61
388.48	7243.67
388.68	10852.19
388.89	13541.17
389.10	14561.06
389.31	14204.71
389.52	11382.61
389.73	10209.12
389.93	9355.12
390.14	8443.78
390.35	7884.68
390.56	7356.30
390.77	6209.44
390.98	4679.61
391.18	4100.03
391.39	3885.00
391.60	3475.40
391.81	3383.24
392.02	3192.78
392.23	3915.72
392.43	3536.84
392.64	3172.30
392.85	3258.32
393.06	3805.13
393.27	3401.68
393.47	3047.38
393.68	3262.41
393.89	3373.00
394.10	3682.25
394.31	3162.06
394.52	3155.92
394.72	3276.75
394.93	3755.97
395.14	3008.47
395.35	3243.98
395.56	3364.81
395.76	3418.06
395.97	3125.20
396.18	3252.17
396.39	3467.21
396.60	4059.07
396.80	3483.59
397.01	3330.00
397.22	3532.75
397.43	3626.95
397.64	3151.82
397.84	3229.65
398.05	3856.33
398.26	3352.52
398.47	3278.80
398.67	3373.00
398.88	3456.97
399.09	3606.47
399.30	3125.20
399.51	3229.65
399.71	3299.28
399.92	3469.26
400.13	3250.13
400.34	3143.63
400.54	3430.35
400.75	3819.46
400.96	3157.97
401.17	3493.83
401.37	3577.80
401.58	3336.14
401.79	3143.63
402.00	3270.61
402.21	3966.92
402.41	3569.61
402.62	3387.34
402.83	3590.09
403.04	3844.04
403.24	4212.67
403.45	3229.65
403.66	3430.35
403.87	3506.12
404.07	3758.02
404.28	3389.39
404.49	3430.35
404.70	3555.27
404.90	3606.47
405.11	3149.78
405.32	3209.17
405.52	3293.13
405.73	3346.38
405.94	3008.47
406.15	3217.36
406.35	3512.27
406.56	3700.68
406.77	3184.59
406.98	3188.69
407.18	3307.47
407.39	3768.26
407.60	3188.69
407.80	3182.54
408.01	3393.48
408.22	3545.03
408.43	3074.00
408.63	3266.51
408.84	3524.55
409.05	3702.73
409.25	3114.96
409.46	3211.22
409.67	3397.58
409.88	3303.37
410.08	3176.40
410.29	3104.72
410.50	3608.52
410.70	3499.98
410.91	3137.49
411.12	3221.45
411.32	3426.25
411.53	3196.88
411.74	3074.00
411.95	3137.49
412.15	3487.69
412.36	3567.56
412.57	3295.18
412.77	3315.66
412.98	3389.39
413.19	3366.86
413.39	3147.73
413.60	3229.65
413.81	3688.39
414.01	3086.29
414.22	3160.02
414.43	3319.76
414.63	3377.10
414.84	3649.48
415.05	3143.63
415.25	2940.88
415.46	3506.12
415.67	3391.44
415.87	3162.06
416.08	3196.88
416.29	3418.06
416.49	3616.71
416.70	3196.88
416.91	3176.40
417.11	3399.63
417.32	3684.30
417.53	3219.41
417.73	3401.68
417.94	3424.20
418.15	3565.51
418.35	3137.49
418.56	3286.99
418.77	3989.44
418.97	3536.84
419.18	3237.84
419.38	2832.34
419.59	3508.17
419.80	3782.60
420.00	3067.86
420.21	3243.98
420.42	3786.69
420.62	3495.88
420.83	3164.11
421.04	3174.35
421.24	3387.34
421.45	3622.86
421.65	3176.40
421.86	3141.58
422.07	3577.80
422.27	3573.71
422.48	3024.85
422.69	2971.60
422.89	3446.73
423.10	3291.09
423.30	3196.88
423.51	3254.22
423.72	3518.41
423.92	3655.62
424.13	3047.38
424.33	3184.59
424.54	3633.10
424.75	3588.04
424.95	3395.53
425.16	3049.43
425.36	3448.78
425.57	3618.76
425.78	3289.04
425.98	3278.80
426.19	3393.48
426.39	3221.45
426.60	3319.76
426.81	3297.23
427.01	3487.69
427.22	3254.22
427.42	3020.75
427.63	3049.43
427.83	3583.95
428.04	3872.71
428.25	3182.54
428.45	3221.45
428.66	3622.86
428.86	3389.39
429.07	3186.64
429.28	3178.45
429.48	3403.72
429.69	3246.03
429.89	3356.62
430.10	3090.38
430.30	3647.43
430.51	3672.01
430.71	3160.02
430.92	3258.32
431.13	3272.65
431.33	3549.13
431.54	3217.36
431.74	3346.38
431.95	3987.40
432.15	3221.45
432.36	3211.22
432.56	3227.60
432.77	3954.63
432.98	3745.73
433.18	3227.60
433.39	3078.10
433.59	3489.74
433.80	3844.04
434.00	3330.00
434.21	3231.69
434.41	3313.61
434.62	4040.64
434.82	3057.62
435.03	3090.38
435.23	3522.51
435.44	3094.48
435.64	3067.86
435.85	3168.21
436.06	3651.53
436.26	3629.00
436.47	3192.78
436.67	3114.96
436.88	3373.00
437.08	3643.34
437.29	3307.47
437.49	3278.80
437.70	3745.73
437.90	3393.48
438.11	3401.68
438.31	3262.41
438.52	3647.43
438.72	3616.71
438.93	3502.03
439.13	3297.23
439.34	3624.90
439.54	3319.76
439.75	3217.36
439.95	3297.23
440.16	3229.65
440.36	3411.92
440.57	3133.39
440.77	3190.74
440.98	3430.35
441.18	3567.56
441.39	3045.33
441.59	3024.85
441.80	3915.72
442.00	3424.20
442.21	3223.50
442.41	3090.38
442.62	3659.72
442.82	3248.08
443.02	3207.12
443.23	3213.26
443.43	3352.52
443.64	3721.16
443.84	3012.56
444.05	3241.93
444.25	3465.16
444.46	3286.99
444.66	3112.91
444.87	3323.85
445.07	3096.53
445.28	3344.33
445.48	3409.87
445.69	3215.31
445.89	3989.44
446.09	3438.54
446.30	3442.64
446.50	3551.18
446.71	4984.76
446.91	6156.19
447.12	6729.63
447.32	7286.67
447.53	7305.10
447.73	6199.20
447.93	5392.30
448.14	5197.74
448.34	5441.45
448.55	4378.56
448.75	4509.63
448.96	4192.19
449.16	4059.07
449.36	4001.73
449.57	3459.02
449.77	3174.35
449.98	3317.71
450.18	3575.75
450.39	3051.47
450.59	3327.95
450.79	3420.11
451.00	3323.85
451.20	3395.53
451.41	3262.41
451.61	3467.21
451.81	3418.06
452.02	3043.28
452.22	3153.87
452.43	3297.23
452.63	3250.13
452.84	3211.22
453.04	3065.81
453.24	3508.17
453.45	3227.60
453.65	3256.27
453.86	3172.30
454.06	3520.46
454.26	3438.54
454.47	3196.88
454.67	3344.33
454.87	3577.80
455.08	3389.39
455.28	3256.27
455.49	3379.15
455.69	3248.08
455.89	3854.28
456.10	3301.33
456.30	3151.82
456.51	3616.71
456.71	3475.40
456.91	3295.18
457.12	3110.86
457.32	3598.28
457.52	3180.50
457.73	3305.42
457.93	3377.10
458.14	3325.90
458.34	3059.67
458.54	3332.05
458.75	3102.67
458.95	3669.96
459.15	3553.23
459.36	3270.61
459.56	3221.45
459.76	3889.09
459.97	3477.45
460.17	3135.44
460.37	3207.12
460.58	3446.73
460.78	3610.57
460.99	3301.33
461.19	3127.25
461.39	3280.85
461.60	3373.00
461.80	3123.15
462.00	3047.38
462.21	3479.50
462.41	3174.35
462.61	3010.51
462.82	3010.51
463.02	3590.09
463.22	3381.20
463.43	3262.41
463.63	3102.67
463.83	3790.79
464.04	3604.42
464.24	3108.82
464.44	3067.86
464.64	3545.03
464.85	3631.05
465.05	3198.93
465.25	3051.47
465.46	3250.13
465.66	3616.71
465.86	3286.99
466.07	3145.68
466.27	3418.06
466.47	3088.34
466.68	2953.17
466.88	3254.22
467.08	3577.80
467.29	3792.84
467.49	3164.11
467.69	3344.33
467.89	3557.32
468.10	3358.67
468.30	3254.22
468.50	3248.08
468.71	3618.76
468.91	3071.95
469.11	3356.62
469.31	3258.32
469.52	3209.17
469.72	3874.76
469.92	3436.49
470.13	3157.97
470.33	3430.35
470.53	3520.46
470.73	3643.34
470.94	3798.98
471.14	3997.64
471.34	4638.65
471.54	4173.76
471.75	3864.52
471.95	3715.02
472.15	3729.35
472.36	3676.10
472.56	3534.79
472.76	3905.48
472.96	3745.73
473.17	3370.96
473.37	3295.18
473.57	3407.82
473.77	3551.18
473.98	3313.61
474.18	3110.86
474.38	4220.86
474.58	3411.92
474.79	3043.28
474.99	3311.57
475.19	3637.19
475.39	3319.76
475.60	3317.71
475.80	3164.11
476.00	3545.03
476.20	3395.53
476.41	3270.61
476.61	3295.18
476.81	3733.45
477.01	3301.33
477.21	3534.79
477.42	3196.88
477.62	3254.22
477.82	3624.90
478.02	3041.23
478.23	3160.02
478.43	3221.45
478.63	3446.73
478.83	3203.02
479.03	3125.20
479.24	3760.07
479.44	3932.10
479.64	3039.19
479.84	3041.23
480.04	3278.80
480.25	3577.80
480.45	3092.43
480.65	3172.30
480.85	3706.82
481.06	3395.53
481.26	3313.61
481.46	3098.58
481.66	3551.18
481.86	3155.92
482.06	3319.76
482.27	3213.26
482.47	3325.90
482.67	3569.61
482.87	3180.50
483.07	3219.41
483.28	3368.91
483.48	3229.65
483.68	3170.26
483.88	3045.33
484.08	3002.32
484.29	3127.25
484.49	3289.04
484.69	2967.51
484.89	3733.45
485.09	3672.01
485.29	3170.26
485.50	3303.37
485.70	3352.52
485.90	3768.26
486.10	3317.71
486.30	3104.72
486.50	3786.69
486.71	3592.14
486.91	3145.68
487.11	3280.85
487.31	3180.50
487.51	3565.51
487.71	3149.78
487.91	3000.27
488.12	3260.37
488.32	2885.59
488.52	3131.34
488.72	2893.78
488.92	3540.94
489.12	3737.54
489.32	3299.28
489.53	3243.98
489.73	3172.30
489.93	3827.65
490.13	3127.25
490.33	3049.43
490.53	3506.12
490.73	3745.73
490.94	2983.89
491.14	3295.18
491.34	3592.14
491.54	3477.45
491.74	3942.34
491.94	4474.81
492.14	5048.24
492.34	5148.59
492.54	4724.66
492.75	4196.29
492.95	4480.96
493.15	4114.37
493.35	3874.76
493.55	3848.13
493.75	3766.21
493.95	3975.11
494.15	3426.25
494.35	3133.39
494.56	3510.22
494.76	3370.96
494.96	3352.52
495.16	3051.47
495.36	3399.63
495.56	3477.45
495.76	3250.13
495.96	3213.26
496.16	3233.74
496.36	3925.96
496.56	3088.34
496.77	3317.71
496.97	3452.88
497.17	3833.80
497.37	2942.93
497.57	3266.51
497.77	3442.64
497.97	3172.30
498.17	3129.30
498.37	3098.58
498.57	3571.66
498.77	3352.52
498.97	3330.00
499.17	3612.62
499.38	3336.14
499.58	3532.75
499.78	3327.95
499.98	3352.52
500.18	3444.68
500.38	3227.60
500.58	3389.39
500.78	3622.86
500.98	5978.02
501.18	7751.56
501.38	9045.88
501.58	10024.81
501.78	9961.32
501.98	8363.90
502.18	7002.01
502.38	6154.15
502.58	6338.46
502.78	5539.76
502.98	5275.57
503.18	5009.33
503.38	4843.45
503.59	4097.99
503.79	4032.45
503.99	3780.55
504.19	3968.96
504.39	3909.57
504.59	3667.91
504.79	3510.22
504.99	4081.60
505.19	3588.04
505.39	3377.10
505.59	3493.83
505.79	3700.68
505.99	3665.86
506.19	3139.54
506.39	3411.92
506.59	3327.95
506.79	3385.29
506.99	3364.81
507.19	3123.15
507.39	3532.75
507.59	3172.30
507.79	3180.50
507.99	3176.40
508.19	3411.92
508.39	3325.90
508.59	3200.98
508.79	3196.88
508.99	3948.48
509.19	3340.24
509.39	3235.79
509.59	3061.71
509.79	3262.41
509.99	3422.16
510.19	3327.95
510.39	3317.71
510.59	3483.59
510.79	3319.76
510.99	2975.70
511.19	3053.52
511.39	3876.80
511.59	3706.82
511.79	3305.42
511.99	3174.35
512.19	3870.66
512.38	3454.92
512.58	3119.06
512.78	3076.05
512.98	3755.97
513.18	3860.42
513.38	3106.77
513.58	3174.35
513.78	3393.48
513.98	3348.43
514.18	3147.73
514.38	3196.88
514.58	3532.75
514.78	3270.61
514.98	3096.53
515.18	3192.78
515.38	3256.27
515.58	3776.45
515.78	3145.68
515.98	3157.97
516.18	3592.14
516.38	3444.68
516.57	3160.02
516.77	3176.40
516.97	3577.80
517.17	3274.70
517.37	2924.50
517.57	3221.45
517.77	3536.84
517.97	3243.98
518.17	3254.22
518.37	2983.89
518.57	3334.09
518.77	3366.86
518.97	3149.78
519.16	3225.55
519.36	3600.33
519.56	3340.24
519.76	3114.96
519.96	3233.74
520.16	3790.79
520.36	3243.98
520.56	3307.47
520.76	3074.00
520.96	3325.90
521.16	3610.57
521.35	3377.10
521.55	3293.13
521.75	3450.83
521.95	3434.44
522.15	3074.00
522.35	3049.43
522.55	3221.45
522.75	3667.91
522.95	3071.95
523.14	3006.42
523.34	3428.30
523.54	3377.10
523.74	3280.85
523.94	3155.92
524.14	3110.86
524.34	3477.45
524.54	3405.77
524.73	3221.45
524.93	3594.19
525.13	3393.48
525.33	3084.24
525.53	3360.72
525.73	3659.72
525.93	3401.68
526.13	3241.93
526.32	3141.58
526.52	3667.91
526.72	3575.75
526.92	3266.51
527.12	3041.23
527.32	3127.25
527.52	3497.93
527.71	3225.55
527.91	3188.69
528.11	3350.48
528.31	3436.49
528.51	3119.06
528.71	3346.38
528.90	3526.60
529.10	3680.20
529.30	3155.92
529.50	2881.49
529.70	3432.40
529.90	3432.40
530.09	3180.50
530.29	3053.52
530.49	3237.84
530.69	3987.40
530.89	3319.76
531.09	3223.50
531.28	3307.47
531.48	3663.82
531.68	3123.15
531.88	3176.40
532.08	3610.57
532.28	3360.72
532.47	3295.18
532.67	3200.98
532.87	3481.55
533.07	3235.79
533.27	3166.16
533.46	3319.76
533.66	3565.51
533.86	3405.77
534.06	3252.17
534.26	3100.62
534.45	3340.24
534.65	3606.47
534.85	3258.32
535.05	3129.30
535.25	3659.72
535.44	3051.47
535.64	3198.93
535.84	3166.16
536.04	3321.81
536.24	3342.28
536.43	3178.45
536.63	3139.54
536.83	3446.73
537.03	3391.44
537.22	2977.75
537.42	3012.56
537.62	3555.27
537.82	3239.89
538.02	3336.14
538.21	3291.09
538.41	4034.50
538.61	3594.19
538.81	3323.85
539.00	3319.76
539.20	3090.38
539.40	3375.05
539.60	3166.16
539.79	3399.63
539.99	3489.74
540.19	3299.28
540.39	3110.86
540.58	3178.45
540.78	3649.48
540.98	3432.40
541.18	3420.11
541.37	3221.45
541.57	3444.68
541.77	3565.51
541.97	3149.78
542.16	3047.38
542.36	3350.48
542.56	3602.38
542.76	3377.10
542.95	3276.75
543.15	3588.04
543.35	3604.42
543.54	3088.34
543.74	3100.62
543.94	3805.13
544.14	3313.61
544.33	3303.37
544.53	3125.20
544.73	3430.35
544.93	3330.00
545.12	3127.25
545.32	3139.54
545.52	3368.91
545.71	3198.93
545.91	3237.84
546.11	3049.43
546.30	3207.12
546.50	3475.40
546.70	3258.32
546.90	3106.77
547.09	3092.43
547.29	3442.64
547.49	3325.90
547.68	3110.86
547.88	3315.66
548.08	3672.01
548.27	3413.96
548.47	3174.35
548.67	3315.66
548.87	3469.26
549.06	3127.25
549.26	3049.43
549.46	3510.22
549.65	3340.24
549.85	3205.07
550.05	3166.16
550.24	3209.17
550.44	3512.27
550.64	3180.50
550.83	3301.33
551.03	3743.69
551.23	3647.43
551.42	3235.79
551.62	3301.33
551.82	3536.84
552.01	3317.71
552.21	3442.64
552.41	3243.98
552.60	3653.58
552.80	3430.35
553.00	3188.69
553.19	3250.13
553.39	3741.64
553.59	3149.78
553.78	3426.25
553.98	3051.47
554.17	3176.40
554.37	3540.94
554.57	3258.32
554.76	3039.19
554.96	3211.22
555.16	3467.21
555.35	3274.70
555.55	3364.81
555.75	3383.24
555.94	3571.66
556.14	2959.31
556.33	3239.89
556.53	3438.54
556.73	3403.72
556.92	3192.78
557.12	3133.39
557.32	3901.38
557.51	3700.68
557.71	3172.30
557.90	3301.33
558.10	3758.02
558.30	3286.99
558.49	3303.37
558.69	3215.31
558.88	3594.19
559.08	3520.46
559.28	3227.60
559.47	3221.45
559.67	3651.53
559.86	3878.85
560.06	3133.39
560.26	3180.50
560.45	3528.65
560.65	3434.44
560.84	3477.45
561.04	3049.43
561.24	3499.98
561.43	3157.97
561.63	3477.45
561.82	3311.57
562.02	3614.66
562.22	3174.35
562.41	3135.44
562.61	3069.91
562.80	3139.54
563.00	3997.64
563.19	3174.35
563.39	3252.17
563.59	3618.76
563.78	3217.36
563.98	2930.64
564.17	3233.74
564.37	3160.02
564.56	3348.43
564.76	3039.19
564.96	3282.89
565.15	3545.03
565.35	3964.87
565.54	3108.82
565.74	3155.92
565.93	3487.69
566.13	3381.20
566.32	3291.09
566.52	3338.19
566.71	3428.30
566.91	3618.76
567.11	3254.22
567.30	3098.58
567.50	3577.80
567.69	3528.65
567.89	3076.05
568.08	3139.54
568.28	3362.76
568.47	3170.26
568.67	3172.30
568.86	3125.20
569.06	3608.52
569.25	3325.90
569.45	3028.95
569.64	3264.46
569.84	3354.57
570.04	3434.44
570.23	3180.50
570.43	3262.41
570.62	3512.27
570.82	3805.13
571.01	3172.30
571.21	3147.73
571.40	3205.07
571.60	3579.85
571.79	3246.03
571.99	3067.86
572.18	3272.65
572.38	3493.83
572.57	3272.65
572.77	3254.22
572.96	3962.82
573.16	3483.59
573.35	3155.92
573.55	3344.33
573.74	3395.53
573.94	3350.48
574.13	3213.26
574.33	3258.32
574.52	3704.78
574.71	3348.43
574.91	3192.78
575.10	3094.48
575.30	3334.09
575.49	3213.26
575.69	3078.10
575.88	3121.10
576.08	3327.95
576.27	3567.56
576.47	3030.99
576.66	3258.32
576.86	3762.12
577.05	3510.22
577.25	3215.31
577.44	3362.76
577.64	3282.89
577.83	3672.01
578.02	3184.59
578.22	3313.61
578.41	3739.59
578.61	3405.77
578.80	3074.00
579.00	3213.26
579.19	3403.72
579.39	3575.75
579.58	3231.69
579.77	3227.60
579.97	3725.26
580.16	3688.39
580.36	3463.12
580.55	3256.27
580.75	3598.28
580.94	3450.83
581.13	3319.76
581.33	3440.59
581.52	3356.62
581.72	3749.83
581.91	3303.37
582.11	3174.35
582.30	3643.34
582.49	3506.12
582.69	3485.64
582.88	3213.26
583.08	3356.62
583.27	3672.01
583.47	3286.99
583.66	3194.83
583.85	3155.92
584.05	3461.07
584.24	3346.38
584.44	3143.63
584.63	3655.62
584.82	3657.67
585.02	3358.67
585.21	3280.85
585.41	3604.42
585.60	3434.44
585.79	3325.90
585.99	3504.07
586.18	3442.64
586.37	4519.87
586.57	6539.16
586.76	18505.45
586.96	37281.22
587.15	49663.24
587.34	57580.69
587.54	60896.35
587.73	53382.35
587.93	38696.37
588.12	29953.59
588.31	24616.58
588.51	22013.62
588.70	20381.38
588.89	17780.46
589.09	15015.71
589.28	13246.26
589.47	10307.43
589.67	7845.77
589.86	6178.72
590.06	4988.85
590.25	4499.39
590.44	3825.61
590.64	3551.18
590.83	3674.06
591.02	3698.63
591.22	3184.59
591.41	3295.18
591.60	3413.96
591.80	3983.30
591.99	3012.56
592.18	3180.50
592.38	3639.24
592.57	3309.52
592.76	3209.17
592.96	3268.56
593.15	3413.96
593.34	3755.97
593.54	3157.97
593.73	3336.14
593.92	3622.86
594.12	3534.79
594.31	3254.22
594.50	3346.38
594.70	3602.38
594.89	4016.07
595.08	3110.86
595.28	3307.47
595.47	4108.23
595.66	3731.40
595.86	3106.77
596.05	3018.71
596.24	3383.24
596.43	3854.28
596.63	3289.04
596.82	3323.85
597.01	3588.04
597.21	3848.13
597.40	3133.39
597.59	3344.33
597.79	3475.40
597.98	3585.99
598.17	3258.32
598.36	3248.08
598.56	3624.90
598.75	3401.68
598.94	3239.89
599.14	3235.79
599.33	3291.09
599.52	3512.27
599.71	3332.05
599.91	3248.08
600.10	3504.07
600.29	3434.44
600.48	3241.93
600.68	3264.46
600.87	3512.27
601.06	3321.81
601.26	3334.09
601.45	3170.26
601.64	3405.77
601.83	3741.64
602.03	3008.47
602.22	3151.82
602.41	3674.06
602.60	3987.40
602.80	3307.47
602.99	3391.44
603.18	3381.20
603.37	3352.52
603.57	3065.81
603.76	3225.55
603.95	3688.39
604.14	3373.00
604.34	3076.05
604.53	3078.10
604.72	3557.32
604.91	3637.19
605.10	3157.97
605.30	3049.43
605.49	3950.53
605.68	3672.01
605.87	3143.63
606.07	3119.06
606.26	3444.68
606.45	3555.27
606.64	3254.22
606.84	3082.19
607.03	3387.34
607.22	3672.01
607.41	3274.70
607.60	3262.41
607.80	3684.30
607.99	3401.68
608.18	3162.06
608.37	3180.50
608.56	3336.14
608.76	3700.68
608.95	3370.96
609.14	3100.62
609.33	3688.39
609.52	3770.31
609.72	3237.84
609.91	3303.37
610.10	3524.55
610.29	3729.35
610.48	3254.22
610.68	3325.90
610.87	3332.05
611.06	3577.80
611.25	3229.65
611.44	3299.28
611.63	3358.67
611.83	3661.77
612.02	3104.72
612.21	3270.61
612.40	3123.15
612.59	3215.31
612.79	3125.20
612.98	3307.47
613.17	3794.89
613.36	3377.10
613.55	3272.65
613.74	3188.69
613.93	3454.92
614.13	3448.78
614.32	3387.34
614.51	3180.50
614.70	3368.91
614.89	3354.57
615.08	3276.75
615.28	3573.71
615.47	3258.32
615.66	3524.55
615.85	3174.35
616.04	3231.69
616.23	3342.28
616.42	3385.29
616.62	3205.07
616.81	3250.13
617.00	3399.63
617.19	3499.98
617.38	3243.98
617.57	3264.46
617.76	3633.10
617.95	3559.37
618.15	3319.76
618.34	3467.21
618.53	3209.17
618.72	3719.11
618.91	3274.70
619.10	3295.18
619.29	3450.83
619.48	3450.83
619.68	3098.58
619.87	3166.16
620.06	3196.88
620.25	3575.75
620.44	3133.39
620.63	3117.01
620.82	3452.88
621.01	3524.55
621.20	3233.74
621.39	3205.07
621.59	3487.69
621.78	3442.64
621.97	3147.73
622.16	3276.75
622.35	3549.13
622.54	3665.86
622.73	3209.17
622.92	2955.22
623.11	3672.01
623.30	3348.43
623.49	3299.28
623.68	3092.43
623.88	3696.58
624.07	3313.61
624.26	3055.57
624.45	3207.12
624.64	3385.29
624.83	3475.40
625.02	3198.93
625.21	3213.26
625.40	3557.32
625.59	3706.82
625.78	3282.89
625.97	3303.37
626.16	3702.73
626.35	3629.00
626.54	3110.86
626.74	3360.72
626.93	3352.52
627.12	3350.48
627.31	3196.88
627.50	3196.88
627.69	3616.71
627.88	3233.74
628.07	3123.15
628.26	3020.75
628.45	3231.69
628.64	3254.22
628.83	3139.54
629.02	3043.28
629.21	3532.75
629.40	3526.60
629.59	3041.23
629.78	3143.63
629.97	3483.59
630.16	3522.51
630.35	3194.83
630.54	3286.99
630.73	3305.42
630.92	3350.48
631.11	3125.20
631.30	3237.84
631.49	3592.14
631.68	3377.10
631.87	3157.97
632.06	3125.20
632.25	3977.16
632.44	3358.67
632.63	3270.61
632.82	3174.35
633.01	3286.99
633.20	3491.79
633.39	3106.77
633.58	2973.65
633.77	3512.27
633.96	3612.62
634.15	3325.90
634.34	3258.32
634.53	3596.23
634.72	3293.13
634.91	3155.92
635.10	3272.65
635.29	3639.24
635.48	3432.40
635.67	3049.43
635.86	3037.14
636.05	3825.61
636.24	3434.44
636.43	3153.87
636.62	3284.94
636.81	2971.60
637.00	3450.83
637.19	3129.30
637.38	3196.88
637.57	3338.19
637.76	3475.40
637.95	3356.62
638.14	3354.57
638.33	3495.88
638.52	3483.59
638.71	3026.90
638.89	3104.72
639.08	3995.59
639.27	3680.20
639.46	3319.76
639.65	3579.85
639.84	3827.65
640.03	3983.30
640.22	3594.19
640.41	3559.37
640.60	3452.88
640.79	3663.82
640.98	3368.91
641.17	3452.88
641.36	3649.48
641.55	3579.85
641.74	3016.66
641.92	3086.29
642.11	3289.04
642.30	3389.39
642.49	3028.95
642.68	3190.74
642.87	3491.79
643.06	3534.79
643.25	3065.81
643.44	3114.96
643.63	3424.20
643.82	3590.09
644.00	3041.23
644.19	3141.58
644.38	3280.85
644.57	3624.90
644.76	3172.30
644.95	3311.57
645.14	3389.39
645.33	3358.67
645.52	3235.79
645.71	2973.65
645.89	3215.31
646.08	3344.33
646.27	3295.18
646.46	3395.53
646.65	3061.71
646.84	3450.83
647.03	3008.47
647.22	3362.76
647.40	3459.02
647.59	3461.07
647.78	2963.41
647.97	3164.11
648.16	3286.99
648.35	3739.59
648.54	3362.76
648.73	3217.36
648.91	3645.38
649.10	3491.79
649.29	3110.86
649.48	3164.11
649.67	3542.99
649.86	3508.17
650.05	3172.30
650.23	3401.68
650.42	3385.29
650.61	3694.54
650.80	3467.21
650.99	3475.40
651.18	3667.91
651.36	3684.30
651.55	3059.67
651.74	3303.37
651.93	3350.48
652.12	3321.81
652.31	3141.58
652.49	3235.79
652.68	3319.76
652.87	3788.74
653.06	3229.65
653.25	3452.88
653.44	3481.55
653.62	3854.28
653.81	3270.61
654.00	3180.50
654.19	3651.53
654.38	4026.31
654.56	3217.36
654.75	3133.39
654.94	3704.78
655.13	3409.87
655.32	3131.34
655.51	3327.95
655.69	3311.57
655.88	3565.51
656.07	3074.00
656.26	3239.89
656.45	3147.73
656.63	3518.41
656.82	3112.91
657.01	3450.83
657.20	3330.00
657.38	3811.27
657.57	3192.78
657.76	2961.36
657.95	3590.09
658.14	3336.14
658.32	3366.86
658.51	3028.95
658.70	3454.92
658.89	3502.03
659.08	3254.22
659.26	3373.00
659.45	3131.34
659.64	3538.89
659.83	3190.74
660.01	3534.79
660.20	3430.35
660.39	3798.98
660.58	2822.10
660.76	3262.41
660.95	3112.91
661.14	3430.35
661.33	3024.85
661.51	3145.68
661.70	3370.96
661.89	3454.92
662.08	3227.60
662.26	2957.27
662.45	3270.61
662.64	3825.61
662.83	3203.02
663.01	3147.73
663.20	3319.76
663.39	3753.93
663.58	3145.68
663.76	3172.30
663.95	3467.21
664.14	3254.22
664.32	3297.23
664.51	3112.91
664.70	3088.34
664.89	3459.02
665.07	3063.76
665.26	3305.42
665.45	3180.50
665.64	3487.69
665.82	3123.15
666.01	3262.41
666.20	3205.07
666.38	3616.71
666.57	3592.14
666.76	5738.41
666.95	12371.78
667.13	18839.26
667.32	22425.26
667.51	24964.74
667.69	25638.52
667.88	20903.62
668.07	15351.57
668.25	13080.38
668.44	11616.08
668.63	10227.56
668.81	8959.86
669.00	7653.26
669.19	7196.56
669.38	6358.94
669.56	5334.96
669.75	4728.76
669.94	4323.26
670.12	3782.60
670.31	3413.96
670.50	3491.79
670.68	3633.10
670.87	3422.16
671.06	3147.73
671.24	3342.28
671.43	3786.69
671.62	3497.93
671.80	3168.21
671.99	3305.42
672.18	3428.30
672.36	3588.04
672.55	3325.90
672.74	3313.61
672.92	3434.44
673.11	3502.03
673.29	2998.23
673.48	3317.71
673.67	3321.81
673.85	3717.06
674.04	3149.78
674.23	3264.46
674.41	3844.04
674.60	3196.88
674.79	2940.88
674.97	3071.95
675.16	3590.09
675.34	3663.82
675.53	3176.40
675.72	3196.88
675.90	3811.27
676.09	3397.58
676.28	3270.61
676.46	3018.71
676.65	3669.96
676.83	3168.21
677.02	3282.89
677.21	3250.13
677.39	3479.50
677.58	3223.50
677.77	3117.01
677.95	3176.40
678.14	3377.10
678.32	3336.14
678.51	3274.70
678.70	3540.94
678.88	3368.91
679.07	3518.41
679.25	3188.69
679.44	3237.84
679.63	3160.02
679.81	3446.73
680.00	3469.26
680.18	3229.65
680.37	3811.27
680.55	3508.17
680.74	2990.03
680.93	2942.93
681.11	3508.17
681.30	3418.06
681.48	3215.31
681.67	3221.45
681.85	3444.68
682.04	3389.39
682.23	3356.62
682.41	3307.47
682.60	3346.38
682.78	3389.39
682.97	3133.39
683.15	3241.93
683.34	3416.01
683.53	3774.41
683.71	2996.18
683.90	3170.26
684.08	3743.69
684.27	3352.52
684.45	3295.18
684.64	3370.96
684.82	3393.48
685.01	3620.81
685.19	3180.50
685.38	3452.88
685.57	3518.41
685.75	3352.52
685.94	3108.82
686.12	3188.69
686.31	3342.28
686.49	3682.25
686.68	3043.28
686.86	3229.65
687.05	3375.05
687.23	3776.45
687.42	3164.11
687.60	2990.03
687.79	3614.66
687.97	3696.58
688.16	3315.66
688.34	3489.74
688.53	3088.34
688.71	3536.84
688.90	3483.59
689.08	3205.07
689.27	3049.43
689.45	3606.47
689.64	3346.38
689.82	3266.51
690.01	3639.24
690.19	3518.41
690.38	3264.46
690.56	3307.47
690.75	3250.13
690.93	3313.61
691.12	3196.88
691.30	3256.27
691.49	3225.55
691.67	3454.92
691.86	3559.37
692.04	3223.50
692.23	3305.42
692.41	3426.25
692.60	3405.77
692.78	3379.15
692.97	3411.92
693.15	3612.62
693.34	3452.88
693.52	3379.15
693.71	3239.89
693.89	3346.38
694.08	3016.66
694.26	3299.28
694.44	3614.66
694.63	3528.65
694.81	3110.86
695.00	3217.36
695.18	3657.67
695.37	4081.60
695.55	3327.95
695.74	3268.56
695.92	3315.66
696.10	3719.11
696.29	3039.19
696.47	3168.21
696.66	3143.63
696.84	3178.45
697.03	3305.42
697.21	3413.96
697.40	4673.46
697.58	3723.21
697.76	3227.60
697.95	3227.60
698.13	3157.97
698.32	3246.03
698.50	3168.21
698.68	3291.09
698.87	3512.27
699.05	3878.85
699.24	3186.64
699.42	3215.31
699.61	3569.61
699.79	3428.30
699.97	3205.07
700.16	3090.38
700.34	3176.40
700.53	3348.43
700.71	3469.26
700.89	3327.95
701.08	3389.39
701.26	3456.97
701.45	3475.40
701.63	3155.92
701.81	3364.81
702.00	3237.84
702.18	3370.96
702.37	3147.73
702.55	3766.21
702.73	3557.32
702.92	3074.00
703.10	3475.40
703.28	3616.71
703.47	3164.11
703.65	3407.82
703.84	3286.99
704.02	3303.37
704.20	3700.68
704.39	3129.30
704.57	3153.87
704.75	3647.43
704.94	3606.47
705.12	3424.20
705.30	4071.36
705.49	8161.16
705.67	14700.32
705.86	19445.46
706.04	21446.33
706.22	23918.23
706.41	22298.28
706.59	16770.82
706.77	13389.62
706.96	11587.41
707.14	10989.40
707.32	9514.86
707.51	8095.62
707.69	6915.99
707.87	5961.64
708.06	4767.67
708.24	4239.30
708.42	4016.07
708.61	4270.01
708.79	3252.17
708.97	3489.74
709.16	3487.69
709.34	3489.74
709.52	3219.41
709.71	3172.30
709.89	3682.25
710.07	3207.12
710.26	3082.19
710.44	3278.80
710.62	3680.20
710.80	3430.35
710.99	3319.76
711.17	3264.46
711.35	3268.56
711.54	3344.33
711.72	3426.25
711.90	3231.69
712.09	3504.07
712.27	3307.47
712.45	3231.69
712.63	3153.87
712.82	3485.64
713.00	3467.21
713.18	3336.14
713.37	3495.88
713.55	3602.38
713.73	3581.90
713.91	3252.17
714.10	3182.54
714.28	3440.59
714.46	3520.46
714.65	3344.33
714.83	3274.70
715.01	3368.91
715.19	3381.20
715.38	3110.86
715.56	3381.20
715.74	3241.93
715.92	3248.08
716.11	3571.66
716.29	2994.13
716.47	3442.64
716.65	3344.33
716.84	3069.91
717.02	3264.46
717.20	3200.98
717.38	3377.10
717.57	3319.76
717.75	3205.07
717.93	3409.87
718.11	3645.38
718.30	3002.32
718.48	3262.41
718.66	3778.50
718.84	3731.40
719.03	3139.54
719.21	3147.73
719.39	3880.90
719.57	3534.79
719.75	3289.04
719.94	3149.78
720.12	3422.16
720.30	3434.44
720.48	3305.42
720.67	3172.30
720.85	3325.90
721.03	3346.38
721.21	3219.41
721.39	3254.22
721.58	3557.32
721.76	3471.31
721.94	3239.89
722.12	3370.96
722.30	3819.46
722.49	3344.33
722.67	3178.45
722.85	3270.61
723.03	3133.39
723.21	3299.28
723.40	3209.17
723.58	3336.14
723.76	3602.38
723.94	3690.44
724.12	3209.17
724.30	3491.79
724.49	3651.53
724.67	3246.03
724.85	3190.74
725.03	3084.24
725.21	3557.32
725.40	3676.10
725.58	3260.37
725.76	3428.30
725.94	3561.42
726.12	3235.79
726.30	3250.13
726.49	3110.86
726.67	3323.85
726.85	3555.27
727.03	3936.20
727.21	5042.10
727.39	5967.78
727.57	6557.60
727.76	6797.21
727.94	6711.19
728.12	5908.39
728.30	4925.36
728.48	4712.38
728.66	4507.58
728.84	4474.81
729.03	3983.30
729.21	3739.59
729.39	3534.79
729.57	3424.20
729.75	3444.68
729.93	3452.88
730.11	3168.21
730.30	3393.48
730.48	3362.76
730.66	3248.08
730.84	3297.23
731.02	3411.92
731.20	3346.38
731.38	3229.65
731.56	3039.19
731.74	3057.62
731.93	3526.60
732.11	3364.81
732.29	3106.77
732.47	3542.99
732.65	3426.25
732.83	3381.20
733.01	3315.66
733.19	3289.04
733.37	3467.21
733.56	3198.93
733.74	3086.29
733.92	3737.54
734.10	3332.05
734.28	3364.81
734.46	3002.32
734.64	3430.35
734.82	3276.75
735.00	3205.07
735.18	3123.15
735.36	3440.59
735.54	3432.40
735.73	3143.63
735.91	3356.62
736.09	3694.54
736.27	3463.12
736.45	3297.23
736.63	2971.60
736.81	3381.20
736.99	3622.86
737.17	3434.44
737.35	3131.34
737.53	3495.88
737.71	3340.24
737.89	3504.07
738.07	3100.62
738.25	3233.74
738.43	3069.91
738.61	3268.56
738.80	3096.53
738.98	3270.61
739.16	3299.28
739.34	3123.15
739.52	3491.79
739.70	3397.58
739.88	3581.90
740.06	3299.28
740.24	2940.88
740.42	3631.05
740.60	3063.76
740.78	3207.12
740.96	2975.70
741.14	3426.25
741.32	3465.16
741.50	3033.04
741.68	3436.49
741.86	3745.73
742.04	3168.21
742.22	3078.10
742.40	3176.40
742.58	3614.66
742.76	3286.99
742.94	3442.64
743.12	3024.85
743.30	3467.21
743.48	3598.28
743.66	3131.34
743.84	3217.36
744.02	3411.92
744.20	3461.07
744.38	3108.82
744.56	3209.17
744.74	3778.50
744.92	3567.56
745.10	3368.91
745.28	3215.31
745.46	3778.50
745.64	3323.85
745.82	3274.70
746.00	3209.17
746.18	3542.99
746.36	3135.44
746.54	3233.74
746.72	3196.88
746.90	3157.97
747.08	3721.16
747.26	3237.84
747.44	3291.09
747.62	3573.71
747.80	3530.70
747.98	3338.19
748.15	3196.88
748.33	3846.09
748.51	3483.59
748.69	3284.94
748.87	3106.77
749.05	3422.16
749.23	3330.00
749.41	3147.73
749.59	3174.35
749.77	3684.30
749.95	3364.81
750.13	3125.20
750.31	3342.28
750.49	3362.76
750.67	3528.65
750.85	3307.47
751.03	3131.34
751.20	4034.50
751.38	3459.02
751.56	3266.51
751.74	3196.88
751.92	3336.14
752.10	3184.59
752.28	3330.00
752.46	3131.34
752.64	3424.20
752.82	3452.88
753.00	3315.66
753.18	3147.73
753.35	3467.21
753.53	3366.86
753.71	3065.81
753.89	3274.70
754.07	3467.21
754.25	3694.54
754.43	3231.69
754.61	3180.50
754.79	3526.60
754.97	3352.52
755.14	3385.29
755.32	3182.54
755.50	3422.16
755.68	3467.21
755.86	3121.10
756.04	3114.96
756.22	3074.00
756.40	3680.20
756.57	3420.11
756.75	3180.50
756.93	3731.40
757.11	3614.66
757.29	3088.34
757.47	3164.11
757.65	3102.67
757.82	2959.31
758.00	3127.25
758.18	3123.15
758.36	3327.95
758.54	3882.95
758.72	3098.58
758.90	3346.38
759.07	3522.51
759.25	3264.46
759.43	3352.52
759.61	2983.89
759.79	4564.92
759.97	3672.01
760.15	3137.49
760.32	3213.26
760.50	3532.75
760.68	3794.89
760.86	3110.86
761.04	3467.21
761.22	3706.82
761.39	3495.88
761.57	3366.86
761.75	3090.38
761.93	3577.80
762.11	3418.06
762.28	3405.77
762.46	3108.82
762.64	3647.43
762.82	3143.63
763.00	3123.15
763.18	3377.10
763.35	3213.26
763.53	3540.94
763.71	3332.05
763.89	3164.11
764.07	3516.36
764.24	3485.64
764.42	3297.23
764.60	3239.89
764.78	3571.66
764.96	3602.38
765.13	3323.85
765.31	3035.09
765.49	3557.32
765.67	3266.51
765.84	3121.10
766.02	3100.62
766.20	3065.81
766.38	3499.98
766.56	3233.74
766.73	3336.14
766.91	3434.44
767.09	3452.88
767.27	3260.37
767.44	3078.10
767.62	3626.95
767.80	3430.35
767.98	3123.15
768.15	3141.58
768.33	3645.38
768.51	3682.25
768.69	3262.41
768.87	3141.58
769.04	3448.78
769.22	4061.12
769.40	3340.24
769.58	3334.09
769.75	3477.45
769.93	3674.06
770.11	3303.37
770.28	3121.10
770.46	3551.18
770.64	3489.74
770.82	3270.61
770.99	3114.96
771.17	3575.75
771.35	3346.38
771.53	3303.37
771.70	3151.82
771.88	3555.27
772.06	3418.06
772.23	3143.63
772.41	3250.13
772.59	3411.92
772.77	3248.08
772.94	3172.30
773.12	3248.08
773.30	3409.87
773.47	3426.25
773.65	3065.81
773.83	3340.24
774.01	3499.98
774.18	3041.23
774.36	3270.61
774.54	3063.76
774.71	3579.85
774.89	3114.96
775.07	3125.20
775.24	3151.82
775.42	3270.61
775.60	3856.33
775.78	3090.38
775.95	3078.10
776.13	3127.25
776.31	3065.81
776.48	3440.59
776.66	3456.97
776.84	3350.48
777.01	3291.09
777.19	3155.92
777.37	3284.94
777.54	3549.13
777.72	3835.85
777.90	3278.80
778.07	3184.59
778.25	4184.00
778.43	3676.10
778.60	3147.73
778.78	3354.57
778.96	3712.97
779.13	3192.78
779.31	3303.37
779.49	3284.94
779.66	3477.45
779.84	3364.81
780.01	3176.40
780.19	3096.53
780.37	3639.24
780.54	3571.66
780.72	2959.31
780.90	3237.84
781.07	3346.38
781.25	3383.24
781.43	3418.06
781.60	3117.01
781.78	3696.58
781.95	3499.98
782.13	3284.94
782.31	3215.31
782.48	3102.67
782.66	3411.92
782.83	3430.35
783.01	3368.91
783.19	3606.47
783.36	3534.79
783.54	3106.77
783.72	3276.75
783.89	3323.85
784.07	3461.07
784.24	3334.09
784.42	3366.86
784.60	3436.49
784.77	3495.88
784.95	2944.98
785.12	3151.82
785.30	3477.45
785.47	3260.37
785.65	3108.82
785.83	3276.75
786.00	3418.06
786.18	3420.11
786.35	3176.40
786.53	3135.44
786.71	3704.78
786.88	3614.66
787.06	3258.32
787.23	3297.23
787.41	3127.25
787.58	3397.58
787.76	3108.82
787.94	3147.73
788.11	3481.55
788.29	3215.31
788.46	3241.93
788.64	2987.99
788.81	3346.38
788.99	3188.69
789.16	3188.69
789.34	3299.28
789.52	3311.57
789.69	3321.81
789.87	2979.79
790.04	3149.78
790.22	3401.68
790.39	3889.09
790.57	3067.86
790.74	3110.86
790.92	3669.96
791.09	3008.47
791.27	3274.70
791.44	3227.60
791.62	3489.74
791.79	3536.84
791.97	3315.66
792.15	3520.46
792.32	3538.89
792.50	3551.18
792.67	3459.02
792.85	3510.22
793.02	3540.94
793.20	3315.66
793.37	3100.62
793.55	3223.50
793.72	3217.36
793.90	3631.05
794.07	3172.30
794.25	3102.67
794.42	3436.49
794.60	3352.52
794.77	3229.65
794.95	3297.23
795.12	3639.24
795.30	3422.16
795.47	3030.99
795.65	3567.56
795.82	3510.22
796.00	3315.66
796.17	3289.04
796.34	3121.10
796.52	3446.73
796.69	3639.24
796.87	3344.33
797.04	3338.19
797.22	3661.77
797.39	3491.79
797.57	3336.14
797.74	3280.85
797.92	3547.08
798.09	3278.80
798.27	3547.08
798.44	3137.49
798.62	3268.56
798.79	3391.44
798.96	3330.00
799.14	3233.74
799.31	3964.87
799.49	3411.92
799.66	3213.26
799.84	3229.65
800.01	3114.96
800.19	3463.12
800.36	2936.79
800.53	3250.13
800.71	3475.40
800.88	3850.18
801.06	3114.96
801.23	3092.43
801.41	3381.20
801.58	3405.77
801.75	3205.07
801.93	3254.22
802.10	3631.05
802.28	3393.48
802.45	3223.50
802.63	3196.88
802.80	3729.35
802.97	3268.56
803.15	3143.63
803.32	3053.52
803.50	3262.41
803.67	3332.05
803.84	3106.77
804.02	3264.46
804.19	3370.96
804.37	2942.93
804.54	2961.36
804.71	3141.58
804.89	3401.68
805.06	3274.70
805.24	3028.95
805.41	3082.19
805.58	3137.49
805.76	3983.30
805.93	3194.83
806.10	3315.66
806.28	3620.81
806.45	3481.55
806.63	3377.10
806.80	3241.93
806.97	3545.03
807.15	3405.77
807.32	3278.80
807.49	3211.22
807.67	3237.84
807.84	3475.40
808.01	3076.05
808.19	3342.28
808.36	3915.72
808.54	3327.95
808.71	3137.49
808.88	3131.34
809.06	3708.87
809.23	3729.35
809.40	3276.75
809.58	3151.82
809.75	3381.20
809.92	3164.11
810.10	3514.31
810.27	3182.54
810.44	3569.61
810.62	3602.38
810.79	3196.88
810.96	3211.22
811.14	3258.32
811.31	3497.93
811.48	3301.33
811.66	3260.37
811.83	3737.54
812.00	3649.48
812.18	3282.89
812.35	3495.88
812.52	3340.24
812.69	3299.28
812.87	3180.50
813.04	3205.07
813.21	3426.25
813.39	3272.65
813.56	3092.43
813.73	3459.02
813.91	3164.11
814.08	3426.25
814.25	3231.69
814.42	3010.51
814.60	3391.44
814.77	3418.06
814.94	3067.86
815.12	3330.00
815.29	3782.60
815.46	3338.19
815.63	3188.69
815.81	3168.21
815.98	3375.05
816.15	3362.76
816.33	3295.18
816.50	3260.37
816.67	3461.07
816.84	3352.52
817.02	3098.58
817.19	3188.69
817.36	3506.12
817.53	3481.55
817.71	3037.14
817.88	3205.07
818.05	3459.02
818.22	3346.38
818.40	3420.11
818.57	3157.97
818.74	3502.03
818.91	3411.92
819.09	3463.12
819.26	3346.38
819.43	3278.80
819.60	3215.31
819.78	3428.30
819.95	3319.76
820.12	3198.93
820.29	3753.93
820.47	3504.07
820.64	3045.33
820.81	3184.59
820.98	3346.38
821.15	3301.33
821.33	3307.47
821.50	3071.95
821.67	3512.27
821.84	3104.72
822.02	3153.87
822.19	3532.75
822.36	3286.99
822.53	3135.44
822.70	3043.28
822.88	3456.97
823.05	3729.35
823.22	3272.65
823.39	3219.41
823.56	3409.87
823.74	3868.61
823.91	3000.27
824.08	3076.05
824.25	3217.36
824.42	3782.60
824.60	3043.28
824.77	3274.70
824.94	3381.20
825.11	3620.81
825.28	3008.47
825.45	3336.14
825.63	3483.59
825.80	3237.84
825.97	3286.99
826.14	3241.93
826.31	3094.48
826.48	3487.69
826.66	3188.69
826.83	3074.00
827.00	3385.29
827.17	3168.21
827.34	3254.22
827.51	3082.19
827.69	3416.01
827.86	3162.06
828.03	3166.16
828.20	3250.13
828.37	3338.19
828.54	3547.08
828.71	3110.86
828.89	3373.00
829.06	3436.49
829.23	3680.20
829.40	3139.54
829.57	3170.26
829.74	3616.71
829.91	3209.17
830.09	3170.26
830.26	3346.38
830.43	3727.30
830.60	3325.90
830.77	3268.56
830.94	3313.61
831.11	3575.75
831.28	3327.95
831.46	3286.99
831.63	3137.49
831.80	3637.19
831.97	3239.89
832.14	3209.17
832.31	3223.50
832.48	3434.44
832.65	3674.06
832.82	3311.57
832.99	3256.27
833.17	3200.98
833.34	3706.82
833.51	3127.25
833.68	2998.23
833.85	3594.19
834.02	3250.13
834.19	3110.86
834.36	3237.84
834.53	3534.79
834.70	3624.90
834.87	3088.34
835.04	2918.36
835.22	3280.85
835.39	3330.00
835.56	2904.02
835.73	2998.23
835.90	3567.56
836.07	3237.84
836.24	3133.39
836.41	3016.66
836.58	3282.89
836.75	3721.16
836.92	3008.47
837.09	2951.12
837.26	3600.33
837.43	3549.13
837.60	3129.30
837.77	3137.49
837.94	3610.57
838.12	3631.05
838.29	2873.30
838.46	2920.40
838.63	3213.26
838.80	3694.54
838.97	3049.43
839.14	2975.70
839.31	3446.73
839.48	3600.33
839.65	2971.60
839.82	3166.16
839.99	3418.06
840.16	3444.68
840.33	2996.18
840.50	3104.72
840.67	3264.46
840.84	2926.55
841.01	2992.08
841.18	2944.98
841.35	3395.53
841.52	3551.18
841.69	3377.10
841.86	3051.47
842.03	3424.20
842.20	3672.01
842.37	3033.04
842.54	3028.95
842.71	3391.44
842.88	3155.92
843.05	2983.89
843.22	3000.27
843.39	3551.18
843.56	3260.37
843.73	3076.05
843.90	3141.58
844.07	3446.73
844.24	3663.82
844.41	3100.62
844.58	3049.43
844.75	3436.49
844.92	3624.90
845.09	3082.19
845.26	3004.37
845.43	3497.93
845.60	3280.85
845.77	3198.93
845.94	3209.17
846.10	3616.71
846.27	3071.95
846.44	2861.01
846.61	2922.45
846.78	3483.59
846.95	3645.38
847.12	2940.88
847.29	2959.31
847.46	3229.65
847.63	3600.33
847.80	2926.55
847.97	3059.67
848.14	3934.15
848.31	3438.54
848.48	2918.36
848.65	2961.36
848.82	3264.46
848.98	3985.35
849.15	3190.74
849.32	3182.54
849.49	3645.38
849.66	3456.97
849.83	2981.84
850.00	3045.33
850.17	3600.33
850.34	3246.03
850.51	2983.89
850.68	3061.71
850.85	3872.71
851.01	3518.41
851.18	2957.27
851.35	3024.85
851.52	3524.55
851.69	3753.93
851.86	2975.70
852.03	2990.03
852.20	3526.60
852.37	3475.40
852.53	2906.07
852.70	3004.37
852.87	3542.99
853.04	3571.66
853.21	2994.13
853.38	3391.44
853.55	3688.39
853.72	3766.21
853.89	2863.06
854.05	3014.61
854.22	3510.22
854.39	3352.52
854.56	3059.67
854.73	3188.69
854.90	3246.03
855.07	3334.09
855.23	2942.93
855.40	2961.36
855.57	3370.96
855.74	3002.32
855.91	3239.89
856.08	2934.74
856.25	3205.07
856.41	3297.23
856.58	2996.18
856.75	3139.54
856.92	3237.84
857.09	3618.76
857.26	2916.31
857.42	3035.09
857.59	3602.38
857.76	3246.03
857.93	3082.19
858.10	3018.71
858.27	3155.92
858.43	3479.50
858.60	3117.01
858.77	2850.77
858.94	3393.48
859.11	3624.90
859.27	3155.92
859.44	2934.74
859.61	3809.22
859.78	3631.05
859.95	2951.12
860.12	2959.31
860.28	3948.48
860.45	3794.89
860.62	3018.71
860.79	3143.63
860.95	3311.57
861.12	3317.71
861.29	2828.24
861.46	2987.99
861.63	3483.59
861.79	3436.49
861.96	2910.16
862.13	3010.51
862.30	3798.98
862.47	3291.09
862.63	2883.54
862.80	3041.23
862.97	3729.35
863.14	3579.85
863.30	3047.38
863.47	2975.70
863.64	3796.93
863.81	3456.97
863.97	2920.40
864.14	3016.66
864.31	3403.72
864.48	3532.75
864.65	3098.58
864.81	3121.10
864.98	3510.22
865.15	3596.23
865.32	3137.49
865.48	3166.16
865.65	3827.65
865.82	3319.76
865.98	3067.86
866.15	3133.39
866.32	3397.58
866.49	3364.81
866.65	3178.45
866.82	3041.23
866.99	3413.96
867.16	3209.17
867.32	3074.00
867.49	2906.07
867.66	3418.06
867.83	3354.57
867.99	2996.18
868.16	2992.08
868.33	3184.59
868.49	3373.00
868.66	2992.08
868.83	3141.58
868.99	3516.36
869.16	3471.31
869.33	3143.63
869.50	3002.32
869.66	3375.05
869.83	3393.48
870.00	2897.88
870.16	3131.34
870.33	3422.16
870.50	3581.90
870.66	3069.91
870.83	3041.23
871.00	3444.68
871.17	3461.07
871.33	3069.91
871.50	3008.47
871.67	3389.39
871.83	3145.68
872.00	3059.67
872.17	3051.47
872.33	3846.09
872.50	3622.86
872.67	3010.51
872.83	3065.81
873.00	3418.06
873.17	3467.21
873.33	3074.00
873.50	3078.10
873.67	3241.93
873.83	3352.52
874.00	3014.61
874.16	3174.35
874.33	3467.21
874.50	3135.44
874.66	2985.94
874.83	3114.96
875.00	3688.39
875.16	3753.93
875.33	3139.54
875.50	2887.64
875.66	3254.22
875.83	3495.88
875.99	3125.20
876.16	3196.88
876.33	3215.31
876.49	3465.16
876.66	3078.10
876.83	3026.90
876.99	3098.58
877.16	3401.68
877.32	2996.18
877.49	3166.16
877.66	3571.66
877.82	3774.41
877.99	3131.34
878.15	3332.05
878.32	3481.55
878.49	3516.36
878.65	3078.10
878.82	3303.37
878.98	3270.61
879.15	3536.84
879.32	3289.04
879.48	3250.13
879.65	3360.72
879.81	3395.53
879.98	3074.00
880.15	3174.35
880.31	3590.09
880.48	3258.32
880.64	3184.59
880.81	3102.67
880.97	3731.40
881.14	3684.30
881.31	3039.19
881.47	3231.69
881.64	3405.77
881.80	3035.09
881.97	3188.69
882.13	3074.00
882.30	3184.59
882.47	3293.13
882.63	3055.57
882.80	3002.32
882.96	3346.38
883.13	3643.34
883.29	3004.37
883.46	3030.99
883.62	3856.33
883.79	3450.83
883.95	3205.07
884.12	2953.17
884.29	3704.78
884.45	3405.77
884.62	3147.73
884.78	3008.47
884.95	3962.82
885.11	3280.85
885.28	3176.40
885.44	3041.23
885.61	3493.83
885.77	3905.48
885.94	3205.07
886.10	3074.00
886.27	3424.20
886.43	3827.65
886.60	3196.88
886.76	3024.85
886.93	3260.37
887.09	3459.02
887.26	2895.83
887.42	3198.93
887.59	3700.68
887.75	4007.87
887.92	3297.23
888.08	3129.30
888.25	3794.89
888.41	3641.29
888.58	3215.31
888.74	2918.36
888.91	3270.61
>>>>>End Processed Spectral Data<<<<<
