SpectraSuite Data File
++++++++++++++++++++++++++++++++++++
Date: Fri May 06 09:28:27 CEST 2016
User: root
Dark Spectrum Present: No
Reference Spectrum Present: No
Number of Sampled Component Spectra: 1
Spectrometers: USB4C02835
Integration Time (usec): 100000 (USB4C02835)
Spectra Averaged: 1 (USB4C02835)
Boxcar Smoothing: 0 (USB4C02835)
Correct for Electrical Dark: No (USB4C02835)
Strobe/Lamp Enabled: No (USB4C02835)
Correct for Detector Non-linearity: No (USB4C02835)
Correct for Stray Light: No (USB4C02835)
Number of Pixels in Processed Spectrum: 3648
>>>>>Begin Processed Spectral Data<<<<<
177.47	2258.91
177.69	2258.91
177.91	2258.91
178.13	2291.68
178.36	2346.97
178.58	3155.92
178.80	3270.61
179.02	3184.59
179.24	3192.78
179.46	2852.82
179.68	2949.08
179.90	3459.02
180.13	3471.31
180.35	2713.56
180.57	2893.78
180.79	3565.51
181.01	3444.68
181.23	2922.45
181.45	3123.15
181.67	3657.67
181.90	3667.91
182.12	2959.31
182.34	2815.96
182.56	3626.95
182.78	3585.99
183.00	2901.97
183.22	2971.60
183.44	3067.86
183.66	4050.88
183.89	3114.96
184.11	3002.32
184.33	3631.05
184.55	3637.19
184.77	2895.83
184.99	2891.73
185.21	3342.28
185.43	4089.79
185.65	2938.84
185.87	2861.01
186.10	3911.62
186.32	4009.92
186.54	3061.71
186.76	3035.09
186.98	3684.30
187.20	3440.59
187.42	2975.70
187.64	2891.73
187.86	3653.58
188.08	3708.87
188.30	2869.20
188.52	2934.74
188.75	3768.26
188.97	3631.05
189.19	2914.26
189.41	2947.03
189.63	3442.64
189.85	3352.52
190.07	2832.34
190.29	2746.33
190.51	3502.03
190.73	3110.86
190.95	3147.73
191.17	3010.51
191.39	3119.06
191.61	3483.59
191.84	2983.89
192.06	3078.10
192.28	3153.87
192.50	4110.27
192.72	3186.64
192.94	3041.23
193.16	3663.82
193.38	3588.04
193.60	2820.05
193.82	3172.30
194.04	3696.58
194.26	3557.32
194.48	2967.51
194.70	2961.36
194.92	3534.79
195.14	3645.38
195.36	2987.99
195.58	3074.00
195.80	3422.16
196.02	3362.76
196.24	2947.03
196.46	3041.23
196.69	3426.25
196.91	4009.92
197.13	2910.16
197.35	3078.10
197.57	3772.36
197.79	3626.95
198.01	3098.58
198.23	2975.70
198.45	3551.18
198.67	3182.54
198.89	2768.85
199.11	3186.64
199.33	3264.46
199.55	2938.84
199.77	2928.60
199.99	3049.43
200.21	3307.47
200.43	3493.83
200.65	2906.07
200.87	2770.90
201.09	3373.00
201.31	3434.44
201.53	2922.45
201.75	3061.71
201.97	3545.03
202.19	3428.30
202.41	3057.62
202.63	3033.04
202.85	3645.38
203.07	3475.40
203.29	3074.00
203.51	2908.12
203.73	3289.04
203.95	4179.90
204.17	2942.93
204.39	3084.24
204.61	3444.68
204.83	3418.06
205.05	3153.87
205.27	3004.37
205.49	4038.59
205.71	3493.83
205.93	2813.91
206.15	2846.68
206.37	3547.08
206.59	3426.25
206.81	2801.62
207.03	2844.63
207.25	3295.18
207.47	3682.25
207.69	2959.31
207.91	3184.59
208.13	3870.66
208.34	3364.81
208.56	2926.55
208.78	3057.62
209.00	3379.15
209.22	3327.95
209.44	2979.79
209.66	2930.64
209.88	3432.40
210.10	3368.91
210.32	2944.98
210.54	3018.71
210.76	3401.68
210.98	3624.90
211.20	2887.64
211.42	3080.14
211.64	3698.63
211.86	3489.74
212.08	3112.91
212.30	2979.79
212.52	3438.54
212.74	3571.66
212.96	2963.41
213.17	3018.71
213.39	3608.52
213.61	3821.51
213.83	2906.07
214.05	2803.67
214.27	3733.45
214.49	3211.22
214.71	3035.09
214.93	3026.90
215.15	3465.16
215.37	3626.95
215.59	2856.92
215.81	3071.95
216.03	3794.89
216.24	3456.97
216.46	2949.08
216.68	3051.47
216.90	3588.04
217.12	3680.20
217.34	2922.45
217.56	3149.78
217.78	3774.41
218.00	3622.86
218.22	3172.30
218.44	3035.09
218.66	3485.64
218.87	3844.04
219.09	2994.13
219.31	2924.50
219.53	3495.88
219.75	3475.40
219.97	3051.47
220.19	3102.67
220.41	3471.31
220.63	3862.47
220.85	3024.85
221.06	2996.18
221.28	3737.54
221.50	3594.19
221.72	2906.07
221.94	2865.11
222.16	3420.11
222.38	3749.83
222.60	2996.18
222.82	2947.03
223.03	3612.62
223.25	3258.32
223.47	2920.40
223.69	3176.40
223.91	3491.79
224.13	3401.68
224.35	2848.72
224.57	3135.44
224.78	3676.10
225.00	3274.70
225.22	3047.38
225.44	2893.78
225.66	3620.81
225.88	3373.00
226.10	3088.34
226.32	2959.31
226.53	3860.42
226.75	3420.11
226.97	3121.10
227.19	2979.79
227.41	3301.33
227.63	3274.70
227.85	2820.05
228.06	3067.86
228.28	3536.84
228.50	3665.86
228.72	2807.77
228.94	2922.45
229.16	3035.09
229.37	3166.16
229.59	2881.49
229.81	3237.84
230.03	3377.10
230.25	3155.92
230.47	2840.53
230.69	2924.50
230.90	3631.05
231.12	3330.00
231.34	3057.62
231.56	3022.80
231.78	3186.64
232.00	3506.12
232.21	2983.89
232.43	3000.27
232.65	3074.00
232.87	3649.48
233.09	2838.48
233.30	2910.16
233.52	3600.33
233.74	3428.30
233.96	2881.49
234.18	3200.98
234.40	3383.24
234.61	4071.36
234.83	2875.35
235.05	2901.97
235.27	4106.18
235.49	3608.52
235.70	2791.38
235.92	2967.51
236.14	3526.60
236.36	3989.44
236.58	2836.44
236.79	3078.10
237.01	3420.11
237.23	3434.44
237.45	3221.45
237.67	3028.95
237.88	3567.56
238.10	3899.33
238.32	2852.82
238.54	2889.68
238.76	3477.45
238.97	3227.60
239.19	2840.53
239.41	3000.27
239.63	3717.06
239.85	3254.22
240.06	2953.17
240.28	2947.03
240.50	3692.49
240.72	3311.57
240.93	2938.84
241.15	3106.77
241.37	3479.50
241.59	3817.41
241.81	2947.03
242.02	3071.95
242.24	3524.55
242.46	3665.86
242.68	2807.77
242.89	2871.25
243.11	3604.42
243.33	3422.16
243.55	2942.93
243.76	2992.08
243.98	3280.85
244.20	3366.86
244.42	2981.84
244.64	2918.36
244.85	3207.12
245.07	3217.36
245.29	2977.75
245.51	3010.51
245.72	3524.55
245.94	3655.62
246.16	2959.31
246.38	2994.13
246.59	3399.63
246.81	3297.23
247.03	2895.83
247.24	2820.05
247.46	3385.29
247.68	3540.94
247.90	2875.35
248.11	2953.17
248.33	3583.95
248.55	3385.29
248.77	2996.18
248.98	2985.94
249.20	3774.41
249.42	3506.12
249.64	2942.93
249.85	2969.55
250.07	3340.24
250.29	3598.28
250.50	3026.90
250.72	2854.87
250.94	3581.90
251.16	3977.16
251.37	2961.36
251.59	3092.43
251.81	3565.51
252.02	3811.27
252.24	2852.82
252.46	3155.92
252.68	3327.95
252.89	3356.62
253.11	2822.10
253.33	3203.02
253.54	3739.59
253.76	3213.26
253.98	2899.92
254.20	3004.37
254.41	3203.02
254.63	3477.45
254.85	2824.15
255.06	3080.14
255.28	3508.17
255.50	3352.52
255.71	2953.17
255.93	2873.30
256.15	3514.31
256.36	3618.76
256.58	2766.81
256.80	2858.96
257.02	3420.11
257.23	3352.52
257.45	2985.94
257.67	3088.34
257.88	3272.65
258.10	3590.09
258.32	2926.55
258.53	3057.62
258.75	3790.79
258.97	3246.03
259.18	2832.34
259.40	2977.75
259.62	3901.38
259.83	3803.08
260.05	3055.57
260.27	4018.11
260.48	3631.05
260.70	3254.22
260.92	2901.97
261.13	2977.75
261.35	3557.32
261.57	3444.68
261.78	2770.90
262.00	2942.93
262.22	3573.71
262.43	3270.61
262.65	2944.98
262.86	2981.84
263.08	4046.79
263.30	3409.87
263.51	2875.35
263.73	2901.97
263.95	3753.93
264.16	3303.37
264.38	2820.05
264.60	2867.16
264.81	3475.40
265.03	3753.93
265.25	3413.96
265.46	2893.78
265.68	3680.20
265.89	3588.04
266.11	2826.20
266.33	2959.31
266.54	3792.84
266.76	3567.56
266.98	3022.80
267.19	3186.64
267.41	3674.06
267.62	3471.31
267.84	2717.65
268.06	3069.91
268.27	3514.31
268.49	3772.36
268.70	3008.47
268.92	2971.60
269.14	3327.95
269.35	3117.01
269.57	3102.67
269.79	3020.75
270.00	3311.57
270.22	3868.61
270.43	2840.53
270.65	2846.68
270.87	3532.75
271.08	3626.95
271.30	3059.67
271.51	3018.71
271.73	3655.62
271.95	3790.79
272.16	2951.12
272.38	3160.02
272.59	3373.00
272.81	3532.75
273.02	2967.51
273.24	2969.55
273.46	3758.02
273.67	3147.73
273.89	2807.77
274.10	3067.86
274.32	3684.30
274.54	3508.17
274.75	3026.90
274.97	3086.29
275.18	3540.94
275.40	3579.85
275.61	3020.75
275.83	3131.34
276.05	3200.98
276.26	3516.36
276.48	3012.56
276.69	3192.78
276.91	3352.52
277.12	3737.54
277.34	3164.11
277.55	3170.26
277.77	3575.75
277.99	3430.35
278.20	3131.34
278.42	3012.56
278.63	3315.66
278.85	3295.18
279.06	3119.06
279.28	3184.59
279.49	3712.97
279.71	3610.57
279.93	3131.34
280.14	3176.40
280.36	3356.62
280.57	3588.04
280.79	3180.50
281.00	3055.57
281.22	3305.42
281.43	3764.17
281.65	2901.97
281.86	2938.84
282.08	3633.10
282.29	3954.63
282.51	2930.64
282.73	2992.08
282.94	3098.58
283.16	3639.24
283.37	3172.30
283.59	3112.91
283.80	3534.79
284.02	3413.96
284.23	3217.36
284.45	3139.54
284.66	3248.08
284.88	3297.23
285.09	3008.47
285.31	3137.49
285.52	3518.41
285.74	3090.38
285.95	3358.67
286.17	3162.06
286.38	3735.50
286.60	3280.85
286.81	3090.38
287.03	3100.62
287.24	3397.58
287.46	3573.71
287.67	3282.89
287.89	3282.89
288.10	3409.87
288.32	3475.40
288.53	3223.50
288.75	3129.30
288.96	3479.50
289.18	3258.32
289.39	3016.66
289.61	3041.23
289.82	3930.05
290.04	3844.04
290.25	2963.41
290.47	3176.40
290.68	3416.01
290.90	3688.39
291.11	2871.25
291.33	3174.35
291.54	3250.13
291.76	3307.47
291.97	3282.89
292.18	3217.36
292.40	3325.90
292.61	3362.76
292.83	3358.67
293.04	3008.47
293.26	3467.21
293.47	3330.00
293.69	3039.19
293.90	3006.42
294.12	3751.88
294.33	3401.68
294.55	3164.11
294.76	3401.68
294.97	3768.26
295.19	3907.52
295.40	3051.47
295.62	3139.54
295.83	3588.04
296.05	3221.45
296.26	3325.90
296.48	3166.16
296.69	3459.02
296.90	3463.12
297.12	3321.81
297.33	3266.51
297.55	3502.03
297.76	3565.51
297.98	3033.04
298.19	3319.76
298.41	3430.35
298.62	3213.26
298.83	3217.36
299.05	3139.54
299.26	3344.33
299.48	3325.90
299.69	3174.35
299.90	3045.33
300.12	3221.45
300.33	3559.37
300.55	3117.01
300.76	3176.40
300.98	3237.84
301.19	3608.52
301.40	3071.95
301.62	3123.15
301.83	3575.75
302.05	3459.02
302.26	3051.47
302.47	3180.50
302.69	3268.56
302.90	3385.29
303.12	2973.65
303.33	3233.74
303.54	3811.27
303.76	3313.61
303.97	3049.43
304.19	3272.65
304.40	3266.51
304.61	3461.07
304.83	3200.98
305.04	3080.14
305.26	3672.01
305.47	3327.95
305.68	3125.20
305.90	3002.32
306.11	3696.58
306.33	3391.44
306.54	2869.20
306.75	3100.62
306.97	3131.34
307.18	3266.51
307.39	3049.43
307.61	3207.12
307.82	3385.29
308.04	3514.31
308.25	2918.36
308.46	3246.03
308.68	3514.31
308.89	3377.10
309.10	3225.55
309.32	3096.53
309.53	3440.59
309.74	3622.86
309.96	2977.75
310.17	3225.55
310.39	3332.05
310.60	3585.99
310.81	3174.35
311.03	3063.76
311.24	3575.75
311.45	3426.25
311.67	3352.52
311.88	3237.84
312.09	3395.53
312.31	3270.61
312.52	3037.14
312.73	3078.10
312.95	3157.97
313.16	3227.60
313.37	3317.71
313.59	3268.56
313.80	3622.86
314.01	3778.50
314.23	3135.44
314.44	3000.27
314.65	3137.49
314.87	3252.17
315.08	3131.34
315.29	3133.39
315.51	3321.81
315.72	3098.58
315.93	3145.68
316.15	3137.49
316.36	3350.48
316.57	3416.01
316.79	3033.04
317.00	3000.27
317.21	3524.55
317.43	3250.13
317.64	3123.15
317.85	2985.94
318.07	3235.79
318.28	3268.56
318.49	3164.11
318.70	3252.17
318.92	3483.59
319.13	3440.59
319.34	3157.97
319.56	3082.19
319.77	3516.36
319.98	3583.95
320.20	3418.06
320.41	3295.18
320.62	3542.99
320.83	3256.27
321.05	3377.10
321.26	3100.62
321.47	3528.65
321.69	3823.56
321.90	2926.55
322.11	3035.09
322.32	3477.45
322.54	3864.52
322.75	3137.49
322.96	4173.76
323.18	3145.68
323.39	2998.23
323.60	2973.65
323.81	3221.45
324.03	3358.67
324.24	3399.63
324.45	3303.37
324.66	3069.91
324.88	3557.32
325.09	3755.97
325.30	3114.96
325.52	3002.32
325.73	3481.55
325.94	3225.55
326.15	2983.89
326.37	2934.74
326.58	3688.39
326.79	3807.17
327.00	3016.66
327.22	3065.81
327.43	3342.28
327.64	3203.02
327.85	3190.74
328.07	3098.58
328.28	3778.50
328.49	3264.46
328.70	3098.58
328.92	3192.78
329.13	3428.30
329.34	3598.28
329.55	3352.52
329.76	3303.37
329.98	3385.29
330.19	3663.82
330.40	3172.30
330.61	3278.80
330.83	3514.31
331.04	3256.27
331.25	3131.34
331.46	3117.01
331.68	3223.50
331.89	3762.12
332.10	3133.39
332.31	2985.94
332.52	3413.96
332.74	3667.91
332.95	2942.93
333.16	3067.86
333.37	3616.71
333.58	3354.57
333.80	3143.63
334.01	2906.07
334.22	3354.57
334.43	3268.56
334.64	3074.00
334.86	3039.19
335.07	3203.02
335.28	3762.12
335.49	3053.52
335.70	3133.39
335.92	3790.79
336.13	3905.48
336.34	3088.34
336.55	3147.73
336.76	3491.79
336.98	3012.56
337.19	3106.77
337.40	3186.64
337.61	4005.83
337.82	3340.24
338.04	3250.13
338.25	3055.57
338.46	3499.98
338.67	3368.91
338.88	3055.57
339.09	2893.78
339.31	3352.52
339.52	3260.37
339.73	3016.66
339.94	3119.06
340.15	3682.25
340.36	3334.09
340.58	3192.78
340.79	2979.79
341.00	3590.09
341.21	3139.54
341.42	3395.53
341.63	3205.07
341.85	3655.62
342.06	3512.27
342.27	3088.34
342.48	3229.65
342.69	3252.17
342.90	3520.46
343.12	3536.84
343.33	3071.95
343.54	3596.23
343.75	3870.66
343.96	3217.36
344.17	2944.98
344.38	3344.33
344.60	3237.84
344.81	3018.71
345.02	3143.63
345.23	3672.01
345.44	3950.53
345.65	3192.78
345.86	3147.73
346.07	3534.79
346.29	3297.23
346.50	3246.03
346.71	3250.13
346.92	3715.02
347.13	3889.09
347.34	3215.31
347.55	2959.31
347.76	3510.22
347.98	3106.77
348.19	3147.73
348.40	3264.46
348.61	3401.68
348.82	3805.13
349.03	3112.91
349.24	2938.84
349.45	3966.92
349.66	2994.13
349.88	3043.28
350.09	3069.91
350.30	3778.50
350.51	3737.54
350.72	3385.29
350.93	3157.97
351.14	3358.67
351.35	3504.07
351.56	3104.72
351.77	3213.26
351.99	3526.60
352.20	3647.43
352.41	3254.22
352.62	2863.06
352.83	3354.57
353.04	3436.49
353.25	3069.91
353.46	3139.54
353.67	3647.43
353.88	2983.89
354.09	2992.08
354.30	3172.30
354.52	3649.48
354.73	3364.81
354.94	3053.52
355.15	3139.54
355.36	3907.52
355.57	3332.05
355.78	3024.85
355.99	3098.58
356.20	3487.69
356.41	3737.54
356.62	3157.97
356.83	3205.07
357.04	3629.00
357.25	3080.14
357.46	3131.34
357.68	3004.37
357.89	3217.36
358.10	3405.77
358.31	3114.96
358.52	3160.02
358.73	3176.40
358.94	3151.82
359.15	3147.73
359.36	3160.02
359.57	3442.64
359.78	3467.21
359.99	3303.37
360.20	3004.37
360.41	3461.07
360.62	3606.47
360.83	3215.31
361.04	3172.30
361.25	3495.88
361.46	3860.42
361.67	3186.64
361.88	3137.49
362.09	3604.42
362.30	3608.52
362.51	3045.33
362.72	3114.96
362.93	3608.52
363.14	3624.90
363.35	3151.82
363.56	3018.71
363.78	3663.82
363.99	3604.42
364.20	3164.11
364.41	3198.93
364.62	3835.85
364.83	3508.17
365.04	3119.06
365.25	3188.69
365.46	3954.63
365.67	3286.99
365.88	3381.20
366.09	3051.47
366.30	3340.24
366.51	3520.46
366.72	3035.09
366.93	3020.75
367.14	3430.35
367.35	3721.16
367.56	3008.47
367.77	3192.78
367.98	3454.92
368.18	3573.71
368.39	3229.65
368.60	3090.38
368.81	3680.20
369.02	3522.51
369.23	3078.10
369.44	2977.75
369.65	3360.72
369.86	3624.90
370.07	3248.08
370.28	3035.09
370.49	3530.70
370.70	3551.18
370.91	2940.88
371.12	3012.56
371.33	3616.71
371.54	3342.28
371.75	3127.25
371.96	2828.24
372.17	3510.22
372.38	3272.65
372.59	3117.01
372.80	3104.72
373.01	3405.77
373.22	3475.40
373.43	3135.44
373.64	2944.98
373.85	3715.02
374.06	3819.46
374.26	3196.88
374.47	3219.41
374.68	3741.64
374.89	3497.93
375.10	3057.62
375.31	3219.41
375.52	3502.03
375.73	3475.40
375.94	2953.17
376.15	3211.22
376.36	3246.03
376.57	3321.81
376.78	3123.15
376.99	3157.97
377.20	3700.68
377.40	3319.76
377.61	3493.83
377.82	3000.27
378.03	3694.54
378.24	3518.41
378.45	3237.84
378.66	3180.50
378.87	3137.49
379.08	3149.78
379.29	3135.44
379.50	3264.46
379.71	3368.91
379.91	3534.79
380.12	3061.71
380.33	3233.74
380.54	3368.91
380.75	3393.48
380.96	3082.19
381.17	3196.88
381.38	3430.35
381.59	3502.03
381.80	3200.98
382.00	3250.13
382.21	3549.13
382.42	3749.83
382.63	3516.36
382.84	3280.85
383.05	3704.78
383.26	3696.58
383.47	3305.42
383.68	3069.91
383.88	3559.37
384.09	3487.69
384.30	3299.28
384.51	3174.35
384.72	3327.95
384.93	3168.21
385.14	3233.74
385.35	3354.57
385.55	3164.11
385.76	3733.45
385.97	3045.33
386.18	2998.23
386.39	3248.08
386.60	3217.36
386.81	3071.95
387.02	3098.58
387.22	3127.25
387.43	3499.98
387.64	3254.22
387.85	3344.33
388.06	3366.86
388.27	4356.03
388.48	7397.26
388.68	10841.95
388.89	13889.32
389.10	14718.75
389.31	14448.42
389.52	11661.13
389.73	10237.80
389.93	9482.10
390.14	8388.48
390.35	7950.21
390.56	7296.91
390.77	6215.59
390.98	4753.34
391.18	4100.03
391.39	3934.15
391.60	3393.48
391.81	3346.38
392.02	3217.36
392.23	3995.59
392.43	3448.78
392.64	3270.61
392.85	3260.37
393.06	3817.41
393.27	3502.03
393.47	3082.19
393.68	3174.35
393.89	3362.76
394.10	3721.16
394.31	3164.11
394.52	3071.95
394.72	3272.65
394.93	3792.84
395.14	3028.95
395.35	3293.13
395.56	3307.47
395.76	3368.91
395.97	3078.10
396.18	3286.99
396.39	3307.47
396.60	3995.59
396.80	3387.34
397.01	3274.70
397.22	3680.20
397.43	3696.58
397.64	3045.33
397.84	3258.32
398.05	3921.86
398.26	3336.14
398.47	3250.13
398.67	3459.02
398.88	3459.02
399.09	3653.58
399.30	3119.06
399.51	3241.93
399.71	3260.37
399.92	3430.35
400.13	3217.36
400.34	3090.38
400.54	3473.36
400.75	3717.06
400.96	3174.35
401.17	3446.73
401.37	3604.42
401.58	3459.02
401.79	3098.58
402.00	3297.23
402.21	3905.48
402.41	3604.42
402.62	3360.72
402.83	3592.14
403.04	3809.22
403.24	4310.97
403.45	3352.52
403.66	3487.69
403.87	3631.05
404.07	3733.45
404.28	3440.59
404.49	3499.98
404.70	3567.56
404.90	3631.05
405.11	3172.30
405.32	3235.79
405.52	3325.90
405.73	3467.21
405.94	3024.85
406.15	3209.17
406.35	3483.59
406.56	3542.99
406.77	3192.78
406.98	3235.79
407.18	3332.05
407.39	3704.78
407.60	3133.39
407.80	3248.08
408.01	3348.43
408.22	3600.33
408.43	2996.18
408.63	3262.41
408.84	3663.82
409.05	3581.90
409.25	3131.34
409.46	3205.07
409.67	3313.61
409.88	3299.28
410.08	3205.07
410.29	3100.62
410.50	3676.10
410.70	3530.70
410.91	3145.68
411.12	3229.65
411.32	3483.59
411.53	3276.75
411.74	3200.98
411.95	3262.41
412.15	3479.50
412.36	3499.98
412.57	3340.24
412.77	3362.76
412.98	3358.67
413.19	3350.48
413.39	3162.06
413.60	3203.02
413.81	3672.01
414.01	3172.30
414.22	3123.15
414.43	3487.69
414.63	3307.47
414.84	3657.67
415.05	3198.93
415.25	3008.47
415.46	3647.43
415.67	3330.00
415.87	3131.34
416.08	3172.30
416.29	3350.48
416.49	3475.40
416.70	3272.65
416.91	3162.06
417.11	3446.73
417.32	3661.77
417.53	3299.28
417.73	3291.09
417.94	3436.49
418.15	3504.07
418.35	3125.20
418.56	3207.12
418.77	3968.96
418.97	3540.94
419.18	3295.18
419.38	2842.58
419.59	3434.44
419.80	3688.39
420.00	3033.04
420.21	3106.77
420.42	3819.46
420.62	3471.31
420.83	3137.49
421.04	3139.54
421.24	3440.59
421.45	3594.19
421.65	3162.06
421.86	3174.35
422.07	3649.48
422.27	3510.22
422.48	3074.00
422.69	2953.17
422.89	3373.00
423.10	3338.19
423.30	3143.63
423.51	3119.06
423.72	3678.15
423.92	3547.08
424.13	3033.04
424.33	3235.79
424.54	3614.66
424.75	3475.40
424.95	3323.85
425.16	3080.14
425.36	3456.97
425.57	3721.16
425.78	3346.38
425.98	3229.65
426.19	3348.43
426.39	3291.09
426.60	3168.21
426.81	3368.91
427.01	3612.62
427.22	3213.26
427.42	2983.89
427.63	3082.19
427.83	3649.48
428.04	3762.12
428.25	3182.54
428.45	3256.27
428.66	3741.64
428.86	3452.88
429.07	3233.74
429.28	3190.74
429.48	3383.24
429.69	3188.69
429.89	3209.17
430.10	3043.28
430.30	3647.43
430.51	3641.29
430.71	3131.34
430.92	3209.17
431.13	3370.96
431.33	3483.59
431.54	3233.74
431.74	3350.48
431.95	3921.86
432.15	3241.93
432.36	3114.96
432.56	3164.11
432.77	3880.90
432.98	3878.85
433.18	3203.02
433.39	3035.09
433.59	3428.30
433.80	3950.53
434.00	3258.32
434.21	3207.12
434.41	3360.72
434.62	3936.20
434.82	2971.60
435.03	3014.61
435.23	3540.94
435.44	3149.78
435.64	3061.71
435.85	3227.60
436.06	3696.58
436.26	3575.75
436.47	3141.58
436.67	3160.02
436.88	3409.87
437.08	3647.43
437.29	3280.85
437.49	3282.89
437.70	3700.68
437.90	3309.52
438.11	3489.74
438.31	3258.32
438.52	3782.60
438.72	3712.97
438.93	3534.79
439.13	3221.45
439.34	3598.28
439.54	3405.77
439.75	3301.33
439.95	3237.84
440.16	3227.60
440.36	3424.20
440.57	3268.56
440.77	3184.59
440.98	3459.02
441.18	3620.81
441.39	3078.10
441.59	2977.75
441.80	3923.91
442.00	3418.06
442.21	3270.61
442.41	3069.91
442.62	3692.49
442.82	3346.38
443.02	3213.26
443.23	3211.22
443.43	3375.05
443.64	3794.89
443.84	3074.00
444.05	3143.63
444.25	3528.65
444.46	3391.44
444.66	3098.58
444.87	3444.68
445.07	3164.11
445.28	3373.00
445.48	3325.90
445.69	3248.08
445.89	4122.56
446.09	3344.33
446.30	3452.88
446.50	3528.65
446.71	5105.59
446.91	6195.11
447.12	6768.54
447.32	7284.62
447.53	7296.91
447.73	6191.01
447.93	5371.82
448.14	5113.78
448.34	5355.44
448.55	4466.62
448.75	4315.07
448.96	4163.52
449.16	4247.49
449.36	4020.16
449.57	3393.48
449.77	3295.18
449.98	3284.94
450.18	3559.37
450.39	3098.58
450.59	3407.82
450.79	3452.88
451.00	3246.03
451.20	3305.42
451.41	3149.78
451.61	3479.50
451.81	3332.05
452.02	3086.29
452.22	3135.44
452.43	3256.27
452.63	3227.60
452.84	3309.52
453.04	3125.20
453.24	3538.89
453.45	3209.17
453.65	3233.74
453.86	3205.07
454.06	3481.55
454.26	3491.79
454.47	3100.62
454.67	3373.00
454.87	3491.79
455.08	3418.06
455.28	3266.51
455.49	3362.76
455.69	3270.61
455.89	3913.67
456.10	3254.22
456.30	3119.06
456.51	3643.34
456.71	3532.75
456.91	3262.41
457.12	3135.44
457.32	3516.36
457.52	3198.93
457.73	3432.40
457.93	3336.14
458.14	3256.27
458.34	3047.38
458.54	3205.07
458.75	3194.83
458.95	3606.47
459.15	3442.64
459.36	3258.32
459.56	3117.01
459.76	3975.11
459.97	3379.15
460.17	3106.77
460.37	3239.89
460.58	3459.02
460.78	3647.43
460.99	3135.44
461.19	3160.02
461.39	3219.41
461.60	3387.34
461.80	3286.99
462.00	3049.43
462.21	3409.87
462.41	3274.70
462.61	3008.47
462.82	3010.51
463.02	3643.34
463.22	3346.38
463.43	3172.30
463.63	3026.90
463.83	3655.62
464.04	3508.17
464.24	3135.44
464.44	3110.86
464.64	3592.14
464.85	3553.23
465.05	3215.31
465.25	3045.33
465.46	3346.38
465.66	3596.23
465.86	3221.45
466.07	3100.62
466.27	3508.17
466.47	3035.09
466.68	2973.65
466.88	3219.41
467.08	3557.32
467.29	3581.90
467.49	3209.17
467.69	3342.28
467.89	3592.14
468.10	3389.39
468.30	3229.65
468.50	3280.85
468.71	3602.38
468.91	3119.06
469.11	3350.48
469.31	3299.28
469.52	3180.50
469.72	3819.46
469.92	3420.11
470.13	3188.69
470.33	3502.03
470.53	3545.03
470.73	3504.07
470.94	3901.38
471.14	4065.22
471.34	4620.22
471.54	4161.47
471.75	3893.19
471.95	3778.50
472.15	3749.83
472.36	3700.68
472.56	3614.66
472.76	3960.77
472.96	3762.12
473.17	3344.33
473.37	3311.57
473.57	3291.09
473.77	3608.52
473.98	3401.68
474.18	3100.62
474.38	4145.09
474.58	3227.60
474.79	3127.25
474.99	3303.37
475.19	3743.69
475.39	3284.94
475.60	3180.50
475.80	3094.48
476.00	3567.56
476.20	3299.28
476.41	3278.80
476.61	3198.93
476.81	3733.45
477.01	3315.66
477.21	3489.74
477.42	3256.27
477.62	3239.89
477.82	3637.19
478.02	3114.96
478.23	3096.53
478.43	3198.93
478.63	3393.48
478.83	3157.97
479.03	3256.27
479.24	3745.73
479.44	3889.09
479.64	3139.54
479.84	2926.55
480.04	3241.93
480.25	3573.71
480.45	3166.16
480.65	3172.30
480.85	3798.98
481.06	3346.38
481.26	3346.38
481.46	3162.06
481.66	3497.93
481.86	3289.04
482.06	3454.92
482.27	3168.21
482.47	3465.16
482.67	3534.79
482.87	3182.54
483.07	3176.40
483.28	3295.18
483.48	3207.12
483.68	3143.63
483.88	3063.76
484.08	3065.81
484.29	3215.31
484.49	3293.13
484.69	2983.89
484.89	3780.55
485.09	3616.71
485.29	3200.98
485.50	3323.85
485.70	3317.71
485.90	3725.26
486.10	3307.47
486.30	3137.49
486.50	3747.78
486.71	3461.07
486.91	3270.61
487.11	3254.22
487.31	3174.35
487.51	3575.75
487.71	3133.39
487.91	3117.01
488.12	3227.60
488.32	2867.16
488.52	3133.39
488.72	2940.88
488.92	3510.22
489.12	3698.63
489.32	3362.76
489.53	3135.44
489.73	3119.06
489.93	3862.47
490.13	3198.93
490.33	2969.55
490.53	3569.61
490.73	3655.62
490.94	3041.23
491.14	3276.75
491.34	3573.71
491.54	3549.13
491.74	4050.88
491.94	4421.56
492.14	5095.35
492.34	5255.09
492.54	4693.94
492.75	4081.60
492.95	4419.52
493.15	4059.07
493.35	3753.93
493.55	3774.41
493.75	3829.70
493.95	3962.82
494.15	3434.44
494.35	3286.99
494.56	3424.20
494.76	3360.72
494.96	3305.42
495.16	3037.14
495.36	3479.50
495.56	3518.41
495.76	3260.37
495.96	3205.07
496.16	3205.07
496.36	3831.75
496.56	3098.58
496.77	3286.99
496.97	3452.88
497.17	3792.84
497.37	2985.94
497.57	3325.90
497.77	3430.35
497.97	3211.22
498.17	3178.45
498.37	3041.23
498.57	3608.52
498.77	3352.52
498.97	3327.95
499.17	3502.03
499.38	3424.20
499.58	3542.99
499.78	3373.00
499.98	3368.91
500.18	3327.95
500.38	3286.99
500.58	3383.24
500.78	3768.26
500.98	6039.46
501.18	7835.53
501.38	9365.36
501.58	10055.53
501.78	9989.99
501.98	8353.66
502.18	7096.21
502.38	6207.39
502.58	6234.02
502.78	5449.64
502.98	5326.77
503.18	5150.64
503.38	4771.77
503.59	4198.34
503.79	4050.88
503.99	3778.50
504.19	3917.76
504.39	3852.23
504.59	3596.23
504.79	3559.37
504.99	3989.44
505.19	3643.34
505.39	3311.57
505.59	3487.69
505.79	3762.12
505.99	3620.81
506.19	3194.83
506.39	3446.73
506.59	3342.28
506.79	3313.61
506.99	3385.29
507.19	3067.86
507.39	3545.03
507.59	3102.67
507.79	3135.44
507.99	3125.20
508.19	3344.33
508.39	3340.24
508.59	3157.97
508.79	3301.33
508.99	3868.61
509.19	3344.33
509.39	3264.46
509.59	3149.78
509.79	3221.45
509.99	3508.17
510.19	3325.90
510.39	3323.85
510.59	3551.18
510.79	3315.66
510.99	3082.19
511.19	3069.91
511.39	3889.09
511.59	3622.86
511.79	3264.46
511.99	3114.96
512.19	3801.03
512.38	3463.12
512.58	3151.82
512.78	3049.43
512.98	3774.41
513.18	3807.17
513.38	3024.85
513.58	3256.27
513.78	3426.25
513.98	3444.68
514.18	3188.69
514.38	3217.36
514.58	3502.03
514.78	3280.85
514.98	3047.38
515.18	3215.31
515.38	3235.79
515.58	3862.47
515.78	3151.82
515.98	3096.53
516.18	3579.85
516.38	3452.88
516.57	3094.48
516.77	3117.01
516.97	3657.67
517.17	3280.85
517.37	2942.93
517.57	3086.29
517.77	3518.41
517.97	3291.09
518.17	3188.69
518.37	3000.27
518.57	3334.09
518.77	3338.19
518.97	3215.31
519.16	3233.74
519.36	3579.85
519.56	3344.33
519.76	3139.54
519.96	3153.87
520.16	3741.64
520.36	3278.80
520.56	3280.85
520.76	3074.00
520.96	3391.44
521.16	3612.62
521.35	3301.33
521.55	3211.22
521.75	3432.40
521.95	3313.61
522.15	3123.15
522.35	3059.67
522.55	3340.24
522.75	3633.10
522.95	3084.24
523.14	3041.23
523.34	3432.40
523.54	3303.37
523.74	3297.23
523.94	3188.69
524.14	3098.58
524.34	3497.93
524.54	3360.72
524.73	3182.54
524.93	3575.75
525.13	3469.26
525.33	2998.23
525.53	3450.83
525.73	3614.66
525.93	3463.12
526.13	3149.78
526.32	3143.63
526.52	3749.83
526.72	3585.99
526.92	3180.50
527.12	3063.76
527.32	3110.86
527.52	3545.03
527.71	3217.36
527.91	3205.07
528.11	3330.00
528.31	3352.52
528.51	3248.08
528.71	3321.81
528.90	3497.93
529.10	3635.14
529.30	3200.98
529.50	2869.20
529.70	3508.17
529.90	3348.43
530.09	3188.69
530.29	3057.62
530.49	3303.37
530.69	4063.17
530.89	3401.68
531.09	3289.04
531.28	3385.29
531.48	3735.50
531.68	3168.21
531.88	3254.22
532.08	3633.10
532.28	3311.57
532.47	3225.55
532.67	3205.07
532.87	3463.12
533.07	3252.17
533.27	3207.12
533.46	3246.03
533.66	3545.03
533.86	3373.00
534.06	3235.79
534.26	3131.34
534.45	3393.48
534.65	3551.18
534.85	3319.76
535.05	3143.63
535.25	3639.24
535.44	3094.48
535.64	3233.74
535.84	3196.88
536.04	3270.61
536.24	3440.59
536.43	3106.77
536.63	3088.34
536.83	3442.64
537.03	3348.43
537.22	2895.83
537.42	2981.84
537.62	3504.07
537.82	3313.61
538.02	3307.47
538.21	3246.03
538.41	3966.92
538.61	3573.71
538.81	3225.55
539.00	3286.99
539.20	3074.00
539.40	3305.42
539.60	3164.11
539.79	3424.20
539.99	3360.72
540.19	3289.04
540.39	2983.89
540.58	3225.55
540.78	3667.91
540.98	3489.74
541.18	3391.44
541.37	3157.97
541.57	3469.26
541.77	3493.83
541.97	3067.86
542.16	3082.19
542.36	3307.47
542.56	3606.47
542.76	3278.80
542.95	3209.17
543.15	3551.18
543.35	3598.28
543.54	3153.87
543.74	3127.25
543.94	3710.92
544.14	3327.95
544.33	3313.61
544.53	3184.59
544.73	3405.77
544.93	3327.95
545.12	3149.78
545.32	3176.40
545.52	3434.44
545.71	3200.98
545.91	3188.69
546.11	3127.25
546.30	3190.74
546.50	3477.45
546.70	3241.93
546.90	3135.44
547.09	3102.67
547.29	3348.43
547.49	3373.00
547.68	3184.59
547.88	3260.37
548.08	3561.42
548.27	3516.36
548.47	3155.92
548.67	3239.89
548.87	3565.51
549.06	3094.48
549.26	3145.68
549.46	3434.44
549.65	3286.99
549.85	3198.93
550.05	3139.54
550.24	3139.54
550.44	3549.13
550.64	3176.40
550.83	3248.08
551.03	3766.21
551.23	3690.44
551.42	3299.28
551.62	3250.13
551.82	3475.40
552.01	3385.29
552.21	3485.64
552.41	3315.66
552.60	3739.59
552.80	3493.83
553.00	3182.54
553.19	3160.02
553.39	3782.60
553.59	3198.93
553.78	3323.85
553.98	3098.58
554.17	3196.88
554.37	3471.31
554.57	3278.80
554.76	2973.65
554.96	3317.71
555.16	3432.40
555.35	3256.27
555.55	3344.33
555.75	3430.35
555.94	3575.75
556.14	2912.21
556.33	3200.98
556.53	3391.44
556.73	3426.25
556.92	3123.15
557.12	3065.81
557.32	3887.04
557.51	3766.21
557.71	3243.98
557.90	3356.62
558.10	3745.73
558.30	3289.04
558.49	3211.22
558.69	3205.07
558.88	3645.38
559.08	3465.16
559.28	3217.36
559.47	3223.50
559.67	3571.66
559.86	3876.80
560.06	3137.49
560.26	3188.69
560.45	3555.27
560.65	3444.68
560.84	3516.36
561.04	3086.29
561.24	3499.98
561.43	3219.41
561.63	3440.59
561.82	3297.23
562.02	3596.23
562.22	3274.70
562.41	3106.77
562.61	3082.19
562.80	3190.74
563.00	3911.62
563.19	3229.65
563.39	3246.03
563.59	3499.98
563.78	3209.17
563.98	3000.27
564.17	3213.26
564.37	3051.47
564.56	3401.68
564.76	3084.24
564.96	3248.08
565.15	3516.36
565.35	3977.16
565.54	3192.78
565.74	3135.44
565.93	3557.32
566.13	3340.24
566.32	3254.22
566.52	3278.80
566.71	3459.02
566.91	3610.57
567.11	3233.74
567.30	3145.68
567.50	3612.62
567.69	3493.83
567.89	3174.35
568.08	3026.90
568.28	3440.59
568.47	3207.12
568.67	3155.92
568.86	3157.97
569.06	3563.47
569.25	3393.48
569.45	3129.30
569.64	3260.37
569.84	3360.72
570.04	3448.78
570.23	3256.27
570.43	3235.79
570.62	3575.75
570.82	3815.37
571.01	3051.47
571.21	3114.96
571.40	3266.51
571.60	3653.58
571.79	3366.86
571.99	3209.17
572.18	3196.88
572.38	3495.88
572.57	3219.41
572.77	3215.31
572.96	4061.12
573.16	3450.83
573.35	3213.26
573.55	3342.28
573.74	3626.95
573.94	3403.72
574.13	3256.27
574.33	3377.10
574.52	3760.07
574.71	3428.30
574.91	3213.26
575.10	3024.85
575.30	3305.42
575.49	3260.37
575.69	3102.67
575.88	3119.06
576.08	3379.15
576.27	3559.37
576.47	3088.34
576.66	3323.85
576.86	3745.73
577.05	3497.93
577.25	3225.55
577.44	3364.81
577.64	3358.67
577.83	3612.62
578.02	3090.38
578.22	3346.38
578.41	3760.07
578.61	3344.33
578.80	3041.23
579.00	3194.83
579.19	3370.96
579.39	3518.41
579.58	3332.05
579.77	3246.03
579.97	3676.10
580.16	3667.91
580.36	3385.29
580.55	3338.19
580.75	3448.78
580.94	3389.39
581.13	3323.85
581.33	3444.68
581.52	3370.96
581.72	3801.03
581.91	3256.27
582.11	3157.97
582.30	3555.27
582.49	3409.87
582.69	3422.16
582.88	3246.03
583.08	3499.98
583.27	3727.30
583.47	3360.72
583.66	3155.92
583.85	3153.87
584.05	3401.68
584.24	3377.10
584.44	3198.93
584.63	3694.54
584.82	3669.96
585.02	3434.44
585.21	3305.42
585.41	3579.85
585.60	3436.49
585.79	3399.63
585.99	3450.83
586.18	3459.02
586.37	4411.32
586.57	6637.47
586.76	18331.37
586.96	37606.85
587.15	50523.39
587.34	58109.07
587.54	61664.34
587.73	54072.52
587.93	39255.46
588.12	29767.23
588.31	24856.20
588.51	22242.99
588.70	20666.05
588.89	18073.32
589.09	15339.29
589.28	13348.66
589.47	10506.08
589.67	7901.06
589.86	6260.64
590.06	4984.76
590.25	4437.95
590.44	3893.19
590.64	3590.09
590.83	3731.40
591.02	3645.38
591.22	3209.17
591.41	3272.65
591.60	3461.07
591.80	3940.29
591.99	3004.37
592.18	3231.69
592.38	3512.27
592.57	3348.43
592.76	3246.03
592.96	3250.13
593.15	3403.72
593.34	3676.10
593.54	3168.21
593.73	3297.23
593.92	3616.71
594.12	3555.27
594.31	3237.84
594.50	3346.38
594.70	3540.94
594.89	3997.64
595.08	3147.73
595.28	3356.62
595.47	4126.66
595.66	3692.49
595.86	3172.30
596.05	3094.48
596.24	3360.72
596.43	3819.46
596.63	3256.27
596.82	3327.95
597.01	3600.33
597.21	3807.17
597.40	3203.02
597.59	3176.40
597.79	3436.49
597.98	3540.94
598.17	3233.74
598.36	3289.04
598.56	3581.90
598.75	3286.99
598.94	3305.42
599.14	3231.69
599.33	3327.95
599.52	3616.71
599.71	3272.65
599.91	3160.02
600.10	3590.09
600.29	3475.40
600.48	3278.80
600.68	3286.99
600.87	3524.55
601.06	3241.93
601.26	3319.76
601.45	3385.29
601.64	3401.68
601.83	3731.40
602.03	3065.81
602.22	3059.67
602.41	3657.67
602.60	4011.97
602.80	3205.07
602.99	3336.14
603.18	3291.09
603.37	3446.73
603.57	3008.47
603.76	3170.26
603.95	3782.60
604.14	3387.34
604.34	3108.82
604.53	3151.82
604.72	3495.88
604.91	3631.05
605.10	3172.30
605.30	3065.81
605.49	3960.77
605.68	3555.27
605.87	3147.73
606.07	3094.48
606.26	3450.83
606.45	3444.68
606.64	3205.07
606.84	3057.62
607.03	3389.39
607.22	3690.44
607.41	3174.35
607.60	3180.50
607.80	3672.01
607.99	3401.68
608.18	3188.69
608.37	3334.09
608.56	3246.03
608.76	3702.73
608.95	3387.34
609.14	3176.40
609.33	3629.00
609.52	3758.02
609.72	3221.45
609.91	3248.08
610.10	3499.98
610.29	3700.68
610.48	3254.22
610.68	3258.32
610.87	3377.10
611.06	3631.05
611.25	3119.06
611.44	3315.66
611.63	3303.37
611.83	3629.00
612.02	3041.23
612.21	3207.12
612.40	3039.19
612.59	3239.89
612.79	3098.58
612.98	3336.14
613.17	3860.42
613.36	3411.92
613.55	3348.43
613.74	3145.68
613.93	3340.24
614.13	3557.32
614.32	3387.34
614.51	3215.31
614.70	3428.30
614.89	3327.95
615.08	3342.28
615.28	3491.79
615.47	3284.94
615.66	3483.59
615.85	3155.92
616.04	3280.85
616.23	3442.64
616.42	3409.87
616.62	3088.34
616.81	3178.45
617.00	3487.69
617.19	3536.84
617.38	3147.73
617.57	3338.19
617.76	3575.75
617.95	3622.86
618.15	3418.06
618.34	3428.30
618.53	3162.06
618.72	3704.78
618.91	3223.50
619.10	3205.07
619.29	3475.40
619.48	3350.48
619.68	3069.91
619.87	3176.40
620.06	3174.35
620.25	3604.42
620.44	3104.72
620.63	3151.82
620.82	3375.05
621.01	3469.26
621.20	3246.03
621.39	3299.28
621.59	3512.27
621.78	3364.81
621.97	3235.79
622.16	3282.89
622.35	3510.22
622.54	3665.86
622.73	3182.54
622.92	2979.79
623.11	3647.43
623.30	3395.53
623.49	3321.81
623.68	3028.95
623.88	3776.45
624.07	3268.56
624.26	3137.49
624.45	3184.59
624.64	3436.49
624.83	3567.56
625.02	3114.96
625.21	3274.70
625.40	3493.83
625.59	3749.83
625.78	3246.03
625.97	3207.12
626.16	3669.96
626.35	3706.82
626.54	3168.21
626.74	3348.43
626.93	3293.13
627.12	3379.15
627.31	3211.22
627.50	3291.09
627.69	3688.39
627.88	3233.74
628.07	3143.63
628.26	3024.85
628.45	3289.04
628.64	3246.03
628.83	3198.93
629.02	3076.05
629.21	3565.51
629.40	3483.59
629.59	3112.91
629.78	3184.59
629.97	3452.88
630.16	3375.05
630.35	3135.44
630.54	3332.05
630.73	3330.00
630.92	3409.87
631.11	3078.10
631.30	3213.26
631.49	3692.49
631.68	3454.92
631.87	3246.03
632.06	3119.06
632.25	3921.86
632.44	3450.83
632.63	3272.65
632.82	3184.59
633.01	3219.41
633.20	3530.70
633.39	3190.74
633.58	3004.37
633.77	3608.52
633.96	3489.74
634.15	3254.22
634.34	3262.41
634.53	3446.73
634.72	3274.70
634.91	3059.67
635.10	3117.01
635.29	3549.13
635.48	3471.31
635.67	3106.77
635.86	2987.99
636.05	3862.47
636.24	3393.48
636.43	3211.22
636.62	3301.33
636.81	2967.51
637.00	3450.83
637.19	3119.06
637.38	3246.03
637.57	3422.16
637.76	3309.52
637.95	3309.52
638.14	3305.42
638.33	3483.59
638.52	3436.49
638.71	3008.47
638.89	3092.43
639.08	4024.26
639.27	3608.52
639.46	3315.66
639.65	3657.67
639.84	3860.42
640.03	4057.03
640.22	3600.33
640.41	3524.55
640.60	3471.31
640.79	3688.39
640.98	3416.01
641.17	3375.05
641.36	3680.20
641.55	3647.43
641.74	3041.23
641.92	3090.38
642.11	3262.41
642.30	3362.76
642.49	3098.58
642.68	3106.77
642.87	3510.22
643.06	3629.00
643.25	3084.24
643.44	3028.95
643.63	3413.96
643.82	3557.32
644.00	3024.85
644.19	3164.11
644.38	3164.11
644.57	3592.14
644.76	3170.26
644.95	3348.43
645.14	3549.13
645.33	3434.44
645.52	3260.37
645.71	3078.10
645.89	3264.46
646.08	3360.72
646.27	3176.40
646.46	3381.20
646.65	3209.17
646.84	3540.94
647.03	3057.62
647.22	3241.93
647.40	3471.31
647.59	3344.33
647.78	2975.70
647.97	3229.65
648.16	3207.12
648.35	3723.21
648.54	3450.83
648.73	3127.25
648.91	3661.77
649.10	3487.69
649.29	3139.54
649.48	3147.73
649.67	3538.89
649.86	3473.36
650.05	3205.07
650.23	3360.72
650.42	3340.24
650.61	3643.34
650.80	3399.63
650.99	3440.59
651.18	3631.05
651.36	3624.90
651.55	3114.96
651.74	3344.33
651.93	3422.16
652.12	3422.16
652.31	3188.69
652.49	3239.89
652.68	3293.13
652.87	3749.83
653.06	3373.00
653.25	3475.40
653.44	3424.20
653.62	3780.55
653.81	3258.32
654.00	3262.41
654.19	3608.52
654.38	4018.11
654.56	3286.99
654.75	3153.87
654.94	3631.05
655.13	3463.12
655.32	3225.55
655.51	3225.55
655.69	3346.38
655.88	3569.61
656.07	3018.71
656.26	3207.12
656.45	3086.29
656.63	3381.20
656.82	3188.69
657.01	3450.83
657.20	3321.81
657.38	3786.69
657.57	3100.62
657.76	3121.10
657.95	3557.32
658.14	3297.23
658.32	3360.72
658.51	3010.51
658.70	3516.36
658.89	3418.06
659.08	3248.08
659.26	3403.72
659.45	3176.40
659.64	3569.61
659.83	3174.35
660.01	3569.61
660.20	3491.79
660.39	3721.16
660.58	2840.53
660.76	3237.84
660.95	3166.16
661.14	3512.27
661.33	3035.09
661.51	3291.09
661.70	3405.77
661.89	3553.23
662.08	3301.33
662.26	3008.47
662.45	3229.65
662.64	3882.95
662.83	3297.23
663.01	3188.69
663.20	3368.91
663.39	3831.75
663.58	3139.54
663.76	3074.00
663.95	3588.04
664.14	3190.74
664.32	3303.37
664.51	3028.95
664.70	3053.52
664.89	3465.16
665.07	3047.38
665.26	3213.26
665.45	3143.63
665.64	3534.79
665.82	3174.35
666.01	3338.19
666.20	3164.11
666.38	3655.62
666.57	3481.55
666.76	5728.17
666.95	12871.48
667.13	19042.01
667.32	22478.50
667.51	25280.13
667.69	25773.69
667.88	21055.17
668.07	15662.86
668.25	13371.19
668.44	11738.96
668.63	10135.40
668.81	8988.53
669.00	7856.01
669.19	7247.76
669.38	6268.83
669.56	5324.72
669.75	4736.95
669.94	4405.18
670.12	3741.64
670.31	3440.59
670.50	3385.29
670.68	3651.53
670.87	3504.07
671.06	3151.82
671.24	3307.47
671.43	3739.59
671.62	3416.01
671.80	3143.63
671.99	3305.42
672.18	3397.58
672.36	3598.28
672.55	3307.47
672.74	3241.93
672.92	3368.91
673.11	3592.14
673.29	3057.62
673.48	3377.10
673.67	3315.66
673.85	3698.63
674.04	3135.44
674.23	3319.76
674.41	3815.37
674.60	3229.65
674.79	2963.41
674.97	3059.67
675.16	3590.09
675.34	3592.14
675.53	3215.31
675.72	3221.45
675.90	3874.76
676.09	3346.38
676.28	3213.26
676.46	3000.27
676.65	3610.57
676.83	3258.32
677.02	3213.26
677.21	3297.23
677.39	3516.36
677.58	3289.04
677.77	3164.11
677.95	3139.54
678.14	3430.35
678.32	3370.96
678.51	3254.22
678.70	3598.28
678.88	3297.23
679.07	3485.64
679.25	3231.69
679.44	3237.84
679.63	3250.13
679.81	3499.98
680.00	3479.50
680.18	3272.65
680.37	3688.39
680.55	3477.45
680.74	3026.90
680.93	2944.98
681.11	3549.13
681.30	3405.77
681.48	3248.08
681.67	3192.78
681.85	3518.41
682.04	3268.56
682.23	3373.00
682.41	3426.25
682.60	3364.81
682.78	3397.58
682.97	3045.33
683.15	3246.03
683.34	3459.02
683.53	3758.02
683.71	3047.38
683.90	3196.88
684.08	3885.00
684.27	3330.00
684.45	3266.51
684.64	3383.24
684.82	3463.12
685.01	3649.48
685.19	3188.69
685.38	3497.93
685.57	3489.74
685.75	3348.43
685.94	3168.21
686.12	3194.83
686.31	3418.06
686.49	3835.85
686.68	3076.05
686.86	3123.15
687.05	3338.19
687.23	3745.73
687.42	3209.17
687.60	3049.43
687.79	3680.20
687.97	3801.03
688.16	3405.77
688.34	3368.91
688.53	3047.38
688.71	3606.47
688.90	3499.98
689.08	3254.22
689.27	3057.62
689.45	3657.67
689.64	3354.57
689.82	3252.17
690.01	3438.54
690.19	3524.55
690.38	3237.84
690.56	3309.52
690.75	3172.30
690.93	3276.75
691.12	3051.47
691.30	3327.95
691.49	3262.41
691.67	3354.57
691.86	3551.18
692.04	3229.65
692.23	3368.91
692.41	3344.33
692.60	3538.89
692.78	3338.19
692.97	3409.87
693.15	3491.79
693.34	3409.87
693.52	3483.59
693.71	3373.00
693.89	3409.87
694.08	3059.67
694.26	3223.50
694.44	3571.66
694.63	3575.75
694.81	3067.86
695.00	3170.26
695.18	3729.35
695.37	4073.41
695.55	3385.29
695.74	3280.85
695.92	3301.33
696.10	3737.54
696.29	3076.05
696.47	3172.30
696.66	3223.50
696.84	3282.89
697.03	3278.80
697.21	3454.92
697.40	4761.53
697.58	3663.82
697.76	3219.41
697.95	3211.22
698.13	3237.84
698.32	3389.39
698.50	3133.39
698.68	3254.22
698.87	3528.65
699.05	3772.36
699.24	3174.35
699.42	3203.02
699.61	3405.77
699.79	3409.87
699.97	3141.58
700.16	3026.90
700.34	3194.83
700.53	3411.92
700.71	3379.15
700.89	3360.72
701.08	3405.77
701.26	3467.21
701.45	3561.42
701.63	3229.65
701.81	3352.52
702.00	3194.83
702.18	3262.41
702.37	3155.92
702.55	3723.21
702.73	3516.36
702.92	3172.30
703.10	3426.25
703.28	3561.42
703.47	3184.59
703.65	3381.20
703.84	3278.80
704.02	3260.37
704.20	3743.69
704.39	3221.45
704.57	3186.64
704.75	3551.18
704.94	3456.97
705.12	3385.29
705.30	4024.26
705.49	8236.93
705.67	14743.33
705.86	19396.31
706.04	21468.86
706.22	24108.69
706.41	22615.72
706.59	16561.92
706.77	13553.46
706.96	11818.83
707.14	11190.10
707.32	9412.46
707.51	8390.53
707.69	6780.82
707.87	5846.95
708.06	4761.53
708.24	4270.01
708.42	4126.66
708.61	4304.83
708.79	3340.24
708.97	3446.73
709.16	3559.37
709.34	3403.72
709.52	3248.08
709.71	3301.33
709.89	3563.47
710.07	3211.22
710.26	3106.77
710.44	3207.12
710.62	3649.48
710.80	3401.68
710.99	3286.99
711.17	3303.37
711.35	3254.22
711.54	3311.57
711.72	3295.18
711.90	3264.46
712.09	3448.78
712.27	3321.81
712.45	3338.19
712.63	3145.68
712.82	3508.17
713.00	3362.76
713.18	3289.04
713.37	3430.35
713.55	3647.43
713.73	3585.99
713.91	3340.24
714.10	3229.65
714.28	3510.22
714.46	3448.78
714.65	3293.13
714.83	3270.61
715.01	3463.12
715.19	3401.68
715.38	3110.86
715.56	3280.85
715.74	3215.31
715.92	3313.61
716.11	3573.71
716.29	2990.03
716.47	3395.53
716.65	3444.68
716.84	3041.23
717.02	3321.81
717.20	3059.67
717.38	3256.27
717.57	3319.76
717.75	3223.50
717.93	3370.96
718.11	3631.05
718.30	3074.00
718.48	3295.18
718.66	3682.25
718.84	3649.48
719.03	3286.99
719.21	3026.90
719.39	3733.45
719.57	3504.07
719.75	3246.03
719.94	3067.86
720.12	3336.14
720.30	3444.68
720.48	3256.27
720.67	3188.69
720.85	3162.06
721.03	3313.61
721.21	3180.50
721.39	3313.61
721.58	3577.80
721.76	3393.48
721.94	3184.59
722.12	3270.61
722.30	3780.55
722.49	3352.52
722.67	3252.17
722.85	3305.42
723.03	3149.78
723.21	3377.10
723.40	3297.23
723.58	3354.57
723.76	3602.38
723.94	3741.64
724.12	3203.02
724.30	3454.92
724.49	3690.44
724.67	3291.09
724.85	3252.17
725.03	3172.30
725.21	3536.84
725.40	3649.48
725.58	3248.08
725.76	3422.16
725.94	3477.45
726.12	3278.80
726.30	3286.99
726.49	3117.01
726.67	3352.52
726.85	3522.51
727.03	3962.82
727.21	4876.21
727.39	6195.11
727.57	6475.68
727.76	6735.77
727.94	6621.08
728.12	5883.81
728.30	4974.52
728.48	4691.90
728.66	4503.48
728.84	4427.71
729.03	3946.44
729.21	3704.78
729.39	3577.80
729.57	3442.64
729.75	3436.49
729.93	3489.74
730.11	3119.06
730.30	3362.76
730.48	3305.42
730.66	3256.27
730.84	3330.00
731.02	3405.77
731.20	3389.39
731.38	3266.51
731.56	3018.71
731.74	3176.40
731.93	3479.50
732.11	3409.87
732.29	3192.78
732.47	3549.13
732.65	3459.02
732.83	3383.24
733.01	3338.19
733.19	3422.16
733.37	3532.75
733.56	3190.74
733.74	3074.00
733.92	3690.44
734.10	3327.95
734.28	3358.67
734.46	3014.61
734.64	3379.15
734.82	3403.72
735.00	3209.17
735.18	3203.02
735.36	3448.78
735.54	3418.06
735.73	3123.15
735.91	3428.30
736.09	3837.89
736.27	3432.40
736.45	3219.41
736.63	2953.17
736.81	3418.06
736.99	3641.29
737.17	3383.24
737.35	3117.01
737.53	3448.78
737.71	3327.95
737.89	3407.82
738.07	3135.44
738.25	3235.79
738.43	3125.20
738.61	3188.69
738.80	3147.73
738.98	3213.26
739.16	3262.41
739.34	3250.13
739.52	3520.46
739.70	3426.25
739.88	3491.79
740.06	3270.61
740.24	2953.17
740.42	3708.87
740.60	3057.62
740.78	3155.92
740.96	2967.51
741.14	3432.40
741.32	3499.98
741.50	2955.22
741.68	3438.54
741.86	3721.16
742.04	3205.07
742.22	3129.30
742.40	3254.22
742.58	3467.21
742.76	3254.22
742.94	3545.03
743.12	3012.56
743.30	3502.03
743.48	3643.34
743.66	3129.30
743.84	3262.41
744.02	3393.48
744.20	3420.11
744.38	3078.10
744.56	3227.60
744.74	3766.21
744.92	3524.55
745.10	3450.83
745.28	3227.60
745.46	3762.12
745.64	3416.01
745.82	3295.18
746.00	3194.83
746.18	3571.66
746.36	3282.89
746.54	3266.51
746.72	3213.26
746.90	3282.89
747.08	3786.69
747.26	3213.26
747.44	3362.76
747.62	3536.84
747.80	3557.32
747.98	3344.33
748.15	3205.07
748.33	3852.23
748.51	3481.55
748.69	3311.57
748.87	3096.53
749.05	3430.35
749.23	3442.64
749.41	3164.11
749.59	3166.16
749.77	3729.35
749.95	3354.57
750.13	3174.35
750.31	3364.81
750.49	3393.48
750.67	3635.14
750.85	3332.05
751.03	3229.65
751.20	3971.01
751.38	3379.15
751.56	3239.89
751.74	3170.26
751.92	3317.71
752.10	3170.26
752.28	3317.71
752.46	3117.01
752.64	3485.64
752.82	3459.02
753.00	3266.51
753.18	3184.59
753.35	3385.29
753.53	3454.92
753.71	3125.20
753.89	3205.07
754.07	3469.26
754.25	3682.25
754.43	3225.55
754.61	3192.78
754.79	3542.99
754.97	3403.72
755.14	3405.77
755.32	3131.34
755.50	3538.89
755.68	3526.60
755.86	3110.86
756.04	3155.92
756.22	3002.32
756.40	3655.62
756.57	3344.33
756.75	3194.83
756.93	3641.29
757.11	3690.44
757.29	3123.15
757.47	3090.38
757.65	3078.10
757.82	2979.79
758.00	3123.15
758.18	3166.16
758.36	3231.69
758.54	3827.65
758.72	3028.95
758.90	3276.75
759.07	3526.60
759.25	3231.69
759.43	3368.91
759.61	3022.80
759.79	4593.59
759.97	3637.19
760.15	3215.31
760.32	3254.22
760.50	3563.47
760.68	3762.12
760.86	3108.82
761.04	3418.06
761.22	3614.66
761.39	3432.40
761.57	3364.81
761.75	3237.84
761.93	3581.90
762.11	3356.62
762.28	3307.47
762.46	3098.58
762.64	3629.00
762.82	3071.95
763.00	3178.45
763.18	3461.07
763.35	3143.63
763.53	3655.62
763.71	3268.56
763.89	3155.92
764.07	3407.82
764.24	3428.30
764.42	3379.15
764.60	3231.69
764.78	3567.56
764.96	3590.09
765.13	3346.38
765.31	3067.86
765.49	3588.04
765.67	3200.98
765.84	3170.26
766.02	3086.29
766.20	3135.44
766.38	3426.25
766.56	3254.22
766.73	3233.74
766.91	3405.77
767.09	3442.64
767.27	3145.68
767.44	3114.96
767.62	3577.80
767.80	3485.64
767.98	3108.82
768.15	3160.02
768.33	3602.38
768.51	3624.90
768.69	3424.20
768.87	3149.78
769.04	3461.07
769.22	4011.97
769.40	3358.67
769.58	3280.85
769.75	3573.71
769.93	3737.54
770.11	3149.78
770.28	3041.23
770.46	3680.20
770.64	3448.78
770.82	3182.54
770.99	3082.19
771.17	3598.28
771.35	3352.52
771.53	3272.65
771.70	3135.44
771.88	3532.75
772.06	3303.37
772.23	3217.36
772.41	3227.60
772.59	3411.92
772.77	3196.88
772.94	3213.26
773.12	3256.27
773.30	3336.14
773.47	3444.68
773.65	3106.77
773.83	3409.87
774.01	3444.68
774.18	3067.86
774.36	3301.33
774.54	3061.71
774.71	3469.26
774.89	3166.16
775.07	3018.71
775.24	3192.78
775.42	3356.62
775.60	3827.65
775.78	3139.54
775.95	3053.52
776.13	3086.29
776.31	3157.97
776.48	3416.01
776.66	3413.96
776.84	3409.87
777.01	3198.93
777.19	3117.01
777.37	3123.15
777.54	3618.76
777.72	3936.20
777.90	3334.09
778.07	3192.78
778.25	4106.18
778.43	3649.48
778.60	3100.62
778.78	3330.00
778.96	3631.05
779.13	3149.78
779.31	3155.92
779.49	3268.56
779.66	3438.54
779.84	3377.10
780.01	3135.44
780.19	3106.77
780.37	3715.02
780.54	3491.79
780.72	2992.08
780.90	3143.63
781.07	3416.01
781.25	3336.14
781.43	3385.29
781.60	3190.74
781.78	3721.16
781.95	3434.44
782.13	3198.93
782.31	3155.92
782.48	3098.58
782.66	3413.96
782.83	3411.92
783.01	3325.90
783.19	3573.71
783.36	3373.00
783.54	3155.92
783.72	3237.84
783.89	3375.05
784.07	3448.78
784.24	3303.37
784.42	3334.09
784.60	3504.07
784.77	3469.26
784.95	2940.88
785.12	3200.98
785.30	3440.59
785.47	3291.09
785.65	3117.01
785.83	3284.94
786.00	3368.91
786.18	3434.44
786.35	3166.16
786.53	3096.53
786.71	3684.30
786.88	3524.55
787.06	3356.62
787.23	3254.22
787.41	3164.11
787.58	3422.16
787.76	3131.34
787.94	3286.99
788.11	3467.21
788.29	3139.54
788.46	3131.34
788.64	3018.71
788.81	3342.28
788.99	3106.77
789.16	3143.63
789.34	3147.73
789.52	3428.30
789.69	3336.14
789.87	3043.28
790.04	3225.55
790.22	3403.72
790.39	3846.09
790.57	3078.10
790.74	3121.10
790.92	3755.97
791.09	3096.53
791.27	3250.13
791.44	3153.87
791.62	3368.91
791.79	3624.90
791.97	3246.03
792.15	3540.94
792.32	3592.14
792.50	3565.51
792.67	3393.48
792.85	3475.40
793.02	3614.66
793.20	3360.72
793.37	2961.36
793.55	3129.30
793.72	3135.44
793.90	3598.28
794.07	3155.92
794.25	3041.23
794.42	3526.60
794.60	3450.83
794.77	3170.26
794.95	3413.96
795.12	3641.29
795.30	3352.52
795.47	2938.84
795.65	3532.75
795.82	3459.02
796.00	3196.88
796.17	3307.47
796.34	3114.96
796.52	3551.18
796.69	3606.47
796.87	3319.76
797.04	3280.85
797.22	3569.61
797.39	3409.87
797.57	3448.78
797.74	3282.89
797.92	3516.36
798.09	3356.62
798.27	3469.26
798.44	3121.10
798.62	3346.38
798.79	3508.17
798.96	3362.76
799.14	3153.87
799.31	3958.72
799.49	3379.15
799.66	3262.41
799.84	3225.55
800.01	3164.11
800.19	3467.21
800.36	2940.88
800.53	3194.83
800.71	3522.51
800.88	3704.78
801.06	3149.78
801.23	3090.38
801.41	3362.76
801.58	3327.95
801.75	3209.17
801.93	3278.80
802.10	3508.17
802.28	3344.33
802.45	3223.50
802.63	3291.09
802.80	3807.17
802.97	3266.51
803.15	3225.55
803.32	3164.11
803.50	3270.61
803.67	3270.61
803.84	3172.30
804.02	3321.81
804.19	3426.25
804.37	2934.74
804.54	3067.86
804.71	3194.83
804.89	3491.79
805.06	3239.89
805.24	3094.48
805.41	2985.94
805.58	3289.04
805.76	3977.16
805.93	3092.43
806.10	3338.19
806.28	3567.56
806.45	3467.21
806.63	3319.76
806.80	3262.41
806.97	3524.55
807.15	3377.10
807.32	3231.69
807.49	3157.97
807.67	3131.34
807.84	3549.13
808.01	2967.51
808.19	3399.63
808.36	3821.51
808.54	3338.19
808.71	3194.83
808.88	3225.55
809.06	3618.76
809.23	3727.30
809.40	3186.64
809.58	3168.21
809.75	3360.72
809.92	3155.92
810.10	3418.06
810.27	3190.74
810.44	3540.94
810.62	3680.20
810.79	3213.26
810.96	3190.74
811.14	3368.91
811.31	3485.64
811.48	3319.76
811.66	3217.36
811.83	3659.72
812.00	3575.75
812.18	3282.89
812.35	3557.32
812.52	3330.00
812.69	3348.43
812.87	3135.44
813.04	3125.20
813.21	3403.72
813.39	3250.13
813.56	3074.00
813.73	3477.45
813.91	3063.76
814.08	3469.26
814.25	3172.30
814.42	3049.43
814.60	3368.91
814.77	3442.64
814.94	3198.93
815.12	3321.81
815.29	3770.31
815.46	3323.85
815.63	3250.13
815.81	3176.40
815.98	3383.24
816.15	3459.02
816.33	3278.80
816.50	3237.84
816.67	3450.83
816.84	3389.39
817.02	3088.34
817.19	3278.80
817.36	3483.59
817.53	3569.61
817.71	3061.71
817.88	3246.03
818.05	3327.95
818.22	3428.30
818.40	3348.43
818.57	3157.97
818.74	3459.02
818.91	3315.66
819.09	3379.15
819.26	3299.28
819.43	3256.27
819.60	3219.41
819.78	3409.87
819.95	3203.02
820.12	3143.63
820.29	3755.97
820.47	3491.79
820.64	3133.39
820.81	3168.21
820.98	3284.94
821.15	3223.50
821.33	3442.64
821.50	3155.92
821.67	3583.95
821.84	3139.54
822.02	3182.54
822.19	3542.99
822.36	3303.37
822.53	3110.86
822.70	3033.04
822.88	3340.24
823.05	3790.79
823.22	3260.37
823.39	3233.74
823.56	3307.47
823.74	3860.42
823.91	3082.19
824.08	3098.58
824.25	3235.79
824.42	3747.78
824.60	3047.38
824.77	3303.37
824.94	3446.73
825.11	3499.98
825.28	3016.66
825.45	3405.77
825.63	3487.69
825.80	3282.89
825.97	3182.54
826.14	3286.99
826.31	3117.01
826.48	3565.51
826.66	3162.06
826.83	3141.58
827.00	3358.67
827.17	3221.45
827.34	3198.93
827.51	3088.34
827.69	3409.87
827.86	3102.67
828.03	3229.65
828.20	3227.60
828.37	3260.37
828.54	3528.65
828.71	3106.77
828.89	3264.46
829.06	3442.64
829.23	3758.02
829.40	3213.26
829.57	3151.82
829.74	3592.14
829.91	3293.13
830.09	3135.44
830.26	3356.62
830.43	3794.89
830.60	3362.76
830.77	3303.37
830.94	3399.63
831.11	3604.42
831.28	3330.00
831.46	3248.08
831.63	3188.69
831.80	3626.95
831.97	3229.65
832.14	3307.47
832.31	3174.35
832.48	3450.83
832.65	3604.42
832.82	3354.57
832.99	3276.75
833.17	3266.51
833.34	3700.68
833.51	3147.73
833.68	3004.37
833.85	3661.77
834.02	3262.41
834.19	3155.92
834.36	3196.88
834.53	3440.59
834.70	3585.99
834.87	3231.69
835.04	2944.98
835.22	3276.75
835.39	3307.47
835.56	3016.66
835.73	3057.62
835.90	3721.16
836.07	3174.35
836.24	3178.45
836.41	3016.66
836.58	3284.94
836.75	3651.53
836.92	3051.47
837.09	2887.64
837.26	3504.07
837.43	3575.75
837.60	3100.62
837.77	3033.04
837.94	3549.13
838.12	3657.67
838.29	2932.69
838.46	2901.97
838.63	3139.54
838.80	3772.36
838.97	2992.08
839.14	2920.40
839.31	3504.07
839.48	3467.21
839.65	2959.31
839.82	3100.62
839.99	3493.83
840.16	3469.26
840.33	2899.92
840.50	2994.13
840.67	3364.81
840.84	3067.86
841.01	2994.13
841.18	3000.27
841.35	3450.83
841.52	3475.40
841.69	3346.38
841.86	3057.62
842.03	3391.44
842.20	3592.14
842.37	3014.61
842.54	3092.43
842.71	3436.49
842.88	3102.67
843.05	3076.05
843.22	3041.23
843.39	3559.37
843.56	3313.61
843.73	3065.81
843.90	3061.71
844.07	3405.77
844.24	3557.32
844.41	3049.43
844.58	3024.85
844.75	3473.36
844.92	3606.47
845.09	3051.47
845.26	3053.52
845.43	3594.19
845.60	3307.47
845.77	3184.59
845.94	3141.58
846.10	3631.05
846.27	3110.86
846.44	2901.97
846.61	2865.11
846.78	3504.07
846.95	3706.82
847.12	2975.70
847.29	3039.19
847.46	3229.65
847.63	3524.55
847.80	2867.16
847.97	3067.86
848.14	3854.28
848.31	3389.39
848.48	2885.59
848.65	2893.78
848.82	3252.17
848.98	3981.25
849.15	3117.01
849.32	3164.11
849.49	3680.20
849.66	3448.78
849.83	2987.99
850.00	2895.83
850.17	3540.94
850.34	3325.90
850.51	2971.60
850.68	3053.52
850.85	3817.41
851.01	3516.36
851.18	2910.16
851.35	3012.56
851.52	3504.07
851.69	3721.16
851.86	2951.12
852.03	3043.28
852.20	3524.55
852.37	3450.83
852.53	2873.30
852.70	2965.46
852.87	3444.68
853.04	3641.29
853.21	2983.89
853.38	3291.09
853.55	3747.78
853.72	3667.91
853.89	2887.64
854.05	3057.62
854.22	3438.54
854.39	3313.61
854.56	3024.85
854.73	3147.73
854.90	3354.57
855.07	3364.81
855.23	2879.44
855.40	2910.16
855.57	3373.00
855.74	2912.21
855.91	3182.54
856.08	2838.48
856.25	3092.43
856.41	3327.95
856.58	3045.33
856.75	3051.47
856.92	3094.48
857.09	3590.09
857.26	2838.48
857.42	3076.05
857.59	3542.99
857.76	3340.24
857.93	3051.47
858.10	3074.00
858.27	3256.27
858.43	3452.88
858.60	3071.95
858.77	2918.36
858.94	3311.57
859.11	3649.48
859.27	3196.88
859.44	2947.03
859.61	3801.03
859.78	3602.38
859.95	2983.89
860.12	2928.60
860.28	3979.20
860.45	3885.00
860.62	2910.16
860.79	3102.67
860.95	3366.86
861.12	3272.65
861.29	2930.64
861.46	3045.33
861.63	3479.50
861.79	3536.84
861.96	2914.26
862.13	2977.75
862.30	3647.43
862.47	3340.24
862.63	2867.16
862.80	3002.32
862.97	3647.43
863.14	3499.98
863.30	3096.53
863.47	2930.64
863.64	3751.88
863.81	3479.50
863.97	2824.15
864.14	3043.28
864.31	3426.25
864.48	3426.25
864.65	2985.94
864.81	3180.50
864.98	3553.23
865.15	3684.30
865.32	3076.05
865.48	3133.39
865.65	3813.32
865.82	3295.18
865.98	3135.44
866.15	3000.27
866.32	3452.88
866.49	3311.57
866.65	3045.33
866.82	3037.14
866.99	3426.25
867.16	3262.41
867.32	3033.04
867.49	2979.79
867.66	3346.38
867.83	3364.81
867.99	2889.68
868.16	3041.23
868.33	3135.44
868.49	3471.31
868.66	3078.10
868.83	3110.86
868.99	3360.72
869.16	3430.35
869.33	3207.12
869.50	3155.92
869.66	3450.83
869.83	3516.36
870.00	2928.60
870.16	3172.30
870.33	3407.82
870.50	3581.90
870.66	3164.11
870.83	3057.62
871.00	3391.44
871.17	3469.26
871.33	3086.29
871.50	2987.99
871.67	3418.06
871.83	3121.10
872.00	3082.19
872.17	3016.66
872.33	3856.33
872.50	3692.49
872.67	3059.67
872.83	3018.71
873.00	3532.75
873.17	3440.59
873.33	3020.75
873.50	3033.04
873.67	3340.24
873.83	3254.22
874.00	3106.77
874.16	3139.54
874.33	3401.68
874.50	3119.06
874.66	2908.12
874.83	3082.19
875.00	3643.34
875.16	3694.54
875.33	3076.05
875.50	2805.72
875.66	3327.95
875.83	3495.88
875.99	3065.81
876.16	3100.62
876.33	3205.07
876.49	3391.44
876.66	3074.00
876.83	3026.90
876.99	3057.62
877.16	3344.33
877.32	2985.94
877.49	3155.92
877.66	3489.74
877.82	3794.89
877.99	3112.91
878.15	3360.72
878.32	3454.92
878.49	3450.83
878.65	3094.48
878.82	3315.66
878.98	3266.51
879.15	3647.43
879.32	3252.17
879.48	3278.80
879.65	3463.12
879.81	3254.22
879.98	3024.85
880.15	3133.39
880.31	3583.95
880.48	3274.70
880.64	3164.11
880.81	3227.60
880.97	3665.86
881.14	3667.91
881.31	2934.74
881.47	3168.21
881.64	3307.47
881.80	3043.28
881.97	3196.88
882.13	3071.95
882.30	3172.30
882.47	3260.37
882.63	2994.13
882.80	2938.84
882.96	3327.95
883.13	3643.34
883.29	3074.00
883.46	3030.99
883.62	3876.80
883.79	3510.22
883.95	3250.13
884.12	2994.13
884.29	3651.53
884.45	3467.21
884.62	3043.28
884.78	2979.79
884.95	3774.41
885.11	3258.32
885.28	3147.73
885.44	3092.43
885.61	3577.80
885.77	3706.82
885.94	3155.92
886.10	3094.48
886.27	3420.11
886.43	3817.41
886.60	3325.90
886.76	3061.71
886.93	3131.34
887.09	3491.79
887.26	2899.92
887.42	3135.44
887.59	3698.63
887.75	3917.76
887.92	3155.92
888.08	3205.07
888.25	3790.79
888.41	3665.86
888.58	3168.21
888.74	2996.18
888.91	3368.91
>>>>>End Processed Spectral Data<<<<<
