SpectraSuite Data File
++++++++++++++++++++++++++++++++++++
Date: Fri May 06 09:28:33 CEST 2016
User: root
Dark Spectrum Present: No
Reference Spectrum Present: No
Number of Sampled Component Spectra: 1
Spectrometers: USB4C02835
Integration Time (usec): 100000 (USB4C02835)
Spectra Averaged: 1 (USB4C02835)
Boxcar Smoothing: 0 (USB4C02835)
Correct for Electrical Dark: No (USB4C02835)
Strobe/Lamp Enabled: No (USB4C02835)
Correct for Detector Non-linearity: No (USB4C02835)
Correct for Stray Light: No (USB4C02835)
Number of Pixels in Processed Spectrum: 3648
>>>>>Begin Processed Spectral Data<<<<<
177.47	2392.03
177.69	2392.03
177.91	2392.03
178.13	2357.21
178.36	2310.11
178.58	3104.72
178.80	3289.04
179.02	3176.40
179.24	3248.08
179.46	2885.59
179.68	2918.36
179.90	3311.57
180.13	3483.59
180.35	2731.99
180.57	2912.21
180.79	3545.03
181.01	3567.56
181.23	3012.56
181.45	3131.34
181.67	3590.09
181.90	3608.52
182.12	3102.67
182.34	2891.73
182.56	3618.76
182.78	3542.99
183.00	2836.44
183.22	2985.94
183.44	3078.10
183.66	4194.24
183.89	3061.71
184.11	2951.12
184.33	3692.49
184.55	3717.06
184.77	2961.36
184.99	3008.47
185.21	3313.61
185.43	4016.07
185.65	2959.31
185.87	2824.15
186.10	3913.67
186.32	4038.59
186.54	3074.00
186.76	3071.95
186.98	3674.06
187.20	3360.72
187.42	3018.71
187.64	2947.03
187.86	3553.23
188.08	3618.76
188.30	2881.49
188.52	2951.12
188.75	3819.46
188.97	3655.62
189.19	2990.03
189.41	2891.73
189.63	3596.23
189.85	3325.90
190.07	2832.34
190.29	2791.38
190.51	3549.13
190.73	3223.50
190.95	3225.55
191.17	3008.47
191.39	3026.90
191.61	3389.39
191.84	3049.43
192.06	3078.10
192.28	3045.33
192.50	4018.11
192.72	3141.58
192.94	3055.57
193.16	3688.39
193.38	3561.42
193.60	2838.48
193.82	3155.92
194.04	3669.96
194.26	3502.03
194.48	2987.99
194.70	2940.88
194.92	3348.43
195.14	3663.82
195.36	2887.64
195.58	3030.99
195.80	3497.93
196.02	3262.41
196.24	2908.12
196.46	3026.90
196.69	3289.04
196.91	3987.40
197.13	2951.12
197.35	3090.38
197.57	3860.42
197.79	3643.34
198.01	3061.71
198.23	2920.40
198.45	3540.94
198.67	3260.37
198.89	2758.61
199.11	3090.38
199.33	3252.17
199.55	3033.04
199.77	2877.40
199.99	3108.82
200.21	3340.24
200.43	3612.62
200.65	2881.49
200.87	2795.48
201.09	3393.48
201.31	3389.39
201.53	3035.09
201.75	3035.09
201.97	3553.23
202.19	3420.11
202.41	3057.62
202.63	3074.00
202.85	3534.79
203.07	3442.64
203.29	3108.82
203.51	2842.58
203.73	3307.47
203.95	4026.31
204.17	2959.31
204.39	3092.43
204.61	3409.87
204.83	3409.87
205.05	3221.45
205.27	3047.38
205.49	4044.74
205.71	3409.87
205.93	2889.68
206.15	2854.87
206.37	3493.83
206.59	3452.88
206.81	2822.10
207.03	2838.48
207.25	3229.65
207.47	3639.24
207.69	2955.22
207.91	3217.36
208.13	3882.95
208.34	3381.20
208.56	2918.36
208.78	3028.95
209.00	3360.72
209.22	3442.64
209.44	2963.41
209.66	2961.36
209.88	3499.98
210.10	3389.39
210.32	2992.08
210.54	3067.86
210.76	3346.38
210.98	3667.91
211.20	2805.72
211.42	3082.19
211.64	3770.31
211.86	3551.18
212.08	3129.30
212.30	2928.60
212.52	3368.91
212.74	3481.55
212.96	3123.15
213.17	2987.99
213.39	3649.48
213.61	3827.65
213.83	2938.84
214.05	2869.20
214.27	3712.97
214.49	3131.34
214.71	2942.93
214.93	3117.01
215.15	3407.82
215.37	3704.78
215.59	2725.85
215.81	3037.14
216.03	3715.02
216.24	3516.36
216.46	2940.88
216.68	2992.08
216.90	3639.24
217.12	3614.66
217.34	2947.03
217.56	3123.15
217.78	3774.41
218.00	3635.14
218.22	3041.23
218.44	3055.57
218.66	3573.71
218.87	3831.75
219.09	2983.89
219.31	3069.91
219.53	3536.84
219.75	3358.67
219.97	3074.00
220.19	3100.62
220.41	3463.12
220.63	3796.93
220.85	2983.89
221.06	2961.36
221.28	3776.45
221.50	3688.39
221.72	2981.84
221.94	2844.63
222.16	3461.07
222.38	3598.28
222.60	2975.70
222.82	2996.18
223.03	3715.02
223.25	3205.07
223.47	2926.55
223.69	3211.22
223.91	3598.28
224.13	3426.25
224.35	2918.36
224.57	3160.02
224.78	3698.63
225.00	3280.85
225.22	3071.95
225.44	2858.96
225.66	3692.49
225.88	3370.96
226.10	3207.12
226.32	2951.12
226.53	3813.32
226.75	3364.81
226.97	3049.43
227.19	3043.28
227.41	3299.28
227.63	3323.85
227.85	2756.57
228.06	3065.81
228.28	3491.79
228.50	3624.90
228.72	2809.81
228.94	2861.01
229.16	3022.80
229.37	3219.41
229.59	2869.20
229.81	3241.93
230.03	3416.01
230.25	3174.35
230.47	2850.77
230.69	2998.23
230.90	3655.62
231.12	3319.76
231.34	3057.62
231.56	2967.51
231.78	3213.26
232.00	3545.03
232.21	3020.75
232.43	2940.88
232.65	2928.60
232.87	3598.28
233.09	2811.86
233.30	2912.21
233.52	3641.29
233.74	3450.83
233.96	2922.45
234.18	3203.02
234.40	3418.06
234.61	3983.30
234.83	2803.67
235.05	3018.71
235.27	4075.46
235.49	3667.91
235.70	2877.40
235.92	2955.22
236.14	3606.47
236.36	3987.40
236.58	2904.02
236.79	3082.19
237.01	3418.06
237.23	3422.16
237.45	3149.78
237.67	3049.43
237.88	3530.70
238.10	3893.19
238.32	2867.16
238.54	2889.68
238.76	3459.02
238.97	3172.30
239.19	2861.01
239.41	3020.75
239.63	3682.25
239.85	3289.04
240.06	2947.03
240.28	2910.16
240.50	3770.31
240.72	3448.78
240.93	2840.53
241.15	3086.29
241.37	3393.48
241.59	3737.54
241.81	2979.79
242.02	3000.27
242.24	3483.59
242.46	3647.43
242.68	2813.91
242.89	2930.64
243.11	3694.54
243.33	3368.91
243.55	2963.41
243.76	2983.89
243.98	3293.13
244.20	3475.40
244.42	2955.22
244.64	2947.03
244.85	3207.12
245.07	3196.88
245.29	3063.76
245.51	2963.41
245.72	3532.75
245.94	3606.47
246.16	2897.88
246.38	3037.14
246.59	3319.76
246.81	3196.88
247.03	2846.68
247.24	2877.40
247.46	3336.14
247.68	3459.02
247.90	2914.26
248.11	2967.51
248.33	3573.71
248.55	3454.92
248.77	2992.08
248.98	3082.19
249.20	3776.45
249.42	3483.59
249.64	2916.31
249.85	2955.22
250.07	3327.95
250.29	3651.53
250.50	2983.89
250.72	2879.44
250.94	3596.23
251.16	4048.83
251.37	2901.97
251.59	3004.37
251.81	3553.23
252.02	3837.89
252.24	2873.30
252.46	3108.82
252.68	3354.57
252.89	3264.46
253.11	2787.29
253.33	3141.58
253.54	3743.69
253.76	3166.16
253.98	3014.61
254.20	2914.26
254.41	3137.49
254.63	3416.01
254.85	2805.72
255.06	3131.34
255.28	3540.94
255.50	3389.39
255.71	2889.68
255.93	2826.20
256.15	3387.34
256.36	3614.66
256.58	2789.33
256.80	2904.02
257.02	3434.44
257.23	3354.57
257.45	3000.27
257.67	3100.62
257.88	3307.47
258.10	3483.59
258.32	2994.13
258.53	3094.48
258.75	3813.32
258.97	3239.89
259.18	2844.63
259.40	2934.74
259.62	3915.72
259.83	3798.98
260.05	2959.31
260.27	3925.96
260.48	3631.05
260.70	3307.47
260.92	2811.86
261.13	3028.95
261.35	3534.79
261.57	3549.13
261.78	2824.15
262.00	2854.87
262.22	3583.95
262.43	3248.08
262.65	3006.42
262.86	3000.27
263.08	4016.07
263.30	3540.94
263.51	2777.05
263.73	2885.59
263.95	3858.37
264.16	3207.12
264.38	2906.07
264.60	2869.20
264.81	3454.92
265.03	3688.39
265.25	3477.45
265.46	2908.12
265.68	3737.54
265.89	3684.30
266.11	2854.87
266.33	2910.16
266.54	3831.75
266.76	3563.47
266.98	3053.52
267.19	3151.82
267.41	3659.72
267.62	3379.15
267.84	2850.77
268.06	3035.09
268.27	3524.55
268.49	3663.82
268.70	3065.81
268.92	2934.74
269.14	3280.85
269.35	3209.17
269.57	3112.91
269.79	3049.43
270.00	3325.90
270.22	3801.03
270.43	2809.81
270.65	2838.48
270.87	3536.84
271.08	3581.90
271.30	3053.52
271.51	2967.51
271.73	3567.56
271.95	3704.78
272.16	2877.40
272.38	3098.58
272.59	3356.62
272.81	3444.68
273.02	2889.68
273.24	3022.80
273.46	3721.16
273.67	3225.55
273.89	2889.68
274.10	2942.93
274.32	3753.93
274.54	3487.69
274.75	3106.77
274.97	3067.86
275.18	3573.71
275.40	3561.42
275.61	2944.98
275.83	3133.39
276.05	3272.65
276.26	3346.38
276.48	3028.95
276.69	3108.82
276.91	3295.18
277.12	3829.70
277.34	3090.38
277.55	3248.08
277.77	3489.74
277.99	3493.83
278.20	3182.54
278.42	3024.85
278.63	3346.38
278.85	3147.73
279.06	3125.20
279.28	3143.63
279.49	3696.58
279.71	3585.99
279.93	3172.30
280.14	3112.91
280.36	3295.18
280.57	3684.30
280.79	3174.35
281.00	2985.94
281.22	3422.16
281.43	3745.73
281.65	2887.64
281.86	2996.18
282.08	3559.37
282.29	3839.94
282.51	2879.44
282.73	2916.31
282.94	3131.34
283.16	3583.95
283.37	3186.64
283.59	3145.68
283.80	3485.64
284.02	3428.30
284.23	3172.30
284.45	3133.39
284.66	3289.04
284.88	3233.74
285.09	3086.29
285.31	3164.11
285.52	3518.41
285.74	3164.11
285.95	3278.80
286.17	3076.05
286.38	3729.35
286.60	3323.85
286.81	3041.23
287.03	3053.52
287.24	3393.48
287.46	3534.79
287.67	3207.12
287.89	3303.37
288.10	3477.45
288.32	3493.83
288.53	3266.51
288.75	3114.96
288.96	3504.07
289.18	3321.81
289.39	2983.89
289.61	3100.62
289.82	3942.34
290.04	3798.98
290.25	2965.46
290.47	3186.64
290.68	3354.57
290.90	3631.05
291.11	2934.74
291.33	3299.28
291.54	3268.56
291.76	3405.77
291.97	3143.63
292.18	3153.87
292.40	3284.94
292.61	3307.47
292.83	3485.64
293.04	3049.43
293.26	3487.69
293.47	3356.62
293.69	3049.43
293.90	2932.69
294.12	3712.97
294.33	3348.43
294.55	3188.69
294.76	3278.80
294.97	3710.92
295.19	3846.09
295.40	3065.81
295.62	3133.39
295.83	3672.01
296.05	3233.74
296.26	3307.47
296.48	2994.13
296.69	3405.77
296.90	3495.88
297.12	3241.93
297.33	3254.22
297.55	3428.30
297.76	3534.79
297.98	3160.02
298.19	3344.33
298.41	3510.22
298.62	3174.35
298.83	3286.99
299.05	3254.22
299.26	3418.06
299.48	3295.18
299.69	3174.35
299.90	3092.43
300.12	3315.66
300.33	3565.51
300.55	3207.12
300.76	3149.78
300.98	3297.23
301.19	3598.28
301.40	3164.11
301.62	3065.81
301.83	3579.85
302.05	3518.41
302.26	3090.38
302.47	3108.82
302.69	3270.61
302.90	3420.11
303.12	2955.22
303.33	3176.40
303.54	3807.17
303.76	3344.33
303.97	3028.95
304.19	3278.80
304.40	3200.98
304.61	3504.07
304.83	3205.07
305.04	3196.88
305.26	3569.61
305.47	3280.85
305.68	3053.52
305.90	2985.94
306.11	3680.20
306.33	3346.38
306.54	2975.70
306.75	3045.33
306.97	3127.25
307.18	3258.32
307.39	3182.54
307.61	3155.92
307.82	3346.38
308.04	3598.28
308.25	2934.74
308.46	3280.85
308.68	3420.11
308.89	3487.69
309.10	3276.75
309.32	3114.96
309.53	3418.06
309.74	3526.60
309.96	2977.75
310.17	3270.61
310.39	3473.36
310.60	3606.47
310.81	3141.58
311.03	3014.61
311.24	3669.96
311.45	3549.13
311.67	3405.77
311.88	3246.03
312.09	3315.66
312.31	3276.75
312.52	3080.14
312.73	3051.47
312.95	3213.26
313.16	3215.31
313.37	3270.61
313.59	3264.46
313.80	3624.90
314.01	3712.97
314.23	3135.44
314.44	3039.19
314.65	3129.30
314.87	3297.23
315.08	3098.58
315.29	3106.77
315.51	3252.17
315.72	3155.92
315.93	3198.93
316.15	3096.53
316.36	3231.69
316.57	3461.07
316.79	3092.43
317.00	3012.56
317.21	3581.90
317.43	3225.55
317.64	3053.52
317.85	2953.17
318.07	3207.12
318.28	3397.58
318.49	3196.88
318.70	3330.00
318.92	3485.64
319.13	3491.79
319.34	3239.89
319.56	3131.34
319.77	3514.31
319.98	3530.70
320.20	3370.96
320.41	3282.89
320.62	3532.75
320.83	3157.97
321.05	3399.63
321.26	3174.35
321.47	3459.02
321.69	3772.36
321.90	3018.71
322.11	3100.62
322.32	3551.18
322.54	3731.40
322.75	3117.01
322.96	4128.70
323.18	3127.25
323.39	3051.47
323.60	2967.51
323.81	3164.11
324.03	3336.14
324.24	3411.92
324.45	3225.55
324.66	3106.77
324.88	3700.68
325.09	3782.60
325.30	3041.23
325.52	2938.84
325.73	3581.90
325.94	3229.65
326.15	3033.04
326.37	2951.12
326.58	3727.30
326.79	3788.74
327.00	3012.56
327.22	3043.28
327.43	3420.11
327.64	3233.74
327.85	3327.95
328.07	3098.58
328.28	3928.00
328.49	3360.72
328.70	3164.11
328.92	3061.71
329.13	3368.91
329.34	3575.75
329.55	3305.42
329.76	3278.80
329.98	3413.96
330.19	3712.97
330.40	3139.54
330.61	3213.26
330.83	3606.47
331.04	3297.23
331.25	3172.30
331.46	3143.63
331.68	3166.16
331.89	3624.90
332.10	3106.77
332.31	2979.79
332.52	3430.35
332.74	3739.59
332.95	2944.98
333.16	3039.19
333.37	3542.99
333.58	3342.28
333.80	3166.16
334.01	2901.97
334.22	3342.28
334.43	3366.86
334.64	3037.14
334.86	3008.47
335.07	3262.41
335.28	3766.21
335.49	3033.04
335.70	3188.69
335.92	3809.22
336.13	3889.09
336.34	3127.25
336.55	3106.77
336.76	3528.65
336.98	2975.70
337.19	3137.49
337.40	3168.21
337.61	3960.77
337.82	3385.29
338.04	3194.83
338.25	2897.88
338.46	3411.92
338.67	3395.53
338.88	3004.37
339.09	3022.80
339.31	3330.00
339.52	3219.41
339.73	3051.47
339.94	3160.02
340.15	3600.33
340.36	3299.28
340.58	3162.06
340.79	2985.94
341.00	3522.51
341.21	3217.36
341.42	3334.09
341.63	3067.86
341.85	3594.19
342.06	3493.83
342.27	3039.19
342.48	3289.04
342.69	3170.26
342.90	3559.37
343.12	3520.46
343.33	3041.23
343.54	3715.02
343.75	3762.12
343.96	3219.41
344.17	3002.32
344.38	3366.86
344.60	3184.59
344.81	3049.43
345.02	3092.43
345.23	3753.93
345.44	4011.97
345.65	3110.86
345.86	3135.44
346.07	3516.36
346.29	3368.91
346.50	3225.55
346.71	3282.89
346.92	3786.69
347.13	3909.57
347.34	3223.50
347.55	3008.47
347.76	3598.28
347.98	3092.43
348.19	3213.26
348.40	3317.71
348.61	3342.28
348.82	3796.93
349.03	3184.59
349.24	3012.56
349.45	3913.67
349.66	3035.09
349.88	3094.48
350.09	2957.27
350.30	3766.21
350.51	3704.78
350.72	3334.09
350.93	3045.33
351.14	3246.03
351.35	3518.41
351.56	3127.25
351.77	3139.54
351.99	3471.31
352.20	3786.69
352.41	3164.11
352.62	2959.31
352.83	3438.54
353.04	3327.95
353.25	3125.20
353.46	3117.01
353.67	3655.62
353.88	3037.14
354.09	3033.04
354.30	3196.88
354.52	3592.14
354.73	3422.16
354.94	3092.43
355.15	3123.15
355.36	3885.00
355.57	3270.61
355.78	2977.75
355.99	3153.87
356.20	3422.16
356.41	3737.54
356.62	3194.83
356.83	3180.50
357.04	3686.34
357.25	3129.30
357.46	3045.33
357.68	2996.18
357.89	3262.41
358.10	3403.72
358.31	3106.77
358.52	3182.54
358.73	3205.07
358.94	3188.69
359.15	3147.73
359.36	3080.14
359.57	3467.21
359.78	3332.05
359.99	3229.65
360.20	3033.04
360.41	3354.57
360.62	3600.33
360.83	3155.92
361.04	3164.11
361.25	3608.52
361.46	3829.70
361.67	3114.96
361.88	3055.57
362.09	3663.82
362.30	3583.95
362.51	3039.19
362.72	3155.92
362.93	3598.28
363.14	3561.42
363.35	3258.32
363.56	3000.27
363.78	3678.15
363.99	3620.81
364.20	3033.04
364.41	3149.78
364.62	3868.61
364.83	3446.73
365.04	3074.00
365.25	3125.20
365.46	3964.87
365.67	3235.79
365.88	3295.18
366.09	3051.47
366.30	3311.57
366.51	3491.79
366.72	3000.27
366.93	3074.00
367.14	3459.02
367.35	3827.65
367.56	3024.85
367.77	3194.83
367.98	3569.61
368.18	3594.19
368.39	3260.37
368.60	3098.58
368.81	3557.32
369.02	3549.13
369.23	3049.43
369.44	2963.41
369.65	3479.50
369.86	3598.28
370.07	3311.57
370.28	3030.99
370.49	3536.84
370.70	3557.32
370.91	2977.75
371.12	2992.08
371.33	3612.62
371.54	3352.52
371.75	3213.26
371.96	2791.38
372.17	3459.02
372.38	3491.79
372.59	3051.47
372.80	3026.90
373.01	3413.96
373.22	3489.74
373.43	3145.68
373.64	2961.36
373.85	3749.83
374.06	3829.70
374.26	3217.36
374.47	3205.07
374.68	3792.84
374.89	3479.50
375.10	3082.19
375.31	3198.93
375.52	3493.83
375.73	3448.78
375.94	2996.18
376.15	3178.45
376.36	3366.86
376.57	3350.48
376.78	3117.01
376.99	3090.38
377.20	3669.96
377.40	3399.63
377.61	3321.81
377.82	3059.67
378.03	3749.83
378.24	3542.99
378.45	3123.15
378.66	3225.55
378.87	3049.43
379.08	3119.06
379.29	3108.82
379.50	3250.13
379.71	3436.49
379.91	3526.60
380.12	3082.19
380.33	3246.03
380.54	3424.20
380.75	3389.39
380.96	3123.15
381.17	3164.11
381.38	3471.31
381.59	3387.34
381.80	3297.23
382.00	3340.24
382.21	3444.68
382.42	3782.60
382.63	3459.02
382.84	3317.71
383.05	3604.42
383.26	3657.67
383.47	3307.47
383.68	3071.95
383.88	3495.88
384.09	3493.83
384.30	3330.00
384.51	3203.02
384.72	3354.57
384.93	3143.63
385.14	3284.94
385.35	3405.77
385.55	3074.00
385.76	3739.59
385.97	3108.82
386.18	2951.12
386.39	3225.55
386.60	3233.74
386.81	3090.38
387.02	3078.10
387.22	3196.88
387.43	3583.95
387.64	3205.07
387.85	3438.54
388.06	3526.60
388.27	4376.51
388.48	7294.86
388.68	10987.35
388.89	13504.31
389.10	14755.61
389.31	14184.23
389.52	11534.16
389.73	10135.40
389.93	9387.89
390.14	8390.53
390.35	7743.37
390.56	7518.09
390.77	6201.25
390.98	4818.87
391.18	4020.16
391.39	3993.54
391.60	3438.54
391.81	3387.34
392.02	3170.26
392.23	3930.05
392.43	3540.94
392.64	3166.16
392.85	3258.32
393.06	3809.22
393.27	3364.81
393.47	3108.82
393.68	3237.84
393.89	3377.10
394.10	3692.49
394.31	3131.34
394.52	3155.92
394.72	3332.05
394.93	3778.50
395.14	3010.51
395.35	3200.98
395.56	3231.69
395.76	3420.11
395.97	3114.96
396.18	3317.71
396.39	3467.21
396.60	4081.60
396.80	3442.64
397.01	3395.53
397.22	3639.24
397.43	3633.10
397.64	3180.50
397.84	3213.26
398.05	3827.65
398.26	3465.16
398.47	3262.41
398.67	3401.68
398.88	3383.24
399.09	3631.05
399.30	3059.67
399.51	3252.17
399.71	3237.84
399.92	3491.79
400.13	3278.80
400.34	3119.06
400.54	3430.35
400.75	3772.36
400.96	3229.65
401.17	3510.22
401.37	3667.91
401.58	3364.81
401.79	3139.54
402.00	3221.45
402.21	3993.54
402.41	3475.40
402.62	3377.10
402.83	3557.32
403.04	3846.09
403.24	4202.43
403.45	3276.75
403.66	3461.07
403.87	3624.90
404.07	3672.01
404.28	3364.81
404.49	3452.88
404.70	3477.45
404.90	3641.29
405.11	3149.78
405.32	3295.18
405.52	3348.43
405.73	3311.57
405.94	3125.20
406.15	3223.50
406.35	3590.09
406.56	3573.71
406.77	3250.13
406.98	3129.30
407.18	3323.85
407.39	3835.85
407.60	3155.92
407.80	3233.74
408.01	3360.72
408.22	3565.51
408.43	3065.81
408.63	3282.89
408.84	3647.43
409.05	3663.82
409.25	3024.85
409.46	3194.83
409.67	3301.33
409.88	3368.91
410.08	3215.31
410.29	3217.36
410.50	3600.33
410.70	3512.27
410.91	3033.04
411.12	3176.40
411.32	3442.64
411.53	3219.41
411.74	3182.54
411.95	3229.65
412.15	3454.92
412.36	3446.73
412.57	3313.61
412.77	3377.10
412.98	3342.28
413.19	3373.00
413.39	3233.74
413.60	3200.98
413.81	3682.25
414.01	3168.21
414.22	3117.01
414.43	3375.05
414.63	3313.61
414.84	3665.86
415.05	3180.50
415.25	3051.47
415.46	3559.37
415.67	3301.33
415.87	3166.16
416.08	3129.30
416.29	3405.77
416.49	3569.61
416.70	3243.98
416.91	3270.61
417.11	3370.96
417.32	3737.54
417.53	3219.41
417.73	3213.26
417.94	3418.06
418.15	3487.69
418.35	3225.55
418.56	3162.06
418.77	3925.96
418.97	3444.68
419.18	3252.17
419.38	2844.63
419.59	3483.59
419.80	3729.35
420.00	3035.09
420.21	3147.73
420.42	3778.50
420.62	3524.55
420.83	3225.55
421.04	3172.30
421.24	3379.15
421.45	3614.66
421.65	3155.92
421.86	3176.40
422.07	3637.19
422.27	3475.40
422.48	3082.19
422.69	2924.50
422.89	3416.01
423.10	3370.96
423.30	3155.92
423.51	3194.83
423.72	3506.12
423.92	3592.14
424.13	2996.18
424.33	3286.99
424.54	3590.09
424.75	3510.22
424.95	3393.48
425.16	3119.06
425.36	3348.43
425.57	3680.20
425.78	3362.76
425.98	3239.89
426.19	3456.97
426.39	3243.98
426.60	3237.84
426.81	3282.89
427.01	3547.08
427.22	3262.41
427.42	3022.80
427.63	3188.69
427.83	3637.19
428.04	3811.27
428.25	3229.65
428.45	3250.13
428.66	3749.83
428.86	3461.07
429.07	3215.31
429.28	3303.37
429.48	3481.55
429.69	3305.42
429.89	3270.61
430.10	3147.73
430.30	3598.28
430.51	3696.58
430.71	3121.10
430.92	3237.84
431.13	3262.41
431.33	3575.75
431.54	3274.70
431.74	3387.34
431.95	3868.61
432.15	3233.74
432.36	3162.06
432.56	3223.50
432.77	3903.43
432.98	3794.89
433.18	3274.70
433.39	3018.71
433.59	3420.11
433.80	3919.81
434.00	3336.14
434.21	3258.32
434.41	3233.74
434.62	4001.73
434.82	3033.04
435.03	3067.86
435.23	3479.50
435.44	3098.58
435.64	3076.05
435.85	3262.41
436.06	3588.04
436.26	3745.73
436.47	3106.77
436.67	3143.63
436.88	3413.96
437.08	3762.12
437.29	3227.60
437.49	3354.57
437.70	3649.48
437.90	3436.49
438.11	3303.37
438.31	3239.89
438.52	3655.62
438.72	3770.31
438.93	3463.12
439.13	3233.74
439.34	3602.38
439.54	3344.33
439.75	3286.99
439.95	3313.61
440.16	3237.84
440.36	3354.57
440.57	3106.77
440.77	3196.88
440.98	3463.12
441.18	3508.17
441.39	3112.91
441.59	2971.60
441.80	3909.57
442.00	3383.24
442.21	3231.69
442.41	2985.94
442.62	3622.86
442.82	3209.17
443.02	3131.34
443.23	3153.87
443.43	3311.57
443.64	3731.40
443.84	3010.51
444.05	3188.69
444.25	3508.17
444.46	3332.05
444.66	3131.34
444.87	3274.70
445.07	3082.19
445.28	3338.19
445.48	3370.96
445.69	3200.98
445.89	3981.25
446.09	3377.10
446.30	3424.20
446.50	3491.79
446.71	5099.44
446.91	6178.72
447.12	6795.16
447.32	7133.08
447.53	7155.60
447.73	6215.59
447.93	5324.72
448.14	5140.40
448.34	5564.33
448.55	4573.11
448.75	4368.32
448.96	4222.91
449.16	4114.37
449.36	4073.41
449.57	3428.30
449.77	3180.50
449.98	3416.01
450.18	3508.17
450.39	3114.96
450.59	3424.20
450.79	3360.72
451.00	3270.61
451.20	3366.86
451.41	3205.07
451.61	3551.18
451.81	3389.39
452.02	3065.81
452.22	3205.07
452.43	3321.81
452.63	3237.84
452.84	3149.78
453.04	3082.19
453.24	3491.79
453.45	3282.89
453.65	3270.61
453.86	3209.17
454.06	3504.07
454.26	3454.92
454.47	3061.71
454.67	3344.33
454.87	3512.27
455.08	3340.24
455.28	3241.93
455.49	3289.04
455.69	3368.91
455.89	3868.61
456.10	3346.38
456.30	3024.85
456.51	3608.52
456.71	3452.88
456.91	3348.43
457.12	3157.97
457.32	3590.09
457.52	3221.45
457.73	3270.61
457.93	3373.00
458.14	3360.72
458.34	3020.75
458.54	3237.84
458.75	3149.78
458.95	3594.19
459.15	3563.47
459.36	3174.35
459.56	3110.86
459.76	3938.24
459.97	3446.73
460.17	3258.32
460.37	3172.30
460.58	3385.29
460.78	3602.38
460.99	3221.45
461.19	3123.15
461.39	3383.24
461.60	3467.21
461.80	3172.30
462.00	3055.57
462.21	3502.03
462.41	3160.02
462.61	3069.91
462.82	2951.12
463.02	3573.71
463.22	3393.48
463.43	3217.36
463.63	3000.27
463.83	3672.01
464.04	3518.41
464.24	3205.07
464.44	3102.67
464.64	3551.18
464.85	3567.56
465.05	3141.58
465.25	3024.85
465.46	3305.42
465.66	3624.90
465.86	3299.28
466.07	3033.04
466.27	3418.06
466.47	3114.96
466.68	3053.52
466.88	3221.45
467.08	3645.38
467.29	3684.30
467.49	3178.45
467.69	3395.53
467.89	3588.04
468.10	3444.68
468.30	3213.26
468.50	3188.69
468.71	3641.29
468.91	3076.05
469.11	3411.92
469.31	3276.75
469.52	3184.59
469.72	3909.57
469.92	3309.52
470.13	3155.92
470.33	3420.11
470.53	3465.16
470.73	3530.70
470.94	3768.26
471.14	4028.35
471.34	4759.48
471.54	4093.89
471.75	3919.81
471.95	3653.58
472.15	3747.78
472.36	3739.59
472.56	3596.23
472.76	3913.67
472.96	3878.85
473.17	3413.96
473.37	3272.65
473.57	3354.57
473.77	3618.76
473.98	3280.85
474.18	3135.44
474.38	4067.27
474.58	3409.87
474.79	2987.99
474.99	3299.28
475.19	3655.62
475.39	3307.47
475.60	3198.93
475.80	3045.33
476.00	3569.61
476.20	3377.10
476.41	3231.69
476.61	3164.11
476.81	3809.22
477.01	3221.45
477.21	3471.31
477.42	3225.55
477.62	3246.03
477.82	3676.10
478.02	3090.38
478.23	3086.29
478.43	3237.84
478.63	3301.33
478.83	3205.07
479.03	3239.89
479.24	3790.79
479.44	3936.20
479.64	3069.91
479.84	3071.95
480.04	3270.61
480.25	3631.05
480.45	3145.68
480.65	3129.30
480.85	3784.65
481.06	3305.42
481.26	3225.55
481.46	3043.28
481.66	3471.31
481.86	3192.78
482.06	3356.62
482.27	3229.65
482.47	3317.71
482.67	3606.47
482.87	3217.36
483.07	3168.21
483.28	3327.95
483.48	3198.93
483.68	3217.36
483.88	3059.67
484.08	3137.49
484.29	3194.83
484.49	3303.37
484.69	2928.60
484.89	3762.12
485.09	3598.28
485.29	3207.12
485.50	3307.47
485.70	3325.90
485.90	3698.63
486.10	3327.95
486.30	3125.20
486.50	3735.50
486.71	3493.83
486.91	3192.78
487.11	3246.03
487.31	3200.98
487.51	3665.86
487.71	3123.15
487.91	3110.86
488.12	3268.56
488.32	2881.49
488.52	3241.93
488.72	2852.82
488.92	3497.93
489.12	3682.25
489.32	3256.27
489.53	3172.30
489.73	3110.86
489.93	3762.12
490.13	3139.54
490.33	3028.95
490.53	3551.18
490.73	3655.62
490.94	3104.72
491.14	3270.61
491.34	3569.61
491.54	3461.07
491.74	3960.77
491.94	4360.13
492.14	5013.43
492.34	5207.98
492.54	4675.51
492.75	4069.31
492.95	4450.24
493.15	4114.37
493.35	3823.56
493.55	3727.30
493.75	3688.39
493.95	3997.64
494.15	3350.48
494.35	3270.61
494.56	3368.91
494.76	3373.00
494.96	3403.72
495.16	3082.19
495.36	3418.06
495.56	3381.20
495.76	3305.42
495.96	3209.17
496.16	3250.13
496.36	3778.50
496.56	3155.92
496.77	3291.09
496.97	3483.59
497.17	3723.21
497.37	3002.32
497.57	3239.89
497.77	3446.73
497.97	3188.69
498.17	3274.70
498.37	3190.74
498.57	3553.23
498.77	3377.10
498.97	3327.95
499.17	3585.99
499.38	3434.44
499.58	3592.14
499.78	3350.48
499.98	3276.75
500.18	3459.02
500.38	3198.93
500.58	3424.20
500.78	3811.27
500.98	6002.60
501.18	7753.61
501.38	9025.40
501.58	9992.04
501.78	9836.39
501.98	8150.92
502.18	7028.63
502.38	6162.34
502.58	6229.92
502.78	5404.59
502.98	5203.89
503.18	5048.24
503.38	4827.06
503.59	4114.37
503.79	3979.20
503.99	3647.43
504.19	4026.31
504.39	3903.43
504.59	3618.76
504.79	3608.52
504.99	4009.92
505.19	3618.76
505.39	3319.76
505.59	3518.41
505.79	3741.64
505.99	3694.54
506.19	3110.86
506.39	3385.29
506.59	3370.96
506.79	3387.34
506.99	3442.64
507.19	3100.62
507.39	3444.68
507.59	3127.25
507.79	3168.21
507.99	3004.37
508.19	3340.24
508.39	3295.18
508.59	3100.62
508.79	3286.99
508.99	3911.62
509.19	3317.71
509.39	3252.17
509.59	3026.90
509.79	3360.72
509.99	3393.48
510.19	3278.80
510.39	3301.33
510.59	3510.22
510.79	3262.41
510.99	2932.69
511.19	3160.02
511.39	3768.26
511.59	3688.39
511.79	3393.48
511.99	3157.97
512.19	3811.27
512.38	3385.29
512.58	3164.11
512.78	3035.09
512.98	3727.30
513.18	3731.40
513.38	3074.00
513.58	3229.65
513.78	3409.87
513.98	3401.68
514.18	3172.30
514.38	3129.30
514.58	3526.60
514.78	3319.76
514.98	3067.86
515.18	3205.07
515.38	3168.21
515.58	3903.43
515.78	3162.06
515.98	3223.50
516.18	3538.89
516.38	3389.39
516.57	3149.78
516.77	3229.65
516.97	3557.32
517.17	3313.61
517.37	2967.51
517.57	3250.13
517.77	3483.59
517.97	3274.70
518.17	3213.26
518.37	3047.38
518.57	3262.41
518.77	3413.96
518.97	3166.16
519.16	3203.02
519.36	3698.63
519.56	3309.52
519.76	3090.38
519.96	3211.22
520.16	3725.26
520.36	3209.17
520.56	3332.05
520.76	3096.53
520.96	3422.16
521.16	3647.43
521.35	3315.66
521.55	3332.05
521.75	3352.52
521.95	3311.57
522.15	3074.00
522.35	2969.55
522.55	3248.08
522.75	3545.03
522.95	2992.08
523.14	2998.23
523.34	3362.76
523.54	3278.80
523.74	3334.09
523.94	3207.12
524.14	3160.02
524.34	3524.55
524.54	3368.91
524.73	3270.61
524.93	3446.73
525.13	3499.98
525.33	3067.86
525.53	3370.96
525.73	3590.09
525.93	3401.68
526.13	3248.08
526.32	3078.10
526.52	3721.16
526.72	3590.09
526.92	3229.65
527.12	3082.19
527.32	3125.20
527.52	3524.55
527.71	3164.11
527.91	3192.78
528.11	3342.28
528.31	3485.64
528.51	3145.68
528.71	3272.65
528.90	3624.90
529.10	3706.82
529.30	3178.45
529.50	2922.45
529.70	3514.31
529.90	3297.23
530.09	3059.67
530.29	3045.33
530.49	3241.93
530.69	4061.12
530.89	3350.48
531.09	3209.17
531.28	3354.57
531.48	3651.53
531.68	3127.25
531.88	3155.92
532.08	3606.47
532.28	3330.00
532.47	3256.27
532.67	3274.70
532.87	3590.09
533.07	3278.80
533.27	3209.17
533.46	3246.03
533.66	3418.06
533.86	3434.44
534.06	3231.69
534.26	3133.39
534.45	3413.96
534.65	3618.76
534.85	3254.22
535.05	3098.58
535.25	3610.57
535.44	3092.43
535.64	3164.11
535.84	3133.39
536.04	3401.68
536.24	3348.43
536.43	3137.49
536.63	3106.77
536.83	3475.40
537.03	3434.44
537.22	2942.93
537.42	3010.51
537.62	3444.68
537.82	3239.89
538.02	3389.39
538.21	3213.26
538.41	4143.04
538.61	3573.71
538.81	3215.31
539.00	3291.09
539.20	3145.68
539.40	3368.91
539.60	3121.10
539.79	3401.68
539.99	3475.40
540.19	3160.02
540.39	3137.49
540.58	3196.88
540.78	3688.39
540.98	3434.44
541.18	3444.68
541.37	3174.35
541.57	3450.83
541.77	3502.03
541.97	3137.49
542.16	3049.43
542.36	3373.00
542.56	3676.10
542.76	3332.05
542.95	3295.18
543.15	3631.05
543.35	3653.58
543.54	3135.44
543.74	2992.08
543.94	3792.84
544.14	3364.81
544.33	3346.38
544.53	3153.87
544.73	3422.16
544.93	3385.29
545.12	3147.73
545.32	3190.74
545.52	3383.24
545.71	3215.31
545.91	3188.69
546.11	3131.34
546.30	3231.69
546.50	3340.24
546.70	3221.45
546.90	3229.65
547.09	3035.09
547.29	3469.26
547.49	3313.61
547.68	3162.06
547.88	3241.93
548.08	3626.95
548.27	3504.07
548.47	3114.96
548.67	3323.85
548.87	3588.04
549.06	3141.58
549.26	3057.62
549.46	3461.07
549.65	3231.69
549.85	3211.22
550.05	3149.78
550.24	3166.16
550.44	3491.79
550.64	3246.03
550.83	3248.08
551.03	3729.35
551.23	3661.77
551.42	3200.98
551.62	3254.22
551.82	3444.68
552.01	3387.34
552.21	3495.88
552.41	3198.93
552.60	3831.75
552.80	3516.36
553.00	3123.15
553.19	3157.97
553.39	3936.20
553.59	3219.41
553.78	3327.95
553.98	3065.81
554.17	3246.03
554.37	3557.32
554.57	3233.74
554.76	3018.71
554.96	3446.73
555.16	3428.30
555.35	3291.09
555.55	3340.24
555.75	3422.16
555.94	3540.94
556.14	2963.41
556.33	3160.02
556.53	3409.87
556.73	3393.48
556.92	3141.58
557.12	3104.72
557.32	3899.33
557.51	3811.27
557.71	3194.83
557.90	3395.53
558.10	3737.54
558.30	3338.19
558.49	3190.74
558.69	3188.69
558.88	3514.31
559.08	3510.22
559.28	3190.74
559.47	3135.44
559.67	3614.66
559.86	3907.52
560.06	3157.97
560.26	3225.55
560.45	3547.08
560.65	3385.29
560.84	3395.53
561.04	3106.77
561.24	3549.13
561.43	3205.07
561.63	3454.92
561.82	3336.14
562.02	3567.56
562.22	3262.41
562.41	3141.58
562.61	3131.34
562.80	3252.17
563.00	3997.64
563.19	3233.74
563.39	3235.79
563.59	3553.23
563.78	3190.74
563.98	2928.60
564.17	3139.54
564.37	3129.30
564.56	3364.81
564.76	3080.14
564.96	3289.04
565.15	3495.88
565.35	3930.05
565.54	3291.09
565.74	3160.02
565.93	3555.27
566.13	3442.64
566.32	3270.61
566.52	3282.89
566.71	3377.10
566.91	3606.47
567.11	3278.80
567.30	3086.29
567.50	3526.60
567.69	3495.88
567.89	3139.54
568.08	3102.67
568.28	3461.07
568.47	3108.82
568.67	3153.87
568.86	3147.73
569.06	3614.66
569.25	3313.61
569.45	3033.04
569.64	3205.07
569.84	3313.61
570.04	3436.49
570.23	3184.59
570.43	3223.50
570.62	3532.75
570.82	3772.36
571.01	3063.76
571.21	3137.49
571.40	3278.80
571.60	3614.66
571.79	3340.24
571.99	3100.62
572.18	3229.65
572.38	3485.64
572.57	3286.99
572.77	3264.46
572.96	4081.60
573.16	3520.46
573.35	3168.21
573.55	3354.57
573.74	3563.47
573.94	3262.41
574.13	3176.40
574.33	3411.92
574.52	3743.69
574.71	3442.64
574.91	3221.45
575.10	3018.71
575.30	3319.76
575.49	3184.59
575.69	3112.91
575.88	3155.92
576.08	3397.58
576.27	3672.01
576.47	3082.19
576.66	3327.95
576.86	3682.25
577.05	3467.21
577.25	3239.89
577.44	3293.13
577.64	3205.07
577.83	3600.33
578.02	3162.06
578.22	3399.63
578.41	3815.37
578.61	3426.25
578.80	2959.31
579.00	3209.17
579.19	3434.44
579.39	3510.22
579.58	3344.33
579.77	3225.55
579.97	3688.39
580.16	3665.86
580.36	3344.33
580.55	3248.08
580.75	3555.27
580.94	3459.02
581.13	3373.00
581.33	3405.77
581.52	3391.44
581.72	3907.52
581.91	3239.89
582.11	3182.54
582.30	3553.23
582.49	3481.55
582.69	3526.60
582.88	3198.93
583.08	3573.71
583.27	3645.38
583.47	3317.71
583.66	3180.50
583.85	3209.17
584.05	3401.68
584.24	3409.87
584.44	3205.07
584.63	3622.86
584.82	3606.47
585.02	3504.07
585.21	3332.05
585.41	3475.40
585.60	3407.82
585.79	3440.59
585.99	3504.07
586.18	3373.00
586.37	4489.15
586.57	6557.60
586.76	18267.88
586.96	36629.97
587.15	49327.38
587.34	57031.83
587.54	60718.18
587.73	52933.85
587.93	38421.94
588.12	29466.17
588.31	24250.00
588.51	21495.48
588.70	19992.27
588.89	17839.86
589.09	14888.73
589.28	13240.12
589.47	10125.16
589.67	7784.33
589.86	6162.34
590.06	4951.99
590.25	4362.17
590.44	3848.13
590.64	3557.32
590.83	3676.10
591.02	3721.16
591.22	3194.83
591.41	3323.85
591.60	3399.63
591.80	3991.49
591.99	2992.08
592.18	3164.11
592.38	3704.78
592.57	3370.96
592.76	3114.96
592.96	3344.33
593.15	3434.44
593.34	3676.10
593.54	3221.45
593.73	3297.23
593.92	3534.79
594.12	3502.03
594.31	3213.26
594.50	3321.81
594.70	3561.42
594.89	4071.36
595.08	3067.86
595.28	3301.33
595.47	4073.41
595.66	3704.78
595.86	3141.58
596.05	3082.19
596.24	3338.19
596.43	3821.51
596.63	3254.22
596.82	3391.44
597.01	3467.21
597.21	3858.37
597.40	3200.98
597.59	3211.22
597.79	3405.77
597.98	3655.62
598.17	3231.69
598.36	3188.69
598.56	3592.14
598.75	3286.99
598.94	3260.37
599.14	3205.07
599.33	3284.94
599.52	3594.19
599.71	3188.69
599.91	3168.21
600.10	3583.95
600.29	3383.24
600.48	3229.65
600.68	3352.52
600.87	3508.17
601.06	3338.19
601.26	3303.37
601.45	3366.86
601.64	3399.63
601.83	3807.17
602.03	2996.18
602.22	3108.82
602.41	3672.01
602.60	4032.45
602.80	3321.81
602.99	3377.10
603.18	3387.34
603.37	3514.31
603.57	3106.77
603.76	3246.03
603.95	3616.71
604.14	3330.00
604.34	3137.49
604.53	3180.50
604.72	3475.40
604.91	3577.80
605.10	3196.88
605.30	3074.00
605.49	3981.25
605.68	3571.66
605.87	3225.55
606.07	3190.74
606.26	3520.46
606.45	3549.13
606.64	3194.83
606.84	3037.14
607.03	3373.00
607.22	3631.05
607.41	3246.03
607.60	3164.11
607.80	3626.95
607.99	3362.76
608.18	3256.27
608.37	3192.78
608.56	3373.00
608.76	3649.48
608.95	3358.67
609.14	3149.78
609.33	3712.97
609.52	3792.84
609.72	3256.27
609.91	3315.66
610.10	3538.89
610.29	3657.67
610.48	3313.61
610.68	3297.23
610.87	3418.06
611.06	3669.96
611.25	3209.17
611.44	3299.28
611.63	3420.11
611.83	3688.39
612.02	3108.82
612.21	3315.66
612.40	3035.09
612.59	3194.83
612.79	3084.24
612.98	3299.28
613.17	3770.31
613.36	3502.03
613.55	3266.51
613.74	3112.91
613.93	3502.03
614.13	3495.88
614.32	3379.15
614.51	3164.11
614.70	3377.10
614.89	3379.15
615.08	3289.04
615.28	3575.75
615.47	3237.84
615.66	3536.84
615.85	3215.31
616.04	3213.26
616.23	3377.10
616.42	3485.64
616.62	3246.03
616.81	3196.88
617.00	3426.25
617.19	3545.03
617.38	3217.36
617.57	3346.38
617.76	3567.56
617.95	3594.19
618.15	3270.61
618.34	3422.16
618.53	3164.11
618.72	3696.58
618.91	3229.65
619.10	3264.46
619.29	3336.14
619.48	3440.59
619.68	3004.37
619.87	3078.10
620.06	3194.83
620.25	3614.66
620.44	3133.39
620.63	3147.73
620.82	3538.89
621.01	3422.16
621.20	3176.40
621.39	3272.65
621.59	3469.26
621.78	3375.05
621.97	3254.22
622.16	3327.95
622.35	3585.99
622.54	3577.80
622.73	3200.98
622.92	2938.84
623.11	3725.26
623.30	3377.10
623.49	3338.19
623.68	3026.90
623.88	3801.03
624.07	3260.37
624.26	3104.72
624.45	3160.02
624.64	3385.29
624.83	3508.17
625.02	3205.07
625.21	3237.84
625.40	3520.46
625.59	3739.59
625.78	3213.26
625.97	3280.85
626.16	3768.26
626.35	3653.58
626.54	3233.74
626.74	3377.10
626.93	3319.76
627.12	3420.11
627.31	3221.45
627.50	3200.98
627.69	3688.39
627.88	3256.27
628.07	3168.21
628.26	3049.43
628.45	3248.08
628.64	3274.70
628.83	3059.67
629.02	3045.33
629.21	3577.80
629.40	3502.03
629.59	3092.43
629.78	3053.52
629.97	3418.06
630.16	3499.98
630.35	3151.82
630.54	3368.91
630.73	3315.66
630.92	3399.63
631.11	3084.24
631.30	3219.41
631.49	3704.78
631.68	3395.53
631.87	3213.26
632.06	3123.15
632.25	3946.44
632.44	3436.49
632.63	3182.54
632.82	3213.26
633.01	3260.37
633.20	3497.93
633.39	3131.34
633.58	2965.46
633.77	3459.02
633.96	3483.59
634.15	3293.13
634.34	3268.56
634.53	3516.36
634.72	3315.66
634.91	3028.95
635.10	3108.82
635.29	3585.99
635.48	3454.92
635.67	3035.09
635.86	3026.90
636.05	3864.52
636.24	3362.76
636.43	3061.71
636.62	3221.45
636.81	2910.16
637.00	3491.79
637.19	3237.84
637.38	3186.64
637.57	3430.35
637.76	3368.91
637.95	3356.62
638.14	3321.81
638.33	3540.94
638.52	3475.40
638.71	3076.05
638.89	3063.76
639.08	4063.17
639.27	3698.63
639.46	3360.72
639.65	3622.86
639.84	3854.28
640.03	4040.64
640.22	3588.04
640.41	3452.88
640.60	3436.49
640.79	3499.98
640.98	3364.81
641.17	3327.95
641.36	3663.82
641.55	3581.90
641.74	3041.23
641.92	3117.01
642.11	3305.42
642.30	3426.25
642.49	3102.67
642.68	3117.01
642.87	3573.71
643.06	3504.07
643.25	3057.62
643.44	3094.48
643.63	3373.00
643.82	3672.01
644.00	3043.28
644.19	3143.63
644.38	3125.20
644.57	3526.60
644.76	3227.60
644.95	3336.14
645.14	3495.88
645.33	3389.39
645.52	3286.99
645.71	2998.23
645.89	3200.98
646.08	3395.53
646.27	3194.83
646.46	3354.57
646.65	3164.11
646.84	3436.49
647.03	3061.71
647.22	3362.76
647.40	3489.74
647.59	3405.77
647.78	2947.03
647.97	3256.27
648.16	3264.46
648.35	3729.35
648.54	3469.26
648.73	3110.86
648.91	3534.79
649.10	3481.55
649.29	3125.20
649.48	3100.62
649.67	3592.14
649.86	3381.20
650.05	3131.34
650.23	3348.43
650.42	3272.65
650.61	3659.72
650.80	3358.67
650.99	3409.87
651.18	3760.07
651.36	3712.97
651.55	3155.92
651.74	3370.96
651.93	3393.48
652.12	3430.35
652.31	3274.70
652.49	3182.54
652.68	3246.03
652.87	3696.58
653.06	3336.14
653.25	3434.44
653.44	3393.48
653.62	3813.32
653.81	3241.93
654.00	3229.65
654.19	3624.90
654.38	4081.60
654.56	3270.61
654.75	3123.15
654.94	3633.10
655.13	3446.73
655.32	3129.30
655.51	3262.41
655.69	3342.28
655.88	3731.40
656.07	3033.04
656.26	3246.03
656.45	3207.12
656.63	3473.36
656.82	3155.92
657.01	3520.46
657.20	3280.85
657.38	3731.40
657.57	3139.54
657.76	3100.62
657.95	3549.13
658.14	3409.87
658.32	3362.76
658.51	3043.28
658.70	3450.83
658.89	3436.49
659.08	3262.41
659.26	3426.25
659.45	3223.50
659.64	3545.03
659.83	3190.74
660.01	3610.57
660.20	3463.12
660.39	3706.82
660.58	2934.74
660.76	3200.98
660.95	3102.67
661.14	3499.98
661.33	3006.42
661.51	3246.03
661.70	3344.33
661.89	3542.99
662.08	3246.03
662.26	2987.99
662.45	3215.31
662.64	3807.17
662.83	3192.78
663.01	3071.95
663.20	3203.02
663.39	3729.35
663.58	3157.97
663.76	3172.30
663.95	3585.99
664.14	3303.37
664.32	3221.45
664.51	3047.38
664.70	3047.38
664.89	3508.17
665.07	3000.27
665.26	3303.37
665.45	3164.11
665.64	3618.76
665.82	3117.01
666.01	3327.95
666.20	3141.58
666.38	3633.10
666.57	3489.74
666.76	5562.28
666.95	12584.77
667.13	18534.12
667.32	22292.14
667.51	24471.18
667.69	25013.89
667.88	20700.87
668.07	15318.81
668.25	13115.19
668.44	11579.22
668.63	10336.10
668.81	8759.16
669.00	7612.30
669.19	7079.83
669.38	6428.57
669.56	5410.73
669.75	4739.00
669.94	4384.70
670.12	3786.69
670.31	3461.07
670.50	3399.63
670.68	3633.10
670.87	3526.60
671.06	3196.88
671.24	3286.99
671.43	3680.20
671.62	3424.20
671.80	3133.39
671.99	3262.41
672.18	3487.69
672.36	3606.47
672.55	3321.81
672.74	3233.74
672.92	3338.19
673.11	3641.29
673.29	3035.09
673.48	3358.67
673.67	3401.68
673.85	3581.90
674.04	3127.25
674.23	3229.65
674.41	3819.46
674.60	3147.73
674.79	3096.53
674.97	3051.47
675.16	3688.39
675.34	3622.86
675.53	3203.02
675.72	3270.61
675.90	3921.86
676.09	3344.33
676.28	3327.95
676.46	3114.96
676.65	3624.90
676.83	3262.41
677.02	3203.02
677.21	3340.24
677.39	3405.77
677.58	3252.17
677.77	3170.26
677.95	3033.04
678.14	3518.41
678.32	3344.33
678.51	3194.83
678.70	3438.54
678.88	3362.76
679.07	3395.53
679.25	3215.31
679.44	3260.37
679.63	3160.02
679.81	3444.68
680.00	3471.31
680.18	3256.27
680.37	3809.22
680.55	3508.17
680.74	2994.13
680.93	2971.60
681.11	3545.03
681.30	3387.34
681.48	3129.30
681.67	3198.93
681.85	3483.59
682.04	3248.08
682.23	3321.81
682.41	3356.62
682.60	3403.72
682.78	3459.02
682.97	3086.29
683.15	3311.57
683.34	3559.37
683.53	3782.60
683.71	3057.62
683.90	3200.98
684.08	3745.73
684.27	3385.29
684.45	3321.81
684.64	3336.14
684.82	3411.92
685.01	3561.42
685.19	3223.50
685.38	3553.23
685.57	3504.07
685.75	3291.09
685.94	3106.77
686.12	3112.91
686.31	3254.22
686.49	3792.84
686.68	3000.27
686.86	3131.34
687.05	3389.39
687.23	3831.75
687.42	3207.12
687.60	3131.34
687.79	3639.24
687.97	3747.78
688.16	3246.03
688.34	3411.92
688.53	3112.91
688.71	3528.65
688.90	3510.22
689.08	3168.21
689.27	3149.78
689.45	3598.28
689.64	3209.17
689.82	3289.04
690.01	3598.28
690.19	3452.88
690.38	3225.55
690.56	3297.23
690.75	3266.51
690.93	3360.72
691.12	3192.78
691.30	3172.30
691.49	3188.69
691.67	3411.92
691.86	3534.79
692.04	3182.54
692.23	3325.90
692.41	3393.48
692.60	3508.17
692.78	3416.01
692.97	3373.00
693.15	3581.90
693.34	3467.21
693.52	3487.69
693.71	3334.09
693.89	3383.24
694.08	3049.43
694.26	3268.56
694.44	3602.38
694.63	3577.80
694.81	3168.21
695.00	3139.54
695.18	3712.97
695.37	3987.40
695.55	3264.46
695.74	3301.33
695.92	3266.51
696.10	3647.43
696.29	3088.34
696.47	3237.84
696.66	3200.98
696.84	3172.30
697.03	3274.70
697.21	3540.94
697.40	4802.49
697.58	3702.73
697.76	3153.87
697.95	3184.59
698.13	3166.16
698.32	3407.82
698.50	3229.65
698.68	3200.98
698.87	3534.79
699.05	3772.36
699.24	3188.69
699.42	3157.97
699.61	3452.88
699.79	3463.12
699.97	3180.50
700.16	3033.04
700.34	3196.88
700.53	3545.03
700.71	3385.29
700.89	3313.61
701.08	3291.09
701.26	3442.64
701.45	3518.41
701.63	3217.36
701.81	3360.72
702.00	3229.65
702.18	3342.28
702.37	3102.67
702.55	3727.30
702.73	3418.06
702.92	3166.16
703.10	3497.93
703.28	3575.75
703.47	3221.45
703.65	3442.64
703.84	3266.51
704.02	3313.61
704.20	3723.21
704.39	3192.78
704.57	3141.58
704.75	3573.71
704.94	3567.56
705.12	3430.35
705.30	4073.41
705.49	8064.90
705.67	14360.36
705.86	18953.95
706.04	21212.86
706.22	23807.64
706.41	22007.47
706.59	16510.72
706.77	13199.16
706.96	11470.67
707.14	10735.45
707.32	9074.55
707.51	8114.05
707.69	6885.27
707.87	5871.53
708.06	4788.15
708.24	4212.67
708.42	4050.88
708.61	4333.50
708.79	3246.03
708.97	3444.68
709.16	3512.27
709.34	3534.79
709.52	3205.07
709.71	3280.85
709.89	3694.54
710.07	3198.93
710.26	3102.67
710.44	3248.08
710.62	3547.08
710.80	3475.40
710.99	3338.19
711.17	3327.95
711.35	3252.17
711.54	3319.76
711.72	3364.81
711.90	3284.94
712.09	3600.33
712.27	3309.52
712.45	3260.37
712.63	3184.59
712.82	3516.36
713.00	3403.72
713.18	3291.09
713.37	3420.11
713.55	3600.33
713.73	3516.36
713.91	3336.14
714.10	3200.98
714.28	3397.58
714.46	3483.59
714.65	3291.09
714.83	3168.21
715.01	3508.17
715.19	3379.15
715.38	3186.64
715.56	3403.72
715.74	3352.52
715.92	3209.17
716.11	3565.51
716.29	2971.60
716.47	3401.68
716.65	3309.52
716.84	3104.72
717.02	3319.76
717.20	3057.62
717.38	3270.61
717.57	3360.72
717.75	3254.22
717.93	3323.85
718.11	3581.90
718.30	3121.10
718.48	3225.55
718.66	3647.43
718.84	3639.24
719.03	3256.27
719.21	3051.47
719.39	3780.55
719.57	3557.32
719.75	3297.23
719.94	3133.39
720.12	3409.87
720.30	3583.95
720.48	3264.46
720.67	3217.36
720.85	3229.65
721.03	3252.17
721.21	3203.02
721.39	3262.41
721.58	3585.99
721.76	3438.54
721.94	3264.46
722.12	3332.05
722.30	3889.09
722.49	3303.37
722.67	3172.30
722.85	3192.78
723.03	3102.67
723.21	3364.81
723.40	3188.69
723.58	3340.24
723.76	3561.42
723.94	3729.35
724.12	3186.64
724.30	3456.97
724.49	3553.23
724.67	3194.83
724.85	3274.70
725.03	3106.77
725.21	3516.36
725.40	3641.29
725.58	3291.09
725.76	3379.15
725.94	3536.84
726.12	3268.56
726.30	3307.47
726.49	3213.26
726.67	3276.75
726.85	3553.23
727.03	3848.13
727.21	4958.13
727.39	6160.29
727.57	6375.33
727.76	6602.65
727.94	6727.58
728.12	5969.83
728.30	5015.48
728.48	4741.05
728.66	4562.87
728.84	4401.08
729.03	3942.34
729.21	3686.34
729.39	3637.19
729.57	3502.03
729.75	3542.99
729.93	3393.48
730.11	3139.54
730.30	3373.00
730.48	3403.72
730.66	3286.99
730.84	3366.86
731.02	3502.03
731.20	3332.05
731.38	3286.99
731.56	3033.04
731.74	3188.69
731.93	3508.17
732.11	3385.29
732.29	3213.26
732.47	3612.62
732.65	3479.50
732.83	3358.67
733.01	3381.20
733.19	3233.74
733.37	3497.93
733.56	3196.88
733.74	3084.24
733.92	3766.21
734.10	3352.52
734.28	3358.67
734.46	3059.67
734.64	3325.90
734.82	3346.38
735.00	3196.88
735.18	3188.69
735.36	3481.55
735.54	3395.53
735.73	3198.93
735.91	3346.38
736.09	3764.17
736.27	3416.01
736.45	3303.37
736.63	2973.65
736.81	3266.51
736.99	3577.80
737.17	3401.68
737.35	3182.54
737.53	3532.75
737.71	3327.95
737.89	3483.59
738.07	3119.06
738.25	3307.47
738.43	3157.97
738.61	3219.41
738.80	3067.86
738.98	3213.26
739.16	3264.46
739.34	3121.10
739.52	3538.89
739.70	3379.15
739.88	3545.03
740.06	3311.57
740.24	2897.88
740.42	3692.49
740.60	3084.24
740.78	3223.50
740.96	3010.51
741.14	3405.77
741.32	3444.68
741.50	3080.14
741.68	3534.79
741.86	3674.06
742.04	3129.30
742.22	3117.01
742.40	3248.08
742.58	3598.28
742.76	3248.08
742.94	3461.07
743.12	3123.15
743.30	3461.07
743.48	3557.32
743.66	3082.19
743.84	3213.26
744.02	3377.10
744.20	3454.92
744.38	3039.19
744.56	3143.63
744.74	3774.41
744.92	3534.79
745.10	3467.21
745.28	3278.80
745.46	3780.55
745.64	3450.83
745.82	3207.12
746.00	3178.45
746.18	3573.71
746.36	3262.41
746.54	3289.04
746.72	3207.12
746.90	3200.98
747.08	3680.20
747.26	3209.17
747.44	3395.53
747.62	3635.14
747.80	3477.45
747.98	3319.76
748.15	3082.19
748.33	3794.89
748.51	3487.69
748.69	3295.18
748.87	3119.06
749.05	3418.06
749.23	3434.44
749.41	3135.44
749.59	3182.54
749.77	3585.99
749.95	3278.80
750.13	3119.06
750.31	3356.62
750.49	3393.48
750.67	3624.90
750.85	3286.99
751.03	3229.65
751.20	3831.75
751.38	3401.68
751.56	3190.74
751.74	3188.69
751.92	3416.01
752.10	3209.17
752.28	3411.92
752.46	3217.36
752.64	3393.48
752.82	3444.68
753.00	3264.46
753.18	3110.86
753.35	3434.44
753.53	3379.15
753.71	3100.62
753.89	3225.55
754.07	3483.59
754.25	3590.09
754.43	3272.65
754.61	3086.29
754.79	3522.51
754.97	3383.24
755.14	3397.58
755.32	3153.87
755.50	3526.60
755.68	3467.21
755.86	3092.43
756.04	3139.54
756.22	3016.66
756.40	3487.69
756.57	3420.11
756.75	3133.39
756.93	3647.43
757.11	3631.05
757.29	3082.19
757.47	3139.54
757.65	3164.11
757.82	2953.17
758.00	3078.10
758.18	3110.86
758.36	3266.51
758.54	3837.89
758.72	3035.09
758.90	3293.13
759.07	3483.59
759.25	3237.84
759.43	3272.65
759.61	3061.71
759.79	4669.37
759.97	3672.01
760.15	3250.13
760.32	3248.08
760.50	3461.07
760.68	3706.82
760.86	3145.68
761.04	3438.54
761.22	3614.66
761.39	3514.31
761.57	3352.52
761.75	3149.78
761.93	3559.37
762.11	3409.87
762.28	3344.33
762.46	3155.92
762.64	3647.43
762.82	3147.73
763.00	3184.59
763.18	3385.29
763.35	3205.07
763.53	3569.61
763.71	3327.95
763.89	3166.16
764.07	3475.40
764.24	3520.46
764.42	3295.18
764.60	3225.55
764.78	3475.40
764.96	3631.05
765.13	3401.68
765.31	3082.19
765.49	3598.28
765.67	3309.52
765.84	3209.17
766.02	3059.67
766.20	3123.15
766.38	3520.46
766.56	3280.85
766.73	3280.85
766.91	3420.11
767.09	3479.50
767.27	3250.13
767.44	3008.47
767.62	3569.61
767.80	3510.22
767.98	3123.15
768.15	3282.89
768.33	3663.82
768.51	3661.77
768.69	3375.05
768.87	3166.16
769.04	3413.96
769.22	4005.83
769.40	3332.05
769.58	3315.66
769.75	3538.89
769.93	3635.14
770.11	3252.17
770.28	3074.00
770.46	3715.02
770.64	3567.56
770.82	3250.13
770.99	3119.06
771.17	3604.42
771.35	3336.14
771.53	3297.23
771.70	3182.54
771.88	3508.17
772.06	3405.77
772.23	3174.35
772.41	3248.08
772.59	3332.05
772.77	3264.46
772.94	3274.70
773.12	3280.85
773.30	3270.61
773.47	3499.98
773.65	3037.14
773.83	3366.86
774.01	3459.02
774.18	2996.18
774.36	3170.26
774.54	3082.19
774.71	3461.07
774.89	3157.97
775.07	3094.48
775.24	3243.98
775.42	3295.18
775.60	3870.66
775.78	3186.64
775.95	3106.77
776.13	3129.30
776.31	3018.71
776.48	3393.48
776.66	3364.81
776.84	3440.59
777.01	3168.21
777.19	3172.30
777.37	3155.92
777.54	3575.75
777.72	3887.04
777.90	3272.65
778.07	3188.69
778.25	4157.38
778.43	3629.00
778.60	3162.06
778.78	3303.37
778.96	3717.06
779.13	3233.74
779.31	3203.02
779.49	3286.99
779.66	3510.22
779.84	3364.81
780.01	3217.36
780.19	3198.93
780.37	3686.34
780.54	3575.75
780.72	3020.75
780.90	3164.11
781.07	3332.05
781.25	3270.61
781.43	3313.61
781.60	3174.35
781.78	3622.86
781.95	3475.40
782.13	3246.03
782.31	3155.92
782.48	3078.10
782.66	3366.86
782.83	3422.16
783.01	3319.76
783.19	3549.13
783.36	3364.81
783.54	3117.01
783.72	3235.79
783.89	3342.28
784.07	3459.02
784.24	3289.04
784.42	3334.09
784.60	3450.83
784.77	3534.79
784.95	2955.22
785.12	3266.51
785.30	3459.02
785.47	3194.83
785.65	3069.91
785.83	3233.74
786.00	3311.57
786.18	3481.55
786.35	3092.43
786.53	3108.82
786.71	3682.25
786.88	3594.19
787.06	3325.90
787.23	3205.07
787.41	3186.64
787.58	3338.19
787.76	3155.92
787.94	3303.37
788.11	3405.77
788.29	3225.55
788.46	3278.80
788.64	3067.86
788.81	3426.25
788.99	3205.07
789.16	3166.16
789.34	3192.78
789.52	3342.28
789.69	3307.47
789.87	3127.25
790.04	3213.26
790.22	3495.88
790.39	3913.67
790.57	3102.67
790.74	3153.87
790.92	3686.34
791.09	3074.00
791.27	3272.65
791.44	3291.09
791.62	3393.48
791.79	3471.31
791.97	3266.51
792.15	3489.74
792.32	3557.32
792.50	3600.33
792.67	3364.81
792.85	3510.22
793.02	3446.73
793.20	3327.95
793.37	3157.97
793.55	3151.82
793.72	3151.82
793.90	3598.28
794.07	3143.63
794.25	3102.67
794.42	3532.75
794.60	3444.68
794.77	3262.41
794.95	3364.81
795.12	3555.27
795.30	3395.53
795.47	3000.27
795.65	3516.36
795.82	3516.36
796.00	3229.65
796.17	3223.50
796.34	3119.06
796.52	3483.59
796.69	3606.47
796.87	3319.76
797.04	3387.34
797.22	3712.97
797.39	3459.02
797.57	3379.15
797.74	3192.78
797.92	3502.03
798.09	3239.89
798.27	3528.65
798.44	3164.11
798.62	3270.61
798.79	3483.59
798.96	3422.16
799.14	3207.12
799.31	4073.41
799.49	3483.59
799.66	3188.69
799.84	3272.65
800.01	3192.78
800.19	3418.06
800.36	2983.89
800.53	3307.47
800.71	3540.94
800.88	3694.54
801.06	3143.63
801.23	3172.30
801.41	3395.53
801.58	3325.90
801.75	3088.34
801.93	3196.88
802.10	3559.37
802.28	3360.72
802.45	3250.13
802.63	3295.18
802.80	3731.40
802.97	3321.81
803.15	3164.11
803.32	3114.96
803.50	3334.09
803.67	3211.22
803.84	3198.93
804.02	3303.37
804.19	3286.99
804.37	2932.69
804.54	2969.55
804.71	3147.73
804.89	3368.91
805.06	3284.94
805.24	3092.43
805.41	2981.84
805.58	3233.74
805.76	3925.96
805.93	3057.62
806.10	3303.37
806.28	3581.90
806.45	3434.44
806.63	3389.39
806.80	3291.09
806.97	3534.79
807.15	3479.50
807.32	3305.42
807.49	3188.69
807.67	3250.13
807.84	3479.50
808.01	3065.81
808.19	3346.38
808.36	3975.11
808.54	3375.05
808.71	3237.84
808.88	3164.11
809.06	3792.84
809.23	3786.69
809.40	3209.17
809.58	3194.83
809.75	3395.53
809.92	3203.02
810.10	3444.68
810.27	3166.16
810.44	3547.08
810.62	3497.93
810.79	3225.55
810.96	3250.13
811.14	3293.13
811.31	3557.32
811.48	3416.01
811.66	3297.23
811.83	3624.90
812.00	3495.88
812.18	3286.99
812.35	3532.75
812.52	3395.53
812.69	3303.37
812.87	3123.15
813.04	3131.34
813.21	3385.29
813.39	3239.89
813.56	3078.10
813.73	3499.98
813.91	3055.57
814.08	3534.79
814.25	3229.65
814.42	3022.80
814.60	3413.96
814.77	3461.07
814.94	3125.20
815.12	3289.04
815.29	3733.45
815.46	3352.52
815.63	3143.63
815.81	3157.97
815.98	3362.76
816.15	3475.40
816.33	3311.57
816.50	3262.41
816.67	3438.54
816.84	3409.87
817.02	3055.57
817.19	3217.36
817.36	3549.13
817.53	3463.12
817.71	3076.05
817.88	3248.08
818.05	3418.06
818.22	3442.64
818.40	3399.63
818.57	3209.17
818.74	3575.75
818.91	3403.72
819.09	3356.62
819.26	3311.57
819.43	3299.28
819.60	3311.57
819.78	3311.57
819.95	3188.69
820.12	3215.31
820.29	3758.02
820.47	3487.69
820.64	3151.82
820.81	3147.73
820.98	3295.18
821.15	3252.17
821.33	3325.90
821.50	3112.91
821.67	3524.55
821.84	3135.44
822.02	3205.07
822.19	3573.71
822.36	3289.04
822.53	3096.53
822.70	3088.34
822.88	3391.44
823.05	3807.17
823.22	3239.89
823.39	3198.93
823.56	3348.43
823.74	3798.98
823.91	3078.10
824.08	3059.67
824.25	3155.92
824.42	3735.50
824.60	3096.53
824.77	3352.52
824.94	3397.58
825.11	3504.07
825.28	2977.75
825.45	3389.39
825.63	3436.49
825.80	3227.60
825.97	3235.79
826.14	3262.41
826.31	3123.15
826.48	3499.98
826.66	3162.06
826.83	3151.82
827.00	3338.19
827.17	3170.26
827.34	3170.26
827.51	3137.49
827.69	3352.52
827.86	3074.00
828.03	3295.18
828.20	3325.90
828.37	3307.47
828.54	3536.84
828.71	3084.24
828.89	3252.17
829.06	3416.01
829.23	3612.62
829.40	3133.39
829.57	3096.53
829.74	3577.80
829.91	3299.28
830.09	3137.49
830.26	3438.54
830.43	3755.97
830.60	3409.87
830.77	3303.37
830.94	3352.52
831.11	3583.95
831.28	3286.99
831.46	3297.23
831.63	3164.11
831.80	3633.10
831.97	3258.32
832.14	3280.85
832.31	3135.44
832.48	3381.20
832.65	3647.43
832.82	3321.81
832.99	3229.65
833.17	3237.84
833.34	3688.39
833.51	3127.25
833.68	2953.17
833.85	3667.91
834.02	3151.82
834.19	3145.68
834.36	3299.28
834.53	3534.79
834.70	3655.62
834.87	3188.69
835.04	2957.27
835.22	3258.32
835.39	3305.42
835.56	2994.13
835.73	2938.84
835.90	3549.13
836.07	3182.54
836.24	3139.54
836.41	3033.04
836.58	3301.33
836.75	3631.05
836.92	3012.56
837.09	2924.50
837.26	3520.46
837.43	3479.50
837.60	3043.28
837.77	3055.57
837.94	3639.24
838.12	3641.29
838.29	2893.78
838.46	2975.70
838.63	3186.64
838.80	3710.92
838.97	3076.05
839.14	3030.99
839.31	3540.94
839.48	3606.47
839.65	2977.75
839.82	3162.06
839.99	3450.83
840.16	3485.64
840.33	2967.51
840.50	3139.54
840.67	3319.76
840.84	2953.17
841.01	3039.19
841.18	2996.18
841.35	3387.34
841.52	3610.57
841.69	3303.37
841.86	2963.41
842.03	3377.10
842.20	3590.09
842.37	2936.79
842.54	3057.62
842.71	3473.36
842.88	3123.15
843.05	2975.70
843.22	2947.03
843.39	3600.33
843.56	3291.09
843.73	2983.89
843.90	3078.10
844.07	3452.88
844.24	3688.39
844.41	3098.58
844.58	2959.31
844.75	3395.53
844.92	3567.56
845.09	3114.96
845.26	3082.19
845.43	3594.19
845.60	3319.76
845.77	3162.06
845.94	3119.06
846.10	3704.78
846.27	3182.54
846.44	2832.34
846.61	2910.16
846.78	3512.27
846.95	3622.86
847.12	3020.75
847.29	3041.23
847.46	3196.88
847.63	3602.38
847.80	2930.64
847.97	3010.51
848.14	3856.33
848.31	3395.53
848.48	2901.97
848.65	3006.42
848.82	3375.05
848.98	3983.30
849.15	3110.86
849.32	3078.10
849.49	3706.82
849.66	3434.44
849.83	2973.65
850.00	2967.51
850.17	3616.71
850.34	3381.20
850.51	2992.08
850.68	3051.47
850.85	3913.67
851.01	3467.21
851.18	3008.47
851.35	3043.28
851.52	3588.04
851.69	3827.65
851.86	2844.63
852.03	2959.31
852.20	3606.47
852.37	3399.63
852.53	2893.78
852.70	2975.70
852.87	3471.31
853.04	3590.09
853.21	3033.04
853.38	3377.10
853.55	3700.68
853.72	3637.19
853.89	2885.59
854.05	2953.17
854.22	3477.45
854.39	3346.38
854.56	2961.36
854.73	3172.30
854.90	3243.98
855.07	3385.29
855.23	2854.87
855.40	2934.74
855.57	3356.62
855.74	3010.51
855.91	3166.16
856.08	2906.07
856.25	3086.29
856.41	3348.43
856.58	3012.56
856.75	3028.95
856.92	3239.89
857.09	3712.97
857.26	2861.01
857.42	3051.47
857.59	3622.86
857.76	3350.48
857.93	3010.51
858.10	3043.28
858.27	3162.06
858.43	3405.77
858.60	3026.90
858.77	2861.01
858.94	3356.62
859.11	3721.16
859.27	3106.77
859.44	2901.97
859.61	3885.00
859.78	3583.95
859.95	2961.36
860.12	2901.97
860.28	3870.66
860.45	3805.13
860.62	2906.07
860.79	3106.77
860.95	3352.52
861.12	3264.46
861.29	2928.60
861.46	3016.66
861.63	3391.44
861.79	3524.55
861.96	2889.68
862.13	3051.47
862.30	3717.06
862.47	3262.41
862.63	2928.60
862.80	3117.01
862.97	3665.86
863.14	3448.78
863.30	3071.95
863.47	2977.75
863.64	3817.41
863.81	3422.16
863.97	2865.11
864.14	3094.48
864.31	3422.16
864.48	3469.26
864.65	3016.66
864.81	3084.24
864.98	3524.55
865.15	3647.43
865.32	3086.29
865.48	3067.86
865.65	3827.65
865.82	3303.37
865.98	3192.78
866.15	3057.62
866.32	3418.06
866.49	3403.72
866.65	3160.02
866.82	3041.23
866.99	3440.59
867.16	3286.99
867.32	3035.09
867.49	2979.79
867.66	3401.68
867.83	3401.68
867.99	2971.60
868.16	2985.94
868.33	3151.82
868.49	3434.44
868.66	3033.04
868.83	3119.06
868.99	3424.20
869.16	3471.31
869.33	3219.41
869.50	3168.21
869.66	3485.64
869.83	3385.29
870.00	2918.36
870.16	3112.91
870.33	3385.29
870.50	3626.95
870.66	3119.06
870.83	3041.23
871.00	3424.20
871.17	3493.83
871.33	3051.47
871.50	2944.98
871.67	3411.92
871.83	3360.72
872.00	3151.82
872.17	3024.85
872.33	3862.47
872.50	3629.00
872.67	3018.71
872.83	2996.18
873.00	3456.97
873.17	3424.20
873.33	3047.38
873.50	3051.47
873.67	3221.45
873.83	3297.23
874.00	3051.47
874.16	3196.88
874.33	3393.48
874.50	3172.30
874.66	2953.17
874.83	3194.83
875.00	3626.95
875.16	3620.81
875.33	3125.20
875.50	2803.67
875.66	3393.48
875.83	3475.40
875.99	3117.01
876.16	3147.73
876.33	3293.13
876.49	3393.48
876.66	3069.91
876.83	3067.86
876.99	3051.47
877.16	3315.66
877.32	3000.27
877.49	3147.73
877.66	3493.83
877.82	3723.21
877.99	3092.43
878.15	3452.88
878.32	3459.02
878.49	3559.37
878.65	3143.63
878.82	3289.04
878.98	3305.42
879.15	3631.05
879.32	3229.65
879.48	3280.85
879.65	3401.68
879.81	3467.21
879.98	3065.81
880.15	3139.54
880.31	3579.85
880.48	3280.85
880.64	3174.35
880.81	3172.30
880.97	3815.37
881.14	3745.73
881.31	2922.45
881.47	3157.97
881.64	3346.38
881.80	3102.67
881.97	3243.98
882.13	3004.37
882.30	3127.25
882.47	3282.89
882.63	3051.47
882.80	2959.31
882.96	3356.62
883.13	3643.34
883.29	3051.47
883.46	3010.51
883.62	3925.96
883.79	3368.91
883.95	3172.30
884.12	2949.08
884.29	3690.44
884.45	3403.72
884.62	3045.33
884.78	2893.78
884.95	3794.89
885.11	3248.08
885.28	3074.00
885.44	3018.71
885.61	3661.77
885.77	3710.92
885.94	3178.45
886.10	3088.34
886.27	3467.21
886.43	3807.17
886.60	3213.26
886.76	3096.53
886.93	3237.84
887.09	3471.31
887.26	2850.77
887.42	3121.10
887.59	3708.87
887.75	3950.53
887.92	3239.89
888.08	3207.12
888.25	3909.57
888.41	3577.80
888.58	3129.30
888.74	2963.41
888.91	3354.57
>>>>>End Processed Spectral Data<<<<<
