SpectraSuite Data File
++++++++++++++++++++++++++++++++++++
Date: Fri May 06 09:28:57 CEST 2016
User: root
Dark Spectrum Present: No
Reference Spectrum Present: No
Number of Sampled Component Spectra: 1
Spectrometers: USB4C02835
Integration Time (usec): 100000 (USB4C02835)
Spectra Averaged: 1 (USB4C02835)
Boxcar Smoothing: 0 (USB4C02835)
Correct for Electrical Dark: No (USB4C02835)
Strobe/Lamp Enabled: No (USB4C02835)
Correct for Detector Non-linearity: No (USB4C02835)
Correct for Stray Light: No (USB4C02835)
Number of Pixels in Processed Spectrum: 3648
>>>>>Begin Processed Spectral Data<<<<<
177.47	2291.68
177.69	2291.68
177.91	2291.68
178.13	2346.97
178.36	2371.55
178.58	3092.43
178.80	3295.18
179.02	3155.92
179.24	3215.31
179.46	2885.59
179.68	2934.74
179.90	3452.88
180.13	3416.01
180.35	2805.72
180.57	2942.93
180.79	3565.51
181.01	3456.97
181.23	2887.64
181.45	3135.44
181.67	3528.65
181.90	3565.51
182.12	3100.62
182.34	2877.40
182.56	3633.10
182.78	3624.90
183.00	2990.03
183.22	2959.31
183.44	3074.00
183.66	4063.17
183.89	3114.96
184.11	3028.95
184.33	3629.00
184.55	3674.06
184.77	2938.84
184.99	2934.74
185.21	3340.24
185.43	3954.63
185.65	3002.32
185.87	2916.31
186.10	3944.39
186.32	4026.31
186.54	3133.39
186.76	3092.43
186.98	3737.54
187.20	3456.97
187.42	2955.22
187.64	2930.64
187.86	3547.08
188.08	3745.73
188.30	2856.92
188.52	3090.38
188.75	3729.35
188.97	3762.12
189.19	2906.07
189.41	2818.00
189.63	3592.14
189.85	3434.44
190.07	2904.02
190.29	2811.86
190.51	3561.42
190.73	3223.50
190.95	3221.45
191.17	2983.89
191.39	3155.92
191.61	3395.53
191.84	2944.98
192.06	3147.73
192.28	3121.10
192.50	4206.53
192.72	3121.10
192.94	3045.33
193.16	3626.95
193.38	3522.51
193.60	2809.81
193.82	3211.22
194.04	3710.92
194.26	3473.36
194.48	3028.95
194.70	2961.36
194.92	3377.10
195.14	3659.72
195.36	2938.84
195.58	3010.51
195.80	3413.96
196.02	3362.76
196.24	2824.15
196.46	3033.04
196.69	3385.29
196.91	4061.12
197.13	3026.90
197.35	3055.57
197.57	3891.14
197.79	3631.05
198.01	3084.24
198.23	2994.13
198.45	3567.56
198.67	3254.22
198.89	2850.77
199.11	3063.76
199.33	3268.56
199.55	3047.38
199.77	2867.16
199.99	3127.25
200.21	3321.81
200.43	3506.12
200.65	2783.19
200.87	2744.28
201.09	3485.64
201.31	3321.81
201.53	3033.04
201.75	3022.80
201.97	3553.23
202.19	3397.58
202.41	2985.94
202.63	3016.66
202.85	3647.43
203.07	3440.59
203.29	2996.18
203.51	2852.82
203.73	3313.61
203.95	4087.75
204.17	2947.03
204.39	3074.00
204.61	3512.27
204.83	3368.91
205.05	3131.34
205.27	2994.13
205.49	3932.10
205.71	3348.43
205.93	2809.81
206.15	2914.26
206.37	3456.97
206.59	3459.02
206.81	2756.57
207.03	2869.20
207.25	3348.43
207.47	3575.75
207.69	2983.89
207.91	3278.80
208.13	3796.93
208.34	3215.31
208.56	2959.31
208.78	2992.08
209.00	3401.68
209.22	3262.41
209.44	2928.60
209.66	2914.26
209.88	3524.55
210.10	3377.10
210.32	2985.94
210.54	3035.09
210.76	3381.20
210.98	3762.12
211.20	2869.20
211.42	3090.38
211.64	3663.82
211.86	3518.41
212.08	3065.81
212.30	2928.60
212.52	3295.18
212.74	3499.98
212.96	3143.63
213.17	3041.23
213.39	3647.43
213.61	3897.28
213.83	2959.31
214.05	2879.44
214.27	3721.16
214.49	3211.22
214.71	2934.74
214.93	3108.82
215.15	3542.99
215.37	3719.11
215.59	2813.91
215.81	2979.79
216.03	3706.82
216.24	3545.03
216.46	3012.56
216.68	2983.89
216.90	3676.10
217.12	3663.82
217.34	2883.54
217.56	3123.15
217.78	3755.97
218.00	3602.38
218.22	3006.42
218.44	3182.54
218.66	3459.02
218.87	3790.79
219.09	2942.93
219.31	2996.18
219.53	3436.49
219.75	3403.72
219.97	2924.50
220.19	2992.08
220.41	3422.16
220.63	3839.94
220.85	2940.88
221.06	2901.97
221.28	3839.94
221.50	3647.43
221.72	2934.74
221.94	2863.06
222.16	3510.22
222.38	3604.42
222.60	2947.03
222.82	3024.85
223.03	3598.28
223.25	3223.50
223.47	2979.79
223.69	3184.59
223.91	3616.71
224.13	3448.78
224.35	2928.60
224.57	3215.31
224.78	3622.86
225.00	3225.55
225.22	3078.10
225.44	2877.40
225.66	3733.45
225.88	3377.10
226.10	3127.25
226.32	2944.98
226.53	3770.31
226.75	3356.62
226.97	3047.38
227.19	3016.66
227.41	3278.80
227.63	3370.96
227.85	2789.33
228.06	3033.04
228.28	3481.55
228.50	3631.05
228.72	2717.65
228.94	2836.44
229.16	3024.85
229.37	3239.89
229.59	2901.97
229.81	3233.74
230.03	3338.19
230.25	3225.55
230.47	2727.89
230.69	2887.64
230.90	3635.14
231.12	3323.85
231.34	3110.86
231.56	2992.08
231.78	3295.18
232.00	3469.26
232.21	2959.31
232.43	2977.75
232.65	3012.56
232.87	3567.56
233.09	2852.82
233.30	2852.82
233.52	3626.95
233.74	3479.50
233.96	2869.20
234.18	3059.67
234.40	3489.74
234.61	3973.06
234.83	2824.15
235.05	2914.26
235.27	4034.50
235.49	3753.93
235.70	2867.16
235.92	2959.31
236.14	3583.95
236.36	4018.11
236.58	2826.20
236.79	2987.99
237.01	3444.68
237.23	3403.72
237.45	3217.36
237.67	2910.16
237.88	3598.28
238.10	3921.86
238.32	2861.01
238.54	2967.51
238.76	3352.52
238.97	3350.48
239.19	2916.31
239.41	3024.85
239.63	3692.49
239.85	3356.62
240.06	3006.42
240.28	2934.74
240.50	3696.58
240.72	3489.74
240.93	2842.58
241.15	3123.15
241.37	3360.72
241.59	3784.65
241.81	3020.75
242.02	3018.71
242.24	3448.78
242.46	3499.98
242.68	2750.42
242.89	2877.40
243.11	3635.14
243.33	3416.01
243.55	2938.84
243.76	2977.75
243.98	3379.15
244.20	3385.29
244.42	2918.36
244.64	2979.79
244.85	3164.11
245.07	3260.37
245.29	2940.88
245.51	3016.66
245.72	3489.74
245.94	3676.10
246.16	2928.60
246.38	3037.14
246.59	3383.24
246.81	3336.14
247.03	2856.92
247.24	2799.57
247.46	3422.16
247.68	3456.97
247.90	2836.44
248.11	2983.89
248.33	3594.19
248.55	3467.21
248.77	2992.08
248.98	3114.96
249.20	3760.07
249.42	3469.26
249.64	2967.51
249.85	2922.45
250.07	3272.65
250.29	3655.62
250.50	2959.31
250.72	2932.69
250.94	3571.66
251.16	3934.15
251.37	2965.46
251.59	3096.53
251.81	3579.85
252.02	3809.22
252.24	2881.49
252.46	3071.95
252.68	3313.61
252.89	3354.57
253.11	2928.60
253.33	3151.82
253.54	3766.21
253.76	3174.35
253.98	2899.92
254.20	2838.48
254.41	3119.06
254.63	3332.05
254.85	2818.00
255.06	3033.04
255.28	3569.61
255.50	3405.77
255.71	2861.01
255.93	2881.49
256.15	3407.82
256.36	3590.09
256.58	2813.91
256.80	2922.45
257.02	3418.06
257.23	3409.87
257.45	2987.99
257.67	3088.34
257.88	3409.87
258.10	3540.94
258.32	2928.60
258.53	3020.75
258.75	3825.61
258.97	3362.76
259.18	2807.77
259.40	2887.64
259.62	3923.91
259.83	3721.16
260.05	2981.84
260.27	3942.34
260.48	3657.67
260.70	3184.59
260.92	2815.96
261.13	3041.23
261.35	3471.31
261.57	3581.90
261.78	2815.96
262.00	2951.12
262.22	3606.47
262.43	3270.61
262.65	2928.60
262.86	3026.90
263.08	3975.11
263.30	3420.11
263.51	2766.81
263.73	2914.26
263.95	3700.68
264.16	3231.69
264.38	2832.34
264.60	2869.20
264.81	3520.46
265.03	3667.91
265.25	3508.17
265.46	2930.64
265.68	3782.60
265.89	3551.18
266.11	2844.63
266.33	2928.60
266.54	3743.69
266.76	3598.28
266.98	2979.79
267.19	3176.40
267.41	3731.40
267.62	3401.68
267.84	2731.99
268.06	3069.91
268.27	3516.36
268.49	3698.63
268.70	3065.81
268.92	2924.50
269.14	3231.69
269.35	3094.48
269.57	3090.38
269.79	2987.99
270.00	3358.67
270.22	3891.14
270.43	2889.68
270.65	2779.09
270.87	3493.83
271.08	3676.10
271.30	3043.28
271.51	2990.03
271.73	3461.07
271.95	3805.13
272.16	2838.48
272.38	3155.92
272.59	3407.82
272.81	3557.32
273.02	2840.53
273.24	3069.91
273.46	3680.20
273.67	3157.97
273.89	2840.53
274.10	2912.21
274.32	3639.24
274.54	3551.18
274.75	3057.62
274.97	3117.01
275.18	3635.14
275.40	3549.13
275.61	2951.12
275.83	3180.50
276.05	3248.08
276.26	3403.72
276.48	3117.01
276.69	3215.31
276.91	3252.17
277.12	3735.50
277.34	3198.93
277.55	3227.60
277.77	3465.16
277.99	3305.42
278.20	3153.87
278.42	3026.90
278.63	3260.37
278.85	3254.22
279.06	3086.29
279.28	3215.31
279.49	3729.35
279.71	3694.54
279.93	3119.06
280.14	3090.38
280.36	3289.04
280.57	3684.30
280.79	3188.69
281.00	2930.64
281.22	3297.23
281.43	3725.26
281.65	2875.35
281.86	2985.94
282.08	3504.07
282.29	3868.61
282.51	2983.89
282.73	3008.47
282.94	3133.39
283.16	3653.58
283.37	3274.70
283.59	3090.38
283.80	3557.32
284.02	3477.45
284.23	3106.77
284.45	3143.63
284.66	3260.37
284.88	3344.33
285.09	3018.71
285.31	3178.45
285.52	3499.98
285.74	3153.87
285.95	3278.80
286.17	3170.26
286.38	3721.16
286.60	3348.43
286.81	3053.52
287.03	3049.43
287.24	3401.68
287.46	3565.51
287.67	3282.89
287.89	3301.33
288.10	3420.11
288.32	3495.88
288.53	3282.89
288.75	3200.98
288.96	3678.15
289.18	3342.28
289.39	3037.14
289.61	3221.45
289.82	3901.38
290.04	3907.52
290.25	2959.31
290.47	3170.26
290.68	3364.81
290.90	3704.78
291.11	2877.40
291.33	3286.99
291.54	3272.65
291.76	3385.29
291.97	3225.55
292.18	3248.08
292.40	3424.20
292.61	3319.76
292.83	3385.29
293.04	3041.23
293.26	3422.16
293.47	3368.91
293.69	3114.96
293.90	3041.23
294.12	3751.88
294.33	3495.88
294.55	3233.74
294.76	3274.70
294.97	3798.98
295.19	3846.09
295.40	3151.82
295.62	3250.13
295.83	3655.62
296.05	3368.91
296.26	3348.43
296.48	3104.72
296.69	3444.68
296.90	3436.49
297.12	3262.41
297.33	3260.37
297.55	3446.73
297.76	3590.09
297.98	3168.21
298.19	3305.42
298.41	3442.64
298.62	3270.61
298.83	3293.13
299.05	3196.88
299.26	3383.24
299.48	3403.72
299.69	3209.17
299.90	3061.71
300.12	3291.09
300.33	3663.82
300.55	3106.77
300.76	3147.73
300.98	3200.98
301.19	3635.14
301.40	3069.91
301.62	3100.62
301.83	3674.06
302.05	3502.03
302.26	3151.82
302.47	3211.22
302.69	3143.63
302.90	3409.87
303.12	2934.74
303.33	3301.33
303.54	3913.67
303.76	3362.76
303.97	3020.75
304.19	3352.52
304.40	3213.26
304.61	3626.95
304.83	3125.20
305.04	3082.19
305.26	3565.51
305.47	3321.81
305.68	3100.62
305.90	3002.32
306.11	3727.30
306.33	3432.40
306.54	3004.37
306.75	3110.86
306.97	3119.06
307.18	3241.93
307.39	3086.29
307.61	3221.45
307.82	3436.49
308.04	3594.19
308.25	2992.08
308.46	3231.69
308.68	3542.99
308.89	3360.72
309.10	3243.98
309.32	3151.82
309.53	3375.05
309.74	3559.37
309.96	3033.04
310.17	3174.35
310.39	3336.14
310.60	3577.80
310.81	3131.34
311.03	3061.71
311.24	3655.62
311.45	3442.64
311.67	3434.44
311.88	3229.65
312.09	3467.21
312.31	3284.94
312.52	2996.18
312.73	3074.00
312.95	3104.72
313.16	3276.75
313.37	3219.41
313.59	3278.80
313.80	3663.82
314.01	3768.26
314.23	3117.01
314.44	3010.51
314.65	3180.50
314.87	3250.13
315.08	3090.38
315.29	3178.45
315.51	3286.99
315.72	3086.29
315.93	3205.07
316.15	3219.41
316.36	3370.96
316.57	3510.22
316.79	3084.24
317.00	3041.23
317.21	3559.37
317.43	3227.60
317.64	3131.34
317.85	2967.51
318.07	3211.22
318.28	3305.42
318.49	3151.82
318.70	3303.37
318.92	3448.78
319.13	3422.16
319.34	3239.89
319.56	3049.43
319.77	3483.59
319.98	3520.46
320.20	3352.52
320.41	3295.18
320.62	3540.94
320.83	3225.55
321.05	3266.51
321.26	3178.45
321.47	3485.64
321.69	3731.40
321.90	2979.79
322.11	3043.28
322.32	3561.42
322.54	3811.27
322.75	3172.30
322.96	4243.39
323.18	3078.10
323.39	3016.66
323.60	3092.43
323.81	3258.32
324.03	3313.61
324.24	3438.54
324.45	3157.97
324.66	3108.82
324.88	3639.24
325.09	3731.40
325.30	3076.05
325.52	3024.85
325.73	3469.26
325.94	3217.36
326.15	2992.08
326.37	2961.36
326.58	3622.86
326.79	3778.50
327.00	3094.48
327.22	3121.10
327.43	3405.77
327.64	3172.30
327.85	3262.41
328.07	3133.39
328.28	3901.38
328.49	3397.58
328.70	3114.96
328.92	3168.21
329.13	3407.82
329.34	3567.56
329.55	3344.33
329.76	3282.89
329.98	3428.30
330.19	3712.97
330.40	3270.61
330.61	3223.50
330.83	3694.54
331.04	3237.84
331.25	3135.44
331.46	3192.78
331.68	3172.30
331.89	3643.34
332.10	3092.43
332.31	2977.75
332.52	3426.25
332.74	3700.68
332.95	2873.30
333.16	3110.86
333.37	3629.00
333.58	3256.27
333.80	3112.91
334.01	2885.59
334.22	3409.87
334.43	3305.42
334.64	3047.38
334.86	3041.23
335.07	3248.08
335.28	3782.60
335.49	3010.51
335.70	3209.17
335.92	3758.02
336.13	3975.11
336.34	3104.72
336.55	3016.66
336.76	3569.61
336.98	3090.38
337.19	3071.95
337.40	3211.22
337.61	3968.96
337.82	3403.72
338.04	3248.08
338.25	2981.84
338.46	3452.88
338.67	3393.48
338.88	3069.91
339.09	3002.32
339.31	3387.34
339.52	3188.69
339.73	3076.05
339.94	3149.78
340.15	3590.09
340.36	3309.52
340.58	3088.34
340.79	3057.62
341.00	3563.47
341.21	3194.83
341.42	3362.76
341.63	3106.77
341.85	3717.06
342.06	3579.85
342.27	3094.48
342.48	3278.80
342.69	3239.89
342.90	3536.84
343.12	3551.18
343.33	2959.31
343.54	3618.76
343.75	3676.10
343.96	3147.73
344.17	3041.23
344.38	3454.92
344.60	3254.22
344.81	2994.13
345.02	3059.67
345.23	3692.49
345.44	3995.59
345.65	3135.44
345.86	3227.60
346.07	3483.59
346.29	3344.33
346.50	3213.26
346.71	3178.45
346.92	3688.39
347.13	3977.16
347.34	3256.27
347.55	2996.18
347.76	3581.90
347.98	3168.21
348.19	3157.97
348.40	3305.42
348.61	3397.58
348.82	3782.60
349.03	3205.07
349.24	3008.47
349.45	3919.81
349.66	3024.85
349.88	3071.95
350.09	3035.09
350.30	3866.56
350.51	3760.07
350.72	3262.41
350.93	3166.16
351.14	3403.72
351.35	3549.13
351.56	3160.02
351.77	3143.63
351.99	3542.99
352.20	3694.54
352.41	3209.17
352.62	2922.45
352.83	3395.53
353.04	3409.87
353.25	3061.71
353.46	3123.15
353.67	3731.40
353.88	2994.13
354.09	3024.85
354.30	3186.64
354.52	3565.51
354.73	3395.53
354.94	3026.90
355.15	3155.92
355.36	3858.37
355.57	3274.70
355.78	3049.43
355.99	3108.82
356.20	3334.09
356.41	3770.31
356.62	3188.69
356.83	3184.59
357.04	3762.12
357.25	3147.73
357.46	3119.06
357.68	3086.29
357.89	3164.11
358.10	3403.72
358.31	3049.43
358.52	3149.78
358.73	3217.36
358.94	3215.31
359.15	3067.86
359.36	3082.19
359.57	3612.62
359.78	3346.38
359.99	3342.28
360.20	3045.33
360.41	3438.54
360.62	3637.19
360.83	3217.36
361.04	3182.54
361.25	3524.55
361.46	3706.82
361.67	3170.26
361.88	3145.68
362.09	3657.67
362.30	3483.59
362.51	3049.43
362.72	3094.48
362.93	3600.33
363.14	3518.41
363.35	3205.07
363.56	3008.47
363.78	3741.64
363.99	3661.77
364.20	3114.96
364.41	3149.78
364.62	3801.03
364.83	3534.79
365.04	3104.72
365.25	3190.74
365.46	3940.29
365.67	3385.29
365.88	3215.31
366.09	3086.29
366.30	3358.67
366.51	3418.06
366.72	3112.91
366.93	3096.53
367.14	3510.22
367.35	3708.87
367.56	3160.02
367.77	3223.50
367.98	3446.73
368.18	3559.37
368.39	3270.61
368.60	3043.28
368.81	3512.27
369.02	3592.14
369.23	3102.67
369.44	3004.37
369.65	3426.25
369.86	3590.09
370.07	3180.50
370.28	3016.66
370.49	3467.21
370.70	3508.17
370.91	3074.00
371.12	2975.70
371.33	3753.93
371.54	3278.80
371.75	3157.97
371.96	2854.87
372.17	3508.17
372.38	3350.48
372.59	3074.00
372.80	3096.53
373.01	3418.06
373.22	3540.94
373.43	3035.09
373.64	2944.98
373.85	3688.39
374.06	3819.46
374.26	3262.41
374.47	3270.61
374.68	3772.36
374.89	3512.27
375.10	3000.27
375.31	3229.65
375.52	3524.55
375.73	3450.83
375.94	2994.13
376.15	3151.82
376.36	3241.93
376.57	3317.71
376.78	3166.16
376.99	3172.30
377.20	3712.97
377.40	3360.72
377.61	3434.44
377.82	3182.54
378.03	3721.16
378.24	3563.47
378.45	3174.35
378.66	3196.88
378.87	3172.30
379.08	3129.30
379.29	3184.59
379.50	3241.93
379.71	3442.64
379.91	3618.76
380.12	3114.96
380.33	3276.75
380.54	3344.33
380.75	3373.00
380.96	3114.96
381.17	3139.54
381.38	3422.16
381.59	3418.06
381.80	3137.49
382.00	3270.61
382.21	3504.07
382.42	3807.17
382.63	3461.07
382.84	3235.79
383.05	3618.76
383.26	3755.97
383.47	3270.61
383.68	3127.25
383.88	3573.71
384.09	3450.83
384.30	3344.33
384.51	3231.69
384.72	3401.68
384.93	3215.31
385.14	3182.54
385.35	3377.10
385.55	3098.58
385.76	3696.58
385.97	3137.49
386.18	2987.99
386.39	3164.11
386.60	3286.99
386.81	3090.38
387.02	3014.61
387.22	3094.48
387.43	3536.84
387.64	3131.34
387.85	3381.20
388.06	3438.54
388.27	4440.00
388.48	7174.03
388.68	11124.57
388.89	13420.34
389.10	14661.41
389.31	14247.72
389.52	11728.72
389.73	10276.71
389.93	9504.62
390.14	8257.41
390.35	7970.69
390.56	7473.04
390.77	6174.63
390.98	4757.43
391.18	3993.54
391.39	3934.15
391.60	3467.21
391.81	3493.83
392.02	3168.21
392.23	4028.35
392.43	3512.27
392.64	3276.75
392.85	3219.41
393.06	3805.13
393.27	3504.07
393.47	3008.47
393.68	3190.74
393.89	3325.90
394.10	3809.22
394.31	3082.19
394.52	3172.30
394.72	3289.04
394.93	3696.58
395.14	3008.47
395.35	3254.22
395.56	3330.00
395.76	3391.44
395.97	3106.77
396.18	3260.37
396.39	3346.38
396.60	4040.64
396.80	3581.90
397.01	3346.38
397.22	3516.36
397.43	3561.42
397.64	3094.48
397.84	3160.02
398.05	3909.57
398.26	3442.64
398.47	3239.89
398.67	3416.01
398.88	3450.83
399.09	3585.99
399.30	3168.21
399.51	3215.31
399.71	3266.51
399.92	3389.39
400.13	3237.84
400.34	3172.30
400.54	3524.55
400.75	3774.41
400.96	3321.81
401.17	3368.91
401.37	3528.65
401.58	3352.52
401.79	3069.91
402.00	3241.93
402.21	3981.25
402.41	3536.84
402.62	3399.63
402.83	3452.88
403.04	3798.98
403.24	4251.58
403.45	3293.13
403.66	3420.11
403.87	3622.86
404.07	3755.97
404.28	3370.96
404.49	3434.44
404.70	3473.36
404.90	3626.95
405.11	3129.30
405.32	3270.61
405.52	3368.91
405.73	3291.09
405.94	3121.10
406.15	3223.50
406.35	3567.56
406.56	3631.05
406.77	3178.45
406.98	3174.35
407.18	3268.56
407.39	3829.70
407.60	3123.15
407.80	3284.94
408.01	3389.39
408.22	3629.00
408.43	2998.23
408.63	3313.61
408.84	3694.54
409.05	3647.43
409.25	3012.56
409.46	3200.98
409.67	3309.52
409.88	3393.48
410.08	3149.78
410.29	3098.58
410.50	3760.07
410.70	3559.37
410.91	3057.62
411.12	3147.73
411.32	3442.64
411.53	3356.62
411.74	3069.91
411.95	3297.23
412.15	3420.11
412.36	3592.14
412.57	3266.51
412.77	3254.22
412.98	3446.73
413.19	3334.09
413.39	3274.70
413.60	3174.35
413.81	3733.45
414.01	3155.92
414.22	3157.97
414.43	3401.68
414.63	3321.81
414.84	3772.36
415.05	3186.64
415.25	2969.55
415.46	3575.75
415.67	3303.37
415.87	3233.74
416.08	3053.52
416.29	3434.44
416.49	3530.70
416.70	3194.83
416.91	3131.34
417.11	3422.16
417.32	3674.06
417.53	3239.89
417.73	3237.84
417.94	3499.98
418.15	3545.03
418.35	3272.65
418.56	3141.58
418.77	3960.77
418.97	3430.35
419.18	3264.46
419.38	2803.67
419.59	3557.32
419.80	3700.68
420.00	3090.38
420.21	3164.11
420.42	3667.91
420.62	3618.76
420.83	3168.21
421.04	3141.58
421.24	3375.05
421.45	3659.72
421.65	3151.82
421.86	3164.11
422.07	3663.82
422.27	3497.93
422.48	3084.24
422.69	3024.85
422.89	3411.92
423.10	3452.88
423.30	3123.15
423.51	3227.60
423.72	3526.60
423.92	3610.57
424.13	3043.28
424.33	3229.65
424.54	3639.24
424.75	3446.73
424.95	3389.39
425.16	3086.29
425.36	3454.92
425.57	3813.32
425.78	3307.47
425.98	3196.88
426.19	3463.12
426.39	3270.61
426.60	3219.41
426.81	3286.99
427.01	3489.74
427.22	3235.79
427.42	2969.55
427.63	3049.43
427.83	3696.58
428.04	3774.41
428.25	3162.06
428.45	3289.04
428.66	3610.57
428.86	3368.91
429.07	3168.21
429.28	3164.11
429.48	3420.11
429.69	3289.04
429.89	3231.69
430.10	3082.19
430.30	3493.83
430.51	3643.34
430.71	3106.77
430.92	3227.60
431.13	3432.40
431.33	3514.31
431.54	3264.46
431.74	3352.52
431.95	3987.40
432.15	3209.17
432.36	3123.15
432.56	3217.36
432.77	3950.53
432.98	3817.41
433.18	3203.02
433.39	3018.71
433.59	3375.05
433.80	3839.94
434.00	3342.28
434.21	3289.04
434.41	3286.99
434.62	3968.96
434.82	3053.52
435.03	3123.15
435.23	3489.74
435.44	3094.48
435.64	3125.20
435.85	3125.20
436.06	3657.67
436.26	3575.75
436.47	3151.82
436.67	3114.96
436.88	3409.87
437.08	3712.97
437.29	3319.76
437.49	3272.65
437.70	3663.82
437.90	3366.86
438.11	3375.05
438.31	3229.65
438.52	3680.20
438.72	3602.38
438.93	3504.07
439.13	3286.99
439.34	3710.92
439.54	3338.19
439.75	3254.22
439.95	3241.93
440.16	3286.99
440.36	3426.25
440.57	3239.89
440.77	3141.58
440.98	3413.96
441.18	3545.03
441.39	3059.67
441.59	3018.71
441.80	3876.80
442.00	3454.92
442.21	3186.64
442.41	2967.51
442.62	3616.71
442.82	3295.18
443.02	3162.06
443.23	3172.30
443.43	3401.68
443.64	3733.45
443.84	3012.56
444.05	3246.03
444.25	3497.93
444.46	3346.38
444.66	3123.15
444.87	3340.24
445.07	3141.58
445.28	3346.38
445.48	3340.24
445.69	3215.31
445.89	4026.31
446.09	3284.94
446.30	3393.48
446.50	3604.42
446.71	5052.34
446.91	6205.35
447.12	6746.01
447.32	7337.87
447.53	7206.80
447.73	6246.30
447.93	5244.85
448.14	5179.31
448.34	5404.59
448.55	4523.96
448.75	4380.61
448.96	4161.47
449.16	4020.16
449.36	4001.73
449.57	3405.77
449.77	3223.50
449.98	3305.42
450.18	3579.85
450.39	3065.81
450.59	3327.95
450.79	3499.98
451.00	3303.37
451.20	3409.87
451.41	3198.93
451.61	3553.23
451.81	3436.49
452.02	3188.69
452.22	3162.06
452.43	3338.19
452.63	3217.36
452.84	3272.65
453.04	3047.38
453.24	3356.62
453.45	3289.04
453.65	3235.79
453.86	3143.63
454.06	3448.78
454.26	3409.87
454.47	3157.97
454.67	3409.87
454.87	3518.41
455.08	3362.76
455.28	3194.83
455.49	3360.72
455.69	3286.99
455.89	3819.46
456.10	3248.08
456.30	3104.72
456.51	3680.20
456.71	3510.22
456.91	3348.43
457.12	3135.44
457.32	3491.79
457.52	3188.69
457.73	3368.91
457.93	3379.15
458.14	3319.76
458.34	3080.14
458.54	3237.84
458.75	3108.82
458.95	3610.57
459.15	3450.83
459.36	3119.06
459.56	3123.15
459.76	3913.67
459.97	3465.16
460.17	3178.45
460.37	3215.31
460.58	3465.16
460.78	3616.71
460.99	3243.98
461.19	3164.11
461.39	3303.37
461.60	3387.34
461.80	3209.17
462.00	3043.28
462.21	3459.02
462.41	3223.50
462.61	3018.71
462.82	2877.40
463.02	3569.61
463.22	3418.06
463.43	3186.64
463.63	3071.95
463.83	3727.30
464.04	3573.71
464.24	3143.63
464.44	3123.15
464.64	3508.17
464.85	3585.99
465.05	3182.54
465.25	3088.34
465.46	3278.80
465.66	3655.62
465.86	3311.57
466.07	3065.81
466.27	3422.16
466.47	3098.58
466.68	3037.14
466.88	3311.57
467.08	3590.09
467.29	3717.06
467.49	3141.58
467.69	3299.28
467.89	3504.07
468.10	3342.28
468.30	3260.37
468.50	3215.31
468.71	3590.09
468.91	3067.86
469.11	3405.77
469.31	3262.41
469.52	3278.80
469.72	3856.33
469.92	3442.64
470.13	3315.66
470.33	3471.31
470.53	3430.35
470.73	3606.47
470.94	3770.31
471.14	4181.95
471.34	4652.98
471.54	4194.24
471.75	3813.32
471.95	3735.50
472.15	3747.78
472.36	3680.20
472.56	3524.55
472.76	3923.91
472.96	3831.75
473.17	3446.73
473.37	3311.57
473.57	3344.33
473.77	3549.13
473.98	3280.85
474.18	3045.33
474.38	4077.51
474.58	3319.76
474.79	3002.32
474.99	3327.95
475.19	3688.39
475.39	3151.82
475.60	3235.79
475.80	3100.62
476.00	3567.56
476.20	3340.24
476.41	3209.17
476.61	3221.45
476.81	3733.45
477.01	3293.13
477.21	3491.79
477.42	3319.76
477.62	3344.33
477.82	3594.19
478.02	3063.76
478.23	3135.44
478.43	3311.57
478.63	3385.29
478.83	3196.88
479.03	3174.35
479.24	3778.50
479.44	3928.00
479.64	3155.92
479.84	3024.85
480.04	3219.41
480.25	3639.24
480.45	3164.11
480.65	3084.24
480.85	3747.78
481.06	3325.90
481.26	3217.36
481.46	3069.91
481.66	3610.57
481.86	3221.45
482.06	3325.90
482.27	3239.89
482.47	3379.15
482.67	3483.59
482.87	3157.97
483.07	3246.03
483.28	3368.91
483.48	3221.45
483.68	3221.45
483.88	3028.95
484.08	3014.61
484.29	3149.78
484.49	3274.70
484.69	2895.83
484.89	3745.73
485.09	3643.34
485.29	3213.26
485.50	3332.05
485.70	3268.56
485.90	3753.93
486.10	3295.18
486.30	3110.86
486.50	3739.59
486.71	3573.71
486.91	3272.65
487.11	3235.79
487.31	3155.92
487.51	3549.13
487.71	3114.96
487.91	3119.06
488.12	3307.47
488.32	2934.74
488.52	3139.54
488.72	2918.36
488.92	3411.92
489.12	3692.49
489.32	3311.57
489.53	3180.50
489.73	3139.54
489.93	3839.94
490.13	3172.30
490.33	3051.47
490.53	3395.53
490.73	3665.86
490.94	3039.19
491.14	3196.88
491.34	3631.05
491.54	3600.33
491.74	4065.22
491.94	4614.07
492.14	5113.78
492.34	5185.46
492.54	4677.56
492.75	4063.17
492.95	4437.95
493.15	4134.85
493.35	3889.09
493.55	3790.79
493.75	3811.27
493.95	4081.60
494.15	3387.34
494.35	3229.65
494.56	3336.14
494.76	3348.43
494.96	3332.05
495.16	3016.66
495.36	3450.83
495.56	3475.40
495.76	3205.07
495.96	3213.26
496.16	3262.41
496.36	3858.37
496.56	3096.53
496.77	3223.50
496.97	3438.54
497.17	3737.54
497.37	2983.89
497.57	3293.13
497.77	3524.55
497.97	3235.79
498.17	3233.74
498.37	3160.02
498.57	3522.51
498.77	3350.48
498.97	3295.18
499.17	3567.56
499.38	3356.62
499.58	3514.31
499.78	3338.19
499.98	3299.28
500.18	3385.29
500.38	3254.22
500.58	3432.40
500.78	3897.28
500.98	6137.76
501.18	7722.89
501.38	9049.97
501.58	10030.95
501.78	9865.07
501.98	8415.10
502.18	6997.91
502.38	6236.06
502.58	6281.12
502.78	5490.60
502.98	5230.51
503.18	5023.67
503.38	4802.49
503.59	4097.99
503.79	4095.94
503.99	3762.12
504.19	3956.68
504.39	4059.07
504.59	3686.34
504.79	3518.41
504.99	3925.96
505.19	3641.29
505.39	3307.47
505.59	3575.75
505.79	3856.33
505.99	3557.32
506.19	3139.54
506.39	3401.68
506.59	3350.48
506.79	3385.29
506.99	3418.06
507.19	3123.15
507.39	3438.54
507.59	3114.96
507.79	3178.45
507.99	3127.25
508.19	3407.82
508.39	3409.87
508.59	3155.92
508.79	3196.88
508.99	3868.61
509.19	3299.28
509.39	3219.41
509.59	3117.01
509.79	3237.84
509.99	3518.41
510.19	3319.76
510.39	3188.69
510.59	3516.36
510.79	3319.76
510.99	2975.70
511.19	3121.10
511.39	3835.85
511.59	3790.79
511.79	3319.76
511.99	3162.06
512.19	3946.44
512.38	3485.64
512.58	3205.07
512.78	3024.85
512.98	3698.63
513.18	3817.41
513.38	3049.43
513.58	3151.82
513.78	3483.59
513.98	3491.79
514.18	3213.26
514.38	3248.08
514.58	3413.96
514.78	3291.09
514.98	3024.85
515.18	3282.89
515.38	3264.46
515.58	3862.47
515.78	3131.34
515.98	3186.64
516.18	3559.37
516.38	3448.78
516.57	3078.10
516.77	3155.92
516.97	3577.80
517.17	3356.62
517.37	2918.36
517.57	3203.02
517.77	3344.33
517.97	3272.65
518.17	3160.02
518.37	3016.66
518.57	3327.95
518.77	3373.00
518.97	3192.78
519.16	3125.20
519.36	3704.78
519.56	3246.03
519.76	3100.62
519.96	3190.74
520.16	3725.26
520.36	3268.56
520.56	3340.24
520.76	3219.41
520.96	3418.06
521.16	3606.47
521.35	3352.52
521.55	3254.22
521.75	3450.83
521.95	3319.76
522.15	3094.48
522.35	3024.85
522.55	3311.57
522.75	3702.73
522.95	3065.81
523.14	2971.60
523.34	3456.97
523.54	3311.57
523.74	3346.38
523.94	3254.22
524.14	3024.85
524.34	3508.17
524.54	3336.14
524.73	3198.93
524.93	3592.14
525.13	3444.68
525.33	3033.04
525.53	3387.34
525.73	3610.57
525.93	3411.92
526.13	3256.27
526.32	3039.19
526.52	3657.67
526.72	3594.19
526.92	3209.17
527.12	3043.28
527.32	3106.77
527.52	3534.79
527.71	3217.36
527.91	3100.62
528.11	3434.44
528.31	3409.87
528.51	3194.83
528.71	3399.63
528.90	3649.48
529.10	3667.91
529.30	3194.83
529.50	2908.12
529.70	3555.27
529.90	3297.23
530.09	3168.21
530.29	3074.00
530.49	3309.52
530.69	4067.27
530.89	3397.58
531.09	3237.84
531.28	3323.85
531.48	3600.33
531.68	3246.03
531.88	3205.07
532.08	3614.66
532.28	3344.33
532.47	3241.93
532.67	3170.26
532.87	3506.12
533.07	3305.42
533.27	3127.25
533.46	3254.22
533.66	3471.31
533.86	3416.01
534.06	3250.13
534.26	3127.25
534.45	3346.38
534.65	3549.13
534.85	3375.05
535.05	3088.34
535.25	3536.84
535.44	3172.30
535.64	3276.75
535.84	3231.69
536.04	3266.51
536.24	3286.99
536.43	3135.44
536.63	3162.06
536.83	3381.20
537.03	3418.06
537.22	2979.79
537.42	2918.36
537.62	3493.83
537.82	3237.84
538.02	3295.18
538.21	3229.65
538.41	3987.40
538.61	3569.61
538.81	3254.22
539.00	3260.37
539.20	3131.34
539.40	3373.00
539.60	3127.25
539.79	3420.11
539.99	3495.88
540.19	3301.33
540.39	3160.02
540.58	3108.82
540.78	3624.90
540.98	3483.59
541.18	3379.15
541.37	3231.69
541.57	3491.79
541.77	3465.16
541.97	3102.67
542.16	3033.04
542.36	3397.58
542.56	3684.30
542.76	3313.61
542.95	3274.70
543.15	3565.51
543.35	3602.38
543.54	3178.45
543.74	3098.58
543.94	3811.27
544.14	3303.37
544.33	3297.23
544.53	3110.86
544.73	3327.95
544.93	3301.33
545.12	3160.02
545.32	3125.20
545.52	3315.66
545.71	3233.74
545.91	3155.92
546.11	3162.06
546.30	3190.74
546.50	3381.20
546.70	3254.22
546.90	3198.93
547.09	3094.48
547.29	3403.72
547.49	3368.91
547.68	3248.08
547.88	3319.76
548.08	3698.63
548.27	3426.25
548.47	3149.78
548.67	3278.80
548.87	3534.79
549.06	3094.48
549.26	2992.08
549.46	3504.07
549.65	3274.70
549.85	3188.69
550.05	3262.41
550.24	3086.29
550.44	3409.87
550.64	3192.78
550.83	3176.40
551.03	3794.89
551.23	3598.28
551.42	3215.31
551.62	3250.13
551.82	3467.21
552.01	3282.89
552.21	3495.88
552.41	3276.75
552.60	3766.21
552.80	3502.03
553.00	3139.54
553.19	3205.07
553.39	3794.89
553.59	3211.22
553.78	3336.14
553.98	3147.73
554.17	3194.83
554.37	3450.83
554.57	3203.02
554.76	3041.23
554.96	3340.24
555.16	3459.02
555.35	3299.28
555.55	3340.24
555.75	3506.12
555.94	3608.52
556.14	2881.49
556.33	3213.26
556.53	3360.72
556.73	3438.54
556.92	3139.54
557.12	3123.15
557.32	3958.72
557.51	3690.44
557.71	3233.74
557.90	3430.35
558.10	3725.26
558.30	3336.14
558.49	3225.55
558.69	3117.01
558.88	3618.76
559.08	3534.79
559.28	3264.46
559.47	3188.69
559.67	3540.94
559.86	3798.98
560.06	3194.83
560.26	3133.39
560.45	3524.55
560.65	3459.02
560.84	3506.12
561.04	3033.04
561.24	3598.28
561.43	3190.74
561.63	3446.73
561.82	3297.23
562.02	3534.79
562.22	3209.17
562.41	3149.78
562.61	3168.21
562.80	3180.50
563.00	3971.01
563.19	3284.94
563.39	3274.70
563.59	3516.36
563.78	3235.79
563.98	2963.41
564.17	3133.39
564.37	3121.10
564.56	3391.44
564.76	3098.58
564.96	3278.80
565.15	3538.89
565.35	4032.45
565.54	3274.70
565.74	3203.02
565.93	3590.09
566.13	3413.96
566.32	3254.22
566.52	3268.56
566.71	3442.64
566.91	3659.72
567.11	3289.04
567.30	3127.25
567.50	3573.71
567.69	3499.98
567.89	3164.11
568.08	3123.15
568.28	3497.93
568.47	3172.30
568.67	3223.50
568.86	3180.50
569.06	3590.09
569.25	3342.28
569.45	3043.28
569.64	3203.02
569.84	3373.00
570.04	3459.02
570.23	3139.54
570.43	3323.85
570.62	3506.12
570.82	3856.33
571.01	3133.39
571.21	3172.30
571.40	3258.32
571.60	3594.19
571.79	3254.22
571.99	3151.82
572.18	3180.50
572.38	3483.59
572.57	3315.66
572.77	3233.74
572.96	3954.63
573.16	3465.16
573.35	3221.45
573.55	3387.34
573.74	3452.88
573.94	3434.44
574.13	3196.88
574.33	3373.00
574.52	3721.16
574.71	3489.74
574.91	3215.31
575.10	3080.14
575.30	3323.85
575.49	3194.83
575.69	3094.48
575.88	3098.58
576.08	3418.06
576.27	3647.43
576.47	3139.54
576.66	3295.18
576.86	3618.76
577.05	3569.61
577.25	3321.81
577.44	3418.06
577.64	3280.85
577.83	3684.30
578.02	3114.96
578.22	3315.66
578.41	3893.19
578.61	3350.48
578.80	3033.04
579.00	3252.17
579.19	3393.48
579.39	3534.79
579.58	3213.26
579.77	3200.98
579.97	3637.19
580.16	3665.86
580.36	3395.53
580.55	3166.16
580.75	3463.12
580.94	3522.51
581.13	3327.95
581.33	3450.83
581.52	3391.44
581.72	3899.33
581.91	3258.32
582.11	3153.87
582.30	3624.90
582.49	3499.98
582.69	3508.17
582.88	3176.40
583.08	3577.80
583.27	3700.68
583.47	3348.43
583.66	3100.62
583.85	3276.75
584.05	3356.62
584.24	3360.72
584.44	3239.89
584.63	3651.53
584.82	3688.39
585.02	3479.50
585.21	3301.33
585.41	3520.46
585.60	3459.02
585.79	3459.02
585.99	3497.93
586.18	3395.53
586.37	4450.24
586.57	6778.78
586.76	18437.86
586.96	36898.25
587.15	49577.23
587.34	57767.05
587.54	61156.44
587.73	53394.64
587.93	39046.57
588.12	29832.76
588.31	24616.58
588.51	22011.57
588.70	20426.44
588.89	17739.51
589.09	15169.30
589.28	12947.26
589.47	10321.76
589.67	7776.14
589.86	6211.49
590.06	5009.33
590.25	4456.38
590.44	3835.85
590.64	3559.37
590.83	3663.82
591.02	3674.06
591.22	3164.11
591.41	3258.32
591.60	3381.20
591.80	3968.96
591.99	3078.10
592.18	3186.64
592.38	3604.42
592.57	3327.95
592.76	3053.52
592.96	3352.52
593.15	3387.34
593.34	3688.39
593.54	3172.30
593.73	3344.33
593.92	3540.94
594.12	3573.71
594.31	3209.17
594.50	3395.53
594.70	3565.51
594.89	4042.69
595.08	2996.18
595.28	3348.43
595.47	4229.06
595.66	3665.86
595.86	3145.68
596.05	3084.24
596.24	3379.15
596.43	3864.52
596.63	3266.51
596.82	3368.91
597.01	3567.56
597.21	3874.76
597.40	3135.44
597.59	3278.80
597.79	3422.16
597.98	3557.32
598.17	3264.46
598.36	3250.13
598.56	3700.68
598.75	3317.71
598.94	3289.04
599.14	3188.69
599.33	3385.29
599.52	3565.51
599.71	3196.88
599.91	3184.59
600.10	3569.61
600.29	3426.25
600.48	3299.28
600.68	3327.95
600.87	3528.65
601.06	3383.24
601.26	3299.28
601.45	3327.95
601.64	3491.79
601.83	3792.84
602.03	3110.86
602.22	3069.91
602.41	3661.77
602.60	3942.34
602.80	3278.80
602.99	3370.96
603.18	3336.14
603.37	3459.02
603.57	3137.49
603.76	3186.64
603.95	3737.54
604.14	3336.14
604.34	3033.04
604.53	3155.92
604.72	3467.21
604.91	3512.27
605.10	3223.50
605.30	3061.71
605.49	3835.85
605.68	3610.57
605.87	3157.97
606.07	3094.48
606.26	3616.71
606.45	3547.08
606.64	3155.92
606.84	3010.51
607.03	3438.54
607.22	3590.09
607.41	3293.13
607.60	3139.54
607.80	3667.91
607.99	3454.92
608.18	3289.04
608.37	3188.69
608.56	3286.99
608.76	3665.86
608.95	3256.27
609.14	3098.58
609.33	3717.06
609.52	3917.76
609.72	3307.47
609.91	3237.84
610.10	3534.79
610.29	3798.98
610.48	3313.61
610.68	3332.05
610.87	3424.20
611.06	3680.20
611.25	3143.63
611.44	3262.41
611.63	3330.00
611.83	3753.93
612.02	3170.26
612.21	3280.85
612.40	3123.15
612.59	3205.07
612.79	3143.63
612.98	3286.99
613.17	3823.56
613.36	3352.52
613.55	3231.69
613.74	3227.60
613.93	3383.24
614.13	3520.46
614.32	3375.05
614.51	3157.97
614.70	3442.64
614.89	3258.32
615.08	3286.99
615.28	3545.03
615.47	3114.96
615.66	3596.23
615.85	3196.88
616.04	3172.30
616.23	3352.52
616.42	3452.88
616.62	3178.45
616.81	3139.54
617.00	3381.20
617.19	3502.03
617.38	3231.69
617.57	3356.62
617.76	3598.28
617.95	3620.81
618.15	3387.34
618.34	3352.52
618.53	3180.50
618.72	3727.30
618.91	3293.13
619.10	3346.38
619.29	3481.55
619.48	3399.63
619.68	3071.95
619.87	3145.68
620.06	3168.21
620.25	3567.56
620.44	3135.44
620.63	3160.02
620.82	3524.55
621.01	3407.82
621.20	3219.41
621.39	3231.69
621.59	3598.28
621.78	3358.67
621.97	3233.74
622.16	3362.76
622.35	3489.74
622.54	3631.05
622.73	3278.80
622.92	2912.21
623.11	3712.97
623.30	3332.05
623.49	3211.22
623.68	3096.53
623.88	3794.89
624.07	3213.26
624.26	3022.80
624.45	3184.59
624.64	3354.57
624.83	3502.03
625.02	3149.78
625.21	3160.02
625.40	3565.51
625.59	3801.03
625.78	3262.41
625.97	3272.65
626.16	3561.42
626.35	3631.05
626.54	3166.16
626.74	3434.44
626.93	3364.81
627.12	3434.44
627.31	3135.44
627.50	3221.45
627.69	3581.90
627.88	3147.73
628.07	3119.06
628.26	2965.46
628.45	3319.76
628.64	3221.45
628.83	3069.91
629.02	3108.82
629.21	3571.66
629.40	3559.37
629.59	3043.28
629.78	3112.91
629.97	3483.59
630.16	3411.92
630.35	3131.34
630.54	3280.85
630.73	3246.03
630.92	3448.78
631.11	3143.63
631.30	3250.13
631.49	3610.57
631.68	3362.76
631.87	3286.99
632.06	3074.00
632.25	3938.24
632.44	3446.73
632.63	3250.13
632.82	3209.17
633.01	3270.61
633.20	3516.36
633.39	3180.50
633.58	2994.13
633.77	3481.55
633.96	3590.09
634.15	3215.31
634.34	3280.85
634.53	3516.36
634.72	3377.10
634.91	3016.66
635.10	3264.46
635.29	3612.62
635.48	3577.80
635.67	3078.10
635.86	3092.43
636.05	3770.31
636.24	3368.91
636.43	3147.73
636.62	3250.13
636.81	2967.51
637.00	3461.07
637.19	3200.98
637.38	3172.30
637.57	3348.43
637.76	3454.92
637.95	3434.44
638.14	3321.81
638.33	3551.18
638.52	3465.16
638.71	3096.53
638.89	3067.86
639.08	3979.20
639.27	3618.76
639.46	3311.57
639.65	3649.48
639.84	3907.52
640.03	3962.82
640.22	3545.03
640.41	3518.41
640.60	3387.34
640.79	3680.20
640.98	3407.82
641.17	3338.19
641.36	3708.87
641.55	3645.38
641.74	3024.85
641.92	3123.15
642.11	3286.99
642.30	3409.87
642.49	3084.24
642.68	3153.87
642.87	3459.02
643.06	3598.28
643.25	3041.23
643.44	3125.20
643.63	3385.29
643.82	3553.23
644.00	3074.00
644.19	3239.89
644.38	3203.02
644.57	3528.65
644.76	3149.78
644.95	3237.84
645.14	3528.65
645.33	3483.59
645.52	3205.07
645.71	3076.05
645.89	3309.52
646.08	3352.52
646.27	3233.74
646.46	3348.43
646.65	3168.21
646.84	3508.17
647.03	3135.44
647.22	3403.72
647.40	3549.13
647.59	3375.05
647.78	3028.95
647.97	3182.54
648.16	3241.93
648.35	3841.99
648.54	3557.32
648.73	3196.88
648.91	3551.18
649.10	3465.16
649.29	3135.44
649.48	3088.34
649.67	3559.37
649.86	3508.17
650.05	3149.78
650.23	3348.43
650.42	3284.94
650.61	3616.71
650.80	3334.09
650.99	3395.53
651.18	3631.05
651.36	3725.26
651.55	3139.54
651.74	3344.33
651.93	3334.09
652.12	3418.06
652.31	3174.35
652.49	3254.22
652.68	3397.58
652.87	3725.26
653.06	3258.32
653.25	3418.06
653.44	3454.92
653.62	3819.46
653.81	3278.80
654.00	3188.69
654.19	3629.00
654.38	3946.44
654.56	3276.75
654.75	3059.67
654.94	3581.90
655.13	3532.75
655.32	3133.39
655.51	3217.36
655.69	3319.76
655.88	3686.34
656.07	3057.62
656.26	3157.97
656.45	3174.35
656.63	3497.93
656.82	3151.82
657.01	3483.59
657.20	3319.76
657.38	3780.55
657.57	3149.78
657.76	3057.62
657.95	3583.95
658.14	3338.19
658.32	3325.90
658.51	3078.10
658.70	3477.45
658.89	3485.64
659.08	3182.54
659.26	3340.24
659.45	3180.50
659.64	3575.75
659.83	3133.39
660.01	3581.90
660.20	3389.39
660.39	3749.83
660.58	2936.79
660.76	3258.32
660.95	3114.96
661.14	3344.33
661.33	3080.14
661.51	3139.54
661.70	3239.89
661.89	3575.75
662.08	3264.46
662.26	3000.27
662.45	3190.74
662.64	3801.03
662.83	3286.99
663.01	3102.67
663.20	3282.89
663.39	3753.93
663.58	3143.63
663.76	3180.50
663.95	3506.12
664.14	3229.65
664.32	3291.09
664.51	3059.67
664.70	3022.80
664.89	3516.36
665.07	3127.25
665.26	3330.00
665.45	3135.44
665.64	3610.57
665.82	3137.49
666.01	3282.89
666.20	3162.06
666.38	3620.81
666.57	3577.80
666.76	5681.07
666.95	12445.51
667.13	18638.56
667.32	22673.06
667.51	25190.02
667.69	25679.48
667.88	21079.74
668.07	15265.56
668.25	13303.60
668.44	11724.62
668.63	10280.80
668.81	8908.66
669.00	7784.33
669.19	7202.71
669.38	6311.84
669.56	5402.54
669.75	4741.05
669.94	4444.09
670.12	3850.18
670.31	3450.83
670.50	3477.45
670.68	3643.34
670.87	3393.48
671.06	3237.84
671.24	3303.37
671.43	3717.06
671.62	3409.87
671.80	3096.53
671.99	3346.38
672.18	3508.17
672.36	3545.03
672.55	3321.81
672.74	3198.93
672.92	3346.38
673.11	3622.86
673.29	3020.75
673.48	3377.10
673.67	3344.33
673.85	3647.43
674.04	3106.77
674.23	3272.65
674.41	3841.99
674.60	3160.02
674.79	2973.65
674.97	3108.82
675.16	3620.81
675.34	3616.71
675.53	3176.40
675.72	3205.07
675.90	3876.80
676.09	3364.81
676.28	3289.04
676.46	3004.37
676.65	3555.27
676.83	3315.66
677.02	3233.74
677.21	3332.05
677.39	3549.13
677.58	3233.74
677.77	3182.54
677.95	3080.14
678.14	3385.29
678.32	3360.72
678.51	3266.51
678.70	3616.71
678.88	3364.81
679.07	3569.61
679.25	3127.25
679.44	3303.37
679.63	3162.06
679.81	3538.89
680.00	3438.54
680.18	3239.89
680.37	3815.37
680.55	3467.21
680.74	3047.38
680.93	2985.94
681.11	3444.68
681.30	3391.44
681.48	3203.02
681.67	3151.82
681.85	3391.44
682.04	3332.05
682.23	3352.52
682.41	3358.67
682.60	3377.10
682.78	3385.29
682.97	3102.67
683.15	3295.18
683.34	3499.98
683.53	3817.41
683.71	3047.38
683.90	3221.45
684.08	3852.23
684.27	3321.81
684.45	3246.03
684.64	3270.61
684.82	3469.26
685.01	3520.46
685.19	3192.78
685.38	3514.31
685.57	3428.30
685.75	3315.66
685.94	3133.39
686.12	3123.15
686.31	3291.09
686.49	3801.03
686.68	3090.38
686.86	3172.30
687.05	3413.96
687.23	3760.07
687.42	3207.12
687.60	3041.23
687.79	3688.39
687.97	3758.02
688.16	3299.28
688.34	3481.55
688.53	3121.10
688.71	3555.27
688.90	3624.90
689.08	3180.50
689.27	3053.52
689.45	3581.90
689.64	3354.57
689.82	3332.05
690.01	3602.38
690.19	3504.07
690.38	3295.18
690.56	3266.51
690.75	3170.26
690.93	3293.13
691.12	3147.73
691.30	3231.69
691.49	3348.43
691.67	3385.29
691.86	3559.37
692.04	3258.32
692.23	3315.66
692.41	3432.40
692.60	3508.17
692.78	3387.34
692.97	3370.96
693.15	3473.36
693.34	3397.58
693.52	3407.82
693.71	3405.77
693.89	3313.61
694.08	3057.62
694.26	3223.50
694.44	3657.67
694.63	3641.29
694.81	3074.00
695.00	3215.31
695.18	3602.38
695.37	4048.83
695.55	3325.90
695.74	3243.98
695.92	3246.03
696.10	3729.35
696.29	3082.19
696.47	3196.88
696.66	3182.54
696.84	3198.93
697.03	3221.45
697.21	3465.16
697.40	4773.82
697.58	3608.52
697.76	3143.63
697.95	3227.60
698.13	3182.54
698.32	3317.71
698.50	3162.06
698.68	3123.15
698.87	3469.26
699.05	3737.54
699.24	3139.54
699.42	3168.21
699.61	3434.44
699.79	3459.02
699.97	3178.45
700.16	3076.05
700.34	3141.58
700.53	3463.12
700.71	3456.97
700.89	3323.85
701.08	3342.28
701.26	3422.16
701.45	3520.46
701.63	3217.36
701.81	3315.66
702.00	3227.60
702.18	3342.28
702.37	3168.21
702.55	3723.21
702.73	3450.83
702.92	3203.02
703.10	3493.83
703.28	3594.19
703.47	3241.93
703.65	3340.24
703.84	3330.00
704.02	3346.38
704.20	3731.40
704.39	3196.88
704.57	3114.96
704.75	3604.42
704.94	3532.75
705.12	3393.48
705.30	3952.58
705.49	8189.83
705.67	14411.56
705.86	19195.61
706.04	21448.38
706.22	23946.90
706.41	22568.62
706.59	16594.69
706.77	13461.30
706.96	11931.47
707.14	10854.23
707.32	9385.84
707.51	8124.29
707.69	6815.64
707.87	5787.56
708.06	4818.87
708.24	4138.94
708.42	4087.75
708.61	4304.83
708.79	3231.69
708.97	3284.94
709.16	3547.08
709.34	3553.23
709.52	3227.60
709.71	3270.61
709.89	3567.56
710.07	3270.61
710.26	3080.14
710.44	3174.35
710.62	3663.82
710.80	3381.20
710.99	3327.95
711.17	3325.90
711.35	3235.79
711.54	3391.44
711.72	3428.30
711.90	3293.13
712.09	3516.36
712.27	3291.09
712.45	3340.24
712.63	3176.40
712.82	3485.64
713.00	3434.44
713.18	3301.33
713.37	3432.40
713.55	3663.82
713.73	3561.42
713.91	3399.63
714.10	3198.93
714.28	3381.20
714.46	3538.89
714.65	3319.76
714.83	3256.27
715.01	3428.30
715.19	3403.72
715.38	3078.10
715.56	3379.15
715.74	3336.14
715.92	3303.37
716.11	3514.31
716.29	2977.75
716.47	3477.45
716.65	3389.39
716.84	3092.43
717.02	3209.17
717.20	3045.33
717.38	3323.85
717.57	3342.28
717.75	3186.64
717.93	3389.39
718.11	3583.95
718.30	3045.33
718.48	3258.32
718.66	3696.58
718.84	3731.40
719.03	3188.69
719.21	3010.51
719.39	3895.24
719.57	3577.80
719.75	3297.23
719.94	3190.74
720.12	3360.72
720.30	3416.01
720.48	3250.13
720.67	3207.12
720.85	3266.51
721.03	3311.57
721.21	3139.54
721.39	3246.03
721.58	3573.71
721.76	3401.68
721.94	3174.35
722.12	3327.95
722.30	3717.06
722.49	3260.37
722.67	3209.17
722.85	3164.11
723.03	3155.92
723.21	3368.91
723.40	3182.54
723.58	3389.39
723.76	3598.28
723.94	3651.53
724.12	3209.17
724.30	3475.40
724.49	3645.38
724.67	3192.78
724.85	3291.09
725.03	3069.91
725.21	3522.51
725.40	3600.33
725.58	3198.93
725.76	3442.64
725.94	3573.71
726.12	3188.69
726.30	3276.75
726.49	3135.44
726.67	3354.57
726.85	3581.90
727.03	3966.92
727.21	4808.63
727.39	6246.30
727.57	6457.25
727.76	6743.96
727.94	6778.78
728.12	6084.52
728.30	5009.33
728.48	4761.53
728.66	4564.92
728.84	4372.41
729.03	3925.96
729.21	3702.73
729.39	3594.19
729.57	3485.64
729.75	3463.12
729.93	3454.92
730.11	3182.54
730.30	3274.70
730.48	3418.06
730.66	3258.32
730.84	3241.93
731.02	3444.68
731.20	3305.42
731.38	3291.09
731.56	3041.23
731.74	3213.26
731.93	3471.31
732.11	3352.52
732.29	3094.48
732.47	3526.60
732.65	3536.84
732.83	3381.20
733.01	3368.91
733.19	3321.81
733.37	3497.93
733.56	3262.41
733.74	3071.95
733.92	3719.11
734.10	3307.47
734.28	3438.54
734.46	2987.99
734.64	3309.52
734.82	3387.34
735.00	3123.15
735.18	3090.38
735.36	3395.53
735.54	3368.91
735.73	3186.64
735.91	3317.71
736.09	3811.27
736.27	3344.33
736.45	3276.75
736.63	2979.79
736.81	3401.68
736.99	3663.82
737.17	3358.67
737.35	3168.21
737.53	3563.47
737.71	3344.33
737.89	3389.39
738.07	3135.44
738.25	3323.85
738.43	3151.82
738.61	3172.30
738.80	3078.10
738.98	3176.40
739.16	3344.33
739.34	3174.35
739.52	3504.07
739.70	3450.83
739.88	3581.90
740.06	3254.22
740.24	3014.61
740.42	3710.92
740.60	3125.20
740.78	3200.98
740.96	2998.23
741.14	3368.91
741.32	3385.29
741.50	3026.90
741.68	3538.89
741.86	3733.45
742.04	3207.12
742.22	3119.06
742.40	3248.08
742.58	3557.32
742.76	3289.04
742.94	3389.39
743.12	3065.81
743.30	3354.57
743.48	3577.80
743.66	3098.58
743.84	3225.55
744.02	3385.29
744.20	3409.87
744.38	2998.23
744.56	3174.35
744.74	3872.71
744.92	3485.64
745.10	3512.27
745.28	3307.47
745.46	3776.45
745.64	3467.21
745.82	3276.75
746.00	3110.86
746.18	3493.83
746.36	3219.41
746.54	3229.65
746.72	3327.95
746.90	3239.89
747.08	3774.41
747.26	3266.51
747.44	3262.41
747.62	3542.99
747.80	3452.88
747.98	3352.52
748.15	3176.40
748.33	3768.26
748.51	3483.59
748.69	3278.80
748.87	3139.54
749.05	3362.76
749.23	3459.02
749.41	3135.44
749.59	3184.59
749.77	3692.49
749.95	3291.09
750.13	3143.63
750.31	3284.94
750.49	3438.54
750.67	3639.24
750.85	3315.66
751.03	3258.32
751.20	3844.04
751.38	3475.40
751.56	3274.70
751.74	3223.50
751.92	3403.72
752.10	3270.61
752.28	3338.19
752.46	3141.58
752.64	3502.03
752.82	3409.87
753.00	3299.28
753.18	3141.58
753.35	3418.06
753.53	3393.48
753.71	3131.34
753.89	3260.37
754.07	3475.40
754.25	3540.94
754.43	3229.65
754.61	3121.10
754.79	3553.23
754.97	3354.57
755.14	3434.44
755.32	3067.86
755.50	3440.59
755.68	3483.59
755.86	3102.67
756.04	3086.29
756.22	3045.33
756.40	3577.80
756.57	3467.21
756.75	3153.87
756.93	3577.80
757.11	3622.86
757.29	3096.53
757.47	3094.48
757.65	3055.57
757.82	2975.70
758.00	2977.75
758.18	3065.81
758.36	3348.43
758.54	3833.80
758.72	2947.03
758.90	3303.37
759.07	3485.64
759.25	3266.51
759.43	3223.50
759.61	3033.04
759.79	4548.54
759.97	3680.20
760.15	3266.51
760.32	3221.45
760.50	3553.23
760.68	3758.02
760.86	2981.84
761.04	3444.68
761.22	3694.54
761.39	3553.23
761.57	3315.66
761.75	3213.26
761.93	3569.61
762.11	3426.25
762.28	3383.24
762.46	3190.74
762.64	3704.78
762.82	3198.93
763.00	3135.44
763.18	3377.10
763.35	3180.50
763.53	3604.42
763.71	3373.00
763.89	3186.64
764.07	3426.25
764.24	3459.02
764.42	3356.62
764.60	3241.93
764.78	3573.71
764.96	3606.47
765.13	3354.57
765.31	3090.38
765.49	3536.84
765.67	3225.55
765.84	3172.30
766.02	3022.80
766.20	3119.06
766.38	3522.51
766.56	3278.80
766.73	3325.90
766.91	3508.17
767.09	3393.48
767.27	3155.92
767.44	3033.04
767.62	3573.71
767.80	3422.16
767.98	3157.97
768.15	3114.96
768.33	3590.09
768.51	3653.58
768.69	3311.57
768.87	3180.50
769.04	3467.21
769.22	3999.68
769.40	3334.09
769.58	3332.05
769.75	3532.75
769.93	3801.03
770.11	3219.41
770.28	3119.06
770.46	3653.58
770.64	3491.79
770.82	3268.56
770.99	3071.95
771.17	3608.52
771.35	3319.76
771.53	3205.07
771.70	3110.86
771.88	3491.79
772.06	3436.49
772.23	3160.02
772.41	3213.26
772.59	3377.10
772.77	3200.98
772.94	3174.35
773.12	3239.89
773.30	3289.04
773.47	3497.93
773.65	3102.67
773.83	3409.87
774.01	3370.96
774.18	3043.28
774.36	3221.45
774.54	3117.01
774.71	3555.27
774.89	3049.43
775.07	3063.76
775.24	3135.44
775.42	3368.91
775.60	3856.33
775.78	3076.05
775.95	3018.71
776.13	3117.01
776.31	3076.05
776.48	3448.78
776.66	3338.19
776.84	3391.44
777.01	3278.80
777.19	3143.63
777.37	3135.44
777.54	3592.14
777.72	3919.81
777.90	3262.41
778.07	3203.02
778.25	4061.12
778.43	3663.82
778.60	3168.21
778.78	3332.05
778.96	3766.21
779.13	3268.56
779.31	3317.71
779.49	3254.22
779.66	3553.23
779.84	3450.83
780.01	3119.06
780.19	3082.19
780.37	3676.10
780.54	3524.55
780.72	3004.37
780.90	3221.45
781.07	3426.25
781.25	3317.71
781.43	3413.96
781.60	3205.07
781.78	3721.16
781.95	3536.84
782.13	3178.45
782.31	3157.97
782.48	3094.48
782.66	3436.49
782.83	3418.06
783.01	3348.43
783.19	3631.05
783.36	3422.16
783.54	3063.76
783.72	3311.57
783.89	3323.85
784.07	3483.59
784.24	3319.76
784.42	3383.24
784.60	3436.49
784.77	3485.64
784.95	3010.51
785.12	3237.84
785.30	3471.31
785.47	3262.41
785.65	3157.97
785.83	3264.46
786.00	3364.81
786.18	3481.55
786.35	3194.83
786.53	3071.95
786.71	3645.38
786.88	3610.57
787.06	3235.79
787.23	3295.18
787.41	3192.78
787.58	3432.40
787.76	3092.43
787.94	3297.23
788.11	3532.75
788.29	3196.88
788.46	3225.55
788.64	3030.99
788.81	3286.99
788.99	3256.27
789.16	3123.15
789.34	3256.27
789.52	3368.91
789.69	3286.99
789.87	2922.45
790.04	3182.54
790.22	3499.98
790.39	3893.19
790.57	3123.15
790.74	3104.72
790.92	3612.62
791.09	3125.20
791.27	3319.76
791.44	3252.17
791.62	3364.81
791.79	3549.13
791.97	3291.09
792.15	3401.68
792.32	3577.80
792.50	3583.95
792.67	3393.48
792.85	3463.12
793.02	3475.40
793.20	3344.33
793.37	2992.08
793.55	3059.67
793.72	3112.91
793.90	3571.66
794.07	3219.41
794.25	3121.10
794.42	3354.57
794.60	3352.52
794.77	3315.66
794.95	3282.89
795.12	3635.14
795.30	3456.97
795.47	2934.74
795.65	3504.07
795.82	3448.78
796.00	3282.89
796.17	3246.03
796.34	3035.09
796.52	3452.88
796.69	3665.86
796.87	3262.41
797.04	3282.89
797.22	3549.13
797.39	3557.32
797.57	3368.91
797.74	3270.61
797.92	3473.36
798.09	3233.74
798.27	3467.21
798.44	3160.02
798.62	3246.03
798.79	3481.55
798.96	3352.52
799.14	3276.75
799.31	4065.22
799.49	3442.64
799.66	3221.45
799.84	3198.93
800.01	3110.86
800.19	3516.36
800.36	3033.04
800.53	3215.31
800.71	3487.69
800.88	3753.93
801.06	3112.91
801.23	3180.50
801.41	3356.62
801.58	3319.76
801.75	3090.38
801.93	3270.61
802.10	3598.28
802.28	3377.10
802.45	3262.41
802.63	3172.30
802.80	3772.36
802.97	3370.96
803.15	3200.98
803.32	3143.63
803.50	3327.95
803.67	3395.53
803.84	3153.87
804.02	3286.99
804.19	3383.24
804.37	2912.21
804.54	3037.14
804.71	3178.45
804.89	3393.48
805.06	3311.57
805.24	3114.96
805.41	2996.18
805.58	3303.37
805.76	3983.30
805.93	3157.97
806.10	3319.76
806.28	3577.80
806.45	3420.11
806.63	3370.96
806.80	3174.35
806.97	3463.12
807.15	3469.26
807.32	3286.99
807.49	3047.38
807.67	3168.21
807.84	3444.68
808.01	2979.79
808.19	3403.72
808.36	3932.10
808.54	3336.14
808.71	3153.87
808.88	3213.26
809.06	3672.01
809.23	3782.60
809.40	3266.51
809.58	3196.88
809.75	3373.00
809.92	3205.07
810.10	3452.88
810.27	3172.30
810.44	3520.46
810.62	3585.99
810.79	3297.23
810.96	3219.41
811.14	3332.05
811.31	3545.03
811.48	3418.06
811.66	3295.18
811.83	3667.91
812.00	3565.51
812.18	3305.42
812.35	3520.46
812.52	3321.81
812.69	3334.09
812.87	3153.87
813.04	3076.05
813.21	3403.72
813.39	3262.41
813.56	3164.11
813.73	3450.83
813.91	2998.23
814.08	3366.86
814.25	3266.51
814.42	3035.09
814.60	3338.19
814.77	3467.21
814.94	3151.82
815.12	3262.41
815.29	3729.35
815.46	3340.24
815.63	3188.69
815.81	3200.98
815.98	3348.43
816.15	3459.02
816.33	3344.33
816.50	3264.46
816.67	3422.16
816.84	3424.20
817.02	3012.56
817.19	3166.16
817.36	3495.88
817.53	3553.23
817.71	3076.05
817.88	3153.87
818.05	3454.92
818.22	3246.03
818.40	3420.11
818.57	3139.54
818.74	3569.61
818.91	3383.24
819.09	3434.44
819.26	3286.99
819.43	3309.52
819.60	3295.18
819.78	3450.83
819.95	3264.46
820.12	3307.47
820.29	3788.74
820.47	3409.87
820.64	3121.10
820.81	3106.77
820.98	3241.93
821.15	3205.07
821.33	3319.76
821.50	3119.06
821.67	3506.12
821.84	3215.31
822.02	3221.45
822.19	3561.42
822.36	3317.71
822.53	3147.73
822.70	3057.62
822.88	3409.87
823.05	3786.69
823.22	3276.75
823.39	3084.24
823.56	3368.91
823.74	3739.59
823.91	3127.25
824.08	3153.87
824.25	3157.97
824.42	3731.40
824.60	3043.28
824.77	3317.71
824.94	3411.92
825.11	3493.83
825.28	3035.09
825.45	3323.85
825.63	3485.64
825.80	3239.89
825.97	3284.94
826.14	3289.04
826.31	3047.38
826.48	3577.80
826.66	3137.49
826.83	3086.29
827.00	3354.57
827.17	3250.13
827.34	3286.99
827.51	3100.62
827.69	3430.35
827.86	3135.44
828.03	3258.32
828.20	3172.30
828.37	3274.70
828.54	3559.37
828.71	3153.87
828.89	3231.69
829.06	3491.79
829.23	3811.27
829.40	3194.83
829.57	3114.96
829.74	3547.08
829.91	3358.67
830.09	3168.21
830.26	3274.70
830.43	3772.36
830.60	3370.96
830.77	3225.55
830.94	3409.87
831.11	3602.38
831.28	3368.91
831.46	3413.96
831.63	3096.53
831.80	3680.20
831.97	3311.57
832.14	3272.65
832.31	3205.07
832.48	3362.76
832.65	3700.68
832.82	3383.24
832.99	3272.65
833.17	3145.68
833.34	3643.34
833.51	3065.81
833.68	3030.99
833.85	3637.19
834.02	3231.69
834.19	3125.20
834.36	3200.98
834.53	3401.68
834.70	3702.73
834.87	3098.58
835.04	2926.55
835.22	3319.76
835.39	3282.89
835.56	2994.13
835.73	3057.62
835.90	3659.72
836.07	3250.13
836.24	3160.02
836.41	3010.51
836.58	3303.37
836.75	3672.01
836.92	3018.71
837.09	2992.08
837.26	3569.61
837.43	3434.44
837.60	2987.99
837.77	3016.66
837.94	3629.00
838.12	3629.00
838.29	2828.24
838.46	2887.64
838.63	3223.50
838.80	3733.45
838.97	3069.91
839.14	3010.51
839.31	3536.84
839.48	3577.80
839.65	3065.81
839.82	3092.43
839.99	3524.55
840.16	3424.20
840.33	2961.36
840.50	3055.57
840.67	3266.51
840.84	2895.83
841.01	2904.02
841.18	3008.47
841.35	3456.97
841.52	3526.60
841.69	3377.10
841.86	3071.95
842.03	3393.48
842.20	3590.09
842.37	2985.94
842.54	3012.56
842.71	3471.31
842.88	3145.68
843.05	3022.80
843.22	2987.99
843.39	3653.58
843.56	3239.89
843.73	2955.22
843.90	3012.56
844.07	3436.49
844.24	3594.19
844.41	3045.33
844.58	3096.53
844.75	3397.58
844.92	3477.45
845.09	3069.91
845.26	3018.71
845.43	3553.23
845.60	3330.00
845.77	3117.01
845.94	3092.43
846.10	3592.14
846.27	3160.02
846.44	2904.02
846.61	2897.88
846.78	3594.19
846.95	3680.20
847.12	3006.42
847.29	3051.47
847.46	3256.27
847.63	3538.89
847.80	2938.84
847.97	3024.85
848.14	3966.92
848.31	3428.30
848.48	2949.08
848.65	2979.79
848.82	3272.65
848.98	3930.05
849.15	3164.11
849.32	3147.73
849.49	3596.23
849.66	3295.18
849.83	2992.08
850.00	3006.42
850.17	3567.56
850.34	3334.09
850.51	2979.79
850.68	3053.52
850.85	3913.67
851.01	3497.93
851.18	2973.65
851.35	3098.58
851.52	3518.41
851.69	3715.02
851.86	3000.27
852.03	2975.70
852.20	3733.45
852.37	3405.77
852.53	2938.84
852.70	2959.31
852.87	3479.50
853.04	3647.43
853.21	3055.57
853.38	3233.74
853.55	3778.50
853.72	3657.67
853.89	2910.16
854.05	2981.84
854.22	3352.52
854.39	3418.06
854.56	2992.08
854.73	3160.02
854.90	3157.97
855.07	3321.81
855.23	2969.55
855.40	2889.68
855.57	3358.67
855.74	2959.31
855.91	3256.27
856.08	2863.06
856.25	3100.62
856.41	3311.57
856.58	2959.31
856.75	3008.47
856.92	3149.78
857.09	3606.47
857.26	2803.67
857.42	3020.75
857.59	3614.66
857.76	3317.71
857.93	3010.51
858.10	3049.43
858.27	3239.89
858.43	3409.87
858.60	3041.23
858.77	2869.20
858.94	3362.76
859.11	3729.35
859.27	3098.58
859.44	2901.97
859.61	3887.04
859.78	3545.03
859.95	2904.02
860.12	2912.21
860.28	3991.49
860.45	3778.50
860.62	3010.51
860.79	3100.62
860.95	3418.06
861.12	3211.22
861.29	2879.44
861.46	2901.97
861.63	3358.67
861.79	3516.36
861.96	2904.02
862.13	3049.43
862.30	3704.78
862.47	3286.99
862.63	2920.40
862.80	3067.86
862.97	3655.62
863.14	3434.44
863.30	3114.96
863.47	2951.12
863.64	3680.20
863.81	3483.59
863.97	2906.07
864.14	3090.38
864.31	3393.48
864.48	3438.54
864.65	2981.84
864.81	3123.15
864.98	3473.36
865.15	3647.43
865.32	3135.44
865.48	3082.19
865.65	3813.32
865.82	3348.43
865.98	3117.01
866.15	3047.38
866.32	3348.43
866.49	3301.33
866.65	3198.93
866.82	3000.27
866.99	3338.19
867.16	3307.47
867.32	3026.90
867.49	2914.26
867.66	3303.37
867.83	3262.41
867.99	2893.78
868.16	3108.82
868.33	3250.13
868.49	3403.72
868.66	3010.51
868.83	3182.54
868.99	3473.36
869.16	3450.83
869.33	3209.17
869.50	3106.77
869.66	3448.78
869.83	3422.16
870.00	2887.64
870.16	3117.01
870.33	3323.85
870.50	3573.71
870.66	3090.38
870.83	3000.27
871.00	3420.11
871.17	3598.28
871.33	3119.06
871.50	2963.41
871.67	3379.15
871.83	3106.77
872.00	3143.63
872.17	3033.04
872.33	3788.74
872.50	3690.44
872.67	3026.90
872.83	2947.03
873.00	3504.07
873.17	3411.92
873.33	3082.19
873.50	3117.01
873.67	3231.69
873.83	3311.57
874.00	2992.08
874.16	3119.06
874.33	3459.02
874.50	3139.54
874.66	3006.42
874.83	3090.38
875.00	3674.06
875.16	3631.05
875.33	3033.04
875.50	2852.82
875.66	3225.55
875.83	3495.88
875.99	2983.89
876.16	3209.17
876.33	3209.17
876.49	3360.72
876.66	3026.90
876.83	3114.96
876.99	3200.98
877.16	3422.16
877.32	2985.94
877.49	3047.38
877.66	3510.22
877.82	3698.63
877.99	3047.38
878.15	3315.66
878.32	3475.40
878.49	3493.83
878.65	3082.19
878.82	3309.52
878.98	3327.95
879.15	3614.66
879.32	3250.13
879.48	3180.50
879.65	3485.64
879.81	3389.39
879.98	3100.62
880.15	3016.66
880.31	3604.42
880.48	3295.18
880.64	3198.93
880.81	3106.77
880.97	3803.08
881.14	3737.54
881.31	3022.80
881.47	3155.92
881.64	3323.85
881.80	3090.38
881.97	3278.80
882.13	3051.47
882.30	3137.49
882.47	3225.55
882.63	3033.04
882.80	2990.03
882.96	3336.14
883.13	3581.90
883.29	3026.90
883.46	2934.74
883.62	3971.01
883.79	3438.54
883.95	3205.07
884.12	2920.40
884.29	3696.58
884.45	3438.54
884.62	3057.62
884.78	2985.94
884.95	3745.73
885.11	3248.08
885.28	3067.86
885.44	3063.76
885.61	3602.38
885.77	3755.97
885.94	3188.69
886.10	3071.95
886.27	3424.20
886.43	3735.50
886.60	3235.79
886.76	3078.10
886.93	3200.98
887.09	3559.37
887.26	2961.36
887.42	3098.58
887.59	3723.21
887.75	3981.25
887.92	3323.85
888.08	3151.82
888.25	3764.17
888.41	3641.29
888.58	3092.43
888.74	2938.84
888.91	3286.99
>>>>>End Processed Spectral Data<<<<<
