SpectraSuite Data File
++++++++++++++++++++++++++++++++++++
Date: Fri May 06 09:28:48 CEST 2016
User: root
Dark Spectrum Present: No
Reference Spectrum Present: No
Number of Sampled Component Spectra: 1
Spectrometers: USB4C02835
Integration Time (usec): 100000 (USB4C02835)
Spectra Averaged: 1 (USB4C02835)
Boxcar Smoothing: 0 (USB4C02835)
Correct for Electrical Dark: No (USB4C02835)
Strobe/Lamp Enabled: No (USB4C02835)
Correct for Detector Non-linearity: No (USB4C02835)
Correct for Stray Light: No (USB4C02835)
Number of Pixels in Processed Spectrum: 3648
>>>>>Begin Processed Spectral Data<<<<<
177.47	2342.88
177.69	2342.88
177.91	2342.88
178.13	2320.35
178.36	2330.59
178.58	3174.35
178.80	3223.50
179.02	3184.59
179.24	3194.83
179.46	2838.48
179.68	2953.17
179.90	3426.25
180.13	3485.64
180.35	2680.79
180.57	2930.64
180.79	3495.88
181.01	3401.68
181.23	2983.89
181.45	3080.14
181.67	3639.24
181.90	3583.95
182.12	3114.96
182.34	2734.04
182.56	3551.18
182.78	3594.19
183.00	2891.73
183.22	2918.36
183.44	3104.72
183.66	4030.40
183.89	3059.67
184.11	3051.47
184.33	3581.90
184.55	3758.02
184.77	2867.16
184.99	2983.89
185.21	3307.47
185.43	4040.64
185.65	2955.22
185.87	2928.60
186.10	3919.81
186.32	4032.45
186.54	3057.62
186.76	3033.04
186.98	3721.16
187.20	3348.43
187.42	2979.79
187.64	2885.59
187.86	3600.33
188.08	3753.93
188.30	2826.20
188.52	3024.85
188.75	3745.73
188.97	3706.82
189.19	2949.08
189.41	2977.75
189.63	3631.05
189.85	3389.39
190.07	2838.48
190.29	2791.38
190.51	3483.59
190.73	3133.39
190.95	3184.59
191.17	2965.46
191.39	3160.02
191.61	3336.14
191.84	3039.19
192.06	3114.96
192.28	3143.63
192.50	4214.72
192.72	3080.14
192.94	3100.62
193.16	3721.16
193.38	3608.52
193.60	2922.45
193.82	3227.60
194.04	3696.58
194.26	3512.27
194.48	3024.85
194.70	2969.55
194.92	3291.09
195.14	3655.62
195.36	2897.88
195.58	3074.00
195.80	3379.15
196.02	3346.38
196.24	2879.44
196.46	3002.32
196.69	3350.48
196.91	4048.83
197.13	2916.31
197.35	3047.38
197.57	3841.99
197.79	3585.99
198.01	3037.14
198.23	3000.27
198.45	3616.71
198.67	3160.02
198.89	2805.72
199.11	3055.57
199.33	3278.80
199.55	2983.89
199.77	2922.45
199.99	3090.38
200.21	3250.13
200.43	3534.79
200.65	2832.34
200.87	2793.43
201.09	3487.69
201.31	3385.29
201.53	3051.47
201.75	3074.00
201.97	3450.83
202.19	3459.02
202.41	3061.71
202.63	3098.58
202.85	3553.23
203.07	3526.60
203.29	3086.29
203.51	2836.44
203.73	3305.42
203.95	3997.64
204.17	2955.22
204.39	3141.58
204.61	3422.16
204.83	3307.47
205.05	3160.02
205.27	3002.32
205.49	3917.76
205.71	3477.45
205.93	2875.35
206.15	2822.10
206.37	3454.92
206.59	3393.48
206.81	2834.39
207.03	2856.92
207.25	3272.65
207.47	3618.76
207.69	2924.50
207.91	3272.65
208.13	3878.85
208.34	3231.69
208.56	2963.41
208.78	2994.13
209.00	3360.72
209.22	3338.19
209.44	2928.60
209.66	2877.40
209.88	3504.07
210.10	3334.09
210.32	2975.70
210.54	3051.47
210.76	3420.11
210.98	3653.58
211.20	2766.81
211.42	3084.24
211.64	3809.22
211.86	3565.51
212.08	3033.04
212.30	2944.98
212.52	3450.83
212.74	3626.95
212.96	3112.91
213.17	3053.52
213.39	3676.10
213.61	3885.00
213.83	2959.31
214.05	2934.74
214.27	3606.47
214.49	3262.41
214.71	2959.31
214.93	3106.77
215.15	3516.36
215.37	3672.01
215.59	2781.14
215.81	3039.19
216.03	3762.12
216.24	3436.49
216.46	2936.79
216.68	3020.75
216.90	3565.51
217.12	3710.92
217.34	2854.87
217.56	3229.65
217.78	3715.02
218.00	3657.67
218.22	2992.08
218.44	3045.33
218.66	3493.83
218.87	3839.94
219.09	2998.23
219.31	2963.41
219.53	3567.56
219.75	3426.25
219.97	3018.71
220.19	3051.47
220.41	3397.58
220.63	3811.27
220.85	2994.13
221.06	2977.75
221.28	3696.58
221.50	3585.99
221.72	2885.59
221.94	2885.59
222.16	3516.36
222.38	3618.76
222.60	2979.79
222.82	3033.04
223.03	3665.86
223.25	3207.12
223.47	2869.20
223.69	3153.87
223.91	3626.95
224.13	3434.44
224.35	2861.01
224.57	3141.58
224.78	3610.57
225.00	3243.98
225.22	3043.28
225.44	2924.50
225.66	3663.82
225.88	3401.68
226.10	3114.96
226.32	3033.04
226.53	3846.09
226.75	3360.72
226.97	3063.76
227.19	3059.67
227.41	3264.46
227.63	3307.47
227.85	2748.37
228.06	3063.76
228.28	3487.69
228.50	3608.52
228.72	2781.14
228.94	2932.69
229.16	2994.13
229.37	3215.31
229.59	2887.64
229.81	3256.27
230.03	3356.62
230.25	3188.69
230.47	2766.81
230.69	2944.98
230.90	3692.49
231.12	3321.81
231.34	3035.09
231.56	3022.80
231.78	3237.84
232.00	3463.12
232.21	3024.85
232.43	3061.71
232.65	3078.10
232.87	3512.27
233.09	2852.82
233.30	2914.26
233.52	3622.86
233.74	3389.39
233.96	2916.31
234.18	3217.36
234.40	3467.21
234.61	3999.68
234.83	2824.15
235.05	2889.68
235.27	3985.35
235.49	3712.97
235.70	2828.24
235.92	3008.47
236.14	3577.80
236.36	3979.20
236.58	2801.62
236.79	3033.04
237.01	3475.40
237.23	3471.31
237.45	3164.11
237.67	2994.13
237.88	3549.13
238.10	3854.28
238.32	2885.59
238.54	2897.88
238.76	3370.96
238.97	3284.94
239.19	2795.48
239.41	2994.13
239.63	3700.68
239.85	3319.76
240.06	2977.75
240.28	2969.55
240.50	3631.05
240.72	3532.75
240.93	2795.48
241.15	3100.62
241.37	3499.98
241.59	3768.26
241.81	2887.64
242.02	3037.14
242.24	3526.60
242.46	3641.29
242.68	2828.24
242.89	2979.79
243.11	3696.58
243.33	3377.10
243.55	3006.42
243.76	2922.45
243.98	3272.65
244.20	3370.96
244.42	2990.03
244.64	2926.55
244.85	3147.73
245.07	3198.93
245.29	2942.93
245.51	2916.31
245.72	3530.70
245.94	3631.05
246.16	2947.03
246.38	3037.14
246.59	3352.52
246.81	3311.57
247.03	2871.25
247.24	2918.36
247.46	3266.51
247.68	3434.44
247.90	2869.20
248.11	2994.13
248.33	3610.57
248.55	3485.64
248.77	3037.14
248.98	3110.86
249.20	3796.93
249.42	3508.17
249.64	2895.83
249.85	2916.31
250.07	3305.42
250.29	3655.62
250.50	3133.39
250.72	2934.74
250.94	3569.61
251.16	3973.06
251.37	2969.55
251.59	3026.90
251.81	3532.75
252.02	3803.08
252.24	2904.02
252.46	3084.24
252.68	3254.22
252.89	3409.87
253.11	2764.76
253.33	3096.53
253.54	3737.54
253.76	3225.55
253.98	2885.59
254.20	2932.69
254.41	3104.72
254.63	3448.78
254.85	2793.43
255.06	3082.19
255.28	3565.51
255.50	3254.22
255.71	2969.55
255.93	2820.05
256.15	3389.39
256.36	3590.09
256.58	2750.42
256.80	2885.59
257.02	3450.83
257.23	3438.54
257.45	2969.55
257.67	3157.97
257.88	3323.85
258.10	3549.13
258.32	2918.36
258.53	3092.43
258.75	3839.94
258.97	3389.39
259.18	2863.06
259.40	2910.16
259.62	3825.61
259.83	3745.73
260.05	2944.98
260.27	3864.52
260.48	3635.14
260.70	3213.26
260.92	2865.11
261.13	2977.75
261.35	3540.94
261.57	3518.41
261.78	2805.72
262.00	2910.16
262.22	3686.34
262.43	3295.18
262.65	2994.13
262.86	3014.61
263.08	4001.73
263.30	3493.83
263.51	2756.57
263.73	2934.74
263.95	3786.69
264.16	3241.93
264.38	2822.10
264.60	2871.25
264.81	3434.44
265.03	3698.63
265.25	3366.86
265.46	2910.16
265.68	3729.35
265.89	3622.86
266.11	2879.44
266.33	2951.12
266.54	3704.78
266.76	3493.83
266.98	3010.51
267.19	3196.88
267.41	3741.64
267.62	3379.15
267.84	2828.24
268.06	3106.77
268.27	3545.03
268.49	3680.20
268.70	2951.12
268.92	3010.51
269.14	3243.98
269.35	3221.45
269.57	3121.10
269.79	3096.53
270.00	3286.99
270.22	3866.56
270.43	2904.02
270.65	2781.14
270.87	3571.66
271.08	3585.99
271.30	3090.38
271.51	2910.16
271.73	3565.51
271.95	3647.43
272.16	2865.11
272.38	3096.53
272.59	3375.05
272.81	3598.28
273.02	2895.83
273.24	2975.70
273.46	3708.87
273.67	3141.58
273.89	2840.53
274.10	2963.41
274.32	3653.58
274.54	3483.59
274.75	3127.25
274.97	3092.43
275.18	3645.38
275.40	3639.24
275.61	2834.39
275.83	3129.30
276.05	3209.17
276.26	3416.01
276.48	3057.62
276.69	3141.58
276.91	3321.81
277.12	3688.39
277.34	3133.39
277.55	3162.06
277.77	3514.31
277.99	3432.40
278.20	3098.58
278.42	3022.80
278.63	3305.42
278.85	3356.62
279.06	3102.67
279.28	3194.83
279.49	3645.38
279.71	3614.66
279.93	3147.73
280.14	3160.02
280.36	3307.47
280.57	3581.90
280.79	3119.06
281.00	2994.13
281.22	3260.37
281.43	3727.30
281.65	2916.31
281.86	3018.71
282.08	3631.05
282.29	3874.76
282.51	2949.08
282.73	3047.38
282.94	3137.49
283.16	3751.88
283.37	3155.92
283.59	3149.78
283.80	3606.47
284.02	3385.29
284.23	3164.11
284.45	3155.92
284.66	3272.65
284.88	3284.94
285.09	2983.89
285.31	3174.35
285.52	3592.14
285.74	3147.73
285.95	3354.57
286.17	3129.30
286.38	3680.20
286.60	3303.37
286.81	2983.89
287.03	3053.52
287.24	3508.17
287.46	3626.95
287.67	3254.22
287.89	3307.47
288.10	3442.64
288.32	3434.44
288.53	3217.36
288.75	3221.45
288.96	3645.38
289.18	3262.41
289.39	3041.23
289.61	3184.59
289.82	3923.91
290.04	3876.80
290.25	2961.36
290.47	3157.97
290.68	3352.52
290.90	3594.19
291.11	2865.11
291.33	3254.22
291.54	3284.94
291.76	3254.22
291.97	3233.74
292.18	3248.08
292.40	3362.76
292.61	3286.99
292.83	3356.62
293.04	3084.24
293.26	3385.29
293.47	3368.91
293.69	3080.14
293.90	2983.89
294.12	3844.04
294.33	3534.79
294.55	3055.57
294.76	3305.42
294.97	3758.02
295.19	3950.53
295.40	3092.43
295.62	3180.50
295.83	3665.86
296.05	3286.99
296.26	3340.24
296.48	3037.14
296.69	3430.35
296.90	3405.77
297.12	3276.75
297.33	3254.22
297.55	3475.40
297.76	3561.42
297.98	3137.49
298.19	3368.91
298.41	3385.29
298.62	3272.65
298.83	3332.05
299.05	3254.22
299.26	3366.86
299.48	3219.41
299.69	3164.11
299.90	3102.67
300.12	3172.30
300.33	3663.82
300.55	3047.38
300.76	3141.58
300.98	3286.99
301.19	3608.52
301.40	3114.96
301.62	3088.34
301.83	3631.05
302.05	3413.96
302.26	3084.24
302.47	3164.11
302.69	3215.31
302.90	3493.83
303.12	3016.66
303.33	3237.84
303.54	3870.66
303.76	3360.72
303.97	3037.14
304.19	3336.14
304.40	3198.93
304.61	3540.94
304.83	3137.49
305.04	3215.31
305.26	3569.61
305.47	3327.95
305.68	3131.34
305.90	2994.13
306.11	3741.64
306.33	3440.59
306.54	2947.03
306.75	2994.13
306.97	3143.63
307.18	3250.13
307.39	3162.06
307.61	3184.59
307.82	3454.92
308.04	3522.51
308.25	2951.12
308.46	3301.33
308.68	3485.64
308.89	3479.50
309.10	3133.39
309.32	3176.40
309.53	3397.58
309.74	3571.66
309.96	2983.89
310.17	3235.79
310.39	3248.08
310.60	3559.37
310.81	3190.74
311.03	3174.35
311.24	3559.37
311.45	3475.40
311.67	3413.96
311.88	3252.17
312.09	3354.57
312.31	3325.90
312.52	3018.71
312.73	3082.19
312.95	3243.98
313.16	3227.60
313.37	3221.45
313.59	3284.94
313.80	3651.53
314.01	3764.17
314.23	3084.24
314.44	3088.34
314.65	3147.73
314.87	3239.89
315.08	3117.01
315.29	3092.43
315.51	3196.88
315.72	3149.78
315.93	3172.30
316.15	3069.91
316.36	3332.05
316.57	3485.64
316.79	3090.38
317.00	3012.56
317.21	3614.66
317.43	3239.89
317.64	3143.63
317.85	3039.19
318.07	3276.75
318.28	3362.76
318.49	3145.68
318.70	3272.65
318.92	3424.20
319.13	3518.41
319.34	3241.93
319.56	2994.13
319.77	3561.42
319.98	3620.81
320.20	3473.36
320.41	3276.75
320.62	3590.09
320.83	3248.08
321.05	3305.42
321.26	3139.54
321.47	3508.17
321.69	3778.50
321.90	2990.03
322.11	3061.71
322.32	3557.32
322.54	3743.69
322.75	3139.54
322.96	4253.63
323.18	3125.20
323.39	3084.24
323.60	3002.32
323.81	3299.28
324.03	3307.47
324.24	3467.21
324.45	3237.84
324.66	3086.29
324.88	3688.39
325.09	3821.51
325.30	3121.10
325.52	2992.08
325.73	3571.66
325.94	3221.45
326.15	3004.37
326.37	2969.55
326.58	3653.58
326.79	3749.83
327.00	3061.71
327.22	3033.04
327.43	3426.25
327.64	3166.16
327.85	3270.61
328.07	3139.54
328.28	3893.19
328.49	3303.37
328.70	3084.24
328.92	3086.29
329.13	3399.63
329.34	3598.28
329.55	3370.96
329.76	3272.65
329.98	3362.76
330.19	3721.16
330.40	3209.17
330.61	3272.65
330.83	3618.76
331.04	3340.24
331.25	3147.73
331.46	3215.31
331.68	3155.92
331.89	3721.16
332.10	3127.25
332.31	3008.47
332.52	3411.92
332.74	3674.06
332.95	2920.40
333.16	3153.87
333.37	3508.17
333.58	3348.43
333.80	3143.63
334.01	2852.82
334.22	3407.82
334.43	3311.57
334.64	3043.28
334.86	3033.04
335.07	3237.84
335.28	3741.64
335.49	2944.98
335.70	3102.67
335.92	3676.10
336.13	3960.77
336.34	3114.96
336.55	3096.53
336.76	3616.71
336.98	3059.67
337.19	3135.44
337.40	3237.84
337.61	3985.35
337.82	3454.92
338.04	3196.88
338.25	2885.59
338.46	3436.49
338.67	3409.87
338.88	3026.90
339.09	2967.51
339.31	3389.39
339.52	3153.87
339.73	2979.79
339.94	3168.21
340.15	3573.71
340.36	3336.14
340.58	3157.97
340.79	3074.00
341.00	3596.23
341.21	3172.30
341.42	3389.39
341.63	3131.34
341.85	3610.57
342.06	3438.54
342.27	3026.90
342.48	3217.36
342.69	3117.01
342.90	3502.03
343.12	3532.75
343.33	3028.95
343.54	3643.34
343.75	3794.89
343.96	3155.92
344.17	2987.99
344.38	3342.28
344.60	3225.55
344.81	3012.56
345.02	3203.02
345.23	3639.24
345.44	4032.45
345.65	3076.05
345.86	3190.74
346.07	3565.51
346.29	3344.33
346.50	3229.65
346.71	3192.78
346.92	3676.10
347.13	3948.48
347.34	3237.84
347.55	3000.27
347.76	3569.61
347.98	3166.16
348.19	3192.78
348.40	3319.76
348.61	3270.61
348.82	3811.27
349.03	3188.69
349.24	3041.23
349.45	3934.15
349.66	3043.28
349.88	3149.78
350.09	3006.42
350.30	3776.45
350.51	3733.45
350.72	3327.95
350.93	3037.14
351.14	3303.37
351.35	3614.66
351.56	3092.43
351.77	3229.65
351.99	3551.18
352.20	3778.50
352.41	3239.89
352.62	2996.18
352.83	3368.91
353.04	3360.72
353.25	3143.63
353.46	3043.28
353.67	3663.82
353.88	3045.33
354.09	3006.42
354.30	3336.14
354.52	3622.86
354.73	3452.88
354.94	3102.67
355.15	3178.45
355.36	3923.91
355.57	3258.32
355.78	3090.38
355.99	3082.19
356.20	3428.30
356.41	3680.20
356.62	3266.51
356.83	3153.87
357.04	3745.73
357.25	3135.44
357.46	3061.71
357.68	3037.14
357.89	3250.13
358.10	3444.68
358.31	3071.95
358.52	3198.93
358.73	3278.80
358.94	3198.93
359.15	3160.02
359.36	3119.06
359.57	3456.97
359.78	3373.00
359.99	3338.19
360.20	3078.10
360.41	3432.40
360.62	3565.51
360.83	3182.54
361.04	3151.82
361.25	3614.66
361.46	3731.40
361.67	3256.27
361.88	3135.44
362.09	3700.68
362.30	3528.65
362.51	3041.23
362.72	3135.44
362.93	3669.96
363.14	3555.27
363.35	3246.03
363.56	3022.80
363.78	3600.33
363.99	3717.06
364.20	3080.14
364.41	3168.21
364.62	3835.85
364.83	3516.36
365.04	3108.82
365.25	3114.96
365.46	3932.10
365.67	3278.80
365.88	3309.52
366.09	3110.86
366.30	3303.37
366.51	3426.25
366.72	3024.85
366.93	3061.71
367.14	3510.22
367.35	3708.87
367.56	3047.38
367.77	3209.17
367.98	3416.01
368.18	3602.38
368.39	3213.26
368.60	3049.43
368.81	3639.24
369.02	3491.79
369.23	3086.29
369.44	2910.16
369.65	3352.52
369.86	3557.32
370.07	3254.22
370.28	2985.94
370.49	3483.59
370.70	3524.55
370.91	3051.47
371.12	2942.93
371.33	3717.06
371.54	3282.89
371.75	3215.31
371.96	2848.72
372.17	3495.88
372.38	3430.35
372.59	3180.50
372.80	2996.18
373.01	3473.36
373.22	3475.40
373.43	3051.47
373.64	3002.32
373.85	3778.50
374.06	3792.84
374.26	3319.76
374.47	3207.12
374.68	3721.16
374.89	3508.17
375.10	3055.57
375.31	3162.06
375.52	3518.41
375.73	3514.31
375.94	2967.51
376.15	3209.17
376.36	3297.23
376.57	3289.04
376.78	3139.54
376.99	3147.73
377.20	3696.58
377.40	3377.10
377.61	3377.10
377.82	3145.68
378.03	3811.27
378.24	3565.51
378.45	3260.37
378.66	3180.50
378.87	3180.50
379.08	3135.44
379.29	3125.20
379.50	3284.94
379.71	3375.05
379.91	3575.75
380.12	3037.14
380.33	3180.50
380.54	3395.53
380.75	3387.34
380.96	3166.16
381.17	3168.21
381.38	3436.49
381.59	3432.40
381.80	3262.41
382.00	3280.85
382.21	3471.31
382.42	3782.60
382.63	3508.17
382.84	3305.42
383.05	3645.38
383.26	3805.13
383.47	3250.13
383.68	3112.91
383.88	3512.27
384.09	3510.22
384.30	3332.05
384.51	3280.85
384.72	3305.42
384.93	3162.06
385.14	3200.98
385.35	3375.05
385.55	3164.11
385.76	3717.06
385.97	3198.93
386.18	2996.18
386.39	3243.98
386.60	3327.95
386.81	3112.91
387.02	3047.38
387.22	3108.82
387.43	3561.42
387.64	3139.54
387.85	3364.81
388.06	3499.98
388.27	4378.56
388.48	7190.42
388.68	10901.34
388.89	13557.55
389.10	14757.66
389.31	14208.81
389.52	11718.48
389.73	10248.04
389.93	9406.32
390.14	8437.63
390.35	7913.35
390.56	7407.50
390.77	6154.15
390.98	4665.27
391.18	4130.75
391.39	3971.01
391.60	3454.92
391.81	3364.81
392.02	3149.78
392.23	3897.28
392.43	3532.75
392.64	3198.93
392.85	3217.36
393.06	3819.46
393.27	3401.68
393.47	3092.43
393.68	3217.36
393.89	3418.06
394.10	3667.91
394.31	3164.11
394.52	3028.95
394.72	3237.84
394.93	3809.22
395.14	3045.33
395.35	3207.12
395.56	3305.42
395.76	3385.29
395.97	3018.71
396.18	3340.24
396.39	3346.38
396.60	4034.50
396.80	3418.06
397.01	3282.89
397.22	3592.14
397.43	3647.43
397.64	3086.29
397.84	3221.45
398.05	3913.67
398.26	3422.16
398.47	3217.36
398.67	3362.76
398.88	3413.96
399.09	3579.85
399.30	3092.43
399.51	3184.59
399.71	3250.13
399.92	3456.97
400.13	3270.61
400.34	3125.20
400.54	3467.21
400.75	3764.17
400.96	3160.02
401.17	3416.01
401.37	3545.03
401.58	3366.86
401.79	3131.34
402.00	3256.27
402.21	3981.25
402.41	3569.61
402.62	3391.44
402.83	3504.07
403.04	3803.08
403.24	4171.71
403.45	3284.94
403.66	3551.18
403.87	3549.13
404.07	3770.31
404.28	3416.01
404.49	3493.83
404.70	3585.99
404.90	3540.94
405.11	3063.76
405.32	3327.95
405.52	3272.65
405.73	3272.65
405.94	3106.77
406.15	3243.98
406.35	3592.14
406.56	3588.04
406.77	3213.26
406.98	3180.50
407.18	3307.47
407.39	3780.55
407.60	3135.44
407.80	3243.98
408.01	3334.09
408.22	3696.58
408.43	3082.19
408.63	3270.61
408.84	3696.58
409.05	3600.33
409.25	3069.91
409.46	3192.78
409.67	3368.91
409.88	3309.52
410.08	3139.54
410.29	3155.92
410.50	3704.78
410.70	3575.75
410.91	3049.43
411.12	3233.74
411.32	3416.01
411.53	3309.52
411.74	3065.81
411.95	3215.31
412.15	3391.44
412.36	3508.17
412.57	3293.13
412.77	3377.10
412.98	3393.48
413.19	3332.05
413.39	3217.36
413.60	3114.96
413.81	3661.77
414.01	3141.58
414.22	3190.74
414.43	3391.44
414.63	3315.66
414.84	3645.38
415.05	3106.77
415.25	3000.27
415.46	3629.00
415.67	3381.20
415.87	3176.40
416.08	3098.58
416.29	3340.24
416.49	3612.62
416.70	3207.12
416.91	3106.77
417.11	3391.44
417.32	3706.82
417.53	3289.04
417.73	3190.74
417.94	3356.62
418.15	3553.23
418.35	3186.64
418.56	3186.64
418.77	4005.83
418.97	3448.78
419.18	3262.41
419.38	2852.82
419.59	3450.83
419.80	3727.30
420.00	3121.10
420.21	3157.97
420.42	3770.31
420.62	3479.50
420.83	3178.45
421.04	3108.82
421.24	3426.25
421.45	3696.58
421.65	3205.07
421.86	3190.74
422.07	3657.67
422.27	3571.66
422.48	3069.91
422.69	3033.04
422.89	3477.45
423.10	3411.92
423.30	3162.06
423.51	3205.07
423.72	3622.86
423.92	3561.42
424.13	3024.85
424.33	3303.37
424.54	3690.44
424.75	3508.17
424.95	3452.88
425.16	3155.92
425.36	3428.30
425.57	3592.14
425.78	3289.04
425.98	3311.57
426.19	3465.16
426.39	3295.18
426.60	3246.03
426.81	3313.61
427.01	3510.22
427.22	3235.79
427.42	2942.93
427.63	3084.24
427.83	3643.34
428.04	3854.28
428.25	3256.27
428.45	3229.65
428.66	3614.66
428.86	3377.10
429.07	3127.25
429.28	3131.34
429.48	3454.92
429.69	3299.28
429.89	3297.23
430.10	3114.96
430.30	3612.62
430.51	3657.67
430.71	3030.99
430.92	3231.69
431.13	3344.33
431.33	3559.37
431.54	3262.41
431.74	3340.24
431.95	4028.35
432.15	3170.26
432.36	3131.34
432.56	3147.73
432.77	3878.85
432.98	3844.04
433.18	3256.27
433.39	3014.61
433.59	3428.30
433.80	3903.43
434.00	3393.48
434.21	3264.46
434.41	3250.13
434.62	3948.48
434.82	3041.23
435.03	3155.92
435.23	3528.65
435.44	3102.67
435.64	3123.15
435.85	3176.40
436.06	3690.44
436.26	3643.34
436.47	3164.11
436.67	3147.73
436.88	3393.48
437.08	3700.68
437.29	3295.18
437.49	3291.09
437.70	3796.93
437.90	3459.02
438.11	3366.86
438.31	3235.79
438.52	3602.38
438.72	3606.47
438.93	3438.54
439.13	3272.65
439.34	3676.10
439.54	3336.14
439.75	3254.22
439.95	3268.56
440.16	3172.30
440.36	3373.00
440.57	3147.73
440.77	3143.63
440.98	3438.54
441.18	3549.13
441.39	3055.57
441.59	2959.31
441.80	3905.48
442.00	3383.24
442.21	3227.60
442.41	3016.66
442.62	3618.76
442.82	3358.67
443.02	3125.20
443.23	3243.98
443.43	3401.68
443.64	3723.21
443.84	3084.24
444.05	3217.36
444.25	3416.01
444.46	3270.61
444.66	3129.30
444.87	3422.16
445.07	3139.54
445.28	3391.44
445.48	3237.84
445.69	3215.31
445.89	3991.49
446.09	3428.30
446.30	3487.69
446.50	3518.41
446.71	5048.24
446.91	6059.94
447.12	6811.54
447.32	7171.99
447.53	7241.62
447.73	6195.11
447.93	5199.79
448.14	5169.07
448.34	5384.11
448.55	4483.00
448.75	4384.70
448.96	4118.47
449.16	4147.14
449.36	3962.82
449.57	3360.72
449.77	3180.50
449.98	3346.38
450.18	3616.71
450.39	3112.91
450.59	3438.54
450.79	3516.36
451.00	3289.04
451.20	3313.61
451.41	3125.20
451.61	3590.09
451.81	3448.78
452.02	3094.48
452.22	3215.31
452.43	3352.52
452.63	3264.46
452.84	3252.17
453.04	3100.62
453.24	3508.17
453.45	3254.22
453.65	3213.26
453.86	3119.06
454.06	3555.27
454.26	3522.51
454.47	3102.67
454.67	3299.28
454.87	3473.36
455.08	3299.28
455.28	3262.41
455.49	3368.91
455.69	3295.18
455.89	3928.00
456.10	3246.03
456.30	3020.75
456.51	3594.19
456.71	3459.02
456.91	3364.81
457.12	3186.64
457.32	3545.03
457.52	3172.30
457.73	3368.91
457.93	3340.24
458.14	3379.15
458.34	3041.23
458.54	3207.12
458.75	3129.30
458.95	3643.34
459.15	3446.73
459.36	3205.07
459.56	3141.58
459.76	3887.04
459.97	3530.70
460.17	3141.58
460.37	3215.31
460.58	3491.79
460.78	3518.41
460.99	3190.74
461.19	3186.64
461.39	3344.33
461.60	3286.99
461.80	3239.89
462.00	3004.37
462.21	3358.67
462.41	3252.17
462.61	3002.32
462.82	2963.41
463.02	3491.79
463.22	3356.62
463.43	3231.69
463.63	3074.00
463.83	3786.69
464.04	3557.32
464.24	3127.25
464.44	3133.39
464.64	3592.14
464.85	3602.38
465.05	3162.06
465.25	3078.10
465.46	3311.57
465.66	3563.47
465.86	3303.37
466.07	3104.72
466.27	3418.06
466.47	3086.29
466.68	3002.32
466.88	3264.46
467.08	3579.85
467.29	3706.82
467.49	3196.88
467.69	3303.37
467.89	3493.83
468.10	3438.54
468.30	3270.61
468.50	3250.13
468.71	3606.47
468.91	3123.15
469.11	3301.33
469.31	3307.47
469.52	3299.28
469.72	3839.94
469.92	3477.45
470.13	3192.78
470.33	3428.30
470.53	3459.02
470.73	3635.14
470.94	3823.56
471.14	3987.40
471.34	4597.69
471.54	4153.28
471.75	3925.96
471.95	3696.58
472.15	3792.84
472.36	3729.35
472.56	3639.24
472.76	3977.16
472.96	3743.69
473.17	3405.77
473.37	3157.97
473.57	3350.48
473.77	3674.06
473.98	3325.90
474.18	3049.43
474.38	4132.80
474.58	3280.85
474.79	3002.32
474.99	3305.42
475.19	3645.38
475.39	3291.09
475.60	3278.80
475.80	3135.44
476.00	3540.94
476.20	3368.91
476.41	3203.02
476.61	3221.45
476.81	3798.98
477.01	3270.61
477.21	3524.55
477.42	3225.55
477.62	3303.37
477.82	3667.91
478.02	3110.86
478.23	3221.45
478.43	3252.17
478.63	3356.62
478.83	3178.45
479.03	3311.57
479.24	3827.65
479.44	3839.94
479.64	3098.58
479.84	3000.27
480.04	3303.37
480.25	3624.90
480.45	3131.34
480.65	3112.91
480.85	3809.22
481.06	3284.94
481.26	3264.46
481.46	3203.02
481.66	3526.60
481.86	3311.57
482.06	3375.05
482.27	3194.83
482.47	3323.85
482.67	3633.10
482.87	3176.40
483.07	3237.84
483.28	3348.43
483.48	3241.93
483.68	3248.08
483.88	3127.25
484.08	3020.75
484.29	3190.74
484.49	3264.46
484.69	2979.79
484.89	3743.69
485.09	3577.80
485.29	3200.98
485.50	3313.61
485.70	3340.24
485.90	3733.45
486.10	3323.85
486.30	3114.96
486.50	3690.44
486.71	3581.90
486.91	3209.17
487.11	3289.04
487.31	3129.30
487.51	3549.13
487.71	3139.54
487.91	3092.43
488.12	3248.08
488.32	2932.69
488.52	3215.31
488.72	2912.21
488.92	3440.59
489.12	3698.63
489.32	3364.81
489.53	3129.30
489.73	3219.41
489.93	3801.03
490.13	3157.97
490.33	3059.67
490.53	3495.88
490.73	3770.31
490.94	3000.27
491.14	3305.42
491.34	3585.99
491.54	3459.02
491.74	3919.81
491.94	4464.57
492.14	5126.07
492.34	5093.30
492.54	4607.93
492.75	4138.94
492.95	4231.10
493.15	4100.03
493.35	3905.48
493.55	3815.37
493.75	3803.08
493.95	4032.45
494.15	3364.81
494.35	3221.45
494.56	3430.35
494.76	3286.99
494.96	3317.71
495.16	3047.38
495.36	3428.30
495.56	3397.58
495.76	3303.37
495.96	3174.35
496.16	3184.59
496.36	3825.61
496.56	3053.52
496.77	3209.17
496.97	3471.31
497.17	3780.55
497.37	3049.43
497.57	3229.65
497.77	3538.89
497.97	3213.26
498.17	3137.49
498.37	3127.25
498.57	3672.01
498.77	3358.67
498.97	3352.52
499.17	3452.88
499.38	3346.38
499.58	3567.56
499.78	3309.52
499.98	3344.33
500.18	3370.96
500.38	3323.85
500.58	3364.81
500.78	3776.45
500.98	5988.26
501.18	7640.97
501.38	9025.40
501.58	9807.72
501.78	10076.01
501.98	8406.91
502.18	6999.96
502.38	6211.49
502.58	6123.43
502.78	5443.50
502.98	5216.18
503.18	5132.21
503.38	4732.86
503.59	4108.23
503.79	3932.10
503.99	3696.58
504.19	3917.76
504.39	3919.81
504.59	3592.14
504.79	3469.26
504.99	3954.63
505.19	3719.11
505.39	3313.61
505.59	3633.10
505.79	3899.33
505.99	3561.42
506.19	3301.33
506.39	3321.81
506.59	3282.89
506.79	3330.00
506.99	3395.53
507.19	3037.14
507.39	3446.73
507.59	3164.11
507.79	3117.01
507.99	3166.16
508.19	3366.86
508.39	3264.46
508.59	3137.49
508.79	3250.13
508.99	3885.00
509.19	3227.60
509.39	3172.30
509.59	3076.05
509.79	3278.80
509.99	3565.51
510.19	3344.33
510.39	3239.89
510.59	3448.78
510.79	3321.81
510.99	2987.99
511.19	3155.92
511.39	3839.94
511.59	3700.68
511.79	3385.29
511.99	3164.11
512.19	3833.80
512.38	3426.25
512.58	3135.44
512.78	3094.48
512.98	3688.39
513.18	3708.87
513.38	3071.95
513.58	3289.04
513.78	3456.97
513.98	3391.44
514.18	3205.07
514.38	3114.96
514.58	3483.59
514.78	3295.18
514.98	3098.58
515.18	3196.88
515.38	3198.93
515.58	3776.45
515.78	3137.49
515.98	3176.40
516.18	3631.05
516.38	3323.85
516.57	3186.64
516.77	3106.77
516.97	3581.90
517.17	3256.27
517.37	2975.70
517.57	3209.17
517.77	3477.45
517.97	3282.89
518.17	3235.79
518.37	3033.04
518.57	3225.55
518.77	3305.42
518.97	3209.17
519.16	3200.98
519.36	3645.38
519.56	3278.80
519.76	3024.85
519.96	3170.26
520.16	3770.31
520.36	3256.27
520.56	3350.48
520.76	3123.15
520.96	3440.59
521.16	3618.76
521.35	3420.11
521.55	3323.85
521.75	3450.83
521.95	3366.86
522.15	2979.79
522.35	3067.86
522.55	3268.56
522.75	3608.52
522.95	3065.81
523.14	2979.79
523.34	3416.01
523.54	3246.03
523.74	3323.85
523.94	3182.54
524.14	3110.86
524.34	3542.99
524.54	3364.81
524.73	3170.26
524.93	3532.75
525.13	3387.34
525.33	3016.66
525.53	3444.68
525.73	3657.67
525.93	3403.72
526.13	3211.22
526.32	3123.15
526.52	3663.82
526.72	3665.86
526.92	3172.30
527.12	3117.01
527.32	3223.50
527.52	3594.19
527.71	3229.65
527.91	3192.78
528.11	3387.34
528.31	3381.20
528.51	3137.49
528.71	3344.33
528.90	3655.62
529.10	3710.92
529.30	3180.50
529.50	2961.36
529.70	3629.00
529.90	3291.09
530.09	3147.73
530.29	3033.04
530.49	3276.75
530.69	4044.74
530.89	3346.38
531.09	3264.46
531.28	3289.04
531.48	3702.73
531.68	3190.74
531.88	3119.06
532.08	3563.47
532.28	3409.87
532.47	3221.45
532.67	3248.08
532.87	3639.24
533.07	3190.74
533.27	3254.22
533.46	3258.32
533.66	3502.03
533.86	3409.87
534.06	3254.22
534.26	3102.67
534.45	3338.19
534.65	3663.82
534.85	3268.56
535.05	3049.43
535.25	3616.71
535.44	3043.28
535.64	3186.64
535.84	3213.26
536.04	3301.33
536.24	3416.01
536.43	3160.02
536.63	3135.44
536.83	3409.87
537.03	3456.97
537.22	3016.66
537.42	3010.51
537.62	3532.75
537.82	3254.22
538.02	3385.29
538.21	3264.46
538.41	4044.74
538.61	3608.52
538.81	3229.65
539.00	3327.95
539.20	3198.93
539.40	3346.38
539.60	3106.77
539.79	3438.54
539.99	3409.87
540.19	3229.65
540.39	3114.96
540.58	3178.45
540.78	3594.19
540.98	3467.21
541.18	3354.57
541.37	3200.98
541.57	3442.64
541.77	3467.21
541.97	3076.05
542.16	3004.37
542.36	3293.13
542.56	3639.24
542.76	3303.37
542.95	3178.45
543.15	3483.59
543.35	3598.28
543.54	3098.58
543.74	3096.53
543.94	3788.74
544.14	3246.03
544.33	3327.95
544.53	3172.30
544.73	3231.69
544.93	3317.71
545.12	3184.59
545.32	3174.35
545.52	3379.15
545.71	3180.50
545.91	3231.69
546.11	3100.62
546.30	3295.18
546.50	3416.01
546.70	3164.11
546.90	3188.69
547.09	3094.48
547.29	3381.20
547.49	3299.28
547.68	3190.74
547.88	3344.33
548.08	3600.33
548.27	3491.79
548.47	3157.97
548.67	3295.18
548.87	3596.23
549.06	3100.62
549.26	3033.04
549.46	3434.44
549.65	3272.65
549.85	3155.92
550.05	3229.65
550.24	3172.30
550.44	3434.44
550.64	3272.65
550.83	3266.51
551.03	3798.98
551.23	3663.82
551.42	3198.93
551.62	3127.25
551.82	3418.06
552.01	3379.15
552.21	3520.46
552.41	3182.54
552.60	3735.50
552.80	3506.12
553.00	3123.15
553.19	3178.45
553.39	3755.97
553.59	3217.36
553.78	3309.52
553.98	3157.97
554.17	3248.08
554.37	3534.79
554.57	3192.78
554.76	3041.23
554.96	3323.85
555.16	3397.58
555.35	3254.22
555.55	3418.06
555.75	3495.88
555.94	3602.38
556.14	2979.79
556.33	3233.74
556.53	3430.35
556.73	3426.25
556.92	3139.54
557.12	3059.67
557.32	3891.14
557.51	3772.36
557.71	3217.36
557.90	3370.96
558.10	3651.53
558.30	3280.85
558.49	3256.27
558.69	3084.24
558.88	3520.46
559.08	3428.30
559.28	3209.17
559.47	3198.93
559.67	3585.99
559.86	3913.67
560.06	3127.25
560.26	3147.73
560.45	3565.51
560.65	3389.39
560.84	3499.98
561.04	3047.38
561.24	3499.98
561.43	3172.30
561.63	3407.82
561.82	3286.99
562.02	3561.42
562.22	3213.26
562.41	3110.86
562.61	3143.63
562.80	3207.12
563.00	3991.49
563.19	3135.44
563.39	3205.07
563.59	3499.98
563.78	3276.75
563.98	2926.55
564.17	3176.40
564.37	3028.95
564.56	3303.37
564.76	2981.84
564.96	3248.08
565.15	3485.64
565.35	3991.49
565.54	3131.34
565.74	3200.98
565.93	3526.60
566.13	3409.87
566.32	3278.80
566.52	3364.81
566.71	3479.50
566.91	3633.10
567.11	3354.57
567.30	3094.48
567.50	3567.56
567.69	3536.84
567.89	3192.78
568.08	3065.81
568.28	3467.21
568.47	3082.19
568.67	3272.65
568.86	3149.78
569.06	3575.75
569.25	3393.48
569.45	2998.23
569.64	3196.88
569.84	3315.66
570.04	3477.45
570.23	3164.11
570.43	3237.84
570.62	3499.98
570.82	3805.13
571.01	3100.62
571.21	3108.82
571.40	3209.17
571.60	3669.96
571.79	3262.41
571.99	3221.45
572.18	3223.50
572.38	3551.18
572.57	3246.03
572.77	3231.69
572.96	4038.59
573.16	3583.95
573.35	3223.50
573.55	3428.30
573.74	3514.31
573.94	3373.00
574.13	3160.02
574.33	3356.62
574.52	3708.87
574.71	3356.62
574.91	3227.60
575.10	3123.15
575.30	3397.58
575.49	3211.22
575.69	3004.37
575.88	3100.62
576.08	3420.11
576.27	3674.06
576.47	3119.06
576.66	3303.37
576.86	3741.64
577.05	3510.22
577.25	3239.89
577.44	3389.39
577.64	3323.85
577.83	3571.66
578.02	3207.12
578.22	3405.77
578.41	3872.71
578.61	3311.57
578.80	3078.10
579.00	3209.17
579.19	3413.96
579.39	3545.03
579.58	3270.61
579.77	3250.13
579.97	3729.35
580.16	3659.72
580.36	3346.38
580.55	3219.41
580.75	3528.65
580.94	3454.92
581.13	3352.52
581.33	3434.44
581.52	3481.55
581.72	3829.70
581.91	3323.85
582.11	3155.92
582.30	3602.38
582.49	3428.30
582.69	3528.65
582.88	3209.17
583.08	3588.04
583.27	3663.82
583.47	3340.24
583.66	3129.30
583.85	3225.55
584.05	3375.05
584.24	3317.71
584.44	3172.30
584.63	3631.05
584.82	3704.78
585.02	3422.16
585.21	3307.47
585.41	3573.71
585.60	3493.83
585.79	3401.68
585.99	3499.98
586.18	3516.36
586.37	4388.80
586.57	6606.75
586.76	18423.53
586.96	36490.71
587.15	49442.06
587.34	57339.03
587.54	60707.94
587.73	52905.18
587.93	38436.28
588.12	29873.72
588.31	24434.32
588.51	21771.96
588.70	20457.16
588.89	17778.42
589.09	15089.43
589.28	13182.77
589.47	10334.05
589.67	7819.14
589.86	6174.63
590.06	4935.60
590.25	4548.54
590.44	3819.46
590.64	3583.95
590.83	3655.62
591.02	3639.24
591.22	3233.74
591.41	3299.28
591.60	3387.34
591.80	4003.78
591.99	3063.76
592.18	3164.11
592.38	3641.29
592.57	3342.28
592.76	3190.74
592.96	3266.51
593.15	3313.61
593.34	3669.96
593.54	3069.91
593.73	3352.52
593.92	3592.14
594.12	3561.42
594.31	3289.04
594.50	3327.95
594.70	3493.83
594.89	4050.88
595.08	3090.38
595.28	3252.17
595.47	4196.29
595.66	3551.18
595.86	3135.44
596.05	3106.77
596.24	3282.89
596.43	3821.51
596.63	3241.93
596.82	3368.91
597.01	3604.42
597.21	3762.12
597.40	3135.44
597.59	3221.45
597.79	3442.64
597.98	3571.66
598.17	3217.36
598.36	3205.07
598.56	3569.61
598.75	3305.42
598.94	3284.94
599.14	3194.83
599.33	3413.96
599.52	3588.04
599.71	3260.37
599.91	3182.54
600.10	3530.70
600.29	3413.96
600.48	3276.75
600.68	3381.20
600.87	3581.90
601.06	3354.57
601.26	3262.41
601.45	3360.72
601.64	3338.19
601.83	3807.17
602.03	3090.38
602.22	3069.91
602.41	3657.67
602.60	3985.35
602.80	3276.75
602.99	3385.29
603.18	3289.04
603.37	3442.64
603.57	3014.61
603.76	3182.54
603.95	3676.10
604.14	3303.37
604.34	3065.81
604.53	3147.73
604.72	3485.64
604.91	3590.09
605.10	3166.16
605.30	2983.89
605.49	3919.81
605.68	3497.93
605.87	3178.45
606.07	3147.73
606.26	3418.06
606.45	3594.19
606.64	3151.82
606.84	3069.91
607.03	3403.72
607.22	3592.14
607.41	3223.50
607.60	3188.69
607.80	3610.57
607.99	3391.44
608.18	3215.31
608.37	3289.04
608.56	3311.57
608.76	3639.24
608.95	3352.52
609.14	3131.34
609.33	3643.34
609.52	3766.21
609.72	3231.69
609.91	3313.61
610.10	3520.46
610.29	3815.37
610.48	3338.19
610.68	3256.27
610.87	3379.15
611.06	3616.71
611.25	3139.54
611.44	3325.90
611.63	3303.37
611.83	3727.30
612.02	3108.82
612.21	3332.05
612.40	3100.62
612.59	3248.08
612.79	3164.11
612.98	3250.13
613.17	3811.27
613.36	3448.78
613.55	3319.76
613.74	3051.47
613.93	3467.21
614.13	3491.79
614.32	3319.76
614.51	3196.88
614.70	3323.85
614.89	3430.35
615.08	3297.23
615.28	3516.36
615.47	3192.78
615.66	3540.94
615.85	3237.84
616.04	3254.22
616.23	3446.73
616.42	3397.58
616.62	3164.11
616.81	3184.59
617.00	3510.22
617.19	3528.65
617.38	3188.69
617.57	3352.52
617.76	3626.95
617.95	3651.53
618.15	3280.85
618.34	3467.21
618.53	3166.16
618.72	3684.30
618.91	3248.08
619.10	3254.22
619.29	3309.52
619.48	3551.18
619.68	3123.15
619.87	3119.06
620.06	3119.06
620.25	3545.03
620.44	3080.14
620.63	3221.45
620.82	3481.55
621.01	3475.40
621.20	3194.83
621.39	3227.60
621.59	3592.14
621.78	3379.15
621.97	3172.30
622.16	3327.95
622.35	3575.75
622.54	3624.90
622.73	3248.08
622.92	3008.47
623.11	3721.16
623.30	3356.62
623.49	3274.70
623.68	3102.67
623.88	3729.35
624.07	3268.56
624.26	3088.34
624.45	3147.73
624.64	3426.25
624.83	3479.50
625.02	3192.78
625.21	3209.17
625.40	3434.44
625.59	3762.12
625.78	3301.33
625.97	3332.05
626.16	3788.74
626.35	3549.13
626.54	3225.55
626.74	3430.35
626.93	3442.64
627.12	3422.16
627.31	3207.12
627.50	3211.22
627.69	3661.77
627.88	3270.61
628.07	3090.38
628.26	3039.19
628.45	3266.51
628.64	3196.88
628.83	3133.39
629.02	3065.81
629.21	3622.86
629.40	3491.79
629.59	3037.14
629.78	3209.17
629.97	3446.73
630.16	3487.69
630.35	3061.71
630.54	3282.89
630.73	3330.00
630.92	3514.31
631.11	3162.06
631.30	3344.33
631.49	3661.77
631.68	3389.39
631.87	3178.45
632.06	3108.82
632.25	3942.34
632.44	3348.43
632.63	3200.98
632.82	3229.65
633.01	3252.17
633.20	3471.31
633.39	3135.44
633.58	2963.41
633.77	3590.09
633.96	3524.55
634.15	3336.14
634.34	3229.65
634.53	3536.84
634.72	3278.80
634.91	3059.67
635.10	3155.92
635.29	3606.47
635.48	3430.35
635.67	3149.78
635.86	3028.95
636.05	3715.02
636.24	3481.55
636.43	3190.74
636.62	3213.26
636.81	2924.50
637.00	3514.31
637.19	3237.84
637.38	3151.82
637.57	3301.33
637.76	3413.96
637.95	3428.30
638.14	3330.00
638.33	3393.48
638.52	3491.79
638.71	3131.34
638.89	3067.86
639.08	4007.87
639.27	3647.43
639.46	3323.85
639.65	3688.39
639.84	3860.42
640.03	3966.92
640.22	3553.23
640.41	3573.71
640.60	3432.40
640.79	3524.55
640.98	3362.76
641.17	3350.48
641.36	3641.29
641.55	3516.36
641.74	3026.90
641.92	3145.68
642.11	3184.59
642.30	3360.72
642.49	3059.67
642.68	3135.44
642.87	3581.90
643.06	3590.09
643.25	3121.10
643.44	3131.34
643.63	3442.64
643.82	3573.71
644.00	3137.49
644.19	3246.03
644.38	3254.22
644.57	3526.60
644.76	3246.03
644.95	3360.72
645.14	3469.26
645.33	3444.68
645.52	3289.04
645.71	3045.33
645.89	3207.12
646.08	3422.16
646.27	3235.79
646.46	3338.19
646.65	3157.97
646.84	3508.17
647.03	3100.62
647.22	3311.57
647.40	3528.65
647.59	3327.95
647.78	2994.13
647.97	3223.50
648.16	3213.26
648.35	3594.19
648.54	3463.12
648.73	3157.97
648.91	3631.05
649.10	3547.08
649.29	3086.29
649.48	3151.82
649.67	3536.84
649.86	3438.54
650.05	3282.89
650.23	3377.10
650.42	3332.05
650.61	3737.54
650.80	3391.44
650.99	3428.30
651.18	3680.20
651.36	3702.73
651.55	3112.91
651.74	3319.76
651.93	3348.43
652.12	3413.96
652.31	3223.50
652.49	3272.65
652.68	3393.48
652.87	3692.49
653.06	3280.85
653.25	3336.14
653.44	3442.64
653.62	3801.03
653.81	3284.94
654.00	3205.07
654.19	3575.75
654.38	3971.01
654.56	3327.95
654.75	3086.29
654.94	3682.25
655.13	3499.98
655.32	3125.20
655.51	3278.80
655.69	3364.81
655.88	3608.52
656.07	3028.95
656.26	3090.38
656.45	3102.67
656.63	3471.31
656.82	3100.62
657.01	3528.65
657.20	3303.37
657.38	3729.35
657.57	3102.67
657.76	2951.12
657.95	3563.47
658.14	3323.85
658.32	3348.43
658.51	3055.57
658.70	3553.23
658.89	3542.99
659.08	3243.98
659.26	3395.53
659.45	3164.11
659.64	3581.90
659.83	3231.69
660.01	3534.79
660.20	3463.12
660.39	3819.46
660.58	2871.25
660.76	3135.44
660.95	3149.78
661.14	3446.73
661.33	3024.85
661.51	3254.22
661.70	3315.66
661.89	3532.75
662.08	3215.31
662.26	3043.28
662.45	3198.93
662.64	3778.50
662.83	3305.42
663.01	3063.76
663.20	3315.66
663.39	3798.98
663.58	3229.65
663.76	3098.58
663.95	3526.60
664.14	3254.22
664.32	3332.05
664.51	3061.71
664.70	3076.05
664.89	3573.71
665.07	3086.29
665.26	3325.90
665.45	3114.96
665.64	3504.07
665.82	3174.35
666.01	3297.23
666.20	3223.50
666.38	3639.24
666.57	3530.70
666.76	5648.30
666.95	12425.03
667.13	18736.87
667.32	22195.89
667.51	24907.40
667.69	25335.42
667.88	20963.01
668.07	15441.68
668.25	13332.28
668.44	11720.53
668.63	10268.52
668.81	8933.24
669.00	7681.93
669.19	7247.76
669.38	6277.02
669.56	5298.10
669.75	4761.53
669.94	4313.02
670.12	3737.54
670.31	3493.83
670.50	3360.72
670.68	3667.91
670.87	3608.52
671.06	3127.25
671.24	3282.89
671.43	3731.40
671.62	3409.87
671.80	3147.73
671.99	3276.75
672.18	3436.49
672.36	3622.86
672.55	3272.65
672.74	3254.22
672.92	3354.57
673.11	3659.72
673.29	3078.10
673.48	3315.66
673.67	3438.54
673.85	3739.59
674.04	3096.53
674.23	3266.51
674.41	3823.56
674.60	3180.50
674.79	3026.90
674.97	2992.08
675.16	3663.82
675.34	3661.77
675.53	3157.97
675.72	3235.79
675.90	3907.52
676.09	3309.52
676.28	3190.74
676.46	3051.47
676.65	3573.71
676.83	3219.41
677.02	3252.17
677.21	3311.57
677.39	3409.87
677.58	3262.41
677.77	3200.98
677.95	3057.62
678.14	3325.90
678.32	3307.47
678.51	3219.41
678.70	3532.75
678.88	3299.28
679.07	3424.20
679.25	3213.26
679.44	3246.03
679.63	3141.58
679.81	3475.40
680.00	3491.79
680.18	3200.98
680.37	3864.52
680.55	3477.45
680.74	3114.96
680.93	2944.98
681.11	3413.96
681.30	3434.44
681.48	3157.97
681.67	3180.50
681.85	3440.59
682.04	3241.93
682.23	3334.09
682.41	3325.90
682.60	3383.24
682.78	3401.68
682.97	3043.28
683.15	3237.84
683.34	3471.31
683.53	3745.73
683.71	3076.05
683.90	3190.74
684.08	3870.66
684.27	3334.09
684.45	3237.84
684.64	3262.41
684.82	3467.21
685.01	3612.62
685.19	3200.98
685.38	3508.17
685.57	3409.87
685.75	3280.85
685.94	3149.78
686.12	3119.06
686.31	3317.71
686.49	3774.41
686.68	2953.17
686.86	3332.05
687.05	3416.01
687.23	3739.59
687.42	3188.69
687.60	2996.18
687.79	3631.05
687.97	3762.12
688.16	3311.57
688.34	3358.67
688.53	3110.86
688.71	3499.98
688.90	3626.95
689.08	3280.85
689.27	3076.05
689.45	3549.13
689.64	3393.48
689.82	3254.22
690.01	3538.89
690.19	3549.13
690.38	3196.88
690.56	3362.76
690.75	3215.31
690.93	3334.09
691.12	3168.21
691.30	3250.13
691.49	3278.80
691.67	3442.64
691.86	3614.66
692.04	3207.12
692.23	3305.42
692.41	3405.77
692.60	3581.90
692.78	3305.42
692.97	3411.92
693.15	3604.42
693.34	3393.48
693.52	3342.28
693.71	3377.10
693.89	3289.04
694.08	3055.57
694.26	3270.61
694.44	3637.19
694.63	3606.47
694.81	3110.86
695.00	3135.44
695.18	3719.11
695.37	4003.78
695.55	3276.75
695.74	3233.74
695.92	3299.28
696.10	3700.68
696.29	3000.27
696.47	3090.38
696.66	3215.31
696.84	3286.99
697.03	3231.69
697.21	3461.07
697.40	4818.87
697.58	3764.17
697.76	3192.78
697.95	3188.69
698.13	3252.17
698.32	3352.52
698.50	3241.93
698.68	3198.93
698.87	3575.75
699.05	3821.51
699.24	3221.45
699.42	3139.54
699.61	3364.81
699.79	3483.59
699.97	3235.79
700.16	3074.00
700.34	3157.97
700.53	3444.68
700.71	3477.45
700.89	3256.27
701.08	3389.39
701.26	3303.37
701.45	3563.47
701.63	3135.44
701.81	3377.10
702.00	3262.41
702.18	3272.65
702.37	3184.59
702.55	3680.20
702.73	3461.07
702.92	3192.78
703.10	3485.64
703.28	3583.95
703.47	3176.40
703.65	3409.87
703.84	3262.41
704.02	3227.60
704.20	3715.02
704.39	3137.49
704.57	3162.06
704.75	3553.23
704.94	3559.37
705.12	3446.73
705.30	3958.72
705.49	8079.24
705.67	14604.07
705.86	19283.67
706.04	21511.86
706.22	23830.16
706.41	22548.14
706.59	16615.17
706.77	13244.21
706.96	11568.98
707.14	10835.80
707.32	9293.68
707.51	8236.93
707.69	6903.70
707.87	5801.90
708.06	4884.41
708.24	4206.53
708.42	4097.99
708.61	4245.44
708.79	3295.18
708.97	3336.14
709.16	3553.23
709.34	3497.93
709.52	3250.13
709.71	3286.99
709.89	3651.53
710.07	3200.98
710.26	3180.50
710.44	3155.92
710.62	3622.86
710.80	3461.07
710.99	3291.09
711.17	3368.91
711.35	3327.95
711.54	3256.27
711.72	3454.92
711.90	3239.89
712.09	3495.88
712.27	3327.95
712.45	3332.05
712.63	3262.41
712.82	3524.55
713.00	3401.68
713.18	3340.24
713.37	3446.73
713.55	3688.39
713.73	3573.71
713.91	3336.14
714.10	3235.79
714.28	3352.52
714.46	3450.83
714.65	3377.10
714.83	3198.93
715.01	3575.75
715.19	3487.69
715.38	3096.53
715.56	3362.76
715.74	3299.28
715.92	3352.52
716.11	3452.88
716.29	2973.65
716.47	3436.49
716.65	3395.53
716.84	3074.00
717.02	3327.95
717.20	3141.58
717.38	3272.65
717.57	3340.24
717.75	3213.26
717.93	3364.81
718.11	3518.41
718.30	3069.91
718.48	3246.03
718.66	3733.45
718.84	3811.27
719.03	3252.17
719.21	3078.10
719.39	3868.61
719.57	3553.23
719.75	3352.52
719.94	3088.34
720.12	3340.24
720.30	3438.54
720.48	3254.22
720.67	3225.55
720.85	3315.66
721.03	3348.43
721.21	3205.07
721.39	3313.61
721.58	3620.81
721.76	3477.45
721.94	3215.31
722.12	3262.41
722.30	3868.61
722.49	3297.23
722.67	3237.84
722.85	3248.08
723.03	3125.20
723.21	3352.52
723.40	3229.65
723.58	3295.18
723.76	3612.62
723.94	3700.68
724.12	3223.50
724.30	3508.17
724.49	3676.10
724.67	3203.02
724.85	3192.78
725.03	3127.25
725.21	3622.86
725.40	3663.82
725.58	3227.60
725.76	3426.25
725.94	3526.60
726.12	3129.30
726.30	3272.65
726.49	3168.21
726.67	3379.15
726.85	3532.75
727.03	3958.72
727.21	4908.98
727.39	6172.58
727.57	6369.18
727.76	6682.52
727.94	6637.47
728.12	5980.07
728.30	5089.20
728.48	4804.53
728.66	4390.84
728.84	4374.46
729.03	3975.11
729.21	3663.82
729.39	3540.94
729.57	3461.07
729.75	3487.69
729.93	3364.81
730.11	3164.11
730.30	3352.52
730.48	3368.91
730.66	3239.89
730.84	3354.57
731.02	3430.35
731.20	3348.43
731.38	3270.61
731.56	3026.90
731.74	3213.26
731.93	3502.03
732.11	3258.32
732.29	3225.55
732.47	3522.51
732.65	3459.02
732.83	3385.29
733.01	3381.20
733.19	3241.93
733.37	3581.90
733.56	3160.02
733.74	3207.12
733.92	3758.02
734.10	3352.52
734.28	3307.47
734.46	3035.09
734.64	3377.10
734.82	3379.15
735.00	3196.88
735.18	3153.87
735.36	3528.65
735.54	3377.10
735.73	3145.68
735.91	3348.43
736.09	3846.09
736.27	3436.49
736.45	3340.24
736.63	2949.08
736.81	3346.38
736.99	3653.58
737.17	3362.76
737.35	3192.78
737.53	3434.44
737.71	3342.28
737.89	3438.54
738.07	3217.36
738.25	3254.22
738.43	3114.96
738.61	3221.45
738.80	3106.77
738.98	3127.25
739.16	3295.18
739.34	3166.16
739.52	3487.69
739.70	3407.82
739.88	3569.61
740.06	3252.17
740.24	2893.78
740.42	3745.73
740.60	3069.91
740.78	3221.45
740.96	2910.16
741.14	3346.38
741.32	3450.83
741.50	3069.91
741.68	3456.97
741.86	3721.16
742.04	3174.35
742.22	3110.86
742.40	3223.50
742.58	3512.27
742.76	3280.85
742.94	3434.44
743.12	3016.66
743.30	3393.48
743.48	3469.26
743.66	3000.27
743.84	3207.12
744.02	3418.06
744.20	3389.39
744.38	3039.19
744.56	3246.03
744.74	3895.24
744.92	3516.36
745.10	3467.21
745.28	3266.51
745.46	3743.69
745.64	3397.58
745.82	3299.28
746.00	3192.78
746.18	3518.41
746.36	3227.60
746.54	3293.13
746.72	3237.84
746.90	3221.45
747.08	3751.88
747.26	3213.26
747.44	3299.28
747.62	3561.42
747.80	3477.45
747.98	3319.76
748.15	3190.74
748.33	3860.42
748.51	3424.20
748.69	3274.70
748.87	2983.89
749.05	3424.20
749.23	3330.00
749.41	3239.89
749.59	3194.83
749.77	3618.76
749.95	3327.95
750.13	3162.06
750.31	3454.92
750.49	3370.96
750.67	3672.01
750.85	3352.52
751.03	3194.83
751.20	3882.95
751.38	3461.07
751.56	3364.81
751.74	3272.65
751.92	3401.68
752.10	3180.50
752.28	3313.61
752.46	3131.34
752.64	3428.30
752.82	3405.77
753.00	3348.43
753.18	3110.86
753.35	3319.76
753.53	3450.83
753.71	3086.29
753.89	3241.93
754.07	3489.74
754.25	3706.82
754.43	3358.67
754.61	3172.30
754.79	3583.95
754.97	3387.34
755.14	3332.05
755.32	3119.06
755.50	3436.49
755.68	3469.26
755.86	3098.58
756.04	3137.49
756.22	3049.43
756.40	3608.52
756.57	3444.68
756.75	3145.68
756.93	3622.86
757.11	3698.63
757.29	3110.86
757.47	3067.86
757.65	3100.62
757.82	2926.55
758.00	3082.19
758.18	3237.84
758.36	3221.45
758.54	3841.99
758.72	3041.23
758.90	3364.81
759.07	3551.18
759.25	3268.56
759.43	3317.71
759.61	3057.62
759.79	4556.73
759.97	3690.44
760.15	3172.30
760.32	3164.11
760.50	3483.59
760.68	3794.89
760.86	3008.47
761.04	3383.24
761.22	3563.47
761.39	3450.83
761.57	3452.88
761.75	3270.61
761.93	3571.66
762.11	3463.12
762.28	3268.56
762.46	3186.64
762.64	3647.43
762.82	3200.98
763.00	3151.82
763.18	3344.33
763.35	3231.69
763.53	3565.51
763.71	3313.61
763.89	3102.67
764.07	3575.75
764.24	3450.83
764.42	3223.50
764.60	3221.45
764.78	3651.53
764.96	3647.43
765.13	3336.14
765.31	3108.82
765.49	3635.14
765.67	3246.03
765.84	3153.87
766.02	3059.67
766.20	3104.72
766.38	3540.94
766.56	3235.79
766.73	3286.99
766.91	3370.96
767.09	3407.82
767.27	3194.83
767.44	3166.16
767.62	3553.23
767.80	3510.22
767.98	3137.49
768.15	3182.54
768.33	3653.58
768.51	3647.43
768.69	3383.24
768.87	3223.50
769.04	3485.64
769.22	4059.07
769.40	3323.85
769.58	3317.71
769.75	3569.61
769.93	3674.06
770.11	3215.31
770.28	3069.91
770.46	3606.47
770.64	3614.66
770.82	3198.93
770.99	3117.01
771.17	3672.01
771.35	3370.96
771.53	3289.04
771.70	3125.20
771.88	3579.85
772.06	3407.82
772.23	3194.83
772.41	3327.95
772.59	3450.83
772.77	3149.78
772.94	3190.74
773.12	3350.48
773.30	3401.68
773.47	3485.64
773.65	3114.96
773.83	3418.06
774.01	3411.92
774.18	3043.28
774.36	3229.65
774.54	3155.92
774.71	3534.79
774.89	3180.50
775.07	3067.86
775.24	3270.61
775.42	3282.89
775.60	3729.35
775.78	3074.00
775.95	3117.01
776.13	3039.19
776.31	3114.96
776.48	3401.68
776.66	3456.97
776.84	3299.28
777.01	3276.75
777.19	3041.23
777.37	3178.45
777.54	3583.95
777.72	3837.89
777.90	3286.99
778.07	3157.97
778.25	4120.51
778.43	3672.01
778.60	3074.00
778.78	3176.40
778.96	3721.16
779.13	3108.82
779.31	3223.50
779.49	3241.93
779.66	3446.73
779.84	3413.96
780.01	3145.68
780.19	3047.38
780.37	3717.06
780.54	3557.32
780.72	3053.52
780.90	3155.92
781.07	3319.76
781.25	3323.85
781.43	3319.76
781.60	3164.11
781.78	3680.20
781.95	3477.45
782.13	3155.92
782.31	3119.06
782.48	3055.57
782.66	3354.57
782.83	3467.21
783.01	3387.34
783.19	3583.95
783.36	3499.98
783.54	3094.48
783.72	3286.99
783.89	3291.09
784.07	3493.83
784.24	3334.09
784.42	3360.72
784.60	3473.36
784.77	3461.07
784.95	2996.18
785.12	3180.50
785.30	3485.64
785.47	3254.22
785.65	3086.29
785.83	3178.45
786.00	3340.24
786.18	3375.05
786.35	3112.91
786.53	3069.91
786.71	3725.26
786.88	3567.56
787.06	3291.09
787.23	3237.84
787.41	3153.87
787.58	3370.96
787.76	3092.43
787.94	3213.26
788.11	3577.80
788.29	3157.97
788.46	3246.03
788.64	3092.43
788.81	3387.34
788.99	3231.69
789.16	3110.86
789.34	3135.44
789.52	3221.45
789.69	3340.24
789.87	3041.23
790.04	3133.39
790.22	3518.41
790.39	3870.66
790.57	3035.09
790.74	3141.58
790.92	3659.72
791.09	3141.58
791.27	3235.79
791.44	3291.09
791.62	3340.24
791.79	3569.61
791.97	3327.95
792.15	3592.14
792.32	3678.15
792.50	3483.59
792.67	3434.44
792.85	3532.75
793.02	3461.07
793.20	3418.06
793.37	3053.52
793.55	3155.92
793.72	3194.83
793.90	3635.14
794.07	3178.45
794.25	3135.44
794.42	3411.92
794.60	3385.29
794.77	3170.26
794.95	3334.09
795.12	3616.71
795.30	3508.17
795.47	2992.08
795.65	3565.51
795.82	3614.66
796.00	3330.00
796.17	3241.93
796.34	3125.20
796.52	3483.59
796.69	3692.49
796.87	3409.87
797.04	3409.87
797.22	3698.63
797.39	3563.47
797.57	3370.96
797.74	3297.23
797.92	3524.55
798.09	3348.43
798.27	3512.27
798.44	3147.73
798.62	3176.40
798.79	3426.25
798.96	3297.23
799.14	3184.59
799.31	3977.16
799.49	3360.72
799.66	3237.84
799.84	3278.80
800.01	3180.50
800.19	3454.92
800.36	2985.94
800.53	3280.85
800.71	3508.17
800.88	3719.11
801.06	3082.19
801.23	3104.72
801.41	3317.71
801.58	3403.72
801.75	3231.69
801.93	3215.31
802.10	3555.27
802.28	3393.48
802.45	3237.84
802.63	3225.55
802.80	3696.58
802.97	3356.62
803.15	3172.30
803.32	3166.16
803.50	3180.50
803.67	3260.37
803.84	3112.91
804.02	3334.09
804.19	3381.20
804.37	2934.74
804.54	3053.52
804.71	3237.84
804.89	3321.81
805.06	3213.26
805.24	3153.87
805.41	3012.56
805.58	3276.75
805.76	3944.39
805.93	3112.91
806.10	3262.41
806.28	3485.64
806.45	3454.92
806.63	3377.10
806.80	3254.22
806.97	3487.69
807.15	3456.97
807.32	3268.56
807.49	3176.40
807.67	3094.48
807.84	3504.07
808.01	3002.32
808.19	3264.46
808.36	3899.33
808.54	3407.82
808.71	3229.65
808.88	3149.78
809.06	3641.29
809.23	3745.73
809.40	3160.02
809.58	3186.64
809.75	3424.20
809.92	3182.54
810.10	3479.50
810.27	3143.63
810.44	3479.50
810.62	3549.13
810.79	3205.07
810.96	3258.32
811.14	3321.81
811.31	3508.17
811.48	3352.52
811.66	3309.52
811.83	3641.29
812.00	3567.56
812.18	3373.00
812.35	3516.36
812.52	3336.14
812.69	3313.61
812.87	3125.20
813.04	3033.04
813.21	3413.96
813.39	3348.43
813.56	3133.39
813.73	3499.98
813.91	3203.02
814.08	3450.83
814.25	3217.36
814.42	3037.14
814.60	3381.20
814.77	3450.83
814.94	3145.68
815.12	3348.43
815.29	3721.16
815.46	3295.18
815.63	3231.69
815.81	3205.07
815.98	3289.04
816.15	3395.53
816.33	3274.70
816.50	3190.74
816.67	3409.87
816.84	3381.20
817.02	3098.58
817.19	3127.25
817.36	3532.75
817.53	3565.51
817.71	3155.92
817.88	3196.88
818.05	3370.96
818.22	3346.38
818.40	3338.19
818.57	3104.72
818.74	3469.26
818.91	3370.96
819.09	3383.24
819.26	3301.33
819.43	3319.76
819.60	3260.37
819.78	3397.58
819.95	3256.27
820.12	3237.84
820.29	3762.12
820.47	3467.21
820.64	3170.26
820.81	3237.84
820.98	3256.27
821.15	3256.27
821.33	3313.61
821.50	3119.06
821.67	3592.14
821.84	3186.64
822.02	3219.41
822.19	3551.18
822.36	3340.24
822.53	3121.10
822.70	3164.11
822.88	3418.06
823.05	3755.97
823.22	3221.45
823.39	3141.58
823.56	3368.91
823.74	3850.18
823.91	3045.33
824.08	3110.86
824.25	3131.34
824.42	3770.31
824.60	2965.46
824.77	3186.64
824.94	3358.67
825.11	3569.61
825.28	3039.19
825.45	3295.18
825.63	3450.83
825.80	3221.45
825.97	3344.33
826.14	3278.80
826.31	3092.43
826.48	3596.23
826.66	3147.73
826.83	3061.71
827.00	3422.16
827.17	3250.13
827.34	3295.18
827.51	3160.02
827.69	3393.48
827.86	3182.54
828.03	3129.30
828.20	3293.13
828.37	3338.19
828.54	3483.59
828.71	3119.06
828.89	3258.32
829.06	3510.22
829.23	3669.96
829.40	3231.69
829.57	3123.15
829.74	3561.42
829.91	3303.37
830.09	3190.74
830.26	3401.68
830.43	3864.52
830.60	3391.44
830.77	3215.31
830.94	3399.63
831.11	3577.80
831.28	3418.06
831.46	3274.70
831.63	3188.69
831.80	3665.86
831.97	3211.22
832.14	3241.93
832.31	3198.93
832.48	3385.29
832.65	3655.62
832.82	3381.20
832.99	3313.61
833.17	3196.88
833.34	3680.20
833.51	3145.68
833.68	3035.09
833.85	3629.00
834.02	3180.50
834.19	3119.06
834.36	3223.50
834.53	3540.94
834.70	3606.47
834.87	3227.60
835.04	3006.42
835.22	3295.18
835.39	3360.72
835.56	2961.36
835.73	3002.32
835.90	3723.21
836.07	3262.41
836.24	3135.44
836.41	2985.94
836.58	3243.98
836.75	3684.30
836.92	3041.23
837.09	2992.08
837.26	3655.62
837.43	3481.55
837.60	3020.75
837.77	3047.38
837.94	3581.90
838.12	3557.32
838.29	2971.60
838.46	2969.55
838.63	3196.88
838.80	3753.93
838.97	3016.66
839.14	2961.36
839.31	3538.89
839.48	3561.42
839.65	3074.00
839.82	3153.87
839.99	3514.31
840.16	3491.79
840.33	2949.08
840.50	3074.00
840.67	3393.48
840.84	2904.02
841.01	2942.93
841.18	2977.75
841.35	3420.11
841.52	3610.57
841.69	3305.42
841.86	3123.15
842.03	3375.05
842.20	3633.10
842.37	3035.09
842.54	3082.19
842.71	3424.20
842.88	3100.62
843.05	3020.75
843.22	2975.70
843.39	3686.34
843.56	3274.70
843.73	3028.95
843.90	3069.91
844.07	3450.83
844.24	3682.25
844.41	3041.23
844.58	3051.47
844.75	3418.06
844.92	3436.49
845.09	3117.01
845.26	3133.39
845.43	3639.24
845.60	3264.46
845.77	3133.39
845.94	3114.96
846.10	3637.19
846.27	3125.20
846.44	2912.21
846.61	2865.11
846.78	3528.65
846.95	3610.57
847.12	2893.78
847.29	3024.85
847.46	3223.50
847.63	3672.01
847.80	2942.93
847.97	3033.04
848.14	3962.82
848.31	3344.33
848.48	2873.30
848.65	2944.98
848.82	3330.00
848.98	4083.65
849.15	3131.34
849.32	3086.29
849.49	3602.38
849.66	3440.59
849.83	2971.60
850.00	2992.08
850.17	3678.15
850.34	3330.00
850.51	3000.27
850.68	3096.53
850.85	3936.20
851.01	3528.65
851.18	2932.69
851.35	3117.01
851.52	3547.08
851.69	3723.21
851.86	3004.37
852.03	2975.70
852.20	3622.86
852.37	3479.50
852.53	2854.87
852.70	2987.99
852.87	3418.06
853.04	3565.51
853.21	2897.88
853.38	3297.23
853.55	3700.68
853.72	3696.58
853.89	2906.07
854.05	2998.23
854.22	3360.72
854.39	3368.91
854.56	2975.70
854.73	3106.77
854.90	3280.85
855.07	3358.67
855.23	2959.31
855.40	2912.21
855.57	3373.00
855.74	2899.92
855.91	3168.21
856.08	2832.34
856.25	3166.16
856.41	3356.62
856.58	2983.89
856.75	3082.19
856.92	3147.73
857.09	3557.32
857.26	2832.34
857.42	3055.57
857.59	3485.64
857.76	3313.61
857.93	2922.45
858.10	3149.78
858.27	3178.45
858.43	3461.07
858.60	2996.18
858.77	2955.22
858.94	3243.98
859.11	3657.67
859.27	3172.30
859.44	2926.55
859.61	3878.85
859.78	3577.80
859.95	3028.95
860.12	2897.88
860.28	4030.40
860.45	3770.31
860.62	2949.08
860.79	3102.67
860.95	3416.01
861.12	3200.98
861.29	2934.74
861.46	3010.51
861.63	3387.34
861.79	3409.87
861.96	2920.40
862.13	2979.79
862.30	3760.07
862.47	3233.74
862.63	2830.29
862.80	3082.19
862.97	3700.68
863.14	3450.83
863.30	3082.19
863.47	2992.08
863.64	3706.82
863.81	3430.35
863.97	2863.06
864.14	3065.81
864.31	3418.06
864.48	3524.55
864.65	3020.75
864.81	3123.15
864.98	3590.09
865.15	3620.81
865.32	3106.77
865.48	3149.78
865.65	3727.30
865.82	3332.05
865.98	3088.34
866.15	3002.32
866.32	3444.68
866.49	3452.88
866.65	3248.08
866.82	3004.37
866.99	3411.92
867.16	3311.57
867.32	3078.10
867.49	2916.31
867.66	3422.16
867.83	3368.91
867.99	2934.74
868.16	3024.85
868.33	3061.71
868.49	3409.87
868.66	3047.38
868.83	3076.05
868.99	3452.88
869.16	3411.92
869.33	3217.36
869.50	3192.78
869.66	3340.24
869.83	3387.34
870.00	2932.69
870.16	3155.92
870.33	3350.48
870.50	3598.28
870.66	3098.58
870.83	3028.95
871.00	3444.68
871.17	3555.27
871.33	3049.43
871.50	2920.40
871.67	3416.01
871.83	3123.15
872.00	3065.81
872.17	3002.32
872.33	3803.08
872.50	3631.05
872.67	2965.46
872.83	3049.43
873.00	3510.22
873.17	3424.20
873.33	3151.82
873.50	3035.09
873.67	3221.45
873.83	3254.22
874.00	2987.99
874.16	3157.97
874.33	3461.07
874.50	3200.98
874.66	2936.79
874.83	3098.58
875.00	3745.73
875.16	3694.54
875.33	3125.20
875.50	2766.81
875.66	3293.13
875.83	3420.11
875.99	3108.82
876.16	3192.78
876.33	3192.78
876.49	3418.06
876.66	3018.71
876.83	3106.77
876.99	3143.63
877.16	3422.16
877.32	2926.55
877.49	3086.29
877.66	3612.62
877.82	3788.74
877.99	3239.89
878.15	3362.76
878.32	3508.17
878.49	3508.17
878.65	3160.02
878.82	3325.90
878.98	3291.09
879.15	3665.86
879.32	3233.74
879.48	3198.93
879.65	3305.42
879.81	3297.23
879.98	3020.75
880.15	3114.96
880.31	3563.47
880.48	3252.17
880.64	3129.30
880.81	3192.78
880.97	3817.41
881.14	3762.12
881.31	2994.13
881.47	3196.88
881.64	3370.96
881.80	3067.86
881.97	3295.18
882.13	3033.04
882.30	3188.69
882.47	3301.33
882.63	3051.47
882.80	2990.03
882.96	3362.76
883.13	3680.20
883.29	3014.61
883.46	3000.27
883.62	3909.57
883.79	3452.88
883.95	3194.83
884.12	2969.55
884.29	3690.44
884.45	3471.31
884.62	3041.23
884.78	2992.08
884.95	3817.41
885.11	3231.69
885.28	3094.48
885.44	3065.81
885.61	3549.13
885.77	3733.45
885.94	3178.45
886.10	3137.49
886.27	3379.15
886.43	3819.46
886.60	3243.98
886.76	3088.34
886.93	3166.16
887.09	3401.68
887.26	2992.08
887.42	3219.41
887.59	3676.10
887.75	3887.04
887.92	3291.09
888.08	3127.25
888.25	3848.13
888.41	3622.86
888.58	3090.38
888.74	2934.74
888.91	3299.28
>>>>>End Processed Spectral Data<<<<<
