SpectraSuite Data File
++++++++++++++++++++++++++++++++++++
Date: Fri May 06 09:28:52 CEST 2016
User: root
Dark Spectrum Present: No
Reference Spectrum Present: No
Number of Sampled Component Spectra: 1
Spectrometers: USB4C02835
Integration Time (usec): 100000 (USB4C02835)
Spectra Averaged: 1 (USB4C02835)
Boxcar Smoothing: 0 (USB4C02835)
Correct for Electrical Dark: No (USB4C02835)
Strobe/Lamp Enabled: No (USB4C02835)
Correct for Detector Non-linearity: No (USB4C02835)
Correct for Stray Light: No (USB4C02835)
Number of Pixels in Processed Spectrum: 3648
>>>>>Begin Processed Spectral Data<<<<<
177.47	2359.26
177.69	2359.26
177.91	2359.26
178.13	2320.35
178.36	2330.59
178.58	3108.82
178.80	3311.57
179.02	3209.17
179.24	3219.41
179.46	2887.64
179.68	2934.74
179.90	3393.48
180.13	3418.06
180.35	2713.56
180.57	2938.84
180.79	3581.90
181.01	3381.20
181.23	2949.08
181.45	3110.86
181.67	3606.47
181.90	3606.47
182.12	3059.67
182.34	2815.96
182.56	3647.43
182.78	3561.42
183.00	2944.98
183.22	3008.47
183.44	3069.91
183.66	4114.37
183.89	3084.24
184.11	3026.90
184.33	3590.09
184.55	3665.86
184.77	2879.44
184.99	2949.08
185.21	3360.72
185.43	4063.17
185.65	2969.55
185.87	2955.22
186.10	3991.49
186.32	3977.16
186.54	3123.15
186.76	3082.19
186.98	3596.23
187.20	3334.09
187.42	3022.80
187.64	2996.18
187.86	3485.64
188.08	3743.69
188.30	2881.49
188.52	3014.61
188.75	3772.36
188.97	3721.16
189.19	2904.02
189.41	2944.98
189.63	3606.47
189.85	3368.91
190.07	2758.61
190.29	2791.38
190.51	3530.70
190.73	3098.58
190.95	3213.26
191.17	2971.60
191.39	3129.30
191.61	3377.10
191.84	2947.03
192.06	3184.59
192.28	3055.57
192.50	4161.47
192.72	3125.20
192.94	2969.55
193.16	3659.72
193.38	3538.89
193.60	2867.16
193.82	3094.48
194.04	3631.05
194.26	3508.17
194.48	2977.75
194.70	2994.13
194.92	3330.00
195.14	3698.63
195.36	3002.32
195.58	3059.67
195.80	3366.86
196.02	3260.37
196.24	2901.97
196.46	3008.47
196.69	3276.75
196.91	4003.78
197.13	2930.64
197.35	3088.34
197.57	3768.26
197.79	3547.08
198.01	3076.05
198.23	2996.18
198.45	3569.61
198.67	3192.78
198.89	2791.38
199.11	3049.43
199.33	3319.76
199.55	3051.47
199.77	2842.58
199.99	3139.54
200.21	3375.05
200.43	3504.07
200.65	2901.97
200.87	2803.67
201.09	3497.93
201.31	3332.05
201.53	2934.74
201.75	2985.94
201.97	3534.79
202.19	3491.79
202.41	3082.19
202.63	3102.67
202.85	3592.14
203.07	3577.80
203.29	3016.66
203.51	2828.24
203.73	3289.04
203.95	4009.92
204.17	2973.65
204.39	3147.73
204.61	3426.25
204.83	3338.19
205.05	3137.49
205.27	2992.08
205.49	3968.96
205.71	3440.59
205.93	2809.81
206.15	2826.20
206.37	3614.66
206.59	3456.97
206.81	2768.85
207.03	2875.35
207.25	3270.61
207.47	3602.38
207.69	2924.50
207.91	3239.89
208.13	3856.33
208.34	3311.57
208.56	2957.27
208.78	2959.31
209.00	3370.96
209.22	3368.91
209.44	2967.51
209.66	2953.17
209.88	3444.68
210.10	3399.63
210.32	2885.59
210.54	3000.27
210.76	3368.91
210.98	3594.19
211.20	2795.48
211.42	3117.01
211.64	3735.50
211.86	3606.47
212.08	2957.27
212.30	3037.14
212.52	3315.66
212.74	3610.57
212.96	3117.01
213.17	2973.65
213.39	3700.68
213.61	3868.61
213.83	2967.51
214.05	2858.96
214.27	3590.09
214.49	3213.26
214.71	2932.69
214.93	3106.77
215.15	3479.50
215.37	3602.38
215.59	2834.39
215.81	3026.90
216.03	3682.25
216.24	3456.97
216.46	2975.70
216.68	3041.23
216.90	3612.62
217.12	3739.59
217.34	2979.79
217.56	3127.25
217.78	3731.40
218.00	3522.51
218.22	3033.04
218.44	3100.62
218.66	3504.07
218.87	3854.28
219.09	3028.95
219.31	2949.08
219.53	3508.17
219.75	3434.44
219.97	3012.56
220.19	3053.52
220.41	3413.96
220.63	3827.65
220.85	2912.21
221.06	2963.41
221.28	3784.65
221.50	3620.81
221.72	2846.68
221.94	2815.96
222.16	3502.03
222.38	3583.95
222.60	2971.60
222.82	3035.09
223.03	3706.82
223.25	3227.60
223.47	2947.03
223.69	3213.26
223.91	3536.84
224.13	3397.58
224.35	2869.20
224.57	3166.16
224.78	3620.81
225.00	3129.30
225.22	3084.24
225.44	2879.44
225.66	3641.29
225.88	3330.00
226.10	3135.44
226.32	2987.99
226.53	3745.73
226.75	3377.10
226.97	3008.47
227.19	2949.08
227.41	3282.89
227.63	3348.43
227.85	2779.09
228.06	2992.08
228.28	3559.37
228.50	3655.62
228.72	2877.40
228.94	2885.59
229.16	3074.00
229.37	3182.54
229.59	2834.39
229.81	3219.41
230.03	3397.58
230.25	3223.50
230.47	2797.53
230.69	2994.13
230.90	3622.86
231.12	3303.37
231.34	3102.67
231.56	2942.93
231.78	3243.98
232.00	3377.10
232.21	3106.77
232.43	3016.66
232.65	3004.37
232.87	3598.28
233.09	2795.48
233.30	2834.39
233.52	3606.47
233.74	3381.20
233.96	2934.74
234.18	3131.34
234.40	3354.57
234.61	3915.72
234.83	2899.92
235.05	2934.74
235.27	3942.34
235.49	3684.30
235.70	2828.24
235.92	3004.37
236.14	3567.56
236.36	3985.35
236.58	2951.12
236.79	3061.71
237.01	3467.21
237.23	3454.92
237.45	3252.17
237.67	3053.52
237.88	3598.28
238.10	3874.76
238.32	2883.54
238.54	2906.07
238.76	3389.39
238.97	3350.48
239.19	2877.40
239.41	2983.89
239.63	3801.03
239.85	3315.66
240.06	2942.93
240.28	3000.27
240.50	3710.92
240.72	3532.75
240.93	2844.63
241.15	3078.10
241.37	3465.16
241.59	3766.21
241.81	2979.79
242.02	3030.99
242.24	3516.36
242.46	3528.65
242.68	2715.61
242.89	2885.59
243.11	3692.49
243.33	3377.10
243.55	2981.84
243.76	2977.75
243.98	3307.47
244.20	3434.44
244.42	2967.51
244.64	2926.55
244.85	3194.83
245.07	3295.18
245.29	3012.56
245.51	3004.37
245.72	3524.55
245.94	3655.62
246.16	2922.45
246.38	2947.03
246.59	3262.41
246.81	3313.61
247.03	2795.48
247.24	2836.44
247.46	3385.29
247.68	3551.18
247.90	2955.22
248.11	2934.74
248.33	3643.34
248.55	3393.48
248.77	3018.71
248.98	3035.09
249.20	3878.85
249.42	3483.59
249.64	2883.54
249.85	2871.25
250.07	3360.72
250.29	3600.33
250.50	3065.81
250.72	2805.72
250.94	3583.95
251.16	3930.05
251.37	3018.71
251.59	3041.23
251.81	3528.65
252.02	3786.69
252.24	2867.16
252.46	3123.15
252.68	3241.93
252.89	3248.08
253.11	2840.53
253.33	3102.67
253.54	3811.27
253.76	3176.40
253.98	2953.17
254.20	2893.78
254.41	3192.78
254.63	3516.36
254.85	2838.48
255.06	3078.10
255.28	3475.40
255.50	3340.24
255.71	2869.20
255.93	2748.37
256.15	3426.25
256.36	3512.27
256.58	2856.92
256.80	2934.74
257.02	3424.20
257.23	3393.48
257.45	2971.60
257.67	3149.78
257.88	3346.38
258.10	3594.19
258.32	2920.40
258.53	3004.37
258.75	3813.32
258.97	3323.85
259.18	2852.82
259.40	2938.84
259.62	3801.03
259.83	3895.24
260.05	2947.03
260.27	3968.96
260.48	3624.90
260.70	3243.98
260.92	2822.10
261.13	2959.31
261.35	3573.71
261.57	3585.99
261.78	2803.67
262.00	2934.74
262.22	3512.27
262.43	3309.52
262.65	3002.32
262.86	2934.74
263.08	3952.58
263.30	3440.59
263.51	2795.48
263.73	2877.40
263.95	3852.23
264.16	3317.71
264.38	2815.96
264.60	2916.31
264.81	3411.92
265.03	3762.12
265.25	3432.40
265.46	2891.73
265.68	3690.44
265.89	3721.16
266.11	2914.26
266.33	2971.60
266.54	3735.50
266.76	3598.28
266.98	3102.67
267.19	3211.22
267.41	3688.39
267.62	3340.24
267.84	2785.24
268.06	3108.82
268.27	3540.94
268.49	3592.14
268.70	3078.10
268.92	2992.08
269.14	3295.18
269.35	3221.45
269.57	3051.47
269.79	3024.85
270.00	3319.76
270.22	3782.60
270.43	2795.48
270.65	2928.60
270.87	3514.31
271.08	3512.27
271.30	3047.38
271.51	3010.51
271.73	3592.14
271.95	3852.23
272.16	2897.88
272.38	3076.05
272.59	3360.72
272.81	3579.85
273.02	2861.01
273.24	2979.79
273.46	3768.26
273.67	3186.64
273.89	2854.87
274.10	3004.37
274.32	3815.37
274.54	3485.64
274.75	3026.90
274.97	3147.73
275.18	3661.77
275.40	3577.80
275.61	2895.83
275.83	3133.39
276.05	3198.93
276.26	3395.53
276.48	3205.07
276.69	3125.20
276.91	3303.37
277.12	3698.63
277.34	3174.35
277.55	3274.70
277.77	3499.98
277.99	3293.13
278.20	3145.68
278.42	2957.27
278.63	3235.79
278.85	3256.27
279.06	3063.76
279.28	3119.06
279.49	3663.82
279.71	3690.44
279.93	3184.59
280.14	3133.39
280.36	3221.45
280.57	3725.26
280.79	3114.96
281.00	2906.07
281.22	3385.29
281.43	3710.92
281.65	2897.88
281.86	3028.95
282.08	3524.55
282.29	3954.63
282.51	2951.12
282.73	2953.17
282.94	3155.92
283.16	3508.17
283.37	3114.96
283.59	3074.00
283.80	3565.51
284.02	3434.44
284.23	3151.82
284.45	3166.16
284.66	3321.81
284.88	3223.50
285.09	2961.36
285.31	3194.83
285.52	3506.12
285.74	3151.82
285.95	3297.23
286.17	3237.84
286.38	3588.04
286.60	3409.87
286.81	3010.51
287.03	3071.95
287.24	3413.96
287.46	3577.80
287.67	3203.02
287.89	3282.89
288.10	3459.02
288.32	3499.98
288.53	3182.54
288.75	3272.65
288.96	3608.52
289.18	3330.00
289.39	3033.04
289.61	3086.29
289.82	3792.84
290.04	3856.33
290.25	3002.32
290.47	3241.93
290.68	3436.49
290.90	3635.14
291.11	2918.36
291.33	3274.70
291.54	3278.80
291.76	3303.37
291.97	3182.54
292.18	3166.16
292.40	3368.91
292.61	3215.31
292.83	3428.30
293.04	3102.67
293.26	3495.88
293.47	3397.58
293.69	3049.43
293.90	3028.95
294.12	3669.96
294.33	3475.40
294.55	3213.26
294.76	3379.15
294.97	3846.09
295.19	3897.28
295.40	3106.77
295.62	3084.24
295.83	3614.66
296.05	3262.41
296.26	3389.39
296.48	3127.25
296.69	3434.44
296.90	3395.53
297.12	3264.46
297.33	3274.70
297.55	3463.12
297.76	3534.79
297.98	3264.46
298.19	3401.68
298.41	3401.68
298.62	3186.64
298.83	3282.89
299.05	3221.45
299.26	3379.15
299.48	3270.61
299.69	3172.30
299.90	3104.72
300.12	3190.74
300.33	3612.62
300.55	3166.16
300.76	3180.50
300.98	3190.74
301.19	3639.24
301.40	3133.39
301.62	3061.71
301.83	3522.51
302.05	3442.64
302.26	3043.28
302.47	3235.79
302.69	3188.69
302.90	3430.35
303.12	2961.36
303.33	3286.99
303.54	3880.90
303.76	3325.90
303.97	3033.04
304.19	3327.95
304.40	3303.37
304.61	3598.28
304.83	3252.17
305.04	3153.87
305.26	3606.47
305.47	3295.18
305.68	3141.58
305.90	2895.83
306.11	3665.86
306.33	3368.91
306.54	2990.03
306.75	3123.15
306.97	3192.78
307.18	3147.73
307.39	3125.20
307.61	3178.45
307.82	3403.72
308.04	3532.75
308.25	3030.99
308.46	3262.41
308.68	3418.06
308.89	3377.10
309.10	3141.58
309.32	3168.21
309.53	3479.50
309.74	3516.36
309.96	3004.37
310.17	3217.36
310.39	3344.33
310.60	3637.19
310.81	3123.15
311.03	2992.08
311.24	3588.04
311.45	3469.26
311.67	3405.77
311.88	3172.30
312.09	3319.76
312.31	3223.50
312.52	2965.46
312.73	3051.47
312.95	3207.12
313.16	3207.12
313.37	3268.56
313.59	3237.84
313.80	3729.35
314.01	3741.64
314.23	3192.78
314.44	3090.38
314.65	3090.38
314.87	3155.92
315.08	3123.15
315.29	3108.82
315.51	3198.93
315.72	3192.78
315.93	3098.58
316.15	3164.11
316.36	3334.09
316.57	3508.17
316.79	3147.73
317.00	3039.19
317.21	3616.71
317.43	3282.89
317.64	3059.67
317.85	3002.32
318.07	3233.74
318.28	3286.99
318.49	3182.54
318.70	3370.96
318.92	3463.12
319.13	3409.87
319.34	3295.18
319.56	3069.91
319.77	3524.55
319.98	3557.32
320.20	3358.67
320.41	3221.45
320.62	3577.80
320.83	3192.78
321.05	3366.86
321.26	3162.06
321.47	3545.03
321.69	3747.78
321.90	2938.84
322.11	3059.67
322.32	3542.99
322.54	3745.73
322.75	3090.38
322.96	4169.66
323.18	3157.97
323.39	3033.04
323.60	2951.12
323.81	3305.42
324.03	3297.23
324.24	3493.83
324.45	3123.15
324.66	3051.47
324.88	3684.30
325.09	3782.60
325.30	3100.62
325.52	3026.90
325.73	3604.42
325.94	3213.26
326.15	3018.71
326.37	2940.88
326.58	3655.62
326.79	3760.07
327.00	3039.19
327.22	3049.43
327.43	3317.71
327.64	3213.26
327.85	3295.18
328.07	3112.91
328.28	3813.32
328.49	3307.47
328.70	3135.44
328.92	3131.34
329.13	3403.72
329.34	3565.51
329.55	3338.19
329.76	3321.81
329.98	3368.91
330.19	3717.06
330.40	3213.26
330.61	3178.45
330.83	3624.90
331.04	3221.45
331.25	3225.55
331.46	3182.54
331.68	3256.27
331.89	3612.62
332.10	3092.43
332.31	3010.51
332.52	3512.27
332.74	3731.40
332.95	2877.40
333.16	3121.10
333.37	3639.24
333.58	3278.80
333.80	3074.00
334.01	2869.20
334.22	3528.65
334.43	3225.55
334.64	3026.90
334.86	3094.48
335.07	3286.99
335.28	3792.84
335.49	2969.55
335.70	3147.73
335.92	3747.78
336.13	3971.01
336.34	3155.92
336.55	3143.63
336.76	3493.83
336.98	3000.27
337.19	3174.35
337.40	3139.54
337.61	4067.27
337.82	3278.80
338.04	3250.13
338.25	2947.03
338.46	3401.68
338.67	3356.62
338.88	3000.27
339.09	3024.85
339.31	3338.19
339.52	3196.88
339.73	3028.95
339.94	3125.20
340.15	3565.51
340.36	3360.72
340.58	3203.02
340.79	3076.05
341.00	3602.38
341.21	3205.07
341.42	3434.44
341.63	3145.68
341.85	3641.29
342.06	3446.73
342.27	3080.14
342.48	3274.70
342.69	3151.82
342.90	3487.69
343.12	3518.41
343.33	3051.47
343.54	3700.68
343.75	3717.06
343.96	3221.45
344.17	3012.56
344.38	3370.96
344.60	3172.30
344.81	3067.86
345.02	3123.15
345.23	3647.43
345.44	4061.12
345.65	3188.69
345.86	3129.30
346.07	3499.98
346.29	3258.32
346.50	3270.61
346.71	3129.30
346.92	3766.21
347.13	3919.81
347.34	3182.54
347.55	2998.23
347.76	3594.19
347.98	3139.54
348.19	3166.16
348.40	3276.75
348.61	3403.72
348.82	3778.50
349.03	3108.82
349.24	2973.65
349.45	3839.94
349.66	3059.67
349.88	3043.28
350.09	2983.89
350.30	3762.12
350.51	3749.83
350.72	3297.23
350.93	3059.67
351.14	3397.58
351.35	3635.14
351.56	3074.00
351.77	3137.49
351.99	3551.18
352.20	3704.78
352.41	3194.83
352.62	2951.12
352.83	3426.25
353.04	3395.53
353.25	3119.06
353.46	3123.15
353.67	3631.05
353.88	3033.04
354.09	3063.76
354.30	3151.82
354.52	3553.23
354.73	3338.19
354.94	3129.30
355.15	3135.44
355.36	3925.96
355.57	3239.89
355.78	3055.57
355.99	3086.29
356.20	3399.63
356.41	3604.42
356.62	3190.74
356.83	3155.92
357.04	3706.82
357.25	3110.86
357.46	3119.06
357.68	3053.52
357.89	3235.79
358.10	3444.68
358.31	3065.81
358.52	3205.07
358.73	3260.37
358.94	3209.17
359.15	3121.10
359.36	3184.59
359.57	3391.44
359.78	3364.81
359.99	3313.61
360.20	2961.36
360.41	3389.39
360.62	3542.99
360.83	3205.07
361.04	3114.96
361.25	3516.36
361.46	3813.32
361.67	3254.22
361.88	3061.71
362.09	3672.01
362.30	3553.23
362.51	3010.51
362.72	3188.69
362.93	3569.61
363.14	3471.31
363.35	3076.05
363.56	3043.28
363.78	3704.78
363.99	3594.19
364.20	3139.54
364.41	3260.37
364.62	3807.17
364.83	3516.36
365.04	3035.09
365.25	3082.19
365.46	3880.90
365.67	3289.04
365.88	3327.95
366.09	3026.90
366.30	3327.95
366.51	3426.25
366.72	2992.08
366.93	3000.27
367.14	3373.00
367.35	3801.03
367.56	3045.33
367.77	3205.07
367.98	3344.33
368.18	3585.99
368.39	3176.40
368.60	3018.71
368.81	3575.75
369.02	3420.11
369.23	3117.01
369.44	2944.98
369.65	3387.34
369.86	3567.56
370.07	3264.46
370.28	3041.23
370.49	3532.75
370.70	3422.16
370.91	2965.46
371.12	2996.18
371.33	3676.10
371.54	3344.33
371.75	3160.02
371.96	2805.72
372.17	3495.88
372.38	3385.29
372.59	3102.67
372.80	3039.19
373.01	3469.26
373.22	3479.50
373.43	3088.34
373.64	2947.03
373.85	3690.44
374.06	3846.09
374.26	3321.81
374.47	3233.74
374.68	3786.69
374.89	3502.03
375.10	2983.89
375.31	3217.36
375.52	3536.84
375.73	3512.27
375.94	2971.60
376.15	3223.50
376.36	3299.28
376.57	3254.22
376.78	3149.78
376.99	3110.86
377.20	3753.93
377.40	3241.93
377.61	3420.11
377.82	3067.86
378.03	3753.93
378.24	3530.70
378.45	3237.84
378.66	3168.21
378.87	3084.24
379.08	3102.67
379.29	3053.52
379.50	3264.46
379.71	3393.48
379.91	3663.82
380.12	3100.62
380.33	3303.37
380.54	3426.25
380.75	3491.79
380.96	3186.64
381.17	3155.92
381.38	3479.50
381.59	3426.25
381.80	3098.58
382.00	3246.03
382.21	3483.59
382.42	3807.17
382.63	3569.61
382.84	3262.41
383.05	3592.14
383.26	3792.84
383.47	3256.27
383.68	3092.43
383.88	3557.32
384.09	3444.68
384.30	3327.95
384.51	3180.50
384.72	3368.91
384.93	3272.65
385.14	3184.59
385.35	3381.20
385.55	3180.50
385.76	3622.86
385.97	3174.35
386.18	2953.17
386.39	3233.74
386.60	3295.18
386.81	3078.10
387.02	3045.33
387.22	3155.92
387.43	3563.47
387.64	3143.63
387.85	3286.99
388.06	3524.55
388.27	4452.28
388.48	7286.67
388.68	11013.98
388.89	13793.07
389.10	15017.75
389.31	14579.49
389.52	11790.16
389.73	10434.40
389.93	9529.20
390.14	8531.84
390.35	7937.93
390.56	7489.42
390.77	6225.82
390.98	4827.06
391.18	4011.97
391.39	3944.39
391.60	3502.03
391.81	3405.77
392.02	3180.50
392.23	4067.27
392.43	3518.41
392.64	3213.26
392.85	3246.03
393.06	3803.08
393.27	3502.03
393.47	3100.62
393.68	3223.50
393.89	3373.00
394.10	3719.11
394.31	3182.54
394.52	3104.72
394.72	3278.80
394.93	3733.45
395.14	2985.94
395.35	3254.22
395.56	3291.09
395.76	3411.92
395.97	3133.39
396.18	3307.47
396.39	3397.58
396.60	4106.18
396.80	3540.94
397.01	3411.92
397.22	3555.27
397.43	3626.95
397.64	3123.15
397.84	3178.45
398.05	3930.05
398.26	3426.25
398.47	3221.45
398.67	3330.00
398.88	3440.59
399.09	3569.61
399.30	3086.29
399.51	3254.22
399.71	3307.47
399.92	3377.10
400.13	3198.93
400.34	3071.95
400.54	3463.12
400.75	3778.50
400.96	3250.13
401.17	3393.48
401.37	3571.66
401.58	3403.72
401.79	3108.82
402.00	3301.33
402.21	3938.24
402.41	3690.44
402.62	3426.25
402.83	3534.79
403.04	3852.23
403.24	4112.32
403.45	3246.03
403.66	3405.77
403.87	3682.25
404.07	3755.97
404.28	3440.59
404.49	3385.29
404.70	3471.31
404.90	3497.93
405.11	3207.12
405.32	3268.56
405.52	3264.46
405.73	3278.80
405.94	3078.10
406.15	3170.26
406.35	3717.06
406.56	3676.10
406.77	3233.74
406.98	3182.54
407.18	3274.70
407.39	3776.45
407.60	3127.25
407.80	3278.80
408.01	3409.87
408.22	3581.90
408.43	3035.09
408.63	3274.70
408.84	3678.15
409.05	3641.29
409.25	3104.72
409.46	3155.92
409.67	3319.76
409.88	3356.62
410.08	3186.64
410.29	3123.15
410.50	3665.86
410.70	3514.31
410.91	3065.81
411.12	3246.03
411.32	3401.68
411.53	3221.45
411.74	3188.69
411.95	3211.22
412.15	3434.44
412.36	3534.79
412.57	3323.85
412.77	3342.28
412.98	3399.63
413.19	3387.34
413.39	3241.93
413.60	3166.16
413.81	3715.02
414.01	3225.55
414.22	3119.06
414.43	3366.86
414.63	3299.28
414.84	3639.24
415.05	3147.73
415.25	3000.27
415.46	3598.28
415.67	3323.85
415.87	3166.16
416.08	3160.02
416.29	3385.29
416.49	3569.61
416.70	3254.22
416.91	3182.54
417.11	3446.73
417.32	3684.30
417.53	3321.81
417.73	3262.41
417.94	3385.29
418.15	3471.31
418.35	3188.69
418.56	3153.87
418.77	3944.39
418.97	3487.69
419.18	3321.81
419.38	2883.54
419.59	3436.49
419.80	3811.27
420.00	3051.47
420.21	3172.30
420.42	3712.97
420.62	3606.47
420.83	3166.16
421.04	3200.98
421.24	3397.58
421.45	3598.28
421.65	3172.30
421.86	3166.16
422.07	3672.01
422.27	3469.26
422.48	3184.59
422.69	3024.85
422.89	3452.88
423.10	3250.13
423.30	3129.30
423.51	3246.03
423.72	3510.22
423.92	3698.63
424.13	2959.31
424.33	3227.60
424.54	3631.05
424.75	3510.22
424.95	3395.53
425.16	3207.12
425.36	3352.52
425.57	3624.90
425.78	3370.96
425.98	3321.81
426.19	3379.15
426.39	3305.42
426.60	3227.60
426.81	3362.76
427.01	3534.79
427.22	3264.46
427.42	2983.89
427.63	3147.73
427.83	3674.06
428.04	3837.89
428.25	3119.06
428.45	3164.11
428.66	3643.34
428.86	3469.26
429.07	3180.50
429.28	3184.59
429.48	3454.92
429.69	3321.81
429.89	3262.41
430.10	3104.72
430.30	3528.65
430.51	3708.87
430.71	3151.82
430.92	3213.26
431.13	3327.95
431.33	3547.08
431.54	3192.78
431.74	3350.48
431.95	3944.39
432.15	3192.78
432.36	3129.30
432.56	3246.03
432.77	3907.52
432.98	3850.18
433.18	3196.88
433.39	3078.10
433.59	3397.58
433.80	3944.39
434.00	3274.70
434.21	3155.92
434.41	3278.80
434.62	3925.96
434.82	2990.03
435.03	3117.01
435.23	3465.16
435.44	3106.77
435.64	3088.34
435.85	3203.02
436.06	3618.76
436.26	3672.01
436.47	3168.21
436.67	3147.73
436.88	3370.96
437.08	3600.33
437.29	3254.22
437.49	3317.71
437.70	3688.39
437.90	3444.68
438.11	3416.01
438.31	3270.61
438.52	3702.73
438.72	3665.86
438.93	3475.40
439.13	3297.23
439.34	3600.33
439.54	3297.23
439.75	3258.32
439.95	3184.59
440.16	3239.89
440.36	3393.48
440.57	3168.21
440.77	3188.69
440.98	3426.25
441.18	3559.37
441.39	3074.00
441.59	3078.10
441.80	3860.42
442.00	3381.20
442.21	3223.50
442.41	3033.04
442.62	3682.25
442.82	3260.37
443.02	3131.34
443.23	3166.16
443.43	3315.66
443.64	3665.86
443.84	3063.76
444.05	3231.69
444.25	3409.87
444.46	3325.90
444.66	3088.34
444.87	3426.25
445.07	3160.02
445.28	3379.15
445.48	3332.05
445.69	3270.61
445.89	3987.40
446.09	3434.44
446.30	3467.21
446.50	3583.95
446.71	5052.34
446.91	6131.62
447.12	6852.50
447.32	7284.62
447.53	7124.88
447.73	6164.39
447.93	5402.54
448.14	5212.08
448.34	5453.74
448.55	4480.96
448.75	4399.04
448.96	4100.03
449.16	4163.52
449.36	3985.35
449.57	3352.52
449.77	3176.40
449.98	3327.95
450.18	3631.05
450.39	3102.67
450.59	3389.39
450.79	3428.30
451.00	3229.65
451.20	3373.00
451.41	3160.02
451.61	3487.69
451.81	3389.39
452.02	3102.67
452.22	3198.93
452.43	3334.09
452.63	3217.36
452.84	3264.46
453.04	3110.86
453.24	3551.18
453.45	3360.72
453.65	3198.93
453.86	3243.98
454.06	3401.68
454.26	3471.31
454.47	3092.43
454.67	3393.48
454.87	3473.36
455.08	3389.39
455.28	3319.76
455.49	3319.76
455.69	3276.75
455.89	3885.00
456.10	3270.61
456.30	3149.78
456.51	3633.10
456.71	3454.92
456.91	3358.67
457.12	3143.63
457.32	3481.55
457.52	3162.06
457.73	3297.23
457.93	3411.92
458.14	3305.42
458.34	3092.43
458.54	3143.63
458.75	3024.85
458.95	3661.77
459.15	3540.94
459.36	3200.98
459.56	3076.05
459.76	3938.24
459.97	3420.11
460.17	3135.44
460.37	3168.21
460.58	3387.34
460.78	3551.18
460.99	3194.83
461.19	3102.67
461.39	3248.08
461.60	3438.54
461.80	3241.93
462.00	3043.28
462.21	3454.92
462.41	3262.41
462.61	3024.85
462.82	2977.75
463.02	3635.14
463.22	3434.44
463.43	3252.17
463.63	3016.66
463.83	3717.06
464.04	3502.03
464.24	3106.77
464.44	3168.21
464.64	3438.54
464.85	3592.14
465.05	3221.45
465.25	3119.06
465.46	3270.61
465.66	3635.14
465.86	3203.02
466.07	3125.20
466.27	3354.57
466.47	3094.48
466.68	3024.85
466.88	3321.81
467.08	3532.75
467.29	3655.62
467.49	3182.54
467.69	3215.31
467.89	3524.55
468.10	3426.25
468.30	3231.69
468.50	3219.41
468.71	3657.67
468.91	3035.09
469.11	3350.48
469.31	3270.61
469.52	3254.22
469.72	3850.18
469.92	3385.29
470.13	3157.97
470.33	3479.50
470.53	3467.21
470.73	3530.70
470.94	3786.69
471.14	4003.78
471.34	4595.64
471.54	4263.87
471.75	3932.10
471.95	3753.93
472.15	3798.98
472.36	3669.96
472.56	3592.14
472.76	3936.20
472.96	3764.17
473.17	3352.52
473.37	3272.65
473.57	3393.48
473.77	3461.07
473.98	3246.03
474.18	3090.38
474.38	4140.99
474.58	3395.53
474.79	3043.28
474.99	3348.43
475.19	3717.06
475.39	3274.70
475.60	3213.26
475.80	3106.77
476.00	3573.71
476.20	3428.30
476.41	3213.26
476.61	3229.65
476.81	3844.04
477.01	3305.42
477.21	3475.40
477.42	3307.47
477.62	3280.85
477.82	3563.47
478.02	3123.15
478.23	3123.15
478.43	3299.28
478.63	3344.33
478.83	3186.64
479.03	3223.50
479.24	3733.45
479.44	3948.48
479.64	3135.44
479.84	3006.42
480.04	3330.00
480.25	3567.56
480.45	3102.67
480.65	3084.24
480.85	3778.50
481.06	3360.72
481.26	3227.60
481.46	3092.43
481.66	3508.17
481.86	3258.32
482.06	3352.52
482.27	3248.08
482.47	3319.76
482.67	3600.33
482.87	3178.45
483.07	3157.97
483.28	3315.66
483.48	3143.63
483.68	3217.36
483.88	3008.47
484.08	3049.43
484.29	3180.50
484.49	3284.94
484.69	2971.60
484.89	3696.58
485.09	3612.62
485.29	3184.59
485.50	3303.37
485.70	3256.27
485.90	3739.59
486.10	3268.56
486.30	3141.58
486.50	3696.58
486.71	3575.75
486.91	3178.45
487.11	3243.98
487.31	3180.50
487.51	3606.47
487.71	3174.35
487.91	3049.43
488.12	3264.46
488.32	2940.88
488.52	3157.97
488.72	2910.16
488.92	3573.71
489.12	3796.93
489.32	3325.90
489.53	3139.54
489.73	3078.10
489.93	3858.37
490.13	3168.21
490.33	3043.28
490.53	3489.74
490.73	3631.05
490.94	3024.85
491.14	3264.46
491.34	3594.19
491.54	3549.13
491.74	4034.50
491.94	4534.20
492.14	5121.97
492.34	5189.55
492.54	4679.61
492.75	4179.90
492.95	4542.39
493.15	4196.29
493.35	3778.50
493.55	3819.46
493.75	3753.93
493.95	3968.96
494.15	3403.72
494.35	3319.76
494.56	3393.48
494.76	3229.65
494.96	3319.76
495.16	3102.67
495.36	3442.64
495.56	3459.02
495.76	3260.37
495.96	3160.02
496.16	3303.37
496.36	3837.89
496.56	3096.53
496.77	3196.88
496.97	3459.02
497.17	3743.69
497.37	2994.13
497.57	3352.52
497.77	3540.94
497.97	3237.84
498.17	3188.69
498.37	3151.82
498.57	3612.62
498.77	3321.81
498.97	3422.16
499.17	3534.79
499.38	3459.02
499.58	3444.68
499.78	3280.85
499.98	3336.14
500.18	3434.44
500.38	3307.47
500.58	3289.04
500.78	3712.97
500.98	6045.60
501.18	7999.37
501.38	9195.38
501.58	10086.25
501.78	10127.21
501.98	8284.03
502.18	7026.58
502.38	6367.13
502.58	6291.36
502.78	5451.69
502.98	5269.42
503.18	5111.73
503.38	4868.02
503.59	4319.17
503.79	4065.22
503.99	3788.74
504.19	4007.87
504.39	3885.00
504.59	3649.48
504.79	3512.27
504.99	3966.92
505.19	3598.28
505.39	3381.20
505.59	3563.47
505.79	3823.56
505.99	3643.34
506.19	3225.55
506.39	3434.44
506.59	3272.65
506.79	3348.43
506.99	3385.29
507.19	3049.43
507.39	3549.13
507.59	3188.69
507.79	3221.45
507.99	3133.39
508.19	3401.68
508.39	3336.14
508.59	3178.45
508.79	3291.09
508.99	3864.52
509.19	3278.80
509.39	3182.54
509.59	3065.81
509.79	3289.04
509.99	3491.79
510.19	3319.76
510.39	3264.46
510.59	3368.91
510.79	3354.57
510.99	3002.32
511.19	3119.06
511.39	3846.09
511.59	3596.23
511.79	3362.76
511.99	3129.30
512.19	3835.85
512.38	3508.17
512.58	3096.53
512.78	3098.58
512.98	3784.65
513.18	3876.80
513.38	3016.66
513.58	3248.08
513.78	3360.72
513.98	3383.24
514.18	3205.07
514.38	3229.65
514.58	3547.08
514.78	3254.22
514.98	3074.00
515.18	3200.98
515.38	3209.17
515.58	3782.60
515.78	3117.01
515.98	3205.07
516.18	3534.79
516.38	3452.88
516.57	3155.92
516.77	3139.54
516.97	3553.23
517.17	3327.95
517.37	2975.70
517.57	3221.45
517.77	3409.87
517.97	3356.62
518.17	3186.64
518.37	3051.47
518.57	3323.85
518.77	3360.72
518.97	3266.51
519.16	3180.50
519.36	3622.86
519.56	3311.57
519.76	3088.34
519.96	3229.65
520.16	3811.27
520.36	3262.41
520.56	3426.25
520.76	3106.77
520.96	3368.91
521.16	3704.78
521.35	3350.48
521.55	3237.84
521.75	3542.99
521.95	3354.57
522.15	3104.72
522.35	3010.51
522.55	3164.11
522.75	3594.19
522.95	3053.52
523.14	3004.37
523.34	3385.29
523.54	3327.95
523.74	3262.41
523.94	3184.59
524.14	3135.44
524.34	3583.95
524.54	3401.68
524.73	3141.58
524.93	3530.70
525.13	3385.29
525.33	3112.91
525.53	3389.39
525.73	3600.33
525.93	3459.02
526.13	3260.37
526.32	3008.47
526.52	3635.14
526.72	3624.90
526.92	3176.40
527.12	3106.77
527.32	3162.06
527.52	3528.65
527.71	3246.03
527.91	3241.93
528.11	3313.61
528.31	3409.87
528.51	3071.95
528.71	3309.52
528.90	3598.28
529.10	3641.29
529.30	3239.89
529.50	2877.40
529.70	3463.12
529.90	3389.39
530.09	3190.74
530.29	2987.99
530.49	3303.37
530.69	4069.31
530.89	3297.23
531.09	3313.61
531.28	3200.98
531.48	3690.44
531.68	3135.44
531.88	3182.54
532.08	3688.39
532.28	3391.44
532.47	3260.37
532.67	3344.33
532.87	3508.17
533.07	3291.09
533.27	3221.45
533.46	3233.74
533.66	3524.55
533.86	3284.94
534.06	3117.01
534.26	3186.64
534.45	3385.29
534.65	3655.62
534.85	3258.32
535.05	3141.58
535.25	3596.23
535.44	3051.47
535.64	3237.84
535.84	3207.12
536.04	3375.05
536.24	3370.96
536.43	3057.62
536.63	3121.10
536.83	3362.76
537.03	3397.58
537.22	3002.32
537.42	2996.18
537.62	3557.32
537.82	3252.17
538.02	3364.81
538.21	3207.12
538.41	4077.51
538.61	3651.53
538.81	3231.69
539.00	3327.95
539.20	3053.52
539.40	3368.91
539.60	3166.16
539.79	3420.11
539.99	3385.29
540.19	3176.40
540.39	3166.16
540.58	3160.02
540.78	3667.91
540.98	3520.46
541.18	3403.72
541.37	3239.89
541.57	3434.44
541.77	3459.02
541.97	3117.01
542.16	3057.62
542.36	3344.33
542.56	3614.66
542.76	3323.85
542.95	3217.36
543.15	3545.03
543.35	3526.60
543.54	3123.15
543.74	3090.38
543.94	3745.73
544.14	3235.79
544.33	3231.69
544.53	3235.79
544.73	3411.92
544.93	3282.89
545.12	3164.11
545.32	3166.16
545.52	3397.58
545.71	3129.30
545.91	3174.35
546.11	3082.19
546.30	3270.61
546.50	3403.72
546.70	3203.02
546.90	3145.68
547.09	3026.90
547.29	3526.60
547.49	3321.81
547.68	3184.59
547.88	3252.17
548.08	3606.47
548.27	3516.36
548.47	3155.92
548.67	3315.66
548.87	3450.83
549.06	3094.48
549.26	2996.18
549.46	3483.59
549.65	3280.85
549.85	3250.13
550.05	3164.11
550.24	3174.35
550.44	3440.59
550.64	3200.98
550.83	3155.92
551.03	3831.75
551.23	3598.28
551.42	3168.21
551.62	3213.26
551.82	3436.49
552.01	3393.48
552.21	3456.97
552.41	3211.22
552.60	3776.45
552.80	3413.96
553.00	3131.34
553.19	3190.74
553.39	3856.33
553.59	3221.45
553.78	3346.38
553.98	3106.77
554.17	3229.65
554.37	3452.88
554.57	3147.73
554.76	3016.66
554.96	3305.42
555.16	3440.59
555.35	3217.36
555.55	3418.06
555.75	3485.64
555.94	3520.46
556.14	3039.19
556.33	3190.74
556.53	3422.16
556.73	3407.82
556.92	3127.25
557.12	3127.25
557.32	3934.15
557.51	3712.97
557.71	3272.65
557.90	3270.61
558.10	3749.83
558.30	3395.53
558.49	3207.12
558.69	3213.26
558.88	3534.79
559.08	3475.40
559.28	3141.58
559.47	3180.50
559.67	3649.48
559.86	3768.26
560.06	3123.15
560.26	3162.06
560.45	3553.23
560.65	3385.29
560.84	3434.44
561.04	3057.62
561.24	3661.77
561.43	3145.68
561.63	3469.26
561.82	3266.51
562.02	3528.65
562.22	3270.61
562.41	3170.26
562.61	3235.79
562.80	3227.60
563.00	3944.39
563.19	3217.36
563.39	3246.03
563.59	3657.67
563.78	3188.69
563.98	2979.79
564.17	3235.79
564.37	3035.09
564.56	3479.50
564.76	3035.09
564.96	3297.23
565.15	3545.03
565.35	4034.50
565.54	3147.73
565.74	3096.53
565.93	3553.23
566.13	3430.35
566.32	3274.70
566.52	3250.13
566.71	3383.24
566.91	3674.06
567.11	3299.28
567.30	3086.29
567.50	3530.70
567.69	3545.03
567.89	3117.01
568.08	3047.38
568.28	3479.50
568.47	3155.92
568.67	3155.92
568.86	3106.77
569.06	3555.27
569.25	3356.62
569.45	3012.56
569.64	3239.89
569.84	3332.05
570.04	3459.02
570.23	3147.73
570.43	3139.54
570.62	3481.55
570.82	3807.17
571.01	3061.71
571.21	3076.05
571.40	3164.11
571.60	3581.90
571.79	3278.80
571.99	3155.92
572.18	3205.07
572.38	3442.64
572.57	3237.84
572.77	3200.98
572.96	4034.50
573.16	3493.83
573.35	3219.41
573.55	3352.52
573.74	3440.59
573.94	3360.72
574.13	3143.63
574.33	3356.62
574.52	3762.12
574.71	3373.00
574.91	3196.88
575.10	3037.14
575.30	3295.18
575.49	3254.22
575.69	3141.58
575.88	3141.58
576.08	3405.77
576.27	3614.66
576.47	3090.38
576.66	3352.52
576.86	3739.59
577.05	3516.36
577.25	3155.92
577.44	3381.20
577.64	3217.36
577.83	3602.38
578.02	3088.34
578.22	3379.15
578.41	3846.09
578.61	3401.68
578.80	3016.66
579.00	3184.59
579.19	3504.07
579.39	3547.08
579.58	3243.98
579.77	3123.15
579.97	3727.30
580.16	3651.53
580.36	3332.05
580.55	3295.18
580.75	3583.95
580.94	3395.53
581.13	3327.95
581.33	3477.45
581.52	3393.48
581.72	3813.32
581.91	3256.27
582.11	3092.43
582.30	3538.89
582.49	3477.45
582.69	3463.12
582.88	3188.69
583.08	3526.60
583.27	3608.52
583.47	3270.61
583.66	3065.81
583.85	3196.88
584.05	3438.54
584.24	3325.90
584.44	3198.93
584.63	3618.76
584.82	3559.37
585.02	3368.91
585.21	3338.19
585.41	3481.55
585.60	3426.25
585.79	3411.92
585.99	3510.22
586.18	3422.16
586.37	4487.10
586.57	6580.12
586.76	18468.58
586.96	37404.10
587.15	49892.61
587.34	57859.21
587.54	61615.19
587.73	53908.68
587.93	38845.87
588.12	29994.55
588.31	24786.57
588.51	22007.47
588.70	20692.68
588.89	17960.69
589.09	15402.77
589.28	13322.04
589.47	10493.79
589.67	7778.19
589.86	6293.41
590.06	5048.24
590.25	4534.20
590.44	3835.85
590.64	3567.56
590.83	3686.34
591.02	3688.39
591.22	3164.11
591.41	3151.82
591.60	3395.53
591.80	3995.59
591.99	3067.86
592.18	3209.17
592.38	3635.14
592.57	3317.71
592.76	3145.68
592.96	3286.99
593.15	3379.15
593.34	3704.78
593.54	3194.83
593.73	3221.45
593.92	3524.55
594.12	3606.47
594.31	3172.30
594.50	3418.06
594.70	3534.79
594.89	4048.83
595.08	3078.10
595.28	3280.85
595.47	4059.07
595.66	3649.48
595.86	3164.11
596.05	3102.67
596.24	3286.99
596.43	3778.50
596.63	3227.60
596.82	3426.25
597.01	3614.66
597.21	3823.56
597.40	3063.76
597.59	3102.67
597.79	3426.25
597.98	3528.65
598.17	3264.46
598.36	3311.57
598.56	3545.03
598.75	3385.29
598.94	3229.65
599.14	3205.07
599.33	3377.10
599.52	3592.14
599.71	3258.32
599.91	3196.88
600.10	3588.04
600.29	3444.68
600.48	3262.41
600.68	3301.33
600.87	3504.07
601.06	3321.81
601.26	3307.47
601.45	3403.72
601.64	3377.10
601.83	3839.94
602.03	3037.14
602.22	3067.86
602.41	3692.49
602.60	3936.20
602.80	3299.28
602.99	3360.72
603.18	3395.53
603.37	3528.65
603.57	3131.34
603.76	3215.31
603.95	3688.39
604.14	3330.00
604.34	3051.47
604.53	3215.31
604.72	3532.75
604.91	3573.71
605.10	3143.63
605.30	3014.61
605.49	3983.30
605.68	3641.29
605.87	3200.98
606.07	3125.20
606.26	3567.56
606.45	3579.85
606.64	3178.45
606.84	3090.38
607.03	3434.44
607.22	3567.56
607.41	3188.69
607.60	3100.62
607.80	3626.95
607.99	3418.06
608.18	3172.30
608.37	3180.50
608.56	3203.02
608.76	3639.24
608.95	3338.19
609.14	3180.50
609.33	3647.43
609.52	3758.02
609.72	3311.57
609.91	3282.89
610.10	3420.11
610.29	3788.74
610.48	3362.76
610.68	3311.57
610.87	3454.92
611.06	3639.24
611.25	3209.17
611.44	3332.05
611.63	3354.57
611.83	3762.12
612.02	3125.20
612.21	3321.81
612.40	3069.91
612.59	3196.88
612.79	3198.93
612.98	3223.50
613.17	3772.36
613.36	3397.58
613.55	3340.24
613.74	3112.91
613.93	3432.40
614.13	3598.28
614.32	3350.48
614.51	3194.83
614.70	3387.34
614.89	3311.57
615.08	3409.87
615.28	3450.83
615.47	3223.50
615.66	3594.19
615.85	3188.69
616.04	3188.69
616.23	3413.96
616.42	3499.98
616.62	3147.73
616.81	3168.21
617.00	3373.00
617.19	3487.69
617.38	3178.45
617.57	3336.14
617.76	3608.52
617.95	3585.99
618.15	3315.66
618.34	3393.48
618.53	3166.16
618.72	3641.29
618.91	3211.22
619.10	3254.22
619.29	3411.92
619.48	3534.79
619.68	3186.64
619.87	3117.01
620.06	3082.19
620.25	3665.86
620.44	3147.73
620.63	3069.91
620.82	3405.77
621.01	3452.88
621.20	3252.17
621.39	3270.61
621.59	3454.92
621.78	3416.01
621.97	3182.54
622.16	3364.81
622.35	3520.46
622.54	3604.42
622.73	3258.32
622.92	2953.17
623.11	3626.95
623.30	3291.09
623.49	3348.43
623.68	3067.86
623.88	3747.78
624.07	3254.22
624.26	3100.62
624.45	3155.92
624.64	3385.29
624.83	3508.17
625.02	3143.63
625.21	3168.21
625.40	3485.64
625.59	3708.87
625.78	3250.13
625.97	3278.80
626.16	3672.01
626.35	3598.28
626.54	3188.69
626.74	3356.62
626.93	3362.76
627.12	3313.61
627.31	3209.17
627.50	3268.56
627.69	3618.76
627.88	3221.45
628.07	3127.25
628.26	3059.67
628.45	3309.52
628.64	3299.28
628.83	3135.44
629.02	3026.90
629.21	3598.28
629.40	3514.31
629.59	2996.18
629.78	3207.12
629.97	3422.16
630.16	3542.99
630.35	3184.59
630.54	3246.03
630.73	3327.95
630.92	3401.68
631.11	3106.77
631.30	3213.26
631.49	3610.57
631.68	3436.49
631.87	3200.98
632.06	3086.29
632.25	3975.11
632.44	3493.83
632.63	3153.87
632.82	3186.64
633.01	3276.75
633.20	3416.01
633.39	3123.15
633.58	2924.50
633.77	3559.37
633.96	3508.17
634.15	3313.61
634.34	3327.95
634.53	3540.94
634.72	3264.46
634.91	3039.19
635.10	3188.69
635.29	3569.61
635.48	3438.54
635.67	2916.31
635.86	3051.47
636.05	3784.65
636.24	3446.73
636.43	3162.06
636.62	3276.75
636.81	2947.03
637.00	3477.45
637.19	3278.80
637.38	3188.69
637.57	3305.42
637.76	3448.78
637.95	3409.87
638.14	3262.41
638.33	3483.59
638.52	3538.89
638.71	3069.91
638.89	3059.67
639.08	3989.44
639.27	3647.43
639.46	3448.78
639.65	3651.53
639.84	3895.24
640.03	4110.27
640.22	3487.69
640.41	3465.16
640.60	3461.07
640.79	3649.48
640.98	3426.25
641.17	3405.77
641.36	3641.29
641.55	3590.09
641.74	3026.90
641.92	3047.38
642.11	3108.82
642.30	3377.10
642.49	3129.30
642.68	3145.68
642.87	3467.21
643.06	3600.33
643.25	2992.08
643.44	3057.62
643.63	3381.20
643.82	3571.66
644.00	3149.78
644.19	3229.65
644.38	3209.17
644.57	3583.95
644.76	3196.88
644.95	3342.28
645.14	3479.50
645.33	3413.96
645.52	3289.04
645.71	3055.57
645.89	3272.65
646.08	3471.31
646.27	3157.97
646.46	3395.53
646.65	3209.17
646.84	3391.44
647.03	3049.43
647.22	3260.37
647.40	3483.59
647.59	3442.64
647.78	2977.75
647.97	3192.78
648.16	3248.08
648.35	3657.67
648.54	3469.26
648.73	3207.12
648.91	3647.43
649.10	3497.93
649.29	3020.75
649.48	3067.86
649.67	3485.64
649.86	3534.79
650.05	3184.59
650.23	3338.19
650.42	3213.26
650.61	3733.45
650.80	3344.33
650.99	3346.38
651.18	3639.24
651.36	3649.48
651.55	3131.34
651.74	3315.66
651.93	3286.99
652.12	3420.11
652.31	3297.23
652.49	3160.02
652.68	3295.18
652.87	3829.70
653.06	3229.65
653.25	3432.40
653.44	3430.35
653.62	3706.82
653.81	3184.59
654.00	3106.77
654.19	3614.66
654.38	3997.64
654.56	3221.45
654.75	3123.15
654.94	3600.33
655.13	3479.50
655.32	3141.58
655.51	3229.65
655.69	3338.19
655.88	3717.06
656.07	3035.09
656.26	3221.45
656.45	3147.73
656.63	3350.48
656.82	3139.54
657.01	3573.71
657.20	3213.26
657.38	3864.52
657.57	3172.30
657.76	3039.19
657.95	3626.95
658.14	3311.57
658.32	3297.23
658.51	3114.96
658.70	3413.96
658.89	3465.16
659.08	3254.22
659.26	3393.48
659.45	3264.46
659.64	3563.47
659.83	3098.58
660.01	3538.89
660.20	3477.45
660.39	3870.66
660.58	2891.73
660.76	3233.74
660.95	3061.71
661.14	3495.88
661.33	3063.76
661.51	3225.55
661.70	3272.65
661.89	3487.69
662.08	3282.89
662.26	3028.95
662.45	3221.45
662.64	3694.54
662.83	3225.55
663.01	3063.76
663.20	3319.76
663.39	3661.77
663.58	3196.88
663.76	3172.30
663.95	3592.14
664.14	3246.03
664.32	3268.56
664.51	3119.06
664.70	3080.14
664.89	3512.27
665.07	3102.67
665.26	3307.47
665.45	3147.73
665.64	3504.07
665.82	3074.00
666.01	3368.91
666.20	3196.88
666.38	3594.19
666.57	3516.36
666.76	5834.66
666.95	12601.15
667.13	18874.08
667.32	22666.92
667.51	25212.54
667.69	25777.78
667.88	21020.35
668.07	15478.55
668.25	13166.39
668.44	11677.52
668.63	10182.50
668.81	8984.44
669.00	7776.14
669.19	7182.23
669.38	6449.05
669.56	5418.93
669.75	4718.52
669.94	4376.51
670.12	3755.97
670.31	3454.92
670.50	3450.83
670.68	3676.10
670.87	3508.17
671.06	3151.82
671.24	3282.89
671.43	3796.93
671.62	3377.10
671.80	3153.87
671.99	3350.48
672.18	3366.86
672.36	3612.62
672.55	3233.74
672.74	3250.13
672.92	3321.81
673.11	3565.51
673.29	3024.85
673.48	3420.11
673.67	3330.00
673.85	3645.38
674.04	3026.90
674.23	3250.13
674.41	3862.47
674.60	3172.30
674.79	2981.84
674.97	3045.33
675.16	3569.61
675.34	3573.71
675.53	3162.06
675.72	3274.70
675.90	3819.46
676.09	3393.48
676.28	3325.90
676.46	3004.37
676.65	3557.32
676.83	3186.64
677.02	3221.45
677.21	3276.75
677.39	3401.68
677.58	3295.18
677.77	3180.50
677.95	3020.75
678.14	3418.06
678.32	3344.33
678.51	3229.65
678.70	3553.23
678.88	3309.52
679.07	3475.40
679.25	3100.62
679.44	3147.73
679.63	3174.35
679.81	3516.36
680.00	3379.15
680.18	3231.69
680.37	3792.84
680.55	3524.55
680.74	3022.80
680.93	2930.64
681.11	3442.64
681.30	3467.21
681.48	3260.37
681.67	3188.69
681.85	3512.27
682.04	3219.41
682.23	3413.96
682.41	3360.72
682.60	3325.90
682.78	3438.54
682.97	3164.11
683.15	3231.69
683.34	3508.17
683.53	3745.73
683.71	3061.71
683.90	3166.16
684.08	3786.69
684.27	3278.80
684.45	3250.13
684.64	3243.98
684.82	3442.64
685.01	3565.51
685.19	3125.20
685.38	3532.75
685.57	3504.07
685.75	3305.42
685.94	3112.91
686.12	3145.68
686.31	3354.57
686.49	3839.94
686.68	2975.70
686.86	3172.30
687.05	3463.12
687.23	3684.30
687.42	3198.93
687.60	3039.19
687.79	3649.48
687.97	3792.84
688.16	3280.85
688.34	3334.09
688.53	3182.54
688.71	3567.56
688.90	3504.07
689.08	3229.65
689.27	3082.19
689.45	3618.76
689.64	3305.42
689.82	3237.84
690.01	3612.62
690.19	3575.75
690.38	3264.46
690.56	3348.43
690.75	3213.26
690.93	3330.00
691.12	3178.45
691.30	3180.50
691.49	3309.52
691.67	3477.45
691.86	3499.98
692.04	3252.17
692.23	3356.62
692.41	3397.58
692.60	3538.89
692.78	3368.91
692.97	3467.21
693.15	3565.51
693.34	3401.68
693.52	3450.83
693.71	3362.76
693.89	3368.91
694.08	3008.47
694.26	3286.99
694.44	3526.60
694.63	3469.26
694.81	3098.58
695.00	3164.11
695.18	3692.49
695.37	3968.96
695.55	3352.52
695.74	3340.24
695.92	3319.76
696.10	3727.30
696.29	3061.71
696.47	3180.50
696.66	3098.58
696.84	3162.06
697.03	3254.22
697.21	3389.39
697.40	4788.15
697.58	3729.35
697.76	3223.50
697.95	3217.36
698.13	3182.54
698.32	3348.43
698.50	3188.69
698.68	3215.31
698.87	3428.30
699.05	3870.66
699.24	3188.69
699.42	3198.93
699.61	3534.79
699.79	3434.44
699.97	3254.22
700.16	3028.95
700.34	3182.54
700.53	3360.72
700.71	3426.25
700.89	3420.11
701.08	3336.14
701.26	3360.72
701.45	3434.44
701.63	3205.07
701.81	3336.14
702.00	3264.46
702.18	3268.56
702.37	3141.58
702.55	3712.97
702.73	3461.07
702.92	3200.98
703.10	3497.93
703.28	3504.07
703.47	3289.04
703.65	3430.35
703.84	3303.37
704.02	3346.38
704.20	3749.83
704.39	3131.34
704.57	3147.73
704.75	3528.65
704.94	3647.43
705.12	3278.80
705.30	3979.20
705.49	8173.44
705.67	14640.93
705.86	19435.22
706.04	21595.83
706.22	23979.67
706.41	22623.91
706.59	16828.16
706.77	13608.75
706.96	11839.31
707.14	10749.79
707.32	9426.80
707.51	8107.91
707.69	6883.22
707.87	5744.55
708.06	4913.08
708.24	4310.97
708.42	4014.02
708.61	4216.77
708.79	3280.85
708.97	3354.57
709.16	3551.18
709.34	3450.83
709.52	3237.84
709.71	3237.84
709.89	3598.28
710.07	3270.61
710.26	3094.48
710.44	3227.60
710.62	3637.19
710.80	3436.49
710.99	3344.33
711.17	3297.23
711.35	3256.27
711.54	3348.43
711.72	3418.06
711.90	3256.27
712.09	3463.12
712.27	3391.44
712.45	3348.43
712.63	3200.98
712.82	3493.83
713.00	3383.24
713.18	3325.90
713.37	3379.15
713.55	3745.73
713.73	3567.56
713.91	3260.37
714.10	3164.11
714.28	3440.59
714.46	3524.55
714.65	3293.13
714.83	3299.28
715.01	3534.79
715.19	3459.02
715.38	3145.68
715.56	3330.00
715.74	3262.41
715.92	3295.18
716.11	3602.38
716.29	2932.69
716.47	3459.02
716.65	3350.48
716.84	3088.34
717.02	3233.74
717.20	3035.09
717.38	3311.57
717.57	3381.20
717.75	3313.61
717.93	3309.52
718.11	3565.51
718.30	3137.49
718.48	3274.70
718.66	3778.50
718.84	3688.39
719.03	3227.60
719.21	3065.81
719.39	3796.93
719.57	3526.60
719.75	3313.61
719.94	3166.16
720.12	3456.97
720.30	3418.06
720.48	3252.17
720.67	3286.99
720.85	3248.08
721.03	3373.00
721.21	3123.15
721.39	3252.17
721.58	3612.62
721.76	3420.11
721.94	3239.89
722.12	3237.84
722.30	3772.36
722.49	3260.37
722.67	3200.98
722.85	3205.07
723.03	3157.97
723.21	3391.44
723.40	3248.08
723.58	3368.91
723.76	3596.23
723.94	3631.05
724.12	3162.06
724.30	3456.97
724.49	3651.53
724.67	3174.35
724.85	3274.70
725.03	3155.92
725.21	3596.23
725.40	3692.49
725.58	3174.35
725.76	3459.02
725.94	3514.31
726.12	3205.07
726.30	3297.23
726.49	3164.11
726.67	3418.06
726.85	3622.86
727.03	3899.33
727.21	4857.78
727.39	6131.62
727.57	6553.50
727.76	6809.50
727.94	6690.71
728.12	5994.40
728.30	5105.59
728.48	4861.88
728.66	4540.35
728.84	4353.98
729.03	3928.00
729.21	3674.06
729.39	3594.19
729.57	3502.03
729.75	3604.42
729.93	3436.49
730.11	3084.24
730.30	3239.89
730.48	3405.77
730.66	3248.08
730.84	3311.57
731.02	3516.36
731.20	3309.52
731.38	3225.55
731.56	3106.77
731.74	3100.62
731.93	3461.07
732.11	3368.91
732.29	3176.40
732.47	3618.76
732.65	3506.12
732.83	3461.07
733.01	3305.42
733.19	3350.48
733.37	3459.02
733.56	3184.59
733.74	3137.49
733.92	3794.89
734.10	3360.72
734.28	3413.96
734.46	3010.51
734.64	3413.96
734.82	3295.18
735.00	3149.78
735.18	3262.41
735.36	3491.79
735.54	3428.30
735.73	3129.30
735.91	3336.14
736.09	3751.88
736.27	3418.06
736.45	3264.46
736.63	2930.64
736.81	3313.61
736.99	3696.58
737.17	3516.36
737.35	3133.39
737.53	3432.40
737.71	3459.02
737.89	3393.48
738.07	3131.34
738.25	3231.69
738.43	3219.41
738.61	3246.03
738.80	3106.77
738.98	3274.70
739.16	3325.90
739.34	3137.49
739.52	3508.17
739.70	3403.72
739.88	3571.66
740.06	3301.33
740.24	2918.36
740.42	3712.97
740.60	3090.38
740.78	3078.10
740.96	2944.98
741.14	3418.06
741.32	3434.44
741.50	3078.10
741.68	3438.54
741.86	3774.41
742.04	3147.73
742.22	3100.62
742.40	3252.17
742.58	3604.42
742.76	3278.80
742.94	3422.16
743.12	3082.19
743.30	3491.79
743.48	3594.19
743.66	3164.11
743.84	3205.07
744.02	3407.82
744.20	3418.06
744.38	3182.54
744.56	3260.37
744.74	3882.95
744.92	3514.31
745.10	3381.20
745.28	3233.74
745.46	3852.23
745.64	3330.00
745.82	3311.57
746.00	3182.54
746.18	3475.40
746.36	3262.41
746.54	3184.59
746.72	3155.92
746.90	3215.31
747.08	3725.26
747.26	3213.26
747.44	3309.52
747.62	3518.41
747.80	3567.56
747.98	3276.75
748.15	3264.46
748.33	3893.19
748.51	3422.16
748.69	3332.05
748.87	3082.19
749.05	3391.44
749.23	3454.92
749.41	3200.98
749.59	3139.54
749.77	3641.29
749.95	3385.29
750.13	3168.21
750.31	3389.39
750.49	3373.00
750.67	3577.80
750.85	3342.28
751.03	3153.87
751.20	3829.70
751.38	3432.40
751.56	3258.32
751.74	3174.35
751.92	3430.35
752.10	3203.02
752.28	3295.18
752.46	3196.88
752.64	3387.34
752.82	3438.54
753.00	3205.07
753.18	3135.44
753.35	3379.15
753.53	3385.29
753.71	3014.61
753.89	3262.41
754.07	3551.18
754.25	3626.95
754.43	3282.89
754.61	3147.73
754.79	3514.31
754.97	3418.06
755.14	3373.00
755.32	3139.54
755.50	3397.58
755.68	3495.88
755.86	3094.48
756.04	3209.17
756.22	3045.33
756.40	3600.33
756.57	3366.86
756.75	3205.07
756.93	3653.58
757.11	3643.34
757.29	3098.58
757.47	3188.69
757.65	3110.86
757.82	2934.74
758.00	3155.92
758.18	3188.69
758.36	3299.28
758.54	3821.51
758.72	3057.62
758.90	3340.24
759.07	3514.31
759.25	3223.50
759.43	3270.61
759.61	3071.95
759.79	4548.54
759.97	3622.86
760.15	3254.22
760.32	3180.50
760.50	3475.40
760.68	3727.30
760.86	3049.43
761.04	3499.98
761.22	3610.57
761.39	3401.68
761.57	3305.42
761.75	3176.40
761.93	3577.80
762.11	3360.72
762.28	3250.13
762.46	3096.53
762.64	3669.96
762.82	3182.54
763.00	3176.40
763.18	3344.33
763.35	3141.58
763.53	3614.66
763.71	3311.57
763.89	3067.86
764.07	3446.73
764.24	3446.73
764.42	3364.81
764.60	3196.88
764.78	3569.61
764.96	3680.20
765.13	3327.95
765.31	3090.38
765.49	3545.03
765.67	3303.37
765.84	3131.34
766.02	3082.19
766.20	3184.59
766.38	3518.41
766.56	3254.22
766.73	3319.76
766.91	3456.97
767.09	3418.06
767.27	3299.28
767.44	3147.73
767.62	3549.13
767.80	3487.69
767.98	3117.01
768.15	3143.63
768.33	3606.47
768.51	3542.99
768.69	3286.99
768.87	3139.54
769.04	3434.44
769.22	4048.83
769.40	3323.85
769.58	3278.80
769.75	3581.90
769.93	3735.50
770.11	3221.45
770.28	3100.62
770.46	3559.37
770.64	3499.98
770.82	3162.06
770.99	3125.20
771.17	3549.13
771.35	3332.05
771.53	3291.09
771.70	3170.26
771.88	3547.08
772.06	3350.48
772.23	3129.30
772.41	3262.41
772.59	3413.96
772.77	3221.45
772.94	3219.41
773.12	3250.13
773.30	3319.76
773.47	3459.02
773.65	3164.11
773.83	3389.39
774.01	3452.88
774.18	3041.23
774.36	3176.40
774.54	3106.77
774.71	3592.14
774.89	3053.52
775.07	3065.81
775.24	3141.58
775.42	3303.37
775.60	3846.09
775.78	3104.72
775.95	2965.46
776.13	3026.90
776.31	3164.11
776.48	3395.53
776.66	3452.88
776.84	3342.28
777.01	3254.22
777.19	3151.82
777.37	3108.82
777.54	3602.38
777.72	3860.42
777.90	3362.76
778.07	3147.73
778.25	4147.14
778.43	3608.52
778.60	3157.97
778.78	3311.57
778.96	3794.89
779.13	3233.74
779.31	3264.46
779.49	3188.69
779.66	3440.59
779.84	3307.47
780.01	3082.19
780.19	3209.17
780.37	3733.45
780.54	3622.86
780.72	3004.37
780.90	3196.88
781.07	3352.52
781.25	3319.76
781.43	3448.78
781.60	3217.36
781.78	3696.58
781.95	3456.97
782.13	3188.69
782.31	3117.01
782.48	3004.37
782.66	3442.64
782.83	3411.92
783.01	3301.33
783.19	3635.14
783.36	3377.10
783.54	3182.54
783.72	3289.04
783.89	3289.04
784.07	3534.79
784.24	3323.85
784.42	3368.91
784.60	3430.35
784.77	3581.90
784.95	2899.92
785.12	3203.02
785.30	3422.16
785.47	3295.18
785.65	3106.77
785.83	3178.45
786.00	3362.76
786.18	3473.36
786.35	3108.82
786.53	3098.58
786.71	3715.02
786.88	3540.94
787.06	3200.98
787.23	3282.89
787.41	3231.69
787.58	3450.83
787.76	3090.38
787.94	3147.73
788.11	3512.27
788.29	3196.88
788.46	3239.89
788.64	2985.94
788.81	3338.19
788.99	3205.07
789.16	3063.76
789.34	3074.00
789.52	3327.95
789.69	3454.92
789.87	2963.41
790.04	3184.59
790.22	3334.09
790.39	3952.58
790.57	3024.85
790.74	3090.38
790.92	3669.96
791.09	3090.38
791.27	3319.76
791.44	3274.70
791.62	3356.62
791.79	3610.57
791.97	3256.27
792.15	3532.75
792.32	3534.79
792.50	3532.75
792.67	3280.85
792.85	3461.07
793.02	3395.53
793.20	3297.23
793.37	3088.34
793.55	3094.48
793.72	3162.06
793.90	3602.38
794.07	3135.44
794.25	3035.09
794.42	3401.68
794.60	3393.48
794.77	3262.41
794.95	3348.43
795.12	3557.32
795.30	3334.09
795.47	2893.78
795.65	3542.99
795.82	3463.12
796.00	3295.18
796.17	3258.32
796.34	3035.09
796.52	3475.40
796.69	3633.10
796.87	3321.81
797.04	3313.61
797.22	3602.38
797.39	3557.32
797.57	3403.72
797.74	3229.65
797.92	3471.31
798.09	3223.50
798.27	3483.59
798.44	3180.50
798.62	3280.85
798.79	3450.83
798.96	3393.48
799.14	3153.87
799.31	3950.53
799.49	3475.40
799.66	3250.13
799.84	3215.31
800.01	3098.58
800.19	3434.44
800.36	2881.49
800.53	3248.08
800.71	3575.75
800.88	3860.42
801.06	3139.54
801.23	3133.39
801.41	3405.77
801.58	3387.34
801.75	3114.96
801.93	3243.98
802.10	3559.37
802.28	3377.10
802.45	3270.61
802.63	3205.07
802.80	3819.46
802.97	3268.56
803.15	3192.78
803.32	3090.38
803.50	3266.51
803.67	3334.09
803.84	3178.45
804.02	3291.09
804.19	3282.89
804.37	2922.45
804.54	2996.18
804.71	3147.73
804.89	3436.49
805.06	3260.37
805.24	3174.35
805.41	3004.37
805.58	3299.28
805.76	4028.35
805.93	3151.82
806.10	3346.38
806.28	3540.94
806.45	3434.44
806.63	3391.44
806.80	3213.26
806.97	3530.70
807.15	3434.44
807.32	3368.91
807.49	3219.41
807.67	3192.78
807.84	3540.94
808.01	3014.61
808.19	3368.91
808.36	3827.65
808.54	3352.52
808.71	3180.50
808.88	3164.11
809.06	3733.45
809.23	3786.69
809.40	3280.85
809.58	3147.73
809.75	3409.87
809.92	3246.03
810.10	3471.31
810.27	3186.64
810.44	3573.71
810.62	3549.13
810.79	3213.26
810.96	3272.65
811.14	3280.85
811.31	3612.62
811.48	3385.29
811.66	3313.61
811.83	3772.36
812.00	3551.18
812.18	3280.85
812.35	3434.44
812.52	3321.81
812.69	3254.22
812.87	3074.00
813.04	3180.50
813.21	3311.57
813.39	3305.42
813.56	3215.31
813.73	3444.68
813.91	3074.00
814.08	3393.48
814.25	3194.83
814.42	3033.04
814.60	3434.44
814.77	3430.35
814.94	3117.01
815.12	3266.51
815.29	3794.89
815.46	3262.41
815.63	3237.84
815.81	3221.45
815.98	3422.16
816.15	3356.62
816.33	3323.85
816.50	3162.06
816.67	3471.31
816.84	3381.20
817.02	3153.87
817.19	3221.45
817.36	3522.51
817.53	3502.03
817.71	3080.14
817.88	3280.85
818.05	3434.44
818.22	3442.64
818.40	3405.77
818.57	3119.06
818.74	3428.30
818.91	3330.00
819.09	3389.39
819.26	3299.28
819.43	3229.65
819.60	3205.07
819.78	3418.06
819.95	3205.07
820.12	3207.12
820.29	3774.41
820.47	3446.73
820.64	3141.58
820.81	3248.08
820.98	3256.27
821.15	3264.46
821.33	3325.90
821.50	3090.38
821.67	3622.86
821.84	3160.02
822.02	3145.68
822.19	3485.64
822.36	3319.76
822.53	3164.11
822.70	3024.85
822.88	3321.81
823.05	3661.77
823.22	3243.98
823.39	3092.43
823.56	3448.78
823.74	3893.19
823.91	3065.81
824.08	3082.19
824.25	3254.22
824.42	3782.60
824.60	3098.58
824.77	3237.84
824.94	3432.40
825.11	3499.98
825.28	3076.05
825.45	3385.29
825.63	3479.50
825.80	3174.35
825.97	3274.70
826.14	3225.55
826.31	3024.85
826.48	3516.36
826.66	3211.22
826.83	3192.78
827.00	3366.86
827.17	3266.51
827.34	3297.23
827.51	3127.25
827.69	3409.87
827.86	3074.00
828.03	3235.79
828.20	3174.35
828.37	3313.61
828.54	3493.83
828.71	3147.73
828.89	3291.09
829.06	3485.64
829.23	3700.68
829.40	3186.64
829.57	3198.93
829.74	3524.55
829.91	3340.24
830.09	3139.54
830.26	3399.63
830.43	3815.37
830.60	3446.73
830.77	3198.93
830.94	3370.96
831.11	3590.09
831.28	3319.76
831.46	3297.23
831.63	3164.11
831.80	3598.28
831.97	3303.37
832.14	3254.22
832.31	3315.66
832.48	3510.22
832.65	3639.24
832.82	3268.56
832.99	3272.65
833.17	3198.93
833.34	3739.59
833.51	3160.02
833.68	2953.17
833.85	3626.95
834.02	3194.83
834.19	3188.69
834.36	3135.44
834.53	3444.68
834.70	3688.39
834.87	3211.22
835.04	3000.27
835.22	3268.56
835.39	3467.21
835.56	3000.27
835.73	2979.79
835.90	3639.24
836.07	3229.65
836.24	3125.20
836.41	3010.51
836.58	3229.65
836.75	3657.67
836.92	2951.12
837.09	2885.59
837.26	3598.28
837.43	3456.97
837.60	3045.33
837.77	2977.75
837.94	3598.28
838.12	3669.96
838.29	3018.71
838.46	2897.88
838.63	3157.97
838.80	3774.41
838.97	3125.20
839.14	2965.46
839.31	3401.68
839.48	3547.08
839.65	2961.36
839.82	3119.06
839.99	3493.83
840.16	3454.92
840.33	2932.69
840.50	3006.42
840.67	3358.67
840.84	2930.64
841.01	2975.70
841.18	2967.51
841.35	3477.45
841.52	3551.18
841.69	3418.06
841.86	3100.62
842.03	3299.28
842.20	3635.14
842.37	3014.61
842.54	3108.82
842.71	3409.87
842.88	3098.58
843.05	3076.05
843.22	3018.71
843.39	3655.62
843.56	3270.61
843.73	3090.38
843.90	3071.95
844.07	3391.44
844.24	3585.99
844.41	3028.95
844.58	3045.33
844.75	3428.30
844.92	3602.38
845.09	3018.71
845.26	2987.99
845.43	3563.47
845.60	3252.17
845.77	3203.02
845.94	3127.25
846.10	3606.47
846.27	3127.25
846.44	2922.45
846.61	2897.88
846.78	3596.23
846.95	3665.86
847.12	2975.70
847.29	3055.57
847.46	3278.80
847.63	3633.10
847.80	2928.60
847.97	2992.08
848.14	3899.33
848.31	3346.38
848.48	2887.64
848.65	2987.99
848.82	3274.70
848.98	4007.87
849.15	3055.57
849.32	3074.00
849.49	3743.69
849.66	3350.48
849.83	2961.36
850.00	3026.90
850.17	3545.03
850.34	3393.48
850.51	2910.16
850.68	3059.67
850.85	3897.28
851.01	3557.32
851.18	3002.32
851.35	3137.49
851.52	3608.52
851.69	3698.63
851.86	2930.64
852.03	2930.64
852.20	3596.23
852.37	3471.31
852.53	2936.79
852.70	2936.79
852.87	3520.46
853.04	3577.80
853.21	2961.36
853.38	3395.53
853.55	3801.03
853.72	3690.44
853.89	2951.12
854.05	2987.99
854.22	3436.49
854.39	3368.91
854.56	2893.78
854.73	3182.54
854.90	3198.93
855.07	3397.58
855.23	2932.69
855.40	2951.12
855.57	3362.76
855.74	2994.13
855.91	3143.63
856.08	2949.08
856.25	3104.72
856.41	3229.65
856.58	3014.61
856.75	3123.15
856.92	3246.03
857.09	3598.28
857.26	2832.34
857.42	3127.25
857.59	3590.09
857.76	3348.43
857.93	3016.66
858.10	3078.10
858.27	3182.54
858.43	3413.96
858.60	3069.91
858.77	2908.12
858.94	3227.60
859.11	3602.38
859.27	3104.72
859.44	3006.42
859.61	3940.29
859.78	3647.43
859.95	2994.13
860.12	2967.51
860.28	3925.96
860.45	3823.56
860.62	2904.02
860.79	3125.20
860.95	3344.33
861.12	3198.93
861.29	2875.35
861.46	2963.41
861.63	3385.29
861.79	3454.92
861.96	2928.60
862.13	3020.75
862.30	3805.13
862.47	3303.37
862.63	2877.40
862.80	3074.00
862.97	3635.14
863.14	3553.23
863.30	3014.61
863.47	2961.36
863.64	3770.31
863.81	3536.84
863.97	2957.27
864.14	3051.47
864.31	3362.76
864.48	3411.92
864.65	3008.47
864.81	3051.47
864.98	3583.95
865.15	3702.73
865.32	3106.77
865.48	3098.58
865.65	3762.12
865.82	3196.88
865.98	3139.54
866.15	2994.13
866.32	3432.40
866.49	3346.38
866.65	3145.68
866.82	3082.19
866.99	3370.96
867.16	3297.23
867.32	2992.08
867.49	2967.51
867.66	3278.80
867.83	3327.95
867.99	2881.49
868.16	3016.66
868.33	3155.92
868.49	3348.43
868.66	3039.19
868.83	3108.82
868.99	3473.36
869.16	3405.77
869.33	3246.03
869.50	3139.54
869.66	3493.83
869.83	3385.29
870.00	2920.40
870.16	3192.78
870.33	3430.35
870.50	3604.42
870.66	3114.96
870.83	3010.51
871.00	3436.49
871.17	3532.75
871.33	3125.20
871.50	2971.60
871.67	3356.62
871.83	3131.34
872.00	3094.48
872.17	3090.38
872.33	3936.20
872.50	3667.91
872.67	2975.70
872.83	3041.23
873.00	3491.79
873.17	3442.64
873.33	3061.71
873.50	3065.81
873.67	3250.13
873.83	3186.64
874.00	3024.85
874.16	3280.85
874.33	3379.15
874.50	3143.63
874.66	2873.30
874.83	3233.74
875.00	3669.96
875.16	3663.82
875.33	3084.24
875.50	2775.00
875.66	3282.89
875.83	3407.82
875.99	3092.43
876.16	3225.55
876.33	3221.45
876.49	3344.33
876.66	3106.77
876.83	3092.43
876.99	3114.96
877.16	3409.87
877.32	2940.88
877.49	3110.86
877.66	3549.13
877.82	3745.73
877.99	3151.82
878.15	3379.15
878.32	3475.40
878.49	3493.83
878.65	3106.77
878.82	3241.93
878.98	3237.84
879.15	3643.34
879.32	3243.98
879.48	3291.09
879.65	3342.28
879.81	3307.47
879.98	3051.47
880.15	3098.58
880.31	3590.09
880.48	3254.22
880.64	3139.54
880.81	3102.67
880.97	3762.12
881.14	3739.59
881.31	2979.79
881.47	3192.78
881.64	3307.47
881.80	3057.62
881.97	3229.65
882.13	3061.71
882.30	3170.26
882.47	3246.03
882.63	3018.71
882.80	2994.13
882.96	3395.53
883.13	3626.95
883.29	3026.90
883.46	3037.14
883.62	3901.38
883.79	3436.49
883.95	3266.51
884.12	2942.93
884.29	3721.16
884.45	3532.75
884.62	3096.53
884.78	2983.89
884.95	3784.65
885.11	3205.07
885.28	3166.16
885.44	3082.19
885.61	3536.84
885.77	3663.82
885.94	3215.31
886.10	3162.06
886.27	3360.72
886.43	3856.33
886.60	3174.35
886.76	3008.47
886.93	3227.60
887.09	3418.06
887.26	2883.54
887.42	3106.77
887.59	3641.29
887.75	3985.35
887.92	3250.13
888.08	3108.82
888.25	3766.21
888.41	3680.20
888.58	3135.44
888.74	2975.70
888.91	3364.81
>>>>>End Processed Spectral Data<<<<<
