SpectraSuite Data File
++++++++++++++++++++++++++++++++++++
Date: Fri May 06 09:29:20 CEST 2016
User: root
Dark Spectrum Present: No
Reference Spectrum Present: No
Number of Sampled Component Spectra: 1
Spectrometers: USB4C02835
Integration Time (usec): 100000 (USB4C02835)
Spectra Averaged: 1 (USB4C02835)
Boxcar Smoothing: 0 (USB4C02835)
Correct for Electrical Dark: No (USB4C02835)
Strobe/Lamp Enabled: No (USB4C02835)
Correct for Detector Non-linearity: No (USB4C02835)
Correct for Stray Light: No (USB4C02835)
Number of Pixels in Processed Spectrum: 3648
>>>>>Begin Processed Spectral Data<<<<<
177.47	2269.15
177.69	2269.15
177.91	2269.15
178.13	2320.35
178.36	2330.59
178.58	3108.82
178.80	3188.69
179.02	3149.78
179.24	3170.26
179.46	2795.48
179.68	2865.11
179.90	3422.16
180.13	3434.44
180.35	2846.68
180.57	2914.26
180.79	3608.52
181.01	3368.91
181.23	2928.60
181.45	3094.48
181.67	3504.07
181.90	3583.95
182.12	3045.33
182.34	2822.10
182.56	3608.52
182.78	3616.71
183.00	2961.36
183.22	2912.21
183.44	3076.05
183.66	4024.26
183.89	3088.34
184.11	2951.12
184.33	3549.13
184.55	3749.83
184.77	2938.84
184.99	2930.64
185.21	3393.48
185.43	4009.92
185.65	2908.12
185.87	2942.93
186.10	3952.58
186.32	3946.44
186.54	3129.30
186.76	3041.23
186.98	3751.88
187.20	3479.50
187.42	3006.42
187.64	2877.40
187.86	3540.94
188.08	3684.30
188.30	2844.63
188.52	3049.43
188.75	3694.54
188.97	3706.82
189.19	2922.45
189.41	2942.93
189.63	3590.09
189.85	3395.53
190.07	2820.05
190.29	2783.19
190.51	3557.32
190.73	3192.78
190.95	3260.37
191.17	3045.33
191.39	3131.34
191.61	3432.40
191.84	2918.36
192.06	3155.92
192.28	3086.29
192.50	4122.56
192.72	3145.68
192.94	3082.19
193.16	3626.95
193.38	3585.99
193.60	2858.96
193.82	3213.26
194.04	3692.49
194.26	3594.19
194.48	3006.42
194.70	2983.89
194.92	3327.95
195.14	3626.95
195.36	2899.92
195.58	3055.57
195.80	3446.73
196.02	3373.00
196.24	2930.64
196.46	2990.03
196.69	3274.70
196.91	4009.92
197.13	2992.08
197.35	3082.19
197.57	3817.41
197.79	3669.96
198.01	3055.57
198.23	3002.32
198.45	3536.84
198.67	3209.17
198.89	2826.20
199.11	3074.00
199.33	3272.65
199.55	3006.42
199.77	2873.30
199.99	3166.16
200.21	3373.00
200.43	3520.46
200.65	2897.88
200.87	2844.63
201.09	3340.24
201.31	3387.34
201.53	2955.22
201.75	3016.66
201.97	3499.98
202.19	3454.92
202.41	3067.86
202.63	3033.04
202.85	3553.23
203.07	3469.26
203.29	3045.33
203.51	2867.16
203.73	3344.33
203.95	4050.88
204.17	2973.65
204.39	3233.74
204.61	3452.88
204.83	3393.48
205.05	3182.54
205.27	2940.88
205.49	3932.10
205.71	3454.92
205.93	2881.49
206.15	2824.15
206.37	3395.53
206.59	3401.68
206.81	2795.48
207.03	2838.48
207.25	3225.55
207.47	3596.23
207.69	2940.88
207.91	3231.69
208.13	3885.00
208.34	3368.91
208.56	2916.31
208.78	2992.08
209.00	3407.82
209.22	3319.76
209.44	3000.27
209.66	2944.98
209.88	3485.64
210.10	3418.06
210.32	2996.18
210.54	3041.23
210.76	3344.33
210.98	3827.65
211.20	2873.30
211.42	3106.77
211.64	3737.54
211.86	3606.47
212.08	3078.10
212.30	3012.56
212.52	3389.39
212.74	3602.38
212.96	3127.25
213.17	3026.90
213.39	3618.76
213.61	3798.98
213.83	2875.35
214.05	2758.61
214.27	3672.01
214.49	3239.89
214.71	2955.22
214.93	3125.20
215.15	3473.36
215.37	3739.59
215.59	2803.67
215.81	2959.31
216.03	3792.84
216.24	3450.83
216.46	2985.94
216.68	2959.31
216.90	3614.66
217.12	3762.12
217.34	2963.41
217.56	3149.78
217.78	3764.17
218.00	3502.03
218.22	3057.62
218.44	3096.53
218.66	3508.17
218.87	3919.81
219.09	2971.60
219.31	2990.03
219.53	3577.80
219.75	3368.91
219.97	3030.99
220.19	3002.32
220.41	3491.79
220.63	3811.27
220.85	2959.31
221.06	3024.85
221.28	3725.26
221.50	3538.89
221.72	2965.46
221.94	2875.35
222.16	3459.02
222.38	3622.86
222.60	2947.03
222.82	3020.75
223.03	3688.39
223.25	3250.13
223.47	2885.59
223.69	3205.07
223.91	3530.70
224.13	3475.40
224.35	2897.88
224.57	3133.39
224.78	3659.72
225.00	3282.89
225.22	3088.34
225.44	2938.84
225.66	3663.82
225.88	3387.34
226.10	3088.34
226.32	2928.60
226.53	3731.40
226.75	3325.90
226.97	3114.96
227.19	2928.60
227.41	3315.66
227.63	3307.47
227.85	2793.43
228.06	3133.39
228.28	3485.64
228.50	3653.58
228.72	2783.19
228.94	2983.89
229.16	3030.99
229.37	3172.30
229.59	2869.20
229.81	3260.37
230.03	3448.78
230.25	3209.17
230.47	2877.40
230.69	2975.70
230.90	3604.42
231.12	3297.23
231.34	3045.33
231.56	3037.14
231.78	3151.82
232.00	3536.84
232.21	3104.72
232.43	3057.62
232.65	3035.09
232.87	3434.44
233.09	2846.68
233.30	2861.01
233.52	3629.00
233.74	3522.51
233.96	2889.68
234.18	3215.31
234.40	3399.63
234.61	3968.96
234.83	2889.68
235.05	2910.16
235.27	4001.73
235.49	3770.31
235.70	2914.26
235.92	2920.40
236.14	3540.94
236.36	3923.91
236.58	2852.82
236.79	3002.32
237.01	3461.07
237.23	3540.94
237.45	3254.22
237.67	3024.85
237.88	3592.14
238.10	3944.39
238.32	2797.53
238.54	2883.54
238.76	3461.07
238.97	3278.80
239.19	2936.79
239.41	2975.70
239.63	3696.58
239.85	3315.66
240.06	3049.43
240.28	2947.03
240.50	3768.26
240.72	3510.22
240.93	2809.81
241.15	3180.50
241.37	3444.68
241.59	3616.71
241.81	2959.31
242.02	3049.43
242.24	3401.68
242.46	3598.28
242.68	2750.42
242.89	2861.01
243.11	3569.61
243.33	3362.76
243.55	2983.89
243.76	2985.94
243.98	3336.14
244.20	3463.12
244.42	2916.31
244.64	2893.78
244.85	3141.58
245.07	3266.51
245.29	2979.79
245.51	2994.13
245.72	3493.83
245.94	3700.68
246.16	2895.83
246.38	3028.95
246.59	3317.71
246.81	3225.55
247.03	2803.67
247.24	2877.40
247.46	3278.80
247.68	3604.42
247.90	2957.27
248.11	2969.55
248.33	3565.51
248.55	3405.77
248.77	2992.08
248.98	3028.95
249.20	3866.56
249.42	3477.45
249.64	2916.31
249.85	3022.80
250.07	3368.91
250.29	3669.96
250.50	3129.30
250.72	2875.35
250.94	3569.61
251.16	3958.72
251.37	2918.36
251.59	3000.27
251.81	3592.14
252.02	3758.02
252.24	2869.20
252.46	3131.34
252.68	3260.37
252.89	3321.81
253.11	2828.24
253.33	3200.98
253.54	3839.94
253.76	3246.03
253.98	3004.37
254.20	2934.74
254.41	3239.89
254.63	3422.16
254.85	2865.11
255.06	3078.10
255.28	3547.08
255.50	3409.87
255.71	2899.92
255.93	2830.29
256.15	3405.77
256.36	3536.84
256.58	2795.48
256.80	2871.25
257.02	3422.16
257.23	3346.38
257.45	2977.75
257.67	3164.11
257.88	3373.00
258.10	3594.19
258.32	3006.42
258.53	2965.46
258.75	3774.41
258.97	3278.80
259.18	2844.63
259.40	2926.55
259.62	3882.95
259.83	3794.89
260.05	3043.28
260.27	3837.89
260.48	3624.90
260.70	3178.45
260.92	2910.16
261.13	3020.75
261.35	3551.18
261.57	3567.56
261.78	2789.33
262.00	2850.77
262.22	3612.62
262.43	3256.27
262.65	2938.84
262.86	2977.75
263.08	3995.59
263.30	3434.44
263.51	2793.43
263.73	2889.68
263.95	3831.75
264.16	3266.51
264.38	2830.29
264.60	2883.54
264.81	3487.69
265.03	3715.02
265.25	3444.68
265.46	2934.74
265.68	3704.78
265.89	3579.85
266.11	2840.53
266.33	2824.15
266.54	3676.10
266.76	3495.88
266.98	3041.23
267.19	3147.73
267.41	3715.02
267.62	3364.81
267.84	2832.34
268.06	3065.81
268.27	3442.64
268.49	3616.71
268.70	3057.62
268.92	2934.74
269.14	3209.17
269.35	3215.31
269.57	3041.23
269.79	3155.92
270.00	3315.66
270.22	3837.89
270.43	2787.29
270.65	2846.68
270.87	3481.55
271.08	3592.14
271.30	3137.49
271.51	2914.26
271.73	3524.55
271.95	3852.23
272.16	2942.93
272.38	3184.59
272.59	3338.19
272.81	3643.34
273.02	2875.35
273.24	3039.19
273.46	3639.24
273.67	3221.45
273.89	2809.81
274.10	2934.74
274.32	3663.82
274.54	3485.64
274.75	3014.61
274.97	3125.20
275.18	3594.19
275.40	3536.84
275.61	2957.27
275.83	3162.06
276.05	3303.37
276.26	3409.87
276.48	3090.38
276.69	3106.77
276.91	3344.33
277.12	3762.12
277.34	3127.25
277.55	3205.07
277.77	3434.44
277.99	3387.34
278.20	3100.62
278.42	3012.56
278.63	3237.84
278.85	3297.23
279.06	3035.09
279.28	3200.98
279.49	3727.30
279.71	3608.52
279.93	3074.00
280.14	3172.30
280.36	3340.24
280.57	3647.43
280.79	3188.69
281.00	3067.86
281.22	3221.45
281.43	3712.97
281.65	2877.40
281.86	2975.70
282.08	3565.51
282.29	3903.43
282.51	2990.03
282.73	2949.08
282.94	3119.06
283.16	3682.25
283.37	3223.50
283.59	3096.53
283.80	3579.85
284.02	3461.07
284.23	3108.82
284.45	3172.30
284.66	3278.80
284.88	3377.10
285.09	3008.47
285.31	3180.50
285.52	3495.88
285.74	3123.15
285.95	3293.13
286.17	3188.69
286.38	3686.34
286.60	3461.07
286.81	3024.85
287.03	3102.67
287.24	3469.26
287.46	3545.03
287.67	3307.47
287.89	3278.80
288.10	3420.11
288.32	3465.16
288.53	3221.45
288.75	3180.50
288.96	3624.90
289.18	3327.95
289.39	2985.94
289.61	3172.30
289.82	3977.16
290.04	3848.13
290.25	2953.17
290.47	3188.69
290.68	3428.30
290.90	3702.73
291.11	2912.21
291.33	3332.05
291.54	3377.10
291.76	3346.38
291.97	3188.69
292.18	3203.02
292.40	3346.38
292.61	3254.22
292.83	3346.38
293.04	3127.25
293.26	3538.89
293.47	3471.31
293.69	2975.70
293.90	3024.85
294.12	3829.70
294.33	3463.12
294.55	3119.06
294.76	3282.89
294.97	3813.32
295.19	3848.13
295.40	3106.77
295.62	3198.93
295.83	3612.62
296.05	3243.98
296.26	3383.24
296.48	3131.34
296.69	3461.07
296.90	3428.30
297.12	3274.70
297.33	3278.80
297.55	3461.07
297.76	3467.21
297.98	3157.97
298.19	3246.03
298.41	3442.64
298.62	3217.36
298.83	3325.90
299.05	3217.36
299.26	3395.53
299.48	3227.60
299.69	3157.97
299.90	2987.99
300.12	3260.37
300.33	3579.85
300.55	3114.96
300.76	3145.68
300.98	3205.07
301.19	3610.57
301.40	3121.10
301.62	3059.67
301.83	3530.70
302.05	3477.45
302.26	3033.04
302.47	3235.79
302.69	3254.22
302.90	3387.34
303.12	2910.16
303.33	3192.78
303.54	3880.90
303.76	3330.00
303.97	3028.95
304.19	3334.09
304.40	3227.60
304.61	3604.42
304.83	3143.63
305.04	3213.26
305.26	3672.01
305.47	3303.37
305.68	3110.86
305.90	3028.95
306.11	3792.84
306.33	3489.74
306.54	2959.31
306.75	3051.47
306.97	3223.50
307.18	3225.55
307.39	3049.43
307.61	3235.79
307.82	3377.10
308.04	3629.00
308.25	3008.47
308.46	3237.84
308.68	3499.98
308.89	3469.26
309.10	3211.22
309.32	3125.20
309.53	3444.68
309.74	3663.82
309.96	3039.19
310.17	3205.07
310.39	3356.62
310.60	3600.33
310.81	3157.97
311.03	3104.72
311.24	3563.47
311.45	3362.76
311.67	3330.00
311.88	3237.84
312.09	3352.52
312.31	3262.41
312.52	3033.04
312.73	3065.81
312.95	3139.54
313.16	3295.18
313.37	3233.74
313.59	3319.76
313.80	3612.62
314.01	3852.23
314.23	3059.67
314.44	3033.04
314.65	3213.26
314.87	3313.61
315.08	3129.30
315.29	3090.38
315.51	3239.89
315.72	3168.21
315.93	3094.48
316.15	3137.49
316.36	3305.42
316.57	3422.16
316.79	3016.66
317.00	3084.24
317.21	3553.23
317.43	3401.68
317.64	3139.54
317.85	2971.60
318.07	3340.24
318.28	3430.35
318.49	3233.74
318.70	3284.94
318.92	3483.59
319.13	3454.92
319.34	3246.03
319.56	3020.75
319.77	3536.84
319.98	3553.23
320.20	3368.91
320.41	3241.93
320.62	3502.03
320.83	3188.69
321.05	3368.91
321.26	3061.71
321.47	3459.02
321.69	3743.69
321.90	3012.56
322.11	3020.75
322.32	3592.14
322.54	3753.93
322.75	3162.06
322.96	4241.34
323.18	3149.78
323.39	3057.62
323.60	2977.75
323.81	3182.54
324.03	3241.93
324.24	3405.77
324.45	3352.52
324.66	3117.01
324.88	3635.14
325.09	3796.93
325.30	3041.23
325.52	2951.12
325.73	3547.08
325.94	3291.09
326.15	3006.42
326.37	2953.17
326.58	3663.82
326.79	3866.56
327.00	3094.48
327.22	3028.95
327.43	3368.91
327.64	3203.02
327.85	3262.41
328.07	3164.11
328.28	3876.80
328.49	3409.87
328.70	3098.58
328.92	3065.81
329.13	3387.34
329.34	3592.14
329.55	3332.05
329.76	3280.85
329.98	3266.51
330.19	3698.63
330.40	3241.93
330.61	3237.84
330.83	3516.36
331.04	3356.62
331.25	3139.54
331.46	3114.96
331.68	3125.20
331.89	3725.26
332.10	3104.72
332.31	3045.33
332.52	3452.88
332.74	3725.26
332.95	2932.69
333.16	3041.23
333.37	3622.86
333.58	3305.42
333.80	3114.96
334.01	2904.02
334.22	3481.55
334.43	3346.38
334.64	3055.57
334.86	3074.00
335.07	3205.07
335.28	3782.60
335.49	2994.13
335.70	3162.06
335.92	3749.83
336.13	3917.76
336.34	3067.86
336.55	3157.97
336.76	3510.22
336.98	2979.79
337.19	3104.72
337.40	3147.73
337.61	3991.49
337.82	3387.34
338.04	3215.31
338.25	2920.40
338.46	3450.83
338.67	3401.68
338.88	3026.90
339.09	3028.95
339.31	3366.86
339.52	3188.69
339.73	3063.76
339.94	3213.26
340.15	3633.10
340.36	3352.52
340.58	3135.44
340.79	3051.47
341.00	3518.41
341.21	3221.45
341.42	3377.10
341.63	3090.38
341.85	3557.32
342.06	3418.06
342.27	3051.47
342.48	3327.95
342.69	3223.50
342.90	3547.08
343.12	3540.94
343.33	3041.23
343.54	3641.29
343.75	3819.46
343.96	3246.03
344.17	2955.22
344.38	3368.91
344.60	3313.61
344.81	3057.62
345.02	3172.30
345.23	3661.77
345.44	4061.12
345.65	3151.82
345.86	3188.69
346.07	3540.94
346.29	3327.95
346.50	3289.04
346.71	3139.54
346.92	3852.23
347.13	3950.53
347.34	3178.45
347.55	3004.37
347.76	3518.41
347.98	3160.02
348.19	3205.07
348.40	3319.76
348.61	3321.81
348.82	3696.58
349.03	3145.68
349.24	3016.66
349.45	3864.52
349.66	2967.51
349.88	3028.95
350.09	3082.19
350.30	3753.93
350.51	3702.73
350.72	3225.55
350.93	3098.58
351.14	3413.96
351.35	3622.86
351.56	3186.64
351.77	3110.86
351.99	3561.42
352.20	3708.87
352.41	3233.74
352.62	2975.70
352.83	3461.07
353.04	3479.50
353.25	3123.15
353.46	3188.69
353.67	3629.00
353.88	3018.71
354.09	2942.93
354.30	3243.98
354.52	3663.82
354.73	3432.40
354.94	3078.10
355.15	3151.82
355.36	3962.82
355.57	3286.99
355.78	3020.75
355.99	3022.80
356.20	3354.57
356.41	3735.50
356.62	3160.02
356.83	3147.73
357.04	3729.35
357.25	3100.62
357.46	3061.71
357.68	3028.95
357.89	3248.08
358.10	3436.49
358.31	3108.82
358.52	3203.02
358.73	3164.11
358.94	3260.37
359.15	3119.06
359.36	3090.38
359.57	3377.10
359.78	3409.87
359.99	3325.90
360.20	2955.22
360.41	3330.00
360.62	3614.66
360.83	3164.11
361.04	3149.78
361.25	3528.65
361.46	3749.83
361.67	3145.68
361.88	3164.11
362.09	3710.92
362.30	3557.32
362.51	3061.71
362.72	3205.07
362.93	3647.43
363.14	3561.42
363.35	3184.59
363.56	3004.37
363.78	3682.25
363.99	3612.62
364.20	3012.56
364.41	3221.45
364.62	3901.38
364.83	3545.03
365.04	3114.96
365.25	3168.21
365.46	4007.87
365.67	3235.79
365.88	3321.81
366.09	3123.15
366.30	3358.67
366.51	3479.50
366.72	3041.23
366.93	2969.55
367.14	3514.31
367.35	3741.64
367.56	3018.71
367.77	3151.82
367.98	3450.83
368.18	3545.03
368.39	3293.13
368.60	3065.81
368.81	3561.42
369.02	3530.70
369.23	3153.87
369.44	3024.85
369.65	3356.62
369.86	3598.28
370.07	3241.93
370.28	2955.22
370.49	3567.56
370.70	3532.75
370.91	2992.08
371.12	3020.75
371.33	3624.90
371.54	3248.08
371.75	3231.69
371.96	2885.59
372.17	3483.59
372.38	3387.34
372.59	3151.82
372.80	3039.19
373.01	3442.64
373.22	3502.03
373.43	3084.24
373.64	2955.22
373.85	3741.64
374.06	3833.80
374.26	3235.79
374.47	3192.78
374.68	3782.60
374.89	3565.51
375.10	3074.00
375.31	3188.69
375.52	3450.83
375.73	3499.98
375.94	2942.93
376.15	3180.50
376.36	3274.70
376.57	3332.05
376.78	3067.86
376.99	3094.48
377.20	3622.86
377.40	3362.76
377.61	3418.06
377.82	3174.35
378.03	3778.50
378.24	3557.32
378.45	3133.39
378.66	3209.17
378.87	3149.78
379.08	3153.87
379.29	3092.43
379.50	3270.61
379.71	3489.74
379.91	3631.05
380.12	3131.34
380.33	3241.93
380.54	3438.54
380.75	3487.69
380.96	3117.01
381.17	3131.34
381.38	3454.92
381.59	3420.11
381.80	3155.92
382.00	3258.32
382.21	3463.12
382.42	3807.17
382.63	3493.83
382.84	3258.32
383.05	3594.19
383.26	3704.78
383.47	3203.02
383.68	3090.38
383.88	3594.19
384.09	3469.26
384.30	3370.96
384.51	3256.27
384.72	3379.15
384.93	3155.92
385.14	3250.13
385.35	3440.59
385.55	3100.62
385.76	3647.43
385.97	3110.86
386.18	2969.55
386.39	3325.90
386.60	3360.72
386.81	3088.34
387.02	2940.88
387.22	3166.16
387.43	3551.18
387.64	3237.84
387.85	3377.10
388.06	3397.58
388.27	4286.40
388.48	7106.45
388.68	10956.63
388.89	13739.82
389.10	14679.84
389.31	14329.64
389.52	11589.46
389.73	10100.58
389.93	9566.06
390.14	8396.67
390.35	8005.51
390.56	7368.59
390.77	6236.06
390.98	4878.26
391.18	4003.78
391.39	3960.77
391.60	3467.21
391.81	3299.28
392.02	3217.36
392.23	3981.25
392.43	3540.94
392.64	3209.17
392.85	3205.07
393.06	3764.17
393.27	3395.53
393.47	3131.34
393.68	3160.02
393.89	3344.33
394.10	3661.77
394.31	3020.75
394.52	3067.86
394.72	3303.37
394.93	3749.83
395.14	2994.13
395.35	3270.61
395.56	3321.81
395.76	3434.44
395.97	3153.87
396.18	3264.46
396.39	3461.07
396.60	4044.74
396.80	3524.55
397.01	3379.15
397.22	3606.47
397.43	3659.72
397.64	3014.61
397.84	3147.73
398.05	3880.90
398.26	3411.92
398.47	3246.03
398.67	3397.58
398.88	3364.81
399.09	3637.19
399.30	3117.01
399.51	3141.58
399.71	3360.72
399.92	3393.48
400.13	3180.50
400.34	3192.78
400.54	3495.88
400.75	3780.55
400.96	3233.74
401.17	3438.54
401.37	3581.90
401.58	3354.57
401.79	3114.96
402.00	3246.03
402.21	3876.80
402.41	3542.99
402.62	3403.72
402.83	3526.60
403.04	3831.75
403.24	4108.23
403.45	3223.50
403.66	3413.96
403.87	3641.29
404.07	3725.26
404.28	3495.88
404.49	3422.16
404.70	3557.32
404.90	3633.10
405.11	3186.64
405.32	3235.79
405.52	3360.72
405.73	3366.86
405.94	2983.89
406.15	3250.13
406.35	3583.95
406.56	3629.00
406.77	3223.50
406.98	3217.36
407.18	3319.76
407.39	3749.83
407.60	3221.45
407.80	3250.13
408.01	3356.62
408.22	3559.37
408.43	3098.58
408.63	3270.61
408.84	3667.91
409.05	3618.76
409.25	3074.00
409.46	3213.26
409.67	3389.39
409.88	3330.00
410.08	3254.22
410.29	3108.82
410.50	3647.43
410.70	3555.27
410.91	3084.24
411.12	3094.48
411.32	3463.12
411.53	3198.93
411.74	3131.34
411.95	3264.46
412.15	3456.97
412.36	3551.18
412.57	3254.22
412.77	3346.38
412.98	3315.66
413.19	3315.66
413.39	3317.71
413.60	3190.74
413.81	3741.64
414.01	3223.50
414.22	3170.26
414.43	3387.34
414.63	3356.62
414.84	3518.41
415.05	3129.30
415.25	2942.93
415.46	3649.48
415.67	3393.48
415.87	3176.40
416.08	3143.63
416.29	3327.95
416.49	3649.48
416.70	3241.93
416.91	3074.00
417.11	3393.48
417.32	3737.54
417.53	3256.27
417.73	3278.80
417.94	3491.79
418.15	3551.18
418.35	3221.45
418.56	3129.30
418.77	3911.62
418.97	3518.41
419.18	3313.61
419.38	2826.20
419.59	3416.01
419.80	3760.07
420.00	3135.44
420.21	3196.88
420.42	3803.08
420.62	3606.47
420.83	3157.97
421.04	3131.34
421.24	3481.55
421.45	3608.52
421.65	3196.88
421.86	3172.30
422.07	3694.54
422.27	3661.77
422.48	3076.05
422.69	2951.12
422.89	3461.07
423.10	3368.91
423.30	3094.48
423.51	3147.73
423.72	3569.61
423.92	3645.38
424.13	3000.27
424.33	3262.41
424.54	3694.54
424.75	3467.21
424.95	3397.58
425.16	3037.14
425.36	3401.68
425.57	3600.33
425.78	3282.89
425.98	3225.55
426.19	3385.29
426.39	3286.99
426.60	3248.08
426.81	3203.02
427.01	3475.40
427.22	3286.99
427.42	2904.02
427.63	3141.58
427.83	3710.92
428.04	3807.17
428.25	3235.79
428.45	3256.27
428.66	3663.82
428.86	3452.88
429.07	3221.45
429.28	3178.45
429.48	3358.67
429.69	3286.99
429.89	3342.28
430.10	3123.15
430.30	3604.42
430.51	3735.50
430.71	3051.47
430.92	3270.61
431.13	3319.76
431.33	3575.75
431.54	3270.61
431.74	3330.00
431.95	3952.58
432.15	3274.70
432.36	3100.62
432.56	3194.83
432.77	3852.23
432.98	3899.33
433.18	3237.84
433.39	2916.31
433.59	3452.88
433.80	3837.89
434.00	3264.46
434.21	3231.69
434.41	3309.52
434.62	3913.67
434.82	3084.24
435.03	3057.62
435.23	3497.93
435.44	3033.04
435.64	3090.38
435.85	3168.21
436.06	3665.86
436.26	3672.01
436.47	3139.54
436.67	3184.59
436.88	3405.77
437.08	3680.20
437.29	3350.48
437.49	3352.52
437.70	3680.20
437.90	3432.40
438.11	3346.38
438.31	3280.85
438.52	3755.97
438.72	3692.49
438.93	3499.98
439.13	3272.65
439.34	3672.01
439.54	3327.95
439.75	3286.99
439.95	3190.74
440.16	3266.51
440.36	3432.40
440.57	3055.57
440.77	3172.30
440.98	3467.21
441.18	3516.36
441.39	3049.43
441.59	3030.99
441.80	3909.57
442.00	3444.68
442.21	3225.55
442.41	3088.34
442.62	3684.30
442.82	3307.47
443.02	3145.68
443.23	3160.02
443.43	3340.24
443.64	3672.01
443.84	3082.19
444.05	3233.74
444.25	3348.43
444.46	3334.09
444.66	3086.29
444.87	3327.95
445.07	3102.67
445.28	3352.52
445.48	3295.18
445.69	3270.61
445.89	4054.98
446.09	3321.81
446.30	3395.53
446.50	3545.03
446.71	5136.31
446.91	6004.64
447.12	6883.22
447.32	7272.34
447.53	7276.43
447.73	6129.57
447.93	5359.53
448.14	5177.26
448.34	5380.01
448.55	4446.14
448.75	4388.80
448.96	4089.79
449.16	4186.05
449.36	4046.79
449.57	3459.02
449.77	3235.79
449.98	3379.15
450.18	3514.31
450.39	3092.43
450.59	3334.09
450.79	3479.50
451.00	3311.57
451.20	3377.10
451.41	3225.55
451.61	3516.36
451.81	3459.02
452.02	3135.44
452.22	3147.73
452.43	3342.28
452.63	3252.17
452.84	3194.83
453.04	3041.23
453.24	3485.64
453.45	3280.85
453.65	3227.60
453.86	3186.64
454.06	3530.70
454.26	3360.72
454.47	3100.62
454.67	3334.09
454.87	3448.78
455.08	3317.71
455.28	3295.18
455.49	3289.04
455.69	3321.81
455.89	3882.95
456.10	3180.50
456.30	3198.93
456.51	3542.99
456.71	3481.55
456.91	3330.00
457.12	3117.01
457.32	3624.90
457.52	3223.50
457.73	3373.00
457.93	3397.58
458.14	3332.05
458.34	3055.57
458.54	3184.59
458.75	3153.87
458.95	3577.80
459.15	3495.88
459.36	3172.30
459.56	3200.98
459.76	3958.72
459.97	3436.49
460.17	3141.58
460.37	3221.45
460.58	3497.93
460.78	3657.67
460.99	3194.83
461.19	3203.02
461.39	3368.91
461.60	3424.20
461.80	3190.74
462.00	3090.38
462.21	3409.87
462.41	3332.05
462.61	3057.62
462.82	2994.13
463.02	3647.43
463.22	3477.45
463.43	3229.65
463.63	3057.62
463.83	3747.78
464.04	3467.21
464.24	3155.92
464.44	3190.74
464.64	3473.36
464.85	3651.53
465.05	3164.11
465.25	3024.85
465.46	3336.14
465.66	3573.71
465.86	3248.08
466.07	3090.38
466.27	3401.68
466.47	3014.61
466.68	3012.56
466.88	3239.89
467.08	3604.42
467.29	3686.34
467.49	3170.26
467.69	3295.18
467.89	3598.28
468.10	3346.38
468.30	3239.89
468.50	3250.13
468.71	3655.62
468.91	3106.77
469.11	3254.22
469.31	3286.99
469.52	3147.73
469.72	3747.78
469.92	3469.26
470.13	3182.54
470.33	3352.52
470.53	3461.07
470.73	3528.65
470.94	3737.54
471.14	3956.68
471.34	4644.79
471.54	4091.84
471.75	3923.91
471.95	3760.07
472.15	3772.36
472.36	3672.01
472.56	3538.89
472.76	3954.63
472.96	3850.18
473.17	3405.77
473.37	3360.72
473.57	3334.09
473.77	3559.37
473.98	3303.37
474.18	3114.96
474.38	4052.93
474.58	3323.85
474.79	3082.19
474.99	3207.12
475.19	3708.87
475.39	3260.37
475.60	3198.93
475.80	3114.96
476.00	3618.76
476.20	3411.92
476.41	3172.30
476.61	3164.11
476.81	3794.89
477.01	3286.99
477.21	3473.36
477.42	3297.23
477.62	3284.94
477.82	3602.38
478.02	3102.67
478.23	3188.69
478.43	3307.47
478.63	3377.10
478.83	3180.50
479.03	3274.70
479.24	3753.93
479.44	3872.71
479.64	3047.38
479.84	2987.99
480.04	3297.23
480.25	3569.61
480.45	3117.01
480.65	3196.88
480.85	3819.46
481.06	3356.62
481.26	3237.84
481.46	3162.06
481.66	3502.03
481.86	3174.35
482.06	3399.63
482.27	3237.84
482.47	3358.67
482.67	3631.05
482.87	3229.65
483.07	3164.11
483.28	3373.00
483.48	3155.92
483.68	3180.50
483.88	2985.94
484.08	2922.45
484.29	3207.12
484.49	3313.61
484.69	2936.79
484.89	3831.75
485.09	3635.14
485.29	3227.60
485.50	3319.76
485.70	3323.85
485.90	3745.73
486.10	3366.86
486.30	3071.95
486.50	3686.34
486.71	3499.98
486.91	3248.08
487.11	3254.22
487.31	3233.74
487.51	3540.94
487.71	3182.54
487.91	3186.64
488.12	3227.60
488.32	2904.02
488.52	3123.15
488.72	2901.97
488.92	3485.64
489.12	3807.17
489.32	3284.94
489.53	3256.27
489.73	3194.83
489.93	3870.66
490.13	3149.78
490.33	2969.55
490.53	3456.97
490.73	3639.24
490.94	3067.86
491.14	3334.09
491.34	3559.37
491.54	3633.10
491.74	4003.78
491.94	4442.04
492.14	5107.63
492.34	5150.64
492.54	4720.57
492.75	4077.51
492.95	4499.39
493.15	4120.51
493.35	3823.56
493.55	3798.98
493.75	3725.26
493.95	3993.54
494.15	3407.82
494.35	3241.93
494.56	3479.50
494.76	3284.94
494.96	3366.86
495.16	3065.81
495.36	3450.83
495.56	3436.49
495.76	3225.55
495.96	3166.16
496.16	3266.51
496.36	3911.62
496.56	3160.02
496.77	3223.50
496.97	3491.79
497.17	3778.50
497.37	2967.51
497.57	3332.05
497.77	3510.22
497.97	3319.76
498.17	3153.87
498.37	3147.73
498.57	3475.40
498.77	3346.38
498.97	3401.68
499.17	3549.13
499.38	3405.77
499.58	3485.64
499.78	3375.05
499.98	3272.65
500.18	3430.35
500.38	3266.51
500.58	3409.87
500.78	3768.26
500.98	5988.26
501.18	7720.84
501.38	8976.25
501.58	9826.15
501.78	9942.89
501.98	8238.98
502.18	7045.01
502.38	6305.70
502.58	6229.92
502.78	5484.46
502.98	5199.79
503.18	5001.14
503.38	4814.77
503.59	4198.34
503.79	4016.07
503.99	3739.59
504.19	3958.72
504.39	4028.35
504.59	3663.82
504.79	3540.94
504.99	3999.68
505.19	3680.20
505.39	3319.76
505.59	3573.71
505.79	3887.04
505.99	3700.68
506.19	3170.26
506.39	3469.26
506.59	3243.98
506.79	3377.10
506.99	3502.03
507.19	3123.15
507.39	3565.51
507.59	3172.30
507.79	3153.87
507.99	3102.67
508.19	3338.19
508.39	3284.94
508.59	3186.64
508.79	3309.52
508.99	3938.24
509.19	3373.00
509.39	3235.79
509.59	3114.96
509.79	3299.28
509.99	3557.32
510.19	3364.81
510.39	3295.18
510.59	3475.40
510.79	3303.37
510.99	3039.19
511.19	3051.47
511.39	3852.23
511.59	3708.87
511.79	3356.62
511.99	3153.87
512.19	3966.92
512.38	3508.17
512.58	3108.82
512.78	3133.39
512.98	3741.64
513.18	3745.73
513.38	3074.00
513.58	3227.60
513.78	3405.77
513.98	3352.52
514.18	3180.50
514.38	3182.54
514.58	3588.04
514.78	3286.99
514.98	3108.82
515.18	3217.36
515.38	3233.74
515.58	3837.89
515.78	3231.69
515.98	3174.35
516.18	3559.37
516.38	3385.29
516.57	3045.33
516.77	3200.98
516.97	3579.85
517.17	3295.18
517.37	2926.55
517.57	3131.34
517.77	3424.20
517.97	3264.46
518.17	3155.92
518.37	3106.77
518.57	3387.34
518.77	3319.76
518.97	3254.22
519.16	3153.87
519.36	3665.86
519.56	3352.52
519.76	3100.62
519.96	3180.50
520.16	3739.59
520.36	3172.30
520.56	3332.05
520.76	3114.96
520.96	3430.35
521.16	3655.62
521.35	3409.87
521.55	3194.83
521.75	3493.83
521.95	3264.46
522.15	3117.01
522.35	3004.37
522.55	3299.28
522.75	3669.96
522.95	3088.34
523.14	3014.61
523.34	3401.68
523.54	3270.61
523.74	3272.65
523.94	3198.93
524.14	3168.21
524.34	3602.38
524.54	3352.52
524.73	3188.69
524.93	3645.38
525.13	3444.68
525.33	3035.09
525.53	3422.16
525.73	3600.33
525.93	3395.53
526.13	3178.45
526.32	3002.32
526.52	3708.87
526.72	3657.67
526.92	3168.21
527.12	3069.91
527.32	3180.50
527.52	3479.50
527.71	3200.98
527.91	3207.12
528.11	3346.38
528.31	3358.67
528.51	3174.35
528.71	3323.85
528.90	3553.23
529.10	3692.49
529.30	3164.11
529.50	2949.08
529.70	3532.75
529.90	3330.00
530.09	3133.39
530.29	3018.71
530.49	3246.03
530.69	4165.57
530.89	3315.66
531.09	3334.09
531.28	3254.22
531.48	3614.66
531.68	3164.11
531.88	3239.89
532.08	3508.17
532.28	3317.71
532.47	3215.31
532.67	3268.56
532.87	3467.21
533.07	3303.37
533.27	3274.70
533.46	3231.69
533.66	3499.98
533.86	3438.54
534.06	3205.07
534.26	3094.48
534.45	3362.76
534.65	3692.49
534.85	3262.41
535.05	3094.48
535.25	3585.99
535.44	3053.52
535.64	3250.13
535.84	3194.83
536.04	3356.62
536.24	3362.76
536.43	3147.73
536.63	3147.73
536.83	3397.58
537.03	3465.16
537.22	3010.51
537.42	2961.36
537.62	3532.75
537.82	3362.76
538.02	3330.00
538.21	3278.80
538.41	4112.32
538.61	3649.48
538.81	3221.45
539.00	3344.33
539.20	3024.85
539.40	3344.33
539.60	3069.91
539.79	3436.49
539.99	3397.58
540.19	3262.41
540.39	3078.10
540.58	3229.65
540.78	3706.82
540.98	3469.26
541.18	3448.78
541.37	3246.03
541.57	3538.89
541.77	3518.41
541.97	3114.96
542.16	3002.32
542.36	3422.16
542.56	3360.72
542.76	3327.95
542.95	3293.13
543.15	3446.73
543.35	3659.72
543.54	3129.30
543.74	3069.91
543.94	3803.08
544.14	3342.28
544.33	3338.19
544.53	3190.74
544.73	3364.81
544.93	3336.14
545.12	3121.10
545.32	3196.88
545.52	3321.81
545.71	3180.50
545.91	3203.02
546.11	3147.73
546.30	3225.55
546.50	3368.91
546.70	3350.48
546.90	3174.35
547.09	3016.66
547.29	3393.48
547.49	3305.42
547.68	3215.31
547.88	3346.38
548.08	3563.47
548.27	3530.70
548.47	3117.01
548.67	3278.80
548.87	3581.90
549.06	3112.91
549.26	3053.52
549.46	3508.17
549.65	3319.76
549.85	3221.45
550.05	3157.97
550.24	3250.13
550.44	3413.96
550.64	3147.73
550.83	3315.66
551.03	3725.26
551.23	3692.49
551.42	3229.65
551.62	3315.66
551.82	3454.92
552.01	3303.37
552.21	3448.78
552.41	3282.89
552.60	3770.31
552.80	3436.49
553.00	3151.82
553.19	3170.26
553.39	3885.00
553.59	3168.21
553.78	3280.85
553.98	3141.58
554.17	3297.23
554.37	3534.79
554.57	3252.17
554.76	2975.70
554.96	3297.23
555.16	3389.39
555.35	3200.98
555.55	3391.44
555.75	3446.73
555.94	3594.19
556.14	3074.00
556.33	3262.41
556.53	3463.12
556.73	3426.25
556.92	3235.79
557.12	3131.34
557.32	3954.63
557.51	3655.62
557.71	3180.50
557.90	3385.29
558.10	3760.07
558.30	3330.00
558.49	3237.84
558.69	3188.69
558.88	3526.60
559.08	3551.18
559.28	3282.89
559.47	3256.27
559.67	3590.09
559.86	3817.41
560.06	3223.50
560.26	3166.16
560.45	3622.86
560.65	3356.62
560.84	3481.55
561.04	3057.62
561.24	3665.86
561.43	3178.45
561.63	3430.35
561.82	3332.05
562.02	3538.89
562.22	3293.13
562.41	3162.06
562.61	3145.68
562.80	3266.51
563.00	3966.92
563.19	3147.73
563.39	3194.83
563.59	3557.32
563.78	3192.78
563.98	2963.41
564.17	3223.50
564.37	3076.05
564.56	3338.19
564.76	3086.29
564.96	3282.89
565.15	3483.59
565.35	3960.77
565.54	3241.93
565.74	3229.65
565.93	3567.56
566.13	3434.44
566.32	3299.28
566.52	3248.08
566.71	3420.11
566.91	3672.01
567.11	3274.70
567.30	3088.34
567.50	3569.61
567.69	3522.51
567.89	3198.93
568.08	3065.81
568.28	3438.54
568.47	3139.54
568.67	3129.30
568.86	3117.01
569.06	3596.23
569.25	3409.87
569.45	2994.13
569.64	3239.89
569.84	3332.05
570.04	3526.60
570.23	3205.07
570.43	3268.56
570.62	3452.88
570.82	3848.13
571.01	3033.04
571.21	3180.50
571.40	3198.93
571.60	3633.10
571.79	3235.79
571.99	3141.58
572.18	3229.65
572.38	3489.74
572.57	3276.75
572.77	3246.03
572.96	4038.59
573.16	3469.26
573.35	3192.78
573.55	3254.22
573.74	3594.19
573.94	3311.57
574.13	3143.63
574.33	3428.30
574.52	3708.87
574.71	3448.78
574.91	3340.24
575.10	3094.48
575.30	3340.24
575.49	3180.50
575.69	3155.92
575.88	3045.33
576.08	3391.44
576.27	3585.99
576.47	3074.00
576.66	3284.94
576.86	3741.64
577.05	3446.73
577.25	3262.41
577.44	3373.00
577.64	3264.46
577.83	3690.44
578.02	3082.19
578.22	3262.41
578.41	3872.71
578.61	3418.06
578.80	3043.28
579.00	3196.88
579.19	3344.33
579.39	3585.99
579.58	3278.80
579.77	3221.45
579.97	3715.02
580.16	3655.62
580.36	3418.06
580.55	3227.60
580.75	3504.07
580.94	3409.87
581.13	3342.28
581.33	3463.12
581.52	3391.44
581.72	3862.47
581.91	3282.89
582.11	3241.93
582.30	3672.01
582.49	3491.79
582.69	3399.63
582.88	3221.45
583.08	3471.31
583.27	3581.90
583.47	3313.61
583.66	3153.87
583.85	3264.46
584.05	3387.34
584.24	3311.57
584.44	3233.74
584.63	3585.99
584.82	3600.33
585.02	3508.17
585.21	3323.85
585.41	3495.88
585.60	3463.12
585.79	3350.48
585.99	3426.25
586.18	3418.06
586.37	4446.14
586.57	6635.42
586.76	18691.81
586.96	37127.63
587.15	49894.66
587.34	57517.20
587.54	60836.96
587.73	53206.23
587.93	38722.99
588.12	29908.54
588.31	24616.58
588.51	22060.72
588.70	20532.93
588.89	17925.87
589.09	14970.65
589.28	13334.32
589.47	10200.93
589.67	7806.86
589.86	6170.53
590.06	4941.75
590.25	4466.62
590.44	3868.61
590.64	3495.88
590.83	3665.86
591.02	3682.25
591.22	3229.65
591.41	3172.30
591.60	3395.53
591.80	4050.88
591.99	3047.38
592.18	3133.39
592.38	3655.62
592.57	3317.71
592.76	3184.59
592.96	3291.09
593.15	3377.10
593.34	3737.54
593.54	3170.26
593.73	3327.95
593.92	3606.47
594.12	3475.40
594.31	3258.32
594.50	3413.96
594.70	3594.19
594.89	4052.93
595.08	3092.43
595.28	3338.19
595.47	4083.65
595.66	3567.56
595.86	3049.43
596.05	3160.02
596.24	3350.48
596.43	3844.04
596.63	3248.08
596.82	3334.09
597.01	3518.41
597.21	3741.64
597.40	3119.06
597.59	3237.84
597.79	3368.91
597.98	3620.81
598.17	3233.74
598.36	3172.30
598.56	3639.24
598.75	3344.33
598.94	3233.74
599.14	3252.17
599.33	3356.62
599.52	3633.10
599.71	3315.66
599.91	3178.45
600.10	3512.27
600.29	3430.35
600.48	3303.37
600.68	3295.18
600.87	3516.36
601.06	3313.61
601.26	3297.23
601.45	3342.28
601.64	3375.05
601.83	3782.60
602.03	3016.66
602.22	3090.38
602.41	3639.24
602.60	3993.54
602.80	3231.69
602.99	3385.29
603.18	3393.48
603.37	3510.22
603.57	3094.48
603.76	3200.98
603.95	3655.62
604.14	3407.82
604.34	3123.15
604.53	3162.06
604.72	3524.55
604.91	3600.33
605.10	3143.63
605.30	3076.05
605.49	3966.92
605.68	3592.14
605.87	3131.34
606.07	3168.21
606.26	3506.12
606.45	3561.42
606.64	3270.61
606.84	3069.91
607.03	3416.01
607.22	3674.06
607.41	3229.65
607.60	3174.35
607.80	3770.31
607.99	3405.77
608.18	3180.50
608.37	3241.93
608.56	3338.19
608.76	3639.24
608.95	3463.12
609.14	3162.06
609.33	3602.38
609.52	3770.31
609.72	3303.37
609.91	3301.33
610.10	3385.29
610.29	3729.35
610.48	3389.39
610.68	3278.80
610.87	3413.96
611.06	3633.10
611.25	3186.64
611.44	3340.24
611.63	3311.57
611.83	3715.02
612.02	3074.00
612.21	3284.94
612.40	3061.71
612.59	3149.78
612.79	3178.45
612.98	3282.89
613.17	3885.00
613.36	3530.70
613.55	3358.67
613.74	3172.30
613.93	3450.83
614.13	3448.78
614.32	3377.10
614.51	3114.96
614.70	3405.77
614.89	3309.52
615.08	3198.93
615.28	3459.02
615.47	3166.16
615.66	3622.86
615.85	3219.41
616.04	3186.64
616.23	3485.64
616.42	3426.25
616.62	3149.78
616.81	3266.51
617.00	3416.01
617.19	3598.28
617.38	3176.40
617.57	3313.61
617.76	3616.71
617.95	3649.48
618.15	3313.61
618.34	3463.12
618.53	3260.37
618.72	3647.43
618.91	3256.27
619.10	3213.26
619.29	3405.77
619.48	3549.13
619.68	3086.29
619.87	3178.45
620.06	3170.26
620.25	3475.40
620.44	3221.45
620.63	3162.06
620.82	3463.12
621.01	3499.98
621.20	3254.22
621.39	3291.09
621.59	3538.89
621.78	3450.83
621.97	3252.17
622.16	3373.00
622.35	3502.03
622.54	3712.97
622.73	3229.65
622.92	3041.23
623.11	3690.44
623.30	3342.28
623.49	3223.50
623.68	3092.43
623.88	3770.31
624.07	3336.14
624.26	3160.02
624.45	3194.83
624.64	3360.72
624.83	3530.70
625.02	3168.21
625.21	3168.21
625.40	3534.79
625.59	3665.86
625.78	3233.74
625.97	3213.26
626.16	3706.82
626.35	3655.62
626.54	3139.54
626.74	3399.63
626.93	3422.16
627.12	3456.97
627.31	3225.55
627.50	3213.26
627.69	3624.90
627.88	3258.32
628.07	3129.30
628.26	2926.55
628.45	3284.94
628.64	3254.22
628.83	3211.22
629.02	3028.95
629.21	3583.95
629.40	3452.88
629.59	3071.95
629.78	3192.78
629.97	3432.40
630.16	3422.16
630.35	3100.62
630.54	3299.28
630.73	3360.72
630.92	3327.95
631.11	3131.34
631.30	3198.93
631.49	3637.19
631.68	3364.81
631.87	3196.88
632.06	3086.29
632.25	3999.68
632.44	3459.02
632.63	3252.17
632.82	3166.16
633.01	3291.09
633.20	3370.96
633.39	3121.10
633.58	2992.08
633.77	3520.46
633.96	3604.42
634.15	3196.88
634.34	3280.85
634.53	3493.83
634.72	3350.48
634.91	3119.06
635.10	3192.78
635.29	3618.76
635.48	3438.54
635.67	2998.23
635.86	3051.47
636.05	3735.50
636.24	3366.86
636.43	3217.36
636.62	3174.35
636.81	2934.74
637.00	3432.40
637.19	3139.54
637.38	3248.08
637.57	3403.72
637.76	3422.16
637.95	3401.68
638.14	3319.76
638.33	3467.21
638.52	3424.20
638.71	3117.01
638.89	2994.13
639.08	4059.07
639.27	3592.14
639.46	3311.57
639.65	3633.10
639.84	3827.65
640.03	4022.21
640.22	3585.99
640.41	3522.51
640.60	3450.83
640.79	3614.66
640.98	3295.18
641.17	3368.91
641.36	3606.47
641.55	3606.47
641.74	3127.25
641.92	3049.43
642.11	3196.88
642.30	3393.48
642.49	3088.34
642.68	3143.63
642.87	3477.45
643.06	3559.37
643.25	3082.19
643.44	2975.70
643.63	3416.01
643.82	3590.09
644.00	3180.50
644.19	3106.77
644.38	3299.28
644.57	3592.14
644.76	3139.54
644.95	3297.23
645.14	3502.03
645.33	3422.16
645.52	3260.37
645.71	3022.80
645.89	3176.40
646.08	3381.20
646.27	3200.98
646.46	3446.73
646.65	3135.44
646.84	3463.12
647.03	3112.91
647.22	3246.03
647.40	3571.66
647.59	3346.38
647.78	2977.75
647.97	3186.64
648.16	3276.75
648.35	3745.73
648.54	3432.40
648.73	3200.98
648.91	3612.62
649.10	3393.48
649.29	3141.58
649.48	3088.34
649.67	3540.94
649.86	3346.38
650.05	3205.07
650.23	3377.10
650.42	3254.22
650.61	3788.74
650.80	3504.07
650.99	3401.68
651.18	3737.54
651.36	3706.82
651.55	3186.64
651.74	3356.62
651.93	3397.58
652.12	3381.20
652.31	3143.63
652.49	3217.36
652.68	3346.38
652.87	3700.68
653.06	3293.13
653.25	3477.45
653.44	3409.87
653.62	3790.79
653.81	3203.02
654.00	3174.35
654.19	3606.47
654.38	3960.77
654.56	3280.85
654.75	3092.43
654.94	3635.14
655.13	3393.48
655.32	3194.83
655.51	3196.88
655.69	3270.61
655.88	3594.19
656.07	2969.55
656.26	3170.26
656.45	3086.29
656.63	3454.92
656.82	3094.48
657.01	3502.03
657.20	3305.42
657.38	3819.46
657.57	3117.01
657.76	3059.67
657.95	3631.05
658.14	3323.85
658.32	3346.38
658.51	3067.86
658.70	3461.07
658.89	3592.14
659.08	3260.37
659.26	3479.50
659.45	3243.98
659.64	3583.95
659.83	3155.92
660.01	3588.04
660.20	3524.55
660.39	3817.41
660.58	2867.16
660.76	3256.27
660.95	3256.27
661.14	3508.17
661.33	2983.89
661.51	3254.22
661.70	3211.22
661.89	3510.22
662.08	3248.08
662.26	3102.67
662.45	3172.30
662.64	3784.65
662.83	3254.22
663.01	3078.10
663.20	3325.90
663.39	3782.60
663.58	3139.54
663.76	3119.06
663.95	3524.55
664.14	3209.17
664.32	3282.89
664.51	3088.34
664.70	3086.29
664.89	3514.31
665.07	3114.96
665.26	3356.62
665.45	3162.06
665.64	3557.32
665.82	3162.06
666.01	3340.24
666.20	3157.97
666.38	3631.05
666.57	3553.23
666.76	5711.78
666.95	12615.49
667.13	18673.38
667.32	22390.44
667.51	24936.07
667.69	25482.88
667.88	20661.96
668.07	15306.52
668.25	13330.23
668.44	11587.41
668.63	10184.55
668.81	8882.04
669.00	7659.40
669.19	7180.18
669.38	6203.30
669.56	5353.39
669.75	4786.10
669.94	4360.13
670.12	3844.04
670.31	3469.26
670.50	3491.79
670.68	3626.95
670.87	3475.40
671.06	3125.20
671.24	3280.85
671.43	3686.34
671.62	3495.88
671.80	3155.92
671.99	3321.81
672.18	3508.17
672.36	3626.95
672.55	3373.00
672.74	3311.57
672.92	3303.37
673.11	3573.71
673.29	3043.28
673.48	3399.63
673.67	3282.89
673.85	3614.66
674.04	3139.54
674.23	3274.70
674.41	3979.20
674.60	3213.26
674.79	2985.94
674.97	2994.13
675.16	3553.23
675.34	3663.82
675.53	3209.17
675.72	3246.03
675.90	3831.75
676.09	3327.95
676.28	3381.20
676.46	2981.84
676.65	3633.10
676.83	3229.65
677.02	3233.74
677.21	3231.69
677.39	3491.79
677.58	3256.27
677.77	3172.30
677.95	3110.86
678.14	3393.48
678.32	3385.29
678.51	3110.86
678.70	3622.86
678.88	3477.45
679.07	3520.46
679.25	3184.59
679.44	3192.78
679.63	3112.91
679.81	3508.17
680.00	3420.11
680.18	3211.22
680.37	3708.87
680.55	3475.40
680.74	3061.71
680.93	2914.26
681.11	3493.83
681.30	3452.88
681.48	3186.64
681.67	3237.84
681.85	3493.83
682.04	3336.14
682.23	3319.76
682.41	3313.61
682.60	3436.49
682.78	3385.29
682.97	3100.62
683.15	3297.23
683.34	3522.51
683.53	3657.67
683.71	3172.30
683.90	3221.45
684.08	3784.65
684.27	3243.98
684.45	3299.28
684.64	3387.34
684.82	3426.25
685.01	3610.57
685.19	3082.19
685.38	3499.98
685.57	3467.21
685.75	3282.89
685.94	3123.15
686.12	3065.81
686.31	3340.24
686.49	3848.13
686.68	2967.51
686.86	3174.35
687.05	3426.25
687.23	3739.59
687.42	3209.17
687.60	3053.52
687.79	3661.77
687.97	3880.90
688.16	3282.89
688.34	3411.92
688.53	3092.43
688.71	3508.17
688.90	3553.23
689.08	3223.50
689.27	3096.53
689.45	3542.99
689.64	3233.74
689.82	3219.41
690.01	3549.13
690.19	3518.41
690.38	3311.57
690.56	3264.46
690.75	3200.98
690.93	3315.66
691.12	3211.22
691.30	3241.93
691.49	3254.22
691.67	3502.03
691.86	3512.27
692.04	3188.69
692.23	3338.19
692.41	3495.88
692.60	3516.36
692.78	3405.77
692.97	3438.54
693.15	3577.80
693.34	3461.07
693.52	3426.25
693.71	3274.70
693.89	3319.76
694.08	2961.36
694.26	3237.84
694.44	3639.24
694.63	3585.99
694.81	3092.43
695.00	3205.07
695.18	3669.96
695.37	3997.64
695.55	3319.76
695.74	3286.99
695.92	3336.14
696.10	3700.68
696.29	3074.00
696.47	3223.50
696.66	3231.69
696.84	3147.73
697.03	3235.79
697.21	3493.83
697.40	4745.14
697.58	3600.33
697.76	3282.89
697.95	3293.13
698.13	3166.16
698.32	3428.30
698.50	3078.10
698.68	3147.73
698.87	3577.80
699.05	3788.74
699.24	3186.64
699.42	3188.69
699.61	3434.44
699.79	3508.17
699.97	3252.17
700.16	3145.68
700.34	3194.83
700.53	3461.07
700.71	3389.39
700.89	3430.35
701.08	3393.48
701.26	3401.68
701.45	3524.55
701.63	3260.37
701.81	3409.87
702.00	3217.36
702.18	3330.00
702.37	3157.97
702.55	3762.12
702.73	3409.87
702.92	3186.64
703.10	3491.79
703.28	3555.27
703.47	3270.61
703.65	3395.53
703.84	3264.46
704.02	3432.40
704.20	3790.79
704.39	3264.46
704.57	3272.65
704.75	3616.71
704.94	3448.78
705.12	3315.66
705.30	4052.93
705.49	8038.28
705.67	14552.87
705.86	19277.53
706.04	21362.36
706.22	23889.56
706.41	22152.88
706.59	16520.96
706.77	13422.39
706.96	11804.49
707.14	10778.46
707.32	9279.35
707.51	8187.78
707.69	6784.92
707.87	5924.77
708.06	4798.39
708.24	4331.45
708.42	4089.79
708.61	4290.49
708.79	3286.99
708.97	3385.29
709.16	3493.83
709.34	3510.22
709.52	3262.41
709.71	3252.17
709.89	3512.27
710.07	3215.31
710.26	3084.24
710.44	3305.42
710.62	3694.54
710.80	3405.77
710.99	3270.61
711.17	3360.72
711.35	3264.46
711.54	3229.65
711.72	3413.96
711.90	3270.61
712.09	3549.13
712.27	3366.86
712.45	3368.91
712.63	3155.92
712.82	3557.32
713.00	3434.44
713.18	3330.00
713.37	3399.63
713.55	3624.90
713.73	3606.47
713.91	3311.57
714.10	3200.98
714.28	3338.19
714.46	3520.46
714.65	3413.96
714.83	3235.79
715.01	3487.69
715.19	3424.20
715.38	3215.31
715.56	3397.58
715.74	3352.52
715.92	3182.54
716.11	3567.56
716.29	2971.60
716.47	3362.76
716.65	3442.64
716.84	3057.62
717.02	3246.03
717.20	3100.62
717.38	3297.23
717.57	3315.66
717.75	3319.76
717.93	3403.72
718.11	3600.33
718.30	3106.77
718.48	3196.88
718.66	3661.77
718.84	3688.39
719.03	3299.28
719.21	3024.85
719.39	3839.94
719.57	3563.47
719.75	3332.05
719.94	3127.25
720.12	3401.68
720.30	3532.75
720.48	3221.45
720.67	3174.35
720.85	3235.79
721.03	3411.92
721.21	3196.88
721.39	3237.84
721.58	3629.00
721.76	3467.21
721.94	3207.12
722.12	3346.38
722.30	3778.50
722.49	3301.33
722.67	3164.11
722.85	3196.88
723.03	3098.58
723.21	3168.21
723.40	3229.65
723.58	3401.68
723.76	3516.36
723.94	3706.82
724.12	3254.22
724.30	3477.45
724.49	3616.71
724.67	3323.85
724.85	3352.52
725.03	3127.25
725.21	3614.66
725.40	3719.11
725.58	3254.22
725.76	3551.18
725.94	3475.40
726.12	3243.98
726.30	3246.03
726.49	3221.45
726.67	3424.20
726.85	3532.75
727.03	3901.38
727.21	4894.65
727.39	6133.67
727.57	6404.00
727.76	6698.91
727.94	6760.34
728.12	5887.91
728.30	4962.23
728.48	4794.29
728.66	4442.04
728.84	4435.90
729.03	3995.59
729.21	3639.24
729.39	3450.83
729.57	3413.96
729.75	3518.41
729.93	3438.54
730.11	3076.05
730.30	3239.89
730.48	3364.81
730.66	3233.74
730.84	3299.28
731.02	3463.12
731.20	3352.52
731.38	3190.74
731.56	3143.63
731.74	3184.59
731.93	3401.68
732.11	3413.96
732.29	3180.50
732.47	3620.81
732.65	3557.32
732.83	3352.52
733.01	3284.94
733.19	3348.43
733.37	3547.08
733.56	3133.39
733.74	3133.39
733.92	3813.32
734.10	3297.23
734.28	3327.95
734.46	2965.46
734.64	3327.95
734.82	3360.72
735.00	3086.29
735.18	3149.78
735.36	3536.84
735.54	3459.02
735.73	3200.98
735.91	3311.57
736.09	3801.03
736.27	3477.45
736.45	3325.90
736.63	2959.31
736.81	3448.78
736.99	3700.68
737.17	3385.29
737.35	3186.64
737.53	3526.60
737.71	3397.58
737.89	3456.97
738.07	3196.88
738.25	3280.85
738.43	3092.43
738.61	3203.02
738.80	3043.28
738.98	3301.33
739.16	3305.42
739.34	3207.12
739.52	3540.94
739.70	3442.64
739.88	3551.18
740.06	3346.38
740.24	2899.92
740.42	3774.41
740.60	3108.82
740.78	3196.88
740.96	2959.31
741.14	3409.87
741.32	3549.13
741.50	3076.05
741.68	3411.92
741.86	3760.07
742.04	3276.75
742.22	3166.16
742.40	3190.74
742.58	3461.07
742.76	3217.36
742.94	3456.97
743.12	3061.71
743.30	3456.97
743.48	3575.75
743.66	3162.06
743.84	3241.93
744.02	3461.07
744.20	3499.98
744.38	3131.34
744.56	3172.30
744.74	3844.04
744.92	3626.95
745.10	3442.64
745.28	3272.65
745.46	3864.52
745.64	3440.59
745.82	3262.41
746.00	3143.63
746.18	3626.95
746.36	3258.32
746.54	3178.45
746.72	3270.61
746.90	3151.82
747.08	3733.45
747.26	3155.92
747.44	3297.23
747.62	3563.47
747.80	3532.75
747.98	3297.23
748.15	3188.69
748.33	3758.02
748.51	3471.31
748.69	3321.81
748.87	3149.78
749.05	3305.42
749.23	3446.73
749.41	3237.84
749.59	3233.74
749.77	3639.24
749.95	3397.58
750.13	3084.24
750.31	3399.63
750.49	3422.16
750.67	3667.91
750.85	3446.73
751.03	3192.78
751.20	3936.20
751.38	3430.35
751.56	3282.89
751.74	3200.98
751.92	3403.72
752.10	3139.54
752.28	3434.44
752.46	3160.02
752.64	3450.83
752.82	3422.16
753.00	3246.03
753.18	3135.44
753.35	3313.61
753.53	3450.83
753.71	3104.72
753.89	3272.65
754.07	3526.60
754.25	3706.82
754.43	3219.41
754.61	3067.86
754.79	3522.51
754.97	3426.25
755.14	3387.34
755.32	3188.69
755.50	3366.86
755.68	3510.22
755.86	3090.38
756.04	3112.91
756.22	3043.28
756.40	3588.04
756.57	3499.98
756.75	3168.21
756.93	3626.95
757.11	3616.71
757.29	3184.59
757.47	3076.05
757.65	3131.34
757.82	3049.43
758.00	3114.96
758.18	3117.01
758.36	3180.50
758.54	3753.93
758.72	3078.10
758.90	3381.20
759.07	3409.87
759.25	3278.80
759.43	3315.66
759.61	3008.47
759.79	4519.87
759.97	3723.21
760.15	3227.60
760.32	3102.67
760.50	3512.27
760.68	3719.11
760.86	3059.67
761.04	3432.40
761.22	3606.47
761.39	3409.87
761.57	3362.76
761.75	3194.83
761.93	3637.19
762.11	3442.64
762.28	3309.52
762.46	3102.67
762.64	3692.49
762.82	3074.00
763.00	3213.26
763.18	3450.83
763.35	3186.64
763.53	3583.95
763.71	3379.15
763.89	3184.59
764.07	3409.87
764.24	3450.83
764.42	3313.61
764.60	3180.50
764.78	3538.89
764.96	3637.19
765.13	3418.06
765.31	3026.90
765.49	3575.75
765.67	3272.65
765.84	3110.86
766.02	3127.25
766.20	3209.17
766.38	3534.79
766.56	3286.99
766.73	3299.28
766.91	3436.49
767.09	3436.49
767.27	3200.98
767.44	3098.58
767.62	3596.23
767.80	3547.08
767.98	3123.15
768.15	3241.93
768.33	3614.66
768.51	3688.39
768.69	3272.65
768.87	3200.98
769.04	3444.68
769.22	4032.45
769.40	3340.24
769.58	3278.80
769.75	3502.03
769.93	3745.73
770.11	3274.70
770.28	3074.00
770.46	3696.58
770.64	3467.21
770.82	3198.93
770.99	3121.10
771.17	3549.13
771.35	3338.19
771.53	3303.37
771.70	3188.69
771.88	3553.23
772.06	3434.44
772.23	3135.44
772.41	3289.04
772.59	3420.11
772.77	3270.61
772.94	3258.32
773.12	3237.84
773.30	3284.94
773.47	3489.74
773.65	3117.01
773.83	3321.81
774.01	3459.02
774.18	3033.04
774.36	3239.89
774.54	3065.81
774.71	3592.14
774.89	3078.10
775.07	3117.01
775.24	3143.63
775.42	3332.05
775.60	3858.37
775.78	3076.05
775.95	3080.14
776.13	3084.24
776.31	3092.43
776.48	3354.57
776.66	3381.20
776.84	3360.72
777.01	3248.08
777.19	3090.38
777.37	3020.75
777.54	3512.27
777.72	3833.80
777.90	3327.95
778.07	3123.15
778.25	4145.09
778.43	3655.62
778.60	3121.10
778.78	3282.89
778.96	3764.17
779.13	3184.59
779.31	3149.78
779.49	3278.80
779.66	3502.03
779.84	3315.66
780.01	3174.35
780.19	3100.62
780.37	3758.02
780.54	3508.17
780.72	3045.33
780.90	3250.13
781.07	3334.09
781.25	3340.24
781.43	3459.02
781.60	3174.35
781.78	3663.82
781.95	3426.25
782.13	3172.30
782.31	3217.36
782.48	3084.24
782.66	3430.35
782.83	3436.49
783.01	3348.43
783.19	3594.19
783.36	3418.06
783.54	3182.54
783.72	3332.05
783.89	3297.23
784.07	3446.73
784.24	3377.10
784.42	3381.20
784.60	3471.31
784.77	3456.97
784.95	2969.55
785.12	3205.07
785.30	3485.64
785.47	3237.84
785.65	3129.30
785.83	3190.74
786.00	3297.23
786.18	3461.07
786.35	3094.48
786.53	3139.54
786.71	3690.44
786.88	3487.69
787.06	3209.17
787.23	3262.41
787.41	3147.73
787.58	3364.81
787.76	3100.62
787.94	3237.84
788.11	3493.83
788.29	3280.85
788.46	3262.41
788.64	3014.61
788.81	3274.70
788.99	3186.64
789.16	3221.45
789.34	3219.41
789.52	3313.61
789.69	3309.52
789.87	3014.61
790.04	3184.59
790.22	3442.64
790.39	3882.95
790.57	3125.20
790.74	3123.15
790.92	3661.77
791.09	3164.11
791.27	3225.55
791.44	3254.22
791.62	3416.01
791.79	3624.90
791.97	3250.13
792.15	3532.75
792.32	3622.86
792.50	3526.60
792.67	3385.29
792.85	3485.64
793.02	3508.17
793.20	3416.01
793.37	3155.92
793.55	3123.15
793.72	3131.34
793.90	3575.75
794.07	3166.16
794.25	3114.96
794.42	3405.77
794.60	3364.81
794.77	3256.27
794.95	3315.66
795.12	3561.42
795.30	3461.07
795.47	3012.56
795.65	3495.88
795.82	3487.69
796.00	3274.70
796.17	3207.12
796.34	3076.05
796.52	3499.98
796.69	3661.77
796.87	3303.37
797.04	3317.71
797.22	3696.58
797.39	3504.07
797.57	3459.02
797.74	3336.14
797.92	3516.36
798.09	3313.61
798.27	3434.44
798.44	3147.73
798.62	3336.14
798.79	3495.88
798.96	3272.65
799.14	3168.21
799.31	4018.11
799.49	3409.87
799.66	3252.17
799.84	3323.85
800.01	3139.54
800.19	3416.01
800.36	2885.59
800.53	3237.84
800.71	3520.46
800.88	3702.73
801.06	3114.96
801.23	3168.21
801.41	3397.58
801.58	3334.09
801.75	3219.41
801.93	3239.89
802.10	3635.14
802.28	3315.66
802.45	3246.03
802.63	3243.98
802.80	3751.88
802.97	3430.35
803.15	3256.27
803.32	3139.54
803.50	3284.94
803.67	3233.74
803.84	3168.21
804.02	3303.37
804.19	3377.10
804.37	2906.07
804.54	3014.61
804.71	3110.86
804.89	3418.06
805.06	3274.70
805.24	3145.68
805.41	3004.37
805.58	3221.45
805.76	3893.19
805.93	3147.73
806.10	3264.46
806.28	3512.27
806.45	3434.44
806.63	3354.57
806.80	3184.59
806.97	3485.64
807.15	3512.27
807.32	3260.37
807.49	3233.74
807.67	3114.96
807.84	3557.32
808.01	2987.99
808.19	3317.71
808.36	3987.40
808.54	3258.32
808.71	3155.92
808.88	3164.11
809.06	3715.02
809.23	3659.72
809.40	3280.85
809.58	3135.44
809.75	3344.33
809.92	3303.37
810.10	3483.59
810.27	3276.75
810.44	3551.18
810.62	3624.90
810.79	3243.98
810.96	3231.69
811.14	3383.24
811.31	3524.55
811.48	3395.53
811.66	3280.85
811.83	3733.45
812.00	3557.32
812.18	3258.32
812.35	3491.79
812.52	3311.57
812.69	3424.20
812.87	3117.01
813.04	3149.78
813.21	3506.12
813.39	3286.99
813.56	3110.86
813.73	3424.20
813.91	3184.59
814.08	3401.68
814.25	3211.22
814.42	2975.70
814.60	3459.02
814.77	3448.78
814.94	3141.58
815.12	3233.74
815.29	3833.80
815.46	3293.13
815.63	3237.84
815.81	3106.77
815.98	3295.18
816.15	3334.09
816.33	3272.65
816.50	3164.11
816.67	3383.24
816.84	3409.87
817.02	3082.19
817.19	3221.45
817.36	3473.36
817.53	3585.99
817.71	3157.97
817.88	3162.06
818.05	3399.63
818.22	3362.76
818.40	3438.54
818.57	3180.50
818.74	3583.95
818.91	3348.43
819.09	3434.44
819.26	3291.09
819.43	3278.80
819.60	3254.22
819.78	3459.02
819.95	3229.65
820.12	3106.77
820.29	3813.32
820.47	3487.69
820.64	3108.82
820.81	3074.00
820.98	3291.09
821.15	3180.50
821.33	3340.24
821.50	3071.95
821.67	3567.56
821.84	3078.10
822.02	3190.74
822.19	3667.91
822.36	3373.00
822.53	3160.02
822.70	3090.38
822.88	3403.72
823.05	3665.86
823.22	3338.19
823.39	3192.78
823.56	3418.06
823.74	3764.17
823.91	3106.77
824.08	3178.45
824.25	3168.21
824.42	3749.83
824.60	3057.62
824.77	3231.69
824.94	3385.29
825.11	3676.10
825.28	3035.09
825.45	3454.92
825.63	3485.64
825.80	3254.22
825.97	3317.71
826.14	3332.05
826.31	3028.95
826.48	3536.84
826.66	3188.69
826.83	3117.01
827.00	3434.44
827.17	3231.69
827.34	3182.54
827.51	3192.78
827.69	3397.58
827.86	3067.86
828.03	3262.41
828.20	3235.79
828.37	3289.04
828.54	3508.17
828.71	3108.82
828.89	3295.18
829.06	3495.88
829.23	3682.25
829.40	3217.36
829.57	3166.16
829.74	3540.94
829.91	3303.37
830.09	3172.30
830.26	3291.09
830.43	3827.65
830.60	3401.68
830.77	3303.37
830.94	3438.54
831.11	3606.47
831.28	3387.34
831.46	3297.23
831.63	3229.65
831.80	3598.28
831.97	3207.12
832.14	3284.94
832.31	3188.69
832.48	3450.83
832.65	3622.86
832.82	3381.20
832.99	3239.89
833.17	3209.17
833.34	3762.12
833.51	3176.40
833.68	2957.27
833.85	3635.14
834.02	3203.02
834.19	3141.58
834.36	3243.98
834.53	3504.07
834.70	3641.29
834.87	3119.06
835.04	2934.74
835.22	3264.46
835.39	3321.81
835.56	3049.43
835.73	3082.19
835.90	3616.71
836.07	3256.27
836.24	3203.02
836.41	3051.47
836.58	3264.46
836.75	3624.90
836.92	3008.47
837.09	2918.36
837.26	3592.14
837.43	3532.75
837.60	3090.38
837.77	3074.00
837.94	3598.28
838.12	3749.83
838.29	2906.07
838.46	2899.92
838.63	3231.69
838.80	3811.27
838.97	3100.62
839.14	3074.00
839.31	3485.64
839.48	3551.18
839.65	3014.61
839.82	3094.48
839.99	3493.83
840.16	3401.68
840.33	2981.84
840.50	3020.75
840.67	3344.33
840.84	2940.88
841.01	2912.21
841.18	2951.12
841.35	3442.64
841.52	3624.90
841.69	3346.38
841.86	3053.52
842.03	3424.20
842.20	3606.47
842.37	2971.60
842.54	3170.26
842.71	3499.98
842.88	3110.86
843.05	3057.62
843.22	2924.50
843.39	3504.07
843.56	3303.37
843.73	3008.47
843.90	3043.28
844.07	3346.38
844.24	3624.90
844.41	3067.86
844.58	3000.27
844.75	3413.96
844.92	3524.55
845.09	3059.67
845.26	2992.08
845.43	3553.23
845.60	3233.74
845.77	3235.79
845.94	3157.97
846.10	3647.43
846.27	3082.19
846.44	2901.97
846.61	2881.49
846.78	3534.79
846.95	3565.51
847.12	3065.81
847.29	3086.29
847.46	3205.07
847.63	3700.68
847.80	2897.88
847.97	3082.19
848.14	3934.15
848.31	3366.86
848.48	2834.39
848.65	3016.66
848.82	3237.84
848.98	3952.58
849.15	3110.86
849.32	3200.98
849.49	3626.95
849.66	3383.24
849.83	3069.91
850.00	2938.84
850.17	3563.47
850.34	3360.72
850.51	2942.93
850.68	3094.48
850.85	3940.29
851.01	3485.64
851.18	2918.36
851.35	3045.33
851.52	3622.86
851.69	3753.93
851.86	2926.55
852.03	3012.56
852.20	3608.52
852.37	3510.22
852.53	2828.24
852.70	2920.40
852.87	3479.50
853.04	3622.86
853.21	3049.43
853.38	3231.69
853.55	3643.34
853.72	3704.78
853.89	2914.26
854.05	3022.80
854.22	3393.48
854.39	3280.85
854.56	3024.85
854.73	3188.69
854.90	3198.93
855.07	3391.44
855.23	2934.74
855.40	2975.70
855.57	3375.05
855.74	2914.26
855.91	3170.26
856.08	2861.01
856.25	3147.73
856.41	3305.42
856.58	3016.66
856.75	3121.10
856.92	3217.36
857.09	3553.23
857.26	2824.15
857.42	3008.47
857.59	3528.65
857.76	3368.91
857.93	2904.02
858.10	3059.67
858.27	3172.30
858.43	3452.88
858.60	3024.85
858.77	2904.02
858.94	3299.28
859.11	3721.16
859.27	3114.96
859.44	2949.08
859.61	3925.96
859.78	3524.55
859.95	3030.99
860.12	2891.73
860.28	3934.15
860.45	3839.94
860.62	2863.06
860.79	3127.25
860.95	3430.35
861.12	3196.88
861.29	2889.68
861.46	2961.36
861.63	3358.67
861.79	3463.12
861.96	2904.02
862.13	3035.09
862.30	3704.78
862.47	3246.03
862.63	2916.31
862.80	3049.43
862.97	3616.71
863.14	3557.32
863.30	3059.67
863.47	2932.69
863.64	3737.54
863.81	3499.98
863.97	2928.60
864.14	3037.14
864.31	3373.00
864.48	3491.79
864.65	3061.71
864.81	3110.86
864.98	3487.69
865.15	3590.09
865.32	3092.43
865.48	3090.38
865.65	3768.26
865.82	3274.70
865.98	3094.48
866.15	3016.66
866.32	3379.15
866.49	3231.69
866.65	3217.36
866.82	3100.62
866.99	3405.77
867.16	3221.45
867.32	3082.19
867.49	2918.36
867.66	3463.12
867.83	3260.37
867.99	2967.51
868.16	3049.43
868.33	3188.69
868.49	3428.30
868.66	3041.23
868.83	3125.20
868.99	3502.03
869.16	3483.59
869.33	3237.84
869.50	3125.20
869.66	3418.06
869.83	3342.28
870.00	2969.55
870.16	3110.86
870.33	3442.64
870.50	3530.70
870.66	3188.69
870.83	2994.13
871.00	3420.11
871.17	3571.66
871.33	3004.37
871.50	2977.75
871.67	3368.91
871.83	3086.29
872.00	3098.58
872.17	3008.47
872.33	3876.80
872.50	3606.47
872.67	3002.32
872.83	3078.10
873.00	3547.08
873.17	3409.87
873.33	3071.95
873.50	3028.95
873.67	3250.13
873.83	3178.45
874.00	3041.23
874.16	3149.78
874.33	3444.68
874.50	3213.26
874.66	2904.02
874.83	3123.15
875.00	3731.40
875.16	3626.95
875.33	3059.67
875.50	2779.09
875.66	3368.91
875.83	3497.93
875.99	3026.90
876.16	3147.73
876.33	3157.97
876.49	3387.34
876.66	3129.30
876.83	3067.86
876.99	3086.29
877.16	3428.30
877.32	2916.31
877.49	3043.28
877.66	3551.18
877.82	3862.47
877.99	2975.70
878.15	3305.42
878.32	3495.88
878.49	3422.16
878.65	3137.49
878.82	3268.56
878.98	3305.42
879.15	3643.34
879.32	3182.54
879.48	3248.08
879.65	3399.63
879.81	3373.00
879.98	3045.33
880.15	3080.14
880.31	3561.42
880.48	3200.98
880.64	3217.36
880.81	3157.97
880.97	3762.12
881.14	3727.30
881.31	2916.31
881.47	3160.02
881.64	3426.25
881.80	3098.58
881.97	3239.89
882.13	2983.89
882.30	3133.39
882.47	3272.65
882.63	3028.95
882.80	2951.12
882.96	3344.33
883.13	3655.62
883.29	3020.75
883.46	3074.00
883.62	3921.86
883.79	3512.27
883.95	3223.50
884.12	2922.45
884.29	3796.93
884.45	3430.35
884.62	3063.76
884.78	3057.62
884.95	3876.80
885.11	3237.84
885.28	3127.25
885.44	3022.80
885.61	3573.71
885.77	3663.82
885.94	3176.40
886.10	3194.83
886.27	3475.40
886.43	3790.79
886.60	3198.93
886.76	3049.43
886.93	3221.45
887.09	3569.61
887.26	2877.40
887.42	3135.44
887.59	3725.26
887.75	3872.71
887.92	3196.88
888.08	3092.43
888.25	3786.69
888.41	3633.10
888.58	3061.71
888.74	3006.42
888.91	3360.72
>>>>>End Processed Spectral Data<<<<<
