SpectraSuite Data File
++++++++++++++++++++++++++++++++++++
Date: Fri May 06 09:29:10 CEST 2016
User: root
Dark Spectrum Present: No
Reference Spectrum Present: No
Number of Sampled Component Spectra: 1
Spectrometers: USB4C02835
Integration Time (usec): 100000 (USB4C02835)
Spectra Averaged: 1 (USB4C02835)
Boxcar Smoothing: 0 (USB4C02835)
Correct for Electrical Dark: No (USB4C02835)
Strobe/Lamp Enabled: No (USB4C02835)
Correct for Detector Non-linearity: No (USB4C02835)
Correct for Stray Light: No (USB4C02835)
Number of Pixels in Processed Spectrum: 3648
>>>>>Begin Processed Spectral Data<<<<<
177.47	2291.68
177.69	2291.68
177.91	2291.68
178.13	2308.06
178.36	2316.25
178.58	3172.30
178.80	3207.12
179.02	3178.45
179.24	3278.80
179.46	2846.68
179.68	2901.97
179.90	3403.72
180.13	3352.52
180.35	2850.77
180.57	2824.15
180.79	3579.85
181.01	3368.91
181.23	3000.27
181.45	3098.58
181.67	3608.52
181.90	3590.09
182.12	3090.38
182.34	2750.42
182.56	3602.38
182.78	3479.50
183.00	2901.97
183.22	2953.17
183.44	3043.28
183.66	4007.87
183.89	3080.14
184.11	2971.60
184.33	3542.99
184.55	3731.40
184.77	2961.36
184.99	2955.22
185.21	3426.25
185.43	4024.26
185.65	3010.51
185.87	2873.30
186.10	3991.49
186.32	4024.26
186.54	3117.01
186.76	3151.82
186.98	3686.34
187.20	3387.34
187.42	3053.52
187.64	2942.93
187.86	3532.75
188.08	3649.48
188.30	2844.63
188.52	2990.03
188.75	3792.84
188.97	3729.35
189.19	3014.61
189.41	2908.12
189.63	3626.95
189.85	3348.43
190.07	2777.05
190.29	2799.57
190.51	3639.24
190.73	3186.64
190.95	3233.74
191.17	3033.04
191.39	3094.48
191.61	3368.91
191.84	3002.32
192.06	3108.82
192.28	3102.67
192.50	4204.48
192.72	3123.15
192.94	3090.38
193.16	3743.69
193.38	3631.05
193.60	2928.60
193.82	3248.08
194.04	3758.02
194.26	3577.80
194.48	2932.69
194.70	3061.71
194.92	3344.33
195.14	3676.10
195.36	2942.93
195.58	3008.47
195.80	3444.68
196.02	3323.85
196.24	2877.40
196.46	3020.75
196.69	3377.10
196.91	3952.58
197.13	2918.36
197.35	3082.19
197.57	3733.45
197.79	3647.43
198.01	3033.04
198.23	3037.14
198.45	3645.38
198.67	3221.45
198.89	2807.77
199.11	3092.43
199.33	3301.33
199.55	2963.41
199.77	2914.26
199.99	3094.48
200.21	3246.03
200.43	3499.98
200.65	2858.96
200.87	2846.68
201.09	3467.21
201.31	3377.10
201.53	3006.42
201.75	3061.71
201.97	3575.75
202.19	3532.75
202.41	3082.19
202.63	3037.14
202.85	3602.38
203.07	3631.05
203.29	3000.27
203.51	2944.98
203.73	3235.79
203.95	4065.22
204.17	2971.60
204.39	3223.50
204.61	3454.92
204.83	3426.25
205.05	3164.11
205.27	2918.36
205.49	4095.94
205.71	3428.30
205.93	2830.29
206.15	2885.59
206.37	3418.06
206.59	3442.64
206.81	2752.47
207.03	2787.29
207.25	3250.13
207.47	3649.48
207.69	2947.03
207.91	3164.11
208.13	3751.88
208.34	3403.72
208.56	2861.01
208.78	3000.27
209.00	3360.72
209.22	3352.52
209.44	2899.92
209.66	2912.21
209.88	3491.79
210.10	3368.91
210.32	2912.21
210.54	3033.04
210.76	3338.19
210.98	3739.59
211.20	2824.15
211.42	3123.15
211.64	3747.78
211.86	3569.61
212.08	3051.47
212.30	3012.56
212.52	3377.10
212.74	3555.27
212.96	3065.81
213.17	2969.55
213.39	3706.82
213.61	3917.76
213.83	2893.78
214.05	2871.25
214.27	3729.35
214.49	3241.93
214.71	2938.84
214.93	3100.62
215.15	3459.02
215.37	3565.51
215.59	2858.96
215.81	2967.51
216.03	3772.36
216.24	3446.73
216.46	2983.89
216.68	3069.91
216.90	3663.82
217.12	3706.82
217.34	2901.97
217.56	3205.07
217.78	3827.65
218.00	3565.51
218.22	3051.47
218.44	3067.86
218.66	3538.89
218.87	3788.74
219.09	3045.33
219.31	2926.55
219.53	3608.52
219.75	3401.68
219.97	2992.08
220.19	3084.24
220.41	3352.52
220.63	3796.93
220.85	3024.85
221.06	2897.88
221.28	3766.21
221.50	3592.14
221.72	2906.07
221.94	2867.16
222.16	3465.16
222.38	3672.01
222.60	2959.31
222.82	3022.80
223.03	3661.77
223.25	3276.75
223.47	2854.87
223.69	3237.84
223.91	3577.80
224.13	3446.73
224.35	2811.86
224.57	3149.78
224.78	3688.39
225.00	3293.13
225.22	3104.72
225.44	2891.73
225.66	3667.91
225.88	3379.15
226.10	3088.34
226.32	2994.13
226.53	3807.17
226.75	3348.43
226.97	3065.81
227.19	2985.94
227.41	3237.84
227.63	3319.76
227.85	2740.18
228.06	3065.81
228.28	3487.69
228.50	3624.90
228.72	2893.78
228.94	2934.74
229.16	3084.24
229.37	3198.93
229.59	2856.92
229.81	3147.73
230.03	3379.15
230.25	3147.73
230.47	2803.67
230.69	2881.49
230.90	3598.28
231.12	3336.14
231.34	3069.91
231.56	3039.19
231.78	3258.32
232.00	3483.59
232.21	3092.43
232.43	3035.09
232.65	3057.62
232.87	3549.13
233.09	2803.67
233.30	2901.97
233.52	3606.47
233.74	3405.77
233.96	2838.48
234.18	3127.25
234.40	3442.64
234.61	4011.97
234.83	2856.92
235.05	2983.89
235.27	4028.35
235.49	3721.16
235.70	2834.39
235.92	3035.09
236.14	3633.10
236.36	4028.35
236.58	2803.67
236.79	3092.43
237.01	3430.35
237.23	3434.44
237.45	3106.77
237.67	3002.32
237.88	3545.03
238.10	3764.17
238.32	2891.73
238.54	2914.26
238.76	3395.53
238.97	3248.08
239.19	2906.07
239.41	2936.79
239.63	3751.88
239.85	3293.13
240.06	3024.85
240.28	2897.88
240.50	3745.73
240.72	3459.02
240.93	2836.44
241.15	3063.76
241.37	3489.74
241.59	3864.52
241.81	2942.93
242.02	3053.52
242.24	3428.30
242.46	3528.65
242.68	2789.33
242.89	2899.92
243.11	3657.67
243.33	3430.35
243.55	2942.93
243.76	2983.89
243.98	3327.95
244.20	3426.25
244.42	3014.61
244.64	2871.25
244.85	3180.50
245.07	3282.89
245.29	2990.03
245.51	3074.00
245.72	3479.50
245.94	3659.72
246.16	2895.83
246.38	2957.27
246.59	3393.48
246.81	3278.80
247.03	2869.20
247.24	2805.72
247.46	3313.61
247.68	3473.36
247.90	2906.07
248.11	2971.60
248.33	3538.89
248.55	3352.52
248.77	2932.69
248.98	3047.38
249.20	3803.08
249.42	3483.59
249.64	2899.92
249.85	2844.63
250.07	3348.43
250.29	3667.91
250.50	2967.51
250.72	2883.54
250.94	3516.36
251.16	3975.11
251.37	2940.88
251.59	3033.04
251.81	3571.66
252.02	3803.08
252.24	2846.68
252.46	3196.88
252.68	3346.38
252.89	3278.80
253.11	2723.80
253.33	3088.34
253.54	3774.41
253.76	3215.31
253.98	2951.12
254.20	2961.36
254.41	3094.48
254.63	3459.02
254.85	2811.86
255.06	3045.33
255.28	3606.47
255.50	3383.24
255.71	2912.21
255.93	2766.81
256.15	3407.82
256.36	3618.76
256.58	2797.53
256.80	2832.34
257.02	3416.01
257.23	3354.57
257.45	2912.21
257.67	3057.62
257.88	3362.76
258.10	3491.79
258.32	2914.26
258.53	3039.19
258.75	3805.13
258.97	3319.76
259.18	2850.77
259.40	2926.55
259.62	3854.28
259.83	3780.55
260.05	3016.66
260.27	4057.03
260.48	3760.07
260.70	3274.70
260.92	2795.48
261.13	3008.47
261.35	3407.82
261.57	3585.99
261.78	2844.63
262.00	2899.92
262.22	3631.05
262.43	3262.41
262.65	2938.84
262.86	2887.64
263.08	3993.54
263.30	3475.40
263.51	2828.24
263.73	2889.68
263.95	3803.08
264.16	3200.98
264.38	2820.05
264.60	2926.55
264.81	3444.68
265.03	3655.62
265.25	3393.48
265.46	2893.78
265.68	3768.26
265.89	3571.66
266.11	2852.82
266.33	2969.55
266.54	3655.62
266.76	3557.32
266.98	2967.51
267.19	3135.44
267.41	3760.07
267.62	3487.69
267.84	2813.91
268.06	2985.94
268.27	3463.12
268.49	3641.29
268.70	3065.81
268.92	2918.36
269.14	3262.41
269.35	3157.97
269.57	3049.43
269.79	3020.75
270.00	3303.37
270.22	3940.29
270.43	2910.16
270.65	2887.64
270.87	3524.55
271.08	3614.66
271.30	3082.19
271.51	2906.07
271.73	3536.84
271.95	3805.13
272.16	2963.41
272.38	3098.58
272.59	3354.57
272.81	3583.95
273.02	2871.25
273.24	3008.47
273.46	3729.35
273.67	3180.50
273.89	2856.92
274.10	2990.03
274.32	3747.78
274.54	3504.07
274.75	3102.67
274.97	3045.33
275.18	3590.09
275.40	3549.13
275.61	2967.51
275.83	3180.50
276.05	3141.58
276.26	3448.78
276.48	3051.47
276.69	3127.25
276.91	3430.35
277.12	3850.18
277.34	3119.06
277.55	3307.47
277.77	3461.07
277.99	3366.86
278.20	3164.11
278.42	3002.32
278.63	3286.99
278.85	3262.41
279.06	3082.19
279.28	3221.45
279.49	3672.01
279.71	3672.01
279.93	3188.69
280.14	3188.69
280.36	3307.47
280.57	3770.31
280.79	3139.54
281.00	3065.81
281.22	3278.80
281.43	3725.26
281.65	2901.97
281.86	2906.07
282.08	3499.98
282.29	3915.72
282.51	3018.71
282.73	2938.84
282.94	3055.57
283.16	3643.34
283.37	3254.22
283.59	3096.53
283.80	3567.56
284.02	3430.35
284.23	3162.06
284.45	3121.10
284.66	3250.13
284.88	3325.90
285.09	3041.23
285.31	3219.41
285.52	3540.94
285.74	3155.92
285.95	3207.12
286.17	3135.44
286.38	3704.78
286.60	3299.28
286.81	3086.29
287.03	3065.81
287.24	3434.44
287.46	3547.08
287.67	3217.36
287.89	3309.52
288.10	3452.88
288.32	3364.81
288.53	3219.41
288.75	3119.06
288.96	3583.95
289.18	3297.23
289.39	2994.13
289.61	3184.59
289.82	3999.68
290.04	3870.66
290.25	3026.90
290.47	3219.41
290.68	3330.00
290.90	3696.58
291.11	2934.74
291.33	3297.23
291.54	3270.61
291.76	3256.27
291.97	3254.22
292.18	3155.92
292.40	3395.53
292.61	3297.23
292.83	3413.96
293.04	3112.91
293.26	3434.44
293.47	3325.90
293.69	3016.66
293.90	2944.98
294.12	3743.69
294.33	3436.49
294.55	3194.83
294.76	3379.15
294.97	3721.16
295.19	3950.53
295.40	3051.47
295.62	3209.17
295.83	3641.29
296.05	3264.46
296.26	3330.00
296.48	3086.29
296.69	3442.64
296.90	3428.30
297.12	3311.57
297.33	3229.65
297.55	3512.27
297.76	3557.32
297.98	3211.22
298.19	3260.37
298.41	3426.25
298.62	3393.48
298.83	3352.52
299.05	3139.54
299.26	3332.05
299.48	3286.99
299.69	3229.65
299.90	3024.85
300.12	3217.36
300.33	3610.57
300.55	3133.39
300.76	3186.64
300.98	3233.74
301.19	3631.05
301.40	3092.43
301.62	3119.06
301.83	3512.27
302.05	3528.65
302.26	3080.14
302.47	3141.58
302.69	3241.93
302.90	3467.21
303.12	2957.27
303.33	3317.71
303.54	3885.00
303.76	3327.95
303.97	3020.75
304.19	3346.38
304.40	3330.00
304.61	3483.59
304.83	3205.07
305.04	3209.17
305.26	3653.58
305.47	3381.20
305.68	3106.77
305.90	2963.41
306.11	3729.35
306.33	3444.68
306.54	2940.88
306.75	3123.15
306.97	3117.01
307.18	3327.95
307.39	3151.82
307.61	3213.26
307.82	3383.24
308.04	3489.74
308.25	2942.93
308.46	3284.94
308.68	3413.96
308.89	3491.79
309.10	3209.17
309.32	3127.25
309.53	3469.26
309.74	3610.57
309.96	3053.52
310.17	3262.41
310.39	3282.89
310.60	3551.18
310.81	3188.69
311.03	2951.12
311.24	3674.06
311.45	3434.44
311.67	3381.20
311.88	3184.59
312.09	3344.33
312.31	3260.37
312.52	2969.55
312.73	3112.91
312.95	3233.74
313.16	3295.18
313.37	3256.27
313.59	3321.81
313.80	3649.48
314.01	3835.85
314.23	3092.43
314.44	3123.15
314.65	3145.68
314.87	3252.17
315.08	3084.24
315.29	3063.76
315.51	3272.65
315.72	3145.68
315.93	3172.30
316.15	3194.83
316.36	3360.72
316.57	3452.88
316.79	3106.77
317.00	2963.41
317.21	3565.51
317.43	3262.41
317.64	3121.10
317.85	3039.19
318.07	3311.57
318.28	3375.05
318.49	3198.93
318.70	3366.86
318.92	3454.92
319.13	3436.49
319.34	3182.54
319.56	3117.01
319.77	3526.60
319.98	3624.90
320.20	3330.00
320.41	3225.55
320.62	3631.05
320.83	3180.50
321.05	3364.81
321.26	3082.19
321.47	3456.97
321.69	3647.43
321.90	2961.36
322.11	3131.34
322.32	3506.12
322.54	3872.71
322.75	3108.82
322.96	4229.06
323.18	3147.73
323.39	3057.62
323.60	2953.17
323.81	3196.88
324.03	3338.19
324.24	3370.96
324.45	3289.04
324.66	3016.66
324.88	3682.25
325.09	3774.41
325.30	3139.54
325.52	3033.04
325.73	3526.60
325.94	3295.18
326.15	2994.13
326.37	2904.02
326.58	3504.07
326.79	3831.75
327.00	2985.94
327.22	3098.58
327.43	3278.80
327.64	3307.47
327.85	3313.61
328.07	3266.51
328.28	3858.37
328.49	3377.10
328.70	3061.71
328.92	3102.67
329.13	3430.35
329.34	3526.60
329.55	3270.61
329.76	3252.17
329.98	3311.57
330.19	3663.82
330.40	3215.31
330.61	3198.93
330.83	3663.82
331.04	3268.56
331.25	3268.56
331.46	3106.77
331.68	3194.83
331.89	3622.86
332.10	3078.10
332.31	2885.59
332.52	3444.68
332.74	3712.97
332.95	2924.50
333.16	3102.67
333.37	3669.96
333.58	3350.48
333.80	3063.76
334.01	2916.31
334.22	3340.24
334.43	3270.61
334.64	3012.56
334.86	3112.91
335.07	3270.61
335.28	3731.40
335.49	2951.12
335.70	3131.34
335.92	3737.54
336.13	3983.30
336.34	3108.82
336.55	3106.77
336.76	3504.07
336.98	3012.56
337.19	3096.53
337.40	3217.36
337.61	4050.88
337.82	3426.25
338.04	3237.84
338.25	2944.98
338.46	3418.06
338.67	3411.92
338.88	3045.33
339.09	2969.55
339.31	3307.47
339.52	3239.89
339.73	2985.94
339.94	3188.69
340.15	3581.90
340.36	3221.45
340.58	3209.17
340.79	3047.38
341.00	3483.59
341.21	3117.01
341.42	3338.19
341.63	3092.43
341.85	3647.43
342.06	3502.03
342.27	3024.85
342.48	3303.37
342.69	3086.29
342.90	3540.94
343.12	3659.72
343.33	2916.31
343.54	3631.05
343.75	3774.41
343.96	3190.74
344.17	2979.79
344.38	3356.62
344.60	3260.37
344.81	3090.38
345.02	3133.39
345.23	3663.82
345.44	3950.53
345.65	3149.78
345.86	3090.38
346.07	3446.73
346.29	3327.95
346.50	3358.67
346.71	3231.69
346.92	3739.59
347.13	3905.48
347.34	3241.93
347.55	2951.12
347.76	3665.86
347.98	3114.96
348.19	3168.21
348.40	3215.31
348.61	3377.10
348.82	3772.36
349.03	3100.62
349.24	2983.89
349.45	3934.15
349.66	3028.95
349.88	3086.29
350.09	3004.37
350.30	3813.32
350.51	3739.59
350.72	3352.52
350.93	3041.23
351.14	3336.14
351.35	3557.32
351.56	3149.78
351.77	3119.06
351.99	3454.92
352.20	3717.06
352.41	3262.41
352.62	2949.08
352.83	3465.16
353.04	3454.92
353.25	3188.69
353.46	3127.25
353.67	3712.97
353.88	3067.86
354.09	2951.12
354.30	3186.64
354.52	3616.71
354.73	3459.02
354.94	3104.72
355.15	3229.65
355.36	3891.14
355.57	3377.10
355.78	3018.71
355.99	3198.93
356.20	3381.20
356.41	3727.30
356.62	3139.54
356.83	3151.82
357.04	3715.02
357.25	3096.53
357.46	3129.30
357.68	2981.84
357.89	3182.54
358.10	3350.48
358.31	3016.66
358.52	3166.16
358.73	3299.28
358.94	3184.59
359.15	3092.43
359.36	3155.92
359.57	3469.26
359.78	3377.10
359.99	3305.42
360.20	2951.12
360.41	3407.82
360.62	3604.42
360.83	3178.45
361.04	3100.62
361.25	3481.55
361.46	3813.32
361.67	3213.26
361.88	3168.21
362.09	3600.33
362.30	3493.83
362.51	2983.89
362.72	3182.54
362.93	3741.64
363.14	3491.79
363.35	3215.31
363.56	2922.45
363.78	3686.34
363.99	3622.86
364.20	3127.25
364.41	3155.92
364.62	3860.42
364.83	3512.27
365.04	3123.15
365.25	3192.78
365.46	3968.96
365.67	3237.84
365.88	3266.51
366.09	3117.01
366.30	3377.10
366.51	3442.64
366.72	3092.43
366.93	3090.38
367.14	3424.20
367.35	3792.84
367.56	3006.42
367.77	3213.26
367.98	3497.93
368.18	3606.47
368.39	3221.45
368.60	3041.23
368.81	3592.14
369.02	3497.93
369.23	3098.58
369.44	2969.55
369.65	3391.44
369.86	3610.57
370.07	3252.17
370.28	3047.38
370.49	3557.32
370.70	3524.55
370.91	3037.14
371.12	2955.22
371.33	3674.06
371.54	3266.51
371.75	3264.46
371.96	2811.86
372.17	3456.97
372.38	3377.10
372.59	3098.58
372.80	3000.27
373.01	3418.06
373.22	3473.36
373.43	3098.58
373.64	3078.10
373.85	3839.94
374.06	3782.60
374.26	3332.05
374.47	3262.41
374.68	3743.69
374.89	3553.23
375.10	3028.95
375.31	3248.08
375.52	3487.69
375.73	3508.17
375.94	2975.70
376.15	3162.06
376.36	3375.05
376.57	3403.72
376.78	3178.45
376.99	3166.16
377.20	3766.21
377.40	3420.11
377.61	3340.24
377.82	3123.15
378.03	3796.93
378.24	3524.55
378.45	3194.83
378.66	3170.26
378.87	3047.38
379.08	3125.20
379.29	3151.82
379.50	3301.33
379.71	3348.43
379.91	3602.38
380.12	3069.91
380.33	3217.36
380.54	3373.00
380.75	3407.82
380.96	3084.24
381.17	3139.54
381.38	3481.55
381.59	3499.98
381.80	3200.98
382.00	3282.89
382.21	3516.36
382.42	3745.73
382.63	3495.88
382.84	3350.48
383.05	3557.32
383.26	3782.60
383.47	3264.46
383.68	3063.76
383.88	3610.57
384.09	3459.02
384.30	3389.39
384.51	3254.22
384.72	3368.91
384.93	3217.36
385.14	3231.69
385.35	3389.39
385.55	3086.29
385.76	3651.53
385.97	3213.26
386.18	2955.22
386.39	3264.46
386.60	3266.51
386.81	3092.43
387.02	3098.58
387.22	3127.25
387.43	3653.58
387.64	3160.02
387.85	3405.77
388.06	3450.83
388.27	4427.71
388.48	7264.15
388.68	10776.41
388.89	13752.11
389.10	14935.84
389.31	14325.54
389.52	11802.44
389.73	10383.20
389.93	9496.43
390.14	8451.97
390.35	7958.41
390.56	7491.47
390.77	6162.34
390.98	4759.48
391.18	4081.60
391.39	3995.59
391.60	3493.83
391.81	3432.40
392.02	3131.34
392.23	3919.81
392.43	3506.12
392.64	3248.08
392.85	3305.42
393.06	3729.35
393.27	3389.39
393.47	3162.06
393.68	3219.41
393.89	3397.58
394.10	3737.54
394.31	3041.23
394.52	3084.24
394.72	3284.94
394.93	3737.54
395.14	2975.70
395.35	3293.13
395.56	3346.38
395.76	3383.24
395.97	3053.52
396.18	3291.09
396.39	3379.15
396.60	4118.47
396.80	3502.03
397.01	3352.52
397.22	3647.43
397.43	3602.38
397.64	3184.59
397.84	3213.26
398.05	3854.28
398.26	3413.96
398.47	3272.65
398.67	3291.09
398.88	3549.13
399.09	3674.06
399.30	3151.82
399.51	3129.30
399.71	3319.76
399.92	3426.25
400.13	3227.60
400.34	3090.38
400.54	3413.96
400.75	3745.73
400.96	3223.50
401.17	3459.02
401.37	3649.48
401.58	3403.72
401.79	3082.19
402.00	3272.65
402.21	3958.72
402.41	3516.36
402.62	3411.92
402.83	3540.94
403.04	3823.56
403.24	4323.26
403.45	3305.42
403.66	3403.72
403.87	3567.56
404.07	3801.03
404.28	3395.53
404.49	3444.68
404.70	3573.71
404.90	3588.04
405.11	3157.97
405.32	3297.23
405.52	3313.61
405.73	3348.43
405.94	2996.18
406.15	3225.55
406.35	3598.28
406.56	3596.23
406.77	3205.07
406.98	3145.68
407.18	3246.03
407.39	3778.50
407.60	3205.07
407.80	3235.79
408.01	3325.90
408.22	3600.33
408.43	3002.32
408.63	3270.61
408.84	3661.77
409.05	3665.86
409.25	3076.05
409.46	3117.01
409.67	3319.76
409.88	3309.52
410.08	3200.98
410.29	3110.86
410.50	3598.28
410.70	3555.27
410.91	3059.67
411.12	3211.22
411.32	3446.73
411.53	3286.99
411.74	3078.10
411.95	3229.65
412.15	3452.88
412.36	3493.83
412.57	3334.09
412.77	3311.57
412.98	3356.62
413.19	3319.76
413.39	3237.84
413.60	3180.50
413.81	3676.10
414.01	3198.93
414.22	3209.17
414.43	3368.91
414.63	3334.09
414.84	3592.14
415.05	3205.07
415.25	2942.93
415.46	3651.53
415.67	3295.18
415.87	3160.02
416.08	3166.16
416.29	3348.43
416.49	3561.42
416.70	3229.65
416.91	3090.38
417.11	3319.76
417.32	3708.87
417.53	3254.22
417.73	3243.98
417.94	3401.68
418.15	3504.07
418.35	3291.09
418.56	3198.93
418.77	3989.44
418.97	3495.88
419.18	3254.22
419.38	2844.63
419.59	3436.49
419.80	3708.87
420.00	3063.76
420.21	3205.07
420.42	3737.54
420.62	3538.89
420.83	3088.34
421.04	3106.77
421.24	3391.44
421.45	3606.47
421.65	3180.50
421.86	3166.16
422.07	3631.05
422.27	3575.75
422.48	3047.38
422.69	3004.37
422.89	3471.31
423.10	3350.48
423.30	3110.86
423.51	3196.88
423.72	3626.95
423.92	3573.71
424.13	3084.24
424.33	3229.65
424.54	3667.91
424.75	3520.46
424.95	3403.72
425.16	3139.54
425.36	3364.81
425.57	3643.34
425.78	3274.70
425.98	3233.74
426.19	3317.71
426.39	3233.74
426.60	3319.76
426.81	3231.69
427.01	3512.27
427.22	3207.12
427.42	3059.67
427.63	3143.63
427.83	3633.10
428.04	3815.37
428.25	3229.65
428.45	3278.80
428.66	3682.25
428.86	3373.00
429.07	3246.03
429.28	3225.55
429.48	3467.21
429.69	3221.45
429.89	3315.66
430.10	3082.19
430.30	3518.41
430.51	3678.15
430.71	3135.44
430.92	3313.61
431.13	3262.41
431.33	3540.94
431.54	3319.76
431.74	3368.91
431.95	3977.16
432.15	3237.84
432.36	3172.30
432.56	3295.18
432.77	3805.13
432.98	3831.75
433.18	3147.73
433.39	3098.58
433.59	3411.92
433.80	3999.68
434.00	3223.50
434.21	3180.50
434.41	3262.41
434.62	4024.26
434.82	3086.29
435.03	3074.00
435.23	3528.65
435.44	3196.88
435.64	3119.06
435.85	3211.22
436.06	3624.90
436.26	3721.16
436.47	3125.20
436.67	3078.10
436.88	3375.05
437.08	3665.86
437.29	3278.80
437.49	3293.13
437.70	3755.97
437.90	3485.64
438.11	3264.46
438.31	3254.22
438.52	3622.86
438.72	3661.77
438.93	3512.27
439.13	3266.51
439.34	3575.75
439.54	3368.91
439.75	3266.51
439.95	3293.13
440.16	3258.32
440.36	3422.16
440.57	3188.69
440.77	3225.55
440.98	3360.72
441.18	3532.75
441.39	3112.91
441.59	2985.94
441.80	3844.04
442.00	3407.82
442.21	3213.26
442.41	3000.27
442.62	3729.35
442.82	3270.61
443.02	3149.78
443.23	3205.07
443.43	3315.66
443.64	3672.01
443.84	2975.70
444.05	3229.65
444.25	3387.34
444.46	3434.44
444.66	3092.43
444.87	3434.44
445.07	3135.44
445.28	3358.67
445.48	3436.49
445.69	3237.84
445.89	3999.68
446.09	3354.57
446.30	3364.81
446.50	3592.14
446.71	5070.77
446.91	6137.76
447.12	6717.34
447.32	7239.57
447.53	7378.83
447.73	6178.72
447.93	5373.87
448.14	5226.42
448.34	5388.21
448.55	4517.82
448.75	4302.78
448.96	4167.62
449.16	4077.51
449.36	4009.92
449.57	3416.01
449.77	3229.65
449.98	3297.23
450.18	3534.79
450.39	3033.04
450.59	3407.82
450.79	3426.25
451.00	3235.79
451.20	3385.29
451.41	3119.06
451.61	3510.22
451.81	3385.29
452.02	3067.86
452.22	3155.92
452.43	3438.54
452.63	3289.04
452.84	3192.78
453.04	3149.78
453.24	3510.22
453.45	3258.32
453.65	3184.59
453.86	3149.78
454.06	3422.16
454.26	3401.68
454.47	3149.78
454.67	3342.28
454.87	3598.28
455.08	3295.18
455.28	3229.65
455.49	3373.00
455.69	3358.67
455.89	3852.23
456.10	3246.03
456.30	3076.05
456.51	3585.99
456.71	3491.79
456.91	3307.47
457.12	3196.88
457.32	3499.98
457.52	3198.93
457.73	3313.61
457.93	3395.53
458.14	3346.38
458.34	3033.04
458.54	3205.07
458.75	3092.43
458.95	3639.24
459.15	3483.59
459.36	3246.03
459.56	3135.44
459.76	3985.35
459.97	3426.25
460.17	3125.20
460.37	3219.41
460.58	3471.31
460.78	3610.57
460.99	3198.93
461.19	3205.07
461.39	3387.34
461.60	3330.00
461.80	3211.22
462.00	3076.05
462.21	3477.45
462.41	3262.41
462.61	3125.20
462.82	2987.99
463.02	3610.57
463.22	3456.97
463.43	3231.69
463.63	3051.47
463.83	3680.20
464.04	3549.13
464.24	3123.15
464.44	3188.69
464.64	3493.83
464.85	3581.90
465.05	3188.69
465.25	3133.39
465.46	3274.70
465.66	3579.85
465.86	3286.99
466.07	3155.92
466.27	3444.68
466.47	3063.76
466.68	3061.71
466.88	3217.36
467.08	3520.46
467.29	3729.35
467.49	3160.02
467.69	3221.45
467.89	3565.51
468.10	3385.29
468.30	3272.65
468.50	3338.19
468.71	3659.72
468.91	3137.49
469.11	3368.91
469.31	3264.46
469.52	3256.27
469.72	3848.13
469.92	3469.26
470.13	3207.12
470.33	3432.40
470.53	3471.31
470.73	3631.05
470.94	3880.90
471.14	4038.59
471.34	4534.20
471.54	4227.01
471.75	3868.61
471.95	3735.50
472.15	3749.83
472.36	3655.62
472.56	3497.93
472.76	3899.33
472.96	3786.69
473.17	3311.57
473.37	3250.13
473.57	3424.20
473.77	3651.53
473.98	3327.95
474.18	3067.86
474.38	4122.56
474.58	3358.67
474.79	2932.69
474.99	3270.61
475.19	3723.21
475.39	3205.07
475.60	3231.69
475.80	3057.62
476.00	3487.69
476.20	3393.48
476.41	3235.79
476.61	3129.30
476.81	3774.41
477.01	3227.60
477.21	3485.64
477.42	3311.57
477.62	3315.66
477.82	3696.58
478.02	3110.86
478.23	3227.60
478.43	3237.84
478.63	3420.11
478.83	3131.34
479.03	3268.56
479.24	3813.32
479.44	3979.20
479.64	3106.77
479.84	3024.85
480.04	3268.56
480.25	3729.35
480.45	3086.29
480.65	3168.21
480.85	3807.17
481.06	3305.42
481.26	3327.95
481.46	3110.86
481.66	3551.18
481.86	3237.84
482.06	3381.20
482.27	3157.97
482.47	3426.25
482.67	3524.55
482.87	3264.46
483.07	3237.84
483.28	3323.85
483.48	3188.69
483.68	3188.69
483.88	3129.30
484.08	3067.86
484.29	3188.69
484.49	3188.69
484.69	2969.55
484.89	3760.07
485.09	3665.86
485.29	3209.17
485.50	3307.47
485.70	3286.99
485.90	3590.09
486.10	3352.52
486.30	3133.39
486.50	3712.97
486.71	3522.51
486.91	3192.78
487.11	3217.36
487.31	3155.92
487.51	3524.55
487.71	3135.44
487.91	3106.77
488.12	3217.36
488.32	2959.31
488.52	3198.93
488.72	2850.77
488.92	3526.60
489.12	3684.30
489.32	3340.24
489.53	3239.89
489.73	3106.77
489.93	3841.99
490.13	3143.63
490.33	3026.90
490.53	3495.88
490.73	3680.20
490.94	3067.86
491.14	3246.03
491.34	3647.43
491.54	3592.14
491.74	3938.24
491.94	4540.35
492.14	5064.63
492.34	5197.74
492.54	4648.89
492.75	4140.99
492.95	4458.43
493.15	4110.27
493.35	3831.75
493.55	3745.73
493.75	3768.26
493.95	3934.15
494.15	3325.90
494.35	3286.99
494.56	3420.11
494.76	3358.67
494.96	3317.71
495.16	3020.75
495.36	3430.35
495.56	3499.98
495.76	3246.03
495.96	3194.83
496.16	3248.08
496.36	3876.80
496.56	3063.76
496.77	3264.46
496.97	3565.51
497.17	3706.82
497.37	2961.36
497.57	3295.18
497.77	3426.25
497.97	3209.17
498.17	3266.51
498.37	3123.15
498.57	3563.47
498.77	3395.53
498.97	3354.57
499.17	3532.75
499.38	3418.06
499.58	3532.75
499.78	3260.37
499.98	3289.04
500.18	3477.45
500.38	3311.57
500.58	3346.38
500.78	3606.47
500.98	6027.17
501.18	7751.56
501.38	8970.10
501.58	9889.64
501.78	9867.11
501.98	8304.51
502.18	7112.60
502.38	6182.82
502.58	6137.76
502.78	5525.42
502.98	5158.83
503.18	5058.48
503.38	4759.48
503.59	4239.30
503.79	4005.83
503.99	3717.06
504.19	3899.33
504.39	3950.53
504.59	3614.66
504.79	3526.60
504.99	4040.64
505.19	3653.58
505.39	3409.87
505.59	3549.13
505.79	3897.28
505.99	3436.49
506.19	3143.63
506.39	3327.95
506.59	3286.99
506.79	3358.67
506.99	3471.31
507.19	3096.53
507.39	3499.98
507.59	3196.88
507.79	3149.78
507.99	3149.78
508.19	3266.51
508.39	3313.61
508.59	3127.25
508.79	3264.46
508.99	3956.68
509.19	3209.17
509.39	3188.69
509.59	3000.27
509.79	3342.28
509.99	3454.92
510.19	3315.66
510.39	3231.69
510.59	3481.55
510.79	3325.90
510.99	2998.23
511.19	3100.62
511.39	3854.28
511.59	3641.29
511.79	3442.64
511.99	3145.68
512.19	3844.04
512.38	3424.20
512.58	3190.74
512.78	3088.34
512.98	3731.40
513.18	3780.55
513.38	3076.05
513.58	3192.78
513.78	3356.62
513.98	3446.73
514.18	3172.30
514.38	3205.07
514.58	3524.55
514.78	3336.14
514.98	3071.95
515.18	3215.31
515.38	3215.31
515.58	3727.30
515.78	3074.00
515.98	3164.11
516.18	3575.75
516.38	3426.25
516.57	3092.43
516.77	3135.44
516.97	3575.75
517.17	3319.76
517.37	2934.74
517.57	3147.73
517.77	3456.97
517.97	3256.27
518.17	3168.21
518.37	3002.32
518.57	3270.61
518.77	3315.66
518.97	3137.49
519.16	3239.89
519.36	3696.58
519.56	3284.94
519.76	3088.34
519.96	3147.73
520.16	3661.77
520.36	3221.45
520.56	3342.28
520.76	3141.58
520.96	3383.24
521.16	3696.58
521.35	3293.13
521.55	3286.99
521.75	3467.21
521.95	3332.05
522.15	3090.38
522.35	2975.70
522.55	3293.13
522.75	3592.14
522.95	3035.09
523.14	2992.08
523.34	3389.39
523.54	3209.17
523.74	3360.72
523.94	3237.84
524.14	3065.81
524.34	3516.36
524.54	3315.66
524.73	3227.60
524.93	3575.75
525.13	3491.79
525.33	3047.38
525.53	3422.16
525.73	3620.81
525.93	3483.59
526.13	3198.93
526.32	3117.01
526.52	3706.82
526.72	3665.86
526.92	3198.93
527.12	3125.20
527.32	3123.15
527.52	3596.23
527.71	3139.54
527.91	3209.17
528.11	3379.15
528.31	3516.36
528.51	3108.82
528.71	3205.07
528.90	3561.42
529.10	3672.01
529.30	3207.12
529.50	2912.21
529.70	3524.55
529.90	3401.68
530.09	3248.08
530.29	3051.47
530.49	3231.69
530.69	4050.88
530.89	3344.33
531.09	3282.89
531.28	3397.58
531.48	3747.78
531.68	3196.88
531.88	3221.45
532.08	3629.00
532.28	3319.76
532.47	3332.05
532.67	3248.08
532.87	3514.31
533.07	3184.59
533.27	3162.06
533.46	3141.58
533.66	3559.37
533.86	3434.44
534.06	3272.65
534.26	3164.11
534.45	3368.91
534.65	3639.24
534.85	3196.88
535.05	3035.09
535.25	3721.16
535.44	3033.04
535.64	3276.75
535.84	3246.03
536.04	3364.81
536.24	3344.33
536.43	3170.26
536.63	3123.15
536.83	3463.12
537.03	3422.16
537.22	3080.14
537.42	2914.26
537.62	3573.71
537.82	3250.13
538.02	3311.57
538.21	3166.16
538.41	4089.79
538.61	3549.13
538.81	3131.34
539.00	3235.79
539.20	3127.25
539.40	3428.30
539.60	3225.55
539.79	3411.92
539.99	3479.50
540.19	3188.69
540.39	3074.00
540.58	3262.41
540.78	3715.02
540.98	3477.45
541.18	3381.20
541.37	3221.45
541.57	3428.30
541.77	3510.22
541.97	3094.48
542.16	3057.62
542.36	3344.33
542.56	3313.61
542.76	3311.57
542.95	3344.33
543.15	3610.57
543.35	3680.20
543.54	3098.58
543.74	3102.67
543.94	3745.73
544.14	3344.33
544.33	3317.71
544.53	3198.93
544.73	3360.72
544.93	3332.05
545.12	3180.50
545.32	3139.54
545.52	3471.31
545.71	3282.89
545.91	3110.86
546.11	3106.77
546.30	3221.45
546.50	3420.11
546.70	3231.69
546.90	3188.69
547.09	3100.62
547.29	3516.36
547.49	3393.48
547.68	3170.26
547.88	3209.17
548.08	3639.24
548.27	3426.25
548.47	3133.39
548.67	3295.18
548.87	3596.23
549.06	3151.82
549.26	3160.02
549.46	3518.41
549.65	3319.76
549.85	3246.03
550.05	3176.40
550.24	3176.40
550.44	3409.87
550.64	3110.86
550.83	3321.81
551.03	3700.68
551.23	3651.53
551.42	3209.17
551.62	3157.97
551.82	3405.77
552.01	3389.39
552.21	3557.32
552.41	3264.46
552.60	3719.11
552.80	3428.30
553.00	3121.10
553.19	3221.45
553.39	3803.08
553.59	3135.44
553.78	3250.13
553.98	3065.81
554.17	3256.27
554.37	3569.61
554.57	3327.95
554.76	3041.23
554.96	3297.23
555.16	3475.40
555.35	3246.03
555.55	3336.14
555.75	3514.31
555.94	3616.71
556.14	3000.27
556.33	3256.27
556.53	3483.59
556.73	3411.92
556.92	3166.16
557.12	3090.38
557.32	3833.80
557.51	3719.11
557.71	3246.03
557.90	3397.58
558.10	3747.78
558.30	3395.53
558.49	3282.89
558.69	3164.11
558.88	3655.62
559.08	3452.88
559.28	3182.54
559.47	3155.92
559.67	3555.27
559.86	3790.79
560.06	3180.50
560.26	3190.74
560.45	3504.07
560.65	3418.06
560.84	3440.59
561.04	3055.57
561.24	3571.66
561.43	3178.45
561.63	3461.07
561.82	3327.95
562.02	3567.56
562.22	3282.89
562.41	3065.81
562.61	3164.11
562.80	3166.16
563.00	3960.77
563.19	3229.65
563.39	3264.46
563.59	3561.42
563.78	3190.74
563.98	2934.74
564.17	3194.83
564.37	3090.38
564.56	3495.88
564.76	3090.38
564.96	3254.22
565.15	3506.12
565.35	3997.64
565.54	3229.65
565.74	3174.35
565.93	3555.27
566.13	3430.35
566.32	3274.70
566.52	3342.28
566.71	3452.88
566.91	3590.09
567.11	3295.18
567.30	3119.06
567.50	3522.51
567.69	3571.66
567.89	3119.06
568.08	3053.52
568.28	3530.70
568.47	3157.97
568.67	3168.21
568.86	3178.45
569.06	3563.47
569.25	3407.82
569.45	3071.95
569.64	3250.13
569.84	3274.70
570.04	3493.83
570.23	3180.50
570.43	3246.03
570.62	3520.46
570.82	3803.08
571.01	3086.29
571.21	3117.01
571.40	3323.85
571.60	3559.37
571.79	3213.26
571.99	3182.54
572.18	3237.84
572.38	3448.78
572.57	3243.98
572.77	3205.07
572.96	4110.27
573.16	3456.97
573.35	3164.11
573.55	3305.42
573.74	3399.63
573.94	3395.53
574.13	3145.68
574.33	3399.63
574.52	3747.78
574.71	3459.02
574.91	3272.65
575.10	3076.05
575.30	3305.42
575.49	3262.41
575.69	3086.29
575.88	3117.01
576.08	3444.68
576.27	3585.99
576.47	3147.73
576.66	3344.33
576.86	3788.74
577.05	3510.22
577.25	3258.32
577.44	3344.33
577.64	3270.61
577.83	3657.67
578.02	3133.39
578.22	3381.20
578.41	3805.13
578.61	3401.68
578.80	2992.08
579.00	3196.88
579.19	3420.11
579.39	3495.88
579.58	3162.06
579.77	3180.50
579.97	3684.30
580.16	3594.19
580.36	3348.43
580.55	3225.55
580.75	3475.40
580.94	3446.73
581.13	3307.47
581.33	3422.16
581.52	3411.92
581.72	3891.14
581.91	3262.41
582.11	3125.20
582.30	3749.83
582.49	3436.49
582.69	3510.22
582.88	3157.97
583.08	3569.61
583.27	3688.39
583.47	3299.28
583.66	3198.93
583.85	3221.45
584.05	3346.38
584.24	3254.22
584.44	3188.69
584.63	3665.86
584.82	3680.20
585.02	3469.26
585.21	3336.14
585.41	3579.85
585.60	3491.79
585.79	3405.77
585.99	3444.68
586.18	3463.12
586.37	4429.76
586.57	6635.42
586.76	18564.84
586.96	36859.34
587.15	49470.73
587.34	57121.94
587.54	61525.08
587.73	53587.15
587.93	38677.94
588.12	29732.41
588.31	24430.22
588.51	22005.42
588.70	20309.71
588.89	17954.54
589.09	15167.26
589.28	13328.18
589.47	10399.59
589.67	7821.19
589.86	6152.10
590.06	4951.99
590.25	4556.73
590.44	3891.14
590.64	3557.32
590.83	3733.45
591.02	3803.08
591.22	3174.35
591.41	3229.65
591.60	3434.44
591.80	4034.50
591.99	3057.62
592.18	3221.45
592.38	3622.86
592.57	3348.43
592.76	3200.98
592.96	3307.47
593.15	3364.81
593.34	3700.68
593.54	3180.50
593.73	3336.14
593.92	3592.14
594.12	3485.64
594.31	3225.55
594.50	3397.58
594.70	3559.37
594.89	4050.88
595.08	3076.05
595.28	3360.72
595.47	4093.89
595.66	3618.76
595.86	3045.33
596.05	2987.99
596.24	3356.62
596.43	3885.00
596.63	3164.11
596.82	3346.38
597.01	3452.88
597.21	3760.07
597.40	3143.63
597.59	3280.85
597.79	3368.91
597.98	3624.90
598.17	3297.23
598.36	3272.65
598.56	3643.34
598.75	3332.05
598.94	3231.69
599.14	3280.85
599.33	3366.86
599.52	3669.96
599.71	3311.57
599.91	3168.21
600.10	3583.95
600.29	3454.92
600.48	3256.27
600.68	3332.05
600.87	3532.75
601.06	3270.61
601.26	3346.38
601.45	3327.95
601.64	3356.62
601.83	3731.40
602.03	3090.38
602.22	3098.58
602.41	3626.95
602.60	3971.01
602.80	3280.85
602.99	3385.29
603.18	3354.57
603.37	3454.92
603.57	3162.06
603.76	3145.68
603.95	3692.49
604.14	3246.03
604.34	3119.06
604.53	3100.62
604.72	3479.50
604.91	3608.52
605.10	3200.98
605.30	3145.68
605.49	3913.67
605.68	3631.05
605.87	3233.74
606.07	3174.35
606.26	3385.29
606.45	3600.33
606.64	3231.69
606.84	3137.49
607.03	3434.44
607.22	3598.28
607.41	3366.86
607.60	3200.98
607.80	3768.26
607.99	3428.30
608.18	3192.78
608.37	3205.07
608.56	3348.43
608.76	3669.96
608.95	3317.71
609.14	3153.87
609.33	3635.14
609.52	3889.09
609.72	3295.18
609.91	3254.22
610.10	3454.92
610.29	3760.07
610.48	3291.09
610.68	3256.27
610.87	3499.98
611.06	3629.00
611.25	3196.88
611.44	3368.91
611.63	3395.53
611.83	3698.63
612.02	3098.58
612.21	3286.99
612.40	3106.77
612.59	3209.17
612.79	3160.02
612.98	3184.59
613.17	3796.93
613.36	3401.68
613.55	3284.94
613.74	3129.30
613.93	3364.81
614.13	3520.46
614.32	3286.99
614.51	3168.21
614.70	3389.39
614.89	3311.57
615.08	3291.09
615.28	3479.50
615.47	3184.59
615.66	3551.18
615.85	3315.66
616.04	3213.26
616.23	3432.40
616.42	3391.44
616.62	3067.86
616.81	3215.31
617.00	3506.12
617.19	3497.93
617.38	3256.27
617.57	3317.71
617.76	3626.95
617.95	3575.75
618.15	3305.42
618.34	3430.35
618.53	3155.92
618.72	3688.39
618.91	3254.22
619.10	3352.52
619.29	3465.16
619.48	3489.74
619.68	3002.32
619.87	3205.07
620.06	3149.78
620.25	3594.19
620.44	3117.01
620.63	3100.62
620.82	3483.59
621.01	3514.31
621.20	3151.82
621.39	3256.27
621.59	3551.18
621.78	3391.44
621.97	3166.16
622.16	3338.19
622.35	3430.35
622.54	3538.89
622.73	3266.51
622.92	2985.94
623.11	3739.59
623.30	3305.42
623.49	3364.81
623.68	3092.43
623.88	3753.93
624.07	3227.60
624.26	3074.00
624.45	3198.93
624.64	3399.63
624.83	3551.18
625.02	3180.50
625.21	3211.22
625.40	3561.42
625.59	3712.97
625.78	3217.36
625.97	3233.74
626.16	3688.39
626.35	3674.06
626.54	3174.35
626.74	3454.92
626.93	3393.48
627.12	3430.35
627.31	3258.32
627.50	3282.89
627.69	3594.19
627.88	3190.74
628.07	3084.24
628.26	3069.91
628.45	3260.37
628.64	3258.32
628.83	3108.82
629.02	3006.42
629.21	3598.28
629.40	3483.59
629.59	3049.43
629.78	3180.50
629.97	3559.37
630.16	3362.76
630.35	3108.82
630.54	3311.57
630.73	3325.90
630.92	3393.48
631.11	3155.92
631.30	3270.61
631.49	3641.29
631.68	3389.39
631.87	3270.61
632.06	3141.58
632.25	3983.30
632.44	3510.22
632.63	3219.41
632.82	3190.74
633.01	3256.27
633.20	3467.21
633.39	3188.69
633.58	2979.79
633.77	3520.46
633.96	3532.75
634.15	3270.61
634.34	3346.38
634.53	3549.13
634.72	3315.66
634.91	2996.18
635.10	3176.40
635.29	3557.32
635.48	3532.75
635.67	3082.19
635.86	3033.04
636.05	3737.54
636.24	3434.44
636.43	3141.58
636.62	3303.37
636.81	2981.84
637.00	3438.54
637.19	3119.06
637.38	3268.56
637.57	3348.43
637.76	3370.96
637.95	3362.76
638.14	3295.18
638.33	3452.88
638.52	3534.79
638.71	3061.71
638.89	3125.20
639.08	4042.69
639.27	3581.90
639.46	3426.25
639.65	3715.02
639.84	3844.04
640.03	4140.99
640.22	3516.36
640.41	3581.90
640.60	3506.12
640.79	3698.63
640.98	3364.81
641.17	3440.59
641.36	3682.25
641.55	3590.09
641.74	2983.89
641.92	3084.24
642.11	3252.17
642.30	3368.91
642.49	3106.77
642.68	3188.69
642.87	3545.03
643.06	3542.99
643.25	3010.51
643.44	3102.67
643.63	3389.39
643.82	3536.84
644.00	3114.96
644.19	3160.02
644.38	3174.35
644.57	3598.28
644.76	3205.07
644.95	3254.22
645.14	3381.20
645.33	3524.55
645.52	3313.61
645.71	2990.03
645.89	3172.30
646.08	3405.77
646.27	3176.40
646.46	3370.96
646.65	3090.38
646.84	3520.46
647.03	3076.05
647.22	3389.39
647.40	3477.45
647.59	3336.14
647.78	2973.65
647.97	3135.44
648.16	3280.85
648.35	3702.73
648.54	3444.68
648.73	3178.45
648.91	3581.90
649.10	3491.79
649.29	3149.78
649.48	3063.76
649.67	3483.59
649.86	3442.64
650.05	3286.99
650.23	3332.05
650.42	3286.99
650.61	3749.83
650.80	3383.24
650.99	3463.12
651.18	3747.78
651.36	3663.82
651.55	3078.10
651.74	3430.35
651.93	3336.14
652.12	3360.72
652.31	3205.07
652.49	3311.57
652.68	3391.44
652.87	3823.56
653.06	3385.29
653.25	3420.11
653.44	3493.83
653.62	3747.78
653.81	3237.84
654.00	3149.78
654.19	3700.68
654.38	3944.39
654.56	3266.51
654.75	3141.58
654.94	3651.53
655.13	3512.27
655.32	3131.34
655.51	3256.27
655.69	3340.24
655.88	3649.48
656.07	3016.66
656.26	3274.70
656.45	3084.24
656.63	3493.83
656.82	3164.11
657.01	3434.44
657.20	3274.70
657.38	3725.26
657.57	3155.92
657.76	2955.22
657.95	3557.32
658.14	3246.03
658.32	3256.27
658.51	2987.99
658.70	3491.79
658.89	3565.51
659.08	3252.17
659.26	3454.92
659.45	3213.26
659.64	3565.51
659.83	3164.11
660.01	3475.40
660.20	3389.39
660.39	3745.73
660.58	2858.96
660.76	3221.45
660.95	3164.11
661.14	3499.98
661.33	3018.71
661.51	3262.41
661.70	3373.00
661.89	3491.79
662.08	3192.78
662.26	3026.90
662.45	3139.54
662.64	3893.19
662.83	3276.75
663.01	3033.04
663.20	3258.32
663.39	3798.98
663.58	3223.50
663.76	3139.54
663.95	3540.94
664.14	3237.84
664.32	3299.28
664.51	3059.67
664.70	3069.91
664.89	3475.40
665.07	3014.61
665.26	3358.67
665.45	3135.44
665.64	3635.14
665.82	3184.59
666.01	3358.67
666.20	3278.80
666.38	3598.28
666.57	3469.26
666.76	5582.76
666.95	12697.41
667.13	18638.56
667.32	22509.22
667.51	24970.88
667.69	25290.37
667.88	20752.07
668.07	15200.02
668.25	13176.63
668.44	11595.60
668.63	10280.80
668.81	8939.38
669.00	7632.78
669.19	7196.56
669.38	6358.94
669.56	5412.78
669.75	4698.04
669.94	4313.02
670.12	3794.89
670.31	3510.22
670.50	3448.78
670.68	3704.78
670.87	3557.32
671.06	3121.10
671.24	3256.27
671.43	3858.37
671.62	3426.25
671.80	3168.21
671.99	3344.33
672.18	3471.31
672.36	3618.76
672.55	3311.57
672.74	3286.99
672.92	3409.87
673.11	3626.95
673.29	3065.81
673.48	3330.00
673.67	3387.34
673.85	3663.82
674.04	3139.54
674.23	3297.23
674.41	3895.24
674.60	3125.20
674.79	3018.71
674.97	3028.95
675.16	3622.86
675.34	3712.97
675.53	3096.53
675.72	3243.98
675.90	3907.52
676.09	3299.28
676.28	3319.76
676.46	2953.17
676.65	3602.38
676.83	3303.37
677.02	3258.32
677.21	3239.89
677.39	3561.42
677.58	3215.31
677.77	3256.27
677.95	3082.19
678.14	3385.29
678.32	3352.52
678.51	3147.73
678.70	3403.72
678.88	3360.72
679.07	3514.31
679.25	3192.78
679.44	3166.16
679.63	3188.69
679.81	3463.12
680.00	3409.87
680.18	3219.41
680.37	3749.83
680.55	3493.83
680.74	3057.62
680.93	3000.27
681.11	3516.36
681.30	3504.07
681.48	3209.17
681.67	3274.70
681.85	3493.83
682.04	3262.41
682.23	3344.33
682.41	3313.61
682.60	3393.48
682.78	3430.35
682.97	3164.11
683.15	3315.66
683.34	3575.75
683.53	3784.65
683.71	3100.62
683.90	3203.02
684.08	3805.13
684.27	3381.20
684.45	3198.93
684.64	3373.00
684.82	3454.92
685.01	3502.03
685.19	3149.78
685.38	3452.88
685.57	3467.21
685.75	3229.65
685.94	3123.15
686.12	3125.20
686.31	3217.36
686.49	3811.27
686.68	2979.79
686.86	3254.22
687.05	3407.82
687.23	3778.50
687.42	3188.69
687.60	3026.90
687.79	3700.68
687.97	3868.61
688.16	3305.42
688.34	3338.19
688.53	3051.47
688.71	3497.93
688.90	3561.42
689.08	3250.13
689.27	3135.44
689.45	3581.90
689.64	3354.57
689.82	3299.28
690.01	3522.51
690.19	3465.16
690.38	3260.37
690.56	3354.57
690.75	3274.70
690.93	3297.23
691.12	3188.69
691.30	3215.31
691.49	3264.46
691.67	3401.68
691.86	3583.95
692.04	3198.93
692.23	3252.17
692.41	3407.82
692.60	3491.79
692.78	3395.53
692.97	3471.31
693.15	3577.80
693.34	3377.10
693.52	3430.35
693.71	3352.52
693.89	3332.05
694.08	3104.72
694.26	3211.22
694.44	3622.86
694.63	3506.12
694.81	3149.78
695.00	3209.17
695.18	3682.25
695.37	4016.07
695.55	3377.10
695.74	3258.32
695.92	3276.75
696.10	3661.77
696.29	3082.19
696.47	3215.31
696.66	3190.74
696.84	3205.07
697.03	3231.69
697.21	3461.07
697.40	4800.44
697.58	3721.16
697.76	3139.54
697.95	3209.17
698.13	3196.88
698.32	3284.94
698.50	3151.82
698.68	3190.74
698.87	3499.98
699.05	3803.08
699.24	3207.12
699.42	3211.22
699.61	3524.55
699.79	3459.02
699.97	3184.59
700.16	3020.75
700.34	3209.17
700.53	3524.55
700.71	3497.93
700.89	3344.33
701.08	3252.17
701.26	3446.73
701.45	3549.13
701.63	3211.22
701.81	3303.37
702.00	3270.61
702.18	3336.14
702.37	3198.93
702.55	3637.19
702.73	3534.79
702.92	3211.22
703.10	3450.83
703.28	3524.55
703.47	3225.55
703.65	3426.25
703.84	3237.84
704.02	3243.98
704.20	3735.50
704.39	3213.26
704.57	3082.19
704.75	3563.47
704.94	3534.79
705.12	3409.87
705.30	4020.16
705.49	8286.08
705.67	14542.63
705.86	19218.14
706.04	21372.60
706.22	23969.43
706.41	22269.61
706.59	16531.20
706.77	13371.19
706.96	11781.96
707.14	10798.94
707.32	9332.59
707.51	8167.30
707.69	6940.57
707.87	5773.22
708.06	4841.40
708.24	4288.45
708.42	4161.47
708.61	4237.25
708.79	3266.51
708.97	3344.33
709.16	3561.42
709.34	3502.03
709.52	3198.93
709.71	3229.65
709.89	3583.95
710.07	3385.29
710.26	3088.34
710.44	3200.98
710.62	3680.20
710.80	3379.15
710.99	3348.43
711.17	3452.88
711.35	3270.61
711.54	3266.51
711.72	3407.82
711.90	3155.92
712.09	3536.84
712.27	3248.08
712.45	3354.57
712.63	3266.51
712.82	3368.91
713.00	3442.64
713.18	3360.72
713.37	3387.34
713.55	3542.99
713.73	3616.71
713.91	3303.37
714.10	3246.03
714.28	3514.31
714.46	3495.88
714.65	3258.32
714.83	3313.61
715.01	3489.74
715.19	3475.40
715.38	3133.39
715.56	3278.80
715.74	3280.85
715.92	3235.79
716.11	3602.38
716.29	3020.75
716.47	3434.44
716.65	3399.63
716.84	3071.95
717.02	3299.28
717.20	3139.54
717.38	3284.94
717.57	3381.20
717.75	3203.02
717.93	3340.24
718.11	3614.66
718.30	3088.34
718.48	3213.26
718.66	3739.59
718.84	3676.10
719.03	3082.19
719.21	3098.58
719.39	3887.04
719.57	3614.66
719.75	3299.28
719.94	3164.11
720.12	3254.22
720.30	3506.12
720.48	3286.99
720.67	3221.45
720.85	3188.69
721.03	3332.05
721.21	3139.54
721.39	3221.45
721.58	3524.55
721.76	3469.26
721.94	3196.88
722.12	3321.81
722.30	3737.54
722.49	3305.42
722.67	3231.69
722.85	3254.22
723.03	3176.40
723.21	3286.99
723.40	3311.57
723.58	3364.81
723.76	3559.37
723.94	3749.83
724.12	3209.17
724.30	3469.26
724.49	3663.82
724.67	3239.89
724.85	3192.78
725.03	3076.05
725.21	3532.75
725.40	3704.78
725.58	3221.45
725.76	3346.38
725.94	3590.09
726.12	3174.35
726.30	3250.13
726.49	3151.82
726.67	3340.24
726.85	3506.12
727.03	3938.24
727.21	4894.65
727.39	6162.34
727.57	6465.44
727.76	6563.74
727.94	6612.89
728.12	5943.21
728.30	5105.59
728.48	4716.47
728.66	4491.20
728.84	4333.50
729.03	3930.05
729.21	3653.58
729.39	3467.21
729.57	3561.42
729.75	3520.46
729.93	3442.64
730.11	3176.40
730.30	3268.56
730.48	3370.96
730.66	3209.17
730.84	3344.33
731.02	3536.84
731.20	3370.96
731.38	3303.37
731.56	2983.89
731.74	3092.43
731.93	3467.21
732.11	3373.00
732.29	3133.39
732.47	3614.66
732.65	3540.94
732.83	3354.57
733.01	3319.76
733.19	3299.28
733.37	3542.99
733.56	3174.35
733.74	3065.81
733.92	3831.75
734.10	3309.52
734.28	3475.40
734.46	3041.23
734.64	3340.24
734.82	3391.44
735.00	3137.49
735.18	3137.49
735.36	3430.35
735.54	3360.72
735.73	3213.26
735.91	3350.48
736.09	3688.39
736.27	3506.12
736.45	3223.50
736.63	2959.31
736.81	3340.24
736.99	3665.86
737.17	3387.34
737.35	3131.34
737.53	3465.16
737.71	3381.20
737.89	3405.77
738.07	3209.17
738.25	3135.44
738.43	3114.96
738.61	3256.27
738.80	3110.86
738.98	3217.36
739.16	3291.09
739.34	3205.07
739.52	3497.93
739.70	3420.11
739.88	3547.08
740.06	3338.19
740.24	2953.17
740.42	3686.34
740.60	3059.67
740.78	3110.86
740.96	2996.18
741.14	3377.10
741.32	3368.91
741.50	2981.84
741.68	3385.29
741.86	3772.36
742.04	3207.12
742.22	3168.21
742.40	3305.42
742.58	3512.27
742.76	3139.54
742.94	3469.26
743.12	3016.66
743.30	3346.38
743.48	3600.33
743.66	3164.11
743.84	3174.35
744.02	3424.20
744.20	3364.81
744.38	3119.06
744.56	3225.55
744.74	3831.75
744.92	3495.88
745.10	3481.55
745.28	3233.74
745.46	3743.69
745.64	3389.39
745.82	3278.80
746.00	3190.74
746.18	3491.79
746.36	3233.74
746.54	3237.84
746.72	3190.74
746.90	3241.93
747.08	3723.21
747.26	3289.04
747.44	3321.81
747.62	3542.99
747.80	3540.94
747.98	3319.76
748.15	3209.17
748.33	3749.83
748.51	3452.88
748.69	3286.99
748.87	3096.53
749.05	3424.20
749.23	3307.47
749.41	3233.74
749.59	3246.03
749.77	3641.29
749.95	3317.71
750.13	3186.64
750.31	3250.13
750.49	3461.07
750.67	3594.19
750.85	3373.00
751.03	3174.35
751.20	3928.00
751.38	3428.30
751.56	3198.93
751.74	3229.65
751.92	3368.91
752.10	3200.98
752.28	3422.16
752.46	3155.92
752.64	3446.73
752.82	3401.68
753.00	3270.61
753.18	3110.86
753.35	3385.29
753.53	3307.47
753.71	3164.11
753.89	3151.82
754.07	3504.07
754.25	3698.63
754.43	3229.65
754.61	3100.62
754.79	3526.60
754.97	3319.76
755.14	3420.11
755.32	3170.26
755.50	3532.75
755.68	3442.64
755.86	3147.73
756.04	3172.30
756.22	3106.77
756.40	3651.53
756.57	3395.53
756.75	3172.30
756.93	3680.20
757.11	3514.31
757.29	3065.81
757.47	3055.57
757.65	3071.95
757.82	2994.13
758.00	3149.78
758.18	3188.69
758.36	3286.99
758.54	3827.65
758.72	3084.24
758.90	3403.72
759.07	3454.92
759.25	3221.45
759.43	3348.43
759.61	3022.80
759.79	4644.79
759.97	3667.91
760.15	3258.32
760.32	3196.88
760.50	3633.10
760.68	3805.13
760.86	3053.52
761.04	3399.63
761.22	3643.34
761.39	3516.36
761.57	3364.81
761.75	3139.54
761.93	3561.42
762.11	3479.50
762.28	3305.42
762.46	3160.02
762.64	3690.44
762.82	3164.11
763.00	3166.16
763.18	3368.91
763.35	3293.13
763.53	3450.83
763.71	3258.32
763.89	3084.24
764.07	3563.47
764.24	3379.15
764.42	3274.70
764.60	3145.68
764.78	3590.09
764.96	3649.48
765.13	3413.96
765.31	3123.15
765.49	3585.99
765.67	3311.57
765.84	3180.50
766.02	3131.34
766.20	3160.02
766.38	3540.94
766.56	3246.03
766.73	3327.95
766.91	3499.98
767.09	3432.40
767.27	3209.17
767.44	3102.67
767.62	3518.41
767.80	3467.21
767.98	3117.01
768.15	3272.65
768.33	3508.17
768.51	3561.42
768.69	3377.10
768.87	3205.07
769.04	3440.59
769.22	4016.07
769.40	3411.92
769.58	3293.13
769.75	3596.23
769.93	3776.45
770.11	3180.50
770.28	3014.61
770.46	3614.66
770.64	3540.94
770.82	3213.26
770.99	3082.19
771.17	3592.14
771.35	3246.03
771.53	3260.37
771.70	3149.78
771.88	3706.82
772.06	3377.10
772.23	3131.34
772.41	3211.22
772.59	3428.30
772.77	3256.27
772.94	3264.46
773.12	3301.33
773.30	3346.38
773.47	3473.36
773.65	3108.82
773.83	3397.58
774.01	3405.77
774.18	3125.20
774.36	3213.26
774.54	3049.43
774.71	3571.66
774.89	3082.19
775.07	3076.05
775.24	3160.02
775.42	3395.53
775.60	3850.18
775.78	3090.38
775.95	3094.48
776.13	3188.69
776.31	3018.71
776.48	3442.64
776.66	3532.75
776.84	3325.90
777.01	3205.07
777.19	3061.71
777.37	3069.91
777.54	3657.67
777.72	3893.19
777.90	3241.93
778.07	3137.49
778.25	4157.38
778.43	3614.66
778.60	3164.11
778.78	3305.42
778.96	3764.17
779.13	3237.84
779.31	3243.98
779.49	3258.32
779.66	3409.87
779.84	3397.58
780.01	3121.10
780.19	3114.96
780.37	3696.58
780.54	3606.47
780.72	3051.47
780.90	3272.65
781.07	3344.33
781.25	3274.70
781.43	3377.10
781.60	3194.83
781.78	3680.20
781.95	3540.94
782.13	3139.54
782.31	3209.17
782.48	3090.38
782.66	3399.63
782.83	3397.58
783.01	3432.40
783.19	3643.34
783.36	3356.62
783.54	3106.77
783.72	3284.94
783.89	3309.52
784.07	3549.13
784.24	3338.19
784.42	3358.67
784.60	3549.13
784.77	3565.51
784.95	2922.45
785.12	3155.92
785.30	3508.17
785.47	3286.99
785.65	3094.48
785.83	3258.32
786.00	3348.43
786.18	3475.40
786.35	3121.10
786.53	3045.33
786.71	3616.71
786.88	3614.66
787.06	3303.37
787.23	3266.51
787.41	3170.26
787.58	3356.62
787.76	3147.73
787.94	3227.60
788.11	3450.83
788.29	3211.22
788.46	3239.89
788.64	3037.14
788.81	3383.24
788.99	3184.59
789.16	3182.54
789.34	3182.54
789.52	3309.52
789.69	3309.52
789.87	3022.80
790.04	3229.65
790.22	3397.58
790.39	3848.13
790.57	3047.38
790.74	3082.19
790.92	3715.02
791.09	3133.39
791.27	3282.89
791.44	3254.22
791.62	3352.52
791.79	3598.28
791.97	3356.62
792.15	3487.69
792.32	3559.37
792.50	3520.46
792.67	3323.85
792.85	3510.22
793.02	3420.11
793.20	3442.64
793.37	3026.90
793.55	3110.86
793.72	3133.39
793.90	3618.76
794.07	3286.99
794.25	3180.50
794.42	3436.49
794.60	3418.06
794.77	3229.65
794.95	3428.30
795.12	3608.52
795.30	3360.72
795.47	3030.99
795.65	3565.51
795.82	3532.75
796.00	3313.61
796.17	3340.24
796.34	3041.23
796.52	3491.79
796.69	3565.51
796.87	3307.47
797.04	3291.09
797.22	3585.99
797.39	3512.27
797.57	3332.05
797.74	3241.93
797.92	3463.12
798.09	3364.81
798.27	3493.83
798.44	3186.64
798.62	3350.48
798.79	3483.59
798.96	3346.38
799.14	3180.50
799.31	4067.27
799.49	3430.35
799.66	3200.98
799.84	3213.26
800.01	3026.90
800.19	3467.21
800.36	2963.41
800.53	3264.46
800.71	3489.74
800.88	3708.87
801.06	3117.01
801.23	3172.30
801.41	3311.57
801.58	3286.99
801.75	3221.45
801.93	3286.99
802.10	3624.90
802.28	3344.33
802.45	3147.73
802.63	3231.69
802.80	3764.17
802.97	3397.58
803.15	3215.31
803.32	3166.16
803.50	3297.23
803.67	3272.65
803.84	3137.49
804.02	3268.56
804.19	3416.01
804.37	3016.66
804.54	3082.19
804.71	3133.39
804.89	3366.86
805.06	3213.26
805.24	3166.16
805.41	3049.43
805.58	3342.28
805.76	3893.19
805.93	3133.39
806.10	3293.13
806.28	3542.99
806.45	3577.80
806.63	3370.96
806.80	3192.78
806.97	3518.41
807.15	3409.87
807.32	3305.42
807.49	3188.69
807.67	3213.26
807.84	3534.79
808.01	3030.99
808.19	3430.35
808.36	3934.15
808.54	3413.96
808.71	3155.92
808.88	3123.15
809.06	3592.14
809.23	3735.50
809.40	3274.70
809.58	3131.34
809.75	3377.10
809.92	3160.02
810.10	3373.00
810.27	3168.21
810.44	3418.06
810.62	3604.42
810.79	3225.55
810.96	3155.92
811.14	3350.48
811.31	3565.51
811.48	3397.58
811.66	3280.85
811.83	3653.58
812.00	3575.75
812.18	3272.65
812.35	3508.17
812.52	3407.82
812.69	3375.05
812.87	3297.23
813.04	3094.48
813.21	3426.25
813.39	3248.08
813.56	3059.67
813.73	3459.02
813.91	3186.64
814.08	3317.71
814.25	3207.12
814.42	2928.60
814.60	3330.00
814.77	3485.64
814.94	3039.19
815.12	3297.23
815.29	3794.89
815.46	3295.18
815.63	3196.88
815.81	3194.83
815.98	3366.86
816.15	3459.02
816.33	3295.18
816.50	3223.50
816.67	3438.54
816.84	3438.54
817.02	3082.19
817.19	3141.58
817.36	3471.31
817.53	3614.66
817.71	3168.21
817.88	3188.69
818.05	3428.30
818.22	3428.30
818.40	3397.58
818.57	3192.78
818.74	3477.45
818.91	3397.58
819.09	3381.20
819.26	3377.10
819.43	3332.05
819.60	3235.79
819.78	3416.01
819.95	3327.95
820.12	3217.36
820.29	3768.26
820.47	3516.36
820.64	3082.19
820.81	3241.93
820.98	3315.66
821.15	3196.88
821.33	3286.99
821.50	3106.77
821.67	3459.02
821.84	3110.86
822.02	3168.21
822.19	3549.13
822.36	3291.09
822.53	3215.31
822.70	3037.14
822.88	3381.20
823.05	3772.36
823.22	3297.23
823.39	3211.22
823.56	3373.00
823.74	3788.74
823.91	3008.47
824.08	3143.63
824.25	3276.75
824.42	3747.78
824.60	3033.04
824.77	3373.00
824.94	3373.00
825.11	3639.24
825.28	3033.04
825.45	3319.76
825.63	3481.55
825.80	3164.11
825.97	3295.18
826.14	3229.65
826.31	3129.30
826.48	3626.95
826.66	3188.69
826.83	3162.06
827.00	3379.15
827.17	3190.74
827.34	3241.93
827.51	3135.44
827.69	3385.29
827.86	3112.91
828.03	3262.41
828.20	3243.98
828.37	3289.04
828.54	3471.31
828.71	3145.68
828.89	3258.32
829.06	3469.26
829.23	3647.43
829.40	3252.17
829.57	3121.10
829.74	3518.41
829.91	3276.75
830.09	3090.38
830.26	3332.05
830.43	3745.73
830.60	3370.96
830.77	3289.04
830.94	3360.72
831.11	3563.47
831.28	3377.10
831.46	3352.52
831.63	3209.17
831.80	3596.23
831.97	3270.61
832.14	3235.79
832.31	3274.70
832.48	3434.44
832.65	3534.79
832.82	3317.71
832.99	3291.09
833.17	3190.74
833.34	3655.62
833.51	3123.15
833.68	2959.31
833.85	3739.59
834.02	3239.89
834.19	3205.07
834.36	3221.45
834.53	3469.26
834.70	3608.52
834.87	3192.78
835.04	2897.88
835.22	3229.65
835.39	3344.33
835.56	2963.41
835.73	3051.47
835.90	3735.50
836.07	3155.92
836.24	3117.01
836.41	3035.09
836.58	3319.76
836.75	3626.95
836.92	3049.43
837.09	2979.79
837.26	3624.90
837.43	3461.07
837.60	2971.60
837.77	3024.85
837.94	3637.19
838.12	3708.87
838.29	2904.02
838.46	2969.55
838.63	3196.88
838.80	3729.35
838.97	3127.25
839.14	3057.62
839.31	3485.64
839.48	3565.51
839.65	3086.29
839.82	3141.58
839.99	3469.26
840.16	3446.73
840.33	2959.31
840.50	3084.24
840.67	3248.08
840.84	2899.92
841.01	2885.59
841.18	2918.36
841.35	3459.02
841.52	3493.83
841.69	3330.00
841.86	3033.04
842.03	3356.62
842.20	3604.42
842.37	3041.23
842.54	3024.85
842.71	3555.27
842.88	3090.38
843.05	2992.08
843.22	3041.23
843.39	3540.94
843.56	3303.37
843.73	3053.52
843.90	3141.58
844.07	3381.20
844.24	3614.66
844.41	3147.73
844.58	3067.86
844.75	3442.64
844.92	3497.93
845.09	3045.33
845.26	3059.67
845.43	3530.70
845.60	3321.81
845.77	3137.49
845.94	3145.68
846.10	3602.38
846.27	3131.34
846.44	2951.12
846.61	2885.59
846.78	3526.60
846.95	3641.29
847.12	3022.80
847.29	3047.38
847.46	3243.98
847.63	3592.14
847.80	2916.31
847.97	3078.10
848.14	3968.96
848.31	3319.76
848.48	2889.68
848.65	2992.08
848.82	3330.00
848.98	4001.73
849.15	3092.43
849.32	3155.92
849.49	3669.96
849.66	3448.78
849.83	3028.95
850.00	2967.51
850.17	3569.61
850.34	3387.34
850.51	3008.47
850.68	3090.38
850.85	3868.61
851.01	3442.64
851.18	2944.98
851.35	3049.43
851.52	3479.50
851.69	3803.08
851.86	2967.51
852.03	3022.80
852.20	3635.14
852.37	3422.16
852.53	2926.55
852.70	2891.73
852.87	3516.36
853.04	3563.47
853.21	2940.88
853.38	3262.41
853.55	3745.73
853.72	3690.44
853.89	2873.30
854.05	2951.12
854.22	3444.68
854.39	3315.66
854.56	2985.94
854.73	3172.30
854.90	3227.60
855.07	3336.14
855.23	3000.27
855.40	2922.45
855.57	3364.81
855.74	3033.04
855.91	3215.31
856.08	2889.68
856.25	3135.44
856.41	3344.33
856.58	3028.95
856.75	3008.47
856.92	3276.75
857.09	3729.35
857.26	2760.66
857.42	3084.24
857.59	3667.91
857.76	3379.15
857.93	3000.27
858.10	3057.62
858.27	3205.07
858.43	3422.16
858.60	3082.19
858.77	2928.60
858.94	3231.69
859.11	3567.56
859.27	3104.72
859.44	2920.40
859.61	3827.65
859.78	3610.57
859.95	3022.80
860.12	2940.88
860.28	3925.96
860.45	3819.46
860.62	2961.36
860.79	3125.20
860.95	3342.28
861.12	3272.65
861.29	2885.59
861.46	3039.19
861.63	3360.72
861.79	3475.40
861.96	2822.10
862.13	2951.12
862.30	3712.97
862.47	3180.50
862.63	2932.69
862.80	3180.50
862.97	3618.76
863.14	3540.94
863.30	3049.43
863.47	3030.99
863.64	3794.89
863.81	3381.20
863.97	2951.12
864.14	3041.23
864.31	3405.77
864.48	3444.68
864.65	3026.90
864.81	3090.38
864.98	3528.65
865.15	3665.86
865.32	3090.38
865.48	3164.11
865.65	3762.12
865.82	3311.57
865.98	3147.73
866.15	3143.63
866.32	3397.58
866.49	3373.00
866.65	3157.97
866.82	3069.91
866.99	3409.87
867.16	3352.52
867.32	3020.75
867.49	2936.79
867.66	3395.53
867.83	3350.48
867.99	2944.98
868.16	3006.42
868.33	3143.63
868.49	3497.93
868.66	3084.24
868.83	3147.73
868.99	3381.20
869.16	3508.17
869.33	3209.17
869.50	3180.50
869.66	3420.11
869.83	3370.96
870.00	2947.03
870.16	3147.73
870.33	3444.68
870.50	3641.29
870.66	3080.14
870.83	3092.43
871.00	3485.64
871.17	3596.23
871.33	3090.38
871.50	2934.74
871.67	3332.05
871.83	3379.15
872.00	3090.38
872.17	3071.95
872.33	3909.57
872.50	3704.78
872.67	3049.43
872.83	2963.41
873.00	3452.88
873.17	3360.72
873.33	3133.39
873.50	3112.91
873.67	3278.80
873.83	3205.07
874.00	3035.09
874.16	3192.78
874.33	3430.35
874.50	3217.36
874.66	2965.46
874.83	3172.30
875.00	3635.14
875.16	3721.16
875.33	3069.91
875.50	2760.66
875.66	3289.04
875.83	3547.08
875.99	3080.14
876.16	3203.02
876.33	3207.12
876.49	3395.53
876.66	3110.86
876.83	3049.43
876.99	3065.81
877.16	3465.16
877.32	2965.46
877.49	3086.29
877.66	3459.02
877.82	3690.44
877.99	3200.98
878.15	3252.17
878.32	3532.75
878.49	3520.46
878.65	3082.19
878.82	3315.66
878.98	3340.24
879.15	3616.71
879.32	3231.69
879.48	3229.65
879.65	3334.09
879.81	3370.96
879.98	3045.33
880.15	3110.86
880.31	3553.23
880.48	3190.74
880.64	3078.10
880.81	3143.63
880.97	3766.21
881.14	3688.39
881.31	3018.71
881.47	3229.65
881.64	3338.19
881.80	3143.63
881.97	3250.13
882.13	3080.14
882.30	3229.65
882.47	3278.80
882.63	3041.23
882.80	2953.17
882.96	3321.81
883.13	3592.14
883.29	3061.71
883.46	3000.27
883.62	3903.43
883.79	3483.59
883.95	3184.59
884.12	3043.28
884.29	3649.48
884.45	3471.31
884.62	3063.76
884.78	3030.99
884.95	3770.31
885.11	3278.80
885.28	3090.38
885.44	3110.86
885.61	3508.17
885.77	3704.78
885.94	3215.31
886.10	3084.24
886.27	3551.18
886.43	3837.89
886.60	3278.80
886.76	2979.79
886.93	3270.61
887.09	3442.64
887.26	2924.50
887.42	3106.77
887.59	3717.06
887.75	4057.03
887.92	3256.27
888.08	3086.29
888.25	3885.00
888.41	3643.34
888.58	3155.92
888.74	2992.08
888.91	3381.20
>>>>>End Processed Spectral Data<<<<<
