SpectraSuite Data File
++++++++++++++++++++++++++++++++++++
Date: Fri May 06 09:29:04 CEST 2016
User: root
Dark Spectrum Present: No
Reference Spectrum Present: No
Number of Sampled Component Spectra: 1
Spectrometers: USB4C02835
Integration Time (usec): 100000 (USB4C02835)
Spectra Averaged: 1 (USB4C02835)
Boxcar Smoothing: 0 (USB4C02835)
Correct for Electrical Dark: No (USB4C02835)
Strobe/Lamp Enabled: No (USB4C02835)
Correct for Detector Non-linearity: No (USB4C02835)
Correct for Stray Light: No (USB4C02835)
Number of Pixels in Processed Spectrum: 3648
>>>>>Begin Processed Spectral Data<<<<<
177.47	2316.25
177.69	2316.25
177.91	2316.25
178.13	2328.54
178.36	2289.63
178.58	3155.92
178.80	3246.03
179.02	3160.02
179.24	3098.58
179.46	2848.72
179.68	2895.83
179.90	3416.01
180.13	3432.40
180.35	2770.90
180.57	2873.30
180.79	3588.04
181.01	3454.92
181.23	2979.79
181.45	3037.14
181.67	3635.14
181.90	3651.53
182.12	2996.18
182.34	2811.86
182.56	3573.71
182.78	3502.03
183.00	2967.51
183.22	2983.89
183.44	3069.91
183.66	4059.07
183.89	3182.54
184.11	2944.98
184.33	3534.79
184.55	3745.73
184.77	2928.60
184.99	3018.71
185.21	3348.43
185.43	3975.11
185.65	2981.84
185.87	2961.36
186.10	4005.83
186.32	4050.88
186.54	3086.29
186.76	3055.57
186.98	3610.57
187.20	3475.40
187.42	3000.27
187.64	2920.40
187.86	3559.37
188.08	3606.47
188.30	2869.20
188.52	3041.23
188.75	3788.74
188.97	3680.20
189.19	2940.88
189.41	2881.49
189.63	3483.59
189.85	3301.33
190.07	2809.81
190.29	2811.86
190.51	3547.08
190.73	3209.17
190.95	3145.68
191.17	2992.08
191.39	3184.59
191.61	3348.43
191.84	2973.65
192.06	3147.73
192.28	3074.00
192.50	4169.66
192.72	3196.88
192.94	3059.67
193.16	3655.62
193.38	3575.75
193.60	2867.16
193.82	3133.39
194.04	3721.16
194.26	3581.90
194.48	3074.00
194.70	2983.89
194.92	3289.04
195.14	3690.44
195.36	2936.79
195.58	3059.67
195.80	3411.92
196.02	3354.57
196.24	2936.79
196.46	3090.38
196.69	3358.67
196.91	4024.26
197.13	2957.27
197.35	2975.70
197.57	3860.42
197.79	3592.14
198.01	3069.91
198.23	2951.12
198.45	3573.71
198.67	3221.45
198.89	2811.86
199.11	3041.23
199.33	3246.03
199.55	3024.85
199.77	2973.65
199.99	3137.49
200.21	3342.28
200.43	3473.36
200.65	2797.53
200.87	2846.68
201.09	3540.94
201.31	3409.87
201.53	3055.57
201.75	3065.81
201.97	3452.88
202.19	3434.44
202.41	3090.38
202.63	3059.67
202.85	3579.85
203.07	3557.32
203.29	3049.43
203.51	2830.29
203.73	3309.52
203.95	4108.23
204.17	3002.32
204.39	3106.77
204.61	3385.29
204.83	3401.68
205.05	3203.02
205.27	2889.68
205.49	3966.92
205.71	3381.20
205.93	2791.38
206.15	2852.82
206.37	3409.87
206.59	3456.97
206.81	2803.67
207.03	2840.53
207.25	3205.07
207.47	3522.51
207.69	2971.60
207.91	3258.32
208.13	3868.61
208.34	3327.95
208.56	2975.70
208.78	2967.51
209.00	3401.68
209.22	3401.68
209.44	2959.31
209.66	2969.55
209.88	3444.68
210.10	3360.72
210.32	2904.02
210.54	3033.04
210.76	3325.90
210.98	3704.78
211.20	2832.34
211.42	3090.38
211.64	3762.12
211.86	3569.61
212.08	3074.00
212.30	2908.12
212.52	3385.29
212.74	3567.56
212.96	2994.13
213.17	3012.56
213.39	3688.39
213.61	3807.17
213.83	2924.50
214.05	2791.38
214.27	3674.06
214.49	3258.32
214.71	2895.83
214.93	3071.95
215.15	3379.15
215.37	3659.72
215.59	2836.44
215.81	2994.13
216.03	3803.08
216.24	3516.36
216.46	2961.36
216.68	3051.47
216.90	3547.08
217.12	3674.06
217.34	3018.71
217.56	3166.16
217.78	3684.30
218.00	3514.31
218.22	3082.19
218.44	3090.38
218.66	3528.65
218.87	3811.27
219.09	2998.23
219.31	2949.08
219.53	3510.22
219.75	3375.05
219.97	3033.04
220.19	2987.99
220.41	3481.55
220.63	3762.12
220.85	2985.94
221.06	2965.46
221.28	3696.58
221.50	3590.09
221.72	2947.03
221.94	2838.48
222.16	3481.55
222.38	3583.95
222.60	2977.75
222.82	2953.17
223.03	3663.82
223.25	3133.39
223.47	2975.70
223.69	3196.88
223.91	3522.51
224.13	3522.51
224.35	2820.05
224.57	3231.69
224.78	3608.52
225.00	3215.31
225.22	3104.72
225.44	2877.40
225.66	3590.09
225.88	3395.53
226.10	3205.07
226.32	2951.12
226.53	3772.36
226.75	3411.92
226.97	2985.94
227.19	2985.94
227.41	3243.98
227.63	3366.86
227.85	2748.37
228.06	3065.81
228.28	3526.60
228.50	3635.14
228.72	2770.90
228.94	2914.26
229.16	3069.91
229.37	3182.54
229.59	2967.51
229.81	3301.33
230.03	3346.38
230.25	3213.26
230.47	2781.14
230.69	2918.36
230.90	3667.91
231.12	3123.15
231.34	3053.52
231.56	3151.82
231.78	3291.09
232.00	3471.31
232.21	3082.19
232.43	3045.33
232.65	2965.46
232.87	3489.74
233.09	2863.06
233.30	2891.73
233.52	3559.37
233.74	3499.98
233.96	2942.93
234.18	3209.17
234.40	3475.40
234.61	4016.07
234.83	2777.05
235.05	2940.88
235.27	4063.17
235.49	3690.44
235.70	2856.92
235.92	2975.70
236.14	3657.67
236.36	3975.11
236.58	2818.00
236.79	3051.47
237.01	3424.20
237.23	3536.84
237.45	3180.50
237.67	3035.09
237.88	3540.94
238.10	3866.56
238.32	2895.83
238.54	2899.92
238.76	3463.12
238.97	3239.89
239.19	2813.91
239.41	2975.70
239.63	3803.08
239.85	3282.89
240.06	3065.81
240.28	2861.01
240.50	3698.63
240.72	3440.59
240.93	2926.55
241.15	3176.40
241.37	3489.74
241.59	3827.65
241.81	3030.99
242.02	3133.39
242.24	3442.64
242.46	3516.36
242.68	2770.90
242.89	2861.01
243.11	3643.34
243.33	3370.96
243.55	2959.31
243.76	2973.65
243.98	3254.22
244.20	3442.64
244.42	3016.66
244.64	2936.79
244.85	3223.50
245.07	3266.51
245.29	2955.22
245.51	3051.47
245.72	3479.50
245.94	3575.75
246.16	2947.03
246.38	2979.79
246.59	3342.28
246.81	3286.99
247.03	2883.54
247.24	2785.24
247.46	3336.14
247.68	3485.64
247.90	2934.74
248.11	2944.98
248.33	3545.03
248.55	3356.62
248.77	2977.75
248.98	3080.14
249.20	3829.70
249.42	3483.59
249.64	2908.12
249.85	2967.51
250.07	3330.00
250.29	3620.81
250.50	3076.05
250.72	2875.35
250.94	3491.79
251.16	3950.53
251.37	2975.70
251.59	3030.99
251.81	3585.99
252.02	3764.17
252.24	2873.30
252.46	3059.67
252.68	3299.28
252.89	3332.05
253.11	2852.82
253.33	3012.56
253.54	3770.31
253.76	3252.17
253.98	2922.45
254.20	2969.55
254.41	3114.96
254.63	3405.77
254.85	2852.82
255.06	3037.14
255.28	3590.09
255.50	3313.61
255.71	2918.36
255.93	2772.95
256.15	3336.14
256.36	3618.76
256.58	2824.15
256.80	2828.24
257.02	3469.26
257.23	3323.85
257.45	2983.89
257.67	3106.77
257.88	3315.66
258.10	3549.13
258.32	2914.26
258.53	3041.23
258.75	3829.70
258.97	3254.22
259.18	2836.44
259.40	2979.79
259.62	3813.32
259.83	3788.74
260.05	3006.42
260.27	3887.04
260.48	3692.49
260.70	3237.84
260.92	2799.57
261.13	3059.67
261.35	3508.17
261.57	3614.66
261.78	2811.86
262.00	2938.84
262.22	3540.94
262.43	3342.28
262.65	2963.41
262.86	2961.36
263.08	4112.32
263.30	3469.26
263.51	2824.15
263.73	2918.36
263.95	3721.16
264.16	3237.84
264.38	2869.20
264.60	2838.48
264.81	3446.73
265.03	3747.78
265.25	3409.87
265.46	2924.50
265.68	3723.21
265.89	3614.66
266.11	2865.11
266.33	2959.31
266.54	3704.78
266.76	3561.42
266.98	3110.86
267.19	3149.78
267.41	3694.54
267.62	3352.52
267.84	2822.10
268.06	3098.58
268.27	3549.13
268.49	3731.40
268.70	3022.80
268.92	3024.85
269.14	3246.03
269.35	3188.69
269.57	3106.77
269.79	3030.99
270.00	3301.33
270.22	3856.33
270.43	2891.73
270.65	2869.20
270.87	3452.88
271.08	3655.62
271.30	3149.78
271.51	2949.08
271.73	3538.89
271.95	3749.83
272.16	2920.40
272.38	3106.77
272.59	3420.11
272.81	3532.75
273.02	2918.36
273.24	3045.33
273.46	3708.87
273.67	3147.73
273.89	2879.44
274.10	2889.68
274.32	3706.82
274.54	3442.64
274.75	2990.03
274.97	3088.34
275.18	3612.62
275.40	3545.03
275.61	3045.33
275.83	3147.73
276.05	3248.08
276.26	3475.40
276.48	3020.75
276.69	3090.38
276.91	3258.32
277.12	3768.26
277.34	3166.16
277.55	3205.07
277.77	3499.98
277.99	3413.96
278.20	3106.77
278.42	2977.75
278.63	3315.66
278.85	3229.65
279.06	3127.25
279.28	3174.35
279.49	3688.39
279.71	3571.66
279.93	3110.86
280.14	3114.96
280.36	3221.45
280.57	3618.76
280.79	3182.54
281.00	2959.31
281.22	3336.14
281.43	3688.39
281.65	2920.40
281.86	2963.41
282.08	3577.80
282.29	3876.80
282.51	3024.85
282.73	3010.51
282.94	3151.82
283.16	3667.91
283.37	3151.82
283.59	3123.15
283.80	3467.21
284.02	3348.43
284.23	3125.20
284.45	3215.31
284.66	3084.24
284.88	3227.60
285.09	3020.75
285.31	3250.13
285.52	3536.84
285.74	3125.20
285.95	3346.38
286.17	3162.06
286.38	3708.87
286.60	3274.70
286.81	3041.23
287.03	2969.55
287.24	3379.15
287.46	3522.51
287.67	3203.02
287.89	3303.37
288.10	3442.64
288.32	3444.68
288.53	3172.30
288.75	3166.16
288.96	3549.13
289.18	3256.27
289.39	3010.51
289.61	3180.50
289.82	3858.37
290.04	3919.81
290.25	3008.47
290.47	3205.07
290.68	3446.73
290.90	3727.30
291.11	2803.67
291.33	3286.99
291.54	3319.76
291.76	3252.17
291.97	3168.21
292.18	3248.08
292.40	3368.91
292.61	3286.99
292.83	3364.81
293.04	3094.48
293.26	3469.26
293.47	3340.24
293.69	3053.52
293.90	3028.95
294.12	3602.38
294.33	3536.84
294.55	3145.68
294.76	3352.52
294.97	3717.06
295.19	3946.44
295.40	3041.23
295.62	3225.55
295.83	3530.70
296.05	3295.18
296.26	3473.36
296.48	3051.47
296.69	3436.49
296.90	3438.54
297.12	3180.50
297.33	3289.04
297.55	3469.26
297.76	3569.61
297.98	3205.07
298.19	3299.28
298.41	3397.58
298.62	3256.27
298.83	3262.41
299.05	3172.30
299.26	3327.95
299.48	3233.74
299.69	3211.22
299.90	3043.28
300.12	3299.28
300.33	3493.83
300.55	3127.25
300.76	3149.78
300.98	3248.08
301.19	3661.77
301.40	3078.10
301.62	3065.81
301.83	3684.30
302.05	3512.27
302.26	3106.77
302.47	3248.08
302.69	3264.46
302.90	3471.31
303.12	3020.75
303.33	3227.60
303.54	3911.62
303.76	3381.20
303.97	3043.28
304.19	3295.18
304.40	3237.84
304.61	3502.03
304.83	3178.45
305.04	3160.02
305.26	3553.23
305.47	3379.15
305.68	3094.48
305.90	2889.68
306.11	3753.93
306.33	3403.72
306.54	3043.28
306.75	3037.14
306.97	3133.39
307.18	3239.89
307.39	3069.91
307.61	3215.31
307.82	3469.26
308.04	3522.51
308.25	2994.13
308.46	3254.22
308.68	3397.58
308.89	3420.11
309.10	3145.68
309.32	3155.92
309.53	3469.26
309.74	3626.95
309.96	2959.31
310.17	3237.84
310.39	3354.57
310.60	3602.38
310.81	3114.96
311.03	3065.81
311.24	3604.42
311.45	3393.48
311.67	3344.33
311.88	3162.06
312.09	3307.47
312.31	3346.38
312.52	3020.75
312.73	3074.00
312.95	3207.12
313.16	3237.84
313.37	3289.04
313.59	3297.23
313.80	3633.10
314.01	3661.77
314.23	3137.49
314.44	2992.08
314.65	3147.73
314.87	3270.61
315.08	3043.28
315.29	3110.86
315.51	3178.45
315.72	3092.43
315.93	3147.73
316.15	3123.15
316.36	3358.67
316.57	3491.79
316.79	3090.38
317.00	3098.58
317.21	3665.86
317.43	3215.31
317.64	3178.45
317.85	3016.66
318.07	3280.85
318.28	3422.16
318.49	3262.41
318.70	3248.08
318.92	3469.26
319.13	3532.75
319.34	3233.74
319.56	3100.62
319.77	3520.46
319.98	3626.95
320.20	3370.96
320.41	3205.07
320.62	3479.50
320.83	3198.93
321.05	3237.84
321.26	3117.01
321.47	3497.93
321.69	3680.20
321.90	3037.14
322.11	3074.00
322.32	3481.55
322.54	3778.50
322.75	3164.11
322.96	4138.94
323.18	3123.15
323.39	3008.47
323.60	2944.98
323.81	3190.74
324.03	3368.91
324.24	3510.22
324.45	3250.13
324.66	3016.66
324.88	3624.90
325.09	3876.80
325.30	3008.47
325.52	3043.28
325.73	3606.47
325.94	3356.62
326.15	2934.74
326.37	2959.31
326.58	3608.52
326.79	3866.56
327.00	3053.52
327.22	3098.58
327.43	3389.39
327.64	3295.18
327.85	3243.98
328.07	3084.24
328.28	3948.48
328.49	3397.58
328.70	3141.58
328.92	3061.71
329.13	3348.43
329.34	3557.32
329.55	3356.62
329.76	3198.93
329.98	3391.44
330.19	3661.77
330.40	3196.88
330.61	3219.41
330.83	3553.23
331.04	3270.61
331.25	3217.36
331.46	3190.74
331.68	3194.83
331.89	3633.10
332.10	3147.73
332.31	2977.75
332.52	3502.03
332.74	3698.63
332.95	2918.36
333.16	3063.76
333.37	3641.29
333.58	3319.76
333.80	3104.72
334.01	2877.40
334.22	3430.35
334.43	3307.47
334.64	3090.38
334.86	3108.82
335.07	3319.76
335.28	3751.88
335.49	3074.00
335.70	3121.10
335.92	3782.60
336.13	3991.49
336.34	3106.77
336.55	3069.91
336.76	3573.71
336.98	2975.70
337.19	3057.62
337.40	3188.69
337.61	4011.97
337.82	3467.21
338.04	3200.98
338.25	2901.97
338.46	3330.00
338.67	3356.62
338.88	3100.62
339.09	3010.51
339.31	3299.28
339.52	3209.17
339.73	3043.28
339.94	3160.02
340.15	3645.38
340.36	3280.85
340.58	3221.45
340.79	3037.14
341.00	3547.08
341.21	3162.06
341.42	3373.00
341.63	3100.62
341.85	3672.01
342.06	3489.74
342.27	2981.84
342.48	3217.36
342.69	3221.45
342.90	3508.17
343.12	3592.14
343.33	2979.79
343.54	3639.24
343.75	3831.75
343.96	3155.92
344.17	3045.33
344.38	3413.96
344.60	3278.80
344.81	2987.99
345.02	3188.69
345.23	3704.78
345.44	4011.97
345.65	3252.17
345.86	3209.17
346.07	3577.80
346.29	3325.90
346.50	3303.37
346.71	3176.40
346.92	3721.16
347.13	3997.64
347.34	3186.64
347.55	2983.89
347.76	3463.12
347.98	3141.58
348.19	3166.16
348.40	3194.83
348.61	3284.94
348.82	3727.30
349.03	3250.13
349.24	2969.55
349.45	3850.18
349.66	2987.99
349.88	3045.33
350.09	3026.90
350.30	3755.97
350.51	3704.78
350.72	3317.71
350.93	3041.23
351.14	3397.58
351.35	3489.74
351.56	3157.97
351.77	3213.26
351.99	3534.79
352.20	3704.78
352.41	3274.70
352.62	2934.74
352.83	3440.59
353.04	3471.31
353.25	3203.02
353.46	3160.02
353.67	3649.48
353.88	3074.00
354.09	3018.71
354.30	3203.02
354.52	3551.18
354.73	3411.92
354.94	3016.66
355.15	3180.50
355.36	3897.28
355.57	3248.08
355.78	3053.52
355.99	3067.86
356.20	3432.40
356.41	3782.60
356.62	3254.22
356.83	3196.88
357.04	3745.73
357.25	3065.81
357.46	2975.70
357.68	2975.70
357.89	3278.80
358.10	3411.92
358.31	3137.49
358.52	3092.43
358.73	3233.74
358.94	3207.12
359.15	3051.47
359.36	3125.20
359.57	3434.44
359.78	3420.11
359.99	3309.52
360.20	2969.55
360.41	3459.02
360.62	3549.13
360.83	3176.40
361.04	3155.92
361.25	3551.18
361.46	3760.07
361.67	3270.61
361.88	3131.34
362.09	3637.19
362.30	3483.59
362.51	3002.32
362.72	3129.30
362.93	3674.06
363.14	3465.16
363.35	3114.96
363.56	3020.75
363.78	3647.43
363.99	3557.32
364.20	3061.71
364.41	3237.84
364.62	3829.70
364.83	3526.60
365.04	3123.15
365.25	3131.34
365.46	3938.24
365.67	3270.61
365.88	3313.61
366.09	3164.11
366.30	3336.14
366.51	3524.55
366.72	3002.32
366.93	3057.62
367.14	3489.74
367.35	3794.89
367.56	3061.71
367.77	3237.84
367.98	3405.77
368.18	3583.95
368.39	3233.74
368.60	3092.43
368.81	3485.64
369.02	3485.64
369.23	3182.54
369.44	3012.56
369.65	3373.00
369.86	3540.94
370.07	3291.09
370.28	3022.80
370.49	3569.61
370.70	3411.92
370.91	3014.61
371.12	2975.70
371.33	3680.20
371.54	3291.09
371.75	3229.65
371.96	2762.71
372.17	3485.64
372.38	3381.20
372.59	3194.83
372.80	3047.38
373.01	3432.40
373.22	3502.03
373.43	3114.96
373.64	2944.98
373.85	3778.50
374.06	3844.04
374.26	3278.80
374.47	3260.37
374.68	3721.16
374.89	3446.73
375.10	3112.91
375.31	3235.79
375.52	3420.11
375.73	3452.88
375.94	2961.36
376.15	3147.73
376.36	3250.13
376.57	3381.20
376.78	3112.91
376.99	3114.96
377.20	3741.64
377.40	3305.42
377.61	3387.34
377.82	3094.48
378.03	3708.87
378.24	3712.97
378.45	3174.35
378.66	3188.69
378.87	3149.78
379.08	3157.97
379.29	3145.68
379.50	3313.61
379.71	3358.67
379.91	3680.20
380.12	3086.29
380.33	3223.50
380.54	3459.02
380.75	3403.72
380.96	3155.92
381.17	3149.78
381.38	3393.48
381.59	3459.02
381.80	3190.74
382.00	3286.99
382.21	3422.16
382.42	3725.26
382.63	3463.12
382.84	3237.84
383.05	3633.10
383.26	3755.97
383.47	3229.65
383.68	3055.57
383.88	3602.38
384.09	3426.25
384.30	3327.95
384.51	3176.40
384.72	3330.00
384.93	3176.40
385.14	3225.55
385.35	3456.97
385.55	3049.43
385.76	3678.15
385.97	3090.38
386.18	2983.89
386.39	3262.41
386.60	3289.04
386.81	3133.39
387.02	2998.23
387.22	3160.02
387.43	3559.37
387.64	3213.26
387.85	3330.00
388.06	3373.00
388.27	4360.13
388.48	7255.95
388.68	11026.26
388.89	13549.36
389.10	14837.53
389.31	14290.73
389.52	11642.70
389.73	10137.45
389.93	9406.32
390.14	8451.97
390.35	7866.25
390.56	7514.00
390.77	6293.41
390.98	4687.80
391.18	4110.27
391.39	3975.11
391.60	3387.34
391.81	3426.25
392.02	3139.54
392.23	3975.11
392.43	3477.45
392.64	3086.29
392.85	3313.61
393.06	3807.17
393.27	3502.03
393.47	3114.96
393.68	3203.02
393.89	3334.09
394.10	3663.82
394.31	3153.87
394.52	3076.05
394.72	3227.60
394.93	3837.89
395.14	2987.99
395.35	3286.99
395.56	3327.95
395.76	3385.29
395.97	3127.25
396.18	3284.94
396.39	3350.48
396.60	4128.70
396.80	3483.59
397.01	3362.76
397.22	3514.31
397.43	3596.23
397.64	3098.58
397.84	3180.50
398.05	3831.75
398.26	3358.67
398.47	3297.23
398.67	3327.95
398.88	3487.69
399.09	3659.72
399.30	3102.67
399.51	3180.50
399.71	3315.66
399.92	3413.96
400.13	3174.35
400.34	3166.16
400.54	3438.54
400.75	3764.17
400.96	3172.30
401.17	3450.83
401.37	3590.09
401.58	3373.00
401.79	3149.78
402.00	3295.18
402.21	3936.20
402.41	3508.17
402.62	3528.65
402.83	3598.28
403.04	3776.45
403.24	4212.67
403.45	3246.03
403.66	3411.92
403.87	3610.57
404.07	3762.12
404.28	3389.39
404.49	3446.73
404.70	3545.03
404.90	3624.90
405.11	3205.07
405.32	3286.99
405.52	3323.85
405.73	3256.27
405.94	3063.76
406.15	3332.05
406.35	3637.19
406.56	3657.67
406.77	3147.73
406.98	3155.92
407.18	3301.33
407.39	3860.42
407.60	3143.63
407.80	3190.74
408.01	3430.35
408.22	3608.52
408.43	3008.47
408.63	3295.18
408.84	3704.78
409.05	3659.72
409.25	3082.19
409.46	3184.59
409.67	3309.52
409.88	3272.65
410.08	3108.82
410.29	3180.50
410.50	3647.43
410.70	3585.99
410.91	3098.58
411.12	3198.93
411.32	3405.77
411.53	3270.61
411.74	3114.96
411.95	3174.35
412.15	3459.02
412.36	3530.70
412.57	3278.80
412.77	3321.81
412.98	3434.44
413.19	3418.06
413.39	3246.03
413.60	3198.93
413.81	3790.79
414.01	3327.95
414.22	3213.26
414.43	3313.61
414.63	3301.33
414.84	3633.10
415.05	3286.99
415.25	3026.90
415.46	3588.04
415.67	3358.67
415.87	3184.59
416.08	3100.62
416.29	3379.15
416.49	3516.36
416.70	3207.12
416.91	3203.02
417.11	3411.92
417.32	3659.72
417.53	3256.27
417.73	3313.61
417.94	3473.36
418.15	3493.83
418.35	3162.06
418.56	3149.78
418.77	4030.40
418.97	3469.26
419.18	3303.37
419.38	2824.15
419.59	3532.75
419.80	3745.73
420.00	3084.24
420.21	3143.63
420.42	3790.79
420.62	3528.65
420.83	3178.45
421.04	3172.30
421.24	3459.02
421.45	3573.71
421.65	3131.34
421.86	3235.79
422.07	3700.68
422.27	3618.76
422.48	3082.19
422.69	2938.84
422.89	3416.01
423.10	3383.24
423.30	3047.38
423.51	3186.64
423.72	3565.51
423.92	3682.25
424.13	3041.23
424.33	3317.71
424.54	3606.47
424.75	3530.70
424.95	3344.33
425.16	3098.58
425.36	3399.63
425.57	3723.21
425.78	3354.57
425.98	3229.65
426.19	3479.50
426.39	3373.00
426.60	3340.24
426.81	3307.47
427.01	3577.80
427.22	3258.32
427.42	2971.60
427.63	3129.30
427.83	3639.24
428.04	3868.61
428.25	3229.65
428.45	3241.93
428.66	3672.01
428.86	3325.90
429.07	3168.21
429.28	3223.50
429.48	3401.68
429.69	3297.23
429.89	3268.56
430.10	3125.20
430.30	3549.13
430.51	3649.48
430.71	3094.48
430.92	3180.50
431.13	3319.76
431.33	3561.42
431.54	3272.65
431.74	3305.42
431.95	4005.83
432.15	3262.41
432.36	3135.44
432.56	3164.11
432.77	3930.05
432.98	3887.04
433.18	3289.04
433.39	3084.24
433.59	3428.30
433.80	3958.72
434.00	3200.98
434.21	3317.71
434.41	3336.14
434.62	3958.72
434.82	3033.04
435.03	3002.32
435.23	3493.83
435.44	3020.75
435.64	3059.67
435.85	3200.98
436.06	3641.29
436.26	3618.76
436.47	3147.73
436.67	3227.60
436.88	3385.29
437.08	3737.54
437.29	3262.41
437.49	3342.28
437.70	3733.45
437.90	3479.50
438.11	3338.19
438.31	3254.22
438.52	3706.82
438.72	3665.86
438.93	3499.98
439.13	3268.56
439.34	3590.09
439.54	3327.95
439.75	3334.09
439.95	3241.93
440.16	3231.69
440.36	3428.30
440.57	3172.30
440.77	3090.38
440.98	3561.42
441.18	3545.03
441.39	3065.81
441.59	3037.14
441.80	4007.87
442.00	3463.12
442.21	3250.13
442.41	3045.33
442.62	3739.59
442.82	3319.76
443.02	3200.98
443.23	3174.35
443.43	3379.15
443.64	3745.73
443.84	2981.84
444.05	3241.93
444.25	3420.11
444.46	3420.11
444.66	3094.48
444.87	3389.39
445.07	3047.38
445.28	3428.30
445.48	3319.76
445.69	3286.99
445.89	3958.72
446.09	3387.34
446.30	3467.21
446.50	3444.68
446.71	4958.13
446.91	6006.69
447.12	6752.15
447.32	7292.82
447.53	7384.98
447.73	6158.24
447.93	5392.30
448.14	5167.03
448.34	5384.11
448.55	4474.81
448.75	4392.89
448.96	4155.33
449.16	4192.19
449.36	4081.60
449.57	3444.68
449.77	3125.20
449.98	3383.24
450.18	3545.03
450.39	3094.48
450.59	3336.14
450.79	3405.77
451.00	3250.13
451.20	3418.06
451.41	3176.40
451.61	3518.41
451.81	3461.07
452.02	3078.10
452.22	3182.54
452.43	3305.42
452.63	3215.31
452.84	3262.41
453.04	3065.81
453.24	3463.12
453.45	3311.57
453.65	3186.64
453.86	3174.35
454.06	3459.02
454.26	3499.98
454.47	3090.38
454.67	3375.05
454.87	3522.51
455.08	3325.90
455.28	3286.99
455.49	3379.15
455.69	3219.41
455.89	3923.91
456.10	3211.22
456.30	3112.91
456.51	3592.14
456.71	3559.37
456.91	3305.42
457.12	3168.21
457.32	3547.08
457.52	3164.11
457.73	3401.68
457.93	3385.29
458.14	3274.70
458.34	3065.81
458.54	3155.92
458.75	3135.44
458.95	3684.30
459.15	3516.36
459.36	3229.65
459.56	3198.93
459.76	4003.78
459.97	3542.99
460.17	3094.48
460.37	3237.84
460.58	3555.27
460.78	3643.34
460.99	3215.31
461.19	3196.88
461.39	3309.52
461.60	3420.11
461.80	3286.99
462.00	3102.67
462.21	3442.64
462.41	3264.46
462.61	3000.27
462.82	2910.16
463.02	3581.90
463.22	3465.16
463.43	3225.55
463.63	3174.35
463.83	3794.89
464.04	3600.33
464.24	3074.00
464.44	3190.74
464.64	3569.61
464.85	3528.65
465.05	3164.11
465.25	3114.96
465.46	3227.60
465.66	3583.95
465.86	3268.56
466.07	3129.30
466.27	3356.62
466.47	3090.38
466.68	3067.86
466.88	3217.36
467.08	3612.62
467.29	3737.54
467.49	3168.21
467.69	3340.24
467.89	3567.56
468.10	3420.11
468.30	3282.89
468.50	3313.61
468.71	3516.36
468.91	3123.15
469.11	3352.52
469.31	3237.84
469.52	3229.65
469.72	3758.02
469.92	3442.64
470.13	3141.58
470.33	3438.54
470.53	3540.94
470.73	3553.23
470.94	3915.72
471.14	4059.07
471.34	4548.54
471.54	4253.63
471.75	3796.93
471.95	3811.27
472.15	3786.69
472.36	3659.72
472.56	3600.33
472.76	3944.39
472.96	3753.93
473.17	3403.72
473.37	3262.41
473.57	3364.81
473.77	3532.75
473.98	3243.98
474.18	3016.66
474.38	4167.62
474.58	3278.80
474.79	2969.55
474.99	3264.46
475.19	3706.82
475.39	3160.02
475.60	3311.57
475.80	3151.82
476.00	3493.83
476.20	3346.38
476.41	3278.80
476.61	3221.45
476.81	3782.60
477.01	3250.13
477.21	3467.21
477.42	3270.61
477.62	3192.78
477.82	3604.42
478.02	3155.92
478.23	3192.78
478.43	3248.08
478.63	3362.76
478.83	3194.83
479.03	3205.07
479.24	3739.59
479.44	3885.00
479.64	3090.38
479.84	3067.86
480.04	3274.70
480.25	3549.13
480.45	3033.04
480.65	3094.48
480.85	3813.32
481.06	3207.12
481.26	3305.42
481.46	3090.38
481.66	3557.32
481.86	3313.61
482.06	3342.28
482.27	3246.03
482.47	3424.20
482.67	3549.13
482.87	3174.35
483.07	3237.84
483.28	3317.71
483.48	3250.13
483.68	3149.78
483.88	3153.87
484.08	2977.75
484.29	3166.16
484.49	3278.80
484.69	2992.08
484.89	3704.78
485.09	3583.95
485.29	3217.36
485.50	3284.94
485.70	3330.00
485.90	3723.21
486.10	3235.79
486.30	3151.82
486.50	3702.73
486.71	3545.03
486.91	3217.36
487.11	3278.80
487.31	3114.96
487.51	3600.33
487.71	3110.86
487.91	3127.25
488.12	3184.59
488.32	2893.78
488.52	3258.32
488.72	2969.55
488.92	3475.40
489.12	3729.35
489.32	3260.37
489.53	3131.34
489.73	3078.10
489.93	3844.04
490.13	3137.49
490.33	2987.99
490.53	3448.78
490.73	3602.38
490.94	2990.03
491.14	3325.90
491.34	3620.81
491.54	3551.18
491.74	3979.20
491.94	4456.38
492.14	5099.44
492.34	5107.63
492.54	4755.38
492.75	4151.23
492.95	4464.57
493.15	4163.52
493.35	3858.37
493.55	3801.03
493.75	3803.08
493.95	4009.92
494.15	3416.01
494.35	3266.51
494.56	3413.96
494.76	3418.06
494.96	3418.06
495.16	3119.06
495.36	3399.63
495.56	3430.35
495.76	3203.02
495.96	3090.38
496.16	3237.84
496.36	3891.14
496.56	3117.01
496.77	3123.15
496.97	3430.35
497.17	3696.58
497.37	3008.47
497.57	3387.34
497.77	3469.26
497.97	3223.50
498.17	3258.32
498.37	3098.58
498.57	3610.57
498.77	3336.14
498.97	3330.00
499.17	3545.03
499.38	3411.92
499.58	3559.37
499.78	3336.14
499.98	3344.33
500.18	3448.78
500.38	3207.12
500.58	3397.58
500.78	3702.73
500.98	6051.75
501.18	7610.25
501.38	9090.93
501.58	9940.84
501.78	9998.18
501.98	8238.98
502.18	7073.68
502.38	6207.39
502.58	6186.91
502.78	5574.57
502.98	5218.22
503.18	5007.28
503.38	4695.99
503.59	4087.75
503.79	4032.45
503.99	3704.78
504.19	3946.44
504.39	3966.92
504.59	3653.58
504.79	3454.92
504.99	4083.65
505.19	3614.66
505.39	3325.90
505.59	3538.89
505.79	3784.65
505.99	3631.05
506.19	3157.97
506.39	3362.76
506.59	3260.37
506.79	3336.14
506.99	3311.57
507.19	3145.68
507.39	3520.46
507.59	3139.54
507.79	3180.50
507.99	3135.44
508.19	3358.67
508.39	3352.52
508.59	3117.01
508.79	3280.85
508.99	3901.38
509.19	3282.89
509.39	3119.06
509.59	3112.91
509.79	3305.42
509.99	3475.40
510.19	3297.23
510.39	3278.80
510.59	3602.38
510.79	3274.70
510.99	3082.19
511.19	3063.76
511.39	3819.46
511.59	3676.10
511.79	3413.96
511.99	3137.49
512.19	3751.88
512.38	3506.12
512.58	3110.86
512.78	3067.86
512.98	3770.31
513.18	3827.65
513.38	3035.09
513.58	3256.27
513.78	3473.36
513.98	3393.48
514.18	3172.30
514.38	3215.31
514.58	3538.89
514.78	3362.76
514.98	3067.86
515.18	3260.37
515.38	3151.82
515.58	3739.59
515.78	3096.53
515.98	3262.41
516.18	3512.27
516.38	3477.45
516.57	3090.38
516.77	3127.25
516.97	3581.90
517.17	3305.42
517.37	2951.12
517.57	3147.73
517.77	3485.64
517.97	3211.22
518.17	3211.22
518.37	3082.19
518.57	3315.66
518.77	3399.63
518.97	3131.34
519.16	3243.98
519.36	3696.58
519.56	3215.31
519.76	3131.34
519.96	3188.69
520.16	3764.17
520.36	3145.68
520.56	3385.29
520.76	3084.24
520.96	3381.20
521.16	3676.10
521.35	3379.15
521.55	3282.89
521.75	3438.54
521.95	3338.19
522.15	3074.00
522.35	3092.43
522.55	3313.61
522.75	3622.86
522.95	3033.04
523.14	2942.93
523.34	3454.92
523.54	3262.41
523.74	3215.31
523.94	3266.51
524.14	3123.15
524.34	3473.36
524.54	3286.99
524.73	3108.82
524.93	3569.61
525.13	3450.83
525.33	3063.76
525.53	3432.40
525.73	3602.38
525.93	3444.68
526.13	3198.93
526.32	3092.43
526.52	3626.95
526.72	3706.82
526.92	3180.50
527.12	3131.34
527.32	3112.91
527.52	3573.71
527.71	3256.27
527.91	3133.39
528.11	3381.20
528.31	3346.38
528.51	3188.69
528.71	3319.76
528.90	3592.14
529.10	3753.93
529.30	3184.59
529.50	2992.08
529.70	3483.59
529.90	3336.14
530.09	3174.35
530.29	2963.41
530.49	3358.67
530.69	4048.83
530.89	3274.70
531.09	3330.00
531.28	3348.43
531.48	3688.39
531.68	3127.25
531.88	3162.06
532.08	3622.86
532.28	3407.82
532.47	3266.51
532.67	3278.80
532.87	3514.31
533.07	3270.61
533.27	3178.45
533.46	3258.32
533.66	3487.69
533.86	3440.59
534.06	3241.93
534.26	3114.96
534.45	3319.76
534.65	3577.80
534.85	3336.14
535.05	3080.14
535.25	3563.47
535.44	3059.67
535.64	3272.65
535.84	3174.35
536.04	3223.50
536.24	3454.92
536.43	3096.53
536.63	3166.16
536.83	3377.10
537.03	3483.59
537.22	3057.62
537.42	2926.55
537.62	3536.84
537.82	3319.76
538.02	3368.91
538.21	3207.12
538.41	4044.74
538.61	3559.37
538.81	3243.98
539.00	3262.41
539.20	3022.80
539.40	3303.37
539.60	3049.43
539.79	3389.39
539.99	3426.25
540.19	3286.99
540.39	3108.82
540.58	3241.93
540.78	3663.82
540.98	3493.83
541.18	3418.06
541.37	3143.63
541.57	3491.79
541.77	3581.90
541.97	3053.52
542.16	3090.38
542.36	3356.62
542.56	3344.33
542.76	3344.33
542.95	3166.16
543.15	3534.79
543.35	3575.75
543.54	3153.87
543.74	3114.96
543.94	3749.83
544.14	3295.18
544.33	3366.86
544.53	3162.06
544.73	3319.76
544.93	3315.66
545.12	3090.38
545.32	3147.73
545.52	3395.53
545.71	3209.17
545.91	3067.86
546.11	3094.48
546.30	3194.83
546.50	3485.64
546.70	3268.56
546.90	3176.40
547.09	2992.08
547.29	3366.86
547.49	3334.09
547.68	3229.65
547.88	3352.52
548.08	3655.62
548.27	3450.83
548.47	3147.73
548.67	3350.48
548.87	3629.00
549.06	3096.53
549.26	3082.19
549.46	3571.66
549.65	3176.40
549.85	3241.93
550.05	3229.65
550.24	3176.40
550.44	3436.49
550.64	3221.45
550.83	3258.32
551.03	3766.21
551.23	3555.27
551.42	3268.56
551.62	3258.32
551.82	3461.07
552.01	3350.48
552.21	3571.66
552.41	3286.99
552.60	3755.97
552.80	3411.92
553.00	3055.57
553.19	3182.54
553.39	3792.84
553.59	3205.07
553.78	3373.00
553.98	3112.91
554.17	3233.74
554.37	3504.07
554.57	3254.22
554.76	3057.62
554.96	3289.04
555.16	3463.12
555.35	3239.89
555.55	3379.15
555.75	3536.84
555.94	3467.21
556.14	3010.51
556.33	3133.39
556.53	3459.02
556.73	3413.96
556.92	3133.39
557.12	3082.19
557.32	3928.00
557.51	3696.58
557.71	3237.84
557.90	3373.00
558.10	3770.31
558.30	3483.59
558.49	3217.36
558.69	3147.73
558.88	3581.90
559.08	3450.83
559.28	3215.31
559.47	3217.36
559.67	3641.29
559.86	3831.75
560.06	3114.96
560.26	3110.86
560.45	3608.52
560.65	3364.81
560.84	3536.84
561.04	3100.62
561.24	3440.59
561.43	3252.17
561.63	3407.82
561.82	3325.90
562.02	3577.80
562.22	3289.04
562.41	3069.91
562.61	3168.21
562.80	3221.45
563.00	4067.27
563.19	3315.66
563.39	3246.03
563.59	3549.13
563.78	3209.17
563.98	2944.98
564.17	3229.65
564.37	3065.81
564.56	3352.52
564.76	3149.78
564.96	3221.45
565.15	3518.41
565.35	3940.29
565.54	3176.40
565.74	3141.58
565.93	3512.27
566.13	3426.25
566.32	3258.32
566.52	3309.52
566.71	3377.10
566.91	3610.57
567.11	3323.85
567.30	3065.81
567.50	3536.84
567.69	3540.94
567.89	3147.73
568.08	3030.99
568.28	3561.42
568.47	3164.11
568.67	3155.92
568.86	3176.40
569.06	3592.14
569.25	3350.48
569.45	3065.81
569.64	3160.02
569.84	3370.96
570.04	3491.79
570.23	3176.40
570.43	3250.13
570.62	3444.68
570.82	3753.93
571.01	3057.62
571.21	3104.72
571.40	3241.93
571.60	3592.14
571.79	3231.69
571.99	3221.45
572.18	3190.74
572.38	3473.36
572.57	3178.45
572.77	3223.50
572.96	3993.54
573.16	3504.07
573.35	3211.22
573.55	3276.75
573.74	3473.36
573.94	3377.10
574.13	3114.96
574.33	3405.77
574.52	3774.41
574.71	3463.12
574.91	3229.65
575.10	3100.62
575.30	3319.76
575.49	3231.69
575.69	3041.23
575.88	3127.25
576.08	3426.25
576.27	3614.66
576.47	3088.34
576.66	3350.48
576.86	3770.31
577.05	3477.45
577.25	3121.10
577.44	3397.58
577.64	3323.85
577.83	3635.14
578.02	3125.20
578.22	3278.80
578.41	3885.00
578.61	3340.24
578.80	3078.10
579.00	3229.65
579.19	3403.72
579.39	3493.83
579.58	3276.75
579.77	3237.84
579.97	3680.20
580.16	3680.20
580.36	3313.61
580.55	3194.83
580.75	3575.75
580.94	3436.49
581.13	3370.96
581.33	3502.03
581.52	3385.29
581.72	3858.37
581.91	3260.37
582.11	3112.91
582.30	3643.34
582.49	3475.40
582.69	3499.98
582.88	3176.40
583.08	3411.92
583.27	3614.66
583.47	3330.00
583.66	3192.78
583.85	3305.42
584.05	3438.54
584.24	3405.77
584.44	3184.59
584.63	3573.71
584.82	3758.02
585.02	3407.82
585.21	3303.37
585.41	3579.85
585.60	3364.81
585.79	3475.40
585.99	3475.40
586.18	3407.82
586.37	4448.19
586.57	6645.66
586.76	18499.30
586.96	36920.78
587.15	49511.69
587.34	57240.73
587.54	60861.54
587.73	53656.78
587.93	38393.27
588.12	29668.92
588.31	24659.59
588.51	21866.16
588.70	20289.23
588.89	17848.05
589.09	15011.61
589.28	13236.02
589.47	10307.43
589.67	7829.38
589.86	6068.13
590.06	4900.79
590.25	4491.20
590.44	3887.04
590.64	3567.56
590.83	3569.61
591.02	3696.58
591.22	3100.62
591.41	3299.28
591.60	3383.24
591.80	3968.96
591.99	3033.04
592.18	3172.30
592.38	3661.77
592.57	3387.34
592.76	3266.51
592.96	3340.24
593.15	3452.88
593.34	3659.72
593.54	3129.30
593.73	3291.09
593.92	3641.29
594.12	3549.13
594.31	3303.37
594.50	3340.24
594.70	3540.94
594.89	4097.99
595.08	3096.53
595.28	3286.99
595.47	4063.17
595.66	3577.80
595.86	3096.53
596.05	3127.25
596.24	3321.81
596.43	3856.33
596.63	3256.27
596.82	3348.43
597.01	3672.01
597.21	3809.22
597.40	3123.15
597.59	3211.22
597.79	3489.74
597.98	3563.47
598.17	3293.13
598.36	3268.56
598.56	3682.25
598.75	3327.95
598.94	3264.46
599.14	3182.54
599.33	3323.85
599.52	3590.09
599.71	3254.22
599.91	3155.92
600.10	3553.23
600.29	3508.17
600.48	3213.26
600.68	3295.18
600.87	3536.84
601.06	3280.85
601.26	3385.29
601.45	3289.04
601.64	3387.34
601.83	3837.89
602.03	3139.54
602.22	3203.02
602.41	3717.06
602.60	4040.64
602.80	3254.22
602.99	3383.24
603.18	3307.47
603.37	3508.17
603.57	3002.32
603.76	3172.30
603.95	3719.11
604.14	3409.87
604.34	3053.52
604.53	3133.39
604.72	3477.45
604.91	3590.09
605.10	3147.73
605.30	3047.38
605.49	3827.65
605.68	3569.61
605.87	3178.45
606.07	3129.30
606.26	3446.73
606.45	3573.71
606.64	3143.63
606.84	3074.00
607.03	3450.83
607.22	3622.86
607.41	3248.08
607.60	3174.35
607.80	3581.90
607.99	3418.06
608.18	3248.08
608.37	3170.26
608.56	3317.71
608.76	3663.82
608.95	3336.14
609.14	3098.58
609.33	3643.34
609.52	3755.97
609.72	3266.51
609.91	3358.67
610.10	3497.93
610.29	3819.46
610.48	3330.00
610.68	3280.85
610.87	3389.39
611.06	3585.99
611.25	3268.56
611.44	3299.28
611.63	3385.29
611.83	3725.26
612.02	3110.86
612.21	3272.65
612.40	2969.55
612.59	3231.69
612.79	3135.44
612.98	3155.92
613.17	3938.24
613.36	3370.96
613.55	3311.57
613.74	3080.14
613.93	3370.96
614.13	3452.88
614.32	3334.09
614.51	3205.07
614.70	3442.64
614.89	3336.14
615.08	3280.85
615.28	3495.88
615.47	3088.34
615.66	3524.55
615.85	3209.17
616.04	3248.08
616.23	3592.14
616.42	3442.64
616.62	3180.50
616.81	3192.78
617.00	3518.41
617.19	3487.69
617.38	3205.07
617.57	3291.09
617.76	3639.24
617.95	3592.14
618.15	3336.14
618.34	3389.39
618.53	3178.45
618.72	3676.10
618.91	3262.41
619.10	3289.04
619.29	3481.55
619.48	3497.93
619.68	3043.28
619.87	3157.97
620.06	3098.58
620.25	3532.75
620.44	3160.02
620.63	3157.97
620.82	3420.11
621.01	3475.40
621.20	3168.21
621.39	3323.85
621.59	3485.64
621.78	3413.96
621.97	3198.93
622.16	3334.09
622.35	3491.79
622.54	3565.51
622.73	3207.12
622.92	2967.51
623.11	3803.08
623.30	3332.05
623.49	3311.57
623.68	3098.58
623.88	3688.39
624.07	3229.65
624.26	3078.10
624.45	3131.34
624.64	3344.33
624.83	3479.50
625.02	3090.38
625.21	3178.45
625.40	3600.33
625.59	3805.13
625.78	3262.41
625.97	3291.09
626.16	3710.92
626.35	3608.52
626.54	3164.11
626.74	3317.71
626.93	3313.61
627.12	3403.72
627.31	3237.84
627.50	3209.17
627.69	3592.14
627.88	3227.60
628.07	3151.82
628.26	3053.52
628.45	3276.75
628.64	3135.44
628.83	3155.92
629.02	3026.90
629.21	3526.60
629.40	3487.69
629.59	3018.71
629.78	3205.07
629.97	3465.16
630.16	3418.06
630.35	3155.92
630.54	3182.54
630.73	3278.80
630.92	3436.49
631.11	3145.68
631.30	3295.18
631.49	3631.05
631.68	3508.17
631.87	3143.63
632.06	3067.86
632.25	3909.57
632.44	3469.26
632.63	3223.50
632.82	3168.21
633.01	3348.43
633.20	3573.71
633.39	3168.21
633.58	2983.89
633.77	3532.75
633.96	3573.71
634.15	3256.27
634.34	3319.76
634.53	3545.03
634.72	3364.81
634.91	2998.23
635.10	3151.82
635.29	3690.44
635.48	3438.54
635.67	3092.43
635.86	3030.99
636.05	3708.87
636.24	3444.68
636.43	3227.60
636.62	3258.32
636.81	2965.46
637.00	3446.73
637.19	3215.31
637.38	3117.01
637.57	3270.61
637.76	3418.06
637.95	3360.72
638.14	3411.92
638.33	3514.31
638.52	3495.88
638.71	3102.67
638.89	3090.38
639.08	4083.65
639.27	3706.82
639.46	3401.68
639.65	3596.23
639.84	3837.89
640.03	4036.55
640.22	3692.49
640.41	3551.18
640.60	3639.24
640.79	3631.05
640.98	3432.40
641.17	3338.19
641.36	3575.75
641.55	3610.57
641.74	3053.52
641.92	3024.85
642.11	3246.03
642.30	3450.83
642.49	3123.15
642.68	3178.45
642.87	3518.41
643.06	3502.03
643.25	3065.81
643.44	3061.71
643.63	3381.20
643.82	3598.28
644.00	3082.19
644.19	3192.78
644.38	3266.51
644.57	3565.51
644.76	3170.26
644.95	3319.76
645.14	3446.73
645.33	3483.59
645.52	3307.47
645.71	2992.08
645.89	3225.55
646.08	3448.78
646.27	3215.31
646.46	3491.79
646.65	3141.58
646.84	3467.21
647.03	2998.23
647.22	3373.00
647.40	3436.49
647.59	3370.96
647.78	3004.37
647.97	3149.78
648.16	3188.69
648.35	3715.02
648.54	3473.36
648.73	3229.65
648.91	3612.62
649.10	3420.11
649.29	3145.68
649.48	3164.11
649.67	3538.89
649.86	3479.50
650.05	3203.02
650.23	3379.15
650.42	3200.98
650.61	3755.97
650.80	3432.40
650.99	3387.34
651.18	3624.90
651.36	3717.06
651.55	3151.82
651.74	3323.85
651.93	3373.00
652.12	3373.00
652.31	3225.55
652.49	3190.74
652.68	3397.58
652.87	3786.69
653.06	3274.70
653.25	3483.59
653.44	3409.87
653.62	3786.69
653.81	3203.02
654.00	3172.30
654.19	3669.96
654.38	4054.98
654.56	3272.65
654.75	3188.69
654.94	3682.25
655.13	3471.31
655.32	3168.21
655.51	3280.85
655.69	3334.09
655.88	3651.53
656.07	3094.48
656.26	3223.50
656.45	3147.73
656.63	3444.68
656.82	3133.39
657.01	3520.46
657.20	3293.13
657.38	3723.21
657.57	3133.39
657.76	3020.75
657.95	3540.94
658.14	3284.94
658.32	3307.47
658.51	3078.10
658.70	3463.12
658.89	3540.94
659.08	3205.07
659.26	3373.00
659.45	3258.32
659.64	3518.41
659.83	3106.77
660.01	3594.19
660.20	3567.56
660.39	3839.94
660.58	2936.79
660.76	3186.64
660.95	3182.54
661.14	3436.49
661.33	3092.43
661.51	3172.30
661.70	3315.66
661.89	3629.00
662.08	3172.30
662.26	3020.75
662.45	3188.69
662.64	3891.14
662.83	3172.30
663.01	3092.43
663.20	3362.76
663.39	3747.78
663.58	3274.70
663.76	3088.34
663.95	3577.80
664.14	3215.31
664.32	3311.57
664.51	3018.71
664.70	3012.56
664.89	3514.31
665.07	2963.41
665.26	3313.61
665.45	3182.54
665.64	3528.65
665.82	3188.69
666.01	3270.61
666.20	3127.25
666.38	3631.05
666.57	3545.03
666.76	5732.26
666.95	12640.06
667.13	18613.99
667.32	22253.23
667.51	25050.75
667.69	25607.80
667.88	20625.09
668.07	15220.50
668.25	13227.83
668.44	11644.75
668.63	10106.73
668.81	8847.22
669.00	7647.12
669.19	7081.88
669.38	6418.33
669.56	5433.26
669.75	4757.43
669.94	4329.41
670.12	3837.89
670.31	3426.25
670.50	3461.07
670.68	3606.47
670.87	3542.99
671.06	3121.10
671.24	3323.85
671.43	3762.12
671.62	3405.77
671.80	3145.68
671.99	3313.61
672.18	3516.36
672.36	3592.14
672.55	3229.65
672.74	3270.61
672.92	3323.85
673.11	3581.90
673.29	2987.99
673.48	3375.05
673.67	3346.38
673.85	3672.01
674.04	3143.63
674.23	3182.54
674.41	3889.09
674.60	3209.17
674.79	3074.00
674.97	3026.90
675.16	3606.47
675.34	3698.63
675.53	3100.62
675.72	3203.02
675.90	3821.51
676.09	3356.62
676.28	3254.22
676.46	3020.75
676.65	3536.84
676.83	3237.84
677.02	3178.45
677.21	3213.26
677.39	3518.41
677.58	3278.80
677.77	3221.45
677.95	3063.76
678.14	3401.68
678.32	3403.72
678.51	3139.54
678.70	3571.66
678.88	3352.52
679.07	3516.36
679.25	3184.59
679.44	3248.08
679.63	3151.82
679.81	3436.49
680.00	3499.98
680.18	3211.22
680.37	3823.56
680.55	3567.56
680.74	3037.14
680.93	2930.64
681.11	3489.74
681.30	3409.87
681.48	3182.54
681.67	3166.16
681.85	3506.12
682.04	3327.95
682.23	3221.45
682.41	3282.89
682.60	3383.24
682.78	3373.00
682.97	3137.49
683.15	3270.61
683.34	3475.40
683.53	3729.35
683.71	3055.57
683.90	3289.04
684.08	3753.93
684.27	3336.14
684.45	3262.41
684.64	3352.52
684.82	3428.30
685.01	3622.86
685.19	3157.97
685.38	3467.21
685.57	3407.82
685.75	3282.89
685.94	3114.96
686.12	3131.34
686.31	3360.72
686.49	3823.56
686.68	2955.22
686.86	3102.67
687.05	3332.05
687.23	3827.65
687.42	3225.55
687.60	3071.95
687.79	3645.38
687.97	3762.12
688.16	3307.47
688.34	3391.44
688.53	3076.05
688.71	3499.98
688.90	3508.17
689.08	3184.59
689.27	3010.51
689.45	3618.76
689.64	3356.62
689.82	3295.18
690.01	3540.94
690.19	3553.23
690.38	3254.22
690.56	3319.76
690.75	3219.41
690.93	3352.52
691.12	3141.58
691.30	3243.98
691.49	3385.29
691.67	3370.96
691.86	3461.07
692.04	3188.69
692.23	3321.81
692.41	3452.88
692.60	3641.29
692.78	3327.95
692.97	3467.21
693.15	3524.55
693.34	3387.34
693.52	3368.91
693.71	3315.66
693.89	3231.69
694.08	2975.70
694.26	3270.61
694.44	3583.95
694.63	3528.65
694.81	3033.04
695.00	3117.01
695.18	3618.76
695.37	4079.55
695.55	3346.38
695.74	3375.05
695.92	3262.41
696.10	3639.24
696.29	3065.81
696.47	3094.48
696.66	3190.74
696.84	3203.02
697.03	3313.61
697.21	3495.88
697.40	4732.86
697.58	3721.16
697.76	3215.31
697.95	3203.02
698.13	3227.60
698.32	3282.89
698.50	3188.69
698.68	3227.60
698.87	3538.89
699.05	3852.23
699.24	3213.26
699.42	3155.92
699.61	3508.17
699.79	3438.54
699.97	3176.40
700.16	3020.75
700.34	3215.31
700.53	3526.60
700.71	3450.83
700.89	3352.52
701.08	3358.67
701.26	3426.25
701.45	3459.02
701.63	3198.93
701.81	3317.71
702.00	3340.24
702.18	3317.71
702.37	3196.88
702.55	3678.15
702.73	3502.03
702.92	3248.08
703.10	3479.50
703.28	3573.71
703.47	3164.11
703.65	3360.72
703.84	3276.75
704.02	3389.39
704.20	3749.83
704.39	3172.30
704.57	3086.29
704.75	3629.00
704.94	3545.03
705.12	3409.87
705.30	3971.01
705.49	8322.94
705.67	14645.02
705.86	19441.37
706.04	21472.95
706.22	23729.81
706.41	22257.32
706.59	16666.37
706.77	13356.85
706.96	11687.76
707.14	10696.54
707.32	9295.73
707.51	8130.44
707.69	6848.41
707.87	5797.80
708.06	4874.17
708.24	4360.13
708.42	4102.08
708.61	4198.34
708.79	3297.23
708.97	3346.38
709.16	3569.61
709.34	3409.87
709.52	3217.36
709.71	3276.75
709.89	3532.75
710.07	3307.47
710.26	3153.87
710.44	3252.17
710.62	3602.38
710.80	3434.44
710.99	3385.29
711.17	3377.10
711.35	3293.13
711.54	3330.00
711.72	3352.52
711.90	3295.18
712.09	3487.69
712.27	3366.86
712.45	3385.29
712.63	3266.51
712.82	3467.21
713.00	3395.53
713.18	3334.09
713.37	3473.36
713.55	3532.75
713.73	3583.95
713.91	3260.37
714.10	3205.07
714.28	3450.83
714.46	3592.14
714.65	3311.57
714.83	3258.32
715.01	3411.92
715.19	3475.40
715.38	3123.15
715.56	3344.33
715.74	3227.60
715.92	3278.80
716.11	3618.76
716.29	2949.08
716.47	3436.49
716.65	3395.53
716.84	3100.62
717.02	3323.85
717.20	3028.95
717.38	3327.95
717.57	3383.24
717.75	3223.50
717.93	3416.01
718.11	3590.09
718.30	3106.77
718.48	3250.13
718.66	3698.63
718.84	3678.15
719.03	3278.80
719.21	3018.71
719.39	3854.28
719.57	3571.66
719.75	3315.66
719.94	3143.63
720.12	3385.29
720.30	3553.23
720.48	3319.76
720.67	3188.69
720.85	3272.65
721.03	3395.53
721.21	3166.16
721.39	3231.69
721.58	3602.38
721.76	3434.44
721.94	3200.98
722.12	3268.56
722.30	3825.61
722.49	3368.91
722.67	3174.35
722.85	3213.26
723.03	3170.26
723.21	3313.61
723.40	3250.13
723.58	3344.33
723.76	3688.39
723.94	3526.60
724.12	3256.27
724.30	3524.55
724.49	3567.56
724.67	3254.22
724.85	3266.51
725.03	3033.04
725.21	3618.76
725.40	3708.87
725.58	3227.60
725.76	3491.79
725.94	3610.57
726.12	3250.13
726.30	3254.22
726.49	3155.92
726.67	3366.86
726.85	3600.33
727.03	3880.90
727.21	4929.46
727.39	6195.11
727.57	6404.00
727.76	6862.74
727.94	6664.09
728.12	6014.88
728.30	5056.43
728.48	4837.30
728.66	4487.10
728.84	4427.71
729.03	3897.28
729.21	3788.74
729.39	3563.47
729.57	3524.55
729.75	3600.33
729.93	3397.58
730.11	3172.30
730.30	3270.61
730.48	3366.86
730.66	3248.08
730.84	3266.51
731.02	3409.87
731.20	3311.57
731.38	3348.43
731.56	3022.80
731.74	3139.54
731.93	3463.12
732.11	3342.28
732.29	3205.07
732.47	3520.46
732.65	3405.77
732.83	3389.39
733.01	3352.52
733.19	3262.41
733.37	3600.33
733.56	3227.60
733.74	3063.76
733.92	3764.17
734.10	3325.90
734.28	3368.91
734.46	3016.66
734.64	3360.72
734.82	3395.53
735.00	3203.02
735.18	3098.58
735.36	3418.06
735.54	3358.67
735.73	3196.88
735.91	3403.72
736.09	3796.93
736.27	3489.74
736.45	3354.57
736.63	3026.90
736.81	3387.34
736.99	3772.36
737.17	3477.45
737.35	3168.21
737.53	3459.02
737.71	3428.30
737.89	3438.54
738.07	3114.96
738.25	3327.95
738.43	3104.72
738.61	3192.78
738.80	3057.62
738.98	3303.37
739.16	3270.61
739.34	3133.39
739.52	3506.12
739.70	3401.68
739.88	3581.90
740.06	3338.19
740.24	3016.66
740.42	3684.30
740.60	3041.23
740.78	3223.50
740.96	2936.79
741.14	3330.00
741.32	3487.69
741.50	3051.47
741.68	3442.64
741.86	3639.24
742.04	3196.88
742.22	3086.29
742.40	3246.03
742.58	3622.86
742.76	3319.76
742.94	3440.59
743.12	3080.14
743.30	3532.75
743.48	3592.14
743.66	3157.97
743.84	3239.89
744.02	3381.20
744.20	3393.48
744.38	3055.57
744.56	3155.92
744.74	3846.09
744.92	3575.75
745.10	3418.06
745.28	3258.32
745.46	3762.12
745.64	3389.39
745.82	3297.23
746.00	3151.82
746.18	3598.28
746.36	3248.08
746.54	3264.46
746.72	3213.26
746.90	3231.69
747.08	3706.82
747.26	3229.65
747.44	3280.85
747.62	3575.75
747.80	3532.75
747.98	3379.15
748.15	3188.69
748.33	3788.74
748.51	3434.44
748.69	3284.94
748.87	3041.23
749.05	3422.16
749.23	3323.85
749.41	3129.30
749.59	3182.54
749.77	3618.76
749.95	3409.87
750.13	3184.59
750.31	3475.40
750.49	3483.59
750.67	3715.02
750.85	3352.52
751.03	3053.52
751.20	3839.94
751.38	3559.37
751.56	3299.28
751.74	3129.30
751.92	3422.16
752.10	3174.35
752.28	3405.77
752.46	3182.54
752.64	3319.76
752.82	3504.07
753.00	3305.42
753.18	3067.86
753.35	3321.81
753.53	3438.54
753.71	3145.68
753.89	3223.50
754.07	3502.03
754.25	3657.67
754.43	3299.28
754.61	3127.25
754.79	3497.93
754.97	3430.35
755.14	3268.56
755.32	3153.87
755.50	3454.92
755.68	3387.34
755.86	3135.44
756.04	3151.82
756.22	3082.19
756.40	3526.60
756.57	3401.68
756.75	3135.44
756.93	3766.21
757.11	3655.62
757.29	3082.19
757.47	3065.81
757.65	3059.67
757.82	3067.86
758.00	3098.58
758.18	3203.02
758.36	3248.08
758.54	3753.93
758.72	3096.53
758.90	3305.42
759.07	3483.59
759.25	3219.41
759.43	3319.76
759.61	2961.36
759.79	4601.79
759.97	3631.05
760.15	3233.74
760.32	3166.16
760.50	3583.95
760.68	3901.38
760.86	3121.10
761.04	3418.06
761.22	3618.76
761.39	3512.27
761.57	3407.82
761.75	3172.30
761.93	3499.98
762.11	3373.00
762.28	3340.24
762.46	3123.15
762.64	3665.86
762.82	3147.73
763.00	3137.49
763.18	3366.86
763.35	3221.45
763.53	3594.19
763.71	3205.07
763.89	3176.40
764.07	3528.65
764.24	3438.54
764.42	3352.52
764.60	3229.65
764.78	3446.73
764.96	3706.82
765.13	3348.43
765.31	3082.19
765.49	3596.23
765.67	3256.27
765.84	3153.87
766.02	3172.30
766.20	3178.45
766.38	3538.89
766.56	3299.28
766.73	3262.41
766.91	3418.06
767.09	3430.35
767.27	3266.51
767.44	3037.14
767.62	3583.95
767.80	3502.03
767.98	3114.96
768.15	3184.59
768.33	3641.29
768.51	3622.86
768.69	3401.68
768.87	3203.02
769.04	3508.17
769.22	3979.20
769.40	3332.05
769.58	3313.61
769.75	3555.27
769.93	3743.69
770.11	3286.99
770.28	3065.81
770.46	3631.05
770.64	3555.27
770.82	3266.51
770.99	3092.43
771.17	3655.62
771.35	3420.11
771.53	3289.04
771.70	3164.11
771.88	3405.77
772.06	3420.11
772.23	3180.50
772.41	3295.18
772.59	3479.50
772.77	3233.74
772.94	3233.74
773.12	3266.51
773.30	3379.15
773.47	3518.41
773.65	3053.52
773.83	3413.96
774.01	3352.52
774.18	3016.66
774.36	3207.12
774.54	3033.04
774.71	3499.98
774.89	3112.91
775.07	3049.43
775.24	3243.98
775.42	3344.33
775.60	3792.84
775.78	3151.82
775.95	3004.37
776.13	3102.67
776.31	3016.66
776.48	3456.97
776.66	3348.43
776.84	3346.38
777.01	3141.58
777.19	3172.30
777.37	3119.06
777.54	3553.23
777.72	3862.47
777.90	3278.80
778.07	3100.62
778.25	4190.14
778.43	3637.19
778.60	3203.02
778.78	3248.08
778.96	3794.89
779.13	3237.84
779.31	3301.33
779.49	3284.94
779.66	3454.92
779.84	3399.63
780.01	3086.29
780.19	3112.91
780.37	3745.73
780.54	3581.90
780.72	2998.23
780.90	3155.92
781.07	3352.52
781.25	3286.99
781.43	3385.29
781.60	3131.34
781.78	3604.42
781.95	3434.44
782.13	3176.40
782.31	3176.40
782.48	3078.10
782.66	3461.07
782.83	3448.78
783.01	3309.52
783.19	3672.01
783.36	3368.91
783.54	3176.40
783.72	3229.65
783.89	3323.85
784.07	3526.60
784.24	3362.76
784.42	3336.14
784.60	3473.36
784.77	3538.89
784.95	2971.60
785.12	3196.88
785.30	3540.94
785.47	3223.50
785.65	3082.19
785.83	3231.69
786.00	3377.10
786.18	3461.07
786.35	3127.25
786.53	3166.16
786.71	3727.30
786.88	3616.71
787.06	3219.41
787.23	3250.13
787.41	3170.26
787.58	3440.59
787.76	3129.30
787.94	3211.22
788.11	3538.89
788.29	3209.17
788.46	3221.45
788.64	3065.81
788.81	3346.38
788.99	3254.22
789.16	3112.91
789.34	3254.22
789.52	3276.75
789.69	3358.67
789.87	2973.65
790.04	3196.88
790.22	3432.40
790.39	3889.09
790.57	3057.62
790.74	3172.30
790.92	3643.34
791.09	3067.86
791.27	3252.17
791.44	3336.14
791.62	3342.28
791.79	3620.81
791.97	3276.75
792.15	3538.89
792.32	3581.90
792.50	3557.32
792.67	3389.39
792.85	3471.31
793.02	3545.03
793.20	3354.57
793.37	3110.86
793.55	3168.21
793.72	3164.11
793.90	3485.64
794.07	3196.88
794.25	3129.30
794.42	3430.35
794.60	3360.72
794.77	3229.65
794.95	3405.77
795.12	3518.41
795.30	3411.92
795.47	2967.51
795.65	3583.95
795.82	3553.23
796.00	3291.09
796.17	3188.69
796.34	3076.05
796.52	3495.88
796.69	3715.02
796.87	3344.33
797.04	3397.58
797.22	3635.14
797.39	3506.12
797.57	3428.30
797.74	3321.81
797.92	3536.84
798.09	3254.22
798.27	3495.88
798.44	3172.30
798.62	3348.43
798.79	3448.78
798.96	3385.29
799.14	3200.98
799.31	3950.53
799.49	3434.44
799.66	3211.22
799.84	3235.79
800.01	3092.43
800.19	3444.68
800.36	3030.99
800.53	3323.85
800.71	3506.12
800.88	3766.21
801.06	3082.19
801.23	3121.10
801.41	3336.14
801.58	3317.71
801.75	3186.64
801.93	3264.46
802.10	3573.71
802.28	3346.38
802.45	3313.61
802.63	3317.71
802.80	3852.23
802.97	3401.68
803.15	3200.98
803.32	3207.12
803.50	3364.81
803.67	3299.28
803.84	3196.88
804.02	3160.02
804.19	3434.44
804.37	2926.55
804.54	3061.71
804.71	3114.96
804.89	3385.29
805.06	3256.27
805.24	3125.20
805.41	3004.37
805.58	3227.60
805.76	3991.49
805.93	3166.16
806.10	3327.95
806.28	3594.19
806.45	3442.64
806.63	3338.19
806.80	3293.13
806.97	3485.64
807.15	3444.68
807.32	3241.93
807.49	3145.68
807.67	3188.69
807.84	3485.64
808.01	2969.55
808.19	3334.09
808.36	3895.24
808.54	3352.52
808.71	3168.21
808.88	3213.26
809.06	3723.21
809.23	3755.97
809.40	3248.08
809.58	3155.92
809.75	3456.97
809.92	3129.30
810.10	3497.93
810.27	3139.54
810.44	3479.50
810.62	3676.10
810.79	3227.60
810.96	3198.93
811.14	3291.09
811.31	3540.94
811.48	3399.63
811.66	3196.88
811.83	3667.91
812.00	3542.99
812.18	3319.76
812.35	3450.83
812.52	3303.37
812.69	3280.85
812.87	3139.54
813.04	3145.68
813.21	3426.25
813.39	3282.89
813.56	3174.35
813.73	3467.21
813.91	3123.15
814.08	3424.20
814.25	3135.44
814.42	3033.04
814.60	3368.91
814.77	3526.60
814.94	3164.11
815.12	3352.52
815.29	3811.27
815.46	3411.92
815.63	3203.02
815.81	3172.30
815.98	3340.24
816.15	3344.33
816.33	3278.80
816.50	3217.36
816.67	3327.95
816.84	3368.91
817.02	3026.90
817.19	3182.54
817.36	3438.54
817.53	3487.69
817.71	3141.58
817.88	3264.46
818.05	3393.48
818.22	3389.39
818.40	3381.20
818.57	3192.78
818.74	3456.97
818.91	3409.87
819.09	3411.92
819.26	3276.75
819.43	3209.17
819.60	3278.80
819.78	3346.38
819.95	3205.07
820.12	3270.61
820.29	3741.64
820.47	3426.25
820.64	3051.47
820.81	3160.02
820.98	3280.85
821.15	3274.70
821.33	3323.85
821.50	3049.43
821.67	3573.71
821.84	3147.73
822.02	3237.84
822.19	3616.71
822.36	3321.81
822.53	3143.63
822.70	3067.86
822.88	3356.62
823.05	3753.93
823.22	3262.41
823.39	3153.87
823.56	3426.25
823.74	3854.28
823.91	2955.22
824.08	3149.78
824.25	3215.31
824.42	3803.08
824.60	3016.66
824.77	3311.57
824.94	3413.96
825.11	3614.66
825.28	3078.10
825.45	3370.96
825.63	3438.54
825.80	3188.69
825.97	3231.69
826.14	3211.22
826.31	3110.86
826.48	3612.62
826.66	3211.22
826.83	3215.31
827.00	3354.57
827.17	3192.78
827.34	3241.93
827.51	2975.70
827.69	3426.25
827.86	3106.77
828.03	3233.74
828.20	3248.08
828.37	3299.28
828.54	3493.83
828.71	3051.47
828.89	3327.95
829.06	3389.39
829.23	3684.30
829.40	3233.74
829.57	3160.02
829.74	3536.84
829.91	3286.99
830.09	3119.06
830.26	3344.33
830.43	3885.00
830.60	3354.57
830.77	3338.19
830.94	3360.72
831.11	3598.28
831.28	3299.28
831.46	3315.66
831.63	3198.93
831.80	3733.45
831.97	3262.41
832.14	3262.41
832.31	3137.49
832.48	3395.53
832.65	3696.58
832.82	3303.37
832.99	3213.26
833.17	3248.08
833.34	3723.21
833.51	3172.30
833.68	2959.31
833.85	3669.96
834.02	3182.54
834.19	3110.86
834.36	3198.93
834.53	3522.51
834.70	3602.38
834.87	3227.60
835.04	2895.83
835.22	3340.24
835.39	3424.20
835.56	2965.46
835.73	2953.17
835.90	3708.87
836.07	3174.35
836.24	3092.43
836.41	2944.98
836.58	3258.32
836.75	3573.71
836.92	2998.23
837.09	2947.03
837.26	3569.61
837.43	3528.65
837.60	3100.62
837.77	3061.71
837.94	3569.61
838.12	3737.54
838.29	2934.74
838.46	3016.66
838.63	3131.34
838.80	3731.40
838.97	3026.90
839.14	3008.47
839.31	3446.73
839.48	3631.05
839.65	3008.47
839.82	3117.01
839.99	3561.42
840.16	3442.64
840.33	2955.22
840.50	2992.08
840.67	3289.04
840.84	2926.55
841.01	2916.31
841.18	2983.89
841.35	3506.12
841.52	3596.23
841.69	3368.91
841.86	3049.43
842.03	3403.72
842.20	3620.81
842.37	2969.55
842.54	3098.58
842.71	3444.68
842.88	3166.16
843.05	2987.99
843.22	2979.79
843.39	3583.95
843.56	3295.18
843.73	2973.65
843.90	3061.71
844.07	3411.92
844.24	3553.23
844.41	3094.48
844.58	3026.90
844.75	3456.97
844.92	3524.55
845.09	3055.57
845.26	3041.23
845.43	3676.10
845.60	3354.57
845.77	3094.48
845.94	3098.58
846.10	3641.29
846.27	3114.96
846.44	2848.72
846.61	2957.27
846.78	3563.47
846.95	3565.51
847.12	3006.42
847.29	3035.09
847.46	3252.17
847.63	3549.13
847.80	2904.02
847.97	3002.32
848.14	3954.63
848.31	3385.29
848.48	2844.63
848.65	2951.12
848.82	3311.57
848.98	4036.55
849.15	3180.50
849.32	3127.25
849.49	3600.33
849.66	3430.35
849.83	2975.70
850.00	2908.12
850.17	3682.25
850.34	3362.76
850.51	2918.36
850.68	3010.51
850.85	3917.76
851.01	3467.21
851.18	3076.05
851.35	3041.23
851.52	3547.08
851.69	3727.30
851.86	2930.64
852.03	3012.56
852.20	3631.05
852.37	3370.96
852.53	2975.70
852.70	2901.97
852.87	3473.36
853.04	3559.37
853.21	3002.32
853.38	3403.72
853.55	3686.34
853.72	3665.86
853.89	2869.20
854.05	2990.03
854.22	3389.39
854.39	3360.72
854.56	2955.22
854.73	3172.30
854.90	3215.31
855.07	3354.57
855.23	2875.35
855.40	2942.93
855.57	3336.14
855.74	2951.12
855.91	3139.54
856.08	2807.77
856.25	3237.84
856.41	3356.62
856.58	2969.55
856.75	3061.71
856.92	3162.06
857.09	3639.24
857.26	2863.06
857.42	3061.71
857.59	3647.43
857.76	3346.38
857.93	2951.12
858.10	3100.62
858.27	3182.54
858.43	3389.39
858.60	3074.00
858.77	2930.64
858.94	3325.90
859.11	3639.24
859.27	3174.35
859.44	2944.98
859.61	3987.40
859.78	3649.48
859.95	3059.67
860.12	2951.12
860.28	3868.61
860.45	3758.02
860.62	3033.04
860.79	3041.23
860.95	3325.90
861.12	3254.22
861.29	2920.40
861.46	2961.36
861.63	3352.52
861.79	3418.06
861.96	2918.36
862.13	2973.65
862.30	3715.02
862.47	3211.22
862.63	2930.64
862.80	3039.19
862.97	3686.34
863.14	3489.74
863.30	3057.62
863.47	2930.64
863.64	3737.54
863.81	3502.03
863.97	2844.63
864.14	3078.10
864.31	3379.15
864.48	3508.17
864.65	3049.43
864.81	3074.00
864.98	3567.56
865.15	3639.24
865.32	3088.34
865.48	3065.81
865.65	3770.31
865.82	3362.76
865.98	3086.29
866.15	3059.67
866.32	3338.19
866.49	3389.39
866.65	3180.50
866.82	3059.67
866.99	3459.02
867.16	3248.08
867.32	3114.96
867.49	2922.45
867.66	3338.19
867.83	3311.57
867.99	2959.31
868.16	3094.48
868.33	3155.92
868.49	3456.97
868.66	3004.37
868.83	3147.73
868.99	3399.63
869.16	3452.88
869.33	3196.88
869.50	3088.34
869.66	3577.80
869.83	3475.40
870.00	2942.93
870.16	3188.69
870.33	3366.86
870.50	3604.42
870.66	3100.62
870.83	3041.23
871.00	3360.72
871.17	3581.90
871.33	3067.86
871.50	2971.60
871.67	3364.81
871.83	3289.04
872.00	3153.87
872.17	3030.99
872.33	3950.53
872.50	3655.62
872.67	2920.40
872.83	3016.66
873.00	3542.99
873.17	3538.89
873.33	3016.66
873.50	3141.58
873.67	3278.80
873.83	3190.74
874.00	3059.67
874.16	3125.20
874.33	3467.21
874.50	3270.61
874.66	3008.47
874.83	3196.88
875.00	3667.91
875.16	3692.49
875.33	3051.47
875.50	2803.67
875.66	3315.66
875.83	3450.83
875.99	3108.82
876.16	3170.26
876.33	3168.21
876.49	3422.16
876.66	3061.71
876.83	3088.34
876.99	3164.11
877.16	3424.20
877.32	2975.70
877.49	3076.05
877.66	3583.95
877.82	3803.08
877.99	3049.43
878.15	3330.00
878.32	3508.17
878.49	3428.30
878.65	3125.20
878.82	3393.48
878.98	3332.05
879.15	3618.76
879.32	3235.79
879.48	3266.51
879.65	3387.34
879.81	3229.65
879.98	3119.06
880.15	3076.05
880.31	3499.98
880.48	3229.65
880.64	3155.92
880.81	3178.45
880.97	3811.27
881.14	3663.82
881.31	3000.27
881.47	3215.31
881.64	3397.58
881.80	3119.06
881.97	3284.94
882.13	3047.38
882.30	3188.69
882.47	3262.41
882.63	3000.27
882.80	2992.08
882.96	3307.47
883.13	3592.14
883.29	3008.47
883.46	3024.85
883.62	3889.09
883.79	3430.35
883.95	3205.07
884.12	3051.47
884.29	3680.20
884.45	3467.21
884.62	2987.99
884.78	3018.71
884.95	3819.46
885.11	3223.50
885.28	3166.16
885.44	3137.49
885.61	3577.80
885.77	3710.92
885.94	3129.30
886.10	3090.38
886.27	3434.44
886.43	3864.52
886.60	3231.69
886.76	3035.09
886.93	3217.36
887.09	3491.79
887.26	2901.97
887.42	3151.82
887.59	3676.10
887.75	3975.11
887.92	3258.32
888.08	3119.06
888.25	3854.28
888.41	3639.24
888.58	3151.82
888.74	3000.27
888.91	3317.71
>>>>>End Processed Spectral Data<<<<<
