SpectraSuite Data File
++++++++++++++++++++++++++++++++++++
Date: Fri May 06 09:28:35 CEST 2016
User: root
Dark Spectrum Present: No
Reference Spectrum Present: No
Number of Sampled Component Spectra: 1
Spectrometers: USB4C02835
Integration Time (usec): 100000 (USB4C02835)
Spectra Averaged: 1 (USB4C02835)
Boxcar Smoothing: 0 (USB4C02835)
Correct for Electrical Dark: No (USB4C02835)
Strobe/Lamp Enabled: No (USB4C02835)
Correct for Detector Non-linearity: No (USB4C02835)
Correct for Stray Light: No (USB4C02835)
Number of Pixels in Processed Spectrum: 3648
>>>>>Begin Processed Spectral Data<<<<<
177.47	2353.12
177.69	2353.12
177.91	2353.12
178.13	2371.55
178.36	2346.97
178.58	3164.11
178.80	3221.45
179.02	3127.25
179.24	3176.40
179.46	2830.29
179.68	2910.16
179.90	3446.73
180.13	3442.64
180.35	2797.53
180.57	2871.25
180.79	3610.57
181.01	3418.06
181.23	2996.18
181.45	3080.14
181.67	3532.75
181.90	3674.06
182.12	3020.75
182.34	2783.19
182.56	3565.51
182.78	3510.22
183.00	2912.21
183.22	2983.89
183.44	3102.67
183.66	4093.89
183.89	3188.69
184.11	3004.37
184.33	3606.47
184.55	3778.50
184.77	2897.88
184.99	3026.90
185.21	3254.22
185.43	3997.64
185.65	3000.27
185.87	2998.23
186.10	3968.96
186.32	3979.20
186.54	3137.49
186.76	3106.77
186.98	3665.86
187.20	3411.92
187.42	3059.67
187.64	3039.19
187.86	3598.28
188.08	3682.25
188.30	2893.78
188.52	3033.04
188.75	3749.83
188.97	3835.85
189.19	2949.08
189.41	2951.12
189.63	3585.99
189.85	3420.11
190.07	2889.68
190.29	2801.62
190.51	3538.89
190.73	3131.34
190.95	3196.88
191.17	2992.08
191.39	3090.38
191.61	3393.48
191.84	2985.94
192.06	3108.82
192.28	3125.20
192.50	4173.76
192.72	3190.74
192.94	3106.77
193.16	3674.06
193.38	3514.31
193.60	2942.93
193.82	3225.55
194.04	3692.49
194.26	3489.74
194.48	3061.71
194.70	3033.04
194.92	3383.24
195.14	3606.47
195.36	3012.56
195.58	3041.23
195.80	3465.16
196.02	3325.90
196.24	2932.69
196.46	3098.58
196.69	3344.33
196.91	4007.87
197.13	2926.55
197.35	3084.24
197.57	3792.84
197.79	3608.52
198.01	2996.18
198.23	2908.12
198.45	3608.52
198.67	3151.82
198.89	2818.00
199.11	3084.24
199.33	3307.47
199.55	2963.41
199.77	2891.73
199.99	3145.68
200.21	3311.57
200.43	3618.76
200.65	2885.59
200.87	2777.05
201.09	3454.92
201.31	3467.21
201.53	2975.70
201.75	3092.43
201.97	3471.31
202.19	3370.96
202.41	3074.00
202.63	3063.76
202.85	3583.95
203.07	3600.33
203.29	3141.58
203.51	2828.24
203.73	3282.89
203.95	4048.83
204.17	2969.55
204.39	3170.26
204.61	3356.62
204.83	3360.72
205.05	3188.69
205.27	2947.03
205.49	4202.43
205.71	3428.30
205.93	2830.29
206.15	2818.00
206.37	3499.98
206.59	3452.88
206.81	2836.44
207.03	2811.86
207.25	3227.60
207.47	3583.95
207.69	2942.93
207.91	3229.65
208.13	3766.21
208.34	3260.37
208.56	2934.74
208.78	3033.04
209.00	3370.96
209.22	3368.91
209.44	3035.09
209.66	2965.46
209.88	3450.83
210.10	3420.11
210.32	2951.12
210.54	2987.99
210.76	3381.20
210.98	3631.05
211.20	2791.38
211.42	3051.47
211.64	3725.26
211.86	3616.71
212.08	3110.86
212.30	2963.41
212.52	3446.73
212.74	3542.99
212.96	3041.23
213.17	2992.08
213.39	3608.52
213.61	3762.12
213.83	2899.92
214.05	2779.09
214.27	3649.48
214.49	3246.03
214.71	2951.12
214.93	3143.63
215.15	3440.59
215.37	3629.00
215.59	2820.05
215.81	3043.28
216.03	3735.50
216.24	3440.59
216.46	2899.92
216.68	2961.36
216.90	3669.96
217.12	3612.62
217.34	2922.45
217.56	3151.82
217.78	3790.79
218.00	3684.30
218.22	3078.10
218.44	3024.85
218.66	3407.82
218.87	3831.75
219.09	3010.51
219.31	2951.12
219.53	3467.21
219.75	3258.32
219.97	3082.19
220.19	2983.89
220.41	3430.35
220.63	3770.31
220.85	3104.72
221.06	3041.23
221.28	3735.50
221.50	3641.29
221.72	2963.41
221.94	2885.59
222.16	3409.87
222.38	3669.96
222.60	2920.40
222.82	3022.80
223.03	3651.53
223.25	3327.95
223.47	2906.07
223.69	3203.02
223.91	3674.06
224.13	3467.21
224.35	2787.29
224.57	3184.59
224.78	3608.52
225.00	3280.85
225.22	3078.10
225.44	2922.45
225.66	3618.76
225.88	3323.85
226.10	3143.63
226.32	3008.47
226.53	3788.74
226.75	3200.98
226.97	3098.58
227.19	2969.55
227.41	3286.99
227.63	3352.52
227.85	2748.37
228.06	3020.75
228.28	3489.74
228.50	3696.58
228.72	2803.67
228.94	2904.02
229.16	3049.43
229.37	3145.68
229.59	2805.72
229.81	3200.98
230.03	3286.99
230.25	3186.64
230.47	2797.53
230.69	3012.56
230.90	3659.72
231.12	3278.80
231.34	3074.00
231.56	3059.67
231.78	3203.02
232.00	3483.59
232.21	2969.55
232.43	3012.56
232.65	3004.37
232.87	3510.22
233.09	2791.38
233.30	2830.29
233.52	3682.25
233.74	3430.35
233.96	2901.97
234.18	3217.36
234.40	3442.64
234.61	4011.97
234.83	2897.88
235.05	2953.17
235.27	4057.03
235.49	3758.02
235.70	2844.63
235.92	2922.45
236.14	3557.32
236.36	3930.05
236.58	2885.59
236.79	3078.10
237.01	3491.79
237.23	3362.76
237.45	3168.21
237.67	2947.03
237.88	3549.13
238.10	3823.56
238.32	2832.34
238.54	2885.59
238.76	3454.92
238.97	3231.69
239.19	2848.72
239.41	2975.70
239.63	3684.30
239.85	3389.39
240.06	3020.75
240.28	2901.97
240.50	3723.21
240.72	3377.10
240.93	2852.82
241.15	3117.01
241.37	3454.92
241.59	3805.13
241.81	3012.56
242.02	3043.28
242.24	3487.69
242.46	3737.54
242.68	2799.57
242.89	2904.02
243.11	3588.04
243.33	3446.73
243.55	2990.03
243.76	2975.70
243.98	3307.47
244.20	3493.83
244.42	3012.56
244.64	2961.36
244.85	3184.59
245.07	3248.08
245.29	2926.55
245.51	3026.90
245.72	3532.75
245.94	3618.76
246.16	2930.64
246.38	3004.37
246.59	3336.14
246.81	3315.66
247.03	2795.48
247.24	2820.05
247.46	3309.52
247.68	3463.12
247.90	2936.79
248.11	2928.60
248.33	3588.04
248.55	3475.40
248.77	2951.12
248.98	3028.95
249.20	3811.27
249.42	3481.55
249.64	2912.21
249.85	2914.26
250.07	3303.37
250.29	3624.90
250.50	3002.32
250.72	2926.55
250.94	3585.99
251.16	3975.11
251.37	2947.03
251.59	3065.81
251.81	3565.51
252.02	3776.45
252.24	2844.63
252.46	3172.30
252.68	3346.38
252.89	3344.33
253.11	2830.29
253.33	3151.82
253.54	3831.75
253.76	3155.92
253.98	2955.22
254.20	2944.98
254.41	3139.54
254.63	3358.67
254.85	2858.96
255.06	3063.76
255.28	3547.08
255.50	3483.59
255.71	2914.26
255.93	2811.86
256.15	3344.33
256.36	3547.08
256.58	2854.87
256.80	2967.51
257.02	3397.58
257.23	3418.06
257.45	3026.90
257.67	3149.78
257.88	3352.52
258.10	3549.13
258.32	2891.73
258.53	3041.23
258.75	3917.76
258.97	3352.52
259.18	2949.08
259.40	2879.44
259.62	3930.05
259.83	3725.26
260.05	3049.43
260.27	3983.30
260.48	3663.82
260.70	3256.27
260.92	2838.48
261.13	2994.13
261.35	3559.37
261.57	3522.51
261.78	2836.44
262.00	2891.73
262.22	3588.04
262.43	3198.93
262.65	3035.09
262.86	3059.67
263.08	3964.87
263.30	3401.68
263.51	2867.16
263.73	2959.31
263.95	3813.32
264.16	3260.37
264.38	2873.30
264.60	2879.44
264.81	3356.62
265.03	3717.06
265.25	3448.78
265.46	2951.12
265.68	3741.64
265.89	3641.29
266.11	2805.72
266.33	2977.75
266.54	3637.19
266.76	3663.82
266.98	3043.28
267.19	3176.40
267.41	3645.38
267.62	3487.69
267.84	2789.33
268.06	3024.85
268.27	3487.69
268.49	3698.63
268.70	3098.58
268.92	3108.82
269.14	3246.03
269.35	3147.73
269.57	3074.00
269.79	3000.27
270.00	3385.29
270.22	3813.32
270.43	2852.82
270.65	2885.59
270.87	3506.12
271.08	3600.33
271.30	3098.58
271.51	3010.51
271.73	3690.44
271.95	3747.78
272.16	2865.11
272.38	3076.05
272.59	3282.89
272.81	3612.62
273.02	2895.83
273.24	3051.47
273.46	3772.36
273.67	3182.54
273.89	2789.33
274.10	3002.32
274.32	3753.93
274.54	3532.75
274.75	3080.14
274.97	3162.06
275.18	3600.33
275.40	3522.51
275.61	2979.79
275.83	3112.91
276.05	3264.46
276.26	3379.15
276.48	3147.73
276.69	3127.25
276.91	3313.61
277.12	3782.60
277.34	3182.54
277.55	3254.22
277.77	3428.30
277.99	3397.58
278.20	3229.65
278.42	3024.85
278.63	3266.51
278.85	3233.74
279.06	3074.00
279.28	3262.41
279.49	3702.73
279.71	3561.42
279.93	3127.25
280.14	3119.06
280.36	3303.37
280.57	3600.33
280.79	3180.50
281.00	3016.66
281.22	3354.57
281.43	3723.21
281.65	2901.97
281.86	3059.67
282.08	3577.80
282.29	3946.44
282.51	2951.12
282.73	2934.74
282.94	3174.35
283.16	3608.52
283.37	3151.82
283.59	3084.24
283.80	3477.45
284.02	3424.20
284.23	3123.15
284.45	3110.86
284.66	3237.84
284.88	3307.47
285.09	3028.95
285.31	3123.15
285.52	3491.79
285.74	3227.60
285.95	3262.41
286.17	3211.22
286.38	3688.39
286.60	3229.65
286.81	3065.81
287.03	3061.71
287.24	3463.12
287.46	3639.24
287.67	3174.35
287.89	3340.24
288.10	3411.92
288.32	3483.59
288.53	3241.93
288.75	3180.50
288.96	3641.29
289.18	3325.90
289.39	2899.92
289.61	3217.36
289.82	3936.20
290.04	3839.94
290.25	2992.08
290.47	3200.98
290.68	3461.07
290.90	3606.47
291.11	2891.73
291.33	3241.93
291.54	3303.37
291.76	3237.84
291.97	3213.26
292.18	3176.40
292.40	3330.00
292.61	3360.72
292.83	3385.29
293.04	3129.30
293.26	3467.21
293.47	3389.39
293.69	3002.32
293.90	2985.94
294.12	3747.78
294.33	3454.92
294.55	3133.39
294.76	3286.99
294.97	3794.89
295.19	4007.87
295.40	3074.00
295.62	3059.67
295.83	3686.34
296.05	3358.67
296.26	3358.67
296.48	3110.86
296.69	3475.40
296.90	3438.54
297.12	3270.61
297.33	3321.81
297.55	3499.98
297.76	3506.12
297.98	3203.02
298.19	3268.56
298.41	3461.07
298.62	3295.18
298.83	3262.41
299.05	3246.03
299.26	3319.76
299.48	3250.13
299.69	3166.16
299.90	3041.23
300.12	3239.89
300.33	3598.28
300.55	3098.58
300.76	3172.30
300.98	3203.02
301.19	3602.38
301.40	3086.29
301.62	3092.43
301.83	3495.88
302.05	3598.28
302.26	3045.33
302.47	3217.36
302.69	3182.54
302.90	3426.25
303.12	3016.66
303.33	3241.93
303.54	3827.65
303.76	3426.25
303.97	3024.85
304.19	3235.79
304.40	3237.84
304.61	3485.64
304.83	3192.78
305.04	3155.92
305.26	3629.00
305.47	3387.34
305.68	3071.95
305.90	3000.27
306.11	3686.34
306.33	3383.24
306.54	2963.41
306.75	3002.32
306.97	3117.01
307.18	3262.41
307.39	3094.48
307.61	3229.65
307.82	3387.34
308.04	3581.90
308.25	2990.03
308.46	3246.03
308.68	3434.44
308.89	3430.35
309.10	3266.51
309.32	3110.86
309.53	3399.63
309.74	3573.71
309.96	2994.13
310.17	3262.41
310.39	3373.00
310.60	3590.09
310.81	3182.54
311.03	3074.00
311.24	3606.47
311.45	3481.55
311.67	3278.80
311.88	3254.22
312.09	3377.10
312.31	3319.76
312.52	3071.95
312.73	2975.70
312.95	3184.59
313.16	3295.18
313.37	3289.04
313.59	3248.08
313.80	3680.20
314.01	3725.26
314.23	3106.77
314.44	3012.56
314.65	3135.44
314.87	3268.56
315.08	3133.39
315.29	3155.92
315.51	3205.07
315.72	3129.30
315.93	3092.43
316.15	3114.96
316.36	3319.76
316.57	3475.40
316.79	3059.67
317.00	2971.60
317.21	3600.33
317.43	3321.81
317.64	3186.64
317.85	3028.95
318.07	3200.98
318.28	3323.85
318.49	3209.17
318.70	3344.33
318.92	3385.29
319.13	3522.51
319.34	3225.55
319.56	3051.47
319.77	3559.37
319.98	3659.72
320.20	3452.88
320.41	3219.41
320.62	3510.22
320.83	3196.88
321.05	3311.57
321.26	3063.76
321.47	3495.88
321.69	3696.58
321.90	2942.93
322.11	3047.38
322.32	3536.84
322.54	3790.79
322.75	3114.96
322.96	4171.71
323.18	3184.59
323.39	3000.27
323.60	2992.08
323.81	3227.60
324.03	3307.47
324.24	3444.68
324.45	3237.84
324.66	3047.38
324.88	3655.62
325.09	3827.65
325.30	3106.77
325.52	3030.99
325.73	3542.99
325.94	3291.09
326.15	3024.85
326.37	3030.99
326.58	3690.44
326.79	3868.61
327.00	3067.86
327.22	3074.00
327.43	3323.85
327.64	3250.13
327.85	3327.95
328.07	3086.29
328.28	3952.58
328.49	3368.91
328.70	3096.53
328.92	3026.90
329.13	3383.24
329.34	3674.06
329.55	3311.57
329.76	3219.41
329.98	3481.55
330.19	3649.48
330.40	3229.65
330.61	3264.46
330.83	3594.19
331.04	3254.22
331.25	3239.89
331.46	3131.34
331.68	3155.92
331.89	3704.78
332.10	3090.38
332.31	2983.89
332.52	3454.92
332.74	3712.97
332.95	2971.60
333.16	3053.52
333.37	3624.90
333.58	3381.20
333.80	3133.39
334.01	2836.44
334.22	3385.29
334.43	3309.52
334.64	3069.91
334.86	2985.94
335.07	3301.33
335.28	3809.22
335.49	3059.67
335.70	3178.45
335.92	3782.60
336.13	3909.57
336.34	3104.72
336.55	3020.75
336.76	3547.08
336.98	3012.56
337.19	3112.91
337.40	3200.98
337.61	3887.04
337.82	3397.58
338.04	3282.89
338.25	2934.74
338.46	3370.96
338.67	3461.07
338.88	3008.47
339.09	3063.76
339.31	3362.76
339.52	3213.26
339.73	3094.48
339.94	3090.38
340.15	3616.71
340.36	3434.44
340.58	3147.73
340.79	3057.62
341.00	3512.27
341.21	3188.69
341.42	3348.43
341.63	3030.99
341.85	3659.72
342.06	3442.64
342.27	3049.43
342.48	3254.22
342.69	3229.65
342.90	3551.18
343.12	3516.36
343.33	3049.43
343.54	3631.05
343.75	3762.12
343.96	3237.84
344.17	2983.89
344.38	3364.81
344.60	3262.41
344.81	3049.43
345.02	3094.48
345.23	3692.49
345.44	3991.49
345.65	3164.11
345.86	3243.98
346.07	3499.98
346.29	3346.38
346.50	3233.74
346.71	3147.73
346.92	3672.01
347.13	3930.05
347.34	3233.74
347.55	2992.08
347.76	3567.56
347.98	3145.68
348.19	3131.34
348.40	3182.54
348.61	3373.00
348.82	3723.21
349.03	3241.93
349.24	2977.75
349.45	3925.96
349.66	3012.56
349.88	3086.29
350.09	3047.38
350.30	3805.13
350.51	3747.78
350.72	3401.68
350.93	3078.10
351.14	3346.38
351.35	3483.59
351.56	3139.54
351.77	3117.01
351.99	3542.99
352.20	3798.98
352.41	3229.65
352.62	2912.21
352.83	3416.01
353.04	3456.97
353.25	3114.96
353.46	3121.10
353.67	3600.33
353.88	3018.71
354.09	3024.85
354.30	3176.40
354.52	3624.90
354.73	3430.35
354.94	2983.89
355.15	3131.34
355.36	3917.76
355.57	3336.14
355.78	3106.77
355.99	3084.24
356.20	3352.52
356.41	3657.67
356.62	3209.17
356.83	3135.44
357.04	3692.49
357.25	3069.91
357.46	3078.10
357.68	2975.70
357.89	3241.93
358.10	3352.52
358.31	3063.76
358.52	3114.96
358.73	3196.88
358.94	3213.26
359.15	3155.92
359.36	3155.92
359.57	3395.53
359.78	3434.44
359.99	3336.14
360.20	2942.93
360.41	3426.25
360.62	3557.32
360.83	3229.65
361.04	3213.26
361.25	3549.13
361.46	3850.18
361.67	3155.92
361.88	3090.38
362.09	3676.10
362.30	3428.30
362.51	3039.19
362.72	3231.69
362.93	3712.97
363.14	3483.59
363.35	3215.31
363.56	3026.90
363.78	3688.39
363.99	3751.88
364.20	3104.72
364.41	3110.86
364.62	3819.46
364.83	3504.07
365.04	3164.11
365.25	3160.02
365.46	3981.25
365.67	3274.70
365.88	3344.33
366.09	3094.48
366.30	3366.86
366.51	3475.40
366.72	3059.67
366.93	3082.19
367.14	3459.02
367.35	3723.21
367.56	3033.04
367.77	3180.50
367.98	3430.35
368.18	3467.21
368.39	3149.78
368.60	3078.10
368.81	3545.03
369.02	3413.96
369.23	3117.01
369.44	2922.45
369.65	3399.63
369.86	3643.34
370.07	3157.97
370.28	2985.94
370.49	3575.75
370.70	3569.61
370.91	2973.65
371.12	2981.84
371.33	3717.06
371.54	3250.13
371.75	3305.42
371.96	2832.34
372.17	3465.16
372.38	3403.72
372.59	3155.92
372.80	3057.62
373.01	3381.20
373.22	3409.87
373.43	3082.19
373.64	2987.99
373.85	3844.04
374.06	3786.69
374.26	3221.45
374.47	3229.65
374.68	3829.70
374.89	3438.54
375.10	2973.65
375.31	3213.26
375.52	3491.79
375.73	3495.88
375.94	2947.03
376.15	3233.74
376.36	3217.36
376.57	3297.23
376.78	3108.82
376.99	3176.40
377.20	3813.32
377.40	3370.96
377.61	3373.00
377.82	3139.54
378.03	3688.39
378.24	3561.42
378.45	3162.06
378.66	3174.35
378.87	3133.39
379.08	3065.81
379.29	3164.11
379.50	3254.22
379.71	3479.50
379.91	3583.95
380.12	3180.50
380.33	3233.74
380.54	3487.69
380.75	3508.17
380.96	3200.98
381.17	3098.58
381.38	3491.79
381.59	3510.22
381.80	3129.30
382.00	3344.33
382.21	3524.55
382.42	3876.80
382.63	3424.20
382.84	3282.89
383.05	3569.61
383.26	3776.45
383.47	3188.69
383.68	3141.58
383.88	3542.99
384.09	3510.22
384.30	3301.33
384.51	3254.22
384.72	3364.81
384.93	3225.55
385.14	3182.54
385.35	3397.58
385.55	3133.39
385.76	3770.31
385.97	3164.11
386.18	2998.23
386.39	3231.69
386.60	3323.85
386.81	3049.43
387.02	3024.85
387.22	3135.44
387.43	3542.99
387.64	3184.59
387.85	3403.72
388.06	3485.64
388.27	4403.13
388.48	7301.01
388.68	11013.98
388.89	13719.34
389.10	14759.71
389.31	14446.37
389.52	11675.47
389.73	10221.41
389.93	9463.66
390.14	8441.73
390.35	7982.98
390.56	7335.82
390.77	6264.74
390.98	4761.53
391.18	4091.84
391.39	3901.38
391.60	3452.88
391.81	3344.33
392.02	3082.19
392.23	3962.82
392.43	3569.61
392.64	3237.84
392.85	3250.13
393.06	3821.51
393.27	3399.63
393.47	3106.77
393.68	3254.22
393.89	3352.52
394.10	3672.01
394.31	3098.58
394.52	3045.33
394.72	3213.26
394.93	3751.88
395.14	3012.56
395.35	3219.41
395.56	3356.62
395.76	3323.85
395.97	3098.58
396.18	3299.28
396.39	3364.81
396.60	3975.11
396.80	3559.37
397.01	3362.76
397.22	3567.56
397.43	3592.14
397.64	3188.69
397.84	3174.35
398.05	3819.46
398.26	3381.20
398.47	3225.55
398.67	3379.15
398.88	3426.25
399.09	3631.05
399.30	3110.86
399.51	3223.50
399.71	3264.46
399.92	3444.68
400.13	3280.85
400.34	3166.16
400.54	3465.16
400.75	3823.56
400.96	3293.13
401.17	3475.40
401.37	3565.51
401.58	3411.92
401.79	3080.14
402.00	3213.26
402.21	4065.22
402.41	3583.95
402.62	3385.29
402.83	3465.16
403.04	3794.89
403.24	4224.96
403.45	3321.81
403.66	3403.72
403.87	3659.72
404.07	3762.12
404.28	3397.58
404.49	3508.17
404.70	3557.32
404.90	3592.14
405.11	3207.12
405.32	3231.69
405.52	3346.38
405.73	3315.66
405.94	3074.00
406.15	3239.89
406.35	3606.47
406.56	3565.51
406.77	3209.17
406.98	3039.19
407.18	3237.84
407.39	3786.69
407.60	3164.11
407.80	3182.54
408.01	3301.33
408.22	3614.66
408.43	3080.14
408.63	3270.61
408.84	3659.72
409.05	3665.86
409.25	3024.85
409.46	3223.50
409.67	3438.54
409.88	3356.62
410.08	3164.11
410.29	3147.73
410.50	3643.34
410.70	3569.61
410.91	3078.10
411.12	3231.69
411.32	3491.79
411.53	3180.50
411.74	3170.26
411.95	3157.97
412.15	3428.30
412.36	3569.61
412.57	3237.84
412.77	3303.37
412.98	3391.44
413.19	3309.52
413.39	3184.59
413.60	3172.30
413.81	3649.48
414.01	3151.82
414.22	3182.54
414.43	3286.99
414.63	3368.91
414.84	3592.14
415.05	3205.07
415.25	3049.43
415.46	3606.47
415.67	3360.72
415.87	3176.40
416.08	3076.05
416.29	3448.78
416.49	3489.74
416.70	3188.69
416.91	3149.78
417.11	3436.49
417.32	3745.73
417.53	3157.97
417.73	3291.09
417.94	3536.84
418.15	3569.61
418.35	3131.34
418.56	3262.41
418.77	3891.14
418.97	3403.72
419.18	3272.65
419.38	2863.06
419.59	3424.20
419.80	3819.46
420.00	3098.58
420.21	3188.69
420.42	3778.50
420.62	3473.36
420.83	3172.30
421.04	3119.06
421.24	3348.43
421.45	3604.42
421.65	3180.50
421.86	3219.41
422.07	3620.81
422.27	3528.65
422.48	3139.54
422.69	3004.37
422.89	3456.97
423.10	3409.87
423.30	3125.20
423.51	3176.40
423.72	3475.40
423.92	3631.05
424.13	3078.10
424.33	3282.89
424.54	3721.16
424.75	3463.12
424.95	3401.68
425.16	3076.05
425.36	3356.62
425.57	3719.11
425.78	3307.47
425.98	3286.99
426.19	3342.28
426.39	3336.14
426.60	3286.99
426.81	3289.04
427.01	3622.86
427.22	3135.44
427.42	2967.51
427.63	3084.24
427.83	3696.58
428.04	3833.80
428.25	3110.86
428.45	3262.41
428.66	3647.43
428.86	3401.68
429.07	3241.93
429.28	3205.07
429.48	3340.24
429.69	3364.81
429.89	3192.78
430.10	3035.09
430.30	3557.32
430.51	3647.43
430.71	3092.43
430.92	3237.84
431.13	3282.89
431.33	3598.28
431.54	3221.45
431.74	3321.81
431.95	3966.92
432.15	3221.45
432.36	3186.64
432.56	3246.03
432.77	3909.57
432.98	3866.56
433.18	3252.17
433.39	3051.47
433.59	3411.92
433.80	3934.15
434.00	3360.72
434.21	3184.59
434.41	3399.63
434.62	3999.68
434.82	3059.67
435.03	3114.96
435.23	3475.40
435.44	3141.58
435.64	3149.78
435.85	3172.30
436.06	3647.43
436.26	3719.11
436.47	3162.06
436.67	3065.81
436.88	3395.53
437.08	3698.63
437.29	3303.37
437.49	3373.00
437.70	3743.69
437.90	3338.19
438.11	3422.16
438.31	3229.65
438.52	3659.72
438.72	3631.05
438.93	3389.39
439.13	3278.80
439.34	3629.00
439.54	3319.76
439.75	3327.95
439.95	3336.14
440.16	3221.45
440.36	3479.50
440.57	3200.98
440.77	3139.54
440.98	3483.59
441.18	3596.23
441.39	3080.14
441.59	3133.39
441.80	3940.29
442.00	3448.78
442.21	3190.74
442.41	3057.62
442.62	3655.62
442.82	3327.95
443.02	3196.88
443.23	3139.54
443.43	3373.00
443.64	3647.43
443.84	3026.90
444.05	3188.69
444.25	3489.74
444.46	3389.39
444.66	3139.54
444.87	3385.29
445.07	3164.11
445.28	3395.53
445.48	3250.13
445.69	3258.32
445.89	3981.25
446.09	3356.62
446.30	3428.30
446.50	3551.18
446.71	5070.77
446.91	6188.96
447.12	6850.46
447.32	7219.09
447.53	7387.02
447.73	6170.53
447.93	5326.77
448.14	5167.03
448.34	5394.35
448.55	4345.79
448.75	4310.97
448.96	4167.62
449.16	4097.99
449.36	4048.83
449.57	3350.48
449.77	3315.66
449.98	3354.57
450.18	3536.84
450.39	3123.15
450.59	3475.40
450.79	3481.55
451.00	3313.61
451.20	3463.12
451.41	3127.25
451.61	3559.37
451.81	3381.20
452.02	3149.78
452.22	3184.59
452.43	3325.90
452.63	3196.88
452.84	3272.65
453.04	3121.10
453.24	3538.89
453.45	3346.38
453.65	3162.06
453.86	3231.69
454.06	3485.64
454.26	3481.55
454.47	3145.68
454.67	3297.23
454.87	3520.46
455.08	3420.11
455.28	3350.48
455.49	3340.24
455.69	3243.98
455.89	3833.80
456.10	3223.50
456.30	3114.96
456.51	3536.84
456.71	3524.55
456.91	3276.75
457.12	3155.92
457.32	3590.09
457.52	3184.59
457.73	3319.76
457.93	3393.48
458.14	3268.56
458.34	3117.01
458.54	3215.31
458.75	3119.06
458.95	3692.49
459.15	3452.88
459.36	3168.21
459.56	3243.98
459.76	3987.40
459.97	3434.44
460.17	3135.44
460.37	3174.35
460.58	3463.12
460.78	3672.01
460.99	3170.26
461.19	3139.54
461.39	3246.03
461.60	3327.95
461.80	3196.88
462.00	3057.62
462.21	3399.63
462.41	3213.26
462.61	3045.33
462.82	2912.21
463.02	3538.89
463.22	3442.64
463.43	3246.03
463.63	3024.85
463.83	3813.32
464.04	3446.73
464.24	3141.58
464.44	3137.49
464.64	3545.03
464.85	3624.90
465.05	3153.87
465.25	3155.92
465.46	3360.72
465.66	3565.51
465.86	3203.02
466.07	3196.88
466.27	3377.10
466.47	3074.00
466.68	3004.37
466.88	3209.17
467.08	3602.38
467.29	3663.82
467.49	3203.02
467.69	3319.76
467.89	3585.99
468.10	3420.11
468.30	3260.37
468.50	3235.79
468.71	3618.76
468.91	3168.21
469.11	3344.33
469.31	3225.55
469.52	3196.88
469.72	3893.19
469.92	3393.48
470.13	3215.31
470.33	3463.12
470.53	3499.98
470.73	3540.94
470.94	3798.98
471.14	4040.64
471.34	4556.73
471.54	4167.62
471.75	3915.72
471.95	3741.64
472.15	3715.02
472.36	3729.35
472.56	3583.95
472.76	3936.20
472.96	3803.08
473.17	3373.00
473.37	3295.18
473.57	3299.28
473.77	3581.90
473.98	3348.43
474.18	3004.37
474.38	4167.62
474.58	3272.65
474.79	3041.23
474.99	3262.41
475.19	3733.45
475.39	3295.18
475.60	3246.03
475.80	3198.93
476.00	3516.36
476.20	3403.72
476.41	3323.85
476.61	3237.84
476.81	3796.93
477.01	3160.02
477.21	3467.21
477.42	3248.08
477.62	3297.23
477.82	3579.85
478.02	3061.71
478.23	3123.15
478.43	3358.67
478.63	3411.92
478.83	3223.50
479.03	3239.89
479.24	3688.39
479.44	3893.19
479.64	3067.86
479.84	2963.41
480.04	3280.85
480.25	3665.86
480.45	3059.67
480.65	3157.97
480.85	3712.97
481.06	3295.18
481.26	3276.75
481.46	3207.12
481.66	3518.41
481.86	3284.94
482.06	3385.29
482.27	3198.93
482.47	3379.15
482.67	3585.99
482.87	3209.17
483.07	3137.49
483.28	3377.10
483.48	3135.44
483.68	3155.92
483.88	3086.29
484.08	3063.76
484.29	3198.93
484.49	3243.98
484.69	2953.17
484.89	3774.41
485.09	3583.95
485.29	3239.89
485.50	3360.72
485.70	3336.14
485.90	3702.73
486.10	3346.38
486.30	3125.20
486.50	3770.31
486.71	3491.79
486.91	3248.08
487.11	3227.60
487.31	3135.44
487.51	3618.76
487.71	3151.82
487.91	3110.86
488.12	3227.60
488.32	2942.93
488.52	3200.98
488.72	3004.37
488.92	3444.68
489.12	3712.97
489.32	3315.66
489.53	3114.96
489.73	3157.97
489.93	3885.00
490.13	3149.78
490.33	3016.66
490.53	3575.75
490.73	3620.81
490.94	3041.23
491.14	3274.70
491.34	3569.61
491.54	3606.47
491.74	4052.93
491.94	4499.39
492.14	5064.63
492.34	5140.40
492.54	4614.07
492.75	4122.56
492.95	4401.08
493.15	4124.61
493.35	3768.26
493.55	3792.84
493.75	3827.65
493.95	4016.07
494.15	3354.57
494.35	3196.88
494.56	3401.68
494.76	3262.41
494.96	3330.00
495.16	3151.82
495.36	3424.20
495.56	3446.73
495.76	3217.36
495.96	3229.65
496.16	3256.27
496.36	3815.37
496.56	3172.30
496.77	3246.03
496.97	3334.09
497.17	3766.21
497.37	2987.99
497.57	3278.80
497.77	3483.59
497.97	3225.55
498.17	3215.31
498.37	3147.73
498.57	3592.14
498.77	3321.81
498.97	3266.51
499.17	3575.75
499.38	3477.45
499.58	3487.69
499.78	3330.00
499.98	3344.33
500.18	3368.91
500.38	3198.93
500.58	3432.40
500.78	3733.45
500.98	5980.07
501.18	7745.42
501.38	8968.06
501.58	10022.76
501.78	10051.43
501.98	8437.63
502.18	7028.63
502.38	6213.54
502.58	6145.95
502.78	5558.19
502.98	5152.69
503.18	5109.68
503.38	4804.53
503.59	4179.90
503.79	3995.59
503.99	3665.86
504.19	3944.39
504.39	3876.80
504.59	3618.76
504.79	3491.79
504.99	3921.86
505.19	3678.15
505.39	3338.19
505.59	3493.83
505.79	3862.47
505.99	3717.06
506.19	3198.93
506.39	3450.83
506.59	3325.90
506.79	3401.68
506.99	3381.20
507.19	3098.58
507.39	3510.22
507.59	3188.69
507.79	3157.97
507.99	3090.38
508.19	3385.29
508.39	3344.33
508.59	3141.58
508.79	3196.88
508.99	3885.00
509.19	3325.90
509.39	3143.63
509.59	3121.10
509.79	3254.22
509.99	3411.92
510.19	3239.89
510.39	3309.52
510.59	3467.21
510.79	3360.72
510.99	3049.43
511.19	3162.06
511.39	3856.33
511.59	3682.25
511.79	3303.37
511.99	3143.63
512.19	3981.25
512.38	3514.31
512.58	3114.96
512.78	3121.10
512.98	3663.82
513.18	3895.24
513.38	3088.34
513.58	3170.26
513.78	3391.44
513.98	3393.48
514.18	3188.69
514.38	3155.92
514.58	3508.17
514.78	3289.04
514.98	3147.73
515.18	3172.30
515.38	3213.26
515.58	3841.99
515.78	3147.73
515.98	3074.00
516.18	3608.52
516.38	3409.87
516.57	3149.78
516.77	3080.14
516.97	3598.28
517.17	3336.14
517.37	2955.22
517.57	3143.63
517.77	3532.75
517.97	3252.17
518.17	3215.31
518.37	3018.71
518.57	3307.47
518.77	3317.71
518.97	3137.49
519.16	3141.58
519.36	3647.43
519.56	3393.48
519.76	3045.33
519.96	3252.17
520.16	3790.79
520.36	3143.63
520.56	3338.19
520.76	3127.25
520.96	3375.05
521.16	3643.34
521.35	3463.12
521.55	3219.41
521.75	3446.73
521.95	3385.29
522.15	3139.54
522.35	3057.62
522.55	3309.52
522.75	3612.62
522.95	3008.47
523.14	3110.86
523.34	3475.40
523.54	3291.09
523.74	3330.00
523.94	3264.46
524.14	3139.54
524.34	3477.45
524.54	3401.68
524.73	3137.49
524.93	3594.19
525.13	3436.49
525.33	3114.96
525.53	3434.44
525.73	3549.13
525.93	3465.16
526.13	3215.31
526.32	3051.47
526.52	3647.43
526.72	3672.01
526.92	3198.93
527.12	3065.81
527.32	3151.82
527.52	3542.99
527.71	3221.45
527.91	3248.08
528.11	3352.52
528.31	3420.11
528.51	3172.30
528.71	3289.04
528.90	3590.09
529.10	3631.05
529.30	3176.40
529.50	2920.40
529.70	3518.41
529.90	3354.57
530.09	3207.12
530.29	2930.64
530.49	3299.28
530.69	4069.31
530.89	3315.66
531.09	3319.76
531.28	3323.85
531.48	3669.96
531.68	3145.68
531.88	3155.92
532.08	3581.90
532.28	3356.62
532.47	3235.79
532.67	3254.22
532.87	3461.07
533.07	3229.65
533.27	3172.30
533.46	3200.98
533.66	3547.08
533.86	3370.96
534.06	3172.30
534.26	3168.21
534.45	3307.47
534.65	3594.19
534.85	3297.23
535.05	3084.24
535.25	3606.47
535.44	3108.82
535.64	3262.41
535.84	3217.36
536.04	3332.05
536.24	3301.33
536.43	3129.30
536.63	3129.30
536.83	3487.69
537.03	3428.30
537.22	2951.12
537.42	2951.12
537.62	3536.84
537.82	3327.95
538.02	3385.29
538.21	3172.30
538.41	4054.98
538.61	3569.61
538.81	3180.50
539.00	3270.61
539.20	3078.10
539.40	3336.14
539.60	3135.44
539.79	3426.25
539.99	3459.02
540.19	3248.08
540.39	3026.90
540.58	3211.22
540.78	3655.62
540.98	3459.02
541.18	3450.83
541.37	3188.69
541.57	3450.83
541.77	3475.40
541.97	3121.10
542.16	3000.27
542.36	3315.66
542.56	3690.44
542.76	3411.92
542.95	3248.08
543.15	3551.18
543.35	3667.91
543.54	3149.78
543.74	3086.29
543.94	3743.69
544.14	3356.62
544.33	3293.13
544.53	3112.91
544.73	3362.76
544.93	3340.24
545.12	3119.06
545.32	3254.22
545.52	3368.91
545.71	3192.78
545.91	3151.82
546.11	3061.71
546.30	3256.27
546.50	3373.00
546.70	3332.05
546.90	3258.32
547.09	2990.03
547.29	3481.55
547.49	3299.28
547.68	3237.84
547.88	3186.64
548.08	3542.99
548.27	3459.02
548.47	3131.34
548.67	3379.15
548.87	3528.65
549.06	3160.02
549.26	3043.28
549.46	3483.59
549.65	3276.75
549.85	3223.50
550.05	3200.98
550.24	3149.78
550.44	3436.49
550.64	3166.16
550.83	3262.41
551.03	3661.77
551.23	3631.05
551.42	3176.40
551.62	3289.04
551.82	3452.88
552.01	3342.28
552.21	3516.36
552.41	3170.26
552.60	3766.21
552.80	3489.74
553.00	3127.25
553.19	3096.53
553.39	3846.09
553.59	3059.67
553.78	3319.76
553.98	3096.53
554.17	3125.20
554.37	3518.41
554.57	3237.84
554.76	3114.96
554.96	3315.66
555.16	3551.18
555.35	3250.13
555.55	3407.82
555.75	3440.59
555.94	3583.95
556.14	3057.62
556.33	3235.79
556.53	3450.83
556.73	3436.49
556.92	3164.11
557.12	3184.59
557.32	3917.76
557.51	3667.91
557.71	3203.02
557.90	3397.58
558.10	3774.41
558.30	3301.33
558.49	3200.98
558.69	3114.96
558.88	3563.47
559.08	3411.92
559.28	3223.50
559.47	3293.13
559.67	3585.99
559.86	3913.67
560.06	3180.50
560.26	3106.77
560.45	3420.11
560.65	3409.87
560.84	3499.98
561.04	3071.95
561.24	3600.33
561.43	3207.12
561.63	3442.64
561.82	3286.99
562.02	3508.17
562.22	3180.50
562.41	3114.96
562.61	3080.14
562.80	3215.31
563.00	4026.31
563.19	3200.98
563.39	3243.98
563.59	3516.36
563.78	3190.74
563.98	2951.12
564.17	3180.50
564.37	3012.56
564.56	3416.01
564.76	3125.20
564.96	3248.08
565.15	3491.79
565.35	3893.19
565.54	3289.04
565.74	3184.59
565.93	3497.93
566.13	3495.88
566.32	3264.46
566.52	3291.09
566.71	3450.83
566.91	3547.08
567.11	3293.13
567.30	3092.43
567.50	3491.79
567.69	3524.55
567.89	3143.63
568.08	3010.51
568.28	3555.27
568.47	3205.07
568.67	3127.25
568.86	3131.34
569.06	3655.62
569.25	3338.19
569.45	3090.38
569.64	3276.75
569.84	3375.05
570.04	3557.32
570.23	3188.69
570.43	3270.61
570.62	3444.68
570.82	3798.98
571.01	3069.91
571.21	3117.01
571.40	3192.78
571.60	3598.28
571.79	3155.92
571.99	3123.15
572.18	3233.74
572.38	3549.13
572.57	3209.17
572.77	3250.13
572.96	4089.79
573.16	3538.89
573.35	3239.89
573.55	3295.18
573.74	3491.79
573.94	3321.81
574.13	3160.02
574.33	3368.91
574.52	3729.35
574.71	3520.46
574.91	3278.80
575.10	3008.47
575.30	3344.33
575.49	3219.41
575.69	3174.35
575.88	3114.96
576.08	3375.05
576.27	3616.71
576.47	3057.62
576.66	3315.66
576.86	3725.26
577.05	3428.30
577.25	3272.65
577.44	3321.81
577.64	3278.80
577.83	3579.85
578.02	3192.78
578.22	3327.95
578.41	3741.64
578.61	3280.85
578.80	3041.23
579.00	3227.60
579.19	3409.87
579.39	3536.84
579.58	3307.47
579.77	3237.84
579.97	3696.58
580.16	3626.95
580.36	3266.51
580.55	3168.21
580.75	3524.55
580.94	3471.31
581.13	3327.95
581.33	3502.03
581.52	3364.81
581.72	3821.51
581.91	3278.80
582.11	3180.50
582.30	3657.67
582.49	3459.02
582.69	3493.83
582.88	3282.89
583.08	3459.02
583.27	3614.66
583.47	3307.47
583.66	3041.23
583.85	3182.54
584.05	3291.09
584.24	3340.24
584.44	3215.31
584.63	3723.21
584.82	3626.95
585.02	3375.05
585.21	3352.52
585.41	3530.70
585.60	3405.77
585.79	3411.92
585.99	3553.23
586.18	3516.36
586.37	4470.72
586.57	6616.99
586.76	18300.65
586.96	37150.15
587.15	49542.41
587.34	57838.73
587.54	60808.29
587.73	53392.59
587.93	38895.02
588.12	30162.48
588.31	24299.15
588.51	22050.48
588.70	20506.31
588.89	17751.79
589.09	15132.44
589.28	13293.37
589.47	10477.41
589.67	7743.37
589.86	6272.93
590.06	4921.27
590.25	4452.28
590.44	3776.45
590.64	3581.90
590.83	3649.48
591.02	3778.50
591.22	3254.22
591.41	3305.42
591.60	3418.06
591.80	4026.31
591.99	3057.62
592.18	3147.73
592.38	3631.05
592.57	3266.51
592.76	3151.82
592.96	3229.65
593.15	3416.01
593.34	3684.30
593.54	3123.15
593.73	3284.94
593.92	3409.87
594.12	3588.04
594.31	3237.84
594.50	3307.47
594.70	3551.18
594.89	4114.37
595.08	3102.67
595.28	3352.52
595.47	4128.70
595.66	3592.14
595.86	3086.29
596.05	3045.33
596.24	3411.92
596.43	3880.90
596.63	3256.27
596.82	3336.14
597.01	3504.07
597.21	3817.41
597.40	3047.38
597.59	3215.31
597.79	3379.15
597.98	3659.72
598.17	3278.80
598.36	3268.56
598.56	3651.53
598.75	3403.72
598.94	3282.89
599.14	3235.79
599.33	3311.57
599.52	3590.09
599.71	3303.37
599.91	3192.78
600.10	3549.13
600.29	3491.79
600.48	3266.51
600.68	3379.15
600.87	3475.40
601.06	3284.94
601.26	3319.76
601.45	3356.62
601.64	3385.29
601.83	3823.56
602.03	3098.58
602.22	3039.19
602.41	3631.05
602.60	3911.62
602.80	3223.50
602.99	3327.95
603.18	3217.36
603.37	3469.26
603.57	3096.53
603.76	3217.36
603.95	3692.49
604.14	3364.81
604.34	3061.71
604.53	3065.81
604.72	3534.79
604.91	3641.29
605.10	3108.82
605.30	3078.10
605.49	3891.14
605.68	3653.58
605.87	3205.07
606.07	3155.92
606.26	3471.31
606.45	3530.70
606.64	3131.34
606.84	3033.04
607.03	3403.72
607.22	3665.86
607.41	3133.39
607.60	3104.72
607.80	3667.91
607.99	3375.05
608.18	3196.88
608.37	3252.17
608.56	3303.37
608.76	3598.28
608.95	3319.76
609.14	3071.95
609.33	3753.93
609.52	3780.55
609.72	3272.65
609.91	3289.04
610.10	3502.03
610.29	3727.30
610.48	3321.81
610.68	3293.13
610.87	3504.07
611.06	3626.95
611.25	3119.06
611.44	3346.38
611.63	3317.71
611.83	3682.25
612.02	3096.53
612.21	3225.55
612.40	3061.71
612.59	3196.88
612.79	3026.90
612.98	3270.61
613.17	3717.06
613.36	3499.98
613.55	3358.67
613.74	3067.86
613.93	3530.70
614.13	3499.98
614.32	3303.37
614.51	3213.26
614.70	3317.71
614.89	3330.00
615.08	3276.75
615.28	3413.96
615.47	3184.59
615.66	3526.60
615.85	3180.50
616.04	3182.54
616.23	3510.22
616.42	3465.16
616.62	3172.30
616.81	3213.26
617.00	3387.34
617.19	3499.98
617.38	3180.50
617.57	3297.23
617.76	3553.23
617.95	3497.93
618.15	3315.66
618.34	3368.91
618.53	3141.58
618.72	3725.26
618.91	3284.94
619.10	3219.41
619.29	3452.88
619.48	3393.48
619.68	3090.38
619.87	3203.02
620.06	3084.24
620.25	3571.66
620.44	3102.67
620.63	3098.58
620.82	3489.74
621.01	3493.83
621.20	3258.32
621.39	3264.46
621.59	3577.80
621.78	3403.72
621.97	3172.30
622.16	3291.09
622.35	3528.65
622.54	3602.38
622.73	3305.42
622.92	2914.26
623.11	3729.35
623.30	3327.95
623.49	3307.47
623.68	3080.14
623.88	3747.78
624.07	3239.89
624.26	3061.71
624.45	3065.81
624.64	3395.53
624.83	3463.12
625.02	3196.88
625.21	3157.97
625.40	3327.95
625.59	3663.82
625.78	3182.54
625.97	3264.46
626.16	3715.02
626.35	3641.29
626.54	3094.48
626.74	3413.96
626.93	3307.47
627.12	3397.58
627.31	3233.74
627.50	3223.50
627.69	3667.91
627.88	3266.51
628.07	3090.38
628.26	3098.58
628.45	3303.37
628.64	3178.45
628.83	3098.58
629.02	3086.29
629.21	3592.14
629.40	3536.84
629.59	2996.18
629.78	3153.87
629.97	3420.11
630.16	3459.02
630.35	3168.21
630.54	3330.00
630.73	3373.00
630.92	3424.20
631.11	3186.64
631.30	3235.79
631.49	3641.29
631.68	3450.83
631.87	3250.13
632.06	3065.81
632.25	3940.29
632.44	3475.40
632.63	3262.41
632.82	3254.22
633.01	3411.92
633.20	3428.30
633.39	3182.54
633.58	2938.84
633.77	3475.40
633.96	3569.61
634.15	3344.33
634.34	3248.08
634.53	3504.07
634.72	3229.65
634.91	3004.37
635.10	3151.82
635.29	3614.66
635.48	3461.07
635.67	3057.62
635.86	3043.28
636.05	3710.92
636.24	3469.26
636.43	3162.06
636.62	3243.98
636.81	2955.22
637.00	3377.10
637.19	3049.43
637.38	3168.21
637.57	3303.37
637.76	3381.20
637.95	3381.20
638.14	3313.61
638.33	3499.98
638.52	3502.03
638.71	3000.27
638.89	3078.10
639.08	3993.54
639.27	3663.82
639.46	3385.29
639.65	3688.39
639.84	3835.85
640.03	4122.56
640.22	3620.81
640.41	3532.75
640.60	3444.68
640.79	3624.90
640.98	3364.81
641.17	3295.18
641.36	3667.91
641.55	3592.14
641.74	3094.48
641.92	3043.28
642.11	3194.83
642.30	3389.39
642.49	3084.24
642.68	3176.40
642.87	3536.84
643.06	3557.32
643.25	3018.71
643.44	3076.05
643.63	3473.36
643.82	3665.86
644.00	3088.34
644.19	3239.89
644.38	3190.74
644.57	3620.81
644.76	3172.30
644.95	3325.90
645.14	3491.79
645.33	3370.96
645.52	3268.56
645.71	3076.05
645.89	3233.74
646.08	3409.87
646.27	3262.41
646.46	3352.52
646.65	3239.89
646.84	3459.02
647.03	3143.63
647.22	3301.33
647.40	3483.59
647.59	3395.53
647.78	3000.27
647.97	3237.84
648.16	3188.69
648.35	3737.54
648.54	3487.69
648.73	3221.45
648.91	3641.29
649.10	3411.92
649.29	3162.06
649.48	3121.10
649.67	3575.75
649.86	3411.92
650.05	3200.98
650.23	3370.96
650.42	3286.99
650.61	3659.72
650.80	3420.11
650.99	3368.91
651.18	3653.58
651.36	3676.10
651.55	3180.50
651.74	3346.38
651.93	3330.00
652.12	3413.96
652.31	3223.50
652.49	3297.23
652.68	3377.10
652.87	3792.84
653.06	3293.13
653.25	3475.40
653.44	3499.98
653.62	3741.64
653.81	3235.79
654.00	3188.69
654.19	3626.95
654.38	4007.87
654.56	3282.89
654.75	3178.45
654.94	3577.80
655.13	3487.69
655.32	3123.15
655.51	3344.33
655.69	3297.23
655.88	3567.56
656.07	3018.71
656.26	3174.35
656.45	3164.11
656.63	3499.98
656.82	3192.78
657.01	3518.41
657.20	3325.90
657.38	3786.69
657.57	3157.97
657.76	3035.09
657.95	3557.32
658.14	3346.38
658.32	3344.33
658.51	3057.62
658.70	3467.21
658.89	3491.79
659.08	3192.78
659.26	3467.21
659.45	3256.27
659.64	3573.71
659.83	3172.30
660.01	3594.19
660.20	3459.02
660.39	3811.27
660.58	2844.63
660.76	3221.45
660.95	3088.34
661.14	3473.36
661.33	3035.09
661.51	3203.02
661.70	3266.51
661.89	3549.13
662.08	3248.08
662.26	3106.77
662.45	3256.27
662.64	3776.45
662.83	3153.87
663.01	3057.62
663.20	3358.67
663.39	3813.32
663.58	3215.31
663.76	3102.67
663.95	3581.90
664.14	3252.17
664.32	3301.33
664.51	3028.95
664.70	3002.32
664.89	3512.27
665.07	3071.95
665.26	3348.43
665.45	3145.68
665.64	3567.56
665.82	3192.78
666.01	3352.52
666.20	3143.63
666.38	3618.76
666.57	3549.13
666.76	5697.45
666.95	12816.19
667.13	18845.41
667.32	22531.75
667.51	24587.91
667.69	25431.68
667.88	20821.70
668.07	15224.60
668.25	13098.81
668.44	11566.93
668.63	10254.18
668.81	8918.90
669.00	7788.43
669.19	7088.02
669.38	6354.85
669.56	5326.77
669.75	4859.83
669.94	4372.41
670.12	3780.55
670.31	3452.88
670.50	3446.73
670.68	3579.85
670.87	3577.80
671.06	3071.95
671.24	3223.50
671.43	3819.46
671.62	3444.68
671.80	3225.55
671.99	3266.51
672.18	3397.58
672.36	3639.24
672.55	3336.14
672.74	3315.66
672.92	3330.00
673.11	3520.46
673.29	3030.99
673.48	3397.58
673.67	3334.09
673.85	3655.62
674.04	3059.67
674.23	3241.93
674.41	3835.85
674.60	3229.65
674.79	2891.73
674.97	3002.32
675.16	3569.61
675.34	3663.82
675.53	3157.97
675.72	3299.28
675.90	3811.27
676.09	3364.81
676.28	3307.47
676.46	3033.04
676.65	3545.03
676.83	3278.80
677.02	3286.99
677.21	3268.56
677.39	3452.88
677.58	3235.79
677.77	3239.89
677.95	3110.86
678.14	3403.72
678.32	3360.72
678.51	3162.06
678.70	3495.88
678.88	3295.18
679.07	3495.88
679.25	3186.64
679.44	3237.84
679.63	3174.35
679.81	3508.17
680.00	3370.96
680.18	3256.27
680.37	3831.75
680.55	3358.67
680.74	3039.19
680.93	2940.88
681.11	3479.50
681.30	3442.64
681.48	3119.06
681.67	3205.07
681.85	3395.53
682.04	3266.51
682.23	3362.76
682.41	3379.15
682.60	3387.34
682.78	3385.29
682.97	3014.61
683.15	3272.65
683.34	3532.75
683.53	3692.49
683.71	3065.81
683.90	3139.54
684.08	3811.27
684.27	3352.52
684.45	3327.95
684.64	3323.85
684.82	3393.48
685.01	3585.99
685.19	3131.34
685.38	3483.59
685.57	3330.00
685.75	3319.76
685.94	3135.44
686.12	3160.02
686.31	3305.42
686.49	3846.09
686.68	2975.70
686.86	3196.88
687.05	3471.31
687.23	3778.50
687.42	3260.37
687.60	3049.43
687.79	3661.77
687.97	3792.84
688.16	3299.28
688.34	3338.19
688.53	3043.28
688.71	3524.55
688.90	3583.95
689.08	3246.03
689.27	3059.67
689.45	3604.42
689.64	3223.50
689.82	3254.22
690.01	3608.52
690.19	3499.98
690.38	3215.31
690.56	3309.52
690.75	3229.65
690.93	3385.29
691.12	3153.87
691.30	3215.31
691.49	3327.95
691.67	3426.25
691.86	3581.90
692.04	3162.06
692.23	3317.71
692.41	3512.27
692.60	3516.36
692.78	3409.87
692.97	3444.68
693.15	3581.90
693.34	3405.77
693.52	3411.92
693.71	3284.94
693.89	3295.18
694.08	3074.00
694.26	3311.57
694.44	3669.96
694.63	3491.79
694.81	3110.86
695.00	3213.26
695.18	3721.16
695.37	4022.21
695.55	3356.62
695.74	3246.03
695.92	3272.65
696.10	3704.78
696.29	3092.43
696.47	3198.93
696.66	3209.17
696.84	3246.03
697.03	3225.55
697.21	3418.06
697.40	4720.57
697.58	3723.21
697.76	3143.63
697.95	3180.50
698.13	3215.31
698.32	3307.47
698.50	3088.34
698.68	3254.22
698.87	3510.22
699.05	3839.94
699.24	3243.98
699.42	3200.98
699.61	3520.46
699.79	3571.66
699.97	3182.54
700.16	3145.68
700.34	3254.22
700.53	3495.88
700.71	3448.78
700.89	3270.61
701.08	3358.67
701.26	3411.92
701.45	3522.51
701.63	3184.59
701.81	3356.62
702.00	3286.99
702.18	3194.83
702.37	3139.54
702.55	3788.74
702.73	3409.87
702.92	3149.78
703.10	3485.64
703.28	3540.94
703.47	3121.10
703.65	3426.25
703.84	3319.76
704.02	3327.95
704.20	3676.10
704.39	3153.87
704.57	3207.12
704.75	3602.38
704.94	3536.84
705.12	3444.68
705.30	4059.07
705.49	8152.96
705.67	14604.07
705.86	19353.30
706.04	21618.36
706.22	23903.89
706.41	22402.73
706.59	16621.31
706.77	13426.48
706.96	11872.07
707.14	10905.43
707.32	9353.07
707.51	8032.13
707.69	6879.13
707.87	5867.43
708.06	4847.54
708.24	4239.30
708.42	4005.83
708.61	4245.44
708.79	3225.55
708.97	3293.13
709.16	3598.28
709.34	3469.26
709.52	3262.41
709.71	3143.63
709.89	3516.36
710.07	3270.61
710.26	3098.58
710.44	3229.65
710.62	3690.44
710.80	3481.55
710.99	3280.85
711.17	3338.19
711.35	3252.17
711.54	3370.96
711.72	3368.91
711.90	3282.89
712.09	3545.03
712.27	3346.38
712.45	3336.14
712.63	3262.41
712.82	3499.98
713.00	3413.96
713.18	3332.05
713.37	3364.81
713.55	3565.51
713.73	3479.50
713.91	3307.47
714.10	3188.69
714.28	3446.73
714.46	3569.61
714.65	3266.51
714.83	3334.09
715.01	3444.68
715.19	3379.15
715.38	3217.36
715.56	3332.05
715.74	3323.85
715.92	3278.80
716.11	3585.99
716.29	2949.08
716.47	3409.87
716.65	3385.29
716.84	3024.85
717.02	3198.93
717.20	2998.23
717.38	3274.70
717.57	3354.57
717.75	3278.80
717.93	3319.76
718.11	3688.39
718.30	3137.49
718.48	3282.89
718.66	3667.91
718.84	3612.62
719.03	3205.07
719.21	3117.01
719.39	3846.09
719.57	3624.90
719.75	3223.50
719.94	3166.16
720.12	3409.87
720.30	3465.16
720.48	3231.69
720.67	3157.97
720.85	3229.65
721.03	3364.81
721.21	3157.97
721.39	3354.57
721.58	3647.43
721.76	3422.16
721.94	3276.75
722.12	3266.51
722.30	3827.65
722.49	3295.18
722.67	3215.31
722.85	3260.37
723.03	3119.06
723.21	3293.13
723.40	3340.24
723.58	3360.72
723.76	3661.77
723.94	3631.05
724.12	3176.40
724.30	3459.02
724.49	3690.44
724.67	3117.01
724.85	3264.46
725.03	3110.86
725.21	3530.70
725.40	3717.06
725.58	3213.26
725.76	3356.62
725.94	3633.10
726.12	3205.07
726.30	3274.70
726.49	3119.06
726.67	3364.81
726.85	3528.65
727.03	3925.96
727.21	4925.36
727.39	6096.80
727.57	6467.49
727.76	6786.97
727.94	6739.87
728.12	5859.24
728.30	5068.72
728.48	4945.84
728.66	4446.14
728.84	4364.22
729.03	3878.85
729.21	3674.06
729.39	3450.83
729.57	3440.59
729.75	3491.79
729.93	3506.12
730.11	3166.16
730.30	3330.00
730.48	3411.92
730.66	3338.19
730.84	3336.14
731.02	3549.13
731.20	3364.81
731.38	3270.61
731.56	3108.82
731.74	3129.30
731.93	3479.50
732.11	3362.76
732.29	3174.35
732.47	3581.90
732.65	3536.84
732.83	3436.49
733.01	3401.68
733.19	3317.71
733.37	3489.74
733.56	3188.69
733.74	3084.24
733.92	3659.72
734.10	3461.07
734.28	3403.72
734.46	3139.54
734.64	3332.05
734.82	3311.57
735.00	3125.20
735.18	3094.48
735.36	3549.13
735.54	3452.88
735.73	3157.97
735.91	3358.67
736.09	3835.85
736.27	3411.92
736.45	3252.17
736.63	2969.55
736.81	3317.71
736.99	3663.82
737.17	3446.73
737.35	3227.60
737.53	3487.69
737.71	3395.53
737.89	3430.35
738.07	3157.97
738.25	3295.18
738.43	3123.15
738.61	3254.22
738.80	3098.58
738.98	3237.84
739.16	3336.14
739.34	3135.44
739.52	3528.65
739.70	3368.91
739.88	3463.12
740.06	3307.47
740.24	2996.18
740.42	3657.67
740.60	3053.52
740.78	3205.07
740.96	2987.99
741.14	3350.48
741.32	3428.30
741.50	3049.43
741.68	3530.70
741.86	3749.83
742.04	3243.98
742.22	3149.78
742.40	3119.06
742.58	3594.19
742.76	3252.17
742.94	3485.64
743.12	3051.47
743.30	3389.39
743.48	3606.47
743.66	3135.44
743.84	3192.78
744.02	3340.24
744.20	3422.16
744.38	3106.77
744.56	3162.06
744.74	3876.80
744.92	3538.89
745.10	3381.20
745.28	3276.75
745.46	3751.88
745.64	3403.72
745.82	3180.50
746.00	3106.77
746.18	3655.62
746.36	3262.41
746.54	3219.41
746.72	3182.54
746.90	3258.32
747.08	3590.09
747.26	3180.50
747.44	3256.27
747.62	3510.22
747.80	3536.84
747.98	3356.62
748.15	3209.17
748.33	3770.31
748.51	3426.25
748.69	3307.47
748.87	3000.27
749.05	3411.92
749.23	3373.00
749.41	3139.54
749.59	3151.82
749.77	3684.30
749.95	3385.29
750.13	3172.30
750.31	3393.48
750.49	3373.00
750.67	3620.81
750.85	3317.71
751.03	3176.40
751.20	3899.33
751.38	3444.68
751.56	3307.47
751.74	3180.50
751.92	3440.59
752.10	3172.30
752.28	3377.10
752.46	3157.97
752.64	3393.48
752.82	3381.20
753.00	3338.19
753.18	3155.92
753.35	3395.53
753.53	3407.82
753.71	3131.34
753.89	3229.65
754.07	3510.22
754.25	3758.02
754.43	3334.09
754.61	3141.58
754.79	3600.33
754.97	3420.11
755.14	3393.48
755.32	3131.34
755.50	3461.07
755.68	3459.02
755.86	3127.25
756.04	3225.55
756.22	3041.23
756.40	3624.90
756.57	3416.01
756.75	3131.34
756.93	3674.06
757.11	3635.14
757.29	3094.48
757.47	3117.01
757.65	3049.43
757.82	2992.08
758.00	3149.78
758.18	3133.39
758.36	3254.22
758.54	3782.60
758.72	3004.37
758.90	3301.33
759.07	3475.40
759.25	3264.46
759.43	3360.72
759.61	3102.67
759.79	4540.35
759.97	3665.86
760.15	3270.61
760.32	3209.17
760.50	3622.86
760.68	3790.79
760.86	3102.67
761.04	3387.34
761.22	3581.90
761.39	3469.26
761.57	3395.53
761.75	3225.55
761.93	3575.75
762.11	3436.49
762.28	3239.89
762.46	3151.82
762.64	3649.48
762.82	3108.82
763.00	3106.77
763.18	3450.83
763.35	3147.73
763.53	3631.05
763.71	3311.57
763.89	3145.68
764.07	3467.21
764.24	3444.68
764.42	3264.46
764.60	3256.27
764.78	3491.79
764.96	3637.19
765.13	3354.57
765.31	3098.58
765.49	3639.24
765.67	3252.17
765.84	3203.02
766.02	3082.19
766.20	3139.54
766.38	3438.54
766.56	3327.95
766.73	3336.14
766.91	3459.02
767.09	3534.79
767.27	3188.69
767.44	3006.42
767.62	3641.29
767.80	3479.50
767.98	3129.30
768.15	3196.88
768.33	3678.15
768.51	3667.91
768.69	3360.72
768.87	3137.49
769.04	3342.28
769.22	4022.21
769.40	3344.33
769.58	3368.91
769.75	3532.75
769.93	3669.96
770.11	3213.26
770.28	3086.29
770.46	3581.90
770.64	3610.57
770.82	3178.45
770.99	3141.58
771.17	3620.81
771.35	3301.33
771.53	3299.28
771.70	3119.06
771.88	3542.99
772.06	3483.59
772.23	3170.26
772.41	3264.46
772.59	3364.81
772.77	3286.99
772.94	3205.07
773.12	3344.33
773.30	3366.86
773.47	3549.13
773.65	3057.62
773.83	3418.06
774.01	3436.49
774.18	3030.99
774.36	3215.31
774.54	3102.67
774.71	3518.41
774.89	3069.91
775.07	3139.54
775.24	3211.22
775.42	3270.61
775.60	3801.03
775.78	3098.58
775.95	2983.89
776.13	3059.67
776.31	3137.49
776.48	3373.00
776.66	3444.68
776.84	3358.67
777.01	3231.69
777.19	3106.77
777.37	3133.39
777.54	3559.37
777.72	3870.66
777.90	3313.61
778.07	3256.27
778.25	4134.85
778.43	3655.62
778.60	3162.06
778.78	3223.50
778.96	3663.82
779.13	3188.69
779.31	3295.18
779.49	3270.61
779.66	3497.93
779.84	3356.62
780.01	3211.22
780.19	3149.78
780.37	3735.50
780.54	3602.38
780.72	3039.19
780.90	3149.78
781.07	3389.39
781.25	3303.37
781.43	3432.40
781.60	3186.64
781.78	3667.91
781.95	3512.27
782.13	3149.78
782.31	3149.78
782.48	3018.71
782.66	3393.48
782.83	3422.16
783.01	3377.10
783.19	3633.10
783.36	3342.28
783.54	3102.67
783.72	3297.23
783.89	3303.37
784.07	3538.89
784.24	3342.28
784.42	3413.96
784.60	3512.27
784.77	3588.04
784.95	2985.94
785.12	3094.48
785.30	3491.79
785.47	3321.81
785.65	3076.05
785.83	3354.57
786.00	3362.76
786.18	3387.34
786.35	3106.77
786.53	3205.07
786.71	3667.91
786.88	3524.55
787.06	3289.04
787.23	3299.28
787.41	3180.50
787.58	3407.82
787.76	3123.15
787.94	3182.54
788.11	3459.02
788.29	3241.93
788.46	3180.50
788.64	3035.09
788.81	3327.95
788.99	3266.51
789.16	3203.02
789.34	3205.07
789.52	3309.52
789.69	3235.79
789.87	3002.32
790.04	3186.64
790.22	3422.16
790.39	3911.62
790.57	3063.76
790.74	3213.26
790.92	3637.19
791.09	3088.34
791.27	3286.99
791.44	3203.02
791.62	3315.66
791.79	3557.32
791.97	3327.95
792.15	3557.32
792.32	3524.55
792.50	3606.47
792.67	3305.42
792.85	3477.45
793.02	3405.77
793.20	3366.86
793.37	3067.86
793.55	3069.91
793.72	3117.01
793.90	3592.14
794.07	3104.72
794.25	3119.06
794.42	3411.92
794.60	3344.33
794.77	3176.40
794.95	3362.76
795.12	3663.82
795.30	3379.15
795.47	2990.03
795.65	3549.13
795.82	3551.18
796.00	3272.65
796.17	3254.22
796.34	3182.54
796.52	3467.21
796.69	3565.51
796.87	3256.27
797.04	3348.43
797.22	3678.15
797.39	3465.16
797.57	3426.25
797.74	3340.24
797.92	3522.51
798.09	3330.00
798.27	3512.27
798.44	3143.63
798.62	3243.98
798.79	3473.36
798.96	3315.66
799.14	3190.74
799.31	4009.92
799.49	3366.86
799.66	3235.79
799.84	3229.65
800.01	3231.69
800.19	3475.40
800.36	3004.37
800.53	3164.11
800.71	3499.98
800.88	3852.23
801.06	3164.11
801.23	3170.26
801.41	3401.68
801.58	3373.00
801.75	3147.73
801.93	3264.46
802.10	3551.18
802.28	3336.14
802.45	3233.74
802.63	3270.61
802.80	3672.01
802.97	3276.75
803.15	3237.84
803.32	3110.86
803.50	3178.45
803.67	3295.18
803.84	3129.30
804.02	3289.04
804.19	3315.66
804.37	2885.59
804.54	3053.52
804.71	3139.54
804.89	3393.48
805.06	3192.78
805.24	3125.20
805.41	3086.29
805.58	3180.50
805.76	3930.05
805.93	3137.49
806.10	3295.18
806.28	3528.65
806.45	3438.54
806.63	3391.44
806.80	3233.74
806.97	3489.74
807.15	3459.02
807.32	3327.95
807.49	3164.11
807.67	3172.30
807.84	3489.74
808.01	2963.41
808.19	3426.25
808.36	3903.43
808.54	3373.00
808.71	3139.54
808.88	3196.88
809.06	3688.39
809.23	3766.21
809.40	3284.94
809.58	3196.88
809.75	3430.35
809.92	3231.69
810.10	3469.26
810.27	3098.58
810.44	3573.71
810.62	3583.95
810.79	3184.59
810.96	3182.54
811.14	3243.98
811.31	3583.95
811.48	3424.20
811.66	3360.72
811.83	3766.21
812.00	3499.98
812.18	3368.91
812.35	3524.55
812.52	3270.61
812.69	3373.00
812.87	3145.68
813.04	3098.58
813.21	3432.40
813.39	3256.27
813.56	3135.44
813.73	3504.07
813.91	3094.48
814.08	3434.44
814.25	3229.65
814.42	2996.18
814.60	3362.76
814.77	3403.72
814.94	3147.73
815.12	3246.03
815.29	3790.79
815.46	3297.23
815.63	3194.83
815.81	3139.54
815.98	3393.48
816.15	3377.10
816.33	3241.93
816.50	3098.58
816.67	3428.30
816.84	3450.83
817.02	3147.73
817.19	3168.21
817.36	3510.22
817.53	3553.23
817.71	3033.04
817.88	3196.88
818.05	3405.77
818.22	3397.58
818.40	3295.18
818.57	3082.19
818.74	3665.86
818.91	3295.18
819.09	3364.81
819.26	3291.09
819.43	3284.94
819.60	3233.74
819.78	3409.87
819.95	3246.03
820.12	3225.55
820.29	3739.59
820.47	3463.12
820.64	3121.10
820.81	3166.16
820.98	3278.80
821.15	3209.17
821.33	3344.33
821.50	3051.47
821.67	3585.99
821.84	3205.07
822.02	3123.15
822.19	3559.37
822.36	3354.57
822.53	3170.26
822.70	3018.71
822.88	3373.00
823.05	3690.44
823.22	3274.70
823.39	3207.12
823.56	3364.81
823.74	3903.43
823.91	2975.70
824.08	3061.71
824.25	3293.13
824.42	3715.02
824.60	2967.51
824.77	3274.70
824.94	3352.52
825.11	3534.79
825.28	3063.76
825.45	3370.96
825.63	3440.59
825.80	3190.74
825.97	3305.42
826.14	3278.80
826.31	3205.07
826.48	3567.56
826.66	3176.40
826.83	3182.54
827.00	3358.67
827.17	3270.61
827.34	3200.98
827.51	3104.72
827.69	3319.76
827.86	3117.01
828.03	3176.40
828.20	3188.69
828.37	3309.52
828.54	3540.94
828.71	3141.58
828.89	3286.99
829.06	3426.25
829.23	3782.60
829.40	3176.40
829.57	3131.34
829.74	3520.46
829.91	3266.51
830.09	3178.45
830.26	3315.66
830.43	3870.66
830.60	3309.52
830.77	3303.37
830.94	3368.91
831.11	3600.33
831.28	3405.77
831.46	3330.00
831.63	3186.64
831.80	3684.30
831.97	3221.45
832.14	3295.18
832.31	3198.93
832.48	3467.21
832.65	3690.44
832.82	3385.29
832.99	3262.41
833.17	3282.89
833.34	3686.34
833.51	3104.72
833.68	2990.03
833.85	3690.44
834.02	3209.17
834.19	3188.69
834.36	3229.65
834.53	3581.90
834.70	3588.04
834.87	3264.46
835.04	2918.36
835.22	3235.79
835.39	3317.71
835.56	3018.71
835.73	3061.71
835.90	3676.10
836.07	3278.80
836.24	3254.22
836.41	2996.18
836.58	3225.55
836.75	3622.86
836.92	3059.67
837.09	2973.65
837.26	3672.01
837.43	3477.45
837.60	3006.42
837.77	3039.19
837.94	3633.10
838.12	3770.31
838.29	2920.40
838.46	2942.93
838.63	3180.50
838.80	3770.31
838.97	3069.91
839.14	3045.33
839.31	3520.46
839.48	3602.38
839.65	3037.14
839.82	3153.87
839.99	3493.83
840.16	3436.49
840.33	2959.31
840.50	3141.58
840.67	3303.37
840.84	2967.51
841.01	2936.79
841.18	2987.99
841.35	3393.48
841.52	3622.86
841.69	3303.37
841.86	3049.43
842.03	3395.53
842.20	3641.29
842.37	3033.04
842.54	3110.86
842.71	3461.07
842.88	3164.11
843.05	3014.61
843.22	3024.85
843.39	3639.24
843.56	3272.65
843.73	3004.37
843.90	3143.63
844.07	3424.20
844.24	3598.28
844.41	3053.52
844.58	3074.00
844.75	3395.53
844.92	3524.55
845.09	3127.25
845.26	2957.27
845.43	3633.10
845.60	3336.14
845.77	3229.65
845.94	3090.38
846.10	3581.90
846.27	3127.25
846.44	2936.79
846.61	2889.68
846.78	3606.47
846.95	3590.09
847.12	2951.12
847.29	3010.51
847.46	3270.61
847.63	3690.44
847.80	2930.64
847.97	3082.19
848.14	3880.90
848.31	3393.48
848.48	2910.16
848.65	2936.79
848.82	3317.71
848.98	4087.75
849.15	3123.15
849.32	3211.22
849.49	3704.78
849.66	3375.05
849.83	3043.28
850.00	2998.23
850.17	3598.28
850.34	3336.14
850.51	2992.08
850.68	2975.70
850.85	3950.53
851.01	3526.60
851.18	3010.51
851.35	3057.62
851.52	3583.95
851.69	3811.27
851.86	2971.60
852.03	2985.94
852.20	3502.03
852.37	3411.92
852.53	2885.59
852.70	2922.45
852.87	3459.02
853.04	3635.14
853.21	2967.51
853.38	3373.00
853.55	3823.56
853.72	3772.36
853.89	2947.03
854.05	3041.23
854.22	3393.48
854.39	3364.81
854.56	3028.95
854.73	3125.20
854.90	3266.51
855.07	3368.91
855.23	2895.83
855.40	2889.68
855.57	3350.48
855.74	2963.41
855.91	3307.47
856.08	2887.64
856.25	3119.06
856.41	3327.95
856.58	2990.03
856.75	3080.14
856.92	3239.89
857.09	3639.24
857.26	2871.25
857.42	3045.33
857.59	3575.75
857.76	3401.68
857.93	2928.60
858.10	3143.63
858.27	3237.84
858.43	3493.83
858.60	3059.67
858.77	2947.03
858.94	3332.05
859.11	3659.72
859.27	3086.29
859.44	2883.54
859.61	3805.13
859.78	3663.82
859.95	3082.19
860.12	2957.27
860.28	3985.35
860.45	3895.24
860.62	2926.55
860.79	3106.77
860.95	3319.76
861.12	3246.03
861.29	2930.64
861.46	2955.22
861.63	3258.32
861.79	3551.18
861.96	2906.07
862.13	3028.95
862.30	3708.87
862.47	3256.27
862.63	2889.68
862.80	3057.62
862.97	3618.76
863.14	3534.79
863.30	3061.71
863.47	2914.26
863.64	3704.78
863.81	3504.07
863.97	2936.79
864.14	3065.81
864.31	3358.67
864.48	3399.63
864.65	2963.41
864.81	3133.39
864.98	3473.36
865.15	3725.26
865.32	3119.06
865.48	3160.02
865.65	3755.97
865.82	3289.04
865.98	3119.06
866.15	3028.95
866.32	3432.40
866.49	3389.39
866.65	3112.91
866.82	3037.14
866.99	3442.64
867.16	3360.72
867.32	3000.27
867.49	2904.02
867.66	3368.91
867.83	3307.47
867.99	2920.40
868.16	3069.91
868.33	3176.40
868.49	3403.72
868.66	3000.27
868.83	3104.72
868.99	3373.00
869.16	3395.53
869.33	3164.11
869.50	3149.78
869.66	3428.30
869.83	3360.72
870.00	2965.46
870.16	3065.81
870.33	3375.05
870.50	3629.00
870.66	3121.10
870.83	3080.14
871.00	3504.07
871.17	3491.79
871.33	3039.19
871.50	3000.27
871.67	3258.32
871.83	3317.71
872.00	3123.15
872.17	2973.65
872.33	3776.45
872.50	3663.82
872.67	3008.47
872.83	2959.31
873.00	3477.45
873.17	3424.20
873.33	3106.77
873.50	3024.85
873.67	3252.17
873.83	3160.02
874.00	3121.10
874.16	3164.11
874.33	3463.12
874.50	3213.26
874.66	2916.31
874.83	3084.24
875.00	3635.14
875.16	3596.23
875.33	3082.19
875.50	2815.96
875.66	3346.38
875.83	3416.01
875.99	3106.77
876.16	3151.82
876.33	3166.16
876.49	3289.04
876.66	3174.35
876.83	3069.91
876.99	3123.15
877.16	3311.57
877.32	2940.88
877.49	3098.58
877.66	3549.13
877.82	3737.54
877.99	3164.11
878.15	3293.13
878.32	3512.27
878.49	3598.28
878.65	3098.58
878.82	3272.65
878.98	3319.76
879.15	3545.03
879.32	3280.85
879.48	3221.45
879.65	3368.91
879.81	3313.61
879.98	3074.00
880.15	3119.06
880.31	3590.09
880.48	3196.88
880.64	3127.25
880.81	3160.02
880.97	3819.46
881.14	3780.55
881.31	3028.95
881.47	3127.25
881.64	3463.12
881.80	3067.86
881.97	3276.75
882.13	3024.85
882.30	3192.78
882.47	3303.37
882.63	3026.90
882.80	2951.12
882.96	3336.14
883.13	3737.54
883.29	3033.04
883.46	3065.81
883.62	3891.14
883.79	3387.34
883.95	3178.45
884.12	2963.41
884.29	3651.53
884.45	3444.68
884.62	3014.61
884.78	2977.75
884.95	3749.83
885.11	3309.52
885.28	3114.96
885.44	3069.91
885.61	3588.04
885.77	3708.87
885.94	3207.12
886.10	3074.00
886.27	3495.88
886.43	3819.46
886.60	3280.85
886.76	3045.33
886.93	3225.55
887.09	3483.59
887.26	2871.25
887.42	3088.34
887.59	3651.53
887.75	3928.00
887.92	3303.37
888.08	3198.93
888.25	3930.05
888.41	3618.76
888.58	3082.19
888.74	2940.88
888.91	3348.43
>>>>>End Processed Spectral Data<<<<<
