SpectraSuite Data File
++++++++++++++++++++++++++++++++++++
Date: Fri May 06 09:28:22 CEST 2016
User: root
Dark Spectrum Present: No
Reference Spectrum Present: No
Number of Sampled Component Spectra: 1
Spectrometers: USB4C02835
Integration Time (usec): 100000 (USB4C02835)
Spectra Averaged: 1 (USB4C02835)
Boxcar Smoothing: 0 (USB4C02835)
Correct for Electrical Dark: No (USB4C02835)
Strobe/Lamp Enabled: No (USB4C02835)
Correct for Detector Non-linearity: No (USB4C02835)
Correct for Stray Light: No (USB4C02835)
Number of Pixels in Processed Spectrum: 3648
>>>>>Begin Processed Spectral Data<<<<<
177.47	2301.92
177.69	2301.92
177.91	2301.92
178.13	2328.54
178.36	2279.39
178.58	3055.57
178.80	3190.74
179.02	3098.58
179.24	3198.93
179.46	2914.26
179.68	2873.30
179.90	3397.58
180.13	3504.07
180.35	2709.46
180.57	2881.49
180.79	3575.75
181.01	3491.79
181.23	3026.90
181.45	3094.48
181.67	3665.86
181.90	3647.43
182.12	3067.86
182.34	2852.82
182.56	3567.56
182.78	3444.68
183.00	2959.31
183.22	2934.74
183.44	3088.34
183.66	4024.26
183.89	3119.06
184.11	2963.41
184.33	3581.90
184.55	3702.73
184.77	2910.16
184.99	2992.08
185.21	3387.34
185.43	4091.84
185.65	2951.12
185.87	3018.71
186.10	4005.83
186.32	3995.59
186.54	3143.63
186.76	3078.10
186.98	3719.11
187.20	3358.67
187.42	2992.08
187.64	2944.98
187.86	3495.88
188.08	3565.51
188.30	2830.29
188.52	2994.13
188.75	3747.78
188.97	3780.55
189.19	2910.16
189.41	2865.11
189.63	3545.03
189.85	3409.87
190.07	2920.40
190.29	2813.91
190.51	3561.42
190.73	3248.08
190.95	3192.78
191.17	3061.71
191.39	3180.50
191.61	3315.66
191.84	3008.47
192.06	3168.21
192.28	3053.52
192.50	4163.52
192.72	3119.06
192.94	3020.75
193.16	3702.73
193.38	3502.03
193.60	2856.92
193.82	3168.21
194.04	3585.99
194.26	3585.99
194.48	3016.66
194.70	2899.92
194.92	3418.06
195.14	3616.71
195.36	2861.01
195.58	3065.81
195.80	3385.29
196.02	3330.00
196.24	2813.91
196.46	3033.04
196.69	3291.09
196.91	4028.35
197.13	3008.47
197.35	3092.43
197.57	3825.61
197.79	3704.78
198.01	3026.90
198.23	2951.12
198.45	3618.76
198.67	3157.97
198.89	2768.85
199.11	3057.62
199.33	3286.99
199.55	3026.90
199.77	2926.55
199.99	3145.68
200.21	3473.36
200.43	3473.36
200.65	2877.40
200.87	2799.57
201.09	3442.64
201.31	3360.72
201.53	2985.94
201.75	3045.33
201.97	3426.25
202.19	3373.00
202.41	3100.62
202.63	3026.90
202.85	3659.72
203.07	3459.02
203.29	3049.43
203.51	2879.44
203.73	3295.18
203.95	4118.47
204.17	3022.80
204.39	3090.38
204.61	3504.07
204.83	3352.52
205.05	3121.10
205.27	2934.74
205.49	3928.00
205.71	3499.98
205.93	2838.48
206.15	2852.82
206.37	3444.68
206.59	3377.10
206.81	2803.67
207.03	2828.24
207.25	3282.89
207.47	3557.32
207.69	2996.18
207.91	3182.54
208.13	3819.46
208.34	3315.66
208.56	2916.31
208.78	2990.03
209.00	3330.00
209.22	3250.13
209.44	2967.51
209.66	2934.74
209.88	3450.83
210.10	3346.38
210.32	2938.84
210.54	2983.89
210.76	3364.81
210.98	3665.86
211.20	2826.20
211.42	3043.28
211.64	3704.78
211.86	3565.51
212.08	3057.62
212.30	3004.37
212.52	3381.20
212.74	3522.51
212.96	3125.20
213.17	3067.86
213.39	3610.57
213.61	3837.89
213.83	2914.26
214.05	2865.11
214.27	3596.23
214.49	3164.11
214.71	2865.11
214.93	3047.38
215.15	3471.31
215.37	3608.52
215.59	2869.20
215.81	3039.19
216.03	3839.94
216.24	3418.06
216.46	2912.21
216.68	3004.37
216.90	3624.90
217.12	3723.21
217.34	2899.92
217.56	3164.11
217.78	3762.12
218.00	3622.86
218.22	3076.05
218.44	3098.58
218.66	3549.13
218.87	3745.73
219.09	3020.75
219.31	2922.45
219.53	3424.20
219.75	3407.82
219.97	3035.09
220.19	3014.61
220.41	3397.58
220.63	3819.46
220.85	2975.70
221.06	3012.56
221.28	3815.37
221.50	3610.57
221.72	3018.71
221.94	2830.29
222.16	3368.91
222.38	3624.90
222.60	2994.13
222.82	2963.41
223.03	3655.62
223.25	3241.93
223.47	2934.74
223.69	3225.55
223.91	3616.71
224.13	3467.21
224.35	2895.83
224.57	3141.58
224.78	3655.62
225.00	3233.74
225.22	3110.86
225.44	2992.08
225.66	3547.08
225.88	3289.04
226.10	3078.10
226.32	2928.60
226.53	3909.57
226.75	3278.80
226.97	3121.10
227.19	3024.85
227.41	3188.69
227.63	3336.14
227.85	2736.09
228.06	3063.76
228.28	3436.49
228.50	3641.29
228.72	2807.77
228.94	2977.75
229.16	3090.38
229.37	3239.89
229.59	2805.72
229.81	3192.78
230.03	3432.40
230.25	3133.39
230.47	2852.82
230.69	2979.79
230.90	3590.09
231.12	3297.23
231.34	3157.97
231.56	3024.85
231.78	3133.39
232.00	3471.31
232.21	3082.19
232.43	3041.23
232.65	2979.79
232.87	3485.64
233.09	2691.03
233.30	2904.02
233.52	3672.01
233.74	3391.44
233.96	2942.93
234.18	3114.96
234.40	3377.10
234.61	3958.72
234.83	2926.55
235.05	2893.78
235.27	4044.74
235.49	3682.25
235.70	2775.00
235.92	3002.32
236.14	3604.42
236.36	4018.11
236.58	2809.81
236.79	3063.76
237.01	3395.53
237.23	3440.59
237.45	3137.49
237.67	2920.40
237.88	3575.75
238.10	3885.00
238.32	2875.35
238.54	2959.31
238.76	3364.81
238.97	3291.09
239.19	2906.07
239.41	3006.42
239.63	3755.97
239.85	3405.77
240.06	2979.79
240.28	3000.27
240.50	3733.45
240.72	3477.45
240.93	2873.30
241.15	3045.33
241.37	3344.33
241.59	3753.93
241.81	2938.84
242.02	3157.97
242.24	3489.74
242.46	3684.30
242.68	2781.14
242.89	2949.08
243.11	3614.66
243.33	3418.06
243.55	2912.21
243.76	2887.64
243.98	3252.17
244.20	3360.72
244.42	2994.13
244.64	2940.88
244.85	3188.69
245.07	3227.60
245.29	2920.40
245.51	2983.89
245.72	3489.74
245.94	3637.19
246.16	2928.60
246.38	2996.18
246.59	3264.46
246.81	3332.05
247.03	2908.12
247.24	2803.67
247.46	3317.71
247.68	3540.94
247.90	2910.16
248.11	2969.55
248.33	3551.18
248.55	3520.46
248.77	3024.85
248.98	2985.94
249.20	3831.75
249.42	3510.22
249.64	2871.25
249.85	2885.59
250.07	3270.61
250.29	3631.05
250.50	3043.28
250.72	2832.34
250.94	3551.18
251.16	3975.11
251.37	2955.22
251.59	3004.37
251.81	3575.75
252.02	3786.69
252.24	2830.29
252.46	3110.86
252.68	3311.57
252.89	3303.37
253.11	2744.28
253.33	3137.49
253.54	3731.40
253.76	3205.07
253.98	2953.17
254.20	2916.31
254.41	3147.73
254.63	3459.02
254.85	2852.82
255.06	3164.11
255.28	3553.23
255.50	3373.00
255.71	2969.55
255.93	2838.48
256.15	3469.26
256.36	3635.14
256.58	2795.48
256.80	2953.17
257.02	3506.12
257.23	3387.34
257.45	2975.70
257.67	3071.95
257.88	3348.43
258.10	3524.55
258.32	2934.74
258.53	3078.10
258.75	3885.00
258.97	3325.90
259.18	2869.20
259.40	2953.17
259.62	3903.43
259.83	3753.93
260.05	3028.95
260.27	3897.28
260.48	3647.43
260.70	3215.31
260.92	2807.77
261.13	2918.36
261.35	3459.02
261.57	3561.42
261.78	2740.18
262.00	2928.60
262.22	3598.28
262.43	3250.13
262.65	2996.18
262.86	3035.09
263.08	3956.68
263.30	3471.31
263.51	2795.48
263.73	2936.79
263.95	3827.65
264.16	3237.84
264.38	2822.10
264.60	2865.11
264.81	3532.75
265.03	3786.69
265.25	3434.44
265.46	2916.31
265.68	3710.92
265.89	3655.62
266.11	2791.38
266.33	2944.98
266.54	3710.92
266.76	3563.47
266.98	3076.05
267.19	3094.48
267.41	3674.06
267.62	3411.92
267.84	2772.95
268.06	3008.47
268.27	3471.31
268.49	3733.45
268.70	3000.27
268.92	3000.27
269.14	3286.99
269.35	3106.77
269.57	3125.20
269.79	3096.53
270.00	3346.38
270.22	3796.93
270.43	2881.49
270.65	2877.40
270.87	3434.44
271.08	3581.90
271.30	3065.81
271.51	2930.64
271.73	3538.89
271.95	3792.84
272.16	2887.64
272.38	3225.55
272.59	3360.72
272.81	3643.34
273.02	2873.30
273.24	3026.90
273.46	3659.72
273.67	3256.27
273.89	2742.23
274.10	2942.93
274.32	3735.50
274.54	3545.03
274.75	3037.14
274.97	3082.19
275.18	3598.28
275.40	3551.18
275.61	3049.43
275.83	3065.81
276.05	3248.08
276.26	3416.01
276.48	3092.43
276.69	3207.12
276.91	3391.44
277.12	3741.64
277.34	3168.21
277.55	3188.69
277.77	3420.11
277.99	3379.15
278.20	3133.39
278.42	3010.51
278.63	3338.19
278.85	3254.22
279.06	3033.04
279.28	3252.17
279.49	3696.58
279.71	3614.66
279.93	3141.58
280.14	3153.87
280.36	3385.29
280.57	3663.82
280.79	3110.86
281.00	2957.27
281.22	3352.52
281.43	3696.58
281.65	2838.48
281.86	2992.08
282.08	3461.07
282.29	3913.67
282.51	2936.79
282.73	3022.80
282.94	3149.78
283.16	3559.37
283.37	3266.51
283.59	3188.69
283.80	3561.42
284.02	3487.69
284.23	3182.54
284.45	3086.29
284.66	3217.36
284.88	3321.81
285.09	2955.22
285.31	3172.30
285.52	3532.75
285.74	3151.82
285.95	3207.12
286.17	3174.35
286.38	3688.39
286.60	3327.95
286.81	3053.52
287.03	3008.47
287.24	3491.79
287.46	3645.38
287.67	3137.49
287.89	3272.65
288.10	3432.40
288.32	3426.25
288.53	3180.50
288.75	3227.60
288.96	3631.05
289.18	3334.09
289.39	2987.99
289.61	3166.16
289.82	3960.77
290.04	3891.14
290.25	2969.55
290.47	3166.16
290.68	3397.58
290.90	3665.86
291.11	2904.02
291.33	3221.45
291.54	3319.76
291.76	3334.09
291.97	3272.65
292.18	3243.98
292.40	3334.09
292.61	3366.86
292.83	3366.86
293.04	3098.58
293.26	3540.94
293.47	3377.10
293.69	3041.23
293.90	2955.22
294.12	3778.50
294.33	3434.44
294.55	3168.21
294.76	3352.52
294.97	3801.03
295.19	4001.73
295.40	3141.58
295.62	3164.11
295.83	3598.28
296.05	3270.61
296.26	3438.54
296.48	3106.77
296.69	3377.10
296.90	3432.40
297.12	3209.17
297.33	3248.08
297.55	3506.12
297.76	3524.55
297.98	3235.79
298.19	3243.98
298.41	3344.33
298.62	3237.84
298.83	3270.61
299.05	3213.26
299.26	3356.62
299.48	3362.76
299.69	3141.58
299.90	3053.52
300.12	3256.27
300.33	3565.51
300.55	3207.12
300.76	3117.01
300.98	3233.74
301.19	3631.05
301.40	3086.29
301.62	3094.48
301.83	3583.95
302.05	3465.16
302.26	3106.77
302.47	3229.65
302.69	3157.97
302.90	3389.39
303.12	2971.60
303.33	3196.88
303.54	3880.90
303.76	3379.15
303.97	3045.33
304.19	3303.37
304.40	3174.35
304.61	3573.71
304.83	3200.98
305.04	3196.88
305.26	3657.67
305.47	3315.66
305.68	3045.33
305.90	3020.75
306.11	3790.79
306.33	3352.52
306.54	2979.79
306.75	3088.34
306.97	3172.30
307.18	3221.45
307.39	3100.62
307.61	3137.49
307.82	3452.88
308.04	3499.98
308.25	3012.56
308.46	3233.74
308.68	3448.78
308.89	3493.83
309.10	3157.97
309.32	3151.82
309.53	3393.48
309.74	3524.55
309.96	2953.17
310.17	3213.26
310.39	3315.66
310.60	3567.56
310.81	3174.35
311.03	3069.91
311.24	3594.19
311.45	3370.96
311.67	3379.15
311.88	3207.12
312.09	3375.05
312.31	3241.93
312.52	3082.19
312.73	3057.62
312.95	3174.35
313.16	3239.89
313.37	3194.83
313.59	3307.47
313.80	3641.29
314.01	3723.21
314.23	3164.11
314.44	3065.81
314.65	3180.50
314.87	3194.83
315.08	3102.67
315.29	3061.71
315.51	3221.45
315.72	3213.26
315.93	3164.11
316.15	3045.33
316.36	3401.68
316.57	3354.57
316.79	3129.30
317.00	3067.86
317.21	3659.72
317.43	3270.61
317.64	3092.43
317.85	2942.93
318.07	3303.37
318.28	3336.14
318.49	3147.73
318.70	3344.33
318.92	3446.73
319.13	3516.36
319.34	3196.88
319.56	3030.99
319.77	3471.31
319.98	3639.24
320.20	3366.86
320.41	3321.81
320.62	3567.56
320.83	3217.36
321.05	3401.68
321.26	3170.26
321.47	3397.58
321.69	3631.05
321.90	3076.05
322.11	3084.24
322.32	3442.64
322.54	3696.58
322.75	3121.10
322.96	4181.95
323.18	3229.65
323.39	2949.08
323.60	3008.47
323.81	3215.31
324.03	3303.37
324.24	3411.92
324.45	3205.07
324.66	3041.23
324.88	3698.63
325.09	3839.94
325.30	3080.14
325.52	3049.43
325.73	3526.60
325.94	3233.74
326.15	2949.08
326.37	2951.12
326.58	3538.89
326.79	3803.08
327.00	2985.94
327.22	3059.67
327.43	3389.39
327.64	3215.31
327.85	3241.93
328.07	3182.54
328.28	3921.86
328.49	3411.92
328.70	3129.30
328.92	3117.01
329.13	3434.44
329.34	3561.42
329.55	3303.37
329.76	3321.81
329.98	3370.96
330.19	3745.73
330.40	3174.35
330.61	3246.03
330.83	3604.42
331.04	3278.80
331.25	3237.84
331.46	3176.40
331.68	3239.89
331.89	3618.76
332.10	3094.48
332.31	2975.70
332.52	3358.67
332.74	3649.48
332.95	2971.60
333.16	3059.67
333.37	3696.58
333.58	3373.00
333.80	3114.96
334.01	2906.07
334.22	3463.12
334.43	3256.27
334.64	3012.56
334.86	3090.38
335.07	3270.61
335.28	3708.87
335.49	2973.65
335.70	3180.50
335.92	3733.45
336.13	4040.64
336.34	3131.34
336.55	3106.77
336.76	3606.47
336.98	3082.19
337.19	3166.16
337.40	3221.45
337.61	4032.45
337.82	3368.91
338.04	3174.35
338.25	3010.51
338.46	3434.44
338.67	3373.00
338.88	3033.04
339.09	3008.47
339.31	3422.16
339.52	3196.88
339.73	3012.56
339.94	3065.81
340.15	3612.62
340.36	3348.43
340.58	3168.21
340.79	3018.71
341.00	3641.29
341.21	3223.50
341.42	3391.44
341.63	3125.20
341.85	3629.00
342.06	3454.92
342.27	3041.23
342.48	3233.74
342.69	3168.21
342.90	3575.75
343.12	3471.31
343.33	3008.47
343.54	3663.82
343.75	3764.17
343.96	3215.31
344.17	3059.67
344.38	3512.27
344.60	3340.24
344.81	3020.75
345.02	3108.82
345.23	3772.36
345.44	4044.74
345.65	3125.20
345.86	3112.91
346.07	3532.75
346.29	3342.28
346.50	3295.18
346.71	3139.54
346.92	3774.41
347.13	3944.39
347.34	3155.92
347.55	2951.12
347.76	3518.41
347.98	3164.11
348.19	3211.22
348.40	3307.47
348.61	3332.05
348.82	3796.93
349.03	3125.20
349.24	2963.41
349.45	3829.70
349.66	3057.62
349.88	3010.51
350.09	3078.10
350.30	3805.13
350.51	3758.02
350.72	3401.68
350.93	3035.09
351.14	3354.57
351.35	3555.27
351.56	3155.92
351.77	3168.21
351.99	3516.36
352.20	3737.54
352.41	3223.50
352.62	2942.93
352.83	3405.77
353.04	3413.96
353.25	3090.38
353.46	3092.43
353.67	3770.31
353.88	3030.99
354.09	3067.86
354.30	3207.12
354.52	3545.03
354.73	3405.77
354.94	3057.62
355.15	3229.65
355.36	3876.80
355.57	3205.07
355.78	3039.19
355.99	3082.19
356.20	3379.15
356.41	3663.82
356.62	3184.59
356.83	3110.86
357.04	3725.26
357.25	3082.19
357.46	3100.62
357.68	2983.89
357.89	3295.18
358.10	3438.54
358.31	3080.14
358.52	3184.59
358.73	3180.50
358.94	3176.40
359.15	3131.34
359.36	3065.81
359.57	3461.07
359.78	3389.39
359.99	3350.48
360.20	2930.64
360.41	3284.94
360.62	3461.07
360.83	3229.65
361.04	3200.98
361.25	3565.51
361.46	3803.08
361.67	3211.22
361.88	3125.20
362.09	3614.66
362.30	3549.13
362.51	2973.65
362.72	3166.16
362.93	3663.82
363.14	3508.17
363.35	3194.83
363.56	3016.66
363.78	3715.02
363.99	3622.86
364.20	3059.67
364.41	3215.31
364.62	3786.69
364.83	3499.98
365.04	3061.71
365.25	3125.20
365.46	3938.24
365.67	3241.93
365.88	3338.19
366.09	3098.58
366.30	3397.58
366.51	3467.21
366.72	3008.47
366.93	3088.34
367.14	3538.89
367.35	3747.78
367.56	3067.86
367.77	3141.58
367.98	3473.36
368.18	3522.51
368.39	3262.41
368.60	3074.00
368.81	3631.05
369.02	3475.40
369.23	3125.20
369.44	2910.16
369.65	3452.88
369.86	3483.59
370.07	3200.98
370.28	3100.62
370.49	3561.42
370.70	3565.51
370.91	3035.09
371.12	2973.65
371.33	3682.25
371.54	3346.38
371.75	3209.17
371.96	2846.68
372.17	3563.47
372.38	3497.93
372.59	3112.91
372.80	3008.47
373.01	3370.96
373.22	3475.40
373.43	3155.92
373.64	3008.47
373.85	3786.69
374.06	3848.13
374.26	3280.85
374.47	3186.64
374.68	3821.51
374.89	3459.02
375.10	3002.32
375.31	3194.83
375.52	3475.40
375.73	3514.31
375.94	2996.18
376.15	3190.74
376.36	3260.37
376.57	3327.95
376.78	3176.40
376.99	3114.96
377.20	3712.97
377.40	3317.71
377.61	3397.58
377.82	3180.50
378.03	3813.32
378.24	3571.66
378.45	3176.40
378.66	3131.34
378.87	3045.33
379.08	3147.73
379.29	3125.20
379.50	3276.75
379.71	3373.00
379.91	3588.04
380.12	3055.57
380.33	3241.93
380.54	3495.88
380.75	3352.52
380.96	3098.58
381.17	3102.67
381.38	3389.39
381.59	3416.01
381.80	3168.21
382.00	3323.85
382.21	3452.88
382.42	3737.54
382.63	3479.50
382.84	3274.70
383.05	3700.68
383.26	3747.78
383.47	3297.23
383.68	3051.47
383.88	3555.27
384.09	3456.97
384.30	3350.48
384.51	3164.11
384.72	3338.19
384.93	3221.45
385.14	3209.17
385.35	3469.26
385.55	3114.96
385.76	3721.16
385.97	3088.34
386.18	3022.80
386.39	3282.89
386.60	3297.23
386.81	3184.59
387.02	3014.61
387.22	3098.58
387.43	3530.70
387.64	3266.51
387.85	3405.77
388.06	3418.06
388.27	4368.32
388.48	7329.68
388.68	11097.94
388.89	13514.55
389.10	14749.47
389.31	14618.40
389.52	11771.72
389.73	10250.08
389.93	9635.69
390.14	8568.70
390.35	7927.69
390.56	7438.22
390.77	6350.75
390.98	4843.45
391.18	4106.18
391.39	3921.86
391.60	3456.97
391.81	3344.33
392.02	3094.48
392.23	4007.87
392.43	3475.40
392.64	3215.31
392.85	3229.65
393.06	3772.36
393.27	3444.68
393.47	3155.92
393.68	3256.27
393.89	3391.44
394.10	3739.59
394.31	3117.01
394.52	3059.67
394.72	3235.79
394.93	3782.60
395.14	3000.27
395.35	3262.41
395.56	3289.04
395.76	3426.25
395.97	3137.49
396.18	3254.22
396.39	3475.40
396.60	4077.51
396.80	3446.73
397.01	3411.92
397.22	3487.69
397.43	3579.85
397.64	3102.67
397.84	3200.98
398.05	3891.14
398.26	3387.34
398.47	3221.45
398.67	3422.16
398.88	3467.21
399.09	3641.29
399.30	3106.77
399.51	3243.98
399.71	3280.85
399.92	3411.92
400.13	3268.56
400.34	3100.62
400.54	3461.07
400.75	3796.93
400.96	3192.78
401.17	3497.93
401.37	3528.65
401.58	3373.00
401.79	3151.82
402.00	3256.27
402.21	3909.57
402.41	3567.56
402.62	3395.53
402.83	3545.03
403.04	3798.98
403.24	4253.63
403.45	3293.13
403.66	3502.03
403.87	3721.16
404.07	3758.02
404.28	3360.72
404.49	3444.68
404.70	3573.71
404.90	3635.14
405.11	3106.77
405.32	3252.17
405.52	3266.51
405.73	3368.91
405.94	3039.19
406.15	3301.33
406.35	3522.51
406.56	3583.95
406.77	3178.45
406.98	3145.68
407.18	3284.94
407.39	3774.41
407.60	3137.49
407.80	3280.85
408.01	3366.86
408.22	3657.67
408.43	3037.14
408.63	3266.51
408.84	3622.86
409.05	3592.14
409.25	3114.96
409.46	3166.16
409.67	3239.89
409.88	3338.19
410.08	3188.69
410.29	3117.01
410.50	3581.90
410.70	3547.08
410.91	3108.82
411.12	3190.74
411.32	3463.12
411.53	3321.81
411.74	3117.01
411.95	3213.26
412.15	3469.26
412.36	3655.62
412.57	3368.91
412.77	3254.22
412.98	3293.13
413.19	3303.37
413.39	3215.31
413.60	3145.68
413.81	3770.31
414.01	3264.46
414.22	3162.06
414.43	3391.44
414.63	3418.06
414.84	3602.38
415.05	3157.97
415.25	3020.75
415.46	3547.08
415.67	3291.09
415.87	3133.39
416.08	3133.39
416.29	3393.48
416.49	3528.65
416.70	3282.89
416.91	3164.11
417.11	3475.40
417.32	3770.31
417.53	3213.26
417.73	3278.80
417.94	3370.96
418.15	3481.55
418.35	3207.12
418.56	3225.55
418.77	4034.50
418.97	3459.02
419.18	3360.72
419.38	2844.63
419.59	3508.17
419.80	3665.86
420.00	3033.04
420.21	3127.25
420.42	3815.37
420.62	3579.85
420.83	3129.30
421.04	3018.71
421.24	3526.60
421.45	3608.52
421.65	3203.02
421.86	3180.50
422.07	3639.24
422.27	3538.89
422.48	3153.87
422.69	2983.89
422.89	3467.21
423.10	3321.81
423.30	3139.54
423.51	3168.21
423.72	3534.79
423.92	3588.04
424.13	3086.29
424.33	3153.87
424.54	3629.00
424.75	3479.50
424.95	3405.77
425.16	3106.77
425.36	3387.34
425.57	3647.43
425.78	3360.72
425.98	3254.22
426.19	3346.38
426.39	3164.11
426.60	3305.42
426.81	3262.41
427.01	3592.14
427.22	3268.56
427.42	3016.66
427.63	3157.97
427.83	3651.53
428.04	3739.59
428.25	3176.40
428.45	3223.50
428.66	3682.25
428.86	3362.76
429.07	3196.88
429.28	3213.26
429.48	3413.96
429.69	3235.79
429.89	3266.51
430.10	3155.92
430.30	3590.09
430.51	3690.44
430.71	3090.38
430.92	3289.04
431.13	3344.33
431.33	3571.66
431.54	3155.92
431.74	3303.37
431.95	3919.81
432.15	3276.75
432.36	3166.16
432.56	3258.32
432.77	3819.46
432.98	3936.20
433.18	3172.30
433.39	3014.61
433.59	3368.91
433.80	3891.14
434.00	3370.96
434.21	3207.12
434.41	3282.89
434.62	3940.29
434.82	3071.95
435.03	3104.72
435.23	3545.03
435.44	3141.58
435.64	3127.25
435.85	3237.84
436.06	3618.76
436.26	3651.53
436.47	3127.25
436.67	3117.01
436.88	3467.21
437.08	3661.77
437.29	3282.89
437.49	3303.37
437.70	3680.20
437.90	3346.38
438.11	3325.90
438.31	3209.17
438.52	3702.73
438.72	3614.66
438.93	3508.17
439.13	3221.45
439.34	3600.33
439.54	3266.51
439.75	3246.03
439.95	3180.50
440.16	3262.41
440.36	3403.72
440.57	3086.29
440.77	3272.65
440.98	3354.57
441.18	3489.74
441.39	3033.04
441.59	3004.37
441.80	3889.09
442.00	3385.29
442.21	3266.51
442.41	3024.85
442.62	3622.86
442.82	3327.95
443.02	3133.39
443.23	3235.79
443.43	3373.00
443.64	3669.96
443.84	3053.52
444.05	3180.50
444.25	3450.83
444.46	3385.29
444.66	3153.87
444.87	3424.20
445.07	3129.30
445.28	3373.00
445.48	3373.00
445.69	3162.06
445.89	4077.51
446.09	3309.52
446.30	3391.44
446.50	3522.51
446.71	5052.34
446.91	6145.95
447.12	6870.94
447.32	7301.01
447.53	7489.42
447.73	6250.40
447.93	5285.81
448.14	5138.35
448.34	5341.10
448.55	4521.92
448.75	4401.08
448.96	4163.52
449.16	4061.12
449.36	4081.60
449.57	3360.72
449.77	3172.30
449.98	3370.96
450.18	3553.23
450.39	3114.96
450.59	3368.91
450.79	3481.55
451.00	3278.80
451.20	3368.91
451.41	3184.59
451.61	3581.90
451.81	3383.24
452.02	3121.10
452.22	3094.48
452.43	3315.66
452.63	3221.45
452.84	3217.36
453.04	3100.62
453.24	3467.21
453.45	3256.27
453.65	3270.61
453.86	3174.35
454.06	3467.21
454.26	3436.49
454.47	3170.26
454.67	3364.81
454.87	3512.27
455.08	3411.92
455.28	3381.20
455.49	3321.81
455.69	3266.51
455.89	3895.24
456.10	3280.85
456.30	3076.05
456.51	3555.27
456.71	3467.21
456.91	3311.57
457.12	3176.40
457.32	3504.07
457.52	3149.78
457.73	3317.71
457.93	3319.76
458.14	3323.85
458.34	3123.15
458.54	3246.03
458.75	3067.86
458.95	3688.39
459.15	3411.92
459.36	3215.31
459.56	3045.33
459.76	4057.03
459.97	3459.02
460.17	3135.44
460.37	3106.77
460.58	3377.10
460.78	3538.89
460.99	3229.65
461.19	3133.39
461.39	3362.76
461.60	3436.49
461.80	3274.70
462.00	3028.95
462.21	3450.83
462.41	3241.93
462.61	2981.84
462.82	2977.75
463.02	3508.17
463.22	3420.11
463.43	3182.54
463.63	3080.14
463.83	3710.92
464.04	3583.95
464.24	3137.49
464.44	3155.92
464.64	3530.70
464.85	3616.71
465.05	3205.07
465.25	3018.71
465.46	3303.37
465.66	3606.47
465.86	3297.23
466.07	3147.73
466.27	3448.78
466.47	3028.95
466.68	3043.28
466.88	3264.46
467.08	3592.14
467.29	3766.21
467.49	3117.01
467.69	3356.62
467.89	3577.80
468.10	3315.66
468.30	3205.07
468.50	3282.89
468.71	3565.51
468.91	3168.21
469.11	3330.00
469.31	3280.85
469.52	3196.88
469.72	3829.70
469.92	3428.30
470.13	3168.21
470.33	3452.88
470.53	3483.59
470.73	3520.46
470.94	3827.65
471.14	4089.79
471.34	4511.68
471.54	4124.61
471.75	3878.85
471.95	3792.84
472.15	3735.50
472.36	3692.49
472.56	3567.56
472.76	3917.76
472.96	3811.27
473.17	3387.34
473.37	3268.56
473.57	3428.30
473.77	3512.27
473.98	3295.18
474.18	2983.89
474.38	4257.73
474.58	3340.24
474.79	3030.99
474.99	3256.27
475.19	3653.58
475.39	3280.85
475.60	3274.70
475.80	3176.40
476.00	3569.61
476.20	3393.48
476.41	3237.84
476.61	3293.13
476.81	3758.02
477.01	3354.57
477.21	3483.59
477.42	3305.42
477.62	3332.05
477.82	3577.80
478.02	3135.44
478.23	3190.74
478.43	3196.88
478.63	3370.96
478.83	3241.93
479.03	3295.18
479.24	3784.65
479.44	3835.85
479.64	3082.19
479.84	3010.51
480.04	3233.74
480.25	3659.72
480.45	3141.58
480.65	3174.35
480.85	3782.60
481.06	3305.42
481.26	3217.36
481.46	3080.14
481.66	3502.03
481.86	3229.65
482.06	3344.33
482.27	3211.22
482.47	3401.68
482.67	3672.01
482.87	3180.50
483.07	3207.12
483.28	3344.33
483.48	3219.41
483.68	3168.21
483.88	3114.96
484.08	3045.33
484.29	3200.98
484.49	3264.46
484.69	3018.71
484.89	3721.16
485.09	3669.96
485.29	3211.22
485.50	3438.54
485.70	3352.52
485.90	3741.64
486.10	3360.72
486.30	3112.91
486.50	3770.31
486.71	3540.94
486.91	3190.74
487.11	3248.08
487.31	3172.30
487.51	3524.55
487.71	3086.29
487.91	3067.86
488.12	3207.12
488.32	2904.02
488.52	3129.30
488.72	2932.69
488.92	3528.65
489.12	3704.78
489.32	3229.65
489.53	3139.54
489.73	3024.85
489.93	3762.12
490.13	3123.15
490.33	3055.57
490.53	3454.92
490.73	3772.36
490.94	2998.23
491.14	3293.13
491.34	3569.61
491.54	3581.90
491.74	4075.46
491.94	4515.77
492.14	5113.78
492.34	5091.25
492.54	4716.47
492.75	4046.79
492.95	4474.81
493.15	4200.38
493.35	3885.00
493.55	3835.85
493.75	3811.27
493.95	4042.69
494.15	3450.83
494.35	3237.84
494.56	3438.54
494.76	3313.61
494.96	3377.10
495.16	3096.53
495.36	3377.10
495.56	3411.92
495.76	3205.07
495.96	3155.92
496.16	3274.70
496.36	3831.75
496.56	3106.77
496.77	3233.74
496.97	3442.64
497.17	3815.37
497.37	3014.61
497.57	3282.89
497.77	3559.37
497.97	3178.45
498.17	3221.45
498.37	3151.82
498.57	3516.36
498.77	3377.10
498.97	3289.04
499.17	3551.18
499.38	3418.06
499.58	3483.59
499.78	3317.71
499.98	3311.57
500.18	3385.29
500.38	3260.37
500.58	3399.63
500.78	3729.35
500.98	6137.76
501.18	7942.02
501.38	9138.04
501.58	10082.15
501.78	10159.97
501.98	8198.02
502.18	6961.05
502.38	6231.97
502.58	6375.33
502.78	5400.49
502.98	5177.26
503.18	5009.33
503.38	4894.65
503.59	4270.01
503.79	4104.13
503.99	3712.97
504.19	3946.44
504.39	3958.72
504.59	3643.34
504.79	3538.89
504.99	3946.44
505.19	3583.95
505.39	3241.93
505.59	3452.88
505.79	3780.55
505.99	3655.62
506.19	3160.02
506.39	3426.25
506.59	3215.31
506.79	3305.42
506.99	3456.97
507.19	3082.19
507.39	3508.17
507.59	3166.16
507.79	3180.50
507.99	3131.34
508.19	3387.34
508.39	3360.72
508.59	3176.40
508.79	3198.93
508.99	3798.98
509.19	3270.61
509.39	3280.85
509.59	3086.29
509.79	3373.00
509.99	3540.94
510.19	3364.81
510.39	3274.70
510.59	3379.15
510.79	3305.42
510.99	2973.65
511.19	3188.69
511.39	3874.76
511.59	3657.67
511.79	3358.67
511.99	3112.91
512.19	3887.04
512.38	3413.96
512.58	3190.74
512.78	3000.27
512.98	3710.92
513.18	3928.00
513.38	3090.38
513.58	3266.51
513.78	3325.90
513.98	3401.68
514.18	3229.65
514.38	3203.02
514.58	3459.02
514.78	3295.18
514.98	3078.10
515.18	3286.99
515.38	3229.65
515.58	3755.97
515.78	3184.59
515.98	3186.64
516.18	3733.45
516.38	3452.88
516.57	3176.40
516.77	3149.78
516.97	3649.48
517.17	3323.85
517.37	2955.22
517.57	3149.78
517.77	3459.02
517.97	3299.28
518.17	3229.65
518.37	3026.90
518.57	3278.80
518.77	3387.34
518.97	3215.31
519.16	3223.50
519.36	3729.35
519.56	3362.76
519.76	3074.00
519.96	3139.54
520.16	3717.06
520.36	3231.69
520.56	3284.94
520.76	3190.74
520.96	3393.48
521.16	3577.80
521.35	3393.48
521.55	3332.05
521.75	3420.11
521.95	3373.00
522.15	3057.62
522.35	3035.09
522.55	3252.17
522.75	3622.86
522.95	3106.77
523.14	2975.70
523.34	3409.87
523.54	3377.10
523.74	3258.32
523.94	3215.31
524.14	3078.10
524.34	3489.74
524.54	3401.68
524.73	3192.78
524.93	3631.05
525.13	3518.41
525.33	2992.08
525.53	3368.91
525.73	3557.32
525.93	3424.20
526.13	3241.93
526.32	3026.90
526.52	3770.31
526.72	3641.29
526.92	3227.60
527.12	3123.15
527.32	3188.69
527.52	3649.48
527.71	3131.34
527.91	3176.40
528.11	3377.10
528.31	3444.68
528.51	3137.49
528.71	3368.91
528.90	3569.61
529.10	3715.02
529.30	3178.45
529.50	2949.08
529.70	3504.07
529.90	3321.81
530.09	3172.30
530.29	3002.32
530.49	3295.18
530.69	4061.12
530.89	3327.95
531.09	3264.46
531.28	3352.52
531.48	3712.97
531.68	3200.98
531.88	3108.82
532.08	3594.19
532.28	3286.99
532.47	3293.13
532.67	3246.03
532.87	3536.84
533.07	3252.17
533.27	3192.78
533.46	3262.41
533.66	3475.40
533.86	3440.59
534.06	3196.88
534.26	3082.19
534.45	3332.05
534.65	3602.38
534.85	3299.28
535.05	3108.82
535.25	3616.71
535.44	3110.86
535.64	3243.98
535.84	3207.12
536.04	3411.92
536.24	3327.95
536.43	3094.48
536.63	3123.15
536.83	3454.92
537.03	3344.33
537.22	3043.28
537.42	2934.74
537.62	3502.03
537.82	3286.99
538.02	3305.42
538.21	3243.98
538.41	4009.92
538.61	3542.99
538.81	3178.45
539.00	3227.60
539.20	3102.67
539.40	3401.68
539.60	3074.00
539.79	3409.87
539.99	3411.92
540.19	3315.66
540.39	3110.86
540.58	3239.89
540.78	3649.48
540.98	3434.44
541.18	3461.07
541.37	3135.44
541.57	3411.92
541.77	3536.84
541.97	3164.11
542.16	3018.71
542.36	3338.19
542.56	3635.14
542.76	3340.24
542.95	3243.98
543.15	3583.95
543.35	3583.95
543.54	3143.63
543.74	3102.67
543.94	3835.85
544.14	3307.47
544.33	3268.56
544.53	3219.41
544.73	3440.59
544.93	3379.15
545.12	3131.34
545.32	3108.82
545.52	3442.64
545.71	3235.79
545.91	3131.34
546.11	3082.19
546.30	3336.14
546.50	3438.54
546.70	3192.78
546.90	3143.63
547.09	2992.08
547.29	3510.22
547.49	3336.14
547.68	3209.17
547.88	3223.50
548.08	3569.61
548.27	3422.16
548.47	3172.30
548.67	3303.37
548.87	3502.03
549.06	3067.86
549.26	3059.67
549.46	3536.84
549.65	3323.85
549.85	3205.07
550.05	3186.64
550.24	3098.58
550.44	3401.68
550.64	3164.11
550.83	3248.08
551.03	3745.73
551.23	3663.82
551.42	3250.13
551.62	3297.23
551.82	3307.47
552.01	3327.95
552.21	3450.83
552.41	3237.84
552.60	3682.25
552.80	3483.59
553.00	3098.58
553.19	3151.82
553.39	3776.45
553.59	3192.78
553.78	3346.38
553.98	3067.86
554.17	3155.92
554.37	3528.65
554.57	3307.47
554.76	3006.42
554.96	3379.15
555.16	3469.26
555.35	3291.09
555.55	3356.62
555.75	3483.59
555.94	3477.45
556.14	2959.31
556.33	3182.54
556.53	3432.40
556.73	3319.76
556.92	3229.65
557.12	3096.53
557.32	3803.08
557.51	3704.78
557.71	3155.92
557.90	3387.34
558.10	3663.82
558.30	3327.95
558.49	3166.16
558.69	3108.82
558.88	3502.03
559.08	3491.79
559.28	3170.26
559.47	3196.88
559.67	3532.75
559.86	3835.85
560.06	3192.78
560.26	3188.69
560.45	3561.42
560.65	3381.20
560.84	3516.36
561.04	3078.10
561.24	3516.36
561.43	3188.69
561.63	3487.69
561.82	3336.14
562.02	3639.24
562.22	3332.05
562.41	3057.62
562.61	3123.15
562.80	3239.89
563.00	3895.24
563.19	3241.93
563.39	3254.22
563.59	3545.03
563.78	3188.69
563.98	2916.31
564.17	3211.22
564.37	3125.20
564.56	3469.26
564.76	3057.62
564.96	3393.48
565.15	3536.84
565.35	3966.92
565.54	3248.08
565.74	3182.54
565.93	3561.42
566.13	3459.02
566.32	3282.89
566.52	3303.37
566.71	3463.12
566.91	3643.34
567.11	3246.03
567.30	3057.62
567.50	3614.66
567.69	3487.69
567.89	3102.67
568.08	3076.05
568.28	3518.41
568.47	3272.65
568.67	3110.86
568.86	3139.54
569.06	3561.42
569.25	3354.57
569.45	3051.47
569.64	3266.51
569.84	3354.57
570.04	3459.02
570.23	3180.50
570.43	3256.27
570.62	3452.88
570.82	3764.17
571.01	3112.91
571.21	3172.30
571.40	3266.51
571.60	3516.36
571.79	3237.84
571.99	3155.92
572.18	3241.93
572.38	3551.18
572.57	3252.17
572.77	3270.61
572.96	4016.07
573.16	3483.59
573.35	3198.93
573.55	3385.29
573.74	3592.14
573.94	3358.67
574.13	3188.69
574.33	3246.03
574.52	3661.77
574.71	3452.88
574.91	3155.92
575.10	3049.43
575.30	3303.37
575.49	3221.45
575.69	3098.58
575.88	3067.86
576.08	3368.91
576.27	3690.44
576.47	3125.20
576.66	3315.66
576.86	3841.99
577.05	3502.03
577.25	3317.71
577.44	3418.06
577.64	3262.41
577.83	3608.52
578.02	3151.82
578.22	3272.65
578.41	3821.51
578.61	3383.24
578.80	3057.62
579.00	3217.36
579.19	3344.33
579.39	3510.22
579.58	3295.18
579.77	3213.26
579.97	3741.64
580.16	3708.87
580.36	3448.78
580.55	3225.55
580.75	3606.47
580.94	3471.31
581.13	3409.87
581.33	3450.83
581.52	3354.57
581.72	3776.45
581.91	3289.04
582.11	3090.38
582.30	3606.47
582.49	3485.64
582.69	3454.92
582.88	3221.45
583.08	3532.75
583.27	3659.72
583.47	3389.39
583.66	3125.20
583.85	3248.08
584.05	3418.06
584.24	3319.76
584.44	3286.99
584.63	3604.42
584.82	3706.82
585.02	3373.00
585.21	3262.41
585.41	3565.51
585.60	3489.74
585.79	3385.29
585.99	3497.93
586.18	3436.49
586.37	4460.48
586.57	6680.47
586.76	18648.80
586.96	37340.61
587.15	49919.24
587.34	58166.41
587.54	61848.66
587.73	53886.15
587.93	38890.93
588.12	30230.07
588.31	24546.95
588.51	22277.80
588.70	20604.61
588.89	17946.35
589.09	15443.73
589.28	13289.27
589.47	10438.50
589.67	7856.01
589.86	6199.20
590.06	4990.90
590.25	4401.08
590.44	3913.67
590.64	3538.89
590.83	3639.24
591.02	3749.83
591.22	3139.54
591.41	3266.51
591.60	3368.91
591.80	3971.01
591.99	3002.32
592.18	3184.59
592.38	3729.35
592.57	3346.38
592.76	3180.50
592.96	3289.04
593.15	3385.29
593.34	3710.92
593.54	3172.30
593.73	3200.98
593.92	3465.16
594.12	3502.03
594.31	3291.09
594.50	3448.78
594.70	3545.03
594.89	3968.96
595.08	3086.29
595.28	3317.71
595.47	4065.22
595.66	3639.24
595.86	3135.44
596.05	3069.91
596.24	3391.44
596.43	3809.22
596.63	3256.27
596.82	3397.58
597.01	3614.66
597.21	3827.65
597.40	3135.44
597.59	3262.41
597.79	3383.24
597.98	3606.47
598.17	3168.21
598.36	3254.22
598.56	3577.80
598.75	3280.85
598.94	3274.70
599.14	3243.98
599.33	3377.10
599.52	3602.38
599.71	3344.33
599.91	3162.06
600.10	3522.51
600.29	3518.41
600.48	3260.37
600.68	3305.42
600.87	3459.02
601.06	3342.28
601.26	3352.52
601.45	3395.53
601.64	3428.30
601.83	3844.04
602.03	3074.00
602.22	3037.14
602.41	3708.87
602.60	3991.49
602.80	3260.37
602.99	3416.01
603.18	3389.39
603.37	3413.96
603.57	3168.21
603.76	3149.78
603.95	3772.36
604.14	3239.89
604.34	3110.86
604.53	3090.38
604.72	3487.69
604.91	3626.95
605.10	3205.07
605.30	3008.47
605.49	3891.14
605.68	3649.48
605.87	3133.39
606.07	3123.15
606.26	3487.69
606.45	3497.93
606.64	3229.65
606.84	3016.66
607.03	3403.72
607.22	3633.10
607.41	3264.46
607.60	3086.29
607.80	3610.57
607.99	3381.20
608.18	3192.78
608.37	3207.12
608.56	3264.46
608.76	3594.19
608.95	3291.09
609.14	3203.02
609.33	3753.93
609.52	3780.55
609.72	3286.99
609.91	3225.55
610.10	3506.12
610.29	3690.44
610.48	3332.05
610.68	3313.61
610.87	3465.16
611.06	3577.80
611.25	3198.93
611.44	3319.76
611.63	3366.86
611.83	3700.68
612.02	3131.34
612.21	3315.66
612.40	3035.09
612.59	3221.45
612.79	3221.45
612.98	3280.85
613.17	3737.54
613.36	3508.17
613.55	3221.45
613.74	3110.86
613.93	3454.92
614.13	3485.64
614.32	3368.91
614.51	3164.11
614.70	3487.69
614.89	3311.57
615.08	3348.43
615.28	3520.46
615.47	3196.88
615.66	3514.31
615.85	3213.26
616.04	3168.21
616.23	3432.40
616.42	3452.88
616.62	3168.21
616.81	3319.76
617.00	3438.54
617.19	3559.37
617.38	3137.49
617.57	3256.27
617.76	3753.93
617.95	3612.62
618.15	3350.48
618.34	3426.25
618.53	3096.53
618.72	3639.24
618.91	3282.89
619.10	3295.18
619.29	3416.01
619.48	3452.88
619.68	3157.97
619.87	3125.20
620.06	3106.77
620.25	3512.27
620.44	3110.86
620.63	3147.73
620.82	3493.83
621.01	3409.87
621.20	3119.06
621.39	3225.55
621.59	3483.59
621.78	3459.02
621.97	3223.50
622.16	3387.34
622.35	3456.97
622.54	3616.71
622.73	3233.74
622.92	3033.04
623.11	3626.95
623.30	3303.37
623.49	3323.85
623.68	3090.38
623.88	3737.54
624.07	3233.74
624.26	3002.32
624.45	3151.82
624.64	3430.35
624.83	3450.83
625.02	3194.83
625.21	3196.88
625.40	3528.65
625.59	3749.83
625.78	3180.50
625.97	3348.43
626.16	3690.44
626.35	3575.75
626.54	3170.26
626.74	3348.43
626.93	3377.10
627.12	3356.62
627.31	3215.31
627.50	3188.69
627.69	3598.28
627.88	3229.65
628.07	3162.06
628.26	2987.99
628.45	3323.85
628.64	3211.22
628.83	3133.39
629.02	2983.89
629.21	3581.90
629.40	3504.07
629.59	3139.54
629.78	3174.35
629.97	3461.07
630.16	3485.64
630.35	3149.78
630.54	3250.13
630.73	3319.76
630.92	3411.92
631.11	3149.78
631.30	3188.69
631.49	3665.86
631.68	3346.38
631.87	3268.56
632.06	3119.06
632.25	3887.04
632.44	3409.87
632.63	3229.65
632.82	3260.37
633.01	3305.42
633.20	3452.88
633.39	3168.21
633.58	3074.00
633.77	3561.42
633.96	3579.85
634.15	3319.76
634.34	3248.08
634.53	3512.27
634.72	3321.81
634.91	3110.86
635.10	3172.30
635.29	3583.95
635.48	3557.32
635.67	3067.86
635.86	3057.62
636.05	3723.21
636.24	3422.16
636.43	3176.40
636.62	3321.81
636.81	2928.60
637.00	3549.13
637.19	3166.16
637.38	3215.31
637.57	3407.82
637.76	3301.33
637.95	3379.15
638.14	3352.52
638.33	3471.31
638.52	3444.68
638.71	3078.10
638.89	3047.38
639.08	4016.07
639.27	3710.92
639.46	3354.57
639.65	3590.09
639.84	3850.18
640.03	4065.22
640.22	3612.62
640.41	3528.65
640.60	3495.88
640.79	3563.47
640.98	3350.48
641.17	3381.20
641.36	3545.03
641.55	3559.37
641.74	2996.18
641.92	3022.80
642.11	3237.84
642.30	3444.68
642.49	3010.51
642.68	3143.63
642.87	3520.46
643.06	3594.19
643.25	3024.85
643.44	3110.86
643.63	3327.95
643.82	3475.40
644.00	3084.24
644.19	3250.13
644.38	3219.41
644.57	3538.89
644.76	3176.40
644.95	3209.17
645.14	3461.07
645.33	3452.88
645.52	3241.93
645.71	3037.14
645.89	3274.70
646.08	3346.38
646.27	3153.87
646.46	3330.00
646.65	3074.00
646.84	3526.60
647.03	3049.43
647.22	3313.61
647.40	3532.75
647.59	3430.35
647.78	2987.99
647.97	3172.30
648.16	3196.88
648.35	3749.83
648.54	3436.49
648.73	3225.55
648.91	3665.86
649.10	3463.12
649.29	3065.81
649.48	3104.72
649.67	3602.38
649.86	3405.77
650.05	3168.21
650.23	3401.68
650.42	3370.96
650.61	3741.64
650.80	3444.68
650.99	3411.92
651.18	3731.40
651.36	3663.82
651.55	3143.63
651.74	3364.81
651.93	3368.91
652.12	3327.95
652.31	3262.41
652.49	3205.07
652.68	3317.71
652.87	3729.35
653.06	3299.28
653.25	3395.53
653.44	3471.31
653.62	3772.36
653.81	3190.74
654.00	3160.02
654.19	3565.51
654.38	3985.35
654.56	3358.67
654.75	3135.44
654.94	3635.14
655.13	3463.12
655.32	3166.16
655.51	3258.32
655.69	3278.80
655.88	3688.39
656.07	3047.38
656.26	3213.26
656.45	3184.59
656.63	3426.25
656.82	3217.36
657.01	3536.84
657.20	3221.45
657.38	3729.35
657.57	3170.26
657.76	3008.47
657.95	3565.51
658.14	3368.91
658.32	3272.65
658.51	3018.71
658.70	3446.73
658.89	3444.68
659.08	3274.70
659.26	3356.62
659.45	3254.22
659.64	3565.51
659.83	3104.72
660.01	3524.55
660.20	3397.58
660.39	3780.55
660.58	2844.63
660.76	3196.88
660.95	3123.15
661.14	3467.21
661.33	3033.04
661.51	3291.09
661.70	3315.66
661.89	3440.59
662.08	3178.45
662.26	2969.55
662.45	3233.74
662.64	3831.75
662.83	3151.82
663.01	3098.58
663.20	3276.75
663.39	3844.04
663.58	3309.52
663.76	3166.16
663.95	3647.43
664.14	3213.26
664.32	3229.65
664.51	3037.14
664.70	3039.19
664.89	3487.69
665.07	3039.19
665.26	3274.70
665.45	3188.69
665.64	3590.09
665.82	3225.55
666.01	3280.85
666.20	3121.10
666.38	3647.43
666.57	3485.64
666.76	5879.72
666.95	12609.34
667.13	18921.18
667.32	22648.49
667.51	25116.29
667.69	25601.66
667.88	20879.04
668.07	15435.54
668.25	13360.95
668.44	11765.58
668.63	10342.24
668.81	8923.00
669.00	7911.30
669.19	7241.62
669.38	6326.18
669.56	5349.29
669.75	4761.53
669.94	4308.93
670.12	3737.54
670.31	3514.31
670.50	3510.22
670.68	3649.48
670.87	3506.12
671.06	3164.11
671.24	3258.32
671.43	3774.41
671.62	3393.48
671.80	3135.44
671.99	3368.91
672.18	3473.36
672.36	3563.47
672.55	3270.61
672.74	3268.56
672.92	3295.18
673.11	3602.38
673.29	3084.24
673.48	3366.86
673.67	3403.72
673.85	3606.47
674.04	3114.96
674.23	3293.13
674.41	3860.42
674.60	3215.31
674.79	2965.46
674.97	3024.85
675.16	3565.51
675.34	3723.21
675.53	3168.21
675.72	3264.46
675.90	3819.46
676.09	3428.30
676.28	3313.61
676.46	3008.47
676.65	3588.04
676.83	3327.95
677.02	3282.89
677.21	3225.55
677.39	3516.36
677.58	3278.80
677.77	3211.22
677.95	3065.81
678.14	3450.83
678.32	3469.26
678.51	3248.08
678.70	3585.99
678.88	3274.70
679.07	3436.49
679.25	3164.11
679.44	3215.31
679.63	3180.50
679.81	3567.56
680.00	3422.16
680.18	3205.07
680.37	3899.33
680.55	3477.45
680.74	3102.67
680.93	2977.75
681.11	3436.49
681.30	3465.16
681.48	3188.69
681.67	3172.30
681.85	3446.73
682.04	3239.89
682.23	3422.16
682.41	3323.85
682.60	3467.21
682.78	3479.50
682.97	3084.24
683.15	3278.80
683.34	3418.06
683.53	3704.78
683.71	3065.81
683.90	3237.84
684.08	3844.04
684.27	3407.82
684.45	3217.36
684.64	3278.80
684.82	3366.86
685.01	3573.71
685.19	3166.16
685.38	3553.23
685.57	3442.64
685.75	3311.57
685.94	3141.58
686.12	3186.64
686.31	3377.10
686.49	3801.03
686.68	2969.55
686.86	3223.50
687.05	3317.71
687.23	3741.64
687.42	3213.26
687.60	3061.71
687.79	3575.75
687.97	3772.36
688.16	3366.86
688.34	3352.52
688.53	3133.39
688.71	3510.22
688.90	3540.94
689.08	3262.41
689.27	3000.27
689.45	3665.86
689.64	3309.52
689.82	3270.61
690.01	3563.47
690.19	3461.07
690.38	3254.22
690.56	3291.09
690.75	3194.83
690.93	3358.67
691.12	3129.30
691.30	3260.37
691.49	3364.81
691.67	3487.69
691.86	3520.46
692.04	3143.63
692.23	3319.76
692.41	3467.21
692.60	3618.76
692.78	3497.93
692.97	3418.06
693.15	3565.51
693.34	3397.58
693.52	3440.59
693.71	3295.18
693.89	3321.81
694.08	3139.54
694.26	3215.31
694.44	3614.66
694.63	3618.76
694.81	3076.05
695.00	3194.83
695.18	3672.01
695.37	3960.77
695.55	3295.18
695.74	3297.23
695.92	3311.57
696.10	3700.68
696.29	3100.62
696.47	3184.59
696.66	3196.88
696.84	3213.26
697.03	3182.54
697.21	3516.36
697.40	4790.20
697.58	3729.35
697.76	3180.50
697.95	3289.04
698.13	3164.11
698.32	3303.37
698.50	3174.35
698.68	3151.82
698.87	3565.51
699.05	3817.41
699.24	3211.22
699.42	3196.88
699.61	3551.18
699.79	3452.88
699.97	3182.54
700.16	3080.14
700.34	3164.11
700.53	3434.44
700.71	3393.48
700.89	3336.14
701.08	3342.28
701.26	3424.20
701.45	3514.31
701.63	3127.25
701.81	3327.95
702.00	3260.37
702.18	3274.70
702.37	3233.74
702.55	3708.87
702.73	3477.45
702.92	3153.87
703.10	3512.27
703.28	3551.18
703.47	3182.54
703.65	3403.72
703.84	3268.56
704.02	3313.61
704.20	3702.73
704.39	3117.01
704.57	3127.25
704.75	3526.60
704.94	3499.98
705.12	3420.11
705.30	3893.19
705.49	8097.67
705.67	14698.27
705.86	19314.39
706.04	21464.76
706.22	24037.01
706.41	22210.22
706.59	17037.05
706.77	13549.36
706.96	11698.00
707.14	10917.72
707.32	9187.19
707.51	8294.27
707.69	6850.46
707.87	5834.66
708.06	4712.38
708.24	4265.92
708.42	4034.50
708.61	4327.36
708.79	3319.76
708.97	3383.24
709.16	3545.03
709.34	3436.49
709.52	3166.16
709.71	3237.84
709.89	3647.43
710.07	3284.94
710.26	3151.82
710.44	3239.89
710.62	3629.00
710.80	3442.64
710.99	3346.38
711.17	3356.62
711.35	3186.64
711.54	3344.33
711.72	3383.24
711.90	3254.22
712.09	3551.18
712.27	3334.09
712.45	3377.10
712.63	3282.89
712.82	3581.90
713.00	3512.27
713.18	3352.52
713.37	3436.49
713.55	3647.43
713.73	3575.75
713.91	3243.98
714.10	3233.74
714.28	3444.68
714.46	3528.65
714.65	3346.38
714.83	3209.17
715.01	3456.97
715.19	3409.87
715.38	3092.43
715.56	3334.09
715.74	3368.91
715.92	3239.89
716.11	3602.38
716.29	2942.93
716.47	3426.25
716.65	3393.48
716.84	3043.28
717.02	3198.93
717.20	3082.19
717.38	3256.27
717.57	3305.42
717.75	3278.80
717.93	3366.86
718.11	3545.03
718.30	3033.04
718.48	3327.95
718.66	3655.62
718.84	3649.48
719.03	3252.17
719.21	3039.19
719.39	3803.08
719.57	3542.99
719.75	3303.37
719.94	3053.52
720.12	3407.82
720.30	3428.30
720.48	3278.80
720.67	3266.51
720.85	3233.74
721.03	3315.66
721.21	3188.69
721.39	3239.89
721.58	3479.50
721.76	3467.21
721.94	3264.46
722.12	3291.09
722.30	3749.83
722.49	3401.68
722.67	3219.41
722.85	3225.55
723.03	3188.69
723.21	3342.28
723.40	3211.22
723.58	3395.53
723.76	3631.05
723.94	3575.75
724.12	3219.41
724.30	3368.91
724.49	3622.86
724.67	3172.30
724.85	3338.19
725.03	3078.10
725.21	3565.51
725.40	3717.06
725.58	3311.57
725.76	3407.82
725.94	3577.80
726.12	3235.79
726.30	3278.80
726.49	3223.50
726.67	3434.44
726.85	3569.61
727.03	3930.05
727.21	4868.02
727.39	6082.47
727.57	6496.16
727.76	6815.64
727.94	6819.74
728.12	5951.40
728.30	5066.67
728.48	4794.29
728.66	4450.24
728.84	4353.98
729.03	3915.72
729.21	3663.82
729.39	3643.34
729.57	3481.55
729.75	3553.23
729.93	3516.36
730.11	3231.69
730.30	3348.43
730.48	3327.95
730.66	3237.84
730.84	3311.57
731.02	3487.69
731.20	3297.23
731.38	3246.03
731.56	3071.95
731.74	3135.44
731.93	3571.66
732.11	3282.89
732.29	3278.80
732.47	3553.23
732.65	3471.31
732.83	3434.44
733.01	3315.66
733.19	3229.65
733.37	3508.17
733.56	3188.69
733.74	3026.90
733.92	3798.98
734.10	3393.48
734.28	3336.14
734.46	3026.90
734.64	3379.15
734.82	3393.48
735.00	3172.30
735.18	3123.15
735.36	3442.64
735.54	3426.25
735.73	3094.48
735.91	3362.76
736.09	3852.23
736.27	3389.39
736.45	3340.24
736.63	3008.47
736.81	3338.19
736.99	3663.82
737.17	3368.91
737.35	3100.62
737.53	3434.44
737.71	3385.29
737.89	3499.98
738.07	3157.97
738.25	3254.22
738.43	3166.16
738.61	3160.02
738.80	3069.91
738.98	3186.64
739.16	3385.29
739.34	3190.74
739.52	3547.08
739.70	3311.57
739.88	3551.18
740.06	3313.61
740.24	2977.75
740.42	3684.30
740.60	3106.77
740.78	3164.11
740.96	2981.84
741.14	3385.29
741.32	3409.87
741.50	3041.23
741.68	3504.07
741.86	3764.17
742.04	3231.69
742.22	3076.05
742.40	3188.69
742.58	3565.51
742.76	3309.52
742.94	3424.20
743.12	3020.75
743.30	3426.25
743.48	3600.33
743.66	3176.40
743.84	3205.07
744.02	3358.67
744.20	3456.97
744.38	3090.38
744.56	3127.25
744.74	3860.42
744.92	3532.75
745.10	3381.20
745.28	3219.41
745.46	3745.73
745.64	3483.59
745.82	3270.61
746.00	3045.33
746.18	3557.32
746.36	3229.65
746.54	3280.85
746.72	3209.17
746.90	3252.17
747.08	3672.01
747.26	3207.12
747.44	3344.33
747.62	3549.13
747.80	3579.85
747.98	3295.18
748.15	3209.17
748.33	3817.41
748.51	3469.26
748.69	3338.19
748.87	3080.14
749.05	3291.09
749.23	3461.07
749.41	3182.54
749.59	3182.54
749.77	3618.76
749.95	3428.30
750.13	3102.67
750.31	3436.49
750.49	3413.96
750.67	3622.86
750.85	3325.90
751.03	3233.74
751.20	3921.86
751.38	3475.40
751.56	3213.26
751.74	3176.40
751.92	3356.62
752.10	3151.82
752.28	3360.72
752.46	3188.69
752.64	3426.25
752.82	3385.29
753.00	3262.41
753.18	3172.30
753.35	3391.44
753.53	3385.29
753.71	3164.11
753.89	3198.93
754.07	3528.65
754.25	3631.05
754.43	3377.10
754.61	3239.89
754.79	3534.79
754.97	3377.10
755.14	3393.48
755.32	3149.78
755.50	3381.20
755.68	3450.83
755.86	3094.48
756.04	3119.06
756.22	2985.94
756.40	3633.10
756.57	3348.43
756.75	3157.97
756.93	3686.34
757.11	3725.26
757.29	3069.91
757.47	3160.02
757.65	3067.86
757.82	3004.37
758.00	3098.58
758.18	3147.73
758.36	3286.99
758.54	3893.19
758.72	3026.90
758.90	3342.28
759.07	3504.07
759.25	3213.26
759.43	3368.91
759.61	3024.85
759.79	4591.55
759.97	3688.39
760.15	3221.45
760.32	3143.63
760.50	3622.86
760.68	3821.51
760.86	3088.34
761.04	3434.44
761.22	3616.71
761.39	3504.07
761.57	3370.96
761.75	3196.88
761.93	3608.52
762.11	3385.29
762.28	3327.95
762.46	3086.29
762.64	3606.47
762.82	3061.71
763.00	3180.50
763.18	3387.34
763.35	3262.41
763.53	3549.13
763.71	3313.61
763.89	3180.50
764.07	3463.12
764.24	3524.55
764.42	3307.47
764.60	3205.07
764.78	3489.74
764.96	3633.10
765.13	3375.05
765.31	3067.86
765.49	3495.88
765.67	3231.69
765.84	3174.35
766.02	3145.68
766.20	3071.95
766.38	3542.99
766.56	3280.85
766.73	3260.37
766.91	3532.75
767.09	3356.62
767.27	3299.28
767.44	3160.02
767.62	3575.75
767.80	3459.02
767.98	3067.86
768.15	3213.26
768.33	3594.19
768.51	3561.42
768.69	3379.15
768.87	3215.31
769.04	3473.36
769.22	3979.20
769.40	3383.24
769.58	3352.52
769.75	3493.83
769.93	3663.82
770.11	3225.55
770.28	3074.00
770.46	3602.38
770.64	3559.37
770.82	3262.41
770.99	3127.25
771.17	3618.76
771.35	3385.29
771.53	3286.99
771.70	3098.58
771.88	3467.21
772.06	3411.92
772.23	3186.64
772.41	3196.88
772.59	3436.49
772.77	3227.60
772.94	3243.98
773.12	3254.22
773.30	3313.61
773.47	3418.06
773.65	3117.01
773.83	3325.90
774.01	3526.60
774.18	3039.19
774.36	3262.41
774.54	3176.40
774.71	3508.17
774.89	3076.05
775.07	3133.39
775.24	3143.63
775.42	3370.96
775.60	3860.42
775.78	3219.41
775.95	3049.43
776.13	3131.34
776.31	3071.95
776.48	3379.15
776.66	3366.86
776.84	3330.00
777.01	3262.41
777.19	3237.84
777.37	3200.98
777.54	3540.94
777.72	3868.61
777.90	3321.81
778.07	3180.50
778.25	4190.14
778.43	3655.62
778.60	3153.87
778.78	3307.47
778.96	3764.17
779.13	3100.62
779.31	3286.99
779.49	3280.85
779.66	3446.73
779.84	3391.44
780.01	3114.96
780.19	3104.72
780.37	3749.83
780.54	3575.75
780.72	3102.67
780.90	3168.21
781.07	3352.52
781.25	3311.57
781.43	3360.72
781.60	3168.21
781.78	3798.98
781.95	3585.99
782.13	3139.54
782.31	3143.63
782.48	3082.19
782.66	3444.68
782.83	3420.11
783.01	3313.61
783.19	3557.32
783.36	3370.96
783.54	3168.21
783.72	3270.61
783.89	3198.93
784.07	3508.17
784.24	3309.52
784.42	3422.16
784.60	3508.17
784.77	3545.03
784.95	2901.97
785.12	3213.26
785.30	3440.59
785.47	3319.76
785.65	3098.58
785.83	3282.89
786.00	3266.51
786.18	3469.26
786.35	3094.48
786.53	3129.30
786.71	3680.20
786.88	3454.92
787.06	3274.70
787.23	3250.13
787.41	3172.30
787.58	3383.24
787.76	3145.68
787.94	3188.69
788.11	3463.12
788.29	3170.26
788.46	3233.74
788.64	3090.38
788.81	3373.00
788.99	3205.07
789.16	3172.30
789.34	3237.84
789.52	3282.89
789.69	3289.04
789.87	3090.38
790.04	3166.16
790.22	3465.16
790.39	3864.52
790.57	3074.00
790.74	3135.44
790.92	3575.75
791.09	3061.71
791.27	3256.27
791.44	3184.59
791.62	3362.76
791.79	3680.20
791.97	3344.33
792.15	3614.66
792.32	3631.05
792.50	3561.42
792.67	3370.96
792.85	3475.40
793.02	3497.93
793.20	3284.94
793.37	3076.05
793.55	3100.62
793.72	3153.87
793.90	3631.05
794.07	3143.63
794.25	3160.02
794.42	3442.64
794.60	3385.29
794.77	3203.02
794.95	3389.39
795.12	3663.82
795.30	3428.30
795.47	3010.51
795.65	3461.07
795.82	3516.36
796.00	3260.37
796.17	3246.03
796.34	3141.58
796.52	3471.31
796.69	3614.66
796.87	3239.89
797.04	3379.15
797.22	3528.65
797.39	3514.31
797.57	3350.48
797.74	3268.56
797.92	3557.32
798.09	3299.28
798.27	3549.13
798.44	3133.39
798.62	3295.18
798.79	3364.81
798.96	3379.15
799.14	3266.51
799.31	3981.25
799.49	3411.92
799.66	3246.03
799.84	3276.75
800.01	3061.71
800.19	3420.11
800.36	2990.03
800.53	3264.46
800.71	3499.98
800.88	3708.87
801.06	3114.96
801.23	3153.87
801.41	3348.43
801.58	3352.52
801.75	3192.78
801.93	3213.26
802.10	3559.37
802.28	3370.96
802.45	3254.22
802.63	3264.46
802.80	3708.87
802.97	3317.71
803.15	3215.31
803.32	3143.63
803.50	3223.50
803.67	3207.12
803.84	3074.00
804.02	3286.99
804.19	3274.70
804.37	2955.22
804.54	2985.94
804.71	3147.73
804.89	3403.72
805.06	3203.02
805.24	3129.30
805.41	3071.95
805.58	3307.47
805.76	3919.81
805.93	3145.68
806.10	3278.80
806.28	3612.62
806.45	3469.26
806.63	3393.48
806.80	3248.08
806.97	3461.07
807.15	3614.66
807.32	3248.08
807.49	3176.40
807.67	3170.26
807.84	3379.15
808.01	3102.67
808.19	3397.58
808.36	3899.33
808.54	3393.48
808.71	3151.82
808.88	3196.88
809.06	3690.44
809.23	3768.26
809.40	3231.69
809.58	3149.78
809.75	3504.07
809.92	3250.13
810.10	3450.83
810.27	3123.15
810.44	3518.41
810.62	3571.66
810.79	3231.69
810.96	3239.89
811.14	3301.33
811.31	3590.09
811.48	3377.10
811.66	3278.80
811.83	3684.30
812.00	3547.08
812.18	3301.33
812.35	3563.47
812.52	3420.11
812.69	3315.66
812.87	3196.88
813.04	3141.58
813.21	3368.91
813.39	3321.81
813.56	3182.54
813.73	3487.69
813.91	3061.71
814.08	3411.92
814.25	3225.55
814.42	3028.95
814.60	3370.96
814.77	3366.86
814.94	3098.58
815.12	3270.61
815.29	3739.59
815.46	3319.76
815.63	3237.84
815.81	3213.26
815.98	3334.09
816.15	3319.76
816.33	3362.76
816.50	3164.11
816.67	3358.67
816.84	3475.40
817.02	3082.19
817.19	3213.26
817.36	3440.59
817.53	3592.14
817.71	3063.76
817.88	3254.22
818.05	3424.20
818.22	3338.19
818.40	3352.52
818.57	3190.74
818.74	3514.31
818.91	3325.90
819.09	3418.06
819.26	3301.33
819.43	3317.71
819.60	3278.80
819.78	3327.95
819.95	3213.26
820.12	3170.26
820.29	3708.87
820.47	3512.27
820.64	3180.50
820.81	3186.64
820.98	3213.26
821.15	3270.61
821.33	3274.70
821.50	3078.10
821.67	3590.09
821.84	3135.44
822.02	3209.17
822.19	3577.80
822.36	3360.72
822.53	3176.40
822.70	3135.44
822.88	3366.86
823.05	3764.17
823.22	3248.08
823.39	3172.30
823.56	3403.72
823.74	3782.60
823.91	3076.05
824.08	3123.15
824.25	3162.06
824.42	3780.55
824.60	3108.82
824.77	3274.70
824.94	3368.91
825.11	3491.79
825.28	3018.71
825.45	3405.77
825.63	3489.74
825.80	3213.26
825.97	3278.80
826.14	3227.60
826.31	3055.57
826.48	3622.86
826.66	3135.44
826.83	3174.35
827.00	3379.15
827.17	3233.74
827.34	3272.65
827.51	3114.96
827.69	3391.44
827.86	3035.09
828.03	3203.02
828.20	3172.30
828.37	3321.81
828.54	3483.59
828.71	3102.67
828.89	3307.47
829.06	3526.60
829.23	3624.90
829.40	3174.35
829.57	3160.02
829.74	3585.99
829.91	3286.99
830.09	3131.34
830.26	3350.48
830.43	3825.61
830.60	3305.42
830.77	3278.80
830.94	3370.96
831.11	3583.95
831.28	3348.43
831.46	3340.24
831.63	3186.64
831.80	3495.88
831.97	3270.61
832.14	3188.69
832.31	3241.93
832.48	3411.92
832.65	3588.04
832.82	3366.86
832.99	3207.12
833.17	3194.83
833.34	3719.11
833.51	3180.50
833.68	2969.55
833.85	3657.67
834.02	3211.22
834.19	3143.63
834.36	3209.17
834.53	3475.40
834.70	3676.10
834.87	3131.34
835.04	2910.16
835.22	3207.12
835.39	3360.72
835.56	2979.79
835.73	3067.86
835.90	3598.28
836.07	3139.54
836.24	3157.97
836.41	3065.81
836.58	3260.37
836.75	3680.20
836.92	3000.27
837.09	3053.52
837.26	3602.38
837.43	3499.98
837.60	3008.47
837.77	3037.14
837.94	3524.55
838.12	3676.10
838.29	2947.03
838.46	2893.78
838.63	3125.20
838.80	3796.93
838.97	3110.86
839.14	2971.60
839.31	3485.64
839.48	3522.51
839.65	3024.85
839.82	3164.11
839.99	3350.48
840.16	3532.75
840.33	2975.70
840.50	3110.86
840.67	3246.03
840.84	2981.84
841.01	3018.71
841.18	2936.79
841.35	3452.88
841.52	3620.81
841.69	3319.76
841.86	3016.66
842.03	3426.25
842.20	3594.19
842.37	2971.60
842.54	3057.62
842.71	3418.06
842.88	3084.24
843.05	2996.18
843.22	2918.36
843.39	3514.31
843.56	3344.33
843.73	2983.89
843.90	3084.24
844.07	3389.39
844.24	3624.90
844.41	3139.54
844.58	3112.91
844.75	3434.44
844.92	3524.55
845.09	3094.48
845.26	3055.57
845.43	3508.17
845.60	3276.75
845.77	3153.87
845.94	3155.92
846.10	3618.76
846.27	3065.81
846.44	2863.06
846.61	2951.12
846.78	3522.51
846.95	3700.68
847.12	3010.51
847.29	3106.77
847.46	3260.37
847.63	3592.14
847.80	2992.08
847.97	3082.19
848.14	4014.02
848.31	3379.15
848.48	2883.54
848.65	2924.50
848.82	3225.55
848.98	3872.71
849.15	3155.92
849.32	3123.15
849.49	3616.71
849.66	3450.83
849.83	2994.13
850.00	2914.26
850.17	3545.03
850.34	3338.19
850.51	2916.31
850.68	3020.75
850.85	3839.94
851.01	3379.15
851.18	2908.12
851.35	3082.19
851.52	3467.21
851.69	3735.50
851.86	3059.67
852.03	3049.43
852.20	3606.47
852.37	3368.91
852.53	2863.06
852.70	2920.40
852.87	3477.45
853.04	3573.71
853.21	2979.79
853.38	3323.85
853.55	3731.40
853.72	3606.47
853.89	2893.78
854.05	2996.18
854.22	3442.64
854.39	3280.85
854.56	2992.08
854.73	3176.40
854.90	3184.59
855.07	3440.59
855.23	2932.69
855.40	2936.79
855.57	3393.48
855.74	2979.79
855.91	3241.93
856.08	2895.83
856.25	3127.25
856.41	3248.08
856.58	3104.72
856.75	2963.41
856.92	3196.88
857.09	3579.85
857.26	2926.55
857.42	3026.90
857.59	3588.04
857.76	3334.09
857.93	3018.71
858.10	3117.01
858.27	3223.50
858.43	3354.57
858.60	2975.70
858.77	2924.50
858.94	3340.24
859.11	3624.90
859.27	3217.36
859.44	2953.17
859.61	3852.23
859.78	3598.28
859.95	3098.58
860.12	2920.40
860.28	3907.52
860.45	3858.37
860.62	2951.12
860.79	3112.91
860.95	3325.90
861.12	3229.65
861.29	2912.21
861.46	3010.51
861.63	3504.07
861.79	3448.78
861.96	2856.92
862.13	3033.04
862.30	3741.64
862.47	3299.28
862.63	2885.59
862.80	3043.28
862.97	3571.66
863.14	3467.21
863.30	3078.10
863.47	2936.79
863.64	3788.74
863.81	3459.02
863.97	2957.27
864.14	3059.67
864.31	3393.48
864.48	3493.83
864.65	3045.33
864.81	3106.77
864.98	3583.95
865.15	3669.96
865.32	3117.01
865.48	3100.62
865.65	3813.32
865.82	3346.38
865.98	3090.38
866.15	3071.95
866.32	3354.57
866.49	3297.23
866.65	3213.26
866.82	3020.75
866.99	3389.39
867.16	3266.51
867.32	3059.67
867.49	2944.98
867.66	3375.05
867.83	3270.61
867.99	2922.45
868.16	3076.05
868.33	3147.73
868.49	3495.88
868.66	3065.81
868.83	3108.82
868.99	3381.20
869.16	3422.16
869.33	3108.82
869.50	3082.19
869.66	3473.36
869.83	3393.48
870.00	2959.31
870.16	3102.67
870.33	3436.49
870.50	3704.78
870.66	3100.62
870.83	3049.43
871.00	3428.30
871.17	3508.17
871.33	3108.82
871.50	2924.50
871.67	3436.49
871.83	3157.97
872.00	3076.05
872.17	2955.22
872.33	3895.24
872.50	3624.90
872.67	2979.79
872.83	2940.88
873.00	3479.50
873.17	3352.52
873.33	3090.38
873.50	3045.33
873.67	3196.88
873.83	3233.74
874.00	3084.24
874.16	3235.79
874.33	3426.25
874.50	3160.02
874.66	2932.69
874.83	3155.92
875.00	3647.43
875.16	3631.05
875.33	3119.06
875.50	2787.29
875.66	3373.00
875.83	3426.25
875.99	3110.86
876.16	3198.93
876.33	3186.64
876.49	3389.39
876.66	3121.10
876.83	3086.29
876.99	3082.19
877.16	3344.33
877.32	3018.71
877.49	3160.02
877.66	3407.82
877.82	3690.44
877.99	3026.90
878.15	3303.37
878.32	3483.59
878.49	3532.75
878.65	3090.38
878.82	3254.22
878.98	3397.58
879.15	3551.18
879.32	3162.06
879.48	3235.79
879.65	3411.92
879.81	3321.81
879.98	3076.05
880.15	3098.58
880.31	3540.94
880.48	3227.60
880.64	3143.63
880.81	3180.50
880.97	3760.07
881.14	3715.02
881.31	3014.61
881.47	3114.96
881.64	3479.50
881.80	3164.11
881.97	3225.55
882.13	2996.18
882.30	3205.07
882.47	3373.00
882.63	3039.19
882.80	3016.66
882.96	3348.43
883.13	3678.15
883.29	3131.34
883.46	3014.61
883.62	3917.76
883.79	3356.62
883.95	3180.50
884.12	2908.12
884.29	3717.06
884.45	3362.76
884.62	3039.19
884.78	2963.41
884.95	3811.27
885.11	3198.93
885.28	3112.91
885.44	3047.38
885.61	3629.00
885.77	3829.70
885.94	3082.19
886.10	3147.73
886.27	3399.63
886.43	3921.86
886.60	3198.93
886.76	3057.62
886.93	3237.84
887.09	3477.45
887.26	2953.17
887.42	3098.58
887.59	3647.43
887.75	3993.54
887.92	3241.93
888.08	3168.21
888.25	3813.32
888.41	3678.15
888.58	3076.05
888.74	2975.70
888.91	3262.41
>>>>>End Processed Spectral Data<<<<<
