SpectraSuite Data File
++++++++++++++++++++++++++++++++++++
Date: Fri May 06 09:29:13 CEST 2016
User: root
Dark Spectrum Present: No
Reference Spectrum Present: No
Number of Sampled Component Spectra: 1
Spectrometers: USB4C02835
Integration Time (usec): 100000 (USB4C02835)
Spectra Averaged: 1 (USB4C02835)
Boxcar Smoothing: 0 (USB4C02835)
Correct for Electrical Dark: No (USB4C02835)
Strobe/Lamp Enabled: No (USB4C02835)
Correct for Detector Non-linearity: No (USB4C02835)
Correct for Stray Light: No (USB4C02835)
Number of Pixels in Processed Spectrum: 3648
>>>>>Begin Processed Spectral Data<<<<<
177.47	2277.34
177.69	2277.34
177.91	2277.34
178.13	2361.31
178.36	2344.92
178.58	3088.34
178.80	3215.31
179.02	3069.91
179.24	3141.58
179.46	2848.72
179.68	2949.08
179.90	3397.58
180.13	3424.20
180.35	2828.24
180.57	2924.50
180.79	3633.10
181.01	3473.36
181.23	3006.42
181.45	3035.09
181.67	3608.52
181.90	3575.75
182.12	3022.80
182.34	2772.95
182.56	3514.31
182.78	3575.75
183.00	2924.50
183.22	3000.27
183.44	3045.33
183.66	4145.09
183.89	3094.48
184.11	3043.28
184.33	3616.71
184.55	3794.89
184.77	2953.17
184.99	2918.36
185.21	3278.80
185.43	4095.94
185.65	2971.60
185.87	3030.99
186.10	4057.03
186.32	4030.40
186.54	3127.25
186.76	3110.86
186.98	3635.14
187.20	3377.10
187.42	3039.19
187.64	2963.41
187.86	3561.42
188.08	3700.68
188.30	2895.83
188.52	2959.31
188.75	3667.91
188.97	3712.97
189.19	2828.24
189.41	2895.83
189.63	3645.38
189.85	3393.48
190.07	2854.87
190.29	2844.63
190.51	3495.88
190.73	3049.43
190.95	3188.69
191.17	3000.27
191.39	3078.10
191.61	3373.00
191.84	2912.21
192.06	3080.14
192.28	3200.98
192.50	4198.34
192.72	3026.90
192.94	3098.58
193.16	3708.87
193.38	3561.42
193.60	2936.79
193.82	3172.30
194.04	3663.82
194.26	3581.90
194.48	3014.61
194.70	2922.45
194.92	3336.14
195.14	3639.24
195.36	2904.02
195.58	3086.29
195.80	3385.29
196.02	3364.81
196.24	2922.45
196.46	3084.24
196.69	3360.72
196.91	4063.17
197.13	2971.60
197.35	3067.86
197.57	3792.84
197.79	3594.19
198.01	3045.33
198.23	2967.51
198.45	3600.33
198.67	3172.30
198.89	2762.71
199.11	3033.04
199.33	3389.39
199.55	2940.88
199.77	2887.64
199.99	3063.76
200.21	3381.20
200.43	3542.99
200.65	2824.15
200.87	2777.05
201.09	3495.88
201.31	3426.25
201.53	2992.08
201.75	2985.94
201.97	3508.17
202.19	3475.40
202.41	3084.24
202.63	3153.87
202.85	3561.42
203.07	3469.26
203.29	3045.33
203.51	2951.12
203.73	3266.51
203.95	4097.99
204.17	2953.17
204.39	3139.54
204.61	3444.68
204.83	3356.62
205.05	3074.00
205.27	2959.31
205.49	3905.48
205.71	3389.39
205.93	2863.06
206.15	2834.39
206.37	3477.45
206.59	3368.91
206.81	2803.67
207.03	2813.91
207.25	3268.56
207.47	3610.57
207.69	3065.81
207.91	3223.50
208.13	3823.56
208.34	3317.71
208.56	2906.07
208.78	2889.68
209.00	3456.97
209.22	3366.86
209.44	3045.33
209.66	2918.36
209.88	3454.92
210.10	3383.24
210.32	2942.93
210.54	3088.34
210.76	3395.53
210.98	3659.72
211.20	2840.53
211.42	3094.48
211.64	3794.89
211.86	3577.80
212.08	3022.80
212.30	2959.31
212.52	3403.72
212.74	3479.50
212.96	3059.67
213.17	3086.29
213.39	3626.95
213.61	3885.00
213.83	2912.21
214.05	2861.01
214.27	3672.01
214.49	3227.60
214.71	2918.36
214.93	3047.38
215.15	3454.92
215.37	3622.86
215.59	2852.82
215.81	3139.54
216.03	3665.86
216.24	3471.31
216.46	2967.51
216.68	3041.23
216.90	3647.43
217.12	3645.38
217.34	2879.44
217.56	3065.81
217.78	3688.39
218.00	3618.76
218.22	3100.62
218.44	3098.58
218.66	3524.55
218.87	3925.96
219.09	3020.75
219.31	2924.50
219.53	3518.41
219.75	3286.99
219.97	3008.47
220.19	2996.18
220.41	3426.25
220.63	3766.21
220.85	2967.51
221.06	2891.73
221.28	3768.26
221.50	3575.75
221.72	2899.92
221.94	2838.48
222.16	3499.98
222.38	3760.07
222.60	2942.93
222.82	3094.48
223.03	3637.19
223.25	3215.31
223.47	2924.50
223.69	3180.50
223.91	3520.46
224.13	3561.42
224.35	2789.33
224.57	3108.82
224.78	3692.49
225.00	3205.07
225.22	3137.49
225.44	2889.68
225.66	3649.48
225.88	3327.95
226.10	3057.62
226.32	2920.40
226.53	3895.24
226.75	3370.96
226.97	3024.85
227.19	2983.89
227.41	3282.89
227.63	3434.44
227.85	2779.09
228.06	3000.27
228.28	3483.59
228.50	3688.39
228.72	2834.39
228.94	2887.64
229.16	3092.43
229.37	3182.54
229.59	2836.44
229.81	3221.45
230.03	3393.48
230.25	3135.44
230.47	2813.91
230.69	3008.47
230.90	3606.47
231.12	3289.04
231.34	3049.43
231.56	3102.67
231.78	3196.88
232.00	3520.46
232.21	3090.38
232.43	2965.46
232.65	2985.94
232.87	3555.27
233.09	2838.48
233.30	2836.44
233.52	3622.86
233.74	3354.57
233.96	2955.22
234.18	3131.34
234.40	3430.35
234.61	4034.50
234.83	2813.91
235.05	2916.31
235.27	3981.25
235.49	3768.26
235.70	2805.72
235.92	3002.32
236.14	3561.42
236.36	4151.23
236.58	2871.25
236.79	3092.43
237.01	3362.76
237.23	3278.80
237.45	3219.41
237.67	3035.09
237.88	3585.99
238.10	3852.23
238.32	2848.72
238.54	2949.08
238.76	3440.59
238.97	3213.26
239.19	2811.86
239.41	2998.23
239.63	3725.26
239.85	3368.91
240.06	3002.32
240.28	2959.31
240.50	3801.03
240.72	3434.44
240.93	2920.40
241.15	3063.76
241.37	3467.21
241.59	3768.26
241.81	3018.71
242.02	3024.85
242.24	3540.94
242.46	3590.09
242.68	2834.39
242.89	2959.31
243.11	3674.06
243.33	3428.30
243.55	2990.03
243.76	3006.42
243.98	3297.23
244.20	3512.27
244.42	3016.66
244.64	2967.51
244.85	3170.26
245.07	3264.46
245.29	2957.27
245.51	3000.27
245.72	3473.36
245.94	3805.13
246.16	2940.88
246.38	3004.37
246.59	3416.01
246.81	3229.65
247.03	2918.36
247.24	2770.90
247.46	3434.44
247.68	3469.26
247.90	2885.59
248.11	2996.18
248.33	3565.51
248.55	3385.29
248.77	3008.47
248.98	3096.53
249.20	3778.50
249.42	3538.89
249.64	2858.96
249.85	2963.41
250.07	3375.05
250.29	3614.66
250.50	2955.22
250.72	2938.84
250.94	3487.69
251.16	3958.72
251.37	2910.16
251.59	3071.95
251.81	3653.58
252.02	3745.73
252.24	2899.92
252.46	3172.30
252.68	3227.60
252.89	3397.58
253.11	2797.53
253.33	3176.40
253.54	3837.89
253.76	3266.51
253.98	2938.84
254.20	2901.97
254.41	3157.97
254.63	3325.90
254.85	2813.91
255.06	3188.69
255.28	3596.23
255.50	3401.68
255.71	2949.08
255.93	2822.10
256.15	3391.44
256.36	3622.86
256.58	2789.33
256.80	2936.79
257.02	3393.48
257.23	3428.30
257.45	2951.12
257.67	3102.67
257.88	3319.76
258.10	3620.81
258.32	2971.60
258.53	3049.43
258.75	3895.24
258.97	3256.27
259.18	2871.25
259.40	2959.31
259.62	3858.37
259.83	3704.78
260.05	2975.70
260.27	3948.48
260.48	3723.21
260.70	3221.45
260.92	2856.92
261.13	2944.98
261.35	3499.98
261.57	3534.79
261.78	2889.68
262.00	2963.41
262.22	3581.90
262.43	3252.17
262.65	2967.51
262.86	2953.17
263.08	4087.75
263.30	3528.65
263.51	2795.48
263.73	2944.98
263.95	3858.37
264.16	3246.03
264.38	2906.07
264.60	2836.44
264.81	3426.25
265.03	3805.13
265.25	3456.97
265.46	2885.59
265.68	3805.13
265.89	3637.19
266.11	2893.78
266.33	2895.83
266.54	3741.64
266.76	3573.71
266.98	3047.38
267.19	3207.12
267.41	3682.25
267.62	3336.14
267.84	2789.33
268.06	3057.62
268.27	3471.31
268.49	3719.11
268.70	2998.23
268.92	2975.70
269.14	3276.75
269.35	3139.54
269.57	3145.68
269.79	2987.99
270.00	3352.52
270.22	3876.80
270.43	2910.16
270.65	2752.47
270.87	3540.94
271.08	3622.86
271.30	3057.62
271.51	2975.70
271.73	3581.90
271.95	3809.22
272.16	2893.78
272.38	3125.20
272.59	3413.96
272.81	3598.28
273.02	2846.68
273.24	2938.84
273.46	3694.54
273.67	3264.46
273.89	2840.53
274.10	2922.45
274.32	3712.97
274.54	3577.80
274.75	3016.66
274.97	3059.67
275.18	3649.48
275.40	3516.36
275.61	3033.04
275.83	3143.63
276.05	3139.54
276.26	3424.20
276.48	3096.53
276.69	3110.86
276.91	3309.52
277.12	3835.85
277.34	3155.92
277.55	3223.50
277.77	3432.40
277.99	3471.31
278.20	3160.02
278.42	2977.75
278.63	3270.61
278.85	3239.89
279.06	3086.29
279.28	3125.20
279.49	3743.69
279.71	3633.10
279.93	3196.88
280.14	3127.25
280.36	3258.32
280.57	3729.35
280.79	3278.80
281.00	3018.71
281.22	3323.85
281.43	3651.53
281.65	2846.68
281.86	2963.41
282.08	3624.90
282.29	3876.80
282.51	2916.31
282.73	2936.79
282.94	3237.84
283.16	3663.82
283.37	3149.78
283.59	3164.11
283.80	3540.94
284.02	3504.07
284.23	3143.63
284.45	3139.54
284.66	3254.22
284.88	3350.48
285.09	2957.27
285.31	3182.54
285.52	3573.71
285.74	3145.68
285.95	3366.86
286.17	3102.67
286.38	3690.44
286.60	3330.00
286.81	3076.05
287.03	3098.58
287.24	3434.44
287.46	3598.28
287.67	3241.93
287.89	3286.99
288.10	3444.68
288.32	3428.30
288.53	3196.88
288.75	3184.59
288.96	3631.05
289.18	3313.61
289.39	2944.98
289.61	3155.92
289.82	3868.61
290.04	3870.66
290.25	2942.93
290.47	3205.07
290.68	3389.39
290.90	3579.85
291.11	2850.77
291.33	3262.41
291.54	3291.09
291.76	3368.91
291.97	3280.85
292.18	3198.93
292.40	3332.05
292.61	3336.14
292.83	3397.58
293.04	3114.96
293.26	3549.13
293.47	3422.16
293.69	3110.86
293.90	2955.22
294.12	3741.64
294.33	3430.35
294.55	3153.87
294.76	3330.00
294.97	3809.22
295.19	3928.00
295.40	3131.34
295.62	3229.65
295.83	3641.29
296.05	3334.09
296.26	3393.48
296.48	3133.39
296.69	3467.21
296.90	3352.52
297.12	3254.22
297.33	3262.41
297.55	3502.03
297.76	3553.23
297.98	3194.83
298.19	3303.37
298.41	3450.83
298.62	3241.93
298.83	3237.84
299.05	3237.84
299.26	3426.25
299.48	3274.70
299.69	3182.54
299.90	3059.67
300.12	3237.84
300.33	3545.03
300.55	3137.49
300.76	3149.78
300.98	3217.36
301.19	3485.64
301.40	3114.96
301.62	3157.97
301.83	3573.71
302.05	3418.06
302.26	3061.71
302.47	3182.54
302.69	3260.37
302.90	3397.58
303.12	2994.13
303.33	3207.12
303.54	3915.72
303.76	3323.85
303.97	3057.62
304.19	3246.03
304.40	3196.88
304.61	3477.45
304.83	3254.22
305.04	3182.54
305.26	3596.23
305.47	3286.99
305.68	3102.67
305.90	2893.78
306.11	3622.86
306.33	3377.10
306.54	2861.01
306.75	3047.38
306.97	3215.31
307.18	3266.51
307.39	3045.33
307.61	3241.93
307.82	3399.63
308.04	3596.23
308.25	2977.75
308.46	3291.09
308.68	3413.96
308.89	3401.68
309.10	3258.32
309.32	3117.01
309.53	3428.30
309.74	3551.18
309.96	3039.19
310.17	3174.35
310.39	3393.48
310.60	3635.14
310.81	3065.81
311.03	3041.23
311.24	3590.09
311.45	3442.64
311.67	3420.11
311.88	3192.78
312.09	3340.24
312.31	3299.28
312.52	2928.60
312.73	3096.53
312.95	3139.54
313.16	3157.97
313.37	3274.70
313.59	3264.46
313.80	3645.38
314.01	3762.12
314.23	3049.43
314.44	2983.89
314.65	3315.66
314.87	3256.27
315.08	3033.04
315.29	3108.82
315.51	3188.69
315.72	3188.69
315.93	3184.59
316.15	3229.65
316.36	3317.71
316.57	3512.27
316.79	3131.34
317.00	3018.71
317.21	3616.71
317.43	3266.51
317.64	3098.58
317.85	3014.61
318.07	3295.18
318.28	3373.00
318.49	3133.39
318.70	3342.28
318.92	3518.41
319.13	3483.59
319.34	3229.65
319.56	3039.19
319.77	3606.47
319.98	3590.09
320.20	3344.33
320.41	3229.65
320.62	3538.89
320.83	3248.08
321.05	3350.48
321.26	3110.86
321.47	3461.07
321.69	3774.41
321.90	3078.10
322.11	3008.47
322.32	3481.55
322.54	3745.73
322.75	3131.34
322.96	4218.82
323.18	3127.25
323.39	3067.86
323.60	3018.71
323.81	3209.17
324.03	3286.99
324.24	3405.77
324.45	3233.74
324.66	2971.60
324.88	3659.72
325.09	3774.41
325.30	3135.44
325.52	3018.71
325.73	3524.55
325.94	3147.73
326.15	3000.27
326.37	2975.70
326.58	3622.86
326.79	3909.57
327.00	3024.85
327.22	3098.58
327.43	3350.48
327.64	3299.28
327.85	3252.17
328.07	3229.65
328.28	3854.28
328.49	3280.85
328.70	3098.58
328.92	3100.62
329.13	3436.49
329.34	3592.14
329.55	3330.00
329.76	3241.93
329.98	3330.00
330.19	3624.90
330.40	3114.96
330.61	3168.21
330.83	3585.99
331.04	3254.22
331.25	3125.20
331.46	3180.50
331.68	3188.69
331.89	3721.16
332.10	3123.15
332.31	2967.51
332.52	3403.72
332.74	3686.34
332.95	2932.69
333.16	3082.19
333.37	3633.10
333.58	3272.65
333.80	3096.53
334.01	2871.25
334.22	3420.11
334.43	3266.51
334.64	3045.33
334.86	3098.58
335.07	3307.47
335.28	3721.16
335.49	3014.61
335.70	3205.07
335.92	3774.41
336.13	4003.78
336.34	3160.02
336.55	3127.25
336.76	3526.60
336.98	3108.82
337.19	3102.67
337.40	3180.50
337.61	4081.60
337.82	3397.58
338.04	3221.45
338.25	2957.27
338.46	3438.54
338.67	3444.68
338.88	2961.36
339.09	3074.00
339.31	3356.62
339.52	3180.50
339.73	3008.47
339.94	3196.88
340.15	3620.81
340.36	3424.20
340.58	3180.50
340.79	3074.00
341.00	3592.14
341.21	3151.82
341.42	3370.96
341.63	3061.71
341.85	3688.39
342.06	3434.44
342.27	3030.99
342.48	3311.57
342.69	3164.11
342.90	3502.03
343.12	3483.59
343.33	3035.09
343.54	3747.78
343.75	3819.46
343.96	3190.74
344.17	2947.03
344.38	3368.91
344.60	3209.17
344.81	3022.80
345.02	3143.63
345.23	3655.62
345.44	3993.54
345.65	3110.86
345.86	3192.78
346.07	3542.99
346.29	3354.57
346.50	3246.03
346.71	3172.30
346.92	3755.97
347.13	3913.67
347.34	3205.07
347.55	2957.27
347.76	3577.80
347.98	3121.10
348.19	3184.59
348.40	3246.03
348.61	3264.46
348.82	3811.27
349.03	3114.96
349.24	2977.75
349.45	3989.44
349.66	2985.94
349.88	3008.47
350.09	3043.28
350.30	3741.64
350.51	3749.83
350.72	3348.43
350.93	3000.27
351.14	3342.28
351.35	3581.90
351.56	3078.10
351.77	3114.96
351.99	3499.98
352.20	3778.50
352.41	3160.02
352.62	2854.87
352.83	3493.83
353.04	3438.54
353.25	3086.29
353.46	3139.54
353.67	3696.58
353.88	3057.62
354.09	3004.37
354.30	3160.02
354.52	3667.91
354.73	3440.59
354.94	3049.43
355.15	3174.35
355.36	3897.28
355.57	3291.09
355.78	2998.23
355.99	3082.19
356.20	3313.61
356.41	3698.63
356.62	3225.55
356.83	3168.21
357.04	3753.93
357.25	3119.06
357.46	3049.43
357.68	3010.51
357.89	3221.45
358.10	3381.20
358.31	3051.47
358.52	3160.02
358.73	3209.17
358.94	3147.73
359.15	3155.92
359.36	3155.92
359.57	3430.35
359.78	3399.63
359.99	3289.04
360.20	3008.47
360.41	3346.38
360.62	3553.23
360.83	3188.69
361.04	3090.38
361.25	3590.09
361.46	3841.99
361.67	3274.70
361.88	3094.48
362.09	3647.43
362.30	3536.84
362.51	3012.56
362.72	3186.64
362.93	3661.77
363.14	3518.41
363.35	3157.97
363.56	3074.00
363.78	3672.01
363.99	3721.16
364.20	3096.53
364.41	3160.02
364.62	3821.51
364.83	3491.79
365.04	3035.09
365.25	3151.82
365.46	3944.39
365.67	3246.03
365.88	3327.95
366.09	3088.34
366.30	3373.00
366.51	3475.40
366.72	3119.06
366.93	3033.04
367.14	3469.26
367.35	3827.65
367.56	3037.14
367.77	3213.26
367.98	3467.21
368.18	3565.51
368.39	3248.08
368.60	3114.96
368.81	3579.85
369.02	3610.57
369.23	3117.01
369.44	2934.74
369.65	3424.20
369.86	3563.47
370.07	3221.45
370.28	3012.56
370.49	3647.43
370.70	3569.61
370.91	2971.60
371.12	2996.18
371.33	3733.45
371.54	3299.28
371.75	3243.98
371.96	2768.85
372.17	3508.17
372.38	3385.29
372.59	3155.92
372.80	3131.34
373.01	3319.76
373.22	3452.88
373.43	3074.00
373.64	2987.99
373.85	3770.31
374.06	3782.60
374.26	3274.70
374.47	3338.19
374.68	3749.83
374.89	3477.45
375.10	3082.19
375.31	3162.06
375.52	3547.08
375.73	3542.99
375.94	2938.84
376.15	3160.02
376.36	3342.28
376.57	3407.82
376.78	3157.97
376.99	3108.82
377.20	3710.92
377.40	3405.77
377.61	3459.02
377.82	3151.82
378.03	3786.69
378.24	3622.86
378.45	3231.69
378.66	3190.74
378.87	3049.43
379.08	3119.06
379.29	3139.54
379.50	3293.13
379.71	3280.85
379.91	3559.37
380.12	3092.43
380.33	3280.85
380.54	3452.88
380.75	3418.06
380.96	3106.77
381.17	3170.26
381.38	3444.68
381.59	3471.31
381.80	3223.50
382.00	3248.08
382.21	3436.49
382.42	3764.17
382.63	3467.21
382.84	3260.37
383.05	3633.10
383.26	3801.03
383.47	3252.17
383.68	3078.10
383.88	3559.37
384.09	3450.83
384.30	3360.72
384.51	3246.03
384.72	3387.34
384.93	3172.30
385.14	3194.83
385.35	3362.76
385.55	3092.43
385.76	3684.30
385.97	3090.38
386.18	3047.38
386.39	3149.78
386.60	3336.14
386.81	3024.85
387.02	2994.13
387.22	3188.69
387.43	3567.56
387.64	3182.54
387.85	3430.35
388.06	3483.59
388.27	4339.65
388.48	7313.30
388.68	10678.11
388.89	13473.59
389.10	14683.94
389.31	14341.93
389.52	11700.05
389.73	10051.43
389.93	9428.85
390.14	8386.43
390.35	7972.74
390.56	7362.45
390.77	6176.67
390.98	4786.10
391.18	4093.89
391.39	3891.14
391.60	3434.44
391.81	3354.57
392.02	3192.78
392.23	4003.78
392.43	3526.60
392.64	3270.61
392.85	3239.89
393.06	3737.54
393.27	3426.25
393.47	3125.20
393.68	3237.84
393.89	3418.06
394.10	3667.91
394.31	3172.30
394.52	3125.20
394.72	3332.05
394.93	3768.26
395.14	3057.62
395.35	3272.65
395.56	3332.05
395.76	3461.07
395.97	3108.82
396.18	3282.89
396.39	3385.29
396.60	4140.99
396.80	3463.12
397.01	3411.92
397.22	3606.47
397.43	3588.04
397.64	3196.88
397.84	3211.22
398.05	3925.96
398.26	3336.14
398.47	3305.42
398.67	3413.96
398.88	3422.16
399.09	3672.01
399.30	3069.91
399.51	3256.27
399.71	3211.22
399.92	3469.26
400.13	3184.59
400.34	3114.96
400.54	3428.30
400.75	3766.21
400.96	3229.65
401.17	3444.68
401.37	3495.88
401.58	3434.44
401.79	3117.01
402.00	3274.70
402.21	3895.24
402.41	3518.41
402.62	3418.06
402.83	3483.59
403.04	3794.89
403.24	4184.00
403.45	3272.65
403.66	3393.48
403.87	3649.48
404.07	3801.03
404.28	3399.63
404.49	3467.21
404.70	3514.31
404.90	3631.05
405.11	3127.25
405.32	3237.84
405.52	3325.90
405.73	3284.94
405.94	3074.00
406.15	3147.73
406.35	3598.28
406.56	3606.47
406.77	3168.21
406.98	3180.50
407.18	3352.52
407.39	3901.38
407.60	3157.97
407.80	3258.32
408.01	3229.65
408.22	3631.05
408.43	3092.43
408.63	3291.09
408.84	3690.44
409.05	3684.30
409.25	3143.63
409.46	3145.68
409.67	3297.23
409.88	3307.47
410.08	3176.40
410.29	3223.50
410.50	3729.35
410.70	3508.17
410.91	2985.94
411.12	3211.22
411.32	3434.44
411.53	3293.13
411.74	3157.97
411.95	3196.88
412.15	3487.69
412.36	3614.66
412.57	3256.27
412.77	3336.14
412.98	3342.28
413.19	3411.92
413.39	3190.74
413.60	3147.73
413.81	3854.28
414.01	3264.46
414.22	3200.98
414.43	3436.49
414.63	3377.10
414.84	3643.34
415.05	3198.93
415.25	3024.85
415.46	3565.51
415.67	3315.66
415.87	3145.68
416.08	3096.53
416.29	3358.67
416.49	3583.95
416.70	3205.07
416.91	3194.83
417.11	3426.25
417.32	3698.63
417.53	3164.11
417.73	3233.74
417.94	3465.16
418.15	3469.26
418.35	3182.54
418.56	3192.78
418.77	3944.39
418.97	3469.26
419.18	3276.75
419.38	2901.97
419.59	3424.20
419.80	3729.35
420.00	3065.81
420.21	3250.13
420.42	3721.16
420.62	3551.18
420.83	3086.29
421.04	3180.50
421.24	3401.68
421.45	3672.01
421.65	3168.21
421.86	3221.45
422.07	3686.34
422.27	3592.14
422.48	3123.15
422.69	2990.03
422.89	3416.01
423.10	3383.24
423.30	3067.86
423.51	3153.87
423.72	3520.46
423.92	3596.23
424.13	3018.71
424.33	3258.32
424.54	3659.72
424.75	3438.54
424.95	3360.72
425.16	3069.91
425.36	3432.40
425.57	3631.05
425.78	3301.33
425.98	3262.41
426.19	3420.11
426.39	3254.22
426.60	3268.56
426.81	3401.68
427.01	3508.17
427.22	3270.61
427.42	2901.97
427.63	3051.47
427.83	3665.86
428.04	3856.33
428.25	3164.11
428.45	3264.46
428.66	3721.16
428.86	3420.11
429.07	3131.34
429.28	3215.31
429.48	3379.15
429.69	3235.79
429.89	3299.28
430.10	3074.00
430.30	3549.13
430.51	3700.68
430.71	3125.20
430.92	3246.03
431.13	3315.66
431.33	3551.18
431.54	3246.03
431.74	3340.24
431.95	3860.42
432.15	3297.23
432.36	3162.06
432.56	3198.93
432.77	3885.00
432.98	3809.22
433.18	3229.65
433.39	2906.07
433.59	3465.16
433.80	3905.48
434.00	3370.96
434.21	3229.65
434.41	3358.67
434.62	3991.49
434.82	2990.03
435.03	3164.11
435.23	3598.28
435.44	3131.34
435.64	3147.73
435.85	3266.51
436.06	3495.88
436.26	3590.09
436.47	3110.86
436.67	3100.62
436.88	3352.52
437.08	3731.40
437.29	3338.19
437.49	3284.94
437.70	3794.89
437.90	3332.05
438.11	3379.15
438.31	3270.61
438.52	3649.48
438.72	3649.48
438.93	3436.49
439.13	3258.32
439.34	3581.90
439.54	3303.37
439.75	3299.28
439.95	3286.99
440.16	3266.51
440.36	3514.31
440.57	3149.78
440.77	3164.11
440.98	3434.44
441.18	3504.07
441.39	3063.76
441.59	2985.94
441.80	3893.19
442.00	3475.40
442.21	3225.55
442.41	3018.71
442.62	3735.50
442.82	3303.37
443.02	3125.20
443.23	3139.54
443.43	3344.33
443.64	3659.72
443.84	3053.52
444.05	3270.61
444.25	3454.92
444.46	3334.09
444.66	3157.97
444.87	3440.59
445.07	3162.06
445.28	3438.54
445.48	3327.95
445.69	3231.69
445.89	3983.30
446.09	3407.82
446.30	3409.87
446.50	3538.89
446.71	4935.60
446.91	6088.61
447.12	6678.43
447.32	7214.99
447.53	7296.91
447.73	6309.79
447.93	5367.73
448.14	5171.12
448.34	5416.88
448.55	4409.28
448.75	4347.84
448.96	4184.00
449.16	4186.05
449.36	3960.77
449.57	3401.68
449.77	3209.17
449.98	3389.39
450.18	3532.75
450.39	3127.25
450.59	3340.24
450.79	3401.68
451.00	3266.51
451.20	3336.14
451.41	3147.73
451.61	3563.47
451.81	3467.21
452.02	3108.82
452.22	3198.93
452.43	3258.32
452.63	3272.65
452.84	3278.80
453.04	3125.20
453.24	3413.96
453.45	3338.19
453.65	3239.89
453.86	3243.98
454.06	3540.94
454.26	3438.54
454.47	3080.14
454.67	3286.99
454.87	3540.94
455.08	3432.40
455.28	3352.52
455.49	3381.20
455.69	3315.66
455.89	3930.05
456.10	3205.07
456.30	3112.91
456.51	3651.53
456.71	3381.20
456.91	3286.99
457.12	3217.36
457.32	3522.51
457.52	3213.26
457.73	3434.44
457.93	3364.81
458.14	3305.42
458.34	2992.08
458.54	3203.02
458.75	3157.97
458.95	3663.82
459.15	3528.65
459.36	3229.65
459.56	3147.73
459.76	3923.91
459.97	3463.12
460.17	3164.11
460.37	3262.41
460.58	3487.69
460.78	3614.66
460.99	3315.66
461.19	3176.40
461.39	3327.95
461.60	3330.00
461.80	3190.74
462.00	3057.62
462.21	3387.34
462.41	3157.97
462.61	3059.67
462.82	2969.55
463.02	3530.70
463.22	3411.92
463.43	3246.03
463.63	3155.92
463.83	3733.45
464.04	3524.55
464.24	3151.82
464.44	3217.36
464.64	3538.89
464.85	3553.23
465.05	3209.17
465.25	3076.05
465.46	3256.27
465.66	3553.23
465.86	3282.89
466.07	3071.95
466.27	3477.45
466.47	3080.14
466.68	3061.71
466.88	3213.26
467.08	3639.24
467.29	3637.19
467.49	3123.15
467.69	3293.13
467.89	3495.88
468.10	3424.20
468.30	3286.99
468.50	3295.18
468.71	3657.67
468.91	3106.77
469.11	3291.09
469.31	3286.99
469.52	3303.37
469.72	3856.33
469.92	3444.68
470.13	3233.74
470.33	3416.01
470.53	3481.55
470.73	3516.36
470.94	3798.98
471.14	4067.27
471.34	4450.24
471.54	4106.18
471.75	3864.52
471.95	3696.58
472.15	3841.99
472.36	3676.10
472.56	3555.27
472.76	3854.28
472.96	3885.00
473.17	3352.52
473.37	3246.03
473.57	3332.05
473.77	3526.60
473.98	3350.48
474.18	3114.96
474.38	4181.95
474.58	3340.24
474.79	3002.32
474.99	3317.71
475.19	3702.73
475.39	3286.99
475.60	3278.80
475.80	3104.72
476.00	3477.45
476.20	3422.16
476.41	3217.36
476.61	3223.50
476.81	3870.66
477.01	3264.46
477.21	3430.35
477.42	3164.11
477.62	3254.22
477.82	3612.62
478.02	3172.30
478.23	3229.65
478.43	3274.70
478.63	3399.63
478.83	3190.74
479.03	3213.26
479.24	3762.12
479.44	3934.15
479.64	3110.86
479.84	2975.70
480.04	3315.66
480.25	3686.34
480.45	3155.92
480.65	3098.58
480.85	3780.55
481.06	3387.34
481.26	3311.57
481.46	3114.96
481.66	3549.13
481.86	3278.80
482.06	3377.10
482.27	3223.50
482.47	3346.38
482.67	3467.21
482.87	3200.98
483.07	3192.78
483.28	3280.85
483.48	3192.78
483.68	3143.63
483.88	2985.94
484.08	3012.56
484.29	3205.07
484.49	3268.56
484.69	3026.90
484.89	3762.12
485.09	3618.76
485.29	3239.89
485.50	3389.39
485.70	3284.94
485.90	3739.59
486.10	3330.00
486.30	3139.54
486.50	3725.26
486.71	3446.73
486.91	3166.16
487.11	3186.64
487.31	3106.77
487.51	3559.37
487.71	3119.06
487.91	3164.11
488.12	3260.37
488.32	2920.40
488.52	3182.54
488.72	2881.49
488.92	3434.44
489.12	3745.73
489.32	3303.37
489.53	3182.54
489.73	3131.34
489.93	3948.48
490.13	3160.02
490.33	3049.43
490.53	3481.55
490.73	3682.25
490.94	2947.03
491.14	3338.19
491.34	3516.36
491.54	3479.50
491.74	4081.60
491.94	4521.92
492.14	5097.39
492.34	5197.74
492.54	4720.57
492.75	4087.75
492.95	4431.80
493.15	4112.32
493.35	3839.94
493.55	3819.46
493.75	3807.17
493.95	3983.30
494.15	3426.25
494.35	3174.35
494.56	3370.96
494.76	3352.52
494.96	3377.10
495.16	3020.75
495.36	3493.83
495.56	3418.06
495.76	3254.22
495.96	3186.64
496.16	3289.04
496.36	3870.66
496.56	3164.11
496.77	3227.60
496.97	3489.74
497.17	3768.26
497.37	2910.16
497.57	3315.66
497.77	3477.45
497.97	3254.22
498.17	3241.93
498.37	3172.30
498.57	3637.19
498.77	3311.57
498.97	3366.86
499.17	3524.55
499.38	3385.29
499.58	3540.94
499.78	3280.85
499.98	3278.80
500.18	3362.76
500.38	3286.99
500.58	3387.34
500.78	3667.91
500.98	6055.84
501.18	7870.34
501.38	8920.95
501.58	9926.50
501.78	9971.56
501.98	8198.02
502.18	7104.40
502.38	6039.46
502.58	6291.36
502.78	5461.93
502.98	5175.22
503.18	4984.76
503.38	4841.40
503.59	4218.82
503.79	4089.79
503.99	3669.96
504.19	3925.96
504.39	3903.43
504.59	3659.72
504.79	3491.79
504.99	3971.01
505.19	3649.48
505.39	3368.91
505.59	3614.66
505.79	3815.37
505.99	3708.87
506.19	3182.54
506.39	3327.95
506.59	3334.09
506.79	3348.43
506.99	3434.44
507.19	3092.43
507.39	3454.92
507.59	3155.92
507.79	3155.92
507.99	3090.38
508.19	3424.20
508.39	3309.52
508.59	3223.50
508.79	3250.13
508.99	3819.46
509.19	3280.85
509.39	3233.74
509.59	3071.95
509.79	3319.76
509.99	3506.12
510.19	3293.13
510.39	3264.46
510.59	3450.83
510.79	3346.38
510.99	3022.80
511.19	3131.34
511.39	3782.60
511.59	3667.91
511.79	3295.18
511.99	3141.58
512.19	3848.13
512.38	3454.92
512.58	3067.86
512.78	3059.67
512.98	3762.12
513.18	3813.32
513.38	3112.91
513.58	3239.89
513.78	3442.64
513.98	3364.81
514.18	3200.98
514.38	3188.69
514.58	3514.31
514.78	3358.67
514.98	3145.68
515.18	3188.69
515.38	3172.30
515.58	3864.52
515.78	3284.94
515.98	3184.59
516.18	3557.32
516.38	3489.74
516.57	3172.30
516.77	3141.58
516.97	3585.99
517.17	3327.95
517.37	2994.13
517.57	3215.31
517.77	3338.19
517.97	3217.36
518.17	3250.13
518.37	3041.23
518.57	3323.85
518.77	3368.91
518.97	3198.93
519.16	3178.45
519.36	3674.06
519.56	3286.99
519.76	3133.39
519.96	3198.93
520.16	3672.01
520.36	3196.88
520.56	3366.86
520.76	3100.62
520.96	3325.90
521.16	3696.58
521.35	3375.05
521.55	3340.24
521.75	3395.53
521.95	3368.91
522.15	3084.24
522.35	3008.47
522.55	3246.03
522.75	3653.58
522.95	3063.76
523.14	2969.55
523.34	3360.72
523.54	3375.05
523.74	3297.23
523.94	3200.98
524.14	3090.38
524.34	3524.55
524.54	3459.02
524.73	3157.97
524.93	3602.38
525.13	3510.22
525.33	3033.04
525.53	3389.39
525.73	3610.57
525.93	3409.87
526.13	3221.45
526.32	3090.38
526.52	3663.82
526.72	3614.66
526.92	3229.65
527.12	3094.48
527.32	3213.26
527.52	3475.40
527.71	3141.58
527.91	3198.93
528.11	3370.96
528.31	3516.36
528.51	3143.63
528.71	3303.37
528.90	3508.17
529.10	3667.91
529.30	3155.92
529.50	2936.79
529.70	3530.70
529.90	3373.00
530.09	3147.73
530.29	2965.46
530.49	3221.45
530.69	3991.49
530.89	3260.37
531.09	3311.57
531.28	3338.19
531.48	3735.50
531.68	3176.40
531.88	3180.50
532.08	3561.42
532.28	3338.19
532.47	3260.37
532.67	3221.45
532.87	3483.59
533.07	3258.32
533.27	3237.84
533.46	3237.84
533.66	3467.21
533.86	3379.15
534.06	3198.93
534.26	3104.72
534.45	3354.57
534.65	3680.20
534.85	3280.85
535.05	3078.10
535.25	3622.86
535.44	3114.96
535.64	3241.93
535.84	3102.67
536.04	3364.81
536.24	3364.81
536.43	3141.58
536.63	3160.02
536.83	3434.44
537.03	3330.00
537.22	2973.65
537.42	3100.62
537.62	3581.90
537.82	3192.78
538.02	3327.95
538.21	3297.23
538.41	3991.49
538.61	3524.55
538.81	3241.93
539.00	3282.89
539.20	3151.82
539.40	3405.77
539.60	3147.73
539.79	3418.06
539.99	3440.59
540.19	3262.41
540.39	3121.10
540.58	3258.32
540.78	3645.38
540.98	3510.22
541.18	3471.31
541.37	3198.93
541.57	3434.44
541.77	3495.88
541.97	3039.19
542.16	2951.12
542.36	3344.33
542.56	3190.74
542.76	3246.03
542.95	3362.76
543.15	3592.14
543.35	3581.90
543.54	3184.59
543.74	3045.33
543.94	3696.58
544.14	3356.62
544.33	3375.05
544.53	3153.87
544.73	3336.14
544.93	3319.76
545.12	3221.45
545.32	3166.16
545.52	3317.71
545.71	3221.45
545.91	3221.45
546.11	3096.53
546.30	3274.70
546.50	3475.40
546.70	3274.70
546.90	3123.15
547.09	3082.19
547.29	3397.58
547.49	3315.66
547.68	3180.50
547.88	3323.85
548.08	3534.79
548.27	3430.35
548.47	3106.77
548.67	3254.22
548.87	3502.03
549.06	3176.40
549.26	3139.54
549.46	3536.84
549.65	3330.00
549.85	3237.84
550.05	3151.82
550.24	3155.92
550.44	3446.73
550.64	3254.22
550.83	3229.65
551.03	3891.14
551.23	3663.82
551.42	3225.55
551.62	3260.37
551.82	3381.20
552.01	3346.38
552.21	3448.78
552.41	3184.59
552.60	3747.78
552.80	3483.59
553.00	3114.96
553.19	3198.93
553.39	3813.32
553.59	3131.34
553.78	3346.38
553.98	3086.29
554.17	3268.56
554.37	3553.23
554.57	3217.36
554.76	3045.33
554.96	3239.89
555.16	3489.74
555.35	3215.31
555.55	3340.24
555.75	3508.17
555.94	3590.09
556.14	3008.47
556.33	3149.78
556.53	3405.77
556.73	3532.75
556.92	3194.83
557.12	3063.76
557.32	3848.13
557.51	3712.97
557.71	3229.65
557.90	3370.96
558.10	3733.45
558.30	3340.24
558.49	3155.92
558.69	3121.10
558.88	3428.30
559.08	3450.83
559.28	3141.58
559.47	3147.73
559.67	3598.28
559.86	3893.19
560.06	3131.34
560.26	3225.55
560.45	3647.43
560.65	3397.58
560.84	3450.83
561.04	3035.09
561.24	3598.28
561.43	3252.17
561.63	3485.64
561.82	3336.14
562.02	3559.37
562.22	3205.07
562.41	3178.45
562.61	3100.62
562.80	3235.79
563.00	3928.00
563.19	3250.13
563.39	3243.98
563.59	3559.37
563.78	3254.22
563.98	2930.64
564.17	3157.97
564.37	3094.48
564.56	3428.30
564.76	3141.58
564.96	3338.19
565.15	3426.25
565.35	3973.06
565.54	3246.03
565.74	3200.98
565.93	3497.93
566.13	3446.73
566.32	3274.70
566.52	3311.57
566.71	3452.88
566.91	3569.61
567.11	3356.62
567.30	3014.61
567.50	3495.88
567.69	3547.08
567.89	3166.16
568.08	3082.19
568.28	3583.95
568.47	3213.26
568.67	3168.21
568.86	3151.82
569.06	3655.62
569.25	3297.23
569.45	3030.99
569.64	3205.07
569.84	3297.23
570.04	3508.17
570.23	3262.41
570.43	3229.65
570.62	3545.03
570.82	3827.65
571.01	3065.81
571.21	3080.14
571.40	3262.41
571.60	3633.10
571.79	3229.65
571.99	3133.39
572.18	3270.61
572.38	3495.88
572.57	3307.47
572.77	3233.74
572.96	4032.45
573.16	3467.21
573.35	3170.26
573.55	3344.33
573.74	3549.13
573.94	3370.96
574.13	3268.56
574.33	3321.81
574.52	3674.06
574.71	3477.45
574.91	3252.17
575.10	3055.57
575.30	3299.28
575.49	3254.22
575.69	3188.69
575.88	3133.39
576.08	3370.96
576.27	3712.97
576.47	3110.86
576.66	3286.99
576.86	3657.67
577.05	3491.79
577.25	3176.40
577.44	3416.01
577.64	3282.89
577.83	3594.19
578.02	3211.22
578.22	3297.23
578.41	3694.54
578.61	3383.24
578.80	3026.90
579.00	3239.89
579.19	3315.66
579.39	3573.71
579.58	3254.22
579.77	3225.55
579.97	3778.50
580.16	3702.73
580.36	3409.87
580.55	3190.74
580.75	3573.71
580.94	3508.17
581.13	3430.35
581.33	3336.14
581.52	3403.72
581.72	3825.61
581.91	3237.84
582.11	3174.35
582.30	3579.85
582.49	3434.44
582.69	3481.55
582.88	3229.65
583.08	3534.79
583.27	3590.09
583.47	3342.28
583.66	3119.06
583.85	3315.66
584.05	3420.11
584.24	3280.85
584.44	3121.10
584.63	3655.62
584.82	3729.35
585.02	3397.58
585.21	3280.85
585.41	3485.64
585.60	3407.82
585.79	3438.54
585.99	3493.83
586.18	3428.30
586.37	4380.61
586.57	6727.58
586.76	18523.88
586.96	36752.85
587.15	49265.94
587.34	57404.56
587.54	60875.87
587.73	53157.08
587.93	38579.64
588.12	29593.15
588.31	24313.48
588.51	21919.41
588.70	20213.45
588.89	17774.32
589.09	15066.91
589.28	13086.52
589.47	10293.09
589.67	7665.55
589.86	6123.43
590.06	5052.34
590.25	4485.05
590.44	4001.73
590.64	3534.79
590.83	3688.39
591.02	3700.68
591.22	3213.26
591.41	3291.09
591.60	3395.53
591.80	3938.24
591.99	3055.57
592.18	3188.69
592.38	3575.75
592.57	3276.75
592.76	3178.45
592.96	3291.09
593.15	3401.68
593.34	3692.49
593.54	3178.45
593.73	3291.09
593.92	3516.36
594.12	3559.37
594.31	3229.65
594.50	3413.96
594.70	3583.95
594.89	4093.89
595.08	3006.42
595.28	3362.76
595.47	4147.14
595.66	3626.95
595.86	3170.26
596.05	3008.47
596.24	3307.47
596.43	3803.08
596.63	3248.08
596.82	3403.72
597.01	3512.27
597.21	3934.15
597.40	3135.44
597.59	3280.85
597.79	3409.87
597.98	3573.71
598.17	3231.69
598.36	3237.84
598.56	3715.02
598.75	3395.53
598.94	3278.80
599.14	3198.93
599.33	3348.43
599.52	3542.99
599.71	3264.46
599.91	3172.30
600.10	3585.99
600.29	3528.65
600.48	3311.57
600.68	3311.57
600.87	3590.09
601.06	3291.09
601.26	3286.99
601.45	3338.19
601.64	3377.10
601.83	3698.63
602.03	3010.51
602.22	3055.57
602.41	3698.63
602.60	4067.27
602.80	3192.78
602.99	3350.48
603.18	3389.39
603.37	3524.55
603.57	3127.25
603.76	3147.73
603.95	3723.21
604.14	3286.99
604.34	3121.10
604.53	3131.34
604.72	3553.23
604.91	3682.25
605.10	3168.21
605.30	3059.67
605.49	3841.99
605.68	3520.46
605.87	3209.17
606.07	3106.77
606.26	3559.37
606.45	3606.47
606.64	3180.50
606.84	3057.62
607.03	3336.14
607.22	3698.63
607.41	3311.57
607.60	3166.16
607.80	3669.96
607.99	3403.72
608.18	3106.77
608.37	3180.50
608.56	3198.93
608.76	3667.91
608.95	3366.86
609.14	3018.71
609.33	3815.37
609.52	3758.02
609.72	3223.50
609.91	3276.75
610.10	3452.88
610.29	3786.69
610.48	3268.56
610.68	3307.47
610.87	3395.53
611.06	3608.52
611.25	3135.44
611.44	3346.38
611.63	3348.43
611.83	3749.83
612.02	3117.01
612.21	3266.51
612.40	3090.38
612.59	3256.27
612.79	3110.86
612.98	3307.47
613.17	3827.65
613.36	3426.25
613.55	3385.29
613.74	3196.88
613.93	3411.92
614.13	3520.46
614.32	3327.95
614.51	3160.02
614.70	3401.68
614.89	3309.52
615.08	3270.61
615.28	3540.94
615.47	3262.41
615.66	3534.79
615.85	3221.45
616.04	3246.03
616.23	3502.03
616.42	3481.55
616.62	3147.73
616.81	3213.26
617.00	3514.31
617.19	3585.99
617.38	3233.74
617.57	3254.22
617.76	3596.23
617.95	3610.57
618.15	3293.13
618.34	3426.25
618.53	3200.98
618.72	3704.78
618.91	3246.03
619.10	3176.40
619.29	3364.81
619.48	3438.54
619.68	3139.54
619.87	3198.93
620.06	3074.00
620.25	3557.32
620.44	3160.02
620.63	3123.15
620.82	3493.83
621.01	3512.27
621.20	3180.50
621.39	3309.52
621.59	3561.42
621.78	3377.10
621.97	3203.02
622.16	3317.71
622.35	3483.59
622.54	3639.24
622.73	3284.94
622.92	2934.74
623.11	3721.16
623.30	3362.76
623.49	3266.51
623.68	3084.24
623.88	3735.50
624.07	3297.23
624.26	3125.20
624.45	3160.02
624.64	3381.20
624.83	3528.65
625.02	3196.88
625.21	3198.93
625.40	3368.91
625.59	3735.50
625.78	3254.22
625.97	3241.93
626.16	3700.68
626.35	3540.94
626.54	3131.34
626.74	3307.47
626.93	3373.00
627.12	3368.91
627.31	3248.08
627.50	3196.88
627.69	3653.58
627.88	3229.65
628.07	3125.20
628.26	3016.66
628.45	3243.98
628.64	3182.54
628.83	3119.06
629.02	3090.38
629.21	3467.21
629.40	3588.04
629.59	3067.86
629.78	3129.30
629.97	3450.83
630.16	3411.92
630.35	3196.88
630.54	3229.65
630.73	3336.14
630.92	3409.87
631.11	3069.91
631.30	3229.65
631.49	3538.89
631.68	3381.20
631.87	3168.21
632.06	3084.24
632.25	3911.62
632.44	3452.88
632.63	3254.22
632.82	3141.58
633.01	3403.72
633.20	3442.64
633.39	3125.20
633.58	3008.47
633.77	3547.08
633.96	3606.47
634.15	3373.00
634.34	3241.93
634.53	3575.75
634.72	3227.60
634.91	3084.24
635.10	3135.44
635.29	3565.51
635.48	3495.88
635.67	3080.14
635.86	3045.33
636.05	3753.93
636.24	3467.21
636.43	3213.26
636.62	3303.37
636.81	2994.13
637.00	3487.69
637.19	3139.54
637.38	3117.01
637.57	3426.25
637.76	3383.24
637.95	3461.07
638.14	3303.37
638.33	3452.88
638.52	3391.44
638.71	3063.76
638.89	2987.99
639.08	3981.25
639.27	3594.19
639.46	3366.86
639.65	3565.51
639.84	3807.17
640.03	4040.64
640.22	3553.23
640.41	3461.07
640.60	3436.49
640.79	3643.34
640.98	3391.44
641.17	3348.43
641.36	3585.99
641.55	3614.66
641.74	3033.04
641.92	3065.81
642.11	3254.22
642.30	3348.43
642.49	3123.15
642.68	3211.22
642.87	3508.17
643.06	3571.66
643.25	3096.53
643.44	2996.18
643.63	3387.34
643.82	3610.57
644.00	3078.10
644.19	3221.45
644.38	3274.70
644.57	3545.03
644.76	3145.68
644.95	3344.33
645.14	3401.68
645.33	3291.09
645.52	3215.31
645.71	3063.76
645.89	3147.73
646.08	3450.83
646.27	3291.09
646.46	3315.66
646.65	3180.50
646.84	3493.83
647.03	3106.77
647.22	3303.37
647.40	3471.31
647.59	3321.81
647.78	2990.03
647.97	3180.50
648.16	3164.11
648.35	3737.54
648.54	3446.73
648.73	3200.98
648.91	3538.89
649.10	3522.51
649.29	3155.92
649.48	3184.59
649.67	3596.23
649.86	3438.54
650.05	3221.45
650.23	3282.89
650.42	3229.65
650.61	3723.21
650.80	3452.88
650.99	3436.49
651.18	3700.68
651.36	3698.63
651.55	3045.33
651.74	3403.72
651.93	3354.57
652.12	3399.63
652.31	3221.45
652.49	3256.27
652.68	3399.63
652.87	3733.45
653.06	3188.69
653.25	3430.35
653.44	3411.92
653.62	3821.51
653.81	3246.03
654.00	3194.83
654.19	3680.20
654.38	3977.16
654.56	3303.37
654.75	3129.30
654.94	3692.49
655.13	3454.92
655.32	3157.97
655.51	3309.52
655.69	3342.28
655.88	3684.30
656.07	3033.04
656.26	3209.17
656.45	3151.82
656.63	3454.92
656.82	3176.40
657.01	3598.28
657.20	3291.09
657.38	3792.84
657.57	3196.88
657.76	3041.23
657.95	3592.14
658.14	3377.10
658.32	3330.00
658.51	3117.01
658.70	3502.03
658.89	3450.83
659.08	3237.84
659.26	3368.91
659.45	3186.64
659.64	3499.98
659.83	3094.48
660.01	3624.90
660.20	3467.21
660.39	3723.21
660.58	2930.64
660.76	3221.45
660.95	3151.82
661.14	3418.06
661.33	3004.37
661.51	3217.36
661.70	3307.47
661.89	3473.36
662.08	3303.37
662.26	2996.18
662.45	3266.51
662.64	3848.13
662.83	3272.65
663.01	3067.86
663.20	3319.76
663.39	3837.89
663.58	3149.78
663.76	3061.71
663.95	3647.43
664.14	3174.35
664.32	3262.41
664.51	3059.67
664.70	3057.62
664.89	3526.60
665.07	3022.80
665.26	3301.33
665.45	3071.95
665.64	3483.59
665.82	3174.35
666.01	3338.19
666.20	3174.35
666.38	3590.09
666.57	3600.33
666.76	5672.87
666.95	12375.88
667.13	18568.93
667.32	22007.47
667.51	24774.28
667.69	25384.57
667.88	20729.54
668.07	15286.04
668.25	13111.10
668.44	11673.42
668.63	10127.21
668.81	8834.94
669.00	7694.22
669.19	7120.79
669.38	6360.99
669.56	5353.39
669.75	4767.67
669.94	4517.82
670.12	3745.73
670.31	3407.82
670.50	3475.40
670.68	3688.39
670.87	3497.93
671.06	3149.78
671.24	3346.38
671.43	3762.12
671.62	3471.31
671.80	3180.50
671.99	3336.14
672.18	3471.31
672.36	3645.38
672.55	3344.33
672.74	3219.41
672.92	3428.30
673.11	3590.09
673.29	3047.38
673.48	3395.53
673.67	3379.15
673.85	3608.52
674.04	3104.72
674.23	3225.55
674.41	3866.56
674.60	3223.50
674.79	2928.60
674.97	3026.90
675.16	3585.99
675.34	3534.79
675.53	3170.26
675.72	3176.40
675.90	3825.61
676.09	3409.87
676.28	3321.81
676.46	3039.19
676.65	3657.67
676.83	3262.41
677.02	3278.80
677.21	3254.22
677.39	3600.33
677.58	3215.31
677.77	3188.69
677.95	3112.91
678.14	3332.05
678.32	3332.05
678.51	3241.93
678.70	3563.47
678.88	3383.24
679.07	3504.07
679.25	3303.37
679.44	3209.17
679.63	3192.78
679.81	3409.87
680.00	3459.02
680.18	3225.55
680.37	3784.65
680.55	3491.79
680.74	3110.86
680.93	2912.21
681.11	3532.75
681.30	3467.21
681.48	3155.92
681.67	3229.65
681.85	3526.60
682.04	3200.98
682.23	3375.05
682.41	3295.18
682.60	3373.00
682.78	3438.54
682.97	3125.20
683.15	3311.57
683.34	3549.13
683.53	3866.56
683.71	3086.29
683.90	3229.65
684.08	3762.12
684.27	3401.68
684.45	3221.45
684.64	3340.24
684.82	3373.00
685.01	3616.71
685.19	3172.30
685.38	3487.69
685.57	3358.67
685.75	3352.52
685.94	3151.82
686.12	3074.00
686.31	3272.65
686.49	3862.47
686.68	2969.55
686.86	3248.08
687.05	3516.36
687.23	3776.45
687.42	3282.89
687.60	3078.10
687.79	3547.08
687.97	3827.65
688.16	3325.90
688.34	3413.96
688.53	3151.82
688.71	3573.71
688.90	3516.36
689.08	3221.45
689.27	3110.86
689.45	3715.02
689.64	3354.57
689.82	3270.61
690.01	3559.37
690.19	3473.36
690.38	3303.37
690.56	3348.43
690.75	3270.61
690.93	3295.18
691.12	3184.59
691.30	3190.74
691.49	3289.04
691.67	3504.07
691.86	3532.75
692.04	3180.50
692.23	3289.04
692.41	3436.49
692.60	3514.31
692.78	3434.44
692.97	3438.54
693.15	3647.43
693.34	3477.45
693.52	3502.03
693.71	3356.62
693.89	3344.33
694.08	3037.14
694.26	3215.31
694.44	3674.06
694.63	3610.57
694.81	3129.30
695.00	3286.99
695.18	3741.64
695.37	3895.24
695.55	3254.22
695.74	3282.89
695.92	3336.14
696.10	3690.44
696.29	3030.99
696.47	3250.13
696.66	3211.22
696.84	3241.93
697.03	3274.70
697.21	3454.92
697.40	4812.73
697.58	3704.78
697.76	3151.82
697.95	3200.98
698.13	3164.11
698.32	3379.15
698.50	3147.73
698.68	3215.31
698.87	3471.31
699.05	3864.52
699.24	3176.40
699.42	3198.93
699.61	3491.79
699.79	3475.40
699.97	3219.41
700.16	3098.58
700.34	3217.36
700.53	3545.03
700.71	3463.12
700.89	3373.00
701.08	3373.00
701.26	3348.43
701.45	3502.03
701.63	3262.41
701.81	3305.42
702.00	3299.28
702.18	3342.28
702.37	3135.44
702.55	3708.87
702.73	3545.03
702.92	3157.97
703.10	3438.54
703.28	3545.03
703.47	3209.17
703.65	3438.54
703.84	3272.65
704.02	3385.29
704.20	3821.51
704.39	3178.45
704.57	3223.50
704.75	3669.96
704.94	3573.71
705.12	3399.63
705.30	4083.65
705.49	8202.11
705.67	14409.51
705.86	19128.03
706.04	21272.25
706.22	23279.26
706.41	22099.63
706.59	16783.10
706.77	13477.68
706.96	11685.71
707.14	10852.19
707.32	9164.66
707.51	8279.94
707.69	6883.22
707.87	5736.36
708.06	4808.63
708.24	4149.18
708.42	4024.26
708.61	4286.40
708.79	3336.14
708.97	3389.39
709.16	3553.23
709.34	3534.79
709.52	3229.65
709.71	3211.22
709.89	3643.34
710.07	3254.22
710.26	3155.92
710.44	3215.31
710.62	3594.19
710.80	3508.17
710.99	3307.47
711.17	3330.00
711.35	3293.13
711.54	3211.22
711.72	3362.76
711.90	3219.41
712.09	3495.88
712.27	3336.14
712.45	3309.52
712.63	3176.40
712.82	3442.64
713.00	3403.72
713.18	3321.81
713.37	3448.78
713.55	3565.51
713.73	3602.38
713.91	3299.28
714.10	3180.50
714.28	3508.17
714.46	3444.68
714.65	3373.00
714.83	3237.84
715.01	3469.26
715.19	3479.50
715.38	3110.86
715.56	3379.15
715.74	3317.71
715.92	3340.24
716.11	3483.59
716.29	3041.23
716.47	3459.02
716.65	3467.21
716.84	3137.49
717.02	3174.35
717.20	3096.53
717.38	3194.83
717.57	3336.14
717.75	3252.17
717.93	3334.09
718.11	3577.80
718.30	3065.81
718.48	3272.65
718.66	3680.20
718.84	3747.78
719.03	3278.80
719.21	3008.47
719.39	3868.61
719.57	3581.90
719.75	3319.76
719.94	3127.25
720.12	3416.01
720.30	3481.55
720.48	3262.41
720.67	3194.83
720.85	3248.08
721.03	3291.09
721.21	3217.36
721.39	3235.79
721.58	3540.94
721.76	3487.69
721.94	3131.34
722.12	3299.28
722.30	3784.65
722.49	3332.05
722.67	3188.69
722.85	3231.69
723.03	3139.54
723.21	3266.51
723.40	3221.45
723.58	3309.52
723.76	3579.85
723.94	3741.64
724.12	3213.26
724.30	3463.12
724.49	3588.04
724.67	3250.13
724.85	3254.22
725.03	3065.81
725.21	3563.47
725.40	3764.17
725.58	3170.26
725.76	3377.10
725.94	3463.12
726.12	3309.52
726.30	3233.74
726.49	3135.44
726.67	3397.58
726.85	3504.07
727.03	3936.20
727.21	4982.71
727.39	6184.87
727.57	6533.02
727.76	6700.95
727.94	6682.52
728.12	5900.20
728.30	5154.74
728.48	4825.01
728.66	4454.33
728.84	4364.22
729.03	3962.82
729.21	3684.30
729.39	3557.32
729.57	3459.02
729.75	3557.32
729.93	3461.07
730.11	3217.36
730.30	3340.24
730.48	3370.96
730.66	3178.45
730.84	3274.70
731.02	3368.91
731.20	3342.28
731.38	3305.42
731.56	3094.48
731.74	3157.97
731.93	3471.31
732.11	3426.25
732.29	3094.48
732.47	3530.70
732.65	3514.31
732.83	3401.68
733.01	3362.76
733.19	3262.41
733.37	3526.60
733.56	3213.26
733.74	3076.05
733.92	3770.31
734.10	3327.95
734.28	3332.05
734.46	3026.90
734.64	3360.72
734.82	3465.16
735.00	3137.49
735.18	3147.73
735.36	3502.03
735.54	3403.72
735.73	3123.15
735.91	3295.18
736.09	3880.90
736.27	3409.87
736.45	3319.76
736.63	2979.79
736.81	3428.30
736.99	3626.95
737.17	3389.39
737.35	3145.68
737.53	3467.21
737.71	3459.02
737.89	3506.12
738.07	3166.16
738.25	3231.69
738.43	3123.15
738.61	3276.75
738.80	3176.40
738.98	3237.84
739.16	3303.37
739.34	3194.83
739.52	3643.34
739.70	3315.66
739.88	3534.79
740.06	3352.52
740.24	2883.54
740.42	3669.96
740.60	3082.19
740.78	3135.44
740.96	2985.94
741.14	3395.53
741.32	3520.46
741.50	3043.28
741.68	3413.96
741.86	3753.93
742.04	3233.74
742.22	3151.82
742.40	3174.35
742.58	3571.66
742.76	3198.93
742.94	3434.44
743.12	3049.43
743.30	3450.83
743.48	3524.55
743.66	3080.14
743.84	3246.03
744.02	3270.61
744.20	3426.25
744.38	3121.10
744.56	3231.69
744.74	3930.05
744.92	3614.66
745.10	3434.44
745.28	3254.22
745.46	3770.31
745.64	3395.53
745.82	3303.37
746.00	3188.69
746.18	3549.13
746.36	3215.31
746.54	3286.99
746.72	3250.13
746.90	3289.04
747.08	3655.62
747.26	3180.50
747.44	3305.42
747.62	3606.47
747.80	3442.64
747.98	3235.79
748.15	3213.26
748.33	3733.45
748.51	3360.72
748.69	3276.75
748.87	3110.86
749.05	3266.51
749.23	3459.02
749.41	3209.17
749.59	3086.29
749.77	3667.91
749.95	3323.85
750.13	3131.34
750.31	3319.76
750.49	3420.11
750.67	3590.09
750.85	3325.90
751.03	3196.88
751.20	3938.24
751.38	3405.77
751.56	3252.17
751.74	3221.45
751.92	3330.00
752.10	3239.89
752.28	3358.67
752.46	3141.58
752.64	3438.54
752.82	3467.21
753.00	3297.23
753.18	3198.93
753.35	3348.43
753.53	3409.87
753.71	3102.67
753.89	3282.89
754.07	3532.75
754.25	3755.97
754.43	3231.69
754.61	3117.01
754.79	3463.12
754.97	3332.05
755.14	3362.76
755.32	3053.52
755.50	3508.17
755.68	3450.83
755.86	3155.92
756.04	3080.14
756.22	2975.70
756.40	3598.28
756.57	3377.10
756.75	3239.89
756.93	3762.12
757.11	3598.28
757.29	3076.05
757.47	3135.44
757.65	3084.24
757.82	2977.75
758.00	3082.19
758.18	3141.58
758.36	3250.13
758.54	3829.70
758.72	3037.14
758.90	3270.61
759.07	3502.03
759.25	3248.08
759.43	3231.69
759.61	3047.38
759.79	4607.93
759.97	3592.14
760.15	3248.08
760.32	3252.17
760.50	3547.08
760.68	3852.23
760.86	3200.98
761.04	3420.11
761.22	3585.99
761.39	3520.46
761.57	3346.38
761.75	3205.07
761.93	3626.95
762.11	3512.27
762.28	3340.24
762.46	3086.29
762.64	3686.34
762.82	3243.98
763.00	3153.87
763.18	3413.96
763.35	3231.69
763.53	3598.28
763.71	3299.28
763.89	3172.30
764.07	3467.21
764.24	3450.83
764.42	3295.18
764.60	3178.45
764.78	3631.05
764.96	3590.09
765.13	3409.87
765.31	3117.01
765.49	3559.37
765.67	3207.12
765.84	3086.29
766.02	3084.24
766.20	3106.77
766.38	3530.70
766.56	3246.03
766.73	3379.15
766.91	3397.58
767.09	3426.25
767.27	3221.45
767.44	3059.67
767.62	3559.37
767.80	3567.56
767.98	3119.06
768.15	3166.16
768.33	3622.86
768.51	3645.38
768.69	3368.91
768.87	3239.89
769.04	3413.96
769.22	4057.03
769.40	3432.40
769.58	3336.14
769.75	3514.31
769.93	3696.58
770.11	3174.35
770.28	3114.96
770.46	3585.99
770.64	3545.03
770.82	3243.98
770.99	3092.43
771.17	3577.80
771.35	3325.90
771.53	3196.88
771.70	3155.92
771.88	3530.70
772.06	3358.67
772.23	3180.50
772.41	3315.66
772.59	3405.77
772.77	3278.80
772.94	3303.37
773.12	3229.65
773.30	3317.71
773.47	3469.26
773.65	3065.81
773.83	3403.72
774.01	3456.97
774.18	3090.38
774.36	3260.37
774.54	3102.67
774.71	3542.99
774.89	3217.36
775.07	3014.61
775.24	3180.50
775.42	3280.85
775.60	3901.38
775.78	3151.82
775.95	3026.90
776.13	3123.15
776.31	3127.25
776.48	3409.87
776.66	3434.44
776.84	3368.91
777.01	3231.69
777.19	3135.44
777.37	3119.06
777.54	3508.17
777.72	3907.52
777.90	3278.80
778.07	3184.59
778.25	4145.09
778.43	3618.76
778.60	3149.78
778.78	3315.66
778.96	3680.20
779.13	3139.54
779.31	3237.84
779.49	3248.08
779.66	3565.51
779.84	3377.10
780.01	3133.39
780.19	3057.62
780.37	3686.34
780.54	3526.60
780.72	3010.51
780.90	3205.07
781.07	3368.91
781.25	3319.76
781.43	3385.29
781.60	3219.41
781.78	3700.68
781.95	3497.93
782.13	3143.63
782.31	3137.49
782.48	3069.91
782.66	3434.44
782.83	3401.68
783.01	3344.33
783.19	3575.75
783.36	3418.06
783.54	3117.01
783.72	3354.57
783.89	3280.85
784.07	3524.55
784.24	3346.38
784.42	3346.38
784.60	3508.17
784.77	3502.03
784.95	2969.55
785.12	3196.88
785.30	3538.89
785.47	3272.65
785.65	3123.15
785.83	3176.40
786.00	3418.06
786.18	3479.50
786.35	3123.15
786.53	3094.48
786.71	3659.72
786.88	3606.47
787.06	3237.84
787.23	3190.74
787.41	3160.02
787.58	3395.53
787.76	3074.00
787.94	3203.02
788.11	3524.55
788.29	3254.22
788.46	3246.03
788.64	3041.23
788.81	3282.89
788.99	3301.33
789.16	3207.12
789.34	3207.12
789.52	3250.13
789.69	3262.41
789.87	2914.26
790.04	3237.84
790.22	3485.64
790.39	3831.75
790.57	3114.96
790.74	3139.54
790.92	3682.25
791.09	3092.43
791.27	3291.09
791.44	3293.13
791.62	3389.39
791.79	3573.71
791.97	3241.93
792.15	3487.69
792.32	3612.62
792.50	3592.14
792.67	3456.97
792.85	3459.02
793.02	3487.69
793.20	3360.72
793.37	3104.72
793.55	3117.01
793.72	3149.78
793.90	3516.36
794.07	3184.59
794.25	3131.34
794.42	3483.59
794.60	3385.29
794.77	3246.03
794.95	3418.06
795.12	3651.53
795.30	3416.01
795.47	2987.99
795.65	3526.60
795.82	3532.75
796.00	3362.76
796.17	3239.89
796.34	3170.26
796.52	3573.71
796.69	3676.10
796.87	3235.79
797.04	3344.33
797.22	3573.71
797.39	3514.31
797.57	3362.76
797.74	3246.03
797.92	3477.45
798.09	3325.90
798.27	3504.07
798.44	3133.39
798.62	3254.22
798.79	3444.68
798.96	3305.42
799.14	3291.09
799.31	4081.60
799.49	3330.00
799.66	3217.36
799.84	3184.59
800.01	3114.96
800.19	3553.23
800.36	3125.20
800.53	3258.32
800.71	3549.13
800.88	3782.60
801.06	3137.49
801.23	3147.73
801.41	3373.00
801.58	3321.81
801.75	3211.22
801.93	3237.84
802.10	3624.90
802.28	3389.39
802.45	3268.56
802.63	3223.50
802.80	3669.96
802.97	3332.05
803.15	3196.88
803.32	3133.39
803.50	3246.03
803.67	3272.65
803.84	3119.06
804.02	3248.08
804.19	3334.09
804.37	2932.69
804.54	3004.37
804.71	3084.24
804.89	3434.44
805.06	3182.54
805.24	3074.00
805.41	3076.05
805.58	3278.80
805.76	3913.67
805.93	3100.62
806.10	3299.28
806.28	3604.42
806.45	3499.98
806.63	3313.61
806.80	3188.69
806.97	3463.12
807.15	3465.16
807.32	3311.57
807.49	3172.30
807.67	3174.35
807.84	3489.74
808.01	2983.89
808.19	3360.72
808.36	3913.67
808.54	3362.76
808.71	3213.26
808.88	3145.68
809.06	3755.97
809.23	3798.98
809.40	3301.33
809.58	3082.19
809.75	3403.72
809.92	3106.77
810.10	3409.87
810.27	3151.82
810.44	3538.89
810.62	3563.47
810.79	3221.45
810.96	3217.36
811.14	3338.19
811.31	3534.79
811.48	3366.86
811.66	3303.37
811.83	3694.54
812.00	3553.23
812.18	3368.91
812.35	3520.46
812.52	3370.96
812.69	3323.85
812.87	3147.73
813.04	3162.06
813.21	3379.15
813.39	3256.27
813.56	3182.54
813.73	3426.25
813.91	3145.68
814.08	3442.64
814.25	3188.69
814.42	3053.52
814.60	3401.68
814.77	3446.73
814.94	3141.58
815.12	3209.17
815.29	3798.98
815.46	3295.18
815.63	3233.74
815.81	3235.79
815.98	3311.57
816.15	3422.16
816.33	3276.75
816.50	3190.74
816.67	3530.70
816.84	3321.81
817.02	3133.39
817.19	3182.54
817.36	3497.93
817.53	3475.40
817.71	3127.25
817.88	3190.74
818.05	3405.77
818.22	3426.25
818.40	3307.47
818.57	3233.74
818.74	3456.97
818.91	3413.96
819.09	3379.15
819.26	3262.41
819.43	3254.22
819.60	3289.04
819.78	3342.28
819.95	3276.75
820.12	3266.51
820.29	3753.93
820.47	3504.07
820.64	3102.67
820.81	3153.87
820.98	3262.41
821.15	3307.47
821.33	3321.81
821.50	3117.01
821.67	3592.14
821.84	3164.11
822.02	3211.22
822.19	3639.24
822.36	3352.52
822.53	3133.39
822.70	3129.30
822.88	3309.52
823.05	3753.93
823.22	3291.09
823.39	3182.54
823.56	3383.24
823.74	3876.80
823.91	3082.19
824.08	3098.58
824.25	3276.75
824.42	3741.64
824.60	3045.33
824.77	3313.61
824.94	3360.72
825.11	3551.18
825.28	2934.74
825.45	3297.23
825.63	3389.39
825.80	3272.65
825.97	3317.71
826.14	3192.78
826.31	3030.99
826.48	3477.45
826.66	3221.45
826.83	3174.35
827.00	3432.40
827.17	3180.50
827.34	3194.83
827.51	3123.15
827.69	3434.44
827.86	3164.11
828.03	3293.13
828.20	3278.80
828.37	3330.00
828.54	3524.55
828.71	3049.43
828.89	3229.65
829.06	3495.88
829.23	3762.12
829.40	3153.87
829.57	3172.30
829.74	3502.03
829.91	3319.76
830.09	3108.82
830.26	3354.57
830.43	3880.90
830.60	3381.20
830.77	3250.13
830.94	3473.36
831.11	3655.62
831.28	3299.28
831.46	3311.57
831.63	3219.41
831.80	3606.47
831.97	3276.75
832.14	3194.83
832.31	3213.26
832.48	3569.61
832.65	3624.90
832.82	3373.00
832.99	3274.70
833.17	3209.17
833.34	3735.50
833.51	3096.53
833.68	2944.98
833.85	3659.72
834.02	3176.40
834.19	3106.77
834.36	3278.80
834.53	3416.01
834.70	3624.90
834.87	3139.54
835.04	2918.36
835.22	3227.60
835.39	3362.76
835.56	3014.61
835.73	3076.05
835.90	3721.16
836.07	3190.74
836.24	3125.20
836.41	3141.58
836.58	3256.27
836.75	3676.10
836.92	3045.33
837.09	2920.40
837.26	3549.13
837.43	3471.31
837.60	3106.77
837.77	2963.41
837.94	3631.05
838.12	3755.97
838.29	3004.37
838.46	2906.07
838.63	3217.36
838.80	3672.01
838.97	3106.77
839.14	3026.90
839.31	3438.54
839.48	3510.22
839.65	2955.22
839.82	3117.01
839.99	3442.64
840.16	3497.93
840.33	2983.89
840.50	3082.19
840.67	3248.08
840.84	2934.74
841.01	3041.23
841.18	2983.89
841.35	3438.54
841.52	3618.76
841.69	3362.76
841.86	3098.58
842.03	3350.48
842.20	3686.34
842.37	2961.36
842.54	3053.52
842.71	3454.92
842.88	3098.58
843.05	3002.32
843.22	3016.66
843.39	3667.91
843.56	3295.18
843.73	2985.94
843.90	3063.76
844.07	3411.92
844.24	3585.99
844.41	3080.14
844.58	3033.04
844.75	3438.54
844.92	3516.36
845.09	3016.66
845.26	3084.24
845.43	3606.47
845.60	3403.72
845.77	3143.63
845.94	3153.87
846.10	3672.01
846.27	3174.35
846.44	2928.60
846.61	2910.16
846.78	3536.84
846.95	3657.67
847.12	3010.51
847.29	3090.38
847.46	3305.42
847.63	3608.52
847.80	2969.55
847.97	3125.20
848.14	3911.62
848.31	3395.53
848.48	2836.44
848.65	3016.66
848.82	3311.57
848.98	3993.54
849.15	3114.96
849.32	3125.20
849.49	3653.58
849.66	3461.07
849.83	2983.89
850.00	2959.31
850.17	3545.03
850.34	3352.52
850.51	2983.89
850.68	3086.29
850.85	3921.86
851.01	3504.07
851.18	2987.99
851.35	3004.37
851.52	3516.36
851.69	3702.73
851.86	2906.07
852.03	2893.78
852.20	3635.14
852.37	3418.06
852.53	2901.97
852.70	2899.92
852.87	3452.88
853.04	3622.86
853.21	2959.31
853.38	3266.51
853.55	3717.06
853.72	3725.26
853.89	2899.92
854.05	2975.70
854.22	3409.87
854.39	3336.14
854.56	2944.98
854.73	3190.74
854.90	3223.50
855.07	3403.72
855.23	2981.84
855.40	2965.46
855.57	3366.86
855.74	2959.31
855.91	3168.21
856.08	2818.00
856.25	3155.92
856.41	3295.18
856.58	3037.14
856.75	3039.19
856.92	3229.65
857.09	3592.14
857.26	2803.67
857.42	3016.66
857.59	3600.33
857.76	3286.99
857.93	3016.66
858.10	3155.92
858.27	3207.12
858.43	3514.31
858.60	2994.13
858.77	2920.40
858.94	3327.95
859.11	3631.05
859.27	3155.92
859.44	2865.11
859.61	3864.52
859.78	3643.34
859.95	3026.90
860.12	2932.69
860.28	3833.80
860.45	3921.86
860.62	2912.21
860.79	3086.29
860.95	3399.63
861.12	3274.70
861.29	2930.64
861.46	3039.19
861.63	3348.43
861.79	3545.03
861.96	2893.78
862.13	2949.08
862.30	3805.13
862.47	3368.91
862.63	2852.82
862.80	3069.91
862.97	3538.89
863.14	3549.13
863.30	3028.95
863.47	2961.36
863.64	3835.85
863.81	3551.18
863.97	2883.54
864.14	2955.22
864.31	3336.14
864.48	3459.02
864.65	2985.94
864.81	3121.10
864.98	3577.80
865.15	3624.90
865.32	3035.09
865.48	3198.93
865.65	3809.22
865.82	3254.22
865.98	3074.00
866.15	3008.47
866.32	3377.10
866.49	3321.81
866.65	3168.21
866.82	3057.62
866.99	3411.92
867.16	3291.09
867.32	2977.75
867.49	2975.70
867.66	3393.48
867.83	3254.22
867.99	2963.41
868.16	3028.95
868.33	3157.97
868.49	3395.53
868.66	3010.51
868.83	3041.23
868.99	3420.11
869.16	3379.15
869.33	3157.97
869.50	3074.00
869.66	3495.88
869.83	3467.21
870.00	2918.36
870.16	3264.46
870.33	3409.87
870.50	3657.67
870.66	3123.15
870.83	3035.09
871.00	3409.87
871.17	3534.79
871.33	3020.75
871.50	2916.31
871.67	3295.18
871.83	3338.19
872.00	3106.77
872.17	2981.84
872.33	3876.80
872.50	3690.44
872.67	2973.65
872.83	2971.60
873.00	3645.38
873.17	3485.64
873.33	3082.19
873.50	3024.85
873.67	3200.98
873.83	3252.17
874.00	3076.05
874.16	3184.59
874.33	3434.44
874.50	3153.87
874.66	2908.12
874.83	3172.30
875.00	3643.34
875.16	3667.91
875.33	3114.96
875.50	2793.43
875.66	3383.24
875.83	3409.87
875.99	3106.77
876.16	3166.16
876.33	3174.35
876.49	3340.24
876.66	3047.38
876.83	3074.00
876.99	3141.58
877.16	3463.12
877.32	2940.88
877.49	3131.34
877.66	3526.60
877.82	3745.73
877.99	3104.72
878.15	3241.93
878.32	3424.20
878.49	3422.16
878.65	3024.85
878.82	3237.84
878.98	3334.09
879.15	3651.53
879.32	3219.41
879.48	3215.31
879.65	3405.77
879.81	3311.57
879.98	3061.71
880.15	3164.11
880.31	3583.95
880.48	3223.50
880.64	3157.97
880.81	3174.35
880.97	3813.32
881.14	3831.75
881.31	2979.79
881.47	3262.41
881.64	3401.68
881.80	3106.77
881.97	3180.50
882.13	3035.09
882.30	3217.36
882.47	3295.18
882.63	2918.36
882.80	3016.66
882.96	3354.57
883.13	3620.81
883.29	3012.56
883.46	2906.07
883.62	3971.01
883.79	3491.79
883.95	3254.22
884.12	2975.70
884.29	3674.06
884.45	3434.44
884.62	3039.19
884.78	2996.18
884.95	3809.22
885.11	3221.45
885.28	3194.83
885.44	3041.23
885.61	3608.52
885.77	3680.20
885.94	3164.11
886.10	3166.16
886.27	3377.10
886.43	3776.45
886.60	3254.22
886.76	3090.38
886.93	3225.55
887.09	3434.44
887.26	2887.64
887.42	3160.02
887.59	3620.81
887.75	3913.67
887.92	3180.50
888.08	3153.87
888.25	3868.61
888.41	3708.87
888.58	3190.74
888.74	3012.56
888.91	3315.66
>>>>>End Processed Spectral Data<<<<<
