SpectraSuite Data File
++++++++++++++++++++++++++++++++++++
Date: Fri May 06 09:29:02 CEST 2016
User: root
Dark Spectrum Present: No
Reference Spectrum Present: No
Number of Sampled Component Spectra: 1
Spectrometers: USB4C02835
Integration Time (usec): 100000 (USB4C02835)
Spectra Averaged: 1 (USB4C02835)
Boxcar Smoothing: 0 (USB4C02835)
Correct for Electrical Dark: No (USB4C02835)
Strobe/Lamp Enabled: No (USB4C02835)
Correct for Detector Non-linearity: No (USB4C02835)
Correct for Stray Light: No (USB4C02835)
Number of Pixels in Processed Spectrum: 3648
>>>>>Begin Processed Spectral Data<<<<<
177.47	2353.12
177.69	2353.12
177.91	2353.12
178.13	2318.30
178.36	2353.12
178.58	3100.62
178.80	3198.93
179.02	3123.15
179.24	3166.16
179.46	2893.78
179.68	2926.55
179.90	3397.58
180.13	3426.25
180.35	2760.66
180.57	2897.88
180.79	3622.86
181.01	3385.29
181.23	2942.93
181.45	3098.58
181.67	3514.31
181.90	3651.53
182.12	2987.99
182.34	2803.67
182.56	3649.48
182.78	3585.99
183.00	2889.68
183.22	2957.27
183.44	3016.66
183.66	4147.14
183.89	3063.76
184.11	3004.37
184.33	3655.62
184.55	3772.36
184.77	2965.46
184.99	3026.90
185.21	3403.72
185.43	3921.86
185.65	2955.22
185.87	2922.45
186.10	3981.25
186.32	3977.16
186.54	3160.02
186.76	3084.24
186.98	3805.13
187.20	3385.29
187.42	2940.88
187.64	2893.78
187.86	3565.51
188.08	3651.53
188.30	2908.12
188.52	3008.47
188.75	3766.21
188.97	3733.45
189.19	2885.59
189.41	2955.22
189.63	3536.84
189.85	3342.28
190.07	2789.33
190.29	2865.11
190.51	3639.24
190.73	3207.12
190.95	3170.26
191.17	2901.97
191.39	3049.43
191.61	3432.40
191.84	2947.03
192.06	3125.20
192.28	3121.10
192.50	4231.10
192.72	3178.45
192.94	3049.43
193.16	3733.45
193.38	3502.03
193.60	2893.78
193.82	3166.16
194.04	3721.16
194.26	3526.60
194.48	2983.89
194.70	2936.79
194.92	3340.24
195.14	3682.25
195.36	2969.55
195.58	3057.62
195.80	3389.39
196.02	3358.67
196.24	2957.27
196.46	3125.20
196.69	3276.75
196.91	4040.64
197.13	2992.08
197.35	3067.86
197.57	3749.83
197.79	3649.48
198.01	3012.56
198.23	3045.33
198.45	3624.90
198.67	3127.25
198.89	2779.09
199.11	3092.43
199.33	3305.42
199.55	2998.23
199.77	2881.49
199.99	3127.25
200.21	3309.52
200.43	3549.13
200.65	2877.40
200.87	2830.29
201.09	3467.21
201.31	3364.81
201.53	2992.08
201.75	3002.32
201.97	3489.74
202.19	3399.63
202.41	2977.75
202.63	3086.29
202.85	3549.13
203.07	3598.28
203.29	3117.01
203.51	2856.92
203.73	3323.85
203.95	4132.80
204.17	2985.94
204.39	3094.48
204.61	3471.31
204.83	3295.18
205.05	3076.05
205.27	2990.03
205.49	3887.04
205.71	3448.78
205.93	2799.57
206.15	2861.01
206.37	3450.83
206.59	3499.98
206.81	2811.86
207.03	2887.64
207.25	3291.09
207.47	3614.66
207.69	2951.12
207.91	3166.16
208.13	3854.28
208.34	3385.29
208.56	2973.65
208.78	3026.90
209.00	3405.77
209.22	3295.18
209.44	2926.55
209.66	2904.02
209.88	3485.64
210.10	3389.39
210.32	2936.79
210.54	3065.81
210.76	3354.57
210.98	3696.58
211.20	2779.09
211.42	3137.49
211.64	3764.17
211.86	3532.75
212.08	3063.76
212.30	3002.32
212.52	3399.63
212.74	3618.76
212.96	3045.33
213.17	2998.23
213.39	3645.38
213.61	3911.62
213.83	2889.68
214.05	2822.10
214.27	3741.64
214.49	3192.78
214.71	2879.44
214.93	3024.85
215.15	3504.07
215.37	3581.90
215.59	2906.07
215.81	3067.86
216.03	3839.94
216.24	3446.73
216.46	3016.66
216.68	2983.89
216.90	3674.06
217.12	3819.46
217.34	2922.45
217.56	3149.78
217.78	3807.17
218.00	3583.95
218.22	3049.43
218.44	3088.34
218.66	3598.28
218.87	3878.85
219.09	3026.90
219.31	3010.51
219.53	3467.21
219.75	3307.47
219.97	3010.51
220.19	3018.71
220.41	3454.92
220.63	3803.08
220.85	2987.99
221.06	2967.51
221.28	3762.12
221.50	3663.82
221.72	2930.64
221.94	2889.68
222.16	3450.83
222.38	3667.91
222.60	2906.07
222.82	3033.04
223.03	3688.39
223.25	3213.26
223.47	2891.73
223.69	3207.12
223.91	3563.47
224.13	3434.44
224.35	2912.21
224.57	3139.54
224.78	3637.19
225.00	3168.21
225.22	3094.48
225.44	2854.87
225.66	3626.95
225.88	3319.76
226.10	3121.10
226.32	2908.12
226.53	3844.04
226.75	3336.14
226.97	2953.17
227.19	2961.36
227.41	3291.09
227.63	3313.61
227.85	2826.20
228.06	3004.37
228.28	3540.94
228.50	3706.82
228.72	2828.24
228.94	2867.16
229.16	3119.06
229.37	3149.78
229.59	2838.48
229.81	3270.61
230.03	3297.23
230.25	3086.29
230.47	2727.89
230.69	2926.55
230.90	3780.55
231.12	3266.51
231.34	3071.95
231.56	3076.05
231.78	3217.36
232.00	3403.72
232.21	3061.71
232.43	3006.42
232.65	3069.91
232.87	3590.09
233.09	2820.05
233.30	2881.49
233.52	3719.11
233.74	3444.68
233.96	2918.36
234.18	3198.93
234.40	3434.44
234.61	3962.82
234.83	2895.83
235.05	2904.02
235.27	4114.37
235.49	3762.12
235.70	2824.15
235.92	3010.51
236.14	3499.98
236.36	3960.77
236.58	2918.36
236.79	2955.22
237.01	3463.12
237.23	3450.83
237.45	3190.74
237.67	2994.13
237.88	3573.71
238.10	3805.13
238.32	2920.40
238.54	2916.31
238.76	3465.16
238.97	3264.46
239.19	2801.62
239.41	3006.42
239.63	3639.24
239.85	3303.37
240.06	3024.85
240.28	2969.55
240.50	3729.35
240.72	3471.31
240.93	2836.44
241.15	3047.38
241.37	3405.77
241.59	3753.93
241.81	2965.46
242.02	3102.67
242.24	3508.17
242.46	3581.90
242.68	2848.72
242.89	2940.88
243.11	3663.82
243.33	3418.06
243.55	2930.64
243.76	2918.36
243.98	3311.57
244.20	3358.67
244.42	3030.99
244.64	2912.21
244.85	3123.15
245.07	3268.56
245.29	3002.32
245.51	2969.55
245.72	3520.46
245.94	3749.83
246.16	2889.68
246.38	2977.75
246.59	3442.64
246.81	3319.76
247.03	2777.05
247.24	2820.05
247.46	3430.35
247.68	3475.40
247.90	2885.59
248.11	2994.13
248.33	3581.90
248.55	3426.25
248.77	3014.61
248.98	3014.61
249.20	3813.32
249.42	3518.41
249.64	2893.78
249.85	2967.51
250.07	3149.78
250.29	3655.62
250.50	3022.80
250.72	2938.84
250.94	3598.28
251.16	4030.40
251.37	2910.16
251.59	3010.51
251.81	3565.51
252.02	3753.93
252.24	2793.43
252.46	3151.82
252.68	3260.37
252.89	3311.57
253.11	2848.72
253.33	3164.11
253.54	3772.36
253.76	3229.65
253.98	2969.55
254.20	2985.94
254.41	3196.88
254.63	3377.10
254.85	2852.82
255.06	3041.23
255.28	3532.75
255.50	3401.68
255.71	2879.44
255.93	2818.00
256.15	3373.00
256.36	3590.09
256.58	2848.72
256.80	2924.50
257.02	3487.69
257.23	3301.33
257.45	2985.94
257.67	3123.15
257.88	3344.33
258.10	3520.46
258.32	3000.27
258.53	3082.19
258.75	3846.09
258.97	3266.51
259.18	2865.11
259.40	2906.07
259.62	3874.76
259.83	3749.83
260.05	2926.55
260.27	3938.24
260.48	3745.73
260.70	3252.17
260.92	2789.33
261.13	2942.93
261.35	3497.93
261.57	3581.90
261.78	2828.24
262.00	2930.64
262.22	3563.47
262.43	3305.42
262.65	2963.41
262.86	2983.89
263.08	4108.23
263.30	3434.44
263.51	2766.81
263.73	2885.59
263.95	3897.28
264.16	3219.41
264.38	2838.48
264.60	2836.44
264.81	3459.02
265.03	3745.73
265.25	3499.98
265.46	2932.69
265.68	3805.13
265.89	3604.42
266.11	2824.15
266.33	2889.68
266.54	3764.17
266.76	3563.47
266.98	3030.99
267.19	3198.93
267.41	3657.67
267.62	3360.72
267.84	2785.24
268.06	3012.56
268.27	3522.51
268.49	3690.44
268.70	3059.67
268.92	3014.61
269.14	3237.84
269.35	3207.12
269.57	3057.62
269.79	3004.37
270.00	3360.72
270.22	3848.13
270.43	2824.15
270.65	2818.00
270.87	3430.35
271.08	3573.71
271.30	3129.30
271.51	2977.75
271.73	3620.81
271.95	3729.35
272.16	2895.83
272.38	3051.47
272.59	3368.91
272.81	3583.95
273.02	2926.55
273.24	3016.66
273.46	3741.64
273.67	3160.02
273.89	2828.24
274.10	2936.79
274.32	3647.43
274.54	3467.21
274.75	3166.16
274.97	3039.19
275.18	3514.31
275.40	3667.91
275.61	2996.18
275.83	3182.54
276.05	3250.13
276.26	3448.78
276.48	3061.71
276.69	3149.78
276.91	3278.80
277.12	3803.08
277.34	3098.58
277.55	3188.69
277.77	3536.84
277.99	3338.19
278.20	3147.73
278.42	2996.18
278.63	3301.33
278.85	3291.09
279.06	3127.25
279.28	3180.50
279.49	3659.72
279.71	3616.71
279.93	3135.44
280.14	3176.40
280.36	3268.56
280.57	3653.58
280.79	3200.98
281.00	3028.95
281.22	3311.57
281.43	3721.16
281.65	2856.92
281.86	2983.89
282.08	3499.98
282.29	3788.74
282.51	3004.37
282.73	3000.27
282.94	3178.45
283.16	3631.05
283.37	3256.27
283.59	3127.25
283.80	3596.23
284.02	3387.34
284.23	3143.63
284.45	3139.54
284.66	3196.88
284.88	3213.26
285.09	3037.14
285.31	3248.08
285.52	3518.41
285.74	3162.06
285.95	3258.32
286.17	3123.15
286.38	3717.06
286.60	3338.19
286.81	3074.00
287.03	3137.49
287.24	3401.68
287.46	3588.04
287.67	3252.17
287.89	3330.00
288.10	3467.21
288.32	3483.59
288.53	3190.74
288.75	3213.26
288.96	3610.57
289.18	3268.56
289.39	2959.31
289.61	3069.91
289.82	3942.34
290.04	3880.90
290.25	3018.71
290.47	3213.26
290.68	3508.17
290.90	3692.49
291.11	2947.03
291.33	3360.72
291.54	3235.79
291.76	3338.19
291.97	3205.07
292.18	3215.31
292.40	3348.43
292.61	3323.85
292.83	3459.02
293.04	3094.48
293.26	3522.51
293.47	3315.66
293.69	3049.43
293.90	2971.60
294.12	3669.96
294.33	3502.03
294.55	3135.44
294.76	3323.85
294.97	3805.13
295.19	3968.96
295.40	3086.29
295.62	3157.97
295.83	3696.58
296.05	3268.56
296.26	3332.05
296.48	3117.01
296.69	3377.10
296.90	3452.88
297.12	3264.46
297.33	3211.22
297.55	3354.57
297.76	3471.31
297.98	3157.97
298.19	3262.41
298.41	3379.15
298.62	3225.55
298.83	3233.74
299.05	3192.78
299.26	3319.76
299.48	3248.08
299.69	3194.83
299.90	3028.95
300.12	3291.09
300.33	3575.75
300.55	3149.78
300.76	3133.39
300.98	3131.34
301.19	3569.61
301.40	3172.30
301.62	3192.78
301.83	3590.09
302.05	3489.74
302.26	3033.04
302.47	3205.07
302.69	3174.35
302.90	3475.40
303.12	2844.63
303.33	3221.45
303.54	3946.44
303.76	3418.06
303.97	2955.22
304.19	3250.13
304.40	3223.50
304.61	3487.69
304.83	3188.69
305.04	3160.02
305.26	3612.62
305.47	3258.32
305.68	3053.52
305.90	2985.94
306.11	3809.22
306.33	3459.02
306.54	2852.82
306.75	3051.47
306.97	3155.92
307.18	3246.03
307.39	3065.81
307.61	3198.93
307.82	3430.35
308.04	3569.61
308.25	2961.36
308.46	3284.94
308.68	3405.77
308.89	3403.72
309.10	3219.41
309.32	3106.77
309.53	3430.35
309.74	3631.05
309.96	3006.42
310.17	3196.88
310.39	3305.42
310.60	3633.10
310.81	3123.15
311.03	3090.38
311.24	3616.71
311.45	3338.19
311.67	3344.33
311.88	3258.32
312.09	3313.61
312.31	3313.61
312.52	2996.18
312.73	3078.10
312.95	3200.98
313.16	3221.45
313.37	3282.89
313.59	3323.85
313.80	3655.62
314.01	3798.98
314.23	3188.69
314.44	3090.38
314.65	3174.35
314.87	3229.65
315.08	3082.19
315.29	3088.34
315.51	3248.08
315.72	3063.76
315.93	3104.72
316.15	3139.54
316.36	3381.20
316.57	3522.51
316.79	3067.86
317.00	3000.27
317.21	3594.19
317.43	3297.23
317.64	3131.34
317.85	3008.47
318.07	3303.37
318.28	3448.78
318.49	3178.45
318.70	3416.01
318.92	3499.98
319.13	3469.26
319.34	3262.41
319.56	3166.16
319.77	3516.36
319.98	3393.48
320.20	3340.24
320.41	3221.45
320.62	3557.32
320.83	3200.98
321.05	3239.89
321.26	3123.15
321.47	3512.27
321.69	3694.54
321.90	3022.80
322.11	3069.91
322.32	3536.84
322.54	3758.02
322.75	3106.77
322.96	4126.66
323.18	3078.10
323.39	3045.33
323.60	2981.84
323.81	3178.45
324.03	3332.05
324.24	3413.96
324.45	3217.36
324.66	3018.71
324.88	3766.21
325.09	3880.90
325.30	3141.58
325.52	2987.99
325.73	3559.37
325.94	3274.70
326.15	3010.51
326.37	2936.79
326.58	3565.51
326.79	3772.36
327.00	3090.38
327.22	3114.96
327.43	3282.89
327.64	3258.32
327.85	3262.41
328.07	3143.63
328.28	3923.91
328.49	3330.00
328.70	3117.01
328.92	3061.71
329.13	3411.92
329.34	3536.84
329.55	3323.85
329.76	3260.37
329.98	3422.16
330.19	3803.08
330.40	3317.71
330.61	3250.13
330.83	3577.80
331.04	3256.27
331.25	3184.59
331.46	3211.22
331.68	3155.92
331.89	3690.44
332.10	3092.43
332.31	2963.41
332.52	3393.48
332.74	3710.92
332.95	2992.08
333.16	3090.38
333.37	3704.78
333.58	3375.05
333.80	3117.01
334.01	2879.44
334.22	3397.58
334.43	3319.76
334.64	3047.38
334.86	3106.77
335.07	3272.65
335.28	3803.08
335.49	3020.75
335.70	3074.00
335.92	3766.21
336.13	3872.71
336.34	3090.38
336.55	3043.28
336.76	3569.61
336.98	3067.86
337.19	3069.91
337.40	3143.63
337.61	4081.60
337.82	3336.14
338.04	3155.92
338.25	2949.08
338.46	3407.82
338.67	3403.72
338.88	3014.61
339.09	3000.27
339.31	3403.72
339.52	3205.07
339.73	2994.13
339.94	3147.73
340.15	3608.52
340.36	3393.48
340.58	3176.40
340.79	3074.00
341.00	3602.38
341.21	3172.30
341.42	3356.62
341.63	3104.72
341.85	3676.10
342.06	3510.22
342.27	3035.09
342.48	3340.24
342.69	3149.78
342.90	3522.51
343.12	3538.89
343.33	3028.95
343.54	3620.81
343.75	3743.69
343.96	3217.36
344.17	2996.18
344.38	3362.76
344.60	3246.03
344.81	2994.13
345.02	3110.86
345.23	3696.58
345.44	4073.41
345.65	3155.92
345.86	3219.41
346.07	3436.49
346.29	3280.85
346.50	3233.74
346.71	3170.26
346.92	3672.01
347.13	3960.77
347.34	3217.36
347.55	2934.74
347.76	3469.26
347.98	3160.02
348.19	3186.64
348.40	3243.98
348.61	3373.00
348.82	3735.50
349.03	3213.26
349.24	3139.54
349.45	3885.00
349.66	2961.36
349.88	3047.38
350.09	3028.95
350.30	3708.87
350.51	3788.74
350.72	3286.99
350.93	3082.19
351.14	3360.72
351.35	3530.70
351.56	3096.53
351.77	3200.98
351.99	3516.36
352.20	3712.97
352.41	3225.55
352.62	2930.64
352.83	3375.05
353.04	3426.25
353.25	3129.30
353.46	3123.15
353.67	3706.82
353.88	3012.56
354.09	2969.55
354.30	3174.35
354.52	3514.31
354.73	3438.54
354.94	3065.81
355.15	3196.88
355.36	3882.95
355.57	3379.15
355.78	3016.66
355.99	3100.62
356.20	3360.72
356.41	3733.45
356.62	3205.07
356.83	3127.25
357.04	3735.50
357.25	3096.53
357.46	3004.37
357.68	3037.14
357.89	3217.36
358.10	3385.29
358.31	3082.19
358.52	3196.88
358.73	3295.18
358.94	3256.27
359.15	3041.23
359.36	3121.10
359.57	3375.05
359.78	3366.86
359.99	3282.89
360.20	2975.70
360.41	3506.12
360.62	3575.75
360.83	3196.88
361.04	3121.10
361.25	3596.23
361.46	3762.12
361.67	3305.42
361.88	3151.82
362.09	3581.90
362.30	3514.31
362.51	2957.27
362.72	3254.22
362.93	3719.11
363.14	3534.79
363.35	3188.69
363.56	3041.23
363.78	3696.58
363.99	3626.95
364.20	3178.45
364.41	3198.93
364.62	3837.89
364.83	3536.84
365.04	3086.29
365.25	3145.68
365.46	3934.15
365.67	3297.23
365.88	3250.13
366.09	3022.80
366.30	3311.57
366.51	3549.13
366.72	3065.81
366.93	3065.81
367.14	3579.85
367.35	3768.26
367.56	3063.76
367.77	3188.69
367.98	3420.11
368.18	3542.99
368.39	3221.45
368.60	3049.43
368.81	3602.38
369.02	3502.03
369.23	3139.54
369.44	2971.60
369.65	3401.68
369.86	3598.28
370.07	3223.50
370.28	3057.62
370.49	3555.27
370.70	3565.51
370.91	3071.95
371.12	2947.03
371.33	3676.10
371.54	3225.55
371.75	3192.78
371.96	2899.92
372.17	3450.83
372.38	3393.48
372.59	3145.68
372.80	3082.19
373.01	3416.01
373.22	3508.17
373.43	3076.05
373.64	2928.60
373.85	3712.97
374.06	3819.46
374.26	3332.05
374.47	3229.65
374.68	3747.78
374.89	3444.68
375.10	3022.80
375.31	3225.55
375.52	3446.73
375.73	3461.07
375.94	2906.07
376.15	3200.98
376.36	3252.17
376.57	3395.53
376.78	3139.54
376.99	3153.87
377.20	3692.49
377.40	3305.42
377.61	3467.21
377.82	3127.25
378.03	3708.87
378.24	3540.94
378.45	3301.33
378.66	3141.58
378.87	3131.34
379.08	3139.54
379.29	3074.00
379.50	3330.00
379.71	3409.87
379.91	3606.47
380.12	3127.25
380.33	3256.27
380.54	3485.64
380.75	3444.68
380.96	3082.19
381.17	3088.34
381.38	3430.35
381.59	3420.11
381.80	3192.78
382.00	3303.37
382.21	3450.83
382.42	3731.40
382.63	3485.64
382.84	3192.78
383.05	3608.52
383.26	3729.35
383.47	3254.22
383.68	3055.57
383.88	3526.60
384.09	3442.64
384.30	3389.39
384.51	3205.07
384.72	3364.81
384.93	3176.40
385.14	3157.97
385.35	3438.54
385.55	3176.40
385.76	3702.73
385.97	3143.63
386.18	2942.93
386.39	3225.55
386.60	3319.76
386.81	3098.58
387.02	3026.90
387.22	3135.44
387.43	3565.51
387.64	3217.36
387.85	3377.10
388.06	3450.83
388.27	4343.74
388.48	7206.80
388.68	10815.32
388.89	13705.01
389.10	14642.98
389.31	14180.14
389.52	11499.34
389.73	10219.36
389.93	9521.01
390.14	8433.54
390.35	7833.48
390.56	7348.11
390.77	6092.71
390.98	4675.51
391.18	4085.70
391.39	4011.97
391.60	3456.97
391.81	3348.43
392.02	3147.73
392.23	3964.87
392.43	3567.56
392.64	3241.93
392.85	3227.60
393.06	3780.55
393.27	3442.64
393.47	3110.86
393.68	3170.26
393.89	3325.90
394.10	3745.73
394.31	3135.44
394.52	3108.82
394.72	3274.70
394.93	3796.93
395.14	2938.84
395.35	3221.45
395.56	3213.26
395.76	3383.24
395.97	3102.67
396.18	3297.23
396.39	3393.48
396.60	4065.22
396.80	3510.22
397.01	3360.72
397.22	3598.28
397.43	3680.20
397.64	3041.23
397.84	3252.17
398.05	3909.57
398.26	3450.83
398.47	3241.93
398.67	3346.38
398.88	3493.83
399.09	3667.91
399.30	3098.58
399.51	3205.07
399.71	3260.37
399.92	3463.12
400.13	3127.25
400.34	3092.43
400.54	3485.64
400.75	3712.97
400.96	3164.11
401.17	3446.73
401.37	3532.75
401.58	3418.06
401.79	3086.29
402.00	3182.54
402.21	3925.96
402.41	3594.19
402.62	3319.76
402.83	3555.27
403.04	3745.73
403.24	4171.71
403.45	3217.36
403.66	3448.78
403.87	3577.80
404.07	3801.03
404.28	3309.52
404.49	3405.77
404.70	3612.62
404.90	3614.66
405.11	3200.98
405.32	3256.27
405.52	3266.51
405.73	3336.14
405.94	3086.29
406.15	3260.37
406.35	3588.04
406.56	3657.67
406.77	3170.26
406.98	3184.59
407.18	3225.55
407.39	3784.65
407.60	3231.69
407.80	3209.17
408.01	3348.43
408.22	3606.47
408.43	3094.48
408.63	3319.76
408.84	3657.67
409.05	3571.66
409.25	3069.91
409.46	3190.74
409.67	3368.91
409.88	3379.15
410.08	3180.50
410.29	3145.68
410.50	3739.59
410.70	3540.94
410.91	3051.47
411.12	3176.40
411.32	3549.13
411.53	3260.37
411.74	3082.19
411.95	3272.65
412.15	3452.88
412.36	3598.28
412.57	3368.91
412.77	3323.85
412.98	3375.05
413.19	3315.66
413.39	3225.55
413.60	3157.97
413.81	3641.29
414.01	3213.26
414.22	3108.82
414.43	3295.18
414.63	3266.51
414.84	3657.67
415.05	3143.63
415.25	2967.51
415.46	3530.70
415.67	3327.95
415.87	3172.30
416.08	3123.15
416.29	3325.90
416.49	3542.99
416.70	3190.74
416.91	3123.15
417.11	3393.48
417.32	3729.35
417.53	3270.61
417.73	3250.13
417.94	3434.44
418.15	3510.22
418.35	3225.55
418.56	3174.35
418.77	4050.88
418.97	3481.55
419.18	3223.50
419.38	2791.38
419.59	3391.44
419.80	3753.93
420.00	3084.24
420.21	3207.12
420.42	3758.02
420.62	3604.42
420.83	3155.92
421.04	3117.01
421.24	3375.05
421.45	3614.66
421.65	3149.78
421.86	3203.02
422.07	3688.39
422.27	3653.58
422.48	3102.67
422.69	2936.79
422.89	3483.59
423.10	3352.52
423.30	3153.87
423.51	3200.98
423.72	3614.66
423.92	3667.91
424.13	3006.42
424.33	3209.17
424.54	3536.84
424.75	3497.93
424.95	3381.20
425.16	3129.30
425.36	3459.02
425.57	3674.06
425.78	3321.81
425.98	3274.70
426.19	3430.35
426.39	3188.69
426.60	3282.89
426.81	3297.23
427.01	3553.23
427.22	3248.08
427.42	2963.41
427.63	3106.77
427.83	3706.82
428.04	3903.43
428.25	3114.96
428.45	3203.02
428.66	3682.25
428.86	3422.16
429.07	3278.80
429.28	3184.59
429.48	3424.20
429.69	3291.09
429.89	3248.08
430.10	3172.30
430.30	3631.05
430.51	3723.21
430.71	3141.58
430.92	3282.89
431.13	3350.48
431.33	3606.47
431.54	3278.80
431.74	3336.14
431.95	3950.53
432.15	3231.69
432.36	3155.92
432.56	3254.22
432.77	3858.37
432.98	3780.55
433.18	3227.60
433.39	3033.04
433.59	3456.97
433.80	3852.23
434.00	3362.76
434.21	3196.88
434.41	3272.65
434.62	3923.91
434.82	3055.57
435.03	3157.97
435.23	3549.13
435.44	3047.38
435.64	3051.47
435.85	3250.13
436.06	3633.10
436.26	3715.02
436.47	3117.01
436.67	3141.58
436.88	3385.29
437.08	3653.58
437.29	3295.18
437.49	3323.85
437.70	3684.30
437.90	3446.73
438.11	3467.21
438.31	3254.22
438.52	3667.91
438.72	3606.47
438.93	3518.41
439.13	3188.69
439.34	3649.48
439.54	3389.39
439.75	3207.12
439.95	3264.46
440.16	3342.28
440.36	3469.26
440.57	3184.59
440.77	3119.06
440.98	3489.74
441.18	3575.75
441.39	3114.96
441.59	3076.05
441.80	3903.43
442.00	3545.03
442.21	3207.12
442.41	3024.85
442.62	3682.25
442.82	3313.61
443.02	3129.30
443.23	3248.08
443.43	3350.48
443.64	3719.11
443.84	2949.08
444.05	3299.28
444.25	3475.40
444.46	3348.43
444.66	3059.67
444.87	3350.48
445.07	3076.05
445.28	3368.91
445.48	3260.37
445.69	3211.22
445.89	4089.79
446.09	3293.13
446.30	3446.73
446.50	3575.75
446.71	5052.34
446.91	5959.59
447.12	6778.78
447.32	7171.99
447.53	7262.10
447.73	6133.67
447.93	5420.97
448.14	5167.03
448.34	5406.64
448.55	4435.90
448.75	4396.99
448.96	4167.62
449.16	4163.52
449.36	4089.79
449.57	3336.14
449.77	3258.32
449.98	3346.38
450.18	3551.18
450.39	3160.02
450.59	3411.92
450.79	3420.11
451.00	3278.80
451.20	3368.91
451.41	3172.30
451.61	3542.99
451.81	3446.73
452.02	3114.96
452.22	3139.54
452.43	3364.81
452.63	3295.18
452.84	3219.41
453.04	3030.99
453.24	3477.45
453.45	3241.93
453.65	3129.30
453.86	3229.65
454.06	3454.92
454.26	3442.64
454.47	3090.38
454.67	3383.24
454.87	3606.47
455.08	3411.92
455.28	3235.79
455.49	3360.72
455.69	3358.67
455.89	3971.01
456.10	3237.84
456.30	3180.50
456.51	3604.42
456.71	3540.94
456.91	3282.89
457.12	3196.88
457.32	3557.32
457.52	3188.69
457.73	3366.86
457.93	3334.09
458.14	3311.57
458.34	3076.05
458.54	3207.12
458.75	3117.01
458.95	3712.97
459.15	3524.55
459.36	3170.26
459.56	3143.63
459.76	3999.68
459.97	3512.27
460.17	3233.74
460.37	3246.03
460.58	3461.07
460.78	3598.28
460.99	3194.83
461.19	3229.65
461.39	3239.89
461.60	3416.01
461.80	3239.89
462.00	3080.14
462.21	3446.73
462.41	3291.09
462.61	2979.79
462.82	3010.51
463.02	3540.94
463.22	3526.60
463.43	3272.65
463.63	3065.81
463.83	3712.97
464.04	3516.36
464.24	3174.35
464.44	3172.30
464.64	3489.74
464.85	3592.14
465.05	3186.64
465.25	3108.82
465.46	3231.69
465.66	3528.65
465.86	3217.36
466.07	3188.69
466.27	3385.29
466.47	3119.06
466.68	3002.32
466.88	3246.03
467.08	3487.69
467.29	3608.52
467.49	3209.17
467.69	3207.12
467.89	3672.01
468.10	3391.44
468.30	3176.40
468.50	3246.03
468.71	3606.47
468.91	3121.10
469.11	3381.20
469.31	3293.13
469.52	3182.54
469.72	3878.85
469.92	3495.88
470.13	3149.78
470.33	3479.50
470.53	3524.55
470.73	3579.85
470.94	3839.94
471.14	4046.79
471.34	4585.40
471.54	4145.09
471.75	3928.00
471.95	3770.31
472.15	3706.82
472.36	3704.78
472.56	3454.92
472.76	3928.00
472.96	3782.60
473.17	3534.79
473.37	3303.37
473.57	3399.63
473.77	3542.99
473.98	3344.33
474.18	3067.86
474.38	4138.94
474.58	3301.33
474.79	3059.67
474.99	3270.61
475.19	3764.17
475.39	3223.50
475.60	3291.09
475.80	3063.76
476.00	3454.92
476.20	3391.44
476.41	3252.17
476.61	3205.07
476.81	3751.88
477.01	3217.36
477.21	3370.96
477.42	3233.74
477.62	3252.17
477.82	3690.44
478.02	3125.20
478.23	3211.22
478.43	3260.37
478.63	3352.52
478.83	3205.07
479.03	3207.12
479.24	3774.41
479.44	3911.62
479.64	3123.15
479.84	3000.27
480.04	3262.41
480.25	3596.23
480.45	3086.29
480.65	3131.34
480.85	3809.22
481.06	3305.42
481.26	3280.85
481.46	3092.43
481.66	3528.65
481.86	3223.50
482.06	3438.54
482.27	3313.61
482.47	3276.75
482.67	3602.38
482.87	3076.05
483.07	3215.31
483.28	3319.76
483.48	3246.03
483.68	3246.03
483.88	3067.86
484.08	2994.13
484.29	3256.27
484.49	3295.18
484.69	2901.97
484.89	3737.54
485.09	3690.44
485.29	3168.21
485.50	3352.52
485.70	3340.24
485.90	3688.39
486.10	3303.37
486.30	3166.16
486.50	3889.09
486.71	3459.02
486.91	3229.65
487.11	3252.17
487.31	3104.72
487.51	3667.91
487.71	3094.48
487.91	3141.58
488.12	3307.47
488.32	2953.17
488.52	3217.36
488.72	2895.83
488.92	3477.45
489.12	3745.73
489.32	3256.27
489.53	3125.20
489.73	3084.24
489.93	3798.98
490.13	3137.49
490.33	3026.90
490.53	3557.32
490.73	3712.97
490.94	3061.71
491.14	3227.60
491.34	3583.95
491.54	3590.09
491.74	3962.82
491.94	4374.46
492.14	5138.35
492.34	5115.83
492.54	4689.85
492.75	4188.10
492.95	4499.39
493.15	4267.97
493.35	3850.18
493.55	3862.47
493.75	3737.54
493.95	4063.17
494.15	3356.62
494.35	3223.50
494.56	3381.20
494.76	3340.24
494.96	3325.90
495.16	3098.58
495.36	3446.73
495.56	3487.69
495.76	3192.78
495.96	3121.10
496.16	3295.18
496.36	3899.33
496.56	3164.11
496.77	3252.17
496.97	3516.36
497.17	3764.17
497.37	2994.13
497.57	3223.50
497.77	3495.88
497.97	3168.21
498.17	3241.93
498.37	3133.39
498.57	3549.13
498.77	3293.13
498.97	3319.76
499.17	3522.51
499.38	3444.68
499.58	3483.59
499.78	3356.62
499.98	3385.29
500.18	3411.92
500.38	3219.41
500.58	3385.29
500.78	3747.78
500.98	6074.28
501.18	7677.83
501.38	9150.32
501.58	9938.79
501.78	9641.84
501.98	8345.47
502.18	7126.93
502.38	6148.00
502.58	6252.45
502.78	5404.59
502.98	5255.09
503.18	5042.10
503.38	4720.57
503.59	4128.70
503.79	3997.64
503.99	3657.67
504.19	3936.20
504.39	3885.00
504.59	3710.92
504.79	3477.45
504.99	3981.25
505.19	3483.59
505.39	3321.81
505.59	3459.02
505.79	3823.56
505.99	3596.23
506.19	3278.80
506.39	3465.16
506.59	3352.52
506.79	3377.10
506.99	3411.92
507.19	3117.01
507.39	3532.75
507.59	3170.26
507.79	3178.45
507.99	3108.82
508.19	3432.40
508.39	3239.89
508.59	3198.93
508.79	3295.18
508.99	3882.95
509.19	3182.54
509.39	3176.40
509.59	3143.63
509.79	3278.80
509.99	3454.92
510.19	3360.72
510.39	3338.19
510.59	3524.55
510.79	3286.99
510.99	2990.03
511.19	3114.96
511.39	3827.65
511.59	3723.21
511.79	3340.24
511.99	3209.17
512.19	3762.12
512.38	3454.92
512.58	3213.26
512.78	3041.23
512.98	3676.10
513.18	3827.65
513.38	3090.38
513.58	3237.84
513.78	3385.29
513.98	3401.68
514.18	3190.74
514.38	3164.11
514.58	3524.55
514.78	3256.27
514.98	3024.85
515.18	3205.07
515.38	3237.84
515.58	3872.71
515.78	3164.11
515.98	3225.55
516.18	3614.66
516.38	3375.05
516.57	3004.37
516.77	3200.98
516.97	3581.90
517.17	3356.62
517.37	2963.41
517.57	3160.02
517.77	3418.06
517.97	3362.76
518.17	3213.26
518.37	3008.47
518.57	3246.03
518.77	3336.14
518.97	3192.78
519.16	3157.97
519.36	3647.43
519.56	3307.47
519.76	3170.26
519.96	3166.16
520.16	3784.65
520.36	3246.03
520.56	3401.68
520.76	2996.18
520.96	3379.15
521.16	3631.05
521.35	3393.48
521.55	3221.45
521.75	3461.07
521.95	3350.48
522.15	3086.29
522.35	3114.96
522.55	3252.17
522.75	3602.38
522.95	3033.04
523.14	3024.85
523.34	3346.38
523.54	3311.57
523.74	3362.76
523.94	3207.12
524.14	3149.78
524.34	3508.17
524.54	3323.85
524.73	3200.98
524.93	3565.51
525.13	3397.58
525.33	3092.43
525.53	3418.06
525.73	3680.20
525.93	3432.40
526.13	3139.54
526.32	2959.31
526.52	3643.34
526.72	3633.10
526.92	3139.54
527.12	3071.95
527.32	3213.26
527.52	3477.45
527.71	3147.73
527.91	3188.69
528.11	3348.43
528.31	3448.78
528.51	3139.54
528.71	3368.91
528.90	3573.71
529.10	3717.06
529.30	3215.31
529.50	2963.41
529.70	3532.75
529.90	3274.70
530.09	3168.21
530.29	3018.71
530.49	3280.85
530.69	4100.03
530.89	3340.24
531.09	3321.81
531.28	3424.20
531.48	3686.34
531.68	3200.98
531.88	3190.74
532.08	3635.14
532.28	3373.00
532.47	3291.09
532.67	3194.83
532.87	3518.41
533.07	3196.88
533.27	3147.73
533.46	3231.69
533.66	3487.69
533.86	3395.53
534.06	3256.27
534.26	3174.35
534.45	3370.96
534.65	3604.42
534.85	3254.22
535.05	3094.48
535.25	3622.86
535.44	3127.25
535.64	3237.84
535.84	3211.22
536.04	3338.19
536.24	3336.14
536.43	3100.62
536.63	3131.34
536.83	3405.77
537.03	3426.25
537.22	2926.55
537.42	2965.46
537.62	3549.13
537.82	3286.99
538.02	3393.48
538.21	3221.45
538.41	4069.31
538.61	3516.36
538.81	3160.02
539.00	3233.74
539.20	3086.29
539.40	3356.62
539.60	3067.86
539.79	3397.58
539.99	3442.64
540.19	3196.88
540.39	3018.71
540.58	3233.74
540.78	3723.21
540.98	3516.36
541.18	3512.27
541.37	3280.85
541.57	3434.44
541.77	3581.90
541.97	3205.07
542.16	3094.48
542.36	3305.42
542.56	3420.11
542.76	3309.52
542.95	3221.45
543.15	3524.55
543.35	3590.09
543.54	3121.10
543.74	3110.86
543.94	3747.78
544.14	3323.85
544.33	3268.56
544.53	3155.92
544.73	3403.72
544.93	3377.10
545.12	3098.58
545.32	3172.30
545.52	3430.35
545.71	3213.26
545.91	3143.63
546.11	3078.10
546.30	3196.88
546.50	3491.79
546.70	3213.26
546.90	3237.84
547.09	3074.00
547.29	3411.92
547.49	3286.99
547.68	3106.77
547.88	3313.61
548.08	3629.00
548.27	3444.68
548.47	3139.54
548.67	3440.59
548.87	3508.17
549.06	3131.34
549.26	3035.09
549.46	3485.64
549.65	3254.22
549.85	3174.35
550.05	3209.17
550.24	3127.25
550.44	3395.53
550.64	3196.88
550.83	3266.51
551.03	3788.74
551.23	3672.01
551.42	3172.30
551.62	3264.46
551.82	3487.69
552.01	3442.64
552.21	3534.79
552.41	3246.03
552.60	3739.59
552.80	3459.02
553.00	3192.78
553.19	3106.77
553.39	3764.17
553.59	3256.27
553.78	3342.28
553.98	3061.71
554.17	3231.69
554.37	3524.55
554.57	3278.80
554.76	3119.06
554.96	3315.66
555.16	3403.72
555.35	3231.69
555.55	3434.44
555.75	3436.49
555.94	3518.41
556.14	2969.55
556.33	3289.04
556.53	3381.20
556.73	3426.25
556.92	3157.97
557.12	3090.38
557.32	3979.20
557.51	3719.11
557.71	3192.78
557.90	3411.92
558.10	3751.88
558.30	3332.05
558.49	3254.22
558.69	3164.11
558.88	3557.32
559.08	3469.26
559.28	3135.44
559.47	3221.45
559.67	3641.29
559.86	3895.24
560.06	3164.11
560.26	3133.39
560.45	3557.32
560.65	3403.72
560.84	3491.79
561.04	3076.05
561.24	3585.99
561.43	3117.01
561.63	3405.77
561.82	3274.70
562.02	3655.62
562.22	3270.61
562.41	3096.53
562.61	3133.39
562.80	3303.37
563.00	3944.39
563.19	3237.84
563.39	3254.22
563.59	3594.19
563.78	3194.83
563.98	3004.37
564.17	3221.45
564.37	3074.00
564.56	3364.81
564.76	3117.01
564.96	3211.22
565.15	3532.75
565.35	3942.34
565.54	3305.42
565.74	3137.49
565.93	3532.75
566.13	3510.22
566.32	3278.80
566.52	3293.13
566.71	3409.87
566.91	3592.14
567.11	3237.84
567.30	3108.82
567.50	3549.13
567.69	3508.17
567.89	3106.77
568.08	3016.66
568.28	3477.45
568.47	3205.07
568.67	3188.69
568.86	3129.30
569.06	3649.48
569.25	3362.76
569.45	3024.85
569.64	3225.55
569.84	3370.96
570.04	3446.73
570.23	3215.31
570.43	3280.85
570.62	3424.20
570.82	3850.18
571.01	3074.00
571.21	3078.10
571.40	3268.56
571.60	3612.62
571.79	3258.32
571.99	3176.40
572.18	3229.65
572.38	3504.07
572.57	3223.50
572.77	3231.69
572.96	3973.06
573.16	3442.64
573.35	3188.69
573.55	3360.72
573.74	3364.81
573.94	3399.63
574.13	3213.26
574.33	3405.77
574.52	3659.72
574.71	3491.79
574.91	3252.17
575.10	3147.73
575.30	3358.67
575.49	3190.74
575.69	3139.54
575.88	3102.67
576.08	3436.49
576.27	3653.58
576.47	3121.10
576.66	3327.95
576.86	3737.54
577.05	3430.35
577.25	3213.26
577.44	3317.71
577.64	3389.39
577.83	3618.76
578.02	3078.10
578.22	3321.81
578.41	3729.35
578.61	3354.57
578.80	3024.85
579.00	3182.54
579.19	3385.29
579.39	3518.41
579.58	3207.12
579.77	3248.08
579.97	3751.88
580.16	3696.58
580.36	3385.29
580.55	3223.50
580.75	3639.24
580.94	3348.43
581.13	3385.29
581.33	3479.50
581.52	3487.69
581.72	3782.60
581.91	3211.22
582.11	3196.88
582.30	3704.78
582.49	3403.72
582.69	3516.36
582.88	3237.84
583.08	3413.96
583.27	3647.43
583.47	3352.52
583.66	3135.44
583.85	3295.18
584.05	3379.15
584.24	3334.09
584.44	3215.31
584.63	3590.09
584.82	3747.78
585.02	3370.96
585.21	3282.89
585.41	3536.84
585.60	3446.73
585.79	3362.76
585.99	3553.23
586.18	3389.39
586.37	4483.00
586.57	6616.99
586.76	18298.60
586.96	36668.88
587.15	48911.64
587.34	56636.58
587.54	60296.30
587.73	52794.59
587.93	38051.26
588.12	29816.38
588.31	24139.41
588.51	21552.82
588.70	20152.01
588.89	17641.20
589.09	15013.66
589.28	13217.59
589.47	10186.60
589.67	7669.64
589.86	6248.35
590.06	4808.63
590.25	4532.15
590.44	3827.65
590.64	3618.76
590.83	3667.91
591.02	3667.91
591.22	3114.96
591.41	3266.51
591.60	3489.74
591.80	4044.74
591.99	3024.85
592.18	3110.86
592.38	3672.01
592.57	3340.24
592.76	3209.17
592.96	3264.46
593.15	3454.92
593.34	3669.96
593.54	3225.55
593.73	3354.57
593.92	3565.51
594.12	3530.70
594.31	3215.31
594.50	3387.34
594.70	3454.92
594.89	4079.55
595.08	3071.95
595.28	3319.76
595.47	4136.90
595.66	3688.39
595.86	3129.30
596.05	3088.34
596.24	3313.61
596.43	3848.13
596.63	3246.03
596.82	3366.86
597.01	3487.69
597.21	3837.89
597.40	3127.25
597.59	3211.22
597.79	3411.92
597.98	3608.52
598.17	3237.84
598.36	3188.69
598.56	3620.81
598.75	3332.05
598.94	3223.50
599.14	3229.65
599.33	3327.95
599.52	3573.71
599.71	3352.52
599.91	3215.31
600.10	3608.52
600.29	3436.49
600.48	3266.51
600.68	3360.72
600.87	3516.36
601.06	3280.85
601.26	3373.00
601.45	3268.56
601.64	3385.29
601.83	3737.54
602.03	3037.14
602.22	3151.82
602.41	3649.48
602.60	4005.83
602.80	3256.27
602.99	3354.57
603.18	3303.37
603.37	3428.30
603.57	3114.96
603.76	3223.50
603.95	3672.01
604.14	3291.09
604.34	3047.38
604.53	3137.49
604.72	3547.08
604.91	3590.09
605.10	3225.55
605.30	3104.72
605.49	3895.24
605.68	3569.61
605.87	3203.02
606.07	3139.54
606.26	3549.13
606.45	3563.47
606.64	3170.26
606.84	3045.33
607.03	3438.54
607.22	3637.19
607.41	3262.41
607.60	3117.01
607.80	3620.81
607.99	3381.20
608.18	3192.78
608.37	3188.69
608.56	3278.80
608.76	3651.53
608.95	3327.95
609.14	3164.11
609.33	3733.45
609.52	3735.50
609.72	3258.32
609.91	3291.09
610.10	3534.79
610.29	3715.02
610.48	3381.20
610.68	3379.15
610.87	3456.97
611.06	3631.05
611.25	3172.30
611.44	3311.57
611.63	3377.10
611.83	3755.97
612.02	3059.67
612.21	3358.67
612.40	3090.38
612.59	3188.69
612.79	3055.57
612.98	3237.84
613.17	3823.56
613.36	3377.10
613.55	3297.23
613.74	3166.16
613.93	3405.77
614.13	3467.21
614.32	3305.42
614.51	3237.84
614.70	3434.44
614.89	3364.81
615.08	3377.10
615.28	3499.98
615.47	3231.69
615.66	3493.83
615.85	3227.60
616.04	3258.32
616.23	3493.83
616.42	3403.72
616.62	3205.07
616.81	3254.22
617.00	3461.07
617.19	3516.36
617.38	3205.07
617.57	3303.37
617.76	3604.42
617.95	3590.09
618.15	3348.43
618.34	3350.48
618.53	3147.73
618.72	3684.30
618.91	3291.09
619.10	3295.18
619.29	3436.49
619.48	3465.16
619.68	3098.58
619.87	3217.36
620.06	3157.97
620.25	3528.65
620.44	3164.11
620.63	3141.58
620.82	3422.16
621.01	3459.02
621.20	3125.20
621.39	3278.80
621.59	3571.66
621.78	3401.68
621.97	3188.69
622.16	3336.14
622.35	3520.46
622.54	3690.44
622.73	3231.69
622.92	2942.93
623.11	3698.63
623.30	3282.89
623.49	3319.76
623.68	2987.99
623.88	3700.68
624.07	3284.94
624.26	3164.11
624.45	3196.88
624.64	3364.81
624.83	3542.99
625.02	3182.54
625.21	3172.30
625.40	3440.59
625.59	3790.79
625.78	3373.00
625.97	3291.09
626.16	3682.25
626.35	3645.38
626.54	3110.86
626.74	3442.64
626.93	3370.96
627.12	3461.07
627.31	3200.98
627.50	3231.69
627.69	3583.95
627.88	3203.02
628.07	3151.82
628.26	3024.85
628.45	3289.04
628.64	3319.76
628.83	3117.01
629.02	3016.66
629.21	3614.66
629.40	3600.33
629.59	3016.66
629.78	3139.54
629.97	3463.12
630.16	3426.25
630.35	3143.63
630.54	3319.76
630.73	3276.75
630.92	3327.95
631.11	3135.44
631.30	3264.46
631.49	3504.07
631.68	3385.29
631.87	3170.26
632.06	3114.96
632.25	3952.58
632.44	3413.96
632.63	3209.17
632.82	3225.55
633.01	3250.13
633.20	3506.12
633.39	3141.58
633.58	2981.84
633.77	3514.31
633.96	3624.90
634.15	3336.14
634.34	3278.80
634.53	3518.41
634.72	3370.96
634.91	3092.43
635.10	3061.71
635.29	3538.89
635.48	3499.98
635.67	3043.28
635.86	3043.28
636.05	3731.40
636.24	3461.07
636.43	3178.45
636.62	3299.28
636.81	2975.70
637.00	3430.35
637.19	3090.38
637.38	3180.50
637.57	3366.86
637.76	3459.02
637.95	3354.57
638.14	3286.99
638.33	3424.20
638.52	3444.68
638.71	3057.62
638.89	3114.96
639.08	4059.07
639.27	3792.84
639.46	3407.82
639.65	3600.33
639.84	3882.95
640.03	3995.59
640.22	3620.81
640.41	3534.79
640.60	3461.07
640.79	3481.55
640.98	3430.35
641.17	3340.24
641.36	3540.94
641.55	3645.38
641.74	3061.71
641.92	3088.34
642.11	3270.61
642.30	3444.68
642.49	3088.34
642.68	3233.74
642.87	3557.32
643.06	3643.34
643.25	3047.38
643.44	3139.54
643.63	3362.76
643.82	3594.19
644.00	3117.01
644.19	3151.82
644.38	3262.41
644.57	3604.42
644.76	3155.92
644.95	3260.37
645.14	3471.31
645.33	3446.73
645.52	3248.08
645.71	3022.80
645.89	3215.31
646.08	3373.00
646.27	3176.40
646.46	3393.48
646.65	3164.11
646.84	3475.40
647.03	3125.20
647.22	3264.46
647.40	3422.16
647.59	3434.44
647.78	2961.36
647.97	3172.30
648.16	3295.18
648.35	3905.48
648.54	3467.21
648.73	3213.26
648.91	3610.57
649.10	3487.69
649.29	3143.63
649.48	3133.39
649.67	3536.84
649.86	3532.75
650.05	3182.54
650.23	3319.76
650.42	3227.60
650.61	3753.93
650.80	3452.88
650.99	3506.12
651.18	3647.43
651.36	3624.90
651.55	3112.91
651.74	3336.14
651.93	3332.05
652.12	3459.02
652.31	3252.17
652.49	3246.03
652.68	3348.43
652.87	3739.59
653.06	3336.14
653.25	3393.48
653.44	3340.24
653.62	3829.70
653.81	3274.70
654.00	3155.92
654.19	3626.95
654.38	3989.44
654.56	3250.13
654.75	3141.58
654.94	3686.34
655.13	3475.40
655.32	3131.34
655.51	3254.22
655.69	3301.33
655.88	3680.20
656.07	3088.34
656.26	3188.69
656.45	3231.69
656.63	3428.30
656.82	3086.29
657.01	3499.98
657.20	3336.14
657.38	3737.54
657.57	3196.88
657.76	3043.28
657.95	3645.38
658.14	3248.08
658.32	3381.20
658.51	3180.50
658.70	3440.59
658.89	3499.98
659.08	3252.17
659.26	3407.82
659.45	3289.04
659.64	3581.90
659.83	3174.35
660.01	3696.58
660.20	3475.40
660.39	3755.97
660.58	2942.93
660.76	3303.37
660.95	3096.53
661.14	3485.64
661.33	3090.38
661.51	3172.30
661.70	3327.95
661.89	3516.36
662.08	3336.14
662.26	3049.43
662.45	3262.41
662.64	3837.89
662.83	3196.88
663.01	3024.85
663.20	3346.38
663.39	3766.21
663.58	3254.22
663.76	3188.69
663.95	3604.42
664.14	3190.74
664.32	3237.84
664.51	3051.47
664.70	3153.87
664.89	3585.99
665.07	3055.57
665.26	3303.37
665.45	3119.06
665.64	3512.27
665.82	3200.98
666.01	3295.18
666.20	3127.25
666.38	3559.37
666.57	3512.27
666.76	5744.55
666.95	12494.66
667.13	18519.78
667.32	22140.59
667.51	24708.74
667.69	25104.00
667.88	20776.64
668.07	15378.20
668.25	12986.17
668.44	11818.83
668.63	9963.37
668.81	8910.71
669.00	7589.77
669.19	7010.20
669.38	6358.94
669.56	5384.11
669.75	4630.46
669.94	4366.27
670.12	3880.90
670.31	3442.64
670.50	3514.31
670.68	3635.14
670.87	3479.50
671.06	3106.77
671.24	3254.22
671.43	3780.55
671.62	3446.73
671.80	3215.31
671.99	3256.27
672.18	3473.36
672.36	3651.53
672.55	3364.81
672.74	3258.32
672.92	3260.37
673.11	3573.71
673.29	3033.04
673.48	3319.76
673.67	3299.28
673.85	3680.20
674.04	3110.86
674.23	3272.65
674.41	3880.90
674.60	3186.64
674.79	3039.19
674.97	3039.19
675.16	3680.20
675.34	3641.29
675.53	3231.69
675.72	3289.04
675.90	3811.27
676.09	3327.95
676.28	3264.46
676.46	3010.51
676.65	3622.86
676.83	3250.13
677.02	3223.50
677.21	3336.14
677.39	3557.32
677.58	3297.23
677.77	3207.12
677.95	3094.48
678.14	3350.48
678.32	3393.48
678.51	3268.56
678.70	3510.22
678.88	3340.24
679.07	3502.03
679.25	3200.98
679.44	3141.58
679.63	3180.50
679.81	3467.21
680.00	3516.36
680.18	3272.65
680.37	3798.98
680.55	3471.31
680.74	3045.33
680.93	2992.08
681.11	3553.23
681.30	3430.35
681.48	3141.58
681.67	3178.45
681.85	3440.59
682.04	3237.84
682.23	3385.29
682.41	3401.68
682.60	3393.48
682.78	3448.78
682.97	3139.54
683.15	3295.18
683.34	3479.50
683.53	3766.21
683.71	3121.10
683.90	3209.17
684.08	3848.13
684.27	3416.01
684.45	3235.79
684.64	3407.82
684.82	3432.40
685.01	3581.90
685.19	3196.88
685.38	3487.69
685.57	3446.73
685.75	3286.99
685.94	3084.24
686.12	3108.82
686.31	3364.81
686.49	3780.55
686.68	2985.94
686.86	3198.93
687.05	3377.10
687.23	3731.40
687.42	3223.50
687.60	3041.23
687.79	3606.47
687.97	3678.15
688.16	3315.66
688.34	3368.91
688.53	3108.82
688.71	3510.22
688.90	3555.27
689.08	3250.13
689.27	3094.48
689.45	3635.14
689.64	3299.28
689.82	3252.17
690.01	3438.54
690.19	3526.60
690.38	3229.65
690.56	3286.99
690.75	3225.55
690.93	3299.28
691.12	3164.11
691.30	3262.41
691.49	3286.99
691.67	3399.63
691.86	3532.75
692.04	3170.26
692.23	3379.15
692.41	3428.30
692.60	3504.07
692.78	3358.67
692.97	3452.88
693.15	3624.90
693.34	3405.77
693.52	3401.68
693.71	3332.05
693.89	3280.85
694.08	3018.71
694.26	3213.26
694.44	3567.56
694.63	3581.90
694.81	3106.77
695.00	3237.84
695.18	3753.93
695.37	3981.25
695.55	3360.72
695.74	3231.69
695.92	3166.16
696.10	3741.64
696.29	3082.19
696.47	3160.02
696.66	3147.73
696.84	3258.32
697.03	3289.04
697.21	3452.88
697.40	4708.28
697.58	3641.29
697.76	3157.97
697.95	3219.41
698.13	3117.01
698.32	3373.00
698.50	3147.73
698.68	3211.22
698.87	3489.74
699.05	3782.60
699.24	3229.65
699.42	3233.74
699.61	3631.05
699.79	3446.73
699.97	3286.99
700.16	3045.33
700.34	3184.59
700.53	3491.79
700.71	3444.68
700.89	3401.68
701.08	3336.14
701.26	3430.35
701.45	3577.80
701.63	3221.45
701.81	3301.33
702.00	3340.24
702.18	3123.15
702.37	3157.97
702.55	3680.20
702.73	3514.31
702.92	3108.82
703.10	3512.27
703.28	3590.09
703.47	3217.36
703.65	3377.10
703.84	3332.05
704.02	3346.38
704.20	3749.83
704.39	3192.78
704.57	3155.92
704.75	3540.94
704.94	3540.94
705.12	3373.00
705.30	3964.87
705.49	8046.47
705.67	14352.16
705.86	19097.31
706.04	21431.99
706.22	23688.85
706.41	22378.15
706.59	16467.72
706.77	13471.54
706.96	11476.82
707.14	10843.99
707.32	9244.53
707.51	8206.21
707.69	6870.94
707.87	5771.18
708.06	4829.11
708.24	4239.30
708.42	4069.31
708.61	4292.54
708.79	3327.95
708.97	3311.57
709.16	3491.79
709.34	3514.31
709.52	3270.61
709.71	3323.85
709.89	3551.18
710.07	3188.69
710.26	3067.86
710.44	3256.27
710.62	3581.90
710.80	3454.92
710.99	3346.38
711.17	3278.80
711.35	3276.75
711.54	3198.93
711.72	3418.06
711.90	3239.89
712.09	3487.69
712.27	3266.51
712.45	3311.57
712.63	3258.32
712.82	3463.12
713.00	3461.07
713.18	3295.18
713.37	3416.01
713.55	3665.86
713.73	3637.19
713.91	3286.99
714.10	3241.93
714.28	3418.06
714.46	3510.22
714.65	3379.15
714.83	3235.79
715.01	3467.21
715.19	3397.58
715.38	3266.51
715.56	3393.48
715.74	3307.47
715.92	3215.31
716.11	3690.44
716.29	3035.09
716.47	3446.73
716.65	3346.38
716.84	3002.32
717.02	3250.13
717.20	3041.23
717.38	3221.45
717.57	3301.33
717.75	3235.79
717.93	3330.00
718.11	3528.65
718.30	3104.72
718.48	3264.46
718.66	3643.34
718.84	3682.25
719.03	3192.78
719.21	3057.62
719.39	3790.79
719.57	3641.29
719.75	3246.03
719.94	3168.21
720.12	3403.72
720.30	3499.98
720.48	3319.76
720.67	3190.74
720.85	3219.41
721.03	3317.71
721.21	3217.36
721.39	3291.09
721.58	3606.47
721.76	3483.59
721.94	3186.64
722.12	3274.70
722.30	3784.65
722.49	3270.61
722.67	3151.82
722.85	3225.55
723.03	3098.58
723.21	3336.14
723.40	3213.26
723.58	3307.47
723.76	3528.65
723.94	3653.58
724.12	3235.79
724.30	3530.70
724.49	3669.96
724.67	3182.54
724.85	3270.61
725.03	3127.25
725.21	3545.03
725.40	3682.25
725.58	3229.65
725.76	3485.64
725.94	3602.38
726.12	3229.65
726.30	3258.32
726.49	3164.11
726.67	3317.71
726.85	3618.76
727.03	3960.77
727.21	4851.64
727.39	6031.27
727.57	6426.53
727.76	6743.96
727.94	6653.85
728.12	5742.50
728.30	5035.96
728.48	4837.30
728.66	4515.77
728.84	4270.01
729.03	3934.15
729.21	3680.20
729.39	3499.98
729.57	3459.02
729.75	3542.99
729.93	3516.36
730.11	3117.01
730.30	3246.03
730.48	3424.20
730.66	3225.55
730.84	3289.04
731.02	3467.21
731.20	3379.15
731.38	3323.85
731.56	3082.19
731.74	3225.55
731.93	3549.13
732.11	3323.85
732.29	3196.88
732.47	3577.80
732.65	3520.46
732.83	3395.53
733.01	3336.14
733.19	3395.53
733.37	3516.36
733.56	3270.61
733.74	3123.15
733.92	3657.67
734.10	3330.00
734.28	3438.54
734.46	2928.60
734.64	3338.19
734.82	3420.11
735.00	3198.93
735.18	3170.26
735.36	3338.19
735.54	3409.87
735.73	3094.48
735.91	3338.19
736.09	3672.01
736.27	3348.43
736.45	3270.61
736.63	3002.32
736.81	3393.48
736.99	3669.96
737.17	3356.62
737.35	3139.54
737.53	3526.60
737.71	3424.20
737.89	3401.68
738.07	3164.11
738.25	3319.76
738.43	3098.58
738.61	3211.22
738.80	3028.95
738.98	3217.36
739.16	3319.76
739.34	3186.64
739.52	3516.36
739.70	3393.48
739.88	3581.90
740.06	3297.23
740.24	3018.71
740.42	3637.19
740.60	3100.62
740.78	3172.30
740.96	2963.41
741.14	3315.66
741.32	3450.83
741.50	3078.10
741.68	3463.12
741.86	3667.91
742.04	3215.31
742.22	3082.19
742.40	3237.84
742.58	3569.61
742.76	3266.51
742.94	3411.92
743.12	2985.94
743.30	3430.35
743.48	3561.42
743.66	3114.96
743.84	3231.69
744.02	3424.20
744.20	3352.52
744.38	3057.62
744.56	3207.12
744.74	3876.80
744.92	3610.57
745.10	3485.64
745.28	3139.54
745.46	3768.26
745.64	3397.58
745.82	3266.51
746.00	3160.02
746.18	3538.89
746.36	3311.57
746.54	3235.79
746.72	3264.46
746.90	3233.74
747.08	3733.45
747.26	3217.36
747.44	3276.75
747.62	3557.32
747.80	3475.40
747.98	3284.94
748.15	3211.22
748.33	3745.73
748.51	3520.46
748.69	3319.76
748.87	3055.57
749.05	3373.00
749.23	3381.20
749.41	3104.72
749.59	3112.91
749.77	3649.48
749.95	3368.91
750.13	3176.40
750.31	3317.71
750.49	3416.01
750.67	3672.01
750.85	3336.14
751.03	3170.26
751.20	3893.19
751.38	3432.40
751.56	3317.71
751.74	3246.03
751.92	3399.63
752.10	3166.16
752.28	3370.96
752.46	3155.92
752.64	3325.90
752.82	3397.58
753.00	3243.98
753.18	3147.73
753.35	3387.34
753.53	3448.78
753.71	3090.38
753.89	3305.42
754.07	3436.49
754.25	3565.51
754.43	3323.85
754.61	3241.93
754.79	3538.89
754.97	3319.76
755.14	3366.86
755.32	3094.48
755.50	3440.59
755.68	3454.92
755.86	3160.02
756.04	3207.12
756.22	3047.38
756.40	3530.70
756.57	3481.55
756.75	3200.98
756.93	3737.54
757.11	3655.62
757.29	3094.48
757.47	3213.26
757.65	2985.94
757.82	2985.94
758.00	3069.91
758.18	3155.92
758.36	3254.22
758.54	3860.42
758.72	3041.23
758.90	3377.10
759.07	3561.42
759.25	3284.94
759.43	3297.23
759.61	3028.95
759.79	4548.54
759.97	3600.33
760.15	3233.74
760.32	3235.79
760.50	3489.74
760.68	3860.42
760.86	3065.81
761.04	3387.34
761.22	3620.81
761.39	3479.50
761.57	3338.19
761.75	3108.82
761.93	3649.48
762.11	3448.78
762.28	3282.89
762.46	3182.54
762.64	3616.71
762.82	3106.77
763.00	3153.87
763.18	3428.30
763.35	3131.34
763.53	3657.67
763.71	3315.66
763.89	3153.87
764.07	3536.84
764.24	3352.52
764.42	3307.47
764.60	3223.50
764.78	3526.60
764.96	3647.43
765.13	3334.09
765.31	3098.58
765.49	3577.80
765.67	3223.50
765.84	3153.87
766.02	3127.25
766.20	3209.17
766.38	3518.41
766.56	3303.37
766.73	3303.37
766.91	3438.54
767.09	3448.78
767.27	3286.99
767.44	3080.14
767.62	3477.45
767.80	3428.30
767.98	3121.10
768.15	3246.03
768.33	3604.42
768.51	3585.99
768.69	3350.48
768.87	3258.32
769.04	3450.83
769.22	4149.18
769.40	3381.20
769.58	3354.57
769.75	3592.14
769.93	3727.30
770.11	3246.03
770.28	3127.25
770.46	3565.51
770.64	3499.98
770.82	3203.02
770.99	3078.10
771.17	3700.68
771.35	3358.67
771.53	3299.28
771.70	3155.92
771.88	3536.84
772.06	3424.20
772.23	3141.58
772.41	3221.45
772.59	3504.07
772.77	3213.26
772.94	3248.08
773.12	3284.94
773.30	3370.96
773.47	3495.88
773.65	3035.09
773.83	3315.66
774.01	3327.95
774.18	3026.90
774.36	3155.92
774.54	3098.58
774.71	3559.37
774.89	3067.86
775.07	3024.85
775.24	3229.65
775.42	3354.57
775.60	3850.18
775.78	3114.96
775.95	3008.47
776.13	3028.95
776.31	3033.04
776.48	3395.53
776.66	3330.00
776.84	3338.19
777.01	3260.37
777.19	3035.09
777.37	3190.74
777.54	3622.86
777.72	3936.20
777.90	3313.61
778.07	3141.58
778.25	4067.27
778.43	3696.58
778.60	3094.48
778.78	3354.57
778.96	3665.86
779.13	3176.40
779.31	3186.64
779.49	3254.22
779.66	3416.01
779.84	3352.52
780.01	3114.96
780.19	3053.52
780.37	3743.69
780.54	3610.57
780.72	3045.33
780.90	3198.93
781.07	3426.25
781.25	3297.23
781.43	3385.29
781.60	3200.98
781.78	3680.20
781.95	3467.21
782.13	3198.93
782.31	3176.40
782.48	3059.67
782.66	3438.54
782.83	3399.63
783.01	3252.17
783.19	3622.86
783.36	3418.06
783.54	3133.39
783.72	3297.23
783.89	3311.57
784.07	3516.36
784.24	3311.57
784.42	3385.29
784.60	3510.22
784.77	3545.03
784.95	2906.07
785.12	3100.62
785.30	3475.40
785.47	3252.17
785.65	3033.04
785.83	3272.65
786.00	3358.67
786.18	3397.58
786.35	3096.53
786.53	3121.10
786.71	3674.06
786.88	3561.42
787.06	3243.98
787.23	3229.65
787.41	3246.03
787.58	3393.48
787.76	3164.11
787.94	3149.78
788.11	3493.83
788.29	3286.99
788.46	3297.23
788.64	2963.41
788.81	3350.48
788.99	3233.74
789.16	3157.97
789.34	3180.50
789.52	3258.32
789.69	3319.76
789.87	2987.99
790.04	3131.34
790.22	3422.16
790.39	3891.14
790.57	3127.25
790.74	3098.58
790.92	3700.68
791.09	3119.06
791.27	3321.81
791.44	3327.95
791.62	3311.57
791.79	3598.28
791.97	3309.52
792.15	3567.56
792.32	3590.09
792.50	3526.60
792.67	3409.87
792.85	3495.88
793.02	3506.12
793.20	3297.23
793.37	3098.58
793.55	3141.58
793.72	3168.21
793.90	3575.75
794.07	3123.15
794.25	3139.54
794.42	3495.88
794.60	3375.05
794.77	3319.76
794.95	3315.66
795.12	3594.19
795.30	3362.76
795.47	3004.37
795.65	3534.79
795.82	3510.22
796.00	3286.99
796.17	3291.09
796.34	3121.10
796.52	3473.36
796.69	3639.24
796.87	3299.28
797.04	3370.96
797.22	3659.72
797.39	3495.88
797.57	3377.10
797.74	3356.62
797.92	3446.73
798.09	3270.61
798.27	3526.60
798.44	3092.43
798.62	3282.89
798.79	3506.12
798.96	3354.57
799.14	3239.89
799.31	4040.64
799.49	3360.72
799.66	3174.35
799.84	3178.45
800.01	3078.10
800.19	3467.21
800.36	2983.89
800.53	3256.27
800.71	3489.74
800.88	3827.65
801.06	3137.49
801.23	3114.96
801.41	3413.96
801.58	3282.89
801.75	3182.54
801.93	3241.93
802.10	3651.53
802.28	3305.42
802.45	3184.59
802.63	3256.27
802.80	3739.59
802.97	3334.09
803.15	3254.22
803.32	3102.67
803.50	3217.36
803.67	3301.33
803.84	3225.55
804.02	3291.09
804.19	3356.62
804.37	3057.62
804.54	3022.80
804.71	3155.92
804.89	3463.12
805.06	3295.18
805.24	3182.54
805.41	2987.99
805.58	3280.85
805.76	3973.06
805.93	3139.54
806.10	3270.61
806.28	3577.80
806.45	3499.98
806.63	3303.37
806.80	3264.46
806.97	3442.64
807.15	3450.83
807.32	3268.56
807.49	3178.45
807.67	3221.45
807.84	3499.98
808.01	2947.03
808.19	3403.72
808.36	3952.58
808.54	3352.52
808.71	3149.78
808.88	3162.06
809.06	3710.92
809.23	3784.65
809.40	3227.60
809.58	3184.59
809.75	3430.35
809.92	3164.11
810.10	3426.25
810.27	3217.36
810.44	3532.75
810.62	3575.75
810.79	3332.05
810.96	3250.13
811.14	3352.52
811.31	3493.83
811.48	3368.91
811.66	3248.08
811.83	3633.10
812.00	3553.23
812.18	3246.03
812.35	3471.31
812.52	3381.20
812.69	3323.85
812.87	3233.74
813.04	3143.63
813.21	3401.68
813.39	3274.70
813.56	3129.30
813.73	3450.83
813.91	3078.10
814.08	3434.44
814.25	3164.11
814.42	3094.48
814.60	3377.10
814.77	3473.36
814.94	3119.06
815.12	3221.45
815.29	3768.26
815.46	3286.99
815.63	3127.25
815.81	3160.02
815.98	3338.19
816.15	3383.24
816.33	3360.72
816.50	3231.69
816.67	3446.73
816.84	3422.16
817.02	3088.34
817.19	3217.36
817.36	3397.58
817.53	3565.51
817.71	3133.39
817.88	3176.40
818.05	3354.57
818.22	3346.38
818.40	3401.68
818.57	3155.92
818.74	3526.60
818.91	3450.83
819.09	3418.06
819.26	3291.09
819.43	3297.23
819.60	3305.42
819.78	3418.06
819.95	3282.89
820.12	3282.89
820.29	3700.68
820.47	3459.02
820.64	3108.82
820.81	3217.36
820.98	3276.75
821.15	3205.07
821.33	3360.72
821.50	3100.62
821.67	3598.28
821.84	3078.10
822.02	3172.30
822.19	3684.30
822.36	3258.32
822.53	3076.05
822.70	3100.62
822.88	3360.72
823.05	3706.82
823.22	3297.23
823.39	3254.22
823.56	3454.92
823.74	3852.23
823.91	3018.71
824.08	3141.58
824.25	3141.58
824.42	3753.93
824.60	3131.34
824.77	3303.37
824.94	3430.35
825.11	3485.64
825.28	3006.42
825.45	3307.47
825.63	3397.58
825.80	3178.45
825.97	3291.09
826.14	3264.46
826.31	3018.71
826.48	3565.51
826.66	3117.01
826.83	3090.38
827.00	3346.38
827.17	3246.03
827.34	3248.08
827.51	3129.30
827.69	3483.59
827.86	3131.34
828.03	3252.17
828.20	3286.99
828.37	3340.24
828.54	3499.98
828.71	3149.78
828.89	3282.89
829.06	3442.64
829.23	3778.50
829.40	3147.73
829.57	3168.21
829.74	3639.24
829.91	3323.85
830.09	3106.77
830.26	3387.34
830.43	3721.16
830.60	3401.68
830.77	3346.38
830.94	3432.40
831.11	3616.71
831.28	3338.19
831.46	3256.27
831.63	3155.92
831.80	3737.54
831.97	3264.46
832.14	3227.60
832.31	3172.30
832.48	3379.15
832.65	3583.95
832.82	3385.29
832.99	3260.37
833.17	3188.69
833.34	3706.82
833.51	3074.00
833.68	2967.51
833.85	3612.62
834.02	3215.31
834.19	3178.45
834.36	3160.02
834.53	3438.54
834.70	3696.58
834.87	3139.54
835.04	2910.16
835.22	3262.41
835.39	3405.77
835.56	3012.56
835.73	2996.18
835.90	3721.16
836.07	3262.41
836.24	3143.63
836.41	2979.79
836.58	3215.31
836.75	3659.72
836.92	2994.13
837.09	2985.94
837.26	3557.32
837.43	3424.20
837.60	3018.71
837.77	3002.32
837.94	3669.96
838.12	3657.67
838.29	2932.69
838.46	2850.77
838.63	3209.17
838.80	3747.78
838.97	3106.77
839.14	3018.71
839.31	3459.02
839.48	3559.37
839.65	2895.83
839.82	3112.91
839.99	3440.59
840.16	3475.40
840.33	2975.70
840.50	3030.99
840.67	3225.55
840.84	3006.42
841.01	2979.79
841.18	2967.51
841.35	3459.02
841.52	3549.13
841.69	3379.15
841.86	2959.31
842.03	3454.92
842.20	3561.42
842.37	2940.88
842.54	3082.19
842.71	3465.16
842.88	3104.72
843.05	3096.53
843.22	2961.36
843.39	3583.95
843.56	3276.75
843.73	2979.79
843.90	3071.95
844.07	3434.44
844.24	3536.84
844.41	3125.20
844.58	3045.33
844.75	3360.72
844.92	3465.16
845.09	3110.86
845.26	2953.17
845.43	3600.33
845.60	3346.38
845.77	3190.74
845.94	3108.82
846.10	3657.67
846.27	3129.30
846.44	2881.49
846.61	2916.31
846.78	3569.61
846.95	3616.71
847.12	2969.55
847.29	3049.43
847.46	3241.93
847.63	3559.37
847.80	2938.84
847.97	2992.08
848.14	3899.33
848.31	3375.05
848.48	2820.05
848.65	2955.22
848.82	3248.08
848.98	3950.53
849.15	3114.96
849.32	3090.38
849.49	3729.35
849.66	3348.43
849.83	2981.84
850.00	3014.61
850.17	3688.39
850.34	3286.99
850.51	3012.56
850.68	3012.56
850.85	3921.86
851.01	3428.30
851.18	2979.79
851.35	3123.15
851.52	3512.27
851.69	3725.26
851.86	2959.31
852.03	2967.51
852.20	3639.24
852.37	3418.06
852.53	2953.17
852.70	2889.68
852.87	3536.84
853.04	3502.03
853.21	3002.32
853.38	3370.96
853.55	3774.41
853.72	3651.53
853.89	2914.26
854.05	3022.80
854.22	3393.48
854.39	3377.10
854.56	2959.31
854.73	3139.54
854.90	3258.32
855.07	3352.52
855.23	2936.79
855.40	2934.74
855.57	3356.62
855.74	2985.94
855.91	3223.50
856.08	2822.10
856.25	3184.59
856.41	3346.38
856.58	2947.03
856.75	3057.62
856.92	3190.74
857.09	3606.47
857.26	2861.01
857.42	3121.10
857.59	3573.71
857.76	3346.38
857.93	2944.98
858.10	3119.06
858.27	3246.03
858.43	3536.84
858.60	3006.42
858.77	2936.79
858.94	3354.57
859.11	3676.10
859.27	3129.30
859.44	2975.70
859.61	3893.19
859.78	3594.19
859.95	2973.65
860.12	2836.44
860.28	3958.72
860.45	3876.80
860.62	2977.75
860.79	3151.82
860.95	3405.77
861.12	3239.89
861.29	2871.25
861.46	3026.90
861.63	3413.96
861.79	3473.36
861.96	2920.40
862.13	3078.10
862.30	3749.83
862.47	3368.91
862.63	2922.45
862.80	3041.23
862.97	3753.93
863.14	3499.98
863.30	3092.43
863.47	2992.08
863.64	3661.77
863.81	3426.25
863.97	3002.32
864.14	3004.37
864.31	3379.15
864.48	3481.55
864.65	2975.70
864.81	3090.38
864.98	3569.61
865.15	3555.27
865.32	3117.01
865.48	3155.92
865.65	3704.78
865.82	3315.66
865.98	3168.21
866.15	3164.11
866.32	3344.33
866.49	3321.81
866.65	3180.50
866.82	3059.67
866.99	3418.06
867.16	3368.91
867.32	3051.47
867.49	2906.07
867.66	3381.20
867.83	3323.85
867.99	2863.06
868.16	3069.91
868.33	3221.45
868.49	3366.86
868.66	2977.75
868.83	3102.67
868.99	3491.79
869.16	3542.99
869.33	3190.74
869.50	3098.58
869.66	3463.12
869.83	3358.67
870.00	2975.70
870.16	3129.30
870.33	3403.72
870.50	3522.51
870.66	3139.54
870.83	3076.05
871.00	3471.31
871.17	3489.74
871.33	3074.00
871.50	2987.99
871.67	3352.52
871.83	3360.72
872.00	3139.54
872.17	3016.66
872.33	3751.88
872.50	3715.02
872.67	3020.75
872.83	3000.27
873.00	3549.13
873.17	3465.16
873.33	3117.01
873.50	3080.14
873.67	3274.70
873.83	3327.95
874.00	3041.23
874.16	3215.31
874.33	3522.51
874.50	3141.58
874.66	2922.45
874.83	3084.24
875.00	3682.25
875.16	3729.35
875.33	3137.49
875.50	2762.71
875.66	3295.18
875.83	3536.84
875.99	3082.19
876.16	3205.07
876.33	3229.65
876.49	3301.33
876.66	3166.16
876.83	3028.95
876.99	3196.88
877.16	3479.50
877.32	2981.84
877.49	3125.20
877.66	3436.49
877.82	3723.21
877.99	3061.71
878.15	3280.85
878.32	3475.40
878.49	3538.89
878.65	3239.89
878.82	3342.28
878.98	3264.46
879.15	3559.37
879.32	3164.11
879.48	3260.37
879.65	3385.29
879.81	3319.76
879.98	3026.90
880.15	3106.77
880.31	3715.02
880.48	3291.09
880.64	3221.45
880.81	3209.17
880.97	3774.41
881.14	3635.14
881.31	3061.71
881.47	3102.67
881.64	3334.09
881.80	3043.28
881.97	3203.02
882.13	3106.77
882.30	3219.41
882.47	3225.55
882.63	2955.22
882.80	3051.47
882.96	3334.09
883.13	3723.21
883.29	3016.66
883.46	2951.12
883.62	3958.72
883.79	3373.00
883.95	3198.93
884.12	2985.94
884.29	3626.95
884.45	3407.82
884.62	3037.14
884.78	2983.89
884.95	3858.37
885.11	3176.40
885.28	3104.72
885.44	3018.71
885.61	3522.51
885.77	3753.93
885.94	3205.07
886.10	3008.47
886.27	3499.98
886.43	3846.09
886.60	3203.02
886.76	2992.08
886.93	3266.51
887.09	3450.83
887.26	2910.16
887.42	3082.19
887.59	3655.62
887.75	3889.09
887.92	3256.27
888.08	3172.30
888.25	3901.38
888.41	3618.76
888.58	3106.77
888.74	2981.84
888.91	3282.89
>>>>>End Processed Spectral Data<<<<<
