SpectraSuite Data File
++++++++++++++++++++++++++++++++++++
Date: Fri May 06 09:29:17 CEST 2016
User: root
Dark Spectrum Present: No
Reference Spectrum Present: No
Number of Sampled Component Spectra: 1
Spectrometers: USB4C02835
Integration Time (usec): 100000 (USB4C02835)
Spectra Averaged: 1 (USB4C02835)
Boxcar Smoothing: 0 (USB4C02835)
Correct for Electrical Dark: No (USB4C02835)
Strobe/Lamp Enabled: No (USB4C02835)
Correct for Detector Non-linearity: No (USB4C02835)
Correct for Stray Light: No (USB4C02835)
Number of Pixels in Processed Spectrum: 3648
>>>>>Begin Processed Spectral Data<<<<<
177.47	2322.40
177.69	2322.40
177.91	2322.40
178.13	2373.60
178.36	2289.63
178.58	3219.41
178.80	3282.89
179.02	3155.92
179.24	3332.05
179.46	2891.73
179.68	2867.16
179.90	3434.44
180.13	3461.07
180.35	2795.48
180.57	2869.20
180.79	3590.09
181.01	3436.49
181.23	2959.31
181.45	3117.01
181.67	3557.32
181.90	3674.06
182.12	3051.47
182.34	2738.13
182.56	3622.86
182.78	3526.60
183.00	2828.24
183.22	2924.50
183.44	3069.91
183.66	4153.28
183.89	3182.54
184.11	2963.41
184.33	3635.14
184.55	3721.16
184.77	2979.79
184.99	2885.59
185.21	3370.96
185.43	3971.01
185.65	2942.93
185.87	2953.17
186.10	3905.48
186.32	4026.31
186.54	3121.10
186.76	3092.43
186.98	3704.78
187.20	3418.06
187.42	3020.75
187.64	2938.84
187.86	3526.60
188.08	3786.69
188.30	2797.53
188.52	2981.84
188.75	3792.84
188.97	3774.41
189.19	2893.78
189.41	2904.02
189.63	3549.13
189.85	3366.86
190.07	2779.09
190.29	2820.05
190.51	3549.13
190.73	3184.59
190.95	3188.69
191.17	2992.08
191.39	3147.73
191.61	3370.96
191.84	2947.03
192.06	3106.77
192.28	3102.67
192.50	4118.47
192.72	3112.91
192.94	3076.05
193.16	3790.79
193.38	3592.14
193.60	2889.68
193.82	3180.50
194.04	3690.44
194.26	3624.90
194.48	2957.27
194.70	2981.84
194.92	3399.63
195.14	3700.68
195.36	3039.19
195.58	3098.58
195.80	3401.68
196.02	3313.61
196.24	2885.59
196.46	3100.62
196.69	3344.33
196.91	4073.41
197.13	2992.08
197.35	3053.52
197.57	3844.04
197.79	3585.99
198.01	3018.71
198.23	2983.89
198.45	3686.34
198.67	3205.07
198.89	2832.34
199.11	3016.66
199.33	3293.13
199.55	3006.42
199.77	2901.97
199.99	3141.58
200.21	3389.39
200.43	3583.95
200.65	2791.38
200.87	2729.94
201.09	3454.92
201.31	3489.74
201.53	2965.46
201.75	3010.51
201.97	3477.45
202.19	3385.29
202.41	3074.00
202.63	3016.66
202.85	3545.03
203.07	3581.90
203.29	3098.58
203.51	2836.44
203.73	3268.56
203.95	4067.27
204.17	2889.68
204.39	3104.72
204.61	3401.68
204.83	3370.96
205.05	3096.53
205.27	2990.03
205.49	3925.96
205.71	3452.88
205.93	2863.06
206.15	2897.88
206.37	3454.92
206.59	3420.11
206.81	2746.33
207.03	2852.82
207.25	3319.76
207.47	3639.24
207.69	3039.19
207.91	3231.69
208.13	3833.80
208.34	3237.84
208.56	2904.02
208.78	2983.89
209.00	3411.92
209.22	3368.91
209.44	3020.75
209.66	2930.64
209.88	3497.93
210.10	3387.34
210.32	3000.27
210.54	3043.28
210.76	3346.38
210.98	3700.68
211.20	2846.68
211.42	3084.24
211.64	3772.36
211.86	3565.51
212.08	3082.19
212.30	2975.70
212.52	3348.43
212.74	3577.80
212.96	3053.52
213.17	3065.81
213.39	3639.24
213.61	3815.37
213.83	2906.07
214.05	2809.81
214.27	3729.35
214.49	3164.11
214.71	2947.03
214.93	3051.47
215.15	3456.97
215.37	3516.36
215.59	2850.77
215.81	3018.71
216.03	3846.09
216.24	3409.87
216.46	2928.60
216.68	3028.95
216.90	3682.25
217.12	3762.12
217.34	2914.26
217.56	3123.15
217.78	3790.79
218.00	3610.57
218.22	3088.34
218.44	3127.25
218.66	3567.56
218.87	3815.37
219.09	3084.24
219.31	2912.21
219.53	3502.03
219.75	3278.80
219.97	3039.19
220.19	3028.95
220.41	3418.06
220.63	3762.12
220.85	3030.99
221.06	3055.57
221.28	3790.79
221.50	3596.23
221.72	3006.42
221.94	2861.01
222.16	3477.45
222.38	3598.28
222.60	2906.07
222.82	3024.85
223.03	3633.10
223.25	3196.88
223.47	2951.12
223.69	3229.65
223.91	3585.99
224.13	3393.48
224.35	2838.48
224.57	3192.78
224.78	3592.14
225.00	3225.55
225.22	3127.25
225.44	2959.31
225.66	3680.20
225.88	3297.23
226.10	3057.62
226.32	2940.88
226.53	3766.21
226.75	3393.48
226.97	3094.48
227.19	2961.36
227.41	3344.33
227.63	3330.00
227.85	2787.29
228.06	3041.23
228.28	3522.51
228.50	3688.39
228.72	2840.53
228.94	2906.07
229.16	3059.67
229.37	3176.40
229.59	2830.29
229.81	3248.08
230.03	3424.20
230.25	3082.19
230.47	2795.48
230.69	2994.13
230.90	3647.43
231.12	3330.00
231.34	3065.81
231.56	3063.76
231.78	3196.88
232.00	3516.36
232.21	3026.90
232.43	3033.04
232.65	3041.23
232.87	3524.55
233.09	2793.43
233.30	2906.07
233.52	3643.34
233.74	3442.64
233.96	2910.16
234.18	3174.35
234.40	3481.55
234.61	4018.11
234.83	2852.82
235.05	2994.13
235.27	4079.55
235.49	3674.06
235.70	2818.00
235.92	3002.32
236.14	3610.57
236.36	3993.54
236.58	2852.82
236.79	3092.43
237.01	3325.90
237.23	3467.21
237.45	3229.65
237.67	2983.89
237.88	3542.99
238.10	3831.75
238.32	2815.96
238.54	2910.16
238.76	3506.12
238.97	3354.57
239.19	2883.54
239.41	3053.52
239.63	3755.97
239.85	3397.58
240.06	3035.09
240.28	2871.25
240.50	3721.16
240.72	3389.39
240.93	2807.77
241.15	3114.96
241.37	3475.40
241.59	3712.97
241.81	3020.75
242.02	3098.58
242.24	3469.26
242.46	3573.71
242.68	2836.44
242.89	2912.21
243.11	3596.23
243.33	3416.01
243.55	2910.16
243.76	2967.51
243.98	3389.39
244.20	3442.64
244.42	2924.50
244.64	2944.98
244.85	3016.66
245.07	3258.32
245.29	2947.03
245.51	3008.47
245.72	3528.65
245.94	3643.34
246.16	2906.07
246.38	3002.32
246.59	3319.76
246.81	3254.22
247.03	2887.64
247.24	2865.11
247.46	3330.00
247.68	3491.79
247.90	2926.55
248.11	3026.90
248.33	3618.76
248.55	3387.34
248.77	2996.18
248.98	3059.67
249.20	3868.61
249.42	3508.17
249.64	2938.84
249.85	2975.70
250.07	3321.81
250.29	3540.94
250.50	3014.61
250.72	2883.54
250.94	3540.94
251.16	3966.92
251.37	2987.99
251.59	3059.67
251.81	3672.01
252.02	3796.93
252.24	2852.82
252.46	3096.53
252.68	3344.33
252.89	3262.41
253.11	2828.24
253.33	3172.30
253.54	3786.69
253.76	3229.65
253.98	2904.02
254.20	2938.84
254.41	3174.35
254.63	3446.73
254.85	2709.46
255.06	3098.58
255.28	3590.09
255.50	3401.68
255.71	2983.89
255.93	2770.90
256.15	3422.16
256.36	3614.66
256.58	2815.96
256.80	2877.40
257.02	3354.57
257.23	3360.72
257.45	2967.51
257.67	3139.54
257.88	3307.47
258.10	3598.28
258.32	3002.32
258.53	3047.38
258.75	3803.08
258.97	3266.51
259.18	2832.34
259.40	2887.64
259.62	3850.18
259.83	3729.35
260.05	2979.79
260.27	3999.68
260.48	3602.38
260.70	3280.85
260.92	2865.11
261.13	3037.14
261.35	3477.45
261.57	3559.37
261.78	2885.59
262.00	2920.40
262.22	3497.93
262.43	3291.09
262.65	2975.70
262.86	2977.75
263.08	3921.86
263.30	3463.12
263.51	2832.34
263.73	2930.64
263.95	3880.90
264.16	3291.09
264.38	2904.02
264.60	2848.72
264.81	3405.77
265.03	3631.05
265.25	3422.16
265.46	2926.55
265.68	3717.06
265.89	3624.90
266.11	2875.35
266.33	2934.74
266.54	3737.54
266.76	3506.12
266.98	3080.14
267.19	3194.83
267.41	3704.78
267.62	3409.87
267.84	2717.65
268.06	3043.28
268.27	3590.09
268.49	3721.16
268.70	3020.75
268.92	2975.70
269.14	3243.98
269.35	3172.30
269.57	3078.10
269.79	3076.05
270.00	3354.57
270.22	3837.89
270.43	2881.49
270.65	2869.20
270.87	3542.99
271.08	3676.10
271.30	3057.62
271.51	2965.46
271.73	3622.86
271.95	3841.99
272.16	2926.55
272.38	3049.43
272.59	3377.10
272.81	3598.28
273.02	2861.01
273.24	3000.27
273.46	3729.35
273.67	3221.45
273.89	2815.96
274.10	2975.70
274.32	3762.12
274.54	3493.83
274.75	3114.96
274.97	3033.04
275.18	3618.76
275.40	3456.97
275.61	3051.47
275.83	3213.26
276.05	3276.75
276.26	3463.12
276.48	3121.10
276.69	3157.97
276.91	3297.23
277.12	3815.37
277.34	3139.54
277.55	3241.93
277.77	3360.72
277.99	3434.44
278.20	3139.54
278.42	2983.89
278.63	3317.71
278.85	3262.41
279.06	3123.15
279.28	3184.59
279.49	3653.58
279.71	3571.66
279.93	3168.21
280.14	3168.21
280.36	3319.76
280.57	3696.58
280.79	3074.00
281.00	3000.27
281.22	3334.09
281.43	3805.13
281.65	2930.64
281.86	3084.24
282.08	3559.37
282.29	3917.76
282.51	3041.23
282.73	3010.51
282.94	3106.77
283.16	3678.15
283.37	3088.34
283.59	3106.77
283.80	3555.27
284.02	3373.00
284.23	3114.96
284.45	3100.62
284.66	3266.51
284.88	3344.33
285.09	3041.23
285.31	3176.40
285.52	3467.21
285.74	3147.73
285.95	3352.52
286.17	3102.67
286.38	3639.24
286.60	3272.65
286.81	3061.71
287.03	3057.62
287.24	3413.96
287.46	3614.66
287.67	3246.03
287.89	3348.43
288.10	3491.79
288.32	3518.41
288.53	3209.17
288.75	3074.00
288.96	3575.75
289.18	3272.65
289.39	3035.09
289.61	3151.82
289.82	3960.77
290.04	3880.90
290.25	2977.75
290.47	3170.26
290.68	3385.29
290.90	3704.78
291.11	2856.92
291.33	3268.56
291.54	3368.91
291.76	3319.76
291.97	3305.42
292.18	3160.02
292.40	3381.20
292.61	3209.17
292.83	3373.00
293.04	3166.16
293.26	3585.99
293.47	3424.20
293.69	3016.66
293.90	2998.23
294.12	3727.30
294.33	3502.03
294.55	3164.11
294.76	3319.76
294.97	3819.46
295.19	3833.80
295.40	3110.86
295.62	3168.21
295.83	3692.49
296.05	3352.52
296.26	3364.81
296.48	3133.39
296.69	3407.82
296.90	3473.36
297.12	3237.84
297.33	3225.55
297.55	3489.74
297.76	3575.75
297.98	3205.07
298.19	3305.42
298.41	3452.88
298.62	3313.61
298.83	3303.37
299.05	3280.85
299.26	3352.52
299.48	3299.28
299.69	3241.93
299.90	3067.86
300.12	3362.76
300.33	3643.34
300.55	3114.96
300.76	3157.97
300.98	3246.03
301.19	3635.14
301.40	3049.43
301.62	3045.33
301.83	3590.09
302.05	3395.53
302.26	3008.47
302.47	3229.65
302.69	3231.69
302.90	3508.17
303.12	2983.89
303.33	3164.11
303.54	3880.90
303.76	3366.86
303.97	3024.85
304.19	3266.51
304.40	3307.47
304.61	3606.47
304.83	3225.55
305.04	3192.78
305.26	3608.52
305.47	3397.58
305.68	3059.67
305.90	2994.13
306.11	3768.26
306.33	3510.22
306.54	2928.60
306.75	3045.33
306.97	3125.20
307.18	3205.07
307.39	3051.47
307.61	3157.97
307.82	3405.77
308.04	3663.82
308.25	2979.79
308.46	3291.09
308.68	3487.69
308.89	3532.75
309.10	3196.88
309.32	3065.81
309.53	3461.07
309.74	3565.51
309.96	3037.14
310.17	3164.11
310.39	3352.52
310.60	3559.37
310.81	3160.02
311.03	2994.13
311.24	3690.44
311.45	3368.91
311.67	3354.57
311.88	3123.15
312.09	3416.01
312.31	3303.37
312.52	2955.22
312.73	2985.94
312.95	3221.45
313.16	3209.17
313.37	3274.70
313.59	3317.71
313.80	3661.77
314.01	3702.73
314.23	3139.54
314.44	3004.37
314.65	3180.50
314.87	3311.57
315.08	3074.00
315.29	3198.93
315.51	3301.33
315.72	3051.47
315.93	3168.21
316.15	3155.92
316.36	3356.62
316.57	3481.55
316.79	3086.29
317.00	3024.85
317.21	3534.79
317.43	3315.66
317.64	3207.12
317.85	3026.90
318.07	3381.20
318.28	3383.24
318.49	3166.16
318.70	3295.18
318.92	3514.31
319.13	3483.59
319.34	3262.41
319.56	3035.09
319.77	3549.13
319.98	3495.88
320.20	3379.15
320.41	3278.80
320.62	3700.68
320.83	3168.21
321.05	3311.57
321.26	3153.87
321.47	3459.02
321.69	3790.79
321.90	3059.67
322.11	3084.24
322.32	3524.55
322.54	3749.83
322.75	3186.64
322.96	4222.91
323.18	3153.87
323.39	3069.91
323.60	2981.84
323.81	3131.34
324.03	3276.75
324.24	3426.25
324.45	3235.79
324.66	3037.14
324.88	3712.97
325.09	3788.74
325.30	3051.47
325.52	3016.66
325.73	3549.13
325.94	3291.09
326.15	3020.75
326.37	2975.70
326.58	3631.05
326.79	3852.23
327.00	3067.86
327.22	2983.89
327.43	3385.29
327.64	3239.89
327.85	3348.43
328.07	3131.34
328.28	3864.52
328.49	3352.52
328.70	3141.58
328.92	3082.19
329.13	3475.40
329.34	3575.75
329.55	3286.99
329.76	3272.65
329.98	3323.85
330.19	3786.69
330.40	3246.03
330.61	3256.27
330.83	3616.71
331.04	3270.61
331.25	3182.54
331.46	3221.45
331.68	3196.88
331.89	3647.43
332.10	3121.10
332.31	2969.55
332.52	3454.92
332.74	3678.15
332.95	2971.60
333.16	3121.10
333.37	3579.85
333.58	3313.61
333.80	3098.58
334.01	2924.50
334.22	3444.68
334.43	3354.57
334.64	3033.04
334.86	3045.33
335.07	3213.26
335.28	3778.50
335.49	3024.85
335.70	3172.30
335.92	3715.02
336.13	3997.64
336.34	3114.96
336.55	3067.86
336.76	3526.60
336.98	2985.94
337.19	3119.06
337.40	3164.11
337.61	4011.97
337.82	3399.63
338.04	3219.41
338.25	2901.97
338.46	3506.12
338.67	3522.51
338.88	3033.04
339.09	2996.18
339.31	3358.67
339.52	3278.80
339.73	3028.95
339.94	3182.54
340.15	3563.47
340.36	3340.24
340.58	3164.11
340.79	2959.31
341.00	3598.28
341.21	3151.82
341.42	3383.24
341.63	3106.77
341.85	3639.24
342.06	3463.12
342.27	3039.19
342.48	3270.61
342.69	3133.39
342.90	3602.38
343.12	3522.51
343.33	3010.51
343.54	3653.58
343.75	3782.60
343.96	3235.79
344.17	2967.51
344.38	3461.07
344.60	3274.70
344.81	3166.16
345.02	3092.43
345.23	3712.97
345.44	4044.74
345.65	3147.73
345.86	3182.54
346.07	3497.93
346.29	3307.47
346.50	3305.42
346.71	3108.82
346.92	3667.91
347.13	3901.38
347.34	3250.13
347.55	3033.04
347.76	3616.71
347.98	3211.22
348.19	3143.63
348.40	3254.22
348.61	3303.37
348.82	3778.50
349.03	3182.54
349.24	3061.71
349.45	3860.42
349.66	3033.04
349.88	3127.25
350.09	2961.36
350.30	3831.75
350.51	3682.25
350.72	3387.34
350.93	3090.38
351.14	3280.85
351.35	3438.54
351.56	3098.58
351.77	3155.92
351.99	3565.51
352.20	3751.88
352.41	3188.69
352.62	2920.40
352.83	3520.46
353.04	3426.25
353.25	3090.38
353.46	3129.30
353.67	3704.78
353.88	2996.18
354.09	3020.75
354.30	3170.26
354.52	3567.56
354.73	3370.96
354.94	3117.01
355.15	3192.78
355.36	3860.42
355.57	3282.89
355.78	3030.99
355.99	3016.66
356.20	3536.84
356.41	3698.63
356.62	3153.87
356.83	3092.43
357.04	3649.48
357.25	3155.92
357.46	3022.80
357.68	2932.69
357.89	3315.66
358.10	3393.48
358.31	3041.23
358.52	3123.15
358.73	3160.02
358.94	3196.88
359.15	3166.16
359.36	3178.45
359.57	3489.74
359.78	3467.21
359.99	3268.56
360.20	2975.70
360.41	3373.00
360.62	3557.32
360.83	3250.13
361.04	3160.02
361.25	3563.47
361.46	3786.69
361.67	3278.80
361.88	3102.67
362.09	3694.54
362.30	3594.19
362.51	3110.86
362.72	3192.78
362.93	3612.62
363.14	3495.88
363.35	3274.70
363.56	3061.71
363.78	3672.01
363.99	3614.66
364.20	3102.67
364.41	3139.54
364.62	3909.57
364.83	3516.36
365.04	3164.11
365.25	3108.82
365.46	3913.67
365.67	3280.85
365.88	3379.15
366.09	3053.52
366.30	3403.72
366.51	3391.44
366.72	3059.67
366.93	3026.90
367.14	3483.59
367.35	3698.63
367.56	3100.62
367.77	3153.87
367.98	3473.36
368.18	3499.98
368.39	3205.07
368.60	3049.43
368.81	3663.82
369.02	3577.80
369.23	3024.85
369.44	2953.17
369.65	3461.07
369.86	3585.99
370.07	3192.78
370.28	3018.71
370.49	3526.60
370.70	3512.27
370.91	3028.95
371.12	2979.79
371.33	3684.30
371.54	3327.95
371.75	3270.61
371.96	2881.49
372.17	3467.21
372.38	3426.25
372.59	3203.02
372.80	3041.23
373.01	3373.00
373.22	3639.24
373.43	3057.62
373.64	2990.03
373.85	3715.02
374.06	3774.41
374.26	3303.37
374.47	3274.70
374.68	3784.65
374.89	3495.88
375.10	3035.09
375.31	3252.17
375.52	3475.40
375.73	3395.53
375.94	2967.51
376.15	3217.36
376.36	3198.93
376.57	3315.66
376.78	3147.73
376.99	3182.54
377.20	3741.64
377.40	3330.00
377.61	3350.48
377.82	3131.34
378.03	3796.93
378.24	3542.99
378.45	3205.07
378.66	3266.51
378.87	3074.00
379.08	3074.00
379.29	3094.48
379.50	3237.84
379.71	3463.12
379.91	3557.32
380.12	3049.43
380.33	3198.93
380.54	3426.25
380.75	3430.35
380.96	3229.65
381.17	3131.34
381.38	3422.16
381.59	3393.48
381.80	3151.82
382.00	3254.22
382.21	3510.22
382.42	3753.93
382.63	3487.69
382.84	3248.08
383.05	3655.62
383.26	3702.73
383.47	3213.26
383.68	3061.71
383.88	3598.28
384.09	3502.03
384.30	3348.43
384.51	3223.50
384.72	3381.20
384.93	3203.02
385.14	3188.69
385.35	3379.15
385.55	3082.19
385.76	3657.67
385.97	3170.26
386.18	2996.18
386.39	3336.14
386.60	3330.00
386.81	3090.38
387.02	2998.23
387.22	3166.16
387.43	3594.19
387.64	3188.69
387.85	3358.67
388.06	3418.06
388.27	4403.13
388.48	7169.94
388.68	10809.18
388.89	13502.26
389.10	14538.53
389.31	14282.53
389.52	11714.38
389.73	10319.71
389.93	9443.18
390.14	8437.63
390.35	7909.26
390.56	7372.69
390.77	6141.86
390.98	4671.42
391.18	4007.87
391.39	3989.44
391.60	3436.49
391.81	3385.29
392.02	3125.20
392.23	3876.80
392.43	3512.27
392.64	3217.36
392.85	3235.79
393.06	3749.83
393.27	3444.68
393.47	3090.38
393.68	3147.73
393.89	3370.96
394.10	3721.16
394.31	3157.97
394.52	3024.85
394.72	3377.10
394.93	3819.46
395.14	2994.13
395.35	3196.88
395.56	3293.13
395.76	3346.38
395.97	3020.75
396.18	3315.66
396.39	3393.48
396.60	4108.23
396.80	3510.22
397.01	3344.33
397.22	3758.02
397.43	3667.91
397.64	3086.29
397.84	3196.88
398.05	3829.70
398.26	3385.29
398.47	3227.60
398.67	3436.49
398.88	3477.45
399.09	3600.33
399.30	3069.91
399.51	3160.02
399.71	3266.51
399.92	3459.02
400.13	3215.31
400.34	3149.78
400.54	3459.02
400.75	3680.20
400.96	3176.40
401.17	3452.88
401.37	3606.47
401.58	3418.06
401.79	3041.23
402.00	3237.84
402.21	3925.96
402.41	3588.04
402.62	3418.06
402.83	3553.23
403.04	3770.31
403.24	4229.06
403.45	3243.98
403.66	3428.30
403.87	3704.78
404.07	3809.22
404.28	3336.14
404.49	3491.79
404.70	3596.23
404.90	3551.18
405.11	3108.82
405.32	3239.89
405.52	3264.46
405.73	3256.27
405.94	3069.91
406.15	3256.27
406.35	3491.79
406.56	3594.19
406.77	3217.36
406.98	3131.34
407.18	3303.37
407.39	3794.89
407.60	3139.54
407.80	3233.74
408.01	3284.94
408.22	3629.00
408.43	3110.86
408.63	3215.31
408.84	3659.72
409.05	3674.06
409.25	3078.10
409.46	3205.07
409.67	3319.76
409.88	3207.12
410.08	3131.34
410.29	3094.48
410.50	3772.36
410.70	3612.62
410.91	3090.38
411.12	3205.07
411.32	3465.16
411.53	3276.75
411.74	3102.67
411.95	3223.50
412.15	3547.08
412.36	3592.14
412.57	3334.09
412.77	3295.18
412.98	3377.10
413.19	3330.00
413.39	3229.65
413.60	3157.97
413.81	3643.34
414.01	3188.69
414.22	3102.67
414.43	3428.30
414.63	3334.09
414.84	3588.04
415.05	3094.48
415.25	3090.38
415.46	3653.58
415.67	3284.94
415.87	3114.96
416.08	3139.54
416.29	3368.91
416.49	3579.85
416.70	3104.72
416.91	3137.49
417.11	3385.29
417.32	3669.96
417.53	3203.02
417.73	3266.51
417.94	3506.12
418.15	3565.51
418.35	3264.46
418.56	3209.17
418.77	3909.57
418.97	3549.13
419.18	3250.13
419.38	2820.05
419.59	3418.06
419.80	3862.47
420.00	3018.71
420.21	3131.34
420.42	3758.02
420.62	3561.42
420.83	3170.26
421.04	3117.01
421.24	3434.44
421.45	3567.56
421.65	3137.49
421.86	3221.45
422.07	3696.58
422.27	3594.19
422.48	3145.68
422.69	3002.32
422.89	3520.46
423.10	3446.73
423.30	3090.38
423.51	3164.11
423.72	3549.13
423.92	3657.67
424.13	3020.75
424.33	3209.17
424.54	3647.43
424.75	3469.26
424.95	3389.39
425.16	3127.25
425.36	3401.68
425.57	3708.87
425.78	3354.57
425.98	3215.31
426.19	3391.44
426.39	3250.13
426.60	3221.45
426.81	3297.23
427.01	3502.03
427.22	3289.04
427.42	2967.51
427.63	3114.96
427.83	3688.39
428.04	3788.74
428.25	3266.51
428.45	3311.57
428.66	3710.92
428.86	3409.87
429.07	3231.69
429.28	3209.17
429.48	3438.54
429.69	3344.33
429.89	3297.23
430.10	3090.38
430.30	3573.71
430.51	3684.30
430.71	3125.20
430.92	3198.93
431.13	3338.19
431.33	3618.76
431.54	3225.55
431.74	3344.33
431.95	3966.92
432.15	3301.33
432.36	3153.87
432.56	3147.73
432.77	3930.05
432.98	3805.13
433.18	3180.50
433.39	3055.57
433.59	3370.96
433.80	3981.25
434.00	3338.19
434.21	3203.02
434.41	3235.79
434.62	3983.30
434.82	2992.08
435.03	3108.82
435.23	3551.18
435.44	3129.30
435.64	3102.67
435.85	3209.17
436.06	3616.71
436.26	3629.00
436.47	3147.73
436.67	3106.77
436.88	3286.99
437.08	3715.02
437.29	3293.13
437.49	3254.22
437.70	3790.79
437.90	3481.55
438.11	3432.40
438.31	3221.45
438.52	3694.54
438.72	3676.10
438.93	3346.38
439.13	3319.76
439.34	3616.71
439.54	3301.33
439.75	3231.69
439.95	3280.85
440.16	3248.08
440.36	3481.55
440.57	3139.54
440.77	3131.34
440.98	3461.07
441.18	3557.32
441.39	3092.43
441.59	3092.43
441.80	3844.04
442.00	3370.96
442.21	3295.18
442.41	3008.47
442.62	3712.97
442.82	3246.03
443.02	3168.21
443.23	3205.07
443.43	3373.00
443.64	3633.10
443.84	3018.71
444.05	3213.26
444.25	3483.59
444.46	3284.94
444.66	3192.78
444.87	3358.67
445.07	3131.34
445.28	3395.53
445.48	3413.96
445.69	3131.34
445.89	4048.83
446.09	3444.68
446.30	3405.77
446.50	3540.94
446.71	5009.33
446.91	6123.43
447.12	6821.78
447.32	7239.57
447.53	7247.76
447.73	6213.54
447.93	5271.47
448.14	5207.98
448.34	5410.73
448.55	4274.11
448.75	4493.24
448.96	4075.46
449.16	4048.83
449.36	3995.59
449.57	3397.58
449.77	3215.31
449.98	3286.99
450.18	3528.65
450.39	3112.91
450.59	3397.58
450.79	3450.83
451.00	3303.37
451.20	3403.72
451.41	3149.78
451.61	3602.38
451.81	3409.87
452.02	3102.67
452.22	3207.12
452.43	3303.37
452.63	3360.72
452.84	3282.89
453.04	3094.48
453.24	3516.36
453.45	3286.99
453.65	3211.22
453.86	3182.54
454.06	3499.98
454.26	3487.69
454.47	3123.15
454.67	3377.10
454.87	3502.03
455.08	3444.68
455.28	3248.08
455.49	3291.09
455.69	3274.70
455.89	3895.24
456.10	3270.61
456.30	3078.10
456.51	3585.99
456.71	3479.50
456.91	3360.72
457.12	3117.01
457.32	3549.13
457.52	3166.16
457.73	3282.89
457.93	3323.85
458.14	3315.66
458.34	3024.85
458.54	3164.11
458.75	3209.17
458.95	3758.02
459.15	3518.41
459.36	3198.93
459.56	3186.64
459.76	3934.15
459.97	3534.79
460.17	3205.07
460.37	3225.55
460.58	3413.96
460.78	3680.20
460.99	3174.35
461.19	3188.69
461.39	3315.66
461.60	3487.69
461.80	3270.61
462.00	3024.85
462.21	3473.36
462.41	3268.56
462.61	3026.90
462.82	2983.89
463.02	3602.38
463.22	3428.30
463.43	3180.50
463.63	3051.47
463.83	3794.89
464.04	3510.22
464.24	3119.06
464.44	3110.86
464.64	3487.69
464.85	3602.38
465.05	3262.41
465.25	3004.37
465.46	3325.90
465.66	3622.86
465.86	3323.85
466.07	3151.82
466.27	3393.48
466.47	3129.30
466.68	3008.47
466.88	3270.61
467.08	3575.75
467.29	3655.62
467.49	3174.35
467.69	3327.95
467.89	3612.62
468.10	3438.54
468.30	3262.41
468.50	3223.50
468.71	3639.24
468.91	3190.74
469.11	3350.48
469.31	3334.09
469.52	3338.19
469.72	3729.35
469.92	3348.43
470.13	3213.26
470.33	3403.72
470.53	3534.79
470.73	3524.55
470.94	3854.28
471.14	3983.30
471.34	4603.83
471.54	4130.75
471.75	3839.94
471.95	3737.54
472.15	3848.13
472.36	3626.95
472.56	3540.94
472.76	3948.48
472.96	3704.78
473.17	3452.88
473.37	3172.30
473.57	3420.11
473.77	3561.42
473.98	3413.96
474.18	3127.25
474.38	4124.61
474.58	3313.61
474.79	3092.43
474.99	3252.17
475.19	3770.31
475.39	3270.61
475.60	3211.22
475.80	3100.62
476.00	3575.75
476.20	3389.39
476.41	3332.05
476.61	3198.93
476.81	3776.45
477.01	3227.60
477.21	3573.71
477.42	3250.13
477.62	3338.19
477.82	3590.09
478.02	3149.78
478.23	3145.68
478.43	3319.76
478.63	3391.44
478.83	3164.11
479.03	3207.12
479.24	3813.32
479.44	3913.67
479.64	3067.86
479.84	3033.04
480.04	3231.69
480.25	3663.82
480.45	3045.33
480.65	3129.30
480.85	3651.53
481.06	3352.52
481.26	3256.27
481.46	3184.59
481.66	3532.75
481.86	3246.03
482.06	3356.62
482.27	3174.35
482.47	3354.57
482.67	3567.56
482.87	3135.44
483.07	3166.16
483.28	3327.95
483.48	3157.97
483.68	3149.78
483.88	3076.05
484.08	3033.04
484.29	3196.88
484.49	3229.65
484.69	2936.79
484.89	3768.26
485.09	3725.26
485.29	3248.08
485.50	3278.80
485.70	3332.05
485.90	3635.14
486.10	3293.13
486.30	3082.19
486.50	3745.73
486.71	3491.79
486.91	3229.65
487.11	3321.81
487.31	3129.30
487.51	3608.52
487.71	3131.34
487.91	3098.58
488.12	3237.84
488.32	2867.16
488.52	3207.12
488.72	2846.68
488.92	3381.20
489.12	3667.91
489.32	3303.37
489.53	3166.16
489.73	3139.54
489.93	3893.19
490.13	3196.88
490.33	3080.14
490.53	3426.25
490.73	3624.90
490.94	3106.77
491.14	3237.84
491.34	3604.42
491.54	3516.36
491.74	4085.70
491.94	4552.63
492.14	5005.24
492.34	5144.50
492.54	4712.38
492.75	4116.42
492.95	4444.09
493.15	4034.50
493.35	3778.50
493.55	3868.61
493.75	3880.90
493.95	3999.68
494.15	3420.11
494.35	3205.07
494.56	3405.77
494.76	3299.28
494.96	3321.81
495.16	3033.04
495.36	3520.46
495.56	3430.35
495.76	3258.32
495.96	3164.11
496.16	3274.70
496.36	3829.70
496.56	3100.62
496.77	3182.54
496.97	3542.99
497.17	3766.21
497.37	2936.79
497.57	3352.52
497.77	3434.44
497.97	3246.03
498.17	3231.69
498.37	3125.20
498.57	3485.64
498.77	3416.01
498.97	3340.24
499.17	3540.94
499.38	3389.39
499.58	3624.90
499.78	3432.40
499.98	3317.71
500.18	3336.14
500.38	3217.36
500.58	3358.67
500.78	3755.97
500.98	6031.27
501.18	7821.19
501.38	9150.32
501.58	9766.76
501.78	9742.19
501.98	8349.57
502.18	7002.01
502.38	6158.24
502.58	6389.66
502.78	5642.15
502.98	5273.52
503.18	5046.20
503.38	4863.93
503.59	4190.14
503.79	4132.80
503.99	3788.74
504.19	3848.13
504.39	3899.33
504.59	3653.58
504.79	3557.32
504.99	3952.58
505.19	3663.82
505.39	3327.95
505.59	3542.99
505.79	3837.89
505.99	3565.51
506.19	3205.07
506.39	3428.30
506.59	3430.35
506.79	3444.68
506.99	3350.48
507.19	3194.83
507.39	3491.79
507.59	3076.05
507.79	3086.29
507.99	3143.63
508.19	3356.62
508.39	3278.80
508.59	3196.88
508.79	3325.90
508.99	3837.89
509.19	3327.95
509.39	3209.17
509.59	3133.39
509.79	3313.61
509.99	3565.51
510.19	3364.81
510.39	3358.67
510.59	3434.44
510.79	3395.53
510.99	2967.51
511.19	3143.63
511.39	3815.37
511.59	3655.62
511.79	3370.96
511.99	3157.97
512.19	3760.07
512.38	3565.51
512.58	3090.38
512.78	3110.86
512.98	3680.20
513.18	3774.41
513.38	3123.15
513.58	3252.17
513.78	3426.25
513.98	3299.28
514.18	3088.34
514.38	3231.69
514.58	3485.64
514.78	3278.80
514.98	3090.38
515.18	3217.36
515.38	3157.97
515.58	3807.17
515.78	3198.93
515.98	3114.96
516.18	3567.56
516.38	3463.12
516.57	3086.29
516.77	3117.01
516.97	3618.76
517.17	3385.29
517.37	2983.89
517.57	3196.88
517.77	3551.18
517.97	3211.22
518.17	3217.36
518.37	3033.04
518.57	3319.76
518.77	3266.51
518.97	3188.69
519.16	3157.97
519.36	3631.05
519.56	3278.80
519.76	3127.25
519.96	3157.97
520.16	3758.02
520.36	3225.55
520.56	3360.72
520.76	3074.00
520.96	3340.24
521.16	3553.23
521.35	3381.20
521.55	3344.33
521.75	3508.17
521.95	3356.62
522.15	3200.98
522.35	3098.58
522.55	3282.89
522.75	3708.87
522.95	3049.43
523.14	3012.56
523.34	3313.61
523.54	3303.37
523.74	3340.24
523.94	3174.35
524.14	3178.45
524.34	3510.22
524.54	3440.59
524.73	3190.74
524.93	3551.18
525.13	3332.05
525.33	3061.71
525.53	3442.64
525.73	3573.71
525.93	3436.49
526.13	3217.36
526.32	3125.20
526.52	3760.07
526.72	3633.10
526.92	3174.35
527.12	3057.62
527.32	3117.01
527.52	3524.55
527.71	3151.82
527.91	3133.39
528.11	3459.02
528.31	3377.10
528.51	3110.86
528.71	3299.28
528.90	3579.85
529.10	3712.97
529.30	3243.98
529.50	2875.35
529.70	3508.17
529.90	3356.62
530.09	3250.13
530.29	3033.04
530.49	3278.80
530.69	4040.64
530.89	3389.39
531.09	3229.65
531.28	3352.52
531.48	3655.62
531.68	3119.06
531.88	3151.82
532.08	3557.32
532.28	3420.11
532.47	3239.89
532.67	3315.66
532.87	3643.34
533.07	3200.98
533.27	3180.50
533.46	3221.45
533.66	3385.29
533.86	3395.53
534.06	3264.46
534.26	3067.86
534.45	3377.10
534.65	3651.53
534.85	3188.69
535.05	3135.44
535.25	3663.82
535.44	3082.19
535.64	3266.51
535.84	3241.93
536.04	3340.24
536.24	3319.76
536.43	3125.20
536.63	3057.62
536.83	3401.68
537.03	3360.72
537.22	2990.03
537.42	3008.47
537.62	3516.36
537.82	3284.94
538.02	3409.87
538.21	3213.26
538.41	4057.03
538.61	3557.32
538.81	3162.06
539.00	3334.09
539.20	3135.44
539.40	3358.67
539.60	3119.06
539.79	3385.29
539.99	3504.07
540.19	3200.98
540.39	3090.38
540.58	3190.74
540.78	3616.71
540.98	3436.49
541.18	3393.48
541.37	3213.26
541.57	3532.75
541.77	3520.46
541.97	2983.89
542.16	3024.85
542.36	3334.09
542.56	3254.22
542.76	3301.33
542.95	3258.32
543.15	3604.42
543.35	3567.56
543.54	3078.10
543.74	3080.14
543.94	3733.45
544.14	3264.46
544.33	3313.61
544.53	3155.92
544.73	3362.76
544.93	3327.95
545.12	3160.02
545.32	3213.26
545.52	3399.63
545.71	3147.73
545.91	3190.74
546.11	3131.34
546.30	3209.17
546.50	3459.02
546.70	3233.74
546.90	3200.98
547.09	3074.00
547.29	3381.20
547.49	3336.14
547.68	3176.40
547.88	3284.94
548.08	3569.61
548.27	3434.44
548.47	3117.01
548.67	3342.28
548.87	3516.36
549.06	3164.11
549.26	3082.19
549.46	3534.79
549.65	3211.22
549.85	3280.85
550.05	3141.58
550.24	3160.02
550.44	3338.19
550.64	3254.22
550.83	3239.89
551.03	3835.85
551.23	3606.47
551.42	3225.55
551.62	3198.93
551.82	3426.25
552.01	3418.06
552.21	3522.51
552.41	3233.74
552.60	3770.31
552.80	3387.34
553.00	3129.30
553.19	3280.85
553.39	3770.31
553.59	3203.02
553.78	3280.85
553.98	3043.28
554.17	3256.27
554.37	3524.55
554.57	3321.81
554.76	3030.99
554.96	3266.51
555.16	3463.12
555.35	3190.74
555.55	3377.10
555.75	3514.31
555.94	3567.56
556.14	2983.89
556.33	3207.12
556.53	3430.35
556.73	3352.52
556.92	3248.08
557.12	3137.49
557.32	3868.61
557.51	3696.58
557.71	3231.69
557.90	3342.28
558.10	3702.73
558.30	3409.87
558.49	3186.64
558.69	3227.60
558.88	3557.32
559.08	3491.79
559.28	3291.09
559.47	3256.27
559.67	3532.75
559.86	3835.85
560.06	3147.73
560.26	3186.64
560.45	3559.37
560.65	3432.40
560.84	3526.60
561.04	3110.86
561.24	3481.55
561.43	3190.74
561.63	3407.82
561.82	3291.09
562.02	3624.90
562.22	3291.09
562.41	3117.01
562.61	3123.15
562.80	3217.36
563.00	3948.48
563.19	3231.69
563.39	3299.28
563.59	3598.28
563.78	3182.54
563.98	2891.73
564.17	3172.30
564.37	3065.81
564.56	3397.58
564.76	3127.25
564.96	3260.37
565.15	3442.64
565.35	3983.30
565.54	3231.69
565.74	3180.50
565.93	3502.03
566.13	3487.69
566.32	3188.69
566.52	3311.57
566.71	3438.54
566.91	3624.90
567.11	3319.76
567.30	3030.99
567.50	3540.94
567.69	3536.84
567.89	3098.58
568.08	3069.91
568.28	3463.12
568.47	3246.03
568.67	3174.35
568.86	3104.72
569.06	3553.23
569.25	3311.57
569.45	3039.19
569.64	3262.41
569.84	3368.91
570.04	3450.83
570.23	3207.12
570.43	3319.76
570.62	3467.21
570.82	3790.79
571.01	3045.33
571.21	3172.30
571.40	3270.61
571.60	3655.62
571.79	3203.02
571.99	3182.54
572.18	3207.12
572.38	3532.75
572.57	3188.69
572.77	3268.56
572.96	4073.41
573.16	3459.02
573.35	3114.96
573.55	3315.66
573.74	3516.36
573.94	3395.53
574.13	3180.50
574.33	3350.48
574.52	3766.21
574.71	3512.27
574.91	3149.78
575.10	3041.23
575.30	3311.57
575.49	3258.32
575.69	3082.19
575.88	3117.01
576.08	3352.52
576.27	3674.06
576.47	3059.67
576.66	3356.62
576.86	3678.15
577.05	3426.25
577.25	3207.12
577.44	3286.99
577.64	3301.33
577.83	3647.43
578.02	3172.30
578.22	3360.72
578.41	3858.37
578.61	3366.86
578.80	3010.51
579.00	3215.31
579.19	3348.43
579.39	3454.92
579.58	3268.56
579.77	3229.65
579.97	3739.59
580.16	3645.38
580.36	3364.81
580.55	3246.03
580.75	3487.69
580.94	3483.59
581.13	3377.10
581.33	3485.64
581.52	3477.45
581.72	3817.41
581.91	3260.37
582.11	3155.92
582.30	3624.90
582.49	3532.75
582.69	3551.18
582.88	3149.78
583.08	3536.84
583.27	3698.63
583.47	3293.13
583.66	3149.78
583.85	3315.66
584.05	3387.34
584.24	3305.42
584.44	3149.78
584.63	3731.40
584.82	3690.44
585.02	3385.29
585.21	3352.52
585.41	3551.18
585.60	3540.94
585.79	3362.76
585.99	3495.88
586.18	3479.50
586.37	4466.62
586.57	6655.90
586.76	18204.39
586.96	37146.06
587.15	49610.00
587.34	56956.06
587.54	60695.65
587.73	53570.77
587.93	38460.85
588.12	29943.35
588.31	24659.59
588.51	21778.10
588.70	20246.22
588.89	17864.43
589.09	15288.09
589.28	13072.18
589.47	10182.50
589.67	7968.65
589.86	6264.74
590.06	5056.43
590.25	4499.39
590.44	3874.76
590.64	3518.41
590.83	3676.10
591.02	3778.50
591.22	3213.26
591.41	3307.47
591.60	3352.52
591.80	3962.82
591.99	3047.38
592.18	3207.12
592.38	3643.34
592.57	3364.81
592.76	3196.88
592.96	3254.22
593.15	3393.48
593.34	3770.31
593.54	3164.11
593.73	3358.67
593.92	3588.04
594.12	3606.47
594.31	3270.61
594.50	3401.68
594.70	3436.49
594.89	4110.27
595.08	3000.27
595.28	3356.62
595.47	4089.79
595.66	3688.39
595.86	3100.62
596.05	3094.48
596.24	3401.68
596.43	3852.23
596.63	3309.52
596.82	3389.39
597.01	3665.86
597.21	3813.32
597.40	3223.50
597.59	3170.26
597.79	3379.15
597.98	3651.53
598.17	3221.45
598.36	3264.46
598.56	3631.05
598.75	3250.13
598.94	3327.95
599.14	3162.06
599.33	3319.76
599.52	3581.90
599.71	3280.85
599.91	3229.65
600.10	3499.98
600.29	3440.59
600.48	3227.60
600.68	3330.00
600.87	3518.41
601.06	3286.99
601.26	3276.75
601.45	3336.14
601.64	3297.23
601.83	3870.66
602.03	3076.05
602.22	3084.24
602.41	3663.82
602.60	4003.78
602.80	3282.89
602.99	3360.72
603.18	3354.57
603.37	3534.79
603.57	3067.86
603.76	3203.02
603.95	3704.78
604.14	3289.04
604.34	3030.99
604.53	3221.45
604.72	3512.27
604.91	3731.40
605.10	3200.98
605.30	3035.09
605.49	3887.04
605.68	3510.22
605.87	3246.03
606.07	3125.20
606.26	3520.46
606.45	3661.77
606.64	3182.54
606.84	3024.85
607.03	3385.29
607.22	3649.48
607.41	3289.04
607.60	3123.15
607.80	3583.95
607.99	3499.98
608.18	3211.22
608.37	3336.14
608.56	3250.13
608.76	3618.76
608.95	3336.14
609.14	3233.74
609.33	3733.45
609.52	3813.32
609.72	3301.33
609.91	3272.65
610.10	3508.17
610.29	3753.93
610.48	3303.37
610.68	3297.23
610.87	3469.26
611.06	3604.42
611.25	3186.64
611.44	3319.76
611.63	3327.95
611.83	3698.63
612.02	3006.42
612.21	3323.85
612.40	3090.38
612.59	3188.69
612.79	3059.67
612.98	3246.03
613.17	3864.52
613.36	3422.16
613.55	3360.72
613.74	3155.92
613.93	3454.92
614.13	3555.27
614.32	3360.72
614.51	3217.36
614.70	3397.58
614.89	3385.29
615.08	3270.61
615.28	3479.50
615.47	3147.73
615.66	3557.32
615.85	3184.59
616.04	3235.79
616.23	3495.88
616.42	3387.34
616.62	3147.73
616.81	3209.17
617.00	3422.16
617.19	3542.99
617.38	3182.54
617.57	3313.61
617.76	3563.47
617.95	3657.67
618.15	3336.14
618.34	3399.63
618.53	3164.11
618.72	3680.20
618.91	3246.03
619.10	3186.64
619.29	3438.54
619.48	3454.92
619.68	3151.82
619.87	3182.54
620.06	3098.58
620.25	3534.79
620.44	3139.54
620.63	3114.96
620.82	3483.59
621.01	3399.63
621.20	3264.46
621.39	3205.07
621.59	3532.75
621.78	3391.44
621.97	3147.73
622.16	3325.90
622.35	3536.84
622.54	3573.71
622.73	3180.50
622.92	2975.70
623.11	3592.14
623.30	3403.72
623.49	3350.48
623.68	3127.25
623.88	3782.60
624.07	3268.56
624.26	3145.68
624.45	3102.67
624.64	3522.51
624.83	3454.92
625.02	3200.98
625.21	3157.97
625.40	3330.00
625.59	3741.64
625.78	3295.18
625.97	3286.99
626.16	3753.93
626.35	3579.85
626.54	3141.58
626.74	3377.10
626.93	3446.73
627.12	3409.87
627.31	3221.45
627.50	3160.02
627.69	3616.71
627.88	3295.18
628.07	3129.30
628.26	2996.18
628.45	3278.80
628.64	3282.89
628.83	3180.50
629.02	3033.04
629.21	3526.60
629.40	3442.64
629.59	3145.68
629.78	3151.82
629.97	3483.59
630.16	3385.29
630.35	3106.77
630.54	3297.23
630.73	3315.66
630.92	3250.13
631.11	3057.62
631.30	3227.60
631.49	3672.01
631.68	3403.72
631.87	3229.65
632.06	3033.04
632.25	3938.24
632.44	3434.44
632.63	3254.22
632.82	3149.78
633.01	3278.80
633.20	3430.35
633.39	3155.92
633.58	3092.43
633.77	3422.16
633.96	3514.31
634.15	3303.37
634.34	3239.89
634.53	3598.28
634.72	3323.85
634.91	3026.90
635.10	3250.13
635.29	3760.07
635.48	3545.03
635.67	3028.95
635.86	3043.28
636.05	3733.45
636.24	3418.06
636.43	3160.02
636.62	3252.17
636.81	2977.75
637.00	3456.97
637.19	3106.77
637.38	3205.07
637.57	3352.52
637.76	3416.01
637.95	3491.79
638.14	3346.38
638.33	3444.68
638.52	3405.77
638.71	2998.23
638.89	3053.52
639.08	4081.60
639.27	3663.82
639.46	3381.20
639.65	3598.28
639.84	3813.32
640.03	4009.92
640.22	3653.58
640.41	3542.99
640.60	3444.68
640.79	3676.10
640.98	3438.54
641.17	3424.20
641.36	3667.91
641.55	3510.22
641.74	3067.86
641.92	3112.91
642.11	3252.17
642.30	3438.54
642.49	3082.19
642.68	3147.73
642.87	3538.89
643.06	3573.71
643.25	3051.47
643.44	3090.38
643.63	3385.29
643.82	3583.95
644.00	3020.75
644.19	3143.63
644.38	3213.26
644.57	3600.33
644.76	3090.38
644.95	3278.80
645.14	3491.79
645.33	3424.20
645.52	3268.56
645.71	3024.85
645.89	3174.35
646.08	3446.73
646.27	3131.34
646.46	3362.76
646.65	3104.72
646.84	3438.54
647.03	3082.19
647.22	3368.91
647.40	3502.03
647.59	3409.87
647.78	2963.41
647.97	3119.06
648.16	3246.03
648.35	3794.89
648.54	3442.64
648.73	3139.54
648.91	3614.66
649.10	3475.40
649.29	3145.68
649.48	3045.33
649.67	3489.74
649.86	3551.18
650.05	3262.41
650.23	3348.43
650.42	3321.81
650.61	3631.05
650.80	3358.67
650.99	3379.15
651.18	3753.93
651.36	3735.50
651.55	3082.19
651.74	3467.21
651.93	3368.91
652.12	3391.44
652.31	3266.51
652.49	3217.36
652.68	3321.81
652.87	3741.64
653.06	3332.05
653.25	3395.53
653.44	3485.64
653.62	3825.61
653.81	3286.99
654.00	3123.15
654.19	3622.86
654.38	3999.68
654.56	3319.76
654.75	3084.24
654.94	3565.51
655.13	3575.75
655.32	3076.05
655.51	3227.60
655.69	3323.85
655.88	3672.01
656.07	3026.90
656.26	3149.78
656.45	3180.50
656.63	3403.72
656.82	3121.10
657.01	3485.64
657.20	3352.52
657.38	3790.79
657.57	3153.87
657.76	3125.20
657.95	3571.66
658.14	3352.52
658.32	3284.94
658.51	3108.82
658.70	3407.82
658.89	3553.23
659.08	3225.55
659.26	3426.25
659.45	3133.39
659.64	3590.09
659.83	3225.55
660.01	3512.27
660.20	3393.48
660.39	3760.07
660.58	2850.77
660.76	3248.08
660.95	3176.40
661.14	3422.16
661.33	3008.47
661.51	3166.16
661.70	3368.91
661.89	3502.03
662.08	3348.43
662.26	3010.51
662.45	3145.68
662.64	3803.08
662.83	3248.08
663.01	3000.27
663.20	3327.95
663.39	3889.09
663.58	3203.02
663.76	3194.83
663.95	3536.84
664.14	3104.72
664.32	3293.13
664.51	3074.00
664.70	2959.31
664.89	3491.79
665.07	3102.67
665.26	3268.56
665.45	3125.20
665.64	3557.32
665.82	3176.40
666.01	3344.33
666.20	3180.50
666.38	3672.01
666.57	3540.94
666.76	5656.49
666.95	12431.17
667.13	18841.31
667.32	22523.56
667.51	24972.93
667.69	25568.89
667.88	20805.31
668.07	15554.32
668.25	13156.15
668.44	11628.37
668.63	10270.56
668.81	9047.93
669.00	7677.83
669.19	7169.94
669.38	6246.30
669.56	5343.15
669.75	4753.34
669.94	4468.67
670.12	3809.22
670.31	3409.87
670.50	3428.30
670.68	3618.76
670.87	3526.60
671.06	3184.59
671.24	3280.85
671.43	3710.92
671.62	3459.02
671.80	3223.50
671.99	3305.42
672.18	3432.40
672.36	3596.23
672.55	3323.85
672.74	3270.61
672.92	3459.02
673.11	3610.57
673.29	3000.27
673.48	3354.57
673.67	3411.92
673.85	3649.48
674.04	3104.72
674.23	3250.13
674.41	3841.99
674.60	3289.04
674.79	2893.78
674.97	3002.32
675.16	3618.76
675.34	3737.54
675.53	3215.31
675.72	3239.89
675.90	3815.37
676.09	3411.92
676.28	3309.52
676.46	3041.23
676.65	3577.80
676.83	3315.66
677.02	3205.07
677.21	3332.05
677.39	3561.42
677.58	3303.37
677.77	3170.26
677.95	3033.04
678.14	3373.00
678.32	3416.01
678.51	3217.36
678.70	3545.03
678.88	3362.76
679.07	3430.35
679.25	3180.50
679.44	3270.61
679.63	3157.97
679.81	3426.25
680.00	3442.64
680.18	3260.37
680.37	3766.21
680.55	3450.83
680.74	3117.01
680.93	2983.89
681.11	3467.21
681.30	3418.06
681.48	3157.97
681.67	3237.84
681.85	3456.97
682.04	3256.27
682.23	3332.05
682.41	3387.34
682.60	3424.20
682.78	3418.06
682.97	3117.01
683.15	3248.08
683.34	3557.32
683.53	3839.94
683.71	3028.95
683.90	3133.39
684.08	3831.75
684.27	3383.24
684.45	3192.78
684.64	3346.38
684.82	3393.48
685.01	3565.51
685.19	3223.50
685.38	3504.07
685.57	3411.92
685.75	3237.84
685.94	3125.20
686.12	3057.62
686.31	3307.47
686.49	3762.12
686.68	2983.89
686.86	3164.11
687.05	3301.33
687.23	3815.37
687.42	3180.50
687.60	3024.85
687.79	3741.64
687.97	3672.01
688.16	3307.47
688.34	3409.87
688.53	3119.06
688.71	3598.28
688.90	3508.17
689.08	3276.75
689.27	3096.53
689.45	3651.53
689.64	3325.90
689.82	3248.08
690.01	3540.94
690.19	3577.80
690.38	3278.80
690.56	3282.89
690.75	3135.44
690.93	3305.42
691.12	3221.45
691.30	3241.93
691.49	3360.72
691.67	3436.49
691.86	3602.38
692.04	3248.08
692.23	3434.44
692.41	3459.02
692.60	3469.26
692.78	3416.01
692.97	3483.59
693.15	3590.09
693.34	3385.29
693.52	3450.83
693.71	3389.39
693.89	3299.28
694.08	3024.85
694.26	3215.31
694.44	3585.99
694.63	3575.75
694.81	3129.30
695.00	3176.40
695.18	3764.17
695.37	3979.20
695.55	3284.94
695.74	3303.37
695.92	3229.65
696.10	3719.11
696.29	3127.25
696.47	3192.78
696.66	3196.88
696.84	3211.22
697.03	3239.89
697.21	3463.12
697.40	4773.82
697.58	3688.39
697.76	3207.12
697.95	3258.32
698.13	3229.65
698.32	3225.55
698.50	3147.73
698.68	3250.13
698.87	3549.13
699.05	3770.31
699.24	3178.45
699.42	3213.26
699.61	3442.64
699.79	3516.36
699.97	3254.22
700.16	3069.91
700.34	3135.44
700.53	3522.51
700.71	3477.45
700.89	3352.52
701.08	3368.91
701.26	3452.88
701.45	3504.07
701.63	3106.77
701.81	3299.28
702.00	3215.31
702.18	3393.48
702.37	3155.92
702.55	3704.78
702.73	3379.15
702.92	3182.54
703.10	3434.44
703.28	3676.10
703.47	3233.74
703.65	3416.01
703.84	3313.61
704.02	3311.57
704.20	3729.35
704.39	3149.78
704.57	3141.58
704.75	3647.43
704.94	3485.64
705.12	3360.72
705.30	4032.45
705.49	8267.65
705.67	14532.39
705.86	19142.36
706.04	21659.32
706.22	23602.84
706.41	21997.23
706.59	16422.66
706.77	13432.63
706.96	11648.85
707.14	10964.82
707.32	9316.21
707.51	8093.57
707.69	6969.24
707.87	5728.17
708.06	4714.42
708.24	4304.83
708.42	4112.32
708.61	4259.78
708.79	3270.61
708.97	3377.10
709.16	3483.59
709.34	3442.64
709.52	3262.41
709.71	3219.41
709.89	3618.76
710.07	3215.31
710.26	3145.68
710.44	3198.93
710.62	3620.81
710.80	3416.01
710.99	3315.66
711.17	3336.14
711.35	3286.99
711.54	3383.24
711.72	3444.68
711.90	3262.41
712.09	3502.03
712.27	3364.81
712.45	3360.72
712.63	3213.26
712.82	3434.44
713.00	3352.52
713.18	3258.32
713.37	3405.77
713.55	3606.47
713.73	3622.86
713.91	3272.65
714.10	3141.58
714.28	3340.24
714.46	3485.64
714.65	3362.76
714.83	3286.99
715.01	3491.79
715.19	3459.02
715.38	3149.78
715.56	3401.68
715.74	3307.47
715.92	3389.39
716.11	3559.37
716.29	3004.37
716.47	3375.05
716.65	3389.39
716.84	3035.09
717.02	3270.61
717.20	2994.13
717.38	3276.75
717.57	3364.81
717.75	3252.17
717.93	3344.33
718.11	3614.66
718.30	3024.85
718.48	3241.93
718.66	3614.66
718.84	3727.30
719.03	3289.04
719.21	3076.05
719.39	3803.08
719.57	3596.23
719.75	3262.41
719.94	3209.17
720.12	3350.48
720.30	3413.96
720.48	3225.55
720.67	3225.55
720.85	3213.26
721.03	3356.62
721.21	3151.82
721.39	3305.42
721.58	3624.90
721.76	3411.92
721.94	3258.32
722.12	3330.00
722.30	3905.48
722.49	3393.48
722.67	3194.83
722.85	3250.13
723.03	3117.01
723.21	3280.85
723.40	3227.60
723.58	3356.62
723.76	3471.31
723.94	3602.38
724.12	3170.26
724.30	3452.88
724.49	3598.28
724.67	3311.57
724.85	3254.22
725.03	3076.05
725.21	3633.10
725.40	3758.02
725.58	3221.45
725.76	3387.34
725.94	3540.94
726.12	3131.34
726.30	3291.09
726.49	3186.64
726.67	3291.09
726.85	3557.32
727.03	3942.34
727.21	4884.41
727.39	5998.50
727.57	6496.16
727.76	6825.88
727.94	6672.28
728.12	5951.40
728.30	5011.38
728.48	4800.44
728.66	4569.02
728.84	4368.32
729.03	3948.48
729.21	3704.78
729.39	3495.88
729.57	3575.75
729.75	3432.40
729.93	3473.36
730.11	3155.92
730.30	3346.38
730.48	3360.72
730.66	3237.84
730.84	3295.18
731.02	3426.25
731.20	3342.28
731.38	3278.80
731.56	3000.27
731.74	3172.30
731.93	3514.31
732.11	3387.34
732.29	3188.69
732.47	3522.51
732.65	3520.46
732.83	3313.61
733.01	3295.18
733.19	3319.76
733.37	3506.12
733.56	3203.02
733.74	3069.91
733.92	3712.97
734.10	3391.44
734.28	3452.88
734.46	2967.51
734.64	3413.96
734.82	3299.28
735.00	3157.97
735.18	3176.40
735.36	3450.83
735.54	3356.62
735.73	3127.25
735.91	3344.33
736.09	3827.65
736.27	3461.07
736.45	3301.33
736.63	2961.36
736.81	3430.35
736.99	3665.86
737.17	3344.33
737.35	3155.92
737.53	3512.27
737.71	3377.10
737.89	3416.01
738.07	3180.50
738.25	3319.76
738.43	3080.14
738.61	3260.37
738.80	3074.00
738.98	3200.98
739.16	3305.42
739.34	3198.93
739.52	3577.80
739.70	3391.44
739.88	3565.51
740.06	3354.57
740.24	2979.79
740.42	3715.02
740.60	3049.43
740.78	3215.31
740.96	3002.32
741.14	3340.24
741.32	3475.40
741.50	3057.62
741.68	3461.07
741.86	3645.38
742.04	3180.50
742.22	3071.95
742.40	3207.12
742.58	3475.40
742.76	3278.80
742.94	3362.76
743.12	3020.75
743.30	3342.28
743.48	3526.60
743.66	3078.10
743.84	3243.98
744.02	3448.78
744.20	3405.77
744.38	3098.58
744.56	3188.69
744.74	3903.43
744.92	3618.76
745.10	3416.01
745.28	3205.07
745.46	3872.71
745.64	3418.06
745.82	3311.57
746.00	3129.30
746.18	3588.04
746.36	3278.80
746.54	3309.52
746.72	3299.28
746.90	3291.09
747.08	3608.52
747.26	3266.51
747.44	3350.48
747.62	3606.47
747.80	3581.90
747.98	3321.81
748.15	3192.78
748.33	3805.13
748.51	3375.05
748.69	3305.42
748.87	3127.25
749.05	3393.48
749.23	3350.48
749.41	3149.78
749.59	3166.16
749.77	3643.34
749.95	3321.81
750.13	3135.44
750.31	3424.20
750.49	3450.83
750.67	3672.01
750.85	3336.14
751.03	3188.69
751.20	3901.38
751.38	3338.19
751.56	3270.61
751.74	3309.52
751.92	3397.58
752.10	3178.45
752.28	3301.33
752.46	3180.50
752.64	3485.64
752.82	3512.27
753.00	3289.04
753.18	3117.01
753.35	3370.96
753.53	3422.16
753.71	3129.30
753.89	3264.46
754.07	3497.93
754.25	3553.23
754.43	3268.56
754.61	3139.54
754.79	3499.98
754.97	3348.43
755.14	3430.35
755.32	3131.34
755.50	3432.40
755.68	3524.55
755.86	3094.48
756.04	3114.96
756.22	2992.08
756.40	3631.05
756.57	3389.39
756.75	3141.58
756.93	3733.45
757.11	3661.77
757.29	3082.19
757.47	3129.30
757.65	3194.83
757.82	2977.75
758.00	3164.11
758.18	3180.50
758.36	3264.46
758.54	3715.02
758.72	2947.03
758.90	3303.37
759.07	3504.07
759.25	3233.74
759.43	3229.65
759.61	3051.47
759.79	4677.56
759.97	3676.10
760.15	3250.13
760.32	3141.58
760.50	3573.71
760.68	3811.27
760.86	3028.95
761.04	3442.64
761.22	3516.36
761.39	3491.79
761.57	3377.10
761.75	3198.93
761.93	3606.47
762.11	3469.26
762.28	3354.57
762.46	3147.73
762.64	3649.48
762.82	3106.77
763.00	3149.78
763.18	3426.25
763.35	3168.21
763.53	3565.51
763.71	3299.28
763.89	3137.49
764.07	3430.35
764.24	3475.40
764.42	3219.41
764.60	3223.50
764.78	3583.95
764.96	3616.71
765.13	3391.44
765.31	3084.24
765.49	3561.42
765.67	3227.60
765.84	3196.88
766.02	3053.52
766.20	3137.49
766.38	3430.35
766.56	3229.65
766.73	3313.61
766.91	3483.59
767.09	3471.31
767.27	3260.37
767.44	3168.21
767.62	3536.84
767.80	3475.40
767.98	3078.10
768.15	3186.64
768.33	3598.28
768.51	3629.00
768.69	3317.71
768.87	3098.58
769.04	3471.31
769.22	3909.57
769.40	3397.58
769.58	3229.65
769.75	3540.94
769.93	3729.35
770.11	3219.41
770.28	3076.05
770.46	3606.47
770.64	3571.66
770.82	3233.74
770.99	3090.38
771.17	3624.90
771.35	3284.94
771.53	3254.22
771.70	3178.45
771.88	3536.84
772.06	3397.58
772.23	3147.73
772.41	3323.85
772.59	3524.55
772.77	3196.88
772.94	3264.46
773.12	3155.92
773.30	3313.61
773.47	3450.83
773.65	3106.77
773.83	3346.38
774.01	3475.40
774.18	3002.32
774.36	3180.50
774.54	3078.10
774.71	3520.46
774.89	3157.97
775.07	3092.43
775.24	3162.06
775.42	3381.20
775.60	3860.42
775.78	3082.19
775.95	2899.92
776.13	3063.76
776.31	3092.43
776.48	3401.68
776.66	3342.28
776.84	3393.48
777.01	3192.78
777.19	3030.99
777.37	3162.06
777.54	3598.28
777.72	3805.13
777.90	3315.66
778.07	3141.58
778.25	4198.34
778.43	3598.28
778.60	3192.78
778.78	3264.46
778.96	3702.73
779.13	3180.50
779.31	3291.09
779.49	3188.69
779.66	3454.92
779.84	3360.72
780.01	3155.92
780.19	3176.40
780.37	3753.93
780.54	3610.57
780.72	2996.18
780.90	3203.02
781.07	3389.39
781.25	3264.46
781.43	3422.16
781.60	3180.50
781.78	3655.62
781.95	3545.03
782.13	3147.73
782.31	3239.89
782.48	3051.47
782.66	3428.30
782.83	3436.49
783.01	3319.76
783.19	3616.71
783.36	3495.88
783.54	3018.71
783.72	3330.00
783.89	3334.09
784.07	3512.27
784.24	3319.76
784.42	3299.28
784.60	3534.79
784.77	3528.65
784.95	3049.43
785.12	3248.08
785.30	3442.64
785.47	3254.22
785.65	3041.23
785.83	3305.42
786.00	3348.43
786.18	3461.07
786.35	3200.98
786.53	3194.83
786.71	3694.54
786.88	3563.47
787.06	3241.93
787.23	3297.23
787.41	3270.61
787.58	3362.76
787.76	3172.30
787.94	3223.50
788.11	3534.79
788.29	3198.93
788.46	3196.88
788.64	3092.43
788.81	3305.42
788.99	3284.94
789.16	3219.41
789.34	3207.12
789.52	3385.29
789.69	3366.86
789.87	3045.33
790.04	3147.73
790.22	3506.12
790.39	3905.48
790.57	3035.09
790.74	3155.92
790.92	3688.39
791.09	3139.54
791.27	3205.07
791.44	3254.22
791.62	3379.15
791.79	3553.23
791.97	3256.27
792.15	3512.27
792.32	3643.34
792.50	3534.79
792.67	3338.19
792.85	3475.40
793.02	3469.26
793.20	3313.61
793.37	3102.67
793.55	3174.35
793.72	3106.77
793.90	3588.04
794.07	3100.62
794.25	3106.77
794.42	3499.98
794.60	3407.82
794.77	3289.04
794.95	3223.50
795.12	3606.47
795.30	3397.58
795.47	2959.31
795.65	3542.99
795.82	3405.77
796.00	3241.93
796.17	3307.47
796.34	3129.30
796.52	3407.82
796.69	3526.60
796.87	3321.81
797.04	3420.11
797.22	3698.63
797.39	3528.65
797.57	3360.72
797.74	3303.37
797.92	3454.92
798.09	3278.80
798.27	3540.94
798.44	3119.06
798.62	3248.08
798.79	3483.59
798.96	3346.38
799.14	3135.44
799.31	3991.49
799.49	3493.83
799.66	3170.26
799.84	3172.30
800.01	3119.06
800.19	3553.23
800.36	2940.88
800.53	3231.69
800.71	3444.68
800.88	3706.82
801.06	3106.77
801.23	3170.26
801.41	3295.18
801.58	3305.42
801.75	3162.06
801.93	3311.57
802.10	3639.24
802.28	3383.24
802.45	3217.36
802.63	3379.15
802.80	3801.03
802.97	3344.33
803.15	3164.11
803.32	3151.82
803.50	3278.80
803.67	3305.42
803.84	3162.06
804.02	3280.85
804.19	3334.09
804.37	2992.08
804.54	2963.41
804.71	3047.38
804.89	3368.91
805.06	3270.61
805.24	3090.38
805.41	3028.95
805.58	3293.13
805.76	3911.62
805.93	3098.58
806.10	3362.76
806.28	3581.90
806.45	3422.16
806.63	3266.51
806.80	3270.61
806.97	3456.97
807.15	3461.07
807.32	3346.38
807.49	3243.98
807.67	3145.68
807.84	3438.54
808.01	2998.23
808.19	3416.01
808.36	3956.68
808.54	3411.92
808.71	3235.79
808.88	3074.00
809.06	3688.39
809.23	3749.83
809.40	3231.69
809.58	3170.26
809.75	3426.25
809.92	3188.69
810.10	3413.96
810.27	3213.26
810.44	3489.74
810.62	3688.39
810.79	3254.22
810.96	3272.65
811.14	3375.05
811.31	3569.61
811.48	3444.68
811.66	3327.95
811.83	3725.26
812.00	3495.88
812.18	3311.57
812.35	3487.69
812.52	3368.91
812.69	3360.72
812.87	3108.82
813.04	3125.20
813.21	3364.81
813.39	3231.69
813.56	3184.59
813.73	3483.59
813.91	3188.69
814.08	3434.44
814.25	3246.03
814.42	2985.94
814.60	3463.12
814.77	3463.12
814.94	3188.69
815.12	3280.85
815.29	3831.75
815.46	3327.95
815.63	3182.54
815.81	3155.92
815.98	3377.10
816.15	3383.24
816.33	3291.09
816.50	3209.17
816.67	3491.79
816.84	3409.87
817.02	3057.62
817.19	3207.12
817.36	3469.26
817.53	3487.69
817.71	3135.44
817.88	3192.78
818.05	3442.64
818.22	3368.91
818.40	3346.38
818.57	3117.01
818.74	3508.17
818.91	3448.78
819.09	3340.24
819.26	3405.77
819.43	3344.33
819.60	3264.46
819.78	3389.39
819.95	3190.74
820.12	3196.88
820.29	3733.45
820.47	3506.12
820.64	3100.62
820.81	3176.40
820.98	3235.79
821.15	3286.99
821.33	3330.00
821.50	3071.95
821.67	3583.95
821.84	3151.82
822.02	3200.98
822.19	3635.14
822.36	3368.91
822.53	3172.30
822.70	3067.86
822.88	3366.86
823.05	3721.16
823.22	3264.46
823.39	3160.02
823.56	3440.59
823.74	3913.67
823.91	2983.89
824.08	3121.10
824.25	3200.98
824.42	3798.98
824.60	3102.67
824.77	3286.99
824.94	3448.78
825.11	3641.29
825.28	3084.24
825.45	3323.85
825.63	3514.31
825.80	3190.74
825.97	3215.31
826.14	3254.22
826.31	3059.67
826.48	3581.90
826.66	3168.21
826.83	3174.35
827.00	3450.83
827.17	3149.78
827.34	3215.31
827.51	3086.29
827.69	3373.00
827.86	3094.48
828.03	3289.04
828.20	3182.54
828.37	3311.57
828.54	3542.99
828.71	3188.69
828.89	3262.41
829.06	3450.83
829.23	3684.30
829.40	3176.40
829.57	3129.30
829.74	3596.23
829.91	3323.85
830.09	3211.22
830.26	3381.20
830.43	3792.84
830.60	3377.10
830.77	3272.65
830.94	3413.96
831.11	3579.85
831.28	3383.24
831.46	3356.62
831.63	3067.86
831.80	3620.81
831.97	3241.93
832.14	3364.81
832.31	3192.78
832.48	3434.44
832.65	3557.32
832.82	3303.37
832.99	3278.80
833.17	3141.58
833.34	3715.02
833.51	3094.48
833.68	2975.70
833.85	3684.30
834.02	3196.88
834.19	3088.34
834.36	3278.80
834.53	3473.36
834.70	3616.71
834.87	3188.69
835.04	2869.20
835.22	3250.13
835.39	3379.15
835.56	3016.66
835.73	3026.90
835.90	3727.30
836.07	3200.98
836.24	3188.69
836.41	2961.36
836.58	3266.51
836.75	3663.82
836.92	2914.26
837.09	3028.95
837.26	3598.28
837.43	3495.88
837.60	3049.43
837.77	3069.91
837.94	3655.62
838.12	3680.20
838.29	2955.22
838.46	2922.45
838.63	3200.98
838.80	3772.36
838.97	3127.25
839.14	2985.94
839.31	3403.72
839.48	3522.51
839.65	2979.79
839.82	3088.34
839.99	3479.50
840.16	3450.83
840.33	2861.01
840.50	3055.57
840.67	3223.50
840.84	2951.12
841.01	2971.60
841.18	3012.56
841.35	3368.91
841.52	3508.17
841.69	3276.75
841.86	3026.90
842.03	3395.53
842.20	3682.25
842.37	2983.89
842.54	3049.43
842.71	3532.75
842.88	3192.78
843.05	3041.23
843.22	2953.17
843.39	3637.19
843.56	3278.80
843.73	2992.08
843.90	3069.91
844.07	3434.44
844.24	3688.39
844.41	3051.47
844.58	3047.38
844.75	3401.68
844.92	3426.25
845.09	3123.15
845.26	3088.34
845.43	3518.41
845.60	3391.44
845.77	3078.10
845.94	3100.62
846.10	3549.13
846.27	3090.38
846.44	2867.16
846.61	2910.16
846.78	3520.46
846.95	3682.25
847.12	2977.75
847.29	3147.73
847.46	3246.03
847.63	3528.65
847.80	2944.98
847.97	3047.38
848.14	3938.24
848.31	3325.90
848.48	2961.36
848.65	2981.84
848.82	3295.18
848.98	3985.35
849.15	3164.11
849.32	3180.50
849.49	3633.10
849.66	3327.95
849.83	2992.08
850.00	2987.99
850.17	3604.42
850.34	3274.70
850.51	2996.18
850.68	3012.56
850.85	3921.86
851.01	3475.40
851.18	3004.37
851.35	3051.47
851.52	3551.18
851.69	3794.89
851.86	2994.13
852.03	2916.31
852.20	3661.77
852.37	3485.64
852.53	2918.36
852.70	2961.36
852.87	3473.36
853.04	3536.84
853.21	3028.95
853.38	3344.33
853.55	3659.72
853.72	3674.06
853.89	2895.83
854.05	3002.32
854.22	3387.34
854.39	3321.81
854.56	2957.27
854.73	3119.06
854.90	3180.50
855.07	3395.53
855.23	2910.16
855.40	2967.51
855.57	3358.67
855.74	2969.55
855.91	3186.64
856.08	2824.15
856.25	3121.10
856.41	3311.57
856.58	2975.70
856.75	3035.09
856.92	3246.03
857.09	3592.14
857.26	2887.64
857.42	3102.67
857.59	3575.75
857.76	3411.92
857.93	2953.17
858.10	3033.04
858.27	3215.31
858.43	3440.59
858.60	3014.61
858.77	2949.08
858.94	3352.52
859.11	3712.97
859.27	3155.92
859.44	2987.99
859.61	3891.14
859.78	3542.99
859.95	2940.88
860.12	2928.60
860.28	3952.58
860.45	3837.89
860.62	3002.32
860.79	3139.54
860.95	3368.91
861.12	3254.22
861.29	2877.40
861.46	2979.79
861.63	3393.48
861.79	3571.66
861.96	2928.60
862.13	3069.91
862.30	3684.30
862.47	3299.28
862.63	2895.83
862.80	3061.71
862.97	3594.19
863.14	3479.50
863.30	3010.51
863.47	3018.71
863.64	3739.59
863.81	3540.94
863.97	2922.45
864.14	3061.71
864.31	3379.15
864.48	3483.59
864.65	2971.60
864.81	3157.97
864.98	3502.03
865.15	3704.78
865.32	3026.90
865.48	3069.91
865.65	3835.85
865.82	3430.35
865.98	3110.86
866.15	3071.95
866.32	3465.16
866.49	3278.80
866.65	3246.03
866.82	3041.23
866.99	3452.88
867.16	3209.17
867.32	3090.38
867.49	2944.98
867.66	3416.01
867.83	3321.81
867.99	2936.79
868.16	3057.62
868.33	3182.54
868.49	3440.59
868.66	3123.15
868.83	3092.43
868.99	3491.79
869.16	3469.26
869.33	3117.01
869.50	3078.10
869.66	3448.78
869.83	3436.49
870.00	2973.65
870.16	3141.58
870.33	3389.39
870.50	3672.01
870.66	3086.29
870.83	3059.67
871.00	3485.64
871.17	3573.71
871.33	3135.44
871.50	2969.55
871.67	3389.39
871.83	3114.96
872.00	3094.48
872.17	3012.56
872.33	3852.23
872.50	3567.56
872.67	3004.37
872.83	2928.60
873.00	3508.17
873.17	3448.78
873.33	3096.53
873.50	3063.76
873.67	3270.61
873.83	3184.59
874.00	3018.71
874.16	3172.30
874.33	3471.31
874.50	3209.17
874.66	2973.65
874.83	3149.78
875.00	3676.10
875.16	3633.10
875.33	3129.30
875.50	2783.19
875.66	3299.28
875.83	3436.49
875.99	3080.14
876.16	3155.92
876.33	3233.74
876.49	3370.96
876.66	3035.09
876.83	3084.24
876.99	3168.21
877.16	3436.49
877.32	2981.84
877.49	3071.95
877.66	3575.75
877.82	3729.35
877.99	3069.91
878.15	3346.38
878.32	3571.66
878.49	3506.12
878.65	3090.38
878.82	3362.76
878.98	3278.80
879.15	3667.91
879.32	3168.21
879.48	3200.98
879.65	3383.24
879.81	3397.58
879.98	3084.24
880.15	3092.43
880.31	3667.91
880.48	3217.36
880.64	3141.58
880.81	3149.78
880.97	3831.75
881.14	3780.55
881.31	2983.89
881.47	3213.26
881.64	3352.52
881.80	3106.77
881.97	3221.45
882.13	2992.08
882.30	3203.02
882.47	3254.22
882.63	3106.77
882.80	3018.71
882.96	3362.76
883.13	3706.82
883.29	3022.80
883.46	2953.17
883.62	4016.07
883.79	3422.16
883.95	3192.78
884.12	2955.22
884.29	3737.54
884.45	3467.21
884.62	3063.76
884.78	3018.71
884.95	3794.89
885.11	3188.69
885.28	3110.86
885.44	3065.81
885.61	3559.37
885.77	3698.63
885.94	3237.84
886.10	3074.00
886.27	3442.64
886.43	3798.98
886.60	3262.41
886.76	3020.75
886.93	3315.66
887.09	3438.54
887.26	2863.06
887.42	3117.01
887.59	3692.49
887.75	3921.86
887.92	3200.98
888.08	3112.91
888.25	3801.03
888.41	3622.86
888.58	3182.54
888.74	2973.65
888.91	3299.28
>>>>>End Processed Spectral Data<<<<<
