SpectraSuite Data File
++++++++++++++++++++++++++++++++++++
Date: Fri May 06 09:28:26 CEST 2016
User: root
Dark Spectrum Present: No
Reference Spectrum Present: No
Number of Sampled Component Spectra: 1
Spectrometers: USB4C02835
Integration Time (usec): 100000 (USB4C02835)
Spectra Averaged: 1 (USB4C02835)
Boxcar Smoothing: 0 (USB4C02835)
Correct for Electrical Dark: No (USB4C02835)
Strobe/Lamp Enabled: No (USB4C02835)
Correct for Detector Non-linearity: No (USB4C02835)
Correct for Stray Light: No (USB4C02835)
Number of Pixels in Processed Spectrum: 3648
>>>>>Begin Processed Spectral Data<<<<<
177.47	2336.73
177.69	2336.73
177.91	2336.73
178.13	2297.82
178.36	2295.77
178.58	3143.63
178.80	3168.21
179.02	3139.54
179.24	3172.30
179.46	2887.64
179.68	2942.93
179.90	3368.91
180.13	3418.06
180.35	2795.48
180.57	2957.27
180.79	3565.51
181.01	3428.30
181.23	2922.45
181.45	3094.48
181.67	3680.20
181.90	3622.86
182.12	2983.89
182.34	2756.57
182.56	3647.43
182.78	3538.89
183.00	2928.60
183.22	3004.37
183.44	3094.48
183.66	4097.99
183.89	3041.23
184.11	2969.55
184.33	3528.65
184.55	3682.25
184.77	2965.46
184.99	2979.79
185.21	3352.52
185.43	4040.64
185.65	2942.93
185.87	2906.07
186.10	3975.11
186.32	4007.87
186.54	3106.77
186.76	3061.71
186.98	3678.15
187.20	3389.39
187.42	3082.19
187.64	2887.64
187.86	3418.06
188.08	3674.06
188.30	2920.40
188.52	2975.70
188.75	3700.68
188.97	3712.97
189.19	2971.60
189.41	2867.16
189.63	3575.75
189.85	3295.18
190.07	2863.06
190.29	2813.91
190.51	3549.13
190.73	3155.92
190.95	3217.36
191.17	2914.26
191.39	3153.87
191.61	3362.76
191.84	3002.32
192.06	3192.78
192.28	3178.45
192.50	4175.81
192.72	3110.86
192.94	3033.04
193.16	3700.68
193.38	3557.32
193.60	2944.98
193.82	3172.30
194.04	3686.34
194.26	3557.32
194.48	2959.31
194.70	2938.84
194.92	3348.43
195.14	3643.34
195.36	2934.74
195.58	3000.27
195.80	3411.92
196.02	3327.95
196.24	2912.21
196.46	3074.00
196.69	3315.66
196.91	3903.43
197.13	2987.99
197.35	3045.33
197.57	3792.84
197.79	3618.76
198.01	3069.91
198.23	2942.93
198.45	3624.90
198.67	3119.06
198.89	2793.43
199.11	3055.57
199.33	3360.72
199.55	2990.03
199.77	2953.17
199.99	3047.38
200.21	3311.57
200.43	3532.75
200.65	2854.87
200.87	2770.90
201.09	3440.59
201.31	3373.00
201.53	2938.84
201.75	2996.18
201.97	3489.74
202.19	3450.83
202.41	3004.37
202.63	3088.34
202.85	3655.62
203.07	3530.70
203.29	3055.57
203.51	2822.10
203.73	3342.28
203.95	4102.08
204.17	2973.65
204.39	3067.86
204.61	3403.72
204.83	3356.62
205.05	3114.96
205.27	2975.70
205.49	3971.01
205.71	3401.68
205.93	2775.00
206.15	2779.09
206.37	3526.60
206.59	3420.11
206.81	2861.01
207.03	2912.21
207.25	3291.09
207.47	3577.80
207.69	2916.31
207.91	3131.34
208.13	3762.12
208.34	3309.52
208.56	2951.12
208.78	2959.31
209.00	3467.21
209.22	3416.01
209.44	2983.89
209.66	2985.94
209.88	3444.68
210.10	3409.87
210.32	2901.97
210.54	3067.86
210.76	3360.72
210.98	3690.44
211.20	2815.96
211.42	3149.78
211.64	3784.65
211.86	3590.09
212.08	3098.58
212.30	3016.66
212.52	3389.39
212.74	3569.61
212.96	3102.67
213.17	3065.81
213.39	3712.97
213.61	3805.13
213.83	2944.98
214.05	2838.48
214.27	3696.58
214.49	3215.31
214.71	2957.27
214.93	3139.54
215.15	3471.31
215.37	3643.34
215.59	2854.87
215.81	3026.90
216.03	3733.45
216.24	3387.34
216.46	2873.30
216.68	2938.84
216.90	3624.90
217.12	3700.68
217.34	2983.89
217.56	3131.34
217.78	3770.31
218.00	3622.86
218.22	3139.54
218.44	3069.91
218.66	3561.42
218.87	3815.37
219.09	3006.42
219.31	2951.12
219.53	3465.16
219.75	3418.06
219.97	3016.66
220.19	2983.89
220.41	3368.91
220.63	3807.17
220.85	3059.67
221.06	2967.51
221.28	3801.03
221.50	3565.51
221.72	2953.17
221.94	2822.10
222.16	3508.17
222.38	3704.78
222.60	2949.08
222.82	3059.67
223.03	3637.19
223.25	3250.13
223.47	2932.69
223.69	3266.51
223.91	3581.90
224.13	3502.03
224.35	2852.82
224.57	3168.21
224.78	3579.85
225.00	3237.84
225.22	3086.29
225.44	2869.20
225.66	3645.38
225.88	3393.48
226.10	3155.92
226.32	2938.84
226.53	3786.69
226.75	3246.03
226.97	3049.43
227.19	2906.07
227.41	3317.71
227.63	3301.33
227.85	2824.15
228.06	3024.85
228.28	3553.23
228.50	3706.82
228.72	2789.33
228.94	2858.96
229.16	3110.86
229.37	3248.08
229.59	2861.01
229.81	3262.41
230.03	3344.33
230.25	3215.31
230.47	2754.52
230.69	2949.08
230.90	3629.00
231.12	3295.18
231.34	3139.54
231.56	2996.18
231.78	3147.73
232.00	3434.44
232.21	3002.32
232.43	2953.17
232.65	3098.58
232.87	3635.14
233.09	2834.39
233.30	2934.74
233.52	3657.67
233.74	3420.11
233.96	2869.20
234.18	3200.98
234.40	3420.11
234.61	4042.69
234.83	2863.06
235.05	2930.64
235.27	4030.40
235.49	3616.71
235.70	2912.21
235.92	2992.08
236.14	3606.47
236.36	3979.20
236.58	2887.64
236.79	3045.33
237.01	3434.44
237.23	3475.40
237.45	3221.45
237.67	3016.66
237.88	3577.80
238.10	3846.09
238.32	2861.01
238.54	2899.92
238.76	3346.38
238.97	3250.13
239.19	2801.62
239.41	3041.23
239.63	3674.06
239.85	3295.18
240.06	2994.13
240.28	3000.27
240.50	3633.10
240.72	3303.37
240.93	2881.49
241.15	3151.82
241.37	3438.54
241.59	3815.37
241.81	3022.80
242.02	3076.05
242.24	3549.13
242.46	3641.29
242.68	2836.44
242.89	2852.82
243.11	3639.24
243.33	3442.64
243.55	2963.41
243.76	3084.24
243.98	3319.76
244.20	3434.44
244.42	3002.32
244.64	2877.40
244.85	3149.78
245.07	3264.46
245.29	3020.75
245.51	2983.89
245.72	3530.70
245.94	3569.61
246.16	2959.31
246.38	2938.84
246.59	3315.66
246.81	3303.37
247.03	2901.97
247.24	2811.86
247.46	3428.30
247.68	3469.26
247.90	2992.08
248.11	2973.65
248.33	3672.01
248.55	3475.40
248.77	3049.43
248.98	3059.67
249.20	3962.82
249.42	3512.27
249.64	2942.93
249.85	2879.44
250.07	3319.76
250.29	3590.09
250.50	3106.77
250.72	2830.29
250.94	3540.94
251.16	3856.33
251.37	2912.21
251.59	3039.19
251.81	3653.58
252.02	3755.97
252.24	2832.34
252.46	3065.81
252.68	3262.41
252.89	3293.13
253.11	2877.40
253.33	3123.15
253.54	3823.56
253.76	3274.70
253.98	2918.36
254.20	2914.26
254.41	3256.27
254.63	3375.05
254.85	2820.05
255.06	3104.72
255.28	3602.38
255.50	3373.00
255.71	2985.94
255.93	2717.65
256.15	3319.76
256.36	3493.83
256.58	2824.15
256.80	2883.54
257.02	3411.92
257.23	3307.47
257.45	3002.32
257.67	3135.44
257.88	3438.54
258.10	3540.94
258.32	2967.51
258.53	3117.01
258.75	3866.56
258.97	3229.65
259.18	2844.63
259.40	2916.31
259.62	3954.63
259.83	3835.85
260.05	3024.85
260.27	4052.93
260.48	3643.34
260.70	3227.60
260.92	2852.82
261.13	2998.23
261.35	3485.64
261.57	3524.55
261.78	2842.58
262.00	2861.01
262.22	3600.33
262.43	3274.70
262.65	2977.75
262.86	3016.66
263.08	3995.59
263.30	3459.02
263.51	2781.14
263.73	2910.16
263.95	3811.27
264.16	3243.98
264.38	2840.53
264.60	2820.05
264.81	3442.64
265.03	3622.86
265.25	3385.29
265.46	2918.36
265.68	3715.02
265.89	3631.05
266.11	2770.90
266.33	2967.51
266.54	3637.19
266.76	3592.14
266.98	3030.99
267.19	3209.17
267.41	3700.68
267.62	3465.16
267.84	2713.56
268.06	3114.96
268.27	3465.16
268.49	3698.63
268.70	3047.38
268.92	3030.99
269.14	3321.81
269.35	3168.21
269.57	3131.34
269.79	3030.99
270.00	3360.72
270.22	3837.89
270.43	2775.00
270.65	2787.29
270.87	3489.74
271.08	3696.58
271.30	3039.19
271.51	3043.28
271.73	3571.66
271.95	3786.69
272.16	2916.31
272.38	3061.71
272.59	3379.15
272.81	3456.97
273.02	2879.44
273.24	3096.53
273.46	3758.02
273.67	3180.50
273.89	2746.33
274.10	2963.41
274.32	3723.21
274.54	3532.75
274.75	3049.43
274.97	3090.38
275.18	3590.09
275.40	3563.47
275.61	3020.75
275.83	3190.74
276.05	3327.95
276.26	3405.77
276.48	2990.03
276.69	3139.54
276.91	3311.57
277.12	3747.78
277.34	3045.33
277.55	3262.41
277.77	3375.05
277.99	3330.00
278.20	3176.40
278.42	2973.65
278.63	3330.00
278.85	3203.02
279.06	3055.57
279.28	3207.12
279.49	3762.12
279.71	3641.29
279.93	3123.15
280.14	3174.35
280.36	3313.61
280.57	3762.12
280.79	3231.69
281.00	2951.12
281.22	3411.92
281.43	3704.78
281.65	2914.26
281.86	2953.17
282.08	3516.36
282.29	3921.86
282.51	3033.04
282.73	3030.99
282.94	3135.44
283.16	3542.99
283.37	3145.68
283.59	3098.58
283.80	3573.71
284.02	3424.20
284.23	3178.45
284.45	3121.10
284.66	3211.22
284.88	3305.42
285.09	2967.51
285.31	3180.50
285.52	3585.99
285.74	3057.62
285.95	3299.28
286.17	3243.98
286.38	3731.40
286.60	3297.23
286.81	3082.19
287.03	3024.85
287.24	3504.07
287.46	3524.55
287.67	3254.22
287.89	3254.22
288.10	3446.73
288.32	3477.45
288.53	3280.85
288.75	3205.07
288.96	3702.73
289.18	3297.23
289.39	2992.08
289.61	3166.16
289.82	3837.89
290.04	3862.47
290.25	3053.52
290.47	3143.63
290.68	3469.26
290.90	3715.02
291.11	2883.54
291.33	3246.03
291.54	3278.80
291.76	3305.42
291.97	3260.37
292.18	3237.84
292.40	3373.00
292.61	3266.51
292.83	3383.24
293.04	3147.73
293.26	3442.64
293.47	3420.11
293.69	3080.14
293.90	3055.57
294.12	3688.39
294.33	3493.83
294.55	3200.98
294.76	3364.81
294.97	3702.73
295.19	3921.86
295.40	3039.19
295.62	3196.88
295.83	3667.91
296.05	3284.94
296.26	3375.05
296.48	3028.95
296.69	3362.76
296.90	3346.38
297.12	3268.56
297.33	3215.31
297.55	3528.65
297.76	3508.17
297.98	3184.59
298.19	3368.91
298.41	3286.99
298.62	3360.72
298.83	3325.90
299.05	3280.85
299.26	3397.58
299.48	3268.56
299.69	3172.30
299.90	3035.09
300.12	3235.79
300.33	3540.94
300.55	3192.78
300.76	3164.11
300.98	3297.23
301.19	3575.75
301.40	3184.59
301.62	3102.67
301.83	3506.12
302.05	3430.35
302.26	3008.47
302.47	3217.36
302.69	3139.54
302.90	3413.96
303.12	2926.55
303.33	3194.83
303.54	3862.47
303.76	3295.18
303.97	2998.23
304.19	3299.28
304.40	3276.75
304.61	3516.36
304.83	3266.51
305.04	3125.20
305.26	3639.24
305.47	3260.37
305.68	3141.58
305.90	3018.71
306.11	3751.88
306.33	3348.43
306.54	2947.03
306.75	3010.51
306.97	3170.26
307.18	3248.08
307.39	3125.20
307.61	3215.31
307.82	3397.58
308.04	3506.12
308.25	2942.93
308.46	3295.18
308.68	3481.55
308.89	3450.83
309.10	3174.35
309.32	3147.73
309.53	3491.79
309.74	3633.10
309.96	2992.08
310.17	3227.60
310.39	3284.94
310.60	3626.95
310.81	3135.44
311.03	3047.38
311.24	3592.14
311.45	3493.83
311.67	3360.72
311.88	3256.27
312.09	3424.20
312.31	3291.09
312.52	2938.84
312.73	3098.58
312.95	3170.26
313.16	3260.37
313.37	3209.17
313.59	3280.85
313.80	3567.56
314.01	3723.21
314.23	3145.68
314.44	3051.47
314.65	3252.17
314.87	3264.46
315.08	3067.86
315.29	3094.48
315.51	3223.50
315.72	3143.63
315.93	3139.54
316.15	3137.49
316.36	3256.27
316.57	3428.30
316.79	3078.10
317.00	3053.52
317.21	3542.99
317.43	3293.13
317.64	3176.40
317.85	3020.75
318.07	3330.00
318.28	3200.98
318.49	3033.04
318.70	3370.96
318.92	3487.69
319.13	3497.93
319.34	3295.18
319.56	3033.04
319.77	3565.51
319.98	3561.42
320.20	3315.66
320.41	3303.37
320.62	3540.94
320.83	3301.33
321.05	3270.61
321.26	3151.82
321.47	3483.59
321.69	3674.06
321.90	3090.38
322.11	3065.81
322.32	3403.72
322.54	3825.61
322.75	3162.06
322.96	4163.52
323.18	3139.54
323.39	3018.71
323.60	3104.72
323.81	3248.08
324.03	3336.14
324.24	3471.31
324.45	3332.05
324.66	3074.00
324.88	3694.54
325.09	3829.70
325.30	3153.87
325.52	3014.61
325.73	3647.43
325.94	3225.55
326.15	3026.90
326.37	2994.13
326.58	3612.62
326.79	3753.93
327.00	3024.85
327.22	3078.10
327.43	3356.62
327.64	3256.27
327.85	3188.69
328.07	3147.73
328.28	3915.72
328.49	3295.18
328.70	3145.68
328.92	3108.82
329.13	3383.24
329.34	3538.89
329.55	3284.94
329.76	3237.84
329.98	3393.48
330.19	3653.58
330.40	3139.54
330.61	3254.22
330.83	3672.01
331.04	3305.42
331.25	3237.84
331.46	3119.06
331.68	3180.50
331.89	3629.00
332.10	3076.05
332.31	2924.50
332.52	3411.92
332.74	3665.86
332.95	2973.65
333.16	3053.52
333.37	3620.81
333.58	3254.22
333.80	3084.24
334.01	2901.97
334.22	3469.26
334.43	3248.08
334.64	2979.79
334.86	3033.04
335.07	3270.61
335.28	3837.89
335.49	2967.51
335.70	3123.15
335.92	3723.21
336.13	3975.11
336.34	3090.38
336.55	3129.30
336.76	3495.88
336.98	3010.51
337.19	3131.34
337.40	3110.86
337.61	4001.73
337.82	3352.52
338.04	3186.64
338.25	2916.31
338.46	3434.44
338.67	3368.91
338.88	3008.47
339.09	3057.62
339.31	3330.00
339.52	3172.30
339.73	2967.51
339.94	3164.11
340.15	3581.90
340.36	3319.76
340.58	3274.70
340.79	2996.18
341.00	3745.73
341.21	3166.16
341.42	3364.81
341.63	3074.00
341.85	3651.53
342.06	3528.65
342.27	3059.67
342.48	3299.28
342.69	3127.25
342.90	3524.55
343.12	3491.79
343.33	3094.48
343.54	3706.82
343.75	3770.31
343.96	3192.78
344.17	3012.56
344.38	3375.05
344.60	3284.94
344.81	3008.47
345.02	3155.92
345.23	3700.68
345.44	4048.83
345.65	3170.26
345.86	3229.65
346.07	3542.99
346.29	3256.27
346.50	3258.32
346.71	3205.07
346.92	3778.50
347.13	3868.61
347.34	3219.41
347.55	2947.03
347.76	3545.03
347.98	3074.00
348.19	3155.92
348.40	3258.32
348.61	3286.99
348.82	3768.26
349.03	3209.17
349.24	2936.79
349.45	3872.71
349.66	3024.85
349.88	3067.86
350.09	3076.05
350.30	3727.30
350.51	3706.82
350.72	3315.66
350.93	3108.82
351.14	3352.52
351.35	3477.45
351.56	3125.20
351.77	3114.96
351.99	3516.36
352.20	3760.07
352.41	3176.40
352.62	2963.41
352.83	3502.03
353.04	3469.26
353.25	3074.00
353.46	3184.59
353.67	3678.15
353.88	3022.80
354.09	2971.60
354.30	3110.86
354.52	3719.11
354.73	3391.44
354.94	3057.62
355.15	3108.82
355.36	3876.80
355.57	3268.56
355.78	2969.55
355.99	3074.00
356.20	3327.95
356.41	3729.35
356.62	3225.55
356.83	3137.49
357.04	3735.50
357.25	3217.36
357.46	3082.19
357.68	3010.51
357.89	3186.64
358.10	3428.30
358.31	2987.99
358.52	3123.15
358.73	3153.87
358.94	3229.65
359.15	3080.14
359.36	3133.39
359.57	3469.26
359.78	3360.72
359.99	3311.57
360.20	2899.92
360.41	3373.00
360.62	3573.71
360.83	3192.78
361.04	3166.16
361.25	3549.13
361.46	3852.23
361.67	3223.50
361.88	3094.48
362.09	3706.82
362.30	3596.23
362.51	3082.19
362.72	3114.96
362.93	3559.37
363.14	3598.28
363.35	3233.74
363.56	2963.41
363.78	3641.29
363.99	3557.32
364.20	3104.72
364.41	3190.74
364.62	3762.12
364.83	3483.59
365.04	3133.39
365.25	3192.78
365.46	3887.04
365.67	3200.98
365.88	3221.45
366.09	3096.53
366.30	3327.95
366.51	3444.68
366.72	3018.71
366.93	3024.85
367.14	3358.67
367.35	3749.83
367.56	3028.95
367.77	3221.45
367.98	3506.12
368.18	3536.84
368.39	3241.93
368.60	3106.77
368.81	3536.84
369.02	3583.95
369.23	3106.77
369.44	2947.03
369.65	3332.05
369.86	3585.99
370.07	3207.12
370.28	2961.36
370.49	3532.75
370.70	3467.21
370.91	3006.42
371.12	3022.80
371.33	3753.93
371.54	3293.13
371.75	3262.41
371.96	2850.77
372.17	3516.36
372.38	3450.83
372.59	3076.05
372.80	2985.94
373.01	3368.91
373.22	3471.31
373.43	3012.56
373.64	2947.03
373.85	3727.30
374.06	3823.56
374.26	3354.57
374.47	3278.80
374.68	3848.13
374.89	3452.88
375.10	3016.66
375.31	3184.59
375.52	3536.84
375.73	3446.73
375.94	2983.89
376.15	3180.50
376.36	3303.37
376.57	3264.46
376.78	3147.73
376.99	3203.02
377.20	3682.25
377.40	3381.20
377.61	3409.87
377.82	3147.73
378.03	3833.80
378.24	3557.32
378.45	3231.69
378.66	3213.26
378.87	3047.38
379.08	3211.22
379.29	3071.95
379.50	3237.84
379.71	3559.37
379.91	3620.81
380.12	3080.14
380.33	3262.41
380.54	3381.20
380.75	3434.44
380.96	3110.86
381.17	3198.93
381.38	3364.81
381.59	3479.50
381.80	3182.54
382.00	3237.84
382.21	3459.02
382.42	3743.69
382.63	3510.22
382.84	3246.03
383.05	3559.37
383.26	3786.69
383.47	3305.42
383.68	3084.24
383.88	3581.90
384.09	3481.55
384.30	3370.96
384.51	3198.93
384.72	3452.88
384.93	3192.78
385.14	3203.02
385.35	3444.68
385.55	3102.67
385.76	3729.35
385.97	3180.50
386.18	2944.98
386.39	3311.57
386.60	3303.37
386.81	3155.92
387.02	2963.41
387.22	3176.40
387.43	3512.27
387.64	3147.73
387.85	3373.00
388.06	3403.72
388.27	4501.44
388.48	7393.17
388.68	11069.27
388.89	13690.67
389.10	14765.85
389.31	14538.53
389.52	11704.14
389.73	10379.11
389.93	9482.10
390.14	8386.43
390.35	7950.21
390.56	7382.93
390.77	6322.08
390.98	4683.70
391.18	4116.42
391.39	3846.09
391.60	3506.12
391.81	3463.12
392.02	3149.78
392.23	3966.92
392.43	3467.21
392.64	3248.08
392.85	3272.65
393.06	3823.56
393.27	3493.83
393.47	3100.62
393.68	3319.76
393.89	3303.37
394.10	3672.01
394.31	3211.22
394.52	3137.49
394.72	3319.76
394.93	3786.69
395.14	3030.99
395.35	3196.88
395.56	3323.85
395.76	3327.95
395.97	3131.34
396.18	3336.14
396.39	3422.16
396.60	4116.42
396.80	3524.55
397.01	3354.57
397.22	3700.68
397.43	3602.38
397.64	3092.43
397.84	3182.54
398.05	3893.19
398.26	3444.68
398.47	3233.74
398.67	3442.64
398.88	3401.68
399.09	3598.28
399.30	3104.72
399.51	3272.65
399.71	3270.61
399.92	3538.89
400.13	3276.75
400.34	3090.38
400.54	3491.79
400.75	3831.75
400.96	3176.40
401.17	3487.69
401.37	3506.12
401.58	3377.10
401.79	3022.80
402.00	3256.27
402.21	4005.83
402.41	3434.44
402.62	3360.72
402.83	3469.26
403.04	3805.13
403.24	4206.53
403.45	3280.85
403.66	3450.83
403.87	3622.86
404.07	3725.26
404.28	3370.96
404.49	3499.98
404.70	3540.94
404.90	3540.94
405.11	3133.39
405.32	3321.81
405.52	3223.50
405.73	3370.96
405.94	3051.47
406.15	3217.36
406.35	3604.42
406.56	3596.23
406.77	3160.02
406.98	3143.63
407.18	3303.37
407.39	3762.12
407.60	3209.17
407.80	3254.22
408.01	3368.91
408.22	3594.19
408.43	3088.34
408.63	3243.98
408.84	3631.05
409.05	3657.67
409.25	3082.19
409.46	3221.45
409.67	3321.81
409.88	3346.38
410.08	3205.07
410.29	3114.96
410.50	3655.62
410.70	3618.76
410.91	3114.96
411.12	3207.12
411.32	3448.78
411.53	3223.50
411.74	3176.40
411.95	3190.74
412.15	3504.07
412.36	3610.57
412.57	3235.79
412.77	3373.00
412.98	3344.33
413.19	3358.67
413.39	3190.74
413.60	3178.45
413.81	3659.72
414.01	3233.74
414.22	3237.84
414.43	3377.10
414.63	3319.76
414.84	3610.57
415.05	3162.06
415.25	2992.08
415.46	3575.75
415.67	3282.89
415.87	3200.98
416.08	3114.96
416.29	3280.85
416.49	3567.56
416.70	3205.07
416.91	3145.68
417.11	3403.72
417.32	3723.21
417.53	3243.98
417.73	3198.93
417.94	3405.77
418.15	3538.89
418.35	3209.17
418.56	3180.50
418.77	4032.45
418.97	3456.97
419.18	3258.32
419.38	2846.68
419.59	3436.49
419.80	3702.73
420.00	3098.58
420.21	3186.64
420.42	3819.46
420.62	3581.90
420.83	3127.25
421.04	3030.99
421.24	3446.73
421.45	3608.52
421.65	3200.98
421.86	3176.40
422.07	3725.26
422.27	3538.89
422.48	3071.95
422.69	2949.08
422.89	3463.12
423.10	3289.04
423.30	3207.12
423.51	3200.98
423.72	3608.52
423.92	3641.29
424.13	3082.19
424.33	3215.31
424.54	3592.14
424.75	3483.59
424.95	3311.57
425.16	3065.81
425.36	3373.00
425.57	3622.86
425.78	3264.46
425.98	3231.69
426.19	3297.23
426.39	3243.98
426.60	3270.61
426.81	3282.89
427.01	3583.95
427.22	3311.57
427.42	2922.45
427.63	3108.82
427.83	3618.76
428.04	3786.69
428.25	3272.65
428.45	3213.26
428.66	3696.58
428.86	3383.24
429.07	3239.89
429.28	3157.97
429.48	3475.40
429.69	3278.80
429.89	3291.09
430.10	3133.39
430.30	3620.81
430.51	3698.63
430.71	3069.91
430.92	3207.12
431.13	3319.76
431.33	3557.32
431.54	3262.41
431.74	3315.66
431.95	3975.11
432.15	3231.69
432.36	3143.63
432.56	3258.32
432.77	3907.52
432.98	3801.03
433.18	3241.93
433.39	3024.85
433.59	3368.91
433.80	3882.95
434.00	3334.09
434.21	3211.22
434.41	3286.99
434.62	3946.44
434.82	3098.58
435.03	3110.86
435.23	3499.98
435.44	3100.62
435.64	3147.73
435.85	3170.26
436.06	3596.23
436.26	3669.96
436.47	3135.44
436.67	3129.30
436.88	3327.95
437.08	3700.68
437.29	3272.65
437.49	3256.27
437.70	3745.73
437.90	3379.15
438.11	3373.00
438.31	3262.41
438.52	3700.68
438.72	3663.82
438.93	3545.03
439.13	3282.89
439.34	3592.14
439.54	3330.00
439.75	3246.03
439.95	3301.33
440.16	3297.23
440.36	3385.29
440.57	3139.54
440.77	3203.02
440.98	3473.36
441.18	3559.37
441.39	3024.85
441.59	3131.34
441.80	3997.64
442.00	3477.45
442.21	3196.88
442.41	3024.85
442.62	3663.82
442.82	3387.34
443.02	3143.63
443.23	3264.46
443.43	3393.48
443.64	3708.87
443.84	3004.37
444.05	3188.69
444.25	3413.96
444.46	3336.14
444.66	3117.01
444.87	3432.40
445.07	3143.63
445.28	3323.85
445.48	3401.68
445.69	3211.22
445.89	3987.40
446.09	3350.48
446.30	3444.68
446.50	3549.13
446.71	4992.95
446.91	6244.26
447.12	6829.98
447.32	7165.84
447.53	7384.98
447.73	6320.03
447.93	5384.11
448.14	5175.22
448.34	5449.64
448.55	4540.35
448.75	4360.13
448.96	4192.19
449.16	4198.34
449.36	4016.07
449.57	3422.16
449.77	3209.17
449.98	3362.76
450.18	3590.09
450.39	3114.96
450.59	3377.10
450.79	3510.22
451.00	3327.95
451.20	3422.16
451.41	3213.26
451.61	3508.17
451.81	3479.50
452.02	3106.77
452.22	3188.69
452.43	3307.47
452.63	3241.93
452.84	3205.07
453.04	3164.11
453.24	3475.40
453.45	3311.57
453.65	3182.54
453.86	3174.35
454.06	3418.06
454.26	3516.36
454.47	3149.78
454.67	3456.97
454.87	3532.75
455.08	3362.76
455.28	3182.54
455.49	3344.33
455.69	3174.35
455.89	3925.96
456.10	3299.28
456.30	3065.81
456.51	3639.24
456.71	3567.56
456.91	3286.99
457.12	3117.01
457.32	3526.60
457.52	3135.44
457.73	3348.43
457.93	3389.39
458.14	3262.41
458.34	3018.71
458.54	3200.98
458.75	3127.25
458.95	3641.29
459.15	3518.41
459.36	3215.31
459.56	3133.39
459.76	3960.77
459.97	3418.06
460.17	3127.25
460.37	3211.22
460.58	3532.75
460.78	3602.38
460.99	3250.13
461.19	3229.65
461.39	3334.09
461.60	3348.43
461.80	3229.65
462.00	3008.47
462.21	3432.40
462.41	3213.26
462.61	3067.86
462.82	3028.95
463.02	3508.17
463.22	3430.35
463.43	3213.26
463.63	3053.52
463.83	3751.88
464.04	3467.21
464.24	3080.14
464.44	3131.34
464.64	3549.13
464.85	3637.19
465.05	3164.11
465.25	3209.17
465.46	3291.09
465.66	3659.72
465.86	3319.76
466.07	3127.25
466.27	3381.20
466.47	3043.28
466.68	3055.57
466.88	3266.51
467.08	3540.94
467.29	3723.21
467.49	3205.07
467.69	3305.42
467.89	3590.09
468.10	3428.30
468.30	3254.22
468.50	3295.18
468.71	3659.72
468.91	3106.77
469.11	3301.33
469.31	3235.79
469.52	3252.17
469.72	3841.99
469.92	3479.50
470.13	3172.30
470.33	3430.35
470.53	3471.31
470.73	3516.36
470.94	3815.37
471.14	4136.90
471.34	4499.39
471.54	4167.62
471.75	3860.42
471.95	3700.68
472.15	3755.97
472.36	3596.23
472.56	3622.86
472.76	3960.77
472.96	3925.96
473.17	3375.05
473.37	3293.13
473.57	3401.68
473.77	3647.43
473.98	3323.85
474.18	3041.23
474.38	4149.18
474.58	3323.85
474.79	3043.28
474.99	3323.85
475.19	3688.39
475.39	3153.87
475.60	3219.41
475.80	3076.05
476.00	3592.14
476.20	3416.01
476.41	3293.13
476.61	3209.17
476.81	3715.02
477.01	3305.42
477.21	3540.94
477.42	3282.89
477.62	3221.45
477.82	3553.23
478.02	3135.44
478.23	3176.40
478.43	3227.60
478.63	3303.37
478.83	3190.74
479.03	3278.80
479.24	3768.26
479.44	3887.04
479.64	3096.53
479.84	2967.51
480.04	3327.95
480.25	3631.05
480.45	3108.82
480.65	3147.73
480.85	3817.41
481.06	3323.85
481.26	3137.49
481.46	3221.45
481.66	3514.31
481.86	3219.41
482.06	3344.33
482.27	3229.65
482.47	3418.06
482.67	3561.42
482.87	3233.74
483.07	3219.41
483.28	3254.22
483.48	3254.22
483.68	3123.15
483.88	3071.95
484.08	2992.08
484.29	3160.02
484.49	3315.66
484.69	2936.79
484.89	3731.40
485.09	3721.16
485.29	3121.10
485.50	3330.00
485.70	3385.29
485.90	3702.73
486.10	3330.00
486.30	3184.59
486.50	3792.84
486.71	3573.71
486.91	3235.79
487.11	3256.27
487.31	3221.45
487.51	3491.79
487.71	3227.60
487.91	3065.81
488.12	3327.95
488.32	2914.26
488.52	3139.54
488.72	2846.68
488.92	3442.64
489.12	3663.82
489.32	3289.04
489.53	3149.78
489.73	3086.29
489.93	3829.70
490.13	3145.68
490.33	3037.14
490.53	3508.17
490.73	3665.86
490.94	3043.28
491.14	3160.02
491.34	3553.23
491.54	3485.64
491.74	4159.42
491.94	4425.66
492.14	5136.31
492.34	5093.30
492.54	4708.28
492.75	4130.75
492.95	4386.75
493.15	4136.90
493.35	3825.61
493.55	3868.61
493.75	3766.21
493.95	3979.20
494.15	3397.58
494.35	3252.17
494.56	3493.83
494.76	3332.05
494.96	3278.80
495.16	3172.30
495.36	3442.64
495.56	3401.68
495.76	3221.45
495.96	3153.87
496.16	3301.33
496.36	3827.65
496.56	3131.34
496.77	3256.27
496.97	3413.96
497.17	3706.82
497.37	2975.70
497.57	3270.61
497.77	3430.35
497.97	3131.34
498.17	3151.82
498.37	3246.03
498.57	3672.01
498.77	3368.91
498.97	3334.09
499.17	3549.13
499.38	3438.54
499.58	3540.94
499.78	3405.77
499.98	3389.39
500.18	3354.57
500.38	3286.99
500.58	3373.00
500.78	3745.73
500.98	6393.76
501.18	7892.87
501.38	9041.78
501.58	9836.39
501.78	9979.75
501.98	8470.40
502.18	7143.32
502.38	6129.57
502.58	6358.94
502.78	5449.64
502.98	5232.56
503.18	5150.64
503.38	4888.50
503.59	4169.66
503.79	3932.10
503.99	3778.50
504.19	3979.20
504.39	3930.05
504.59	3618.76
504.79	3444.68
504.99	4005.83
505.19	3579.85
505.39	3282.89
505.59	3590.09
505.79	3749.83
505.99	3604.42
506.19	3131.34
506.39	3420.11
506.59	3354.57
506.79	3301.33
506.99	3536.84
507.19	3200.98
507.39	3426.25
507.59	3114.96
507.79	3186.64
507.99	3137.49
508.19	3385.29
508.39	3332.05
508.59	3166.16
508.79	3258.32
508.99	3889.09
509.19	3250.13
509.39	3241.93
509.59	3168.21
509.79	3311.57
509.99	3448.78
510.19	3319.76
510.39	3311.57
510.59	3461.07
510.79	3424.20
510.99	3016.66
511.19	3059.67
511.39	3788.74
511.59	3600.33
511.79	3313.61
511.99	3192.78
512.19	3801.03
512.38	3581.90
512.58	3157.97
512.78	3090.38
512.98	3710.92
513.18	3796.93
513.38	3028.95
513.58	3254.22
513.78	3422.16
513.98	3463.12
514.18	3239.89
514.38	3147.73
514.58	3499.98
514.78	3321.81
514.98	3071.95
515.18	3254.22
515.38	3117.01
515.58	3854.28
515.78	3172.30
515.98	3100.62
516.18	3567.56
516.38	3461.07
516.57	3131.34
516.77	3139.54
516.97	3581.90
517.17	3268.56
517.37	2947.03
517.57	3188.69
517.77	3495.88
517.97	3360.72
518.17	3219.41
518.37	3022.80
518.57	3364.81
518.77	3344.33
518.97	3233.74
519.16	3157.97
519.36	3686.34
519.56	3321.81
519.76	3086.29
519.96	3266.51
520.16	3778.50
520.36	3149.78
520.56	3307.47
520.76	3096.53
520.96	3442.64
521.16	3672.01
521.35	3471.31
521.55	3330.00
521.75	3561.42
521.95	3237.84
522.15	3078.10
522.35	3119.06
522.55	3274.70
522.75	3565.51
522.95	3049.43
523.14	3037.14
523.34	3471.31
523.54	3350.48
523.74	3278.80
523.94	3225.55
524.14	3121.10
524.34	3524.55
524.54	3438.54
524.73	3243.98
524.93	3600.33
525.13	3502.03
525.33	3018.71
525.53	3413.96
525.73	3639.24
525.93	3475.40
526.13	3237.84
526.32	3090.38
526.52	3700.68
526.72	3639.24
526.92	3178.45
527.12	3061.71
527.32	3114.96
527.52	3524.55
527.71	3147.73
527.91	3160.02
528.11	3254.22
528.31	3352.52
528.51	3172.30
528.71	3278.80
528.90	3551.18
529.10	3657.67
529.30	3157.97
529.50	2955.22
529.70	3479.50
529.90	3311.57
530.09	3160.02
530.29	2985.94
530.49	3299.28
530.69	4063.17
530.89	3342.28
531.09	3289.04
531.28	3364.81
531.48	3682.25
531.68	3248.08
531.88	3164.11
532.08	3598.28
532.28	3321.81
532.47	3190.74
532.67	3317.71
532.87	3499.98
533.07	3180.50
533.27	3182.54
533.46	3215.31
533.66	3477.45
533.86	3336.14
534.06	3248.08
534.26	3172.30
534.45	3373.00
534.65	3618.76
534.85	3286.99
535.05	3049.43
535.25	3618.76
535.44	3059.67
535.64	3211.22
535.84	3207.12
536.04	3368.91
536.24	3352.52
536.43	3094.48
536.63	3141.58
536.83	3452.88
537.03	3479.50
537.22	3043.28
537.42	3022.80
537.62	3559.37
537.82	3264.46
538.02	3344.33
538.21	3248.08
538.41	4130.75
538.61	3581.90
538.81	3270.61
539.00	3266.51
539.20	3141.58
539.40	3274.70
539.60	3074.00
539.79	3442.64
539.99	3483.59
540.19	3231.69
540.39	3071.95
540.58	3188.69
540.78	3651.53
540.98	3448.78
541.18	3456.97
541.37	3188.69
541.57	3377.10
541.77	3499.98
541.97	3084.24
542.16	3098.58
542.36	3430.35
542.56	3631.05
542.76	3389.39
542.95	3227.60
543.15	3495.88
543.35	3575.75
543.54	3147.73
543.74	3086.29
543.94	3762.12
544.14	3293.13
544.33	3282.89
544.53	3176.40
544.73	3426.25
544.93	3452.88
545.12	3151.82
545.32	3233.74
545.52	3452.88
545.71	3190.74
545.91	3188.69
546.11	3123.15
546.30	3258.32
546.50	3389.39
546.70	3209.17
546.90	3233.74
547.09	3035.09
547.29	3477.45
547.49	3338.19
547.68	3153.87
547.88	3252.17
548.08	3606.47
548.27	3489.74
548.47	3129.30
548.67	3360.72
548.87	3573.71
549.06	3151.82
549.26	3135.44
549.46	3508.17
549.65	3303.37
549.85	3121.10
550.05	3135.44
550.24	3180.50
550.44	3469.26
550.64	3213.26
550.83	3256.27
551.03	3772.36
551.23	3633.10
551.42	3254.22
551.62	3272.65
551.82	3463.12
552.01	3352.52
552.21	3510.22
552.41	3229.65
552.60	3723.21
552.80	3487.69
553.00	3121.10
553.19	3250.13
553.39	3758.02
553.59	3139.54
553.78	3334.09
553.98	3108.82
554.17	3172.30
554.37	3526.60
554.57	3221.45
554.76	3057.62
554.96	3348.43
555.16	3434.44
555.35	3282.89
555.55	3381.20
555.75	3536.84
555.94	3571.66
556.14	3053.52
556.33	3229.65
556.53	3327.95
556.73	3442.64
556.92	3119.06
557.12	3182.54
557.32	3917.76
557.51	3747.78
557.71	3172.30
557.90	3366.86
558.10	3753.93
558.30	3334.09
558.49	3225.55
558.69	3213.26
558.88	3512.27
559.08	3467.21
559.28	3135.44
559.47	3186.64
559.67	3579.85
559.86	3936.20
560.06	3123.15
560.26	3180.50
560.45	3469.26
560.65	3389.39
560.84	3411.92
561.04	3065.81
561.24	3606.47
561.43	3139.54
561.63	3422.16
561.82	3266.51
562.02	3571.66
562.22	3270.61
562.41	3084.24
562.61	3211.22
562.80	3207.12
563.00	3956.68
563.19	3190.74
563.39	3205.07
563.59	3557.32
563.78	3262.41
563.98	2918.36
564.17	3114.96
564.37	3092.43
564.56	3440.59
564.76	3098.58
564.96	3299.28
565.15	3368.91
565.35	3960.77
565.54	3135.44
565.74	3246.03
565.93	3547.08
566.13	3405.77
566.32	3207.12
566.52	3401.68
566.71	3407.82
566.91	3590.09
567.11	3313.61
567.30	3074.00
567.50	3491.79
567.69	3491.79
567.89	3123.15
568.08	3149.78
568.28	3510.22
568.47	3131.34
568.67	3170.26
568.86	3200.98
569.06	3608.52
569.25	3295.18
569.45	3094.48
569.64	3182.54
569.84	3254.22
570.04	3524.55
570.23	3135.44
570.43	3196.88
570.62	3477.45
570.82	3704.78
571.01	3008.47
571.21	3166.16
571.40	3239.89
571.60	3481.55
571.79	3291.09
571.99	3182.54
572.18	3252.17
572.38	3579.85
572.57	3227.60
572.77	3213.26
572.96	4009.92
573.16	3506.12
573.35	3205.07
573.55	3332.05
573.74	3577.80
573.94	3450.83
574.13	3184.59
574.33	3401.68
574.52	3766.21
574.71	3436.49
574.91	3319.76
575.10	3041.23
575.30	3299.28
575.49	3293.13
575.69	3067.86
575.88	3053.52
576.08	3319.76
576.27	3672.01
576.47	3069.91
576.66	3286.99
576.86	3770.31
577.05	3600.33
577.25	3299.28
577.44	3434.44
577.64	3311.57
577.83	3616.71
578.02	3147.73
578.22	3319.76
578.41	3856.33
578.61	3303.37
578.80	3059.67
579.00	3205.07
579.19	3444.68
579.39	3549.13
579.58	3291.09
579.77	3188.69
579.97	3583.95
580.16	3663.82
580.36	3311.57
580.55	3248.08
580.75	3618.76
580.94	3401.68
581.13	3295.18
581.33	3364.81
581.52	3491.79
581.72	3858.37
581.91	3362.76
582.11	3119.06
582.30	3592.14
582.49	3475.40
582.69	3526.60
582.88	3225.55
583.08	3512.27
583.27	3672.01
583.47	3325.90
583.66	3143.63
583.85	3217.36
584.05	3366.86
584.24	3313.61
584.44	3172.30
584.63	3583.95
584.82	3729.35
585.02	3440.59
585.21	3342.28
585.41	3545.03
585.60	3450.83
585.79	3463.12
585.99	3477.45
586.18	3493.83
586.37	4478.91
586.57	6576.03
586.76	18517.73
586.96	37141.96
587.15	50007.30
587.34	57754.77
587.54	61162.59
587.73	53912.78
587.93	39181.74
588.12	30191.16
588.31	24661.64
588.51	22275.76
588.70	20428.49
588.89	17749.75
589.09	15283.99
589.28	13367.09
589.47	10096.49
589.67	7835.53
589.86	6182.82
590.06	4980.66
590.25	4507.58
590.44	3813.32
590.64	3518.41
590.83	3614.66
591.02	3649.48
591.22	3123.15
591.41	3237.84
591.60	3403.72
591.80	4001.73
591.99	3076.05
592.18	3223.50
592.38	3598.28
592.57	3360.72
592.76	3215.31
592.96	3243.98
593.15	3399.63
593.34	3751.88
593.54	3133.39
593.73	3325.90
593.92	3583.95
594.12	3516.36
594.31	3270.61
594.50	3323.85
594.70	3526.60
594.89	4024.26
595.08	3117.01
595.28	3286.99
595.47	4091.84
595.66	3690.44
595.86	3131.34
596.05	3016.66
596.24	3344.33
596.43	3782.60
596.63	3278.80
596.82	3377.10
597.01	3631.05
597.21	3858.37
597.40	3074.00
597.59	3213.26
597.79	3397.58
597.98	3549.13
598.17	3246.03
598.36	3192.78
598.56	3602.38
598.75	3364.81
598.94	3303.37
599.14	3213.26
599.33	3366.86
599.52	3573.71
599.71	3327.95
599.91	3198.93
600.10	3524.55
600.29	3508.17
600.48	3223.50
600.68	3405.77
600.87	3524.55
601.06	3229.65
601.26	3334.09
601.45	3295.18
601.64	3405.77
601.83	3782.60
602.03	3041.23
602.22	3155.92
602.41	3674.06
602.60	4087.75
602.80	3209.17
602.99	3332.05
603.18	3321.81
603.37	3452.88
603.57	3112.91
603.76	3188.69
603.95	3657.67
604.14	3360.72
604.34	3108.82
604.53	3112.91
604.72	3452.88
604.91	3594.19
605.10	3139.54
605.30	3074.00
605.49	3897.28
605.68	3622.86
605.87	3192.78
606.07	3180.50
606.26	3540.94
606.45	3508.17
606.64	3293.13
606.84	3057.62
607.03	3379.15
607.22	3733.45
607.41	3284.94
607.60	3241.93
607.80	3704.78
607.99	3442.64
608.18	3141.58
608.37	3229.65
608.56	3264.46
608.76	3643.34
608.95	3321.81
609.14	3149.78
609.33	3672.01
609.52	3753.93
609.72	3291.09
609.91	3205.07
610.10	3430.35
610.29	3770.31
610.48	3215.31
610.68	3299.28
610.87	3387.34
611.06	3583.95
611.25	3264.46
611.44	3289.04
611.63	3295.18
611.83	3801.03
612.02	3121.10
612.21	3354.57
612.40	3004.37
612.59	3198.93
612.79	3102.67
612.98	3237.84
613.17	3784.65
613.36	3379.15
613.55	3346.38
613.74	3192.78
613.93	3436.49
614.13	3499.98
614.32	3289.04
614.51	3164.11
614.70	3321.81
614.89	3438.54
615.08	3313.61
615.28	3549.13
615.47	3231.69
615.66	3540.94
615.85	3174.35
616.04	3198.93
616.23	3487.69
616.42	3395.53
616.62	3184.59
616.81	3270.61
617.00	3397.58
617.19	3624.90
617.38	3211.22
617.57	3246.03
617.76	3592.14
617.95	3579.85
618.15	3373.00
618.34	3418.06
618.53	3178.45
618.72	3659.72
618.91	3276.75
619.10	3215.31
619.29	3442.64
619.48	3430.35
619.68	3061.71
619.87	3141.58
620.06	3149.78
620.25	3559.37
620.44	3155.92
620.63	3149.78
620.82	3471.31
621.01	3467.21
621.20	3219.41
621.39	3270.61
621.59	3588.04
621.78	3393.48
621.97	3217.36
622.16	3305.42
622.35	3663.82
622.54	3639.24
622.73	3258.32
622.92	2963.41
623.11	3737.54
623.30	3373.00
623.49	3272.65
623.68	3016.66
623.88	3762.12
624.07	3327.95
624.26	3082.19
624.45	3172.30
624.64	3348.43
624.83	3465.16
625.02	3076.05
625.21	3203.02
625.40	3524.55
625.59	3813.32
625.78	3262.41
625.97	3258.32
626.16	3678.15
626.35	3657.67
626.54	3215.31
626.74	3395.53
626.93	3373.00
627.12	3395.53
627.31	3211.22
627.50	3186.64
627.69	3577.80
627.88	3243.98
628.07	3082.19
628.26	2969.55
628.45	3295.18
628.64	3246.03
628.83	3209.17
629.02	3018.71
629.21	3573.71
629.40	3532.75
629.59	3088.34
629.78	3139.54
629.97	3364.81
630.16	3504.07
630.35	3182.54
630.54	3309.52
630.73	3342.28
630.92	3426.25
631.11	3117.01
631.30	3200.98
631.49	3684.30
631.68	3338.19
631.87	3319.76
632.06	3114.96
632.25	3964.87
632.44	3362.76
632.63	3198.93
632.82	3252.17
633.01	3307.47
633.20	3485.64
633.39	3180.50
633.58	2936.79
633.77	3571.66
633.96	3530.70
634.15	3352.52
634.34	3305.42
634.53	3536.84
634.72	3327.95
634.91	3074.00
635.10	3147.73
635.29	3512.27
635.48	3489.74
635.67	3010.51
635.86	3026.90
636.05	3760.07
636.24	3471.31
636.43	3133.39
636.62	3311.57
636.81	2987.99
637.00	3508.17
637.19	3117.01
637.38	3219.41
637.57	3272.65
637.76	3446.73
637.95	3409.87
638.14	3332.05
638.33	3450.83
638.52	3506.12
638.71	3067.86
638.89	3035.09
639.08	4081.60
639.27	3614.66
639.46	3385.29
639.65	3649.48
639.84	3901.38
640.03	3936.20
640.22	3631.05
640.41	3461.07
640.60	3461.07
640.79	3606.47
640.98	3389.39
641.17	3409.87
641.36	3616.71
641.55	3669.96
641.74	3098.58
641.92	3078.10
642.11	3198.93
642.30	3364.81
642.49	2990.03
642.68	3256.27
642.87	3538.89
643.06	3608.52
643.25	3092.43
643.44	3043.28
643.63	3432.40
643.82	3618.76
644.00	3053.52
644.19	3184.59
644.38	3278.80
644.57	3538.89
644.76	3233.74
644.95	3225.55
645.14	3444.68
645.33	3381.20
645.52	3155.92
645.71	3000.27
645.89	3139.54
646.08	3348.43
646.27	3170.26
646.46	3407.82
646.65	3096.53
646.84	3528.65
647.03	3069.91
647.22	3321.81
647.40	3471.31
647.59	3428.30
647.78	2926.55
647.97	3276.75
648.16	3151.82
648.35	3805.13
648.54	3465.16
648.73	3229.65
648.91	3645.38
649.10	3428.30
649.29	3123.15
649.48	3094.48
649.67	3567.56
649.86	3459.02
650.05	3219.41
650.23	3311.57
650.42	3250.13
650.61	3753.93
650.80	3432.40
650.99	3436.49
651.18	3688.39
651.36	3704.78
651.55	3100.62
651.74	3401.68
651.93	3319.76
652.12	3426.25
652.31	3176.40
652.49	3182.54
652.68	3295.18
652.87	3667.91
653.06	3348.43
653.25	3524.55
653.44	3467.21
653.62	3780.55
653.81	3241.93
654.00	3190.74
654.19	3602.38
654.38	3958.72
654.56	3272.65
654.75	3092.43
654.94	3659.72
655.13	3520.46
655.32	3194.83
655.51	3305.42
655.69	3344.33
655.88	3631.05
656.07	3090.38
656.26	3194.83
656.45	3227.60
656.63	3459.02
656.82	3160.02
657.01	3471.31
657.20	3385.29
657.38	3780.55
657.57	3147.73
657.76	2973.65
657.95	3604.42
658.14	3231.69
658.32	3307.47
658.51	3106.77
658.70	3409.87
658.89	3493.83
659.08	3264.46
659.26	3420.11
659.45	3168.21
659.64	3495.88
659.83	3157.97
660.01	3573.71
660.20	3467.21
660.39	3772.36
660.58	2836.44
660.76	3266.51
660.95	3117.01
661.14	3459.02
661.33	3129.30
661.51	3119.06
661.70	3293.13
661.89	3559.37
662.08	3270.61
662.26	3020.75
662.45	3217.36
662.64	3872.71
662.83	3278.80
663.01	3098.58
663.20	3342.28
663.39	3885.00
663.58	3188.69
663.76	3172.30
663.95	3446.73
664.14	3229.65
664.32	3278.80
664.51	2996.18
664.70	3094.48
664.89	3555.27
665.07	3012.56
665.26	3348.43
665.45	3114.96
665.64	3598.28
665.82	3258.32
666.01	3319.76
666.20	3119.06
666.38	3629.00
666.57	3600.33
666.76	5699.50
666.95	12554.05
667.13	18984.67
667.32	22615.72
667.51	25118.34
667.69	25615.99
667.88	20903.62
668.07	15415.06
668.25	13358.90
668.44	11976.52
668.63	10121.06
668.81	8951.67
669.00	7831.43
669.19	7079.83
669.38	6315.94
669.56	5392.30
669.75	4777.91
669.94	4335.55
670.12	3823.56
670.31	3467.21
670.50	3487.69
670.68	3661.77
670.87	3467.21
671.06	3117.01
671.24	3305.42
671.43	3743.69
671.62	3448.78
671.80	3194.83
671.99	3270.61
672.18	3446.73
672.36	3559.37
672.55	3307.47
672.74	3286.99
672.92	3350.48
673.11	3477.45
673.29	3006.42
673.48	3381.20
673.67	3356.62
673.85	3676.10
674.04	3039.19
674.23	3379.15
674.41	3934.15
674.60	3149.78
674.79	2985.94
674.97	2959.31
675.16	3631.05
675.34	3715.02
675.53	3184.59
675.72	3223.50
675.90	3850.18
676.09	3338.19
676.28	3250.13
676.46	3026.90
676.65	3534.79
676.83	3276.75
677.02	3258.32
677.21	3295.18
677.39	3540.94
677.58	3289.04
677.77	3196.88
677.95	3090.38
678.14	3370.96
678.32	3360.72
678.51	3250.13
678.70	3493.83
678.88	3344.33
679.07	3526.60
679.25	3180.50
679.44	3182.54
679.63	3139.54
679.81	3532.75
680.00	3418.06
680.18	3231.69
680.37	3809.22
680.55	3536.84
680.74	3110.86
680.93	2871.25
681.11	3467.21
681.30	3454.92
681.48	3129.30
681.67	3149.78
681.85	3532.75
682.04	3176.40
682.23	3299.28
682.41	3291.09
682.60	3338.19
682.78	3385.29
682.97	3151.82
683.15	3280.85
683.34	3532.75
683.53	3782.60
683.71	3043.28
683.90	3250.13
684.08	3870.66
684.27	3332.05
684.45	3227.60
684.64	3268.56
684.82	3393.48
685.01	3610.57
685.19	3080.14
685.38	3452.88
685.57	3518.41
685.75	3227.60
685.94	3176.40
686.12	3069.91
686.31	3368.91
686.49	3755.97
686.68	3024.85
686.86	3200.98
687.05	3383.24
687.23	3778.50
687.42	3264.46
687.60	3057.62
687.79	3786.69
687.97	3776.45
688.16	3313.61
688.34	3332.05
688.53	3131.34
688.71	3598.28
688.90	3506.12
689.08	3221.45
689.27	3082.19
689.45	3624.90
689.64	3332.05
689.82	3237.84
690.01	3542.99
690.19	3485.64
690.38	3270.61
690.56	3305.42
690.75	3303.37
690.93	3399.63
691.12	3186.64
691.30	3286.99
691.49	3373.00
691.67	3459.02
691.86	3491.79
692.04	3219.41
692.23	3350.48
692.41	3311.57
692.60	3530.70
692.78	3385.29
692.97	3405.77
693.15	3540.94
693.34	3463.12
693.52	3319.76
693.71	3264.46
693.89	3352.52
694.08	3067.86
694.26	3258.32
694.44	3508.17
694.63	3602.38
694.81	3114.96
695.00	3233.74
695.18	3622.86
695.37	3856.33
695.55	3303.37
695.74	3305.42
695.92	3321.81
696.10	3721.16
696.29	3123.15
696.47	3168.21
696.66	3129.30
696.84	3299.28
697.03	3278.80
697.21	3409.87
697.40	4839.35
697.58	3684.30
697.76	3141.58
697.95	3155.92
698.13	3266.51
698.32	3336.14
698.50	3157.97
698.68	3168.21
698.87	3545.03
699.05	3889.09
699.24	3176.40
699.42	3241.93
699.61	3497.93
699.79	3471.31
699.97	3237.84
700.16	3102.67
700.34	3155.92
700.53	3475.40
700.71	3471.31
700.89	3321.81
701.08	3336.14
701.26	3479.50
701.45	3508.17
701.63	3166.16
701.81	3264.46
702.00	3252.17
702.18	3272.65
702.37	3190.74
702.55	3645.38
702.73	3428.30
702.92	3108.82
703.10	3512.27
703.28	3585.99
703.47	3106.77
703.65	3430.35
703.84	3325.90
704.02	3373.00
704.20	3758.02
704.39	3196.88
704.57	3143.63
704.75	3604.42
704.94	3420.11
705.12	3354.57
705.30	4007.87
705.49	8302.47
705.67	14591.78
705.86	19261.15
706.04	21536.44
706.22	24180.37
706.41	22611.62
706.59	16793.34
706.77	13561.65
706.96	11790.16
707.14	10897.24
707.32	9205.62
707.51	8267.65
707.69	6760.34
707.87	5830.57
708.06	4857.78
708.24	4257.73
708.42	4091.84
708.61	4265.92
708.79	3401.68
708.97	3403.72
709.16	3561.42
709.34	3440.59
709.52	3139.54
709.71	3225.55
709.89	3571.66
710.07	3213.26
710.26	3145.68
710.44	3147.73
710.62	3594.19
710.80	3303.37
710.99	3344.33
711.17	3307.47
711.35	3330.00
711.54	3221.45
711.72	3358.67
711.90	3229.65
712.09	3459.02
712.27	3258.32
712.45	3356.62
712.63	3196.88
712.82	3588.04
713.00	3526.60
713.18	3250.13
713.37	3475.40
713.55	3622.86
713.73	3563.47
713.91	3274.70
714.10	3188.69
714.28	3348.43
714.46	3540.94
714.65	3311.57
714.83	3198.93
715.01	3393.48
715.19	3499.98
715.38	3194.83
715.56	3375.05
715.74	3280.85
715.92	3282.89
716.11	3534.79
716.29	2877.40
716.47	3489.74
716.65	3375.05
716.84	3108.82
717.02	3297.23
717.20	3153.87
717.38	3309.52
717.57	3364.81
717.75	3295.18
717.93	3278.80
718.11	3626.95
718.30	3082.19
718.48	3186.64
718.66	3694.54
718.84	3682.25
719.03	3200.98
719.21	3090.38
719.39	3780.55
719.57	3520.46
719.75	3336.14
719.94	3192.78
720.12	3428.30
720.30	3489.74
720.48	3231.69
720.67	3180.50
720.85	3282.89
721.03	3344.33
721.21	3174.35
721.39	3272.65
721.58	3618.76
721.76	3395.53
721.94	3270.61
722.12	3391.44
722.30	3663.82
722.49	3291.09
722.67	3268.56
722.85	3227.60
723.03	3078.10
723.21	3352.52
723.40	3252.17
723.58	3344.33
723.76	3524.55
723.94	3682.25
724.12	3188.69
724.30	3393.48
724.49	3616.71
724.67	3225.55
724.85	3284.94
725.03	3174.35
725.21	3508.17
725.40	3729.35
725.58	3200.98
725.76	3514.31
725.94	3504.07
726.12	3248.08
726.30	3237.84
726.49	3184.59
726.67	3256.27
726.85	3526.60
727.03	3930.05
727.21	5001.14
727.39	6094.76
727.57	6492.06
727.76	6733.72
727.94	6766.49
728.12	5869.48
728.30	4958.13
728.48	4872.12
728.66	4538.30
728.84	4388.80
729.03	3934.15
729.21	3712.97
729.39	3581.90
729.57	3481.55
729.75	3516.36
729.93	3481.55
730.11	3178.45
730.30	3364.81
730.48	3366.86
730.66	3241.93
730.84	3332.05
731.02	3469.26
731.20	3383.24
731.38	3262.41
731.56	3074.00
731.74	3155.92
731.93	3536.84
732.11	3379.15
732.29	3184.59
732.47	3571.66
732.65	3467.21
732.83	3428.30
733.01	3313.61
733.19	3250.13
733.37	3563.47
733.56	3198.93
733.74	3131.34
733.92	3743.69
734.10	3286.99
734.28	3332.05
734.46	3028.95
734.64	3416.01
734.82	3352.52
735.00	3225.55
735.18	3137.49
735.36	3487.69
735.54	3389.39
735.73	3139.54
735.91	3356.62
736.09	3721.16
736.27	3461.07
736.45	3311.57
736.63	2977.75
736.81	3348.43
736.99	3661.77
737.17	3436.49
737.35	3149.78
737.53	3413.96
737.71	3340.24
737.89	3368.91
738.07	3196.88
738.25	3227.60
738.43	3182.54
738.61	3278.80
738.80	3114.96
738.98	3235.79
739.16	3291.09
739.34	3182.54
739.52	3491.79
739.70	3393.48
739.88	3549.13
740.06	3352.52
740.24	2967.51
740.42	3661.77
740.60	3147.73
740.78	3149.78
740.96	2955.22
741.14	3362.76
741.32	3420.11
741.50	2977.75
741.68	3512.27
741.86	3745.73
742.04	3200.98
742.22	3133.39
742.40	3190.74
742.58	3557.32
742.76	3256.27
742.94	3475.40
743.12	3057.62
743.30	3387.34
743.48	3592.14
743.66	3055.57
743.84	3203.02
744.02	3364.81
744.20	3469.26
744.38	3190.74
744.56	3200.98
744.74	3848.13
744.92	3598.28
745.10	3450.83
745.28	3264.46
745.46	3811.27
745.64	3346.38
745.82	3323.85
746.00	3207.12
746.18	3557.32
746.36	3229.65
746.54	3229.65
746.72	3301.33
746.90	3241.93
747.08	3682.25
747.26	3213.26
747.44	3215.31
747.62	3600.33
747.80	3499.98
747.98	3262.41
748.15	3237.84
748.33	3817.41
748.51	3430.35
748.69	3327.95
748.87	3114.96
749.05	3381.20
749.23	3393.48
749.41	3117.01
749.59	3200.98
749.77	3573.71
749.95	3286.99
750.13	3174.35
750.31	3405.77
750.49	3403.72
750.67	3614.66
750.85	3317.71
751.03	3254.22
751.20	3882.95
751.38	3516.36
751.56	3303.37
751.74	3274.70
751.92	3434.44
752.10	3239.89
752.28	3446.73
752.46	3151.82
752.64	3411.92
752.82	3424.20
753.00	3309.52
753.18	3127.25
753.35	3436.49
753.53	3362.76
753.71	3205.07
753.89	3266.51
754.07	3448.78
754.25	3659.72
754.43	3364.81
754.61	3114.96
754.79	3639.24
754.97	3315.66
755.14	3389.39
755.32	3137.49
755.50	3438.54
755.68	3524.55
755.86	3123.15
756.04	3104.72
756.22	2981.84
756.40	3563.47
756.57	3418.06
756.75	3149.78
756.93	3766.21
757.11	3674.06
757.29	3057.62
757.47	3098.58
757.65	3096.53
757.82	2969.55
758.00	3057.62
758.18	3080.14
758.36	3321.81
758.54	3721.16
758.72	3035.09
758.90	3293.13
759.07	3545.03
759.25	3200.98
759.43	3291.09
759.61	3028.95
759.79	4587.45
759.97	3706.82
760.15	3188.69
760.32	3252.17
760.50	3516.36
760.68	3778.50
760.86	3121.10
761.04	3434.44
761.22	3557.32
761.39	3510.22
761.57	3346.38
761.75	3221.45
761.93	3590.09
762.11	3401.68
762.28	3282.89
762.46	3182.54
762.64	3600.33
762.82	3209.17
763.00	3192.78
763.18	3430.35
763.35	3207.12
763.53	3516.36
763.71	3280.85
763.89	3198.93
764.07	3540.94
764.24	3491.79
764.42	3393.48
764.60	3213.26
764.78	3559.37
764.96	3590.09
765.13	3330.00
765.31	3133.39
765.49	3563.47
765.67	3198.93
765.84	3178.45
766.02	3164.11
766.20	3096.53
766.38	3549.13
766.56	3250.13
766.73	3336.14
766.91	3428.30
767.09	3434.44
767.27	3256.27
767.44	3010.51
767.62	3532.75
767.80	3483.59
767.98	3084.24
768.15	3192.78
768.33	3729.35
768.51	3606.47
768.69	3299.28
768.87	3080.14
769.04	3452.88
769.22	4059.07
769.40	3293.13
769.58	3340.24
769.75	3540.94
769.93	3737.54
770.11	3248.08
770.28	3141.58
770.46	3575.75
770.64	3542.99
770.82	3260.37
770.99	3086.29
771.17	3508.17
771.35	3360.72
771.53	3330.00
771.70	3205.07
771.88	3512.27
772.06	3471.31
772.23	3170.26
772.41	3215.31
772.59	3467.21
772.77	3213.26
772.94	3299.28
773.12	3254.22
773.30	3368.91
773.47	3426.25
773.65	3123.15
773.83	3352.52
774.01	3467.21
774.18	3059.67
774.36	3213.26
774.54	3041.23
774.71	3563.47
774.89	3074.00
775.07	3051.47
775.24	3215.31
775.42	3364.81
775.60	3860.42
775.78	3094.48
775.95	2987.99
776.13	3004.37
776.31	3190.74
776.48	3393.48
776.66	3338.19
776.84	3465.16
777.01	3221.45
777.19	3147.73
777.37	3172.30
777.54	3608.52
777.72	3807.17
777.90	3330.00
778.07	3184.59
778.25	4061.12
778.43	3672.01
778.60	3172.30
778.78	3307.47
778.96	3739.59
779.13	3141.58
779.31	3225.55
779.49	3360.72
779.66	3368.91
779.84	3401.68
780.01	3094.48
780.19	3106.77
780.37	3758.02
780.54	3555.27
780.72	3041.23
780.90	3248.08
781.07	3319.76
781.25	3280.85
781.43	3356.62
781.60	3190.74
781.78	3737.54
781.95	3422.16
782.13	3188.69
782.31	3141.58
782.48	3024.85
782.66	3434.44
782.83	3459.02
783.01	3282.89
783.19	3657.67
783.36	3336.14
783.54	3215.31
783.72	3258.32
783.89	3289.04
784.07	3542.99
784.24	3344.33
784.42	3354.57
784.60	3522.51
784.77	3526.60
784.95	2987.99
785.12	3186.64
785.30	3559.37
785.47	3278.80
785.65	3106.77
785.83	3221.45
786.00	3356.62
786.18	3405.77
786.35	3147.73
786.53	3067.86
786.71	3669.96
786.88	3481.55
787.06	3198.93
787.23	3174.35
787.41	3213.26
787.58	3360.72
787.76	3094.48
787.94	3246.03
788.11	3524.55
788.29	3227.60
788.46	3280.85
788.64	2992.08
788.81	3315.66
788.99	3071.95
789.16	3192.78
789.34	3217.36
789.52	3395.53
789.69	3348.43
789.87	3016.66
790.04	3153.87
790.22	3508.17
790.39	3833.80
790.57	3147.73
790.74	3170.26
790.92	3616.71
791.09	3114.96
791.27	3237.84
791.44	3188.69
791.62	3248.08
791.79	3649.48
791.97	3246.03
792.15	3520.46
792.32	3557.32
792.50	3557.32
792.67	3272.65
792.85	3487.69
793.02	3465.16
793.20	3403.72
793.37	3112.91
793.55	3076.05
793.72	3192.78
793.90	3585.99
794.07	3176.40
794.25	3168.21
794.42	3585.99
794.60	3315.66
794.77	3168.21
794.95	3235.79
795.12	3614.66
795.30	3362.76
795.47	2959.31
795.65	3518.41
795.82	3540.94
796.00	3282.89
796.17	3246.03
796.34	3131.34
796.52	3471.31
796.69	3590.09
796.87	3258.32
797.04	3370.96
797.22	3657.67
797.39	3559.37
797.57	3373.00
797.74	3356.62
797.92	3407.82
798.09	3270.61
798.27	3545.03
798.44	3162.06
798.62	3332.05
798.79	3436.49
798.96	3338.19
799.14	3184.59
799.31	4077.51
799.49	3397.58
799.66	3200.98
799.84	3282.89
800.01	3067.86
800.19	3499.98
800.36	3043.28
800.53	3237.84
800.71	3610.57
800.88	3766.21
801.06	3141.58
801.23	3164.11
801.41	3364.81
801.58	3311.57
801.75	3194.83
801.93	3278.80
802.10	3594.19
802.28	3311.57
802.45	3239.89
802.63	3250.13
802.80	3794.89
802.97	3364.81
803.15	3233.74
803.32	3198.93
803.50	3278.80
803.67	3237.84
803.84	3117.01
804.02	3274.70
804.19	3338.19
804.37	2985.94
804.54	3016.66
804.71	3137.49
804.89	3520.46
805.06	3203.02
805.24	3086.29
805.41	3002.32
805.58	3303.37
805.76	4050.88
805.93	3153.87
806.10	3368.91
806.28	3506.12
806.45	3530.70
806.63	3313.61
806.80	3309.52
806.97	3452.88
807.15	3475.40
807.32	3336.14
807.49	3207.12
807.67	3205.07
807.84	3526.60
808.01	3010.51
808.19	3366.86
808.36	3897.28
808.54	3385.29
808.71	3239.89
808.88	3174.35
809.06	3669.96
809.23	3753.93
809.40	3213.26
809.58	3117.01
809.75	3436.49
809.92	3147.73
810.10	3370.96
810.27	3114.96
810.44	3551.18
810.62	3577.80
810.79	3270.61
810.96	3229.65
811.14	3379.15
811.31	3577.80
811.48	3364.81
811.66	3317.71
811.83	3731.40
812.00	3508.17
812.18	3284.94
812.35	3549.13
812.52	3368.91
812.69	3315.66
812.87	3190.74
813.04	3155.92
813.21	3413.96
813.39	3248.08
813.56	3127.25
813.73	3442.64
813.91	3078.10
814.08	3452.88
814.25	3203.02
814.42	2979.79
814.60	3352.52
814.77	3422.16
814.94	3096.53
815.12	3297.23
815.29	3672.01
815.46	3311.57
815.63	3125.20
815.81	3139.54
815.98	3299.28
816.15	3397.58
816.33	3370.96
816.50	3260.37
816.67	3454.92
816.84	3428.30
817.02	3160.02
817.19	3133.39
817.36	3483.59
817.53	3504.07
817.71	3102.67
817.88	3188.69
818.05	3342.28
818.22	3338.19
818.40	3389.39
818.57	3190.74
818.74	3581.90
818.91	3420.11
819.09	3426.25
819.26	3284.94
819.43	3254.22
819.60	3229.65
819.78	3456.97
819.95	3301.33
820.12	3258.32
820.29	3727.30
820.47	3413.96
820.64	3119.06
820.81	3151.82
820.98	3188.69
821.15	3305.42
821.33	3340.24
821.50	3162.06
821.67	3524.55
821.84	3164.11
822.02	3215.31
822.19	3565.51
822.36	3321.81
822.53	3172.30
822.70	3043.28
822.88	3280.85
823.05	3710.92
823.22	3264.46
823.39	3192.78
823.56	3538.89
823.74	3803.08
823.91	2996.18
824.08	3133.39
824.25	3233.74
824.42	3725.26
824.60	3028.95
824.77	3278.80
824.94	3344.33
825.11	3508.17
825.28	3069.91
825.45	3289.04
825.63	3475.40
825.80	3227.60
825.97	3266.51
826.14	3284.94
826.31	3135.44
826.48	3600.33
826.66	3147.73
826.83	3131.34
827.00	3422.16
827.17	3235.79
827.34	3295.18
827.51	3203.02
827.69	3428.30
827.86	3143.63
828.03	3180.50
828.20	3196.88
828.37	3276.75
828.54	3567.56
828.71	3162.06
828.89	3319.76
829.06	3446.73
829.23	3733.45
829.40	3145.68
829.57	3074.00
829.74	3520.46
829.91	3321.81
830.09	3172.30
830.26	3346.38
830.43	3821.51
830.60	3381.20
830.77	3344.33
830.94	3403.72
831.11	3663.82
831.28	3327.95
831.46	3260.37
831.63	3186.64
831.80	3622.86
831.97	3280.85
832.14	3291.09
832.31	3229.65
832.48	3442.64
832.65	3575.75
832.82	3354.57
832.99	3315.66
833.17	3160.02
833.34	3729.35
833.51	3184.59
833.68	2967.51
833.85	3639.24
834.02	3246.03
834.19	3168.21
834.36	3203.02
834.53	3491.79
834.70	3592.14
834.87	3139.54
835.04	2953.17
835.22	3264.46
835.39	3395.53
835.56	3014.61
835.73	3049.43
835.90	3641.29
836.07	3200.98
836.24	3131.34
836.41	3022.80
836.58	3344.33
836.75	3649.48
836.92	3014.61
837.09	2969.55
837.26	3573.71
837.43	3565.51
837.60	3051.47
837.77	2977.75
837.94	3520.46
838.12	3661.77
838.29	2928.60
838.46	2967.51
838.63	3151.82
838.80	3708.87
838.97	3047.38
839.14	3000.27
839.31	3532.75
839.48	3594.19
839.65	2977.75
839.82	3141.58
839.99	3540.94
840.16	3450.83
840.33	2992.08
840.50	3129.30
840.67	3182.54
840.84	2940.88
841.01	2967.51
841.18	2938.84
841.35	3364.81
841.52	3520.46
841.69	3387.34
841.86	3045.33
842.03	3430.35
842.20	3590.09
842.37	2973.65
842.54	3102.67
842.71	3471.31
842.88	3096.53
843.05	3043.28
843.22	3018.71
843.39	3583.95
843.56	3305.42
843.73	2969.55
843.90	3045.33
844.07	3469.26
844.24	3686.34
844.41	3096.53
844.58	2975.70
844.75	3422.16
844.92	3520.46
845.09	3100.62
845.26	3049.43
845.43	3590.09
845.60	3346.38
845.77	3121.10
845.94	3061.71
846.10	3534.79
846.27	3196.88
846.44	2871.25
846.61	2897.88
846.78	3555.27
846.95	3647.43
847.12	2934.74
847.29	3018.71
847.46	3293.13
847.63	3588.04
847.80	2918.36
847.97	3127.25
848.14	3932.10
848.31	3411.92
848.48	2949.08
848.65	2932.69
848.82	3348.43
848.98	4014.02
849.15	3143.63
849.32	3131.34
849.49	3688.39
849.66	3393.48
849.83	3008.47
850.00	2906.07
850.17	3565.51
850.34	3413.96
850.51	2928.60
850.68	3041.23
850.85	3917.76
851.01	3510.22
851.18	2918.36
851.35	3000.27
851.52	3567.56
851.69	3708.87
851.86	2940.88
852.03	3000.27
852.20	3592.14
852.37	3422.16
852.53	2865.11
852.70	2963.41
852.87	3532.75
853.04	3549.13
853.21	2942.93
853.38	3336.14
853.55	3764.17
853.72	3674.06
853.89	2983.89
854.05	3035.09
854.22	3432.40
854.39	3409.87
854.56	2992.08
854.73	3190.74
854.90	3241.93
855.07	3401.68
855.23	2852.82
855.40	2932.69
855.57	3403.72
855.74	2971.60
855.91	3223.50
856.08	2895.83
856.25	3043.28
856.41	3346.38
856.58	3024.85
856.75	3059.67
856.92	3248.08
857.09	3606.47
857.26	2885.59
857.42	3110.86
857.59	3430.35
857.76	3325.90
857.93	2996.18
858.10	3123.15
858.27	3266.51
858.43	3430.35
858.60	3010.51
858.77	2914.26
858.94	3266.51
859.11	3563.47
859.27	3213.26
859.44	2906.07
859.61	3905.48
859.78	3588.04
859.95	3002.32
860.12	2916.31
860.28	3921.86
860.45	3811.27
860.62	2975.70
860.79	3039.19
860.95	3377.10
861.12	3258.32
861.29	2910.16
861.46	2990.03
861.63	3346.38
861.79	3524.55
861.96	2914.26
862.13	2957.27
862.30	3719.11
862.47	3268.56
862.63	2858.96
862.80	3067.86
862.97	3641.29
863.14	3549.13
863.30	3016.66
863.47	2951.12
863.64	3794.89
863.81	3465.16
863.97	2904.02
864.14	3057.62
864.31	3340.24
864.48	3561.42
864.65	3057.62
864.81	3166.16
864.98	3522.51
865.15	3631.05
865.32	3084.24
865.48	3078.10
865.65	3778.50
865.82	3284.94
865.98	3102.67
866.15	3061.71
866.32	3459.02
866.49	3280.85
866.65	3188.69
866.82	3028.95
866.99	3526.60
867.16	3278.80
867.32	3074.00
867.49	2901.97
867.66	3381.20
867.83	3346.38
867.99	2901.97
868.16	3082.19
868.33	3160.02
868.49	3409.87
868.66	2979.79
868.83	3192.78
868.99	3512.27
869.16	3434.44
869.33	3262.41
869.50	3061.71
869.66	3448.78
869.83	3469.26
870.00	2942.93
870.16	3129.30
870.33	3401.68
870.50	3700.68
870.66	3053.52
870.83	3049.43
871.00	3323.85
871.17	3549.13
871.33	3112.91
871.50	2934.74
871.67	3461.07
871.83	3082.19
872.00	3164.11
872.17	3086.29
872.33	3885.00
872.50	3708.87
872.67	3018.71
872.83	3002.32
873.00	3454.92
873.17	3409.87
873.33	3129.30
873.50	3100.62
873.67	3217.36
873.83	3286.99
874.00	3047.38
874.16	3149.78
874.33	3479.50
874.50	3164.11
874.66	3069.91
874.83	3117.01
875.00	3663.82
875.16	3614.66
875.33	3082.19
875.50	2766.81
875.66	3303.37
875.83	3436.49
875.99	3139.54
876.16	3123.15
876.33	3198.93
876.49	3405.77
876.66	3039.19
876.83	3082.19
876.99	3186.64
877.16	3426.25
877.32	2979.79
877.49	3174.35
877.66	3510.22
877.82	3751.88
877.99	3125.20
878.15	3309.52
878.32	3442.64
878.49	3475.40
878.65	3030.99
878.82	3270.61
878.98	3278.80
879.15	3667.91
879.32	3225.55
879.48	3237.84
879.65	3332.05
879.81	3403.72
879.98	2979.79
880.15	3135.44
880.31	3551.18
880.48	3211.22
880.64	3117.01
880.81	3192.78
880.97	3803.08
881.14	3753.93
881.31	2951.12
881.47	3225.55
881.64	3389.39
881.80	3065.81
881.97	3223.50
882.13	2996.18
882.30	3176.40
882.47	3286.99
882.63	3057.62
882.80	3061.71
882.96	3366.86
883.13	3602.38
883.29	3041.23
883.46	3012.56
883.62	3950.53
883.79	3483.59
883.95	3196.88
884.12	2932.69
884.29	3733.45
884.45	3508.17
884.62	3016.66
884.78	2979.79
884.95	3745.73
885.11	3276.75
885.28	3135.44
885.44	3086.29
885.61	3481.55
885.77	3743.69
885.94	3233.74
886.10	3143.63
886.27	3491.79
886.43	3813.32
886.60	3272.65
886.76	3065.81
886.93	3282.89
887.09	3420.11
887.26	2930.64
887.42	3162.06
887.59	3657.67
887.75	3956.68
887.92	3209.17
888.08	3125.20
888.25	3776.45
888.41	3655.62
888.58	3166.16
888.74	2901.97
888.91	3299.28
>>>>>End Processed Spectral Data<<<<<
