SpectraSuite Data File
++++++++++++++++++++++++++++++++++++
Date: Fri May 06 09:28:43 CEST 2016
User: root
Dark Spectrum Present: No
Reference Spectrum Present: No
Number of Sampled Component Spectra: 1
Spectrometers: USB4C02835
Integration Time (usec): 100000 (USB4C02835)
Spectra Averaged: 1 (USB4C02835)
Boxcar Smoothing: 0 (USB4C02835)
Correct for Electrical Dark: No (USB4C02835)
Strobe/Lamp Enabled: No (USB4C02835)
Correct for Detector Non-linearity: No (USB4C02835)
Correct for Stray Light: No (USB4C02835)
Number of Pixels in Processed Spectrum: 3648
>>>>>Begin Processed Spectral Data<<<<<
177.47	2326.49
177.69	2326.49
177.91	2326.49
178.13	2308.06
178.36	2340.83
178.58	3176.40
178.80	3246.03
179.02	3155.92
179.24	3155.92
179.46	2846.68
179.68	2871.25
179.90	3356.62
180.13	3499.98
180.35	2779.09
180.57	2871.25
180.79	3649.48
181.01	3387.34
181.23	2930.64
181.45	3114.96
181.67	3655.62
181.90	3698.63
182.12	3024.85
182.34	2838.48
182.56	3557.32
182.78	3499.98
183.00	2897.88
183.22	3035.09
183.44	3127.25
183.66	4036.55
183.89	3151.82
184.11	3039.19
184.33	3643.34
184.55	3682.25
184.77	2940.88
184.99	2914.26
185.21	3254.22
185.43	4073.41
185.65	2992.08
185.87	2875.35
186.10	3975.11
186.32	3954.63
186.54	3055.57
186.76	3041.23
186.98	3661.77
187.20	3428.30
187.42	3069.91
187.64	2955.22
187.86	3497.93
188.08	3661.77
188.30	2885.59
188.52	3067.86
188.75	3790.79
188.97	3819.46
189.19	2934.74
189.41	2879.44
189.63	3598.28
189.85	3387.34
190.07	2865.11
190.29	2764.76
190.51	3569.61
190.73	3194.83
190.95	3123.15
191.17	2928.60
191.39	3123.15
191.61	3377.10
191.84	2942.93
192.06	3102.67
192.28	3127.25
192.50	4270.01
192.72	3155.92
192.94	3076.05
193.16	3674.06
193.38	3575.75
193.60	2910.16
193.82	3209.17
194.04	3704.78
194.26	3479.50
194.48	2987.99
194.70	3018.71
194.92	3356.62
195.14	3674.06
195.36	2926.55
195.58	3008.47
195.80	3377.10
196.02	3336.14
196.24	2893.78
196.46	3035.09
196.69	3330.00
196.91	3917.76
197.13	3020.75
197.35	3059.67
197.57	3823.56
197.79	3622.86
198.01	3016.66
198.23	2994.13
198.45	3674.06
198.67	3125.20
198.89	2805.72
199.11	3078.10
199.33	3354.57
199.55	2983.89
199.77	2877.40
199.99	3061.71
200.21	3284.94
200.43	3641.29
200.65	2928.60
200.87	2832.34
201.09	3463.12
201.31	3422.16
201.53	2975.70
201.75	2951.12
201.97	3499.98
202.19	3508.17
202.41	3065.81
202.63	3030.99
202.85	3608.52
203.07	3540.94
203.29	3055.57
203.51	2889.68
203.73	3299.28
203.95	4145.09
204.17	2967.51
204.39	3090.38
204.61	3428.30
204.83	3336.14
205.05	3241.93
205.27	2985.94
205.49	3956.68
205.71	3459.02
205.93	2846.68
206.15	2887.64
206.37	3420.11
206.59	3405.77
206.81	2807.77
207.03	2815.96
207.25	3270.61
207.47	3504.07
207.69	2871.25
207.91	3215.31
208.13	3790.79
208.34	3377.10
208.56	2914.26
208.78	2953.17
209.00	3379.15
209.22	3319.76
209.44	3020.75
209.66	2875.35
209.88	3512.27
210.10	3313.61
210.32	2942.93
210.54	3053.52
210.76	3350.48
210.98	3633.10
211.20	2713.56
211.42	3108.82
211.64	3835.85
211.86	3508.17
212.08	2963.41
212.30	3035.09
212.52	3373.00
212.74	3592.14
212.96	3063.76
213.17	3037.14
213.39	3729.35
213.61	3934.15
213.83	2885.59
214.05	2799.57
214.27	3618.76
214.49	3207.12
214.71	2914.26
214.93	3127.25
215.15	3479.50
215.37	3680.20
215.59	2838.48
215.81	2979.79
216.03	3702.73
216.24	3434.44
216.46	2979.79
216.68	2979.79
216.90	3678.15
217.12	3616.71
217.34	2910.16
217.56	3229.65
217.78	3790.79
218.00	3565.51
218.22	3045.33
218.44	3061.71
218.66	3499.98
218.87	3887.04
219.09	2975.70
219.31	3024.85
219.53	3565.51
219.75	3391.44
219.97	2985.94
220.19	3037.14
220.41	3403.72
220.63	3823.56
220.85	2992.08
221.06	2967.51
221.28	3833.80
221.50	3594.19
221.72	2961.36
221.94	2904.02
222.16	3534.79
222.38	3712.97
222.60	2977.75
222.82	2990.03
223.03	3600.33
223.25	3241.93
223.47	2928.60
223.69	3194.83
223.91	3549.13
224.13	3555.27
224.35	2838.48
224.57	3164.11
224.78	3585.99
225.00	3225.55
225.22	3067.86
225.44	2906.07
225.66	3508.17
225.88	3330.00
226.10	3094.48
226.32	2944.98
226.53	3835.85
226.75	3346.38
226.97	3088.34
227.19	2971.60
227.41	3336.14
227.63	3381.20
227.85	2775.00
228.06	3026.90
228.28	3540.94
228.50	3624.90
228.72	2764.76
228.94	3047.38
229.16	2959.31
229.37	3256.27
229.59	2836.44
229.81	3221.45
230.03	3289.04
230.25	3258.32
230.47	2807.77
230.69	2920.40
230.90	3594.19
231.12	3246.03
231.34	3098.58
231.56	2992.08
231.78	3147.73
232.00	3557.32
232.21	3047.38
232.43	2994.13
232.65	3035.09
232.87	3499.98
233.09	2871.25
233.30	2906.07
233.52	3747.78
233.74	3327.95
233.96	2893.78
234.18	3139.54
234.40	3434.44
234.61	4061.12
234.83	2881.49
235.05	3020.75
235.27	3995.59
235.49	3661.77
235.70	2820.05
235.92	3074.00
236.14	3557.32
236.36	4036.55
236.58	2838.48
236.79	3074.00
237.01	3442.64
237.23	3383.24
237.45	3268.56
237.67	2994.13
237.88	3585.99
238.10	3938.24
238.32	2901.97
238.54	2852.82
238.76	3477.45
238.97	3166.16
239.19	2834.39
239.41	2985.94
239.63	3723.21
239.85	3411.92
240.06	3049.43
240.28	2910.16
240.50	3729.35
240.72	3549.13
240.93	2889.68
241.15	3131.34
241.37	3422.16
241.59	3811.27
241.81	2998.23
242.02	2985.94
242.24	3545.03
242.46	3590.09
242.68	2766.81
242.89	2895.83
243.11	3688.39
243.33	3495.88
243.55	3000.27
243.76	2973.65
243.98	3280.85
244.20	3413.96
244.42	2996.18
244.64	2906.07
244.85	3098.58
245.07	3254.22
245.29	2955.22
245.51	3080.14
245.72	3561.42
245.94	3694.54
246.16	2963.41
246.38	3051.47
246.59	3323.85
246.81	3286.99
247.03	2887.64
247.24	2846.68
247.46	3385.29
247.68	3553.23
247.90	2869.20
248.11	2922.45
248.33	3626.95
248.55	3442.64
248.77	3000.27
248.98	3137.49
249.20	3770.31
249.42	3506.12
249.64	2947.03
249.85	2934.74
250.07	3321.81
250.29	3565.51
250.50	3063.76
250.72	2906.07
250.94	3532.75
251.16	3903.43
251.37	2922.45
251.59	3114.96
251.81	3557.32
252.02	3698.63
252.24	2844.63
252.46	3110.86
252.68	3311.57
252.89	3272.65
253.11	2777.05
253.33	3071.95
253.54	3764.17
253.76	3270.61
253.98	2957.27
254.20	2893.78
254.41	3209.17
254.63	3409.87
254.85	2775.00
255.06	3061.71
255.28	3538.89
255.50	3397.58
255.71	2944.98
255.93	2764.76
256.15	3436.49
256.36	3612.62
256.58	2805.72
256.80	2795.48
257.02	3467.21
257.23	3424.20
257.45	3014.61
257.67	3004.37
257.88	3364.81
258.10	3592.14
258.32	3012.56
258.53	3024.85
258.75	3854.28
258.97	3295.18
259.18	2910.16
259.40	2852.82
259.62	3798.98
259.83	3741.64
260.05	3014.61
260.27	3973.06
260.48	3629.00
260.70	3258.32
260.92	2815.96
261.13	3000.27
261.35	3588.04
261.57	3635.14
261.78	2877.40
262.00	2901.97
262.22	3624.90
262.43	3272.65
262.65	2965.46
262.86	3049.43
263.08	4067.27
263.30	3481.55
263.51	2754.52
263.73	2932.69
263.95	3833.80
264.16	3250.13
264.38	2887.64
264.60	2899.92
264.81	3407.82
265.03	3747.78
265.25	3393.48
265.46	2944.98
265.68	3739.59
265.89	3618.76
266.11	2830.29
266.33	2873.30
266.54	3651.53
266.76	3497.93
266.98	3145.68
267.19	3139.54
267.41	3696.58
267.62	3323.85
267.84	2777.05
268.06	3092.43
268.27	3436.49
268.49	3698.63
268.70	2957.27
268.92	2963.41
269.14	3317.71
269.35	3170.26
269.57	3121.10
269.79	3000.27
270.00	3338.19
270.22	3835.85
270.43	2887.64
270.65	2848.72
270.87	3506.12
271.08	3704.78
271.30	3143.63
271.51	2934.74
271.73	3585.99
271.95	3749.83
272.16	2926.55
272.38	3137.49
272.59	3426.25
272.81	3653.58
273.02	2844.63
273.24	3024.85
273.46	3762.12
273.67	3225.55
273.89	2852.82
274.10	2930.64
274.32	3729.35
274.54	3522.51
274.75	3092.43
274.97	3100.62
275.18	3577.80
275.40	3592.14
275.61	2975.70
275.83	3117.01
276.05	3221.45
276.26	3401.68
276.48	3094.48
276.69	3071.95
276.91	3368.91
277.12	3846.09
277.34	3155.92
277.55	3211.22
277.77	3508.17
277.99	3434.44
278.20	3065.81
278.42	2951.12
278.63	3325.90
278.85	3327.95
279.06	3074.00
279.28	3188.69
279.49	3739.59
279.71	3610.57
279.93	3149.78
280.14	3217.36
280.36	3280.85
280.57	3602.38
280.79	3254.22
281.00	3024.85
281.22	3295.18
281.43	3680.20
281.65	2856.92
281.86	3074.00
282.08	3504.07
282.29	3882.95
282.51	2981.84
282.73	3008.47
282.94	3211.22
283.16	3692.49
283.37	3143.63
283.59	3084.24
283.80	3585.99
284.02	3395.53
284.23	3127.25
284.45	3215.31
284.66	3266.51
284.88	3256.27
285.09	2992.08
285.31	3137.49
285.52	3561.42
285.74	3139.54
285.95	3254.22
286.17	3057.62
286.38	3520.46
286.60	3330.00
286.81	3053.52
287.03	3047.38
287.24	3420.11
287.46	3669.96
287.67	3250.13
287.89	3364.81
288.10	3430.35
288.32	3534.79
288.53	3149.78
288.75	3194.83
288.96	3549.13
289.18	3379.15
289.39	3010.51
289.61	3217.36
289.82	3932.10
290.04	3887.04
290.25	2955.22
290.47	3182.54
290.68	3479.50
290.90	3581.90
291.11	2891.73
291.33	3332.05
291.54	3237.84
291.76	3258.32
291.97	3231.69
292.18	3194.83
292.40	3364.81
292.61	3325.90
292.83	3325.90
293.04	3106.77
293.26	3536.84
293.47	3422.16
293.69	3004.37
293.90	3018.71
294.12	3815.37
294.33	3413.96
294.55	3133.39
294.76	3299.28
294.97	3766.21
295.19	3903.43
295.40	3160.02
295.62	3196.88
295.83	3573.71
296.05	3305.42
296.26	3407.82
296.48	3137.49
296.69	3463.12
296.90	3413.96
297.12	3221.45
297.33	3200.98
297.55	3502.03
297.76	3547.08
297.98	3239.89
298.19	3325.90
298.41	3377.10
298.62	3203.02
298.83	3307.47
299.05	3184.59
299.26	3411.92
299.48	3170.26
299.69	3141.58
299.90	3067.86
300.12	3260.37
300.33	3606.47
300.55	3145.68
300.76	3100.62
300.98	3256.27
301.19	3534.79
301.40	3139.54
301.62	3067.86
301.83	3624.90
302.05	3483.59
302.26	3028.95
302.47	3141.58
302.69	3139.54
302.90	3436.49
303.12	3002.32
303.33	3225.55
303.54	3784.65
303.76	3348.43
303.97	3086.29
304.19	3282.89
304.40	3297.23
304.61	3598.28
304.83	3270.61
305.04	3139.54
305.26	3585.99
305.47	3307.47
305.68	3196.88
305.90	2951.12
306.11	3721.16
306.33	3401.68
306.54	2959.31
306.75	3100.62
306.97	3098.58
307.18	3260.37
307.39	3096.53
307.61	3172.30
307.82	3420.11
308.04	3585.99
308.25	2926.55
308.46	3221.45
308.68	3426.25
308.89	3409.87
309.10	3190.74
309.32	3106.77
309.53	3397.58
309.74	3641.29
309.96	2983.89
310.17	3243.98
310.39	3332.05
310.60	3532.75
310.81	3131.34
311.03	2967.51
311.24	3567.56
311.45	3409.87
311.67	3438.54
311.88	3250.13
312.09	3409.87
312.31	3348.43
312.52	3078.10
312.73	3002.32
312.95	3149.78
313.16	3297.23
313.37	3303.37
313.59	3307.47
313.80	3585.99
314.01	3813.32
314.23	3170.26
314.44	3047.38
314.65	3172.30
314.87	3180.50
315.08	3108.82
315.29	3090.38
315.51	3270.61
315.72	3086.29
315.93	3186.64
316.15	3182.54
316.36	3346.38
316.57	3432.40
316.79	3180.50
317.00	2977.75
317.21	3590.09
317.43	3241.93
317.64	3084.24
317.85	2961.36
318.07	3268.56
318.28	3364.81
318.49	3127.25
318.70	3334.09
318.92	3469.26
319.13	3461.07
319.34	3221.45
319.56	3100.62
319.77	3491.79
319.98	3545.03
320.20	3311.57
320.41	3233.74
320.62	3553.23
320.83	3102.67
321.05	3282.89
321.26	3174.35
321.47	3475.40
321.69	3727.30
321.90	2969.55
322.11	3061.71
322.32	3499.98
322.54	3819.46
322.75	3168.21
322.96	4157.38
323.18	3145.68
323.39	3100.62
323.60	2965.46
323.81	3188.69
324.03	3377.10
324.24	3356.62
324.45	3248.08
324.66	3006.42
324.88	3690.44
325.09	3850.18
325.30	3106.77
325.52	2926.55
325.73	3569.61
325.94	3246.03
326.15	3002.32
326.37	2975.70
326.58	3565.51
326.79	3815.37
327.00	3006.42
327.22	3098.58
327.43	3295.18
327.64	3276.75
327.85	3241.93
328.07	3155.92
328.28	3878.85
328.49	3364.81
328.70	3170.26
328.92	3059.67
329.13	3436.49
329.34	3624.90
329.55	3338.19
329.76	3278.80
329.98	3303.37
330.19	3649.48
330.40	3200.98
330.61	3297.23
330.83	3649.48
331.04	3237.84
331.25	3268.56
331.46	3155.92
331.68	3198.93
331.89	3616.71
332.10	3133.39
332.31	3067.86
332.52	3440.59
332.74	3737.54
332.95	2924.50
333.16	3114.96
333.37	3622.86
333.58	3336.14
333.80	3129.30
334.01	2848.72
334.22	3368.91
334.43	3344.33
334.64	3014.61
334.86	3033.04
335.07	3262.41
335.28	3719.11
335.49	2969.55
335.70	3106.77
335.92	3725.26
336.13	3903.43
336.34	3147.73
336.55	3065.81
336.76	3571.66
336.98	3000.27
337.19	3153.87
337.40	3213.26
337.61	3985.35
337.82	3364.81
338.04	3164.11
338.25	2863.06
338.46	3481.55
338.67	3284.94
338.88	2985.94
339.09	2914.26
339.31	3362.76
339.52	3207.12
339.73	3024.85
339.94	3121.10
340.15	3590.09
340.36	3434.44
340.58	3162.06
340.79	2990.03
341.00	3524.55
341.21	3235.79
341.42	3330.00
341.63	3162.06
341.85	3659.72
342.06	3522.51
342.27	3123.15
342.48	3248.08
342.69	3155.92
342.90	3565.51
343.12	3532.75
343.33	3035.09
343.54	3733.45
343.75	3739.59
343.96	3188.69
344.17	2992.08
344.38	3403.72
344.60	3274.70
344.81	3047.38
345.02	3074.00
345.23	3710.92
345.44	4083.65
345.65	3121.10
345.86	3114.96
346.07	3514.31
346.29	3346.38
346.50	3131.34
346.71	3225.55
346.92	3686.34
347.13	3885.00
347.34	3221.45
347.55	2985.94
347.76	3551.18
347.98	3117.01
348.19	3123.15
348.40	3313.61
348.61	3385.29
348.82	3807.17
349.03	3127.25
349.24	3049.43
349.45	3934.15
349.66	3065.81
349.88	3022.80
350.09	3065.81
350.30	3729.35
350.51	3725.26
350.72	3305.42
350.93	3090.38
351.14	3344.33
351.35	3581.90
351.56	3125.20
351.77	3196.88
351.99	3553.23
352.20	3774.41
352.41	3248.08
352.62	2887.64
352.83	3495.88
353.04	3395.53
353.25	3041.23
353.46	3065.81
353.67	3692.49
353.88	3037.14
354.09	3063.76
354.30	3129.30
354.52	3565.51
354.73	3391.44
354.94	3104.72
355.15	3186.64
355.36	3811.27
355.57	3295.18
355.78	3020.75
355.99	3059.67
356.20	3381.20
356.41	3616.71
356.62	3162.06
356.83	3186.64
357.04	3727.30
357.25	3059.67
357.46	3014.61
357.68	2889.68
357.89	3387.34
358.10	3428.30
358.31	3098.58
358.52	3225.55
358.73	3250.13
358.94	3286.99
359.15	3143.63
359.36	3147.73
359.57	3489.74
359.78	3477.45
359.99	3284.94
360.20	3061.71
360.41	3420.11
360.62	3567.56
360.83	3172.30
361.04	3168.21
361.25	3594.19
361.46	3782.60
361.67	3203.02
361.88	3131.34
362.09	3631.05
362.30	3524.55
362.51	3053.52
362.72	3164.11
362.93	3569.61
363.14	3493.83
363.35	3276.75
363.56	3004.37
363.78	3747.78
363.99	3680.20
364.20	3074.00
364.41	3188.69
364.62	3817.41
364.83	3487.69
365.04	3139.54
365.25	3162.06
365.46	3958.72
365.67	3301.33
365.88	3327.95
366.09	3143.63
366.30	3332.05
366.51	3485.64
366.72	3086.29
366.93	3016.66
367.14	3434.44
367.35	3764.17
367.56	2994.13
367.77	3207.12
367.98	3434.44
368.18	3524.55
368.39	3248.08
368.60	3035.09
368.81	3639.24
369.02	3479.50
369.23	3110.86
369.44	2959.31
369.65	3297.23
369.86	3590.09
370.07	3157.97
370.28	3055.57
370.49	3475.40
370.70	3536.84
370.91	3012.56
371.12	3018.71
371.33	3725.26
371.54	3268.56
371.75	3180.50
371.96	2836.44
372.17	3473.36
372.38	3491.79
372.59	3092.43
372.80	3076.05
373.01	3327.95
373.22	3518.41
373.43	3131.34
373.64	2992.08
373.85	3729.35
374.06	3846.09
374.26	3278.80
374.47	3270.61
374.68	3798.98
374.89	3475.40
375.10	3008.47
375.31	3225.55
375.52	3411.92
375.73	3526.60
375.94	3016.66
376.15	3200.98
376.36	3315.66
376.57	3379.15
376.78	3196.88
376.99	3207.12
377.20	3755.97
377.40	3442.64
377.61	3409.87
377.82	3090.38
378.03	3706.82
378.24	3577.80
378.45	3237.84
378.66	3170.26
378.87	3147.73
379.08	3174.35
379.29	3133.39
379.50	3207.12
379.71	3366.86
379.91	3516.36
380.12	3131.34
380.33	3147.73
380.54	3442.64
380.75	3426.25
380.96	3069.91
381.17	3123.15
381.38	3350.48
381.59	3403.72
381.80	3176.40
382.00	3334.09
382.21	3448.78
382.42	3678.15
382.63	3532.75
382.84	3323.85
383.05	3622.86
383.26	3786.69
383.47	3385.29
383.68	3028.95
383.88	3549.13
384.09	3477.45
384.30	3319.76
384.51	3198.93
384.72	3360.72
384.93	3188.69
385.14	3147.73
385.35	3385.29
385.55	3200.98
385.76	3719.11
385.97	3178.45
386.18	3012.56
386.39	3196.88
386.60	3332.05
386.81	3053.52
387.02	3037.14
387.22	3151.82
387.43	3547.08
387.64	3174.35
387.85	3334.09
388.06	3512.27
388.27	4415.42
388.48	7341.97
388.68	10786.65
388.89	13764.40
389.10	14878.49
389.31	14569.25
389.52	11712.33
389.73	10350.43
389.93	9598.83
390.14	8523.65
390.35	7985.03
390.56	7448.46
390.77	6264.74
390.98	4876.21
391.18	4050.88
391.39	3966.92
391.60	3493.83
391.81	3370.96
392.02	3190.74
392.23	3964.87
392.43	3508.17
392.64	3149.78
392.85	3190.74
393.06	3813.32
393.27	3477.45
393.47	3145.68
393.68	3203.02
393.89	3377.10
394.10	3678.15
394.31	3121.10
394.52	3076.05
394.72	3317.71
394.93	3788.74
395.14	3012.56
395.35	3246.03
395.56	3317.71
395.76	3373.00
395.97	3133.39
396.18	3252.17
396.39	3338.19
396.60	4077.51
396.80	3522.51
397.01	3340.24
397.22	3661.77
397.43	3725.26
397.64	3217.36
397.84	3205.07
398.05	3909.57
398.26	3463.12
398.47	3237.84
398.67	3370.96
398.88	3446.73
399.09	3633.10
399.30	3131.34
399.51	3256.27
399.71	3295.18
399.92	3475.40
400.13	3217.36
400.34	3123.15
400.54	3532.75
400.75	3739.59
400.96	3223.50
401.17	3475.40
401.37	3553.23
401.58	3379.15
401.79	3092.43
402.00	3282.89
402.21	3928.00
402.41	3565.51
402.62	3420.11
402.83	3467.21
403.04	3821.51
403.24	4212.67
403.45	3223.50
403.66	3475.40
403.87	3631.05
404.07	3733.45
404.28	3368.91
404.49	3454.92
404.70	3581.90
404.90	3565.51
405.11	3084.24
405.32	3239.89
405.52	3340.24
405.73	3325.90
405.94	3041.23
406.15	3184.59
406.35	3614.66
406.56	3614.66
406.77	3172.30
406.98	3110.86
407.18	3280.85
407.39	3778.50
407.60	3180.50
407.80	3289.04
408.01	3325.90
408.22	3575.75
408.43	2996.18
408.63	3286.99
408.84	3663.82
409.05	3706.82
409.25	3076.05
409.46	3184.59
409.67	3286.99
409.88	3348.43
410.08	3135.44
410.29	3104.72
410.50	3725.26
410.70	3508.17
410.91	3082.19
411.12	3217.36
411.32	3491.79
411.53	3307.47
411.74	3074.00
411.95	3280.85
412.15	3442.64
412.36	3561.42
412.57	3284.94
412.77	3352.52
412.98	3422.16
413.19	3401.68
413.39	3205.07
413.60	3217.36
413.81	3745.73
414.01	3180.50
414.22	3176.40
414.43	3284.94
414.63	3315.66
414.84	3639.24
415.05	3221.45
415.25	3035.09
415.46	3528.65
415.67	3344.33
415.87	3143.63
416.08	3164.11
416.29	3360.72
416.49	3532.75
416.70	3184.59
416.91	3205.07
417.11	3377.10
417.32	3637.19
417.53	3260.37
417.73	3213.26
417.94	3418.06
418.15	3516.36
418.35	3223.50
418.56	3237.84
418.77	3991.49
418.97	3522.51
419.18	3280.85
419.38	2848.72
419.59	3471.31
419.80	3764.17
420.00	3039.19
420.21	3166.16
420.42	3725.26
420.62	3545.03
420.83	3176.40
421.04	3123.15
421.24	3510.22
421.45	3629.00
421.65	3131.34
421.86	3168.21
422.07	3585.99
422.27	3577.80
422.48	3051.47
422.69	2914.26
422.89	3403.72
423.10	3368.91
423.30	3047.38
423.51	3192.78
423.72	3567.56
423.92	3641.29
424.13	3024.85
424.33	3229.65
424.54	3647.43
424.75	3430.35
424.95	3284.94
425.16	3055.57
425.36	3446.73
425.57	3772.36
425.78	3309.52
425.98	3264.46
426.19	3336.14
426.39	3231.69
426.60	3205.07
426.81	3321.81
427.01	3612.62
427.22	3250.13
427.42	2942.93
427.63	3100.62
427.83	3594.19
428.04	3835.85
428.25	3211.22
428.45	3264.46
428.66	3743.69
428.86	3389.39
429.07	3192.78
429.28	3184.59
429.48	3381.20
429.69	3286.99
429.89	3264.46
430.10	3123.15
430.30	3565.51
430.51	3698.63
430.71	3108.82
430.92	3207.12
431.13	3307.47
431.33	3485.64
431.54	3272.65
431.74	3373.00
431.95	3985.35
432.15	3250.13
432.36	3157.97
432.56	3209.17
432.77	3903.43
432.98	3788.74
433.18	3186.64
433.39	3033.04
433.59	3483.59
433.80	3878.85
434.00	3348.43
434.21	3325.90
434.41	3295.18
434.62	3985.35
434.82	2953.17
435.03	3168.21
435.23	3631.05
435.44	3143.63
435.64	3119.06
435.85	3264.46
436.06	3614.66
436.26	3649.48
436.47	3143.63
436.67	3071.95
436.88	3436.49
437.08	3631.05
437.29	3274.70
437.49	3289.04
437.70	3739.59
437.90	3446.73
438.11	3336.14
438.31	3229.65
438.52	3735.50
438.72	3637.19
438.93	3559.37
439.13	3246.03
439.34	3557.32
439.54	3295.18
439.75	3280.85
439.95	3262.41
440.16	3264.46
440.36	3459.02
440.57	3094.48
440.77	3127.25
440.98	3430.35
441.18	3518.41
441.39	2996.18
441.59	3061.71
441.80	3934.15
442.00	3401.68
442.21	3229.65
442.41	2979.79
442.62	3672.01
442.82	3276.75
443.02	3153.87
443.23	3221.45
443.43	3299.28
443.64	3680.20
443.84	3035.09
444.05	3215.31
444.25	3538.89
444.46	3346.38
444.66	3131.34
444.87	3381.20
445.07	3155.92
445.28	3366.86
445.48	3430.35
445.69	3190.74
445.89	4048.83
446.09	3377.10
446.30	3497.93
446.50	3565.51
446.71	5052.34
446.91	6141.86
447.12	6879.13
447.32	7309.20
447.53	7485.33
447.73	6152.10
447.93	5328.81
448.14	5306.29
448.34	5466.03
448.55	4374.46
448.75	4378.56
448.96	4249.54
449.16	4044.74
449.36	4110.27
449.57	3403.72
449.77	3219.41
449.98	3262.41
450.18	3518.41
450.39	3092.43
450.59	3407.82
450.79	3399.63
451.00	3295.18
451.20	3370.96
451.41	3147.73
451.61	3438.54
451.81	3350.48
452.02	3063.76
452.22	3180.50
452.43	3362.76
452.63	3284.94
452.84	3190.74
453.04	3094.48
453.24	3616.71
453.45	3280.85
453.65	3243.98
453.86	3180.50
454.06	3473.36
454.26	3420.11
454.47	3098.58
454.67	3260.37
454.87	3534.79
455.08	3409.87
455.28	3262.41
455.49	3358.67
455.69	3336.14
455.89	3876.80
456.10	3213.26
456.30	3121.10
456.51	3635.14
456.71	3477.45
456.91	3323.85
457.12	3174.35
457.32	3600.33
457.52	3176.40
457.73	3383.24
457.93	3350.48
458.14	3303.37
458.34	3082.19
458.54	3176.40
458.75	3123.15
458.95	3596.23
459.15	3596.23
459.36	3190.74
459.56	3164.11
459.76	3885.00
459.97	3475.40
460.17	3151.82
460.37	3243.98
460.58	3499.98
460.78	3614.66
460.99	3229.65
461.19	3168.21
461.39	3352.52
461.60	3356.62
461.80	3209.17
462.00	3112.91
462.21	3432.40
462.41	3239.89
462.61	3022.80
462.82	2901.97
463.02	3581.90
463.22	3383.24
463.43	3219.41
463.63	3049.43
463.83	3733.45
464.04	3502.03
464.24	3117.01
464.44	3131.34
464.64	3526.60
464.85	3661.77
465.05	3192.78
465.25	3090.38
465.46	3336.14
465.66	3530.70
465.86	3264.46
466.07	3147.73
466.27	3442.64
466.47	3067.86
466.68	3016.66
466.88	3194.83
467.08	3581.90
467.29	3659.72
467.49	3180.50
467.69	3317.71
467.89	3585.99
468.10	3403.72
468.30	3264.46
468.50	3209.17
468.71	3672.01
468.91	3090.38
469.11	3409.87
469.31	3203.02
469.52	3246.03
469.72	3827.65
469.92	3420.11
470.13	3231.69
470.33	3454.92
470.53	3520.46
470.73	3545.03
470.94	3846.09
471.14	4073.41
471.34	4597.69
471.54	4179.90
471.75	3860.42
471.95	3831.75
472.15	3798.98
472.36	3717.06
472.56	3463.12
472.76	3919.81
472.96	3788.74
473.17	3432.40
473.37	3233.74
473.57	3409.87
473.77	3481.55
473.98	3280.85
474.18	3114.96
474.38	4151.23
474.58	3364.81
474.79	3098.58
474.99	3270.61
475.19	3708.87
475.39	3270.61
475.60	3262.41
475.80	3133.39
476.00	3495.88
476.20	3403.72
476.41	3149.78
476.61	3223.50
476.81	3717.06
477.01	3237.84
477.21	3450.83
477.42	3264.46
477.62	3200.98
477.82	3616.71
478.02	3096.53
478.23	3188.69
478.43	3231.69
478.63	3397.58
478.83	3270.61
479.03	3264.46
479.24	3860.42
479.44	3934.15
479.64	3184.59
479.84	3006.42
480.04	3303.37
480.25	3692.49
480.45	3045.33
480.65	3125.20
480.85	3758.02
481.06	3307.47
481.26	3246.03
481.46	3172.30
481.66	3459.02
481.86	3303.37
482.06	3354.57
482.27	3190.74
482.47	3332.05
482.67	3614.66
482.87	3135.44
483.07	3205.07
483.28	3305.42
483.48	3131.34
483.68	3147.73
483.88	3133.39
484.08	3033.04
484.29	3106.77
484.49	3262.41
484.69	2926.55
484.89	3645.38
485.09	3649.48
485.29	3162.06
485.50	3307.47
485.70	3278.80
485.90	3637.19
486.10	3317.71
486.30	3123.15
486.50	3706.82
486.71	3450.83
486.91	3227.60
487.11	3223.50
487.31	3131.34
487.51	3585.99
487.71	3114.96
487.91	3026.90
488.12	3278.80
488.32	2901.97
488.52	3141.58
488.72	2901.97
488.92	3434.44
489.12	3778.50
489.32	3246.03
489.53	3194.83
489.73	3145.68
489.93	3758.02
490.13	3174.35
490.33	2916.31
490.53	3407.82
490.73	3743.69
490.94	3033.04
491.14	3233.74
491.34	3596.23
491.54	3565.51
491.74	4073.41
491.94	4487.10
492.14	5179.31
492.34	5224.37
492.54	4722.62
492.75	4124.61
492.95	4483.00
493.15	4169.66
493.35	3753.93
493.55	3729.35
493.75	3780.55
493.95	4026.31
494.15	3403.72
494.35	3250.13
494.56	3364.81
494.76	3268.56
494.96	3377.10
495.16	3074.00
495.36	3506.12
495.56	3428.30
495.76	3338.19
495.96	3055.57
496.16	3237.84
496.36	3909.57
496.56	3164.11
496.77	3270.61
496.97	3471.31
497.17	3727.30
497.37	2994.13
497.57	3246.03
497.77	3393.48
497.97	3254.22
498.17	3246.03
498.37	3094.48
498.57	3545.03
498.77	3352.52
498.97	3272.65
499.17	3606.47
499.38	3483.59
499.58	3606.47
499.78	3270.61
499.98	3327.95
500.18	3356.62
500.38	3205.07
500.58	3450.83
500.78	3739.59
500.98	6035.36
501.18	7858.06
501.38	9183.09
501.58	9977.70
501.78	10008.42
501.98	8507.26
502.18	6987.67
502.38	6213.54
502.58	6213.54
502.78	5476.27
502.98	5220.27
503.18	5130.16
503.38	4898.74
503.59	4157.38
503.79	4061.12
503.99	3745.73
504.19	3938.24
504.39	3960.77
504.59	3569.61
504.79	3538.89
504.99	4116.42
505.19	3616.71
505.39	3233.74
505.59	3502.03
505.79	3880.90
505.99	3659.72
506.19	3155.92
506.39	3413.96
506.59	3348.43
506.79	3436.49
506.99	3352.52
507.19	3151.82
507.39	3581.90
507.59	3090.38
507.79	3094.48
507.99	3125.20
508.19	3364.81
508.39	3364.81
508.59	3225.55
508.79	3237.84
508.99	3868.61
509.19	3239.89
509.39	3272.65
509.59	3108.82
509.79	3364.81
509.99	3542.99
510.19	3342.28
510.39	3280.85
510.59	3471.31
510.79	3299.28
510.99	3022.80
511.19	3264.46
511.39	3839.94
511.59	3618.76
511.79	3221.45
511.99	3147.73
512.19	3856.33
512.38	3428.30
512.58	3139.54
512.78	3071.95
512.98	3624.90
513.18	3893.19
513.38	3102.67
513.58	3262.41
513.78	3463.12
513.98	3338.19
514.18	3168.21
514.38	3196.88
514.58	3557.32
514.78	3266.51
514.98	3094.48
515.18	3248.08
515.38	3145.68
515.58	3909.57
515.78	3186.64
515.98	3100.62
516.18	3553.23
516.38	3461.07
516.57	3143.63
516.77	3137.49
516.97	3626.95
517.17	3387.34
517.37	2924.50
517.57	3227.60
517.77	3456.97
517.97	3278.80
518.17	3160.02
518.37	3043.28
518.57	3254.22
518.77	3379.15
518.97	3207.12
519.16	3196.88
519.36	3708.87
519.56	3291.09
519.76	3196.88
519.96	3237.84
520.16	3741.64
520.36	3205.07
520.56	3381.20
520.76	3096.53
520.96	3403.72
521.16	3743.69
521.35	3418.06
521.55	3227.60
521.75	3442.64
521.95	3332.05
522.15	3082.19
522.35	3035.09
522.55	3250.13
522.75	3583.95
522.95	3008.47
523.14	3008.47
523.34	3418.06
523.54	3303.37
523.74	3315.66
523.94	3157.97
524.14	3104.72
524.34	3504.07
524.54	3395.53
524.73	3182.54
524.93	3555.27
525.13	3469.26
525.33	3033.04
525.53	3422.16
525.73	3573.71
525.93	3440.59
526.13	3186.64
526.32	3086.29
526.52	3678.15
526.72	3608.52
526.92	3194.83
527.12	3098.58
527.32	3139.54
527.52	3524.55
527.71	3145.68
527.91	3229.65
528.11	3305.42
528.31	3426.25
528.51	3157.97
528.71	3362.76
528.90	3536.84
529.10	3796.93
529.30	3258.32
529.50	2987.99
529.70	3504.07
529.90	3299.28
530.09	3196.88
530.29	2961.36
530.49	3239.89
530.69	4050.88
530.89	3305.42
531.09	3293.13
531.28	3352.52
531.48	3700.68
531.68	3176.40
531.88	3172.30
532.08	3561.42
532.28	3370.96
532.47	3352.52
532.67	3264.46
532.87	3530.70
533.07	3174.35
533.27	3182.54
533.46	3360.72
533.66	3444.68
533.86	3368.91
534.06	3160.02
534.26	3180.50
534.45	3381.20
534.65	3731.40
534.85	3338.19
535.05	3051.47
535.25	3549.13
535.44	3192.78
535.64	3254.22
535.84	3188.69
536.04	3411.92
536.24	3364.81
536.43	3108.82
536.63	3084.24
536.83	3454.92
537.03	3422.16
537.22	2942.93
537.42	2977.75
537.62	3524.55
537.82	3295.18
538.02	3286.99
538.21	3286.99
538.41	4065.22
538.61	3604.42
538.81	3221.45
539.00	3348.43
539.20	3182.54
539.40	3346.38
539.60	3178.45
539.79	3403.72
539.99	3411.92
540.19	3241.93
540.39	3059.67
540.58	3307.47
540.78	3729.35
540.98	3540.94
541.18	3467.21
541.37	3203.02
541.57	3424.20
541.77	3577.80
541.97	3086.29
542.16	3061.71
542.36	3377.10
542.56	3651.53
542.76	3350.48
542.95	3254.22
543.15	3561.42
543.35	3534.79
543.54	3188.69
543.74	3137.49
543.94	3782.60
544.14	3295.18
544.33	3291.09
544.53	3174.35
544.73	3379.15
544.93	3352.52
545.12	3117.01
545.32	3164.11
545.52	3446.73
545.71	3192.78
545.91	3217.36
546.11	3067.86
546.30	3246.03
546.50	3426.25
546.70	3258.32
546.90	3153.87
547.09	3078.10
547.29	3405.77
547.49	3325.90
547.68	3280.85
547.88	3266.51
548.08	3532.75
548.27	3436.49
548.47	3104.72
548.67	3381.20
548.87	3489.74
549.06	3137.49
549.26	3098.58
549.46	3487.69
549.65	3319.76
549.85	3153.87
550.05	3233.74
550.24	3145.68
550.44	3469.26
550.64	3258.32
550.83	3248.08
551.03	3680.20
551.23	3700.68
551.42	3151.82
551.62	3319.76
551.82	3504.07
552.01	3368.91
552.21	3483.59
552.41	3301.33
552.60	3776.45
552.80	3418.06
553.00	3155.92
553.19	3151.82
553.39	3778.50
553.59	3172.30
553.78	3327.95
553.98	3121.10
554.17	3180.50
554.37	3520.46
554.57	3231.69
554.76	3053.52
554.96	3295.18
555.16	3479.50
555.35	3297.23
555.55	3358.67
555.75	3360.72
555.94	3585.99
556.14	2992.08
556.33	3264.46
556.53	3434.44
556.73	3338.19
556.92	3147.73
557.12	3033.04
557.32	3956.68
557.51	3717.06
557.71	3256.27
557.90	3385.29
558.10	3712.97
558.30	3305.42
558.49	3200.98
558.69	3168.21
558.88	3573.71
559.08	3520.46
559.28	3162.06
559.47	3327.95
559.67	3475.40
559.86	3878.85
560.06	3147.73
560.26	3139.54
560.45	3567.56
560.65	3422.16
560.84	3502.03
561.04	3020.75
561.24	3551.18
561.43	3231.69
561.63	3461.07
561.82	3307.47
562.02	3532.75
562.22	3188.69
562.41	3069.91
562.61	3192.78
562.80	3108.82
563.00	3856.33
563.19	3233.74
563.39	3274.70
563.59	3534.79
563.78	3174.35
563.98	2930.64
564.17	3149.78
564.37	3104.72
564.56	3381.20
564.76	3057.62
564.96	3262.41
565.15	3532.75
565.35	4026.31
565.54	3182.54
565.74	3157.97
565.93	3561.42
566.13	3362.76
566.32	3270.61
566.52	3321.81
566.71	3463.12
566.91	3624.90
567.11	3309.52
567.30	3051.47
567.50	3561.42
567.69	3590.09
567.89	3100.62
568.08	3035.09
568.28	3456.97
568.47	3213.26
568.67	3151.82
568.86	3188.69
569.06	3598.28
569.25	3266.51
569.45	3004.37
569.64	3221.45
569.84	3325.90
570.04	3549.13
570.23	3192.78
570.43	3272.65
570.62	3506.12
570.82	3772.36
571.01	3147.73
571.21	3102.67
571.40	3225.55
571.60	3512.27
571.79	3289.04
571.99	3172.30
572.18	3176.40
572.38	3506.12
572.57	3317.71
572.77	3282.89
572.96	4024.26
573.16	3528.65
573.35	3137.49
573.55	3336.14
573.74	3438.54
573.94	3297.23
574.13	3082.19
574.33	3297.23
574.52	3715.02
574.71	3477.45
574.91	3225.55
575.10	3024.85
575.30	3289.04
575.49	3246.03
575.69	3067.86
575.88	3125.20
576.08	3418.06
576.27	3704.78
576.47	3071.95
576.66	3344.33
576.86	3706.82
577.05	3567.56
577.25	3229.65
577.44	3377.10
577.64	3334.09
577.83	3633.10
578.02	3149.78
578.22	3278.80
578.41	3829.70
578.61	3356.62
578.80	3078.10
579.00	3215.31
579.19	3430.35
579.39	3536.84
579.58	3297.23
579.77	3223.50
579.97	3712.97
580.16	3631.05
580.36	3272.65
580.55	3209.17
580.75	3518.41
580.94	3413.96
581.13	3352.52
581.33	3411.92
581.52	3354.57
581.72	3792.84
581.91	3289.04
582.11	3133.39
582.30	3612.62
582.49	3528.65
582.69	3524.55
582.88	3170.26
583.08	3440.59
583.27	3626.95
583.47	3293.13
583.66	3184.59
583.85	3241.93
584.05	3418.06
584.24	3354.57
584.44	3205.07
584.63	3700.68
584.82	3626.95
585.02	3395.53
585.21	3264.46
585.41	3583.95
585.60	3405.77
585.79	3485.64
585.99	3444.68
586.18	3452.88
586.37	4419.52
586.57	6711.19
586.76	18632.42
586.96	37402.05
587.15	50087.17
587.34	58332.29
587.54	61484.12
587.73	53855.43
587.93	39040.43
588.12	30172.72
588.31	24735.37
588.51	22165.17
588.70	20584.13
588.89	18013.93
589.09	15234.84
589.28	13258.55
589.47	10569.57
589.67	7856.01
589.86	6377.37
590.06	5046.20
590.25	4476.86
590.44	3860.42
590.64	3608.52
590.83	3680.20
591.02	3700.68
591.22	3139.54
591.41	3221.45
591.60	3379.15
591.80	4079.55
591.99	3051.47
592.18	3213.26
592.38	3612.62
592.57	3356.62
592.76	3172.30
592.96	3225.55
593.15	3368.91
593.34	3657.67
593.54	3233.74
593.73	3297.23
593.92	3487.69
594.12	3559.37
594.31	3221.45
594.50	3387.34
594.70	3491.79
594.89	4171.71
595.08	3117.01
595.28	3352.52
595.47	4106.18
595.66	3641.29
595.86	3143.63
596.05	3022.80
596.24	3327.95
596.43	3819.46
596.63	3305.42
596.82	3330.00
597.01	3450.83
597.21	3825.61
597.40	3102.67
597.59	3260.37
597.79	3438.54
597.98	3555.27
598.17	3270.61
598.36	3184.59
598.56	3598.28
598.75	3319.76
598.94	3184.59
599.14	3243.98
599.33	3317.71
599.52	3581.90
599.71	3213.26
599.91	3217.36
600.10	3590.09
600.29	3387.34
600.48	3323.85
600.68	3370.96
600.87	3485.64
601.06	3319.76
601.26	3352.52
601.45	3356.62
601.64	3389.39
601.83	3745.73
602.03	3071.95
602.22	3004.37
602.41	3682.25
602.60	3954.63
602.80	3309.52
602.99	3403.72
603.18	3317.71
603.37	3434.44
603.57	3069.91
603.76	3207.12
603.95	3721.16
604.14	3327.95
604.34	3147.73
604.53	3119.06
604.72	3418.06
604.91	3643.34
605.10	3112.91
605.30	3024.85
605.49	3846.09
605.68	3626.95
605.87	3196.88
606.07	3164.11
606.26	3510.22
606.45	3659.72
606.64	3180.50
606.84	3059.67
607.03	3411.92
607.22	3729.35
607.41	3176.40
607.60	3155.92
607.80	3631.05
607.99	3373.00
608.18	3200.98
608.37	3155.92
608.56	3278.80
608.76	3657.67
608.95	3338.19
609.14	3182.54
609.33	3643.34
609.52	3794.89
609.72	3262.41
609.91	3254.22
610.10	3467.21
610.29	3774.41
610.48	3375.05
610.68	3295.18
610.87	3375.05
611.06	3565.51
611.25	3164.11
611.44	3250.13
611.63	3305.42
611.83	3690.44
612.02	3117.01
612.21	3225.55
612.40	3049.43
612.59	3196.88
612.79	3182.54
612.98	3198.93
613.17	3837.89
613.36	3413.96
613.55	3307.47
613.74	3162.06
613.93	3405.77
614.13	3502.03
614.32	3321.81
614.51	3231.69
614.70	3395.53
614.89	3280.85
615.08	3246.03
615.28	3502.03
615.47	3233.74
615.66	3524.55
615.85	3231.69
616.04	3215.31
616.23	3446.73
616.42	3368.91
616.62	3106.77
616.81	3209.17
617.00	3426.25
617.19	3594.19
617.38	3254.22
617.57	3274.70
617.76	3565.51
617.95	3540.94
618.15	3364.81
618.34	3471.31
618.53	3180.50
618.72	3686.34
618.91	3233.74
619.10	3252.17
619.29	3459.02
619.48	3469.26
619.68	3028.95
619.87	3172.30
620.06	3147.73
620.25	3583.95
620.44	3123.15
620.63	3160.02
620.82	3481.55
621.01	3479.50
621.20	3196.88
621.39	3231.69
621.59	3504.07
621.78	3368.91
621.97	3205.07
622.16	3364.81
622.35	3565.51
622.54	3592.14
622.73	3192.78
622.92	2893.78
623.11	3565.51
623.30	3391.44
623.49	3258.32
623.68	3074.00
623.88	3846.09
624.07	3303.37
624.26	3092.43
624.45	3106.77
624.64	3393.48
624.83	3528.65
625.02	3196.88
625.21	3153.87
625.40	3504.07
625.59	3712.97
625.78	3270.61
625.97	3215.31
626.16	3639.24
626.35	3571.66
626.54	3098.58
626.74	3336.14
626.93	3418.06
627.12	3403.72
627.31	3241.93
627.50	3131.34
627.69	3733.45
627.88	3303.37
628.07	3100.62
628.26	3008.47
628.45	3291.09
628.64	3254.22
628.83	3248.08
629.02	3024.85
629.21	3569.61
629.40	3409.87
629.59	3065.81
629.78	3094.48
629.97	3424.20
630.16	3536.84
630.35	3102.67
630.54	3250.13
630.73	3274.70
630.92	3446.73
631.11	3067.86
631.30	3237.84
631.49	3602.38
631.68	3385.29
631.87	3205.07
632.06	3164.11
632.25	3962.82
632.44	3483.59
632.63	3227.60
632.82	3209.17
633.01	3286.99
633.20	3401.68
633.39	3125.20
633.58	2934.74
633.77	3452.88
633.96	3590.09
634.15	3344.33
634.34	3196.88
634.53	3557.32
634.72	3225.55
634.91	2967.51
635.10	3260.37
635.29	3645.38
635.48	3442.64
635.67	3014.61
635.86	3092.43
636.05	3764.17
636.24	3471.31
636.43	3164.11
636.62	3280.85
636.81	2959.31
637.00	3426.25
637.19	3131.34
637.38	3194.83
637.57	3297.23
637.76	3375.05
637.95	3401.68
638.14	3405.77
638.33	3424.20
638.52	3430.35
638.71	2977.75
638.89	3043.28
639.08	3952.58
639.27	3663.82
639.46	3295.18
639.65	3676.10
639.84	3860.42
640.03	3977.16
640.22	3487.69
640.41	3475.40
640.60	3391.44
640.79	3657.67
640.98	3293.13
641.17	3336.14
641.36	3674.06
641.55	3618.76
641.74	3028.95
641.92	3084.24
642.11	3284.94
642.30	3313.61
642.49	3106.77
642.68	3215.31
642.87	3538.89
643.06	3606.47
643.25	3016.66
643.44	3098.58
643.63	3321.81
643.82	3606.47
644.00	3024.85
644.19	3166.16
644.38	3217.36
644.57	3585.99
644.76	3098.58
644.95	3358.67
645.14	3481.55
645.33	3405.77
645.52	3309.52
645.71	2998.23
645.89	3153.87
646.08	3475.40
646.27	3221.45
646.46	3407.82
646.65	3170.26
646.84	3596.23
647.03	3100.62
647.22	3338.19
647.40	3530.70
647.59	3334.09
647.78	2934.74
647.97	3184.59
648.16	3190.74
648.35	3758.02
648.54	3438.54
648.73	3260.37
648.91	3626.95
649.10	3436.49
649.29	3190.74
649.48	3096.53
649.67	3504.07
649.86	3467.21
650.05	3254.22
650.23	3362.76
650.42	3327.95
650.61	3739.59
650.80	3499.98
650.99	3454.92
651.18	3700.68
651.36	3682.25
651.55	3149.78
651.74	3418.06
651.93	3385.29
652.12	3420.11
652.31	3223.50
652.49	3256.27
652.68	3399.63
652.87	3721.16
653.06	3248.08
653.25	3473.36
653.44	3418.06
653.62	3731.40
653.81	3237.84
654.00	3176.40
654.19	3686.34
654.38	3948.48
654.56	3284.94
654.75	3090.38
654.94	3647.43
655.13	3508.17
655.32	3090.38
655.51	3215.31
655.69	3299.28
655.88	3735.50
656.07	2996.18
656.26	3200.98
656.45	3241.93
656.63	3377.10
656.82	3135.44
657.01	3555.27
657.20	3344.33
657.38	3764.17
657.57	3106.77
657.76	3024.85
657.95	3549.13
658.14	3366.86
658.32	3325.90
658.51	3069.91
658.70	3477.45
658.89	3499.98
659.08	3229.65
659.26	3352.52
659.45	3207.12
659.64	3581.90
659.83	3168.21
660.01	3545.03
660.20	3479.50
660.39	3737.54
660.58	2877.40
660.76	3235.79
660.95	3139.54
661.14	3461.07
661.33	3094.48
661.51	3106.77
661.70	3360.72
661.89	3495.88
662.08	3311.57
662.26	3014.61
662.45	3233.74
662.64	3827.65
662.83	3246.03
663.01	3084.24
663.20	3286.99
663.39	3778.50
663.58	3305.42
663.76	3129.30
663.95	3641.29
664.14	3190.74
664.32	3254.22
664.51	3071.95
664.70	3030.99
664.89	3493.83
665.07	3059.67
665.26	3237.84
665.45	3190.74
665.64	3524.55
665.82	3213.26
666.01	3379.15
666.20	3157.97
666.38	3614.66
666.57	3551.18
666.76	5808.04
666.95	12683.07
667.13	19001.05
667.32	22642.34
667.51	25181.82
667.69	25796.21
667.88	21026.50
668.07	15593.23
668.25	13215.54
668.44	11806.54
668.63	10219.36
668.81	9049.97
669.00	7772.04
669.19	7147.41
669.38	6295.46
669.56	5498.80
669.75	4745.14
669.94	4399.04
670.12	3782.60
670.31	3385.29
670.50	3438.54
670.68	3596.23
670.87	3522.51
671.06	3100.62
671.24	3307.47
671.43	3784.65
671.62	3459.02
671.80	3155.92
671.99	3342.28
672.18	3360.72
672.36	3614.66
672.55	3305.42
672.74	3223.50
672.92	3385.29
673.11	3639.24
673.29	3045.33
673.48	3471.31
673.67	3305.42
673.85	3563.47
674.04	3041.23
674.23	3330.00
674.41	3749.83
674.60	3182.54
674.79	2967.51
674.97	3125.20
675.16	3637.19
675.34	3604.42
675.53	3155.92
675.72	3194.83
675.90	3811.27
676.09	3362.76
676.28	3289.04
676.46	3004.37
676.65	3542.99
676.83	3213.26
677.02	3252.17
677.21	3260.37
677.39	3477.45
677.58	3270.61
677.77	3186.64
677.95	3082.19
678.14	3327.95
678.32	3330.00
678.51	3194.83
678.70	3547.08
678.88	3307.47
679.07	3467.21
679.25	3258.32
679.44	3229.65
679.63	3147.73
679.81	3549.13
680.00	3479.50
680.18	3254.22
680.37	3743.69
680.55	3438.54
680.74	3016.66
680.93	2895.83
681.11	3542.99
681.30	3370.96
681.48	3125.20
681.67	3172.30
681.85	3459.02
682.04	3286.99
682.23	3344.33
682.41	3379.15
682.60	3360.72
682.78	3426.25
682.97	3164.11
683.15	3250.13
683.34	3542.99
683.53	3760.07
683.71	3108.82
683.90	3297.23
684.08	3866.56
684.27	3391.44
684.45	3327.95
684.64	3385.29
684.82	3440.59
685.01	3518.41
685.19	3182.54
685.38	3504.07
685.57	3471.31
685.75	3256.27
685.94	3106.77
686.12	3104.72
686.31	3246.03
686.49	3788.74
686.68	2987.99
686.86	3184.59
687.05	3286.99
687.23	3762.12
687.42	3209.17
687.60	3065.81
687.79	3592.14
687.97	3733.45
688.16	3293.13
688.34	3409.87
688.53	3051.47
688.71	3594.19
688.90	3524.55
689.08	3252.17
689.27	3084.24
689.45	3643.34
689.64	3395.53
689.82	3264.46
690.01	3524.55
690.19	3540.94
690.38	3246.03
690.56	3387.34
690.75	3233.74
690.93	3366.86
691.12	3198.93
691.30	3172.30
691.49	3209.17
691.67	3473.36
691.86	3583.95
692.04	3192.78
692.23	3348.43
692.41	3465.16
692.60	3526.60
692.78	3360.72
692.97	3424.20
693.15	3516.36
693.34	3370.96
693.52	3299.28
693.71	3368.91
693.89	3342.28
694.08	3069.91
694.26	3313.61
694.44	3735.50
694.63	3614.66
694.81	3168.21
695.00	3209.17
695.18	3665.86
695.37	3983.30
695.55	3340.24
695.74	3243.98
695.92	3250.13
696.10	3715.02
696.29	3088.34
696.47	3227.60
696.66	3170.26
696.84	3127.25
697.03	3270.61
697.21	3479.50
697.40	4818.87
697.58	3710.92
697.76	3200.98
697.95	3221.45
698.13	3190.74
698.32	3340.24
698.50	3133.39
698.68	3184.59
698.87	3540.94
699.05	3753.93
699.24	3200.98
699.42	3182.54
699.61	3407.82
699.79	3481.55
699.97	3213.26
700.16	3090.38
700.34	3139.54
700.53	3598.28
700.71	3389.39
700.89	3270.61
701.08	3407.82
701.26	3370.96
701.45	3495.88
701.63	3147.73
701.81	3307.47
702.00	3180.50
702.18	3270.61
702.37	3209.17
702.55	3680.20
702.73	3426.25
702.92	3147.73
703.10	3512.27
703.28	3629.00
703.47	3172.30
703.65	3411.92
703.84	3280.85
704.02	3332.05
704.20	3844.04
704.39	3084.24
704.57	3121.10
704.75	3583.95
704.94	3512.27
705.12	3444.68
705.30	3952.58
705.49	8202.11
705.67	14569.25
705.86	19470.04
706.04	22005.42
706.22	24075.92
706.41	22849.19
706.59	16873.21
706.77	13588.27
706.96	11753.29
707.14	10884.95
707.32	9191.28
707.51	8234.88
707.69	6846.36
707.87	5834.66
708.06	4777.91
708.24	4237.25
708.42	4018.11
708.61	4212.67
708.79	3327.95
708.97	3409.87
709.16	3452.88
709.34	3454.92
709.52	3262.41
709.71	3256.27
709.89	3497.93
710.07	3221.45
710.26	3082.19
710.44	3147.73
710.62	3608.52
710.80	3387.34
710.99	3307.47
711.17	3311.57
711.35	3278.80
711.54	3264.46
711.72	3360.72
711.90	3258.32
712.09	3520.46
712.27	3284.94
712.45	3381.20
712.63	3145.68
712.82	3405.77
713.00	3454.92
713.18	3278.80
713.37	3409.87
713.55	3688.39
713.73	3612.62
713.91	3256.27
714.10	3207.12
714.28	3409.87
714.46	3469.26
714.65	3432.40
714.83	3272.65
715.01	3442.64
715.19	3483.59
715.38	3178.45
715.56	3383.24
715.74	3305.42
715.92	3338.19
716.11	3559.37
716.29	2979.79
716.47	3477.45
716.65	3448.78
716.84	3082.19
717.02	3270.61
717.20	3149.78
717.38	3330.00
717.57	3368.91
717.75	3286.99
717.93	3383.24
718.11	3655.62
718.30	3078.10
718.48	3207.12
718.66	3614.66
718.84	3579.85
719.03	3250.13
719.21	3041.23
719.39	4016.07
719.57	3559.37
719.75	3327.95
719.94	3082.19
720.12	3307.47
720.30	3366.86
720.48	3305.42
720.67	3209.17
720.85	3215.31
721.03	3360.72
721.21	3209.17
721.39	3309.52
721.58	3659.72
721.76	3516.36
721.94	3213.26
722.12	3280.85
722.30	3776.45
722.49	3315.66
722.67	3174.35
722.85	3252.17
723.03	3166.16
723.21	3319.76
723.40	3215.31
723.58	3375.05
723.76	3590.09
723.94	3692.49
724.12	3155.92
724.30	3485.64
724.49	3614.66
724.67	3221.45
724.85	3180.50
725.03	3147.73
725.21	3571.66
725.40	3674.06
725.58	3250.13
725.76	3463.12
725.94	3530.70
726.12	3131.34
726.30	3311.57
726.49	3188.69
726.67	3342.28
726.85	3487.69
727.03	3891.14
727.21	4892.60
727.39	6248.35
727.57	6600.60
727.76	6877.08
727.94	6846.36
728.12	5928.87
728.30	5134.26
728.48	4913.08
728.66	4569.02
728.84	4403.13
729.03	3876.80
729.21	3633.10
729.39	3479.50
729.57	3518.41
729.75	3524.55
729.93	3475.40
730.11	3110.86
730.30	3366.86
730.48	3393.48
730.66	3254.22
730.84	3282.89
731.02	3463.12
731.20	3313.61
731.38	3205.07
731.56	3057.62
731.74	3147.73
731.93	3467.21
732.11	3338.19
732.29	3198.93
732.47	3614.66
732.65	3403.72
732.83	3452.88
733.01	3235.79
733.19	3246.03
733.37	3446.73
733.56	3221.45
733.74	3057.62
733.92	3694.54
734.10	3393.48
734.28	3440.59
734.46	3004.37
734.64	3428.30
734.82	3303.37
735.00	3233.74
735.18	3123.15
735.36	3477.45
735.54	3370.96
735.73	3153.87
735.91	3375.05
736.09	3700.68
736.27	3426.25
736.45	3280.85
736.63	2967.51
736.81	3299.28
736.99	3573.71
737.17	3426.25
737.35	3209.17
737.53	3471.31
737.71	3450.83
737.89	3401.68
738.07	3164.11
738.25	3305.42
738.43	3106.77
738.61	3264.46
738.80	3035.09
738.98	3241.93
739.16	3246.03
739.34	3291.09
739.52	3413.96
739.70	3370.96
739.88	3479.50
740.06	3364.81
740.24	2889.68
740.42	3704.78
740.60	3114.96
740.78	3209.17
740.96	2930.64
741.14	3289.04
741.32	3403.72
741.50	3022.80
741.68	3467.21
741.86	3678.15
742.04	3250.13
742.22	3096.53
742.40	3246.03
742.58	3547.08
742.76	3293.13
742.94	3477.45
743.12	2971.60
743.30	3422.16
743.48	3516.36
743.66	3100.62
743.84	3170.26
744.02	3373.00
744.20	3426.25
744.38	3139.54
744.56	3180.50
744.74	3833.80
744.92	3618.76
745.10	3452.88
745.28	3280.85
745.46	3798.98
745.64	3405.77
745.82	3213.26
746.00	3190.74
746.18	3518.41
746.36	3200.98
746.54	3221.45
746.72	3246.03
746.90	3155.92
747.08	3667.91
747.26	3162.06
747.44	3360.72
747.62	3635.14
747.80	3510.22
747.98	3362.76
748.15	3143.63
748.33	3796.93
748.51	3524.55
748.69	3280.85
748.87	3080.14
749.05	3364.81
749.23	3356.62
749.41	3200.98
749.59	3184.59
749.77	3659.72
749.95	3334.09
750.13	3209.17
750.31	3348.43
750.49	3360.72
750.67	3577.80
750.85	3342.28
751.03	3198.93
751.20	3907.52
751.38	3424.20
751.56	3317.71
751.74	3155.92
751.92	3352.52
752.10	3153.87
752.28	3317.71
752.46	3213.26
752.64	3387.34
752.82	3430.35
753.00	3336.14
753.18	3098.58
753.35	3346.38
753.53	3434.44
753.71	3119.06
753.89	3252.17
754.07	3485.64
754.25	3633.10
754.43	3274.70
754.61	3147.73
754.79	3594.19
754.97	3430.35
755.14	3379.15
755.32	3157.97
755.50	3436.49
755.68	3477.45
755.86	3145.68
756.04	3104.72
756.22	3100.62
756.40	3565.51
756.57	3418.06
756.75	3254.22
756.93	3676.10
757.11	3665.86
757.29	3102.67
757.47	3059.67
757.65	3123.15
757.82	2979.79
758.00	3065.81
758.18	3178.45
758.36	3246.03
758.54	3870.66
758.72	2983.89
758.90	3362.76
759.07	3518.41
759.25	3286.99
759.43	3295.18
759.61	3098.58
759.79	4622.27
759.97	3643.34
760.15	3280.85
760.32	3160.02
760.50	3506.12
760.68	3743.69
760.86	3092.43
761.04	3430.35
761.22	3645.38
761.39	3487.69
761.57	3375.05
761.75	3221.45
761.93	3579.85
762.11	3416.01
762.28	3327.95
762.46	3127.25
762.64	3663.82
762.82	3184.59
763.00	3098.58
763.18	3512.27
763.35	3078.10
763.53	3633.10
763.71	3362.76
763.89	3184.59
764.07	3467.21
764.24	3432.40
764.42	3250.13
764.60	3200.98
764.78	3555.27
764.96	3602.38
765.13	3418.06
765.31	2994.13
765.49	3598.28
765.67	3243.98
765.84	3186.64
766.02	3198.93
766.20	3051.47
766.38	3569.61
766.56	3354.57
766.73	3354.57
766.91	3489.74
767.09	3454.92
767.27	3217.36
767.44	3108.82
767.62	3561.42
767.80	3504.07
767.98	3133.39
768.15	3198.93
768.33	3610.57
768.51	3672.01
768.69	3286.99
768.87	3180.50
769.04	3434.44
769.22	4077.51
769.40	3348.43
769.58	3278.80
769.75	3547.08
769.93	3751.88
770.11	3170.26
770.28	3037.14
770.46	3604.42
770.64	3542.99
770.82	3209.17
770.99	3135.44
771.17	3624.90
771.35	3350.48
771.53	3239.89
771.70	3174.35
771.88	3553.23
772.06	3405.77
772.23	3108.82
772.41	3213.26
772.59	3389.39
772.77	3256.27
772.94	3237.84
773.12	3291.09
773.30	3327.95
773.47	3489.74
773.65	3123.15
773.83	3434.44
774.01	3485.64
774.18	3071.95
774.36	3135.44
774.54	3051.47
774.71	3491.79
774.89	3108.82
775.07	3008.47
775.24	3110.86
775.42	3256.27
775.60	3844.04
775.78	3024.85
775.95	3033.04
776.13	3108.82
776.31	3168.21
776.48	3405.77
776.66	3332.05
776.84	3366.86
777.01	3264.46
777.19	3096.53
777.37	3143.63
777.54	3598.28
777.72	3866.56
777.90	3246.03
778.07	3065.81
778.25	4114.37
778.43	3624.90
778.60	3164.11
778.78	3219.41
778.96	3803.08
779.13	3141.58
779.31	3307.47
779.49	3243.98
779.66	3493.83
779.84	3303.37
780.01	3180.50
780.19	3104.72
780.37	3719.11
780.54	3667.91
780.72	3055.57
780.90	3248.08
781.07	3395.53
781.25	3256.27
781.43	3385.29
781.60	3121.10
781.78	3712.97
781.95	3456.97
782.13	3184.59
782.31	3172.30
782.48	3057.62
782.66	3485.64
782.83	3471.31
783.01	3272.65
783.19	3635.14
783.36	3350.48
783.54	3104.72
783.72	3235.79
783.89	3297.23
784.07	3524.55
784.24	3309.52
784.42	3315.66
784.60	3471.31
784.77	3416.01
784.95	2940.88
785.12	3174.35
785.30	3536.84
785.47	3231.69
785.65	3119.06
785.83	3221.45
786.00	3377.10
786.18	3401.68
786.35	3157.97
786.53	3086.29
786.71	3649.48
786.88	3499.98
787.06	3254.22
787.23	3313.61
787.41	3176.40
787.58	3377.10
787.76	3114.96
787.94	3200.98
788.11	3416.01
788.29	3166.16
788.46	3192.78
788.64	2987.99
788.81	3330.00
788.99	3233.74
789.16	3127.25
789.34	3166.16
789.52	3297.23
789.69	3364.81
789.87	3074.00
790.04	3106.77
790.22	3426.25
790.39	3813.32
790.57	3131.34
790.74	3106.77
790.92	3573.71
791.09	3106.77
791.27	3266.51
791.44	3221.45
791.62	3346.38
791.79	3590.09
791.97	3332.05
792.15	3508.17
792.32	3450.83
792.50	3499.98
792.67	3381.20
792.85	3497.93
793.02	3590.09
793.20	3327.95
793.37	3053.52
793.55	3117.01
793.72	3192.78
793.90	3620.81
794.07	3155.92
794.25	3207.12
794.42	3416.01
794.60	3338.19
794.77	3182.54
794.95	3315.66
795.12	3655.62
795.30	3334.09
795.47	2926.55
795.65	3518.41
795.82	3594.19
796.00	3196.88
796.17	3315.66
796.34	3088.34
796.52	3471.31
796.69	3608.52
796.87	3213.26
797.04	3348.43
797.22	3618.76
797.39	3516.36
797.57	3332.05
797.74	3370.96
797.92	3561.42
798.09	3368.91
798.27	3532.75
798.44	3188.69
798.62	3327.95
798.79	3499.98
798.96	3387.34
799.14	3151.82
799.31	4032.45
799.49	3401.68
799.66	3221.45
799.84	3217.36
800.01	3094.48
800.19	3454.92
800.36	3008.47
800.53	3313.61
800.71	3512.27
800.88	3764.17
801.06	3100.62
801.23	3239.89
801.41	3313.61
801.58	3370.96
801.75	3168.21
801.93	3237.84
802.10	3585.99
802.28	3235.79
802.45	3231.69
802.63	3233.74
802.80	3700.68
802.97	3436.49
803.15	3160.02
803.32	3192.78
803.50	3246.03
803.67	3315.66
803.84	3162.06
804.02	3274.70
804.19	3397.58
804.37	2977.75
804.54	2992.08
804.71	3143.63
804.89	3502.03
805.06	3286.99
805.24	3131.34
805.41	3065.81
805.58	3217.36
805.76	3950.53
805.93	3149.78
806.10	3334.09
806.28	3604.42
806.45	3360.72
806.63	3348.43
806.80	3295.18
806.97	3469.26
807.15	3487.69
807.32	3330.00
807.49	3082.19
807.67	3084.24
807.84	3629.00
808.01	3135.44
808.19	3428.30
808.36	3893.19
808.54	3387.34
808.71	3168.21
808.88	3207.12
809.06	3747.78
809.23	3758.02
809.40	3278.80
809.58	3176.40
809.75	3454.92
809.92	3223.50
810.10	3475.40
810.27	3143.63
810.44	3538.89
810.62	3598.28
810.79	3278.80
810.96	3194.83
811.14	3307.47
811.31	3565.51
811.48	3362.76
811.66	3258.32
811.83	3723.21
812.00	3540.94
812.18	3186.64
812.35	3512.27
812.52	3340.24
812.69	3237.84
812.87	3147.73
813.04	3114.96
813.21	3416.01
813.39	3262.41
813.56	3051.47
813.73	3450.83
813.91	3286.99
814.08	3401.68
814.25	3180.50
814.42	3012.56
814.60	3387.34
814.77	3487.69
814.94	3178.45
815.12	3305.42
815.29	3704.78
815.46	3368.91
815.63	3258.32
815.81	3168.21
815.98	3387.34
816.15	3426.25
816.33	3350.48
816.50	3188.69
816.67	3446.73
816.84	3413.96
817.02	3147.73
817.19	3211.22
817.36	3514.31
817.53	3461.07
817.71	3125.20
817.88	3209.17
818.05	3334.09
818.22	3338.19
818.40	3387.34
818.57	3215.31
818.74	3542.99
818.91	3348.43
819.09	3375.05
819.26	3254.22
819.43	3221.45
819.60	3235.79
819.78	3424.20
819.95	3246.03
820.12	3178.45
820.29	3680.20
820.47	3530.70
820.64	3086.29
820.81	3117.01
820.98	3254.22
821.15	3211.22
821.33	3332.05
821.50	3082.19
821.67	3573.71
821.84	3117.01
822.02	3225.55
822.19	3573.71
822.36	3383.24
822.53	3209.17
822.70	3157.97
822.88	3334.09
823.05	3637.19
823.22	3319.76
823.39	3155.92
823.56	3442.64
823.74	3868.61
823.91	2987.99
824.08	3114.96
824.25	3282.89
824.42	3784.65
824.60	3026.90
824.77	3225.55
824.94	3418.06
825.11	3514.31
825.28	3047.38
825.45	3373.00
825.63	3461.07
825.80	3225.55
825.97	3254.22
826.14	3297.23
826.31	3117.01
826.48	3555.27
826.66	3213.26
826.83	3160.02
827.00	3411.92
827.17	3235.79
827.34	3209.17
827.51	3076.05
827.69	3379.15
827.86	3137.49
828.03	3192.78
828.20	3227.60
828.37	3330.00
828.54	3483.59
828.71	3114.96
828.89	3297.23
829.06	3485.64
829.23	3704.78
829.40	3155.92
829.57	3237.84
829.74	3569.61
829.91	3284.94
830.09	3198.93
830.26	3377.10
830.43	3731.40
830.60	3422.16
830.77	3313.61
830.94	3280.85
831.11	3600.33
831.28	3338.19
831.46	3282.89
831.63	3196.88
831.80	3657.67
831.97	3188.69
832.14	3286.99
832.31	3174.35
832.48	3432.40
832.65	3631.05
832.82	3393.48
832.99	3272.65
833.17	3219.41
833.34	3653.58
833.51	3078.10
833.68	3067.86
833.85	3657.67
834.02	3174.35
834.19	3133.39
834.36	3188.69
834.53	3475.40
834.70	3649.48
834.87	3094.48
835.04	2942.93
835.22	3262.41
835.39	3323.85
835.56	2983.89
835.73	3053.52
835.90	3645.38
836.07	3203.02
836.24	3174.35
836.41	3045.33
836.58	3186.64
836.75	3680.20
836.92	3049.43
837.09	3039.19
837.26	3553.23
837.43	3526.60
837.60	3018.71
837.77	3049.43
837.94	3600.33
838.12	3762.12
838.29	2961.36
838.46	2881.49
838.63	3123.15
838.80	3770.31
838.97	3114.96
839.14	3057.62
839.31	3434.44
839.48	3641.29
839.65	2924.50
839.82	3137.49
839.99	3471.31
840.16	3377.10
840.33	2953.17
840.50	3108.82
840.67	3250.13
840.84	2983.89
841.01	2994.13
841.18	2983.89
841.35	3352.52
841.52	3614.66
841.69	3344.33
841.86	3037.14
842.03	3387.34
842.20	3651.53
842.37	2975.70
842.54	3082.19
842.71	3354.57
842.88	3160.02
843.05	3051.47
843.22	3008.47
843.39	3694.54
843.56	3250.13
843.73	2959.31
843.90	3141.58
844.07	3467.21
844.24	3579.85
844.41	3086.29
844.58	3106.77
844.75	3493.83
844.92	3465.16
845.09	3096.53
845.26	3043.28
845.43	3680.20
845.60	3289.04
845.77	3147.73
845.94	3108.82
846.10	3616.71
846.27	3065.81
846.44	2967.51
846.61	2926.55
846.78	3545.03
846.95	3684.30
847.12	2971.60
847.29	3074.00
847.46	3217.36
847.63	3606.47
847.80	2967.51
847.97	3067.86
848.14	3991.49
848.31	3393.48
848.48	2883.54
848.65	2990.03
848.82	3262.41
848.98	4030.40
849.15	3102.67
849.32	3190.74
849.49	3747.78
849.66	3303.37
849.83	3041.23
850.00	2891.73
850.17	3608.52
850.34	3270.61
850.51	2983.89
850.68	3090.38
850.85	3958.72
851.01	3418.06
851.18	3000.27
851.35	3069.91
851.52	3444.68
851.69	3739.59
851.86	2992.08
852.03	2969.55
852.20	3612.62
852.37	3463.12
852.53	2895.83
852.70	2951.12
852.87	3456.97
853.04	3592.14
853.21	3049.43
853.38	3303.37
853.55	3704.78
853.72	3647.43
853.89	2969.55
854.05	2928.60
854.22	3393.48
854.39	3270.61
854.56	2949.08
854.73	3192.78
854.90	3262.41
855.07	3397.58
855.23	2953.17
855.40	2963.41
855.57	3487.69
855.74	2932.69
855.91	3250.13
856.08	2801.62
856.25	3229.65
856.41	3180.50
856.58	2965.46
856.75	3094.48
856.92	3186.64
857.09	3540.94
857.26	2838.48
857.42	2985.94
857.59	3588.04
857.76	3362.76
857.93	2940.88
858.10	3112.91
858.27	3215.31
858.43	3424.20
858.60	3012.56
858.77	2879.44
858.94	3254.22
859.11	3653.58
859.27	3162.06
859.44	2934.74
859.61	3919.81
859.78	3600.33
859.95	3082.19
860.12	2959.31
860.28	3899.33
860.45	3827.65
860.62	2975.70
860.79	3086.29
860.95	3332.05
861.12	3286.99
861.29	2926.55
861.46	3016.66
861.63	3493.83
861.79	3446.73
861.96	2895.83
862.13	2981.84
862.30	3770.31
862.47	3293.13
862.63	2879.44
862.80	3100.62
862.97	3727.30
863.14	3510.22
863.30	3147.73
863.47	2889.68
863.64	3745.73
863.81	3479.50
863.97	2979.79
864.14	3024.85
864.31	3393.48
864.48	3510.22
864.65	2963.41
864.81	3131.34
864.98	3516.36
865.15	3657.67
865.32	3098.58
865.48	3088.34
865.65	3712.97
865.82	3356.62
865.98	3074.00
866.15	3135.44
866.32	3428.30
866.49	3323.85
866.65	3106.77
866.82	3051.47
866.99	3377.10
867.16	3311.57
867.32	3033.04
867.49	2906.07
867.66	3368.91
867.83	3219.41
867.99	2861.01
868.16	3086.29
868.33	3188.69
868.49	3420.11
868.66	2998.23
868.83	3086.29
868.99	3444.68
869.16	3401.68
869.33	3178.45
869.50	3131.34
869.66	3397.58
869.83	3373.00
870.00	2865.11
870.16	3207.12
870.33	3420.11
870.50	3561.42
870.66	3123.15
870.83	3043.28
871.00	3375.05
871.17	3520.46
871.33	3065.81
871.50	3024.85
871.67	3461.07
871.83	3147.73
872.00	3164.11
872.17	3053.52
872.33	3803.08
872.50	3663.82
872.67	3002.32
872.83	2951.12
873.00	3645.38
873.17	3456.97
873.33	3039.19
873.50	3028.95
873.67	3205.07
873.83	3286.99
874.00	3030.99
874.16	3149.78
874.33	3393.48
874.50	3143.63
874.66	2967.51
874.83	3121.10
875.00	3680.20
875.16	3688.39
875.33	3121.10
875.50	2682.84
875.66	3387.34
875.83	3477.45
875.99	3043.28
876.16	3213.26
876.33	3254.22
876.49	3278.80
876.66	3082.19
876.83	3123.15
876.99	3043.28
877.16	3385.29
877.32	3000.27
877.49	3139.54
877.66	3581.90
877.82	3762.12
877.99	3127.25
878.15	3323.85
878.32	3477.45
878.49	3434.44
878.65	3176.40
878.82	3303.37
878.98	3346.38
879.15	3635.14
879.32	3215.31
879.48	3270.61
879.65	3467.21
879.81	3456.97
879.98	3074.00
880.15	3117.01
880.31	3551.18
880.48	3291.09
880.64	3200.98
880.81	3213.26
880.97	3725.26
881.14	3749.83
881.31	3033.04
881.47	3229.65
881.64	3413.96
881.80	3104.72
881.97	3239.89
882.13	3041.23
882.30	3248.08
882.47	3311.57
882.63	3098.58
882.80	2992.08
882.96	3305.42
883.13	3667.91
883.29	3053.52
883.46	3051.47
883.62	3887.04
883.79	3463.12
883.95	3217.36
884.12	2992.08
884.29	3641.29
884.45	3534.79
884.62	3092.43
884.78	2881.49
884.95	3737.54
885.11	3284.94
885.28	3131.34
885.44	3149.78
885.61	3549.13
885.77	3672.01
885.94	3180.50
886.10	3080.14
886.27	3362.76
886.43	3833.80
886.60	3223.50
886.76	3080.14
886.93	3209.17
887.09	3479.50
887.26	2914.26
887.42	3143.63
887.59	3684.30
887.75	3829.70
887.92	3223.50
888.08	3170.26
888.25	3827.65
888.41	3667.91
888.58	3172.30
888.74	3037.14
888.91	3327.95
>>>>>End Processed Spectral Data<<<<<
