SpectraSuite Data File
++++++++++++++++++++++++++++++++++++
Date: Fri May 06 09:28:51 CEST 2016
User: root
Dark Spectrum Present: No
Reference Spectrum Present: No
Number of Sampled Component Spectra: 1
Spectrometers: USB4C02835
Integration Time (usec): 100000 (USB4C02835)
Spectra Averaged: 1 (USB4C02835)
Boxcar Smoothing: 0 (USB4C02835)
Correct for Electrical Dark: No (USB4C02835)
Strobe/Lamp Enabled: No (USB4C02835)
Correct for Detector Non-linearity: No (USB4C02835)
Correct for Stray Light: No (USB4C02835)
Number of Pixels in Processed Spectrum: 3648
>>>>>Begin Processed Spectral Data<<<<<
177.47	2320.35
177.69	2320.35
177.91	2320.35
178.13	2340.83
178.36	2330.59
178.58	3102.67
178.80	3278.80
179.02	3123.15
179.24	3188.69
179.46	2807.77
179.68	2947.03
179.90	3395.53
180.13	3467.21
180.35	2781.14
180.57	2901.97
180.79	3669.96
181.01	3370.96
181.23	2910.16
181.45	3117.01
181.67	3581.90
181.90	3651.53
182.12	2969.55
182.34	2807.77
182.56	3581.90
182.78	3561.42
183.00	2893.78
183.22	3026.90
183.44	3080.14
183.66	4124.61
183.89	3104.72
184.11	2951.12
184.33	3565.51
184.55	3758.02
184.77	2893.78
184.99	2981.84
185.21	3387.34
185.43	3968.96
185.65	3004.37
185.87	2963.41
186.10	3973.06
186.32	4024.26
186.54	3180.50
186.76	3012.56
186.98	3694.54
187.20	3362.76
187.42	3020.75
187.64	2910.16
187.86	3561.42
188.08	3676.10
188.30	2844.63
188.52	3014.61
188.75	3846.09
188.97	3776.45
189.19	2957.27
189.41	2951.12
189.63	3555.27
189.85	3348.43
190.07	2781.14
190.29	2832.34
190.51	3520.46
190.73	3205.07
190.95	3246.03
191.17	3002.32
191.39	3080.14
191.61	3368.91
191.84	3014.61
192.06	3145.68
192.28	3129.30
192.50	4204.48
192.72	3168.21
192.94	2938.84
193.16	3710.92
193.38	3475.40
193.60	2869.20
193.82	3104.72
194.04	3620.81
194.26	3520.46
194.48	2998.23
194.70	2934.74
194.92	3385.29
195.14	3631.05
195.36	2932.69
195.58	3018.71
195.80	3481.55
196.02	3268.56
196.24	2928.60
196.46	3057.62
196.69	3346.38
196.91	4005.83
197.13	3065.81
197.35	3076.05
197.57	3803.08
197.79	3583.95
198.01	3014.61
198.23	2981.84
198.45	3512.27
198.67	3121.10
198.89	2731.99
199.11	3039.19
199.33	3366.86
199.55	2971.60
199.77	2869.20
199.99	3131.34
200.21	3387.34
200.43	3454.92
200.65	2940.88
200.87	2783.19
201.09	3526.60
201.31	3395.53
201.53	2996.18
201.75	3037.14
201.97	3547.08
202.19	3450.83
202.41	2983.89
202.63	3063.76
202.85	3643.34
203.07	3526.60
203.29	3043.28
203.51	2828.24
203.73	3307.47
203.95	4034.50
204.17	2926.55
204.39	3084.24
204.61	3405.77
204.83	3340.24
205.05	3143.63
205.27	2910.16
205.49	3903.43
205.71	3434.44
205.93	2842.58
206.15	2836.44
206.37	3518.41
206.59	3370.96
206.81	2742.23
207.03	2854.87
207.25	3286.99
207.47	3565.51
207.69	2985.94
207.91	3200.98
208.13	3868.61
208.34	3303.37
208.56	2887.64
208.78	2928.60
209.00	3395.53
209.22	3368.91
209.44	2928.60
209.66	2922.45
209.88	3512.27
210.10	3362.76
210.32	2987.99
210.54	3047.38
210.76	3364.81
210.98	3682.25
211.20	2852.82
211.42	3033.04
211.64	3778.50
211.86	3682.25
212.08	3000.27
212.30	2936.79
212.52	3424.20
212.74	3626.95
212.96	3057.62
213.17	3016.66
213.39	3641.29
213.61	3737.54
213.83	2922.45
214.05	2824.15
214.27	3743.69
214.49	3211.22
214.71	2928.60
214.93	3133.39
215.15	3532.75
215.37	3643.34
215.59	2873.30
215.81	3045.33
216.03	3801.03
216.24	3426.25
216.46	2983.89
216.68	3024.85
216.90	3536.84
217.12	3794.89
217.34	2979.79
217.56	3076.05
217.78	3700.68
218.00	3608.52
218.22	3129.30
218.44	3037.14
218.66	3450.83
218.87	3860.42
219.09	2992.08
219.31	2963.41
219.53	3542.99
219.75	3401.68
219.97	3074.00
220.19	2967.51
220.41	3413.96
220.63	3778.50
220.85	2947.03
221.06	2975.70
221.28	3764.17
221.50	3631.05
221.72	3012.56
221.94	2742.23
222.16	3485.64
222.38	3653.58
222.60	2926.55
222.82	2951.12
223.03	3684.30
223.25	3231.69
223.47	2918.36
223.69	3172.30
223.91	3514.31
224.13	3434.44
224.35	2910.16
224.57	3223.50
224.78	3680.20
225.00	3307.47
225.22	3098.58
225.44	2869.20
225.66	3657.67
225.88	3311.57
226.10	3074.00
226.32	2992.08
226.53	3764.17
226.75	3342.28
226.97	3008.47
227.19	2955.22
227.41	3286.99
227.63	3379.15
227.85	2750.42
228.06	3078.10
228.28	3440.59
228.50	3610.57
228.72	2715.61
228.94	2965.46
229.16	3051.47
229.37	3196.88
229.59	2858.96
229.81	3282.89
230.03	3282.89
230.25	3139.54
230.47	2897.88
230.69	2955.22
230.90	3581.90
231.12	3319.76
231.34	3078.10
231.56	3053.52
231.78	3198.93
232.00	3485.64
232.21	2955.22
232.43	2965.46
232.65	2987.99
232.87	3540.94
233.09	2842.58
233.30	2926.55
233.52	3655.62
233.74	3481.55
233.96	2953.17
234.18	3139.54
234.40	3364.81
234.61	3960.77
234.83	2869.20
235.05	2930.64
235.27	4083.65
235.49	3790.79
235.70	2803.67
235.92	3092.43
236.14	3581.90
236.36	3991.49
236.58	2836.44
236.79	3074.00
237.01	3407.82
237.23	3381.20
237.45	3209.17
237.67	2977.75
237.88	3577.80
238.10	3868.61
238.32	2897.88
238.54	3016.66
238.76	3506.12
238.97	3235.79
239.19	2842.58
239.41	3008.47
239.63	3694.54
239.85	3373.00
240.06	2953.17
240.28	2983.89
240.50	3766.21
240.72	3379.15
240.93	2893.78
241.15	3069.91
241.37	3592.14
241.59	3770.31
241.81	2994.13
242.02	3030.99
242.24	3471.31
242.46	3676.10
242.68	2805.72
242.89	2901.97
243.11	3747.78
243.33	3405.77
243.55	2955.22
243.76	2947.03
243.98	3282.89
244.20	3502.03
244.42	2953.17
244.64	2951.12
244.85	3215.31
245.07	3313.61
245.29	2979.79
245.51	2981.84
245.72	3614.66
245.94	3696.58
246.16	2918.36
246.38	3016.66
246.59	3346.38
246.81	3346.38
247.03	2871.25
247.24	2805.72
247.46	3344.33
247.68	3526.60
247.90	2936.79
248.11	2977.75
248.33	3682.25
248.55	3487.69
248.77	2987.99
248.98	3123.15
249.20	3710.92
249.42	3485.64
249.64	2895.83
249.85	2940.88
250.07	3368.91
250.29	3684.30
250.50	3049.43
250.72	2930.64
250.94	3600.33
251.16	3997.64
251.37	2881.49
251.59	3033.04
251.81	3555.27
252.02	3706.82
252.24	2836.44
252.46	3172.30
252.68	3284.94
252.89	3254.22
253.11	2729.94
253.33	3112.91
253.54	3784.65
253.76	3164.11
253.98	3016.66
254.20	2940.88
254.41	3213.26
254.63	3430.35
254.85	2803.67
255.06	3074.00
255.28	3575.75
255.50	3352.52
255.71	2897.88
255.93	2807.77
256.15	3469.26
256.36	3594.19
256.58	2766.81
256.80	2910.16
257.02	3454.92
257.23	3321.81
257.45	2977.75
257.67	3119.06
257.88	3375.05
258.10	3493.83
258.32	2910.16
258.53	3069.91
258.75	3895.24
258.97	3332.05
259.18	2893.78
259.40	2863.06
259.62	3870.66
259.83	3817.41
260.05	3000.27
260.27	3981.25
260.48	3651.53
260.70	3248.08
260.92	2904.02
261.13	3004.37
261.35	3573.71
261.57	3502.03
261.78	2813.91
262.00	2901.97
262.22	3610.57
262.43	3276.75
262.65	2934.74
262.86	2996.18
263.08	3934.15
263.30	3428.30
263.51	2791.38
263.73	2897.88
263.95	3813.32
264.16	3260.37
264.38	2805.72
264.60	2916.31
264.81	3514.31
265.03	3741.64
265.25	3485.64
265.46	2951.12
265.68	3704.78
265.89	3512.27
266.11	2856.92
266.33	2928.60
266.54	3680.20
266.76	3612.62
266.98	3076.05
267.19	3207.12
267.41	3669.96
267.62	3508.17
267.84	2783.19
268.06	3028.95
268.27	3581.90
268.49	3733.45
268.70	2944.98
268.92	2977.75
269.14	3295.18
269.35	3188.69
269.57	3098.58
269.79	3016.66
270.00	3413.96
270.22	3878.85
270.43	2916.31
270.65	2799.57
270.87	3508.17
271.08	3610.57
271.30	3135.44
271.51	2985.94
271.73	3583.95
271.95	3790.79
272.16	2889.68
272.38	3108.82
272.59	3323.85
272.81	3545.03
273.02	2865.11
273.24	3039.19
273.46	3626.95
273.67	3164.11
273.89	2844.63
274.10	2961.36
274.32	3723.21
274.54	3526.60
274.75	3086.29
274.97	3104.72
275.18	3680.20
275.40	3594.19
275.61	2938.84
275.83	3164.11
276.05	3219.41
276.26	3403.72
276.48	3078.10
276.69	3121.10
276.91	3340.24
277.12	3825.61
277.34	3117.01
277.55	3213.26
277.77	3450.83
277.99	3381.20
278.20	3141.58
278.42	3061.71
278.63	3325.90
278.85	3217.36
279.06	3043.28
279.28	3129.30
279.49	3704.78
279.71	3573.71
279.93	3143.63
280.14	3209.17
280.36	3286.99
280.57	3665.86
280.79	3225.55
281.00	3002.32
281.22	3338.19
281.43	3672.01
281.65	2828.24
281.86	2955.22
282.08	3545.03
282.29	3837.89
282.51	2996.18
282.73	2987.99
282.94	3157.97
283.16	3585.99
283.37	3186.64
283.59	3104.72
283.80	3520.46
284.02	3401.68
284.23	3121.10
284.45	3100.62
284.66	3303.37
284.88	3291.09
285.09	2932.69
285.31	3239.89
285.52	3510.22
285.74	3061.71
285.95	3266.51
286.17	3188.69
286.38	3858.37
286.60	3319.76
286.81	3033.04
287.03	3080.14
287.24	3471.31
287.46	3635.14
287.67	3227.60
287.89	3319.76
288.10	3440.59
288.32	3495.88
288.53	3213.26
288.75	3127.25
288.96	3612.62
289.18	3344.33
289.39	3059.67
289.61	3155.92
289.82	3968.96
290.04	3911.62
290.25	2992.08
290.47	3217.36
290.68	3446.73
290.90	3557.32
291.11	2869.20
291.33	3155.92
291.54	3235.79
291.76	3381.20
291.97	3295.18
292.18	3217.36
292.40	3375.05
292.61	3282.89
292.83	3395.53
293.04	3139.54
293.26	3553.23
293.47	3377.10
293.69	3057.62
293.90	2934.74
294.12	3751.88
294.33	3526.60
294.55	3162.06
294.76	3280.85
294.97	3770.31
295.19	3938.24
295.40	3078.10
295.62	3106.77
295.83	3641.29
296.05	3325.90
296.26	3340.24
296.48	3096.53
296.69	3454.92
296.90	3362.76
297.12	3295.18
297.33	3239.89
297.55	3379.15
297.76	3577.80
297.98	3157.97
298.19	3293.13
298.41	3430.35
298.62	3221.45
298.83	3311.57
299.05	3215.31
299.26	3430.35
299.48	3289.04
299.69	3174.35
299.90	3067.86
300.12	3180.50
300.33	3639.24
300.55	3117.01
300.76	3137.49
300.98	3166.16
301.19	3559.37
301.40	3096.53
301.62	3084.24
301.83	3471.31
302.05	3467.21
302.26	3041.23
302.47	3160.02
302.69	3196.88
302.90	3381.20
303.12	2852.82
303.33	3174.35
303.54	3893.19
303.76	3395.53
303.97	3055.57
304.19	3303.37
304.40	3174.35
304.61	3573.71
304.83	3196.88
305.04	3114.96
305.26	3708.87
305.47	3338.19
305.68	3133.39
305.90	2973.65
306.11	3753.93
306.33	3442.64
306.54	2990.03
306.75	3172.30
306.97	3092.43
307.18	3155.92
307.39	3026.90
307.61	3174.35
307.82	3387.34
308.04	3504.07
308.25	2953.17
308.46	3237.84
308.68	3491.79
308.89	3502.03
309.10	3213.26
309.32	3168.21
309.53	3454.92
309.74	3522.51
309.96	3074.00
310.17	3241.93
310.39	3264.46
310.60	3590.09
310.81	3221.45
311.03	2926.55
311.24	3563.47
311.45	3479.50
311.67	3377.10
311.88	3229.65
312.09	3356.62
312.31	3352.52
312.52	2977.75
312.73	3049.43
312.95	3180.50
313.16	3229.65
313.37	3270.61
313.59	3332.05
313.80	3629.00
314.01	3794.89
314.23	3069.91
314.44	2981.84
314.65	3223.50
314.87	3248.08
315.08	3117.01
315.29	3133.39
315.51	3227.60
315.72	3194.83
315.93	3139.54
316.15	3106.77
316.36	3334.09
316.57	3430.35
316.79	3067.86
317.00	3071.95
317.21	3588.04
317.43	3248.08
317.64	3172.30
317.85	3051.47
318.07	3207.12
318.28	3299.28
318.49	3106.77
318.70	3315.66
318.92	3450.83
319.13	3440.59
319.34	3254.22
319.56	3024.85
319.77	3475.40
319.98	3573.71
320.20	3381.20
320.41	3260.37
320.62	3532.75
320.83	3166.16
321.05	3289.04
321.26	3133.39
321.47	3444.68
321.69	3725.26
321.90	3039.19
322.11	3084.24
322.32	3463.12
322.54	3835.85
322.75	3170.26
322.96	4276.16
323.18	3074.00
323.39	3051.47
323.60	3092.43
323.81	3258.32
324.03	3373.00
324.24	3444.68
324.45	3254.22
324.66	3043.28
324.88	3794.89
325.09	3897.28
325.30	3051.47
325.52	2983.89
325.73	3598.28
325.94	3289.04
326.15	2942.93
326.37	2942.93
326.58	3569.61
326.79	3753.93
327.00	3016.66
327.22	3106.77
327.43	3426.25
327.64	3176.40
327.85	3323.85
328.07	3194.83
328.28	3856.33
328.49	3221.45
328.70	3127.25
328.92	3084.24
329.13	3424.20
329.34	3563.47
329.55	3370.96
329.76	3231.69
329.98	3399.63
330.19	3649.48
330.40	3182.54
330.61	3291.09
330.83	3657.67
331.04	3229.65
331.25	3293.13
331.46	3196.88
331.68	3203.02
331.89	3692.49
332.10	3166.16
332.31	2967.51
332.52	3434.44
332.74	3807.17
332.95	2867.16
333.16	3074.00
333.37	3612.62
333.58	3334.09
333.80	3166.16
334.01	2959.31
334.22	3391.44
334.43	3305.42
334.64	3002.32
334.86	3121.10
335.07	3270.61
335.28	3735.50
335.49	2961.36
335.70	3119.06
335.92	3801.03
336.13	3837.89
336.34	3074.00
336.55	3051.47
336.76	3528.65
336.98	3074.00
337.19	3125.20
337.40	3180.50
337.61	4042.69
337.82	3375.05
338.04	3170.26
338.25	2955.22
338.46	3403.72
338.67	3430.35
338.88	3010.51
339.09	2951.12
339.31	3293.13
339.52	3211.22
339.73	3039.19
339.94	3084.24
340.15	3631.05
340.36	3264.46
340.58	3192.78
340.79	3061.71
341.00	3553.23
341.21	3164.11
341.42	3409.87
341.63	3131.34
341.85	3667.91
342.06	3516.36
342.27	3045.33
342.48	3217.36
342.69	3211.22
342.90	3502.03
343.12	3463.12
343.33	3010.51
343.54	3678.15
343.75	3827.65
343.96	3233.74
344.17	3016.66
344.38	3385.29
344.60	3211.22
344.81	3049.43
345.02	3092.43
345.23	3672.01
345.44	3983.30
345.65	3213.26
345.86	3131.34
346.07	3524.55
346.29	3352.52
346.50	3256.27
346.71	3114.96
346.92	3792.84
347.13	3911.62
347.34	3231.69
347.55	3008.47
347.76	3557.32
347.98	3100.62
348.19	3135.44
348.40	3344.33
348.61	3370.96
348.82	3772.36
349.03	3248.08
349.24	3002.32
349.45	3919.81
349.66	3028.95
349.88	3080.14
350.09	3063.76
350.30	3796.93
350.51	3684.30
350.72	3327.95
350.93	3059.67
351.14	3352.52
351.35	3618.76
351.56	3164.11
351.77	3123.15
351.99	3481.55
352.20	3739.59
352.41	3147.73
352.62	2967.51
352.83	3483.59
353.04	3442.64
353.25	3147.73
353.46	3104.72
353.67	3766.21
353.88	3014.61
354.09	3026.90
354.30	3207.12
354.52	3553.23
354.73	3381.20
354.94	3133.39
355.15	3192.78
355.36	3887.04
355.57	3352.52
355.78	2985.94
355.99	3041.23
356.20	3493.83
356.41	3782.60
356.62	3098.58
356.83	3190.74
357.04	3755.97
357.25	3110.86
357.46	3098.58
357.68	2990.03
357.89	3215.31
358.10	3416.01
358.31	3039.19
358.52	3153.87
358.73	3170.26
358.94	3143.63
359.15	3141.58
359.36	3106.77
359.57	3411.92
359.78	3411.92
359.99	3338.19
360.20	2979.79
360.41	3362.76
360.62	3602.38
360.83	3205.07
361.04	3133.39
361.25	3530.70
361.46	3760.07
361.67	3209.17
361.88	3139.54
362.09	3690.44
362.30	3493.83
362.51	3076.05
362.72	3137.49
362.93	3583.95
363.14	3518.41
363.35	3207.12
363.56	3112.91
363.78	3706.82
363.99	3655.62
364.20	3176.40
364.41	3205.07
364.62	3831.75
364.83	3571.66
365.04	3071.95
365.25	3135.44
365.46	3882.95
365.67	3299.28
365.88	3280.85
366.09	3106.77
366.30	3350.48
366.51	3434.44
366.72	3063.76
366.93	3030.99
367.14	3475.40
367.35	3684.30
367.56	3080.14
367.77	3215.31
367.98	3475.40
368.18	3551.18
368.39	3278.80
368.60	3028.95
368.81	3676.10
369.02	3545.03
369.23	3071.95
369.44	2957.27
369.65	3418.06
369.86	3581.90
370.07	3221.45
370.28	2967.51
370.49	3467.21
370.70	3510.22
370.91	3047.38
371.12	2981.84
371.33	3692.49
371.54	3430.35
371.75	3229.65
371.96	2897.88
372.17	3428.30
372.38	3362.76
372.59	3127.25
372.80	3061.71
373.01	3403.72
373.22	3502.03
373.43	3110.86
373.64	2998.23
373.85	3669.96
374.06	3882.95
374.26	3262.41
374.47	3280.85
374.68	3813.32
374.89	3436.49
375.10	3014.61
375.31	3274.70
375.52	3516.36
375.73	3538.89
375.94	2955.22
376.15	3178.45
376.36	3297.23
376.57	3358.67
376.78	3096.53
376.99	3155.92
377.20	3680.20
377.40	3389.39
377.61	3346.38
377.82	3121.10
378.03	3747.78
378.24	3534.79
378.45	3229.65
378.66	3223.50
378.87	3147.73
379.08	3061.71
379.29	3178.45
379.50	3323.85
379.71	3420.11
379.91	3575.75
380.12	3043.28
380.33	3272.65
380.54	3444.68
380.75	3389.39
380.96	3125.20
381.17	3143.63
381.38	3416.01
381.59	3368.91
381.80	3186.64
382.00	3286.99
382.21	3463.12
382.42	3792.84
382.63	3483.59
382.84	3405.77
383.05	3604.42
383.26	3768.26
383.47	3282.89
383.68	3090.38
383.88	3614.66
384.09	3467.21
384.30	3352.52
384.51	3327.95
384.72	3280.85
384.93	3147.73
385.14	3200.98
385.35	3467.21
385.55	3157.97
385.76	3764.17
385.97	3151.82
386.18	3037.14
386.39	3256.27
386.60	3348.43
386.81	3090.38
387.02	3002.32
387.22	3162.06
387.43	3571.66
387.64	3209.17
387.85	3346.38
388.06	3409.87
388.27	4372.41
388.48	7214.99
388.68	10923.87
388.89	13782.83
389.10	14892.83
389.31	14223.14
389.52	11743.05
389.73	10323.81
389.93	9480.05
390.14	8484.73
390.35	7903.11
390.56	7382.93
390.77	6203.30
390.98	4847.54
391.18	4124.61
391.39	3938.24
391.60	3446.73
391.81	3387.34
392.02	3203.02
392.23	4007.87
392.43	3463.12
392.64	3180.50
392.85	3221.45
393.06	3819.46
393.27	3430.35
393.47	3057.62
393.68	3237.84
393.89	3401.68
394.10	3772.36
394.31	3170.26
394.52	3100.62
394.72	3311.57
394.93	3782.60
395.14	3004.37
395.35	3258.32
395.56	3276.75
395.76	3405.77
395.97	3139.54
396.18	3207.12
396.39	3319.76
396.60	4138.94
396.80	3495.88
397.01	3397.58
397.22	3532.75
397.43	3649.48
397.64	3057.62
397.84	3278.80
398.05	3780.55
398.26	3387.34
398.47	3225.55
398.67	3434.44
398.88	3428.30
399.09	3633.10
399.30	3123.15
399.51	3174.35
399.71	3266.51
399.92	3411.92
400.13	3274.70
400.34	3119.06
400.54	3385.29
400.75	3809.22
400.96	3260.37
401.17	3430.35
401.37	3510.22
401.58	3422.16
401.79	3166.16
402.00	3289.04
402.21	3911.62
402.41	3598.28
402.62	3383.24
402.83	3479.50
403.04	3786.69
403.24	4216.77
403.45	3213.26
403.66	3450.83
403.87	3649.48
404.07	3827.65
404.28	3362.76
404.49	3483.59
404.70	3559.37
404.90	3524.55
405.11	3196.88
405.32	3286.99
405.52	3307.47
405.73	3289.04
405.94	3022.80
406.15	3227.60
406.35	3508.17
406.56	3575.75
406.77	3211.22
406.98	3205.07
407.18	3395.53
407.39	3837.89
407.60	3188.69
407.80	3215.31
408.01	3375.05
408.22	3483.59
408.43	3024.85
408.63	3272.65
408.84	3680.20
409.05	3690.44
409.25	3078.10
409.46	3246.03
409.67	3307.47
409.88	3368.91
410.08	3231.69
410.29	3133.39
410.50	3622.86
410.70	3467.21
410.91	3039.19
411.12	3188.69
411.32	3436.49
411.53	3330.00
411.74	3188.69
411.95	3233.74
412.15	3383.24
412.36	3598.28
412.57	3311.57
412.77	3315.66
412.98	3452.88
413.19	3370.96
413.39	3248.08
413.60	3239.89
413.81	3717.06
414.01	3205.07
414.22	3147.73
414.43	3321.81
414.63	3393.48
414.84	3647.43
415.05	3264.46
415.25	3026.90
415.46	3647.43
415.67	3303.37
415.87	3180.50
416.08	3037.14
416.29	3364.81
416.49	3508.17
416.70	3213.26
416.91	3188.69
417.11	3370.96
417.32	3710.92
417.53	3301.33
417.73	3315.66
417.94	3471.31
418.15	3454.92
418.35	3237.84
418.56	3127.25
418.77	3909.57
418.97	3534.79
419.18	3278.80
419.38	2887.64
419.59	3508.17
419.80	3831.75
420.00	3074.00
420.21	3117.01
420.42	3760.07
420.62	3545.03
420.83	3155.92
421.04	3153.87
421.24	3483.59
421.45	3624.90
421.65	3194.83
421.86	3149.78
422.07	3702.73
422.27	3588.04
422.48	3074.00
422.69	3002.32
422.89	3483.59
423.10	3403.72
423.30	3127.25
423.51	3196.88
423.72	3553.23
423.92	3631.05
424.13	3084.24
424.33	3286.99
424.54	3606.47
424.75	3545.03
424.95	3323.85
425.16	3117.01
425.36	3418.06
425.57	3706.82
425.78	3323.85
425.98	3252.17
426.19	3465.16
426.39	3338.19
426.60	3221.45
426.81	3403.72
427.01	3499.98
427.22	3274.70
427.42	3030.99
427.63	3102.67
427.83	3708.87
428.04	3839.94
428.25	3172.30
428.45	3250.13
428.66	3719.11
428.86	3467.21
429.07	3172.30
429.28	3078.10
429.48	3463.12
429.69	3303.37
429.89	3262.41
430.10	3139.54
430.30	3604.42
430.51	3549.13
430.71	3104.72
430.92	3237.84
431.13	3375.05
431.33	3600.33
431.54	3274.70
431.74	3411.92
431.95	4020.16
432.15	3246.03
432.36	3121.10
432.56	3162.06
432.77	3866.56
432.98	3878.85
433.18	3278.80
433.39	2969.55
433.59	3450.83
433.80	3866.56
434.00	3284.94
434.21	3237.84
434.41	3278.80
434.62	3999.68
434.82	2959.31
435.03	3157.97
435.23	3549.13
435.44	3041.23
435.64	3096.53
435.85	3327.95
436.06	3614.66
436.26	3622.86
436.47	3164.11
436.67	3133.39
436.88	3401.68
437.08	3700.68
437.29	3233.74
437.49	3368.91
437.70	3657.67
437.90	3391.44
438.11	3399.63
438.31	3256.27
438.52	3696.58
438.72	3733.45
438.93	3418.06
439.13	3330.00
439.34	3659.72
439.54	3321.81
439.75	3270.61
439.95	3143.63
440.16	3211.22
440.36	3422.16
440.57	3176.40
440.77	3174.35
440.98	3370.96
441.18	3530.70
441.39	3076.05
441.59	2994.13
441.80	3885.00
442.00	3346.38
442.21	3276.75
442.41	3012.56
442.62	3622.86
442.82	3284.94
443.02	3174.35
443.23	3129.30
443.43	3303.37
443.64	3645.38
443.84	3037.14
444.05	3252.17
444.25	3366.86
444.46	3264.46
444.66	3119.06
444.87	3309.52
445.07	3141.58
445.28	3430.35
445.48	3334.09
445.69	3223.50
445.89	4020.16
446.09	3381.20
446.30	3538.89
446.50	3542.99
446.71	4970.42
446.91	6143.91
447.12	6711.19
447.32	7217.04
447.53	7294.86
447.73	6279.07
447.93	5445.55
448.14	5201.84
448.34	5443.50
448.55	4489.15
448.75	4337.60
448.96	4081.60
449.16	4184.00
449.36	4079.55
449.57	3332.05
449.77	3317.71
449.98	3311.57
450.18	3596.23
450.39	3078.10
450.59	3393.48
450.79	3461.07
451.00	3364.81
451.20	3327.95
451.41	3127.25
451.61	3547.08
451.81	3454.92
452.02	3100.62
452.22	3157.97
452.43	3342.28
452.63	3344.33
452.84	3278.80
453.04	3086.29
453.24	3463.12
453.45	3303.37
453.65	3205.07
453.86	3225.55
454.06	3481.55
454.26	3395.53
454.47	3137.49
454.67	3381.20
454.87	3573.71
455.08	3375.05
455.28	3297.23
455.49	3479.50
455.69	3237.84
455.89	3934.15
456.10	3219.41
456.30	3076.05
456.51	3606.47
456.71	3516.36
456.91	3293.13
457.12	3188.69
457.32	3532.75
457.52	3192.78
457.73	3340.24
457.93	3354.57
458.14	3248.08
458.34	3067.86
458.54	3166.16
458.75	3112.91
458.95	3708.87
459.15	3510.22
459.36	3213.26
459.56	3164.11
459.76	3962.82
459.97	3467.21
460.17	3178.45
460.37	3248.08
460.58	3477.45
460.78	3620.81
460.99	3223.50
461.19	3200.98
461.39	3319.76
461.60	3379.15
461.80	3180.50
462.00	3100.62
462.21	3411.92
462.41	3270.61
462.61	3008.47
462.82	2965.46
463.02	3577.80
463.22	3424.20
463.43	3162.06
463.63	3076.05
463.83	3809.22
464.04	3575.75
464.24	3057.62
464.44	3098.58
464.64	3504.07
464.85	3594.19
465.05	3192.78
465.25	3112.91
465.46	3309.52
465.66	3600.33
465.86	3243.98
466.07	3139.54
466.27	3446.73
466.47	3131.34
466.68	2977.75
466.88	3248.08
467.08	3659.72
467.29	3676.10
467.49	3200.98
467.69	3264.46
467.89	3604.42
468.10	3360.72
468.30	3192.78
468.50	3270.61
468.71	3635.14
468.91	3086.29
469.11	3393.48
469.31	3321.81
469.52	3250.13
469.72	3764.17
469.92	3430.35
470.13	3135.44
470.33	3497.93
470.53	3461.07
470.73	3526.60
470.94	3819.46
471.14	4030.40
471.34	4616.12
471.54	4126.66
471.75	3950.53
471.95	3827.65
472.15	3829.70
472.36	3727.30
472.56	3528.65
472.76	3954.63
472.96	3819.46
473.17	3358.67
473.37	3254.22
473.57	3450.83
473.77	3604.42
473.98	3330.00
474.18	3131.34
474.38	4155.33
474.58	3352.52
474.79	3053.52
474.99	3231.69
475.19	3774.41
475.39	3188.69
475.60	3307.47
475.80	3067.86
476.00	3524.55
476.20	3381.20
476.41	3278.80
476.61	3276.75
476.81	3760.07
477.01	3358.67
477.21	3450.83
477.42	3270.61
477.62	3360.72
477.82	3602.38
478.02	3143.63
478.23	3151.82
478.43	3346.38
478.63	3377.10
478.83	3246.03
479.03	3157.97
479.24	3745.73
479.44	3852.23
479.64	3141.58
479.84	2979.79
480.04	3229.65
480.25	3667.91
480.45	3074.00
480.65	3084.24
480.85	3862.47
481.06	3313.61
481.26	3274.70
481.46	3198.93
481.66	3549.13
481.86	3225.55
482.06	3323.85
482.27	3299.28
482.47	3350.48
482.67	3506.12
482.87	3248.08
483.07	3172.30
483.28	3282.89
483.48	3305.42
483.68	3151.82
483.88	3018.71
484.08	3057.62
484.29	3207.12
484.49	3211.22
484.69	2932.69
484.89	3735.50
485.09	3704.78
485.29	3184.59
485.50	3385.29
485.70	3364.81
485.90	3796.93
486.10	3346.38
486.30	3114.96
486.50	3676.10
486.71	3461.07
486.91	3246.03
487.11	3205.07
487.31	3192.78
487.51	3573.71
487.71	3125.20
487.91	3041.23
488.12	3196.88
488.32	2959.31
488.52	3190.74
488.72	2871.25
488.92	3471.31
489.12	3672.01
489.32	3284.94
489.53	3117.01
489.73	3127.25
489.93	3921.86
490.13	3172.30
490.33	3092.43
490.53	3471.31
490.73	3692.49
490.94	3057.62
491.14	3252.17
491.34	3590.09
491.54	3504.07
491.74	4003.78
491.94	4534.20
492.14	5162.93
492.34	5154.74
492.54	4736.95
492.75	4163.52
492.95	4421.56
493.15	4108.23
493.35	3798.98
493.55	3729.35
493.75	3798.98
493.95	4073.41
494.15	3387.34
494.35	3239.89
494.56	3356.62
494.76	3252.17
494.96	3352.52
495.16	3147.73
495.36	3393.48
495.56	3491.79
495.76	3276.75
495.96	3133.39
496.16	3332.05
496.36	3848.13
496.56	3090.38
496.77	3205.07
496.97	3418.06
497.17	3784.65
497.37	3059.67
497.57	3291.09
497.77	3463.12
497.97	3229.65
498.17	3213.26
498.37	3098.58
498.57	3567.56
498.77	3387.34
498.97	3289.04
499.17	3508.17
499.38	3430.35
499.58	3571.66
499.78	3356.62
499.98	3299.28
500.18	3368.91
500.38	3200.98
500.58	3397.58
500.78	3706.82
500.98	6027.17
501.18	7815.05
501.38	9135.99
501.58	9826.15
501.78	9811.82
501.98	8396.67
502.18	6948.76
502.38	6115.23
502.58	6287.26
502.78	5435.31
502.98	5207.98
503.18	5091.25
503.38	4814.77
503.59	4132.80
503.79	4005.83
503.99	3635.14
504.19	3948.48
504.39	3903.43
504.59	3604.42
504.79	3549.13
504.99	3903.43
505.19	3651.53
505.39	3411.92
505.59	3545.03
505.79	3827.65
505.99	3647.43
506.19	3129.30
506.39	3426.25
506.59	3280.85
506.79	3348.43
506.99	3401.68
507.19	3076.05
507.39	3438.54
507.59	3149.78
507.79	3168.21
507.99	3196.88
508.19	3344.33
508.39	3368.91
508.59	3217.36
508.79	3176.40
508.99	3938.24
509.19	3325.90
509.39	3192.78
509.59	3123.15
509.79	3297.23
509.99	3461.07
510.19	3334.09
510.39	3352.52
510.59	3491.79
510.79	3356.62
510.99	2975.70
511.19	3074.00
511.39	3907.52
511.59	3692.49
511.79	3280.85
511.99	3078.10
512.19	3870.66
512.38	3493.83
512.58	3057.62
512.78	3114.96
512.98	3723.21
513.18	3817.41
513.38	3117.01
513.58	3278.80
513.78	3418.06
513.98	3373.00
514.18	3190.74
514.38	3141.58
514.58	3573.71
514.78	3246.03
514.98	3055.57
515.18	3205.07
515.38	3166.16
515.58	3755.97
515.78	3129.30
515.98	3217.36
516.18	3616.71
516.38	3442.64
516.57	3098.58
516.77	3114.96
516.97	3551.18
517.17	3280.85
517.37	3026.90
517.57	3209.17
517.77	3403.72
517.97	3303.37
518.17	3246.03
518.37	3061.71
518.57	3330.00
518.77	3289.04
518.97	3254.22
519.16	3200.98
519.36	3667.91
519.56	3327.95
519.76	3151.82
519.96	3225.55
520.16	3631.05
520.36	3211.22
520.56	3305.42
520.76	3059.67
520.96	3375.05
521.16	3712.97
521.35	3299.28
521.55	3243.98
521.75	3491.79
521.95	3284.94
522.15	3147.73
522.35	3065.81
522.55	3276.75
522.75	3536.84
522.95	3030.99
523.14	3051.47
523.34	3475.40
523.54	3346.38
523.74	3307.47
523.94	3227.60
524.14	3100.62
524.34	3528.65
524.54	3346.38
524.73	3231.69
524.93	3581.90
525.13	3502.03
525.33	3043.28
525.53	3411.92
525.73	3629.00
525.93	3397.58
526.13	3151.82
526.32	3006.42
526.52	3676.10
526.72	3678.15
526.92	3164.11
527.12	3057.62
527.32	3110.86
527.52	3559.37
527.71	3196.88
527.91	3221.45
528.11	3305.42
528.31	3362.76
528.51	3106.77
528.71	3278.80
528.90	3608.52
529.10	3721.16
529.30	3227.60
529.50	2987.99
529.70	3549.13
529.90	3311.57
530.09	3184.59
530.29	2979.79
530.49	3190.74
530.69	4018.11
530.89	3317.71
531.09	3256.27
531.28	3313.61
531.48	3690.44
531.68	3182.54
531.88	3160.02
532.08	3585.99
532.28	3442.64
532.47	3268.56
532.67	3241.93
532.87	3549.13
533.07	3268.56
533.27	3194.83
533.46	3256.27
533.66	3532.75
533.86	3383.24
534.06	3252.17
534.26	3125.20
534.45	3399.63
534.65	3672.01
534.85	3364.81
535.05	3205.07
535.25	3588.04
535.44	3084.24
535.64	3217.36
535.84	3289.04
536.04	3336.14
536.24	3356.62
536.43	3227.60
536.63	3160.02
536.83	3442.64
537.03	3325.90
537.22	2961.36
537.42	2977.75
537.62	3514.31
537.82	3254.22
538.02	3379.15
538.21	3229.65
538.41	4073.41
538.61	3520.46
538.81	3278.80
539.00	3270.61
539.20	3155.92
539.40	3366.86
539.60	3125.20
539.79	3434.44
539.99	3364.81
540.19	3254.22
540.39	3121.10
540.58	3123.15
540.78	3631.05
540.98	3403.72
541.18	3375.05
541.37	3256.27
541.57	3499.98
541.77	3495.88
541.97	3051.47
542.16	2992.08
542.36	3303.37
542.56	3682.25
542.76	3352.52
542.95	3266.51
543.15	3465.16
543.35	3616.71
543.54	3112.91
543.74	3110.86
543.94	3794.89
544.14	3289.04
544.33	3274.70
544.53	3188.69
544.73	3340.24
544.93	3286.99
545.12	3157.97
545.32	3172.30
545.52	3346.38
545.71	3174.35
545.91	3203.02
546.11	3114.96
546.30	3321.81
546.50	3469.26
546.70	3246.03
546.90	3188.69
547.09	3053.52
547.29	3426.25
547.49	3229.65
547.68	3149.78
547.88	3364.81
548.08	3594.19
548.27	3411.92
548.47	3102.67
548.67	3293.13
548.87	3520.46
549.06	3172.30
549.26	3065.81
549.46	3465.16
549.65	3370.96
549.85	3219.41
550.05	3229.65
550.24	3131.34
550.44	3481.55
550.64	3172.30
550.83	3272.65
551.03	3753.93
551.23	3633.10
551.42	3237.84
551.62	3282.89
551.82	3504.07
552.01	3370.96
552.21	3424.20
552.41	3213.26
552.60	3725.26
552.80	3493.83
553.00	3125.20
553.19	3176.40
553.39	3782.60
553.59	3180.50
553.78	3352.52
553.98	3090.38
554.17	3180.50
554.37	3436.49
554.57	3278.80
554.76	3061.71
554.96	3315.66
555.16	3524.55
555.35	3215.31
555.55	3278.80
555.75	3418.06
555.94	3583.95
556.14	2994.13
556.33	3180.50
556.53	3383.24
556.73	3354.57
556.92	3119.06
557.12	3108.82
557.32	3923.91
557.51	3803.08
557.71	3196.88
557.90	3385.29
558.10	3770.31
558.30	3301.33
558.49	3293.13
558.69	3157.97
558.88	3629.00
559.08	3487.69
559.28	3241.93
559.47	3217.36
559.67	3532.75
559.86	3876.80
560.06	3200.98
560.26	3192.78
560.45	3545.03
560.65	3362.76
560.84	3542.99
561.04	3166.16
561.24	3547.08
561.43	3198.93
561.63	3485.64
561.82	3221.45
562.02	3606.47
562.22	3192.78
562.41	3143.63
562.61	3164.11
562.80	3188.69
563.00	3901.38
563.19	3221.45
563.39	3252.17
563.59	3571.66
563.78	3196.88
563.98	2951.12
564.17	3155.92
564.37	3061.71
564.56	3385.29
564.76	3065.81
564.96	3295.18
565.15	3506.12
565.35	4011.97
565.54	3286.99
565.74	3196.88
565.93	3532.75
566.13	3391.44
566.32	3237.84
566.52	3205.07
566.71	3444.68
566.91	3659.72
567.11	3311.57
567.30	3074.00
567.50	3510.22
567.69	3516.36
567.89	3104.72
568.08	3033.04
568.28	3434.44
568.47	3143.63
568.67	3196.88
568.86	3172.30
569.06	3629.00
569.25	3327.95
569.45	2994.13
569.64	3166.16
569.84	3313.61
570.04	3491.79
570.23	3119.06
570.43	3225.55
570.62	3561.42
570.82	3788.74
571.01	3049.43
571.21	3217.36
571.40	3196.88
571.60	3647.43
571.79	3270.61
571.99	3190.74
572.18	3217.36
572.38	3528.65
572.57	3307.47
572.77	3209.17
572.96	4091.84
573.16	3432.40
573.35	3272.65
573.55	3264.46
573.74	3471.31
573.94	3409.87
574.13	3200.98
574.33	3299.28
574.52	3647.43
574.71	3436.49
574.91	3233.74
575.10	3037.14
575.30	3362.76
575.49	3246.03
575.69	3041.23
575.88	3110.86
576.08	3368.91
576.27	3745.73
576.47	3104.72
576.66	3377.10
576.86	3637.19
577.05	3483.59
577.25	3221.45
577.44	3362.76
577.64	3416.01
577.83	3600.33
578.02	3178.45
578.22	3289.04
578.41	3788.74
578.61	3340.24
578.80	2994.13
579.00	3215.31
579.19	3481.55
579.39	3438.54
579.58	3264.46
579.77	3233.74
579.97	3788.74
580.16	3637.19
580.36	3397.58
580.55	3227.60
580.75	3565.51
580.94	3346.38
581.13	3383.24
581.33	3487.69
581.52	3401.68
581.72	3782.60
581.91	3223.50
582.11	3100.62
582.30	3631.05
582.49	3426.25
582.69	3514.31
582.88	3295.18
583.08	3545.03
583.27	3651.53
583.47	3319.76
583.66	3114.96
583.85	3215.31
584.05	3330.00
584.24	3327.95
584.44	3184.59
584.63	3551.18
584.82	3690.44
585.02	3512.27
585.21	3252.17
585.41	3512.27
585.60	3409.87
585.79	3418.06
585.99	3450.83
586.18	3440.59
586.37	4466.62
586.57	6672.28
586.76	18536.17
586.96	36961.74
587.15	49450.25
587.34	57402.52
587.54	60884.06
587.73	53396.69
587.93	39054.76
588.12	29808.19
588.31	24602.25
588.51	22130.35
588.70	20203.21
588.89	17882.86
589.09	15099.67
589.28	13225.78
589.47	10227.56
589.67	7745.42
589.86	6244.26
590.06	5081.01
590.25	4513.72
590.44	3897.28
590.64	3514.31
590.83	3661.77
591.02	3680.20
591.22	3190.74
591.41	3196.88
591.60	3442.64
591.80	4044.74
591.99	2990.03
592.18	3200.98
592.38	3598.28
592.57	3280.85
592.76	3166.16
592.96	3233.74
593.15	3356.62
593.34	3700.68
593.54	3162.06
593.73	3272.65
593.92	3536.84
594.12	3334.09
594.31	3254.22
594.50	3356.62
594.70	3532.75
594.89	4122.56
595.08	3051.47
595.28	3305.42
595.47	4155.33
595.66	3737.54
595.86	3090.38
596.05	3020.75
596.24	3327.95
596.43	3794.89
596.63	3256.27
596.82	3397.58
597.01	3614.66
597.21	3876.80
597.40	3190.74
597.59	3286.99
597.79	3397.58
597.98	3612.62
598.17	3223.50
598.36	3209.17
598.56	3717.06
598.75	3252.17
598.94	3233.74
599.14	3272.65
599.33	3352.52
599.52	3534.79
599.71	3213.26
599.91	3170.26
600.10	3575.75
600.29	3467.21
600.48	3219.41
600.68	3307.47
600.87	3542.99
601.06	3311.57
601.26	3373.00
601.45	3311.57
601.64	3381.20
601.83	3747.78
602.03	3008.47
602.22	3112.91
602.41	3680.20
602.60	4003.78
602.80	3262.41
602.99	3332.05
603.18	3334.09
603.37	3614.66
603.57	3117.01
603.76	3172.30
603.95	3694.54
604.14	3397.58
604.34	3084.24
604.53	3160.02
604.72	3401.68
604.91	3514.31
605.10	3141.58
605.30	3024.85
605.49	3977.16
605.68	3755.97
605.87	3223.50
606.07	3114.96
606.26	3526.60
606.45	3594.19
606.64	3229.65
606.84	3063.76
607.03	3397.58
607.22	3655.62
607.41	3264.46
607.60	3221.45
607.80	3653.58
607.99	3360.72
608.18	3262.41
608.37	3276.75
608.56	3243.98
608.76	3622.86
608.95	3307.47
609.14	3100.62
609.33	3655.62
609.52	3782.60
609.72	3266.51
609.91	3309.52
610.10	3446.73
610.29	3692.49
610.48	3266.51
610.68	3262.41
610.87	3491.79
611.06	3649.48
611.25	3215.31
611.44	3346.38
611.63	3344.33
611.83	3655.62
612.02	3213.26
612.21	3315.66
612.40	3055.57
612.59	3190.74
612.79	3119.06
612.98	3289.04
613.17	3729.35
613.36	3366.86
613.55	3340.24
613.74	3196.88
613.93	3436.49
614.13	3508.17
614.32	3364.81
614.51	3280.85
614.70	3450.83
614.89	3282.89
615.08	3352.52
615.28	3530.70
615.47	3233.74
615.66	3536.84
615.85	3190.74
616.04	3129.30
616.23	3407.82
616.42	3383.24
616.62	3198.93
616.81	3246.03
617.00	3467.21
617.19	3489.74
617.38	3205.07
617.57	3241.93
617.76	3575.75
617.95	3600.33
618.15	3293.13
618.34	3452.88
618.53	3157.97
618.72	3637.19
618.91	3286.99
619.10	3260.37
619.29	3358.67
619.48	3450.83
619.68	3086.29
619.87	3131.34
620.06	3180.50
620.25	3532.75
620.44	3180.50
620.63	3121.10
620.82	3473.36
621.01	3430.35
621.20	3131.34
621.39	3135.44
621.59	3493.83
621.78	3385.29
621.97	3092.43
622.16	3370.96
622.35	3495.88
622.54	3596.23
622.73	3280.85
622.92	2910.16
623.11	3647.43
623.30	3352.52
623.49	3313.61
623.68	3057.62
623.88	3751.88
624.07	3364.81
624.26	3026.90
624.45	3141.58
624.64	3340.24
624.83	3534.79
625.02	3151.82
625.21	3207.12
625.40	3471.31
625.59	3723.21
625.78	3270.61
625.97	3293.13
626.16	3753.93
626.35	3569.61
626.54	3160.02
626.74	3393.48
626.93	3360.72
627.12	3293.13
627.31	3256.27
627.50	3186.64
627.69	3557.32
627.88	3270.61
628.07	3082.19
628.26	3016.66
628.45	3227.60
628.64	3336.14
628.83	3196.88
629.02	3022.80
629.21	3567.56
629.40	3528.65
629.59	3039.19
629.78	3139.54
629.97	3446.73
630.16	3436.49
630.35	3143.63
630.54	3291.09
630.73	3409.87
630.92	3442.64
631.11	3110.86
631.30	3243.98
631.49	3676.10
631.68	3399.63
631.87	3239.89
632.06	3182.54
632.25	3930.05
632.44	3440.59
632.63	3246.03
632.82	3207.12
633.01	3321.81
633.20	3516.36
633.39	3264.46
633.58	2944.98
633.77	3477.45
633.96	3524.55
634.15	3297.23
634.34	3264.46
634.53	3532.75
634.72	3262.41
634.91	3061.71
635.10	3233.74
635.29	3567.56
635.48	3448.78
635.67	3088.34
635.86	3024.85
636.05	3788.74
636.24	3442.64
636.43	3094.48
636.62	3319.76
636.81	2914.26
637.00	3483.59
637.19	3141.58
637.38	3160.02
637.57	3395.53
637.76	3391.44
637.95	3295.18
638.14	3266.51
638.33	3512.27
638.52	3450.83
638.71	3139.54
638.89	3086.29
639.08	4063.17
639.27	3629.00
639.46	3397.58
639.65	3667.91
639.84	3891.14
640.03	4077.51
640.22	3598.28
640.41	3600.33
640.60	3555.27
640.79	3604.42
640.98	3307.47
641.17	3424.20
641.36	3600.33
641.55	3696.58
641.74	3074.00
641.92	3088.34
642.11	3260.37
642.30	3362.76
642.49	3074.00
642.68	3162.06
642.87	3518.41
643.06	3583.95
643.25	2992.08
643.44	3053.52
643.63	3336.14
643.82	3604.42
644.00	3061.71
644.19	3174.35
644.38	3205.07
644.57	3592.14
644.76	3205.07
644.95	3291.09
645.14	3448.78
645.33	3375.05
645.52	3180.50
645.71	2996.18
645.89	3286.99
646.08	3354.57
646.27	3213.26
646.46	3311.57
646.65	3149.78
646.84	3420.11
647.03	3123.15
647.22	3327.95
647.40	3493.83
647.59	3377.10
647.78	2938.84
647.97	3215.31
648.16	3303.37
648.35	3753.93
648.54	3370.96
648.73	3221.45
648.91	3618.76
649.10	3428.30
649.29	3067.86
649.48	3117.01
649.67	3471.31
649.86	3516.36
650.05	3180.50
650.23	3313.61
650.42	3280.85
650.61	3844.04
650.80	3409.87
650.99	3405.77
651.18	3663.82
651.36	3719.11
651.55	3098.58
651.74	3393.48
651.93	3377.10
652.12	3344.33
652.31	3166.16
652.49	3166.16
652.68	3336.14
652.87	3788.74
653.06	3262.41
653.25	3444.68
653.44	3405.77
653.62	3778.50
653.81	3237.84
654.00	3108.82
654.19	3598.28
654.38	4036.55
654.56	3315.66
654.75	3090.38
654.94	3676.10
655.13	3549.13
655.32	3094.48
655.51	3231.69
655.69	3280.85
655.88	3626.95
656.07	3059.67
656.26	3233.74
656.45	3147.73
656.63	3418.06
656.82	3131.34
657.01	3518.41
657.20	3276.75
657.38	3667.91
657.57	3180.50
657.76	3020.75
657.95	3663.82
658.14	3340.24
658.32	3291.09
658.51	3055.57
658.70	3567.56
658.89	3518.41
659.08	3180.50
659.26	3385.29
659.45	3311.57
659.64	3540.94
659.83	3207.12
660.01	3483.59
660.20	3407.82
660.39	3784.65
660.58	2906.07
660.76	3291.09
660.95	3135.44
661.14	3450.83
661.33	3102.67
661.51	3182.54
661.70	3262.41
661.89	3561.42
662.08	3196.88
662.26	3016.66
662.45	3272.65
662.64	3774.41
662.83	3278.80
663.01	3149.78
663.20	3385.29
663.39	3739.59
663.58	3190.74
663.76	3143.63
663.95	3547.08
664.14	3176.40
664.32	3303.37
664.51	3053.52
664.70	3147.73
664.89	3559.37
665.07	3076.05
665.26	3286.99
665.45	3123.15
665.64	3542.99
665.82	3139.54
666.01	3344.33
666.20	3209.17
666.38	3657.67
666.57	3540.94
666.76	5611.43
666.95	12517.18
667.13	18687.71
667.32	22267.56
667.51	24962.69
667.69	25456.25
667.88	20485.83
668.07	15349.53
668.25	13223.73
668.44	11784.01
668.63	10375.01
668.81	8830.84
669.00	7821.19
669.19	7376.78
669.38	6274.98
669.56	5380.01
669.75	4739.00
669.94	4401.08
670.12	3839.94
670.31	3456.97
670.50	3452.88
670.68	3629.00
670.87	3549.13
671.06	3108.82
671.24	3295.18
671.43	3715.02
671.62	3487.69
671.80	3178.45
671.99	3264.46
672.18	3510.22
672.36	3575.75
672.55	3317.71
672.74	3248.08
672.92	3338.19
673.11	3551.18
673.29	3014.61
673.48	3387.34
673.67	3311.57
673.85	3653.58
674.04	3135.44
674.23	3319.76
674.41	3903.43
674.60	3229.65
674.79	3020.75
674.97	2994.13
675.16	3704.78
675.34	3680.20
675.53	3174.35
675.72	3250.13
675.90	3833.80
676.09	3385.29
676.28	3315.66
676.46	3020.75
676.65	3647.43
676.83	3239.89
677.02	3280.85
677.21	3235.79
677.39	3524.55
677.58	3246.03
677.77	3166.16
677.95	3078.10
678.14	3373.00
678.32	3471.31
678.51	3254.22
678.70	3565.51
678.88	3364.81
679.07	3483.59
679.25	3215.31
679.44	3237.84
679.63	3164.11
679.81	3514.31
680.00	3467.21
680.18	3239.89
680.37	3737.54
680.55	3459.02
680.74	3004.37
680.93	2951.12
681.11	3510.22
681.30	3434.44
681.48	3178.45
681.67	3205.07
681.85	3436.49
682.04	3250.13
682.23	3313.61
682.41	3368.91
682.60	3342.28
682.78	3348.43
682.97	3114.96
683.15	3282.89
683.34	3516.36
683.53	3751.88
683.71	3074.00
683.90	3213.26
684.08	3811.27
684.27	3418.06
684.45	3221.45
684.64	3401.68
684.82	3442.64
685.01	3569.61
685.19	3196.88
685.38	3526.60
685.57	3520.46
685.75	3250.13
685.94	3098.58
686.12	3131.34
686.31	3278.80
686.49	3885.00
686.68	2963.41
686.86	3205.07
687.05	3389.39
687.23	3755.97
687.42	3225.55
687.60	3041.23
687.79	3688.39
687.97	3753.93
688.16	3336.14
688.34	3401.68
688.53	3123.15
688.71	3477.45
688.90	3411.92
689.08	3278.80
689.27	3071.95
689.45	3647.43
689.64	3291.09
689.82	3297.23
690.01	3508.17
690.19	3487.69
690.38	3246.03
690.56	3248.08
690.75	3239.89
690.93	3420.11
691.12	3135.44
691.30	3211.22
691.49	3282.89
691.67	3518.41
691.86	3520.46
692.04	3207.12
692.23	3319.76
692.41	3450.83
692.60	3524.55
692.78	3409.87
692.97	3424.20
693.15	3520.46
693.34	3471.31
693.52	3459.02
693.71	3289.04
693.89	3284.94
694.08	3057.62
694.26	3270.61
694.44	3610.57
694.63	3663.82
694.81	3178.45
695.00	3221.45
695.18	3665.86
695.37	3989.44
695.55	3340.24
695.74	3291.09
695.92	3297.23
696.10	3696.58
696.29	3076.05
696.47	3254.22
696.66	3256.27
696.84	3260.37
697.03	3254.22
697.21	3444.68
697.40	4745.14
697.58	3663.82
697.76	3188.69
697.95	3114.96
698.13	3196.88
698.32	3270.61
698.50	3248.08
698.68	3209.17
698.87	3575.75
699.05	3846.09
699.24	3205.07
699.42	3239.89
699.61	3536.84
699.79	3442.64
699.97	3237.84
700.16	3016.66
700.34	3231.69
700.53	3366.86
700.71	3379.15
700.89	3325.90
701.08	3377.10
701.26	3444.68
701.45	3512.27
701.63	3182.54
701.81	3362.76
702.00	3354.57
702.18	3352.52
702.37	3160.02
702.55	3649.48
702.73	3493.83
702.92	3000.27
703.10	3450.83
703.28	3590.09
703.47	3205.07
703.65	3411.92
703.84	3319.76
704.02	3278.80
704.20	3766.21
704.39	3172.30
704.57	3125.20
704.75	3610.57
704.94	3592.14
705.12	3428.30
705.30	3977.16
705.49	8226.69
705.67	14546.72
705.86	19285.72
706.04	21425.85
706.22	23748.25
706.41	22521.51
706.59	16561.92
706.77	13401.91
706.96	11654.99
707.14	10751.84
707.32	9269.11
707.51	8269.70
707.69	6789.02
707.87	5879.72
708.06	4843.45
708.24	4202.43
708.42	4097.99
708.61	4229.06
708.79	3354.57
708.97	3452.88
709.16	3504.07
709.34	3467.21
709.52	3168.21
709.71	3248.08
709.89	3553.23
710.07	3317.71
710.26	3157.97
710.44	3319.76
710.62	3590.09
710.80	3459.02
710.99	3336.14
711.17	3293.13
711.35	3262.41
711.54	3350.48
711.72	3403.72
711.90	3297.23
712.09	3491.79
712.27	3303.37
712.45	3307.47
712.63	3211.22
712.82	3416.01
713.00	3446.73
713.18	3379.15
713.37	3459.02
713.55	3547.08
713.73	3581.90
713.91	3266.51
714.10	3209.17
714.28	3430.35
714.46	3495.88
714.65	3317.71
714.83	3180.50
715.01	3465.16
715.19	3446.73
715.38	3151.82
715.56	3346.38
715.74	3278.80
715.92	3252.17
716.11	3553.23
716.29	2953.17
716.47	3413.96
716.65	3467.21
716.84	3139.54
717.02	3309.52
717.20	3143.63
717.38	3243.98
717.57	3348.43
717.75	3307.47
717.93	3317.71
718.11	3583.95
718.30	3006.42
718.48	3205.07
718.66	3733.45
718.84	3590.09
719.03	3237.84
719.21	3026.90
719.39	3872.71
719.57	3567.56
719.75	3248.08
719.94	3168.21
720.12	3364.81
720.30	3426.25
720.48	3188.69
720.67	3194.83
720.85	3194.83
721.03	3383.24
721.21	3131.34
721.39	3258.32
721.58	3573.71
721.76	3438.54
721.94	3223.50
722.12	3364.81
722.30	3864.52
722.49	3289.04
722.67	3194.83
722.85	3280.85
723.03	3129.30
723.21	3393.48
723.40	3188.69
723.58	3342.28
723.76	3530.70
723.94	3721.16
724.12	3225.55
724.30	3461.07
724.49	3571.66
724.67	3207.12
724.85	3258.32
725.03	3082.19
725.21	3594.19
725.40	3657.67
725.58	3227.60
725.76	3438.54
725.94	3614.66
726.12	3186.64
726.30	3198.93
726.49	3182.54
726.67	3358.67
726.85	3622.86
727.03	3973.06
727.21	4870.07
727.39	6170.53
727.57	6385.57
727.76	6655.90
727.94	6784.92
728.12	5959.59
728.30	5013.43
728.48	4745.14
728.66	4470.72
728.84	4431.80
729.03	3919.81
729.21	3743.69
729.39	3553.23
729.57	3413.96
729.75	3553.23
729.93	3438.54
730.11	3082.19
730.30	3289.04
730.48	3424.20
730.66	3252.17
730.84	3360.72
731.02	3438.54
731.20	3377.10
731.38	3266.51
731.56	3061.71
731.74	3231.69
731.93	3475.40
732.11	3334.09
732.29	3172.30
732.47	3551.18
732.65	3481.55
732.83	3399.63
733.01	3286.99
733.19	3356.62
733.37	3585.99
733.56	3168.21
733.74	3174.35
733.92	3737.54
734.10	3246.03
734.28	3393.48
734.46	3074.00
734.64	3323.85
734.82	3344.33
735.00	3198.93
735.18	3170.26
735.36	3485.64
735.54	3473.36
735.73	3207.12
735.91	3313.61
736.09	3725.26
736.27	3450.83
736.45	3270.61
736.63	2947.03
736.81	3239.89
736.99	3618.76
737.17	3450.83
737.35	3166.16
737.53	3483.59
737.71	3381.20
737.89	3418.06
738.07	3162.06
738.25	3315.66
738.43	3041.23
738.61	3235.79
738.80	3100.62
738.98	3203.02
739.16	3311.57
739.34	3145.68
739.52	3524.55
739.70	3461.07
739.88	3547.08
740.06	3370.96
740.24	2977.75
740.42	3602.38
740.60	3106.77
740.78	3151.82
740.96	3010.51
741.14	3342.28
741.32	3483.59
741.50	3012.56
741.68	3508.17
741.86	3809.22
742.04	3176.40
742.22	3117.01
742.40	3282.89
742.58	3596.23
742.76	3330.00
742.94	3395.53
743.12	3012.56
743.30	3381.20
743.48	3506.12
743.66	3141.58
743.84	3131.34
744.02	3434.44
744.20	3407.82
744.38	3112.91
744.56	3225.55
744.74	3819.46
744.92	3549.13
745.10	3440.59
745.28	3227.60
745.46	3766.21
745.64	3418.06
745.82	3286.99
746.00	3160.02
746.18	3508.17
746.36	3252.17
746.54	3256.27
746.72	3291.09
746.90	3200.98
747.08	3735.50
747.26	3219.41
747.44	3321.81
747.62	3594.19
747.80	3526.60
747.98	3276.75
748.15	3243.98
748.33	3798.98
748.51	3413.96
748.69	3301.33
748.87	3139.54
749.05	3377.10
749.23	3442.64
749.41	3184.59
749.59	3231.69
749.77	3600.33
749.95	3323.85
750.13	3155.92
750.31	3389.39
750.49	3422.16
750.67	3577.80
750.85	3338.19
751.03	3147.73
751.20	3841.99
751.38	3508.17
751.56	3229.65
751.74	3151.82
751.92	3452.88
752.10	3258.32
752.28	3420.11
752.46	3102.67
752.64	3332.05
752.82	3370.96
753.00	3356.62
753.18	3014.61
753.35	3342.28
753.53	3436.49
753.71	3147.73
753.89	3270.61
754.07	3510.22
754.25	3622.86
754.43	3211.22
754.61	3065.81
754.79	3561.42
754.97	3379.15
755.14	3430.35
755.32	3117.01
755.50	3463.12
755.68	3518.41
755.86	3157.97
756.04	3196.88
756.22	3049.43
756.40	3588.04
756.57	3401.68
756.75	3090.38
756.93	3659.72
757.11	3606.47
757.29	3069.91
757.47	3090.38
757.65	3076.05
757.82	2955.22
758.00	3123.15
758.18	3164.11
758.36	3262.41
758.54	3780.55
758.72	2975.70
758.90	3368.91
759.07	3499.98
759.25	3270.61
759.43	3379.15
759.61	3041.23
759.79	4601.79
759.97	3622.86
760.15	3160.02
760.32	3213.26
760.50	3547.08
760.68	3790.79
760.86	3135.44
761.04	3565.51
761.22	3571.66
761.39	3516.36
761.57	3303.37
761.75	3194.83
761.93	3626.95
762.11	3299.28
762.28	3319.76
762.46	3102.67
762.64	3706.82
762.82	3162.06
763.00	3211.22
763.18	3418.06
763.35	3160.02
763.53	3561.42
763.71	3213.26
763.89	3196.88
764.07	3502.03
764.24	3422.16
764.42	3305.42
764.60	3196.88
764.78	3514.31
764.96	3635.14
765.13	3360.72
765.31	3074.00
765.49	3547.08
765.67	3270.61
765.84	3164.11
766.02	3168.21
766.20	3217.36
766.38	3459.02
766.56	3264.46
766.73	3284.94
766.91	3479.50
767.09	3467.21
767.27	3254.22
767.44	3147.73
767.62	3600.33
767.80	3594.19
767.98	3149.78
768.15	3262.41
768.33	3692.49
768.51	3585.99
768.69	3377.10
768.87	3194.83
769.04	3434.44
769.22	4048.83
769.40	3270.61
769.58	3391.44
769.75	3518.41
769.93	3653.58
770.11	3227.60
770.28	3112.91
770.46	3712.97
770.64	3502.03
770.82	3235.79
770.99	3074.00
771.17	3635.14
771.35	3354.57
771.53	3301.33
771.70	3108.82
771.88	3493.83
772.06	3434.44
772.23	3149.78
772.41	3299.28
772.59	3416.01
772.77	3215.31
772.94	3221.45
773.12	3286.99
773.30	3340.24
773.47	3518.41
773.65	3084.24
773.83	3366.86
774.01	3436.49
774.18	3045.33
774.36	3188.69
774.54	3059.67
774.71	3491.79
774.89	3121.10
775.07	3008.47
775.24	3262.41
775.42	3360.72
775.60	3819.46
775.78	3139.54
775.95	3069.91
776.13	3108.82
776.31	3055.57
776.48	3377.10
776.66	3440.59
776.84	3286.99
777.01	3274.70
777.19	3164.11
777.37	3196.88
777.54	3590.09
777.72	3897.28
777.90	3305.42
778.07	3160.02
778.25	4155.33
778.43	3645.38
778.60	3164.11
778.78	3229.65
778.96	3741.64
779.13	3149.78
779.31	3295.18
779.49	3270.61
779.66	3536.84
779.84	3420.11
780.01	3125.20
780.19	3080.14
780.37	3745.73
780.54	3639.24
780.72	3069.91
780.90	3309.52
781.07	3409.87
781.25	3305.42
781.43	3360.72
781.60	3213.26
781.78	3583.95
781.95	3450.83
782.13	3272.65
782.31	3127.25
782.48	3041.23
782.66	3434.44
782.83	3430.35
783.01	3274.70
783.19	3600.33
783.36	3418.06
783.54	3096.53
783.72	3336.14
783.89	3348.43
784.07	3532.75
784.24	3327.95
784.42	3323.85
784.60	3532.75
784.77	3540.94
784.95	2951.12
785.12	3188.69
785.30	3467.21
785.47	3221.45
785.65	3092.43
785.83	3182.54
786.00	3327.95
786.18	3534.79
786.35	3166.16
786.53	3123.15
786.71	3721.16
786.88	3581.90
787.06	3272.65
787.23	3319.76
787.41	3246.03
787.58	3383.24
787.76	3114.96
787.94	3243.98
788.11	3528.65
788.29	3176.40
788.46	3184.59
788.64	3086.29
788.81	3381.20
788.99	3282.89
789.16	3049.43
789.34	3213.26
789.52	3313.61
789.69	3438.54
789.87	2990.03
790.04	3243.98
790.22	3450.83
790.39	3854.28
790.57	3084.24
790.74	3082.19
790.92	3672.01
791.09	3057.62
791.27	3272.65
791.44	3254.22
791.62	3442.64
791.79	3565.51
791.97	3274.70
792.15	3616.71
792.32	3620.81
792.50	3502.03
792.67	3368.91
792.85	3469.26
793.02	3459.02
793.20	3330.00
793.37	3084.24
793.55	3051.47
793.72	3147.73
793.90	3688.39
794.07	3164.11
794.25	3061.71
794.42	3497.93
794.60	3379.15
794.77	3231.69
794.95	3346.38
795.12	3612.62
795.30	3428.30
795.47	3016.66
795.65	3506.12
795.82	3510.22
796.00	3332.05
796.17	3297.23
796.34	3129.30
796.52	3592.14
796.69	3538.89
796.87	3332.05
797.04	3360.72
797.22	3551.18
797.39	3508.17
797.57	3379.15
797.74	3241.93
797.92	3571.66
798.09	3272.65
798.27	3491.79
798.44	3149.78
798.62	3246.03
798.79	3497.93
798.96	3375.05
799.14	3250.13
799.31	4001.73
799.49	3381.20
799.66	3200.98
799.84	3370.96
800.01	3137.49
800.19	3499.98
800.36	2983.89
800.53	3344.33
800.71	3641.29
800.88	3837.89
801.06	3121.10
801.23	3229.65
801.41	3403.72
801.58	3327.95
801.75	3254.22
801.93	3299.28
802.10	3573.71
802.28	3340.24
802.45	3260.37
802.63	3252.17
802.80	3719.11
802.97	3428.30
803.15	3227.60
803.32	3143.63
803.50	3282.89
803.67	3272.65
803.84	3102.67
804.02	3348.43
804.19	3368.91
804.37	2963.41
804.54	2975.70
804.71	3121.10
804.89	3377.10
805.06	3213.26
805.24	3145.68
805.41	3094.48
805.58	3297.23
805.76	3977.16
805.93	3141.58
806.10	3280.85
806.28	3536.84
806.45	3444.68
806.63	3368.91
806.80	3278.80
806.97	3502.03
807.15	3373.00
807.32	3315.66
807.49	3198.93
807.67	3254.22
807.84	3526.60
808.01	3045.33
808.19	3325.90
808.36	3925.96
808.54	3387.34
808.71	3182.54
808.88	3141.58
809.06	3692.49
809.23	3745.73
809.40	3207.12
809.58	3180.50
809.75	3461.07
809.92	3147.73
810.10	3489.74
810.27	3149.78
810.44	3487.69
810.62	3540.94
810.79	3276.75
810.96	3213.26
811.14	3358.67
811.31	3534.79
811.48	3418.06
811.66	3270.61
811.83	3624.90
812.00	3581.90
812.18	3172.30
812.35	3536.84
812.52	3381.20
812.69	3370.96
812.87	3205.07
813.04	3123.15
813.21	3373.00
813.39	3196.88
813.56	3065.81
813.73	3542.99
813.91	2979.79
814.08	3467.21
814.25	3176.40
814.42	3053.52
814.60	3483.59
814.77	3504.07
814.94	3139.54
815.12	3289.04
815.29	3837.89
815.46	3309.52
815.63	3176.40
815.81	3215.31
815.98	3373.00
816.15	3434.44
816.33	3209.17
816.50	3149.78
816.67	3436.49
816.84	3344.33
817.02	3127.25
817.19	3213.26
817.36	3430.35
817.53	3631.05
817.71	3084.24
817.88	3237.84
818.05	3323.85
818.22	3403.72
818.40	3364.81
818.57	3127.25
818.74	3504.07
818.91	3358.67
819.09	3278.80
819.26	3336.14
819.43	3246.03
819.60	3286.99
819.78	3364.81
819.95	3237.84
820.12	3207.12
820.29	3735.50
820.47	3475.40
820.64	3069.91
820.81	3090.38
820.98	3334.09
821.15	3184.59
821.33	3311.57
821.50	3176.40
821.67	3499.98
821.84	3102.67
822.02	3235.79
822.19	3602.38
822.36	3307.47
822.53	3080.14
822.70	3090.38
822.88	3317.71
823.05	3719.11
823.22	3321.81
823.39	3090.38
823.56	3391.44
823.74	3942.34
823.91	3020.75
824.08	3135.44
824.25	3239.89
824.42	3778.50
824.60	3065.81
824.77	3260.37
824.94	3258.32
825.11	3592.14
825.28	3049.43
825.45	3364.81
825.63	3393.48
825.80	3235.79
825.97	3268.56
826.14	3252.17
826.31	3094.48
826.48	3575.75
826.66	3151.82
826.83	3117.01
827.00	3360.72
827.17	3188.69
827.34	3221.45
827.51	3186.64
827.69	3461.07
827.86	3082.19
828.03	3317.71
828.20	3286.99
828.37	3360.72
828.54	3516.36
828.71	3053.52
828.89	3237.84
829.06	3375.05
829.23	3778.50
829.40	3237.84
829.57	3133.39
829.74	3598.28
829.91	3338.19
830.09	3129.30
830.26	3330.00
830.43	3792.84
830.60	3362.76
830.77	3266.51
830.94	3370.96
831.11	3635.14
831.28	3332.05
831.46	3342.28
831.63	3137.49
831.80	3657.67
831.97	3176.40
832.14	3198.93
832.31	3258.32
832.48	3354.57
832.65	3633.10
832.82	3340.24
832.99	3295.18
833.17	3225.55
833.34	3710.92
833.51	3108.82
833.68	3069.91
833.85	3624.90
834.02	3168.21
834.19	3141.58
834.36	3250.13
834.53	3542.99
834.70	3688.39
834.87	3176.40
835.04	2877.40
835.22	3217.36
835.39	3319.76
835.56	3094.48
835.73	2987.99
835.90	3624.90
836.07	3268.56
836.24	3241.93
836.41	3033.04
836.58	3278.80
836.75	3606.47
836.92	2985.94
837.09	3035.09
837.26	3680.20
837.43	3567.56
837.60	3020.75
837.77	3080.14
837.94	3682.25
838.12	3585.99
838.29	2910.16
838.46	2861.01
838.63	3252.17
838.80	3739.59
838.97	3014.61
839.14	2983.89
839.31	3442.64
839.48	3528.65
839.65	3026.90
839.82	3074.00
839.99	3508.17
840.16	3467.21
840.33	2967.51
840.50	3082.19
840.67	3213.26
840.84	2916.31
841.01	2953.17
841.18	2906.07
841.35	3413.96
841.52	3538.89
841.69	3375.05
841.86	3035.09
842.03	3401.68
842.20	3647.43
842.37	3008.47
842.54	3041.23
842.71	3397.58
842.88	3110.86
843.05	3051.47
843.22	2969.55
843.39	3598.28
843.56	3387.34
843.73	3012.56
843.90	3139.54
844.07	3487.69
844.24	3712.97
844.41	3141.58
844.58	3026.90
844.75	3487.69
844.92	3524.55
845.09	3100.62
845.26	2983.89
845.43	3573.71
845.60	3327.95
845.77	3131.34
845.94	3194.83
846.10	3626.95
846.27	3114.96
846.44	2961.36
846.61	2777.05
846.78	3524.55
846.95	3688.39
847.12	2996.18
847.29	3035.09
847.46	3270.61
847.63	3547.08
847.80	2959.31
847.97	3131.34
848.14	3919.81
848.31	3352.52
848.48	2824.15
848.65	2926.55
848.82	3239.89
848.98	3960.77
849.15	3196.88
849.32	3133.39
849.49	3649.48
849.66	3430.35
849.83	3076.05
850.00	2992.08
850.17	3629.00
850.34	3325.90
850.51	2949.08
850.68	3026.90
850.85	3934.15
851.01	3565.51
851.18	2971.60
851.35	3024.85
851.52	3540.94
851.69	3706.82
851.86	2936.79
852.03	2983.89
852.20	3553.23
852.37	3493.83
852.53	2783.19
852.70	2906.07
852.87	3401.68
853.04	3629.00
853.21	3014.61
853.38	3305.42
853.55	3706.82
853.72	3639.24
853.89	2873.30
854.05	2901.97
854.22	3403.72
854.39	3303.37
854.56	2942.93
854.73	3192.78
854.90	3278.80
855.07	3436.49
855.23	2893.78
855.40	2914.26
855.57	3362.76
855.74	2889.68
855.91	3272.65
856.08	2863.06
856.25	3074.00
856.41	3192.78
856.58	2961.36
856.75	3041.23
856.92	3299.28
857.09	3651.53
857.26	2901.97
857.42	3041.23
857.59	3647.43
857.76	3315.66
857.93	2996.18
858.10	3102.67
858.27	3192.78
858.43	3502.03
858.60	3074.00
858.77	2934.74
858.94	3295.18
859.11	3577.80
859.27	3117.01
859.44	2904.02
859.61	3805.13
859.78	3606.47
859.95	3039.19
860.12	2979.79
860.28	3934.15
860.45	3823.56
860.62	2951.12
860.79	3094.48
860.95	3360.72
861.12	3280.85
861.29	2920.40
861.46	2987.99
861.63	3424.20
861.79	3442.64
861.96	2908.12
862.13	3004.37
862.30	3710.92
862.47	3319.76
862.63	2879.44
862.80	3086.29
862.97	3639.24
863.14	3499.98
863.30	2992.08
863.47	2924.50
863.64	3680.20
863.81	3442.64
863.97	2971.60
864.14	2955.22
864.31	3342.28
864.48	3442.64
864.65	3014.61
864.81	3086.29
864.98	3581.90
865.15	3618.76
865.32	3065.81
865.48	3094.48
865.65	3745.73
865.82	3297.23
865.98	3055.57
866.15	3047.38
866.32	3364.81
866.49	3362.76
866.65	3106.77
866.82	3055.57
866.99	3434.44
867.16	3272.65
867.32	2987.99
867.49	2944.98
867.66	3397.58
867.83	3303.37
867.99	2918.36
868.16	3059.67
868.33	3090.38
868.49	3452.88
868.66	2951.12
868.83	3170.26
868.99	3524.55
869.16	3352.52
869.33	3211.22
869.50	3063.76
869.66	3461.07
869.83	3465.16
870.00	2922.45
870.16	3153.87
870.33	3377.10
870.50	3606.47
870.66	3035.09
870.83	2985.94
871.00	3497.93
871.17	3565.51
871.33	3069.91
871.50	3000.27
871.67	3387.34
871.83	3155.92
872.00	3026.90
872.17	3086.29
872.33	3794.89
872.50	3647.43
872.67	2963.41
872.83	2992.08
873.00	3536.84
873.17	3428.30
873.33	3008.47
873.50	3051.47
873.67	3270.61
873.83	3375.05
874.00	3047.38
874.16	3139.54
874.33	3504.07
874.50	3155.92
874.66	2971.60
874.83	3082.19
875.00	3631.05
875.16	3667.91
875.33	3110.86
875.50	2797.53
875.66	3352.52
875.83	3499.98
875.99	3129.30
876.16	3192.78
876.33	3231.69
876.49	3303.37
876.66	3082.19
876.83	3076.05
876.99	3094.48
877.16	3473.36
877.32	2940.88
877.49	3106.77
877.66	3487.69
877.82	3731.40
877.99	3127.25
878.15	3289.04
878.32	3450.83
878.49	3508.17
878.65	3121.10
878.82	3291.09
878.98	3289.04
879.15	3639.24
879.32	3200.98
879.48	3250.13
879.65	3428.30
879.81	3383.24
879.98	3016.66
880.15	3094.48
880.31	3614.66
880.48	3248.08
880.64	3127.25
880.81	3123.15
880.97	3780.55
881.14	3688.39
881.31	3037.14
881.47	3252.17
881.64	3407.82
881.80	3065.81
881.97	3248.08
882.13	3104.72
882.30	3096.53
882.47	3370.96
882.63	3024.85
882.80	3000.27
882.96	3358.67
883.13	3659.72
883.29	2985.94
883.46	3004.37
883.62	3913.67
883.79	3461.07
883.95	3227.60
884.12	2897.88
884.29	3672.01
884.45	3434.44
884.62	3037.14
884.78	2994.13
884.95	3747.78
885.11	3209.17
885.28	3192.78
885.44	3028.95
885.61	3551.18
885.77	3758.02
885.94	3256.27
886.10	3110.86
886.27	3461.07
886.43	3829.70
886.60	3182.54
886.76	3006.42
886.93	3223.50
887.09	3536.84
887.26	2869.20
887.42	3174.35
887.59	3655.62
887.75	3848.13
887.92	3246.03
888.08	3243.98
888.25	3766.21
888.41	3639.24
888.58	3098.58
888.74	2994.13
888.91	3348.43
>>>>>End Processed Spectral Data<<<<<
