SpectraSuite Data File
++++++++++++++++++++++++++++++++++++
Date: Fri May 06 09:28:30 CEST 2016
User: root
Dark Spectrum Present: No
Reference Spectrum Present: No
Number of Sampled Component Spectra: 1
Spectrometers: USB4C02835
Integration Time (usec): 100000 (USB4C02835)
Spectra Averaged: 1 (USB4C02835)
Boxcar Smoothing: 0 (USB4C02835)
Correct for Electrical Dark: No (USB4C02835)
Strobe/Lamp Enabled: No (USB4C02835)
Correct for Detector Non-linearity: No (USB4C02835)
Correct for Stray Light: No (USB4C02835)
Number of Pixels in Processed Spectrum: 3648
>>>>>Begin Processed Spectral Data<<<<<
177.47	2320.35
177.69	2320.35
177.91	2320.35
178.13	2367.45
178.36	2371.55
178.58	3067.86
178.80	3284.94
179.02	3217.36
179.24	3147.73
179.46	2838.48
179.68	2852.82
179.90	3430.35
180.13	3483.59
180.35	2775.00
180.57	2887.64
180.79	3573.71
181.01	3504.07
181.23	2918.36
181.45	3018.71
181.67	3659.72
181.90	3569.61
182.12	3088.34
182.34	2795.48
182.56	3661.77
182.78	3499.98
183.00	2944.98
183.22	2906.07
183.44	3024.85
183.66	4104.13
183.89	3131.34
184.11	2942.93
184.33	3577.80
184.55	3852.23
184.77	2934.74
184.99	3008.47
185.21	3385.29
185.43	4007.87
185.65	2942.93
185.87	2957.27
186.10	4034.50
186.32	4042.69
186.54	3094.48
186.76	3162.06
186.98	3698.63
187.20	3436.49
187.42	2994.13
187.64	2865.11
187.86	3542.99
188.08	3682.25
188.30	2842.58
188.52	2959.31
188.75	3770.31
188.97	3680.20
189.19	2963.41
189.41	2926.55
189.63	3510.22
189.85	3336.14
190.07	2750.42
190.29	2842.58
190.51	3450.83
190.73	3172.30
190.95	3246.03
191.17	2994.13
191.39	3080.14
191.61	3389.39
191.84	2987.99
192.06	3114.96
192.28	3131.34
192.50	4190.14
192.72	3108.82
192.94	3065.81
193.16	3659.72
193.38	3518.41
193.60	2887.64
193.82	3143.63
194.04	3700.68
194.26	3540.94
194.48	2994.13
194.70	2910.16
194.92	3377.10
195.14	3682.25
195.36	2951.12
195.58	3026.90
195.80	3469.26
196.02	3264.46
196.24	2914.26
196.46	3180.50
196.69	3346.38
196.91	4028.35
197.13	2885.59
197.35	2969.55
197.57	3751.88
197.79	3672.01
198.01	3024.85
198.23	2985.94
198.45	3622.86
198.67	3209.17
198.89	2867.16
199.11	3102.67
199.33	3303.37
199.55	2953.17
199.77	2947.03
199.99	3110.86
200.21	3405.77
200.43	3489.74
200.65	2856.92
200.87	2811.86
201.09	3471.31
201.31	3385.29
201.53	2983.89
201.75	3022.80
201.97	3559.37
202.19	3450.83
202.41	3014.61
202.63	3110.86
202.85	3602.38
203.07	3573.71
203.29	3061.71
203.51	2887.64
203.73	3293.13
203.95	4104.13
204.17	2994.13
204.39	3184.59
204.61	3422.16
204.83	3368.91
205.05	3129.30
205.27	2998.23
205.49	3958.72
205.71	3422.16
205.93	2779.09
206.15	2783.19
206.37	3459.02
206.59	3424.20
206.81	2807.77
207.03	2797.53
207.25	3266.51
207.47	3614.66
207.69	2938.84
207.91	3170.26
208.13	3819.46
208.34	3264.46
208.56	2885.59
208.78	3006.42
209.00	3311.57
209.22	3393.48
209.44	3018.71
209.66	2934.74
209.88	3387.34
210.10	3364.81
210.32	2908.12
210.54	3102.67
210.76	3377.10
210.98	3672.01
211.20	2801.62
211.42	3094.48
211.64	3762.12
211.86	3549.13
212.08	3018.71
212.30	3033.04
212.52	3407.82
212.74	3573.71
212.96	3071.95
213.17	3059.67
213.39	3626.95
213.61	3835.85
213.83	2904.02
214.05	2832.34
214.27	3704.78
214.49	3229.65
214.71	2916.31
214.93	3071.95
215.15	3393.48
215.37	3639.24
215.59	2803.67
215.81	3041.23
216.03	3717.06
216.24	3385.29
216.46	2922.45
216.68	3057.62
216.90	3551.18
217.12	3667.91
217.34	2885.59
217.56	3094.48
217.78	3764.17
218.00	3573.71
218.22	3002.32
218.44	3000.27
218.66	3491.79
218.87	3817.41
219.09	2979.79
219.31	3049.43
219.53	3571.66
219.75	3327.95
219.97	3016.66
220.19	3016.66
220.41	3397.58
220.63	3758.02
220.85	3033.04
221.06	2906.07
221.28	3768.26
221.50	3499.98
221.72	2992.08
221.94	2920.40
222.16	3475.40
222.38	3602.38
222.60	2920.40
222.82	3016.66
223.03	3676.10
223.25	3264.46
223.47	2959.31
223.69	3227.60
223.91	3534.79
224.13	3430.35
224.35	2901.97
224.57	3160.02
224.78	3553.23
225.00	3205.07
225.22	3104.72
225.44	2869.20
225.66	3590.09
225.88	3334.09
226.10	3102.67
226.32	3039.19
226.53	3790.79
226.75	3405.77
226.97	3098.58
227.19	3026.90
227.41	3235.79
227.63	3370.96
227.85	2719.70
228.06	3039.19
228.28	3428.30
228.50	3637.19
228.72	2799.57
228.94	2858.96
229.16	3088.34
229.37	3213.26
229.59	2836.44
229.81	3241.93
230.03	3270.61
230.25	3164.11
230.47	2781.14
230.69	2914.26
230.90	3676.10
231.12	3270.61
231.34	3088.34
231.56	3047.38
231.78	3147.73
232.00	3524.55
232.21	3047.38
232.43	2953.17
232.65	2998.23
232.87	3473.36
233.09	2840.53
233.30	2908.12
233.52	3661.77
233.74	3389.39
233.96	2959.31
234.18	3254.22
234.40	3452.88
234.61	3928.00
234.83	2926.55
235.05	2955.22
235.27	3997.64
235.49	3629.00
235.70	2754.52
235.92	2951.12
236.14	3635.14
236.36	4050.88
236.58	2873.30
236.79	3035.09
237.01	3420.11
237.23	3377.10
237.45	3211.22
237.67	2985.94
237.88	3536.84
238.10	3876.80
238.32	2863.06
238.54	2885.59
238.76	3499.98
238.97	3309.52
239.19	2871.25
239.41	3004.37
239.63	3760.07
239.85	3381.20
240.06	2975.70
240.28	2922.45
240.50	3663.82
240.72	3383.24
240.93	2818.00
241.15	3098.58
241.37	3379.15
241.59	3870.66
241.81	3008.47
242.02	3086.29
242.24	3495.88
242.46	3647.43
242.68	2815.96
242.89	2856.92
243.11	3598.28
243.33	3463.12
243.55	2977.75
243.76	2967.51
243.98	3387.34
244.20	3461.07
244.42	2983.89
244.64	2963.41
244.85	3182.54
245.07	3205.07
245.29	2940.88
245.51	3055.57
245.72	3512.27
245.94	3651.53
246.16	2928.60
246.38	3037.14
246.59	3336.14
246.81	3264.46
247.03	2875.35
247.24	2752.47
247.46	3338.19
247.68	3434.44
247.90	2885.59
248.11	2963.41
248.33	3602.38
248.55	3395.53
248.77	2967.51
248.98	3082.19
249.20	3852.23
249.42	3461.07
249.64	2893.78
249.85	2893.78
250.07	3375.05
250.29	3618.76
250.50	3002.32
250.72	2858.96
250.94	3495.88
251.16	3940.29
251.37	3037.14
251.59	3059.67
251.81	3649.48
252.02	3792.84
252.24	2836.44
252.46	3065.81
252.68	3332.05
252.89	3311.57
253.11	2858.96
253.33	3117.01
253.54	3747.78
253.76	3231.69
253.98	3004.37
254.20	2963.41
254.41	3192.78
254.63	3444.68
254.85	2820.05
255.06	3041.23
255.28	3594.19
255.50	3377.10
255.71	2949.08
255.93	2818.00
256.15	3393.48
256.36	3590.09
256.58	2766.81
256.80	2906.07
257.02	3442.64
257.23	3301.33
257.45	2920.40
257.67	3067.86
257.88	3377.10
258.10	3567.56
258.32	2897.88
258.53	3016.66
258.75	3821.51
258.97	3213.26
259.18	2799.57
259.40	2901.97
259.62	3880.90
259.83	3758.02
260.05	3069.91
260.27	3885.00
260.48	3676.10
260.70	3221.45
260.92	2803.67
261.13	2992.08
261.35	3594.19
261.57	3514.31
261.78	2805.72
262.00	2951.12
262.22	3540.94
262.43	3239.89
262.65	2949.08
262.86	3014.61
263.08	3981.25
263.30	3442.64
263.51	2861.01
263.73	2832.34
263.95	3717.06
264.16	3373.00
264.38	2830.29
264.60	2926.55
264.81	3465.16
265.03	3751.88
265.25	3471.31
265.46	2951.12
265.68	3639.24
265.89	3590.09
266.11	2918.36
266.33	2893.78
266.54	3653.58
266.76	3561.42
266.98	3090.38
267.19	3215.31
267.41	3745.73
267.62	3422.16
267.84	2729.94
268.06	3076.05
268.27	3422.16
268.49	3704.78
268.70	3074.00
268.92	2951.12
269.14	3207.12
269.35	3162.06
269.57	3063.76
269.79	3057.62
270.00	3323.85
270.22	3837.89
270.43	2822.10
270.65	2871.25
270.87	3440.59
271.08	3559.37
271.30	2961.36
271.51	2983.89
271.73	3528.65
271.95	3854.28
272.16	2856.92
272.38	3102.67
272.59	3385.29
272.81	3665.86
273.02	2889.68
273.24	3033.04
273.46	3792.84
273.67	3125.20
273.89	2863.06
274.10	2877.40
274.32	3672.01
274.54	3483.59
274.75	3074.00
274.97	3041.23
275.18	3645.38
275.40	3581.90
275.61	3010.51
275.83	3139.54
276.05	3198.93
276.26	3434.44
276.48	3090.38
276.69	3129.30
276.91	3246.03
277.12	3770.31
277.34	3131.34
277.55	3211.22
277.77	3418.06
277.99	3286.99
278.20	3123.15
278.42	2998.23
278.63	3356.62
278.85	3186.64
279.06	3082.19
279.28	3213.26
279.49	3678.15
279.71	3567.56
279.93	3114.96
280.14	3123.15
280.36	3209.17
280.57	3633.10
280.79	3198.93
281.00	3024.85
281.22	3315.66
281.43	3790.79
281.65	2889.68
281.86	2938.84
282.08	3565.51
282.29	3917.76
282.51	2992.08
282.73	2918.36
282.94	3067.86
283.16	3643.34
283.37	3166.16
283.59	2998.23
283.80	3641.29
284.02	3508.17
284.23	3121.10
284.45	3149.78
284.66	3297.23
284.88	3338.19
285.09	2977.75
285.31	3160.02
285.52	3463.12
285.74	3123.15
285.95	3246.03
286.17	3184.59
286.38	3704.78
286.60	3366.86
286.81	2959.31
287.03	3018.71
287.24	3413.96
287.46	3602.38
287.67	3137.49
287.89	3381.20
288.10	3444.68
288.32	3506.12
288.53	3198.93
288.75	3129.30
288.96	3545.03
289.18	3297.23
289.39	3002.32
289.61	3213.26
289.82	3878.85
290.04	3905.48
290.25	2965.46
290.47	3227.60
290.68	3370.96
290.90	3624.90
291.11	2906.07
291.33	3229.65
291.54	3196.88
291.76	3440.59
291.97	3266.51
292.18	3225.55
292.40	3360.72
292.61	3350.48
292.83	3377.10
293.04	3043.28
293.26	3614.66
293.47	3364.81
293.69	3045.33
293.90	3028.95
294.12	3747.78
294.33	3401.68
294.55	3143.63
294.76	3295.18
294.97	3704.78
295.19	3901.38
295.40	3131.34
295.62	3229.65
295.83	3571.66
296.05	3221.45
296.26	3325.90
296.48	3233.74
296.69	3401.68
296.90	3430.35
297.12	3319.76
297.33	3256.27
297.55	3487.69
297.76	3469.26
297.98	3223.50
298.19	3297.23
298.41	3430.35
298.62	3254.22
298.83	3338.19
299.05	3274.70
299.26	3356.62
299.48	3284.94
299.69	3123.15
299.90	3069.91
300.12	3258.32
300.33	3647.43
300.55	3125.20
300.76	3157.97
300.98	3229.65
301.19	3549.13
301.40	3080.14
301.62	3160.02
301.83	3534.79
302.05	3469.26
302.26	3084.24
302.47	3155.92
302.69	3182.54
302.90	3413.96
303.12	2949.08
303.33	3209.17
303.54	3913.67
303.76	3325.90
303.97	3033.04
304.19	3311.57
304.40	3237.84
304.61	3616.71
304.83	3207.12
305.04	3164.11
305.26	3624.90
305.47	3360.72
305.68	3080.14
305.90	2969.55
306.11	3704.78
306.33	3432.40
306.54	2824.15
306.75	3057.62
306.97	3160.02
307.18	3241.93
307.39	3055.57
307.61	3233.74
307.82	3375.05
308.04	3499.98
308.25	2940.88
308.46	3205.07
308.68	3428.30
308.89	3499.98
309.10	3184.59
309.32	3168.21
309.53	3434.44
309.74	3590.09
309.96	3030.99
310.17	3196.88
310.39	3352.52
310.60	3614.66
310.81	3078.10
311.03	3016.66
311.24	3571.66
311.45	3463.12
311.67	3446.73
311.88	3186.64
312.09	3352.52
312.31	3336.14
312.52	3016.66
312.73	3035.09
312.95	3194.83
313.16	3282.89
313.37	3227.60
313.59	3307.47
313.80	3571.66
314.01	3753.93
314.23	3102.67
314.44	2992.08
314.65	3174.35
314.87	3243.98
315.08	3143.63
315.29	3131.34
315.51	3223.50
315.72	3104.72
315.93	3209.17
316.15	3155.92
316.36	3286.99
316.57	3467.21
316.79	3088.34
317.00	3063.76
317.21	3590.09
317.43	3250.13
317.64	3198.93
317.85	2975.70
318.07	3305.42
318.28	3344.33
318.49	3141.58
318.70	3338.19
318.92	3428.30
319.13	3528.65
319.34	3157.97
319.56	3045.33
319.77	3493.83
319.98	3577.80
320.20	3340.24
320.41	3254.22
320.62	3614.66
320.83	3141.58
321.05	3284.94
321.26	3170.26
321.47	3483.59
321.69	3690.44
321.90	2967.51
322.11	2996.18
322.32	3565.51
322.54	3899.33
322.75	3190.74
322.96	4261.82
323.18	3078.10
323.39	3004.37
323.60	3051.47
323.81	3180.50
324.03	3366.86
324.24	3327.95
324.45	3250.13
324.66	3076.05
324.88	3715.02
325.09	3723.21
325.30	3067.86
325.52	3030.99
325.73	3534.79
325.94	3241.93
326.15	3000.27
326.37	2908.12
326.58	3614.66
326.79	3811.27
327.00	3028.95
327.22	3090.38
327.43	3344.33
327.64	3184.59
327.85	3311.57
328.07	3145.68
328.28	3936.20
328.49	3368.91
328.70	3061.71
328.92	3194.83
329.13	3442.64
329.34	3514.31
329.55	3366.86
329.76	3282.89
329.98	3307.47
330.19	3606.47
330.40	3200.98
330.61	3229.65
330.83	3557.32
331.04	3254.22
331.25	3203.02
331.46	3129.30
331.68	3166.16
331.89	3616.71
332.10	3151.82
332.31	2942.93
332.52	3450.83
332.74	3743.69
332.95	3020.75
333.16	3035.09
333.37	3647.43
333.58	3239.89
333.80	3141.58
334.01	2887.64
334.22	3330.00
334.43	3301.33
334.64	3051.47
334.86	3065.81
335.07	3209.17
335.28	3778.50
335.49	3055.57
335.70	3153.87
335.92	3825.61
336.13	3934.15
336.34	3160.02
336.55	3057.62
336.76	3563.47
336.98	3057.62
337.19	3065.81
337.40	3194.83
337.61	4034.50
337.82	3397.58
338.04	3186.64
338.25	3028.95
338.46	3407.82
338.67	3416.01
338.88	3028.95
339.09	3055.57
339.31	3383.24
339.52	3162.06
339.73	3024.85
339.94	3119.06
340.15	3590.09
340.36	3399.63
340.58	3108.82
340.79	3039.19
341.00	3629.00
341.21	3188.69
341.42	3352.52
341.63	3049.43
341.85	3731.40
342.06	3487.69
342.27	3018.71
342.48	3295.18
342.69	3184.59
342.90	3553.23
343.12	3575.75
343.33	3063.76
343.54	3729.35
343.75	3764.17
343.96	3264.46
344.17	3012.56
344.38	3391.44
344.60	3250.13
344.81	3080.14
345.02	3092.43
345.23	3665.86
345.44	3966.92
345.65	3127.25
345.86	3164.11
346.07	3598.28
346.29	3258.32
346.50	3225.55
346.71	3155.92
346.92	3747.78
347.13	3905.48
347.34	3143.63
347.55	2912.21
347.76	3688.39
347.98	3102.67
348.19	3196.88
348.40	3321.81
348.61	3375.05
348.82	3809.22
349.03	3164.11
349.24	3024.85
349.45	3825.61
349.66	3071.95
349.88	3045.33
350.09	2967.51
350.30	3743.69
350.51	3663.82
350.72	3299.28
350.93	3135.44
351.14	3276.75
351.35	3571.66
351.56	3127.25
351.77	3198.93
351.99	3545.03
352.20	3721.16
352.41	3203.02
352.62	2963.41
352.83	3334.09
353.04	3424.20
353.25	3104.72
353.46	3069.91
353.67	3735.50
353.88	3014.61
354.09	2969.55
354.30	3166.16
354.52	3573.71
354.73	3362.76
354.94	3049.43
355.15	3180.50
355.36	3942.34
355.57	3323.85
355.78	3000.27
355.99	3084.24
356.20	3348.43
356.41	3682.25
356.62	3157.97
356.83	3114.96
357.04	3694.54
357.25	3061.71
357.46	3039.19
357.68	3012.56
357.89	3233.74
358.10	3448.78
358.31	3059.67
358.52	3190.74
358.73	3143.63
358.94	3200.98
359.15	3196.88
359.36	3117.01
359.57	3469.26
359.78	3385.29
359.99	3327.95
360.20	3065.81
360.41	3452.88
360.62	3532.75
360.83	3274.70
361.04	3209.17
361.25	3549.13
361.46	3721.16
361.67	3233.74
361.88	3053.52
362.09	3637.19
362.30	3555.27
362.51	2998.23
362.72	3127.25
362.93	3600.33
363.14	3561.42
363.35	3217.36
363.56	3004.37
363.78	3694.54
363.99	3631.05
364.20	3137.49
364.41	3217.36
364.62	3801.03
364.83	3540.94
365.04	3018.71
365.25	3076.05
365.46	3950.53
365.67	3307.47
365.88	3299.28
366.09	3082.19
366.30	3350.48
366.51	3598.28
366.72	3041.23
366.93	3037.14
367.14	3499.98
367.35	3780.55
367.56	3043.28
367.77	3141.58
367.98	3352.52
368.18	3573.71
368.39	3225.55
368.60	3010.51
368.81	3629.00
369.02	3583.95
369.23	3061.71
369.44	2861.01
369.65	3373.00
369.86	3571.66
370.07	3207.12
370.28	3018.71
370.49	3536.84
370.70	3573.71
370.91	3051.47
371.12	2926.55
371.33	3698.63
371.54	3327.95
371.75	3172.30
371.96	2863.06
372.17	3459.02
372.38	3409.87
372.59	3114.96
372.80	3125.20
373.01	3377.10
373.22	3524.55
373.43	3129.30
373.64	3018.71
373.85	3786.69
374.06	3827.65
374.26	3237.84
374.47	3200.98
374.68	3798.98
374.89	3497.93
375.10	3082.19
375.31	3174.35
375.52	3452.88
375.73	3434.44
375.94	2912.21
376.15	3250.13
376.36	3274.70
376.57	3340.24
376.78	3186.64
376.99	3192.78
377.20	3745.73
377.40	3321.81
377.61	3475.40
377.82	3098.58
378.03	3784.65
378.24	3491.79
378.45	3221.45
378.66	3147.73
378.87	3153.87
379.08	3149.78
379.29	3143.63
379.50	3313.61
379.71	3373.00
379.91	3577.80
380.12	3076.05
380.33	3260.37
380.54	3428.30
380.75	3436.49
380.96	3082.19
381.17	3174.35
381.38	3401.68
381.59	3424.20
381.80	3203.02
382.00	3348.43
382.21	3549.13
382.42	3688.39
382.63	3461.07
382.84	3301.33
383.05	3704.78
383.26	3782.60
383.47	3256.27
383.68	3024.85
383.88	3549.13
384.09	3434.44
384.30	3319.76
384.51	3254.22
384.72	3342.28
384.93	3155.92
385.14	3188.69
385.35	3401.68
385.55	3057.62
385.76	3698.63
385.97	3114.96
386.18	2967.51
386.39	3258.32
386.60	3321.81
386.81	3110.86
387.02	2983.89
387.22	3143.63
387.43	3602.38
387.64	3133.39
387.85	3291.09
388.06	3518.41
388.27	4390.84
388.48	7366.54
388.68	10809.18
388.89	13618.99
389.10	15091.48
389.31	14575.39
389.52	11747.15
389.73	10311.52
389.93	9701.23
390.14	8632.19
390.35	7899.02
390.56	7327.63
390.77	6358.94
390.98	4771.77
391.18	4050.88
391.39	3946.44
391.60	3475.40
391.81	3432.40
392.02	3149.78
392.23	3901.38
392.43	3467.21
392.64	3235.79
392.85	3250.13
393.06	3821.51
393.27	3366.86
393.47	3123.15
393.68	3254.22
393.89	3413.96
394.10	3706.82
394.31	3110.86
394.52	3170.26
394.72	3262.41
394.93	3786.69
395.14	3022.80
395.35	3229.65
395.56	3254.22
395.76	3532.75
395.97	3074.00
396.18	3313.61
396.39	3424.20
396.60	4020.16
396.80	3526.60
397.01	3360.72
397.22	3504.07
397.43	3641.29
397.64	3110.86
397.84	3233.74
398.05	3803.08
398.26	3377.10
398.47	3229.65
398.67	3377.10
398.88	3526.60
399.09	3528.65
399.30	3180.50
399.51	3264.46
399.71	3278.80
399.92	3452.88
400.13	3241.93
400.34	3098.58
400.54	3399.63
400.75	3725.26
400.96	3160.02
401.17	3567.56
401.37	3604.42
401.58	3385.29
401.79	3104.72
402.00	3250.13
402.21	3975.11
402.41	3643.34
402.62	3461.07
402.83	3526.60
403.04	3747.78
403.24	4253.63
403.45	3180.50
403.66	3364.81
403.87	3639.24
404.07	3735.50
404.28	3354.57
404.49	3348.43
404.70	3481.55
404.90	3588.04
405.11	3114.96
405.32	3180.50
405.52	3291.09
405.73	3282.89
405.94	3026.90
406.15	3205.07
406.35	3604.42
406.56	3657.67
406.77	3133.39
406.98	3153.87
407.18	3379.15
407.39	3692.49
407.60	3164.11
407.80	3256.27
408.01	3440.59
408.22	3522.51
408.43	2977.75
408.63	3209.17
408.84	3639.24
409.05	3688.39
409.25	3164.11
409.46	3231.69
409.67	3373.00
409.88	3274.70
410.08	3135.44
410.29	3213.26
410.50	3637.19
410.70	3594.19
410.91	3123.15
411.12	3203.02
411.32	3495.88
411.53	3147.73
411.74	3190.74
411.95	3278.80
412.15	3493.83
412.36	3530.70
412.57	3264.46
412.77	3360.72
412.98	3340.24
413.19	3311.57
413.39	3190.74
413.60	3180.50
413.81	3786.69
414.01	3198.93
414.22	3188.69
414.43	3373.00
414.63	3254.22
414.84	3643.34
415.05	3137.49
415.25	3004.37
415.46	3596.23
415.67	3344.33
415.87	3235.79
416.08	3129.30
416.29	3401.68
416.49	3553.23
416.70	3188.69
416.91	3170.26
417.11	3284.94
417.32	3692.49
417.53	3188.69
417.73	3248.08
417.94	3454.92
418.15	3471.31
418.35	3225.55
418.56	3198.93
418.77	3930.05
418.97	3379.15
419.18	3235.79
419.38	2881.49
419.59	3467.21
419.80	3825.61
420.00	3114.96
420.21	3186.64
420.42	3682.25
420.62	3518.41
420.83	3196.88
421.04	3143.63
421.24	3438.54
421.45	3608.52
421.65	3174.35
421.86	3143.63
422.07	3669.96
422.27	3471.31
422.48	3024.85
422.69	2975.70
422.89	3432.40
423.10	3391.44
423.30	3110.86
423.51	3225.55
423.72	3567.56
423.92	3663.82
424.13	2992.08
424.33	3241.93
424.54	3594.19
424.75	3491.79
424.95	3299.28
425.16	3127.25
425.36	3368.91
425.57	3663.82
425.78	3301.33
425.98	3209.17
426.19	3430.35
426.39	3338.19
426.60	3248.08
426.81	3239.89
427.01	3506.12
427.22	3215.31
427.42	2975.70
427.63	3166.16
427.83	3657.67
428.04	3850.18
428.25	3139.54
428.45	3176.40
428.66	3647.43
428.86	3336.14
429.07	3164.11
429.28	3180.50
429.48	3499.98
429.69	3301.33
429.89	3229.65
430.10	3135.44
430.30	3618.76
430.51	3776.45
430.71	3106.77
430.92	3303.37
431.13	3346.38
431.33	3553.23
431.54	3262.41
431.74	3360.72
431.95	3993.54
432.15	3196.88
432.36	3123.15
432.56	3223.50
432.77	3899.33
432.98	3835.85
433.18	3278.80
433.39	3127.25
433.59	3385.29
433.80	3907.52
434.00	3299.28
434.21	3270.61
434.41	3354.57
434.62	4001.73
434.82	3006.42
435.03	3117.01
435.23	3532.75
435.44	3166.16
435.64	3114.96
435.85	3174.35
436.06	3700.68
436.26	3629.00
436.47	3215.31
436.67	3090.38
436.88	3391.44
437.08	3755.97
437.29	3237.84
437.49	3362.76
437.70	3721.16
437.90	3426.25
438.11	3395.53
438.31	3174.35
438.52	3712.97
438.72	3538.89
438.93	3483.59
439.13	3243.98
439.34	3598.28
439.54	3348.43
439.75	3291.09
439.95	3377.10
440.16	3200.98
440.36	3368.91
440.57	3139.54
440.77	3166.16
440.98	3442.64
441.18	3549.13
441.39	3102.67
441.59	2987.99
441.80	3901.38
442.00	3377.10
442.21	3254.22
442.41	3067.86
442.62	3731.40
442.82	3313.61
443.02	3082.19
443.23	3213.26
443.43	3364.81
443.64	3647.43
443.84	3041.23
444.05	3248.08
444.25	3446.73
444.46	3399.63
444.66	3133.39
444.87	3420.11
445.07	3174.35
445.28	3385.29
445.48	3311.57
445.69	3196.88
445.89	4089.79
446.09	3305.42
446.30	3418.06
446.50	3549.13
446.71	5142.45
446.91	6174.63
447.12	6903.70
447.32	7174.03
447.53	7301.01
447.73	6104.99
447.93	5382.06
448.14	5142.45
448.34	5400.49
448.55	4423.61
448.75	4409.28
448.96	4163.52
449.16	4138.94
449.36	3987.40
449.57	3389.39
449.77	3340.24
449.98	3315.66
450.18	3608.52
450.39	3080.14
450.59	3348.43
450.79	3448.78
451.00	3303.37
451.20	3403.72
451.41	3174.35
451.61	3549.13
451.81	3377.10
452.02	3127.25
452.22	3174.35
452.43	3305.42
452.63	3354.57
452.84	3176.40
453.04	3076.05
453.24	3592.14
453.45	3260.37
453.65	3182.54
453.86	3172.30
454.06	3456.97
454.26	3383.24
454.47	3145.68
454.67	3424.20
454.87	3557.32
455.08	3440.59
455.28	3323.85
455.49	3379.15
455.69	3278.80
455.89	3887.04
456.10	3266.51
456.30	3164.11
456.51	3573.71
456.71	3459.02
456.91	3309.52
457.12	3186.64
457.32	3452.88
457.52	3264.46
457.73	3360.72
457.93	3362.76
458.14	3278.80
458.34	3035.09
458.54	3188.69
458.75	3168.21
458.95	3559.37
459.15	3499.98
459.36	3213.26
459.56	3157.97
459.76	3962.82
459.97	3358.67
460.17	3182.54
460.37	3198.93
460.58	3504.07
460.78	3663.82
460.99	3196.88
461.19	3074.00
461.39	3377.10
461.60	3395.53
461.80	3243.98
462.00	3026.90
462.21	3422.16
462.41	3305.42
462.61	3092.43
462.82	2983.89
463.02	3536.84
463.22	3450.83
463.43	3231.69
463.63	3014.61
463.83	3745.73
464.04	3518.41
464.24	3108.82
464.44	3123.15
464.64	3467.21
464.85	3553.23
465.05	3162.06
465.25	3067.86
465.46	3368.91
465.66	3569.61
465.86	3246.03
466.07	3108.82
466.27	3319.76
466.47	3028.95
466.68	2983.89
466.88	3368.91
467.08	3508.17
467.29	3631.05
467.49	3143.63
467.69	3340.24
467.89	3516.36
468.10	3463.12
468.30	3231.69
468.50	3272.65
468.71	3590.09
468.91	3125.20
469.11	3334.09
469.31	3172.30
469.52	3203.02
469.72	3860.42
469.92	3395.53
470.13	3090.38
470.33	3489.74
470.53	3459.02
470.73	3542.99
470.94	3858.37
471.14	3915.72
471.34	4526.01
471.54	4247.49
471.75	3878.85
471.95	3741.64
472.15	3790.79
472.36	3626.95
472.56	3483.59
472.76	3870.66
472.96	3829.70
473.17	3346.38
473.37	3225.55
473.57	3325.90
473.77	3614.66
473.98	3383.24
474.18	3071.95
474.38	4143.04
474.58	3465.16
474.79	3069.91
474.99	3327.95
475.19	3690.44
475.39	3231.69
475.60	3241.93
475.80	3147.73
476.00	3579.85
476.20	3442.64
476.41	3237.84
476.61	3219.41
476.81	3755.97
477.01	3270.61
477.21	3473.36
477.42	3264.46
477.62	3321.81
477.82	3743.69
478.02	3139.54
478.23	3217.36
478.43	3213.26
478.63	3327.95
478.83	3205.07
479.03	3289.04
479.24	3655.62
479.44	3872.71
479.64	3162.06
479.84	3016.66
480.04	3344.33
480.25	3723.21
480.45	3170.26
480.65	3059.67
480.85	3819.46
481.06	3387.34
481.26	3299.28
481.46	3117.01
481.66	3499.98
481.86	3252.17
482.06	3409.87
482.27	3295.18
482.47	3403.72
482.67	3563.47
482.87	3151.82
483.07	3209.17
483.28	3393.48
483.48	3270.61
483.68	3190.74
483.88	3024.85
484.08	3012.56
484.29	3192.78
484.49	3276.75
484.69	2930.64
484.89	3674.06
485.09	3667.91
485.29	3235.79
485.50	3321.81
485.70	3366.86
485.90	3717.06
486.10	3352.52
486.30	3139.54
486.50	3725.26
486.71	3491.79
486.91	3227.60
487.11	3178.45
487.31	3252.17
487.51	3565.51
487.71	3133.39
487.91	3098.58
488.12	3272.65
488.32	2947.03
488.52	3125.20
488.72	2924.50
488.92	3502.03
489.12	3702.73
489.32	3250.13
489.53	3155.92
489.73	3223.50
489.93	3862.47
490.13	3131.34
490.33	3002.32
490.53	3536.84
490.73	3643.34
490.94	3039.19
491.14	3274.70
491.34	3594.19
491.54	3508.17
491.74	4071.36
491.94	4513.72
492.14	5142.45
492.34	5171.12
492.54	4743.10
492.75	4077.51
492.95	4474.81
493.15	4134.85
493.35	3774.41
493.55	3794.89
493.75	3770.31
493.95	4087.75
494.15	3311.57
494.35	3174.35
494.56	3450.83
494.76	3293.13
494.96	3284.94
495.16	2981.84
495.36	3397.58
495.56	3467.21
495.76	3235.79
495.96	3213.26
496.16	3176.40
496.36	3923.91
496.56	3133.39
496.77	3248.08
496.97	3465.16
497.17	3686.34
497.37	3006.42
497.57	3268.56
497.77	3436.49
497.97	3248.08
498.17	3186.64
498.37	3164.11
498.57	3575.75
498.77	3401.68
498.97	3231.69
499.17	3499.98
499.38	3325.90
499.58	3545.03
499.78	3286.99
499.98	3315.66
500.18	3448.78
500.38	3243.98
500.58	3354.57
500.78	3778.50
500.98	6072.23
501.18	7796.62
501.38	9117.56
501.58	10094.44
501.78	10043.24
501.98	8324.99
502.18	7145.36
502.38	6170.53
502.58	6248.35
502.78	5556.14
502.98	5189.55
503.18	5107.63
503.38	4769.72
503.59	4270.01
503.79	4032.45
503.99	3631.05
504.19	3962.82
504.39	3891.14
504.59	3610.57
504.79	3549.13
504.99	3971.01
505.19	3608.52
505.39	3282.89
505.59	3559.37
505.79	3796.93
505.99	3655.62
506.19	3131.34
506.39	3422.16
506.59	3295.18
506.79	3385.29
506.99	3440.59
507.19	3104.72
507.39	3592.14
507.59	3196.88
507.79	3094.48
507.99	3182.54
508.19	3327.95
508.39	3319.76
508.59	3223.50
508.79	3262.41
508.99	3868.61
509.19	3272.65
509.39	3217.36
509.59	3088.34
509.79	3260.37
509.99	3483.59
510.19	3348.43
510.39	3321.81
510.59	3536.84
510.79	3348.43
510.99	3012.56
511.19	3129.30
511.39	3774.41
511.59	3682.25
511.79	3332.05
511.99	3164.11
512.19	3923.91
512.38	3416.01
512.58	3094.48
512.78	3078.10
512.98	3729.35
513.18	3786.69
513.38	3129.30
513.58	3272.65
513.78	3295.18
513.98	3459.02
514.18	3180.50
514.38	3155.92
514.58	3557.32
514.78	3237.84
514.98	3143.63
515.18	3196.88
515.38	3246.03
515.58	3868.61
515.78	3192.78
515.98	3241.93
516.18	3655.62
516.38	3499.98
516.57	3194.83
516.77	3164.11
516.97	3618.76
517.17	3352.52
517.37	3028.95
517.57	3205.07
517.77	3436.49
517.97	3278.80
518.17	3293.13
518.37	3051.47
518.57	3362.76
518.77	3217.36
518.97	3196.88
519.16	3231.69
519.36	3682.25
519.56	3291.09
519.76	2979.79
519.96	3207.12
520.16	3778.50
520.36	3297.23
520.56	3284.94
520.76	3213.26
520.96	3315.66
521.16	3585.99
521.35	3407.82
521.55	3198.93
521.75	3389.39
521.95	3379.15
522.15	3129.30
522.35	3030.99
522.55	3330.00
522.75	3620.81
522.95	3039.19
523.14	2983.89
523.34	3383.24
523.54	3360.72
523.74	3278.80
523.94	3338.19
524.14	3164.11
524.34	3487.69
524.54	3450.83
524.73	3215.31
524.93	3626.95
525.13	3420.11
525.33	3039.19
525.53	3467.21
525.73	3633.10
525.93	3434.44
526.13	3256.27
526.32	3047.38
526.52	3717.06
526.72	3637.19
526.92	3235.79
527.12	3084.24
527.32	3074.00
527.52	3454.92
527.71	3229.65
527.91	3180.50
528.11	3379.15
528.31	3350.48
528.51	3213.26
528.71	3299.28
528.90	3588.04
529.10	3667.91
529.30	3112.91
529.50	2865.11
529.70	3637.19
529.90	3416.01
530.09	3184.59
530.29	2996.18
530.49	3272.65
530.69	4095.94
530.89	3309.52
531.09	3282.89
531.28	3362.76
531.48	3712.97
531.68	3180.50
531.88	3133.39
532.08	3590.09
532.28	3387.34
532.47	3330.00
532.67	3330.00
532.87	3442.64
533.07	3196.88
533.27	3233.74
533.46	3194.83
533.66	3524.55
533.86	3416.01
534.06	3213.26
534.26	3123.15
534.45	3321.81
534.65	3606.47
534.85	3295.18
535.05	3168.21
535.25	3559.37
535.44	3188.69
535.64	3352.52
535.84	3229.65
536.04	3291.09
536.24	3393.48
536.43	3184.59
536.63	3172.30
536.83	3409.87
537.03	3377.10
537.22	2940.88
537.42	2963.41
537.62	3475.40
537.82	3254.22
538.02	3278.80
538.21	3213.26
538.41	4093.89
538.61	3551.18
538.81	3200.98
539.00	3330.00
539.20	3229.65
539.40	3387.34
539.60	3129.30
539.79	3340.24
539.99	3516.36
540.19	3258.32
540.39	3074.00
540.58	3262.41
540.78	3583.95
540.98	3434.44
541.18	3456.97
541.37	3198.93
541.57	3397.58
541.77	3459.02
541.97	3164.11
542.16	3016.66
542.36	3315.66
542.56	3631.05
542.76	3385.29
542.95	3190.74
543.15	3534.79
543.35	3657.67
543.54	3114.96
543.74	3084.24
543.94	3682.25
544.14	3307.47
544.33	3309.52
544.53	3192.78
544.73	3395.53
544.93	3356.62
545.12	3223.50
545.32	3225.55
545.52	3387.34
545.71	3094.48
545.91	3231.69
546.11	3082.19
546.30	3209.17
546.50	3450.83
546.70	3209.17
546.90	3168.21
547.09	3041.23
547.29	3368.91
547.49	3264.46
547.68	3198.93
547.88	3289.04
548.08	3661.77
548.27	3520.46
548.47	3131.34
548.67	3397.58
548.87	3471.31
549.06	3108.82
549.26	3084.24
549.46	3442.64
549.65	3274.70
549.85	3112.91
550.05	3139.54
550.24	3262.41
550.44	3422.16
550.64	3231.69
550.83	3293.13
551.03	3792.84
551.23	3661.77
551.42	3223.50
551.62	3278.80
551.82	3403.72
552.01	3454.92
552.21	3504.07
552.41	3227.60
552.60	3708.87
552.80	3456.97
553.00	3170.26
553.19	3160.02
553.39	3796.93
553.59	3166.16
553.78	3268.56
553.98	3098.58
554.17	3229.65
554.37	3487.69
554.57	3229.65
554.76	3069.91
554.96	3364.81
555.16	3495.88
555.35	3303.37
555.55	3393.48
555.75	3481.55
555.94	3577.80
556.14	2922.45
556.33	3176.40
556.53	3366.86
556.73	3516.36
556.92	3137.49
557.12	3053.52
557.32	3889.09
557.51	3733.45
557.71	3200.98
557.90	3338.19
558.10	3717.06
558.30	3262.41
558.49	3213.26
558.69	3221.45
558.88	3569.61
559.08	3446.73
559.28	3168.21
559.47	3200.98
559.67	3579.85
559.86	3823.56
560.06	3125.20
560.26	3254.22
560.45	3471.31
560.65	3336.14
560.84	3526.60
561.04	3088.34
561.24	3604.42
561.43	3155.92
561.63	3422.16
561.82	3270.61
562.02	3663.82
562.22	3182.54
562.41	3106.77
562.61	3162.06
562.80	3180.50
563.00	3952.58
563.19	3213.26
563.39	3266.51
563.59	3442.64
563.78	3143.63
563.98	2889.68
564.17	3174.35
564.37	3059.67
564.56	3399.63
564.76	3059.67
564.96	3319.76
565.15	3487.69
565.35	3930.05
565.54	3223.50
565.74	3123.15
565.93	3479.50
566.13	3405.77
566.32	3280.85
566.52	3243.98
566.71	3444.68
566.91	3520.46
567.11	3321.81
567.30	3078.10
567.50	3547.08
567.69	3542.99
567.89	3151.82
568.08	3131.34
568.28	3469.26
568.47	3209.17
568.67	3166.16
568.86	3145.68
569.06	3647.43
569.25	3301.33
569.45	3055.57
569.64	3129.30
569.84	3299.28
570.04	3485.64
570.23	3157.97
570.43	3182.54
570.62	3420.11
570.82	3790.79
571.01	3139.54
571.21	3135.44
571.40	3260.37
571.60	3596.23
571.79	3246.03
571.99	3141.58
572.18	3223.50
572.38	3487.69
572.57	3260.37
572.77	3258.32
572.96	4087.75
573.16	3536.84
573.35	3155.92
573.55	3323.85
573.74	3674.06
573.94	3354.57
574.13	3203.02
574.33	3360.72
574.52	3704.78
574.71	3399.63
574.91	3258.32
575.10	3037.14
575.30	3377.10
575.49	3239.89
575.69	3098.58
575.88	3131.34
576.08	3432.40
576.27	3620.81
576.47	3018.71
576.66	3305.42
576.86	3749.83
577.05	3555.27
577.25	3174.35
577.44	3391.44
577.64	3330.00
577.83	3647.43
578.02	3137.49
578.22	3368.91
578.41	3844.04
578.61	3452.88
578.80	3043.28
579.00	3176.40
579.19	3395.53
579.39	3510.22
579.58	3231.69
579.77	3198.93
579.97	3729.35
580.16	3755.97
580.36	3364.81
580.55	3286.99
580.75	3489.74
580.94	3444.68
581.13	3330.00
581.33	3379.15
581.52	3381.20
581.72	3811.27
581.91	3151.82
582.11	3149.78
582.30	3565.51
582.49	3467.21
582.69	3459.02
582.88	3225.55
583.08	3532.75
583.27	3583.95
583.47	3368.91
583.66	3133.39
583.85	3237.84
584.05	3289.04
584.24	3338.19
584.44	3256.27
584.63	3565.51
584.82	3710.92
585.02	3354.57
585.21	3346.38
585.41	3571.66
585.60	3475.40
585.79	3428.30
585.99	3448.78
586.18	3418.06
586.37	4579.26
586.57	6901.65
586.76	18708.19
586.96	37547.46
587.15	50365.70
587.34	58043.53
587.54	61998.16
587.73	54594.75
587.93	39177.64
588.12	30264.88
588.31	24940.16
588.51	22224.56
588.70	20616.90
588.89	17753.84
589.09	15261.46
589.28	13322.04
589.47	10565.47
589.67	7808.90
589.86	6244.26
590.06	5089.20
590.25	4446.14
590.44	3948.48
590.64	3581.90
590.83	3774.41
591.02	3725.26
591.22	3196.88
591.41	3227.60
591.60	3438.54
591.80	4011.97
591.99	3049.43
592.18	3110.86
592.38	3698.63
592.57	3276.75
592.76	3188.69
592.96	3250.13
593.15	3407.82
593.34	3712.97
593.54	3074.00
593.73	3272.65
593.92	3540.94
594.12	3549.13
594.31	3262.41
594.50	3393.48
594.70	3553.23
594.89	3977.16
595.08	3123.15
595.28	3379.15
595.47	4089.79
595.66	3622.86
595.86	3112.91
596.05	2975.70
596.24	3321.81
596.43	3796.93
596.63	3291.09
596.82	3303.37
597.01	3534.79
597.21	3805.13
597.40	3139.54
597.59	3203.02
597.79	3377.10
597.98	3518.41
598.17	3289.04
598.36	3198.93
598.56	3583.95
598.75	3319.76
598.94	3319.76
599.14	3215.31
599.33	3313.61
599.52	3598.28
599.71	3221.45
599.91	3178.45
600.10	3600.33
600.29	3510.22
600.48	3340.24
600.68	3311.57
600.87	3516.36
601.06	3280.85
601.26	3280.85
601.45	3356.62
601.64	3350.48
601.83	3753.93
602.03	3117.01
602.22	3049.43
602.41	3672.01
602.60	3966.92
602.80	3264.46
602.99	3383.24
603.18	3305.42
603.37	3467.21
603.57	2981.84
603.76	3192.78
603.95	3715.02
604.14	3327.95
604.34	3045.33
604.53	3114.96
604.72	3477.45
604.91	3643.34
605.10	3121.10
605.30	3065.81
605.49	4014.02
605.68	3565.51
605.87	3194.83
606.07	3194.83
606.26	3516.36
606.45	3551.18
606.64	3198.93
606.84	3063.76
607.03	3534.79
607.22	3626.95
607.41	3182.54
607.60	3166.16
607.80	3567.56
607.99	3342.28
608.18	3186.64
608.37	3237.84
608.56	3315.66
608.76	3655.62
608.95	3284.94
609.14	3123.15
609.33	3690.44
609.52	3692.49
609.72	3291.09
609.91	3209.17
610.10	3510.22
610.29	3710.92
610.48	3297.23
610.68	3325.90
610.87	3411.92
611.06	3559.37
611.25	3141.58
611.44	3256.27
611.63	3373.00
611.83	3717.06
612.02	3192.78
612.21	3321.81
612.40	3033.04
612.59	3172.30
612.79	3108.82
612.98	3264.46
613.17	3706.82
613.36	3377.10
613.55	3321.81
613.74	3119.06
613.93	3438.54
614.13	3547.08
614.32	3340.24
614.51	3203.02
614.70	3370.96
614.89	3360.72
615.08	3305.42
615.28	3467.21
615.47	3233.74
615.66	3393.48
615.85	3270.61
616.04	3229.65
616.23	3485.64
616.42	3399.63
616.62	3182.54
616.81	3207.12
617.00	3430.35
617.19	3514.31
617.38	3209.17
617.57	3272.65
617.76	3639.24
617.95	3614.66
618.15	3401.68
618.34	3352.52
618.53	3180.50
618.72	3751.88
618.91	3266.51
619.10	3239.89
619.29	3401.68
619.48	3327.95
619.68	3102.67
619.87	3098.58
620.06	3180.50
620.25	3536.84
620.44	3131.34
620.63	3127.25
620.82	3499.98
621.01	3467.21
621.20	3221.45
621.39	3260.37
621.59	3463.12
621.78	3430.35
621.97	3190.74
622.16	3315.66
622.35	3583.95
622.54	3585.99
622.73	3291.09
622.92	3057.62
623.11	3647.43
623.30	3297.23
623.49	3381.20
623.68	3090.38
623.88	3747.78
624.07	3360.72
624.26	3117.01
624.45	3180.50
624.64	3360.72
624.83	3493.83
625.02	3100.62
625.21	3282.89
625.40	3551.18
625.59	3721.16
625.78	3250.13
625.97	3254.22
626.16	3729.35
626.35	3547.08
626.54	3176.40
626.74	3366.86
626.93	3360.72
627.12	3368.91
627.31	3278.80
627.50	3231.69
627.69	3592.14
627.88	3164.11
628.07	3123.15
628.26	3035.09
628.45	3278.80
628.64	3293.13
628.83	3133.39
629.02	3035.09
629.21	3661.77
629.40	3542.99
629.59	3086.29
629.78	3082.19
629.97	3463.12
630.16	3401.68
630.35	3182.54
630.54	3284.94
630.73	3330.00
630.92	3377.10
631.11	3110.86
631.30	3319.76
631.49	3592.14
631.68	3393.48
631.87	3241.93
632.06	3157.97
632.25	3946.44
632.44	3375.05
632.63	3223.50
632.82	3168.21
633.01	3270.61
633.20	3434.44
633.39	3123.15
633.58	2996.18
633.77	3524.55
633.96	3499.98
634.15	3266.51
634.34	3262.41
634.53	3461.07
634.72	3297.23
634.91	3012.56
635.10	3258.32
635.29	3645.38
635.48	3469.26
635.67	3074.00
635.86	3041.23
636.05	3841.99
636.24	3473.36
636.43	3176.40
636.62	3286.99
636.81	2932.69
637.00	3430.35
637.19	3117.01
637.38	3176.40
637.57	3280.85
637.76	3426.25
637.95	3391.44
638.14	3364.81
638.33	3475.40
638.52	3350.48
638.71	3063.76
638.89	3119.06
639.08	4061.12
639.27	3667.91
639.46	3389.39
639.65	3663.82
639.84	3903.43
640.03	4018.11
640.22	3610.57
640.41	3534.79
640.60	3516.36
640.79	3715.02
640.98	3366.86
641.17	3309.52
641.36	3663.82
641.55	3639.24
641.74	3061.71
641.92	3069.91
642.11	3266.51
642.30	3364.81
642.49	3086.29
642.68	3229.65
642.87	3471.31
643.06	3590.09
643.25	3035.09
643.44	3098.58
643.63	3401.68
643.82	3594.19
644.00	3080.14
644.19	3178.45
644.38	3205.07
644.57	3565.51
644.76	3180.50
644.95	3307.47
645.14	3456.97
645.33	3479.50
645.52	3237.84
645.71	3012.56
645.89	3221.45
646.08	3352.52
646.27	3184.59
646.46	3397.58
646.65	3069.91
646.84	3426.25
647.03	3067.86
647.22	3256.27
647.40	3446.73
647.59	3305.42
647.78	2975.70
647.97	3141.58
648.16	3260.37
648.35	3753.93
648.54	3542.99
648.73	3225.55
648.91	3592.14
649.10	3430.35
649.29	3123.15
649.48	3151.82
649.67	3549.13
649.86	3459.02
650.05	3270.61
650.23	3362.76
650.42	3284.94
650.61	3712.97
650.80	3401.68
650.99	3440.59
651.18	3612.62
651.36	3721.16
651.55	3114.96
651.74	3332.05
651.93	3307.47
652.12	3405.77
652.31	3248.08
652.49	3151.82
652.68	3305.42
652.87	3766.21
653.06	3260.37
653.25	3463.12
653.44	3446.73
653.62	3901.38
653.81	3198.93
654.00	3237.84
654.19	3573.71
654.38	3952.58
654.56	3223.50
654.75	3131.34
654.94	3643.34
655.13	3477.45
655.32	3014.61
655.51	3213.26
655.69	3377.10
655.88	3626.95
656.07	3024.85
656.26	3233.74
656.45	3147.73
656.63	3424.20
656.82	3178.45
657.01	3504.07
657.20	3303.37
657.38	3745.73
657.57	3053.52
657.76	2998.23
657.95	3590.09
658.14	3274.70
658.32	3321.81
658.51	3024.85
658.70	3420.11
658.89	3532.75
659.08	3110.86
659.26	3346.38
659.45	3235.79
659.64	3608.52
659.83	3213.26
660.01	3561.42
660.20	3502.03
660.39	3729.35
660.58	2811.86
660.76	3289.04
660.95	3127.25
661.14	3442.64
661.33	3022.80
661.51	3221.45
661.70	3305.42
661.89	3532.75
662.08	3278.80
662.26	3051.47
662.45	3196.88
662.64	3819.46
662.83	3213.26
663.01	3084.24
663.20	3303.37
663.39	3708.87
663.58	3188.69
663.76	3067.86
663.95	3565.51
664.14	3213.26
664.32	3213.26
664.51	3055.57
664.70	3018.71
664.89	3567.56
665.07	3035.09
665.26	3332.05
665.45	3137.49
665.64	3532.75
665.82	3182.54
666.01	3295.18
666.20	3178.45
666.38	3598.28
666.57	3565.51
666.76	5783.46
666.95	12691.26
667.13	18851.55
667.32	22623.91
667.51	25091.71
667.69	25712.25
667.88	21065.41
668.07	15494.93
668.25	13330.23
668.44	11829.07
668.63	10411.87
668.81	9013.11
669.00	7784.33
669.19	7284.62
669.38	6301.60
669.56	5353.39
669.75	4806.58
669.94	4419.52
670.12	3766.21
670.31	3411.92
670.50	3518.41
670.68	3594.19
670.87	3571.66
671.06	3119.06
671.24	3256.27
671.43	3813.32
671.62	3434.44
671.80	3284.94
671.99	3274.70
672.18	3375.05
672.36	3702.73
672.55	3323.85
672.74	3137.49
672.92	3352.52
673.11	3643.34
673.29	3002.32
673.48	3391.44
673.67	3413.96
673.85	3600.33
674.04	3164.11
674.23	3313.61
674.41	3897.28
674.60	3192.78
674.79	2957.27
674.97	2996.18
675.16	3565.51
675.34	3657.67
675.53	3143.63
675.72	3223.50
675.90	3821.51
676.09	3303.37
676.28	3250.13
676.46	3053.52
676.65	3690.44
676.83	3268.56
677.02	3254.22
677.21	3231.69
677.39	3495.88
677.58	3268.56
677.77	3182.54
677.95	3094.48
678.14	3477.45
678.32	3319.76
678.51	3239.89
678.70	3475.40
678.88	3291.09
679.07	3385.29
679.25	3291.09
679.44	3219.41
679.63	3239.89
679.81	3434.44
680.00	3508.17
680.18	3258.32
680.37	3798.98
680.55	3459.02
680.74	3047.38
680.93	2947.03
681.11	3483.59
681.30	3409.87
681.48	3172.30
681.67	3237.84
681.85	3524.55
682.04	3188.69
682.23	3356.62
682.41	3264.46
682.60	3448.78
682.78	3411.92
682.97	3074.00
683.15	3188.69
683.34	3448.78
683.53	3676.10
683.71	3065.81
683.90	3264.46
684.08	3848.13
684.27	3413.96
684.45	3237.84
684.64	3346.38
684.82	3452.88
685.01	3600.33
685.19	3215.31
685.38	3528.65
685.57	3377.10
685.75	3340.24
685.94	3106.77
686.12	3131.34
686.31	3323.85
686.49	3813.32
686.68	3063.76
686.86	3155.92
687.05	3409.87
687.23	3798.98
687.42	3174.35
687.60	3043.28
687.79	3725.26
687.97	3645.38
688.16	3284.94
688.34	3450.83
688.53	3061.71
688.71	3520.46
688.90	3440.59
689.08	3203.02
689.27	3016.66
689.45	3590.09
689.64	3291.09
689.82	3291.09
690.01	3542.99
690.19	3448.78
690.38	3223.50
690.56	3389.39
690.75	3233.74
690.93	3377.10
691.12	3207.12
691.30	3272.65
691.49	3303.37
691.67	3391.44
691.86	3528.65
692.04	3258.32
692.23	3356.62
692.41	3377.10
692.60	3610.57
692.78	3362.76
692.97	3413.96
693.15	3577.80
693.34	3473.36
693.52	3356.62
693.71	3342.28
693.89	3262.41
694.08	3071.95
694.26	3225.55
694.44	3547.08
694.63	3614.66
694.81	3123.15
695.00	3192.78
695.18	3694.54
695.37	4001.73
695.55	3291.09
695.74	3272.65
695.92	3297.23
696.10	3649.48
696.29	3172.30
696.47	3172.30
696.66	3209.17
696.84	3254.22
697.03	3229.65
697.21	3459.02
697.40	4739.00
697.58	3755.97
697.76	3086.29
697.95	3211.22
698.13	3168.21
698.32	3354.57
698.50	3209.17
698.68	3256.27
698.87	3489.74
699.05	3815.37
699.24	3139.54
699.42	3219.41
699.61	3459.02
699.79	3442.64
699.97	3307.47
700.16	3086.29
700.34	3188.69
700.53	3469.26
700.71	3434.44
700.89	3336.14
701.08	3373.00
701.26	3473.36
701.45	3518.41
701.63	3188.69
701.81	3332.05
702.00	3266.51
702.18	3246.03
702.37	3164.11
702.55	3674.06
702.73	3459.02
702.92	3084.24
703.10	3502.03
703.28	3532.75
703.47	3176.40
703.65	3387.34
703.84	3254.22
704.02	3356.62
704.20	3653.58
704.39	3123.15
704.57	3184.59
704.75	3590.09
704.94	3467.21
705.12	3323.85
705.30	3997.64
705.49	8232.83
705.67	14665.50
705.86	19703.51
706.04	21970.61
706.22	24342.16
706.41	22724.26
706.59	16791.30
706.77	13518.64
706.96	11876.17
707.14	11087.70
707.32	9389.94
707.51	8275.84
707.69	6809.50
707.87	5926.82
708.06	4825.01
708.24	4235.20
708.42	4151.23
708.61	4263.87
708.79	3241.93
708.97	3428.30
709.16	3528.65
709.34	3491.79
709.52	3221.45
709.71	3192.78
709.89	3571.66
710.07	3254.22
710.26	3166.16
710.44	3223.50
710.62	3602.38
710.80	3420.11
710.99	3239.89
711.17	3342.28
711.35	3373.00
711.54	3262.41
711.72	3389.39
711.90	3211.22
712.09	3516.36
712.27	3360.72
712.45	3282.89
712.63	3188.69
712.82	3444.68
713.00	3403.72
713.18	3280.85
713.37	3493.83
713.55	3583.95
713.73	3602.38
713.91	3327.95
714.10	3200.98
714.28	3366.86
714.46	3440.59
714.65	3315.66
714.83	3246.03
715.01	3416.01
715.19	3368.91
715.38	3180.50
715.56	3297.23
715.74	3262.41
715.92	3340.24
716.11	3516.36
716.29	2985.94
716.47	3469.26
716.65	3413.96
716.84	3139.54
717.02	3221.45
717.20	3002.32
717.38	3274.70
717.57	3411.92
717.75	3127.25
717.93	3370.96
718.11	3600.33
718.30	3047.38
718.48	3237.84
718.66	3715.02
718.84	3706.82
719.03	3219.41
719.21	3094.48
719.39	3786.69
719.57	3641.29
719.75	3332.05
719.94	3135.44
720.12	3360.72
720.30	3385.29
720.48	3237.84
720.67	3237.84
720.85	3227.60
721.03	3313.61
721.21	3172.30
721.39	3270.61
721.58	3573.71
721.76	3440.59
721.94	3262.41
722.12	3327.95
722.30	3749.83
722.49	3272.65
722.67	3180.50
722.85	3215.31
723.03	3100.62
723.21	3286.99
723.40	3327.95
723.58	3385.29
723.76	3647.43
723.94	3788.74
724.12	3221.45
724.30	3528.65
724.49	3684.30
724.67	3262.41
724.85	3248.08
725.03	3207.12
725.21	3606.47
725.40	3708.87
725.58	3258.32
725.76	3409.87
725.94	3561.42
726.12	3157.97
726.30	3286.99
726.49	3155.92
726.67	3309.52
726.85	3592.14
727.03	3989.44
727.21	4951.99
727.39	6236.06
727.57	6533.02
727.76	6784.92
727.94	6793.11
728.12	5908.39
728.30	5044.15
728.48	4865.97
728.66	4515.77
728.84	4425.66
729.03	3887.04
729.21	3725.26
729.39	3557.32
729.57	3469.26
729.75	3502.03
729.93	3510.22
730.11	3164.11
730.30	3364.81
730.48	3297.23
730.66	3231.69
730.84	3338.19
731.02	3440.59
731.20	3321.81
731.38	3362.76
731.56	3041.23
731.74	3123.15
731.93	3565.51
732.11	3362.76
732.29	3166.16
732.47	3590.09
732.65	3432.40
732.83	3352.52
733.01	3327.95
733.19	3291.09
733.37	3631.05
733.56	3272.65
733.74	3084.24
733.92	3659.72
734.10	3348.43
734.28	3370.96
734.46	3059.67
734.64	3442.64
734.82	3383.24
735.00	3149.78
735.18	3145.68
735.36	3454.92
735.54	3332.05
735.73	3196.88
735.91	3385.29
736.09	3706.82
736.27	3473.36
736.45	3225.55
736.63	2885.59
736.81	3282.89
736.99	3618.76
737.17	3514.31
737.35	3135.44
737.53	3481.55
737.71	3348.43
737.89	3438.54
738.07	3172.30
738.25	3256.27
738.43	3131.34
738.61	3254.22
738.80	3069.91
738.98	3327.95
739.16	3330.00
739.34	3135.44
739.52	3493.83
739.70	3438.54
739.88	3575.75
740.06	3350.48
740.24	2934.74
740.42	3708.87
740.60	3143.63
740.78	3178.45
740.96	3002.32
741.14	3377.10
741.32	3424.20
741.50	3037.14
741.68	3479.50
741.86	3747.78
742.04	3188.69
742.22	3225.55
742.40	3141.58
742.58	3536.84
742.76	3270.61
742.94	3440.59
743.12	3030.99
743.30	3385.29
743.48	3508.17
743.66	3074.00
743.84	3233.74
744.02	3473.36
744.20	3444.68
744.38	3102.67
744.56	3157.97
744.74	3813.32
744.92	3592.14
745.10	3379.15
745.28	3196.88
745.46	3758.02
745.64	3450.83
745.82	3274.70
746.00	3133.39
746.18	3559.37
746.36	3280.85
746.54	3291.09
746.72	3225.55
746.90	3192.78
747.08	3772.36
747.26	3217.36
747.44	3348.43
747.62	3463.12
747.80	3565.51
747.98	3362.76
748.15	3209.17
748.33	3717.06
748.51	3440.59
748.69	3264.46
748.87	3069.91
749.05	3346.38
749.23	3426.25
749.41	3139.54
749.59	3182.54
749.77	3692.49
749.95	3297.23
750.13	3213.26
750.31	3344.33
750.49	3444.68
750.67	3596.23
750.85	3246.03
751.03	3196.88
751.20	3841.99
751.38	3450.83
751.56	3344.33
751.74	3196.88
751.92	3399.63
752.10	3209.17
752.28	3323.85
752.46	3170.26
752.64	3405.77
752.82	3370.96
753.00	3252.17
753.18	3164.11
753.35	3336.14
753.53	3379.15
753.71	3151.82
753.89	3352.52
754.07	3461.07
754.25	3626.95
754.43	3258.32
754.61	3139.54
754.79	3590.09
754.97	3428.30
755.14	3409.87
755.32	3074.00
755.50	3459.02
755.68	3481.55
755.86	3176.40
756.04	3084.24
756.22	3055.57
756.40	3647.43
756.57	3420.11
756.75	3131.34
756.93	3604.42
757.11	3579.85
757.29	3076.05
757.47	3145.68
757.65	3061.71
757.82	2983.89
758.00	3088.34
758.18	3137.49
758.36	3323.85
758.54	3815.37
758.72	3039.19
758.90	3313.61
759.07	3553.23
759.25	3233.74
759.43	3254.22
759.61	3041.23
759.79	4583.35
759.97	3618.76
760.15	3239.89
760.32	3229.65
760.50	3479.50
760.68	3708.87
760.86	3080.14
761.04	3377.10
761.22	3594.19
761.39	3459.02
761.57	3311.57
761.75	3164.11
761.93	3524.55
762.11	3346.38
762.28	3362.76
762.46	3127.25
762.64	3618.76
762.82	3266.51
763.00	3155.92
763.18	3420.11
763.35	3246.03
763.53	3540.94
763.71	3336.14
763.89	3155.92
764.07	3461.07
764.24	3420.11
764.42	3342.28
764.60	3160.02
764.78	3532.75
764.96	3600.33
765.13	3416.01
765.31	2981.84
765.49	3602.38
765.67	3190.74
765.84	3164.11
766.02	3133.39
766.20	3114.96
766.38	3508.17
766.56	3319.76
766.73	3346.38
766.91	3413.96
767.09	3499.98
767.27	3225.55
767.44	3100.62
767.62	3602.38
767.80	3411.92
767.98	3131.34
768.15	3147.73
768.33	3596.23
768.51	3557.32
768.69	3346.38
768.87	3117.01
769.04	3436.49
769.22	4024.26
769.40	3262.41
769.58	3350.48
769.75	3545.03
769.93	3674.06
770.11	3209.17
770.28	3065.81
770.46	3604.42
770.64	3467.21
770.82	3309.52
770.99	3182.54
771.17	3579.85
771.35	3348.43
771.53	3352.52
771.70	3114.96
771.88	3592.14
772.06	3456.97
772.23	3129.30
772.41	3266.51
772.59	3416.01
772.77	3264.46
772.94	3180.50
773.12	3299.28
773.30	3276.75
773.47	3536.84
773.65	3076.05
773.83	3338.19
774.01	3487.69
774.18	3074.00
774.36	3166.16
774.54	3035.09
774.71	3540.94
774.89	3108.82
775.07	3067.86
775.24	3149.78
775.42	3311.57
775.60	3794.89
775.78	3106.77
775.95	3082.19
776.13	3086.29
776.31	3092.43
776.48	3407.82
776.66	3397.58
776.84	3348.43
777.01	3282.89
777.19	3127.25
777.37	3080.14
777.54	3672.01
777.72	3831.75
777.90	3323.85
778.07	3162.06
778.25	4095.94
778.43	3602.38
778.60	3168.21
778.78	3270.61
778.96	3649.48
779.13	3170.26
779.31	3248.08
779.49	3231.69
779.66	3401.68
779.84	3338.19
780.01	3164.11
780.19	3166.16
780.37	3723.21
780.54	3569.61
780.72	3035.09
780.90	3213.26
781.07	3432.40
781.25	3250.13
781.43	3418.06
781.60	3174.35
781.78	3643.34
781.95	3491.79
782.13	3184.59
782.31	3094.48
782.48	3045.33
782.66	3405.77
782.83	3377.10
783.01	3327.95
783.19	3594.19
783.36	3411.92
783.54	3176.40
783.72	3307.47
783.89	3317.71
784.07	3495.88
784.24	3327.95
784.42	3362.76
784.60	3563.47
784.77	3502.03
784.95	2885.59
785.12	3100.62
785.30	3411.92
785.47	3309.52
785.65	3110.86
785.83	3330.00
786.00	3370.96
786.18	3397.58
786.35	3141.58
786.53	3057.62
786.71	3645.38
786.88	3489.74
787.06	3280.85
787.23	3254.22
787.41	3258.32
787.58	3383.24
787.76	3049.43
787.94	3213.26
788.11	3565.51
788.29	3223.50
788.46	3110.86
788.64	3059.67
788.81	3313.61
788.99	3186.64
789.16	3164.11
789.34	3205.07
789.52	3313.61
789.69	3350.48
789.87	3030.99
790.04	3254.22
790.22	3434.44
790.39	3798.98
790.57	3117.01
790.74	3090.38
790.92	3598.28
791.09	3127.25
791.27	3229.65
791.44	3289.04
791.62	3346.38
791.79	3502.03
791.97	3268.56
792.15	3571.66
792.32	3573.71
792.50	3577.80
792.67	3389.39
792.85	3524.55
793.02	3438.54
793.20	3323.85
793.37	3016.66
793.55	3088.34
793.72	3205.07
793.90	3549.13
794.07	3180.50
794.25	3069.91
794.42	3489.74
794.60	3393.48
794.77	3262.41
794.95	3327.95
795.12	3575.75
795.30	3489.74
795.47	2953.17
795.65	3528.65
795.82	3450.83
796.00	3325.90
796.17	3235.79
796.34	3033.04
796.52	3379.15
796.69	3598.28
796.87	3284.94
797.04	3389.39
797.22	3604.42
797.39	3508.17
797.57	3354.57
797.74	3262.41
797.92	3565.51
798.09	3344.33
798.27	3475.40
798.44	3155.92
798.62	3301.33
798.79	3438.54
798.96	3309.52
799.14	3262.41
799.31	4009.92
799.49	3446.73
799.66	3143.63
799.84	3295.18
800.01	3139.54
800.19	3471.31
800.36	3008.47
800.53	3221.45
800.71	3512.27
800.88	3794.89
801.06	3037.14
801.23	3184.59
801.41	3332.05
801.58	3286.99
801.75	3211.22
801.93	3182.54
802.10	3561.42
802.28	3375.05
802.45	3286.99
802.63	3243.98
802.80	3715.02
802.97	3286.99
803.15	3268.56
803.32	3209.17
803.50	3286.99
803.67	3248.08
803.84	3198.93
804.02	3303.37
804.19	3407.82
804.37	2869.20
804.54	3008.47
804.71	3172.30
804.89	3385.29
805.06	3315.66
805.24	3155.92
805.41	3100.62
805.58	3262.41
805.76	4007.87
805.93	3090.38
806.10	3375.05
806.28	3555.27
806.45	3395.53
806.63	3399.63
806.80	3254.22
806.97	3504.07
807.15	3416.01
807.32	3360.72
807.49	3243.98
807.67	3190.74
807.84	3495.88
808.01	3030.99
808.19	3338.19
808.36	3889.09
808.54	3344.33
808.71	3168.21
808.88	3194.83
809.06	3612.62
809.23	3770.31
809.40	3246.03
809.58	3147.73
809.75	3442.64
809.92	3110.86
810.10	3436.49
810.27	3209.17
810.44	3502.03
810.62	3514.31
810.79	3225.55
810.96	3203.02
811.14	3358.67
811.31	3504.07
811.48	3432.40
811.66	3338.19
811.83	3706.82
812.00	3506.12
812.18	3299.28
812.35	3506.12
812.52	3454.92
812.69	3409.87
812.87	3213.26
813.04	3127.25
813.21	3432.40
813.39	3262.41
813.56	3213.26
813.73	3428.30
813.91	3117.01
814.08	3416.01
814.25	3217.36
814.42	2967.51
814.60	3426.25
814.77	3389.39
814.94	3102.67
815.12	3352.52
815.29	3837.89
815.46	3278.80
815.63	3221.45
815.81	3149.78
815.98	3334.09
816.15	3344.33
816.33	3291.09
816.50	3162.06
816.67	3405.77
816.84	3479.50
817.02	3106.77
817.19	3170.26
817.36	3452.88
817.53	3422.16
817.71	3127.25
817.88	3135.44
818.05	3409.87
818.22	3315.66
818.40	3325.90
818.57	3172.30
818.74	3553.23
818.91	3368.91
819.09	3381.20
819.26	3327.95
819.43	3319.76
819.60	3196.88
819.78	3422.16
819.95	3221.45
820.12	3239.89
820.29	3721.16
820.47	3467.21
820.64	3123.15
820.81	3155.92
820.98	3252.17
821.15	3266.51
821.33	3313.61
821.50	3114.96
821.67	3524.55
821.84	3168.21
822.02	3155.92
822.19	3590.09
822.36	3385.29
822.53	3119.06
822.70	3104.72
822.88	3289.04
823.05	3745.73
823.22	3280.85
823.39	3200.98
823.56	3391.44
823.74	3835.85
823.91	2983.89
824.08	3123.15
824.25	3174.35
824.42	3715.02
824.60	3010.51
824.77	3264.46
824.94	3280.85
825.11	3571.66
825.28	3071.95
825.45	3411.92
825.63	3518.41
825.80	3192.78
825.97	3336.14
826.14	3266.51
826.31	3047.38
826.48	3454.92
826.66	3225.55
826.83	3135.44
827.00	3385.29
827.17	3295.18
827.34	3203.02
827.51	3076.05
827.69	3381.20
827.86	3143.63
828.03	3225.55
828.20	3278.80
828.37	3309.52
828.54	3557.32
828.71	3112.91
828.89	3315.66
829.06	3475.40
829.23	3758.02
829.40	3184.59
829.57	3149.78
829.74	3561.42
829.91	3293.13
830.09	3198.93
830.26	3358.67
830.43	3747.78
830.60	3362.76
830.77	3311.57
830.94	3385.29
831.11	3614.66
831.28	3409.87
831.46	3315.66
831.63	3192.78
831.80	3659.72
831.97	3209.17
832.14	3196.88
832.31	3155.92
832.48	3465.16
832.65	3598.28
832.82	3311.57
832.99	3215.31
833.17	3200.98
833.34	3680.20
833.51	3139.54
833.68	2910.16
833.85	3745.73
834.02	3129.30
834.19	3080.14
834.36	3188.69
834.53	3571.66
834.70	3563.47
834.87	3217.36
835.04	2985.94
835.22	3274.70
835.39	3393.48
835.56	2994.13
835.73	3100.62
835.90	3637.19
836.07	3252.17
836.24	3151.82
836.41	3074.00
836.58	3291.09
836.75	3626.95
836.92	3080.14
837.09	2983.89
837.26	3612.62
837.43	3520.46
837.60	3065.81
837.77	3016.66
837.94	3631.05
838.12	3755.97
838.29	2963.41
838.46	2926.55
838.63	3209.17
838.80	3764.17
838.97	3090.38
839.14	2918.36
839.31	3502.03
839.48	3514.31
839.65	3084.24
839.82	3092.43
839.99	3510.22
840.16	3456.97
840.33	2947.03
840.50	2987.99
840.67	3307.47
840.84	2879.44
841.01	2955.22
841.18	2998.23
841.35	3397.58
841.52	3583.95
841.69	3379.15
841.86	3020.75
842.03	3426.25
842.20	3653.58
842.37	3004.37
842.54	2967.51
842.71	3377.10
842.88	3051.47
843.05	2949.08
843.22	3086.29
843.39	3577.80
843.56	3313.61
843.73	2877.40
843.90	3092.43
844.07	3401.68
844.24	3633.10
844.41	3102.67
844.58	3053.52
844.75	3440.59
844.92	3471.31
845.09	3057.62
845.26	2985.94
845.43	3549.13
845.60	3303.37
845.77	3141.58
845.94	3155.92
846.10	3569.61
846.27	3137.49
846.44	2881.49
846.61	2897.88
846.78	3516.36
846.95	3659.72
847.12	2947.03
847.29	3026.90
847.46	3258.32
847.63	3684.30
847.80	2936.79
847.97	3026.90
848.14	3995.59
848.31	3395.53
848.48	2871.25
848.65	2944.98
848.82	3291.09
848.98	3993.54
849.15	3182.54
849.32	3065.81
849.49	3633.10
849.66	3397.58
849.83	3045.33
850.00	2934.74
850.17	3534.79
850.34	3364.81
850.51	2967.51
850.68	2971.60
850.85	3934.15
851.01	3487.69
851.18	2942.93
851.35	3139.54
851.52	3483.59
851.69	3745.73
851.86	3018.71
852.03	2955.22
852.20	3561.42
852.37	3385.29
852.53	2865.11
852.70	2938.84
852.87	3524.55
853.04	3573.71
853.21	3069.91
853.38	3377.10
853.55	3778.50
853.72	3688.39
853.89	2879.44
854.05	2951.12
854.22	3493.83
854.39	3311.57
854.56	2979.79
854.73	3131.34
854.90	3256.27
855.07	3424.20
855.23	2959.31
855.40	3024.85
855.57	3344.33
855.74	2885.59
855.91	3186.64
856.08	2838.48
856.25	3147.73
856.41	3274.70
856.58	3063.76
856.75	3004.37
856.92	3262.41
857.09	3680.20
857.26	2758.61
857.42	3108.82
857.59	3549.13
857.76	3362.76
857.93	2981.84
858.10	3074.00
858.27	3239.89
858.43	3479.50
858.60	3045.33
858.77	2965.46
858.94	3254.22
859.11	3614.66
859.27	3125.20
859.44	2975.70
859.61	3907.52
859.78	3581.90
859.95	3074.00
860.12	2938.84
860.28	3885.00
860.45	3885.00
860.62	3004.37
860.79	3059.67
860.95	3375.05
861.12	3207.12
861.29	2908.12
861.46	3012.56
861.63	3370.96
861.79	3479.50
861.96	2848.72
862.13	3030.99
862.30	3698.63
862.47	3256.27
862.63	2949.08
862.80	3157.97
862.97	3639.24
863.14	3530.70
863.30	3037.14
863.47	2871.25
863.64	3692.49
863.81	3481.55
863.97	2797.53
864.14	3026.90
864.31	3362.76
864.48	3362.76
864.65	3065.81
864.81	3137.49
864.98	3659.72
865.15	3651.53
865.32	3045.33
865.48	3114.96
865.65	3772.36
865.82	3291.09
865.98	3174.35
866.15	3098.58
866.32	3360.72
866.49	3370.96
866.65	3149.78
866.82	3096.53
866.99	3418.06
867.16	3373.00
867.32	3035.09
867.49	2973.65
867.66	3387.34
867.83	3332.05
867.99	2891.73
868.16	3051.47
868.33	3164.11
868.49	3430.35
868.66	3035.09
868.83	3164.11
868.99	3403.72
869.16	3512.27
869.33	3170.26
869.50	3059.67
869.66	3514.31
869.83	3416.01
870.00	2957.27
870.16	3192.78
870.33	3475.40
870.50	3653.58
870.66	3139.54
870.83	3026.90
871.00	3342.28
871.17	3510.22
871.33	3059.67
871.50	2953.17
871.67	3459.02
871.83	3332.05
872.00	3047.38
872.17	3030.99
872.33	3907.52
872.50	3667.91
872.67	3016.66
872.83	2969.55
873.00	3395.53
873.17	3391.44
873.33	3041.23
873.50	3135.44
873.67	3270.61
873.83	3338.19
874.00	3037.14
874.16	3266.51
874.33	3452.88
874.50	3180.50
874.66	3016.66
874.83	3180.50
875.00	3651.53
875.16	3647.43
875.33	3143.63
875.50	2789.33
875.66	3317.71
875.83	3491.79
875.99	3176.40
876.16	3235.79
876.33	3176.40
876.49	3280.85
876.66	3071.95
876.83	3092.43
876.99	3082.19
877.16	3383.24
877.32	2967.51
877.49	3033.04
877.66	3516.36
877.82	3848.13
877.99	3092.43
878.15	3344.33
878.32	3551.18
878.49	3467.21
878.65	3074.00
878.82	3344.33
878.98	3352.52
879.15	3665.86
879.32	3174.35
879.48	3352.52
879.65	3444.68
879.81	3409.87
879.98	3086.29
880.15	3106.77
880.31	3624.90
880.48	3123.15
880.64	3157.97
880.81	3196.88
880.97	3768.26
881.14	3696.58
881.31	3004.37
881.47	3254.22
881.64	3436.49
881.80	3065.81
881.97	3274.70
882.13	3033.04
882.30	3176.40
882.47	3317.71
882.63	3010.51
882.80	2940.88
882.96	3395.53
883.13	3571.66
883.29	3030.99
883.46	2981.84
883.62	3866.56
883.79	3471.31
883.95	3223.50
884.12	3047.38
884.29	3663.82
884.45	3479.50
884.62	2992.08
884.78	3016.66
884.95	3796.93
885.11	3190.74
885.28	3133.39
885.44	3106.77
885.61	3604.42
885.77	3616.71
885.94	3166.16
886.10	3074.00
886.27	3493.83
886.43	3942.34
886.60	3182.54
886.76	3067.86
886.93	3180.50
887.09	3530.70
887.26	2947.03
887.42	3086.29
887.59	3661.77
887.75	3899.33
887.92	3160.02
888.08	3155.92
888.25	3846.09
888.41	3626.95
888.58	3119.06
888.74	2961.36
888.91	3389.39
>>>>>End Processed Spectral Data<<<<<
