SpectraSuite Data File
++++++++++++++++++++++++++++++++++++
Date: Fri May 06 09:28:42 CEST 2016
User: root
Dark Spectrum Present: No
Reference Spectrum Present: No
Number of Sampled Component Spectra: 1
Spectrometers: USB4C02835
Integration Time (usec): 100000 (USB4C02835)
Spectra Averaged: 1 (USB4C02835)
Boxcar Smoothing: 0 (USB4C02835)
Correct for Electrical Dark: No (USB4C02835)
Strobe/Lamp Enabled: No (USB4C02835)
Correct for Detector Non-linearity: No (USB4C02835)
Correct for Stray Light: No (USB4C02835)
Number of Pixels in Processed Spectrum: 3648
>>>>>Begin Processed Spectral Data<<<<<
177.47	2312.16
177.69	2312.16
177.91	2312.16
178.13	2287.58
178.36	2385.88
178.58	3137.49
178.80	3246.03
179.02	3157.97
179.24	3205.07
179.46	2889.68
179.68	2938.84
179.90	3387.34
180.13	3467.21
180.35	2705.37
180.57	2928.60
180.79	3602.38
181.01	3461.07
181.23	2998.23
181.45	3110.86
181.67	3585.99
181.90	3698.63
182.12	3059.67
182.34	2901.97
182.56	3563.47
182.78	3510.22
183.00	2914.26
183.22	2996.18
183.44	3074.00
183.66	4102.08
183.89	3125.20
184.11	2996.18
184.33	3639.24
184.55	3663.82
184.77	2848.72
184.99	2904.02
185.21	3348.43
185.43	4036.55
185.65	2918.36
185.87	2920.40
186.10	3979.20
186.32	3950.53
186.54	3117.01
186.76	3061.71
186.98	3688.39
187.20	3475.40
187.42	2985.94
187.64	2936.79
187.86	3545.03
188.08	3729.35
188.30	2869.20
188.52	3010.51
188.75	3710.92
188.97	3788.74
189.19	3024.85
189.41	2867.16
189.63	3563.47
189.85	3403.72
190.07	2824.15
190.29	2805.72
190.51	3495.88
190.73	3123.15
190.95	3030.99
191.17	2955.22
191.39	3129.30
191.61	3307.47
191.84	2990.03
192.06	3162.06
192.28	3071.95
192.50	4210.62
192.72	3059.67
192.94	3084.24
193.16	3774.41
193.38	3536.84
193.60	2893.78
193.82	3151.82
194.04	3624.90
194.26	3573.71
194.48	2990.03
194.70	2987.99
194.92	3334.09
195.14	3579.85
195.36	2869.20
195.58	3055.57
195.80	3452.88
196.02	3327.95
196.24	2975.70
196.46	3049.43
196.69	3346.38
196.91	4024.26
197.13	2869.20
197.35	3024.85
197.57	3782.60
197.79	3565.51
198.01	3065.81
198.23	2983.89
198.45	3631.05
198.67	3221.45
198.89	2721.75
199.11	3108.82
199.33	3256.27
199.55	3024.85
199.77	2889.68
199.99	3098.58
200.21	3346.38
200.43	3575.75
200.65	2787.29
200.87	2854.87
201.09	3432.40
201.31	3428.30
201.53	2975.70
201.75	3012.56
201.97	3606.47
202.19	3538.89
202.41	3051.47
202.63	3033.04
202.85	3530.70
203.07	3454.92
203.29	3057.62
203.51	2906.07
203.73	3336.14
203.95	3958.72
204.17	2873.30
204.39	3168.21
204.61	3467.21
204.83	3315.66
205.05	3098.58
205.27	2947.03
205.49	3915.72
205.71	3442.64
205.93	2861.01
206.15	2713.56
206.37	3569.61
206.59	3409.87
206.81	2803.67
207.03	2830.29
207.25	3270.61
207.47	3620.81
207.69	2996.18
207.91	3205.07
208.13	3880.90
208.34	3321.81
208.56	2914.26
208.78	2934.74
209.00	3330.00
209.22	3362.76
209.44	3033.04
209.66	2873.30
209.88	3506.12
210.10	3352.52
210.32	2975.70
210.54	3065.81
210.76	3401.68
210.98	3575.75
211.20	2795.48
211.42	3022.80
211.64	3725.26
211.86	3657.67
212.08	3061.71
212.30	2944.98
212.52	3469.26
212.74	3633.10
212.96	3045.33
213.17	3094.48
213.39	3573.71
213.61	3885.00
213.83	2904.02
214.05	2836.44
214.27	3639.24
214.49	3264.46
214.71	2854.87
214.93	3069.91
215.15	3436.49
215.37	3667.91
215.59	2842.58
215.81	2979.79
216.03	3837.89
216.24	3401.68
216.46	3010.51
216.68	3053.52
216.90	3577.80
217.12	3655.62
217.34	2914.26
217.56	3174.35
217.78	3823.56
218.00	3573.71
218.22	3059.67
218.44	3059.67
218.66	3555.27
218.87	3788.74
219.09	3071.95
219.31	3051.47
219.53	3571.66
219.75	3336.14
219.97	3051.47
220.19	3080.14
220.41	3442.64
220.63	3796.93
220.85	3037.14
221.06	3002.32
221.28	3688.39
221.50	3557.32
221.72	2959.31
221.94	2936.79
222.16	3434.44
222.38	3682.25
222.60	2985.94
222.82	2975.70
223.03	3659.72
223.25	3141.58
223.47	2971.60
223.69	3250.13
223.91	3573.71
224.13	3473.36
224.35	2809.81
224.57	3174.35
224.78	3624.90
225.00	3246.03
225.22	3069.91
225.44	2895.83
225.66	3618.76
225.88	3299.28
226.10	3155.92
226.32	2992.08
226.53	3831.75
226.75	3336.14
226.97	3098.58
227.19	2975.70
227.41	3325.90
227.63	3379.15
227.85	2705.37
228.06	3065.81
228.28	3456.97
228.50	3624.90
228.72	2887.64
228.94	3037.14
229.16	3080.14
229.37	3223.50
229.59	2955.22
229.81	3168.21
230.03	3264.46
230.25	3166.16
230.47	2836.44
230.69	2990.03
230.90	3647.43
231.12	3297.23
231.34	3151.82
231.56	3065.81
231.78	3291.09
232.00	3389.39
232.21	3065.81
232.43	3057.62
232.65	2965.46
232.87	3483.59
233.09	2836.44
233.30	2932.69
233.52	3723.21
233.74	3483.59
233.96	2930.64
234.18	3207.12
234.40	3461.07
234.61	4048.83
234.83	2869.20
235.05	2938.84
235.27	4009.92
235.49	3631.05
235.70	2809.81
235.92	2992.08
236.14	3672.01
236.36	3993.54
236.58	2897.88
236.79	3104.72
237.01	3467.21
237.23	3416.01
237.45	3157.97
237.67	3061.71
237.88	3538.89
238.10	3885.00
238.32	2922.45
238.54	2836.44
238.76	3416.01
238.97	3258.32
239.19	2873.30
239.41	2996.18
239.63	3635.14
239.85	3393.48
240.06	3069.91
240.28	2934.74
240.50	3659.72
240.72	3452.88
240.93	2836.44
241.15	3018.71
241.37	3389.39
241.59	3672.01
241.81	3055.57
242.02	3074.00
242.24	3565.51
242.46	3510.22
242.68	2838.48
242.89	2828.24
243.11	3633.10
243.33	3432.40
243.55	3004.37
243.76	2987.99
243.98	3229.65
244.20	3375.05
244.42	2957.27
244.64	2879.44
244.85	3151.82
245.07	3192.78
245.29	2914.26
245.51	2996.18
245.72	3518.41
245.94	3641.29
246.16	2926.55
246.38	2955.22
246.59	3403.72
246.81	3284.94
247.03	2830.29
247.24	2740.18
247.46	3407.82
247.68	3450.83
247.90	2893.78
248.11	3012.56
248.33	3538.89
248.55	3397.58
248.77	3063.76
248.98	3030.99
249.20	3776.45
249.42	3532.75
249.64	2938.84
249.85	2869.20
250.07	3409.87
250.29	3674.06
250.50	3014.61
250.72	2922.45
250.94	3598.28
251.16	3862.47
251.37	2873.30
251.59	3024.85
251.81	3545.03
252.02	3772.36
252.24	2883.54
252.46	3074.00
252.68	3301.33
252.89	3303.37
253.11	2791.38
253.33	3149.78
253.54	3866.56
253.76	3178.45
253.98	2996.18
254.20	2912.21
254.41	3157.97
254.63	3348.43
254.85	2779.09
255.06	3125.20
255.28	3514.31
255.50	3426.25
255.71	2904.02
255.93	2766.81
256.15	3323.85
256.36	3557.32
256.58	2869.20
256.80	2873.30
257.02	3383.24
257.23	3315.66
257.45	3035.09
257.67	3117.01
257.88	3340.24
258.10	3448.78
258.32	2949.08
258.53	3059.67
258.75	3798.98
258.97	3284.94
259.18	2863.06
259.40	2891.73
259.62	3839.94
259.83	3825.61
260.05	2983.89
260.27	3925.96
260.48	3698.63
260.70	3246.03
260.92	2836.44
261.13	2969.55
261.35	3418.06
261.57	3540.94
261.78	2852.82
262.00	2846.68
262.22	3610.57
262.43	3262.41
262.65	3012.56
262.86	2987.99
263.08	4059.07
263.30	3530.70
263.51	2772.95
263.73	2983.89
263.95	3776.45
264.16	3223.50
264.38	2832.34
264.60	2840.53
264.81	3450.83
265.03	3721.16
265.25	3426.25
265.46	2889.68
265.68	3751.88
265.89	3592.14
266.11	2828.24
266.33	2973.65
266.54	3721.16
266.76	3487.69
266.98	3104.72
267.19	3164.11
267.41	3661.77
267.62	3467.21
267.84	2738.13
268.06	3033.04
268.27	3514.31
268.49	3805.13
268.70	2994.13
268.92	3010.51
269.14	3289.04
269.35	3160.02
269.57	3110.86
269.79	3010.51
270.00	3319.76
270.22	3766.21
270.43	2842.58
270.65	2785.24
270.87	3446.73
271.08	3663.82
271.30	3041.23
271.51	2975.70
271.73	3684.30
271.95	3835.85
272.16	2875.35
272.38	3139.54
272.59	3338.19
272.81	3571.66
273.02	2926.55
273.24	3057.62
273.46	3684.30
273.67	3192.78
273.89	2781.14
274.10	2951.12
274.32	3729.35
274.54	3581.90
274.75	3024.85
274.97	3102.67
275.18	3583.95
275.40	3565.51
275.61	3082.19
275.83	3100.62
276.05	3149.78
276.26	3332.05
276.48	3041.23
276.69	3123.15
276.91	3282.89
277.12	3821.51
277.34	3104.72
277.55	3231.69
277.77	3418.06
277.99	3327.95
278.20	3121.10
278.42	3008.47
278.63	3282.89
278.85	3221.45
279.06	3030.99
279.28	3274.70
279.49	3712.97
279.71	3569.61
279.93	3117.01
280.14	3119.06
280.36	3344.33
280.57	3715.02
280.79	3143.63
281.00	2965.46
281.22	3338.19
281.43	3710.92
281.65	2877.40
281.86	2979.79
282.08	3583.95
282.29	3930.05
282.51	2973.65
282.73	3043.28
282.94	3129.30
283.16	3661.77
283.37	3182.54
283.59	3125.20
283.80	3585.99
284.02	3418.06
284.23	3188.69
284.45	3225.55
284.66	3278.80
284.88	3278.80
285.09	2979.79
285.31	3250.13
285.52	3561.42
285.74	3084.24
285.95	3327.95
286.17	3182.54
286.38	3712.97
286.60	3278.80
286.81	3080.14
287.03	3090.38
287.24	3428.30
287.46	3461.07
287.67	3309.52
287.89	3289.04
288.10	3504.07
288.32	3495.88
288.53	3299.28
288.75	3143.63
288.96	3659.72
289.18	3364.81
289.39	3043.28
289.61	3137.49
289.82	3893.19
290.04	3913.67
290.25	2928.60
290.47	3145.68
290.68	3401.68
290.90	3686.34
291.11	2844.63
291.33	3200.98
291.54	3352.52
291.76	3323.85
291.97	3278.80
292.18	3213.26
292.40	3395.53
292.61	3274.70
292.83	3434.44
293.04	3119.06
293.26	3557.32
293.47	3403.72
293.69	3065.81
293.90	3061.71
294.12	3753.93
294.33	3459.02
294.55	3125.20
294.76	3284.94
294.97	3809.22
295.19	3950.53
295.40	3074.00
295.62	3139.54
295.83	3647.43
296.05	3217.36
296.26	3321.81
296.48	3139.54
296.69	3319.76
296.90	3473.36
297.12	3217.36
297.33	3198.93
297.55	3540.94
297.76	3479.50
297.98	3198.93
298.19	3364.81
298.41	3434.44
298.62	3272.65
298.83	3393.48
299.05	3250.13
299.26	3434.44
299.48	3330.00
299.69	3102.67
299.90	3071.95
300.12	3282.89
300.33	3573.71
300.55	3104.72
300.76	3254.22
300.98	3192.78
301.19	3577.80
301.40	3139.54
301.62	3028.95
301.83	3626.95
302.05	3368.91
302.26	3026.90
302.47	3262.41
302.69	3237.84
302.90	3477.45
303.12	2969.55
303.33	3233.74
303.54	3966.92
303.76	3311.57
303.97	3080.14
304.19	3231.69
304.40	3313.61
304.61	3518.41
304.83	3198.93
305.04	3127.25
305.26	3700.68
305.47	3352.52
305.68	3155.92
305.90	2947.03
306.11	3831.75
306.33	3385.29
306.54	2955.22
306.75	3067.86
306.97	3149.78
307.18	3194.83
307.39	3151.82
307.61	3205.07
307.82	3391.44
308.04	3526.60
308.25	2938.84
308.46	3215.31
308.68	3438.54
308.89	3428.30
309.10	3209.17
309.32	3123.15
309.53	3448.78
309.74	3526.60
309.96	2981.84
310.17	3114.96
310.39	3422.16
310.60	3610.57
310.81	3088.34
311.03	3014.61
311.24	3555.27
311.45	3463.12
311.67	3348.43
311.88	3278.80
312.09	3342.28
312.31	3401.68
312.52	2992.08
312.73	3000.27
312.95	3180.50
313.16	3205.07
313.37	3260.37
313.59	3221.45
313.80	3618.76
314.01	3846.09
314.23	3057.62
314.44	3049.43
314.65	3100.62
314.87	3237.84
315.08	3112.91
315.29	3186.64
315.51	3330.00
315.72	3106.77
315.93	3164.11
316.15	3076.05
316.36	3286.99
316.57	3491.79
316.79	3145.68
317.00	3084.24
317.21	3672.01
317.43	3289.04
317.64	3133.39
317.85	2959.31
318.07	3301.33
318.28	3362.76
318.49	3192.78
318.70	3299.28
318.92	3446.73
319.13	3473.36
319.34	3282.89
319.56	3063.76
319.77	3506.12
319.98	3561.42
320.20	3407.82
320.41	3303.37
320.62	3614.66
320.83	3153.87
321.05	3237.84
321.26	3129.30
321.47	3475.40
321.69	3755.97
321.90	3071.95
322.11	3045.33
322.32	3612.62
322.54	3747.78
322.75	3184.59
322.96	4200.38
323.18	3125.20
323.39	2990.03
323.60	3010.51
323.81	3198.93
324.03	3362.76
324.24	3383.24
324.45	3233.74
324.66	3047.38
324.88	3796.93
325.09	3796.93
325.30	3125.20
325.52	3008.47
325.73	3581.90
325.94	3233.74
326.15	3010.51
326.37	2967.51
326.58	3672.01
326.79	3827.65
327.00	2975.70
327.22	3125.20
327.43	3411.92
327.64	3280.85
327.85	3293.13
328.07	3112.91
328.28	3889.09
328.49	3405.77
328.70	3227.60
328.92	3039.19
329.13	3389.39
329.34	3516.36
329.55	3342.28
329.76	3270.61
329.98	3305.42
330.19	3655.62
330.40	3184.59
330.61	3149.78
330.83	3606.47
331.04	3231.69
331.25	3227.60
331.46	3217.36
331.68	3207.12
331.89	3651.53
332.10	3219.41
332.31	2987.99
332.52	3348.43
332.74	3663.82
332.95	3069.91
333.16	3110.86
333.37	3637.19
333.58	3258.32
333.80	3121.10
334.01	2889.68
334.22	3491.79
334.43	3168.21
334.64	2963.41
334.86	3057.62
335.07	3258.32
335.28	3710.92
335.49	3000.27
335.70	3172.30
335.92	3649.48
336.13	3962.82
336.34	3127.25
336.55	3057.62
336.76	3483.59
336.98	2973.65
337.19	3094.48
337.40	3149.78
337.61	3968.96
337.82	3368.91
338.04	3196.88
338.25	2979.79
338.46	3407.82
338.67	3381.20
338.88	3045.33
339.09	3008.47
339.31	3332.05
339.52	3278.80
339.73	3104.72
339.94	3129.30
340.15	3540.94
340.36	3356.62
340.58	3145.68
340.79	3049.43
341.00	3512.27
341.21	3174.35
341.42	3319.76
341.63	3035.09
341.85	3620.81
342.06	3577.80
342.27	3057.62
342.48	3280.85
342.69	3237.84
342.90	3602.38
343.12	3581.90
343.33	3065.81
343.54	3667.91
343.75	3758.02
343.96	3229.65
344.17	3043.28
344.38	3401.68
344.60	3264.46
344.81	3049.43
345.02	3065.81
345.23	3622.86
345.44	4046.79
345.65	3194.83
345.86	3102.67
346.07	3477.45
346.29	3327.95
346.50	3235.79
346.71	3119.06
346.92	3710.92
347.13	3917.76
347.34	3250.13
347.55	3004.37
347.76	3561.42
347.98	3215.31
348.19	3123.15
348.40	3237.84
348.61	3401.68
348.82	3770.31
349.03	3094.48
349.24	2979.79
349.45	3807.17
349.66	3016.66
349.88	3102.67
350.09	3094.48
350.30	3823.56
350.51	3620.81
350.72	3264.46
350.93	3094.48
351.14	3391.44
351.35	3557.32
351.56	3123.15
351.77	3139.54
351.99	3536.84
352.20	3676.10
352.41	3172.30
352.62	2904.02
352.83	3348.43
353.04	3377.10
353.25	3147.73
353.46	3151.82
353.67	3643.34
353.88	3033.04
354.09	3014.61
354.30	3092.43
354.52	3598.28
354.73	3348.43
354.94	3078.10
355.15	3209.17
355.36	3860.42
355.57	3393.48
355.78	3080.14
355.99	3037.14
356.20	3379.15
356.41	3817.41
356.62	3205.07
356.83	3198.93
357.04	3626.95
357.25	3123.15
357.46	3051.47
357.68	2985.94
357.89	3246.03
358.10	3524.55
358.31	3098.58
358.52	3094.48
358.73	3209.17
358.94	3254.22
359.15	3117.01
359.36	3127.25
359.57	3459.02
359.78	3364.81
359.99	3282.89
360.20	2996.18
360.41	3399.63
360.62	3631.05
360.83	3176.40
361.04	3074.00
361.25	3594.19
361.46	3708.87
361.67	3215.31
361.88	3094.48
362.09	3696.58
362.30	3596.23
362.51	3030.99
362.72	3131.34
362.93	3669.96
363.14	3631.05
363.35	3229.65
363.56	3090.38
363.78	3749.83
363.99	3690.44
364.20	3082.19
364.41	3180.50
364.62	3878.85
364.83	3493.83
365.04	3125.20
365.25	3254.22
365.46	3876.80
365.67	3278.80
365.88	3301.33
366.09	3119.06
366.30	3368.91
366.51	3432.40
366.72	3016.66
366.93	3143.63
367.14	3497.93
367.35	3803.08
367.56	3104.72
367.77	3239.89
367.98	3428.30
368.18	3547.08
368.39	3264.46
368.60	3090.38
368.81	3594.19
369.02	3524.55
369.23	3117.01
369.44	3016.66
369.65	3459.02
369.86	3573.71
370.07	3178.45
370.28	2977.75
370.49	3547.08
370.70	3473.36
370.91	2975.70
371.12	2947.03
371.33	3618.76
371.54	3379.15
371.75	3225.55
371.96	2828.24
372.17	3438.54
372.38	3325.90
372.59	3188.69
372.80	3090.38
373.01	3344.33
373.22	3469.26
373.43	3112.91
373.64	2940.88
373.85	3762.12
374.06	3835.85
374.26	3184.59
374.47	3186.64
374.68	3846.09
374.89	3483.59
375.10	3014.61
375.31	3200.98
375.52	3516.36
375.73	3471.31
375.94	2926.55
376.15	3198.93
376.36	3321.81
376.57	3362.76
376.78	3151.82
376.99	3157.97
377.20	3712.97
377.40	3360.72
377.61	3358.67
377.82	3178.45
378.03	3721.16
378.24	3610.57
378.45	3123.15
378.66	3203.02
378.87	3114.96
379.08	3065.81
379.29	3104.72
379.50	3248.08
379.71	3448.78
379.91	3614.66
380.12	3145.68
380.33	3155.92
380.54	3510.22
380.75	3411.92
380.96	3133.39
381.17	3182.54
381.38	3399.63
381.59	3485.64
381.80	3223.50
382.00	3323.85
382.21	3405.77
382.42	3737.54
382.63	3456.97
382.84	3286.99
383.05	3590.09
383.26	3741.64
383.47	3327.95
383.68	3065.81
383.88	3547.08
384.09	3512.27
384.30	3373.00
384.51	3340.24
384.72	3364.81
384.93	3203.02
385.14	3241.93
385.35	3389.39
385.55	3053.52
385.76	3805.13
385.97	3121.10
386.18	2951.12
386.39	3289.04
386.60	3237.84
386.81	3065.81
387.02	3000.27
387.22	3162.06
387.43	3571.66
387.64	3237.84
387.85	3422.16
388.06	3477.45
388.27	4433.85
388.48	7184.27
388.68	10719.07
388.89	13582.13
389.10	14774.05
389.31	14413.60
389.52	11663.18
389.73	10000.23
389.93	9441.14
390.14	8460.16
390.35	7884.68
390.56	7524.24
390.77	6326.18
390.98	4599.74
391.18	4128.70
391.39	3952.58
391.60	3497.93
391.81	3430.35
392.02	3250.13
392.23	3946.44
392.43	3530.70
392.64	3248.08
392.85	3282.89
393.06	3749.83
393.27	3479.50
393.47	3114.96
393.68	3157.97
393.89	3430.35
394.10	3755.97
394.31	3110.86
394.52	3086.29
394.72	3350.48
394.93	3751.88
395.14	3033.04
395.35	3233.74
395.56	3327.95
395.76	3426.25
395.97	3000.27
396.18	3299.28
396.39	3395.53
396.60	4067.27
396.80	3510.22
397.01	3297.23
397.22	3557.32
397.43	3590.09
397.64	3160.02
397.84	3135.44
398.05	3866.56
398.26	3387.34
398.47	3217.36
398.67	3338.19
398.88	3428.30
399.09	3581.90
399.30	3090.38
399.51	3123.15
399.71	3246.03
399.92	3346.38
400.13	3225.55
400.34	3117.01
400.54	3463.12
400.75	3776.45
400.96	3176.40
401.17	3450.83
401.37	3549.13
401.58	3411.92
401.79	3080.14
402.00	3313.61
402.21	3917.76
402.41	3518.41
402.62	3387.34
402.83	3508.17
403.04	3792.84
403.24	4200.38
403.45	3227.60
403.66	3485.64
403.87	3733.45
404.07	3913.67
404.28	3418.06
404.49	3405.77
404.70	3612.62
404.90	3594.19
405.11	3160.02
405.32	3278.80
405.52	3311.57
405.73	3299.28
405.94	3076.05
406.15	3196.88
406.35	3680.20
406.56	3606.47
406.77	3143.63
406.98	3123.15
407.18	3338.19
407.39	3829.70
407.60	3215.31
407.80	3258.32
408.01	3432.40
408.22	3575.75
408.43	3014.61
408.63	3262.41
408.84	3676.10
409.05	3600.33
409.25	3114.96
409.46	3139.54
409.67	3409.87
409.88	3334.09
410.08	3166.16
410.29	3157.97
410.50	3694.54
410.70	3489.74
410.91	3100.62
411.12	3149.78
411.32	3442.64
411.53	3235.79
411.74	3127.25
411.95	3235.79
412.15	3459.02
412.36	3573.71
412.57	3270.61
412.77	3373.00
412.98	3352.52
413.19	3434.44
413.39	3229.65
413.60	3217.36
413.81	3741.64
414.01	3262.41
414.22	3205.07
414.43	3364.81
414.63	3344.33
414.84	3614.66
415.05	3168.21
415.25	3002.32
415.46	3610.57
415.67	3319.76
415.87	3188.69
416.08	3035.09
416.29	3311.57
416.49	3551.18
416.70	3172.30
416.91	3196.88
417.11	3399.63
417.32	3643.34
417.53	3215.31
417.73	3231.69
417.94	3389.39
418.15	3516.36
418.35	3192.78
418.56	3155.92
418.77	3960.77
418.97	3569.61
419.18	3297.23
419.38	2887.64
419.59	3448.78
419.80	3874.76
420.00	3063.76
420.21	3182.54
420.42	3745.73
420.62	3442.64
420.83	3153.87
421.04	3123.15
421.24	3473.36
421.45	3585.99
421.65	3080.14
421.86	3133.39
422.07	3733.45
422.27	3612.62
422.48	3133.39
422.69	2879.44
422.89	3504.07
423.10	3426.25
423.30	3119.06
423.51	3203.02
423.72	3530.70
423.92	3581.90
424.13	3010.51
424.33	3188.69
424.54	3692.49
424.75	3467.21
424.95	3362.76
425.16	3127.25
425.36	3358.67
425.57	3706.82
425.78	3297.23
425.98	3289.04
426.19	3323.85
426.39	3280.85
426.60	3223.50
426.81	3258.32
427.01	3555.27
427.22	3229.65
427.42	2977.75
427.63	3180.50
427.83	3608.52
428.04	3794.89
428.25	3205.07
428.45	3278.80
428.66	3719.11
428.86	3338.19
429.07	3149.78
429.28	3229.65
429.48	3479.50
429.69	3256.27
429.89	3192.78
430.10	3108.82
430.30	3602.38
430.51	3702.73
430.71	3139.54
430.92	3231.69
431.13	3291.09
431.33	3575.75
431.54	3186.64
431.74	3436.49
431.95	3968.96
432.15	3250.13
432.36	3190.74
432.56	3200.98
432.77	3901.38
432.98	3844.04
433.18	3209.17
433.39	2971.60
433.59	3362.76
433.80	4024.26
434.00	3403.72
434.21	3143.63
434.41	3299.28
434.62	3909.57
434.82	3067.86
435.03	3123.15
435.23	3481.55
435.44	3117.01
435.64	3137.49
435.85	3160.02
436.06	3712.97
436.26	3723.21
436.47	3139.54
436.67	3119.06
436.88	3405.77
437.08	3680.20
437.29	3332.05
437.49	3340.24
437.70	3712.97
437.90	3459.02
438.11	3393.48
438.31	3344.33
438.52	3715.02
438.72	3647.43
438.93	3463.12
439.13	3241.93
439.34	3608.52
439.54	3344.33
439.75	3262.41
439.95	3258.32
440.16	3313.61
440.36	3434.44
440.57	3168.21
440.77	3110.86
440.98	3313.61
441.18	3559.37
441.39	3024.85
441.59	3002.32
441.80	3901.38
442.00	3426.25
442.21	3207.12
442.41	2983.89
442.62	3635.14
442.82	3313.61
443.02	3151.82
443.23	3164.11
443.43	3272.65
443.64	3755.97
443.84	3045.33
444.05	3237.84
444.25	3467.21
444.46	3344.33
444.66	3139.54
444.87	3469.26
445.07	3108.82
445.28	3366.86
445.48	3321.81
445.69	3155.92
445.89	3987.40
446.09	3426.25
446.30	3467.21
446.50	3504.07
446.71	5050.29
446.91	6178.72
447.12	6719.39
447.32	7217.04
447.53	7253.91
447.73	6223.78
447.93	5353.39
448.14	5140.40
448.34	5334.96
448.55	4558.78
448.75	4327.36
448.96	4108.23
449.16	4110.27
449.36	4050.88
449.57	3387.34
449.77	3231.69
449.98	3362.76
450.18	3551.18
450.39	3127.25
450.59	3454.92
450.79	3465.16
451.00	3280.85
451.20	3364.81
451.41	3209.17
451.61	3512.27
451.81	3411.92
452.02	3086.29
452.22	3127.25
452.43	3352.52
452.63	3311.57
452.84	3250.13
453.04	3114.96
453.24	3461.07
453.45	3221.45
453.65	3221.45
453.86	3190.74
454.06	3489.74
454.26	3336.14
454.47	3143.63
454.67	3397.58
454.87	3583.95
455.08	3450.83
455.28	3332.05
455.49	3313.61
455.69	3176.40
455.89	3876.80
456.10	3295.18
456.30	3078.10
456.51	3643.34
456.71	3418.06
456.91	3352.52
457.12	3133.39
457.32	3598.28
457.52	3209.17
457.73	3346.38
457.93	3377.10
458.14	3360.72
458.34	3016.66
458.54	3153.87
458.75	3174.35
458.95	3633.10
459.15	3553.23
459.36	3229.65
459.56	3155.92
459.76	3938.24
459.97	3499.98
460.17	3108.82
460.37	3174.35
460.58	3504.07
460.78	3596.23
460.99	3237.84
461.19	3166.16
461.39	3241.93
461.60	3319.76
461.80	3186.64
462.00	3016.66
462.21	3416.01
462.41	3246.03
462.61	3043.28
462.82	2906.07
463.02	3631.05
463.22	3381.20
463.43	3215.31
463.63	3084.24
463.83	3602.38
464.04	3524.55
464.24	3166.16
464.44	3106.77
464.64	3559.37
464.85	3559.37
465.05	3153.87
465.25	3074.00
465.46	3315.66
465.66	3608.52
465.86	3264.46
466.07	3059.67
466.27	3373.00
466.47	3084.24
466.68	3045.33
466.88	3223.50
467.08	3567.56
467.29	3657.67
467.49	3239.89
467.69	3289.04
467.89	3557.32
468.10	3377.10
468.30	3250.13
468.50	3295.18
468.71	3637.19
468.91	3123.15
469.11	3358.67
469.31	3221.45
469.52	3172.30
469.72	3788.74
469.92	3465.16
470.13	3198.93
470.33	3385.29
470.53	3483.59
470.73	3559.37
470.94	3708.87
471.14	3897.28
471.34	4579.26
471.54	4124.61
471.75	3837.89
471.95	3686.34
472.15	3772.36
472.36	3692.49
472.56	3520.46
472.76	3964.87
472.96	3831.75
473.17	3303.37
473.37	3301.33
473.57	3356.62
473.77	3557.32
473.98	3428.30
474.18	3016.66
474.38	4061.12
474.58	3432.40
474.79	3033.04
474.99	3325.90
475.19	3684.30
475.39	3246.03
475.60	3233.74
475.80	3184.59
476.00	3499.98
476.20	3413.96
476.41	3262.41
476.61	3190.74
476.81	3678.15
477.01	3282.89
477.21	3510.22
477.42	3229.65
477.62	3362.76
477.82	3624.90
478.02	3143.63
478.23	3172.30
478.43	3223.50
478.63	3379.15
478.83	3219.41
479.03	3246.03
479.24	3659.72
479.44	3901.38
479.64	3112.91
479.84	2967.51
480.04	3282.89
480.25	3602.38
480.45	3069.91
480.65	3030.99
480.85	3839.94
481.06	3327.95
481.26	3323.85
481.46	3125.20
481.66	3551.18
481.86	3198.93
482.06	3346.38
482.27	3198.93
482.47	3495.88
482.67	3567.56
482.87	3233.74
483.07	3203.02
483.28	3370.96
483.48	3266.51
483.68	3176.40
483.88	3106.77
484.08	2983.89
484.29	3250.13
484.49	3223.50
484.69	3018.71
484.89	3786.69
485.09	3567.56
485.29	3178.45
485.50	3348.43
485.70	3284.94
485.90	3694.54
486.10	3401.68
486.30	3129.30
486.50	3782.60
486.71	3594.19
486.91	3246.03
487.11	3227.60
487.31	3213.26
487.51	3557.32
487.71	3153.87
487.91	3098.58
488.12	3319.76
488.32	2940.88
488.52	3147.73
488.72	2992.08
488.92	3508.17
489.12	3721.16
489.32	3243.98
489.53	3149.78
489.73	3135.44
489.93	3827.65
490.13	3147.73
490.33	3002.32
490.53	3383.24
490.73	3762.12
490.94	3065.81
491.14	3243.98
491.34	3618.76
491.54	3563.47
491.74	4067.27
491.94	4442.04
492.14	5050.29
492.34	5191.60
492.54	4679.61
492.75	4136.90
492.95	4466.62
493.15	4179.90
493.35	3854.28
493.55	3786.69
493.75	3762.12
493.95	4014.02
494.15	3325.90
494.35	3289.04
494.56	3485.64
494.76	3342.28
494.96	3364.81
495.16	3033.04
495.36	3422.16
495.56	3493.83
495.76	3186.64
495.96	3143.63
496.16	3229.65
496.36	3809.22
496.56	3108.82
496.77	3311.57
496.97	3411.92
497.17	3702.73
497.37	2981.84
497.57	3286.99
497.77	3502.03
497.97	3260.37
498.17	3198.93
498.37	3119.06
498.57	3579.85
498.77	3321.81
498.97	3364.81
499.17	3551.18
499.38	3381.20
499.58	3553.23
499.78	3379.15
499.98	3289.04
500.18	3395.53
500.38	3282.89
500.58	3368.91
500.78	3616.71
500.98	6131.62
501.18	7825.29
501.38	9062.26
501.58	9922.41
501.78	9942.89
501.98	8267.65
502.18	7165.84
502.38	6137.76
502.58	6367.13
502.78	5535.66
502.98	5250.99
503.18	5085.11
503.38	4851.64
503.59	4253.63
503.79	4057.03
503.99	3706.82
504.19	3958.72
504.39	3901.38
504.59	3639.24
504.79	3532.75
504.99	4034.50
505.19	3559.37
505.39	3344.33
505.59	3426.25
505.79	3774.41
505.99	3612.62
506.19	3172.30
506.39	3323.85
506.59	3254.22
506.79	3309.52
506.99	3418.06
507.19	3090.38
507.39	3487.69
507.59	3043.28
507.79	3135.44
507.99	3114.96
508.19	3411.92
508.39	3291.09
508.59	3139.54
508.79	3215.31
508.99	3837.89
509.19	3258.32
509.39	3262.41
509.59	3063.76
509.79	3246.03
509.99	3448.78
510.19	3286.99
510.39	3250.13
510.59	3479.50
510.79	3368.91
510.99	3008.47
511.19	3176.40
511.39	3772.36
511.59	3723.21
511.79	3336.14
511.99	3141.58
512.19	3874.76
512.38	3434.44
512.58	3080.14
512.78	3063.76
512.98	3659.72
513.18	3772.36
513.38	3028.95
513.58	3256.27
513.78	3442.64
513.98	3426.25
514.18	3215.31
514.38	3119.06
514.58	3608.52
514.78	3278.80
514.98	3067.86
515.18	3231.69
515.38	3168.21
515.58	3876.80
515.78	3114.96
515.98	3155.92
516.18	3655.62
516.38	3444.68
516.57	3166.16
516.77	3127.25
516.97	3618.76
517.17	3336.14
517.37	3065.81
517.57	3182.54
517.77	3401.68
517.97	3243.98
518.17	3196.88
518.37	3035.09
518.57	3295.18
518.77	3348.43
518.97	3188.69
519.16	3182.54
519.36	3538.89
519.56	3319.76
519.76	3078.10
519.96	3129.30
520.16	3792.84
520.36	3225.55
520.56	3323.85
520.76	3033.04
520.96	3319.76
521.16	3620.81
521.35	3391.44
521.55	3260.37
521.75	3350.48
521.95	3360.72
522.15	3219.41
522.35	3020.75
522.55	3209.17
522.75	3542.99
522.95	3016.66
523.14	2961.36
523.34	3405.77
523.54	3344.33
523.74	3327.95
523.94	3219.41
524.14	3057.62
524.34	3538.89
524.54	3368.91
524.73	3151.82
524.93	3594.19
525.13	3463.12
525.33	3053.52
525.53	3420.11
525.73	3547.08
525.93	3495.88
526.13	3233.74
526.32	3114.96
526.52	3610.57
526.72	3557.32
526.92	3278.80
527.12	3049.43
527.32	3157.97
527.52	3512.27
527.71	3198.93
527.91	3223.50
528.11	3286.99
528.31	3485.64
528.51	3100.62
528.71	3307.47
528.90	3620.81
529.10	3663.82
529.30	3258.32
529.50	2947.03
529.70	3571.66
529.90	3311.57
530.09	3172.30
530.29	2963.41
530.49	3278.80
530.69	4065.22
530.89	3342.28
531.09	3303.37
531.28	3254.22
531.48	3766.21
531.68	3143.63
531.88	3069.91
532.08	3569.61
532.28	3368.91
532.47	3229.65
532.67	3225.55
532.87	3573.71
533.07	3182.54
533.27	3147.73
533.46	3117.01
533.66	3456.97
533.86	3401.68
534.06	3239.89
534.26	3098.58
534.45	3289.04
534.65	3667.91
534.85	3301.33
535.05	3166.16
535.25	3610.57
535.44	3065.81
535.64	3311.57
535.84	3180.50
536.04	3354.57
536.24	3280.85
536.43	3096.53
536.63	3119.06
536.83	3469.26
537.03	3368.91
537.22	2961.36
537.42	2979.79
537.62	3502.03
537.82	3254.22
538.02	3356.62
538.21	3160.02
538.41	4120.51
538.61	3477.45
538.81	3307.47
539.00	3301.33
539.20	3076.05
539.40	3319.76
539.60	3164.11
539.79	3356.62
539.99	3428.30
540.19	3266.51
540.39	3035.09
540.58	3258.32
540.78	3684.30
540.98	3418.06
541.18	3416.01
541.37	3209.17
541.57	3477.45
541.77	3635.14
541.97	3121.10
542.16	3014.61
542.36	3362.76
542.56	3590.09
542.76	3348.43
542.95	3172.30
543.15	3536.84
543.35	3598.28
543.54	3082.19
543.74	3016.66
543.94	3725.26
544.14	3256.27
544.33	3377.10
544.53	3149.78
544.73	3463.12
544.93	3385.29
545.12	3143.63
545.32	3237.84
545.52	3362.76
545.71	3203.02
545.91	3188.69
546.11	3110.86
546.30	3250.13
546.50	3411.92
546.70	3266.51
546.90	3194.83
547.09	3049.43
547.29	3485.64
547.49	3286.99
547.68	3114.96
547.88	3338.19
548.08	3508.17
548.27	3446.73
548.47	3164.11
548.67	3315.66
548.87	3459.02
549.06	3117.01
549.26	3014.61
549.46	3588.04
549.65	3260.37
549.85	3168.21
550.05	3196.88
550.24	3186.64
550.44	3450.83
550.64	3291.09
550.83	3254.22
551.03	3801.03
551.23	3467.21
551.42	3260.37
551.62	3319.76
551.82	3479.50
552.01	3348.43
552.21	3426.25
552.41	3196.88
552.60	3690.44
552.80	3418.06
553.00	3155.92
553.19	3145.68
553.39	3860.42
553.59	3176.40
553.78	3286.99
553.98	3133.39
554.17	3176.40
554.37	3522.51
554.57	3241.93
554.76	3033.04
554.96	3348.43
555.16	3467.21
555.35	3256.27
555.55	3356.62
555.75	3454.92
555.94	3649.48
556.14	2992.08
556.33	3178.45
556.53	3422.16
556.73	3358.67
556.92	3151.82
557.12	3074.00
557.32	3966.92
557.51	3739.59
557.71	3219.41
557.90	3387.34
558.10	3813.32
558.30	3268.56
558.49	3248.08
558.69	3153.87
558.88	3520.46
559.08	3491.79
559.28	3196.88
559.47	3205.07
559.67	3528.65
559.86	3803.08
560.06	3141.58
560.26	3248.08
560.45	3532.75
560.65	3377.10
560.84	3387.34
561.04	3055.57
561.24	3610.57
561.43	3164.11
561.63	3385.29
561.82	3317.71
562.02	3573.71
562.22	3229.65
562.41	3078.10
562.61	3123.15
562.80	3207.12
563.00	3958.72
563.19	3282.89
563.39	3233.74
563.59	3532.75
563.78	3221.45
563.98	2963.41
564.17	3194.83
564.37	3074.00
564.56	3467.21
564.76	3041.23
564.96	3229.65
565.15	3516.36
565.35	3915.72
565.54	3184.59
565.74	3203.02
565.93	3641.29
566.13	3499.98
566.32	3237.84
566.52	3319.76
566.71	3506.12
566.91	3674.06
567.11	3313.61
567.30	3024.85
567.50	3467.21
567.69	3516.36
567.89	3069.91
568.08	3010.51
568.28	3483.59
568.47	3229.65
568.67	3233.74
568.86	3205.07
569.06	3608.52
569.25	3305.42
569.45	3012.56
569.64	3200.98
569.84	3413.96
570.04	3522.51
570.23	3254.22
570.43	3241.93
570.62	3424.20
570.82	3866.56
571.01	3133.39
571.21	3117.01
571.40	3250.13
571.60	3579.85
571.79	3241.93
571.99	3102.67
572.18	3143.63
572.38	3506.12
572.57	3254.22
572.77	3205.07
572.96	4050.88
573.16	3524.55
573.35	3162.06
573.55	3370.96
573.74	3508.17
573.94	3364.81
574.13	3155.92
574.33	3311.57
574.52	3725.26
574.71	3467.21
574.91	3192.78
575.10	3078.10
575.30	3364.81
575.49	3135.44
575.69	3074.00
575.88	3117.01
576.08	3362.76
576.27	3604.42
576.47	3117.01
576.66	3409.87
576.86	3727.30
577.05	3485.64
577.25	3278.80
577.44	3366.86
577.64	3350.48
577.83	3618.76
578.02	3088.34
578.22	3354.57
578.41	3831.75
578.61	3325.90
578.80	2983.89
579.00	3219.41
579.19	3321.81
579.39	3542.99
579.58	3192.78
579.77	3303.37
579.97	3751.88
580.16	3626.95
580.36	3377.10
580.55	3254.22
580.75	3561.42
580.94	3499.98
581.13	3340.24
581.33	3430.35
581.52	3370.96
581.72	3897.28
581.91	3319.76
582.11	3176.40
582.30	3512.27
582.49	3475.40
582.69	3481.55
582.88	3221.45
583.08	3401.68
583.27	3688.39
583.47	3393.48
583.66	3176.40
583.85	3215.31
584.05	3411.92
584.24	3340.24
584.44	3198.93
584.63	3655.62
584.82	3682.25
585.02	3397.58
585.21	3237.84
585.41	3569.61
585.60	3317.71
585.79	3350.48
585.99	3452.88
586.18	3391.44
586.37	4425.66
586.57	6655.90
586.76	18437.86
586.96	37035.47
587.15	49413.39
587.34	57494.67
587.54	60843.10
587.73	53109.97
587.93	38686.13
588.12	29644.35
588.31	24647.30
588.51	21825.20
588.70	20510.41
588.89	17762.03
589.09	15068.95
589.28	13330.23
589.47	10217.32
589.67	7786.38
589.86	6186.91
590.06	5150.64
590.25	4597.69
590.44	3880.90
590.64	3680.20
590.83	3729.35
591.02	3739.59
591.22	3192.78
591.41	3227.60
591.60	3405.77
591.80	3985.35
591.99	3022.80
592.18	3133.39
592.38	3614.66
592.57	3360.72
592.76	3164.11
592.96	3254.22
593.15	3350.48
593.34	3676.10
593.54	3078.10
593.73	3342.28
593.92	3583.95
594.12	3565.51
594.31	3325.90
594.50	3424.20
594.70	3532.75
594.89	3954.63
595.08	3045.33
595.28	3250.13
595.47	4102.08
595.66	3649.48
595.86	3131.34
596.05	3061.71
596.24	3362.76
596.43	3813.32
596.63	3241.93
596.82	3350.48
597.01	3600.33
597.21	3786.69
597.40	3121.10
597.59	3219.41
597.79	3409.87
597.98	3547.08
598.17	3274.70
598.36	3184.59
598.56	3682.25
598.75	3286.99
598.94	3266.51
599.14	3229.65
599.33	3381.20
599.52	3569.61
599.71	3266.51
599.91	3227.60
600.10	3577.80
600.29	3403.72
600.48	3250.13
600.68	3332.05
600.87	3497.93
601.06	3350.48
601.26	3309.52
601.45	3319.76
601.64	3407.82
601.83	3731.40
602.03	3022.80
602.22	3127.25
602.41	3532.75
602.60	4011.97
602.80	3239.89
602.99	3327.95
603.18	3323.85
603.37	3426.25
603.57	3043.28
603.76	3188.69
603.95	3704.78
604.14	3301.33
604.34	3108.82
604.53	3063.76
604.72	3424.20
604.91	3540.94
605.10	3145.68
605.30	3055.57
605.49	3815.37
605.68	3532.75
605.87	3188.69
606.07	3162.06
606.26	3459.02
606.45	3403.72
606.64	3203.02
606.84	3082.19
607.03	3411.92
607.22	3635.14
607.41	3270.61
607.60	3184.59
607.80	3629.00
607.99	3354.57
608.18	3164.11
608.37	3280.85
608.56	3346.38
608.76	3608.52
608.95	3307.47
609.14	3147.73
609.33	3635.14
609.52	3737.54
609.72	3176.40
609.91	3172.30
610.10	3606.47
610.29	3778.50
610.48	3352.52
610.68	3317.71
610.87	3370.96
611.06	3620.81
611.25	3164.11
611.44	3385.29
611.63	3270.61
611.83	3688.39
612.02	3084.24
612.21	3311.57
612.40	3049.43
612.59	3203.02
612.79	3078.10
612.98	3213.26
613.17	3774.41
613.36	3368.91
613.55	3338.19
613.74	3131.34
613.93	3432.40
614.13	3418.06
614.32	3321.81
614.51	3180.50
614.70	3391.44
614.89	3391.44
615.08	3334.09
615.28	3518.41
615.47	3182.54
615.66	3565.51
615.85	3246.03
616.04	3233.74
616.23	3434.44
616.42	3446.73
616.62	3188.69
616.81	3231.69
617.00	3477.45
617.19	3516.36
617.38	3217.36
617.57	3207.12
617.76	3581.90
617.95	3616.71
618.15	3291.09
618.34	3422.16
618.53	3241.93
618.72	3672.01
618.91	3241.93
619.10	3241.93
619.29	3450.83
619.48	3440.59
619.68	3043.28
619.87	3215.31
620.06	3100.62
620.25	3567.56
620.44	3047.38
620.63	3131.34
620.82	3446.73
621.01	3442.64
621.20	3221.45
621.39	3266.51
621.59	3442.64
621.78	3420.11
621.97	3229.65
622.16	3293.13
622.35	3637.19
622.54	3657.67
622.73	3229.65
622.92	2942.93
623.11	3542.99
623.30	3409.87
623.49	3327.95
623.68	3026.90
623.88	3776.45
624.07	3319.76
624.26	3139.54
624.45	3188.69
624.64	3385.29
624.83	3495.88
625.02	3209.17
625.21	3233.74
625.40	3471.31
625.59	3766.21
625.78	3209.17
625.97	3286.99
626.16	3743.69
626.35	3704.78
626.54	3162.06
626.74	3370.96
626.93	3424.20
627.12	3436.49
627.31	3239.89
627.50	3239.89
627.69	3577.80
627.88	3237.84
628.07	3104.72
628.26	3069.91
628.45	3303.37
628.64	3248.08
628.83	3196.88
629.02	2963.41
629.21	3577.80
629.40	3438.54
629.59	3016.66
629.78	3117.01
629.97	3428.30
630.16	3438.54
630.35	3164.11
630.54	3221.45
630.73	3336.14
630.92	3409.87
631.11	3139.54
631.30	3241.93
631.49	3684.30
631.68	3450.83
631.87	3248.08
632.06	3198.93
632.25	3889.09
632.44	3401.68
632.63	3188.69
632.82	3270.61
633.01	3278.80
633.20	3483.59
633.39	3114.96
633.58	2985.94
633.77	3565.51
633.96	3585.99
634.15	3377.10
634.34	3346.38
634.53	3526.60
634.72	3213.26
634.91	3012.56
635.10	3131.34
635.29	3620.81
635.48	3491.79
635.67	3047.38
635.86	3055.57
636.05	3860.42
636.24	3393.48
636.43	3071.95
636.62	3303.37
636.81	2944.98
637.00	3428.30
637.19	3172.30
637.38	3233.74
637.57	3375.05
637.76	3393.48
637.95	3364.81
638.14	3321.81
638.33	3444.68
638.52	3551.18
638.71	3100.62
638.89	3057.62
639.08	4124.61
639.27	3631.05
639.46	3344.33
639.65	3631.05
639.84	3782.60
640.03	4028.35
640.22	3502.03
640.41	3540.94
640.60	3463.12
640.79	3680.20
640.98	3387.34
641.17	3444.68
641.36	3721.16
641.55	3561.42
641.74	3049.43
641.92	3096.53
642.11	3284.94
642.30	3327.95
642.49	3092.43
642.68	3153.87
642.87	3598.28
643.06	3547.08
643.25	3055.57
643.44	3102.67
643.63	3413.96
643.82	3512.27
644.00	3092.43
644.19	3192.78
644.38	3229.65
644.57	3559.37
644.76	3174.35
644.95	3291.09
645.14	3499.98
645.33	3401.68
645.52	3291.09
645.71	3045.33
645.89	3143.63
646.08	3426.25
646.27	3213.26
646.46	3385.29
646.65	3172.30
646.84	3555.27
647.03	3082.19
647.22	3330.00
647.40	3549.13
647.59	3375.05
647.78	3049.43
647.97	3188.69
648.16	3246.03
648.35	3788.74
648.54	3551.18
648.73	3205.07
648.91	3612.62
649.10	3518.41
649.29	3151.82
649.48	3172.30
649.67	3489.74
649.86	3444.68
650.05	3219.41
650.23	3373.00
650.42	3303.37
650.61	3676.10
650.80	3379.15
650.99	3493.83
651.18	3635.14
651.36	3712.97
651.55	3127.25
651.74	3409.87
651.93	3319.76
652.12	3399.63
652.31	3188.69
652.49	3307.47
652.68	3416.01
652.87	3780.55
653.06	3330.00
653.25	3547.08
653.44	3389.39
653.62	3819.46
653.81	3200.98
654.00	3112.91
654.19	3610.57
654.38	3966.92
654.56	3256.27
654.75	3127.25
654.94	3598.28
655.13	3524.55
655.32	3137.49
655.51	3229.65
655.69	3299.28
655.88	3692.49
656.07	2996.18
656.26	3176.40
656.45	3166.16
656.63	3418.06
656.82	3114.96
657.01	3393.48
657.20	3282.89
657.38	3803.08
657.57	3168.21
657.76	3102.67
657.95	3549.13
658.14	3373.00
658.32	3291.09
658.51	3119.06
658.70	3467.21
658.89	3418.06
659.08	3256.27
659.26	3424.20
659.45	3182.54
659.64	3499.98
659.83	3217.36
660.01	3583.95
660.20	3499.98
660.39	3815.37
660.58	2916.31
660.76	3282.89
660.95	3106.77
661.14	3438.54
661.33	3039.19
661.51	3205.07
661.70	3286.99
661.89	3567.56
662.08	3205.07
662.26	3100.62
662.45	3246.03
662.64	3893.19
662.83	3284.94
663.01	3035.09
663.20	3286.99
663.39	3737.54
663.58	3241.93
663.76	3168.21
663.95	3575.75
664.14	3254.22
664.32	3289.04
664.51	3106.77
664.70	3043.28
664.89	3444.68
665.07	3094.48
665.26	3336.14
665.45	3151.82
665.64	3510.22
665.82	3205.07
666.01	3330.00
666.20	3184.59
666.38	3612.62
666.57	3581.90
666.76	5748.65
666.95	12355.40
667.13	18925.28
667.32	22146.73
667.51	24999.55
667.69	25251.45
667.88	20612.81
668.07	15167.26
668.25	13250.36
668.44	11622.22
668.63	10227.56
668.81	8918.90
669.00	7745.42
669.19	7165.84
669.38	6383.52
669.56	5449.64
669.75	4589.50
669.94	4358.08
670.12	3733.45
670.31	3434.44
670.50	3530.70
670.68	3614.66
670.87	3557.32
671.06	3092.43
671.24	3235.79
671.43	3733.45
671.62	3493.83
671.80	3284.94
671.99	3315.66
672.18	3555.27
672.36	3567.56
672.55	3342.28
672.74	3332.05
672.92	3344.33
673.11	3596.23
673.29	2944.98
673.48	3403.72
673.67	3313.61
673.85	3588.04
674.04	3119.06
674.23	3313.61
674.41	3837.89
674.60	3254.22
674.79	2996.18
674.97	3076.05
675.16	3579.85
675.34	3596.23
675.53	3090.38
675.72	3149.78
675.90	3880.90
676.09	3336.14
676.28	3250.13
676.46	3043.28
676.65	3665.86
676.83	3293.13
677.02	3196.88
677.21	3268.56
677.39	3573.71
677.58	3258.32
677.77	3135.44
677.95	3129.30
678.14	3397.58
678.32	3475.40
678.51	3198.93
678.70	3516.36
678.88	3319.76
679.07	3463.12
679.25	3237.84
679.44	3178.45
679.63	3069.91
679.81	3397.58
680.00	3461.07
680.18	3248.08
680.37	3751.88
680.55	3434.44
680.74	3053.52
680.93	3041.23
681.11	3536.84
681.30	3444.68
681.48	3192.78
681.67	3198.93
681.85	3413.96
682.04	3243.98
682.23	3338.19
682.41	3350.48
682.60	3313.61
682.78	3381.20
682.97	3086.29
683.15	3219.41
683.34	3473.36
683.53	3782.60
683.71	3129.30
683.90	3233.74
684.08	3762.12
684.27	3291.09
684.45	3170.26
684.64	3332.05
684.82	3350.48
685.01	3612.62
685.19	3170.26
685.38	3502.03
685.57	3479.50
685.75	3176.40
685.94	3067.86
686.12	3137.49
686.31	3299.28
686.49	3676.10
686.68	2994.13
686.86	3162.06
687.05	3344.33
687.23	3815.37
687.42	3192.78
687.60	3020.75
687.79	3631.05
687.97	3860.42
688.16	3325.90
688.34	3401.68
688.53	3086.29
688.71	3542.99
688.90	3491.79
689.08	3229.65
689.27	3092.43
689.45	3624.90
689.64	3301.33
689.82	3368.91
690.01	3499.98
690.19	3469.26
690.38	3274.70
690.56	3233.74
690.75	3239.89
690.93	3286.99
691.12	3125.20
691.30	3190.74
691.49	3272.65
691.67	3413.96
691.86	3557.32
692.04	3237.84
692.23	3254.22
692.41	3428.30
692.60	3549.13
692.78	3448.78
692.97	3352.52
693.15	3567.56
693.34	3395.53
693.52	3364.81
693.71	3241.93
693.89	3295.18
694.08	2961.36
694.26	3254.22
694.44	3612.62
694.63	3614.66
694.81	3123.15
695.00	3229.65
695.18	3647.43
695.37	4005.83
695.55	3370.96
695.74	3237.84
695.92	3293.13
696.10	3698.63
696.29	3106.77
696.47	3166.16
696.66	3205.07
696.84	3209.17
697.03	3262.41
697.21	3495.88
697.40	4790.20
697.58	3680.20
697.76	3127.25
697.95	3133.39
698.13	3246.03
698.32	3352.52
698.50	3162.06
698.68	3250.13
698.87	3540.94
699.05	3821.51
699.24	3147.73
699.42	3295.18
699.61	3487.69
699.79	3497.93
699.97	3325.90
700.16	3123.15
700.34	3188.69
700.53	3446.73
700.71	3409.87
700.89	3270.61
701.08	3332.05
701.26	3395.53
701.45	3502.03
701.63	3231.69
701.81	3317.71
702.00	3178.45
702.18	3295.18
702.37	3229.65
702.55	3663.82
702.73	3504.07
702.92	3182.54
703.10	3497.93
703.28	3696.58
703.47	3188.69
703.65	3430.35
703.84	3327.95
704.02	3303.37
704.20	3784.65
704.39	3223.50
704.57	3221.45
704.75	3588.04
704.94	3583.95
705.12	3383.24
705.30	4059.07
705.49	8198.02
705.67	14530.34
705.86	19224.28
706.04	21444.28
706.22	23869.08
706.41	22159.02
706.59	16623.36
706.77	13313.84
706.96	11741.00
707.14	10729.31
707.32	9408.37
707.51	8087.43
707.69	6901.65
707.87	5797.80
708.06	4782.01
708.24	4276.16
708.42	4026.31
708.61	4243.39
708.79	3321.81
708.97	3409.87
709.16	3528.65
709.34	3424.20
709.52	3211.22
709.71	3227.60
709.89	3684.30
710.07	3286.99
710.26	3082.19
710.44	3164.11
710.62	3616.71
710.80	3444.68
710.99	3286.99
711.17	3352.52
711.35	3311.57
711.54	3291.09
711.72	3424.20
711.90	3184.59
712.09	3588.04
712.27	3272.65
712.45	3373.00
712.63	3153.87
712.82	3557.32
713.00	3456.97
713.18	3362.76
713.37	3479.50
713.55	3657.67
713.73	3549.13
713.91	3360.72
714.10	3180.50
714.28	3340.24
714.46	3542.99
714.65	3274.70
714.83	3256.27
715.01	3467.21
715.19	3385.29
715.38	3147.73
715.56	3356.62
715.74	3295.18
715.92	3215.31
716.11	3448.78
716.29	2947.03
716.47	3422.16
716.65	3395.53
716.84	3145.68
717.02	3311.57
717.20	3106.77
717.38	3194.83
717.57	3293.13
717.75	3203.02
717.93	3246.03
718.11	3581.90
718.30	3129.30
718.48	3190.74
718.66	3647.43
718.84	3657.67
719.03	3196.88
719.21	3020.75
719.39	3815.37
719.57	3545.03
719.75	3286.99
719.94	3108.82
720.12	3383.24
720.30	3420.11
720.48	3295.18
720.67	3264.46
720.85	3243.98
721.03	3295.18
721.21	3186.64
721.39	3317.71
721.58	3618.76
721.76	3459.02
721.94	3198.93
722.12	3241.93
722.30	3803.08
722.49	3342.28
722.67	3188.69
722.85	3268.56
723.03	3135.44
723.21	3340.24
723.40	3196.88
723.58	3342.28
723.76	3643.34
723.94	3698.63
724.12	3233.74
724.30	3463.12
724.49	3606.47
724.67	3256.27
724.85	3250.13
725.03	3033.04
725.21	3598.28
725.40	3633.10
725.58	3319.76
725.76	3475.40
725.94	3573.71
726.12	3266.51
726.30	3297.23
726.49	3215.31
726.67	3397.58
726.85	3487.69
727.03	3876.80
727.21	4999.09
727.39	6121.38
727.57	6356.90
727.76	6741.91
727.94	6756.25
728.12	5877.67
728.30	5130.16
728.48	4829.11
728.66	4458.43
728.84	4343.74
729.03	3934.15
729.21	3669.96
729.39	3618.76
729.57	3557.32
729.75	3502.03
729.93	3391.44
730.11	3121.10
730.30	3354.57
730.48	3491.79
730.66	3248.08
730.84	3327.95
731.02	3477.45
731.20	3344.33
731.38	3293.13
731.56	3065.81
731.74	3096.53
731.93	3536.84
732.11	3352.52
732.29	3180.50
732.47	3545.03
732.65	3534.79
732.83	3420.11
733.01	3342.28
733.19	3256.27
733.37	3581.90
733.56	3188.69
733.74	3035.09
733.92	3731.40
734.10	3411.92
734.28	3350.48
734.46	3002.32
734.64	3330.00
734.82	3270.61
735.00	3147.73
735.18	3209.17
735.36	3467.21
735.54	3418.06
735.73	3164.11
735.91	3381.20
736.09	3745.73
736.27	3403.72
736.45	3246.03
736.63	2928.60
736.81	3336.14
736.99	3686.34
737.17	3444.68
737.35	3141.58
737.53	3426.25
737.71	3418.06
737.89	3463.12
738.07	3198.93
738.25	3315.66
738.43	3153.87
738.61	3196.88
738.80	3117.01
738.98	3200.98
739.16	3282.89
739.34	3160.02
739.52	3565.51
739.70	3424.20
739.88	3596.23
740.06	3225.55
740.24	2912.21
740.42	3721.16
740.60	3071.95
740.78	3246.03
740.96	2871.25
741.14	3358.67
741.32	3459.02
741.50	3004.37
741.68	3456.97
741.86	3729.35
742.04	3172.30
742.22	3147.73
742.40	3225.55
742.58	3561.42
742.76	3315.66
742.94	3448.78
743.12	3051.47
743.30	3420.11
743.48	3585.99
743.66	3041.23
743.84	3174.35
744.02	3358.67
744.20	3471.31
744.38	3090.38
744.56	3205.07
744.74	3862.47
744.92	3602.38
745.10	3446.73
745.28	3289.04
745.46	3880.90
745.64	3379.15
745.82	3260.37
746.00	3192.78
746.18	3522.51
746.36	3305.42
746.54	3276.75
746.72	3241.93
746.90	3258.32
747.08	3755.97
747.26	3348.43
747.44	3278.80
747.62	3592.14
747.80	3506.12
747.98	3354.57
748.15	3160.02
748.33	3803.08
748.51	3452.88
748.69	3256.27
748.87	3117.01
749.05	3391.44
749.23	3426.25
749.41	3100.62
749.59	3149.78
749.77	3706.82
749.95	3330.00
750.13	3237.84
750.31	3411.92
750.49	3352.52
750.67	3678.15
750.85	3334.09
751.03	3176.40
751.20	3827.65
751.38	3471.31
751.56	3205.07
751.74	3172.30
751.92	3401.68
752.10	3239.89
752.28	3426.25
752.46	3106.77
752.64	3420.11
752.82	3436.49
753.00	3268.56
753.18	3188.69
753.35	3278.80
753.53	3454.92
753.71	3170.26
753.89	3237.84
754.07	3635.14
754.25	3614.66
754.43	3379.15
754.61	3151.82
754.79	3536.84
754.97	3409.87
755.14	3348.43
755.32	3033.04
755.50	3553.23
755.68	3477.45
755.86	3145.68
756.04	3108.82
756.22	3084.24
756.40	3676.10
756.57	3459.02
756.75	3157.97
756.93	3635.14
757.11	3690.44
757.29	3102.67
757.47	3084.24
757.65	3063.76
757.82	2942.93
758.00	3157.97
758.18	3182.54
758.36	3229.65
758.54	3917.76
758.72	3063.76
758.90	3432.40
759.07	3467.21
759.25	3215.31
759.43	3256.27
759.61	3008.47
759.79	4540.35
759.97	3639.24
760.15	3172.30
760.32	3237.84
760.50	3526.60
760.68	3813.32
760.86	3080.14
761.04	3491.79
761.22	3618.76
761.39	3518.41
761.57	3219.41
761.75	3157.97
761.93	3637.19
762.11	3364.81
762.28	3356.62
762.46	3203.02
762.64	3569.61
762.82	3209.17
763.00	3125.20
763.18	3436.49
763.35	3131.34
763.53	3553.23
763.71	3299.28
763.89	3139.54
764.07	3475.40
764.24	3559.37
764.42	3364.81
764.60	3252.17
764.78	3483.59
764.96	3618.76
765.13	3426.25
765.31	3065.81
765.49	3569.61
765.67	3196.88
765.84	3196.88
766.02	3160.02
766.20	3014.61
766.38	3526.60
766.56	3235.79
766.73	3280.85
766.91	3454.92
767.09	3428.30
767.27	3252.17
767.44	3069.91
767.62	3545.03
767.80	3471.31
767.98	3139.54
768.15	3262.41
768.33	3620.81
768.51	3649.48
768.69	3352.52
768.87	3221.45
769.04	3471.31
769.22	3991.49
769.40	3368.91
769.58	3391.44
769.75	3528.65
769.93	3786.69
770.11	3123.15
770.28	2992.08
770.46	3604.42
770.64	3571.66
770.82	3200.98
770.99	3106.77
771.17	3575.75
771.35	3352.52
771.53	3305.42
771.70	3143.63
771.88	3583.95
772.06	3354.57
772.23	3094.48
772.41	3319.76
772.59	3307.47
772.77	3303.37
772.94	3258.32
773.12	3276.75
773.30	3284.94
773.47	3487.69
773.65	3127.25
773.83	3385.29
774.01	3489.74
774.18	3092.43
774.36	3180.50
774.54	2998.23
774.71	3559.37
774.89	3067.86
775.07	3024.85
775.24	3168.21
775.42	3293.13
775.60	3815.37
775.78	3131.34
775.95	3051.47
776.13	3053.52
776.31	3069.91
776.48	3370.96
776.66	3416.01
776.84	3311.57
777.01	3213.26
777.19	3119.06
777.37	3188.69
777.54	3608.52
777.72	3862.47
777.90	3323.85
778.07	3110.86
778.25	4052.93
778.43	3655.62
778.60	3139.54
778.78	3237.84
778.96	3696.58
779.13	3198.93
779.31	3198.93
779.49	3323.85
779.66	3454.92
779.84	3407.82
780.01	3127.25
780.19	3108.82
780.37	3745.73
780.54	3536.84
780.72	3014.61
780.90	3184.59
781.07	3313.61
781.25	3250.13
781.43	3385.29
781.60	3149.78
781.78	3774.41
781.95	3422.16
782.13	3227.60
782.31	3147.73
782.48	2992.08
782.66	3418.06
782.83	3485.64
783.01	3297.23
783.19	3585.99
783.36	3344.33
783.54	3078.10
783.72	3272.65
783.89	3379.15
784.07	3518.41
784.24	3336.14
784.42	3356.62
784.60	3461.07
784.77	3540.94
784.95	2934.74
785.12	3221.45
785.30	3569.61
785.47	3286.99
785.65	3133.39
785.83	3278.80
786.00	3280.85
786.18	3428.30
786.35	3106.77
786.53	3086.29
786.71	3651.53
786.88	3573.71
787.06	3289.04
787.23	3260.37
787.41	3225.55
787.58	3352.52
787.76	3102.67
787.94	3221.45
788.11	3483.59
788.29	3147.73
788.46	3174.35
788.64	2990.03
788.81	3338.19
788.99	3221.45
789.16	3196.88
789.34	3221.45
789.52	3375.05
789.69	3330.00
789.87	3043.28
790.04	3194.83
790.22	3467.21
790.39	3921.86
790.57	3010.51
790.74	3121.10
790.92	3686.34
791.09	3084.24
791.27	3286.99
791.44	3280.85
791.62	3450.83
791.79	3545.03
791.97	3295.18
792.15	3532.75
792.32	3594.19
792.50	3536.84
792.67	3389.39
792.85	3538.89
793.02	3442.64
793.20	3395.53
793.37	3067.86
793.55	3145.68
793.72	3190.74
793.90	3567.56
794.07	3274.70
794.25	3139.54
794.42	3440.59
794.60	3385.29
794.77	3297.23
794.95	3352.52
795.12	3629.00
795.30	3416.01
795.47	2987.99
795.65	3506.12
795.82	3502.03
796.00	3237.84
796.17	3178.45
796.34	3110.86
796.52	3590.09
796.69	3626.95
796.87	3278.80
797.04	3391.44
797.22	3542.99
797.39	3454.92
797.57	3405.77
797.74	3305.42
797.92	3557.32
798.09	3280.85
798.27	3532.75
798.44	3098.58
798.62	3319.76
798.79	3418.06
798.96	3401.68
799.14	3200.98
799.31	4050.88
799.49	3454.92
799.66	3270.61
799.84	3254.22
800.01	3051.47
800.19	3461.07
800.36	2928.60
800.53	3155.92
800.71	3438.54
800.88	3749.83
801.06	3141.58
801.23	3188.69
801.41	3366.86
801.58	3282.89
801.75	3270.61
801.93	3229.65
802.10	3626.95
802.28	3395.53
802.45	3264.46
802.63	3194.83
802.80	3729.35
802.97	3366.86
803.15	3223.50
803.32	3088.34
803.50	3239.89
803.67	3299.28
803.84	3205.07
804.02	3268.56
804.19	3356.62
804.37	2908.12
804.54	2985.94
804.71	3166.16
804.89	3350.48
805.06	3141.58
805.24	3082.19
805.41	2983.89
805.58	3262.41
805.76	3958.72
805.93	3119.06
806.10	3321.81
806.28	3553.23
806.45	3446.73
806.63	3301.33
806.80	3260.37
806.97	3557.32
807.15	3551.18
807.32	3270.61
807.49	3162.06
807.67	3114.96
807.84	3491.79
808.01	3057.62
808.19	3356.62
808.36	3944.39
808.54	3276.75
808.71	3164.11
808.88	3198.93
809.06	3704.78
809.23	3803.08
809.40	3188.69
809.58	3149.78
809.75	3409.87
809.92	3172.30
810.10	3405.77
810.27	3246.03
810.44	3514.31
810.62	3657.67
810.79	3135.44
810.96	3172.30
811.14	3303.37
811.31	3581.90
811.48	3452.88
811.66	3266.51
811.83	3696.58
812.00	3491.79
812.18	3289.04
812.35	3518.41
812.52	3295.18
812.69	3350.48
812.87	3131.34
813.04	3123.15
813.21	3448.78
813.39	3250.13
813.56	3125.20
813.73	3393.48
813.91	3135.44
814.08	3483.59
814.25	3207.12
814.42	2983.89
814.60	3391.44
814.77	3489.74
814.94	3059.67
815.12	3235.79
815.29	3680.20
815.46	3241.93
815.63	3203.02
815.81	3147.73
815.98	3375.05
816.15	3413.96
816.33	3319.76
816.50	3139.54
816.67	3385.29
816.84	3336.14
817.02	3135.44
817.19	3157.97
817.36	3522.51
817.53	3528.65
817.71	3106.77
817.88	3176.40
818.05	3344.33
818.22	3317.71
818.40	3358.67
818.57	3237.84
818.74	3542.99
818.91	3315.66
819.09	3364.81
819.26	3272.65
819.43	3336.14
819.60	3248.08
819.78	3354.57
819.95	3235.79
820.12	3180.50
820.29	3805.13
820.47	3485.64
820.64	3106.77
820.81	3110.86
820.98	3307.47
821.15	3278.80
821.33	3289.04
821.50	3033.04
821.67	3528.65
821.84	3149.78
822.02	3194.83
822.19	3598.28
822.36	3334.09
822.53	3100.62
822.70	3041.23
822.88	3260.37
823.05	3684.30
823.22	3295.18
823.39	3174.35
823.56	3479.50
823.74	3856.33
823.91	3028.95
824.08	3180.50
824.25	3104.72
824.42	3815.37
824.60	3035.09
824.77	3227.60
824.94	3395.53
825.11	3565.51
825.28	3057.62
825.45	3284.94
825.63	3465.16
825.80	3198.93
825.97	3319.76
826.14	3297.23
826.31	3100.62
826.48	3540.94
826.66	3254.22
826.83	3117.01
827.00	3373.00
827.17	3289.04
827.34	3186.64
827.51	3102.67
827.69	3401.68
827.86	3106.77
828.03	3233.74
828.20	3256.27
828.37	3225.55
828.54	3448.78
828.71	3170.26
828.89	3248.08
829.06	3530.70
829.23	3737.54
829.40	3180.50
829.57	3086.29
829.74	3604.42
829.91	3299.28
830.09	3174.35
830.26	3323.85
830.43	3807.17
830.60	3291.09
830.77	3284.94
830.94	3428.30
831.11	3639.24
831.28	3393.48
831.46	3315.66
831.63	3147.73
831.80	3655.62
831.97	3264.46
832.14	3227.60
832.31	3233.74
832.48	3426.25
832.65	3674.06
832.82	3356.62
832.99	3262.41
833.17	3227.60
833.34	3719.11
833.51	3143.63
833.68	2953.17
833.85	3596.23
834.02	3209.17
834.19	3172.30
834.36	3143.63
834.53	3547.08
834.70	3704.78
834.87	3182.54
835.04	2885.59
835.22	3172.30
835.39	3399.63
835.56	2994.13
835.73	3100.62
835.90	3655.62
836.07	3215.31
836.24	3065.81
836.41	3074.00
836.58	3305.42
836.75	3680.20
836.92	2961.36
837.09	2994.13
837.26	3647.43
837.43	3526.60
837.60	3018.71
837.77	3016.66
837.94	3690.44
838.12	3733.45
838.29	2953.17
838.46	2836.44
838.63	3162.06
838.80	3760.07
838.97	3094.48
839.14	3000.27
839.31	3516.36
839.48	3549.13
839.65	3039.19
839.82	3131.34
839.99	3491.79
840.16	3456.97
840.33	2947.03
840.50	3084.24
840.67	3248.08
840.84	2942.93
841.01	2883.54
841.18	2906.07
841.35	3403.72
841.52	3545.03
841.69	3405.77
841.86	3039.19
842.03	3395.53
842.20	3577.80
842.37	2971.60
842.54	3162.06
842.71	3526.60
842.88	3078.10
843.05	3094.48
843.22	3000.27
843.39	3581.90
843.56	3295.18
843.73	3047.38
843.90	3084.24
844.07	3475.40
844.24	3729.35
844.41	3090.38
844.58	3041.23
844.75	3461.07
844.92	3573.71
845.09	3149.78
845.26	2996.18
845.43	3579.85
845.60	3301.33
845.77	3135.44
845.94	3141.58
846.10	3680.20
846.27	3110.86
846.44	2914.26
846.61	2916.31
846.78	3524.55
846.95	3700.68
847.12	2992.08
847.29	3024.85
847.46	3233.74
847.63	3565.51
847.80	2897.88
847.97	2994.13
848.14	3930.05
848.31	3373.00
848.48	2920.40
848.65	2918.36
848.82	3299.28
848.98	3954.63
849.15	3168.21
849.32	3192.78
849.49	3622.86
849.66	3377.10
849.83	3018.71
850.00	2973.65
850.17	3553.23
850.34	3338.19
850.51	2985.94
850.68	3045.33
850.85	3940.29
851.01	3585.99
851.18	3022.80
851.35	3055.57
851.52	3477.45
851.69	3737.54
851.86	2996.18
852.03	2947.03
852.20	3538.89
852.37	3491.79
852.53	2852.82
852.70	2914.26
852.87	3512.27
853.04	3620.81
853.21	3000.27
853.38	3411.92
853.55	3674.06
853.72	3770.31
853.89	2953.17
854.05	2967.51
854.22	3407.82
854.39	3416.01
854.56	2985.94
854.73	3131.34
854.90	3313.61
855.07	3332.05
855.23	2912.21
855.40	2936.79
855.57	3385.29
855.74	3024.85
855.91	3200.98
856.08	2871.25
856.25	3176.40
856.41	3342.28
856.58	3022.80
856.75	3008.47
856.92	3233.74
857.09	3639.24
857.26	2848.72
857.42	3024.85
857.59	3553.23
857.76	3323.85
857.93	2963.41
858.10	3088.34
858.27	3233.74
858.43	3395.53
858.60	3041.23
858.77	2928.60
858.94	3211.22
859.11	3565.51
859.27	3100.62
859.44	2912.21
859.61	3897.28
859.78	3618.76
859.95	2981.84
860.12	2961.36
860.28	3973.06
860.45	3760.07
860.62	3012.56
860.79	3157.97
860.95	3360.72
861.12	3225.55
861.29	2912.21
861.46	2969.55
861.63	3362.76
861.79	3479.50
861.96	2842.58
862.13	3002.32
862.30	3737.54
862.47	3295.18
862.63	2934.74
862.80	3039.19
862.97	3643.34
863.14	3461.07
863.30	3035.09
863.47	2938.84
863.64	3758.02
863.81	3454.92
863.97	2889.68
864.14	3043.28
864.31	3350.48
864.48	3418.06
864.65	3051.47
864.81	3102.67
864.98	3561.42
865.15	3657.67
865.32	3067.86
865.48	3024.85
865.65	3758.02
865.82	3237.84
865.98	3090.38
866.15	2996.18
866.32	3428.30
866.49	3297.23
866.65	3205.07
866.82	3045.33
866.99	3373.00
867.16	3360.72
867.32	3069.91
867.49	2916.31
867.66	3356.62
867.83	3325.90
867.99	2967.51
868.16	3065.81
868.33	3164.11
868.49	3483.59
868.66	3055.57
868.83	3172.30
868.99	3516.36
869.16	3485.64
869.33	3172.30
869.50	3112.91
869.66	3391.44
869.83	3389.39
870.00	2887.64
870.16	3182.54
870.33	3446.73
870.50	3667.91
870.66	3151.82
870.83	3016.66
871.00	3446.73
871.17	3465.16
871.33	3057.62
871.50	2969.55
871.67	3346.38
871.83	3094.48
872.00	3110.86
872.17	3008.47
872.33	3823.56
872.50	3663.82
872.67	2969.55
872.83	2928.60
873.00	3612.62
873.17	3411.92
873.33	3092.43
873.50	3055.57
873.67	3282.89
873.83	3205.07
874.00	3045.33
874.16	3170.26
874.33	3459.02
874.50	3135.44
874.66	2942.93
874.83	3147.73
875.00	3659.72
875.16	3696.58
875.33	3117.01
875.50	2811.86
875.66	3338.19
875.83	3442.64
875.99	3127.25
876.16	3131.34
876.33	3239.89
876.49	3381.20
876.66	3139.54
876.83	3061.71
876.99	3168.21
877.16	3499.98
877.32	3008.47
877.49	3041.23
877.66	3518.41
877.82	3776.45
877.99	3139.54
878.15	3305.42
878.32	3483.59
878.49	3465.16
878.65	3086.29
878.82	3332.05
878.98	3309.52
879.15	3692.49
879.32	3219.41
879.48	3229.65
879.65	3411.92
879.81	3319.76
879.98	3057.62
880.15	3049.43
880.31	3633.10
880.48	3164.11
880.64	3114.96
880.81	3235.79
880.97	3823.56
881.14	3717.06
881.31	2975.70
881.47	3143.63
881.64	3338.19
881.80	3037.14
881.97	3205.07
882.13	3018.71
882.30	3213.26
882.47	3237.84
882.63	3069.91
882.80	3076.05
882.96	3266.51
883.13	3600.33
883.29	3026.90
883.46	3028.95
883.62	3878.85
883.79	3452.88
883.95	3223.50
884.12	2942.93
884.29	3641.29
884.45	3430.35
884.62	3057.62
884.78	2897.88
884.95	3733.45
885.11	3198.93
885.28	3108.82
885.44	3059.67
885.61	3577.80
885.77	3731.40
885.94	3254.22
886.10	3067.86
886.27	3375.05
886.43	3827.65
886.60	3317.71
886.76	3020.75
886.93	3299.28
887.09	3450.83
887.26	2889.68
887.42	3188.69
887.59	3694.54
887.75	3979.20
887.92	3221.45
888.08	3207.12
888.25	3794.89
888.41	3659.72
888.58	3084.24
888.74	2928.60
888.91	3348.43
>>>>>End Processed Spectral Data<<<<<
