SpectraSuite Data File
++++++++++++++++++++++++++++++++++++
Date: Fri May 06 09:28:53 CEST 2016
User: root
Dark Spectrum Present: No
Reference Spectrum Present: No
Number of Sampled Component Spectra: 1
Spectrometers: USB4C02835
Integration Time (usec): 100000 (USB4C02835)
Spectra Averaged: 1 (USB4C02835)
Boxcar Smoothing: 0 (USB4C02835)
Correct for Electrical Dark: No (USB4C02835)
Strobe/Lamp Enabled: No (USB4C02835)
Correct for Detector Non-linearity: No (USB4C02835)
Correct for Stray Light: No (USB4C02835)
Number of Pixels in Processed Spectrum: 3648
>>>>>Begin Processed Spectral Data<<<<<
177.47	2342.88
177.69	2342.88
177.91	2342.88
178.13	2330.59
178.36	2258.91
178.58	3106.77
178.80	3172.30
179.02	3094.48
179.24	3166.16
179.46	2883.54
179.68	2936.79
179.90	3356.62
180.13	3430.35
180.35	2723.80
180.57	2893.78
180.79	3575.75
181.01	3444.68
181.23	3000.27
181.45	3205.07
181.67	3581.90
181.90	3633.10
182.12	3037.14
182.34	2738.13
182.56	3606.47
182.78	3549.13
183.00	2961.36
183.22	2910.16
183.44	3039.19
183.66	4134.85
183.89	3123.15
184.11	2979.79
184.33	3676.10
184.55	3801.03
184.77	2985.94
184.99	2969.55
185.21	3260.37
185.43	4116.42
185.65	2920.40
185.87	2969.55
186.10	3944.39
186.32	3999.68
186.54	3110.86
186.76	3061.71
186.98	3696.58
187.20	3354.57
187.42	2942.93
187.64	2889.68
187.86	3610.57
188.08	3684.30
188.30	2867.16
188.52	3051.47
188.75	3801.03
188.97	3708.87
189.19	2936.79
189.41	2887.64
189.63	3649.48
189.85	3409.87
190.07	2975.70
190.29	2805.72
190.51	3510.22
190.73	3166.16
190.95	3264.46
191.17	3051.47
191.39	3065.81
191.61	3397.58
191.84	2930.64
192.06	3160.02
192.28	3100.62
192.50	4151.23
192.72	3178.45
192.94	3006.42
193.16	3641.29
193.38	3602.38
193.60	2904.02
193.82	3182.54
194.04	3712.97
194.26	3475.40
194.48	2979.79
194.70	2879.44
194.92	3387.34
195.14	3590.09
195.36	2930.64
195.58	3010.51
195.80	3399.63
196.02	3241.93
196.24	2865.11
196.46	3110.86
196.69	3319.76
196.91	4042.69
197.13	3035.09
197.35	2963.41
197.57	3762.12
197.79	3553.23
198.01	3131.34
198.23	3004.37
198.45	3600.33
198.67	3205.07
198.89	2799.57
199.11	3114.96
199.33	3303.37
199.55	2983.89
199.77	2861.01
199.99	3084.24
200.21	3395.53
200.43	3575.75
200.65	2873.30
200.87	2867.16
201.09	3471.31
201.31	3413.96
201.53	3061.71
201.75	3074.00
201.97	3581.90
202.19	3475.40
202.41	3028.95
202.63	3114.96
202.85	3561.42
203.07	3444.68
203.29	3088.34
203.51	2928.60
203.73	3221.45
203.95	3966.92
204.17	2973.65
204.39	3149.78
204.61	3399.63
204.83	3330.00
205.05	3129.30
205.27	3039.19
205.49	3919.81
205.71	3393.48
205.93	2848.72
206.15	2844.63
206.37	3416.01
206.59	3450.83
206.81	2791.38
207.03	2901.97
207.25	3250.13
207.47	3635.14
207.69	2942.93
207.91	3192.78
208.13	3876.80
208.34	3350.48
208.56	2938.84
208.78	3014.61
209.00	3332.05
209.22	3375.05
209.44	3022.80
209.66	2863.06
209.88	3624.90
210.10	3399.63
210.32	2914.26
210.54	3051.47
210.76	3348.43
210.98	3659.72
211.20	2895.83
211.42	3067.86
211.64	3770.31
211.86	3598.28
212.08	3078.10
212.30	2940.88
212.52	3317.71
212.74	3604.42
212.96	3125.20
213.17	3018.71
213.39	3672.01
213.61	3848.13
213.83	2897.88
214.05	2815.96
214.27	3667.91
214.49	3157.97
214.71	2977.75
214.93	3047.38
215.15	3495.88
215.37	3639.24
215.59	2856.92
215.81	3074.00
216.03	3815.37
216.24	3491.79
216.46	2922.45
216.68	3016.66
216.90	3577.80
217.12	3702.73
217.34	2975.70
217.56	3151.82
217.78	3712.97
218.00	3622.86
218.22	3082.19
218.44	3033.04
218.66	3454.92
218.87	3885.00
219.09	3045.33
219.31	2951.12
219.53	3542.99
219.75	3360.72
219.97	3082.19
220.19	2983.89
220.41	3499.98
220.63	3729.35
220.85	2965.46
221.06	2951.12
221.28	3731.40
221.50	3581.90
221.72	2942.93
221.94	2912.21
222.16	3387.34
222.38	3663.82
222.60	2932.69
222.82	3026.90
223.03	3655.62
223.25	3190.74
223.47	2922.45
223.69	3286.99
223.91	3579.85
224.13	3485.64
224.35	2828.24
224.57	3074.00
224.78	3616.71
225.00	3295.18
225.22	3088.34
225.44	2897.88
225.66	3635.14
225.88	3307.47
226.10	3137.49
226.32	2967.51
226.53	3741.64
226.75	3434.44
226.97	3139.54
227.19	2967.51
227.41	3168.21
227.63	3330.00
227.85	2787.29
228.06	3049.43
228.28	3573.71
228.50	3708.87
228.72	2838.48
228.94	2881.49
229.16	3082.19
229.37	3164.11
229.59	2867.16
229.81	3207.12
230.03	3477.45
230.25	3164.11
230.47	2844.63
230.69	2895.83
230.90	3588.04
231.12	3342.28
231.34	3008.47
231.56	3018.71
231.78	3184.59
232.00	3440.59
232.21	3002.32
232.43	3053.52
232.65	2967.51
232.87	3571.66
233.09	2783.19
233.30	2865.11
233.52	3631.05
233.74	3430.35
233.96	2881.49
234.18	3106.77
234.40	3465.16
234.61	4063.17
234.83	2885.59
235.05	2877.40
235.27	4073.41
235.49	3702.73
235.70	2826.20
235.92	3004.37
236.14	3563.47
236.36	3960.77
236.58	2889.68
236.79	3117.01
237.01	3395.53
237.23	3469.26
237.45	3141.58
237.67	3096.53
237.88	3518.41
238.10	3854.28
238.32	2885.59
238.54	2979.79
238.76	3409.87
238.97	3205.07
239.19	2836.44
239.41	2983.89
239.63	3735.50
239.85	3352.52
240.06	2987.99
240.28	2934.74
240.50	3721.16
240.72	3446.73
240.93	2881.49
241.15	3129.30
241.37	3411.92
241.59	3770.31
241.81	3067.86
242.02	3061.71
242.24	3454.92
242.46	3565.51
242.68	2826.20
242.89	2856.92
243.11	3704.78
243.33	3426.25
243.55	2961.36
243.76	2985.94
243.98	3278.80
244.20	3465.16
244.42	2979.79
244.64	2910.16
244.85	3082.19
245.07	3278.80
245.29	3004.37
245.51	2975.70
245.72	3497.93
245.94	3745.73
246.16	2949.08
246.38	2979.79
246.59	3293.13
246.81	3252.17
247.03	2858.96
247.24	2854.87
247.46	3319.76
247.68	3428.30
247.90	2869.20
248.11	2942.93
248.33	3512.27
248.55	3475.40
248.77	2981.84
248.98	3127.25
249.20	3897.28
249.42	3438.54
249.64	2969.55
249.85	2994.13
250.07	3319.76
250.29	3663.82
250.50	2967.51
250.72	2803.67
250.94	3588.04
251.16	4005.83
251.37	2914.26
251.59	3074.00
251.81	3557.32
252.02	3760.07
252.24	2824.15
252.46	3125.20
252.68	3301.33
252.89	3258.32
253.11	2750.42
253.33	3168.21
253.54	3782.60
253.76	3225.55
253.98	3008.47
254.20	2975.70
254.41	3188.69
254.63	3502.03
254.85	2852.82
255.06	3053.52
255.28	3559.37
255.50	3422.16
255.71	2910.16
255.93	2820.05
256.15	3405.77
256.36	3612.62
256.58	2818.00
256.80	2920.40
257.02	3409.87
257.23	3370.96
257.45	2951.12
257.67	3114.96
257.88	3340.24
258.10	3573.71
258.32	2940.88
258.53	3102.67
258.75	3878.85
258.97	3350.48
259.18	2895.83
259.40	2875.35
259.62	3839.94
259.83	3762.12
260.05	2947.03
260.27	3862.47
260.48	3737.54
260.70	3276.75
260.92	2848.72
261.13	3016.66
261.35	3524.55
261.57	3516.36
261.78	2811.86
262.00	2904.02
262.22	3575.75
262.43	3203.02
262.65	2924.50
262.86	2973.65
263.08	3954.63
263.30	3487.69
263.51	2781.14
263.73	2818.00
263.95	3852.23
264.16	3209.17
264.38	2861.01
264.60	2850.77
264.81	3381.20
265.03	3645.38
265.25	3401.68
265.46	2852.82
265.68	3682.25
265.89	3569.61
266.11	2906.07
266.33	2889.68
266.54	3764.17
266.76	3532.75
266.98	3047.38
267.19	3127.25
267.41	3751.88
267.62	3461.07
267.84	2795.48
268.06	3067.86
268.27	3456.97
268.49	3753.93
268.70	3026.90
268.92	3010.51
269.14	3246.03
269.35	3067.86
269.57	3071.95
269.79	3049.43
270.00	3358.67
270.22	3858.37
270.43	2891.73
270.65	2811.86
270.87	3520.46
271.08	3561.42
271.30	3041.23
271.51	2959.31
271.73	3602.38
271.95	3774.41
272.16	2846.68
272.38	3088.34
272.59	3409.87
272.81	3518.41
273.02	2865.11
273.24	3045.33
273.46	3657.67
273.67	3219.41
273.89	2832.34
274.10	2926.55
274.32	3690.44
274.54	3520.46
274.75	3018.71
274.97	3053.52
275.18	3594.19
275.40	3581.90
275.61	2942.93
275.83	3127.25
276.05	3215.31
276.26	3293.13
276.48	3065.81
276.69	3135.44
276.91	3362.76
277.12	3782.60
277.34	3086.29
277.55	3276.75
277.77	3532.75
277.99	3327.95
278.20	3160.02
278.42	3008.47
278.63	3295.18
278.85	3213.26
279.06	2961.36
279.28	3188.69
279.49	3762.12
279.71	3585.99
279.93	3188.69
280.14	3100.62
280.36	3309.52
280.57	3741.64
280.79	3168.21
281.00	3008.47
281.22	3368.91
281.43	3674.06
281.65	2951.12
281.86	3057.62
282.08	3604.42
282.29	3846.09
282.51	2979.79
282.73	2897.88
282.94	3188.69
283.16	3567.56
283.37	3162.06
283.59	3172.30
283.80	3600.33
284.02	3545.03
284.23	3114.96
284.45	3139.54
284.66	3254.22
284.88	3278.80
285.09	2977.75
285.31	3166.16
285.52	3499.98
285.74	3067.86
285.95	3299.28
286.17	3131.34
286.38	3721.16
286.60	3409.87
286.81	3102.67
287.03	3071.95
287.24	3483.59
287.46	3604.42
287.67	3293.13
287.89	3377.10
288.10	3383.24
288.32	3463.12
288.53	3231.69
288.75	3227.60
288.96	3561.42
289.18	3346.38
289.39	3065.81
289.61	3131.34
289.82	3952.58
290.04	3870.66
290.25	2914.26
290.47	3209.17
290.68	3389.39
290.90	3694.54
291.11	2844.63
291.33	3282.89
291.54	3270.61
291.76	3321.81
291.97	3266.51
292.18	3192.78
292.40	3303.37
292.61	3319.76
292.83	3432.40
293.04	3074.00
293.26	3524.55
293.47	3403.72
293.69	3012.56
293.90	2967.51
294.12	3706.82
294.33	3362.76
294.55	3153.87
294.76	3286.99
294.97	3770.31
295.19	3885.00
295.40	3069.91
295.62	3176.40
295.83	3610.57
296.05	3188.69
296.26	3387.34
296.48	3100.62
296.69	3483.59
296.90	3461.07
297.12	3252.17
297.33	3319.76
297.55	3461.07
297.76	3643.34
297.98	3192.78
298.19	3291.09
298.41	3368.91
298.62	3243.98
298.83	3272.65
299.05	3221.45
299.26	3377.10
299.48	3213.26
299.69	3174.35
299.90	3074.00
300.12	3268.56
300.33	3532.75
300.55	3133.39
300.76	3178.45
300.98	3231.69
301.19	3575.75
301.40	3155.92
301.62	3153.87
301.83	3502.03
302.05	3409.87
302.26	3033.04
302.47	3190.74
302.69	3198.93
302.90	3428.30
303.12	2953.17
303.33	3225.55
303.54	3923.91
303.76	3362.76
303.97	2994.13
304.19	3295.18
304.40	3334.09
304.61	3575.75
304.83	3178.45
305.04	3147.73
305.26	3637.19
305.47	3344.33
305.68	3024.85
305.90	2975.70
306.11	3753.93
306.33	3405.77
306.54	2969.55
306.75	3102.67
306.97	3110.86
307.18	3190.74
307.39	3057.62
307.61	3233.74
307.82	3418.06
308.04	3530.70
308.25	2971.60
308.46	3200.98
308.68	3403.72
308.89	3473.36
309.10	3162.06
309.32	3141.58
309.53	3434.44
309.74	3610.57
309.96	3067.86
310.17	3219.41
310.39	3346.38
310.60	3540.94
310.81	3149.78
311.03	3061.71
311.24	3581.90
311.45	3401.68
311.67	3352.52
311.88	3270.61
312.09	3239.89
312.31	3332.05
312.52	3012.56
312.73	3059.67
312.95	3168.21
313.16	3315.66
313.37	3270.61
313.59	3344.33
313.80	3674.06
314.01	3686.34
314.23	3194.83
314.44	3028.95
314.65	3188.69
314.87	3301.33
315.08	3074.00
315.29	3223.50
315.51	3270.61
315.72	3119.06
315.93	3211.22
316.15	3207.12
316.36	3360.72
316.57	3493.83
316.79	3053.52
317.00	3002.32
317.21	3579.85
317.43	3155.92
317.64	3151.82
317.85	3012.56
318.07	3241.93
318.28	3366.86
318.49	3151.82
318.70	3332.05
318.92	3342.28
319.13	3549.13
319.34	3239.89
319.56	3110.86
319.77	3516.36
319.98	3540.94
320.20	3377.10
320.41	3207.12
320.62	3542.99
320.83	3254.22
321.05	3330.00
321.26	3135.44
321.47	3467.21
321.69	3782.60
321.90	2926.55
322.11	3059.67
322.32	3528.65
322.54	3770.31
322.75	3069.91
322.96	4243.39
323.18	3125.20
323.39	3024.85
323.60	2947.03
323.81	3250.13
324.03	3289.04
324.24	3391.44
324.45	3164.11
324.66	3033.04
324.88	3610.57
325.09	3862.47
325.30	3139.54
325.52	2983.89
325.73	3547.08
325.94	3147.73
326.15	3067.86
326.37	3002.32
326.58	3624.90
326.79	3811.27
327.00	2969.55
327.22	3139.54
327.43	3434.44
327.64	3147.73
327.85	3305.42
328.07	3114.96
328.28	3878.85
328.49	3334.09
328.70	3127.25
328.92	3033.04
329.13	3381.20
329.34	3540.94
329.55	3348.43
329.76	3264.46
329.98	3448.78
330.19	3706.82
330.40	3170.26
330.61	3223.50
330.83	3635.14
331.04	3336.14
331.25	3157.97
331.46	3168.21
331.68	3211.22
331.89	3667.91
332.10	3110.86
332.31	3020.75
332.52	3358.67
332.74	3786.69
332.95	2940.88
333.16	3086.29
333.37	3637.19
333.58	3327.95
333.80	3168.21
334.01	2934.74
334.22	3389.39
334.43	3225.55
334.64	2983.89
334.86	3051.47
335.07	3262.41
335.28	3631.05
335.49	3030.99
335.70	3211.22
335.92	3831.75
336.13	3815.37
336.34	3108.82
336.55	3069.91
336.76	3542.99
336.98	3065.81
337.19	3108.82
337.40	3119.06
337.61	3962.82
337.82	3428.30
338.04	3209.17
338.25	2934.74
338.46	3385.29
338.67	3471.31
338.88	2994.13
339.09	2947.03
339.31	3311.57
339.52	3190.74
339.73	3024.85
339.94	3160.02
340.15	3581.90
340.36	3373.00
340.58	3188.69
340.79	2971.60
341.00	3622.86
341.21	3217.36
341.42	3344.33
341.63	3102.67
341.85	3694.54
342.06	3450.83
342.27	3080.14
342.48	3243.98
342.69	3139.54
342.90	3598.28
343.12	3559.37
343.33	2975.70
343.54	3659.72
343.75	3856.33
343.96	3241.93
344.17	3129.30
344.38	3373.00
344.60	3305.42
344.81	3102.67
345.02	3114.96
345.23	3639.24
345.44	4048.83
345.65	3145.68
345.86	3223.50
346.07	3444.68
346.29	3248.08
346.50	3295.18
346.71	3211.22
346.92	3770.31
347.13	3962.82
347.34	3223.50
347.55	2967.51
347.76	3540.94
347.98	3188.69
348.19	3121.10
348.40	3315.66
348.61	3342.28
348.82	3743.69
349.03	3143.63
349.24	3008.47
349.45	3915.72
349.66	3069.91
349.88	3114.96
350.09	2951.12
350.30	3721.16
350.51	3719.11
350.72	3375.05
350.93	3008.47
351.14	3373.00
351.35	3528.65
351.56	3174.35
351.77	3200.98
351.99	3479.50
352.20	3655.62
352.41	3205.07
352.62	2901.97
352.83	3360.72
353.04	3395.53
353.25	3090.38
353.46	3117.01
353.67	3715.02
353.88	3117.01
354.09	3063.76
354.30	3174.35
354.52	3540.94
354.73	3454.92
354.94	3100.62
355.15	3170.26
355.36	3942.34
355.57	3327.95
355.78	2992.08
355.99	3059.67
356.20	3334.09
356.41	3712.97
356.62	3209.17
356.83	3112.91
357.04	3653.58
357.25	3074.00
357.46	3145.68
357.68	3006.42
357.89	3256.27
358.10	3438.54
358.31	3041.23
358.52	3198.93
358.73	3190.74
358.94	3262.41
359.15	3174.35
359.36	3143.63
359.57	3557.32
359.78	3475.40
359.99	3276.75
360.20	2899.92
360.41	3467.21
360.62	3649.48
360.83	3221.45
361.04	3049.43
361.25	3571.66
361.46	3723.21
361.67	3184.59
361.88	3266.51
362.09	3688.39
362.30	3504.07
362.51	3061.71
362.72	3203.02
362.93	3624.90
363.14	3557.32
363.35	3246.03
363.56	2971.60
363.78	3719.11
363.99	3626.95
364.20	3082.19
364.41	3151.82
364.62	3885.00
364.83	3567.56
365.04	3082.19
365.25	3123.15
365.46	3950.53
365.67	3221.45
365.88	3295.18
366.09	3164.11
366.30	3360.72
366.51	3450.83
366.72	3084.24
366.93	3028.95
367.14	3481.55
367.35	3641.29
367.56	3061.71
367.77	3209.17
367.98	3444.68
368.18	3516.36
368.39	3262.41
368.60	3028.95
368.81	3565.51
369.02	3440.59
369.23	3180.50
369.44	2994.13
369.65	3327.95
369.86	3598.28
370.07	3221.45
370.28	3022.80
370.49	3461.07
370.70	3510.22
370.91	3018.71
371.12	2975.70
371.33	3715.02
371.54	3264.46
371.75	3284.94
371.96	2885.59
372.17	3504.07
372.38	3385.29
372.59	3147.73
372.80	3002.32
373.01	3385.29
373.22	3491.79
373.43	3004.37
373.64	3000.27
373.85	3698.63
374.06	3870.66
374.26	3256.27
374.47	3227.60
374.68	3807.17
374.89	3467.21
375.10	2973.65
375.31	3192.78
375.52	3483.59
375.73	3461.07
375.94	2944.98
376.15	3149.78
376.36	3338.19
376.57	3362.76
376.78	3168.21
376.99	3219.41
377.20	3712.97
377.40	3342.28
377.61	3352.52
377.82	3135.44
378.03	3897.28
378.24	3555.27
378.45	3225.55
378.66	3182.54
378.87	3061.71
379.08	3135.44
379.29	3123.15
379.50	3235.79
379.71	3459.02
379.91	3641.29
380.12	3010.51
380.33	3280.85
380.54	3413.96
380.75	3442.64
380.96	3143.63
381.17	3051.47
381.38	3413.96
381.59	3426.25
381.80	3227.60
382.00	3243.98
382.21	3397.58
382.42	3733.45
382.63	3440.59
382.84	3221.45
383.05	3555.27
383.26	3721.16
383.47	3213.26
383.68	3084.24
383.88	3602.38
384.09	3430.35
384.30	3315.66
384.51	3291.09
384.72	3311.57
384.93	3289.04
385.14	3262.41
385.35	3426.25
385.55	3114.96
385.76	3717.06
385.97	3110.86
386.18	2983.89
386.39	3260.37
386.60	3303.37
386.81	3090.38
387.02	2959.31
387.22	3213.26
387.43	3633.10
387.64	3246.03
387.85	3368.91
388.06	3471.31
388.27	4325.31
388.48	7262.10
388.68	10913.63
388.89	13700.91
389.10	14946.08
389.31	14577.44
389.52	11689.81
389.73	10442.59
389.93	9539.44
390.14	8466.30
390.35	7982.98
390.56	7442.32
390.77	6369.18
390.98	4775.86
391.18	4022.21
391.39	3903.43
391.60	3352.52
391.81	3405.77
392.02	3227.60
392.23	3932.10
392.43	3502.03
392.64	3182.54
392.85	3297.23
393.06	3764.17
393.27	3454.92
393.47	3121.10
393.68	3241.93
393.89	3411.92
394.10	3796.93
394.31	3176.40
394.52	3078.10
394.72	3338.19
394.93	3688.39
395.14	2953.17
395.35	3205.07
395.56	3297.23
395.76	3422.16
395.97	3114.96
396.18	3299.28
396.39	3266.51
396.60	4052.93
396.80	3579.85
397.01	3346.38
397.22	3534.79
397.43	3676.10
397.64	3098.58
397.84	3248.08
398.05	3796.93
398.26	3487.69
398.47	3229.65
398.67	3352.52
398.88	3499.98
399.09	3686.34
399.30	3172.30
399.51	3164.11
399.71	3299.28
399.92	3440.59
400.13	3258.32
400.34	3117.01
400.54	3532.75
400.75	3770.31
400.96	3178.45
401.17	3493.83
401.37	3516.36
401.58	3459.02
401.79	3123.15
402.00	3258.32
402.21	3968.96
402.41	3590.09
402.62	3327.95
402.83	3557.32
403.04	3833.80
403.24	4280.25
403.45	3354.57
403.66	3479.50
403.87	3616.71
404.07	3737.54
404.28	3407.82
404.49	3461.07
404.70	3561.42
404.90	3606.47
405.11	3157.97
405.32	3360.72
405.52	3348.43
405.73	3211.22
405.94	3033.04
406.15	3241.93
406.35	3606.47
406.56	3573.71
406.77	3200.98
406.98	3133.39
407.18	3278.80
407.39	3733.45
407.60	3121.10
407.80	3194.83
408.01	3319.76
408.22	3657.67
408.43	2967.51
408.63	3254.22
408.84	3692.49
409.05	3676.10
409.25	3164.11
409.46	3235.79
409.67	3356.62
409.88	3313.61
410.08	3207.12
410.29	3147.73
410.50	3678.15
410.70	3483.59
410.91	3037.14
411.12	3157.97
411.32	3467.21
411.53	3252.17
411.74	3162.06
411.95	3205.07
412.15	3370.96
412.36	3606.47
412.57	3303.37
412.77	3362.76
412.98	3377.10
413.19	3428.30
413.39	3221.45
413.60	3182.54
413.81	3780.55
414.01	3182.54
414.22	3094.48
414.43	3377.10
414.63	3231.69
414.84	3635.14
415.05	3190.74
415.25	3057.62
415.46	3620.81
415.67	3307.47
415.87	3182.54
416.08	3080.14
416.29	3368.91
416.49	3573.71
416.70	3233.74
416.91	3131.34
417.11	3475.40
417.32	3753.93
417.53	3237.84
417.73	3246.03
417.94	3530.70
418.15	3557.32
418.35	3074.00
418.56	3104.72
418.77	3907.52
418.97	3436.49
419.18	3282.89
419.38	2881.49
419.59	3477.45
419.80	3848.13
420.00	3065.81
420.21	3139.54
420.42	3762.12
420.62	3569.61
420.83	3151.82
421.04	3157.97
421.24	3430.35
421.45	3639.24
421.65	3157.97
421.86	3213.26
422.07	3655.62
422.27	3592.14
422.48	3026.90
422.69	2918.36
422.89	3401.68
423.10	3346.38
423.30	3172.30
423.51	3192.78
423.72	3573.71
423.92	3633.10
424.13	3035.09
424.33	3213.26
424.54	3624.90
424.75	3409.87
424.95	3346.38
425.16	3045.33
425.36	3409.87
425.57	3663.82
425.78	3274.70
425.98	3215.31
426.19	3497.93
426.39	3239.89
426.60	3237.84
426.81	3299.28
427.01	3573.71
427.22	3258.32
427.42	3041.23
427.63	3076.05
427.83	3667.91
428.04	3901.38
428.25	3157.97
428.45	3262.41
428.66	3753.93
428.86	3487.69
429.07	3231.69
429.28	3215.31
429.48	3499.98
429.69	3196.88
429.89	3301.33
430.10	3119.06
430.30	3618.76
430.51	3684.30
430.71	3100.62
430.92	3297.23
431.13	3297.23
431.33	3592.14
431.54	3233.74
431.74	3379.15
431.95	3975.11
432.15	3207.12
432.36	3121.10
432.56	3192.78
432.77	3921.86
432.98	3827.65
433.18	3229.65
433.39	3026.90
433.59	3377.10
433.80	3839.94
434.00	3295.18
434.21	3217.36
434.41	3373.00
434.62	3940.29
434.82	3033.04
435.03	3123.15
435.23	3491.79
435.44	3110.86
435.64	3172.30
435.85	3282.89
436.06	3762.12
436.26	3719.11
436.47	3213.26
436.67	3098.58
436.88	3368.91
437.08	3672.01
437.29	3284.94
437.49	3299.28
437.70	3796.93
437.90	3403.72
438.11	3344.33
438.31	3196.88
438.52	3704.78
438.72	3604.42
438.93	3571.66
439.13	3217.36
439.34	3655.62
439.54	3411.92
439.75	3268.56
439.95	3262.41
440.16	3250.13
440.36	3450.83
440.57	3229.65
440.77	3205.07
440.98	3456.97
441.18	3534.79
441.39	3045.33
441.59	3002.32
441.80	3889.09
442.00	3428.30
442.21	3278.80
442.41	3020.75
442.62	3647.43
442.82	3297.23
443.02	3143.63
443.23	3205.07
443.43	3342.28
443.64	3753.93
443.84	3028.95
444.05	3254.22
444.25	3397.58
444.46	3293.13
444.66	3180.50
444.87	3407.82
445.07	3053.52
445.28	3354.57
445.48	3477.45
445.69	3254.22
445.89	4005.83
446.09	3430.35
446.30	3440.59
446.50	3551.18
446.71	4999.09
446.91	6123.43
447.12	6887.32
447.32	7212.95
447.53	7358.35
447.73	6186.91
447.93	5435.31
448.14	5150.64
448.34	5472.17
448.55	4552.63
448.75	4394.94
448.96	4173.76
449.16	4169.66
449.36	4048.83
449.57	3387.34
449.77	3217.36
449.98	3340.24
450.18	3502.03
450.39	3119.06
450.59	3422.16
450.79	3362.76
451.00	3348.43
451.20	3379.15
451.41	3160.02
451.61	3608.52
451.81	3397.58
452.02	3041.23
452.22	3180.50
452.43	3336.14
452.63	3327.95
452.84	3217.36
453.04	3114.96
453.24	3381.20
453.45	3262.41
453.65	3248.08
453.86	3246.03
454.06	3542.99
454.26	3428.30
454.47	3094.48
454.67	3315.66
454.87	3502.03
455.08	3442.64
455.28	3336.14
455.49	3405.77
455.69	3291.09
455.89	3889.09
456.10	3243.98
456.30	3010.51
456.51	3602.38
456.71	3516.36
456.91	3250.13
457.12	3131.34
457.32	3485.64
457.52	3229.65
457.73	3391.44
457.93	3418.06
458.14	3360.72
458.34	2963.41
458.54	3133.39
458.75	3127.25
458.95	3663.82
459.15	3475.40
459.36	3180.50
459.56	3190.74
459.76	4059.07
459.97	3452.88
460.17	3182.54
460.37	3241.93
460.58	3413.96
460.78	3614.66
460.99	3229.65
461.19	3221.45
461.39	3311.57
461.60	3391.44
461.80	3256.27
462.00	3067.86
462.21	3432.40
462.41	3225.55
462.61	3061.71
462.82	2992.08
463.02	3557.32
463.22	3442.64
463.43	3276.75
463.63	3024.85
463.83	3827.65
464.04	3553.23
464.24	3164.11
464.44	3086.29
464.64	3497.93
464.85	3626.95
465.05	3217.36
465.25	3131.34
465.46	3225.55
465.66	3600.33
465.86	3254.22
466.07	3123.15
466.27	3497.93
466.47	3024.85
466.68	3049.43
466.88	3246.03
467.08	3565.51
467.29	3696.58
467.49	3186.64
467.69	3295.18
467.89	3573.71
468.10	3436.49
468.30	3215.31
468.50	3323.85
468.71	3569.61
468.91	3065.81
469.11	3334.09
469.31	3295.18
469.52	3280.85
469.72	3878.85
469.92	3450.83
470.13	3117.01
470.33	3461.07
470.53	3432.40
470.73	3499.98
470.94	3923.91
471.14	4050.88
471.34	4493.24
471.54	4108.23
471.75	3921.86
471.95	3747.78
472.15	3798.98
472.36	3614.66
472.56	3477.45
472.76	3993.54
472.96	3848.13
473.17	3368.91
473.37	3207.12
473.57	3393.48
473.77	3549.13
473.98	3336.14
474.18	3041.23
474.38	4073.41
474.58	3297.23
474.79	3049.43
474.99	3301.33
475.19	3665.86
475.39	3229.65
475.60	3241.93
475.80	3092.43
476.00	3477.45
476.20	3436.49
476.41	3233.74
476.61	3184.59
476.81	3846.09
477.01	3286.99
477.21	3481.55
477.42	3262.41
477.62	3293.13
477.82	3702.73
478.02	3147.73
478.23	3229.65
478.43	3194.83
478.63	3330.00
478.83	3196.88
479.03	3213.26
479.24	3811.27
479.44	3932.10
479.64	3114.96
479.84	3016.66
480.04	3387.34
480.25	3678.15
480.45	3155.92
480.65	3174.35
480.85	3760.07
481.06	3319.76
481.26	3278.80
481.46	3112.91
481.66	3477.45
481.86	3231.69
482.06	3448.78
482.27	3289.04
482.47	3381.20
482.67	3493.83
482.87	3215.31
483.07	3272.65
483.28	3276.75
483.48	3153.87
483.68	3157.97
483.88	3090.38
484.08	2959.31
484.29	3264.46
484.49	3217.36
484.69	2981.84
484.89	3747.78
485.09	3549.13
485.29	3203.02
485.50	3340.24
485.70	3286.99
485.90	3715.02
486.10	3350.48
486.30	3090.38
486.50	3729.35
486.71	3528.65
486.91	3239.89
487.11	3327.95
487.31	3299.28
487.51	3608.52
487.71	3211.22
487.91	3090.38
488.12	3211.22
488.32	2922.45
488.52	3164.11
488.72	2891.73
488.92	3565.51
489.12	3655.62
489.32	3325.90
489.53	3184.59
489.73	3104.72
489.93	3815.37
490.13	3149.78
490.33	3008.47
490.53	3526.60
490.73	3631.05
490.94	3065.81
491.14	3358.67
491.34	3583.95
491.54	3608.52
491.74	4009.92
491.94	4523.96
492.14	5138.35
492.34	5099.44
492.54	4683.70
492.75	4083.65
492.95	4450.24
493.15	4194.24
493.35	3839.94
493.55	3848.13
493.75	3819.46
493.95	4042.69
494.15	3395.53
494.35	3262.41
494.56	3377.10
494.76	3262.41
494.96	3360.72
495.16	3155.92
495.36	3522.51
495.56	3399.63
495.76	3246.03
495.96	3110.86
496.16	3254.22
496.36	3901.38
496.56	3157.97
496.77	3213.26
496.97	3467.21
497.17	3788.74
497.37	2899.92
497.57	3254.22
497.77	3499.98
497.97	3192.78
498.17	3200.98
498.37	3106.77
498.57	3667.91
498.77	3274.70
498.97	3327.95
499.17	3524.55
499.38	3485.64
499.58	3608.52
499.78	3315.66
499.98	3362.76
500.18	3422.16
500.38	3164.11
500.58	3383.24
500.78	3764.17
500.98	6002.60
501.18	7759.75
501.38	9164.66
501.58	10020.71
501.78	10051.43
501.98	8435.58
502.18	7028.63
502.38	6262.69
502.58	6207.39
502.78	5441.45
502.98	5207.98
503.18	5107.63
503.38	4767.67
503.59	4147.14
503.79	3999.68
503.99	3737.54
504.19	4018.11
504.39	3997.64
504.59	3631.05
504.79	3514.31
504.99	4034.50
505.19	3598.28
505.39	3334.09
505.59	3524.55
505.79	3817.41
505.99	3557.32
506.19	3162.06
506.39	3491.79
506.59	3313.61
506.79	3319.76
506.99	3471.31
507.19	3074.00
507.39	3504.07
507.59	3141.58
507.79	3151.82
507.99	3172.30
508.19	3330.00
508.39	3321.81
508.59	3170.26
508.79	3291.09
508.99	3788.74
509.19	3311.57
509.39	3229.65
509.59	3063.76
509.79	3338.19
509.99	3424.20
510.19	3295.18
510.39	3258.32
510.59	3403.72
510.79	3368.91
510.99	3010.51
511.19	3143.63
511.39	3844.04
511.59	3774.41
511.79	3295.18
511.99	3114.96
512.19	3891.14
512.38	3393.48
512.58	3076.05
512.78	3094.48
512.98	3747.78
513.18	3854.28
513.38	3078.10
513.58	3252.17
513.78	3379.15
513.98	3387.34
514.18	3213.26
514.38	3225.55
514.58	3532.75
514.78	3319.76
514.98	3080.14
515.18	3172.30
515.38	3211.22
515.58	3829.70
515.78	3141.58
515.98	3190.74
516.18	3653.58
516.38	3338.19
516.57	3131.34
516.77	3176.40
516.97	3608.52
517.17	3319.76
517.37	2936.79
517.57	3151.82
517.77	3442.64
517.97	3262.41
518.17	3229.65
518.37	3069.91
518.57	3295.18
518.77	3344.33
518.97	3141.58
519.16	3231.69
519.36	3721.16
519.56	3278.80
519.76	3117.01
519.96	3143.63
520.16	3874.76
520.36	3295.18
520.56	3319.76
520.76	3082.19
520.96	3295.18
521.16	3637.19
521.35	3311.57
521.55	3356.62
521.75	3385.29
521.95	3340.24
522.15	3080.14
522.35	2996.18
522.55	3297.23
522.75	3639.24
522.95	3114.96
523.14	3002.32
523.34	3461.07
523.54	3332.05
523.74	3364.81
523.94	3194.83
524.14	3037.14
524.34	3532.75
524.54	3352.52
524.73	3098.58
524.93	3551.18
525.13	3420.11
525.33	3049.43
525.53	3397.58
525.73	3667.91
525.93	3565.51
526.13	3200.98
526.32	3074.00
526.52	3749.83
526.72	3639.24
526.92	3237.84
527.12	3100.62
527.32	3127.25
527.52	3491.79
527.71	3180.50
527.91	3258.32
528.11	3358.67
528.31	3397.58
528.51	3172.30
528.71	3336.14
528.90	3635.14
529.10	3686.34
529.30	3196.88
529.50	2914.26
529.70	3489.74
529.90	3373.00
530.09	3166.16
530.29	2971.60
530.49	3319.76
530.69	4108.23
530.89	3303.37
531.09	3207.12
531.28	3299.28
531.48	3729.35
531.68	3143.63
531.88	3102.67
532.08	3661.77
532.28	3401.68
532.47	3280.85
532.67	3233.74
532.87	3532.75
533.07	3303.37
533.27	3174.35
533.46	3164.11
533.66	3557.32
533.86	3311.57
534.06	3237.84
534.26	3168.21
534.45	3246.03
534.65	3573.71
534.85	3307.47
535.05	3086.29
535.25	3680.20
535.44	3045.33
535.64	3225.55
535.84	3254.22
536.04	3358.67
536.24	3346.38
536.43	3131.34
536.63	3043.28
536.83	3397.58
537.03	3473.36
537.22	2967.51
537.42	2983.89
537.62	3502.03
537.82	3336.14
538.02	3344.33
538.21	3174.35
538.41	4032.45
538.61	3549.13
538.81	3260.37
539.00	3280.85
539.20	3155.92
539.40	3368.91
539.60	3092.43
539.79	3448.78
539.99	3442.64
540.19	3297.23
540.39	3059.67
540.58	3237.84
540.78	3719.11
540.98	3461.07
541.18	3375.05
541.37	3250.13
541.57	3477.45
541.77	3545.03
541.97	3102.67
542.16	3041.23
542.36	3407.82
542.56	3637.19
542.76	3327.95
542.95	3233.74
543.15	3489.74
543.35	3540.94
543.54	3180.50
543.74	3061.71
543.94	3706.82
544.14	3278.80
544.33	3344.33
544.53	3139.54
544.73	3332.05
544.93	3393.48
545.12	3164.11
545.32	3209.17
545.52	3411.92
545.71	3198.93
545.91	3223.50
546.11	3086.29
546.30	3237.84
546.50	3475.40
546.70	3172.30
546.90	3260.37
547.09	3098.58
547.29	3528.65
547.49	3280.85
547.68	3203.02
547.88	3252.17
548.08	3573.71
548.27	3436.49
548.47	3151.82
548.67	3350.48
548.87	3491.79
549.06	3147.73
549.26	3057.62
549.46	3481.55
549.65	3323.85
549.85	3207.12
550.05	3147.73
550.24	3231.69
550.44	3483.59
550.64	3225.55
550.83	3221.45
551.03	3758.02
551.23	3690.44
551.42	3241.93
551.62	3239.89
551.82	3413.96
552.01	3293.13
552.21	3459.02
552.41	3229.65
552.60	3672.01
552.80	3448.78
553.00	3164.11
553.19	3217.36
553.39	3835.85
553.59	3155.92
553.78	3321.81
553.98	3123.15
554.17	3174.35
554.37	3493.83
554.57	3237.84
554.76	3092.43
554.96	3289.04
555.16	3450.83
555.35	3260.37
555.55	3327.95
555.75	3577.80
555.94	3598.28
556.14	2975.70
556.33	3121.10
556.53	3479.50
556.73	3330.00
556.92	3174.35
557.12	3110.86
557.32	3966.92
557.51	3704.78
557.71	3135.44
557.90	3387.34
558.10	3760.07
558.30	3366.86
558.49	3215.31
558.69	3180.50
558.88	3596.23
559.08	3502.03
559.28	3174.35
559.47	3229.65
559.67	3565.51
559.86	3893.19
560.06	3100.62
560.26	3239.89
560.45	3608.52
560.65	3321.81
560.84	3405.77
561.04	3051.47
561.24	3565.51
561.43	3217.36
561.63	3409.87
561.82	3286.99
562.02	3643.34
562.22	3254.22
562.41	3090.38
562.61	3164.11
562.80	3164.11
563.00	3993.54
563.19	3272.65
563.39	3248.08
563.59	3610.57
563.78	3196.88
563.98	3008.47
564.17	3254.22
564.37	3020.75
564.56	3416.01
564.76	3057.62
564.96	3270.61
565.15	3461.07
565.35	3958.72
565.54	3188.69
565.74	3114.96
565.93	3547.08
566.13	3416.01
566.32	3164.11
566.52	3248.08
566.71	3430.35
566.91	3631.05
567.11	3370.96
567.30	3069.91
567.50	3516.36
567.69	3467.21
567.89	3162.06
568.08	3033.04
568.28	3491.79
568.47	3194.83
568.67	3141.58
568.86	3180.50
569.06	3637.19
569.25	3270.61
569.45	3071.95
569.64	3213.26
569.84	3332.05
570.04	3467.21
570.23	3207.12
570.43	3270.61
570.62	3477.45
570.82	3739.59
571.01	3026.90
571.21	3215.31
571.40	3248.08
571.60	3540.94
571.79	3311.57
571.99	3209.17
572.18	3151.82
572.38	3469.26
572.57	3217.36
572.77	3270.61
572.96	4040.64
573.16	3426.25
573.35	3121.10
573.55	3307.47
573.74	3442.64
573.94	3356.62
574.13	3170.26
574.33	3307.47
574.52	3704.78
574.71	3471.31
574.91	3180.50
575.10	3108.82
575.30	3340.24
575.49	3196.88
575.69	3104.72
575.88	3160.02
576.08	3321.81
576.27	3641.29
576.47	3008.47
576.66	3262.41
576.86	3762.12
577.05	3508.17
577.25	3233.74
577.44	3360.72
577.64	3315.66
577.83	3631.05
578.02	3121.10
578.22	3311.57
578.41	3897.28
578.61	3397.58
578.80	2920.40
579.00	3217.36
579.19	3459.02
579.39	3579.85
579.58	3344.33
579.77	3164.11
579.97	3723.21
580.16	3573.71
580.36	3344.33
580.55	3217.36
580.75	3456.97
580.94	3420.11
581.13	3340.24
581.33	3430.35
581.52	3364.81
581.72	3841.99
581.91	3346.38
582.11	3143.63
582.30	3608.52
582.49	3581.90
582.69	3508.17
582.88	3198.93
583.08	3551.18
583.27	3575.75
583.47	3336.14
583.66	3176.40
583.85	3262.41
584.05	3366.86
584.24	3309.52
584.44	3231.69
584.63	3657.67
584.82	3688.39
585.02	3397.58
585.21	3291.09
585.41	3606.47
585.60	3291.09
585.79	3375.05
585.99	3510.22
586.18	3514.31
586.37	4368.32
586.57	6606.75
586.76	18659.04
586.96	37287.37
587.15	50091.27
587.34	57842.83
587.54	61324.38
587.73	54080.71
587.93	39095.72
588.12	30135.86
588.31	24782.47
588.51	21808.82
588.70	20725.44
588.89	18024.17
589.09	15161.11
589.28	13354.80
589.47	10282.85
589.67	7851.91
589.86	6274.98
590.06	5087.15
590.25	4599.74
590.44	3946.44
590.64	3639.24
590.83	3704.78
591.02	3774.41
591.22	3256.27
591.41	3239.89
591.60	3426.25
591.80	3850.18
591.99	2926.55
592.18	3141.58
592.38	3610.57
592.57	3360.72
592.76	3164.11
592.96	3282.89
593.15	3459.02
593.34	3659.72
593.54	3172.30
593.73	3299.28
593.92	3522.51
594.12	3567.56
594.31	3266.51
594.50	3344.33
594.70	3499.98
594.89	3950.53
595.08	3012.56
595.28	3280.85
595.47	4079.55
595.66	3672.01
595.86	3076.05
596.05	3067.86
596.24	3364.81
596.43	3778.50
596.63	3270.61
596.82	3319.76
597.01	3678.15
597.21	3817.41
597.40	3143.63
597.59	3237.84
597.79	3330.00
597.98	3635.14
598.17	3248.08
598.36	3225.55
598.56	3715.02
598.75	3303.37
598.94	3295.18
599.14	3182.54
599.33	3338.19
599.52	3618.76
599.71	3315.66
599.91	3160.02
600.10	3532.75
600.29	3430.35
600.48	3233.74
600.68	3278.80
600.87	3524.55
601.06	3299.28
601.26	3260.37
601.45	3254.22
601.64	3475.40
601.83	3815.37
602.03	3121.10
602.22	3074.00
602.41	3604.42
602.60	3987.40
602.80	3286.99
602.99	3366.86
603.18	3354.57
603.37	3491.79
603.57	3194.83
603.76	3209.17
603.95	3612.62
604.14	3276.75
604.34	3035.09
604.53	3160.02
604.72	3467.21
604.91	3598.28
605.10	3231.69
605.30	3057.62
605.49	3909.57
605.68	3528.65
605.87	3151.82
606.07	3168.21
606.26	3461.07
606.45	3471.31
606.64	3162.06
606.84	3090.38
607.03	3436.49
607.22	3700.68
607.41	3268.56
607.60	3127.25
607.80	3682.25
607.99	3350.48
608.18	3207.12
608.37	3213.26
608.56	3219.41
608.76	3626.95
608.95	3366.86
609.14	3172.30
609.33	3715.02
609.52	3876.80
609.72	3286.99
609.91	3332.05
610.10	3553.23
610.29	3809.22
610.48	3344.33
610.68	3266.51
610.87	3418.06
611.06	3516.36
611.25	3207.12
611.44	3303.37
611.63	3401.68
611.83	3807.17
612.02	3076.05
612.21	3235.79
612.40	3037.14
612.59	3186.64
612.79	3076.05
612.98	3151.82
613.17	3772.36
613.36	3436.49
613.55	3344.33
613.74	3205.07
613.93	3364.81
614.13	3502.03
614.32	3342.28
614.51	3190.74
614.70	3405.77
614.89	3295.18
615.08	3282.89
615.28	3508.17
615.47	3295.18
615.66	3585.99
615.85	3215.31
616.04	3295.18
616.23	3389.39
616.42	3370.96
616.62	3178.45
616.81	3215.31
617.00	3395.53
617.19	3536.84
617.38	3258.32
617.57	3364.81
617.76	3577.80
617.95	3682.25
618.15	3278.80
618.34	3411.92
618.53	3123.15
618.72	3698.63
618.91	3301.33
619.10	3248.08
619.29	3420.11
619.48	3377.10
619.68	3028.95
619.87	3203.02
620.06	3125.20
620.25	3540.94
620.44	3133.39
620.63	3045.33
620.82	3428.30
621.01	3467.21
621.20	3295.18
621.39	3239.89
621.59	3659.72
621.78	3475.40
621.97	3135.44
622.16	3346.38
622.35	3487.69
622.54	3602.38
622.73	3254.22
622.92	2942.93
623.11	3758.02
623.30	3362.76
623.49	3352.52
623.68	3086.29
623.88	3821.51
624.07	3307.47
624.26	3092.43
624.45	3192.78
624.64	3434.44
624.83	3532.75
625.02	3198.93
625.21	3190.74
625.40	3510.22
625.59	3805.13
625.78	3190.74
625.97	3286.99
626.16	3725.26
626.35	3614.66
626.54	3196.88
626.74	3405.77
626.93	3370.96
627.12	3393.48
627.31	3203.02
627.50	3160.02
627.69	3575.75
627.88	3262.41
628.07	3059.67
628.26	3020.75
628.45	3270.61
628.64	3221.45
628.83	3200.98
629.02	2951.12
629.21	3610.57
629.40	3528.65
629.59	3059.67
629.78	3153.87
629.97	3502.03
630.16	3467.21
630.35	3157.97
630.54	3293.13
630.73	3248.08
630.92	3373.00
631.11	3096.53
631.30	3274.70
631.49	3626.95
631.68	3377.10
631.87	3200.98
632.06	3092.43
632.25	4089.79
632.44	3442.64
632.63	3182.54
632.82	3274.70
633.01	3241.93
633.20	3426.25
633.39	3180.50
633.58	2998.23
633.77	3432.40
633.96	3534.79
634.15	3303.37
634.34	3282.89
634.53	3561.42
634.72	3262.41
634.91	3020.75
635.10	3174.35
635.29	3571.66
635.48	3487.69
635.67	3065.81
635.86	3035.09
636.05	3764.17
636.24	3450.83
636.43	3209.17
636.62	3219.41
636.81	2955.22
637.00	3471.31
637.19	3180.50
637.38	3157.97
637.57	3354.57
637.76	3409.87
637.95	3385.29
638.14	3282.89
638.33	3430.35
638.52	3483.59
638.71	3024.85
638.89	3049.43
639.08	3999.68
639.27	3624.90
639.46	3436.49
639.65	3647.43
639.84	3784.65
640.03	4079.55
640.22	3633.10
640.41	3573.71
640.60	3524.55
640.79	3598.28
640.98	3373.00
641.17	3420.11
641.36	3667.91
641.55	3637.19
641.74	3074.00
641.92	3086.29
642.11	3354.57
642.30	3405.77
642.49	3149.78
642.68	3225.55
642.87	3463.12
643.06	3540.94
643.25	3022.80
643.44	3141.58
643.63	3354.57
643.82	3633.10
644.00	3033.04
644.19	3246.03
644.38	3176.40
644.57	3643.34
644.76	3164.11
644.95	3264.46
645.14	3475.40
645.33	3446.73
645.52	3264.46
645.71	3057.62
645.89	3221.45
646.08	3409.87
646.27	3164.11
646.46	3373.00
646.65	3186.64
646.84	3370.96
647.03	3104.72
647.22	3344.33
647.40	3508.17
647.59	3352.52
647.78	2979.79
647.97	3153.87
648.16	3215.31
648.35	3760.07
648.54	3508.17
648.73	3229.65
648.91	3643.34
649.10	3461.07
649.29	3145.68
649.48	3168.21
649.67	3532.75
649.86	3483.59
650.05	3160.02
650.23	3385.29
650.42	3307.47
650.61	3694.54
650.80	3409.87
650.99	3375.05
651.18	3672.01
651.36	3655.62
651.55	3084.24
651.74	3393.48
651.93	3362.76
652.12	3440.59
652.31	3215.31
652.49	3237.84
652.68	3393.48
652.87	3766.21
653.06	3336.14
653.25	3495.88
653.44	3407.82
653.62	3821.51
653.81	3223.50
654.00	3231.69
654.19	3645.38
654.38	4048.83
654.56	3315.66
654.75	3123.15
654.94	3645.38
655.13	3467.21
655.32	3041.23
655.51	3284.94
655.69	3332.05
655.88	3635.14
656.07	3000.27
656.26	3254.22
656.45	3198.93
656.63	3475.40
656.82	3094.48
657.01	3452.88
657.20	3258.32
657.38	3823.56
657.57	3188.69
657.76	3022.80
657.95	3563.47
658.14	3409.87
658.32	3241.93
658.51	3004.37
658.70	3536.84
658.89	3524.55
659.08	3266.51
659.26	3379.15
659.45	3215.31
659.64	3545.03
659.83	3227.60
660.01	3504.07
660.20	3485.64
660.39	3745.73
660.58	2842.58
660.76	3250.13
660.95	3112.91
661.14	3516.36
661.33	3035.09
661.51	3180.50
661.70	3336.14
661.89	3567.56
662.08	3264.46
662.26	3033.04
662.45	3233.74
662.64	3753.93
662.83	3227.60
663.01	3024.85
663.20	3373.00
663.39	3729.35
663.58	3286.99
663.76	3168.21
663.95	3493.83
664.14	3266.51
664.32	3286.99
664.51	3082.19
664.70	3074.00
664.89	3465.16
665.07	3074.00
665.26	3297.23
665.45	3108.82
665.64	3581.90
665.82	3194.83
666.01	3356.62
666.20	3221.45
666.38	3686.34
666.57	3583.95
666.76	5787.56
666.95	12668.73
667.13	19076.83
667.32	22412.97
667.51	25407.10
667.69	25716.34
667.88	21038.78
668.07	15619.86
668.25	13147.96
668.44	11753.29
668.63	10307.43
668.81	8980.34
669.00	7679.88
669.19	7286.67
669.38	6348.70
669.56	5484.46
669.75	4788.15
669.94	4452.28
670.12	3813.32
670.31	3465.16
670.50	3452.88
670.68	3549.13
670.87	3454.92
671.06	3098.58
671.24	3248.08
671.43	3841.99
671.62	3413.96
671.80	3227.60
671.99	3254.22
672.18	3432.40
672.36	3577.80
672.55	3321.81
672.74	3256.27
672.92	3442.64
673.11	3606.47
673.29	3041.23
673.48	3442.64
673.67	3393.48
673.85	3631.05
674.04	3074.00
674.23	3241.93
674.41	3854.28
674.60	3215.31
674.79	3069.91
674.97	3067.86
675.16	3542.99
675.34	3663.82
675.53	3221.45
675.72	3246.03
675.90	3854.28
676.09	3336.14
676.28	3217.36
676.46	3018.71
676.65	3635.14
676.83	3231.69
677.02	3295.18
677.21	3254.22
677.39	3434.44
677.58	3205.07
677.77	3135.44
677.95	3155.92
678.14	3321.81
678.32	3350.48
678.51	3131.34
678.70	3545.03
678.88	3395.53
679.07	3534.79
679.25	3098.58
679.44	3196.88
679.63	3166.16
679.81	3516.36
680.00	3428.30
680.18	3246.03
680.37	3819.46
680.55	3426.25
680.74	3030.99
680.93	2955.22
681.11	3514.31
681.30	3413.96
681.48	3149.78
681.67	3147.73
681.85	3463.12
682.04	3291.09
682.23	3297.23
682.41	3315.66
682.60	3336.14
682.78	3436.49
682.97	3131.34
683.15	3254.22
683.34	3534.79
683.53	3827.65
683.71	3084.24
683.90	3211.22
684.08	3889.09
684.27	3360.72
684.45	3213.26
684.64	3364.81
684.82	3516.36
685.01	3547.08
685.19	3196.88
685.38	3491.79
685.57	3463.12
685.75	3305.42
685.94	3190.74
686.12	3141.58
686.31	3307.47
686.49	3747.78
686.68	2961.36
686.86	3213.26
687.05	3463.12
687.23	3770.31
687.42	3196.88
687.60	3100.62
687.79	3682.25
687.97	3741.64
688.16	3307.47
688.34	3342.28
688.53	3125.20
688.71	3483.59
688.90	3588.04
689.08	3229.65
689.27	3086.29
689.45	3545.03
689.64	3276.75
689.82	3225.55
690.01	3606.47
690.19	3565.51
690.38	3215.31
690.56	3360.72
690.75	3254.22
690.93	3352.52
691.12	3246.03
691.30	3278.80
691.49	3264.46
691.67	3477.45
691.86	3526.60
692.04	3174.35
692.23	3319.76
692.41	3352.52
692.60	3446.73
692.78	3504.07
692.97	3452.88
693.15	3573.71
693.34	3379.15
693.52	3436.49
693.71	3327.95
693.89	3338.19
694.08	3078.10
694.26	3231.69
694.44	3526.60
694.63	3639.24
694.81	3106.77
695.00	3262.41
695.18	3723.21
695.37	4009.92
695.55	3268.56
695.74	3274.70
695.92	3280.85
696.10	3745.73
696.29	3086.29
696.47	3164.11
696.66	3135.44
696.84	3270.61
697.03	3270.61
697.21	3491.79
697.40	4702.14
697.58	3684.30
697.76	3190.74
697.95	3215.31
698.13	3266.51
698.32	3270.61
698.50	3200.98
698.68	3213.26
698.87	3545.03
699.05	3784.65
699.24	3157.97
699.42	3194.83
699.61	3534.79
699.79	3452.88
699.97	3205.07
700.16	3059.67
700.34	3225.55
700.53	3608.52
700.71	3506.12
700.89	3334.09
701.08	3352.52
701.26	3356.62
701.45	3571.66
701.63	3225.55
701.81	3291.09
702.00	3260.37
702.18	3289.04
702.37	3135.44
702.55	3708.87
702.73	3542.99
702.92	3229.65
703.10	3512.27
703.28	3602.38
703.47	3200.98
703.65	3432.40
703.84	3373.00
704.02	3256.27
704.20	3753.93
704.39	3215.31
704.57	3102.67
704.75	3493.83
704.94	3598.28
705.12	3307.47
705.30	4014.02
705.49	8163.20
705.67	14530.34
705.86	19433.18
706.04	21434.04
706.22	23856.79
706.41	22316.72
706.59	16795.39
706.77	13539.12
706.96	11716.43
707.14	10776.41
707.32	9371.50
707.51	8261.51
707.69	6885.27
707.87	5871.53
708.06	4868.02
708.24	4343.74
708.42	4134.85
708.61	4233.15
708.79	3256.27
708.97	3362.76
709.16	3545.03
709.34	3426.25
709.52	3260.37
709.71	3227.60
709.89	3606.47
710.07	3172.30
710.26	3041.23
710.44	3180.50
710.62	3549.13
710.80	3444.68
710.99	3270.61
711.17	3303.37
711.35	3313.61
711.54	3321.81
711.72	3446.73
711.90	3289.04
712.09	3551.18
712.27	3360.72
712.45	3340.24
712.63	3250.13
712.82	3528.65
713.00	3413.96
713.18	3444.68
713.37	3389.39
713.55	3655.62
713.73	3622.86
713.91	3307.47
714.10	3203.02
714.28	3387.34
714.46	3483.59
714.65	3280.85
714.83	3262.41
715.01	3499.98
715.19	3430.35
715.38	3151.82
715.56	3338.19
715.74	3262.41
715.92	3219.41
716.11	3502.03
716.29	2934.74
716.47	3362.76
716.65	3338.19
716.84	3141.58
717.02	3207.12
717.20	3098.58
717.38	3270.61
717.57	3436.49
717.75	3278.80
717.93	3291.09
718.11	3516.36
718.30	3010.51
718.48	3246.03
718.66	3653.58
718.84	3651.53
719.03	3200.98
719.21	3018.71
719.39	3786.69
719.57	3608.52
719.75	3299.28
719.94	3149.78
720.12	3311.57
720.30	3493.83
720.48	3319.76
720.67	3147.73
720.85	3207.12
721.03	3272.65
721.21	3237.84
721.39	3340.24
721.58	3540.94
721.76	3471.31
721.94	3254.22
722.12	3309.52
722.30	3819.46
722.49	3338.19
722.67	3188.69
722.85	3270.61
723.03	3151.82
723.21	3323.85
723.40	3213.26
723.58	3330.00
723.76	3487.69
723.94	3680.20
724.12	3229.65
724.30	3502.03
724.49	3598.28
724.67	3223.50
724.85	3264.46
725.03	3143.63
725.21	3579.85
725.40	3616.71
725.58	3301.33
725.76	3393.48
725.94	3569.61
726.12	3264.46
726.30	3270.61
726.49	3221.45
726.67	3364.81
726.85	3534.79
727.03	3831.75
727.21	4933.56
727.39	6102.95
727.57	6420.38
727.76	6707.10
727.94	6692.76
728.12	5973.92
728.30	4972.47
728.48	4868.02
728.66	4468.67
728.84	4290.49
729.03	3885.00
729.21	3717.06
729.39	3502.03
729.57	3430.35
729.75	3577.80
729.93	3381.20
730.11	3061.71
730.30	3270.61
730.48	3436.49
730.66	3227.60
730.84	3260.37
731.02	3428.30
731.20	3264.46
731.38	3301.33
731.56	3010.51
731.74	3112.91
731.93	3502.03
732.11	3307.47
732.29	3235.79
732.47	3540.94
732.65	3565.51
732.83	3385.29
733.01	3276.75
733.19	3286.99
733.37	3577.80
733.56	3231.69
733.74	3035.09
733.92	3696.58
734.10	3393.48
734.28	3409.87
734.46	3061.71
734.64	3344.33
734.82	3348.43
735.00	3119.06
735.18	3172.30
735.36	3416.01
735.54	3432.40
735.73	3162.06
735.91	3370.96
736.09	3729.35
736.27	3360.72
736.45	3293.13
736.63	2971.60
736.81	3385.29
736.99	3676.10
737.17	3426.25
737.35	3233.74
737.53	3473.36
737.71	3321.81
737.89	3356.62
738.07	3176.40
738.25	3303.37
738.43	3145.68
738.61	3221.45
738.80	3125.20
738.98	3307.47
739.16	3295.18
739.34	3223.50
739.52	3432.40
739.70	3348.43
739.88	3588.04
740.06	3280.85
740.24	2957.27
740.42	3629.00
740.60	3129.30
740.78	3125.20
740.96	3043.28
741.14	3299.28
741.32	3483.59
741.50	3000.27
741.68	3395.53
741.86	3729.35
742.04	3149.78
742.22	3153.87
742.40	3239.89
742.58	3639.24
742.76	3239.89
742.94	3450.83
743.12	3090.38
743.30	3397.58
743.48	3565.51
743.66	3125.20
743.84	3200.98
744.02	3401.68
744.20	3377.10
744.38	3055.57
744.56	3108.82
744.74	3831.75
744.92	3672.01
745.10	3473.36
745.28	3309.52
745.46	3864.52
745.64	3373.00
745.82	3262.41
746.00	3200.98
746.18	3532.75
746.36	3160.02
746.54	3272.65
746.72	3256.27
746.90	3194.83
747.08	3700.68
747.26	3157.97
747.44	3379.15
747.62	3631.05
747.80	3416.01
747.98	3303.37
748.15	3213.26
748.33	3864.52
748.51	3479.50
748.69	3356.62
748.87	3086.29
749.05	3370.96
749.23	3495.88
749.41	3063.76
749.59	3127.25
749.77	3542.99
749.95	3354.57
750.13	3160.02
750.31	3327.95
750.49	3508.17
750.67	3721.16
750.85	3311.57
751.03	3127.25
751.20	3925.96
751.38	3373.00
751.56	3307.47
751.74	3192.78
751.92	3420.11
752.10	3180.50
752.28	3393.48
752.46	3168.21
752.64	3469.26
752.82	3461.07
753.00	3291.09
753.18	3114.96
753.35	3360.72
753.53	3397.58
753.71	3190.74
753.89	3274.70
754.07	3530.70
754.25	3696.58
754.43	3256.27
754.61	3104.72
754.79	3532.75
754.97	3385.29
755.14	3385.29
755.32	3033.04
755.50	3485.64
755.68	3477.45
755.86	3125.20
756.04	3157.97
756.22	2965.46
756.40	3633.10
756.57	3354.57
756.75	3135.44
756.93	3764.17
757.11	3684.30
757.29	3112.91
757.47	3157.97
757.65	3172.30
757.82	2967.51
758.00	3102.67
758.18	3123.15
758.36	3254.22
758.54	3848.13
758.72	3024.85
758.90	3346.38
759.07	3557.32
759.25	3303.37
759.43	3221.45
759.61	3041.23
759.79	4542.39
759.97	3657.67
760.15	3190.74
760.32	3149.78
760.50	3518.41
760.68	3848.13
760.86	3084.24
761.04	3430.35
761.22	3575.75
761.39	3512.27
761.57	3317.71
761.75	3157.97
761.93	3532.75
762.11	3377.10
762.28	3291.09
762.46	3106.77
762.64	3590.09
762.82	3094.48
763.00	3119.06
763.18	3426.25
763.35	3235.79
763.53	3590.09
763.71	3289.04
763.89	3114.96
764.07	3432.40
764.24	3467.21
764.42	3327.95
764.60	3200.98
764.78	3581.90
764.96	3715.02
765.13	3399.63
765.31	3067.86
765.49	3626.95
765.67	3295.18
765.84	3223.50
766.02	3143.63
766.20	3125.20
766.38	3526.60
766.56	3301.33
766.73	3327.95
766.91	3510.22
767.09	3495.88
767.27	3280.85
767.44	3176.40
767.62	3600.33
767.80	3452.88
767.98	3129.30
768.15	3155.92
768.33	3653.58
768.51	3649.48
768.69	3311.57
768.87	3178.45
769.04	3362.76
769.22	4036.55
769.40	3313.61
769.58	3375.05
769.75	3520.46
769.93	3657.67
770.11	3246.03
770.28	3121.10
770.46	3631.05
770.64	3504.07
770.82	3192.78
770.99	3123.15
771.17	3581.90
771.35	3393.48
771.53	3268.56
771.70	3143.63
771.88	3536.84
772.06	3459.02
772.23	3182.54
772.41	3246.03
772.59	3463.12
772.77	3272.65
772.94	3246.03
773.12	3270.61
773.30	3289.04
773.47	3442.64
773.65	3141.58
773.83	3325.90
774.01	3448.78
774.18	2979.79
774.36	3239.89
774.54	3071.95
774.71	3540.94
774.89	2975.70
775.07	3041.23
775.24	3254.22
775.42	3303.37
775.60	3805.13
775.78	3123.15
775.95	3028.95
776.13	3084.24
776.31	3035.09
776.48	3381.20
776.66	3411.92
776.84	3311.57
777.01	3266.51
777.19	3178.45
777.37	3094.48
777.54	3608.52
777.72	3819.46
777.90	3327.95
778.07	3123.15
778.25	4188.10
778.43	3672.01
778.60	3108.82
778.78	3250.13
778.96	3719.11
779.13	3194.83
779.31	3280.85
779.49	3213.26
779.66	3499.98
779.84	3399.63
780.01	3098.58
780.19	3114.96
780.37	3729.35
780.54	3581.90
780.72	2971.60
780.90	3188.69
781.07	3434.44
781.25	3385.29
781.43	3332.05
781.60	3172.30
781.78	3661.77
781.95	3590.09
782.13	3217.36
782.31	3196.88
782.48	3049.43
782.66	3413.96
782.83	3397.58
783.01	3348.43
783.19	3684.30
783.36	3422.16
783.54	3076.05
783.72	3352.52
783.89	3295.18
784.07	3450.83
784.24	3358.67
784.42	3418.06
784.60	3452.88
784.77	3563.47
784.95	2895.83
785.12	3231.69
785.30	3553.23
785.47	3278.80
785.65	3000.27
785.83	3235.79
786.00	3307.47
786.18	3454.92
786.35	3119.06
786.53	3090.38
786.71	3684.30
786.88	3555.27
787.06	3221.45
787.23	3254.22
787.41	3209.17
787.58	3395.53
787.76	3086.29
787.94	3157.97
788.11	3465.16
788.29	3211.22
788.46	3194.83
788.64	3084.24
788.81	3444.68
788.99	3190.74
789.16	3174.35
789.34	3237.84
789.52	3303.37
789.69	3352.52
789.87	3033.04
790.04	3145.68
790.22	3356.62
790.39	3878.85
790.57	3018.71
790.74	3100.62
790.92	3608.52
791.09	3045.33
791.27	3305.42
791.44	3297.23
791.62	3387.34
791.79	3680.20
791.97	3332.05
792.15	3467.21
792.32	3581.90
792.50	3585.99
792.67	3381.20
792.85	3440.59
793.02	3467.21
793.20	3321.81
793.37	3074.00
793.55	3119.06
793.72	3205.07
793.90	3561.42
794.07	3256.27
794.25	3160.02
794.42	3524.55
794.60	3344.33
794.77	3266.51
794.95	3336.14
795.12	3530.70
795.30	3356.62
795.47	2961.36
795.65	3516.36
795.82	3446.73
796.00	3373.00
796.17	3301.33
796.34	3078.10
796.52	3524.55
796.69	3659.72
796.87	3231.69
797.04	3373.00
797.22	3667.91
797.39	3540.94
797.57	3426.25
797.74	3327.95
797.92	3563.47
798.09	3327.95
798.27	3502.03
798.44	3213.26
798.62	3303.37
798.79	3456.97
798.96	3370.96
799.14	3229.65
799.31	4042.69
799.49	3413.96
799.66	3147.73
799.84	3309.52
800.01	3071.95
800.19	3540.94
800.36	3014.61
800.53	3246.03
800.71	3536.84
800.88	3743.69
801.06	3149.78
801.23	3157.97
801.41	3286.99
801.58	3268.56
801.75	3215.31
801.93	3219.41
802.10	3600.33
802.28	3346.38
802.45	3282.89
802.63	3198.93
802.80	3704.78
802.97	3286.99
803.15	3149.78
803.32	3139.54
803.50	3286.99
803.67	3248.08
803.84	3170.26
804.02	3291.09
804.19	3416.01
804.37	2987.99
804.54	3022.80
804.71	3178.45
804.89	3385.29
805.06	3157.97
805.24	3145.68
805.41	3049.43
805.58	3164.11
805.76	3907.52
805.93	3162.06
806.10	3289.04
806.28	3536.84
806.45	3459.02
806.63	3438.54
806.80	3239.89
806.97	3471.31
807.15	3477.45
807.32	3352.52
807.49	3164.11
807.67	3151.82
807.84	3487.69
808.01	3043.28
808.19	3420.11
808.36	3887.04
808.54	3291.09
808.71	3141.58
808.88	3213.26
809.06	3667.91
809.23	3760.07
809.40	3217.36
809.58	3121.10
809.75	3463.12
809.92	3194.83
810.10	3483.59
810.27	3145.68
810.44	3495.88
810.62	3606.47
810.79	3200.98
810.96	3207.12
811.14	3379.15
811.31	3508.17
811.48	3360.72
811.66	3209.17
811.83	3614.66
812.00	3536.84
812.18	3264.46
812.35	3538.89
812.52	3385.29
812.69	3301.33
812.87	3180.50
813.04	3157.97
813.21	3413.96
813.39	3233.74
813.56	3176.40
813.73	3483.59
813.91	3160.02
814.08	3469.26
814.25	3172.30
814.42	3006.42
814.60	3297.23
814.77	3475.40
814.94	3147.73
815.12	3272.65
815.29	3827.65
815.46	3303.37
815.63	3117.01
815.81	3090.38
815.98	3313.61
816.15	3432.40
816.33	3280.85
816.50	3231.69
816.67	3405.77
816.84	3411.92
817.02	3078.10
817.19	3174.35
817.36	3590.09
817.53	3581.90
817.71	3114.96
817.88	3200.98
818.05	3325.90
818.22	3401.68
818.40	3405.77
818.57	3147.73
818.74	3549.13
818.91	3395.53
819.09	3399.63
819.26	3319.76
819.43	3338.19
819.60	3301.33
819.78	3418.06
819.95	3194.83
820.12	3200.98
820.29	3766.21
820.47	3461.07
820.64	3155.92
820.81	3182.54
820.98	3286.99
821.15	3229.65
821.33	3334.09
821.50	3037.14
821.67	3467.21
821.84	3229.65
822.02	3160.02
822.19	3540.94
822.36	3373.00
822.53	3172.30
822.70	3157.97
822.88	3418.06
823.05	3778.50
823.22	3340.24
823.39	3227.60
823.56	3387.34
823.74	3860.42
823.91	2920.40
824.08	3147.73
824.25	3231.69
824.42	3731.40
824.60	3098.58
824.77	3295.18
824.94	3307.47
825.11	3590.09
825.28	3061.71
825.45	3366.86
825.63	3370.96
825.80	3223.50
825.97	3264.46
826.14	3295.18
826.31	3114.96
826.48	3577.80
826.66	3229.65
826.83	3133.39
827.00	3403.72
827.17	3192.78
827.34	3258.32
827.51	3135.44
827.69	3344.33
827.86	3106.77
828.03	3162.06
828.20	3229.65
828.37	3209.17
828.54	3416.01
828.71	3084.24
828.89	3293.13
829.06	3483.59
829.23	3762.12
829.40	3149.78
829.57	3114.96
829.74	3585.99
829.91	3340.24
830.09	3190.74
830.26	3368.91
830.43	3762.12
830.60	3385.29
830.77	3297.23
830.94	3436.49
831.11	3585.99
831.28	3315.66
831.46	3377.10
831.63	3174.35
831.80	3698.63
831.97	3282.89
832.14	3254.22
832.31	3231.69
832.48	3510.22
832.65	3635.14
832.82	3391.44
832.99	3258.32
833.17	3176.40
833.34	3684.30
833.51	3196.88
833.68	2996.18
833.85	3631.05
834.02	3237.84
834.19	3151.82
834.36	3223.50
834.53	3555.27
834.70	3590.09
834.87	3168.21
835.04	2926.55
835.22	3319.76
835.39	3252.17
835.56	3002.32
835.73	3000.27
835.90	3674.06
836.07	3160.02
836.24	3149.78
836.41	3028.95
836.58	3330.00
836.75	3659.72
836.92	3039.19
837.09	2979.79
837.26	3575.75
837.43	3401.68
837.60	3119.06
837.77	3092.43
837.94	3661.77
838.12	3684.30
838.29	2983.89
838.46	2836.44
838.63	3192.78
838.80	3766.21
838.97	3059.67
839.14	2930.64
839.31	3463.12
839.48	3571.66
839.65	3004.37
839.82	3121.10
839.99	3538.89
840.16	3452.88
840.33	2963.41
840.50	3090.38
840.67	3266.51
840.84	2928.60
841.01	2987.99
841.18	2987.99
841.35	3368.91
841.52	3545.03
841.69	3364.81
841.86	3053.52
842.03	3471.31
842.20	3592.14
842.37	3033.04
842.54	3106.77
842.71	3383.24
842.88	3129.30
843.05	2998.23
843.22	3100.62
843.39	3680.20
843.56	3254.22
843.73	3051.47
843.90	3071.95
844.07	3491.79
844.24	3518.41
844.41	3065.81
844.58	3090.38
844.75	3463.12
844.92	3518.41
845.09	3024.85
845.26	2973.65
845.43	3594.19
845.60	3286.99
845.77	3119.06
845.94	3106.77
846.10	3532.75
846.27	3170.26
846.44	2901.97
846.61	2918.36
846.78	3592.14
846.95	3602.38
847.12	2930.64
847.29	3055.57
847.46	3248.08
847.63	3629.00
847.80	2889.68
847.97	3082.19
848.14	4032.45
848.31	3432.40
848.48	2899.92
848.65	2983.89
848.82	3327.95
848.98	4009.92
849.15	3168.21
849.32	3108.82
849.49	3624.90
849.66	3348.43
849.83	2936.79
850.00	3014.61
850.17	3516.36
850.34	3364.81
850.51	2955.22
850.68	3063.76
850.85	3983.30
851.01	3416.01
851.18	2930.64
851.35	3043.28
851.52	3506.12
851.69	3753.93
851.86	3028.95
852.03	2973.65
852.20	3614.66
852.37	3327.95
852.53	2844.63
852.70	2879.44
852.87	3473.36
853.04	3553.23
853.21	2994.13
853.38	3291.09
853.55	3770.31
853.72	3749.83
853.89	2887.64
854.05	2924.50
854.22	3405.77
854.39	3411.92
854.56	3012.56
854.73	3198.93
854.90	3205.07
855.07	3434.44
855.23	2934.74
855.40	2928.60
855.57	3399.63
855.74	3030.99
855.91	3250.13
856.08	2887.64
856.25	3149.78
856.41	3221.45
856.58	3080.14
856.75	2961.36
856.92	3180.50
857.09	3661.77
857.26	2856.92
857.42	3078.10
857.59	3606.47
857.76	3354.57
857.93	3043.28
858.10	3045.33
858.27	3192.78
858.43	3454.92
858.60	3055.57
858.77	2889.68
858.94	3323.85
859.11	3649.48
859.27	3153.87
859.44	2961.36
859.61	3911.62
859.78	3540.94
859.95	2975.70
860.12	2846.68
860.28	3977.16
860.45	3829.70
860.62	2918.36
860.79	3094.48
860.95	3336.14
861.12	3286.99
861.29	2838.48
861.46	2951.12
861.63	3385.29
861.79	3385.29
861.96	2861.01
862.13	3008.47
862.30	3672.01
862.47	3289.04
862.63	2887.64
862.80	3149.78
862.97	3618.76
863.14	3473.36
863.30	3012.56
863.47	2914.26
863.64	3899.33
863.81	3442.64
863.97	2881.49
864.14	3074.00
864.31	3342.28
864.48	3520.46
864.65	3028.95
864.81	3080.14
864.98	3602.38
865.15	3643.34
865.32	3082.19
865.48	3112.91
865.65	3766.21
865.82	3319.76
865.98	3178.45
866.15	3028.95
866.32	3301.33
866.49	3354.57
866.65	3153.87
866.82	3065.81
866.99	3442.64
867.16	3389.39
867.32	3084.24
867.49	2942.93
867.66	3315.66
867.83	3321.81
867.99	2897.88
868.16	3112.91
868.33	3182.54
868.49	3354.57
868.66	3147.73
868.83	3090.38
868.99	3426.25
869.16	3493.83
869.33	3205.07
869.50	3166.16
869.66	3459.02
869.83	3342.28
870.00	2938.84
870.16	3223.50
870.33	3362.76
870.50	3581.90
870.66	3110.86
870.83	3047.38
871.00	3438.54
871.17	3606.47
871.33	3084.24
871.50	2885.59
871.67	3344.33
871.83	3143.63
872.00	3067.86
872.17	2973.65
872.33	3805.13
872.50	3712.97
872.67	2928.60
872.83	2949.08
873.00	3524.55
873.17	3430.35
873.33	3041.23
873.50	3016.66
873.67	3295.18
873.83	3215.31
874.00	2994.13
874.16	3223.50
874.33	3489.74
874.50	3223.50
874.66	2912.21
874.83	3178.45
875.00	3704.78
875.16	3657.67
875.33	3086.29
875.50	2811.86
875.66	3397.58
875.83	3397.58
875.99	3051.47
876.16	3172.30
876.33	3200.98
876.49	3422.16
876.66	3106.77
876.83	3074.00
876.99	3106.77
877.16	3463.12
877.32	2998.23
877.49	3102.67
877.66	3506.12
877.82	3747.78
877.99	3045.33
878.15	3280.85
878.32	3434.44
878.49	3442.64
878.65	3123.15
878.82	3389.39
878.98	3274.70
879.15	3581.90
879.32	3233.74
879.48	3213.26
879.65	3452.88
879.81	3375.05
879.98	3129.30
880.15	3135.44
880.31	3639.24
880.48	3209.17
880.64	3147.73
880.81	3114.96
880.97	3876.80
881.14	3688.39
881.31	3000.27
881.47	3166.16
881.64	3436.49
881.80	3119.06
881.97	3272.65
882.13	3057.62
882.30	3219.41
882.47	3381.20
882.63	3018.71
882.80	3033.04
882.96	3303.37
883.13	3590.09
883.29	3078.10
883.46	2992.08
883.62	3952.58
883.79	3469.26
883.95	3211.22
884.12	2985.94
884.29	3579.85
884.45	3430.35
884.62	2983.89
884.78	3053.52
884.95	3852.23
885.11	3184.59
885.28	3098.58
885.44	3000.27
885.61	3620.81
885.77	3786.69
885.94	3209.17
886.10	3129.30
886.27	3450.83
886.43	3764.17
886.60	3213.26
886.76	3035.09
886.93	3256.27
887.09	3526.60
887.26	2887.64
887.42	3084.24
887.59	3657.67
887.75	3909.57
887.92	3307.47
888.08	3205.07
888.25	3819.46
888.41	3573.71
888.58	3178.45
888.74	2918.36
888.91	3332.05
>>>>>End Processed Spectral Data<<<<<
