SpectraSuite Data File
++++++++++++++++++++++++++++++++++++
Date: Fri May 06 09:28:32 CEST 2016
User: root
Dark Spectrum Present: No
Reference Spectrum Present: No
Number of Sampled Component Spectra: 1
Spectrometers: USB4C02835
Integration Time (usec): 100000 (USB4C02835)
Spectra Averaged: 1 (USB4C02835)
Boxcar Smoothing: 0 (USB4C02835)
Correct for Electrical Dark: No (USB4C02835)
Strobe/Lamp Enabled: No (USB4C02835)
Correct for Detector Non-linearity: No (USB4C02835)
Correct for Stray Light: No (USB4C02835)
Number of Pixels in Processed Spectrum: 3648
>>>>>Begin Processed Spectral Data<<<<<
177.47	2283.49
177.69	2283.49
177.91	2283.49
178.13	2353.12
178.36	2320.35
178.58	3170.26
178.80	3282.89
179.02	3176.40
179.24	3168.21
179.46	2766.81
179.68	2953.17
179.90	3416.01
180.13	3479.50
180.35	2836.44
180.57	2879.44
180.79	3563.47
181.01	3377.10
181.23	3002.32
181.45	3157.97
181.67	3631.05
181.90	3573.71
182.12	3123.15
182.34	2830.29
182.56	3518.41
182.78	3563.47
183.00	2930.64
183.22	2977.75
183.44	3160.02
183.66	4106.18
183.89	3127.25
184.11	2975.70
184.33	3647.43
184.55	3723.21
184.77	2906.07
184.99	2975.70
185.21	3407.82
185.43	4022.21
185.65	2938.84
185.87	2987.99
186.10	3930.05
186.32	3952.58
186.54	3117.01
186.76	3086.29
186.98	3655.62
187.20	3399.63
187.42	2971.60
187.64	2951.12
187.86	3559.37
188.08	3624.90
188.30	2895.83
188.52	3049.43
188.75	3717.06
188.97	3792.84
189.19	2975.70
189.41	2938.84
189.63	3547.08
189.85	3368.91
190.07	2838.48
190.29	2863.06
190.51	3547.08
190.73	3190.74
190.95	3246.03
191.17	2969.55
191.39	3092.43
191.61	3442.64
191.84	2938.84
192.06	3125.20
192.28	3106.77
192.50	4118.47
192.72	3131.34
192.94	2985.94
193.16	3719.11
193.38	3590.09
193.60	2916.31
193.82	3180.50
194.04	3600.33
194.26	3491.79
194.48	3008.47
194.70	3049.43
194.92	3338.19
195.14	3602.38
195.36	2969.55
195.58	3018.71
195.80	3385.29
196.02	3286.99
196.24	2926.55
196.46	3006.42
196.69	3321.81
196.91	3995.59
197.13	2914.26
197.35	2928.60
197.57	3741.64
197.79	3614.66
198.01	3051.47
198.23	2930.64
198.45	3624.90
198.67	3272.65
198.89	2836.44
199.11	3084.24
199.33	3340.24
199.55	2963.41
199.77	2904.02
199.99	3041.23
200.21	3364.81
200.43	3547.08
200.65	2811.86
200.87	2871.25
201.09	3387.34
201.31	3370.96
201.53	2953.17
201.75	3037.14
201.97	3534.79
202.19	3452.88
202.41	3104.72
202.63	3016.66
202.85	3557.32
203.07	3575.75
203.29	3010.51
203.51	2924.50
203.73	3289.04
203.95	4063.17
204.17	2975.70
204.39	3092.43
204.61	3448.78
204.83	3344.33
205.05	3106.77
205.27	2979.79
205.49	4046.79
205.71	3461.07
205.93	2914.26
206.15	2846.68
206.37	3545.03
206.59	3409.87
206.81	2781.14
207.03	2805.72
207.25	3229.65
207.47	3624.90
207.69	2959.31
207.91	3205.07
208.13	3803.08
208.34	3352.52
208.56	2963.41
208.78	3028.95
209.00	3504.07
209.22	3381.20
209.44	3033.04
209.66	2942.93
209.88	3526.60
210.10	3391.44
210.32	2938.84
210.54	2967.51
210.76	3428.30
210.98	3594.19
211.20	2797.53
211.42	3002.32
211.64	3819.46
211.86	3596.23
212.08	3047.38
212.30	3026.90
212.52	3387.34
212.74	3489.74
212.96	3092.43
213.17	3074.00
213.39	3614.66
213.61	3774.41
213.83	2893.78
214.05	2822.10
214.27	3647.43
214.49	3248.08
214.71	2897.88
214.93	3049.43
215.15	3508.17
215.37	3647.43
215.59	2850.77
215.81	3051.47
216.03	3778.50
216.24	3491.79
216.46	2949.08
216.68	3020.75
216.90	3672.01
217.12	3661.77
217.34	2865.11
217.56	3184.59
217.78	3745.73
218.00	3590.09
218.22	3100.62
218.44	3092.43
218.66	3446.73
218.87	3815.37
219.09	3020.75
219.31	2910.16
219.53	3581.90
219.75	3422.16
219.97	3035.09
220.19	2959.31
220.41	3438.54
220.63	3710.92
220.85	2934.74
221.06	2987.99
221.28	3790.79
221.50	3655.62
221.72	2934.74
221.94	2877.40
222.16	3475.40
222.38	3635.14
222.60	2975.70
222.82	2998.23
223.03	3610.57
223.25	3194.83
223.47	2990.03
223.69	3198.93
223.91	3606.47
224.13	3551.18
224.35	2836.44
224.57	3114.96
224.78	3676.10
225.00	3336.14
225.22	3094.48
225.44	2944.98
225.66	3547.08
225.88	3338.19
226.10	3131.34
226.32	2877.40
226.53	3813.32
226.75	3366.86
226.97	3049.43
227.19	2957.27
227.41	3282.89
227.63	3311.57
227.85	2658.26
228.06	3051.47
228.28	3432.40
228.50	3700.68
228.72	2828.24
228.94	2901.97
229.16	3061.71
229.37	3225.55
229.59	2856.92
229.81	3264.46
230.03	3319.76
230.25	3182.54
230.47	2766.81
230.69	2985.94
230.90	3614.66
231.12	3254.22
231.34	3084.24
231.56	2944.98
231.78	3233.74
232.00	3413.96
232.21	3037.14
232.43	3026.90
232.65	2965.46
232.87	3510.22
233.09	2822.10
233.30	2910.16
233.52	3684.30
233.74	3452.88
233.96	2904.02
234.18	3229.65
234.40	3489.74
234.61	3995.59
234.83	2922.45
235.05	2871.25
235.27	4077.51
235.49	3698.63
235.70	2877.40
235.92	2959.31
236.14	3459.02
236.36	4040.64
236.58	2846.68
236.79	3024.85
237.01	3409.87
237.23	3506.12
237.45	3221.45
237.67	2930.64
237.88	3573.71
238.10	3909.57
238.32	2871.25
238.54	3002.32
238.76	3430.35
238.97	3286.99
239.19	2858.96
239.41	2990.03
239.63	3676.10
239.85	3368.91
240.06	2951.12
240.28	2985.94
240.50	3790.79
240.72	3461.07
240.93	2885.59
241.15	3194.83
241.37	3377.10
241.59	3766.21
241.81	2992.08
242.02	3110.86
242.24	3399.63
242.46	3618.76
242.68	2764.76
242.89	2904.02
243.11	3680.20
243.33	3420.11
243.55	2975.70
243.76	3012.56
243.98	3368.91
244.20	3495.88
244.42	3020.75
244.64	2885.59
244.85	3131.34
245.07	3184.59
245.29	2893.78
245.51	2992.08
245.72	3518.41
245.94	3633.10
246.16	2926.55
246.38	3055.57
246.59	3356.62
246.81	3286.99
247.03	2791.38
247.24	2875.35
247.46	3368.91
247.68	3518.41
247.90	2920.40
248.11	2996.18
248.33	3626.95
248.55	3536.84
248.77	2985.94
248.98	3096.53
249.20	3819.46
249.42	3471.31
249.64	2987.99
249.85	2957.27
250.07	3336.14
250.29	3606.47
250.50	3000.27
250.72	2822.10
250.94	3540.94
251.16	3993.54
251.37	3041.23
251.59	3119.06
251.81	3575.75
252.02	3827.65
252.24	2891.73
252.46	3123.15
252.68	3250.13
252.89	3334.09
253.11	2793.43
253.33	3184.59
253.54	3809.22
253.76	3205.07
253.98	2975.70
254.20	2944.98
254.41	3203.02
254.63	3444.68
254.85	2861.01
255.06	3094.48
255.28	3590.09
255.50	3450.83
255.71	2877.40
255.93	2762.71
256.15	3450.83
256.36	3608.52
256.58	2846.68
256.80	2842.58
257.02	3379.15
257.23	3368.91
257.45	2928.60
257.67	3114.96
257.88	3248.08
258.10	3575.75
258.32	2901.97
258.53	3028.95
258.75	3801.03
258.97	3278.80
259.18	2813.91
259.40	2918.36
259.62	3803.08
259.83	3764.17
260.05	2987.99
260.27	3905.48
260.48	3649.48
260.70	3176.40
260.92	2779.09
261.13	3000.27
261.35	3549.13
261.57	3557.32
261.78	2869.20
262.00	2910.16
262.22	3514.31
262.43	3260.37
262.65	2981.84
262.86	2985.94
263.08	3997.64
263.30	3426.25
263.51	2787.29
263.73	2969.55
263.95	3854.28
264.16	3309.52
264.38	2830.29
264.60	2844.63
264.81	3397.58
265.03	3737.54
265.25	3565.51
265.46	2947.03
265.68	3717.06
265.89	3590.09
266.11	2836.44
266.33	2901.97
266.54	3686.34
266.76	3557.32
266.98	3082.19
267.19	3157.97
267.41	3622.86
267.62	3327.95
267.84	2729.94
268.06	3104.72
268.27	3485.64
268.49	3758.02
268.70	3071.95
268.92	2942.93
269.14	3334.09
269.35	3196.88
269.57	3092.43
269.79	3053.52
270.00	3317.71
270.22	3827.65
270.43	2832.34
270.65	2887.64
270.87	3471.31
271.08	3622.86
271.30	3114.96
271.51	2977.75
271.73	3631.05
271.95	3796.93
272.16	2861.01
272.38	3119.06
272.59	3391.44
272.81	3600.33
273.02	2934.74
273.24	3106.77
273.46	3690.44
273.67	3205.07
273.89	2836.44
274.10	2965.46
274.32	3827.65
274.54	3467.21
274.75	3076.05
274.97	3145.68
275.18	3647.43
275.40	3610.57
275.61	2959.31
275.83	3205.07
276.05	3164.11
276.26	3397.58
276.48	3053.52
276.69	3090.38
276.91	3330.00
277.12	3774.41
277.34	3108.82
277.55	3215.31
277.77	3508.17
277.99	3385.29
278.20	3104.72
278.42	3016.66
278.63	3321.81
278.85	3184.59
279.06	3063.76
279.28	3258.32
279.49	3680.20
279.71	3612.62
279.93	3078.10
280.14	3121.10
280.36	3243.98
280.57	3696.58
280.79	3215.31
281.00	2979.79
281.22	3243.98
281.43	3682.25
281.65	2869.20
281.86	3002.32
282.08	3502.03
282.29	3866.56
282.51	2830.29
282.73	2979.79
282.94	3069.91
283.16	3610.57
283.37	3110.86
283.59	3076.05
283.80	3561.42
284.02	3446.73
284.23	3108.82
284.45	3125.20
284.66	3289.04
284.88	3278.80
285.09	3000.27
285.31	3221.45
285.52	3585.99
285.74	3205.07
285.95	3258.32
286.17	3078.10
286.38	3678.15
286.60	3346.38
286.81	2992.08
287.03	3065.81
287.24	3342.28
287.46	3571.66
287.67	3190.74
287.89	3270.61
288.10	3491.79
288.32	3536.84
288.53	3295.18
288.75	3172.30
288.96	3585.99
289.18	3286.99
289.39	3008.47
289.61	3131.34
289.82	3964.87
290.04	3938.24
290.25	3020.75
290.47	3149.78
290.68	3411.92
290.90	3657.67
291.11	2858.96
291.33	3227.60
291.54	3233.74
291.76	3246.03
291.97	3274.70
292.18	3192.78
292.40	3315.66
292.61	3258.32
292.83	3446.73
293.04	3139.54
293.26	3477.45
293.47	3403.72
293.69	3035.09
293.90	2930.64
294.12	3794.89
294.33	3491.79
294.55	3162.06
294.76	3366.86
294.97	3792.84
295.19	3919.81
295.40	3049.43
295.62	3227.60
295.83	3690.44
296.05	3221.45
296.26	3352.52
296.48	3035.09
296.69	3461.07
296.90	3418.06
297.12	3241.93
297.33	3248.08
297.55	3504.07
297.76	3450.83
297.98	3168.21
298.19	3295.18
298.41	3401.68
298.62	3272.65
298.83	3366.86
299.05	3221.45
299.26	3385.29
299.48	3207.12
299.69	3155.92
299.90	3000.27
300.12	3205.07
300.33	3610.57
300.55	3237.84
300.76	3237.84
300.98	3256.27
301.19	3577.80
301.40	3188.69
301.62	3024.85
301.83	3573.71
302.05	3493.83
302.26	3063.76
302.47	3205.07
302.69	3213.26
302.90	3456.97
303.12	2975.70
303.33	3241.93
303.54	3919.81
303.76	3307.47
303.97	2967.51
304.19	3338.19
304.40	3221.45
304.61	3583.95
304.83	3217.36
305.04	3133.39
305.26	3588.04
305.47	3330.00
305.68	3084.24
305.90	3041.23
306.11	3741.64
306.33	3409.87
306.54	2930.64
306.75	3078.10
306.97	3190.74
307.18	3246.03
307.39	3149.78
307.61	3174.35
307.82	3407.82
308.04	3508.17
308.25	2965.46
308.46	3286.99
308.68	3446.73
308.89	3465.16
309.10	3186.64
309.32	3190.74
309.53	3428.30
309.74	3575.75
309.96	2981.84
310.17	3200.98
310.39	3297.23
310.60	3577.80
310.81	3094.48
311.03	3000.27
311.24	3596.23
311.45	3434.44
311.67	3305.42
311.88	3227.60
312.09	3352.52
312.31	3360.72
312.52	3033.04
312.73	3067.86
312.95	3123.15
313.16	3235.79
313.37	3266.51
313.59	3258.32
313.80	3731.40
314.01	3801.03
314.23	3080.14
314.44	3043.28
314.65	3172.30
314.87	3258.32
315.08	3084.24
315.29	3164.11
315.51	3213.26
315.72	3129.30
315.93	3108.82
316.15	3125.20
316.36	3301.33
316.57	3518.41
316.79	3012.56
317.00	3067.86
317.21	3633.10
317.43	3370.96
317.64	3143.63
317.85	3000.27
318.07	3276.75
318.28	3430.35
318.49	3151.82
318.70	3319.76
318.92	3463.12
319.13	3516.36
319.34	3235.79
319.56	3049.43
319.77	3493.83
319.98	3653.58
320.20	3450.83
320.41	3268.56
320.62	3573.71
320.83	3205.07
321.05	3364.81
321.26	3133.39
321.47	3475.40
321.69	3676.10
321.90	3041.23
322.11	3016.66
322.32	3469.26
322.54	3790.79
322.75	3102.67
322.96	4265.92
323.18	3061.71
323.39	3076.05
323.60	2961.36
323.81	3200.98
324.03	3346.38
324.24	3438.54
324.45	3264.46
324.66	2977.75
324.88	3792.84
325.09	3792.84
325.30	3059.67
325.52	3035.09
325.73	3573.71
325.94	3200.98
326.15	3016.66
326.37	2838.48
326.58	3622.86
326.79	3827.65
327.00	3094.48
327.22	3123.15
327.43	3375.05
327.64	3297.23
327.85	3291.09
328.07	3133.39
328.28	3936.20
328.49	3325.90
328.70	3084.24
328.92	3084.24
329.13	3389.39
329.34	3516.36
329.55	3356.62
329.76	3256.27
329.98	3420.11
330.19	3737.54
330.40	3135.44
330.61	3231.69
330.83	3551.18
331.04	3258.32
331.25	3143.63
331.46	3129.30
331.68	3196.88
331.89	3688.39
332.10	3168.21
332.31	3041.23
332.52	3438.54
332.74	3653.58
332.95	2969.55
333.16	3057.62
333.37	3616.71
333.58	3327.95
333.80	3084.24
334.01	2936.79
334.22	3491.79
334.43	3235.79
334.64	3078.10
334.86	3076.05
335.07	3286.99
335.28	3688.39
335.49	2971.60
335.70	3131.34
335.92	3774.41
336.13	3934.15
336.34	3106.77
336.55	3057.62
336.76	3547.08
336.98	3020.75
337.19	3098.58
337.40	3205.07
337.61	3979.20
337.82	3377.10
338.04	3151.82
338.25	2961.36
338.46	3438.54
338.67	3411.92
338.88	3074.00
339.09	3051.47
339.31	3313.61
339.52	3205.07
339.73	3043.28
339.94	3117.01
340.15	3508.17
340.36	3426.25
340.58	3186.64
340.79	2985.94
341.00	3555.27
341.21	3213.26
341.42	3430.35
341.63	3084.24
341.85	3585.99
342.06	3485.64
342.27	3041.23
342.48	3270.61
342.69	3157.97
342.90	3526.60
343.12	3573.71
343.33	3000.27
343.54	3667.91
343.75	3743.69
343.96	3217.36
344.17	3010.51
344.38	3510.22
344.60	3196.88
344.81	3049.43
345.02	3018.71
345.23	3651.53
345.44	4036.55
345.65	3137.49
345.86	3254.22
346.07	3506.12
346.29	3246.03
346.50	3315.66
346.71	3137.49
346.92	3710.92
347.13	3829.70
347.34	3250.13
347.55	3057.62
347.76	3532.75
347.98	3141.58
348.19	3102.67
348.40	3246.03
348.61	3368.91
348.82	3706.82
349.03	3223.50
349.24	2963.41
349.45	3864.52
349.66	3008.47
349.88	3123.15
350.09	3018.71
350.30	3755.97
350.51	3819.46
350.72	3346.38
350.93	3092.43
351.14	3340.24
351.35	3479.50
351.56	3196.88
351.77	3067.86
351.99	3594.19
352.20	3712.97
352.41	3147.73
352.62	2977.75
352.83	3407.82
353.04	3282.89
353.25	3114.96
353.46	3164.11
353.67	3647.43
353.88	3086.29
354.09	2998.23
354.30	3162.06
354.52	3686.34
354.73	3319.76
354.94	3123.15
355.15	3215.31
355.36	3856.33
355.57	3235.79
355.78	3022.80
355.99	3160.02
356.20	3377.10
356.41	3749.83
356.62	3147.73
356.83	3121.10
357.04	3635.14
357.25	3082.19
357.46	3037.14
357.68	2961.36
357.89	3227.60
358.10	3436.49
358.31	3092.43
358.52	3067.86
358.73	3203.02
358.94	3225.55
359.15	3164.11
359.36	3178.45
359.57	3522.51
359.78	3491.79
359.99	3284.94
360.20	3039.19
360.41	3334.09
360.62	3596.23
360.83	3155.92
361.04	3235.79
361.25	3551.18
361.46	3815.37
361.67	3190.74
361.88	3061.71
362.09	3682.25
362.30	3518.41
362.51	3102.67
362.72	3082.19
362.93	3649.48
363.14	3600.33
363.35	3229.65
363.56	2979.79
363.78	3618.76
363.99	3700.68
364.20	3127.25
364.41	3182.54
364.62	3815.37
364.83	3518.41
365.04	3129.30
365.25	3213.26
365.46	3911.62
365.67	3295.18
365.88	3270.61
366.09	3030.99
366.30	3274.70
366.51	3493.83
366.72	3024.85
366.93	3016.66
367.14	3514.31
367.35	3794.89
367.56	3033.04
367.77	3164.11
367.98	3409.87
368.18	3612.62
368.39	3254.22
368.60	2959.31
368.81	3497.93
369.02	3518.41
369.23	3133.39
369.44	2979.79
369.65	3385.29
369.86	3559.37
370.07	3225.55
370.28	2963.41
370.49	3598.28
370.70	3516.36
370.91	2987.99
371.12	3047.38
371.33	3702.73
371.54	3297.23
371.75	3170.26
371.96	2873.30
372.17	3452.88
372.38	3459.02
372.59	3151.82
372.80	3030.99
373.01	3309.52
373.22	3475.40
373.43	3110.86
373.64	2975.70
373.85	3721.16
374.06	3819.46
374.26	3399.63
374.47	3241.93
374.68	3794.89
374.89	3489.74
375.10	3051.47
375.31	3133.39
375.52	3461.07
375.73	3463.12
375.94	2926.55
376.15	3203.02
376.36	3254.22
376.57	3354.57
376.78	3180.50
376.99	3186.64
377.20	3778.50
377.40	3373.00
377.61	3385.29
377.82	3057.62
378.03	3760.07
378.24	3540.94
378.45	3190.74
378.66	3084.24
378.87	3084.24
379.08	3186.64
379.29	3137.49
379.50	3149.78
379.71	3375.05
379.91	3696.58
380.12	3067.86
380.33	3211.22
380.54	3407.82
380.75	3340.24
380.96	3160.02
381.17	3039.19
381.38	3391.44
381.59	3399.63
381.80	3135.44
382.00	3303.37
382.21	3493.83
382.42	3839.94
382.63	3549.13
382.84	3286.99
383.05	3667.91
383.26	3698.63
383.47	3252.17
383.68	3117.01
383.88	3579.85
384.09	3454.92
384.30	3366.86
384.51	3182.54
384.72	3426.25
384.93	3223.50
385.14	3188.69
385.35	3387.34
385.55	3133.39
385.76	3766.21
385.97	3080.14
386.18	2967.51
386.39	3342.28
386.60	3284.94
386.81	3086.29
387.02	3026.90
387.22	3131.34
387.43	3616.71
387.64	3147.73
387.85	3305.42
388.06	3440.59
388.27	4413.37
388.48	7268.24
388.68	10917.72
388.89	13690.67
389.10	14579.49
389.31	14389.03
389.52	11644.75
389.73	10256.23
389.93	9484.14
390.14	8533.89
390.35	7942.02
390.56	7458.70
390.77	6207.39
390.98	4704.18
391.18	4089.79
391.39	4050.88
391.60	3522.51
391.81	3301.33
392.02	3213.26
392.23	3844.04
392.43	3516.36
392.64	3223.50
392.85	3182.54
393.06	3887.04
393.27	3385.29
393.47	3194.83
393.68	3168.21
393.89	3344.33
394.10	3665.86
394.31	3182.54
394.52	3125.20
394.72	3360.72
394.93	3780.55
395.14	3080.14
395.35	3225.55
395.56	3280.85
395.76	3418.06
395.97	3078.10
396.18	3291.09
396.39	3354.57
396.60	4020.16
396.80	3504.07
397.01	3364.81
397.22	3585.99
397.43	3655.62
397.64	3059.67
397.84	3162.06
398.05	3835.85
398.26	3381.20
398.47	3286.99
398.67	3428.30
398.88	3516.36
399.09	3651.53
399.30	3125.20
399.51	3168.21
399.71	3327.95
399.92	3461.07
400.13	3252.17
400.34	3102.67
400.54	3491.79
400.75	3778.50
400.96	3131.34
401.17	3465.16
401.37	3610.57
401.58	3297.23
401.79	3149.78
402.00	3246.03
402.21	3975.11
402.41	3571.66
402.62	3336.14
402.83	3534.79
403.04	3784.65
403.24	4261.82
403.45	3274.70
403.66	3428.30
403.87	3731.40
404.07	3753.93
404.28	3442.64
404.49	3409.87
404.70	3551.18
404.90	3561.42
405.11	3129.30
405.32	3286.99
405.52	3344.33
405.73	3264.46
405.94	3096.53
406.15	3174.35
406.35	3659.72
406.56	3665.86
406.77	3133.39
406.98	3084.24
407.18	3311.57
407.39	3704.78
407.60	3114.96
407.80	3190.74
408.01	3360.72
408.22	3635.14
408.43	3051.47
408.63	3295.18
408.84	3614.66
409.05	3604.42
409.25	3008.47
409.46	3254.22
409.67	3315.66
409.88	3393.48
410.08	3178.45
410.29	3182.54
410.50	3647.43
410.70	3553.23
410.91	3074.00
411.12	3221.45
411.32	3502.03
411.53	3209.17
411.74	3184.59
411.95	3274.70
412.15	3448.78
412.36	3620.81
412.57	3352.52
412.77	3295.18
412.98	3444.68
413.19	3336.14
413.39	3172.30
413.60	3203.02
413.81	3770.31
414.01	3256.27
414.22	3184.59
414.43	3387.34
414.63	3289.04
414.84	3561.42
415.05	3243.98
415.25	3033.04
415.46	3651.53
415.67	3311.57
415.87	3184.59
416.08	3125.20
416.29	3373.00
416.49	3475.40
416.70	3211.22
416.91	3098.58
417.11	3397.58
417.32	3686.34
417.53	3227.60
417.73	3237.84
417.94	3405.77
418.15	3385.29
418.35	3172.30
418.56	3166.16
418.77	3940.29
418.97	3424.20
419.18	3233.74
419.38	2904.02
419.59	3391.44
419.80	3837.89
420.00	3106.77
420.21	3180.50
420.42	3647.43
420.62	3469.26
420.83	3123.15
421.04	3082.19
421.24	3450.83
421.45	3483.59
421.65	3166.16
421.86	3149.78
422.07	3604.42
422.27	3598.28
422.48	3067.86
422.69	2922.45
422.89	3516.36
423.10	3375.05
423.30	3084.24
423.51	3229.65
423.72	3565.51
423.92	3600.33
424.13	3092.43
424.33	3280.85
424.54	3590.09
424.75	3356.62
424.95	3475.40
425.16	3110.86
425.36	3401.68
425.57	3661.77
425.78	3215.31
425.98	3264.46
426.19	3356.62
426.39	3227.60
426.60	3215.31
426.81	3266.51
427.01	3495.88
427.22	3297.23
427.42	3049.43
427.63	3119.06
427.83	3667.91
428.04	3899.33
428.25	3207.12
428.45	3303.37
428.66	3780.55
428.86	3446.73
429.07	3176.40
429.28	3184.59
429.48	3426.25
429.69	3321.81
429.89	3278.80
430.10	3123.15
430.30	3583.95
430.51	3696.58
430.71	3174.35
430.92	3239.89
431.13	3289.04
431.33	3573.71
431.54	3301.33
431.74	3364.81
431.95	3880.90
432.15	3166.16
432.36	3131.34
432.56	3180.50
432.77	3909.57
432.98	3852.23
433.18	3200.98
433.39	2926.55
433.59	3440.59
433.80	3917.76
434.00	3301.33
434.21	3223.50
434.41	3344.33
434.62	3995.59
434.82	2967.51
435.03	3041.23
435.23	3518.41
435.44	3145.68
435.64	3082.19
435.85	3178.45
436.06	3674.06
436.26	3704.78
436.47	3168.21
436.67	3137.49
436.88	3413.96
437.08	3712.97
437.29	3313.61
437.49	3246.03
437.70	3682.25
437.90	3411.92
438.11	3393.48
438.31	3186.64
438.52	3690.44
438.72	3749.83
438.93	3491.79
439.13	3266.51
439.34	3540.94
439.54	3342.28
439.75	3309.52
439.95	3233.74
440.16	3274.70
440.36	3459.02
440.57	3217.36
440.77	3196.88
440.98	3418.06
441.18	3575.75
441.39	3086.29
441.59	3082.19
441.80	3968.96
442.00	3471.31
442.21	3297.23
442.41	2992.08
442.62	3698.63
442.82	3348.43
443.02	3180.50
443.23	3213.26
443.43	3344.33
443.64	3659.72
443.84	3018.71
444.05	3229.65
444.25	3440.59
444.46	3295.18
444.66	3094.48
444.87	3477.45
445.07	3082.19
445.28	3338.19
445.48	3252.17
445.69	3198.93
445.89	4118.47
446.09	3330.00
446.30	3459.02
446.50	3545.03
446.71	4972.47
446.91	6045.60
447.12	6797.21
447.32	7301.01
447.53	7397.26
447.73	6266.78
447.93	5318.57
448.14	5212.08
448.34	5392.30
448.55	4401.08
448.75	4376.51
448.96	4089.79
449.16	4089.79
449.36	4106.18
449.57	3475.40
449.77	3293.13
449.98	3397.58
450.18	3581.90
450.39	3074.00
450.59	3330.00
450.79	3418.06
451.00	3286.99
451.20	3366.86
451.41	3172.30
451.61	3475.40
451.81	3467.21
452.02	3121.10
452.22	3213.26
452.43	3278.80
452.63	3268.56
452.84	3155.92
453.04	3094.48
453.24	3485.64
453.45	3303.37
453.65	3225.55
453.86	3172.30
454.06	3467.21
454.26	3491.79
454.47	3147.73
454.67	3407.82
454.87	3504.07
455.08	3280.85
455.28	3262.41
455.49	3330.00
455.69	3293.13
455.89	3788.74
456.10	3209.17
456.30	3082.19
456.51	3579.85
456.71	3448.78
456.91	3268.56
457.12	3178.45
457.32	3545.03
457.52	3194.83
457.73	3295.18
457.93	3336.14
458.14	3291.09
458.34	3043.28
458.54	3256.27
458.75	3094.48
458.95	3766.21
459.15	3532.75
459.36	3278.80
459.56	3162.06
459.76	3917.76
459.97	3516.36
460.17	3168.21
460.37	3223.50
460.58	3508.17
460.78	3540.94
460.99	3166.16
461.19	3205.07
461.39	3307.47
461.60	3368.91
461.80	3194.83
462.00	3119.06
462.21	3377.10
462.41	3223.50
462.61	3018.71
462.82	2910.16
463.02	3508.17
463.22	3469.26
463.43	3184.59
463.63	3082.19
463.83	3823.56
464.04	3528.65
464.24	3139.54
464.44	3172.30
464.64	3557.32
464.85	3442.64
465.05	3223.50
465.25	3114.96
465.46	3293.13
465.66	3540.94
465.86	3299.28
466.07	3117.01
466.27	3413.96
466.47	3076.05
466.68	2990.03
466.88	3362.76
467.08	3581.90
467.29	3643.34
467.49	3190.74
467.69	3354.57
467.89	3532.75
468.10	3442.64
468.30	3330.00
468.50	3256.27
468.71	3608.52
468.91	3108.82
469.11	3313.61
469.31	3286.99
469.52	3276.75
469.72	3807.17
469.92	3418.06
470.13	3243.98
470.33	3413.96
470.53	3436.49
470.73	3561.42
470.94	3889.09
471.14	4067.27
471.34	4548.54
471.54	4179.90
471.75	3876.80
471.95	3690.44
472.15	3737.54
472.36	3686.34
472.56	3485.64
472.76	3966.92
472.96	3805.13
473.17	3420.11
473.37	3254.22
473.57	3440.59
473.77	3510.22
473.98	3289.04
474.18	3102.67
474.38	4190.14
474.58	3387.34
474.79	2969.55
474.99	3315.66
475.19	3602.38
475.39	3211.22
475.60	3231.69
475.80	3074.00
476.00	3549.13
476.20	3418.06
476.41	3188.69
476.61	3284.94
476.81	3807.17
477.01	3293.13
477.21	3557.32
477.42	3303.37
477.62	3207.12
477.82	3647.43
478.02	3104.72
478.23	3174.35
478.43	3153.87
478.63	3344.33
478.83	3151.82
479.03	3239.89
479.24	3766.21
479.44	3919.81
479.64	3069.91
479.84	3035.09
480.04	3393.48
480.25	3608.52
480.45	3162.06
480.65	3067.86
480.85	3837.89
481.06	3241.93
481.26	3295.18
481.46	3127.25
481.66	3551.18
481.86	3286.99
482.06	3373.00
482.27	3215.31
482.47	3401.68
482.67	3487.69
482.87	3237.84
483.07	3248.08
483.28	3323.85
483.48	3178.45
483.68	3164.11
483.88	3094.48
484.08	3033.04
484.29	3188.69
484.49	3297.23
484.69	3018.71
484.89	3794.89
485.09	3639.24
485.29	3151.82
485.50	3286.99
485.70	3350.48
485.90	3745.73
486.10	3303.37
486.30	3139.54
486.50	3733.45
486.71	3592.14
486.91	3233.74
487.11	3233.74
487.31	3264.46
487.51	3553.23
487.71	3233.74
487.91	3155.92
488.12	3276.75
488.32	2963.41
488.52	3217.36
488.72	2891.73
488.92	3506.12
489.12	3688.39
489.32	3340.24
489.53	3231.69
489.73	3178.45
489.93	3784.65
490.13	3110.86
490.33	3006.42
490.53	3532.75
490.73	3622.86
490.94	2975.70
491.14	3342.28
491.34	3647.43
491.54	3461.07
491.74	4011.97
491.94	4450.24
492.14	5187.50
492.34	5085.11
492.54	4784.06
492.75	4093.89
492.95	4433.85
493.15	4057.03
493.35	3911.62
493.55	3776.45
493.75	3821.51
493.95	3958.72
494.15	3430.35
494.35	3278.80
494.56	3373.00
494.76	3270.61
494.96	3299.28
495.16	3102.67
495.36	3409.87
495.56	3444.68
495.76	3262.41
495.96	3178.45
496.16	3196.88
496.36	3870.66
496.56	3139.54
496.77	3250.13
496.97	3463.12
497.17	3803.08
497.37	2994.13
497.57	3319.76
497.77	3430.35
497.97	3291.09
498.17	3172.30
498.37	3207.12
498.57	3577.80
498.77	3397.58
498.97	3379.15
499.17	3532.75
499.38	3334.09
499.58	3508.17
499.78	3336.14
499.98	3280.85
500.18	3416.01
500.38	3237.84
500.58	3387.34
500.78	3803.08
500.98	6164.39
501.18	7712.65
501.38	9215.86
501.58	9989.99
501.78	9863.02
501.98	8357.76
502.18	7196.56
502.38	6236.06
502.58	6195.11
502.78	5451.69
502.98	5167.03
503.18	5005.24
503.38	4777.91
503.59	4177.86
503.79	3960.77
503.99	3762.12
504.19	3950.53
504.39	3952.58
504.59	3590.09
504.79	3456.97
504.99	4077.51
505.19	3581.90
505.39	3348.43
505.59	3475.40
505.79	3839.94
505.99	3520.46
506.19	3151.82
506.39	3450.83
506.59	3239.89
506.79	3299.28
506.99	3327.95
507.19	3104.72
507.39	3563.47
507.59	3092.43
507.79	3135.44
507.99	3098.58
508.19	3368.91
508.39	3348.43
508.59	3192.78
508.79	3217.36
508.99	3948.48
509.19	3229.65
509.39	3215.31
509.59	3043.28
509.79	3377.10
509.99	3524.55
510.19	3330.00
510.39	3250.13
510.59	3440.59
510.79	3262.41
510.99	3008.47
511.19	3155.92
511.39	3794.89
511.59	3665.86
511.79	3364.81
511.99	3162.06
512.19	3872.71
512.38	3454.92
512.58	3104.72
512.78	3078.10
512.98	3678.15
513.18	3786.69
513.38	3080.14
513.58	3160.02
513.78	3469.26
513.98	3413.96
514.18	3180.50
514.38	3229.65
514.58	3499.98
514.78	3321.81
514.98	3057.62
515.18	3164.11
515.38	3127.25
515.58	3844.04
515.78	3088.34
515.98	3205.07
516.18	3588.04
516.38	3336.14
516.57	3059.67
516.77	3076.05
516.97	3626.95
517.17	3246.03
517.37	2963.41
517.57	3172.30
517.77	3375.05
517.97	3278.80
518.17	3147.73
518.37	3026.90
518.57	3352.52
518.77	3250.13
518.97	3192.78
519.16	3110.86
519.36	3719.11
519.56	3295.18
519.76	3112.91
519.96	3227.60
520.16	3760.07
520.36	3149.78
520.56	3354.57
520.76	3133.39
520.96	3330.00
521.16	3487.69
521.35	3354.57
521.55	3286.99
521.75	3549.13
521.95	3325.90
522.15	3018.71
522.35	3063.76
522.55	3215.31
522.75	3667.91
522.95	3041.23
523.14	2936.79
523.34	3465.16
523.54	3233.74
523.74	3340.24
523.94	3270.61
524.14	3074.00
524.34	3520.46
524.54	3385.29
524.73	3192.78
524.93	3629.00
525.13	3387.34
525.33	3108.82
525.53	3401.68
525.73	3643.34
525.93	3344.33
526.13	3270.61
526.32	3082.19
526.52	3663.82
526.72	3643.34
526.92	3211.22
527.12	3022.80
527.32	3149.78
527.52	3440.59
527.71	3178.45
527.91	3209.17
528.11	3346.38
528.31	3469.26
528.51	3155.92
528.71	3338.19
528.90	3553.23
529.10	3635.14
529.30	3262.41
529.50	2895.83
529.70	3577.80
529.90	3338.19
530.09	3157.97
530.29	3035.09
530.49	3276.75
530.69	4024.26
530.89	3303.37
531.09	3336.14
531.28	3389.39
531.48	3676.10
531.68	3180.50
531.88	3145.68
532.08	3624.90
532.28	3370.96
532.47	3239.89
532.67	3235.79
532.87	3561.42
533.07	3200.98
533.27	3205.07
533.46	3239.89
533.66	3475.40
533.86	3401.68
534.06	3215.31
534.26	3211.22
534.45	3323.85
534.65	3604.42
534.85	3205.07
535.05	3067.86
535.25	3616.71
535.44	3155.92
535.64	3291.09
535.84	3217.36
536.04	3350.48
536.24	3370.96
536.43	3117.01
536.63	3049.43
536.83	3418.06
537.03	3393.48
537.22	3004.37
537.42	2930.64
537.62	3493.83
537.82	3270.61
538.02	3307.47
538.21	3196.88
538.41	4085.70
538.61	3542.99
538.81	3264.46
539.00	3295.18
539.20	3094.48
539.40	3340.24
539.60	3153.87
539.79	3389.39
539.99	3440.59
540.19	3182.54
540.39	3135.44
540.58	3235.79
540.78	3620.81
540.98	3438.54
541.18	3434.44
541.37	3141.58
541.57	3438.54
541.77	3436.49
541.97	3071.95
542.16	2967.51
542.36	3323.85
542.56	3657.67
542.76	3291.09
542.95	3295.18
543.15	3545.03
543.35	3602.38
543.54	3129.30
543.74	3061.71
543.94	3690.44
544.14	3342.28
544.33	3274.70
544.53	3254.22
544.73	3436.49
544.93	3358.67
545.12	3160.02
545.32	3196.88
545.52	3397.58
545.71	3213.26
545.91	3172.30
546.11	3102.67
546.30	3215.31
546.50	3448.78
546.70	3248.08
546.90	3184.59
547.09	3000.27
547.29	3495.88
547.49	3325.90
547.68	3143.63
547.88	3364.81
548.08	3590.09
548.27	3420.11
548.47	3049.43
548.67	3373.00
548.87	3487.69
549.06	3190.74
549.26	3074.00
549.46	3491.79
549.65	3346.38
549.85	3176.40
550.05	3209.17
550.24	3174.35
550.44	3444.68
550.64	3246.03
550.83	3262.41
551.03	3772.36
551.23	3657.67
551.42	3334.09
551.62	3246.03
551.82	3467.21
552.01	3348.43
552.21	3540.94
552.41	3196.88
552.60	3715.02
552.80	3489.74
553.00	3143.63
553.19	3215.31
553.39	3807.17
553.59	3160.02
553.78	3358.67
553.98	3106.77
554.17	3172.30
554.37	3493.83
554.57	3258.32
554.76	3071.95
554.96	3311.57
555.16	3450.83
555.35	3268.56
555.55	3350.48
555.75	3485.64
555.94	3571.66
556.14	2951.12
556.33	3211.22
556.53	3381.20
556.73	3434.44
556.92	3155.92
557.12	3114.96
557.32	3903.43
557.51	3665.86
557.71	3276.75
557.90	3346.38
558.10	3731.40
558.30	3352.52
558.49	3143.63
558.69	3190.74
558.88	3581.90
559.08	3508.17
559.28	3194.83
559.47	3172.30
559.67	3538.89
559.86	3796.93
560.06	3133.39
560.26	3110.86
560.45	3440.59
560.65	3377.10
560.84	3559.37
561.04	3045.33
561.24	3528.65
561.43	3215.31
561.63	3471.31
561.82	3239.89
562.02	3622.86
562.22	3196.88
562.41	3106.77
562.61	3108.82
562.80	3219.41
563.00	3854.28
563.19	3266.51
563.39	3307.47
563.59	3608.52
563.78	3223.50
563.98	2944.98
564.17	3149.78
564.37	2994.13
564.56	3424.20
564.76	3135.44
564.96	3309.52
565.15	3461.07
565.35	3958.72
565.54	3219.41
565.74	3188.69
565.93	3530.70
566.13	3477.45
566.32	3254.22
566.52	3309.52
566.71	3409.87
566.91	3567.56
567.11	3270.61
567.30	3117.01
567.50	3581.90
567.69	3491.79
567.89	3092.43
568.08	3004.37
568.28	3551.18
568.47	3207.12
568.67	3209.17
568.86	3196.88
569.06	3530.70
569.25	3346.38
569.45	2998.23
569.64	3200.98
569.84	3389.39
570.04	3418.06
570.23	3114.96
570.43	3250.13
570.62	3534.79
570.82	3798.98
571.01	3084.24
571.21	3110.86
571.40	3237.84
571.60	3575.75
571.79	3237.84
571.99	3164.11
572.18	3184.59
572.38	3479.50
572.57	3229.65
572.77	3166.16
572.96	4091.84
573.16	3534.79
573.35	3184.59
573.55	3260.37
573.74	3616.71
573.94	3350.48
574.13	3129.30
574.33	3338.19
574.52	3719.11
574.71	3413.96
574.91	3270.61
575.10	3033.04
575.30	3305.42
575.49	3270.61
575.69	3002.32
575.88	3094.48
576.08	3311.57
576.27	3620.81
576.47	3102.67
576.66	3315.66
576.86	3737.54
577.05	3407.82
577.25	3258.32
577.44	3317.71
577.64	3352.52
577.83	3561.42
578.02	3133.39
578.22	3270.61
578.41	3885.00
578.61	3438.54
578.80	3057.62
579.00	3221.45
579.19	3442.64
579.39	3463.12
579.58	3246.03
579.77	3258.32
579.97	3733.45
580.16	3647.43
580.36	3354.57
580.55	3155.92
580.75	3518.41
580.94	3430.35
581.13	3340.24
581.33	3461.07
581.52	3368.91
581.72	3874.76
581.91	3256.27
582.11	3147.73
582.30	3682.25
582.49	3479.50
582.69	3510.22
582.88	3213.26
583.08	3512.27
583.27	3624.90
583.47	3319.76
583.66	3168.21
583.85	3231.69
584.05	3395.53
584.24	3340.24
584.44	3166.16
584.63	3641.29
584.82	3631.05
585.02	3446.73
585.21	3307.47
585.41	3557.32
585.60	3389.39
585.79	3473.36
585.99	3456.97
586.18	3518.41
586.37	4480.96
586.57	6637.47
586.76	18570.98
586.96	36908.49
587.15	49736.97
587.34	57750.67
587.54	60818.53
587.73	53513.42
587.93	38444.47
588.12	30107.19
588.31	24766.09
588.51	21753.52
588.70	20504.26
588.89	17563.38
589.09	15093.53
589.28	13291.32
589.47	10370.91
589.67	7532.43
589.86	6217.63
590.06	4988.85
590.25	4556.73
590.44	3864.52
590.64	3534.79
590.83	3631.05
591.02	3678.15
591.22	3162.06
591.41	3289.04
591.60	3416.01
591.80	3919.81
591.99	3030.99
592.18	3145.68
592.38	3637.19
592.57	3221.45
592.76	3217.36
592.96	3198.93
593.15	3416.01
593.34	3657.67
593.54	3141.58
593.73	3268.56
593.92	3620.81
594.12	3491.79
594.31	3203.02
594.50	3319.76
594.70	3538.89
594.89	4024.26
595.08	3098.58
595.28	3311.57
595.47	4116.42
595.66	3514.31
595.86	3153.87
596.05	3041.23
596.24	3338.19
596.43	3805.13
596.63	3264.46
596.82	3342.28
597.01	3409.87
597.21	3833.80
597.40	3164.11
597.59	3198.93
597.79	3459.02
597.98	3594.19
598.17	3211.22
598.36	3196.88
598.56	3700.68
598.75	3348.43
598.94	3223.50
599.14	3286.99
599.33	3305.42
599.52	3608.52
599.71	3282.89
599.91	3157.97
600.10	3622.86
600.29	3434.44
600.48	3262.41
600.68	3348.43
600.87	3450.83
601.06	3348.43
601.26	3346.38
601.45	3266.51
601.64	3342.28
601.83	3674.06
602.03	3104.72
602.22	3100.62
602.41	3786.69
602.60	3952.58
602.80	3235.79
602.99	3368.91
603.18	3360.72
603.37	3516.36
603.57	3182.54
603.76	3221.45
603.95	3717.06
604.14	3254.22
604.34	3131.34
604.53	3123.15
604.72	3491.79
604.91	3704.78
605.10	3168.21
605.30	3094.48
605.49	3938.24
605.68	3692.49
605.87	3084.24
606.07	3135.44
606.26	3422.16
606.45	3487.69
606.64	3069.91
606.84	3035.09
607.03	3512.27
607.22	3606.47
607.41	3225.55
607.60	3123.15
607.80	3614.66
607.99	3395.53
608.18	3256.27
608.37	3172.30
608.56	3395.53
608.76	3557.32
608.95	3352.52
609.14	3143.63
609.33	3708.87
609.52	3733.45
609.72	3286.99
609.91	3262.41
610.10	3577.80
610.29	3821.51
610.48	3368.91
610.68	3291.09
610.87	3444.68
611.06	3467.21
611.25	3196.88
611.44	3330.00
611.63	3336.14
611.83	3764.17
612.02	3067.86
612.21	3336.14
612.40	2998.23
612.59	3176.40
612.79	3174.35
612.98	3268.56
613.17	3876.80
613.36	3358.67
613.55	3344.33
613.74	3196.88
613.93	3399.63
614.13	3553.23
614.32	3368.91
614.51	3157.97
614.70	3358.67
614.89	3364.81
615.08	3297.23
615.28	3487.69
615.47	3289.04
615.66	3538.89
615.85	3233.74
616.04	3246.03
616.23	3479.50
616.42	3401.68
616.62	3252.17
616.81	3221.45
617.00	3514.31
617.19	3504.07
617.38	3200.98
617.57	3321.81
617.76	3542.99
617.95	3540.94
618.15	3327.95
618.34	3428.30
618.53	3176.40
618.72	3778.50
618.91	3237.84
619.10	3219.41
619.29	3397.58
619.48	3491.79
619.68	3219.41
619.87	3160.02
620.06	3221.45
620.25	3663.82
620.44	3174.35
620.63	3155.92
620.82	3534.79
621.01	3444.68
621.20	3155.92
621.39	3246.03
621.59	3504.07
621.78	3403.72
621.97	3180.50
622.16	3213.26
622.35	3577.80
622.54	3555.27
622.73	3299.28
622.92	2889.68
623.11	3637.19
623.30	3385.29
623.49	3362.76
623.68	3043.28
623.88	3809.22
624.07	3213.26
624.26	3131.34
624.45	3178.45
624.64	3432.40
624.83	3473.36
625.02	3127.25
625.21	3248.08
625.40	3522.51
625.59	3676.10
625.78	3282.89
625.97	3276.75
626.16	3768.26
626.35	3616.71
626.54	3231.69
626.74	3377.10
626.93	3454.92
627.12	3381.20
627.31	3180.50
627.50	3209.17
627.69	3555.27
627.88	3307.47
628.07	3098.58
628.26	3026.90
628.45	3264.46
628.64	3250.13
628.83	3196.88
629.02	3022.80
629.21	3520.46
629.40	3512.27
629.59	3043.28
629.78	3117.01
629.97	3516.36
630.16	3504.07
630.35	3170.26
630.54	3295.18
630.73	3274.70
630.92	3389.39
631.11	3051.47
631.30	3227.60
631.49	3633.10
631.68	3391.44
631.87	3217.36
632.06	3147.73
632.25	3893.19
632.44	3401.68
632.63	3162.06
632.82	3291.09
633.01	3280.85
633.20	3512.27
633.39	3219.41
633.58	2979.79
633.77	3567.56
633.96	3600.33
634.15	3313.61
634.34	3303.37
634.53	3567.56
634.72	3346.38
634.91	3016.66
635.10	3133.39
635.29	3602.38
635.48	3516.36
635.67	3090.38
635.86	3006.42
636.05	3768.26
636.24	3497.93
636.43	3151.82
636.62	3246.03
636.81	2887.64
637.00	3426.25
637.19	3106.77
637.38	3125.20
637.57	3356.62
637.76	3424.20
637.95	3420.11
638.14	3303.37
638.33	3493.83
638.52	3444.68
638.71	3033.04
638.89	3004.37
639.08	4081.60
639.27	3624.90
639.46	3407.82
639.65	3651.53
639.84	3803.08
640.03	4016.07
640.22	3538.89
640.41	3510.22
640.60	3491.79
640.79	3563.47
640.98	3438.54
641.17	3360.72
641.36	3635.14
641.55	3669.96
641.74	3016.66
641.92	3100.62
642.11	3266.51
642.30	3315.66
642.49	3074.00
642.68	3200.98
642.87	3532.75
643.06	3622.86
643.25	3084.24
643.44	3112.91
643.63	3391.44
643.82	3553.23
644.00	3076.05
644.19	3184.59
644.38	3252.17
644.57	3649.48
644.76	3207.12
644.95	3260.37
645.14	3487.69
645.33	3375.05
645.52	3282.89
645.71	3063.76
645.89	3266.51
646.08	3418.06
646.27	3164.11
646.46	3420.11
646.65	3149.78
646.84	3471.31
647.03	3143.63
647.22	3395.53
647.40	3483.59
647.59	3424.20
647.78	2967.51
647.97	3209.17
648.16	3260.37
648.35	3741.64
648.54	3499.98
648.73	3250.13
648.91	3588.04
649.10	3504.07
649.29	3172.30
649.48	3057.62
649.67	3602.38
649.86	3469.26
650.05	3198.93
650.23	3352.52
650.42	3321.81
650.61	3659.72
650.80	3418.06
650.99	3475.40
651.18	3721.16
651.36	3676.10
651.55	3151.82
651.74	3352.52
651.93	3393.48
652.12	3399.63
652.31	3258.32
652.49	3221.45
652.68	3303.37
652.87	3706.82
653.06	3217.36
653.25	3405.77
653.44	3375.05
653.62	3825.61
653.81	3157.97
654.00	3162.06
654.19	3604.42
654.38	3995.59
654.56	3260.37
654.75	3110.86
654.94	3516.36
655.13	3461.07
655.32	3114.96
655.51	3266.51
655.69	3379.15
655.88	3674.06
656.07	3026.90
656.26	3260.37
656.45	3203.02
656.63	3483.59
656.82	3162.06
657.01	3530.70
657.20	3389.39
657.38	3766.21
657.57	3151.82
657.76	3016.66
657.95	3575.75
658.14	3454.92
658.32	3276.75
658.51	3129.30
658.70	3508.17
658.89	3508.17
659.08	3207.12
659.26	3409.87
659.45	3246.03
659.64	3538.89
659.83	3200.98
660.01	3499.98
660.20	3463.12
660.39	3803.08
660.58	2871.25
660.76	3219.41
660.95	3157.97
661.14	3428.30
661.33	3127.25
661.51	3217.36
661.70	3203.02
661.89	3557.32
662.08	3192.78
662.26	3057.62
662.45	3272.65
662.64	3829.70
662.83	3254.22
663.01	3057.62
663.20	3299.28
663.39	3784.65
663.58	3264.46
663.76	3174.35
663.95	3504.07
664.14	3205.07
664.32	3282.89
664.51	3049.43
664.70	3104.72
664.89	3497.93
665.07	3028.95
665.26	3299.28
665.45	3149.78
665.64	3577.80
665.82	3223.50
666.01	3338.19
666.20	3143.63
666.38	3583.95
666.57	3553.23
666.76	5715.88
666.95	12511.04
667.13	18573.03
667.32	22458.03
667.51	24495.75
667.69	25511.55
667.88	20887.23
668.07	15329.05
668.25	13121.34
668.44	11659.09
668.63	10315.62
668.81	8832.89
669.00	7671.69
669.19	7188.37
669.38	6449.05
669.56	5509.04
669.75	4800.44
669.94	4288.45
670.12	3731.40
670.31	3487.69
670.50	3403.72
670.68	3618.76
670.87	3549.13
671.06	3151.82
671.24	3286.99
671.43	3784.65
671.62	3524.55
671.80	3264.46
671.99	3311.57
672.18	3409.87
672.36	3645.38
672.55	3346.38
672.74	3250.13
672.92	3352.52
673.11	3553.23
673.29	3033.04
673.48	3366.86
673.67	3348.43
673.85	3585.99
674.04	3207.12
674.23	3282.89
674.41	3889.09
674.60	3182.54
674.79	2947.03
674.97	2979.79
675.16	3598.28
675.34	3688.39
675.53	3151.82
675.72	3270.61
675.90	3776.45
676.09	3368.91
676.28	3291.09
676.46	3071.95
676.65	3592.14
676.83	3286.99
677.02	3311.57
677.21	3270.61
677.39	3528.65
677.58	3268.56
677.77	3176.40
677.95	3112.91
678.14	3430.35
678.32	3370.96
678.51	3231.69
678.70	3565.51
678.88	3260.37
679.07	3542.99
679.25	3176.40
679.44	3184.59
679.63	3196.88
679.81	3452.88
680.00	3411.92
680.18	3217.36
680.37	3782.60
680.55	3549.13
680.74	2977.75
680.93	2963.41
681.11	3510.22
681.30	3422.16
681.48	3147.73
681.67	3196.88
681.85	3463.12
682.04	3186.64
682.23	3377.10
682.41	3325.90
682.60	3364.81
682.78	3280.85
682.97	3098.58
683.15	3246.03
683.34	3522.51
683.53	3792.84
683.71	3084.24
683.90	3225.55
684.08	3864.52
684.27	3370.96
684.45	3207.12
684.64	3413.96
684.82	3401.68
685.01	3618.76
685.19	3143.63
685.38	3510.22
685.57	3362.76
685.75	3352.52
685.94	3024.85
686.12	3196.88
686.31	3346.38
686.49	3803.08
686.68	2979.79
686.86	3219.41
687.05	3352.52
687.23	3801.03
687.42	3182.54
687.60	2996.18
687.79	3667.91
687.97	3772.36
688.16	3383.24
688.34	3403.72
688.53	3078.10
688.71	3590.09
688.90	3563.47
689.08	3276.75
689.27	3114.96
689.45	3592.14
689.64	3370.96
689.82	3252.17
690.01	3565.51
690.19	3575.75
690.38	3221.45
690.56	3303.37
690.75	3270.61
690.93	3280.85
691.12	3174.35
691.30	3190.74
691.49	3342.28
691.67	3420.11
691.86	3579.85
692.04	3246.03
692.23	3307.47
692.41	3446.73
692.60	3573.71
692.78	3319.76
692.97	3389.39
693.15	3522.51
693.34	3409.87
693.52	3379.15
693.71	3266.51
693.89	3340.24
694.08	3149.78
694.26	3280.85
694.44	3663.82
694.63	3583.95
694.81	3100.62
695.00	3227.60
695.18	3733.45
695.37	3968.96
695.55	3332.05
695.74	3313.61
695.92	3293.13
696.10	3741.64
696.29	3039.19
696.47	3248.08
696.66	3239.89
696.84	3231.69
697.03	3272.65
697.21	3467.21
697.40	4810.68
697.58	3712.97
697.76	3157.97
697.95	3233.74
698.13	3258.32
698.32	3387.34
698.50	3143.63
698.68	3272.65
698.87	3610.57
699.05	3747.78
699.24	3174.35
699.42	3147.73
699.61	3442.64
699.79	3405.77
699.97	3237.84
700.16	3086.29
700.34	3170.26
700.53	3379.15
700.71	3375.05
700.89	3348.43
701.08	3311.57
701.26	3379.15
701.45	3459.02
701.63	3205.07
701.81	3295.18
702.00	3264.46
702.18	3209.17
702.37	3137.49
702.55	3620.81
702.73	3450.83
702.92	3160.02
703.10	3520.46
703.28	3563.47
703.47	3248.08
703.65	3428.30
703.84	3311.57
704.02	3321.81
704.20	3694.54
704.39	3200.98
704.57	3149.78
704.75	3600.33
704.94	3491.79
705.12	3393.48
705.30	4042.69
705.49	8130.44
705.67	14481.19
705.86	19214.04
706.04	21655.22
706.22	23721.62
706.41	22398.63
706.59	16721.66
706.77	13420.34
706.96	11642.70
707.14	10915.67
707.32	9420.66
707.51	8173.44
707.69	6881.18
707.87	5844.90
708.06	4855.73
708.24	4190.14
708.42	4061.12
708.61	4349.89
708.79	3270.61
708.97	3377.10
709.16	3581.90
709.34	3454.92
709.52	3252.17
709.71	3184.59
709.89	3606.47
710.07	3221.45
710.26	3147.73
710.44	3184.59
710.62	3643.34
710.80	3418.06
710.99	3344.33
711.17	3340.24
711.35	3270.61
711.54	3295.18
711.72	3344.33
711.90	3295.18
712.09	3590.09
712.27	3377.10
712.45	3286.99
712.63	3239.89
712.82	3516.36
713.00	3473.36
713.18	3354.57
713.37	3403.72
713.55	3700.68
713.73	3651.53
713.91	3362.76
714.10	3164.11
714.28	3422.16
714.46	3512.27
714.65	3321.81
714.83	3241.93
715.01	3432.40
715.19	3446.73
715.38	3086.29
715.56	3381.20
715.74	3278.80
715.92	3303.37
716.11	3565.51
716.29	2969.55
716.47	3426.25
716.65	3379.15
716.84	3106.77
717.02	3291.09
717.20	3123.15
717.38	3330.00
717.57	3366.86
717.75	3299.28
717.93	3286.99
718.11	3600.33
718.30	3092.43
718.48	3260.37
718.66	3651.53
718.84	3606.47
719.03	3301.33
719.21	3065.81
719.39	3899.33
719.57	3631.05
719.75	3286.99
719.94	3123.15
720.12	3356.62
720.30	3532.75
720.48	3286.99
720.67	3289.04
720.85	3266.51
721.03	3373.00
721.21	3223.50
721.39	3258.32
721.58	3608.52
721.76	3485.64
721.94	3215.31
722.12	3264.46
722.30	3776.45
722.49	3293.13
722.67	3221.45
722.85	3272.65
723.03	3172.30
723.21	3311.57
723.40	3223.50
723.58	3344.33
723.76	3532.75
723.94	3694.54
724.12	3217.36
724.30	3475.40
724.49	3629.00
724.67	3286.99
724.85	3303.37
725.03	3076.05
725.21	3561.42
725.40	3686.34
725.58	3256.27
725.76	3436.49
725.94	3483.59
726.12	3272.65
726.30	3307.47
726.49	3125.20
726.67	3379.15
726.85	3569.61
727.03	3958.72
727.21	4894.65
727.39	6250.40
727.57	6418.33
727.76	6803.35
727.94	6670.23
728.12	5887.91
728.30	5009.33
728.48	4855.73
728.66	4503.48
728.84	4396.99
729.03	3950.53
729.21	3659.72
729.39	3540.94
729.57	3454.92
729.75	3547.08
729.93	3424.20
730.11	3145.68
730.30	3327.95
730.48	3352.52
730.66	3262.41
730.84	3256.27
731.02	3463.12
731.20	3381.20
731.38	3233.74
731.56	3033.04
731.74	3127.25
731.93	3467.21
732.11	3303.37
732.29	3211.22
732.47	3577.80
732.65	3446.73
732.83	3356.62
733.01	3282.89
733.19	3282.89
733.37	3551.18
733.56	3133.39
733.74	3106.77
733.92	3844.04
734.10	3348.43
734.28	3364.81
734.46	3014.61
734.64	3373.00
734.82	3327.95
735.00	3215.31
735.18	3172.30
735.36	3448.78
735.54	3426.25
735.73	3155.92
735.91	3395.53
736.09	3739.59
736.27	3459.02
736.45	3344.33
736.63	2951.12
736.81	3338.19
736.99	3710.92
737.17	3348.43
737.35	3117.01
737.53	3502.03
737.71	3397.58
737.89	3370.96
738.07	3200.98
738.25	3332.05
738.43	3182.54
738.61	3223.50
738.80	3106.77
738.98	3266.51
739.16	3348.43
739.34	3213.26
739.52	3583.95
739.70	3364.81
739.88	3565.51
740.06	3393.48
740.24	3008.47
740.42	3715.02
740.60	3086.29
740.78	3207.12
740.96	2998.23
741.14	3358.67
741.32	3413.96
741.50	3033.04
741.68	3459.02
741.86	3737.54
742.04	3188.69
742.22	3108.82
742.40	3223.50
742.58	3565.51
742.76	3332.05
742.94	3487.69
743.12	3014.61
743.30	3397.58
743.48	3608.52
743.66	3086.29
743.84	3194.83
744.02	3446.73
744.20	3440.59
744.38	3059.67
744.56	3172.30
744.74	3776.45
744.92	3579.85
745.10	3479.50
745.28	3311.57
745.46	3833.80
745.64	3360.72
745.82	3284.94
746.00	3254.22
746.18	3573.71
746.36	3188.69
746.54	3352.52
746.72	3221.45
746.90	3190.74
747.08	3704.78
747.26	3246.03
747.44	3360.72
747.62	3647.43
747.80	3405.77
747.98	3389.39
748.15	3200.98
748.33	3778.50
748.51	3440.59
748.69	3311.57
748.87	3114.96
749.05	3407.82
749.23	3428.30
749.41	3067.86
749.59	3239.89
749.77	3594.19
749.95	3260.37
750.13	3207.12
750.31	3360.72
750.49	3436.49
750.67	3592.14
750.85	3348.43
751.03	3139.54
751.20	3893.19
751.38	3352.52
751.56	3241.93
751.74	3198.93
751.92	3434.44
752.10	3274.70
752.28	3323.85
752.46	3155.92
752.64	3426.25
752.82	3422.16
753.00	3317.71
753.18	3065.81
753.35	3332.05
753.53	3356.62
753.71	3141.58
753.89	3286.99
754.07	3626.95
754.25	3665.86
754.43	3330.00
754.61	3133.39
754.79	3573.71
754.97	3487.69
755.14	3358.67
755.32	3149.78
755.50	3522.51
755.68	3520.46
755.86	3209.17
756.04	3215.31
756.22	3008.47
756.40	3622.86
756.57	3370.96
756.75	3196.88
756.93	3702.73
757.11	3667.91
757.29	3086.29
757.47	3213.26
757.65	3155.92
757.82	2949.08
758.00	3133.39
758.18	3078.10
758.36	3241.93
758.54	3815.37
758.72	3071.95
758.90	3332.05
759.07	3475.40
759.25	3215.31
759.43	3332.05
759.61	3002.32
759.79	4587.45
759.97	3604.42
760.15	3239.89
760.32	3229.65
760.50	3442.64
760.68	3731.40
760.86	3059.67
761.04	3377.10
761.22	3590.09
761.39	3473.36
761.57	3385.29
761.75	3143.63
761.93	3542.99
762.11	3370.96
762.28	3362.76
762.46	3078.10
762.64	3667.91
762.82	3155.92
763.00	3213.26
763.18	3397.58
763.35	3186.64
763.53	3532.75
763.71	3354.57
763.89	3209.17
764.07	3473.36
764.24	3499.98
764.42	3307.47
764.60	3139.54
764.78	3532.75
764.96	3606.47
765.13	3391.44
765.31	3096.53
765.49	3563.47
765.67	3241.93
765.84	3174.35
766.02	3160.02
766.20	3069.91
766.38	3448.78
766.56	3330.00
766.73	3250.13
766.91	3395.53
767.09	3522.51
767.27	3215.31
767.44	3164.11
767.62	3495.88
767.80	3387.34
767.98	3125.20
768.15	3190.74
768.33	3581.90
768.51	3629.00
768.69	3313.61
768.87	3180.50
769.04	3356.62
769.22	3944.39
769.40	3377.10
769.58	3313.61
769.75	3452.88
769.93	3676.10
770.11	3213.26
770.28	3110.86
770.46	3655.62
770.64	3680.20
770.82	3209.17
770.99	3133.39
771.17	3565.51
771.35	3313.61
771.53	3248.08
771.70	3147.73
771.88	3493.83
772.06	3489.74
772.23	3250.13
772.41	3246.03
772.59	3450.83
772.77	3237.84
772.94	3264.46
773.12	3262.41
773.30	3385.29
773.47	3459.02
773.65	3143.63
773.83	3360.72
774.01	3436.49
774.18	3074.00
774.36	3178.45
774.54	3121.10
774.71	3557.32
774.89	3092.43
775.07	3065.81
775.24	3170.26
775.42	3379.15
775.60	3747.78
775.78	3057.62
775.95	3151.82
776.13	3102.67
776.31	3123.15
776.48	3348.43
776.66	3409.87
776.84	3344.33
777.01	3215.31
777.19	3143.63
777.37	3098.58
777.54	3616.71
777.72	3909.57
777.90	3239.89
778.07	3157.97
778.25	4114.37
778.43	3688.39
778.60	3180.50
778.78	3213.26
778.96	3700.68
779.13	3225.55
779.31	3319.76
779.49	3297.23
779.66	3397.58
779.84	3346.38
780.01	3188.69
780.19	3127.25
780.37	3821.51
780.54	3583.95
780.72	3086.29
780.90	3196.88
781.07	3469.26
781.25	3301.33
781.43	3416.01
781.60	3254.22
781.78	3672.01
781.95	3403.72
782.13	3235.79
782.31	3174.35
782.48	3067.86
782.66	3440.59
782.83	3397.58
783.01	3360.72
783.19	3688.39
783.36	3399.63
783.54	3147.73
783.72	3303.37
783.89	3295.18
784.07	3428.30
784.24	3268.56
784.42	3368.91
784.60	3467.21
784.77	3489.74
784.95	2922.45
785.12	3133.39
785.30	3567.56
785.47	3168.21
785.65	3094.48
785.83	3256.27
786.00	3346.38
786.18	3510.22
786.35	3184.59
786.53	3088.34
786.71	3663.82
786.88	3592.14
787.06	3299.28
787.23	3207.12
787.41	3129.30
787.58	3430.35
787.76	3155.92
787.94	3182.54
788.11	3438.54
788.29	3172.30
788.46	3209.17
788.64	3004.37
788.81	3373.00
788.99	3233.74
789.16	3176.40
789.34	3135.44
789.52	3346.38
789.69	3307.47
789.87	3030.99
790.04	3207.12
790.22	3375.05
790.39	3827.65
790.57	3057.62
790.74	3098.58
790.92	3663.82
791.09	3117.01
791.27	3303.37
791.44	3280.85
791.62	3330.00
791.79	3538.89
791.97	3313.61
792.15	3467.21
792.32	3581.90
792.50	3551.18
792.67	3362.76
792.85	3557.32
793.02	3448.78
793.20	3385.29
793.37	3049.43
793.55	3086.29
793.72	3182.54
793.90	3557.32
794.07	3190.74
794.25	3137.49
794.42	3549.13
794.60	3366.86
794.77	3209.17
794.95	3370.96
795.12	3647.43
795.30	3426.25
795.47	2975.70
795.65	3569.61
795.82	3540.94
796.00	3303.37
796.17	3227.60
796.34	3149.78
796.52	3493.83
796.69	3614.66
796.87	3375.05
797.04	3368.91
797.22	3608.52
797.39	3559.37
797.57	3399.63
797.74	3291.09
797.92	3594.19
798.09	3327.95
798.27	3473.36
798.44	3164.11
798.62	3299.28
798.79	3481.55
798.96	3356.62
799.14	3141.58
799.31	4095.94
799.49	3401.68
799.66	3196.88
799.84	3190.74
800.01	3143.63
800.19	3516.36
800.36	2957.27
800.53	3254.22
800.71	3553.23
800.88	3708.87
801.06	3184.59
801.23	3147.73
801.41	3440.59
801.58	3377.10
801.75	3176.40
801.93	3149.78
802.10	3518.41
802.28	3352.52
802.45	3207.12
802.63	3260.37
802.80	3780.55
802.97	3358.67
803.15	3282.89
803.32	3190.74
803.50	3262.41
803.67	3309.52
803.84	3217.36
804.02	3360.72
804.19	3352.52
804.37	2973.65
804.54	3012.56
804.71	3139.54
804.89	3405.77
805.06	3180.50
805.24	3110.86
805.41	2994.13
805.58	3286.99
805.76	3950.53
805.93	3184.59
806.10	3280.85
806.28	3549.13
806.45	3424.20
806.63	3409.87
806.80	3278.80
806.97	3518.41
807.15	3485.64
807.32	3350.48
807.49	3172.30
807.67	3223.50
807.84	3532.75
808.01	2992.08
808.19	3413.96
808.36	3950.53
808.54	3401.68
808.71	3200.98
808.88	3178.45
809.06	3661.77
809.23	3708.87
809.40	3268.56
809.58	3196.88
809.75	3368.91
809.92	3221.45
810.10	3471.31
810.27	3176.40
810.44	3530.70
810.62	3530.70
810.79	3270.61
810.96	3233.74
811.14	3344.33
811.31	3516.36
811.48	3444.68
811.66	3213.26
811.83	3794.89
812.00	3598.28
812.18	3188.69
812.35	3407.82
812.52	3340.24
812.69	3254.22
812.87	3176.40
813.04	3147.73
813.21	3422.16
813.39	3305.42
813.56	3098.58
813.73	3459.02
813.91	3129.30
814.08	3385.29
814.25	3252.17
814.42	3022.80
814.60	3344.33
814.77	3450.83
814.94	3051.47
815.12	3356.62
815.29	3796.93
815.46	3325.90
815.63	3264.46
815.81	3196.88
815.98	3364.81
816.15	3409.87
816.33	3282.89
816.50	3254.22
816.67	3477.45
816.84	3397.58
817.02	3125.20
817.19	3188.69
817.36	3454.92
817.53	3487.69
817.71	3074.00
817.88	3211.22
818.05	3377.10
818.22	3344.33
818.40	3327.95
818.57	3096.53
818.74	3504.07
818.91	3336.14
819.09	3403.72
819.26	3315.66
819.43	3270.61
819.60	3250.13
819.78	3405.77
819.95	3196.88
820.12	3166.16
820.29	3764.17
820.47	3467.21
820.64	3149.78
820.81	3129.30
820.98	3260.37
821.15	3174.35
821.33	3356.62
821.50	3090.38
821.67	3520.46
821.84	3209.17
822.02	3164.11
822.19	3557.32
822.36	3348.43
822.53	3174.35
822.70	3110.86
822.88	3366.86
823.05	3807.17
823.22	3330.00
823.39	3227.60
823.56	3346.38
823.74	3913.67
823.91	3090.38
824.08	3157.97
824.25	3176.40
824.42	3792.84
824.60	3033.04
824.77	3303.37
824.94	3397.58
825.11	3561.42
825.28	3082.19
825.45	3401.68
825.63	3532.75
825.80	3256.27
825.97	3229.65
826.14	3291.09
826.31	3059.67
826.48	3545.03
826.66	3139.54
826.83	3164.11
827.00	3401.68
827.17	3241.93
827.34	3200.98
827.51	3143.63
827.69	3377.10
827.86	3106.77
828.03	3217.36
828.20	3248.08
828.37	3233.74
828.54	3512.27
828.71	3119.06
828.89	3268.56
829.06	3463.12
829.23	3622.86
829.40	3160.02
829.57	3172.30
829.74	3585.99
829.91	3299.28
830.09	3084.24
830.26	3280.85
830.43	3803.08
830.60	3368.91
830.77	3319.76
830.94	3434.44
831.11	3665.86
831.28	3307.47
831.46	3278.80
831.63	3145.68
831.80	3667.91
831.97	3219.41
832.14	3274.70
832.31	3215.31
832.48	3405.77
832.65	3723.21
832.82	3313.61
832.99	3254.22
833.17	3264.46
833.34	3680.20
833.51	3147.73
833.68	2828.24
833.85	3680.20
834.02	3162.06
834.19	3153.87
834.36	3090.38
834.53	3540.94
834.70	3618.76
834.87	3209.17
835.04	2996.18
835.22	3268.56
835.39	3385.29
835.56	3041.23
835.73	2959.31
835.90	3596.23
836.07	3149.78
836.24	3149.78
836.41	3094.48
836.58	3233.74
836.75	3672.01
836.92	3014.61
837.09	2938.84
837.26	3606.47
837.43	3581.90
837.60	3098.58
837.77	3119.06
837.94	3680.20
838.12	3637.19
838.29	2971.60
838.46	2840.53
838.63	3145.68
838.80	3733.45
838.97	3057.62
839.14	3035.09
839.31	3489.74
839.48	3524.55
839.65	3051.47
839.82	3160.02
839.99	3483.59
840.16	3475.40
840.33	2934.74
840.50	3000.27
840.67	3278.80
840.84	2961.36
841.01	2940.88
841.18	3010.51
841.35	3334.09
841.52	3508.17
841.69	3307.47
841.86	3059.67
842.03	3555.27
842.20	3528.65
842.37	3086.29
842.54	3119.06
842.71	3491.79
842.88	3119.06
843.05	3008.47
843.22	2959.31
843.39	3585.99
843.56	3346.38
843.73	2959.31
843.90	3041.23
844.07	3526.60
844.24	3641.29
844.41	3030.99
844.58	2973.65
844.75	3448.78
844.92	3549.13
845.09	3041.23
845.26	3063.76
845.43	3674.06
845.60	3301.33
845.77	3164.11
845.94	3160.02
846.10	3600.33
846.27	3108.82
846.44	2815.96
846.61	2934.74
846.78	3461.07
846.95	3645.38
847.12	2963.41
847.29	3071.95
847.46	3188.69
847.63	3620.81
847.80	3026.90
847.97	3043.28
848.14	3954.63
848.31	3381.20
848.48	2869.20
848.65	3033.04
848.82	3266.51
848.98	3913.67
849.15	3090.38
849.32	3135.44
849.49	3700.68
849.66	3399.63
849.83	2947.03
850.00	2959.31
850.17	3577.80
850.34	3330.00
850.51	2971.60
850.68	3061.71
850.85	3925.96
851.01	3512.27
851.18	2955.22
851.35	3074.00
851.52	3483.59
851.69	3712.97
851.86	2959.31
852.03	3016.66
852.20	3596.23
852.37	3416.01
852.53	2875.35
852.70	2912.21
852.87	3553.23
853.04	3545.03
853.21	2944.98
853.38	3330.00
853.55	3669.96
853.72	3667.91
853.89	2881.49
854.05	2987.99
854.22	3434.44
854.39	3358.67
854.56	2996.18
854.73	3055.57
854.90	3231.69
855.07	3395.53
855.23	2975.70
855.40	2942.93
855.57	3395.53
855.74	2928.60
855.91	3209.17
856.08	2795.48
856.25	3145.68
856.41	3385.29
856.58	3045.33
856.75	3018.71
856.92	3213.26
857.09	3643.34
857.26	2871.25
857.42	3061.71
857.59	3602.38
857.76	3323.85
857.93	2951.12
858.10	3080.14
858.27	3241.93
858.43	3465.16
858.60	3008.47
858.77	2938.84
858.94	3250.13
859.11	3629.00
859.27	3164.11
859.44	2932.69
859.61	3944.39
859.78	3647.43
859.95	3039.19
860.12	2953.17
860.28	3934.15
860.45	3819.46
860.62	2949.08
860.79	3049.43
860.95	3319.76
861.12	3266.51
861.29	2924.50
861.46	2971.60
861.63	3454.92
861.79	3493.83
861.96	2942.93
862.13	3059.67
862.30	3665.86
862.47	3344.33
862.63	2879.44
862.80	3041.23
862.97	3606.47
863.14	3499.98
863.30	3035.09
863.47	2899.92
863.64	3813.32
863.81	3489.74
863.97	2910.16
864.14	3045.33
864.31	3399.63
864.48	3461.07
864.65	2979.79
864.81	3076.05
864.98	3495.88
865.15	3674.06
865.32	3063.76
865.48	3166.16
865.65	3839.94
865.82	3338.19
865.98	3061.71
866.15	3045.33
866.32	3385.29
866.49	3356.62
866.65	3223.50
866.82	2922.45
866.99	3344.33
867.16	3319.76
867.32	3002.32
867.49	2901.97
867.66	3340.24
867.83	3258.32
867.99	2979.79
868.16	3069.91
868.33	3213.26
868.49	3395.53
868.66	3049.43
868.83	3180.50
868.99	3510.22
869.16	3536.84
869.33	3223.50
869.50	3094.48
869.66	3475.40
869.83	3446.73
870.00	2987.99
870.16	3141.58
870.33	3479.50
870.50	3526.60
870.66	3028.95
870.83	3030.99
871.00	3477.45
871.17	3540.94
871.33	3041.23
871.50	2973.65
871.67	3332.05
871.83	3368.91
872.00	3166.16
872.17	3049.43
872.33	3782.60
872.50	3682.25
872.67	2938.84
872.83	3020.75
873.00	3508.17
873.17	3338.19
873.33	3112.91
873.50	3051.47
873.67	3223.50
873.83	3223.50
874.00	2998.23
874.16	3221.45
874.33	3397.58
874.50	3188.69
874.66	2934.74
874.83	3092.43
875.00	3602.38
875.16	3610.57
875.33	3112.91
875.50	2795.48
875.66	3274.70
875.83	3485.64
875.99	3110.86
876.16	3155.92
876.33	3172.30
876.49	3311.57
876.66	3153.87
876.83	3082.19
876.99	3098.58
877.16	3413.96
877.32	2951.12
877.49	3043.28
877.66	3608.52
877.82	3739.59
877.99	3170.26
878.15	3356.62
878.32	3465.16
878.49	3516.36
878.65	3094.48
878.82	3336.14
878.98	3268.56
879.15	3684.30
879.32	3200.98
879.48	3227.60
879.65	3381.20
879.81	3416.01
879.98	3117.01
880.15	3067.86
880.31	3545.03
880.48	3192.78
880.64	3110.86
880.81	3198.93
880.97	3839.94
881.14	3682.25
881.31	3067.86
881.47	3108.82
881.64	3327.95
881.80	3108.82
881.97	3196.88
882.13	3041.23
882.30	3211.22
882.47	3330.00
882.63	2987.99
882.80	2992.08
882.96	3393.48
883.13	3571.66
883.29	3030.99
883.46	3082.19
883.62	3889.09
883.79	3459.02
883.95	3182.54
884.12	2930.64
884.29	3733.45
884.45	3405.77
884.62	3002.32
884.78	3041.23
884.95	3801.03
885.11	3207.12
885.28	3145.68
885.44	3112.91
885.61	3624.90
885.77	3704.78
885.94	3266.51
886.10	3121.10
886.27	3416.01
886.43	3807.17
886.60	3278.80
886.76	3026.90
886.93	3301.33
887.09	3471.31
887.26	2918.36
887.42	3174.35
887.59	3643.34
887.75	3878.85
887.92	3250.13
888.08	3155.92
888.25	3897.28
888.41	3626.95
888.58	3149.78
888.74	2869.20
888.91	3321.81
>>>>>End Processed Spectral Data<<<<<
