SpectraSuite Data File
++++++++++++++++++++++++++++++++++++
Date: Fri May 06 09:28:21 CEST 2016
User: root
Dark Spectrum Present: No
Reference Spectrum Present: No
Number of Sampled Component Spectra: 1
Spectrometers: USB4C02835
Integration Time (usec): 100000 (USB4C02835)
Spectra Averaged: 1 (USB4C02835)
Boxcar Smoothing: 0 (USB4C02835)
Correct for Electrical Dark: No (USB4C02835)
Strobe/Lamp Enabled: No (USB4C02835)
Correct for Detector Non-linearity: No (USB4C02835)
Correct for Stray Light: No (USB4C02835)
Number of Pixels in Processed Spectrum: 3648
>>>>>Begin Processed Spectral Data<<<<<
177.47	2312.16
177.69	2312.16
177.91	2312.16
178.13	2377.69
178.36	2328.54
178.58	3166.16
178.80	3305.42
179.02	3117.01
179.24	3153.87
179.46	2832.34
179.68	2852.82
179.90	3385.29
180.13	3387.34
180.35	2738.13
180.57	2953.17
180.79	3624.90
181.01	3405.77
181.23	2973.65
181.45	3166.16
181.67	3624.90
181.90	3663.82
182.12	2975.70
182.34	2813.91
182.56	3575.75
182.78	3524.55
183.00	2930.64
183.22	2926.55
183.44	3094.48
183.66	4022.21
183.89	3086.29
184.11	2944.98
184.33	3631.05
184.55	3704.78
184.77	2961.36
184.99	2934.74
185.21	3289.04
185.43	4077.51
185.65	2990.03
185.87	2936.79
186.10	3981.25
186.32	3936.20
186.54	3205.07
186.76	3100.62
186.98	3723.21
187.20	3510.22
187.42	2944.98
187.64	2893.78
187.86	3585.99
188.08	3663.82
188.30	2815.96
188.52	2928.60
188.75	3786.69
188.97	3657.67
189.19	2942.93
189.41	2869.20
189.63	3432.40
189.85	3385.29
190.07	2766.81
190.29	2836.44
190.51	3563.47
190.73	3114.96
190.95	3219.41
191.17	3026.90
191.39	3094.48
191.61	3416.01
191.84	2955.22
192.06	3180.50
192.28	3108.82
192.50	4134.85
192.72	3080.14
192.94	2981.84
193.16	3606.47
193.38	3555.27
193.60	2856.92
193.82	3131.34
194.04	3624.90
194.26	3520.46
194.48	2996.18
194.70	3008.47
194.92	3260.37
195.14	3649.48
195.36	2969.55
195.58	3139.54
195.80	3459.02
196.02	3303.37
196.24	2899.92
196.46	3094.48
196.69	3399.63
196.91	4128.70
197.13	2975.70
197.35	2994.13
197.57	3770.31
197.79	3565.51
198.01	3039.19
198.23	3010.51
198.45	3600.33
198.67	3254.22
198.89	2762.71
199.11	3082.19
199.33	3256.27
199.55	3020.75
199.77	2883.54
199.99	3104.72
200.21	3327.95
200.43	3545.03
200.65	2791.38
200.87	2904.02
201.09	3487.69
201.31	3393.48
201.53	2973.65
201.75	3059.67
201.97	3493.83
202.19	3434.44
202.41	3028.95
202.63	3098.58
202.85	3567.56
203.07	3557.32
203.29	2994.13
203.51	2871.25
203.73	3338.19
203.95	4050.88
204.17	2992.08
204.39	3080.14
204.61	3469.26
204.83	3420.11
205.05	3225.55
205.27	3041.23
205.49	3913.67
205.71	3411.92
205.93	2830.29
206.15	2836.44
206.37	3467.21
206.59	3389.39
206.81	2740.18
207.03	2883.54
207.25	3227.60
207.47	3540.94
207.69	2979.79
207.91	3246.03
208.13	3837.89
208.34	3311.57
208.56	2957.27
208.78	3035.09
209.00	3393.48
209.22	3319.76
209.44	2959.31
209.66	2930.64
209.88	3487.69
210.10	3293.13
210.32	2973.65
210.54	3069.91
210.76	3348.43
210.98	3614.66
211.20	2779.09
211.42	3131.34
211.64	3780.55
211.86	3532.75
212.08	3049.43
212.30	2975.70
212.52	3327.95
212.74	3641.29
212.96	3065.81
213.17	3057.62
213.39	3588.04
213.61	3827.65
213.83	2877.40
214.05	2881.49
214.27	3692.49
214.49	3241.93
214.71	2969.55
214.93	3117.01
215.15	3508.17
215.37	3637.19
215.59	2844.63
215.81	3043.28
216.03	3844.04
216.24	3401.68
216.46	2906.07
216.68	2969.55
216.90	3620.81
217.12	3715.02
217.34	2883.54
217.56	3112.91
217.78	3708.87
218.00	3579.85
218.22	3088.34
218.44	3067.86
218.66	3493.83
218.87	3821.51
219.09	2963.41
219.31	2928.60
219.53	3471.31
219.75	3381.20
219.97	3043.28
220.19	3041.23
220.41	3467.21
220.63	3887.04
220.85	3012.56
221.06	2973.65
221.28	3674.06
221.50	3549.13
221.72	3018.71
221.94	2893.78
222.16	3487.69
222.38	3565.51
222.60	2928.60
222.82	3014.61
223.03	3710.92
223.25	3276.75
223.47	2957.27
223.69	3190.74
223.91	3469.26
224.13	3434.44
224.35	2869.20
224.57	3182.54
224.78	3657.67
225.00	3164.11
225.22	3157.97
225.44	2887.64
225.66	3577.80
225.88	3332.05
226.10	3153.87
226.32	2985.94
226.53	3839.94
226.75	3358.67
226.97	3098.58
227.19	2961.36
227.41	3289.04
227.63	3393.48
227.85	2775.00
228.06	3069.91
228.28	3569.61
228.50	3731.40
228.72	2844.63
228.94	2975.70
229.16	3049.43
229.37	3229.65
229.59	2908.12
229.81	3303.37
230.03	3397.58
230.25	3219.41
230.47	2828.24
230.69	2959.31
230.90	3686.34
231.12	3184.59
231.34	3026.90
231.56	3106.77
231.78	3303.37
232.00	3418.06
232.21	3041.23
232.43	2990.03
232.65	3008.47
232.87	3577.80
233.09	2826.20
233.30	2934.74
233.52	3712.97
233.74	3352.52
233.96	2916.31
234.18	3143.63
234.40	3467.21
234.61	3983.30
234.83	2832.34
235.05	2944.98
235.27	3966.92
235.49	3651.53
235.70	2797.53
235.92	2985.94
236.14	3631.05
236.36	4001.73
236.58	2852.82
236.79	3102.67
237.01	3442.64
237.23	3491.79
237.45	3166.16
237.67	2975.70
237.88	3545.03
238.10	3854.28
238.32	2867.16
238.54	2930.64
238.76	3405.77
238.97	3286.99
239.19	2807.77
239.41	3033.04
239.63	3651.53
239.85	3272.65
240.06	3012.56
240.28	2918.36
240.50	3643.34
240.72	3495.88
240.93	2910.16
241.15	3061.71
241.37	3450.83
241.59	3784.65
241.81	2949.08
242.02	3069.91
242.24	3528.65
242.46	3549.13
242.68	2809.81
242.89	2920.40
243.11	3655.62
243.33	3368.91
243.55	2981.84
243.76	2965.46
243.98	3393.48
244.20	3473.36
244.42	3010.51
244.64	2914.26
244.85	3205.07
245.07	3258.32
245.29	2979.79
245.51	3002.32
245.72	3499.98
245.94	3694.54
246.16	2975.70
246.38	2975.70
246.59	3354.57
246.81	3246.03
247.03	2834.39
247.24	2858.96
247.46	3295.18
247.68	3373.00
247.90	2926.55
248.11	2930.64
248.33	3555.27
248.55	3434.44
248.77	3039.19
248.98	3033.04
249.20	3823.56
249.42	3508.17
249.64	2936.79
249.85	2926.55
250.07	3360.72
250.29	3729.35
250.50	3045.33
250.72	2875.35
250.94	3542.99
251.16	3995.59
251.37	2938.84
251.59	3053.52
251.81	3585.99
252.02	3831.75
252.24	2891.73
252.46	3184.59
252.68	3313.61
252.89	3327.95
253.11	2711.51
253.33	3139.54
253.54	3831.75
253.76	3248.08
253.98	2920.40
254.20	2942.93
254.41	3180.50
254.63	3459.02
254.85	2820.05
255.06	3037.14
255.28	3504.07
255.50	3364.81
255.71	2893.78
255.93	2871.25
256.15	3448.78
256.36	3545.03
256.58	2848.72
256.80	2955.22
257.02	3493.83
257.23	3323.85
257.45	3030.99
257.67	3123.15
257.88	3278.80
258.10	3561.42
258.32	2981.84
258.53	3012.56
258.75	3807.17
258.97	3336.14
259.18	2942.93
259.40	2846.68
259.62	3846.09
259.83	3678.15
260.05	3000.27
260.27	4050.88
260.48	3663.82
260.70	3174.35
260.92	2854.87
261.13	3024.85
261.35	3504.07
261.57	3483.59
261.78	2877.40
262.00	2918.36
262.22	3665.86
262.43	3227.60
262.65	2975.70
262.86	3008.47
263.08	3983.30
263.30	3508.17
263.51	2830.29
263.73	2914.26
263.95	3835.85
264.16	3286.99
264.38	2852.82
264.60	2856.92
264.81	3465.16
265.03	3796.93
265.25	3495.88
265.46	2936.79
265.68	3706.82
265.89	3606.47
266.11	2830.29
266.33	2920.40
266.54	3712.97
266.76	3542.99
266.98	3133.39
267.19	3155.92
267.41	3729.35
267.62	3375.05
267.84	2709.46
268.06	3057.62
268.27	3471.31
268.49	3684.30
268.70	2985.94
268.92	3024.85
269.14	3225.55
269.35	3170.26
269.57	3139.54
269.79	3041.23
270.00	3237.84
270.22	3862.47
270.43	2795.48
270.65	2807.77
270.87	3495.88
271.08	3669.96
271.30	3106.77
271.51	3024.85
271.73	3645.38
271.95	3700.68
272.16	2836.44
272.38	3127.25
272.59	3385.29
272.81	3631.05
273.02	2852.82
273.24	3057.62
273.46	3745.73
273.67	3180.50
273.89	2830.29
274.10	2885.59
274.32	3753.93
274.54	3514.31
274.75	3055.57
274.97	3082.19
275.18	3585.99
275.40	3536.84
275.61	2973.65
275.83	3198.93
276.05	3248.08
276.26	3291.09
276.48	3145.68
276.69	3170.26
276.91	3295.18
277.12	3803.08
277.34	3139.54
277.55	3295.18
277.77	3395.53
277.99	3330.00
278.20	3137.49
278.42	2975.70
278.63	3385.29
278.85	3190.74
279.06	3004.37
279.28	3211.22
279.49	3758.02
279.71	3491.79
279.93	3168.21
280.14	3162.06
280.36	3205.07
280.57	3690.44
280.79	3231.69
281.00	3000.27
281.22	3334.09
281.43	3755.97
281.65	2893.78
281.86	3082.19
282.08	3540.94
282.29	3885.00
282.51	3047.38
282.73	3002.32
282.94	3157.97
283.16	3559.37
283.37	3112.91
283.59	3131.34
283.80	3532.75
284.02	3432.40
284.23	3117.01
284.45	3172.30
284.66	3223.50
284.88	3336.14
285.09	3006.42
285.31	3235.79
285.52	3432.40
285.74	3131.34
285.95	3319.76
286.17	3194.83
286.38	3635.14
286.60	3317.71
286.81	3022.80
287.03	3063.76
287.24	3413.96
287.46	3614.66
287.67	3295.18
287.89	3272.65
288.10	3487.69
288.32	3446.73
288.53	3229.65
288.75	3143.63
288.96	3571.66
289.18	3387.34
289.39	3006.42
289.61	3133.39
289.82	3901.38
290.04	3755.97
290.25	3000.27
290.47	3051.47
290.68	3366.86
290.90	3565.51
291.11	2969.55
291.33	3295.18
291.54	3250.13
291.76	3311.57
291.97	3135.44
292.18	3166.16
292.40	3295.18
292.61	3278.80
292.83	3346.38
293.04	3037.14
293.26	3483.59
293.47	3334.09
293.69	3092.43
293.90	2963.41
294.12	3780.55
294.33	3510.22
294.55	3215.31
294.76	3383.24
294.97	3770.31
295.19	3942.34
295.40	3084.24
295.62	3137.49
295.83	3600.33
296.05	3319.76
296.26	3360.72
296.48	3053.52
296.69	3387.34
296.90	3411.92
297.12	3170.26
297.33	3241.93
297.55	3516.36
297.76	3532.75
297.98	3231.69
298.19	3344.33
298.41	3424.20
298.62	3246.03
298.83	3319.76
299.05	3246.03
299.26	3323.85
299.48	3217.36
299.69	3235.79
299.90	3082.19
300.12	3286.99
300.33	3655.62
300.55	3147.73
300.76	3215.31
300.98	3311.57
301.19	3569.61
301.40	3127.25
301.62	3157.97
301.83	3504.07
302.05	3497.93
302.26	3039.19
302.47	3196.88
302.69	3205.07
302.90	3385.29
303.12	3002.32
303.33	3184.59
303.54	3874.76
303.76	3334.09
303.97	3114.96
304.19	3362.76
304.40	3157.97
304.61	3522.51
304.83	3219.41
305.04	3157.97
305.26	3629.00
305.47	3241.93
305.68	3135.44
305.90	2938.84
306.11	3731.40
306.33	3534.79
306.54	3000.27
306.75	3108.82
306.97	3086.29
307.18	3246.03
307.39	3067.86
307.61	3221.45
307.82	3395.53
308.04	3610.57
308.25	2875.35
308.46	3393.48
308.68	3424.20
308.89	3469.26
309.10	3151.82
309.32	3102.67
309.53	3506.12
309.74	3590.09
309.96	3043.28
310.17	3250.13
310.39	3307.47
310.60	3606.47
310.81	3094.48
311.03	3033.04
311.24	3626.95
311.45	3487.69
311.67	3368.91
311.88	3194.83
312.09	3373.00
312.31	3319.76
312.52	3024.85
312.73	3018.71
312.95	3100.62
313.16	3205.07
313.37	3315.66
313.59	3327.95
313.80	3577.80
314.01	3809.22
314.23	3123.15
314.44	2959.31
314.65	3172.30
314.87	3270.61
315.08	3039.19
315.29	3104.72
315.51	3209.17
315.72	3227.60
315.93	3098.58
316.15	3133.39
316.36	3338.19
316.57	3330.00
316.79	3065.81
317.00	3065.81
317.21	3508.17
317.43	3196.88
317.64	3067.86
317.85	3024.85
318.07	3248.08
318.28	3358.67
318.49	3043.28
318.70	3262.41
318.92	3571.66
319.13	3516.36
319.34	3231.69
319.56	3059.67
319.77	3454.92
319.98	3633.10
320.20	3362.76
320.41	3325.90
320.62	3545.03
320.83	3188.69
321.05	3280.85
321.26	3176.40
321.47	3487.69
321.69	3721.16
321.90	2996.18
322.11	3094.48
322.32	3485.64
322.54	3798.98
322.75	3133.39
322.96	4237.25
323.18	3084.24
323.39	3086.29
323.60	2967.51
323.81	3213.26
324.03	3305.42
324.24	3395.53
324.45	3133.39
324.66	3098.58
324.88	3592.14
325.09	3758.02
325.30	3086.29
325.52	3028.95
325.73	3553.23
325.94	3286.99
326.15	3020.75
326.37	2906.07
326.58	3588.04
326.79	3823.56
327.00	3080.14
327.22	3069.91
327.43	3387.34
327.64	3176.40
327.85	3336.14
328.07	3047.38
328.28	3901.38
328.49	3282.89
328.70	3108.82
328.92	3102.67
329.13	3444.68
329.34	3502.03
329.55	3295.18
329.76	3215.31
329.98	3491.79
330.19	3694.54
330.40	3174.35
330.61	3139.54
330.83	3622.86
331.04	3278.80
331.25	3143.63
331.46	3133.39
331.68	3264.46
331.89	3678.15
332.10	3125.20
332.31	2961.36
332.52	3504.07
332.74	3688.39
332.95	2955.22
333.16	3098.58
333.37	3602.38
333.58	3352.52
333.80	3166.16
334.01	2928.60
334.22	3405.77
334.43	3264.46
334.64	3106.77
334.86	3057.62
335.07	3309.52
335.28	3753.93
335.49	2996.18
335.70	3141.58
335.92	3784.65
336.13	3975.11
336.34	3153.87
336.55	3074.00
336.76	3471.31
336.98	3086.29
337.19	3114.96
337.40	3176.40
337.61	3999.68
337.82	3403.72
338.04	3164.11
338.25	2885.59
338.46	3364.81
338.67	3456.97
338.88	3028.95
339.09	3018.71
339.31	3385.29
339.52	3192.78
339.73	2996.18
339.94	3051.47
340.15	3545.03
340.36	3403.72
340.58	3133.39
340.79	2983.89
341.00	3696.58
341.21	3196.88
341.42	3362.76
341.63	3076.05
341.85	3633.10
342.06	3442.64
342.27	3016.66
342.48	3235.79
342.69	3108.82
342.90	3485.64
343.12	3549.13
343.33	3035.09
343.54	3655.62
343.75	3731.40
343.96	3223.50
344.17	3043.28
344.38	3420.11
344.60	3305.42
344.81	3030.99
345.02	3168.21
345.23	3688.39
345.44	4057.03
345.65	3192.78
345.86	3180.50
346.07	3483.59
346.29	3295.18
346.50	3229.65
346.71	3192.78
346.92	3688.39
347.13	3932.10
347.34	3274.70
347.55	2930.64
347.76	3559.37
347.98	3119.06
348.19	3174.35
348.40	3282.89
348.61	3354.57
348.82	3798.98
349.03	3192.78
349.24	2944.98
349.45	3923.91
349.66	3018.71
349.88	3047.38
350.09	3071.95
350.30	3778.50
350.51	3708.87
350.72	3295.18
350.93	3071.95
351.14	3352.52
351.35	3565.51
351.56	3153.87
351.77	3114.96
351.99	3499.98
352.20	3680.20
352.41	3157.97
352.62	2971.60
352.83	3440.59
353.04	3393.48
353.25	3114.96
353.46	3121.10
353.67	3647.43
353.88	3090.38
354.09	3004.37
354.30	3178.45
354.52	3647.43
354.73	3403.72
354.94	3061.71
355.15	3243.98
355.36	3921.86
355.57	3266.51
355.78	2975.70
355.99	3084.24
356.20	3301.33
356.41	3715.02
356.62	3119.06
356.83	3256.27
357.04	3708.87
357.25	3108.82
357.46	3098.58
357.68	2944.98
357.89	3252.17
358.10	3375.05
358.31	3096.53
358.52	3055.57
358.73	3205.07
358.94	3264.46
359.15	3098.58
359.36	3117.01
359.57	3442.64
359.78	3381.20
359.99	3332.05
360.20	2957.27
360.41	3450.83
360.62	3575.75
360.83	3198.93
361.04	3082.19
361.25	3555.27
361.46	3813.32
361.67	3213.26
361.88	3149.78
362.09	3686.34
362.30	3573.71
362.51	2987.99
362.72	3135.44
362.93	3565.51
363.14	3565.51
363.35	3248.08
363.56	3030.99
363.78	3729.35
363.99	3616.71
364.20	3135.44
364.41	3198.93
364.62	3868.61
364.83	3493.83
365.04	3098.58
365.25	3080.14
365.46	3882.95
365.67	3319.76
365.88	3256.27
366.09	3069.91
366.30	3266.51
366.51	3463.12
366.72	2992.08
366.93	3137.49
367.14	3516.36
367.35	3737.54
367.56	3049.43
367.77	3198.93
367.98	3452.88
368.18	3493.83
368.39	3233.74
368.60	3043.28
368.81	3618.76
369.02	3499.98
369.23	3117.01
369.44	2951.12
369.65	3405.77
369.86	3504.07
370.07	3223.50
370.28	3026.90
370.49	3561.42
370.70	3551.18
370.91	3033.04
371.12	2965.46
371.33	3696.58
371.54	3364.81
371.75	3166.16
371.96	2879.44
372.17	3454.92
372.38	3459.02
372.59	3155.92
372.80	3098.58
373.01	3393.48
373.22	3450.83
373.43	3086.29
373.64	3012.56
373.85	3803.08
374.06	3821.51
374.26	3348.43
374.47	3262.41
374.68	3725.26
374.89	3444.68
375.10	3067.86
375.31	3215.31
375.52	3567.56
375.73	3481.55
375.94	2944.98
376.15	3231.69
376.36	3274.70
376.57	3309.52
376.78	3016.66
376.99	3145.68
377.20	3635.14
377.40	3330.00
377.61	3430.35
377.82	3125.20
378.03	3725.26
378.24	3659.72
378.45	3205.07
378.66	3239.89
378.87	3028.95
379.08	3180.50
379.29	3125.20
379.50	3309.52
379.71	3377.10
379.91	3561.42
380.12	3074.00
380.33	3143.63
380.54	3418.06
380.75	3360.72
380.96	3112.91
381.17	3213.26
381.38	3491.79
381.59	3434.44
381.80	3139.54
382.00	3233.74
382.21	3418.06
382.42	3669.96
382.63	3434.44
382.84	3254.22
383.05	3569.61
383.26	3848.13
383.47	3215.31
383.68	3098.58
383.88	3563.47
384.09	3409.87
384.30	3344.33
384.51	3241.93
384.72	3334.09
384.93	3131.34
385.14	3188.69
385.35	3375.05
385.55	3145.68
385.76	3686.34
385.97	3123.15
386.18	2987.99
386.39	3248.08
386.60	3370.96
386.81	3078.10
387.02	3002.32
387.22	3135.44
387.43	3512.27
387.64	3182.54
387.85	3346.38
388.06	3481.55
388.27	4409.28
388.48	7231.38
388.68	10800.99
388.89	13592.37
389.10	14796.57
389.31	14264.10
389.52	11657.04
389.73	10504.03
389.93	9496.43
390.14	8451.97
390.35	7831.43
390.56	7430.03
390.77	6158.24
390.98	4765.62
391.18	4126.66
391.39	3864.52
391.60	3418.06
391.81	3387.34
392.02	3108.82
392.23	3930.05
392.43	3545.03
392.64	3246.03
392.85	3286.99
393.06	3809.22
393.27	3424.20
393.47	3024.85
393.68	3192.78
393.89	3293.13
394.10	3692.49
394.31	3127.25
394.52	3016.66
394.72	3262.41
394.93	3737.54
395.14	3067.86
395.35	3264.46
395.56	3280.85
395.76	3375.05
395.97	3157.97
396.18	3321.81
396.39	3397.58
396.60	4173.76
396.80	3459.02
397.01	3401.68
397.22	3624.90
397.43	3633.10
397.64	3080.14
397.84	3280.85
398.05	3823.56
398.26	3430.35
398.47	3188.69
398.67	3330.00
398.88	3426.25
399.09	3643.34
399.30	3149.78
399.51	3153.87
399.71	3227.60
399.92	3422.16
400.13	3258.32
400.34	3119.06
400.54	3510.22
400.75	3764.17
400.96	3149.78
401.17	3428.30
401.37	3598.28
401.58	3467.21
401.79	3092.43
402.00	3213.26
402.21	3966.92
402.41	3524.55
402.62	3368.91
402.83	3418.06
403.04	3796.93
403.24	4222.91
403.45	3233.74
403.66	3418.06
403.87	3545.03
404.07	3747.78
404.28	3321.81
404.49	3459.02
404.70	3510.22
404.90	3545.03
405.11	3139.54
405.32	3231.69
405.52	3401.68
405.73	3327.95
405.94	3002.32
406.15	3270.61
406.35	3534.79
406.56	3631.05
406.77	3241.93
406.98	3200.98
407.18	3301.33
407.39	3755.97
407.60	3180.50
407.80	3233.74
408.01	3309.52
408.22	3563.47
408.43	3018.71
408.63	3299.28
408.84	3635.14
409.05	3669.96
409.25	3164.11
409.46	3090.38
409.67	3360.72
409.88	3344.33
410.08	3186.64
410.29	3104.72
410.50	3715.02
410.70	3530.70
410.91	3043.28
411.12	3227.60
411.32	3491.79
411.53	3289.04
411.74	3182.54
411.95	3213.26
412.15	3413.96
412.36	3565.51
412.57	3295.18
412.77	3280.85
412.98	3416.01
413.19	3330.00
413.39	3276.75
413.60	3145.68
413.81	3696.58
414.01	3186.64
414.22	3119.06
414.43	3360.72
414.63	3346.38
414.84	3616.71
415.05	3233.74
415.25	3082.19
415.46	3514.31
415.67	3332.05
415.87	3207.12
416.08	3069.91
416.29	3420.11
416.49	3534.79
416.70	3213.26
416.91	3221.45
417.11	3405.77
417.32	3661.77
417.53	3229.65
417.73	3213.26
417.94	3399.63
418.15	3499.98
418.35	3246.03
418.56	3239.89
418.77	3981.25
418.97	3565.51
419.18	3270.61
419.38	2881.49
419.59	3438.54
419.80	3819.46
420.00	3035.09
420.21	3241.93
420.42	3786.69
420.62	3518.41
420.83	3094.48
421.04	3174.35
421.24	3536.84
421.45	3667.91
421.65	3090.38
421.86	3135.44
422.07	3585.99
422.27	3641.29
422.48	3082.19
422.69	2936.79
422.89	3553.23
423.10	3352.52
423.30	3215.31
423.51	3262.41
423.72	3561.42
423.92	3495.88
424.13	3024.85
424.33	3278.80
424.54	3682.25
424.75	3481.55
424.95	3456.97
425.16	3074.00
425.36	3340.24
425.57	3669.96
425.78	3319.76
425.98	3291.09
426.19	3381.20
426.39	3303.37
426.60	3196.88
426.81	3303.37
427.01	3448.78
427.22	3321.81
427.42	2963.41
427.63	3076.05
427.83	3633.10
428.04	3874.76
428.25	3164.11
428.45	3213.26
428.66	3690.44
428.86	3502.03
429.07	3305.42
429.28	3268.56
429.48	3467.21
429.69	3258.32
429.89	3203.02
430.10	3149.78
430.30	3622.86
430.51	3649.48
430.71	3088.34
430.92	3250.13
431.13	3327.95
431.33	3450.83
431.54	3254.22
431.74	3436.49
431.95	3985.35
432.15	3217.36
432.36	3141.58
432.56	3258.32
432.77	3991.49
432.98	3846.09
433.18	3237.84
433.39	3067.86
433.59	3346.38
433.80	3803.08
434.00	3311.57
434.21	3192.78
434.41	3213.26
434.62	3897.28
434.82	3000.27
435.03	3133.39
435.23	3499.98
435.44	3059.67
435.64	3119.06
435.85	3215.31
436.06	3596.23
436.26	3635.14
436.47	3227.60
436.67	3102.67
436.88	3436.49
437.08	3717.06
437.29	3243.98
437.49	3370.96
437.70	3788.74
437.90	3407.82
438.11	3426.25
438.31	3260.37
438.52	3659.72
438.72	3651.53
438.93	3502.03
439.13	3246.03
439.34	3620.81
439.54	3401.68
439.75	3280.85
439.95	3280.85
440.16	3248.08
440.36	3459.02
440.57	3194.83
440.77	3166.16
440.98	3411.92
441.18	3532.75
441.39	3096.53
441.59	3067.86
441.80	4014.02
442.00	3387.34
442.21	3309.52
442.41	3053.52
442.62	3688.39
442.82	3289.04
443.02	3137.49
443.23	3180.50
443.43	3291.09
443.64	3747.78
443.84	2942.93
444.05	3186.64
444.25	3407.82
444.46	3344.33
444.66	3180.50
444.87	3377.10
445.07	3139.54
445.28	3375.05
445.48	3418.06
445.69	3200.98
445.89	4026.31
446.09	3407.82
446.30	3426.25
446.50	3577.80
446.71	4886.45
446.91	6162.34
447.12	6860.70
447.32	7212.95
447.53	7237.52
447.73	6041.51
447.93	5394.35
448.14	5210.03
448.34	5353.39
448.55	4519.87
448.75	4384.70
448.96	4175.81
449.16	4167.62
449.36	3962.82
449.57	3405.77
449.77	3237.84
449.98	3381.20
450.18	3540.94
450.39	3119.06
450.59	3387.34
450.79	3379.15
451.00	3325.90
451.20	3327.95
451.41	3112.91
451.61	3504.07
451.81	3403.72
452.02	3092.43
452.22	3198.93
452.43	3319.76
452.63	3266.51
452.84	3192.78
453.04	3053.52
453.24	3483.59
453.45	3344.33
453.65	3260.37
453.86	3256.27
454.06	3463.12
454.26	3375.05
454.47	3086.29
454.67	3319.76
454.87	3514.31
455.08	3444.68
455.28	3260.37
455.49	3401.68
455.69	3196.88
455.89	3901.38
456.10	3305.42
456.30	3014.61
456.51	3633.10
456.71	3567.56
456.91	3319.76
457.12	3162.06
457.32	3512.27
457.52	3250.13
457.73	3284.94
457.93	3381.20
458.14	3327.95
458.34	3035.09
458.54	3248.08
458.75	3098.58
458.95	3637.19
459.15	3553.23
459.36	3221.45
459.56	3131.34
459.76	4048.83
459.97	3424.20
460.17	3155.92
460.37	3272.65
460.58	3379.15
460.78	3583.95
460.99	3237.84
461.19	3170.26
461.39	3237.84
461.60	3385.29
461.80	3227.60
462.00	3020.75
462.21	3356.62
462.41	3311.57
462.61	3084.24
462.82	3000.27
463.02	3532.75
463.22	3487.69
463.43	3246.03
463.63	3084.24
463.83	3694.54
464.04	3489.74
464.24	3108.82
464.44	3076.05
464.64	3545.03
464.85	3571.66
465.05	3127.25
465.25	3141.58
465.46	3250.13
465.66	3532.75
465.86	3190.74
466.07	3170.26
466.27	3291.09
466.47	3106.77
466.68	3035.09
466.88	3278.80
467.08	3598.28
467.29	3672.01
467.49	3153.87
467.69	3327.95
467.89	3649.48
468.10	3463.12
468.30	3209.17
468.50	3264.46
468.71	3672.01
468.91	3205.07
469.11	3321.81
469.31	3311.57
469.52	3272.65
469.72	3803.08
469.92	3426.25
470.13	3194.83
470.33	3467.21
470.53	3418.06
470.73	3516.36
470.94	3790.79
471.14	4122.56
471.34	4646.84
471.54	4077.51
471.75	3821.51
471.95	3844.04
472.15	3766.21
472.36	3715.02
472.56	3542.99
472.76	3876.80
472.96	3835.85
473.17	3477.45
473.37	3332.05
473.57	3383.24
473.77	3577.80
473.98	3309.52
474.18	3082.19
474.38	4114.37
474.58	3307.47
474.79	3059.67
474.99	3237.84
475.19	3672.01
475.39	3299.28
475.60	3278.80
475.80	3157.97
476.00	3475.40
476.20	3340.24
476.41	3241.93
476.61	3147.73
476.81	3780.55
477.01	3327.95
477.21	3499.98
477.42	3248.08
477.62	3303.37
477.82	3612.62
478.02	3049.43
478.23	3133.39
478.43	3348.43
478.63	3456.97
478.83	3164.11
479.03	3221.45
479.24	3762.12
479.44	3811.27
479.64	3057.62
479.84	3033.04
480.04	3291.09
480.25	3667.91
480.45	3035.09
480.65	3186.64
480.85	3801.03
481.06	3370.96
481.26	3260.37
481.46	3100.62
481.66	3442.64
481.86	3184.59
482.06	3401.68
482.27	3205.07
482.47	3340.24
482.67	3499.98
482.87	3157.97
483.07	3207.12
483.28	3235.79
483.48	3213.26
483.68	3155.92
483.88	3100.62
484.08	3037.14
484.29	3139.54
484.49	3231.69
484.69	2979.79
484.89	3704.78
485.09	3661.77
485.29	3190.74
485.50	3319.76
485.70	3430.35
485.90	3760.07
486.10	3319.76
486.30	3051.47
486.50	3747.78
486.71	3542.99
486.91	3309.52
487.11	3303.37
487.31	3143.63
487.51	3532.75
487.71	3119.06
487.91	3127.25
488.12	3305.42
488.32	2965.46
488.52	3213.26
488.72	2944.98
488.92	3454.92
489.12	3731.40
489.32	3276.75
489.53	3215.31
489.73	3092.43
489.93	3778.50
490.13	3205.07
490.33	3047.38
490.53	3405.77
490.73	3653.58
490.94	3047.38
491.14	3352.52
491.34	3674.06
491.54	3540.94
491.74	4057.03
491.94	4405.18
492.14	5148.59
492.34	5179.31
492.54	4636.60
492.75	4136.90
492.95	4476.86
493.15	4124.61
493.35	3823.56
493.55	3747.78
493.75	3768.26
493.95	3973.06
494.15	3438.54
494.35	3188.69
494.56	3407.82
494.76	3321.81
494.96	3327.95
495.16	3104.72
495.36	3452.88
495.56	3430.35
495.76	3180.50
495.96	3133.39
496.16	3194.83
496.36	3839.94
496.56	3082.19
496.77	3276.75
496.97	3397.58
497.17	3663.82
497.37	2990.03
497.57	3284.94
497.77	3479.50
497.97	3254.22
498.17	3235.79
498.37	3168.21
498.57	3592.14
498.77	3340.24
498.97	3311.57
499.17	3514.31
499.38	3368.91
499.58	3610.57
499.78	3305.42
499.98	3307.47
500.18	3313.61
500.38	3325.90
500.58	3397.58
500.78	3739.59
500.98	6125.47
501.18	7813.00
501.38	9133.94
501.58	10061.67
501.78	9957.22
501.98	8411.01
502.18	7034.77
502.38	6113.19
502.58	6193.06
502.78	5472.17
502.98	5298.10
503.18	5015.48
503.38	4884.41
503.59	4265.92
503.79	4026.31
503.99	3657.67
504.19	3936.20
504.39	3925.96
504.59	3577.80
504.79	3524.55
504.99	3964.87
505.19	3602.38
505.39	3223.50
505.59	3551.18
505.79	3876.80
505.99	3696.58
506.19	3184.59
506.39	3399.63
506.59	3258.32
506.79	3305.42
506.99	3420.11
507.19	3131.34
507.39	3520.46
507.59	3051.47
507.79	3217.36
507.99	3143.63
508.19	3379.15
508.39	3426.25
508.59	3215.31
508.79	3295.18
508.99	3880.90
509.19	3325.90
509.39	3135.44
509.59	3059.67
509.79	3274.70
509.99	3547.08
510.19	3364.81
510.39	3393.48
510.59	3418.06
510.79	3192.78
510.99	2983.89
511.19	3110.86
511.39	3739.59
511.59	3721.16
511.79	3346.38
511.99	3155.92
512.19	3819.46
512.38	3422.16
512.58	3164.11
512.78	3067.86
512.98	3712.97
513.18	3815.37
513.38	3102.67
513.58	3278.80
513.78	3395.53
513.98	3379.15
514.18	3151.82
514.38	3164.11
514.58	3502.03
514.78	3262.41
514.98	3069.91
515.18	3186.64
515.38	3270.61
515.58	3876.80
515.78	3166.16
515.98	3102.67
516.18	3690.44
516.38	3403.72
516.57	3190.74
516.77	3147.73
516.97	3649.48
517.17	3278.80
517.37	3016.66
517.57	3209.17
517.77	3409.87
517.97	3252.17
518.17	3286.99
518.37	3061.71
518.57	3256.27
518.77	3352.52
518.97	3274.70
519.16	3213.26
519.36	3688.39
519.56	3301.33
519.76	3096.53
519.96	3143.63
520.16	3708.87
520.36	3231.69
520.56	3311.57
520.76	3143.63
520.96	3387.34
521.16	3645.38
521.35	3405.77
521.55	3252.17
521.75	3459.02
521.95	3278.80
522.15	3129.30
522.35	2981.84
522.55	3344.33
522.75	3518.41
522.95	3037.14
523.14	2973.65
523.34	3368.91
523.54	3270.61
523.74	3315.66
523.94	3217.36
524.14	3088.34
524.34	3536.84
524.54	3340.24
524.73	3155.92
524.93	3571.66
525.13	3399.63
525.33	3037.14
525.53	3403.72
525.73	3596.23
525.93	3471.31
526.13	3104.72
526.32	2994.13
526.52	3719.11
526.72	3547.08
526.92	3184.59
527.12	3006.42
527.32	3155.92
527.52	3514.31
527.71	3225.55
527.91	3241.93
528.11	3381.20
528.31	3409.87
528.51	3121.10
528.71	3256.27
528.90	3577.80
529.10	3690.44
529.30	3219.41
529.50	2918.36
529.70	3499.98
529.90	3383.24
530.09	3125.20
530.29	2967.51
530.49	3250.13
530.69	4028.35
530.89	3313.61
531.09	3223.50
531.28	3325.90
531.48	3700.68
531.68	3207.12
531.88	3155.92
532.08	3641.29
532.28	3362.76
532.47	3278.80
532.67	3278.80
532.87	3606.47
533.07	3145.68
533.27	3272.65
533.46	3254.22
533.66	3499.98
533.86	3413.96
534.06	3237.84
534.26	3172.30
534.45	3395.53
534.65	3590.09
534.85	3311.57
535.05	3076.05
535.25	3684.30
535.44	3106.77
535.64	3256.27
535.84	3172.30
536.04	3338.19
536.24	3366.86
536.43	3076.05
536.63	3110.86
536.83	3454.92
537.03	3428.30
537.22	2992.08
537.42	2967.51
537.62	3585.99
537.82	3272.65
538.02	3370.96
538.21	3246.03
538.41	4038.59
538.61	3532.75
538.81	3196.88
539.00	3315.66
539.20	3147.73
539.40	3350.48
539.60	3114.96
539.79	3373.00
539.99	3448.78
540.19	3330.00
540.39	3149.78
540.58	3186.64
540.78	3755.97
540.98	3450.83
541.18	3362.76
541.37	3172.30
541.57	3465.16
541.77	3583.95
541.97	3162.06
542.16	3024.85
542.36	3348.43
542.56	3608.52
542.76	3301.33
542.95	3252.17
543.15	3569.61
543.35	3604.42
543.54	3084.24
543.74	3092.43
543.94	3807.17
544.14	3231.69
544.33	3301.33
544.53	3196.88
544.73	3418.06
544.93	3401.68
545.12	3180.50
545.32	3147.73
545.52	3344.33
545.71	3139.54
545.91	3229.65
546.11	3086.29
546.30	3184.59
546.50	3387.34
546.70	3252.17
546.90	3164.11
547.09	3080.14
547.29	3434.44
547.49	3237.84
547.68	3215.31
547.88	3332.05
548.08	3583.95
548.27	3426.25
548.47	3172.30
548.67	3358.67
548.87	3540.94
549.06	3076.05
549.26	3110.86
549.46	3518.41
549.65	3268.56
549.85	3268.56
550.05	3123.15
550.24	3274.70
550.44	3459.02
550.64	3227.60
550.83	3278.80
551.03	3833.80
551.23	3620.81
551.42	3266.51
551.62	3319.76
551.82	3454.92
552.01	3352.52
552.21	3493.83
552.41	3239.89
552.60	3696.58
552.80	3405.77
553.00	3114.96
553.19	3100.62
553.39	3798.98
553.59	3192.78
553.78	3291.09
553.98	3123.15
554.17	3254.22
554.37	3506.12
554.57	3207.12
554.76	2955.22
554.96	3295.18
555.16	3463.12
555.35	3297.23
555.55	3438.54
555.75	3465.16
555.94	3583.95
556.14	2963.41
556.33	3235.79
556.53	3377.10
556.73	3450.83
556.92	3180.50
557.12	3090.38
557.32	3893.19
557.51	3727.30
557.71	3301.33
557.90	3295.18
558.10	3741.64
558.30	3327.95
558.49	3205.07
558.69	3145.68
558.88	3549.13
559.08	3442.64
559.28	3141.58
559.47	3282.89
559.67	3581.90
559.86	3868.61
560.06	3160.02
560.26	3203.02
560.45	3491.79
560.65	3426.25
560.84	3485.64
561.04	3157.97
561.24	3602.38
561.43	3180.50
561.63	3461.07
561.82	3291.09
562.02	3524.55
562.22	3211.22
562.41	3074.00
562.61	3108.82
562.80	3209.17
563.00	3893.19
563.19	3188.69
563.39	3237.84
563.59	3559.37
563.78	3129.30
563.98	2992.08
564.17	3213.26
564.37	3139.54
564.56	3397.58
564.76	3067.86
564.96	3352.52
565.15	3571.66
565.35	3983.30
565.54	3155.92
565.74	3237.84
565.93	3577.80
566.13	3375.05
566.32	3241.93
566.52	3254.22
566.71	3385.29
566.91	3655.62
567.11	3268.56
567.30	3074.00
567.50	3444.68
567.69	3393.48
567.89	3127.25
568.08	3065.81
568.28	3459.02
568.47	3229.65
568.67	3172.30
568.86	3125.20
569.06	3567.56
569.25	3303.37
569.45	3010.51
569.64	3243.98
569.84	3352.52
570.04	3502.03
570.23	3235.79
570.43	3243.98
570.62	3444.68
570.82	3768.26
571.01	3074.00
571.21	3147.73
571.40	3305.42
571.60	3557.32
571.79	3241.93
571.99	3172.30
572.18	3215.31
572.38	3454.92
572.57	3276.75
572.77	3280.85
572.96	3983.30
573.16	3510.22
573.35	3213.26
573.55	3352.52
573.74	3555.27
573.94	3387.34
574.13	3180.50
574.33	3368.91
574.52	3725.26
574.71	3411.92
574.91	3250.13
575.10	3108.82
575.30	3315.66
575.49	3282.89
575.69	3102.67
575.88	3168.21
576.08	3407.82
576.27	3585.99
576.47	3057.62
576.66	3356.62
576.86	3780.55
577.05	3495.88
577.25	3254.22
577.44	3393.48
577.64	3403.72
577.83	3692.49
578.02	3139.54
578.22	3282.89
578.41	3897.28
578.61	3393.48
578.80	3137.49
579.00	3131.34
579.19	3368.91
579.39	3467.21
579.58	3311.57
579.77	3194.83
579.97	3643.34
580.16	3760.07
580.36	3313.61
580.55	3215.31
580.75	3442.64
580.94	3520.46
581.13	3293.13
581.33	3401.68
581.52	3352.52
581.72	3823.56
581.91	3252.17
582.11	3082.19
582.30	3602.38
582.49	3532.75
582.69	3444.68
582.88	3254.22
583.08	3499.98
583.27	3645.38
583.47	3354.57
583.66	3137.49
583.85	3176.40
584.05	3381.20
584.24	3278.80
584.44	3172.30
584.63	3680.20
584.82	3731.40
585.02	3391.44
585.21	3289.04
585.41	3624.90
585.60	3360.72
585.79	3420.11
585.99	3483.59
586.18	3487.69
586.37	4458.43
586.57	6719.39
586.76	18587.36
586.96	36623.83
587.15	49755.40
587.34	57732.24
587.54	61477.97
587.73	53734.60
587.93	38772.14
588.12	30086.71
588.31	24520.33
588.51	22103.73
588.70	20346.57
588.89	17911.53
589.09	15243.03
589.28	13127.48
589.47	10422.11
589.67	7917.45
589.86	6240.16
590.06	4978.61
590.25	4505.53
590.44	3934.15
590.64	3610.57
590.83	3735.50
591.02	3669.96
591.22	3045.33
591.41	3256.27
591.60	3340.24
591.80	4005.83
591.99	2951.12
592.18	3188.69
592.38	3596.23
592.57	3383.24
592.76	3131.34
592.96	3303.37
593.15	3336.14
593.34	3565.51
593.54	3200.98
593.73	3291.09
593.92	3456.97
594.12	3567.56
594.31	3282.89
594.50	3319.76
594.70	3561.42
594.89	4063.17
595.08	3078.10
595.28	3377.10
595.47	4108.23
595.66	3598.28
595.86	3078.10
596.05	3057.62
596.24	3381.20
596.43	3798.98
596.63	3260.37
596.82	3450.83
597.01	3510.22
597.21	3725.26
597.40	3147.73
597.59	3174.35
597.79	3393.48
597.98	3596.23
598.17	3258.32
598.36	3192.78
598.56	3639.24
598.75	3289.04
598.94	3297.23
599.14	3301.33
599.33	3338.19
599.52	3565.51
599.71	3272.65
599.91	3237.84
600.10	3624.90
600.29	3577.80
600.48	3258.32
600.68	3268.56
600.87	3516.36
601.06	3307.47
601.26	3319.76
601.45	3313.61
601.64	3391.44
601.83	3854.28
602.03	3067.86
602.22	3194.83
602.41	3753.93
602.60	4038.59
602.80	3319.76
602.99	3358.67
603.18	3350.48
603.37	3469.26
603.57	3106.77
603.76	3262.41
603.95	3708.87
604.14	3254.22
604.34	3135.44
604.53	3168.21
604.72	3504.07
604.91	3569.61
605.10	3196.88
605.30	3082.19
605.49	3901.38
605.68	3667.91
605.87	3135.44
606.07	3190.74
606.26	3395.53
606.45	3559.37
606.64	3239.89
606.84	3106.77
607.03	3411.92
607.22	3551.18
607.41	3205.07
607.60	3139.54
607.80	3657.67
607.99	3424.20
608.18	3213.26
608.37	3162.06
608.56	3336.14
608.76	3590.09
608.95	3270.61
609.14	3117.01
609.33	3596.23
609.52	3686.34
609.72	3223.50
609.91	3248.08
610.10	3532.75
610.29	3782.60
610.48	3311.57
610.68	3325.90
610.87	3407.82
611.06	3602.38
611.25	3231.69
611.44	3301.33
611.63	3377.10
611.83	3676.10
612.02	3143.63
612.21	3295.18
612.40	2990.03
612.59	3176.40
612.79	3147.73
612.98	3352.52
613.17	3846.09
613.36	3438.54
613.55	3274.70
613.74	3182.54
613.93	3393.48
614.13	3510.22
614.32	3373.00
614.51	3205.07
614.70	3321.81
614.89	3356.62
615.08	3309.52
615.28	3590.09
615.47	3178.45
615.66	3538.89
615.85	3233.74
616.04	3237.84
616.23	3450.83
616.42	3405.77
616.62	3166.16
616.81	3186.64
617.00	3440.59
617.19	3540.94
617.38	3229.65
617.57	3330.00
617.76	3614.66
617.95	3657.67
618.15	3346.38
618.34	3409.87
618.53	3135.44
618.72	3733.45
618.91	3315.66
619.10	3272.65
619.29	3491.79
619.48	3469.26
619.68	3086.29
619.87	3164.11
620.06	3198.93
620.25	3553.23
620.44	3133.39
620.63	3133.39
620.82	3463.12
621.01	3467.21
621.20	3170.26
621.39	3389.39
621.59	3477.45
621.78	3418.06
621.97	3151.82
622.16	3250.13
622.35	3422.16
622.54	3608.52
622.73	3248.08
622.92	2994.13
623.11	3598.28
623.30	3327.95
623.49	3286.99
623.68	3104.72
623.88	3727.30
624.07	3358.67
624.26	3117.01
624.45	3155.92
624.64	3340.24
624.83	3473.36
625.02	3219.41
625.21	3194.83
625.40	3393.48
625.59	3717.06
625.78	3229.65
625.97	3239.89
626.16	3796.93
626.35	3520.46
626.54	3211.22
626.74	3377.10
626.93	3364.81
627.12	3340.24
627.31	3196.88
627.50	3196.88
627.69	3585.99
627.88	3211.22
628.07	3053.52
628.26	3051.47
628.45	3280.85
628.64	3258.32
628.83	3188.69
629.02	2953.17
629.21	3620.81
629.40	3495.88
629.59	3022.80
629.78	3125.20
629.97	3508.17
630.16	3508.17
630.35	3143.63
630.54	3264.46
630.73	3305.42
630.92	3426.25
631.11	3069.91
631.30	3198.93
631.49	3487.69
631.68	3379.15
631.87	3219.41
632.06	3018.71
632.25	3940.29
632.44	3373.00
632.63	3270.61
632.82	3309.52
633.01	3377.10
633.20	3493.83
633.39	3157.97
633.58	2979.79
633.77	3522.51
633.96	3622.86
634.15	3315.66
634.34	3315.66
634.53	3549.13
634.72	3354.57
634.91	2961.36
635.10	3143.63
635.29	3454.92
635.48	3452.88
635.67	3131.34
635.86	2979.79
636.05	3788.74
636.24	3418.06
636.43	3131.34
636.62	3274.70
636.81	2953.17
637.00	3336.14
637.19	3051.47
637.38	3274.70
637.57	3346.38
637.76	3401.68
637.95	3315.66
638.14	3348.43
638.33	3434.44
638.52	3459.02
638.71	3069.91
638.89	3053.52
639.08	4048.83
639.27	3653.58
639.46	3370.96
639.65	3571.66
639.84	3817.41
640.03	4001.73
640.22	3524.55
640.41	3567.56
640.60	3493.83
640.79	3473.36
640.98	3352.52
641.17	3407.82
641.36	3655.62
641.55	3590.09
641.74	3074.00
641.92	3106.77
642.11	3231.69
642.30	3426.25
642.49	3155.92
642.68	3143.63
642.87	3542.99
643.06	3606.47
643.25	3061.71
643.44	3112.91
643.63	3426.25
643.82	3557.32
644.00	3078.10
644.19	3198.93
644.38	3192.78
644.57	3669.96
644.76	3157.97
644.95	3262.41
645.14	3418.06
645.33	3403.72
645.52	3280.85
645.71	3063.76
645.89	3280.85
646.08	3508.17
646.27	3237.84
646.46	3344.33
646.65	3106.77
646.84	3565.51
647.03	3086.29
647.22	3311.57
647.40	3459.02
647.59	3317.71
647.78	2969.55
647.97	3135.44
648.16	3254.22
648.35	3731.40
648.54	3405.77
648.73	3270.61
648.91	3606.47
649.10	3420.11
649.29	3178.45
649.48	3096.53
649.67	3557.32
649.86	3461.07
650.05	3231.69
650.23	3373.00
650.42	3375.05
650.61	3747.78
650.80	3493.83
650.99	3391.44
651.18	3655.62
651.36	3655.62
651.55	3190.74
651.74	3323.85
651.93	3303.37
652.12	3424.20
652.31	3178.45
652.49	3231.69
652.68	3336.14
652.87	3803.08
653.06	3377.10
653.25	3409.87
653.44	3409.87
653.62	3778.50
653.81	3215.31
654.00	3200.98
654.19	3553.23
654.38	4108.23
654.56	3215.31
654.75	3157.97
654.94	3588.04
655.13	3483.59
655.32	3147.73
655.51	3256.27
655.69	3303.37
655.88	3733.45
656.07	3035.09
656.26	3188.69
656.45	3260.37
656.63	3504.07
656.82	3143.63
657.01	3524.55
657.20	3323.85
657.38	3758.02
657.57	3162.06
657.76	3024.85
657.95	3549.13
658.14	3311.57
658.32	3315.66
658.51	3078.10
658.70	3499.98
658.89	3563.47
659.08	3207.12
659.26	3426.25
659.45	3200.98
659.64	3416.01
659.83	3192.78
660.01	3565.51
660.20	3528.65
660.39	3815.37
660.58	2875.35
660.76	3182.54
660.95	3164.11
661.14	3495.88
661.33	3006.42
661.51	3196.88
661.70	3395.53
661.89	3510.22
662.08	3219.41
662.26	3028.95
662.45	3237.84
662.64	3829.70
662.83	3203.02
663.01	3082.19
663.20	3264.46
663.39	3786.69
663.58	3196.88
663.76	3131.34
663.95	3569.61
664.14	3186.64
664.32	3213.26
664.51	3102.67
664.70	3096.53
664.89	3549.13
665.07	3000.27
665.26	3311.57
665.45	3088.34
665.64	3506.12
665.82	3131.34
666.01	3346.38
666.20	3229.65
666.38	3680.20
666.57	3512.27
666.76	5685.16
666.95	12664.64
667.13	18652.90
667.32	22179.50
667.51	25020.03
667.69	25708.15
667.88	20827.84
668.07	15400.72
668.25	13260.60
668.44	11599.70
668.63	10235.75
668.81	9021.30
669.00	7759.75
669.19	7049.11
669.38	6334.37
669.56	5375.92
669.75	4757.43
669.94	4472.76
670.12	3768.26
670.31	3438.54
670.50	3401.68
670.68	3702.73
670.87	3512.27
671.06	3125.20
671.24	3295.18
671.43	3803.08
671.62	3401.68
671.80	3088.34
671.99	3409.87
672.18	3524.55
672.36	3616.71
672.55	3379.15
672.74	3289.04
672.92	3327.95
673.11	3588.04
673.29	3141.58
673.48	3336.14
673.67	3364.81
673.85	3575.75
674.04	3092.43
674.23	3295.18
674.41	3835.85
674.60	3211.22
674.79	2975.70
674.97	3086.29
675.16	3596.23
675.34	3665.86
675.53	3133.39
675.72	3250.13
675.90	3864.52
676.09	3373.00
676.28	3309.52
676.46	3037.14
676.65	3538.89
676.83	3233.74
677.02	3241.93
677.21	3264.46
677.39	3491.79
677.58	3209.17
677.77	3127.25
677.95	2967.51
678.14	3545.03
678.32	3321.81
678.51	3180.50
678.70	3555.27
678.88	3311.57
679.07	3459.02
679.25	3164.11
679.44	3198.93
679.63	3207.12
679.81	3428.30
680.00	3420.11
680.18	3291.09
680.37	3729.35
680.55	3418.06
680.74	3119.06
680.93	2942.93
681.11	3495.88
681.30	3508.17
681.48	3121.10
681.67	3221.45
681.85	3385.29
682.04	3229.65
682.23	3340.24
682.41	3354.57
682.60	3338.19
682.78	3428.30
682.97	3114.96
683.15	3252.17
683.34	3483.59
683.53	3751.88
683.71	3061.71
683.90	3278.80
684.08	3831.75
684.27	3348.43
684.45	3270.61
684.64	3338.19
684.82	3450.83
685.01	3606.47
685.19	3170.26
685.38	3499.98
685.57	3403.72
685.75	3260.37
685.94	3074.00
686.12	3112.91
686.31	3352.52
686.49	3858.37
686.68	2994.13
686.86	3209.17
687.05	3420.11
687.23	3837.89
687.42	3221.45
687.60	3045.33
687.79	3604.42
687.97	3739.59
688.16	3330.00
688.34	3469.26
688.53	3106.77
688.71	3575.75
688.90	3522.51
689.08	3295.18
689.27	3139.54
689.45	3702.73
689.64	3311.57
689.82	3229.65
690.01	3538.89
690.19	3452.88
690.38	3286.99
690.56	3295.18
690.75	3282.89
690.93	3286.99
691.12	3141.58
691.30	3229.65
691.49	3346.38
691.67	3428.30
691.86	3391.44
692.04	3190.74
692.23	3334.09
692.41	3391.44
692.60	3481.55
692.78	3323.85
692.97	3432.40
693.15	3526.60
693.34	3368.91
693.52	3389.39
693.71	3280.85
693.89	3319.76
694.08	3043.28
694.26	3237.84
694.44	3616.71
694.63	3665.86
694.81	3055.57
695.00	3219.41
695.18	3741.64
695.37	3934.15
695.55	3344.33
695.74	3309.52
695.92	3336.14
696.10	3704.78
696.29	3125.20
696.47	3239.89
696.66	3196.88
696.84	3227.60
697.03	3254.22
697.21	3471.31
697.40	4771.77
697.58	3723.21
697.76	3207.12
697.95	3164.11
698.13	3278.80
698.32	3344.33
698.50	3172.30
698.68	3215.31
698.87	3581.90
699.05	3831.75
699.24	3278.80
699.42	3252.17
699.61	3516.36
699.79	3491.79
699.97	3231.69
700.16	3028.95
700.34	3190.74
700.53	3409.87
700.71	3389.39
700.89	3311.57
701.08	3411.92
701.26	3411.92
701.45	3530.70
701.63	3133.39
701.81	3311.57
702.00	3246.03
702.18	3262.41
702.37	3207.12
702.55	3704.78
702.73	3475.40
702.92	3196.88
703.10	3545.03
703.28	3538.89
703.47	3213.26
703.65	3387.34
703.84	3305.42
704.02	3258.32
704.20	3833.80
704.39	3098.58
704.57	3094.48
704.75	3672.01
704.94	3471.31
705.12	3344.33
705.30	4026.31
705.49	8210.31
705.67	14487.33
705.86	19511.00
706.04	21403.32
706.22	23948.95
706.41	22204.08
706.59	16592.64
706.77	13303.60
706.96	11726.67
707.14	10907.48
707.32	9179.00
707.51	8038.28
707.69	6829.98
707.87	5947.30
708.06	4865.97
708.24	4313.02
708.42	3966.92
708.61	4341.69
708.79	3319.76
708.97	3411.92
709.16	3416.01
709.34	3456.97
709.52	3194.83
709.71	3276.75
709.89	3594.19
710.07	3221.45
710.26	3086.29
710.44	3192.78
710.62	3682.25
710.80	3385.29
710.99	3391.44
711.17	3389.39
711.35	3248.08
711.54	3338.19
711.72	3395.53
711.90	3200.98
712.09	3528.65
712.27	3272.65
712.45	3344.33
712.63	3250.13
712.82	3583.95
713.00	3448.78
713.18	3241.93
713.37	3448.78
713.55	3536.84
713.73	3610.57
713.91	3303.37
714.10	3205.07
714.28	3469.26
714.46	3491.79
714.65	3340.24
714.83	3295.18
715.01	3483.59
715.19	3473.36
715.38	3176.40
715.56	3270.61
715.74	3186.64
715.92	3309.52
716.11	3549.13
716.29	2965.46
716.47	3479.50
716.65	3393.48
716.84	2996.18
717.02	3229.65
717.20	3065.81
717.38	3260.37
717.57	3309.52
717.75	3254.22
717.93	3379.15
718.11	3575.75
718.30	3026.90
718.48	3182.54
718.66	3698.63
718.84	3710.92
719.03	3217.36
719.21	3076.05
719.39	3766.21
719.57	3610.57
719.75	3303.37
719.94	3065.81
720.12	3397.58
720.30	3454.92
720.48	3223.50
720.67	3299.28
720.85	3209.17
721.03	3239.89
721.21	3160.02
721.39	3237.84
721.58	3522.51
721.76	3411.92
721.94	3239.89
722.12	3356.62
722.30	3721.16
722.49	3325.90
722.67	3194.83
722.85	3270.61
723.03	3239.89
723.21	3319.76
723.40	3338.19
723.58	3299.28
723.76	3567.56
723.94	3717.06
724.12	3190.74
724.30	3473.36
724.49	3620.81
724.67	3241.93
724.85	3256.27
725.03	3114.96
725.21	3504.07
725.40	3755.97
725.58	3289.04
725.76	3409.87
725.94	3583.95
726.12	3196.88
726.30	3239.89
726.49	3110.86
726.67	3311.57
726.85	3542.99
727.03	3944.39
727.21	4919.22
727.39	6061.99
727.57	6481.82
727.76	6748.06
727.94	6764.44
728.12	5986.21
728.30	4974.52
728.48	4759.48
728.66	4472.76
728.84	4286.40
729.03	3872.71
729.21	3661.77
729.39	3540.94
729.57	3477.45
729.75	3508.17
729.93	3506.12
730.11	3137.49
730.30	3364.81
730.48	3411.92
730.66	3248.08
730.84	3233.74
731.02	3418.06
731.20	3409.87
731.38	3205.07
731.56	3157.97
731.74	3139.54
731.93	3499.98
732.11	3354.57
732.29	3166.16
732.47	3526.60
732.65	3442.64
732.83	3360.72
733.01	3311.57
733.19	3291.09
733.37	3538.89
733.56	3231.69
733.74	3149.78
733.92	3753.93
734.10	3354.57
734.28	3262.41
734.46	3026.90
734.64	3360.72
734.82	3379.15
735.00	3209.17
735.18	3133.39
735.36	3401.68
735.54	3444.68
735.73	3176.40
735.91	3356.62
736.09	3823.56
736.27	3393.48
736.45	3266.51
736.63	2920.40
736.81	3286.99
736.99	3712.97
737.17	3465.16
737.35	3098.58
737.53	3491.79
737.71	3377.10
737.89	3385.29
738.07	3119.06
738.25	3246.03
738.43	3082.19
738.61	3243.98
738.80	3033.04
738.98	3246.03
739.16	3379.15
739.34	3198.93
739.52	3471.31
739.70	3375.05
739.88	3626.95
740.06	3282.89
740.24	2955.22
740.42	3796.93
740.60	3078.10
740.78	3215.31
740.96	2979.79
741.14	3334.09
741.32	3481.55
741.50	3059.67
741.68	3479.50
741.86	3790.79
742.04	3262.41
742.22	3106.77
742.40	3123.15
742.58	3516.36
742.76	3313.61
742.94	3373.00
743.12	3076.05
743.30	3420.11
743.48	3504.07
743.66	3160.02
743.84	3174.35
744.02	3426.25
744.20	3491.79
744.38	3110.86
744.56	3190.74
744.74	3841.99
744.92	3502.03
745.10	3432.40
745.28	3258.32
745.46	3712.97
745.64	3383.24
745.82	3266.51
746.00	3145.68
746.18	3534.79
746.36	3180.50
746.54	3254.22
746.72	3213.26
746.90	3219.41
747.08	3723.21
747.26	3188.69
747.44	3274.70
747.62	3604.42
747.80	3520.46
747.98	3239.89
748.15	3235.79
748.33	3762.12
748.51	3467.21
748.69	3276.75
748.87	3082.19
749.05	3377.10
749.23	3393.48
749.41	3164.11
749.59	3137.49
749.77	3639.24
749.95	3391.44
750.13	3127.25
750.31	3395.53
750.49	3430.35
750.67	3614.66
750.85	3362.76
751.03	3190.74
751.20	3880.90
751.38	3336.14
751.56	3182.54
751.74	3262.41
751.92	3430.35
752.10	3205.07
752.28	3360.72
752.46	3157.97
752.64	3448.78
752.82	3366.86
753.00	3254.22
753.18	3129.30
753.35	3385.29
753.53	3303.37
753.71	3096.53
753.89	3274.70
754.07	3504.07
754.25	3753.93
754.43	3209.17
754.61	3100.62
754.79	3557.32
754.97	3352.52
755.14	3450.83
755.32	3131.34
755.50	3393.48
755.68	3487.69
755.86	3123.15
756.04	3112.91
756.22	2979.79
756.40	3604.42
756.57	3360.72
756.75	3219.41
756.93	3614.66
757.11	3674.06
757.29	3018.71
757.47	3098.58
757.65	3100.62
757.82	2955.22
758.00	3067.86
758.18	3256.27
758.36	3385.29
758.54	3778.50
758.72	3043.28
758.90	3338.19
759.07	3530.70
759.25	3248.08
759.43	3334.09
759.61	3033.04
759.79	4515.77
759.97	3624.90
760.15	3266.51
760.32	3114.96
760.50	3540.94
760.68	3780.55
760.86	3024.85
761.04	3362.76
761.22	3620.81
761.39	3493.83
761.57	3340.24
761.75	3180.50
761.93	3590.09
762.11	3354.57
762.28	3319.76
762.46	3180.50
762.64	3653.58
762.82	3121.10
763.00	3145.68
763.18	3411.92
763.35	3174.35
763.53	3600.33
763.71	3305.42
763.89	3190.74
764.07	3448.78
764.24	3411.92
764.42	3336.14
764.60	3233.74
764.78	3446.73
764.96	3592.14
765.13	3299.28
765.31	3049.43
765.49	3573.71
765.67	3233.74
765.84	3164.11
766.02	3129.30
766.20	3102.67
766.38	3502.03
766.56	3303.37
766.73	3243.98
766.91	3450.83
767.09	3551.18
767.27	3241.93
767.44	3092.43
767.62	3592.14
767.80	3553.23
767.98	3117.01
768.15	3143.63
768.33	3606.47
768.51	3696.58
768.69	3301.33
768.87	3176.40
769.04	3397.58
769.22	3999.68
769.40	3291.09
769.58	3270.61
769.75	3549.13
769.93	3737.54
770.11	3264.46
770.28	3110.86
770.46	3569.61
770.64	3532.75
770.82	3141.58
770.99	3135.44
771.17	3635.14
771.35	3336.14
771.53	3256.27
771.70	3143.63
771.88	3567.56
772.06	3395.53
772.23	3162.06
772.41	3221.45
772.59	3424.20
772.77	3256.27
772.94	3246.03
773.12	3315.66
773.30	3395.53
773.47	3477.45
773.65	3166.16
773.83	3348.43
774.01	3377.10
774.18	3037.14
774.36	3139.54
774.54	3080.14
774.71	3506.12
774.89	3139.54
775.07	3133.39
775.24	3221.45
775.42	3221.45
775.60	3829.70
775.78	3078.10
775.95	3020.75
776.13	3098.58
776.31	3135.44
776.48	3454.92
776.66	3295.18
776.84	3375.05
777.01	3219.41
777.19	3086.29
777.37	3074.00
777.54	3581.90
777.72	3897.28
777.90	3272.65
778.07	3196.88
778.25	4065.22
778.43	3608.52
778.60	3112.91
778.78	3174.35
778.96	3680.20
779.13	3147.73
779.31	3250.13
779.49	3178.45
779.66	3389.39
779.84	3297.23
780.01	3155.92
780.19	3147.73
780.37	3747.78
780.54	3577.80
780.72	3020.75
780.90	3227.60
781.07	3377.10
781.25	3246.03
781.43	3393.48
781.60	3207.12
781.78	3678.15
781.95	3452.88
782.13	3231.69
782.31	3153.87
782.48	3082.19
782.66	3454.92
782.83	3487.69
783.01	3252.17
783.19	3643.34
783.36	3370.96
783.54	3082.19
783.72	3276.75
783.89	3280.85
784.07	3467.21
784.24	3338.19
784.42	3325.90
784.60	3575.75
784.77	3524.55
784.95	2959.31
785.12	3151.82
785.30	3493.83
785.47	3307.47
785.65	3112.91
785.83	3289.04
786.00	3330.00
786.18	3424.20
786.35	3200.98
786.53	3188.69
786.71	3622.86
786.88	3553.23
787.06	3303.37
787.23	3327.95
787.41	3129.30
787.58	3411.92
787.76	3135.44
787.94	3217.36
788.11	3465.16
788.29	3196.88
788.46	3246.03
788.64	3045.33
788.81	3405.77
788.99	3237.84
789.16	3178.45
789.34	3200.98
789.52	3368.91
789.69	3321.81
789.87	3069.91
790.04	3176.40
790.22	3465.16
790.39	3817.41
790.57	3090.38
790.74	3147.73
790.92	3612.62
791.09	3094.48
791.27	3354.57
791.44	3272.65
791.62	3356.62
791.79	3598.28
791.97	3307.47
792.15	3520.46
792.32	3565.51
792.50	3569.61
792.67	3373.00
792.85	3454.92
793.02	3536.84
793.20	3340.24
793.37	3100.62
793.55	3147.73
793.72	3157.97
793.90	3645.38
794.07	3203.02
794.25	3137.49
794.42	3469.26
794.60	3401.68
794.77	3278.80
794.95	3305.42
795.12	3590.09
795.30	3344.33
795.47	2940.88
795.65	3549.13
795.82	3534.79
796.00	3260.37
796.17	3280.85
796.34	3106.77
796.52	3536.84
796.69	3618.76
796.87	3254.22
797.04	3346.38
797.22	3696.58
797.39	3459.02
797.57	3393.48
797.74	3139.54
797.92	3459.02
798.09	3278.80
798.27	3551.18
798.44	3176.40
798.62	3330.00
798.79	3499.98
798.96	3418.06
799.14	3227.60
799.31	4040.64
799.49	3401.68
799.66	3149.78
799.84	3196.88
800.01	3076.05
800.19	3553.23
800.36	2977.75
800.53	3237.84
800.71	3385.29
800.88	3747.78
801.06	3071.95
801.23	3149.78
801.41	3366.86
801.58	3375.05
801.75	3188.69
801.93	3246.03
802.10	3565.51
802.28	3379.15
802.45	3286.99
802.63	3325.90
802.80	3745.73
802.97	3352.52
803.15	3135.44
803.32	3092.43
803.50	3295.18
803.67	3291.09
803.84	3000.27
804.02	3215.31
804.19	3356.62
804.37	3028.95
804.54	3030.99
804.71	3131.34
804.89	3418.06
805.06	3246.03
805.24	3092.43
805.41	2947.03
805.58	3305.42
805.76	3960.77
805.93	3149.78
806.10	3289.04
806.28	3510.22
806.45	3436.49
806.63	3325.90
806.80	3311.57
806.97	3506.12
807.15	3502.03
807.32	3299.28
807.49	3143.63
807.67	3205.07
807.84	3516.36
808.01	3028.95
808.19	3395.53
808.36	3923.91
808.54	3395.53
808.71	3186.64
808.88	3082.19
809.06	3645.38
809.23	3745.73
809.40	3205.07
809.58	3114.96
809.75	3471.31
809.92	3186.64
810.10	3452.88
810.27	3133.39
810.44	3452.88
810.62	3727.30
810.79	3260.37
810.96	3198.93
811.14	3368.91
811.31	3540.94
811.48	3450.83
811.66	3215.31
811.83	3755.97
812.00	3631.05
812.18	3252.17
812.35	3475.40
812.52	3420.11
812.69	3303.37
812.87	3147.73
813.04	3123.15
813.21	3393.48
813.39	3205.07
813.56	3213.26
813.73	3475.40
813.91	3164.11
814.08	3467.21
814.25	3190.74
814.42	2897.88
814.60	3336.14
814.77	3473.36
814.94	3096.53
815.12	3301.33
815.29	3770.31
815.46	3254.22
815.63	3223.50
815.81	3160.02
815.98	3360.72
816.15	3446.73
816.33	3370.96
816.50	3182.54
816.67	3366.86
816.84	3368.91
817.02	3098.58
817.19	3217.36
817.36	3428.30
817.53	3532.75
817.71	3061.71
817.88	3182.54
818.05	3448.78
818.22	3307.47
818.40	3379.15
818.57	3131.34
818.74	3657.67
818.91	3420.11
819.09	3479.50
819.26	3252.17
819.43	3227.60
819.60	3305.42
819.78	3370.96
819.95	3295.18
820.12	3272.65
820.29	3776.45
820.47	3485.64
820.64	3221.45
820.81	3092.43
820.98	3293.13
821.15	3272.65
821.33	3332.05
821.50	3131.34
821.67	3585.99
821.84	3174.35
822.02	3225.55
822.19	3536.84
822.36	3358.67
822.53	3139.54
822.70	3063.76
822.88	3319.76
823.05	3723.21
823.22	3231.69
823.39	3176.40
823.56	3360.72
823.74	3794.89
823.91	3041.23
824.08	3125.20
824.25	3213.26
824.42	3737.54
824.60	3084.24
824.77	3366.86
824.94	3368.91
825.11	3577.80
825.28	3016.66
825.45	3368.91
825.63	3442.64
825.80	3213.26
825.97	3266.51
826.14	3241.93
826.31	3053.52
826.48	3583.95
826.66	3145.68
826.83	3065.81
827.00	3352.52
827.17	3196.88
827.34	3250.13
827.51	3080.14
827.69	3393.48
827.86	3110.86
828.03	3196.88
828.20	3264.46
828.37	3383.24
828.54	3448.78
828.71	3131.34
828.89	3289.04
829.06	3502.03
829.23	3715.02
829.40	3223.50
829.57	3180.50
829.74	3553.23
829.91	3289.04
830.09	3168.21
830.26	3319.76
830.43	3741.64
830.60	3364.81
830.77	3186.64
830.94	3444.68
831.11	3653.58
831.28	3401.68
831.46	3250.13
831.63	3213.26
831.80	3674.06
831.97	3295.18
832.14	3221.45
832.31	3166.16
832.48	3411.92
832.65	3712.97
832.82	3368.91
832.99	3203.02
833.17	3280.85
833.34	3624.90
833.51	3106.77
833.68	2994.13
833.85	3618.76
834.02	3176.40
834.19	3241.93
834.36	3155.92
834.53	3473.36
834.70	3641.29
834.87	3188.69
835.04	2990.03
835.22	3377.10
835.39	3297.23
835.56	3082.19
835.73	3053.52
835.90	3661.77
836.07	3221.45
836.24	3170.26
836.41	2992.08
836.58	3317.71
836.75	3631.05
836.92	3010.51
837.09	3006.42
837.26	3567.56
837.43	3459.02
837.60	3041.23
837.77	3090.38
837.94	3499.98
838.12	3643.34
838.29	2967.51
838.46	2912.21
838.63	3254.22
838.80	3753.93
838.97	3008.47
839.14	3004.37
839.31	3487.69
839.48	3510.22
839.65	3049.43
839.82	3131.34
839.99	3475.40
840.16	3456.97
840.33	2975.70
840.50	3057.62
840.67	3215.31
840.84	2979.79
841.01	2975.70
841.18	2924.50
841.35	3397.58
841.52	3565.51
841.69	3342.28
841.86	3033.04
842.03	3483.59
842.20	3588.04
842.37	2951.12
842.54	3102.67
842.71	3409.87
842.88	3149.78
843.05	3049.43
843.22	3018.71
843.39	3528.65
843.56	3284.94
843.73	2910.16
843.90	3057.62
844.07	3393.48
844.24	3633.10
844.41	3078.10
844.58	2996.18
844.75	3354.57
844.92	3526.60
845.09	3037.14
845.26	3010.51
845.43	3641.29
845.60	3360.72
845.77	3096.53
845.94	3125.20
846.10	3614.66
846.27	3121.10
846.44	2897.88
846.61	2904.02
846.78	3551.18
846.95	3655.62
847.12	2963.41
847.29	3069.91
847.46	3180.50
847.63	3688.39
847.80	2955.22
847.97	3024.85
848.14	3917.76
848.31	3381.20
848.48	2869.20
848.65	2938.84
848.82	3325.90
848.98	3993.54
849.15	3125.20
849.32	3114.96
849.49	3579.85
849.66	3346.38
849.83	2992.08
850.00	2975.70
850.17	3608.52
850.34	3291.09
850.51	2951.12
850.68	3065.81
850.85	3925.96
851.01	3487.69
851.18	2955.22
851.35	3096.53
851.52	3487.69
851.69	3798.98
851.86	2969.55
852.03	2979.79
852.20	3575.75
852.37	3401.68
852.53	2881.49
852.70	2899.92
852.87	3508.17
853.04	3575.75
853.21	2977.75
853.38	3323.85
853.55	3762.12
853.72	3715.02
853.89	2990.03
854.05	2930.64
854.22	3434.44
854.39	3401.68
854.56	2983.89
854.73	3170.26
854.90	3272.65
855.07	3397.58
855.23	2914.26
855.40	2912.21
855.57	3373.00
855.74	2918.36
855.91	3250.13
856.08	2838.48
856.25	3135.44
856.41	3385.29
856.58	3028.95
856.75	3008.47
856.92	3170.26
857.09	3641.29
857.26	2815.96
857.42	3074.00
857.59	3590.09
857.76	3424.20
857.93	2983.89
858.10	3108.82
858.27	3200.98
858.43	3516.36
858.60	3037.14
858.77	2910.16
858.94	3309.52
859.11	3680.20
859.27	3221.45
859.44	2969.55
859.61	3936.20
859.78	3614.66
859.95	2992.08
860.12	2926.55
860.28	3938.24
860.45	3852.23
860.62	2920.40
860.79	3172.30
860.95	3368.91
861.12	3293.13
861.29	2908.12
861.46	2965.46
861.63	3411.92
861.79	3528.65
861.96	2912.21
862.13	2992.08
862.30	3735.50
862.47	3346.38
862.63	2887.64
862.80	3078.10
862.97	3579.85
863.14	3532.75
863.30	3037.14
863.47	2990.03
863.64	3704.78
863.81	3438.54
863.97	2881.49
864.14	3047.38
864.31	3377.10
864.48	3401.68
864.65	3002.32
864.81	3094.48
864.98	3542.99
865.15	3663.82
865.32	3057.62
865.48	3049.43
865.65	3811.27
865.82	3291.09
865.98	3157.97
866.15	3084.24
866.32	3340.24
866.49	3422.16
866.65	3166.16
866.82	3117.01
866.99	3438.54
867.16	3307.47
867.32	3047.38
867.49	2910.16
867.66	3454.92
867.83	3280.85
867.99	2985.94
868.16	3063.76
868.33	3147.73
868.49	3432.40
868.66	3092.43
868.83	3147.73
868.99	3508.17
869.16	3487.69
869.33	3164.11
869.50	3084.24
869.66	3542.99
869.83	3401.68
870.00	2908.12
870.16	3170.26
870.33	3352.52
870.50	3545.03
870.66	3041.23
870.83	3006.42
871.00	3393.48
871.17	3565.51
871.33	3012.56
871.50	2983.89
871.67	3420.11
871.83	3114.96
872.00	3033.04
872.17	3035.09
872.33	3811.27
872.50	3737.54
872.67	3030.99
872.83	2975.70
873.00	3559.37
873.17	3385.29
873.33	3041.23
873.50	3041.23
873.67	3233.74
873.83	3239.89
874.00	2969.55
874.16	3225.55
874.33	3377.10
874.50	3076.05
874.66	2959.31
874.83	3078.10
875.00	3606.47
875.16	3577.80
875.33	3131.34
875.50	2742.23
875.66	3332.05
875.83	3426.25
875.99	3123.15
876.16	3117.01
876.33	3256.27
876.49	3313.61
876.66	3033.04
876.83	3129.30
876.99	3149.78
877.16	3377.10
877.32	2961.36
877.49	3160.02
877.66	3551.18
877.82	3696.58
877.99	3088.34
878.15	3272.65
878.32	3424.20
878.49	3520.46
878.65	3125.20
878.82	3350.48
878.98	3319.76
879.15	3606.47
879.32	3219.41
879.48	3297.23
879.65	3452.88
879.81	3397.58
879.98	3071.95
880.15	3176.40
880.31	3620.81
880.48	3266.51
880.64	3194.83
880.81	3180.50
880.97	3739.59
881.14	3629.00
881.31	3020.75
881.47	3225.55
881.64	3463.12
881.80	3037.14
881.97	3241.93
882.13	3082.19
882.30	3172.30
882.47	3303.37
882.63	3006.42
882.80	2994.13
882.96	3344.33
883.13	3655.62
883.29	3059.67
883.46	2975.70
883.62	3958.72
883.79	3418.06
883.95	3250.13
884.12	2934.74
884.29	3680.20
884.45	3352.52
884.62	3065.81
884.78	3002.32
884.95	3831.75
885.11	3258.32
885.28	3098.58
885.44	3106.77
885.61	3610.57
885.77	3770.31
885.94	3223.50
886.10	3106.77
886.27	3446.73
886.43	3850.18
886.60	3237.84
886.76	3035.09
886.93	3217.36
887.09	3483.59
887.26	2961.36
887.42	3121.10
887.59	3678.15
887.75	3934.15
887.92	3250.13
888.08	3123.15
888.25	3872.71
888.41	3737.54
888.58	3155.92
888.74	3016.66
888.91	3348.43
>>>>>End Processed Spectral Data<<<<<
