SpectraSuite Data File
++++++++++++++++++++++++++++++++++++
Date: Fri May 06 09:28:37 CEST 2016
User: root
Dark Spectrum Present: No
Reference Spectrum Present: No
Number of Sampled Component Spectra: 1
Spectrometers: USB4C02835
Integration Time (usec): 100000 (USB4C02835)
Spectra Averaged: 1 (USB4C02835)
Boxcar Smoothing: 0 (USB4C02835)
Correct for Electrical Dark: No (USB4C02835)
Strobe/Lamp Enabled: No (USB4C02835)
Correct for Detector Non-linearity: No (USB4C02835)
Correct for Stray Light: No (USB4C02835)
Number of Pixels in Processed Spectrum: 3648
>>>>>Begin Processed Spectral Data<<<<<
177.47	2353.12
177.69	2353.12
177.91	2353.12
178.13	2373.60
178.36	2437.08
178.58	3180.50
178.80	3266.51
179.02	3084.24
179.24	3184.59
179.46	2885.59
179.68	2998.23
179.90	3327.95
180.13	3409.87
180.35	2785.24
180.57	2815.96
180.79	3590.09
181.01	3370.96
181.23	2985.94
181.45	3129.30
181.67	3588.04
181.90	3692.49
182.12	2967.51
182.34	2879.44
182.56	3579.85
182.78	3573.71
183.00	2965.46
183.22	3026.90
183.44	3135.44
183.66	4108.23
183.89	3157.97
184.11	2994.13
184.33	3557.32
184.55	3735.50
184.77	2983.89
184.99	2979.79
185.21	3442.64
185.43	4046.79
185.65	2916.31
185.87	2883.54
186.10	3930.05
186.32	4108.23
186.54	3078.10
186.76	3102.67
186.98	3725.26
187.20	3385.29
187.42	2953.17
187.64	2967.51
187.86	3518.41
188.08	3706.82
188.30	2881.49
188.52	3059.67
188.75	3737.54
188.97	3712.97
189.19	2922.45
189.41	2947.03
189.63	3549.13
189.85	3356.62
190.07	2865.11
190.29	2861.01
190.51	3504.07
190.73	3184.59
190.95	3200.98
191.17	3041.23
191.39	3090.38
191.61	3401.68
191.84	2971.60
192.06	3147.73
192.28	3170.26
192.50	4124.61
192.72	3151.82
192.94	2967.51
193.16	3674.06
193.38	3526.60
193.60	2910.16
193.82	3137.49
194.04	3727.30
194.26	3557.32
194.48	3082.19
194.70	2967.51
194.92	3401.68
195.14	3626.95
195.36	2867.16
195.58	2983.89
195.80	3450.83
196.02	3327.95
196.24	2895.83
196.46	3067.86
196.69	3360.72
196.91	3885.00
197.13	2922.45
197.35	3035.09
197.57	3796.93
197.79	3643.34
198.01	3114.96
198.23	3086.29
198.45	3493.83
198.67	3207.12
198.89	2707.41
199.11	3043.28
199.33	3309.52
199.55	3022.80
199.77	2899.92
199.99	3229.65
200.21	3381.20
200.43	3461.07
200.65	2877.40
200.87	2805.72
201.09	3545.03
201.31	3450.83
201.53	3037.14
201.75	3012.56
201.97	3436.49
202.19	3430.35
202.41	3030.99
202.63	3092.43
202.85	3590.09
203.07	3571.66
203.29	3069.91
203.51	2901.97
203.73	3225.55
203.95	4114.37
204.17	2990.03
204.39	3133.39
204.61	3491.79
204.83	3311.57
205.05	3131.34
205.27	2979.79
205.49	3999.68
205.71	3446.73
205.93	2848.72
206.15	2861.01
206.37	3516.36
206.59	3336.14
206.81	2756.57
207.03	2858.96
207.25	3297.23
207.47	3581.90
207.69	2916.31
207.91	3237.84
208.13	3844.04
208.34	3303.37
208.56	2934.74
208.78	3047.38
209.00	3479.50
209.22	3319.76
209.44	2918.36
209.66	2985.94
209.88	3475.40
210.10	3420.11
210.32	2967.51
210.54	3114.96
210.76	3368.91
210.98	3753.93
211.20	2797.53
211.42	3114.96
211.64	3672.01
211.86	3563.47
212.08	3043.28
212.30	3000.27
212.52	3409.87
212.74	3600.33
212.96	3033.04
213.17	3002.32
213.39	3672.01
213.61	3885.00
213.83	2850.77
214.05	2815.96
214.27	3737.54
214.49	3196.88
214.71	2953.17
214.93	3082.19
215.15	3459.02
215.37	3585.99
215.59	2873.30
215.81	2996.18
216.03	3647.43
216.24	3504.07
216.46	2963.41
216.68	2955.22
216.90	3616.71
217.12	3704.78
217.34	2881.49
217.56	3135.44
217.78	3712.97
218.00	3622.86
218.22	3106.77
218.44	3018.71
218.66	3497.93
218.87	3928.00
219.09	3065.81
219.31	2906.07
219.53	3542.99
219.75	3362.76
219.97	3039.19
220.19	3030.99
220.41	3430.35
220.63	3801.03
220.85	2967.51
221.06	2930.64
221.28	3739.59
221.50	3573.71
221.72	3033.04
221.94	2852.82
222.16	3475.40
222.38	3680.20
222.60	2856.92
222.82	2985.94
223.03	3676.10
223.25	3246.03
223.47	2981.84
223.69	3256.27
223.91	3659.72
224.13	3473.36
224.35	2852.82
224.57	3094.48
224.78	3657.67
225.00	3241.93
225.22	3088.34
225.44	2912.21
225.66	3571.66
225.88	3379.15
226.10	3106.77
226.32	3018.71
226.53	3782.60
226.75	3375.05
226.97	3059.67
227.19	2994.13
227.41	3295.18
227.63	3420.11
227.85	2725.85
228.06	3041.23
228.28	3510.22
228.50	3710.92
228.72	2828.24
228.94	2906.07
229.16	3080.14
229.37	3196.88
229.59	2885.59
229.81	3301.33
230.03	3422.16
230.25	3205.07
230.47	2815.96
230.69	3061.71
230.90	3639.24
231.12	3246.03
231.34	3045.33
231.56	3024.85
231.78	3160.02
232.00	3389.39
232.21	3096.53
232.43	3018.71
232.65	3012.56
232.87	3545.03
233.09	2807.77
233.30	2875.35
233.52	3682.25
233.74	3397.58
233.96	2885.59
234.18	3233.74
234.40	3385.29
234.61	3966.92
234.83	2885.59
235.05	2906.07
235.27	3981.25
235.49	3741.64
235.70	2844.63
235.92	2957.27
236.14	3581.90
236.36	4011.97
236.58	2848.72
236.79	3047.38
237.01	3413.96
237.23	3389.39
237.45	3188.69
237.67	2959.31
237.88	3553.23
238.10	3819.46
238.32	2885.59
238.54	2912.21
238.76	3526.60
238.97	3229.65
239.19	2848.72
239.41	3043.28
239.63	3723.21
239.85	3356.62
240.06	2959.31
240.28	2938.84
240.50	3635.14
240.72	3473.36
240.93	2912.21
241.15	3098.58
241.37	3319.76
241.59	3688.39
241.81	2891.73
242.02	3018.71
242.24	3573.71
242.46	3532.75
242.68	2750.42
242.89	2887.64
243.11	3649.48
243.33	3409.87
243.55	3000.27
243.76	2959.31
243.98	3278.80
244.20	3407.82
244.42	2996.18
244.64	2959.31
244.85	3233.74
245.07	3209.17
245.29	2959.31
245.51	3010.51
245.72	3495.88
245.94	3573.71
246.16	2838.48
246.38	3022.80
246.59	3346.38
246.81	3295.18
247.03	2844.63
247.24	2811.86
247.46	3362.76
247.68	3481.55
247.90	2840.53
248.11	2979.79
248.33	3635.14
248.55	3436.49
248.77	3016.66
248.98	3043.28
249.20	3796.93
249.42	3559.37
249.64	2834.39
249.85	2975.70
250.07	3280.85
250.29	3596.23
250.50	3039.19
250.72	2869.20
250.94	3610.57
251.16	3971.01
251.37	2940.88
251.59	2977.75
251.81	3528.65
252.02	3798.98
252.24	2861.01
252.46	3092.43
252.68	3282.89
252.89	3360.72
253.11	2854.87
253.33	3151.82
253.54	3813.32
253.76	3213.26
253.98	3004.37
254.20	2918.36
254.41	3239.89
254.63	3426.25
254.85	2838.48
255.06	3143.63
255.28	3585.99
255.50	3364.81
255.71	2877.40
255.93	2756.57
256.15	3512.27
256.36	3559.37
256.58	2762.71
256.80	2858.96
257.02	3465.16
257.23	3274.70
257.45	2942.93
257.67	3090.38
257.88	3360.72
258.10	3499.98
258.32	2992.08
258.53	3033.04
258.75	3819.46
258.97	3364.81
259.18	2838.48
259.40	2885.59
259.62	3876.80
259.83	3854.28
260.05	3012.56
260.27	4018.11
260.48	3612.62
260.70	3289.04
260.92	2813.91
261.13	3028.95
261.35	3590.09
261.57	3534.79
261.78	2811.86
262.00	2922.45
262.22	3542.99
262.43	3336.14
262.65	2965.46
262.86	3082.19
263.08	3956.68
263.30	3448.78
263.51	2811.86
263.73	2938.84
263.95	3948.48
264.16	3172.30
264.38	2885.59
264.60	2926.55
264.81	3454.92
265.03	3704.78
265.25	3377.10
265.46	2940.88
265.68	3698.63
265.89	3559.37
266.11	2842.58
266.33	2942.93
266.54	3641.29
266.76	3643.34
266.98	3078.10
267.19	3155.92
267.41	3667.91
267.62	3393.48
267.84	2791.38
268.06	3102.67
268.27	3483.59
268.49	3735.50
268.70	3018.71
268.92	3033.04
269.14	3280.85
269.35	3041.23
269.57	3129.30
269.79	3045.33
270.00	3354.57
270.22	3772.36
270.43	2850.77
270.65	2766.81
270.87	3510.22
271.08	3530.70
271.30	3096.53
271.51	2934.74
271.73	3598.28
271.95	3819.46
272.16	2791.38
272.38	3131.34
272.59	3303.37
272.81	3473.36
273.02	2887.64
273.24	3084.24
273.46	3692.49
273.67	3239.89
273.89	2879.44
274.10	2924.50
274.32	3780.55
274.54	3520.46
274.75	3041.23
274.97	3131.34
275.18	3608.52
275.40	3536.84
275.61	2955.22
275.83	3198.93
276.05	3164.11
276.26	3444.68
276.48	2973.65
276.69	3205.07
276.91	3303.37
277.12	3719.11
277.34	3110.86
277.55	3356.62
277.77	3454.92
277.99	3336.14
278.20	3078.10
278.42	2979.79
278.63	3291.09
278.85	3153.87
279.06	3090.38
279.28	3237.84
279.49	3573.71
279.71	3631.05
279.93	3141.58
280.14	3196.88
280.36	3321.81
280.57	3581.90
280.79	3112.91
281.00	2969.55
281.22	3358.67
281.43	3669.96
281.65	2858.96
281.86	3039.19
282.08	3557.32
282.29	3948.48
282.51	3004.37
282.73	3026.90
282.94	3090.38
283.16	3579.85
283.37	3164.11
283.59	3133.39
283.80	3522.51
284.02	3411.92
284.23	3102.67
284.45	3196.88
284.66	3330.00
284.88	3336.14
285.09	2959.31
285.31	3246.03
285.52	3547.08
285.74	3164.11
285.95	3278.80
286.17	3076.05
286.38	3667.91
286.60	3291.09
286.81	3078.10
287.03	3102.67
287.24	3407.82
287.46	3561.42
287.67	3213.26
287.89	3274.70
288.10	3459.02
288.32	3483.59
288.53	3270.61
288.75	3227.60
288.96	3682.25
289.18	3407.82
289.39	3086.29
289.61	3164.11
289.82	3901.38
290.04	3860.42
290.25	2959.31
290.47	3239.89
290.68	3493.83
290.90	3733.45
291.11	2824.15
291.33	3289.04
291.54	3254.22
291.76	3291.09
291.97	3190.74
292.18	3192.78
292.40	3373.00
292.61	3336.14
292.83	3364.81
293.04	3082.19
293.26	3518.41
293.47	3350.48
293.69	3112.91
293.90	2969.55
294.12	3772.36
294.33	3483.59
294.55	3098.58
294.76	3280.85
294.97	3739.59
295.19	3977.16
295.40	3121.10
295.62	3176.40
295.83	3639.24
296.05	3301.33
296.26	3370.96
296.48	3121.10
296.69	3409.87
296.90	3426.25
297.12	3203.02
297.33	3289.04
297.55	3538.89
297.76	3532.75
297.98	3205.07
298.19	3332.05
298.41	3413.96
298.62	3319.76
298.83	3250.13
299.05	3155.92
299.26	3215.31
299.48	3321.81
299.69	3190.74
299.90	3041.23
300.12	3330.00
300.33	3565.51
300.55	3157.97
300.76	3123.15
300.98	3256.27
301.19	3608.52
301.40	3108.82
301.62	3055.57
301.83	3491.79
302.05	3483.59
302.26	3055.57
302.47	3166.16
302.69	3190.74
302.90	3469.26
303.12	2967.51
303.33	3276.75
303.54	3923.91
303.76	3344.33
303.97	3020.75
304.19	3319.76
304.40	3270.61
304.61	3622.86
304.83	3192.78
305.04	3135.44
305.26	3659.72
305.47	3334.09
305.68	3112.91
305.90	3037.14
306.11	3694.54
306.33	3397.58
306.54	2942.93
306.75	3123.15
306.97	3166.16
307.18	3266.51
307.39	3071.95
307.61	3188.69
307.82	3434.44
308.04	3557.32
308.25	2936.79
308.46	3379.15
308.68	3459.02
308.89	3469.26
309.10	3303.37
309.32	3248.08
309.53	3479.50
309.74	3600.33
309.96	2987.99
310.17	3207.12
310.39	3411.92
310.60	3579.85
310.81	3186.64
311.03	3086.29
311.24	3612.62
311.45	3389.39
311.67	3325.90
311.88	3262.41
312.09	3348.43
312.31	3315.66
312.52	2969.55
312.73	3074.00
312.95	3250.13
313.16	3291.09
313.37	3368.91
313.59	3254.22
313.80	3524.55
314.01	3717.06
314.23	3143.63
314.44	3008.47
314.65	3155.92
314.87	3332.05
315.08	3096.53
315.29	3074.00
315.51	3221.45
315.72	3174.35
315.93	3117.01
316.15	3168.21
316.36	3270.61
316.57	3446.73
316.79	3020.75
317.00	3117.01
317.21	3657.67
317.43	3239.89
317.64	3096.53
317.85	2959.31
318.07	3342.28
318.28	3375.05
318.49	3178.45
318.70	3235.79
318.92	3397.58
319.13	3465.16
319.34	3280.85
319.56	3117.01
319.77	3459.02
319.98	3690.44
320.20	3364.81
320.41	3350.48
320.62	3528.65
320.83	3149.78
321.05	3219.41
321.26	3131.34
321.47	3483.59
321.69	3733.45
321.90	3002.32
322.11	3016.66
322.32	3442.64
322.54	3749.83
322.75	3086.29
322.96	4212.67
323.18	3157.97
323.39	3012.56
323.60	2971.60
323.81	3166.16
324.03	3348.43
324.24	3459.02
324.45	3184.59
324.66	2996.18
324.88	3739.59
325.09	3755.97
325.30	3051.47
325.52	3049.43
325.73	3514.31
325.94	3227.60
326.15	2969.55
326.37	2936.79
326.58	3583.95
326.79	3811.27
327.00	3082.19
327.22	3061.71
327.43	3282.89
327.64	3250.13
327.85	3227.60
328.07	3200.98
328.28	3971.01
328.49	3344.33
328.70	3102.67
328.92	3106.77
329.13	3444.68
329.34	3573.71
329.55	3397.58
329.76	3221.45
329.98	3334.09
330.19	3710.92
330.40	3254.22
330.61	3268.56
330.83	3594.19
331.04	3303.37
331.25	3186.64
331.46	3213.26
331.68	3209.17
331.89	3559.37
332.10	3147.73
332.31	3008.47
332.52	3452.88
332.74	3737.54
332.95	2934.74
333.16	3108.82
333.37	3581.90
333.58	3327.95
333.80	3119.06
334.01	2838.48
334.22	3393.48
334.43	3319.76
334.64	3059.67
334.86	3061.71
335.07	3235.79
335.28	3755.97
335.49	2975.70
335.70	3162.06
335.92	3676.10
336.13	3876.80
336.34	3078.10
336.55	3114.96
336.76	3491.79
336.98	3057.62
337.19	3098.58
337.40	3260.37
337.61	3977.16
337.82	3323.85
338.04	3198.93
338.25	2871.25
338.46	3401.68
338.67	3379.15
338.88	2977.75
339.09	2965.46
339.31	3381.20
339.52	3155.92
339.73	3035.09
339.94	3182.54
340.15	3629.00
340.36	3305.42
340.58	3112.91
340.79	3069.91
341.00	3510.22
341.21	3190.74
341.42	3393.48
341.63	3139.54
341.85	3573.71
342.06	3452.88
342.27	3037.14
342.48	3299.28
342.69	3117.01
342.90	3508.17
343.12	3532.75
343.33	3028.95
343.54	3573.71
343.75	3786.69
343.96	3182.54
344.17	3000.27
344.38	3375.05
344.60	3297.23
344.81	2963.41
345.02	3166.16
345.23	3622.86
345.44	4042.69
345.65	3192.78
345.86	3225.55
346.07	3600.33
346.29	3323.85
346.50	3258.32
346.71	3182.54
346.92	3792.84
347.13	3938.24
347.34	3246.03
347.55	2947.03
347.76	3557.32
347.98	3180.50
348.19	3215.31
348.40	3297.23
348.61	3395.53
348.82	3694.54
349.03	3147.73
349.24	2981.84
349.45	3952.58
349.66	3090.38
349.88	3049.43
350.09	3108.82
350.30	3796.93
350.51	3690.44
350.72	3317.71
350.93	3139.54
351.14	3368.91
351.35	3524.55
351.56	3200.98
351.77	3225.55
351.99	3430.35
352.20	3768.26
352.41	3237.84
352.62	2904.02
352.83	3504.07
353.04	3450.83
353.25	3143.63
353.46	3123.15
353.67	3626.95
353.88	3049.43
354.09	3020.75
354.30	3174.35
354.52	3618.76
354.73	3389.39
354.94	3143.63
355.15	3172.30
355.36	3889.09
355.57	3319.76
355.78	2971.60
355.99	3141.58
356.20	3327.95
356.41	3766.21
356.62	3188.69
356.83	3131.34
357.04	3721.16
357.25	3100.62
357.46	3086.29
357.68	3043.28
357.89	3123.15
358.10	3524.55
358.31	3057.62
358.52	3160.02
358.73	3217.36
358.94	3307.47
359.15	3104.72
359.36	3119.06
359.57	3424.20
359.78	3362.76
359.99	3260.37
360.20	3000.27
360.41	3471.31
360.62	3536.84
360.83	3182.54
361.04	3076.05
361.25	3569.61
361.46	3852.23
361.67	3286.99
361.88	3125.20
362.09	3631.05
362.30	3495.88
362.51	2961.36
362.72	3192.78
362.93	3643.34
363.14	3514.31
363.35	3233.74
363.56	3006.42
363.78	3737.54
363.99	3659.72
364.20	3069.91
364.41	3137.49
364.62	3794.89
364.83	3565.51
365.04	3098.58
365.25	3172.30
365.46	3971.01
365.67	3291.09
365.88	3313.61
366.09	3088.34
366.30	3393.48
366.51	3469.26
366.72	3002.32
366.93	3076.05
367.14	3452.88
367.35	3758.02
367.56	2957.27
367.77	3297.23
367.98	3502.03
368.18	3561.42
368.39	3246.03
368.60	3057.62
368.81	3620.81
369.02	3590.09
369.23	3117.01
369.44	2971.60
369.65	3327.95
369.86	3563.47
370.07	3252.17
370.28	3033.04
370.49	3461.07
370.70	3508.17
370.91	3037.14
371.12	3004.37
371.33	3672.01
371.54	3330.00
371.75	3239.89
371.96	2818.00
372.17	3551.18
372.38	3385.29
372.59	3176.40
372.80	3110.86
373.01	3426.25
373.22	3452.88
373.43	3063.76
373.64	2920.40
373.85	3692.49
374.06	3729.35
374.26	3246.03
374.47	3194.83
374.68	3833.80
374.89	3516.36
375.10	3112.91
375.31	3168.21
375.52	3426.25
375.73	3493.83
375.94	3012.56
376.15	3198.93
376.36	3323.85
376.57	3303.37
376.78	3112.91
376.99	3133.39
377.20	3663.82
377.40	3409.87
377.61	3387.34
377.82	3110.86
378.03	3731.40
378.24	3583.95
378.45	3237.84
378.66	3180.50
378.87	3069.91
379.08	3200.98
379.29	3143.63
379.50	3270.61
379.71	3397.58
379.91	3569.61
380.12	3102.67
380.33	3203.02
380.54	3416.01
380.75	3508.17
380.96	3065.81
381.17	3209.17
381.38	3459.02
381.59	3364.81
381.80	3153.87
382.00	3221.45
382.21	3424.20
382.42	3768.26
382.63	3409.87
382.84	3321.81
383.05	3639.24
383.26	3778.50
383.47	3301.33
383.68	3076.05
383.88	3545.03
384.09	3497.93
384.30	3385.29
384.51	3209.17
384.72	3280.85
384.93	3117.01
385.14	3209.17
385.35	3385.29
385.55	3168.21
385.76	3698.63
385.97	3098.58
386.18	2942.93
386.39	3164.11
386.60	3352.52
386.81	3149.78
387.02	3033.04
387.22	3174.35
387.43	3545.03
387.64	3160.02
387.85	3407.82
388.06	3565.51
388.27	4261.82
388.48	7184.27
388.68	10905.43
388.89	13752.11
389.10	14716.70
389.31	14419.75
389.52	11706.19
389.73	10135.40
389.93	9488.24
390.14	8324.99
390.35	7774.09
390.56	7397.26
390.77	6256.54
390.98	4671.42
391.18	4147.14
391.39	3901.38
391.60	3540.94
391.81	3299.28
392.02	3190.74
392.23	3960.77
392.43	3469.26
392.64	3176.40
392.85	3196.88
393.06	3794.89
393.27	3399.63
393.47	3174.35
393.68	3227.60
393.89	3348.43
394.10	3739.59
394.31	3143.63
394.52	3131.34
394.72	3239.89
394.93	3715.02
395.14	3024.85
395.35	3155.92
395.56	3237.84
395.76	3403.72
395.97	3090.38
396.18	3262.41
396.39	3344.33
396.60	4085.70
396.80	3479.50
397.01	3409.87
397.22	3579.85
397.43	3565.51
397.64	3139.54
397.84	3248.08
398.05	3891.14
398.26	3413.96
398.47	3215.31
398.67	3305.42
398.88	3379.15
399.09	3606.47
399.30	3188.69
399.51	3274.70
399.71	3270.61
399.92	3540.94
400.13	3143.63
400.34	3125.20
400.54	3516.36
400.75	3747.78
400.96	3256.27
401.17	3528.65
401.37	3506.12
401.58	3426.25
401.79	3078.10
402.00	3237.84
402.21	3950.53
402.41	3604.42
402.62	3397.58
402.83	3536.84
403.04	3837.89
403.24	4245.44
403.45	3280.85
403.66	3360.72
403.87	3588.04
404.07	3696.58
404.28	3340.24
404.49	3467.21
404.70	3452.88
404.90	3590.09
405.11	3131.34
405.32	3160.02
405.52	3291.09
405.73	3311.57
405.94	3006.42
406.15	3268.56
406.35	3610.57
406.56	3684.30
406.77	3155.92
406.98	3164.11
407.18	3307.47
407.39	3858.37
407.60	3155.92
407.80	3198.93
408.01	3323.85
408.22	3557.32
408.43	3090.38
408.63	3286.99
408.84	3729.35
409.05	3672.01
409.25	3117.01
409.46	3198.93
409.67	3360.72
409.88	3336.14
410.08	3190.74
410.29	3131.34
410.50	3581.90
410.70	3510.22
410.91	3024.85
411.12	3237.84
411.32	3409.87
411.53	3221.45
411.74	3074.00
411.95	3215.31
412.15	3487.69
412.36	3618.76
412.57	3387.34
412.77	3293.13
412.98	3467.21
413.19	3393.48
413.39	3246.03
413.60	3131.34
413.81	3733.45
414.01	3231.69
414.22	3207.12
414.43	3346.38
414.63	3307.47
414.84	3641.29
415.05	3147.73
415.25	3014.61
415.46	3608.52
415.67	3420.11
415.87	3104.72
416.08	3143.63
416.29	3403.72
416.49	3600.33
416.70	3309.52
416.91	3194.83
417.11	3332.05
417.32	3786.69
417.53	3213.26
417.73	3217.36
417.94	3475.40
418.15	3450.83
418.35	3217.36
418.56	3182.54
418.77	4009.92
418.97	3528.65
419.18	3241.93
419.38	2873.30
419.59	3495.88
419.80	3743.69
420.00	3055.57
420.21	3129.30
420.42	3698.63
420.62	3499.98
420.83	3141.58
421.04	3121.10
421.24	3549.13
421.45	3735.50
421.65	3151.82
421.86	3239.89
422.07	3641.29
422.27	3631.05
422.48	3041.23
422.69	3016.66
422.89	3499.98
423.10	3360.72
423.30	3139.54
423.51	3217.36
423.72	3532.75
423.92	3680.20
424.13	3014.61
424.33	3239.89
424.54	3659.72
424.75	3483.59
424.95	3325.90
425.16	3114.96
425.36	3332.05
425.57	3680.20
425.78	3334.09
425.98	3356.62
426.19	3430.35
426.39	3160.02
426.60	3205.07
426.81	3309.52
427.01	3573.71
427.22	3305.42
427.42	3014.61
427.63	3090.38
427.83	3626.95
428.04	3796.93
428.25	3155.92
428.45	3186.64
428.66	3706.82
428.86	3321.81
429.07	3211.22
429.28	3194.83
429.48	3487.69
429.69	3278.80
429.89	3295.18
430.10	3157.97
430.30	3575.75
430.51	3708.87
430.71	3024.85
430.92	3252.17
431.13	3248.08
431.33	3614.66
431.54	3221.45
431.74	3336.14
431.95	3971.01
432.15	3221.45
432.36	3098.58
432.56	3155.92
432.77	3893.19
432.98	3766.21
433.18	3237.84
433.39	3065.81
433.59	3403.72
433.80	3903.43
434.00	3297.23
434.21	3217.36
434.41	3223.50
434.62	3968.96
434.82	3041.23
435.03	3139.54
435.23	3577.80
435.44	3084.24
435.64	3037.14
435.85	3200.98
436.06	3532.75
436.26	3647.43
436.47	3139.54
436.67	3065.81
436.88	3491.79
437.08	3676.10
437.29	3346.38
437.49	3360.72
437.70	3719.11
437.90	3434.44
438.11	3325.90
438.31	3274.70
438.52	3678.15
438.72	3616.71
438.93	3456.97
439.13	3346.38
439.34	3614.66
439.54	3334.09
439.75	3309.52
439.95	3286.99
440.16	3229.65
440.36	3348.43
440.57	3172.30
440.77	3162.06
440.98	3467.21
441.18	3583.95
441.39	3090.38
441.59	3078.10
441.80	3825.61
442.00	3303.37
442.21	3319.76
442.41	2975.70
442.62	3688.39
442.82	3327.95
443.02	3090.38
443.23	3080.14
443.43	3368.91
443.64	3751.88
443.84	3039.19
444.05	3217.36
444.25	3477.45
444.46	3266.51
444.66	3117.01
444.87	3428.30
445.07	3164.11
445.28	3389.39
445.48	3319.76
445.69	3198.93
445.89	4032.45
446.09	3313.61
446.30	3444.68
446.50	3489.74
446.71	4986.80
446.91	6109.09
447.12	6629.27
447.32	7260.05
447.53	7223.19
447.73	6281.12
447.93	5277.62
448.14	5146.55
448.34	5371.82
448.55	4501.44
448.75	4376.51
448.96	4224.96
449.16	4151.23
449.36	4061.12
449.57	3327.95
449.77	3231.69
449.98	3356.62
450.18	3549.13
450.39	3043.28
450.59	3428.30
450.79	3502.03
451.00	3254.22
451.20	3401.68
451.41	3162.06
451.61	3510.22
451.81	3323.85
452.02	3147.73
452.22	3135.44
452.43	3342.28
452.63	3274.70
452.84	3172.30
453.04	3104.72
453.24	3610.57
453.45	3297.23
453.65	3221.45
453.86	3106.77
454.06	3518.41
454.26	3499.98
454.47	3139.54
454.67	3416.01
454.87	3549.13
455.08	3422.16
455.28	3239.89
455.49	3243.98
455.69	3254.22
455.89	3966.92
456.10	3248.08
456.30	3184.59
456.51	3598.28
456.71	3454.92
456.91	3217.36
457.12	3192.78
457.32	3583.95
457.52	3139.54
457.73	3354.57
457.93	3327.95
458.14	3293.13
458.34	3010.51
458.54	3246.03
458.75	3078.10
458.95	3610.57
459.15	3463.12
459.36	3215.31
459.56	3131.34
459.76	3995.59
459.97	3485.64
460.17	3203.02
460.37	3260.37
460.58	3436.49
460.78	3624.90
460.99	3123.15
461.19	3139.54
461.39	3258.32
461.60	3434.44
461.80	3278.80
462.00	3098.58
462.21	3350.48
462.41	3198.93
462.61	3010.51
462.82	2920.40
463.02	3526.60
463.22	3403.72
463.43	3293.13
463.63	3078.10
463.83	3739.59
464.04	3508.17
464.24	3143.63
464.44	3106.77
464.64	3479.50
464.85	3594.19
465.05	3213.26
465.25	3088.34
465.46	3272.65
465.66	3577.80
465.86	3297.23
466.07	3127.25
466.27	3375.05
466.47	3137.49
466.68	3002.32
466.88	3262.41
467.08	3567.56
467.29	3674.06
467.49	3250.13
467.69	3352.52
467.89	3616.71
468.10	3346.38
468.30	3319.76
468.50	3248.08
468.71	3565.51
468.91	3112.91
469.11	3364.81
469.31	3252.17
469.52	3239.89
469.72	3788.74
469.92	3454.92
470.13	3139.54
470.33	3366.86
470.53	3524.55
470.73	3536.84
470.94	3940.29
471.14	4073.41
471.34	4550.59
471.54	4145.09
471.75	3946.44
471.95	3803.08
472.15	3708.87
472.36	3712.97
472.56	3479.50
472.76	3932.10
472.96	3745.73
473.17	3397.58
473.37	3307.47
473.57	3375.05
473.77	3559.37
473.98	3368.91
474.18	3067.86
474.38	4095.94
474.58	3270.61
474.79	3033.04
474.99	3289.04
475.19	3717.06
475.39	3313.61
475.60	3313.61
475.80	3119.06
476.00	3526.60
476.20	3368.91
476.41	3225.55
476.61	3213.26
476.81	3706.82
477.01	3266.51
477.21	3497.93
477.42	3327.95
477.62	3258.32
477.82	3657.67
478.02	3098.58
478.23	3190.74
478.43	3225.55
478.63	3465.16
478.83	3139.54
479.03	3250.13
479.24	3823.56
479.44	3893.19
479.64	3065.81
479.84	3026.90
480.04	3270.61
480.25	3647.43
480.45	3160.02
480.65	3123.15
480.85	3872.71
481.06	3393.48
481.26	3246.03
481.46	3166.16
481.66	3629.00
481.86	3243.98
482.06	3436.49
482.27	3280.85
482.47	3364.81
482.67	3561.42
482.87	3258.32
483.07	3207.12
483.28	3293.13
483.48	3243.98
483.68	3170.26
483.88	3051.47
484.08	2975.70
484.29	3131.34
484.49	3303.37
484.69	2936.79
484.89	3729.35
485.09	3678.15
485.29	3137.49
485.50	3344.33
485.70	3282.89
485.90	3753.93
486.10	3252.17
486.30	3114.96
486.50	3690.44
486.71	3456.97
486.91	3227.60
487.11	3309.52
487.31	3200.98
487.51	3534.79
487.71	3196.88
487.91	3149.78
488.12	3317.71
488.32	3028.95
488.52	3172.30
488.72	2914.26
488.92	3516.36
489.12	3743.69
489.32	3270.61
489.53	3108.82
489.73	3151.82
489.93	3747.78
490.13	3155.92
490.33	3094.48
490.53	3381.20
490.73	3559.37
490.94	3041.23
491.14	3297.23
491.34	3497.93
491.54	3547.08
491.74	4024.26
491.94	4442.04
492.14	5066.67
492.34	5187.50
492.54	4665.27
492.75	4122.56
492.95	4442.04
493.15	4089.79
493.35	3837.89
493.55	3770.31
493.75	3733.45
493.95	4022.21
494.15	3444.68
494.35	3235.79
494.56	3528.65
494.76	3309.52
494.96	3313.61
495.16	2994.13
495.36	3510.22
495.56	3446.73
495.76	3213.26
495.96	3200.98
496.16	3258.32
496.36	3848.13
496.56	3086.29
496.77	3237.84
496.97	3444.68
497.17	3762.12
497.37	3082.19
497.57	3237.84
497.77	3532.75
497.97	3174.35
498.17	3215.31
498.37	3162.06
498.57	3649.48
498.77	3317.71
498.97	3362.76
499.17	3549.13
499.38	3426.25
499.58	3553.23
499.78	3313.61
499.98	3373.00
500.18	3442.64
500.38	3352.52
500.58	3454.92
500.78	3723.21
500.98	6072.23
501.18	7825.29
501.38	9004.92
501.58	9979.75
501.78	9865.07
501.98	8212.35
502.18	6979.48
502.38	6125.47
502.58	6270.88
502.78	5384.11
502.98	5183.41
503.18	5164.98
503.38	4925.36
503.59	4081.60
503.79	4052.93
503.99	3696.58
504.19	3981.25
504.39	3911.62
504.59	3639.24
504.79	3475.40
504.99	4036.55
505.19	3637.19
505.39	3340.24
505.59	3522.51
505.79	3778.50
505.99	3575.75
506.19	3186.64
506.39	3420.11
506.59	3203.02
506.79	3409.87
506.99	3426.25
507.19	3088.34
507.39	3497.93
507.59	3108.82
507.79	3209.17
507.99	3155.92
508.19	3358.67
508.39	3295.18
508.59	3188.69
508.79	3248.08
508.99	3938.24
509.19	3278.80
509.39	3248.08
509.59	3037.14
509.79	3295.18
509.99	3499.98
510.19	3307.47
510.39	3362.76
510.59	3467.21
510.79	3409.87
510.99	3028.95
511.19	3059.67
511.39	3821.51
511.59	3639.24
511.79	3307.47
511.99	3104.72
512.19	3819.46
512.38	3454.92
512.58	3145.68
512.78	3061.71
512.98	3704.78
513.18	3733.45
513.38	3065.81
513.58	3217.36
513.78	3346.38
513.98	3350.48
514.18	3125.20
514.38	3241.93
514.58	3438.54
514.78	3346.38
514.98	3059.67
515.18	3198.93
515.38	3133.39
515.58	3880.90
515.78	3213.26
515.98	3112.91
516.18	3696.58
516.38	3485.64
516.57	3074.00
516.77	3149.78
516.97	3614.66
517.17	3225.55
517.37	2951.12
517.57	3258.32
517.77	3375.05
517.97	3295.18
518.17	3233.74
518.37	3000.27
518.57	3330.00
518.77	3385.29
518.97	3157.97
519.16	3274.70
519.36	3762.12
519.56	3264.46
519.76	3082.19
519.96	3182.54
520.16	3700.68
520.36	3250.13
520.56	3334.09
520.76	3090.38
520.96	3356.62
521.16	3606.47
521.35	3420.11
521.55	3196.88
521.75	3520.46
521.95	3346.38
522.15	3108.82
522.35	3078.10
522.55	3291.09
522.75	3641.29
522.95	3053.52
523.14	2969.55
523.34	3467.21
523.54	3295.18
523.74	3258.32
523.94	3217.36
524.14	3106.77
524.34	3540.94
524.54	3418.06
524.73	3176.40
524.93	3618.76
525.13	3463.12
525.33	3082.19
525.53	3375.05
525.73	3598.28
525.93	3450.83
526.13	3164.11
526.32	3155.92
526.52	3602.38
526.72	3659.72
526.92	3149.78
527.12	3012.56
527.32	3092.43
527.52	3540.94
527.71	3151.82
527.91	3246.03
528.11	3321.81
528.31	3426.25
528.51	3110.86
528.71	3368.91
528.90	3604.42
529.10	3674.06
529.30	3223.50
529.50	2889.68
529.70	3557.32
529.90	3346.38
530.09	3147.73
530.29	3002.32
530.49	3239.89
530.69	4083.65
530.89	3401.68
531.09	3299.28
531.28	3364.81
531.48	3694.54
531.68	3092.43
531.88	3178.45
532.08	3635.14
532.28	3264.46
532.47	3291.09
532.67	3274.70
532.87	3444.68
533.07	3125.20
533.27	3203.02
533.46	3229.65
533.66	3442.64
533.86	3459.02
534.06	3172.30
534.26	3067.86
534.45	3389.39
534.65	3667.91
534.85	3286.99
535.05	3092.43
535.25	3536.84
535.44	3164.11
535.64	3254.22
535.84	3166.16
536.04	3303.37
536.24	3332.05
536.43	3131.34
536.63	3106.77
536.83	3424.20
537.03	3430.35
537.22	2983.89
537.42	2979.79
537.62	3557.32
537.82	3231.69
538.02	3379.15
538.21	3295.18
538.41	4052.93
538.61	3618.76
538.81	3274.70
539.00	3291.09
539.20	3182.54
539.40	3305.42
539.60	3106.77
539.79	3428.30
539.99	3426.25
540.19	3205.07
540.39	3147.73
540.58	3133.39
540.78	3696.58
540.98	3485.64
541.18	3426.25
541.37	3246.03
541.57	3508.17
541.77	3409.87
541.97	3047.38
542.16	3041.23
542.36	3301.33
542.56	3704.78
542.76	3352.52
542.95	3172.30
543.15	3610.57
543.35	3639.24
543.54	3139.54
543.74	3090.38
543.94	3739.59
544.14	3303.37
544.33	3321.81
544.53	3229.65
544.73	3387.34
544.93	3368.91
545.12	3207.12
545.32	3164.11
545.52	3381.20
545.71	3180.50
545.91	3209.17
546.11	3067.86
546.30	3289.04
546.50	3362.76
546.70	3252.17
546.90	3217.36
547.09	3037.14
547.29	3452.88
547.49	3297.23
547.68	3143.63
547.88	3209.17
548.08	3542.99
548.27	3409.87
548.47	3149.78
548.67	3254.22
548.87	3583.95
549.06	3123.15
549.26	3024.85
549.46	3508.17
549.65	3243.98
549.85	3198.93
550.05	3180.50
550.24	3213.26
550.44	3416.01
550.64	3192.78
550.83	3293.13
551.03	3747.78
551.23	3667.91
551.42	3221.45
551.62	3336.14
551.82	3465.16
552.01	3313.61
552.21	3633.10
552.41	3289.04
552.60	3755.97
552.80	3438.54
553.00	3098.58
553.19	3121.10
553.39	3839.94
553.59	3239.89
553.78	3366.86
553.98	3074.00
554.17	3211.22
554.37	3499.98
554.57	3227.60
554.76	3016.66
554.96	3436.49
555.16	3471.31
555.35	3166.16
555.55	3391.44
555.75	3450.83
555.94	3565.51
556.14	3016.66
556.33	3227.60
556.53	3346.38
556.73	3393.48
556.92	3117.01
557.12	3049.43
557.32	3868.61
557.51	3788.74
557.71	3160.02
557.90	3307.47
558.10	3712.97
558.30	3297.23
558.49	3241.93
558.69	3149.78
558.88	3510.22
559.08	3481.55
559.28	3256.27
559.47	3231.69
559.67	3604.42
559.86	3895.24
560.06	3182.54
560.26	3205.07
560.45	3504.07
560.65	3383.24
560.84	3452.88
561.04	3080.14
561.24	3551.18
561.43	3153.87
561.63	3362.76
561.82	3297.23
562.02	3641.29
562.22	3315.66
562.41	3119.06
562.61	3117.01
562.80	3270.61
563.00	3893.19
563.19	3258.32
563.39	3217.36
563.59	3522.51
563.78	3231.69
563.98	2938.84
564.17	3174.35
564.37	3129.30
564.56	3444.68
564.76	3098.58
564.96	3250.13
565.15	3567.56
565.35	3960.77
565.54	3266.51
565.74	3174.35
565.93	3530.70
566.13	3446.73
566.32	3276.75
566.52	3237.84
566.71	3436.49
566.91	3610.57
567.11	3258.32
567.30	3043.28
567.50	3526.60
567.69	3551.18
567.89	3125.20
568.08	3061.71
568.28	3444.68
568.47	3192.78
568.67	3131.34
568.86	3119.06
569.06	3592.14
569.25	3323.85
569.45	3096.53
569.64	3205.07
569.84	3340.24
570.04	3524.55
570.23	3180.50
570.43	3196.88
570.62	3532.75
570.82	3829.70
571.01	3164.11
571.21	3172.30
571.40	3123.15
571.60	3536.84
571.79	3180.50
571.99	3176.40
572.18	3246.03
572.38	3487.69
572.57	3200.98
572.77	3266.51
572.96	4020.16
573.16	3520.46
573.35	3149.78
573.55	3389.39
573.74	3442.64
573.94	3276.75
574.13	3200.98
574.33	3411.92
574.52	3647.43
574.71	3330.00
574.91	3123.15
575.10	3059.67
575.30	3360.72
575.49	3207.12
575.69	3131.34
575.88	3057.62
576.08	3334.09
576.27	3672.01
576.47	3084.24
576.66	3370.96
576.86	3643.34
577.05	3459.02
577.25	3268.56
577.44	3264.46
577.64	3346.38
577.83	3643.34
578.02	3143.63
578.22	3332.05
578.41	3772.36
578.61	3401.68
578.80	2994.13
579.00	3172.30
579.19	3467.21
579.39	3444.68
579.58	3317.71
579.77	3246.03
579.97	3639.24
580.16	3753.93
580.36	3401.68
580.55	3188.69
580.75	3590.09
580.94	3428.30
581.13	3323.85
581.33	3446.73
581.52	3409.87
581.72	3895.24
581.91	3258.32
582.11	3121.10
582.30	3583.95
582.49	3434.44
582.69	3487.69
582.88	3237.84
583.08	3491.79
583.27	3635.14
583.47	3303.37
583.66	3102.67
583.85	3198.93
584.05	3291.09
584.24	3297.23
584.44	3192.78
584.63	3688.39
584.82	3782.60
585.02	3467.21
585.21	3282.89
585.41	3610.57
585.60	3459.02
585.79	3348.43
585.99	3463.12
586.18	3532.75
586.37	4429.76
586.57	6485.92
586.76	18593.51
586.96	36726.22
587.15	49458.45
587.34	57433.24
587.54	60796.00
587.73	53277.91
587.93	38702.51
588.12	30049.85
588.31	24608.39
588.51	21962.42
588.70	20340.43
588.89	17802.99
589.09	14954.27
589.28	13367.09
589.47	10213.22
589.67	7849.86
589.86	6162.34
590.06	5025.72
590.25	4493.24
590.44	3940.29
590.64	3553.23
590.83	3680.20
591.02	3715.02
591.22	3168.21
591.41	3317.71
591.60	3319.76
591.80	4050.88
591.99	3074.00
592.18	3170.26
592.38	3610.57
592.57	3327.95
592.76	3157.97
592.96	3254.22
593.15	3311.57
593.34	3651.53
593.54	3114.96
593.73	3323.85
593.92	3563.47
594.12	3536.84
594.31	3254.22
594.50	3366.86
594.70	3483.59
594.89	4063.17
595.08	3004.37
595.28	3319.76
595.47	4159.42
595.66	3624.90
595.86	3084.24
596.05	3055.57
596.24	3336.14
596.43	3827.65
596.63	3219.41
596.82	3436.49
597.01	3475.40
597.21	3725.26
597.40	3123.15
597.59	3170.26
597.79	3442.64
597.98	3659.72
598.17	3192.78
598.36	3190.74
598.56	3581.90
598.75	3381.20
598.94	3229.65
599.14	3219.41
599.33	3330.00
599.52	3616.71
599.71	3241.93
599.91	3203.02
600.10	3641.29
600.29	3383.24
600.48	3258.32
600.68	3311.57
600.87	3477.45
601.06	3303.37
601.26	3340.24
601.45	3313.61
601.64	3368.91
601.83	3811.27
602.03	3069.91
602.22	3076.05
602.41	3696.58
602.60	3887.04
602.80	3254.22
602.99	3354.57
603.18	3368.91
603.37	3467.21
603.57	3096.53
603.76	3164.11
603.95	3665.86
604.14	3350.48
604.34	3074.00
604.53	3082.19
604.72	3454.92
604.91	3551.18
605.10	3215.31
605.30	3117.01
605.49	3915.72
605.68	3637.19
605.87	3135.44
606.07	3172.30
606.26	3475.40
606.45	3547.08
606.64	3205.07
606.84	3082.19
607.03	3393.48
607.22	3608.52
607.41	3209.17
607.60	3166.16
607.80	3614.66
607.99	3436.49
608.18	3260.37
608.37	3237.84
608.56	3272.65
608.76	3631.05
608.95	3405.77
609.14	3164.11
609.33	3612.62
609.52	3819.46
609.72	3352.52
609.91	3309.52
610.10	3420.11
610.29	3696.58
610.48	3243.98
610.68	3307.47
610.87	3381.20
611.06	3567.56
611.25	3254.22
611.44	3381.20
611.63	3297.23
611.83	3758.02
612.02	3141.58
612.21	3270.61
612.40	3100.62
612.59	3221.45
612.79	3131.34
612.98	3229.65
613.17	3825.61
613.36	3479.50
613.55	3278.80
613.74	3139.54
613.93	3483.59
614.13	3493.83
614.32	3340.24
614.51	3137.49
614.70	3420.11
614.89	3356.62
615.08	3254.22
615.28	3444.68
615.47	3172.30
615.66	3430.35
615.85	3172.30
616.04	3198.93
616.23	3399.63
616.42	3420.11
616.62	3221.45
616.81	3147.73
617.00	3456.97
617.19	3547.08
617.38	3125.20
617.57	3299.28
617.76	3594.19
617.95	3594.19
618.15	3319.76
618.34	3411.92
618.53	3227.60
618.72	3749.83
618.91	3276.75
619.10	3182.54
619.29	3461.07
619.48	3456.97
619.68	3139.54
619.87	3229.65
620.06	3114.96
620.25	3573.71
620.44	3164.11
620.63	3164.11
620.82	3473.36
621.01	3442.64
621.20	3131.34
621.39	3297.23
621.59	3590.09
621.78	3330.00
621.97	3190.74
622.16	3315.66
622.35	3487.69
622.54	3665.86
622.73	3209.17
622.92	3008.47
623.11	3612.62
623.30	3418.06
623.49	3385.29
623.68	3039.19
623.88	3751.88
624.07	3286.99
624.26	3086.29
624.45	3147.73
624.64	3330.00
624.83	3450.83
625.02	3237.84
625.21	3188.69
625.40	3585.99
625.59	3688.39
625.78	3323.85
625.97	3258.32
626.16	3686.34
626.35	3618.76
626.54	3174.35
626.74	3393.48
626.93	3389.39
627.12	3428.30
627.31	3221.45
627.50	3243.98
627.69	3622.86
627.88	3254.22
628.07	3106.77
628.26	3026.90
628.45	3225.55
628.64	3258.32
628.83	3100.62
629.02	3026.90
629.21	3547.08
629.40	3508.17
629.59	3110.86
629.78	3137.49
629.97	3446.73
630.16	3526.60
630.35	3221.45
630.54	3243.98
630.73	3184.59
630.92	3420.11
631.11	3172.30
631.30	3309.52
631.49	3610.57
631.68	3370.96
631.87	3205.07
632.06	3123.15
632.25	3995.59
632.44	3446.73
632.63	3131.34
632.82	3221.45
633.01	3325.90
633.20	3434.44
633.39	3198.93
633.58	3020.75
633.77	3467.21
633.96	3555.27
634.15	3346.38
634.34	3237.84
634.53	3524.55
634.72	3282.89
634.91	3043.28
635.10	3200.98
635.29	3602.38
635.48	3514.31
635.67	2987.99
635.86	3057.62
636.05	3737.54
636.24	3342.28
636.43	3176.40
636.62	3223.50
636.81	2877.40
637.00	3467.21
637.19	3035.09
637.38	3215.31
637.57	3286.99
637.76	3366.86
637.95	3393.48
638.14	3336.14
638.33	3510.22
638.52	3428.30
638.71	3020.75
638.89	3084.24
639.08	4011.97
639.27	3592.14
639.46	3375.05
639.65	3676.10
639.84	3841.99
640.03	3987.40
640.22	3620.81
640.41	3583.95
640.60	3430.35
640.79	3622.86
640.98	3373.00
641.17	3354.57
641.36	3667.91
641.55	3676.10
641.74	3024.85
641.92	3078.10
642.11	3325.90
642.30	3350.48
642.49	3059.67
642.68	3250.13
642.87	3549.13
643.06	3522.51
643.25	2998.23
643.44	2969.55
643.63	3450.83
643.82	3518.41
644.00	2998.23
644.19	3209.17
644.38	3256.27
644.57	3700.68
644.76	3160.02
644.95	3305.42
645.14	3561.42
645.33	3430.35
645.52	3297.23
645.71	3004.37
645.89	3223.50
646.08	3418.06
646.27	3213.26
646.46	3403.72
646.65	3211.22
646.84	3426.25
647.03	3110.86
647.22	3395.53
647.40	3512.27
647.59	3354.57
647.78	2959.31
647.97	3198.93
648.16	3223.50
648.35	3739.59
648.54	3403.72
648.73	3205.07
648.91	3559.37
649.10	3491.79
649.29	3061.71
649.48	3176.40
649.67	3643.34
649.86	3411.92
650.05	3143.63
650.23	3352.52
650.42	3219.41
650.61	3690.44
650.80	3375.05
650.99	3409.87
651.18	3614.66
651.36	3698.63
651.55	3059.67
651.74	3254.22
651.93	3393.48
652.12	3409.87
652.31	3252.17
652.49	3180.50
652.68	3319.76
652.87	3719.11
653.06	3284.94
653.25	3401.68
653.44	3395.53
653.62	3844.04
653.81	3213.26
654.00	3139.54
654.19	3592.14
654.38	4022.21
654.56	3219.41
654.75	3153.87
654.94	3606.47
655.13	3450.83
655.32	3141.58
655.51	3291.09
655.69	3348.43
655.88	3616.71
656.07	3053.52
656.26	3209.17
656.45	3127.25
656.63	3370.96
656.82	3164.11
657.01	3450.83
657.20	3313.61
657.38	3762.12
657.57	3110.86
657.76	3047.38
657.95	3639.24
658.14	3338.19
658.32	3442.64
658.51	3057.62
658.70	3471.31
658.89	3549.13
659.08	3235.79
659.26	3344.33
659.45	3219.41
659.64	3514.31
659.83	3246.03
660.01	3571.66
660.20	3516.36
660.39	3729.35
660.58	2953.17
660.76	3176.40
660.95	3139.54
661.14	3401.68
661.33	3045.33
661.51	3205.07
661.70	3307.47
661.89	3534.79
662.08	3270.61
662.26	3039.19
662.45	3241.93
662.64	3819.46
662.83	3354.57
663.01	3141.58
663.20	3321.81
663.39	3868.61
663.58	3248.08
663.76	3164.11
663.95	3577.80
664.14	3180.50
664.32	3178.45
664.51	3108.82
664.70	3114.96
664.89	3469.26
665.07	3033.04
665.26	3366.86
665.45	3192.78
665.64	3516.36
665.82	3160.02
666.01	3346.38
666.20	3117.01
666.38	3737.54
666.57	3442.64
666.76	5693.35
666.95	12601.15
667.13	18695.91
667.32	22439.59
667.51	25069.19
667.69	25343.61
667.88	20854.47
668.07	15384.34
668.25	12918.59
668.44	11634.51
668.63	10254.18
668.81	8996.73
669.00	7718.79
669.19	7151.51
669.38	6340.51
669.56	5310.38
669.75	4843.45
669.94	4548.54
670.12	3715.02
670.31	3508.17
670.50	3426.25
670.68	3669.96
670.87	3569.61
671.06	3119.06
671.24	3149.78
671.43	3780.55
671.62	3461.07
671.80	3229.65
671.99	3274.70
672.18	3483.59
672.36	3631.05
672.55	3336.14
672.74	3319.76
672.92	3342.28
673.11	3575.75
673.29	3006.42
673.48	3409.87
673.67	3321.81
673.85	3676.10
674.04	3125.20
674.23	3327.95
674.41	3887.04
674.60	3180.50
674.79	3004.37
674.97	2926.55
675.16	3596.23
675.34	3641.29
675.53	3166.16
675.72	3139.54
675.90	3803.08
676.09	3291.09
676.28	3317.71
676.46	3063.76
676.65	3602.38
676.83	3272.65
677.02	3200.98
677.21	3336.14
677.39	3551.18
677.58	3278.80
677.77	3102.67
677.95	3094.48
678.14	3450.83
678.32	3297.23
678.51	3219.41
678.70	3573.71
678.88	3330.00
679.07	3370.96
679.25	3233.74
679.44	3205.07
679.63	3106.77
679.81	3475.40
680.00	3459.02
680.18	3239.89
680.37	3786.69
680.55	3577.80
680.74	3061.71
680.93	3002.32
681.11	3524.55
681.30	3487.69
681.48	3172.30
681.67	3207.12
681.85	3465.16
682.04	3286.99
682.23	3342.28
682.41	3295.18
682.60	3377.10
682.78	3438.54
682.97	3088.34
683.15	3205.07
683.34	3483.59
683.53	3762.12
683.71	2992.08
683.90	3250.13
684.08	3733.45
684.27	3348.43
684.45	3280.85
684.64	3332.05
684.82	3368.91
685.01	3602.38
685.19	3164.11
685.38	3592.14
685.57	3424.20
685.75	3358.67
685.94	3106.77
686.12	3117.01
686.31	3379.15
686.49	3737.54
686.68	3033.04
686.86	3190.74
687.05	3364.81
687.23	3856.33
687.42	3246.03
687.60	2992.08
687.79	3604.42
687.97	3762.12
688.16	3327.95
688.34	3436.49
688.53	3076.05
688.71	3553.23
688.90	3524.55
689.08	3278.80
689.27	3166.16
689.45	3598.28
689.64	3317.71
689.82	3262.41
690.01	3520.46
690.19	3454.92
690.38	3233.74
690.56	3336.14
690.75	3241.93
690.93	3260.37
691.12	3237.84
691.30	3313.61
691.49	3383.24
691.67	3387.34
691.86	3669.96
692.04	3229.65
692.23	3315.66
692.41	3502.03
692.60	3499.98
692.78	3459.02
692.97	3409.87
693.15	3592.14
693.34	3362.76
693.52	3366.86
693.71	3235.79
693.89	3442.64
694.08	3057.62
694.26	3221.45
694.44	3637.19
694.63	3606.47
694.81	3108.82
695.00	3215.31
695.18	3663.82
695.37	3952.58
695.55	3366.86
695.74	3291.09
695.92	3233.74
696.10	3700.68
696.29	3123.15
696.47	3157.97
696.66	3145.68
696.84	3164.11
697.03	3180.50
697.21	3422.16
697.40	4728.76
697.58	3633.10
697.76	3157.97
697.95	3176.40
698.13	3184.59
698.32	3303.37
698.50	3188.69
698.68	3239.89
698.87	3518.41
699.05	3749.83
699.24	3209.17
699.42	3135.44
699.61	3520.46
699.79	3422.16
699.97	3223.50
700.16	3074.00
700.34	3155.92
700.53	3422.16
700.71	3430.35
700.89	3340.24
701.08	3387.34
701.26	3420.11
701.45	3499.98
701.63	3164.11
701.81	3260.37
702.00	3270.61
702.18	3321.81
702.37	3098.58
702.55	3811.27
702.73	3483.59
702.92	3114.96
703.10	3477.45
703.28	3610.57
703.47	3211.22
703.65	3370.96
703.84	3395.53
704.02	3291.09
704.20	3790.79
704.39	3049.43
704.57	3172.30
704.75	3551.18
704.94	3573.71
705.12	3352.52
705.30	4040.64
705.49	8167.30
705.67	14419.75
705.86	19013.34
706.04	21657.27
706.22	23672.47
706.41	22179.50
706.59	16588.55
706.77	13494.07
706.96	11781.96
707.14	10815.32
707.32	9342.83
707.51	8085.38
707.69	6954.90
707.87	5799.85
708.06	4755.38
708.24	4270.01
708.42	4048.83
708.61	4345.79
708.79	3274.70
708.97	3295.18
709.16	3540.94
709.34	3430.35
709.52	3207.12
709.71	3270.61
709.89	3614.66
710.07	3280.85
710.26	3098.58
710.44	3262.41
710.62	3557.32
710.80	3368.91
710.99	3342.28
711.17	3278.80
711.35	3299.28
711.54	3239.89
711.72	3368.91
711.90	3266.51
712.09	3532.75
712.27	3346.38
712.45	3239.89
712.63	3155.92
712.82	3452.88
713.00	3444.68
713.18	3409.87
713.37	3389.39
713.55	3672.01
713.73	3598.28
713.91	3297.23
714.10	3198.93
714.28	3456.97
714.46	3471.31
714.65	3323.85
714.83	3301.33
715.01	3518.41
715.19	3514.31
715.38	3176.40
715.56	3346.38
715.74	3303.37
715.92	3258.32
716.11	3542.99
716.29	2985.94
716.47	3448.78
716.65	3370.96
716.84	3071.95
717.02	3182.54
717.20	3121.10
717.38	3272.65
717.57	3397.58
717.75	3260.37
717.93	3370.96
718.11	3645.38
718.30	3033.04
718.48	3250.13
718.66	3682.25
718.84	3684.30
719.03	3164.11
719.21	3090.38
719.39	3835.85
719.57	3532.75
719.75	3299.28
719.94	3078.10
720.12	3387.34
720.30	3577.80
720.48	3307.47
720.67	3174.35
720.85	3243.98
721.03	3315.66
721.21	3180.50
721.39	3260.37
721.58	3565.51
721.76	3491.79
721.94	3248.08
722.12	3250.13
722.30	3798.98
722.49	3352.52
722.67	3188.69
722.85	3295.18
723.03	3098.58
723.21	3344.33
723.40	3137.49
723.58	3385.29
723.76	3600.33
723.94	3629.00
724.12	3268.56
724.30	3508.17
724.49	3583.95
724.67	3227.60
724.85	3272.65
725.03	3078.10
725.21	3559.37
725.40	3655.62
725.58	3241.93
725.76	3364.81
725.94	3559.37
726.12	3219.41
726.30	3334.09
726.49	3155.92
726.67	3323.85
726.85	3569.61
727.03	3958.72
727.21	4917.17
727.39	6100.90
727.57	6508.44
727.76	6768.54
727.94	6623.13
728.12	5926.82
728.30	5058.48
728.48	4818.87
728.66	4515.77
728.84	4409.28
729.03	3893.19
729.21	3649.48
729.39	3446.73
729.57	3428.30
729.75	3483.59
729.93	3442.64
730.11	3180.50
730.30	3336.14
730.48	3338.19
730.66	3364.81
730.84	3321.81
731.02	3418.06
731.20	3368.91
731.38	3200.98
731.56	3024.85
731.74	3141.58
731.93	3497.93
732.11	3401.68
732.29	3207.12
732.47	3545.03
732.65	3522.51
732.83	3366.86
733.01	3387.34
733.19	3293.13
733.37	3594.19
733.56	3170.26
733.74	3069.91
733.92	3778.50
734.10	3387.34
734.28	3278.80
734.46	3004.37
734.64	3356.62
734.82	3397.58
735.00	3168.21
735.18	3174.35
735.36	3502.03
735.54	3432.40
735.73	3086.29
735.91	3364.81
736.09	3729.35
736.27	3479.50
736.45	3315.66
736.63	2877.40
736.81	3315.66
736.99	3680.20
737.17	3407.82
737.35	3149.78
737.53	3436.49
737.71	3340.24
737.89	3409.87
738.07	3164.11
738.25	3280.85
738.43	3135.44
738.61	3217.36
738.80	3086.29
738.98	3196.88
739.16	3313.61
739.34	3139.54
739.52	3532.75
739.70	3481.55
739.88	3545.03
740.06	3336.14
740.24	2936.79
740.42	3682.25
740.60	2983.89
740.78	3160.02
740.96	2951.12
741.14	3375.05
741.32	3442.64
741.50	2992.08
741.68	3534.79
741.86	3674.06
742.04	3248.08
742.22	3133.39
742.40	3184.59
742.58	3594.19
742.76	3237.84
742.94	3520.46
743.12	3096.53
743.30	3456.97
743.48	3606.47
743.66	3139.54
743.84	3241.93
744.02	3360.72
744.20	3403.72
744.38	3104.72
744.56	3223.50
744.74	3813.32
744.92	3553.23
745.10	3348.43
745.28	3307.47
745.46	3753.93
745.64	3389.39
745.82	3338.19
746.00	3123.15
746.18	3581.90
746.36	3221.45
746.54	3223.50
746.72	3235.79
746.90	3211.22
747.08	3743.69
747.26	3243.98
747.44	3311.57
747.62	3608.52
747.80	3575.75
747.98	3307.47
748.15	3057.62
748.33	3878.85
748.51	3446.73
748.69	3250.13
748.87	3162.06
749.05	3397.58
749.23	3393.48
749.41	3092.43
749.59	3147.73
749.77	3655.62
749.95	3360.72
750.13	3196.88
750.31	3420.11
750.49	3411.92
750.67	3600.33
750.85	3381.20
751.03	3231.69
751.20	3885.00
751.38	3502.03
751.56	3299.28
751.74	3200.98
751.92	3428.30
752.10	3190.74
752.28	3381.20
752.46	3166.16
752.64	3307.47
752.82	3454.92
753.00	3299.28
753.18	3098.58
753.35	3385.29
753.53	3401.68
753.71	3094.48
753.89	3241.93
754.07	3487.69
754.25	3643.34
754.43	3295.18
754.61	3047.38
754.79	3540.94
754.97	3317.71
755.14	3420.11
755.32	3102.67
755.50	3446.73
755.68	3551.18
755.86	3151.82
756.04	3121.10
756.22	3047.38
756.40	3532.75
756.57	3452.88
756.75	3112.91
756.93	3600.33
757.11	3624.90
757.29	3082.19
757.47	3098.58
757.65	3139.54
757.82	2877.40
758.00	3186.64
758.18	3057.62
758.36	3334.09
758.54	3852.23
758.72	3082.19
758.90	3407.82
759.07	3559.37
759.25	3196.88
759.43	3188.69
759.61	3065.81
759.79	4579.26
759.97	3643.34
760.15	3266.51
760.32	3166.16
760.50	3497.93
760.68	3737.54
760.86	3067.86
761.04	3403.72
761.22	3577.80
761.39	3413.96
761.57	3303.37
761.75	3192.78
761.93	3688.39
762.11	3403.72
762.28	3360.72
762.46	3100.62
762.64	3692.49
762.82	3186.64
763.00	3131.34
763.18	3364.81
763.35	3223.50
763.53	3565.51
763.71	3239.89
763.89	3090.38
764.07	3461.07
764.24	3413.96
764.42	3309.52
764.60	3188.69
764.78	3555.27
764.96	3540.94
765.13	3444.68
765.31	3084.24
765.49	3729.35
765.67	3221.45
765.84	3155.92
766.02	3110.86
766.20	3157.97
766.38	3508.17
766.56	3262.41
766.73	3373.00
766.91	3401.68
767.09	3413.96
767.27	3141.58
767.44	3094.48
767.62	3540.94
767.80	3438.54
767.98	3090.38
768.15	3174.35
768.33	3504.07
768.51	3692.49
768.69	3434.44
768.87	3147.73
769.04	3493.83
769.22	3995.59
769.40	3373.00
769.58	3243.98
769.75	3635.14
769.93	3807.17
770.11	3180.50
770.28	3084.24
770.46	3639.24
770.64	3489.74
770.82	3225.55
770.99	3149.78
771.17	3588.04
771.35	3360.72
771.53	3327.95
771.70	3141.58
771.88	3590.09
772.06	3368.91
772.23	3112.91
772.41	3299.28
772.59	3395.53
772.77	3221.45
772.94	3264.46
773.12	3260.37
773.30	3299.28
773.47	3512.27
773.65	3098.58
773.83	3368.91
774.01	3344.33
774.18	3133.39
774.36	3205.07
774.54	2996.18
774.71	3565.51
774.89	3053.52
775.07	3033.04
775.24	3166.16
775.42	3284.94
775.60	3819.46
775.78	3145.68
775.95	3047.38
776.13	3030.99
776.31	3157.97
776.48	3413.96
776.66	3434.44
776.84	3407.82
777.01	3313.61
777.19	3137.49
777.37	3141.58
777.54	3653.58
777.72	3858.37
777.90	3293.13
778.07	3188.69
778.25	4069.31
778.43	3735.50
778.60	3157.97
778.78	3188.69
778.96	3796.93
779.13	3127.25
779.31	3213.26
779.49	3282.89
779.66	3454.92
779.84	3411.92
780.01	3125.20
780.19	3141.58
780.37	3710.92
780.54	3540.94
780.72	3026.90
780.90	3178.45
781.07	3332.05
781.25	3264.46
781.43	3366.86
781.60	3237.84
781.78	3717.06
781.95	3467.21
782.13	3145.68
782.31	3094.48
782.48	3028.95
782.66	3452.88
782.83	3475.40
783.01	3358.67
783.19	3633.10
783.36	3375.05
783.54	3106.77
783.72	3227.60
783.89	3344.33
784.07	3422.16
784.24	3336.14
784.42	3338.19
784.60	3368.91
784.77	3596.23
784.95	3002.32
785.12	3223.50
785.30	3549.13
785.47	3198.93
785.65	3110.86
785.83	3217.36
786.00	3286.99
786.18	3512.27
786.35	3188.69
786.53	3100.62
786.71	3626.95
786.88	3647.43
787.06	3233.74
787.23	3221.45
787.41	3227.60
787.58	3413.96
787.76	3151.82
787.94	3229.65
788.11	3489.74
788.29	3137.49
788.46	3213.26
788.64	3004.37
788.81	3420.11
788.99	3250.13
789.16	3166.16
789.34	3207.12
789.52	3289.04
789.69	3309.52
789.87	2926.55
790.04	3164.11
790.22	3381.20
790.39	3899.33
790.57	3112.91
790.74	3155.92
790.92	3708.87
791.09	3127.25
791.27	3205.07
791.44	3297.23
791.62	3352.52
791.79	3575.75
791.97	3305.42
792.15	3471.31
792.32	3585.99
792.50	3600.33
792.67	3323.85
792.85	3536.84
793.02	3420.11
793.20	3385.29
793.37	3049.43
793.55	3090.38
793.72	3178.45
793.90	3573.71
794.07	3149.78
794.25	3151.82
794.42	3448.78
794.60	3352.52
794.77	3276.75
794.95	3299.28
795.12	3594.19
795.30	3393.48
795.47	2957.27
795.65	3485.64
795.82	3489.74
796.00	3291.09
796.17	3258.32
796.34	3098.58
796.52	3508.17
796.69	3622.86
796.87	3297.23
797.04	3340.24
797.22	3559.37
797.39	3504.07
797.57	3282.89
797.74	3327.95
797.92	3481.55
798.09	3307.47
798.27	3483.59
798.44	3196.88
798.62	3332.05
798.79	3381.20
798.96	3334.09
799.14	3219.41
799.31	3993.54
799.49	3315.66
799.66	3254.22
799.84	3213.26
800.01	3196.88
800.19	3450.83
800.36	3035.09
800.53	3219.41
800.71	3571.66
800.88	3739.59
801.06	3141.58
801.23	3180.50
801.41	3385.29
801.58	3297.23
801.75	3151.82
801.93	3225.55
802.10	3555.27
802.28	3426.25
802.45	3270.61
802.63	3274.70
802.80	3790.79
802.97	3336.14
803.15	3254.22
803.32	3192.78
803.50	3258.32
803.67	3297.23
803.84	3135.44
804.02	3352.52
804.19	3360.72
804.37	2916.31
804.54	3045.33
804.71	3162.06
804.89	3456.97
805.06	3211.22
805.24	3071.95
805.41	3051.47
805.58	3364.81
805.76	4057.03
805.93	3098.58
806.10	3266.51
806.28	3612.62
806.45	3540.94
806.63	3385.29
806.80	3289.04
806.97	3518.41
807.15	3508.17
807.32	3274.70
807.49	3141.58
807.67	3241.93
807.84	3463.12
808.01	3014.61
808.19	3336.14
808.36	3893.19
808.54	3342.28
808.71	3207.12
808.88	3123.15
809.06	3647.43
809.23	3798.98
809.40	3276.75
809.58	3178.45
809.75	3407.82
809.92	3160.02
810.10	3497.93
810.27	3172.30
810.44	3553.23
810.62	3610.57
810.79	3268.56
810.96	3194.83
811.14	3364.81
811.31	3561.42
811.48	3280.85
811.66	3327.95
811.83	3598.28
812.00	3571.66
812.18	3293.13
812.35	3487.69
812.52	3346.38
812.69	3262.41
812.87	3166.16
813.04	3135.44
813.21	3360.72
813.39	3313.61
813.56	3203.02
813.73	3497.93
813.91	3155.92
814.08	3518.41
814.25	3127.25
814.42	3071.95
814.60	3360.72
814.77	3364.81
814.94	3145.68
815.12	3286.99
815.29	3809.22
815.46	3338.19
815.63	3219.41
815.81	3180.50
815.98	3373.00
816.15	3305.42
816.33	3237.84
816.50	3295.18
816.67	3387.34
816.84	3362.76
817.02	3117.01
817.19	3137.49
817.36	3493.83
817.53	3553.23
817.71	3061.71
817.88	3127.25
818.05	3405.77
818.22	3362.76
818.40	3393.48
818.57	3205.07
818.74	3555.27
818.91	3373.00
819.09	3418.06
819.26	3303.37
819.43	3194.83
819.60	3313.61
819.78	3358.67
819.95	3323.85
820.12	3162.06
820.29	3790.79
820.47	3549.13
820.64	3123.15
820.81	3196.88
820.98	3323.85
821.15	3323.85
821.33	3346.38
821.50	3157.97
821.67	3381.20
821.84	3114.96
822.02	3117.01
822.19	3536.84
822.36	3272.65
822.53	3168.21
822.70	3100.62
822.88	3348.43
823.05	3719.11
823.22	3260.37
823.39	3121.10
823.56	3438.54
823.74	3846.09
823.91	3043.28
824.08	3071.95
824.25	3200.98
824.42	3717.06
824.60	3045.33
824.77	3303.37
824.94	3377.10
825.11	3559.37
825.28	3039.19
825.45	3307.47
825.63	3409.87
825.80	3332.05
825.97	3254.22
826.14	3246.03
826.31	3125.20
826.48	3551.18
826.66	3151.82
826.83	3123.15
827.00	3385.29
827.17	3149.78
827.34	3239.89
827.51	3102.67
827.69	3332.05
827.86	3147.73
828.03	3186.64
828.20	3207.12
828.37	3373.00
828.54	3532.75
828.71	3110.86
828.89	3311.57
829.06	3430.35
829.23	3844.04
829.40	3166.16
829.57	3157.97
829.74	3581.90
829.91	3317.71
830.09	3092.43
830.26	3370.96
830.43	3815.37
830.60	3188.69
830.77	3303.37
830.94	3444.68
831.11	3622.86
831.28	3336.14
831.46	3299.28
831.63	3133.39
831.80	3665.86
831.97	3207.12
832.14	3260.37
832.31	3241.93
832.48	3434.44
832.65	3592.14
832.82	3303.37
832.99	3248.08
833.17	3229.65
833.34	3717.06
833.51	3082.19
833.68	3006.42
833.85	3585.99
834.02	3190.74
834.19	3188.69
834.36	3119.06
834.53	3469.26
834.70	3608.52
834.87	3147.73
835.04	2977.75
835.22	3178.45
835.39	3330.00
835.56	3002.32
835.73	3041.23
835.90	3717.06
836.07	3276.75
836.24	3207.12
836.41	2981.84
836.58	3262.41
836.75	3672.01
836.92	2992.08
837.09	2981.84
837.26	3649.48
837.43	3579.85
837.60	3194.83
837.77	3008.47
837.94	3594.19
838.12	3694.54
838.29	2863.06
838.46	2904.02
838.63	3213.26
838.80	3839.94
838.97	3043.28
839.14	2975.70
839.31	3475.40
839.48	3551.18
839.65	3018.71
839.82	3155.92
839.99	3502.03
840.16	3413.96
840.33	3014.61
840.50	3043.28
840.67	3223.50
840.84	2895.83
841.01	2983.89
841.18	3049.43
841.35	3504.07
841.52	3577.80
841.69	3340.24
841.86	3008.47
842.03	3348.43
842.20	3608.52
842.37	3000.27
842.54	3067.86
842.71	3358.67
842.88	3102.67
843.05	3008.47
843.22	2938.84
843.39	3592.14
843.56	3289.04
843.73	2994.13
843.90	3076.05
844.07	3444.68
844.24	3629.00
844.41	3082.19
844.58	2967.51
844.75	3430.35
844.92	3487.69
845.09	3059.67
845.26	3080.14
845.43	3610.57
845.60	3305.42
845.77	3127.25
845.94	3106.77
846.10	3573.71
846.27	3035.09
846.44	2914.26
846.61	2947.03
846.78	3495.88
846.95	3694.54
847.12	2938.84
847.29	3030.99
847.46	3221.45
847.63	3616.71
847.80	2967.51
847.97	3059.67
848.14	3936.20
848.31	3397.58
848.48	2928.60
848.65	2992.08
848.82	3307.47
848.98	4020.16
849.15	3147.73
849.32	3123.15
849.49	3690.44
849.66	3395.53
849.83	2990.03
850.00	2983.89
850.17	3590.09
850.34	3364.81
850.51	2938.84
850.68	2983.89
850.85	3905.48
851.01	3487.69
851.18	2990.03
851.35	3059.67
851.52	3481.55
851.69	3708.87
851.86	2965.46
852.03	2987.99
852.20	3557.32
852.37	3420.11
852.53	2842.58
852.70	2947.03
852.87	3430.35
853.04	3622.86
853.21	3020.75
853.38	3270.61
853.55	3663.82
853.72	3737.54
853.89	2957.27
854.05	2985.94
854.22	3461.07
854.39	3315.66
854.56	2947.03
854.73	3207.12
854.90	3143.63
855.07	3407.82
855.23	2920.40
855.40	2981.84
855.57	3356.62
855.74	3053.52
855.91	3286.99
856.08	2955.22
856.25	3092.43
856.41	3403.72
856.58	3047.38
856.75	3018.71
856.92	3110.86
857.09	3604.42
857.26	2836.44
857.42	3098.58
857.59	3557.32
857.76	3313.61
857.93	2914.26
858.10	3010.51
858.27	3182.54
858.43	3446.73
858.60	3010.51
858.77	2879.44
858.94	3315.66
859.11	3680.20
859.27	3135.44
859.44	2942.93
859.61	3925.96
859.78	3594.19
859.95	2969.55
860.12	2912.21
860.28	3942.34
860.45	3885.00
860.62	2987.99
860.79	3114.96
860.95	3323.85
861.12	3307.47
861.29	2963.41
861.46	3002.32
861.63	3385.29
861.79	3491.79
861.96	2924.50
862.13	2981.84
862.30	3796.93
862.47	3278.80
862.63	2906.07
862.80	3000.27
862.97	3715.02
863.14	3446.73
863.30	3063.76
863.47	2951.12
863.64	3794.89
863.81	3446.73
863.97	2957.27
864.14	2996.18
864.31	3442.64
864.48	3426.25
864.65	2977.75
864.81	3168.21
864.98	3573.71
865.15	3620.81
865.32	3114.96
865.48	3082.19
865.65	3848.13
865.82	3270.61
865.98	3125.20
866.15	3008.47
866.32	3354.57
866.49	3264.46
866.65	3114.96
866.82	3094.48
866.99	3477.45
867.16	3243.98
867.32	3117.01
867.49	2928.60
867.66	3422.16
867.83	3330.00
867.99	2938.84
868.16	3039.19
868.33	3192.78
868.49	3442.64
868.66	3012.56
868.83	3102.67
868.99	3377.10
869.16	3422.16
869.33	3135.44
869.50	3155.92
869.66	3440.59
869.83	3387.34
870.00	2979.79
870.16	3147.73
870.33	3420.11
870.50	3616.71
870.66	3084.24
870.83	2977.75
871.00	3401.68
871.17	3512.27
871.33	3000.27
871.50	2975.70
871.67	3385.29
871.83	3323.85
872.00	3110.86
872.17	3008.47
872.33	3870.66
872.50	3719.11
872.67	3026.90
872.83	2981.84
873.00	3528.65
873.17	3389.39
873.33	3063.76
873.50	3049.43
873.67	3225.55
873.83	3207.12
874.00	3016.66
874.16	3164.11
874.33	3444.68
874.50	3172.30
874.66	3041.23
874.83	3106.77
875.00	3682.25
875.16	3692.49
875.33	3065.81
875.50	2787.29
875.66	3262.41
875.83	3467.21
875.99	3084.24
876.16	3188.69
876.33	3164.11
876.49	3373.00
876.66	3026.90
876.83	3024.85
876.99	3135.44
877.16	3364.81
877.32	2957.27
877.49	3147.73
877.66	3475.40
877.82	3772.36
877.99	3123.15
878.15	3368.91
878.32	3483.59
878.49	3448.78
878.65	3114.96
878.82	3303.37
878.98	3311.57
879.15	3604.42
879.32	3221.45
879.48	3180.50
879.65	3438.54
879.81	3336.14
879.98	3065.81
880.15	3028.95
880.31	3663.82
880.48	3254.22
880.64	3123.15
880.81	3143.63
880.97	3764.17
881.14	3655.62
881.31	2977.75
881.47	3237.84
881.64	3307.47
881.80	3205.07
881.97	3149.78
882.13	3086.29
882.30	3178.45
882.47	3303.37
882.63	3082.19
882.80	3026.90
882.96	3356.62
883.13	3672.01
883.29	2985.94
883.46	2977.75
883.62	3835.85
883.79	3436.49
883.95	3211.22
884.12	2996.18
884.29	3672.01
884.45	3377.10
884.62	2979.79
884.78	3004.37
884.95	3749.83
885.11	3215.31
885.28	3184.59
885.44	3061.71
885.61	3612.62
885.77	3667.91
885.94	3164.11
886.10	3088.34
886.27	3428.30
886.43	3827.65
886.60	3241.93
886.76	3022.80
886.93	3235.79
887.09	3463.12
887.26	2877.40
887.42	3100.62
887.59	3805.13
887.75	4030.40
887.92	3176.40
888.08	3123.15
888.25	3788.74
888.41	3676.10
888.58	3119.06
888.74	2965.46
888.91	3315.66
>>>>>End Processed Spectral Data<<<<<
