SpectraSuite Data File
++++++++++++++++++++++++++++++++++++
Date: Fri May 06 09:28:50 CEST 2016
User: root
Dark Spectrum Present: No
Reference Spectrum Present: No
Number of Sampled Component Spectra: 1
Spectrometers: USB4C02835
Integration Time (usec): 100000 (USB4C02835)
Spectra Averaged: 1 (USB4C02835)
Boxcar Smoothing: 0 (USB4C02835)
Correct for Electrical Dark: No (USB4C02835)
Strobe/Lamp Enabled: No (USB4C02835)
Correct for Detector Non-linearity: No (USB4C02835)
Correct for Stray Light: No (USB4C02835)
Number of Pixels in Processed Spectrum: 3648
>>>>>Begin Processed Spectral Data<<<<<
177.47	2332.64
177.69	2332.64
177.91	2332.64
178.13	2324.44
178.36	2303.96
178.58	3143.63
178.80	3256.27
179.02	3123.15
179.24	3237.84
179.46	2885.59
179.68	2899.92
179.90	3442.64
180.13	3418.06
180.35	2717.65
180.57	2910.16
180.79	3624.90
181.01	3456.97
181.23	2910.16
181.45	3043.28
181.67	3629.00
181.90	3616.71
182.12	3000.27
182.34	2815.96
182.56	3635.14
182.78	3508.17
183.00	2924.50
183.22	3035.09
183.44	3051.47
183.66	4128.70
183.89	3004.37
184.11	3059.67
184.33	3549.13
184.55	3741.64
184.77	2893.78
184.99	2975.70
185.21	3323.85
185.43	3903.43
185.65	2985.94
185.87	3008.47
186.10	4040.64
186.32	4061.12
186.54	3151.82
186.76	3047.38
186.98	3706.82
187.20	3499.98
187.42	2936.79
187.64	2924.50
187.86	3567.56
188.08	3717.06
188.30	2914.26
188.52	3061.71
188.75	3712.97
188.97	3680.20
189.19	2959.31
189.41	2897.88
189.63	3616.71
189.85	3366.86
190.07	2881.49
190.29	2861.01
190.51	3502.03
190.73	3284.94
190.95	3160.02
191.17	2901.97
191.39	3104.72
191.61	3389.39
191.84	3016.66
192.06	3129.30
192.28	3182.54
192.50	4184.00
192.72	3149.78
192.94	3028.95
193.16	3776.45
193.38	3526.60
193.60	2914.26
193.82	3127.25
194.04	3655.62
194.26	3510.22
194.48	3037.14
194.70	2998.23
194.92	3405.77
195.14	3692.49
195.36	2873.30
195.58	3092.43
195.80	3401.68
196.02	3311.57
196.24	2867.16
196.46	3049.43
196.69	3385.29
196.91	4091.84
197.13	3106.77
197.35	3090.38
197.57	3801.03
197.79	3604.42
198.01	3035.09
198.23	2953.17
198.45	3520.46
198.67	3209.17
198.89	2803.67
199.11	3106.77
199.33	3250.13
199.55	2949.08
199.77	2924.50
199.99	3100.62
200.21	3364.81
200.43	3549.13
200.65	2869.20
200.87	2779.09
201.09	3471.31
201.31	3450.83
201.53	3008.47
201.75	3049.43
201.97	3606.47
202.19	3467.21
202.41	3127.25
202.63	3063.76
202.85	3575.75
203.07	3506.12
203.29	3080.14
203.51	2895.83
203.73	3209.17
203.95	4061.12
204.17	2881.49
204.39	3219.41
204.61	3379.15
204.83	3289.04
205.05	3108.82
205.27	2951.12
205.49	4007.87
205.71	3413.96
205.93	2775.00
206.15	2873.30
206.37	3491.79
206.59	3428.30
206.81	2781.14
207.03	2793.43
207.25	3227.60
207.47	3594.19
207.69	2918.36
207.91	3180.50
208.13	3825.61
208.34	3309.52
208.56	2899.92
208.78	2998.23
209.00	3506.12
209.22	3403.72
209.44	2992.08
209.66	2904.02
209.88	3454.92
210.10	3409.87
210.32	2963.41
210.54	3065.81
210.76	3354.57
210.98	3690.44
211.20	2824.15
211.42	3061.71
211.64	3749.83
211.86	3561.42
212.08	3008.47
212.30	2983.89
212.52	3409.87
212.74	3526.60
212.96	3053.52
213.17	3035.09
213.39	3618.76
213.61	3909.57
213.83	2926.55
214.05	2838.48
214.27	3620.81
214.49	3330.00
214.71	2873.30
214.93	3045.33
215.15	3518.41
215.37	3567.56
215.59	2766.81
215.81	3078.10
216.03	3831.75
216.24	3508.17
216.46	2965.46
216.68	3012.56
216.90	3590.09
217.12	3651.53
217.34	2881.49
217.56	3213.26
217.78	3835.85
218.00	3622.86
218.22	3094.48
218.44	3012.56
218.66	3514.31
218.87	3866.56
219.09	2994.13
219.31	2901.97
219.53	3598.28
219.75	3330.00
219.97	2979.79
220.19	3065.81
220.41	3407.82
220.63	3762.12
220.85	3008.47
221.06	3024.85
221.28	3844.04
221.50	3545.03
221.72	2990.03
221.94	2863.06
222.16	3473.36
222.38	3641.29
222.60	2953.17
222.82	3022.80
223.03	3755.97
223.25	3157.97
223.47	2979.79
223.69	3274.70
223.91	3614.66
224.13	3524.55
224.35	2832.34
224.57	3196.88
224.78	3643.34
225.00	3266.51
225.22	3143.63
225.44	2926.55
225.66	3614.66
225.88	3291.09
226.10	3119.06
226.32	2949.08
226.53	3753.93
226.75	3354.57
226.97	3098.58
227.19	2971.60
227.41	3237.84
227.63	3381.20
227.85	2811.86
228.06	3026.90
228.28	3485.64
228.50	3655.62
228.72	2803.67
228.94	2901.97
229.16	3074.00
229.37	3313.61
229.59	2756.57
229.81	3289.04
230.03	3315.66
230.25	3147.73
230.47	2850.77
230.69	2985.94
230.90	3688.39
231.12	3395.53
231.34	3041.23
231.56	3008.47
231.78	3229.65
232.00	3477.45
232.21	3016.66
232.43	3028.95
232.65	3002.32
232.87	3573.71
233.09	2779.09
233.30	2920.40
233.52	3653.58
233.74	3430.35
233.96	2867.16
234.18	3180.50
234.40	3495.88
234.61	3968.96
234.83	2916.31
235.05	2904.02
235.27	4073.41
235.49	3719.11
235.70	2807.77
235.92	2867.16
236.14	3518.41
236.36	4003.78
236.58	2879.44
236.79	2977.75
237.01	3368.91
237.23	3430.35
237.45	3200.98
237.67	3094.48
237.88	3573.71
238.10	3864.52
238.32	2879.44
238.54	2883.54
238.76	3440.59
238.97	3284.94
239.19	2809.81
239.41	2963.41
239.63	3731.40
239.85	3315.66
240.06	2906.07
240.28	2955.22
240.50	3676.10
240.72	3516.36
240.93	2811.86
241.15	3117.01
241.37	3385.29
241.59	3706.82
241.81	2979.79
242.02	3082.19
242.24	3606.47
242.46	3659.72
242.68	2754.52
242.89	2906.07
243.11	3696.58
243.33	3450.83
243.55	2955.22
243.76	2942.93
243.98	3278.80
244.20	3397.58
244.42	2977.75
244.64	2842.58
244.85	3151.82
245.07	3248.08
245.29	2922.45
245.51	3051.47
245.72	3571.66
245.94	3737.54
246.16	2928.60
246.38	3012.56
246.59	3330.00
246.81	3280.85
247.03	2818.00
247.24	2873.30
247.46	3342.28
247.68	3481.55
247.90	2811.86
248.11	2967.51
248.33	3592.14
248.55	3479.50
248.77	3037.14
248.98	3033.04
249.20	3794.89
249.42	3540.94
249.64	2944.98
249.85	2918.36
250.07	3420.11
250.29	3655.62
250.50	2987.99
250.72	2901.97
250.94	3616.71
251.16	3878.85
251.37	2928.60
251.59	3043.28
251.81	3573.71
252.02	3704.78
252.24	2873.30
252.46	3106.77
252.68	3248.08
252.89	3297.23
253.11	2826.20
253.33	3182.54
253.54	3876.80
253.76	3192.78
253.98	3002.32
254.20	2983.89
254.41	3223.50
254.63	3454.92
254.85	2789.33
255.06	3078.10
255.28	3567.56
255.50	3420.11
255.71	2820.05
255.93	2830.29
256.15	3393.48
256.36	3616.71
256.58	2764.76
256.80	2873.30
257.02	3483.59
257.23	3418.06
257.45	2928.60
257.67	3061.71
257.88	3330.00
258.10	3557.32
258.32	2938.84
258.53	3074.00
258.75	3901.38
258.97	3315.66
259.18	2922.45
259.40	2852.82
259.62	3813.32
259.83	3788.74
260.05	3024.85
260.27	3893.19
260.48	3674.06
260.70	3321.81
260.92	2852.82
261.13	3057.62
261.35	3538.89
261.57	3602.38
261.78	2820.05
262.00	2940.88
262.22	3487.69
262.43	3272.65
262.65	2955.22
262.86	2992.08
263.08	3983.30
263.30	3360.72
263.51	2867.16
263.73	2910.16
263.95	3792.84
264.16	3297.23
264.38	2787.29
264.60	2873.30
264.81	3448.78
265.03	3686.34
265.25	3403.72
265.46	2906.07
265.68	3661.77
265.89	3655.62
266.11	2838.48
266.33	2955.22
266.54	3696.58
266.76	3674.06
266.98	3059.67
267.19	3278.80
267.41	3667.91
267.62	3399.63
267.84	2789.33
268.06	3063.76
268.27	3540.94
268.49	3641.29
268.70	3061.71
268.92	3028.95
269.14	3192.78
269.35	3180.50
269.57	3059.67
269.79	2994.13
270.00	3264.46
270.22	3813.32
270.43	2856.92
270.65	2873.30
270.87	3577.80
271.08	3518.41
271.30	3133.39
271.51	2963.41
271.73	3553.23
271.95	3768.26
272.16	2869.20
272.38	3065.81
272.59	3336.14
272.81	3528.65
273.02	2912.21
273.24	2987.99
273.46	3696.58
273.67	3239.89
273.89	2807.77
274.10	2953.17
274.32	3684.30
274.54	3499.98
274.75	2967.51
274.97	3053.52
275.18	3647.43
275.40	3499.98
275.61	2955.22
275.83	3172.30
276.05	3180.50
276.26	3440.59
276.48	3059.67
276.69	3172.30
276.91	3364.81
277.12	3794.89
277.34	3155.92
277.55	3196.88
277.77	3516.36
277.99	3360.72
278.20	3172.30
278.42	3000.27
278.63	3370.96
278.85	3211.22
279.06	3018.71
279.28	3182.54
279.49	3641.29
279.71	3600.33
279.93	3155.92
280.14	3117.01
280.36	3336.14
280.57	3688.39
280.79	3147.73
281.00	2959.31
281.22	3295.18
281.43	3665.86
281.65	2805.72
281.86	2992.08
282.08	3561.42
282.29	3872.71
282.51	3030.99
282.73	3016.66
282.94	3129.30
283.16	3637.19
283.37	3203.02
283.59	3123.15
283.80	3561.42
284.02	3430.35
284.23	3123.15
284.45	3063.76
284.66	3299.28
284.88	3360.72
285.09	3037.14
285.31	3180.50
285.52	3551.18
285.74	3141.58
285.95	3338.19
286.17	3170.26
286.38	3592.14
286.60	3272.65
286.81	2996.18
287.03	3020.75
287.24	3418.06
287.46	3516.36
287.67	3121.10
287.89	3243.98
288.10	3424.20
288.32	3428.30
288.53	3284.94
288.75	3143.63
288.96	3686.34
289.18	3352.52
289.39	2971.60
289.61	3219.41
289.82	3946.44
290.04	3862.47
290.25	2914.26
290.47	3196.88
290.68	3483.59
290.90	3690.44
291.11	2885.59
291.33	3186.64
291.54	3282.89
291.76	3270.61
291.97	3155.92
292.18	3188.69
292.40	3342.28
292.61	3319.76
292.83	3438.54
293.04	3037.14
293.26	3532.75
293.47	3377.10
293.69	3069.91
293.90	2977.75
294.12	3721.16
294.33	3442.64
294.55	3086.29
294.76	3303.37
294.97	3760.07
295.19	3944.39
295.40	3076.05
295.62	3131.34
295.83	3684.30
296.05	3325.90
296.26	3368.91
296.48	3133.39
296.69	3381.20
296.90	3405.77
297.12	3241.93
297.33	3262.41
297.55	3475.40
297.76	3522.51
297.98	3241.93
298.19	3256.27
298.41	3411.92
298.62	3264.46
298.83	3307.47
299.05	3260.37
299.26	3327.95
299.48	3264.46
299.69	3254.22
299.90	3010.51
300.12	3350.48
300.33	3575.75
300.55	3100.62
300.76	3205.07
300.98	3262.41
301.19	3641.29
301.40	3141.58
301.62	3059.67
301.83	3629.00
302.05	3385.29
302.26	3092.43
302.47	3213.26
302.69	3254.22
302.90	3450.83
303.12	2996.18
303.33	3188.69
303.54	3766.21
303.76	3276.75
303.97	2996.18
304.19	3231.69
304.40	3289.04
304.61	3590.09
304.83	3213.26
305.04	3225.55
305.26	3602.38
305.47	3307.47
305.68	3117.01
305.90	2975.70
306.11	3706.82
306.33	3385.29
306.54	2940.88
306.75	3098.58
306.97	3090.38
307.18	3248.08
307.39	3100.62
307.61	3237.84
307.82	3354.57
308.04	3522.51
308.25	2959.31
308.46	3170.26
308.68	3381.20
308.89	3356.62
309.10	3129.30
309.32	3164.11
309.53	3436.49
309.74	3583.95
309.96	2998.23
310.17	3223.50
310.39	3327.95
310.60	3557.32
310.81	3065.81
311.03	2967.51
311.24	3626.95
311.45	3456.97
311.67	3319.76
311.88	3168.21
312.09	3336.14
312.31	3330.00
312.52	2932.69
312.73	2967.51
312.95	3114.96
313.16	3166.16
313.37	3192.78
313.59	3239.89
313.80	3653.58
314.01	3850.18
314.23	3164.11
314.44	3008.47
314.65	3235.79
314.87	3196.88
315.08	3096.53
315.29	3082.19
315.51	3248.08
315.72	3076.05
315.93	3135.44
316.15	3110.86
316.36	3327.95
316.57	3555.27
316.79	3100.62
317.00	3020.75
317.21	3610.57
317.43	3284.94
317.64	3065.81
317.85	3045.33
318.07	3297.23
318.28	3311.57
318.49	3114.96
318.70	3262.41
318.92	3495.88
319.13	3434.44
319.34	3235.79
319.56	3098.58
319.77	3448.78
319.98	3629.00
320.20	3444.68
320.41	3346.38
320.62	3528.65
320.83	3182.54
321.05	3243.98
321.26	3127.25
321.47	3528.65
321.69	3710.92
321.90	3057.62
322.11	3076.05
322.32	3545.03
322.54	3848.13
322.75	3094.48
322.96	4249.54
323.18	3160.02
323.39	3033.04
323.60	3010.51
323.81	3250.13
324.03	3241.93
324.24	3477.45
324.45	3229.65
324.66	3008.47
324.88	3696.58
325.09	3786.69
325.30	3108.82
325.52	2985.94
325.73	3559.37
325.94	3229.65
326.15	3022.80
326.37	2975.70
326.58	3624.90
326.79	3809.22
327.00	3045.33
327.22	3080.14
327.43	3315.66
327.64	3254.22
327.85	3340.24
328.07	3119.06
328.28	3870.66
328.49	3291.09
328.70	3135.44
328.92	3110.86
329.13	3418.06
329.34	3561.42
329.55	3344.33
329.76	3237.84
329.98	3344.33
330.19	3737.54
330.40	3190.74
330.61	3248.08
330.83	3631.05
331.04	3207.12
331.25	3237.84
331.46	3207.12
331.68	3133.39
331.89	3758.02
332.10	3041.23
332.31	3008.47
332.52	3426.25
332.74	3663.82
332.95	2934.74
333.16	3108.82
333.37	3657.67
333.58	3356.62
333.80	3186.64
334.01	2920.40
334.22	3442.64
334.43	3338.19
334.64	3028.95
334.86	3100.62
335.07	3340.24
335.28	3721.16
335.49	3010.51
335.70	3139.54
335.92	3858.37
336.13	3901.38
336.34	3135.44
336.55	3026.90
336.76	3549.13
336.98	2942.93
337.19	3096.53
337.40	3190.74
337.61	3946.44
337.82	3364.81
338.04	3209.17
338.25	2928.60
338.46	3393.48
338.67	3358.67
338.88	3022.80
339.09	2967.51
339.31	3356.62
339.52	3092.43
339.73	3039.19
339.94	3198.93
340.15	3514.31
340.36	3270.61
340.58	3112.91
340.79	3127.25
341.00	3573.71
341.21	3190.74
341.42	3381.20
341.63	3170.26
341.85	3626.95
342.06	3532.75
342.27	3000.27
342.48	3325.90
342.69	3188.69
342.90	3477.45
343.12	3612.62
343.33	3049.43
343.54	3721.16
343.75	3751.88
343.96	3223.50
344.17	2996.18
344.38	3401.68
344.60	3348.43
344.81	3069.91
345.02	3117.01
345.23	3762.12
345.44	4059.07
345.65	3184.59
345.86	3157.97
346.07	3557.32
346.29	3319.76
346.50	3272.65
346.71	3135.44
346.92	3790.79
347.13	3889.09
347.34	3137.49
347.55	2951.12
347.76	3559.37
347.98	3164.11
348.19	3151.82
348.40	3379.15
348.61	3239.89
348.82	3712.97
349.03	3184.59
349.24	3016.66
349.45	3909.57
349.66	3002.32
349.88	3006.42
350.09	3053.52
350.30	3747.78
350.51	3747.78
350.72	3274.70
350.93	3018.71
351.14	3313.61
351.35	3524.55
351.56	3155.92
351.77	3164.11
351.99	3604.42
352.20	3747.78
352.41	3184.59
352.62	2899.92
352.83	3422.16
353.04	3420.11
353.25	3059.67
353.46	3065.81
353.67	3692.49
353.88	3102.67
354.09	3039.19
354.30	3182.54
354.52	3690.44
354.73	3323.85
354.94	3086.29
355.15	3059.67
355.36	3919.81
355.57	3373.00
355.78	3035.09
355.99	3055.57
356.20	3373.00
356.41	3729.35
356.62	3227.60
356.83	3176.40
357.04	3786.69
357.25	3026.90
357.46	3188.69
357.68	2928.60
357.89	3221.45
358.10	3389.39
358.31	3065.81
358.52	3217.36
358.73	3166.16
358.94	3123.15
359.15	3155.92
359.36	3057.62
359.57	3373.00
359.78	3332.05
359.99	3307.47
360.20	2983.89
360.41	3475.40
360.62	3565.51
360.83	3207.12
361.04	3137.49
361.25	3565.51
361.46	3786.69
361.67	3180.50
361.88	3090.38
362.09	3674.06
362.30	3442.64
362.51	3053.52
362.72	3192.78
362.93	3598.28
363.14	3520.46
363.35	3188.69
363.56	3008.47
363.78	3741.64
363.99	3694.54
364.20	3135.44
364.41	3200.98
364.62	3966.92
364.83	3514.31
365.04	3190.74
365.25	3127.25
365.46	4054.98
365.67	3293.13
365.88	3286.99
366.09	3100.62
366.30	3377.10
366.51	3407.82
366.72	3108.82
366.93	3024.85
367.14	3530.70
367.35	3737.54
367.56	2959.31
367.77	3186.64
367.98	3430.35
368.18	3540.94
368.39	3237.84
368.60	3008.47
368.81	3629.00
369.02	3518.41
369.23	3196.88
369.44	2951.12
369.65	3434.44
369.86	3590.09
370.07	3215.31
370.28	2979.79
370.49	3565.51
370.70	3528.65
370.91	3035.09
371.12	3026.90
371.33	3704.78
371.54	3313.61
371.75	3176.40
371.96	2824.15
372.17	3579.85
372.38	3413.96
372.59	3131.34
372.80	3090.38
373.01	3420.11
373.22	3469.26
373.43	3086.29
373.64	2951.12
373.85	3698.63
374.06	3811.27
374.26	3317.71
374.47	3231.69
374.68	3698.63
374.89	3481.55
375.10	3069.91
375.31	3254.22
375.52	3444.68
375.73	3563.47
375.94	3026.90
376.15	3239.89
376.36	3264.46
376.57	3379.15
376.78	3059.67
376.99	3127.25
377.20	3829.70
377.40	3364.81
377.61	3438.54
377.82	2975.70
378.03	3758.02
378.24	3581.90
378.45	3254.22
378.66	3182.54
378.87	3176.40
379.08	3108.82
379.29	3131.34
379.50	3200.98
379.71	3397.58
379.91	3506.12
380.12	3061.71
380.33	3178.45
380.54	3344.33
380.75	3405.77
380.96	3074.00
381.17	3137.49
381.38	3434.44
381.59	3467.21
381.80	3143.63
382.00	3295.18
382.21	3446.73
382.42	3708.87
382.63	3524.55
382.84	3311.57
383.05	3631.05
383.26	3731.40
383.47	3313.61
383.68	3033.04
383.88	3575.75
384.09	3499.98
384.30	3352.52
384.51	3203.02
384.72	3387.34
384.93	3194.83
385.14	3200.98
385.35	3428.30
385.55	3117.01
385.76	3700.68
385.97	3086.29
386.18	2926.55
386.39	3289.04
386.60	3274.70
386.81	3067.86
387.02	2981.84
387.22	3137.49
387.43	3549.13
387.64	3233.74
387.85	3440.59
388.06	3422.16
388.27	4384.70
388.48	7145.36
388.68	10899.29
388.89	13618.99
389.10	14554.91
389.31	14173.99
389.52	11644.75
389.73	10229.60
389.93	9420.66
390.14	8466.30
390.35	7833.48
390.56	7382.93
390.77	6285.22
390.98	4757.43
391.18	4100.03
391.39	3891.14
391.60	3467.21
391.81	3352.52
392.02	3127.25
392.23	3940.29
392.43	3504.07
392.64	3221.45
392.85	3192.78
393.06	3778.50
393.27	3409.87
393.47	3104.72
393.68	3172.30
393.89	3411.92
394.10	3676.10
394.31	3143.63
394.52	3100.62
394.72	3354.57
394.93	3755.97
395.14	3010.51
395.35	3209.17
395.56	3293.13
395.76	3379.15
395.97	2992.08
396.18	3221.45
396.39	3330.00
396.60	4147.14
396.80	3493.83
397.01	3389.39
397.22	3594.19
397.43	3624.90
397.64	3186.64
397.84	3196.88
398.05	3964.87
398.26	3440.59
398.47	3248.08
398.67	3424.20
398.88	3428.30
399.09	3604.42
399.30	3092.43
399.51	3172.30
399.71	3305.42
399.92	3454.92
400.13	3229.65
400.34	3117.01
400.54	3450.83
400.75	3807.17
400.96	3135.44
401.17	3465.16
401.37	3516.36
401.58	3368.91
401.79	3147.73
402.00	3272.65
402.21	3977.16
402.41	3645.38
402.62	3364.81
402.83	3526.60
403.04	3823.56
403.24	4315.07
403.45	3270.61
403.66	3491.79
403.87	3731.40
404.07	3794.89
404.28	3303.37
404.49	3426.25
404.70	3565.51
404.90	3581.90
405.11	3205.07
405.32	3184.59
405.52	3403.72
405.73	3366.86
405.94	3065.81
406.15	3237.84
406.35	3549.13
406.56	3602.38
406.77	3133.39
406.98	3092.43
407.18	3205.07
407.39	3801.03
407.60	3180.50
407.80	3262.41
408.01	3426.25
408.22	3600.33
408.43	3080.14
408.63	3266.51
408.84	3672.01
409.05	3704.78
409.25	3104.72
409.46	3188.69
409.67	3327.95
409.88	3332.05
410.08	3176.40
410.29	3123.15
410.50	3542.99
410.70	3538.89
410.91	3014.61
411.12	3303.37
411.32	3528.65
411.53	3258.32
411.74	3121.10
411.95	3123.15
412.15	3442.64
412.36	3643.34
412.57	3301.33
412.77	3311.57
412.98	3344.33
413.19	3338.19
413.39	3112.91
413.60	3203.02
413.81	3710.92
414.01	3213.26
414.22	3145.68
414.43	3315.66
414.63	3248.08
414.84	3649.48
415.05	3215.31
415.25	3037.14
415.46	3557.32
415.67	3348.43
415.87	3123.15
416.08	3123.15
416.29	3330.00
416.49	3557.32
416.70	3262.41
416.91	3147.73
417.11	3452.88
417.32	3631.05
417.53	3286.99
417.73	3299.28
417.94	3409.87
418.15	3557.32
418.35	3211.22
418.56	3164.11
418.77	3979.20
418.97	3491.79
419.18	3282.89
419.38	2879.44
419.59	3481.55
419.80	3710.92
420.00	3067.86
420.21	3123.15
420.42	3741.64
420.62	3483.59
420.83	3217.36
421.04	3131.34
421.24	3397.58
421.45	3649.48
421.65	3192.78
421.86	3155.92
422.07	3655.62
422.27	3573.71
422.48	3057.62
422.69	2994.13
422.89	3373.00
423.10	3465.16
423.30	3178.45
423.51	3168.21
423.72	3516.36
423.92	3569.61
424.13	2926.55
424.33	3198.93
424.54	3647.43
424.75	3495.88
424.95	3391.44
425.16	3135.44
425.36	3477.45
425.57	3672.01
425.78	3405.77
425.98	3280.85
426.19	3403.72
426.39	3254.22
426.60	3274.70
426.81	3295.18
427.01	3594.19
427.22	3223.50
427.42	2992.08
427.63	3117.01
427.83	3678.15
428.04	3774.41
428.25	3250.13
428.45	3276.75
428.66	3672.01
428.86	3377.10
429.07	3264.46
429.28	3250.13
429.48	3426.25
429.69	3264.46
429.89	3356.62
430.10	3123.15
430.30	3647.43
430.51	3680.20
430.71	3080.14
430.92	3293.13
431.13	3291.09
431.33	3508.17
431.54	3254.22
431.74	3360.72
431.95	3995.59
432.15	3233.74
432.36	3178.45
432.56	3231.69
432.77	3936.20
432.98	3866.56
433.18	3243.98
433.39	2987.99
433.59	3405.77
433.80	3928.00
434.00	3340.24
434.21	3160.02
434.41	3254.22
434.62	3973.06
434.82	3090.38
435.03	3010.51
435.23	3573.71
435.44	3010.51
435.64	3098.58
435.85	3151.82
436.06	3637.19
436.26	3635.14
436.47	3184.59
436.67	3088.34
436.88	3393.48
437.08	3753.93
437.29	3221.45
437.49	3356.62
437.70	3727.30
437.90	3418.06
438.11	3362.76
438.31	3311.57
438.52	3749.83
438.72	3651.53
438.93	3506.12
439.13	3254.22
439.34	3641.29
439.54	3334.09
439.75	3319.76
439.95	3198.93
440.16	3286.99
440.36	3432.40
440.57	3135.44
440.77	3133.39
440.98	3418.06
441.18	3577.80
441.39	3063.76
441.59	3108.82
441.80	3930.05
442.00	3375.05
442.21	3282.89
442.41	3035.09
442.62	3616.71
442.82	3327.95
443.02	3164.11
443.23	3205.07
443.43	3405.77
443.64	3700.68
443.84	3016.66
444.05	3190.74
444.25	3479.50
444.46	3284.94
444.66	3119.06
444.87	3432.40
445.07	3151.82
445.28	3379.15
445.48	3286.99
445.69	3291.09
445.89	4063.17
446.09	3352.52
446.30	3477.45
446.50	3547.08
446.71	4939.70
446.91	6131.62
447.12	6875.03
447.32	7419.79
447.53	7286.67
447.73	6088.61
447.93	5281.71
448.14	5253.04
448.34	5521.32
448.55	4415.42
448.75	4376.51
448.96	4159.42
449.16	4163.52
449.36	4061.12
449.57	3416.01
449.77	3239.89
449.98	3260.37
450.18	3452.88
450.39	3090.38
450.59	3444.68
450.79	3416.01
451.00	3321.81
451.20	3379.15
451.41	3229.65
451.61	3473.36
451.81	3356.62
452.02	3110.86
452.22	3194.83
452.43	3344.33
452.63	3260.37
452.84	3205.07
453.04	3086.29
453.24	3430.35
453.45	3229.65
453.65	3182.54
453.86	3153.87
454.06	3436.49
454.26	3475.40
454.47	3137.49
454.67	3323.85
454.87	3590.09
455.08	3313.61
455.28	3332.05
455.49	3360.72
455.69	3280.85
455.89	3874.76
456.10	3162.06
456.30	3108.82
456.51	3569.61
456.71	3401.68
456.91	3289.04
457.12	3166.16
457.32	3571.66
457.52	3203.02
457.73	3368.91
457.93	3403.72
458.14	3254.22
458.34	3065.81
458.54	3256.27
458.75	3135.44
458.95	3651.53
459.15	3459.02
459.36	3241.93
459.56	3162.06
459.76	4028.35
459.97	3526.60
460.17	3139.54
460.37	3225.55
460.58	3413.96
460.78	3639.24
460.99	3254.22
461.19	3182.54
461.39	3352.52
461.60	3311.57
461.80	3168.21
462.00	3028.95
462.21	3436.49
462.41	3246.03
462.61	3037.14
462.82	2918.36
463.02	3528.65
463.22	3428.30
463.43	3248.08
463.63	3067.86
463.83	3676.10
464.04	3534.79
464.24	3143.63
464.44	3123.15
464.64	3438.54
464.85	3549.13
465.05	3237.84
465.25	3059.67
465.46	3393.48
465.66	3581.90
465.86	3315.66
466.07	3143.63
466.27	3385.29
466.47	3043.28
466.68	3061.71
466.88	3207.12
467.08	3641.29
467.29	3661.77
467.49	3180.50
467.69	3317.71
467.89	3602.38
468.10	3385.29
468.30	3219.41
468.50	3305.42
468.71	3622.86
468.91	3100.62
469.11	3327.95
469.31	3211.22
469.52	3315.66
469.72	3915.72
469.92	3487.69
470.13	3194.83
470.33	3403.72
470.53	3526.60
470.73	3532.75
470.94	3821.51
471.14	3993.54
471.34	4607.93
471.54	4110.27
471.75	3825.61
471.95	3723.21
472.15	3745.73
472.36	3643.34
472.56	3520.46
472.76	4020.16
472.96	3803.08
473.17	3450.83
473.37	3192.78
473.57	3307.47
473.77	3604.42
473.98	3385.29
474.18	3121.10
474.38	4206.53
474.58	3356.62
474.79	3012.56
474.99	3270.61
475.19	3692.49
475.39	3223.50
475.60	3239.89
475.80	3153.87
476.00	3514.31
476.20	3342.28
476.41	3295.18
476.61	3307.47
476.81	3663.82
477.01	3262.41
477.21	3510.22
477.42	3286.99
477.62	3262.41
477.82	3631.05
478.02	3102.67
478.23	3141.58
478.43	3286.99
478.63	3358.67
478.83	3162.06
479.03	3172.30
479.24	3772.36
479.44	3811.27
479.64	3090.38
479.84	2965.46
480.04	3327.95
480.25	3690.44
480.45	3102.67
480.65	3114.96
480.85	3700.68
481.06	3346.38
481.26	3305.42
481.46	3155.92
481.66	3557.32
481.86	3180.50
482.06	3307.47
482.27	3231.69
482.47	3379.15
482.67	3565.51
482.87	3254.22
483.07	3221.45
483.28	3342.28
483.48	3254.22
483.68	3200.98
483.88	3119.06
484.08	2975.70
484.29	3221.45
484.49	3225.55
484.69	3020.75
484.89	3780.55
485.09	3686.34
485.29	3151.82
485.50	3311.57
485.70	3334.09
485.90	3764.17
486.10	3319.76
486.30	3028.95
486.50	3721.16
486.71	3493.83
486.91	3258.32
487.11	3205.07
487.31	3239.89
487.51	3481.55
487.71	3164.11
487.91	3096.53
488.12	3223.50
488.32	2953.17
488.52	3162.06
488.72	2940.88
488.92	3495.88
489.12	3678.15
489.32	3274.70
489.53	3223.50
489.73	3205.07
489.93	3856.33
490.13	3211.22
490.33	3010.51
490.53	3588.04
490.73	3741.64
490.94	3043.28
491.14	3293.13
491.34	3612.62
491.54	3532.75
491.74	3971.01
491.94	4394.94
492.14	5111.73
492.34	5113.78
492.54	4724.66
492.75	4067.27
492.95	4456.38
493.15	4050.88
493.35	3796.93
493.55	3823.56
493.75	3846.09
493.95	3999.68
494.15	3299.28
494.35	3289.04
494.56	3450.83
494.76	3317.71
494.96	3305.42
495.16	3106.77
495.36	3452.88
495.56	3450.83
495.76	3286.99
495.96	3164.11
496.16	3231.69
496.36	3885.00
496.56	3110.86
496.77	3192.78
496.97	3461.07
497.17	3749.83
497.37	2985.94
497.57	3286.99
497.77	3502.03
497.97	3254.22
498.17	3172.30
498.37	3117.01
498.57	3585.99
498.77	3319.76
498.97	3395.53
499.17	3448.78
499.38	3381.20
499.58	3499.98
499.78	3385.29
499.98	3344.33
500.18	3307.47
500.38	3295.18
500.58	3424.20
500.78	3794.89
500.98	6023.08
501.18	7794.57
501.38	9138.04
501.58	10037.09
501.78	9901.93
501.98	8236.93
502.18	6936.47
502.38	6182.82
502.58	6209.44
502.78	5543.85
502.98	5300.14
503.18	5029.81
503.38	4849.59
503.59	4282.30
503.79	4052.93
503.99	3672.01
504.19	3973.06
504.39	3954.63
504.59	3506.12
504.79	3561.42
504.99	3962.82
505.19	3682.25
505.39	3286.99
505.59	3573.71
505.79	3770.31
505.99	3624.90
506.19	3243.98
506.39	3409.87
506.59	3323.85
506.79	3411.92
506.99	3438.54
507.19	3080.14
507.39	3438.54
507.59	3114.96
507.79	3110.86
507.99	3127.25
508.19	3340.24
508.39	3286.99
508.59	3141.58
508.79	3246.03
508.99	3930.05
509.19	3217.36
509.39	3090.38
509.59	3114.96
509.79	3319.76
509.99	3456.97
510.19	3387.34
510.39	3262.41
510.59	3479.50
510.79	3395.53
510.99	3033.04
511.19	3020.75
511.39	3774.41
511.59	3733.45
511.79	3321.81
511.99	3104.72
512.19	3821.51
512.38	3416.01
512.58	3117.01
512.78	3053.52
512.98	3747.78
513.18	3815.37
513.38	3139.54
513.58	3289.04
513.78	3389.39
513.98	3450.83
514.18	3170.26
514.38	3131.34
514.58	3450.83
514.78	3307.47
514.98	3037.14
515.18	3180.50
515.38	3233.74
515.58	3782.60
515.78	3198.93
515.98	3248.08
516.18	3606.47
516.38	3477.45
516.57	3049.43
516.77	3196.88
516.97	3551.18
517.17	3297.23
517.37	2971.60
517.57	3221.45
517.77	3499.98
517.97	3319.76
518.17	3198.93
518.37	3026.90
518.57	3297.23
518.77	3291.09
518.97	3196.88
519.16	3176.40
519.36	3647.43
519.56	3282.89
519.76	3119.06
519.96	3147.73
520.16	3792.84
520.36	3170.26
520.56	3373.00
520.76	3092.43
520.96	3379.15
521.16	3598.28
521.35	3422.16
521.55	3270.61
521.75	3510.22
521.95	3370.96
522.15	3114.96
522.35	3000.27
522.55	3278.80
522.75	3565.51
522.95	3078.10
523.14	3051.47
523.34	3413.96
523.54	3348.43
523.74	3330.00
523.94	3198.93
524.14	3227.60
524.34	3573.71
524.54	3383.24
524.73	3160.02
524.93	3516.36
525.13	3473.36
525.33	3063.76
525.53	3411.92
525.73	3645.38
525.93	3485.64
526.13	3160.02
526.32	2990.03
526.52	3698.63
526.72	3631.05
526.92	3172.30
527.12	3076.05
527.32	3135.44
527.52	3471.31
527.71	3213.26
527.91	3196.88
528.11	3356.62
528.31	3454.92
528.51	3151.82
528.71	3286.99
528.90	3573.71
529.10	3733.45
529.30	3215.31
529.50	2869.20
529.70	3555.27
529.90	3428.30
530.09	3176.40
530.29	2928.60
530.49	3221.45
530.69	4057.03
530.89	3375.05
531.09	3248.08
531.28	3276.75
531.48	3725.26
531.68	3145.68
531.88	3207.12
532.08	3649.48
532.28	3370.96
532.47	3248.08
532.67	3305.42
532.87	3454.92
533.07	3264.46
533.27	3170.26
533.46	3233.74
533.66	3463.12
533.86	3354.57
534.06	3217.36
534.26	3160.02
534.45	3344.33
534.65	3692.49
534.85	3278.80
535.05	3092.43
535.25	3696.58
535.44	3166.16
535.64	3250.13
535.84	3229.65
536.04	3346.38
536.24	3327.95
536.43	3071.95
536.63	3143.63
536.83	3364.81
537.03	3495.88
537.22	2967.51
537.42	3000.27
537.62	3508.17
537.82	3289.04
538.02	3420.11
538.21	3233.74
538.41	3936.20
538.61	3549.13
538.81	3258.32
539.00	3246.03
539.20	3041.23
539.40	3270.61
539.60	3129.30
539.79	3411.92
539.99	3428.30
540.19	3352.52
540.39	3069.91
540.58	3250.13
540.78	3753.93
540.98	3471.31
541.18	3438.54
541.37	3203.02
541.57	3493.83
541.77	3499.98
541.97	3096.53
542.16	3020.75
542.36	3319.76
542.56	3655.62
542.76	3241.93
542.95	3211.22
543.15	3626.95
543.35	3635.14
543.54	3221.45
543.74	3141.58
543.94	3710.92
544.14	3323.85
544.33	3276.75
544.53	3229.65
544.73	3330.00
544.93	3323.85
545.12	3082.19
545.32	3229.65
545.52	3420.11
545.71	3209.17
545.91	3123.15
546.11	3090.38
546.30	3207.12
546.50	3461.07
546.70	3295.18
546.90	3209.17
547.09	3092.43
547.29	3348.43
547.49	3219.41
547.68	3198.93
547.88	3256.27
548.08	3436.49
548.27	3499.98
548.47	3114.96
548.67	3317.71
548.87	3467.21
549.06	3098.58
549.26	3102.67
549.46	3463.12
549.65	3323.85
549.85	3174.35
550.05	3125.20
550.24	3213.26
550.44	3475.40
550.64	3252.17
550.83	3274.70
551.03	3825.61
551.23	3643.34
551.42	3237.84
551.62	3205.07
551.82	3420.11
552.01	3344.33
552.21	3430.35
552.41	3217.36
552.60	3749.83
552.80	3422.16
553.00	3137.49
553.19	3147.73
553.39	3833.80
553.59	3147.73
553.78	3381.20
553.98	3131.34
554.17	3145.68
554.37	3497.93
554.57	3239.89
554.76	3045.33
554.96	3264.46
555.16	3491.79
555.35	3262.41
555.55	3327.95
555.75	3479.50
555.94	3567.56
556.14	2949.08
556.33	3180.50
556.53	3325.90
556.73	3327.95
556.92	3174.35
557.12	3141.58
557.32	3901.38
557.51	3661.77
557.71	3266.51
557.90	3373.00
558.10	3692.49
558.30	3368.91
558.49	3198.93
558.69	3071.95
558.88	3545.03
559.08	3467.21
559.28	3192.78
559.47	3217.36
559.67	3606.47
559.86	3909.57
560.06	3094.48
560.26	3139.54
560.45	3542.99
560.65	3403.72
560.84	3504.07
561.04	3043.28
561.24	3629.00
561.43	3160.02
561.63	3383.24
561.82	3370.96
562.02	3610.57
562.22	3317.71
562.41	3102.67
562.61	3180.50
562.80	3254.22
563.00	3901.38
563.19	3194.83
563.39	3241.93
563.59	3585.99
563.78	3172.30
563.98	2967.51
564.17	3141.58
564.37	3037.14
564.56	3413.96
564.76	3047.38
564.96	3215.31
565.15	3430.35
565.35	3919.81
565.54	3209.17
565.74	3190.74
565.93	3555.27
566.13	3407.82
566.32	3289.04
566.52	3231.69
566.71	3477.45
566.91	3657.67
567.11	3311.57
567.30	3026.90
567.50	3438.54
567.69	3516.36
567.89	3139.54
568.08	3008.47
568.28	3418.06
568.47	3194.83
568.67	3205.07
568.86	3141.58
569.06	3624.90
569.25	3319.76
569.45	3078.10
569.64	3190.74
569.84	3346.38
570.04	3485.64
570.23	3108.82
570.43	3219.41
570.62	3493.83
570.82	3833.80
571.01	3084.24
571.21	3137.49
571.40	3278.80
571.60	3588.04
571.79	3241.93
571.99	3213.26
572.18	3284.94
572.38	3565.51
572.57	3291.09
572.77	3243.98
572.96	4052.93
573.16	3481.55
573.35	3200.98
573.55	3344.33
573.74	3512.27
573.94	3321.81
574.13	3153.87
574.33	3436.49
574.52	3645.38
574.71	3461.07
574.91	3192.78
575.10	2981.84
575.30	3344.33
575.49	3303.37
575.69	2992.08
575.88	3110.86
576.08	3332.05
576.27	3635.14
576.47	3137.49
576.66	3289.04
576.86	3766.21
577.05	3508.17
577.25	3241.93
577.44	3422.16
577.64	3305.42
577.83	3657.67
578.02	3067.86
578.22	3321.81
578.41	3866.56
578.61	3340.24
578.80	3096.53
579.00	3139.54
579.19	3385.29
579.39	3493.83
579.58	3139.54
579.77	3192.78
579.97	3749.83
580.16	3684.30
580.36	3418.06
580.55	3252.17
580.75	3510.22
580.94	3450.83
581.13	3389.39
581.33	3407.82
581.52	3303.37
581.72	3844.04
581.91	3246.03
582.11	3192.78
582.30	3616.71
582.49	3387.34
582.69	3420.11
582.88	3264.46
583.08	3499.98
583.27	3665.86
583.47	3379.15
583.66	3162.06
583.85	3192.78
584.05	3395.53
584.24	3332.05
584.44	3155.92
584.63	3688.39
584.82	3788.74
585.02	3434.44
585.21	3266.51
585.41	3485.64
585.60	3413.96
585.79	3409.87
585.99	3477.45
586.18	3405.77
586.37	4419.52
586.57	6580.12
586.76	18415.34
586.96	36849.10
587.15	49939.72
587.34	57187.48
587.54	61115.48
587.73	53144.79
587.93	38630.83
588.12	30035.51
588.31	24549.00
588.51	21982.90
588.70	20461.26
588.89	17622.77
589.09	15120.15
589.28	13117.24
589.47	10397.54
589.67	7870.34
589.86	6121.38
590.06	4900.79
590.25	4476.86
590.44	3889.09
590.64	3608.52
590.83	3760.07
591.02	3696.58
591.22	3160.02
591.41	3246.03
591.60	3418.06
591.80	3944.39
591.99	3026.90
592.18	3221.45
592.38	3665.86
592.57	3330.00
592.76	3119.06
592.96	3377.10
593.15	3368.91
593.34	3667.91
593.54	3104.72
593.73	3409.87
593.92	3524.55
594.12	3557.32
594.31	3164.11
594.50	3323.85
594.70	3565.51
594.89	4057.03
595.08	3123.15
595.28	3350.48
595.47	4073.41
595.66	3608.52
595.86	3065.81
596.05	3051.47
596.24	3399.63
596.43	3923.91
596.63	3282.89
596.82	3330.00
597.01	3540.94
597.21	3805.13
597.40	3196.88
597.59	3248.08
597.79	3424.20
597.98	3604.42
598.17	3256.27
598.36	3182.54
598.56	3692.49
598.75	3266.51
598.94	3286.99
599.14	3250.13
599.33	3395.53
599.52	3616.71
599.71	3301.33
599.91	3203.02
600.10	3569.61
600.29	3420.11
600.48	3264.46
600.68	3297.23
600.87	3555.27
601.06	3319.76
601.26	3272.65
601.45	3350.48
601.64	3385.29
601.83	3794.89
602.03	3037.14
602.22	3067.86
602.41	3725.26
602.60	4026.31
602.80	3246.03
602.99	3403.72
603.18	3260.37
603.37	3579.85
603.57	3098.58
603.76	3155.92
603.95	3678.15
604.14	3424.20
604.34	3141.58
604.53	3174.35
604.72	3487.69
604.91	3553.23
605.10	3139.54
605.30	3141.58
605.49	3860.42
605.68	3590.09
605.87	3194.83
606.07	3117.01
606.26	3506.12
606.45	3626.95
606.64	3157.97
606.84	3129.30
607.03	3426.25
607.22	3598.28
607.41	3227.60
607.60	3100.62
607.80	3692.49
607.99	3313.61
608.18	3184.59
608.37	3143.63
608.56	3305.42
608.76	3643.34
608.95	3313.61
609.14	3149.78
609.33	3680.20
609.52	3874.76
609.72	3272.65
609.91	3278.80
610.10	3497.93
610.29	3749.83
610.48	3352.52
610.68	3278.80
610.87	3418.06
611.06	3585.99
611.25	3248.08
611.44	3323.85
611.63	3389.39
611.83	3680.20
612.02	3102.67
612.21	3295.18
612.40	3053.52
612.59	3211.22
612.79	3100.62
612.98	3268.56
613.17	3856.33
613.36	3471.31
613.55	3248.08
613.74	3147.73
613.93	3401.68
614.13	3479.50
614.32	3321.81
614.51	3186.64
614.70	3375.05
614.89	3307.47
615.08	3264.46
615.28	3545.03
615.47	3250.13
615.66	3524.55
615.85	3268.56
616.04	3229.65
616.23	3403.72
616.42	3375.05
616.62	3192.78
616.81	3254.22
617.00	3538.89
617.19	3522.51
617.38	3198.93
617.57	3352.52
617.76	3590.09
617.95	3653.58
618.15	3356.62
618.34	3416.01
618.53	3151.82
618.72	3626.95
618.91	3248.08
619.10	3286.99
619.29	3385.29
619.48	3495.88
619.68	3012.56
619.87	3151.82
620.06	3200.98
620.25	3528.65
620.44	3133.39
620.63	3127.25
620.82	3489.74
621.01	3467.21
621.20	3180.50
621.39	3198.93
621.59	3483.59
621.78	3301.33
621.97	3200.98
622.16	3289.04
622.35	3569.61
622.54	3622.86
622.73	3205.07
622.92	2934.74
623.11	3741.64
623.30	3348.43
623.49	3377.10
623.68	3024.85
623.88	3733.45
624.07	3270.61
624.26	3074.00
624.45	3100.62
624.64	3338.19
624.83	3493.83
625.02	3270.61
625.21	3239.89
625.40	3553.23
625.59	3739.59
625.78	3262.41
625.97	3295.18
626.16	3745.73
626.35	3588.04
626.54	3164.11
626.74	3356.62
626.93	3477.45
627.12	3309.52
627.31	3254.22
627.50	3196.88
627.69	3588.04
627.88	3284.94
628.07	3092.43
628.26	3004.37
628.45	3217.36
628.64	3160.02
628.83	3153.87
629.02	3035.09
629.21	3600.33
629.40	3542.99
629.59	3090.38
629.78	3168.21
629.97	3448.78
630.16	3512.27
630.35	3151.82
630.54	3336.14
630.73	3315.66
630.92	3373.00
631.11	3088.34
631.30	3250.13
631.49	3600.33
631.68	3344.33
631.87	3170.26
632.06	3112.91
632.25	3901.38
632.44	3424.20
632.63	3289.04
632.82	3209.17
633.01	3295.18
633.20	3467.21
633.39	3155.92
633.58	2992.08
633.77	3499.98
633.96	3624.90
634.15	3289.04
634.34	3276.75
634.53	3532.75
634.72	3270.61
634.91	3018.71
635.10	3145.68
635.29	3590.09
635.48	3428.30
635.67	3086.29
635.86	3076.05
636.05	3774.41
636.24	3434.44
636.43	3168.21
636.62	3221.45
636.81	2985.94
637.00	3403.72
637.19	3157.97
637.38	3219.41
637.57	3401.68
637.76	3418.06
637.95	3383.24
638.14	3301.33
638.33	3528.65
638.52	3475.40
638.71	3055.57
638.89	3137.49
639.08	4038.59
639.27	3616.71
639.46	3393.48
639.65	3667.91
639.84	3866.56
640.03	4026.31
640.22	3483.59
640.41	3452.88
640.60	3479.50
640.79	3684.30
640.98	3383.24
641.17	3471.31
641.36	3729.35
641.55	3581.90
641.74	2967.51
641.92	3143.63
642.11	3246.03
642.30	3321.81
642.49	3084.24
642.68	3155.92
642.87	3534.79
643.06	3583.95
643.25	3018.71
643.44	3123.15
643.63	3377.10
643.82	3602.38
644.00	3106.77
644.19	3139.54
644.38	3229.65
644.57	3649.48
644.76	3198.93
644.95	3278.80
645.14	3534.79
645.33	3397.58
645.52	3186.64
645.71	3069.91
645.89	3313.61
646.08	3442.64
646.27	3221.45
646.46	3313.61
646.65	3178.45
646.84	3497.93
647.03	3131.34
647.22	3295.18
647.40	3452.88
647.59	3401.68
647.78	2920.40
647.97	3200.98
648.16	3270.61
648.35	3798.98
648.54	3485.64
648.73	3180.50
648.91	3729.35
649.10	3420.11
649.29	3088.34
649.48	3041.23
649.67	3614.66
649.86	3528.65
650.05	3186.64
650.23	3311.57
650.42	3342.28
650.61	3762.12
650.80	3459.02
650.99	3389.39
651.18	3610.57
651.36	3702.73
651.55	3117.01
651.74	3260.37
651.93	3391.44
652.12	3262.41
652.31	3170.26
652.49	3164.11
652.68	3424.20
652.87	3665.86
653.06	3366.86
653.25	3549.13
653.44	3450.83
653.62	3780.55
653.81	3223.50
654.00	3180.50
654.19	3629.00
654.38	4048.83
654.56	3327.95
654.75	3110.86
654.94	3708.87
655.13	3528.65
655.32	3135.44
655.51	3256.27
655.69	3330.00
655.88	3583.95
656.07	2981.84
656.26	3227.60
656.45	3243.98
656.63	3428.30
656.82	3186.64
657.01	3440.59
657.20	3321.81
657.38	3809.22
657.57	3100.62
657.76	3061.71
657.95	3622.86
658.14	3332.05
658.32	3381.20
658.51	3076.05
658.70	3508.17
658.89	3442.64
659.08	3309.52
659.26	3403.72
659.45	3203.02
659.64	3459.02
659.83	3094.48
660.01	3629.00
660.20	3475.40
660.39	3850.18
660.58	2942.93
660.76	3262.41
660.95	3133.39
661.14	3440.59
661.33	3014.61
661.51	3237.84
661.70	3297.23
661.89	3512.27
662.08	3209.17
662.26	2971.60
662.45	3160.02
662.64	3829.70
662.83	3229.65
663.01	3049.43
663.20	3237.84
663.39	3676.10
663.58	3323.85
663.76	3084.24
663.95	3600.33
664.14	3260.37
664.32	3303.37
664.51	3051.47
664.70	3018.71
664.89	3477.45
665.07	3030.99
665.26	3315.66
665.45	3121.10
665.64	3581.90
665.82	3137.49
666.01	3311.57
666.20	3063.76
666.38	3538.89
666.57	3549.13
666.76	5711.78
666.95	12642.11
667.13	18802.40
667.32	22255.28
667.51	24946.31
667.69	25499.26
667.88	21030.59
668.07	15507.22
668.25	13104.95
668.44	11642.70
668.63	10170.21
668.81	8949.62
669.00	7671.69
669.19	7233.43
669.38	6229.92
669.56	5269.42
669.75	4726.71
669.94	4409.28
670.12	3805.13
670.31	3391.44
670.50	3391.44
670.68	3522.51
670.87	3499.98
671.06	3162.06
671.24	3286.99
671.43	3639.24
671.62	3436.49
671.80	3164.11
671.99	3313.61
672.18	3475.40
672.36	3661.77
672.55	3291.09
672.74	3196.88
672.92	3364.81
673.11	3569.61
673.29	3004.37
673.48	3377.10
673.67	3424.20
673.85	3641.29
674.04	3114.96
674.23	3336.14
674.41	3753.93
674.60	3319.76
674.79	3092.43
674.97	3074.00
675.16	3583.95
675.34	3657.67
675.53	3098.58
675.72	3278.80
675.90	3827.65
676.09	3319.76
676.28	3286.99
676.46	3057.62
676.65	3622.86
676.83	3305.42
677.02	3282.89
677.21	3225.55
677.39	3491.79
677.58	3262.41
677.77	3205.07
677.95	3055.57
678.14	3362.76
678.32	3352.52
678.51	3225.55
678.70	3549.13
678.88	3407.82
679.07	3448.78
679.25	3160.02
679.44	3166.16
679.63	3170.26
679.81	3540.94
680.00	3362.76
680.18	3213.26
680.37	3688.39
680.55	3557.32
680.74	3000.27
680.93	2936.79
681.11	3475.40
681.30	3469.26
681.48	3104.72
681.67	3221.45
681.85	3391.44
682.04	3286.99
682.23	3391.44
682.41	3364.81
682.60	3368.91
682.78	3444.68
682.97	3071.95
683.15	3256.27
683.34	3502.03
683.53	3798.98
683.71	3004.37
683.90	3198.93
684.08	3852.23
684.27	3381.20
684.45	3207.12
684.64	3387.34
684.82	3397.58
685.01	3581.90
685.19	3246.03
685.38	3581.90
685.57	3520.46
685.75	3276.75
685.94	3135.44
686.12	3172.30
686.31	3389.39
686.49	3747.78
686.68	2914.26
686.86	3188.69
687.05	3405.77
687.23	3751.88
687.42	3215.31
687.60	3004.37
687.79	3657.67
687.97	3844.04
688.16	3270.61
688.34	3368.91
688.53	3112.91
688.71	3454.92
688.90	3524.55
689.08	3246.03
689.27	3112.91
689.45	3645.38
689.64	3356.62
689.82	3282.89
690.01	3542.99
690.19	3467.21
690.38	3268.56
690.56	3364.81
690.75	3262.41
690.93	3301.33
691.12	3176.40
691.30	3151.82
691.49	3278.80
691.67	3440.59
691.86	3438.54
692.04	3338.19
692.23	3387.34
692.41	3391.44
692.60	3514.31
692.78	3387.34
692.97	3428.30
693.15	3502.03
693.34	3342.28
693.52	3379.15
693.71	3293.13
693.89	3309.52
694.08	3008.47
694.26	3196.88
694.44	3633.10
694.63	3532.75
694.81	3153.87
695.00	3198.93
695.18	3665.86
695.37	4001.73
695.55	3373.00
695.74	3231.69
695.92	3311.57
696.10	3641.29
696.29	3078.10
696.47	3217.36
696.66	3198.93
696.84	3231.69
697.03	3284.94
697.21	3526.60
697.40	4806.58
697.58	3704.78
697.76	3231.69
697.95	3266.51
698.13	3127.25
698.32	3368.91
698.50	3207.12
698.68	3133.39
698.87	3536.84
699.05	3794.89
699.24	3196.88
699.42	3221.45
699.61	3422.16
699.79	3524.55
699.97	3276.75
700.16	3065.81
700.34	3221.45
700.53	3393.48
700.71	3418.06
700.89	3350.48
701.08	3422.16
701.26	3391.44
701.45	3526.60
701.63	3276.75
701.81	3375.05
702.00	3270.61
702.18	3274.70
702.37	3149.78
702.55	3676.10
702.73	3416.01
702.92	3170.26
703.10	3545.03
703.28	3684.30
703.47	3194.83
703.65	3440.59
703.84	3237.84
704.02	3342.28
704.20	3825.61
704.39	3112.91
704.57	3196.88
704.75	3592.14
704.94	3567.56
705.12	3348.43
705.30	3962.82
705.49	7995.27
705.67	14464.80
705.86	19158.75
706.04	21468.86
706.22	23922.32
706.41	22206.13
706.59	16688.90
706.77	13444.91
706.96	11708.24
707.14	10903.39
707.32	9385.84
707.51	8130.44
707.69	6875.03
707.87	5822.38
708.06	4853.69
708.24	4167.62
708.42	4022.21
708.61	4280.25
708.79	3299.28
708.97	3309.52
709.16	3590.09
709.34	3420.11
709.52	3147.73
709.71	3233.74
709.89	3504.07
710.07	3319.76
710.26	3172.30
710.44	3295.18
710.62	3645.38
710.80	3467.21
710.99	3321.81
711.17	3225.55
711.35	3254.22
711.54	3200.98
711.72	3319.76
711.90	3246.03
712.09	3559.37
712.27	3336.14
712.45	3340.24
712.63	3188.69
712.82	3422.16
713.00	3442.64
713.18	3375.05
713.37	3448.78
713.55	3547.08
713.73	3526.60
713.91	3297.23
714.10	3205.07
714.28	3317.71
714.46	3477.45
714.65	3340.24
714.83	3282.89
715.01	3475.40
715.19	3510.22
715.38	3164.11
715.56	3430.35
715.74	3262.41
715.92	3258.32
716.11	3557.32
716.29	2926.55
716.47	3442.64
716.65	3377.10
716.84	3020.75
717.02	3246.03
717.20	3117.01
717.38	3264.46
717.57	3241.93
717.75	3334.09
717.93	3352.52
718.11	3549.13
718.30	3090.38
718.48	3258.32
718.66	3663.82
718.84	3706.82
719.03	3307.47
719.21	3082.19
719.39	3885.00
719.57	3545.03
719.75	3323.85
719.94	3205.07
720.12	3368.91
720.30	3379.15
720.48	3307.47
720.67	3182.54
720.85	3182.54
721.03	3395.53
721.21	3233.74
721.39	3286.99
721.58	3618.76
721.76	3426.25
721.94	3252.17
722.12	3317.71
722.30	3725.26
722.49	3327.95
722.67	3264.46
722.85	3198.93
723.03	3078.10
723.21	3295.18
723.40	3268.56
723.58	3311.57
723.76	3575.75
723.94	3655.62
724.12	3272.65
724.30	3387.34
724.49	3674.06
724.67	3256.27
724.85	3243.98
725.03	3078.10
725.21	3585.99
725.40	3614.66
725.58	3182.54
725.76	3395.53
725.94	3581.90
726.12	3309.52
726.30	3221.45
726.49	3117.01
726.67	3411.92
726.85	3581.90
727.03	3866.56
727.21	4921.27
727.39	6041.51
727.57	6365.09
727.76	6860.70
727.94	6723.48
728.12	5916.58
728.30	4982.71
728.48	4798.39
728.66	4425.66
728.84	4353.98
729.03	4057.03
729.21	3678.15
729.39	3461.07
729.57	3502.03
729.75	3495.88
729.93	3538.89
730.11	3133.39
730.30	3315.66
730.48	3385.29
730.66	3241.93
730.84	3340.24
731.02	3524.55
731.20	3373.00
731.38	3286.99
731.56	3110.86
731.74	3227.60
731.93	3520.46
732.11	3321.81
732.29	3174.35
732.47	3659.72
732.65	3551.18
732.83	3405.77
733.01	3303.37
733.19	3307.47
733.37	3489.74
733.56	3213.26
733.74	3121.10
733.92	3866.56
734.10	3397.58
734.28	3397.58
734.46	2981.84
734.64	3385.29
734.82	3352.52
735.00	3190.74
735.18	3180.50
735.36	3442.64
735.54	3313.61
735.73	3250.13
735.91	3368.91
736.09	3784.65
736.27	3502.03
736.45	3278.80
736.63	2951.12
736.81	3360.72
736.99	3610.57
737.17	3350.48
737.35	3139.54
737.53	3506.12
737.71	3399.63
737.89	3418.06
738.07	3133.39
738.25	3262.41
738.43	3067.86
738.61	3313.61
738.80	3114.96
738.98	3231.69
739.16	3313.61
739.34	3129.30
739.52	3499.98
739.70	3434.44
739.88	3518.41
740.06	3336.14
740.24	2944.98
740.42	3594.19
740.60	3145.68
740.78	3223.50
740.96	2920.40
741.14	3393.48
741.32	3456.97
741.50	2998.23
741.68	3528.65
741.86	3739.59
742.04	3239.89
742.22	3078.10
742.40	3135.44
742.58	3594.19
742.76	3274.70
742.94	3475.40
743.12	3024.85
743.30	3413.96
743.48	3592.14
743.66	3168.21
743.84	3182.54
744.02	3377.10
744.20	3454.92
744.38	3141.58
744.56	3172.30
744.74	3823.56
744.92	3606.47
745.10	3448.78
745.28	3219.41
745.46	3798.98
745.64	3409.87
745.82	3266.51
746.00	3188.69
746.18	3487.69
746.36	3344.33
746.54	3233.74
746.72	3246.03
746.90	3252.17
747.08	3743.69
747.26	3205.07
747.44	3379.15
747.62	3563.47
747.80	3516.36
747.98	3262.41
748.15	3200.98
748.33	3807.17
748.51	3467.21
748.69	3268.56
748.87	3071.95
749.05	3397.58
749.23	3465.16
749.41	3178.45
749.59	3200.98
749.77	3631.05
749.95	3413.96
750.13	3127.25
750.31	3393.48
750.49	3469.26
750.67	3649.48
750.85	3381.20
751.03	3188.69
751.20	3844.04
751.38	3504.07
751.56	3305.42
751.74	3270.61
751.92	3405.77
752.10	3198.93
752.28	3424.20
752.46	3092.43
752.64	3354.57
752.82	3434.44
753.00	3291.09
753.18	3114.96
753.35	3354.57
753.53	3358.67
753.71	3162.06
753.89	3219.41
754.07	3481.55
754.25	3725.26
754.43	3311.57
754.61	3133.39
754.79	3592.14
754.97	3297.23
755.14	3358.67
755.32	3082.19
755.50	3448.78
755.68	3502.03
755.86	3162.06
756.04	3164.11
756.22	3045.33
756.40	3567.56
756.57	3387.34
756.75	3180.50
756.93	3712.97
757.11	3770.31
757.29	3100.62
757.47	3127.25
757.65	3143.63
757.82	2942.93
758.00	3098.58
758.18	3200.98
758.36	3274.70
758.54	3911.62
758.72	3039.19
758.90	3395.53
759.07	3575.75
759.25	3264.46
759.43	3217.36
759.61	3137.49
759.79	4542.39
759.97	3682.25
760.15	3213.26
760.32	3149.78
760.50	3536.84
760.68	3794.89
760.86	3129.30
761.04	3409.87
761.22	3555.27
761.39	3510.22
761.57	3356.62
761.75	3225.55
761.93	3622.86
762.11	3352.52
762.28	3311.57
762.46	3145.68
762.64	3704.78
762.82	3123.15
763.00	3190.74
763.18	3424.20
763.35	3178.45
763.53	3569.61
763.71	3254.22
763.89	3135.44
764.07	3573.71
764.24	3461.07
764.42	3299.28
764.60	3219.41
764.78	3475.40
764.96	3559.37
765.13	3446.73
765.31	3092.43
765.49	3569.61
765.67	3213.26
765.84	3157.97
766.02	3147.73
766.20	3112.91
766.38	3530.70
766.56	3246.03
766.73	3336.14
766.91	3420.11
767.09	3463.12
767.27	3237.84
767.44	3047.38
767.62	3551.18
767.80	3540.94
767.98	3092.43
768.15	3217.36
768.33	3620.81
768.51	3686.34
768.69	3346.38
768.87	3188.69
769.04	3450.83
769.22	4003.78
769.40	3346.38
769.58	3305.42
769.75	3567.56
769.93	3715.02
770.11	3246.03
770.28	3086.29
770.46	3663.82
770.64	3516.36
770.82	3246.03
770.99	3030.99
771.17	3665.86
771.35	3352.52
771.53	3270.61
771.70	3168.21
771.88	3540.94
772.06	3499.98
772.23	3155.92
772.41	3254.22
772.59	3352.52
772.77	3248.08
772.94	3217.36
773.12	3258.32
773.30	3346.38
773.47	3452.88
773.65	3139.54
773.83	3387.34
774.01	3413.96
774.18	3094.48
774.36	3155.92
774.54	3051.47
774.71	3506.12
774.89	3094.48
775.07	3041.23
775.24	3196.88
775.42	3315.66
775.60	3893.19
775.78	3170.26
775.95	2983.89
776.13	3123.15
776.31	3108.82
776.48	3348.43
776.66	3485.64
776.84	3387.34
777.01	3241.93
777.19	3055.57
777.37	3188.69
777.54	3606.47
777.72	3860.42
777.90	3278.80
778.07	3166.16
778.25	4175.81
778.43	3719.11
778.60	3215.31
778.78	3295.18
778.96	3725.26
779.13	3135.44
779.31	3217.36
779.49	3225.55
779.66	3442.64
779.84	3291.09
780.01	3127.25
780.19	3125.20
780.37	3764.17
780.54	3559.37
780.72	3010.51
780.90	3141.58
781.07	3373.00
781.25	3313.61
781.43	3377.10
781.60	3192.78
781.78	3706.82
781.95	3524.55
782.13	3190.74
782.31	3141.58
782.48	3035.09
782.66	3418.06
782.83	3459.02
783.01	3295.18
783.19	3614.66
783.36	3336.14
783.54	3125.20
783.72	3297.23
783.89	3301.33
784.07	3471.31
784.24	3383.24
784.42	3323.85
784.60	3463.12
784.77	3520.46
784.95	2985.94
785.12	3153.87
785.30	3518.41
785.47	3272.65
785.65	3043.28
785.83	3327.95
786.00	3373.00
786.18	3348.43
786.35	3123.15
786.53	3170.26
786.71	3686.34
786.88	3522.51
787.06	3289.04
787.23	3305.42
787.41	3147.73
787.58	3407.82
787.76	3067.86
787.94	3182.54
788.11	3549.13
788.29	3233.74
788.46	3219.41
788.64	3078.10
788.81	3338.19
788.99	3246.03
789.16	3117.01
789.34	3160.02
789.52	3360.72
789.69	3338.19
789.87	2895.83
790.04	3112.91
790.22	3450.83
790.39	3854.28
790.57	3143.63
790.74	3117.01
790.92	3581.90
791.09	3096.53
791.27	3270.61
791.44	3297.23
791.62	3411.92
791.79	3643.34
791.97	3268.56
792.15	3520.46
792.32	3549.13
792.50	3590.09
792.67	3420.11
792.85	3434.44
793.02	3426.25
793.20	3297.23
793.37	3112.91
793.55	3084.24
793.72	3127.25
793.90	3581.90
794.07	3094.48
794.25	3166.16
794.42	3471.31
794.60	3327.95
794.77	3170.26
794.95	3364.81
795.12	3643.34
795.30	3311.57
795.47	3012.56
795.65	3604.42
795.82	3516.36
796.00	3327.95
796.17	3276.75
796.34	3155.92
796.52	3495.88
796.69	3735.50
796.87	3295.18
797.04	3336.14
797.22	3659.72
797.39	3512.27
797.57	3327.95
797.74	3309.52
797.92	3459.02
798.09	3280.85
798.27	3487.69
798.44	3155.92
798.62	3278.80
798.79	3432.40
798.96	3286.99
799.14	3209.17
799.31	4081.60
799.49	3362.76
799.66	3164.11
799.84	3205.07
800.01	3172.30
800.19	3481.55
800.36	2953.17
800.53	3270.61
800.71	3596.23
800.88	3846.09
801.06	3215.31
801.23	3176.40
801.41	3348.43
801.58	3268.56
801.75	3207.12
801.93	3176.40
802.10	3594.19
802.28	3411.92
802.45	3289.04
802.63	3272.65
802.80	3786.69
802.97	3327.95
803.15	3153.87
803.32	3194.83
803.50	3268.56
803.67	3231.69
803.84	3184.59
804.02	3274.70
804.19	3452.88
804.37	2953.17
804.54	3010.51
804.71	3198.93
804.89	3377.10
805.06	3237.84
805.24	3143.63
805.41	2953.17
805.58	3264.46
805.76	3950.53
805.93	3141.58
806.10	3303.37
806.28	3565.51
806.45	3440.59
806.63	3397.58
806.80	3246.03
806.97	3522.51
807.15	3483.59
807.32	3348.43
807.49	3192.78
807.67	3178.45
807.84	3502.03
808.01	3039.19
808.19	3297.23
808.36	3895.24
808.54	3334.09
808.71	3145.68
808.88	3147.73
809.06	3676.10
809.23	3723.21
809.40	3186.64
809.58	3121.10
809.75	3356.62
809.92	3198.93
810.10	3446.73
810.27	3137.49
810.44	3567.56
810.62	3475.40
810.79	3282.89
810.96	3188.69
811.14	3348.43
811.31	3534.79
811.48	3346.38
811.66	3229.65
811.83	3583.95
812.00	3620.81
812.18	3327.95
812.35	3493.83
812.52	3325.90
812.69	3327.95
812.87	3063.76
813.04	3110.86
813.21	3520.46
813.39	3295.18
813.56	3106.77
813.73	3442.64
813.91	3127.25
814.08	3409.87
814.25	3168.21
814.42	3092.43
814.60	3373.00
814.77	3499.98
814.94	3153.87
815.12	3303.37
815.29	3772.36
815.46	3276.75
815.63	3213.26
815.81	3170.26
815.98	3375.05
816.15	3360.72
816.33	3301.33
816.50	3291.09
816.67	3434.44
816.84	3379.15
817.02	3180.50
817.19	3164.11
817.36	3540.94
817.53	3594.19
817.71	3028.95
817.88	3198.93
818.05	3364.81
818.22	3377.10
818.40	3395.53
818.57	3160.02
818.74	3475.40
818.91	3336.14
819.09	3459.02
819.26	3286.99
819.43	3321.81
819.60	3221.45
819.78	3444.68
819.95	3297.23
820.12	3198.93
820.29	3712.97
820.47	3473.36
820.64	3092.43
820.81	3108.82
820.98	3246.03
821.15	3233.74
821.33	3327.95
821.50	3127.25
821.67	3540.94
821.84	3151.82
822.02	3205.07
822.19	3581.90
822.36	3313.61
822.53	3106.77
822.70	3067.86
822.88	3409.87
823.05	3672.01
823.22	3250.13
823.39	3186.64
823.56	3526.60
823.74	3975.11
823.91	3084.24
824.08	3153.87
824.25	3270.61
824.42	3829.70
824.60	3065.81
824.77	3368.91
824.94	3284.94
825.11	3516.36
825.28	3084.24
825.45	3370.96
825.63	3454.92
825.80	3289.04
825.97	3307.47
826.14	3237.84
826.31	3145.68
826.48	3567.56
826.66	3178.45
826.83	3145.68
827.00	3373.00
827.17	3233.74
827.34	3241.93
827.51	3213.26
827.69	3465.16
827.86	3061.71
828.03	3209.17
828.20	3289.04
828.37	3303.37
828.54	3557.32
828.71	3104.72
828.89	3311.57
829.06	3499.98
829.23	3700.68
829.40	3160.02
829.57	3172.30
829.74	3553.23
829.91	3323.85
830.09	3110.86
830.26	3336.14
830.43	3749.83
830.60	3424.20
830.77	3368.91
830.94	3383.24
831.11	3575.75
831.28	3344.33
831.46	3278.80
831.63	3102.67
831.80	3686.34
831.97	3262.41
832.14	3262.41
832.31	3231.69
832.48	3456.97
832.65	3594.19
832.82	3319.76
832.99	3207.12
833.17	3248.08
833.34	3733.45
833.51	3094.48
833.68	3014.61
833.85	3663.82
834.02	3246.03
834.19	3164.11
834.36	3141.58
834.53	3483.59
834.70	3692.49
834.87	3168.21
835.04	2953.17
835.22	3342.28
835.39	3442.64
835.56	2985.94
835.73	3059.67
835.90	3735.50
836.07	3229.65
836.24	3198.93
836.41	3035.09
836.58	3323.85
836.75	3661.77
836.92	3039.19
837.09	2926.55
837.26	3651.53
837.43	3483.59
837.60	3121.10
837.77	3030.99
837.94	3643.34
838.12	3641.29
838.29	2975.70
838.46	2895.83
838.63	3198.93
838.80	3749.83
838.97	3145.68
839.14	2942.93
839.31	3448.78
839.48	3567.56
839.65	3057.62
839.82	3176.40
839.99	3456.97
840.16	3405.77
840.33	2992.08
840.50	3114.96
840.67	3303.37
840.84	2858.96
841.01	2959.31
841.18	2977.75
841.35	3360.72
841.52	3592.14
841.69	3450.83
841.86	3043.28
842.03	3364.81
842.20	3674.06
842.37	2947.03
842.54	3059.67
842.71	3332.05
842.88	3047.38
843.05	3020.75
843.22	3123.15
843.39	3659.72
843.56	3237.84
843.73	2961.36
843.90	3065.81
844.07	3465.16
844.24	3622.86
844.41	3098.58
844.58	3016.66
844.75	3389.39
844.92	3510.22
845.09	3043.28
845.26	3024.85
845.43	3592.14
845.60	3428.30
845.77	3135.44
845.94	3172.30
846.10	3573.71
846.27	3131.34
846.44	2834.39
846.61	2906.07
846.78	3493.83
846.95	3715.02
847.12	3022.80
847.29	3055.57
847.46	3217.36
847.63	3610.57
847.80	2951.12
847.97	2994.13
848.14	3981.25
848.31	3377.10
848.48	2848.72
848.65	2994.13
848.82	3307.47
848.98	4089.79
849.15	3119.06
849.32	3127.25
849.49	3534.79
849.66	3381.20
849.83	2967.51
850.00	3057.62
850.17	3540.94
850.34	3317.71
850.51	2961.36
850.68	3002.32
850.85	3895.24
851.01	3520.46
851.18	2985.94
851.35	2994.13
851.52	3598.28
851.69	3686.34
851.86	2914.26
852.03	2926.55
852.20	3624.90
852.37	3364.81
852.53	2942.93
852.70	3004.37
852.87	3436.49
853.04	3665.86
853.21	3016.66
853.38	3299.28
853.55	3739.59
853.72	3653.58
853.89	2828.24
854.05	2992.08
854.22	3436.49
854.39	3319.76
854.56	2975.70
854.73	3145.68
854.90	3200.98
855.07	3303.37
855.23	3006.42
855.40	2901.97
855.57	3309.52
855.74	3010.51
855.91	3198.93
856.08	2830.29
856.25	3076.05
856.41	3295.18
856.58	3033.04
856.75	3022.80
856.92	3223.50
857.09	3624.90
857.26	2811.86
857.42	2996.18
857.59	3659.72
857.76	3407.82
857.93	3022.80
858.10	3155.92
858.27	3198.93
858.43	3483.59
858.60	3043.28
858.77	2893.78
858.94	3221.45
859.11	3614.66
859.27	3174.35
859.44	2942.93
859.61	3850.18
859.78	3575.75
859.95	3037.14
860.12	2990.03
860.28	3946.44
860.45	3833.80
860.62	2936.79
860.79	3110.86
860.95	3348.43
861.12	3164.11
861.29	2867.16
861.46	2942.93
861.63	3387.34
861.79	3409.87
861.96	2881.49
862.13	3055.57
862.30	3702.73
862.47	3280.85
862.63	2928.60
862.80	3074.00
862.97	3667.91
863.14	3557.32
863.30	2932.69
863.47	2996.18
863.64	3819.46
863.81	3459.02
863.97	2918.36
864.14	3033.04
864.31	3428.30
864.48	3368.91
864.65	2963.41
864.81	3033.04
864.98	3590.09
865.15	3690.44
865.32	3059.67
865.48	3121.10
865.65	3807.17
865.82	3327.95
865.98	3139.54
866.15	3078.10
866.32	3348.43
866.49	3319.76
866.65	3192.78
866.82	3155.92
866.99	3387.34
867.16	3303.37
867.32	3024.85
867.49	2926.55
867.66	3346.38
867.83	3315.66
867.99	2957.27
868.16	3012.56
868.33	3225.55
868.49	3332.05
868.66	2959.31
868.83	3065.81
868.99	3491.79
869.16	3495.88
869.33	3200.98
869.50	3123.15
869.66	3422.16
869.83	3381.20
870.00	2987.99
870.16	3141.58
870.33	3395.53
870.50	3606.47
870.66	3147.73
870.83	2977.75
871.00	3340.24
871.17	3436.49
871.33	3033.04
871.50	2951.12
871.67	3395.53
871.83	3143.63
872.00	3104.72
872.17	3076.05
872.33	3874.76
872.50	3712.97
872.67	3008.47
872.83	3002.32
873.00	3483.59
873.17	3430.35
873.33	3102.67
873.50	3090.38
873.67	3217.36
873.83	3272.65
874.00	3053.52
874.16	3164.11
874.33	3428.30
874.50	3162.06
874.66	3002.32
874.83	3123.15
875.00	3614.66
875.16	3698.63
875.33	3188.69
875.50	2779.09
875.66	3268.56
875.83	3491.79
875.99	3061.71
876.16	3205.07
876.33	3207.12
876.49	3370.96
876.66	3033.04
876.83	3084.24
876.99	3131.34
877.16	3401.68
877.32	3004.37
877.49	3139.54
877.66	3499.98
877.82	3715.02
877.99	3135.44
878.15	3313.61
878.32	3563.47
878.49	3477.45
878.65	3155.92
878.82	3354.57
878.98	3311.57
879.15	3600.33
879.32	3229.65
879.48	3217.36
879.65	3387.34
879.81	3418.06
879.98	3035.09
880.15	3164.11
880.31	3608.52
880.48	3280.85
880.64	3155.92
880.81	3108.82
880.97	3815.37
881.14	3624.90
881.31	3000.27
881.47	3221.45
881.64	3377.10
881.80	3114.96
881.97	3272.65
882.13	2940.88
882.30	3213.26
882.47	3313.61
882.63	3026.90
882.80	3053.52
882.96	3330.00
883.13	3698.63
883.29	2996.18
883.46	3006.42
883.62	3903.43
883.79	3438.54
883.95	3123.15
884.12	2994.13
884.29	3729.35
884.45	3327.95
884.62	3018.71
884.78	2990.03
884.95	3878.85
885.11	3278.80
885.28	3168.21
885.44	3094.48
885.61	3547.08
885.77	3712.97
885.94	3127.25
886.10	3061.71
886.27	3413.96
886.43	3819.46
886.60	3262.41
886.76	3026.90
886.93	3243.98
887.09	3450.83
887.26	2867.16
887.42	3135.44
887.59	3600.33
887.75	3897.28
887.92	3241.93
888.08	3149.78
888.25	3866.56
888.41	3678.15
888.58	3074.00
888.74	2934.74
888.91	3297.23
>>>>>End Processed Spectral Data<<<<<
