SpectraSuite Data File
++++++++++++++++++++++++++++++++++++
Date: Fri May 06 09:28:25 CEST 2016
User: root
Dark Spectrum Present: No
Reference Spectrum Present: No
Number of Sampled Component Spectra: 1
Spectrometers: USB4C02835
Integration Time (usec): 100000 (USB4C02835)
Spectra Averaged: 1 (USB4C02835)
Boxcar Smoothing: 0 (USB4C02835)
Correct for Electrical Dark: No (USB4C02835)
Strobe/Lamp Enabled: No (USB4C02835)
Correct for Detector Non-linearity: No (USB4C02835)
Correct for Stray Light: No (USB4C02835)
Number of Pixels in Processed Spectrum: 3648
>>>>>Begin Processed Spectral Data<<<<<
177.47	2303.96
177.69	2303.96
177.91	2303.96
178.13	2297.82
178.36	2340.83
178.58	3119.06
178.80	3307.47
179.02	3102.67
179.24	3237.84
179.46	2856.92
179.68	2975.70
179.90	3428.30
180.13	3424.20
180.35	2725.85
180.57	2854.87
180.79	3551.18
181.01	3385.29
181.23	2949.08
181.45	3106.77
181.67	3633.10
181.90	3622.86
182.12	3014.61
182.34	2871.25
182.56	3581.90
182.78	3581.90
183.00	2877.40
183.22	2977.75
183.44	3043.28
183.66	4085.70
183.89	3114.96
184.11	3008.47
184.33	3647.43
184.55	3708.87
184.77	2938.84
184.99	2965.46
185.21	3377.10
185.43	4032.45
185.65	2877.40
185.87	2955.22
186.10	4038.59
186.32	3934.15
186.54	3065.81
186.76	2949.08
186.98	3612.62
187.20	3381.20
187.42	3033.04
187.64	2951.12
187.86	3610.57
188.08	3616.71
188.30	2875.35
188.52	2996.18
188.75	3702.73
188.97	3753.93
189.19	2934.74
189.41	2930.64
189.63	3553.23
189.85	3395.53
190.07	2877.40
190.29	2785.24
190.51	3553.23
190.73	3157.97
190.95	3196.88
191.17	2942.93
191.39	3049.43
191.61	3340.24
191.84	2938.84
192.06	3117.01
192.28	3139.54
192.50	4118.47
192.72	3094.48
192.94	3100.62
193.16	3686.34
193.38	3438.54
193.60	2912.21
193.82	3155.92
194.04	3651.53
194.26	3579.85
194.48	2951.12
194.70	2992.08
194.92	3352.52
195.14	3647.43
195.36	2914.26
195.58	3088.34
195.80	3434.44
196.02	3340.24
196.24	2916.31
196.46	2985.94
196.69	3295.18
196.91	3993.54
197.13	2910.16
197.35	2985.94
197.57	3786.69
197.79	3557.32
198.01	3006.42
198.23	3049.43
198.45	3489.74
198.67	3217.36
198.89	2805.72
199.11	3112.91
199.33	3319.76
199.55	3035.09
199.77	2949.08
199.99	3188.69
200.21	3409.87
200.43	3481.55
200.65	2885.59
200.87	2797.53
201.09	3526.60
201.31	3323.85
201.53	2953.17
201.75	3057.62
201.97	3473.36
202.19	3370.96
202.41	3030.99
202.63	3074.00
202.85	3665.86
203.07	3538.89
203.29	3090.38
203.51	2840.53
203.73	3303.37
203.95	4005.83
204.17	2901.97
204.39	3135.44
204.61	3426.25
204.83	3379.15
205.05	3059.67
205.27	3006.42
205.49	3917.76
205.71	3461.07
205.93	2668.50
206.15	2869.20
206.37	3481.55
206.59	3454.92
206.81	2793.43
207.03	2836.44
207.25	3303.37
207.47	3610.57
207.69	3004.37
207.91	3170.26
208.13	3803.08
208.34	3289.04
208.56	2850.77
208.78	2955.22
209.00	3307.47
209.22	3373.00
209.44	2979.79
209.66	2920.40
209.88	3557.32
210.10	3387.34
210.32	2936.79
210.54	3016.66
210.76	3348.43
210.98	3731.40
211.20	2803.67
211.42	3045.33
211.64	3745.73
211.86	3598.28
212.08	3035.09
212.30	2967.51
212.52	3387.34
212.74	3534.79
212.96	3084.24
213.17	3051.47
213.39	3706.82
213.61	3835.85
213.83	2910.16
214.05	2791.38
214.27	3672.01
214.49	3276.75
214.71	2957.27
214.93	2990.03
215.15	3465.16
215.37	3567.56
215.59	2848.72
215.81	3057.62
216.03	3739.59
216.24	3420.11
216.46	2992.08
216.68	3069.91
216.90	3614.66
217.12	3680.20
217.34	2887.64
217.56	3100.62
217.78	3844.04
218.00	3704.78
218.22	3018.71
218.44	3045.33
218.66	3532.75
218.87	3870.66
219.09	2985.94
219.31	2942.93
219.53	3602.38
219.75	3352.52
219.97	3008.47
220.19	3008.47
220.41	3493.83
220.63	3778.50
220.85	3057.62
221.06	2918.36
221.28	3790.79
221.50	3575.75
221.72	2854.87
221.94	2885.59
222.16	3534.79
222.38	3559.37
222.60	2918.36
222.82	2998.23
223.03	3672.01
223.25	3200.98
223.47	2951.12
223.69	3172.30
223.91	3612.62
224.13	3422.16
224.35	2805.72
224.57	3088.34
224.78	3581.90
225.00	3215.31
225.22	3100.62
225.44	2846.68
225.66	3598.28
225.88	3352.52
226.10	3172.30
226.32	2904.02
226.53	3846.09
226.75	3313.61
226.97	3016.66
227.19	2992.08
227.41	3258.32
227.63	3338.19
227.85	2803.67
228.06	3016.66
228.28	3561.42
228.50	3665.86
228.72	2836.44
228.94	2949.08
229.16	3088.34
229.37	3188.69
229.59	2865.11
229.81	3246.03
230.03	3360.72
230.25	3168.21
230.47	2787.29
230.69	2922.45
230.90	3614.66
231.12	3254.22
231.34	3088.34
231.56	2996.18
231.78	3170.26
232.00	3479.50
232.21	3106.77
232.43	3028.95
232.65	3010.51
232.87	3495.88
233.09	2836.44
233.30	2879.44
233.52	3733.45
233.74	3434.44
233.96	2996.18
234.18	3104.72
234.40	3399.63
234.61	3975.11
234.83	2824.15
235.05	2951.12
235.27	3983.30
235.49	3653.58
235.70	2854.87
235.92	2965.46
236.14	3581.90
236.36	4048.83
236.58	2885.59
236.79	2987.99
237.01	3436.49
237.23	3467.21
237.45	3297.23
237.67	2963.41
237.88	3569.61
238.10	3825.61
238.32	2879.44
238.54	2936.79
238.76	3459.02
238.97	3254.22
239.19	2885.59
239.41	3020.75
239.63	3712.97
239.85	3411.92
240.06	2916.31
240.28	2961.36
240.50	3626.95
240.72	3479.50
240.93	2838.48
241.15	3059.67
241.37	3403.72
241.59	3850.18
241.81	2873.30
242.02	2994.13
242.24	3514.31
242.46	3551.18
242.68	2787.29
242.89	2865.11
243.11	3721.16
243.33	3456.97
243.55	2871.25
243.76	2838.48
243.98	3284.94
244.20	3370.96
244.42	2969.55
244.64	2926.55
244.85	3106.77
245.07	3311.57
245.29	2947.03
245.51	3045.33
245.72	3631.05
245.94	3704.78
246.16	2959.31
246.38	3000.27
246.59	3368.91
246.81	3209.17
247.03	2910.16
247.24	2924.50
247.46	3368.91
247.68	3551.18
247.90	2863.06
248.11	2992.08
248.33	3690.44
248.55	3473.36
248.77	2912.21
248.98	3131.34
249.20	3796.93
249.42	3495.88
249.64	2867.16
249.85	2887.64
250.07	3373.00
250.29	3663.82
250.50	3035.09
250.72	2901.97
250.94	3602.38
251.16	3903.43
251.37	2891.73
251.59	3012.56
251.81	3596.23
252.02	3776.45
252.24	2834.39
252.46	3098.58
252.68	3332.05
252.89	3278.80
253.11	2877.40
253.33	3117.01
253.54	3860.42
253.76	3192.78
253.98	2920.40
254.20	2955.22
254.41	3155.92
254.63	3463.12
254.85	2799.57
255.06	3069.91
255.28	3540.94
255.50	3332.05
255.71	2938.84
255.93	2779.09
256.15	3373.00
256.36	3573.71
256.58	2820.05
256.80	2904.02
257.02	3428.30
257.23	3350.48
257.45	2985.94
257.67	3074.00
257.88	3325.90
258.10	3569.61
258.32	2885.59
258.53	3000.27
258.75	3887.04
258.97	3268.56
259.18	2828.24
259.40	2893.78
259.62	3846.09
259.83	3852.23
260.05	2973.65
260.27	4024.26
260.48	3669.96
260.70	3098.58
260.92	2877.40
261.13	3000.27
261.35	3471.31
261.57	3493.83
261.78	2830.29
262.00	2887.64
262.22	3696.58
262.43	3315.66
262.65	2959.31
262.86	2934.74
263.08	3950.53
263.30	3502.03
263.51	2836.44
263.73	2910.16
263.95	3827.65
264.16	3282.89
264.38	2803.67
264.60	2832.34
264.81	3493.83
265.03	3680.20
265.25	3459.02
265.46	2949.08
265.68	3657.67
265.89	3635.14
266.11	2854.87
266.33	2875.35
266.54	3737.54
266.76	3563.47
266.98	3037.14
267.19	3119.06
267.41	3669.96
267.62	3364.81
267.84	2795.48
268.06	3096.53
268.27	3536.84
268.49	3667.91
268.70	2983.89
268.92	3002.32
269.14	3246.03
269.35	3133.39
269.57	3170.26
269.79	3037.14
270.00	3330.00
270.22	3762.12
270.43	2844.63
270.65	2875.35
270.87	3485.64
271.08	3665.86
271.30	3059.67
271.51	2992.08
271.73	3555.27
271.95	3815.37
272.16	2848.72
272.38	3139.54
272.59	3452.88
272.81	3542.99
273.02	2844.63
273.24	3024.85
273.46	3725.26
273.67	3133.39
273.89	2787.29
274.10	2912.21
274.32	3729.35
274.54	3565.51
274.75	3067.86
274.97	3166.16
275.18	3618.76
275.40	3557.32
275.61	2969.55
275.83	3053.52
276.05	3233.74
276.26	3391.44
276.48	3084.24
276.69	3143.63
276.91	3336.14
277.12	3774.41
277.34	3172.30
277.55	3176.40
277.77	3489.74
277.99	3370.96
278.20	3182.54
278.42	2965.46
278.63	3272.65
278.85	3198.93
279.06	3104.72
279.28	3151.82
279.49	3698.63
279.71	3624.90
279.93	3119.06
280.14	3205.07
280.36	3313.61
280.57	3743.69
280.79	3108.82
281.00	3026.90
281.22	3409.87
281.43	3739.59
281.65	2844.63
281.86	3014.61
282.08	3540.94
282.29	3770.31
282.51	2981.84
282.73	2983.89
282.94	3143.63
283.16	3626.95
283.37	3217.36
283.59	3164.11
283.80	3532.75
284.02	3409.87
284.23	3155.92
284.45	3086.29
284.66	3282.89
284.88	3393.48
285.09	3045.33
285.31	3246.03
285.52	3495.88
285.74	3139.54
285.95	3311.57
286.17	3108.82
286.38	3676.10
286.60	3385.29
286.81	3100.62
287.03	3112.91
287.24	3362.76
287.46	3592.14
287.67	3213.26
287.89	3344.33
288.10	3405.77
288.32	3426.25
288.53	3264.46
288.75	3233.74
288.96	3594.19
289.18	3258.32
289.39	2932.69
289.61	3162.06
289.82	3932.10
290.04	3958.72
290.25	3000.27
290.47	3164.11
290.68	3446.73
290.90	3682.25
291.11	2916.31
291.33	3286.99
291.54	3262.41
291.76	3389.39
291.97	3205.07
292.18	3184.59
292.40	3319.76
292.61	3274.70
292.83	3397.58
293.04	3145.68
293.26	3481.55
293.47	3346.38
293.69	3108.82
293.90	2983.89
294.12	3745.73
294.33	3340.24
294.55	3155.92
294.76	3293.13
294.97	3721.16
295.19	3815.37
295.40	3098.58
295.62	3127.25
295.83	3612.62
296.05	3266.51
296.26	3360.72
296.48	3110.86
296.69	3407.82
296.90	3426.25
297.12	3282.89
297.33	3385.29
297.55	3467.21
297.76	3581.90
297.98	3182.54
298.19	3319.76
298.41	3375.05
298.62	3248.08
298.83	3295.18
299.05	3215.31
299.26	3385.29
299.48	3272.65
299.69	3217.36
299.90	3047.38
300.12	3305.42
300.33	3585.99
300.55	3155.92
300.76	3164.11
300.98	3205.07
301.19	3608.52
301.40	3067.86
301.62	3039.19
301.83	3465.16
302.05	3405.77
302.26	2994.13
302.47	3160.02
302.69	3172.30
302.90	3436.49
303.12	2934.74
303.33	3231.69
303.54	3790.79
303.76	3315.66
303.97	3063.76
304.19	3352.52
304.40	3344.33
304.61	3563.47
304.83	3233.74
305.04	3196.88
305.26	3542.99
305.47	3309.52
305.68	3080.14
305.90	2998.23
306.11	3690.44
306.33	3428.30
306.54	2922.45
306.75	3104.72
306.97	3205.07
307.18	3223.50
307.39	3092.43
307.61	3153.87
307.82	3416.01
308.04	3565.51
308.25	2971.60
308.46	3268.56
308.68	3430.35
308.89	3403.72
309.10	3211.22
309.32	3180.50
309.53	3434.44
309.74	3596.23
309.96	3004.37
310.17	3166.16
310.39	3385.29
310.60	3581.90
310.81	3190.74
311.03	3002.32
311.24	3651.53
311.45	3442.64
311.67	3368.91
311.88	3237.84
312.09	3354.57
312.31	3256.27
312.52	3004.37
312.73	3024.85
312.95	3174.35
313.16	3280.85
313.37	3231.69
313.59	3295.18
313.80	3600.33
314.01	3739.59
314.23	3108.82
314.44	3041.23
314.65	3231.69
314.87	3188.69
315.08	3041.23
315.29	3131.34
315.51	3223.50
315.72	3131.34
315.93	3164.11
316.15	3084.24
316.36	3346.38
316.57	3471.31
316.79	3074.00
317.00	3016.66
317.21	3542.99
317.43	3225.55
317.64	3200.98
317.85	2990.03
318.07	3254.22
318.28	3397.58
318.49	3094.48
318.70	3321.81
318.92	3485.64
319.13	3428.30
319.34	3248.08
319.56	3053.52
319.77	3491.79
319.98	3635.14
320.20	3370.96
320.41	3272.65
320.62	3524.55
320.83	3188.69
321.05	3284.94
321.26	3098.58
321.47	3557.32
321.69	3692.49
321.90	3059.67
322.11	3061.71
322.32	3418.06
322.54	3770.31
322.75	3131.34
322.96	4140.99
323.18	3090.38
323.39	2961.36
323.60	2973.65
323.81	3133.39
324.03	3344.33
324.24	3416.01
324.45	3250.13
324.66	3041.23
324.88	3708.87
325.09	3885.00
325.30	3110.86
325.52	3008.47
325.73	3499.98
325.94	3188.69
326.15	2963.41
326.37	2936.79
326.58	3604.42
326.79	3903.43
327.00	3022.80
327.22	3092.43
327.43	3428.30
327.64	3215.31
327.85	3178.45
328.07	3114.96
328.28	3913.67
328.49	3289.04
328.70	3166.16
328.92	3074.00
329.13	3475.40
329.34	3477.45
329.55	3373.00
329.76	3262.41
329.98	3373.00
330.19	3696.58
330.40	3145.68
330.61	3164.11
330.83	3604.42
331.04	3297.23
331.25	3217.36
331.46	3123.15
331.68	3223.50
331.89	3706.82
332.10	3102.67
332.31	3016.66
332.52	3444.68
332.74	3635.14
332.95	2926.55
333.16	3043.28
333.37	3684.30
333.58	3389.39
333.80	3174.35
334.01	2869.20
334.22	3422.16
334.43	3389.39
334.64	3016.66
334.86	3086.29
335.07	3188.69
335.28	3731.40
335.49	2942.93
335.70	3219.41
335.92	3733.45
336.13	3889.09
336.34	3033.04
336.55	3172.30
336.76	3645.38
336.98	2979.79
337.19	3086.29
337.40	3188.69
337.61	3983.30
337.82	3428.30
338.04	3131.34
338.25	2975.70
338.46	3385.29
338.67	3385.29
338.88	2951.12
339.09	3018.71
339.31	3373.00
339.52	3182.54
339.73	3028.95
339.94	3170.26
340.15	3596.23
340.36	3327.95
340.58	3180.50
340.79	3030.99
341.00	3526.60
341.21	3168.21
341.42	3434.44
341.63	3088.34
341.85	3647.43
342.06	3469.26
342.27	3094.48
342.48	3362.76
342.69	3168.21
342.90	3542.99
343.12	3485.64
343.33	3065.81
343.54	3655.62
343.75	3782.60
343.96	3332.05
344.17	3039.19
344.38	3420.11
344.60	3258.32
344.81	3119.06
345.02	3063.76
345.23	3760.07
345.44	4018.11
345.65	3133.39
345.86	3211.22
346.07	3610.57
346.29	3321.81
346.50	3256.27
346.71	3198.93
346.92	3747.78
347.13	3952.58
347.34	3190.74
347.55	2944.98
347.76	3569.61
347.98	3133.39
348.19	3119.06
348.40	3233.74
348.61	3293.13
348.82	3788.74
349.03	3182.54
349.24	3022.80
349.45	3792.84
349.66	3008.47
349.88	3018.71
350.09	3047.38
350.30	3788.74
350.51	3680.20
350.72	3299.28
350.93	3127.25
351.14	3266.51
351.35	3573.71
351.56	3174.35
351.77	3205.07
351.99	3614.66
352.20	3798.98
352.41	3137.49
352.62	2920.40
352.83	3418.06
353.04	3387.34
353.25	3174.35
353.46	3055.57
353.67	3604.42
353.88	3018.71
354.09	3086.29
354.30	3182.54
354.52	3604.42
354.73	3338.19
354.94	3106.77
355.15	3164.11
355.36	3878.85
355.57	3278.80
355.78	3018.71
355.99	3094.48
356.20	3356.62
356.41	3682.25
356.62	3117.01
356.83	3168.21
357.04	3741.64
357.25	3098.58
357.46	3026.90
357.68	3010.51
357.89	3254.22
358.10	3352.52
358.31	3117.01
358.52	3125.20
358.73	3325.90
358.94	3182.54
359.15	3049.43
359.36	3084.24
359.57	3448.78
359.78	3428.30
359.99	3336.14
360.20	2967.51
360.41	3381.20
360.62	3633.10
360.83	3166.16
361.04	3057.62
361.25	3489.74
361.46	3782.60
361.67	3229.65
361.88	3127.25
362.09	3651.53
362.30	3528.65
362.51	3022.80
362.72	3217.36
362.93	3598.28
363.14	3485.64
363.35	3211.22
363.56	3016.66
363.78	3737.54
363.99	3608.52
364.20	3129.30
364.41	3151.82
364.62	3930.05
364.83	3536.84
365.04	3125.20
365.25	3190.74
365.46	3897.28
365.67	3297.23
365.88	3327.95
366.09	3096.53
366.30	3344.33
366.51	3364.81
366.72	3018.71
366.93	3096.53
367.14	3497.93
367.35	3733.45
367.56	3002.32
367.77	3264.46
367.98	3366.86
368.18	3473.36
368.39	3354.57
368.60	3024.85
368.81	3553.23
369.02	3479.50
369.23	3155.92
369.44	3002.32
369.65	3360.72
369.86	3540.94
370.07	3270.61
370.28	3059.67
370.49	3518.41
370.70	3459.02
370.91	3004.37
371.12	2957.27
371.33	3672.01
371.54	3332.05
371.75	3182.54
371.96	2838.48
372.17	3467.21
372.38	3413.96
372.59	3106.77
372.80	3071.95
373.01	3395.53
373.22	3497.93
373.43	3067.86
373.64	2934.74
373.85	3798.98
374.06	3811.27
374.26	3338.19
374.47	3182.54
374.68	3796.93
374.89	3465.16
375.10	3078.10
375.31	3178.45
375.52	3416.01
375.73	3547.08
375.94	2947.03
376.15	3221.45
376.36	3311.57
376.57	3270.61
376.78	3180.50
376.99	3200.98
377.20	3823.56
377.40	3344.33
377.61	3442.64
377.82	3125.20
378.03	3768.26
378.24	3475.40
378.45	3252.17
378.66	3229.65
378.87	3076.05
379.08	3125.20
379.29	3155.92
379.50	3229.65
379.71	3495.88
379.91	3493.83
380.12	3104.72
380.33	3241.93
380.54	3434.44
380.75	3368.91
380.96	3094.48
381.17	3178.45
381.38	3536.84
381.59	3481.55
381.80	3231.69
382.00	3227.60
382.21	3403.72
382.42	3782.60
382.63	3545.03
382.84	3342.28
383.05	3727.30
383.26	3698.63
383.47	3303.37
383.68	3026.90
383.88	3573.71
384.09	3446.73
384.30	3413.96
384.51	3262.41
384.72	3362.76
384.93	3149.78
385.14	3168.21
385.35	3286.99
385.55	3182.54
385.76	3704.78
385.97	3221.45
386.18	3045.33
386.39	3237.84
386.60	3291.09
386.81	3172.30
387.02	3045.33
387.22	3155.92
387.43	3645.38
387.64	3182.54
387.85	3385.29
388.06	3442.64
388.27	4356.03
388.48	7260.05
388.68	10884.95
388.89	13760.30
389.10	14780.19
389.31	14475.04
389.52	11786.06
389.73	10205.03
389.93	9531.25
390.14	8562.56
390.35	8005.51
390.56	7423.89
390.77	6193.06
390.98	4773.82
391.18	4077.51
391.39	3854.28
391.60	3467.21
391.81	3422.16
392.02	3135.44
392.23	3891.14
392.43	3512.27
392.64	3229.65
392.85	3248.08
393.06	3790.79
393.27	3409.87
393.47	3051.47
393.68	3190.74
393.89	3411.92
394.10	3684.30
394.31	3125.20
394.52	3049.43
394.72	3250.13
394.93	3770.31
395.14	3018.71
395.35	3180.50
395.56	3297.23
395.76	3434.44
395.97	3121.10
396.18	3336.14
396.39	3373.00
396.60	4050.88
396.80	3606.47
397.01	3270.61
397.22	3606.47
397.43	3585.99
397.64	3162.06
397.84	3209.17
398.05	3889.09
398.26	3422.16
398.47	3264.46
398.67	3301.33
398.88	3391.44
399.09	3585.99
399.30	3153.87
399.51	3207.12
399.71	3313.61
399.92	3409.87
400.13	3248.08
400.34	3141.58
400.54	3491.79
400.75	3772.36
400.96	3153.87
401.17	3522.51
401.37	3532.75
401.58	3469.26
401.79	3069.91
402.00	3166.16
402.21	3964.87
402.41	3661.77
402.62	3424.20
402.83	3557.32
403.04	3708.87
403.24	4284.35
403.45	3219.41
403.66	3475.40
403.87	3602.38
404.07	3815.37
404.28	3454.92
404.49	3422.16
404.70	3585.99
404.90	3633.10
405.11	3086.29
405.32	3303.37
405.52	3354.57
405.73	3237.84
405.94	2990.03
406.15	3266.51
406.35	3612.62
406.56	3645.38
406.77	3196.88
406.98	3168.21
407.18	3282.89
407.39	3770.31
407.60	3178.45
407.80	3219.41
408.01	3368.91
408.22	3655.62
408.43	3063.76
408.63	3307.47
408.84	3766.21
409.05	3653.58
409.25	3049.43
409.46	3147.73
409.67	3301.33
409.88	3346.38
410.08	3114.96
410.29	3041.23
410.50	3680.20
410.70	3590.09
410.91	3057.62
411.12	3278.80
411.32	3481.55
411.53	3282.89
411.74	3207.12
411.95	3196.88
412.15	3346.38
412.36	3516.36
412.57	3346.38
412.77	3366.86
412.98	3401.68
413.19	3352.52
413.39	3186.64
413.60	3133.39
413.81	3780.55
414.01	3207.12
414.22	3139.54
414.43	3293.13
414.63	3446.73
414.84	3598.28
415.05	3143.63
415.25	3065.81
415.46	3516.36
415.67	3350.48
415.87	3129.30
416.08	3137.49
416.29	3334.09
416.49	3553.23
416.70	3221.45
416.91	3151.82
417.11	3434.44
417.32	3669.96
417.53	3207.12
417.73	3350.48
417.94	3440.59
418.15	3477.45
418.35	3168.21
418.56	3180.50
418.77	3985.35
418.97	3524.55
419.18	3297.23
419.38	2893.78
419.59	3508.17
419.80	3778.50
420.00	3033.04
420.21	3176.40
420.42	3745.73
420.62	3499.98
420.83	3114.96
421.04	3106.77
421.24	3551.18
421.45	3577.80
421.65	3117.01
421.86	3131.34
422.07	3706.82
422.27	3573.71
422.48	3074.00
422.69	2914.26
422.89	3420.11
423.10	3323.85
423.30	3162.06
423.51	3256.27
423.72	3565.51
423.92	3620.81
424.13	3010.51
424.33	3194.83
424.54	3583.95
424.75	3471.31
424.95	3389.39
425.16	3018.71
425.36	3397.58
425.57	3631.05
425.78	3260.37
425.98	3248.08
426.19	3397.58
426.39	3301.33
426.60	3260.37
426.81	3307.47
427.01	3442.64
427.22	3264.46
427.42	2904.02
427.63	3110.86
427.83	3577.80
428.04	3733.45
428.25	3147.73
428.45	3196.88
428.66	3725.26
428.86	3401.68
429.07	3215.31
429.28	3172.30
429.48	3311.57
429.69	3282.89
429.89	3246.03
430.10	3106.77
430.30	3631.05
430.51	3663.82
430.71	3145.68
430.92	3200.98
431.13	3284.94
431.33	3446.73
431.54	3243.98
431.74	3344.33
431.95	3911.62
432.15	3293.13
432.36	3086.29
432.56	3211.22
432.77	3909.57
432.98	3835.85
433.18	3190.74
433.39	3057.62
433.59	3409.87
433.80	3903.43
434.00	3297.23
434.21	3311.57
434.41	3274.70
434.62	3893.19
434.82	3004.37
435.03	3174.35
435.23	3450.83
435.44	3100.62
435.64	3110.86
435.85	3186.64
436.06	3577.80
436.26	3725.26
436.47	3131.34
436.67	3121.10
436.88	3469.26
437.08	3655.62
437.29	3295.18
437.49	3352.52
437.70	3733.45
437.90	3426.25
438.11	3383.24
438.31	3282.89
438.52	3690.44
438.72	3626.95
438.93	3430.35
439.13	3213.26
439.34	3538.89
439.54	3291.09
439.75	3241.93
439.95	3200.98
440.16	3221.45
440.36	3418.06
440.57	3221.45
440.77	3188.69
440.98	3465.16
441.18	3542.99
441.39	3045.33
441.59	3016.66
441.80	3895.24
442.00	3438.54
442.21	3246.03
442.41	2963.41
442.62	3676.10
442.82	3262.41
443.02	3160.02
443.23	3174.35
443.43	3327.95
443.64	3739.59
443.84	3057.62
444.05	3186.64
444.25	3393.48
444.46	3393.48
444.66	3106.77
444.87	3368.91
445.07	3074.00
445.28	3358.67
445.48	3291.09
445.69	3182.54
445.89	4011.97
446.09	3344.33
446.30	3469.26
446.50	3540.94
446.71	5031.86
446.91	6238.11
447.12	6836.12
447.32	7247.76
447.53	7202.71
447.73	6283.17
447.93	5390.25
448.14	5218.22
448.34	5337.01
448.55	4444.09
448.75	4460.48
448.96	4181.95
449.16	4151.23
449.36	4042.69
449.57	3442.64
449.77	3252.17
449.98	3418.06
450.18	3377.10
450.39	3014.61
450.59	3350.48
450.79	3428.30
451.00	3323.85
451.20	3407.82
451.41	3188.69
451.61	3493.83
451.81	3393.48
452.02	3086.29
452.22	3213.26
452.43	3387.34
452.63	3336.14
452.84	3207.12
453.04	3192.78
453.24	3452.88
453.45	3336.14
453.65	3200.98
453.86	3149.78
454.06	3563.47
454.26	3424.20
454.47	3143.63
454.67	3377.10
454.87	3536.84
455.08	3313.61
455.28	3233.74
455.49	3319.76
455.69	3286.99
455.89	3846.09
456.10	3366.86
456.30	3117.01
456.51	3545.03
456.71	3426.25
456.91	3344.33
457.12	3192.78
457.32	3477.45
457.52	3160.02
457.73	3332.05
457.93	3360.72
458.14	3387.34
458.34	3131.34
458.54	3190.74
458.75	3092.43
458.95	3659.72
459.15	3497.93
459.36	3213.26
459.56	3035.09
459.76	4001.73
459.97	3420.11
460.17	3192.78
460.37	3151.82
460.58	3448.78
460.78	3555.27
460.99	3194.83
461.19	3139.54
461.39	3375.05
461.60	3422.16
461.80	3182.54
462.00	3051.47
462.21	3405.77
462.41	3243.98
462.61	3030.99
462.82	2942.93
463.02	3524.55
463.22	3368.91
463.43	3270.61
463.63	3076.05
463.83	3622.86
464.04	3518.41
464.24	3114.96
464.44	3147.73
464.64	3510.22
464.85	3538.89
465.05	3196.88
465.25	3071.95
465.46	3311.57
465.66	3573.71
465.86	3315.66
466.07	3084.24
466.27	3426.25
466.47	3057.62
466.68	2961.36
466.88	3256.27
467.08	3583.95
467.29	3608.52
467.49	3129.30
467.69	3311.57
467.89	3577.80
468.10	3393.48
468.30	3196.88
468.50	3336.14
468.71	3622.86
468.91	3041.23
469.11	3338.19
469.31	3254.22
469.52	3276.75
469.72	3776.45
469.92	3444.68
470.13	3192.78
470.33	3469.26
470.53	3467.21
470.73	3497.93
470.94	3796.93
471.14	4009.92
471.34	4669.37
471.54	4161.47
471.75	3917.76
471.95	3811.27
472.15	3731.40
472.36	3717.06
472.56	3506.12
472.76	3962.82
472.96	3854.28
473.17	3420.11
473.37	3344.33
473.57	3338.19
473.77	3604.42
473.98	3377.10
474.18	3074.00
474.38	4126.66
474.58	3381.20
474.79	3065.81
474.99	3336.14
475.19	3717.06
475.39	3299.28
475.60	3297.23
475.80	3071.95
476.00	3635.14
476.20	3336.14
476.41	3225.55
476.61	3135.44
476.81	3835.85
477.01	3295.18
477.21	3452.88
477.42	3188.69
477.62	3264.46
477.82	3653.58
478.02	3129.30
478.23	3155.92
478.43	3315.66
478.63	3387.34
478.83	3172.30
479.03	3250.13
479.24	3676.10
479.44	3885.00
479.64	3139.54
479.84	3008.47
480.04	3286.99
480.25	3624.90
480.45	3112.91
480.65	3155.92
480.85	3831.75
481.06	3352.52
481.26	3311.57
481.46	3127.25
481.66	3573.71
481.86	3350.48
482.06	3338.19
482.27	3239.89
482.47	3424.20
482.67	3608.52
482.87	3215.31
483.07	3227.60
483.28	3311.57
483.48	3223.50
483.68	3149.78
483.88	3078.10
484.08	3063.76
484.29	3209.17
484.49	3295.18
484.69	2951.12
484.89	3780.55
485.09	3610.57
485.29	3141.58
485.50	3286.99
485.70	3346.38
485.90	3774.41
486.10	3295.18
486.30	3139.54
486.50	3760.07
486.71	3559.37
486.91	3194.83
487.11	3241.93
487.31	3139.54
487.51	3532.75
487.71	3141.58
487.91	3127.25
488.12	3284.94
488.32	2961.36
488.52	3151.82
488.72	2942.93
488.92	3426.25
489.12	3653.58
489.32	3295.18
489.53	3076.05
489.73	3098.58
489.93	3737.54
490.13	3131.34
490.33	2973.65
490.53	3448.78
490.73	3585.99
490.94	3002.32
491.14	3303.37
491.34	3569.61
491.54	3579.85
491.74	3985.35
491.94	4538.30
492.14	5072.82
492.34	5119.92
492.54	4659.13
492.75	4011.97
492.95	4548.54
493.15	4188.10
493.35	3835.85
493.55	3669.96
493.75	3811.27
493.95	4014.02
494.15	3346.38
494.35	3223.50
494.56	3454.92
494.76	3286.99
494.96	3295.18
495.16	3090.38
495.36	3502.03
495.56	3450.83
495.76	3219.41
495.96	3147.73
496.16	3243.98
496.36	3835.85
496.56	3098.58
496.77	3139.54
496.97	3405.77
497.17	3758.02
497.37	3008.47
497.57	3299.28
497.77	3495.88
497.97	3303.37
498.17	3237.84
498.37	3131.34
498.57	3622.86
498.77	3309.52
498.97	3313.61
499.17	3542.99
499.38	3389.39
499.58	3622.86
499.78	3278.80
499.98	3409.87
500.18	3467.21
500.38	3237.84
500.58	3373.00
500.78	3631.05
500.98	6066.08
501.18	7804.81
501.38	9189.24
501.58	9959.27
501.78	9979.75
501.98	8345.47
502.18	7012.24
502.38	6164.39
502.58	6217.63
502.78	5451.69
502.98	5183.41
503.18	5052.34
503.38	4964.28
503.59	4181.95
503.79	4032.45
503.99	3723.21
504.19	3917.76
504.39	3952.58
504.59	3612.62
504.79	3616.71
504.99	3962.82
505.19	3706.82
505.39	3280.85
505.59	3475.40
505.79	3874.76
505.99	3614.66
506.19	3186.64
506.39	3479.50
506.59	3338.19
506.79	3401.68
506.99	3377.10
507.19	3074.00
507.39	3483.59
507.59	3088.34
507.79	3119.06
507.99	3100.62
508.19	3454.92
508.39	3377.10
508.59	3168.21
508.79	3237.84
508.99	3942.34
509.19	3303.37
509.39	3205.07
509.59	3053.52
509.79	3258.32
509.99	3542.99
510.19	3325.90
510.39	3291.09
510.59	3467.21
510.79	3278.80
510.99	3004.37
511.19	3190.74
511.39	3729.35
511.59	3600.33
511.79	3377.10
511.99	3106.77
512.19	3712.97
512.38	3403.72
512.58	3090.38
512.78	3094.48
512.98	3741.64
513.18	3704.78
513.38	3067.86
513.58	3237.84
513.78	3317.71
513.98	3362.76
514.18	3223.50
514.38	3172.30
514.58	3463.12
514.78	3291.09
514.98	3094.48
515.18	3233.74
515.38	3149.78
515.58	3749.83
515.78	3135.44
515.98	3168.21
516.18	3596.23
516.38	3436.49
516.57	3096.53
516.77	3108.82
516.97	3583.95
517.17	3270.61
517.37	2981.84
517.57	3190.74
517.77	3463.12
517.97	3299.28
518.17	3229.65
518.37	3033.04
518.57	3180.50
518.77	3299.28
518.97	3182.54
519.16	3215.31
519.36	3643.34
519.56	3256.27
519.76	3092.43
519.96	3213.26
520.16	3684.30
520.36	3246.03
520.56	3340.24
520.76	3096.53
520.96	3327.95
521.16	3622.86
521.35	3407.82
521.55	3272.65
521.75	3534.79
521.95	3344.33
522.15	3108.82
522.35	3049.43
522.55	3262.41
522.75	3610.57
522.95	3106.77
523.14	2963.41
523.34	3438.54
523.54	3321.81
523.74	3368.91
523.94	3262.41
524.14	3123.15
524.34	3450.83
524.54	3377.10
524.73	3129.30
524.93	3559.37
525.13	3442.64
525.33	2955.22
525.53	3377.10
525.73	3538.89
525.93	3444.68
526.13	3215.31
526.32	3041.23
526.52	3688.39
526.72	3641.29
526.92	3153.87
527.12	3114.96
527.32	3176.40
527.52	3510.22
527.71	3217.36
527.91	3188.69
528.11	3370.96
528.31	3442.64
528.51	3157.97
528.71	3276.75
528.90	3538.89
529.10	3633.10
529.30	3272.65
529.50	2865.11
529.70	3504.07
529.90	3299.28
530.09	3119.06
530.29	3033.04
530.49	3270.61
530.69	4153.28
530.89	3336.14
531.09	3307.47
531.28	3241.93
531.48	3612.62
531.68	3170.26
531.88	3178.45
532.08	3594.19
532.28	3360.72
532.47	3239.89
532.67	3246.03
532.87	3532.75
533.07	3194.83
533.27	3162.06
533.46	3256.27
533.66	3487.69
533.86	3418.06
534.06	3246.03
534.26	3131.34
534.45	3342.28
534.65	3575.75
534.85	3248.08
535.05	3084.24
535.25	3674.06
535.44	3108.82
535.64	3325.90
535.84	3205.07
536.04	3243.98
536.24	3352.52
536.43	3061.71
536.63	3149.78
536.83	3360.72
537.03	3483.59
537.22	2985.94
537.42	2979.79
537.62	3540.94
537.82	3299.28
538.02	3297.23
538.21	3241.93
538.41	4134.85
538.61	3600.33
538.81	3243.98
539.00	3338.19
539.20	3090.38
539.40	3291.09
539.60	3141.58
539.79	3325.90
539.99	3459.02
540.19	3237.84
540.39	3065.81
540.58	3160.02
540.78	3672.01
540.98	3485.64
541.18	3405.77
541.37	3207.12
541.57	3434.44
541.77	3403.72
541.97	3063.76
542.16	3104.72
542.36	3344.33
542.56	3622.86
542.76	3356.62
542.95	3274.70
543.15	3506.12
543.35	3549.13
543.54	3082.19
543.74	3084.24
543.94	3751.88
544.14	3264.46
544.33	3289.04
544.53	3164.11
544.73	3409.87
544.93	3293.13
545.12	3196.88
545.32	3170.26
545.52	3418.06
545.71	3168.21
545.91	3198.93
546.11	3102.67
546.30	3209.17
546.50	3440.59
546.70	3307.47
546.90	3180.50
547.09	3108.82
547.29	3456.97
547.49	3313.61
547.68	3117.01
547.88	3235.79
548.08	3639.24
548.27	3473.36
548.47	3137.49
548.67	3295.18
548.87	3491.79
549.06	3151.82
549.26	3090.38
549.46	3551.18
549.65	3291.09
549.85	3248.08
550.05	3180.50
550.24	3215.31
550.44	3424.20
550.64	3319.76
550.83	3237.84
551.03	3801.03
551.23	3717.06
551.42	3207.12
551.62	3196.88
551.82	3467.21
552.01	3346.38
552.21	3450.83
552.41	3188.69
552.60	3698.63
552.80	3418.06
553.00	3155.92
553.19	3256.27
553.39	3780.55
553.59	3215.31
553.78	3340.24
553.98	3106.77
554.17	3182.54
554.37	3483.59
554.57	3180.50
554.76	3049.43
554.96	3330.00
555.16	3477.45
555.35	3307.47
555.55	3344.33
555.75	3518.41
555.94	3577.80
556.14	2992.08
556.33	3180.50
556.53	3368.91
556.73	3473.36
556.92	3155.92
557.12	3164.11
557.32	4009.92
557.51	3739.59
557.71	3205.07
557.90	3377.10
558.10	3739.59
558.30	3225.55
558.49	3237.84
558.69	3100.62
558.88	3499.98
559.08	3426.25
559.28	3211.22
559.47	3229.65
559.67	3639.24
559.86	3897.28
560.06	3129.30
560.26	3172.30
560.45	3542.99
560.65	3397.58
560.84	3528.65
561.04	3065.81
561.24	3557.32
561.43	3186.64
561.63	3514.31
561.82	3311.57
562.02	3569.61
562.22	3278.80
562.41	3110.86
562.61	3172.30
562.80	3168.21
563.00	3940.29
563.19	3254.22
563.39	3248.08
563.59	3506.12
563.78	3241.93
563.98	2934.74
564.17	3211.22
564.37	3100.62
564.56	3321.81
564.76	3131.34
564.96	3325.90
565.15	3530.70
565.35	3989.44
565.54	3184.59
565.74	3164.11
565.93	3485.64
566.13	3391.44
566.32	3252.17
566.52	3254.22
566.71	3481.55
566.91	3680.20
567.11	3223.50
567.30	3131.34
567.50	3545.03
567.69	3524.55
567.89	3065.81
568.08	3092.43
568.28	3428.30
568.47	3131.34
568.67	3233.74
568.86	3182.54
569.06	3573.71
569.25	3315.66
569.45	3000.27
569.64	3178.45
569.84	3407.82
570.04	3477.45
570.23	3196.88
570.43	3164.11
570.62	3485.64
570.82	3772.36
571.01	3137.49
571.21	3164.11
571.40	3243.98
571.60	3499.98
571.79	3241.93
571.99	3155.92
572.18	3252.17
572.38	3553.23
572.57	3200.98
572.77	3248.08
572.96	4093.89
573.16	3536.84
573.35	3139.54
573.55	3321.81
573.74	3604.42
573.94	3360.72
574.13	3200.98
574.33	3305.42
574.52	3688.39
574.71	3393.48
574.91	3254.22
575.10	3069.91
575.30	3295.18
575.49	3284.94
575.69	3104.72
575.88	3137.49
576.08	3434.44
576.27	3772.36
576.47	3010.51
576.66	3385.29
576.86	3770.31
577.05	3557.32
577.25	3272.65
577.44	3446.73
577.64	3368.91
577.83	3598.28
578.02	3125.20
578.22	3272.65
578.41	3815.37
578.61	3315.66
578.80	3030.99
579.00	3137.49
579.19	3465.16
579.39	3475.40
579.58	3258.32
579.77	3248.08
579.97	3725.26
580.16	3641.29
580.36	3434.44
580.55	3344.33
580.75	3559.37
580.94	3491.79
581.13	3342.28
581.33	3383.24
581.52	3420.11
581.72	3817.41
581.91	3301.33
582.11	3127.25
582.30	3567.56
582.49	3483.59
582.69	3428.30
582.88	3205.07
583.08	3563.47
583.27	3657.67
583.47	3385.29
583.66	3098.58
583.85	3241.93
584.05	3442.64
584.24	3418.06
584.44	3223.50
584.63	3649.48
584.82	3811.27
585.02	3436.49
585.21	3286.99
585.41	3542.99
585.60	3381.20
585.79	3426.25
585.99	3461.07
586.18	3428.30
586.37	4468.67
586.57	6612.89
586.76	18468.58
586.96	37537.22
587.15	49915.14
587.34	57732.24
587.54	61193.31
587.73	53703.88
587.93	38878.64
588.12	30275.12
588.31	24716.93
588.51	21911.22
588.70	20700.87
588.89	18067.18
589.09	15150.87
589.28	13197.11
589.47	10270.56
589.67	7858.06
589.86	6246.30
590.06	4929.46
590.25	4417.47
590.44	3827.65
590.64	3567.56
590.83	3760.07
591.02	3672.01
591.22	3180.50
591.41	3241.93
591.60	3403.72
591.80	3954.63
591.99	3018.71
592.18	3196.88
592.38	3641.29
592.57	3297.23
592.76	3184.59
592.96	3268.56
593.15	3463.12
593.34	3760.07
593.54	3082.19
593.73	3317.71
593.92	3524.55
594.12	3512.27
594.31	3219.41
594.50	3364.81
594.70	3561.42
594.89	4075.46
595.08	3065.81
595.28	3362.76
595.47	4132.80
595.66	3635.14
595.86	3114.96
596.05	3039.19
596.24	3438.54
596.43	3786.69
596.63	3278.80
596.82	3282.89
597.01	3557.32
597.21	3745.73
597.40	3149.78
597.59	3225.55
597.79	3364.81
597.98	3583.95
598.17	3221.45
598.36	3117.01
598.56	3653.58
598.75	3395.53
598.94	3295.18
599.14	3248.08
599.33	3319.76
599.52	3545.03
599.71	3266.51
599.91	3155.92
600.10	3590.09
600.29	3432.40
600.48	3227.60
600.68	3305.42
600.87	3581.90
601.06	3303.37
601.26	3303.37
601.45	3327.95
601.64	3377.10
601.83	3858.37
602.03	3106.77
602.22	3018.71
602.41	3696.58
602.60	4046.79
602.80	3260.37
602.99	3340.24
603.18	3317.71
603.37	3526.60
603.57	3078.10
603.76	3147.73
603.95	3674.06
604.14	3319.76
604.34	3114.96
604.53	3131.34
604.72	3504.07
604.91	3553.23
605.10	3164.11
605.30	3033.04
605.49	3946.44
605.68	3618.76
605.87	3147.73
606.07	3237.84
606.26	3393.48
606.45	3616.71
606.64	3250.13
606.84	3051.47
607.03	3418.06
607.22	3655.62
607.41	3217.36
607.60	3133.39
607.80	3647.43
607.99	3450.83
608.18	3209.17
608.37	3160.02
608.56	3332.05
608.76	3672.01
608.95	3295.18
609.14	3119.06
609.33	3745.73
609.52	3692.49
609.72	3286.99
609.91	3274.70
610.10	3467.21
610.29	3780.55
610.48	3289.04
610.68	3270.61
610.87	3379.15
611.06	3641.29
611.25	3227.60
611.44	3295.18
611.63	3411.92
611.83	3798.98
612.02	3078.10
612.21	3289.04
612.40	2959.31
612.59	3149.78
612.79	3094.48
612.98	3209.17
613.17	3696.58
613.36	3424.20
613.55	3305.42
613.74	3147.73
613.93	3409.87
614.13	3471.31
614.32	3323.85
614.51	3190.74
614.70	3411.92
614.89	3334.09
615.08	3327.95
615.28	3461.07
615.47	3276.75
615.66	3450.83
615.85	3198.93
616.04	3237.84
616.23	3413.96
616.42	3385.29
616.62	3192.78
616.81	3237.84
617.00	3475.40
617.19	3459.02
617.38	3190.74
617.57	3313.61
617.76	3583.95
617.95	3610.57
618.15	3368.91
618.34	3436.49
618.53	3153.87
618.72	3712.97
618.91	3332.05
619.10	3246.03
619.29	3495.88
619.48	3461.07
619.68	3078.10
619.87	3180.50
620.06	3217.36
620.25	3563.47
620.44	3174.35
620.63	3110.86
620.82	3489.74
621.01	3393.48
621.20	3248.08
621.39	3319.76
621.59	3534.79
621.78	3401.68
621.97	3274.70
622.16	3246.03
622.35	3571.66
622.54	3641.29
622.73	3176.40
622.92	2996.18
623.11	3698.63
623.30	3389.39
623.49	3352.52
623.68	3059.67
623.88	3755.97
624.07	3311.57
624.26	3090.38
624.45	3184.59
624.64	3485.64
624.83	3446.73
625.02	3225.55
625.21	3166.16
625.40	3485.64
625.59	3624.90
625.78	3291.09
625.97	3221.45
626.16	3712.97
626.35	3657.67
626.54	3065.81
626.74	3422.16
626.93	3407.82
627.12	3346.38
627.31	3192.78
627.50	3205.07
627.69	3551.18
627.88	3180.50
628.07	3074.00
628.26	2965.46
628.45	3252.17
628.64	3196.88
628.83	3217.36
629.02	3074.00
629.21	3585.99
629.40	3497.93
629.59	3110.86
629.78	3182.54
629.97	3467.21
630.16	3485.64
630.35	3123.15
630.54	3307.47
630.73	3385.29
630.92	3344.33
631.11	3102.67
631.30	3272.65
631.49	3690.44
631.68	3442.64
631.87	3317.71
632.06	3123.15
632.25	3962.82
632.44	3497.93
632.63	3262.41
632.82	3280.85
633.01	3227.60
633.20	3510.22
633.39	3172.30
633.58	2938.84
633.77	3557.32
633.96	3459.02
634.15	3295.18
634.34	3258.32
634.53	3540.94
634.72	3264.46
634.91	3026.90
635.10	3188.69
635.29	3504.07
635.48	3477.45
635.67	3016.66
635.86	3078.10
636.05	3719.11
636.24	3430.35
636.43	3106.77
636.62	3280.85
636.81	2893.78
637.00	3471.31
637.19	3125.20
637.38	3248.08
637.57	3405.77
637.76	3491.79
637.95	3340.24
638.14	3332.05
638.33	3532.75
638.52	3438.54
638.71	3074.00
638.89	3067.86
639.08	4018.11
639.27	3653.58
639.46	3358.67
639.65	3622.86
639.84	3880.90
640.03	4122.56
640.22	3540.94
640.41	3524.55
640.60	3467.21
640.79	3649.48
640.98	3352.52
641.17	3436.49
641.36	3651.53
641.55	3618.76
641.74	3051.47
641.92	3045.33
642.11	3276.75
642.30	3432.40
642.49	3096.53
642.68	3131.34
642.87	3569.61
643.06	3487.69
643.25	3022.80
643.44	3086.29
643.63	3334.09
643.82	3565.51
644.00	3092.43
644.19	3151.82
644.38	3200.98
644.57	3545.03
644.76	3203.02
644.95	3250.13
645.14	3442.64
645.33	3375.05
645.52	3327.95
645.71	3004.37
645.89	3239.89
646.08	3405.77
646.27	3213.26
646.46	3381.20
646.65	3188.69
646.84	3465.16
647.03	3174.35
647.22	3286.99
647.40	3508.17
647.59	3409.87
647.78	2858.96
647.97	3229.65
648.16	3246.03
648.35	3731.40
648.54	3475.40
648.73	3211.22
648.91	3585.99
649.10	3450.83
649.29	3104.72
649.48	3200.98
649.67	3577.80
649.86	3456.97
650.05	3182.54
650.23	3387.34
650.42	3270.61
650.61	3602.38
650.80	3422.16
650.99	3499.98
651.18	3545.03
651.36	3672.01
651.55	3145.68
651.74	3266.51
651.93	3211.22
652.12	3409.87
652.31	3315.66
652.49	3246.03
652.68	3338.19
652.87	3745.73
653.06	3262.41
653.25	3452.88
653.44	3487.69
653.62	3696.58
653.81	3233.74
654.00	3143.63
654.19	3598.28
654.38	4087.75
654.56	3239.89
654.75	3108.82
654.94	3663.82
655.13	3516.36
655.32	3090.38
655.51	3233.74
655.69	3348.43
655.88	3647.43
656.07	2971.60
656.26	3160.02
656.45	3133.39
656.63	3467.21
656.82	3174.35
657.01	3467.21
657.20	3319.76
657.38	3760.07
657.57	3135.44
657.76	3041.23
657.95	3692.49
658.14	3321.81
658.32	3278.80
658.51	3108.82
658.70	3399.63
658.89	3567.56
659.08	3266.51
659.26	3395.53
659.45	3203.02
659.64	3579.85
659.83	3225.55
660.01	3631.05
660.20	3526.60
660.39	3786.69
660.58	2842.58
660.76	3205.07
660.95	3184.59
661.14	3524.55
661.33	3024.85
661.51	3266.51
661.70	3360.72
661.89	3508.17
662.08	3264.46
662.26	3065.81
662.45	3237.84
662.64	3782.60
662.83	3164.11
663.01	3114.96
663.20	3274.70
663.39	3829.70
663.58	3262.41
663.76	3119.06
663.95	3585.99
664.14	3188.69
664.32	3327.95
664.51	3094.48
664.70	3047.38
664.89	3432.40
665.07	3049.43
665.26	3293.13
665.45	3135.44
665.64	3596.23
665.82	3182.54
666.01	3313.61
666.20	3166.16
666.38	3575.75
666.57	3577.80
666.76	5631.91
666.95	12689.21
667.13	19203.80
667.32	22503.08
667.51	25112.19
667.69	25966.20
667.88	20997.82
668.07	15298.33
668.25	13432.63
668.44	11732.81
668.63	10213.22
668.81	9029.49
669.00	7704.46
669.19	7348.11
669.38	6377.37
669.56	5396.40
669.75	4839.35
669.94	4302.78
670.12	3817.41
670.31	3518.41
670.50	3459.02
670.68	3624.90
670.87	3434.44
671.06	3149.78
671.24	3295.18
671.43	3860.42
671.62	3446.73
671.80	3166.16
671.99	3391.44
672.18	3528.65
672.36	3581.90
672.55	3311.57
672.74	3272.65
672.92	3370.96
673.11	3565.51
673.29	2998.23
673.48	3340.24
673.67	3286.99
673.85	3684.30
674.04	3157.97
674.23	3332.05
674.41	3905.48
674.60	3186.64
674.79	3047.38
674.97	3022.80
675.16	3678.15
675.34	3672.01
675.53	3139.54
675.72	3198.93
675.90	3780.55
676.09	3387.34
676.28	3315.66
676.46	3059.67
676.65	3626.95
676.83	3270.61
677.02	3246.03
677.21	3282.89
677.39	3475.40
677.58	3243.98
677.77	3149.78
677.95	3080.14
678.14	3444.68
678.32	3311.57
678.51	3225.55
678.70	3565.51
678.88	3370.96
679.07	3368.91
679.25	3188.69
679.44	3217.36
679.63	3180.50
679.81	3553.23
680.00	3487.69
680.18	3219.41
680.37	3848.13
680.55	3444.68
680.74	3004.37
680.93	2916.31
681.11	3520.46
681.30	3368.91
681.48	3106.77
681.67	3168.21
681.85	3452.88
682.04	3243.98
682.23	3241.93
682.41	3344.33
682.60	3440.59
682.78	3385.29
682.97	3100.62
683.15	3239.89
683.34	3405.77
683.53	3770.31
683.71	3149.78
683.90	3229.65
684.08	3858.37
684.27	3370.96
684.45	3227.60
684.64	3338.19
684.82	3463.12
685.01	3581.90
685.19	3147.73
685.38	3532.75
685.57	3442.64
685.75	3319.76
685.94	3041.23
686.12	3139.54
686.31	3368.91
686.49	3766.21
686.68	3014.61
686.86	3188.69
687.05	3354.57
687.23	3796.93
687.42	3246.03
687.60	3024.85
687.79	3676.10
687.97	3813.32
688.16	3272.65
688.34	3366.86
688.53	3024.85
688.71	3536.84
688.90	3469.26
689.08	3190.74
689.27	3033.04
689.45	3624.90
689.64	3344.33
689.82	3233.74
690.01	3477.45
690.19	3446.73
690.38	3256.27
690.56	3297.23
690.75	3184.59
690.93	3278.80
691.12	3166.16
691.30	3252.17
691.49	3229.65
691.67	3362.76
691.86	3606.47
692.04	3266.51
692.23	3340.24
692.41	3393.48
692.60	3477.45
692.78	3434.44
692.97	3491.79
693.15	3622.86
693.34	3438.54
693.52	3506.12
693.71	3332.05
693.89	3286.99
694.08	3123.15
694.26	3262.41
694.44	3620.81
694.63	3575.75
694.81	3098.58
695.00	3223.50
695.18	3708.87
695.37	4026.31
695.55	3241.93
695.74	3289.04
695.92	3280.85
696.10	3678.15
696.29	3061.71
696.47	3215.31
696.66	3221.45
696.84	3215.31
697.03	3131.34
697.21	3540.94
697.40	4706.23
697.58	3807.17
697.76	3192.78
697.95	3289.04
698.13	3237.84
698.32	3358.67
698.50	3172.30
698.68	3266.51
698.87	3553.23
699.05	3747.78
699.24	3153.87
699.42	3215.31
699.61	3508.17
699.79	3567.56
699.97	3301.33
700.16	3004.37
700.34	3280.85
700.53	3553.23
700.71	3336.14
700.89	3293.13
701.08	3262.41
701.26	3469.26
701.45	3522.51
701.63	3205.07
701.81	3272.65
702.00	3262.41
702.18	3301.33
702.37	3166.16
702.55	3655.62
702.73	3479.50
702.92	3121.10
703.10	3469.26
703.28	3629.00
703.47	3131.34
703.65	3403.72
703.84	3334.09
704.02	3291.09
704.20	3790.79
704.39	3149.78
704.57	3180.50
704.75	3639.24
704.94	3569.61
705.12	3330.00
705.30	4020.16
705.49	8169.35
705.67	14702.37
705.86	19056.35
706.04	21628.60
706.22	24151.70
706.41	22470.31
706.59	16885.50
706.77	13573.94
706.96	11706.19
707.14	10985.30
707.32	9267.06
707.51	8169.35
707.69	6948.76
707.87	5973.92
708.06	4829.11
708.24	4353.98
708.42	4065.22
708.61	4286.40
708.79	3342.28
708.97	3409.87
709.16	3540.94
709.34	3651.53
709.52	3307.47
709.71	3276.75
709.89	3651.53
710.07	3250.13
710.26	3051.47
710.44	3198.93
710.62	3561.42
710.80	3370.96
710.99	3286.99
711.17	3327.95
711.35	3344.33
711.54	3295.18
711.72	3428.30
711.90	3336.14
712.09	3428.30
712.27	3375.05
712.45	3327.95
712.63	3223.50
712.82	3506.12
713.00	3413.96
713.18	3354.57
713.37	3448.78
713.55	3577.80
713.73	3536.84
713.91	3299.28
714.10	3164.11
714.28	3422.16
714.46	3477.45
714.65	3301.33
714.83	3291.09
715.01	3485.64
715.19	3499.98
715.38	3112.91
715.56	3303.37
715.74	3254.22
715.92	3299.28
716.11	3499.98
716.29	2906.07
716.47	3477.45
716.65	3413.96
716.84	3033.04
717.02	3246.03
717.20	3119.06
717.38	3295.18
717.57	3360.72
717.75	3229.65
717.93	3364.81
718.11	3596.23
718.30	3151.82
718.48	3227.60
718.66	3712.97
718.84	3653.58
719.03	3176.40
719.21	3086.29
719.39	3872.71
719.57	3553.23
719.75	3336.14
719.94	3147.73
720.12	3354.57
720.30	3481.55
720.48	3321.81
720.67	3235.79
720.85	3227.60
721.03	3321.81
721.21	3221.45
721.39	3192.78
721.58	3573.71
721.76	3428.30
721.94	3231.69
722.12	3411.92
722.30	3665.86
722.49	3342.28
722.67	3264.46
722.85	3241.93
723.03	3207.12
723.21	3293.13
723.40	3184.59
723.58	3299.28
723.76	3624.90
723.94	3729.35
724.12	3190.74
724.30	3434.44
724.49	3649.48
724.67	3219.41
724.85	3270.61
725.03	3098.58
725.21	3471.31
725.40	3622.86
725.58	3250.13
725.76	3370.96
725.94	3516.36
726.12	3149.78
726.30	3237.84
726.49	3229.65
726.67	3286.99
726.85	3590.09
727.03	3893.19
727.21	4974.52
727.39	5969.83
727.57	6334.37
727.76	6750.10
727.94	6768.54
728.12	5953.45
728.30	5126.07
728.48	4843.45
728.66	4538.30
728.84	4464.57
729.03	3893.19
729.21	3553.23
729.39	3551.18
729.57	3452.88
729.75	3684.30
729.93	3497.93
730.11	3155.92
730.30	3420.11
730.48	3411.92
730.66	3319.76
730.84	3229.65
731.02	3426.25
731.20	3313.61
731.38	3231.69
731.56	3127.25
731.74	3114.96
731.93	3469.26
732.11	3354.57
732.29	3237.84
732.47	3553.23
732.65	3497.93
732.83	3418.06
733.01	3352.52
733.19	3256.27
733.37	3542.99
733.56	3172.30
733.74	3108.82
733.92	3786.69
734.10	3315.66
734.28	3340.24
734.46	3057.62
734.64	3311.57
734.82	3336.14
735.00	3143.63
735.18	3147.73
735.36	3430.35
735.54	3504.07
735.73	3227.60
735.91	3346.38
736.09	3727.30
736.27	3504.07
736.45	3227.60
736.63	2951.12
736.81	3346.38
736.99	3690.44
737.17	3442.64
737.35	3174.35
737.53	3487.69
737.71	3393.48
737.89	3418.06
738.07	3241.93
738.25	3205.07
738.43	3123.15
738.61	3227.60
738.80	3018.71
738.98	3225.55
739.16	3405.77
739.34	3207.12
739.52	3510.22
739.70	3434.44
739.88	3530.70
740.06	3370.96
740.24	2914.26
740.42	3649.48
740.60	3069.91
740.78	3176.40
740.96	2955.22
741.14	3340.24
741.32	3534.79
741.50	3139.54
741.68	3438.54
741.86	3678.15
742.04	3119.06
742.22	3084.24
742.40	3243.98
742.58	3600.33
742.76	3264.46
742.94	3461.07
743.12	3047.38
743.30	3416.01
743.48	3581.90
743.66	3155.92
743.84	3213.26
744.02	3321.81
744.20	3430.35
744.38	3069.91
744.56	3225.55
744.74	3788.74
744.92	3579.85
745.10	3454.92
745.28	3286.99
745.46	3788.74
745.64	3436.49
745.82	3209.17
746.00	3182.54
746.18	3524.55
746.36	3207.12
746.54	3203.02
746.72	3231.69
746.90	3213.26
747.08	3735.50
747.26	3151.82
747.44	3282.89
747.62	3590.09
747.80	3514.31
747.98	3280.85
748.15	3297.23
748.33	3784.65
748.51	3424.20
748.69	3311.57
748.87	3082.19
749.05	3426.25
749.23	3307.47
749.41	3135.44
749.59	3182.54
749.77	3721.16
749.95	3356.62
750.13	3174.35
750.31	3379.15
750.49	3379.15
750.67	3600.33
750.85	3330.00
751.03	3200.98
751.20	3876.80
751.38	3454.92
751.56	3311.57
751.74	3297.23
751.92	3461.07
752.10	3225.55
752.28	3379.15
752.46	3153.87
752.64	3450.83
752.82	3493.83
753.00	3315.66
753.18	3141.58
753.35	3356.62
753.53	3395.53
753.71	3096.53
753.89	3254.22
754.07	3393.48
754.25	3663.82
754.43	3213.26
754.61	3147.73
754.79	3534.79
754.97	3438.54
755.14	3332.05
755.32	3147.73
755.50	3413.96
755.68	3499.98
755.86	3065.81
756.04	3117.01
756.22	2992.08
756.40	3696.58
756.57	3399.63
756.75	3131.34
756.93	3635.14
757.11	3672.01
757.29	3123.15
757.47	3174.35
757.65	3135.44
757.82	2885.59
758.00	3145.68
758.18	3131.34
758.36	3252.17
758.54	3909.57
758.72	3020.75
758.90	3274.70
759.07	3506.12
759.25	3186.64
759.43	3207.12
759.61	3051.47
759.79	4562.87
759.97	3715.02
760.15	3190.74
760.32	3192.78
760.50	3538.89
760.68	3803.08
760.86	2996.18
761.04	3436.49
761.22	3614.66
761.39	3518.41
761.57	3344.33
761.75	3192.78
761.93	3508.17
762.11	3461.07
762.28	3256.27
762.46	3114.96
762.64	3643.34
762.82	3166.16
763.00	3172.30
763.18	3379.15
763.35	3207.12
763.53	3528.65
763.71	3334.09
763.89	3149.78
764.07	3508.17
764.24	3475.40
764.42	3336.14
764.60	3223.50
764.78	3561.42
764.96	3649.48
765.13	3379.15
765.31	3094.48
765.49	3532.75
765.67	3196.88
765.84	3157.97
766.02	3080.14
766.20	3082.19
766.38	3512.27
766.56	3393.48
766.73	3338.19
766.91	3504.07
767.09	3411.92
767.27	3219.41
767.44	3106.77
767.62	3608.52
767.80	3459.02
767.98	3059.67
768.15	3141.58
768.33	3663.82
768.51	3571.66
768.69	3303.37
768.87	3155.92
769.04	3487.69
769.22	4018.11
769.40	3321.81
769.58	3342.28
769.75	3569.61
769.93	3723.21
770.11	3198.93
770.28	3098.58
770.46	3624.90
770.64	3532.75
770.82	3229.65
770.99	3117.01
771.17	3647.43
771.35	3424.20
771.53	3203.02
771.70	3196.88
771.88	3565.51
772.06	3475.40
772.23	3217.36
772.41	3188.69
772.59	3493.83
772.77	3266.51
772.94	3262.41
773.12	3196.88
773.30	3352.52
773.47	3477.45
773.65	3076.05
773.83	3325.90
774.01	3385.29
774.18	3024.85
774.36	3258.32
774.54	3047.38
774.71	3567.56
774.89	3176.40
775.07	3039.19
775.24	3205.07
775.42	3340.24
775.60	3821.51
775.78	3131.34
775.95	3080.14
776.13	3160.02
776.31	3051.47
776.48	3393.48
776.66	3413.96
776.84	3315.66
777.01	3174.35
777.19	3090.38
777.37	3106.77
777.54	3588.04
777.72	3852.23
777.90	3260.37
778.07	3205.07
778.25	4036.55
778.43	3661.77
778.60	3196.88
778.78	3233.74
778.96	3721.16
779.13	3196.88
779.31	3223.50
779.49	3286.99
779.66	3485.64
779.84	3354.57
780.01	3149.78
780.19	3151.82
780.37	3764.17
780.54	3581.90
780.72	3096.53
780.90	3233.74
781.07	3260.37
781.25	3311.57
781.43	3510.22
781.60	3194.83
781.78	3710.92
781.95	3420.11
782.13	3192.78
782.31	3209.17
782.48	3094.48
782.66	3352.52
782.83	3465.16
783.01	3274.70
783.19	3622.86
783.36	3311.57
783.54	3184.59
783.72	3286.99
783.89	3319.76
784.07	3536.84
784.24	3332.05
784.42	3356.62
784.60	3407.82
784.77	3452.88
784.95	2985.94
785.12	3180.50
785.30	3567.56
785.47	3272.65
785.65	3016.66
785.83	3225.55
786.00	3397.58
786.18	3510.22
786.35	3131.34
786.53	3157.97
786.71	3676.10
786.88	3592.14
787.06	3278.80
787.23	3233.74
787.41	3143.63
787.58	3364.81
787.76	3076.05
787.94	3149.78
788.11	3442.64
788.29	3256.27
788.46	3147.73
788.64	3014.61
788.81	3397.58
788.99	3219.41
789.16	3133.39
789.34	3198.93
789.52	3274.70
789.69	3303.37
789.87	3061.71
790.04	3065.81
790.22	3426.25
790.39	3878.85
790.57	3117.01
790.74	3164.11
790.92	3649.48
791.09	3094.48
791.27	3262.41
791.44	3215.31
791.62	3381.20
791.79	3575.75
791.97	3284.94
792.15	3549.13
792.32	3581.90
792.50	3545.03
792.67	3418.06
792.85	3520.46
793.02	3467.21
793.20	3426.25
793.37	3033.04
793.55	3051.47
793.72	3135.44
793.90	3563.47
794.07	3200.98
794.25	3151.82
794.42	3436.49
794.60	3430.35
794.77	3219.41
794.95	3295.18
795.12	3606.47
795.30	3401.68
795.47	2951.12
795.65	3542.99
795.82	3475.40
796.00	3270.61
796.17	3200.98
796.34	3184.59
796.52	3481.55
796.69	3600.33
796.87	3246.03
797.04	3282.89
797.22	3622.86
797.39	3526.60
797.57	3450.83
797.74	3311.57
797.92	3504.07
798.09	3254.22
798.27	3512.27
798.44	3168.21
798.62	3332.05
798.79	3428.30
798.96	3375.05
799.14	3266.51
799.31	3944.39
799.49	3467.21
799.66	3182.54
799.84	3215.31
800.01	3155.92
800.19	3489.74
800.36	3063.76
800.53	3307.47
800.71	3481.55
800.88	3786.69
801.06	3104.72
801.23	3139.54
801.41	3383.24
801.58	3301.33
801.75	3194.83
801.93	3252.17
802.10	3585.99
802.28	3373.00
802.45	3219.41
802.63	3262.41
802.80	3780.55
802.97	3284.94
803.15	3203.02
803.32	3149.78
803.50	3237.84
803.67	3270.61
803.84	3172.30
804.02	3272.65
804.19	3405.77
804.37	2963.41
804.54	2979.79
804.71	3186.64
804.89	3364.81
805.06	3211.22
805.24	3100.62
805.41	3041.23
805.58	3336.14
805.76	3864.52
805.93	3131.34
806.10	3303.37
806.28	3545.03
806.45	3409.87
806.63	3344.33
806.80	3217.36
806.97	3436.49
807.15	3526.60
807.32	3342.28
807.49	3243.98
807.67	3172.30
807.84	3522.51
808.01	3051.47
808.19	3377.10
808.36	3909.57
808.54	3301.33
808.71	3172.30
808.88	3166.16
809.06	3710.92
809.23	3710.92
809.40	3250.13
809.58	3137.49
809.75	3444.68
809.92	3178.45
810.10	3420.11
810.27	3190.74
810.44	3526.60
810.62	3674.06
810.79	3246.03
810.96	3225.55
811.14	3327.95
811.31	3551.18
811.48	3338.19
811.66	3248.08
811.83	3729.35
812.00	3585.99
812.18	3346.38
812.35	3516.36
812.52	3454.92
812.69	3327.95
812.87	3180.50
813.04	3141.58
813.21	3403.72
813.39	3192.78
813.56	3151.82
813.73	3467.21
813.91	3069.91
814.08	3471.31
814.25	3198.93
814.42	2961.36
814.60	3456.97
814.77	3391.44
814.94	3069.91
815.12	3264.46
815.29	3772.36
815.46	3272.65
815.63	3239.89
815.81	3182.54
815.98	3327.95
816.15	3383.24
816.33	3327.95
816.50	3248.08
816.67	3307.47
816.84	3446.73
817.02	3123.15
817.19	3153.87
817.36	3571.66
817.53	3467.21
817.71	3071.95
817.88	3276.75
818.05	3366.86
818.22	3450.83
818.40	3422.16
818.57	3205.07
818.74	3565.51
818.91	3377.10
819.09	3379.15
819.26	3311.57
819.43	3268.56
819.60	3270.61
819.78	3235.79
819.95	3315.66
820.12	3237.84
820.29	3772.36
820.47	3479.50
820.64	3190.74
820.81	3123.15
820.98	3256.27
821.15	3209.17
821.33	3375.05
821.50	3119.06
821.67	3602.38
821.84	3168.21
822.02	3160.02
822.19	3635.14
822.36	3389.39
822.53	3090.38
822.70	3090.38
822.88	3356.62
823.05	3788.74
823.22	3272.65
823.39	3192.78
823.56	3379.15
823.74	3893.19
823.91	3026.90
824.08	3172.30
824.25	3213.26
824.42	3770.31
824.60	2983.89
824.77	3278.80
824.94	3409.87
825.11	3487.69
825.28	3071.95
825.45	3348.43
825.63	3499.98
825.80	3188.69
825.97	3307.47
826.14	3227.60
826.31	3088.34
826.48	3561.42
826.66	3233.74
826.83	3145.68
827.00	3463.12
827.17	3168.21
827.34	3248.08
827.51	3065.81
827.69	3325.90
827.86	3166.16
828.03	3278.80
828.20	3241.93
828.37	3301.33
828.54	3518.41
828.71	3170.26
828.89	3270.61
829.06	3452.88
829.23	3811.27
829.40	3221.45
829.57	3188.69
829.74	3579.85
829.91	3342.28
830.09	3170.26
830.26	3368.91
830.43	3790.79
830.60	3418.06
830.77	3217.36
830.94	3471.31
831.11	3684.30
831.28	3319.76
831.46	3332.05
831.63	3096.53
831.80	3704.78
831.97	3297.23
832.14	3270.61
832.31	3162.06
832.48	3401.68
832.65	3696.58
832.82	3409.87
832.99	3246.03
833.17	3125.20
833.34	3712.97
833.51	3092.43
833.68	3041.23
833.85	3684.30
834.02	3239.89
834.19	3172.30
834.36	3266.51
834.53	3440.59
834.70	3723.21
834.87	3143.63
835.04	2947.03
835.22	3211.22
835.39	3229.65
835.56	3033.04
835.73	2975.70
835.90	3665.86
836.07	3262.41
836.24	3194.83
836.41	3041.23
836.58	3225.55
836.75	3616.71
836.92	3080.14
837.09	2926.55
837.26	3508.17
837.43	3467.21
837.60	3033.04
837.77	3033.04
837.94	3594.19
838.12	3737.54
838.29	2910.16
838.46	2938.84
838.63	3145.68
838.80	3829.70
838.97	3082.19
839.14	2955.22
839.31	3469.26
839.48	3583.95
839.65	2975.70
839.82	3078.10
839.99	3540.94
840.16	3493.83
840.33	2899.92
840.50	3035.09
840.67	3289.04
840.84	2922.45
841.01	2901.97
841.18	2983.89
841.35	3426.25
841.52	3512.27
841.69	3368.91
841.86	3049.43
842.03	3397.58
842.20	3588.04
842.37	2963.41
842.54	3133.39
842.71	3387.34
842.88	3100.62
843.05	3000.27
843.22	3014.61
843.39	3622.86
843.56	3293.13
843.73	2967.51
843.90	3110.86
844.07	3428.30
844.24	3672.01
844.41	3082.19
844.58	3028.95
844.75	3426.25
844.92	3528.65
845.09	3129.30
845.26	3106.77
845.43	3596.23
845.60	3379.15
845.77	3162.06
845.94	3098.58
846.10	3602.38
846.27	3078.10
846.44	2871.25
846.61	2893.78
846.78	3522.51
846.95	3639.24
847.12	2998.23
847.29	3055.57
847.46	3315.66
847.63	3426.25
847.80	2971.60
847.97	3061.71
848.14	3897.28
848.31	3401.68
848.48	2936.79
848.65	3020.75
848.82	3272.65
848.98	4040.64
849.15	3135.44
849.32	3160.02
849.49	3635.14
849.66	3395.53
849.83	3022.80
850.00	2938.84
850.17	3618.76
850.34	3229.65
850.51	2906.07
850.68	3049.43
850.85	3930.05
851.01	3493.83
851.18	3024.85
851.35	3074.00
851.52	3508.17
851.69	3731.40
851.86	3063.76
852.03	2959.31
852.20	3610.57
852.37	3416.01
852.53	2918.36
852.70	2936.79
852.87	3454.92
853.04	3557.32
853.21	3024.85
853.38	3338.19
853.55	3700.68
853.72	3700.68
853.89	2920.40
854.05	2953.17
854.22	3477.45
854.39	3248.08
854.56	2854.87
854.73	3205.07
854.90	3186.64
855.07	3405.77
855.23	2967.51
855.40	2934.74
855.57	3348.43
855.74	2977.75
855.91	3246.03
856.08	2883.54
856.25	3157.97
856.41	3313.61
856.58	3018.71
856.75	3074.00
856.92	3192.78
857.09	3581.90
857.26	2815.96
857.42	3063.76
857.59	3520.46
857.76	3305.42
857.93	2936.79
858.10	3137.49
858.27	3164.11
858.43	3481.55
858.60	3033.04
858.77	2951.12
858.94	3258.32
859.11	3616.71
859.27	3117.01
859.44	2881.49
859.61	3909.57
859.78	3649.48
859.95	3094.48
860.12	2887.64
860.28	3864.52
860.45	3827.65
860.62	2971.60
860.79	3043.28
860.95	3368.91
861.12	3305.42
861.29	2918.36
861.46	2985.94
861.63	3327.95
861.79	3502.03
861.96	2901.97
862.13	3022.80
862.30	3678.15
862.47	3295.18
862.63	2881.49
862.80	3041.23
862.97	3583.95
863.14	3483.59
863.30	2992.08
863.47	2967.51
863.64	3794.89
863.81	3491.79
863.97	2861.01
864.14	3035.09
864.31	3411.92
864.48	3442.64
864.65	2949.08
864.81	3131.34
864.98	3606.47
865.15	3645.38
865.32	3100.62
865.48	3024.85
865.65	3672.01
865.82	3286.99
865.98	3092.43
866.15	3139.54
866.32	3401.68
866.49	3315.66
866.65	3155.92
866.82	3106.77
866.99	3418.06
867.16	3377.10
867.32	3022.80
867.49	2979.79
867.66	3381.20
867.83	3272.65
867.99	2940.88
868.16	3055.57
868.33	3196.88
868.49	3381.20
868.66	3129.30
868.83	3071.95
868.99	3477.45
869.16	3403.72
869.33	3198.93
869.50	2996.18
869.66	3502.03
869.83	3387.34
870.00	2930.64
870.16	3092.43
870.33	3469.26
870.50	3649.48
870.66	3123.15
870.83	3004.37
871.00	3481.55
871.17	3551.18
871.33	3082.19
871.50	2983.89
871.67	3430.35
871.83	3092.43
872.00	3024.85
872.17	2985.94
872.33	3854.28
872.50	3639.24
872.67	3006.42
872.83	2996.18
873.00	3534.79
873.17	3362.76
873.33	2987.99
873.50	3074.00
873.67	3250.13
873.83	3219.41
874.00	2975.70
874.16	3260.37
874.33	3403.72
874.50	3209.17
874.66	3008.47
874.83	3147.73
875.00	3600.33
875.16	3762.12
875.33	3106.77
875.50	2711.51
875.66	3405.77
875.83	3440.59
875.99	3026.90
876.16	3184.59
876.33	3219.41
876.49	3360.72
876.66	3018.71
876.83	3080.14
876.99	3123.15
877.16	3418.06
877.32	2985.94
877.49	3074.00
877.66	3522.51
877.82	3749.83
877.99	3114.96
878.15	3239.89
878.32	3493.83
878.49	3518.41
878.65	3106.77
878.82	3387.34
878.98	3319.76
879.15	3672.01
879.32	3217.36
879.48	3215.31
879.65	3405.77
879.81	3368.91
879.98	3047.38
880.15	3117.01
880.31	3575.75
880.48	3258.32
880.64	3184.59
880.81	3196.88
880.97	3766.21
881.14	3712.97
881.31	2992.08
881.47	3174.35
881.64	3321.81
881.80	3114.96
881.97	3221.45
882.13	3078.10
882.30	3176.40
882.47	3295.18
882.63	3096.53
882.80	3014.61
882.96	3375.05
883.13	3616.71
883.29	2998.23
883.46	3000.27
883.62	3950.53
883.79	3377.10
883.95	3157.97
884.12	2961.36
884.29	3649.48
884.45	3319.76
884.62	3076.05
884.78	2987.99
884.95	3833.80
885.11	3215.31
885.28	3119.06
885.44	3067.86
885.61	3616.71
885.77	3755.97
885.94	3207.12
886.10	3098.58
886.27	3407.82
886.43	3835.85
886.60	3301.33
886.76	3106.77
886.93	3162.06
887.09	3483.59
887.26	2893.78
887.42	3098.58
887.59	3680.20
887.75	3915.72
887.92	3276.75
888.08	3170.26
888.25	3778.50
888.41	3616.71
888.58	3090.38
888.74	2951.12
888.91	3405.77
>>>>>End Processed Spectral Data<<<<<
