SpectraSuite Data File
++++++++++++++++++++++++++++++++++++
Date: Fri May 06 09:28:58 CEST 2016
User: root
Dark Spectrum Present: No
Reference Spectrum Present: No
Number of Sampled Component Spectra: 1
Spectrometers: USB4C02835
Integration Time (usec): 100000 (USB4C02835)
Spectra Averaged: 1 (USB4C02835)
Boxcar Smoothing: 0 (USB4C02835)
Correct for Electrical Dark: No (USB4C02835)
Strobe/Lamp Enabled: No (USB4C02835)
Correct for Detector Non-linearity: No (USB4C02835)
Correct for Stray Light: No (USB4C02835)
Number of Pixels in Processed Spectrum: 3648
>>>>>Begin Processed Spectral Data<<<<<
177.47	2342.88
177.69	2342.88
177.91	2342.88
178.13	2371.55
178.36	2344.92
178.58	3164.11
178.80	3192.78
179.02	3119.06
179.24	3254.22
179.46	2863.06
179.68	2942.93
179.90	3356.62
180.13	3444.68
180.35	2754.52
180.57	2914.26
180.79	3581.90
181.01	3344.33
181.23	2967.51
181.45	3037.14
181.67	3569.61
181.90	3690.44
182.12	3026.90
182.34	2795.48
182.56	3674.06
182.78	3547.08
183.00	2934.74
183.22	3028.95
183.44	3002.32
183.66	4106.18
183.89	3102.67
184.11	2990.03
184.33	3583.95
184.55	3755.97
184.77	2926.55
184.99	3000.27
185.21	3401.68
185.43	4071.36
185.65	2979.79
185.87	2959.31
186.10	3917.76
186.32	3991.49
186.54	3047.38
186.76	3102.67
186.98	3723.21
187.20	3360.72
187.42	3000.27
187.64	2834.39
187.86	3516.36
188.08	3753.93
188.30	2904.02
188.52	2977.75
188.75	3723.21
188.97	3749.83
189.19	2944.98
189.41	2963.41
189.63	3588.04
189.85	3327.95
190.07	2906.07
190.29	2824.15
190.51	3555.27
190.73	3215.31
190.95	3094.48
191.17	2959.31
191.39	3131.34
191.61	3389.39
191.84	3002.32
192.06	3112.91
192.28	3157.97
192.50	4208.58
192.72	3221.45
192.94	3139.54
193.16	3729.35
193.38	3633.10
193.60	2916.31
193.82	3172.30
194.04	3698.63
194.26	3569.61
194.48	2947.03
194.70	2942.93
194.92	3368.91
195.14	3667.91
195.36	2928.60
195.58	3051.47
195.80	3405.77
196.02	3280.85
196.24	2893.78
196.46	3035.09
196.69	3327.95
196.91	4007.87
197.13	3035.09
197.35	3082.19
197.57	3764.17
197.79	3676.10
198.01	3080.14
198.23	3006.42
198.45	3590.09
198.67	3166.16
198.89	2736.09
199.11	3114.96
199.33	3330.00
199.55	2938.84
199.77	2971.60
199.99	3139.54
200.21	3352.52
200.43	3577.80
200.65	2895.83
200.87	2783.19
201.09	3465.16
201.31	3340.24
201.53	2940.88
201.75	2979.79
201.97	3600.33
202.19	3368.91
202.41	2893.78
202.63	3061.71
202.85	3512.27
203.07	3481.55
203.29	3123.15
203.51	2873.30
203.73	3381.20
203.95	4075.46
204.17	2906.07
204.39	3182.54
204.61	3452.88
204.83	3262.41
205.05	3166.16
205.27	2992.08
205.49	3983.30
205.71	3428.30
205.93	2750.42
206.15	2824.15
206.37	3532.75
206.59	3461.07
206.81	2754.52
207.03	2801.62
207.25	3282.89
207.47	3553.23
207.69	2969.55
207.91	3205.07
208.13	3829.70
208.34	3266.51
208.56	2934.74
208.78	3016.66
209.00	3385.29
209.22	3364.81
209.44	3020.75
209.66	2959.31
209.88	3538.89
210.10	3411.92
210.32	2967.51
210.54	3108.82
210.76	3364.81
210.98	3680.20
211.20	2793.43
211.42	3092.43
211.64	3696.58
211.86	3565.51
212.08	3026.90
212.30	2979.79
212.52	3422.16
212.74	3667.91
212.96	3039.19
213.17	3018.71
213.39	3708.87
213.61	3839.94
213.83	2918.36
214.05	2893.78
214.27	3651.53
214.49	3338.19
214.71	2910.16
214.93	3135.44
215.15	3524.55
215.37	3645.38
215.59	2793.43
215.81	3012.56
216.03	3737.54
216.24	3403.72
216.46	2951.12
216.68	3018.71
216.90	3600.33
217.12	3719.11
217.34	2955.22
217.56	3125.20
217.78	3729.35
218.00	3590.09
218.22	3061.71
218.44	3055.57
218.66	3516.36
218.87	3887.04
219.09	3030.99
219.31	3016.66
219.53	3542.99
219.75	3360.72
219.97	2979.79
220.19	2975.70
220.41	3409.87
220.63	3784.65
220.85	2967.51
221.06	2998.23
221.28	3733.45
221.50	3614.66
221.72	2959.31
221.94	2901.97
222.16	3553.23
222.38	3672.01
222.60	2918.36
222.82	3045.33
223.03	3641.29
223.25	3190.74
223.47	2869.20
223.69	3213.26
223.91	3596.23
224.13	3499.98
224.35	2877.40
224.57	3129.30
224.78	3647.43
225.00	3272.65
225.22	3057.62
225.44	2869.20
225.66	3655.62
225.88	3311.57
226.10	3141.58
226.32	2824.15
226.53	3745.73
226.75	3319.76
226.97	3074.00
227.19	3012.56
227.41	3237.84
227.63	3319.76
227.85	2803.67
228.06	2944.98
228.28	3459.02
228.50	3600.33
228.72	2791.38
228.94	2969.55
229.16	3117.01
229.37	3172.30
229.59	2832.34
229.81	3278.80
230.03	3450.83
230.25	3155.92
230.47	2822.10
230.69	2910.16
230.90	3639.24
231.12	3282.89
231.34	3065.81
231.56	3090.38
231.78	3258.32
232.00	3454.92
232.21	2987.99
232.43	3065.81
232.65	3082.19
232.87	3606.47
233.09	2779.09
233.30	2852.82
233.52	3674.06
233.74	3471.31
233.96	2877.40
234.18	3094.48
234.40	3454.92
234.61	3997.64
234.83	2850.77
235.05	2934.74
235.27	3971.01
235.49	3715.02
235.70	2910.16
235.92	2959.31
236.14	3575.75
236.36	4007.87
236.58	2861.01
236.79	2996.18
237.01	3450.83
237.23	3452.88
237.45	3209.17
237.67	2992.08
237.88	3516.36
238.10	3868.61
238.32	2877.40
238.54	2944.98
238.76	3383.24
238.97	3231.69
239.19	2861.01
239.41	3059.67
239.63	3733.45
239.85	3350.48
240.06	3016.66
240.28	2910.16
240.50	3700.68
240.72	3542.99
240.93	2852.82
241.15	3129.30
241.37	3471.31
241.59	3741.64
241.81	3022.80
242.02	2967.51
242.24	3524.55
242.46	3643.34
242.68	2770.90
242.89	2897.88
243.11	3672.01
243.33	3407.82
243.55	2987.99
243.76	2979.79
243.98	3254.22
244.20	3424.20
244.42	2928.60
244.64	2928.60
244.85	3141.58
245.07	3311.57
245.29	2910.16
245.51	3045.33
245.72	3590.09
245.94	3665.86
246.16	2949.08
246.38	3051.47
246.59	3321.81
246.81	3272.65
247.03	2906.07
247.24	2842.58
247.46	3360.72
247.68	3434.44
247.90	2922.45
248.11	3094.48
248.33	3643.34
248.55	3418.06
248.77	2992.08
248.98	3061.71
249.20	3807.17
249.42	3502.03
249.64	2947.03
249.85	2942.93
250.07	3387.34
250.29	3606.47
250.50	3012.56
250.72	2947.03
250.94	3561.42
251.16	4018.11
251.37	2936.79
251.59	3018.71
251.81	3528.65
252.02	3839.94
252.24	2820.05
252.46	3078.10
252.68	3346.38
252.89	3289.04
253.11	2758.61
253.33	3160.02
253.54	3796.93
253.76	3205.07
253.98	3055.57
254.20	2891.73
254.41	3196.88
254.63	3459.02
254.85	2842.58
255.06	3082.19
255.28	3549.13
255.50	3428.30
255.71	2908.12
255.93	2844.63
256.15	3426.25
256.36	3585.99
256.58	2828.24
256.80	2887.64
257.02	3377.10
257.23	3334.09
257.45	3086.29
257.67	3090.38
257.88	3303.37
258.10	3598.28
258.32	2922.45
258.53	3082.19
258.75	3831.75
258.97	3344.33
259.18	2914.26
259.40	2955.22
259.62	3878.85
259.83	3860.42
260.05	2977.75
260.27	3968.96
260.48	3614.66
260.70	3262.41
260.92	2820.05
261.13	3041.23
261.35	3475.40
261.57	3571.66
261.78	2842.58
262.00	2953.17
262.22	3495.88
262.43	3284.94
262.65	2926.55
262.86	2951.12
263.08	3950.53
263.30	3524.55
263.51	2779.09
263.73	2887.64
263.95	3891.14
264.16	3196.88
264.38	2828.24
264.60	2840.53
264.81	3377.10
265.03	3831.75
265.25	3438.54
265.46	2934.74
265.68	3819.46
265.89	3622.86
266.11	2842.58
266.33	2971.60
266.54	3688.39
266.76	3542.99
266.98	3016.66
267.19	3110.86
267.41	3631.05
267.62	3424.20
267.84	2779.09
268.06	3074.00
268.27	3491.79
268.49	3698.63
268.70	3028.95
268.92	3037.14
269.14	3282.89
269.35	3133.39
269.57	3155.92
269.79	3051.47
270.00	3332.05
270.22	3823.56
270.43	2914.26
270.65	2822.10
270.87	3440.59
271.08	3633.10
271.30	3071.95
271.51	2975.70
271.73	3559.37
271.95	3758.02
272.16	2881.49
272.38	3168.21
272.59	3358.67
272.81	3581.90
273.02	2826.20
273.24	2998.23
273.46	3729.35
273.67	3250.13
273.89	2815.96
274.10	2852.82
274.32	3760.07
274.54	3516.36
274.75	3012.56
274.97	3069.91
275.18	3729.35
275.40	3532.75
275.61	3014.61
275.83	3164.11
276.05	3151.82
276.26	3463.12
276.48	3102.67
276.69	3172.30
276.91	3317.71
277.12	3760.07
277.34	3131.34
277.55	3207.12
277.77	3502.03
277.99	3350.48
278.20	3090.38
278.42	2936.79
278.63	3315.66
278.85	3274.70
279.06	3090.38
279.28	3139.54
279.49	3624.90
279.71	3575.75
279.93	3129.30
280.14	3215.31
280.36	3172.30
280.57	3596.23
280.79	3213.26
281.00	2951.12
281.22	3309.52
281.43	3725.26
281.65	2877.40
281.86	2969.55
282.08	3583.95
282.29	3839.94
282.51	2955.22
282.73	3024.85
282.94	3192.78
283.16	3622.86
283.37	3157.97
283.59	3123.15
283.80	3678.15
284.02	3426.25
284.23	3157.97
284.45	3071.95
284.66	3203.02
284.88	3295.18
285.09	2967.51
285.31	3205.07
285.52	3495.88
285.74	3153.87
285.95	3307.47
286.17	3160.02
286.38	3672.01
286.60	3340.24
286.81	3045.33
287.03	3061.71
287.24	3536.84
287.46	3553.23
287.67	3229.65
287.89	3309.52
288.10	3514.31
288.32	3495.88
288.53	3184.59
288.75	3264.46
288.96	3569.61
289.18	3258.32
289.39	3016.66
289.61	3153.87
289.82	3979.20
290.04	3966.92
290.25	3004.37
290.47	3196.88
290.68	3438.54
290.90	3622.86
291.11	2858.96
291.33	3233.74
291.54	3155.92
291.76	3270.61
291.97	3276.75
292.18	3114.96
292.40	3430.35
292.61	3319.76
292.83	3375.05
293.04	3071.95
293.26	3518.41
293.47	3411.92
293.69	3065.81
293.90	3014.61
294.12	3706.82
294.33	3422.16
294.55	3229.65
294.76	3278.80
294.97	3788.74
295.19	4009.92
295.40	3141.58
295.62	3182.54
295.83	3626.95
296.05	3289.04
296.26	3352.52
296.48	3024.85
296.69	3436.49
296.90	3366.86
297.12	3221.45
297.33	3303.37
297.55	3436.49
297.76	3616.71
297.98	3168.21
298.19	3262.41
298.41	3534.79
298.62	3323.85
298.83	3334.09
299.05	3225.55
299.26	3391.44
299.48	3354.57
299.69	3254.22
299.90	3129.30
300.12	3270.61
300.33	3624.90
300.55	3076.05
300.76	3203.02
300.98	3229.65
301.19	3516.36
301.40	3125.20
301.62	3076.05
301.83	3598.28
302.05	3483.59
302.26	3024.85
302.47	3149.78
302.69	3196.88
302.90	3424.20
303.12	2930.64
303.33	3264.46
303.54	3862.47
303.76	3225.55
303.97	3078.10
304.19	3237.84
304.40	3192.78
304.61	3590.09
304.83	3160.02
305.04	3196.88
305.26	3639.24
305.47	3393.48
305.68	3102.67
305.90	3002.32
306.11	3729.35
306.33	3401.68
306.54	2965.46
306.75	3051.47
306.97	3121.10
307.18	3180.50
307.39	3065.81
307.61	3246.03
307.82	3434.44
308.04	3510.22
308.25	2938.84
308.46	3362.76
308.68	3395.53
308.89	3395.53
309.10	3186.64
309.32	3155.92
309.53	3450.83
309.74	3661.77
309.96	3043.28
310.17	3174.35
310.39	3317.71
310.60	3626.95
310.81	3143.63
311.03	3028.95
311.24	3581.90
311.45	3444.68
311.67	3368.91
311.88	3192.78
312.09	3475.40
312.31	3295.18
312.52	2953.17
312.73	3041.23
312.95	3131.34
313.16	3270.61
313.37	3237.84
313.59	3311.57
313.80	3618.76
314.01	3753.93
314.23	3157.97
314.44	3071.95
314.65	3213.26
314.87	3188.69
315.08	3043.28
315.29	3106.77
315.51	3258.32
315.72	3133.39
315.93	3131.34
316.15	3125.20
316.36	3272.65
316.57	3491.79
316.79	3119.06
317.00	3045.33
317.21	3559.37
317.43	3295.18
317.64	3162.06
317.85	3041.23
318.07	3286.99
318.28	3364.81
318.49	3188.69
318.70	3291.09
318.92	3477.45
319.13	3454.92
319.34	3270.61
319.56	3028.95
319.77	3551.18
319.98	3518.41
320.20	3420.11
320.41	3344.33
320.62	3549.13
320.83	3321.81
321.05	3311.57
321.26	3166.16
321.47	3430.35
321.69	3717.06
321.90	2998.23
322.11	3082.19
322.32	3491.79
322.54	3780.55
322.75	3067.86
322.96	4331.45
323.18	3133.39
323.39	3102.67
323.60	3002.32
323.81	3223.50
324.03	3352.52
324.24	3471.31
324.45	3264.46
324.66	3127.25
324.88	3708.87
325.09	3803.08
325.30	3172.30
325.52	3002.32
325.73	3471.31
325.94	3205.07
326.15	3002.32
326.37	2936.79
326.58	3579.85
326.79	3827.65
327.00	2979.79
327.22	3074.00
327.43	3346.38
327.64	3217.36
327.85	3262.41
328.07	3166.16
328.28	3901.38
328.49	3297.23
328.70	3096.53
328.92	3127.25
329.13	3428.30
329.34	3545.03
329.55	3307.47
329.76	3254.22
329.98	3340.24
330.19	3739.59
330.40	3233.74
330.61	3284.94
330.83	3602.38
331.04	3327.95
331.25	3229.65
331.46	3205.07
331.68	3239.89
331.89	3631.05
332.10	3114.96
332.31	3006.42
332.52	3465.16
332.74	3647.43
332.95	2951.12
333.16	3160.02
333.37	3620.81
333.58	3330.00
333.80	3147.73
334.01	2944.98
334.22	3413.96
334.43	3323.85
334.64	3002.32
334.86	3063.76
335.07	3289.04
335.28	3696.58
335.49	2975.70
335.70	3219.41
335.92	3753.93
336.13	3999.68
336.34	3110.86
336.55	3074.00
336.76	3508.17
336.98	3010.51
337.19	3125.20
337.40	3200.98
337.61	3930.05
337.82	3420.11
338.04	3219.41
338.25	2908.12
338.46	3467.21
338.67	3397.58
338.88	3000.27
339.09	2926.55
339.31	3332.05
339.52	3180.50
339.73	3035.09
339.94	3139.54
340.15	3602.38
340.36	3418.06
340.58	3168.21
340.79	3096.53
341.00	3594.19
341.21	3164.11
341.42	3360.72
341.63	3149.78
341.85	3686.34
342.06	3551.18
342.27	3090.38
342.48	3286.99
342.69	3131.34
342.90	3588.04
343.12	3547.08
343.33	2994.13
343.54	3608.52
343.75	3745.73
343.96	3358.67
344.17	3051.47
344.38	3409.87
344.60	3243.98
344.81	3063.76
345.02	3065.81
345.23	3643.34
345.44	3962.82
345.65	3227.60
345.86	3188.69
346.07	3497.93
346.29	3338.19
346.50	3254.22
346.71	3205.07
346.92	3743.69
347.13	3868.61
347.34	3237.84
347.55	2875.35
347.76	3549.13
347.98	3184.59
348.19	3164.11
348.40	3311.57
348.61	3307.47
348.82	3717.06
349.03	3252.17
349.24	2983.89
349.45	3835.85
349.66	3016.66
349.88	3135.44
350.09	3063.76
350.30	3770.31
350.51	3643.34
350.72	3338.19
350.93	3106.77
351.14	3299.28
351.35	3526.60
351.56	3125.20
351.77	3229.65
351.99	3508.17
352.20	3745.73
352.41	3258.32
352.62	2981.84
352.83	3373.00
353.04	3471.31
353.25	3010.51
353.46	3069.91
353.67	3655.62
353.88	3012.56
354.09	3000.27
354.30	3200.98
354.52	3622.86
354.73	3385.29
354.94	3117.01
355.15	3207.12
355.36	3876.80
355.57	3264.46
355.78	3039.19
355.99	3047.38
356.20	3309.52
356.41	3790.79
356.62	3164.11
356.83	3172.30
357.04	3688.39
357.25	3071.95
357.46	3063.76
357.68	2992.08
357.89	3286.99
358.10	3459.02
358.31	3082.19
358.52	3211.22
358.73	3205.07
358.94	3254.22
359.15	3162.06
359.36	3123.15
359.57	3444.68
359.78	3459.02
359.99	3313.61
360.20	2979.79
360.41	3360.72
360.62	3540.94
360.83	3209.17
361.04	3082.19
361.25	3612.62
361.46	3848.13
361.67	3239.89
361.88	3076.05
362.09	3657.67
362.30	3573.71
362.51	3076.05
362.72	3196.88
362.93	3624.90
363.14	3641.29
363.35	3225.55
363.56	3000.27
363.78	3655.62
363.99	3661.77
364.20	3133.39
364.41	3182.54
364.62	3792.84
364.83	3534.79
365.04	3155.92
365.25	3160.02
365.46	3901.38
365.67	3301.33
365.88	3262.41
366.09	3117.01
366.30	3354.57
366.51	3459.02
366.72	3106.77
366.93	3074.00
367.14	3442.64
367.35	3807.17
367.56	3067.86
367.77	3205.07
367.98	3440.59
368.18	3514.31
368.39	3317.71
368.60	3088.34
368.81	3667.91
369.02	3502.03
369.23	3078.10
369.44	2947.03
369.65	3354.57
369.86	3663.82
370.07	3235.79
370.28	3016.66
370.49	3538.89
370.70	3524.55
370.91	3018.71
371.12	3043.28
371.33	3620.81
371.54	3291.09
371.75	3200.98
371.96	2779.09
372.17	3483.59
372.38	3475.40
372.59	3119.06
372.80	2981.84
373.01	3409.87
373.22	3485.64
373.43	3114.96
373.64	3047.38
373.85	3790.79
374.06	3825.61
374.26	3317.71
374.47	3209.17
374.68	3760.07
374.89	3516.36
375.10	3033.04
375.31	3248.08
375.52	3516.36
375.73	3426.25
375.94	2901.97
376.15	3272.65
376.36	3221.45
376.57	3344.33
376.78	3182.54
376.99	3200.98
377.20	3784.65
377.40	3317.71
377.61	3446.73
377.82	3094.48
378.03	3803.08
378.24	3524.55
378.45	3223.50
378.66	3254.22
378.87	3125.20
379.08	3196.88
379.29	3123.15
379.50	3221.45
379.71	3379.15
379.91	3682.25
380.12	3028.95
380.33	3225.55
380.54	3391.44
380.75	3465.16
380.96	3100.62
381.17	3188.69
381.38	3440.59
381.59	3530.70
381.80	3135.44
382.00	3282.89
382.21	3516.36
382.42	3719.11
382.63	3471.31
382.84	3252.17
383.05	3596.23
383.26	3717.06
383.47	3330.00
383.68	3053.52
383.88	3545.03
384.09	3385.29
384.30	3334.09
384.51	3254.22
384.72	3397.58
384.93	3235.79
385.14	3194.83
385.35	3422.16
385.55	3090.38
385.76	3680.20
385.97	3174.35
386.18	3018.71
386.39	3237.84
386.60	3370.96
386.81	3057.62
387.02	2975.70
387.22	3153.87
387.43	3614.66
387.64	3137.49
387.85	3442.64
388.06	3520.46
388.27	4407.23
388.48	7276.43
388.68	10905.43
388.89	13768.49
389.10	14741.28
389.31	14511.91
389.52	11693.90
389.73	10368.87
389.93	9541.49
390.14	8478.59
390.35	7948.17
390.56	7481.23
390.77	6277.02
390.98	4786.10
391.18	4067.27
391.39	4026.31
391.60	3516.36
391.81	3352.52
392.02	3198.93
392.23	3958.72
392.43	3516.36
392.64	3219.41
392.85	3229.65
393.06	3852.23
393.27	3409.87
393.47	3106.77
393.68	3252.17
393.89	3315.66
394.10	3846.09
394.31	3061.71
394.52	3076.05
394.72	3248.08
394.93	3708.87
395.14	2967.51
395.35	3200.98
395.56	3375.05
395.76	3401.68
395.97	3139.54
396.18	3307.47
396.39	3383.24
396.60	4073.41
396.80	3485.64
397.01	3368.91
397.22	3583.95
397.43	3606.47
397.64	3207.12
397.84	3200.98
398.05	3950.53
398.26	3389.39
398.47	3231.69
398.67	3395.53
398.88	3438.54
399.09	3657.67
399.30	3094.48
399.51	3223.50
399.71	3221.45
399.92	3434.44
400.13	3286.99
400.34	3117.01
400.54	3450.83
400.75	3850.18
400.96	3246.03
401.17	3538.89
401.37	3600.33
401.58	3409.87
401.79	3147.73
402.00	3262.41
402.21	4030.40
402.41	3571.66
402.62	3438.54
402.83	3463.12
403.04	3743.69
403.24	4181.95
403.45	3274.70
403.66	3452.88
403.87	3696.58
404.07	3788.74
404.28	3418.06
404.49	3518.41
404.70	3461.07
404.90	3592.14
405.11	3110.86
405.32	3262.41
405.52	3274.70
405.73	3264.46
405.94	3071.95
406.15	3223.50
406.35	3669.96
406.56	3592.14
406.77	3168.21
406.98	3135.44
407.18	3282.89
407.39	3745.73
407.60	3172.30
407.80	3203.02
408.01	3307.47
408.22	3651.53
408.43	3016.66
408.63	3246.03
408.84	3655.62
409.05	3710.92
409.25	3139.54
409.46	3198.93
409.67	3340.24
409.88	3305.42
410.08	3192.78
410.29	3106.77
410.50	3641.29
410.70	3512.27
410.91	2987.99
411.12	3233.74
411.32	3502.03
411.53	3297.23
411.74	3182.54
411.95	3237.84
412.15	3481.55
412.36	3549.13
412.57	3289.04
412.77	3395.53
412.98	3307.47
413.19	3303.37
413.39	3176.40
413.60	3170.26
413.81	3784.65
414.01	3215.31
414.22	3123.15
414.43	3403.72
414.63	3403.72
414.84	3592.14
415.05	3164.11
415.25	3010.51
415.46	3680.20
415.67	3389.39
415.87	3209.17
416.08	3200.98
416.29	3446.73
416.49	3608.52
416.70	3227.60
416.91	3215.31
417.11	3346.38
417.32	3778.50
417.53	3237.84
417.73	3250.13
417.94	3487.69
418.15	3442.64
418.35	3213.26
418.56	3205.07
418.77	4016.07
418.97	3534.79
419.18	3213.26
419.38	2852.82
419.59	3452.88
419.80	3747.78
420.00	3112.91
420.21	3174.35
420.42	3733.45
420.62	3459.02
420.83	3086.29
421.04	3153.87
421.24	3452.88
421.45	3559.37
421.65	3188.69
421.86	3188.69
422.07	3620.81
422.27	3565.51
422.48	3037.14
422.69	2914.26
422.89	3487.69
423.10	3389.39
423.30	3119.06
423.51	3239.89
423.72	3479.50
423.92	3645.38
424.13	3014.61
424.33	3229.65
424.54	3592.14
424.75	3473.36
424.95	3411.92
425.16	3155.92
425.36	3434.44
425.57	3674.06
425.78	3377.10
425.98	3198.93
426.19	3397.58
426.39	3270.61
426.60	3327.95
426.81	3360.72
427.01	3532.75
427.22	3293.13
427.42	3074.00
427.63	3123.15
427.83	3561.42
428.04	3854.28
428.25	3205.07
428.45	3225.55
428.66	3678.15
428.86	3463.12
429.07	3229.65
429.28	3166.16
429.48	3450.83
429.69	3188.69
429.89	3272.65
430.10	3110.86
430.30	3616.71
430.51	3639.24
430.71	3106.77
430.92	3233.74
431.13	3334.09
431.33	3592.14
431.54	3272.65
431.74	3399.63
431.95	3915.72
432.15	3170.26
432.36	3125.20
432.56	3248.08
432.77	3936.20
432.98	3846.09
433.18	3217.36
433.39	3010.51
433.59	3313.61
433.80	3913.67
434.00	3350.48
434.21	3303.37
434.41	3330.00
434.62	3880.90
434.82	3033.04
435.03	3164.11
435.23	3528.65
435.44	3047.38
435.64	3100.62
435.85	3239.89
436.06	3680.20
436.26	3624.90
436.47	3155.92
436.67	3151.82
436.88	3405.77
437.08	3753.93
437.29	3270.61
437.49	3274.70
437.70	3764.17
437.90	3428.30
438.11	3383.24
438.31	3215.31
438.52	3741.64
438.72	3676.10
438.93	3463.12
439.13	3264.46
439.34	3663.82
439.54	3325.90
439.75	3280.85
439.95	3205.07
440.16	3200.98
440.36	3393.48
440.57	3125.20
440.77	3164.11
440.98	3454.92
441.18	3526.60
441.39	3096.53
441.59	2998.23
441.80	3966.92
442.00	3418.06
442.21	3262.41
442.41	3010.51
442.62	3639.24
442.82	3336.14
443.02	3119.06
443.23	3174.35
443.43	3354.57
443.64	3739.59
443.84	3024.85
444.05	3205.07
444.25	3413.96
444.46	3272.65
444.66	3172.30
444.87	3338.19
445.07	3053.52
445.28	3321.81
445.48	3401.68
445.69	3164.11
445.89	4069.31
446.09	3389.39
446.30	3430.35
446.50	3524.55
446.71	5048.24
446.91	6098.85
447.12	6776.73
447.32	7337.87
447.53	7450.51
447.73	6168.48
447.93	5402.54
448.14	5281.71
448.34	5423.02
448.55	4384.70
448.75	4392.89
448.96	4204.48
449.16	4044.74
449.36	4036.55
449.57	3375.05
449.77	3209.17
449.98	3262.41
450.18	3469.26
450.39	3016.66
450.59	3368.91
450.79	3409.87
451.00	3286.99
451.20	3348.43
451.41	3184.59
451.61	3581.90
451.81	3346.38
452.02	3106.77
452.22	3205.07
452.43	3373.00
452.63	3340.24
452.84	3203.02
453.04	3078.10
453.24	3442.64
453.45	3252.17
453.65	3125.20
453.86	3205.07
454.06	3424.20
454.26	3459.02
454.47	3112.91
454.67	3344.33
454.87	3598.28
455.08	3403.72
455.28	3307.47
455.49	3356.62
455.69	3221.45
455.89	3878.85
456.10	3272.65
456.30	3164.11
456.51	3590.09
456.71	3411.92
456.91	3356.62
457.12	3229.65
457.32	3590.09
457.52	3184.59
457.73	3332.05
457.93	3342.28
458.14	3289.04
458.34	3059.67
458.54	3174.35
458.75	3131.34
458.95	3643.34
459.15	3508.17
459.36	3213.26
459.56	3200.98
459.76	3962.82
459.97	3452.88
460.17	3123.15
460.37	3258.32
460.58	3442.64
460.78	3575.75
460.99	3215.31
461.19	3149.78
461.39	3321.81
461.60	3440.59
461.80	3239.89
462.00	3168.21
462.21	3448.78
462.41	3258.32
462.61	2969.55
462.82	2914.26
463.02	3499.98
463.22	3491.79
463.43	3284.94
463.63	3035.09
463.83	3688.39
464.04	3557.32
464.24	3143.63
464.44	3127.25
464.64	3465.16
464.85	3594.19
465.05	3125.20
465.25	3057.62
465.46	3309.52
465.66	3497.93
465.86	3301.33
466.07	3074.00
466.27	3401.68
466.47	3139.54
466.68	3104.72
466.88	3264.46
467.08	3563.47
467.29	3692.49
467.49	3164.11
467.69	3332.05
467.89	3590.09
468.10	3452.88
468.30	3268.56
468.50	3268.56
468.71	3604.42
468.91	3123.15
469.11	3389.39
469.31	3270.61
469.52	3207.12
469.72	3829.70
469.92	3422.16
470.13	3180.50
470.33	3461.07
470.53	3456.97
470.73	3553.23
470.94	3823.56
471.14	3989.44
471.34	4497.34
471.54	4157.38
471.75	3819.46
471.95	3825.61
472.15	3737.54
472.36	3710.92
472.56	3508.17
472.76	3956.68
472.96	3764.17
473.17	3373.00
473.37	3215.31
473.57	3385.29
473.77	3524.55
473.98	3311.57
474.18	3074.00
474.38	4196.29
474.58	3297.23
474.79	3047.38
474.99	3262.41
475.19	3708.87
475.39	3250.13
475.60	3248.08
475.80	3129.30
476.00	3594.19
476.20	3430.35
476.41	3246.03
476.61	3213.26
476.81	3743.69
477.01	3303.37
477.21	3444.68
477.42	3260.37
477.62	3303.37
477.82	3545.03
478.02	3059.67
478.23	3215.31
478.43	3323.85
478.63	3344.33
478.83	3198.93
479.03	3239.89
479.24	3805.13
479.44	3938.24
479.64	3084.24
479.84	3063.76
480.04	3346.38
480.25	3657.67
480.45	3123.15
480.65	3176.40
480.85	3809.22
481.06	3354.57
481.26	3160.02
481.46	3198.93
481.66	3571.66
481.86	3262.41
482.06	3403.72
482.27	3182.54
482.47	3350.48
482.67	3516.36
482.87	3188.69
483.07	3286.99
483.28	3360.72
483.48	3246.03
483.68	3172.30
483.88	3012.56
484.08	3063.76
484.29	3127.25
484.49	3250.13
484.69	2965.46
484.89	3762.12
485.09	3596.23
485.29	3188.69
485.50	3311.57
485.70	3317.71
485.90	3725.26
486.10	3319.76
486.30	3160.02
486.50	3770.31
486.71	3530.70
486.91	3237.84
487.11	3293.13
487.31	3211.22
487.51	3577.80
487.71	3131.34
487.91	3069.91
488.12	3330.00
488.32	2926.55
488.52	3133.39
488.72	2891.73
488.92	3469.26
489.12	3657.67
489.32	3301.33
489.53	3098.58
489.73	3160.02
489.93	3796.93
490.13	3178.45
490.33	3018.71
490.53	3446.73
490.73	3690.44
490.94	3045.33
491.14	3272.65
491.34	3569.61
491.54	3497.93
491.74	3958.72
491.94	4509.63
492.14	5130.16
492.34	5271.47
492.54	4704.18
492.75	4065.22
492.95	4462.52
493.15	4116.42
493.35	3798.98
493.55	3758.02
493.75	3735.50
493.95	3958.72
494.15	3413.96
494.35	3196.88
494.56	3430.35
494.76	3334.09
494.96	3354.57
495.16	3028.95
495.36	3411.92
495.56	3418.06
495.76	3250.13
495.96	3157.97
496.16	3266.51
496.36	3901.38
496.56	3127.25
496.77	3315.66
496.97	3334.09
497.17	3770.31
497.37	2983.89
497.57	3282.89
497.77	3461.07
497.97	3194.83
498.17	3166.16
498.37	3184.59
498.57	3553.23
498.77	3319.76
498.97	3344.33
499.17	3602.38
499.38	3413.96
499.58	3565.51
499.78	3321.81
499.98	3264.46
500.18	3362.76
500.38	3262.41
500.58	3377.10
500.78	3678.15
500.98	6039.46
501.18	7772.04
501.38	9101.17
501.58	9977.70
501.78	9981.80
501.98	8464.25
502.18	7098.26
502.38	6143.91
502.58	6342.56
502.78	5623.72
502.98	5220.27
503.18	5076.91
503.38	4747.19
503.59	4212.67
503.79	3979.20
503.99	3680.20
504.19	3962.82
504.39	3837.89
504.59	3596.23
504.79	3483.59
504.99	3934.15
505.19	3659.72
505.39	3327.95
505.59	3485.64
505.79	3907.52
505.99	3602.38
506.19	3215.31
506.39	3395.53
506.59	3342.28
506.79	3319.76
506.99	3446.73
507.19	3141.58
507.39	3495.88
507.59	3129.30
507.79	3164.11
507.99	3160.02
508.19	3366.86
508.39	3338.19
508.59	3223.50
508.79	3270.61
508.99	3807.17
509.19	3258.32
509.39	3182.54
509.59	3102.67
509.79	3282.89
509.99	3565.51
510.19	3305.42
510.39	3360.72
510.59	3577.80
510.79	3354.57
510.99	3000.27
511.19	3123.15
511.39	3792.84
511.59	3788.74
511.79	3323.85
511.99	3174.35
512.19	3852.23
512.38	3420.11
512.58	3074.00
512.78	3008.47
512.98	3661.77
513.18	3841.99
513.38	3037.14
513.58	3227.60
513.78	3360.72
513.98	3379.15
514.18	3151.82
514.38	3227.60
514.58	3542.99
514.78	3295.18
514.98	3051.47
515.18	3209.17
515.38	3200.98
515.58	3766.21
515.78	3157.97
515.98	3174.35
516.18	3604.42
516.38	3479.50
516.57	3170.26
516.77	3100.62
516.97	3585.99
517.17	3270.61
517.37	2930.64
517.57	3139.54
517.77	3393.48
517.97	3270.61
518.17	3147.73
518.37	3049.43
518.57	3360.72
518.77	3424.20
518.97	3168.21
519.16	3139.54
519.36	3655.62
519.56	3325.90
519.76	3067.86
519.96	3135.44
520.16	3702.73
520.36	3241.93
520.56	3303.37
520.76	3069.91
520.96	3416.01
521.16	3680.20
521.35	3413.96
521.55	3315.66
521.75	3542.99
521.95	3295.18
522.15	3106.77
522.35	3063.76
522.55	3278.80
522.75	3600.33
522.95	3078.10
523.14	2957.27
523.34	3385.29
523.54	3323.85
523.74	3364.81
523.94	3198.93
524.14	3110.86
524.34	3479.50
524.54	3434.44
524.73	3106.77
524.93	3559.37
525.13	3475.40
525.33	3047.38
525.53	3366.86
525.73	3592.14
525.93	3420.11
526.13	3176.40
526.32	3069.91
526.52	3665.86
526.72	3608.52
526.92	3274.70
527.12	3098.58
527.32	3088.34
527.52	3536.84
527.71	3203.02
527.91	3213.26
528.11	3319.76
528.31	3405.77
528.51	3117.01
528.71	3336.14
528.90	3614.66
529.10	3723.21
529.30	3250.13
529.50	2910.16
529.70	3516.36
529.90	3291.09
530.09	3131.34
530.29	3014.61
530.49	3297.23
530.69	4114.37
530.89	3336.14
531.09	3237.84
531.28	3325.90
531.48	3715.02
531.68	3190.74
531.88	3194.83
532.08	3690.44
532.28	3368.91
532.47	3311.57
532.67	3237.84
532.87	3456.97
533.07	3182.54
533.27	3190.74
533.46	3231.69
533.66	3577.80
533.86	3426.25
534.06	3268.56
534.26	3139.54
534.45	3387.34
534.65	3569.61
534.85	3299.28
535.05	3125.20
535.25	3612.62
535.44	3051.47
535.64	3143.63
535.84	3176.40
536.04	3350.48
536.24	3366.86
536.43	3125.20
536.63	3157.97
536.83	3434.44
537.03	3422.16
537.22	2975.70
537.42	2951.12
537.62	3571.66
537.82	3297.23
538.02	3364.81
538.21	3252.17
538.41	4038.59
538.61	3600.33
538.81	3241.93
539.00	3250.13
539.20	3112.91
539.40	3340.24
539.60	3153.87
539.79	3377.10
539.99	3397.58
540.19	3256.27
540.39	3053.52
540.58	3196.88
540.78	3688.39
540.98	3420.11
541.18	3385.29
541.37	3286.99
541.57	3456.97
541.77	3485.64
541.97	3084.24
542.16	3055.57
542.36	3352.52
542.56	3237.84
542.76	3323.85
542.95	3307.47
543.15	3620.81
543.35	3551.18
543.54	3067.86
543.74	3084.24
543.94	3712.97
544.14	3258.32
544.33	3266.51
544.53	3125.20
544.73	3360.72
544.93	3370.96
545.12	3135.44
545.32	3205.07
545.52	3377.10
545.71	3190.74
545.91	3129.30
546.11	3162.06
546.30	3215.31
546.50	3409.87
546.70	3254.22
546.90	3205.07
547.09	2983.89
547.29	3545.03
547.49	3280.85
547.68	3137.49
547.88	3286.99
548.08	3567.56
548.27	3467.21
548.47	3119.06
548.67	3362.76
548.87	3565.51
549.06	3131.34
549.26	3074.00
549.46	3436.49
549.65	3231.69
549.85	3246.03
550.05	3258.32
550.24	3188.69
550.44	3364.81
550.64	3272.65
550.83	3311.57
551.03	3784.65
551.23	3565.51
551.42	3227.60
551.62	3131.34
551.82	3426.25
552.01	3370.96
552.21	3522.51
552.41	3235.79
552.60	3794.89
552.80	3409.87
553.00	3135.44
553.19	3192.78
553.39	3803.08
553.59	3164.11
553.78	3327.95
553.98	3141.58
554.17	3231.69
554.37	3512.27
554.57	3243.98
554.76	3028.95
554.96	3391.44
555.16	3444.68
555.35	3278.80
555.55	3383.24
555.75	3508.17
555.94	3542.99
556.14	3020.75
556.33	3192.78
556.53	3379.15
556.73	3397.58
556.92	3168.21
557.12	3078.10
557.32	3923.91
557.51	3825.61
557.71	3268.56
557.90	3348.43
558.10	3708.87
558.30	3336.14
558.49	3209.17
558.69	3164.11
558.88	3567.56
559.08	3475.40
559.28	3131.34
559.47	3268.56
559.67	3643.34
559.86	3844.04
560.06	3139.54
560.26	3186.64
560.45	3528.65
560.65	3409.87
560.84	3504.07
561.04	3037.14
561.24	3573.71
561.43	3172.30
561.63	3481.55
561.82	3291.09
562.02	3647.43
562.22	3227.60
562.41	3151.82
562.61	3155.92
562.80	3188.69
563.00	3995.59
563.19	3207.12
563.39	3295.18
563.59	3516.36
563.78	3223.50
563.98	2906.07
564.17	3157.97
564.37	3061.71
564.56	3377.10
564.76	3141.58
564.96	3256.27
565.15	3432.40
565.35	3950.53
565.54	3192.78
565.74	3268.56
565.93	3614.66
566.13	3393.48
566.32	3217.36
566.52	3254.22
566.71	3418.06
566.91	3573.71
567.11	3362.76
567.30	3123.15
567.50	3514.31
567.69	3499.98
567.89	3180.50
568.08	3108.82
568.28	3502.03
568.47	3176.40
568.67	3211.22
568.86	3190.74
569.06	3592.14
569.25	3411.92
569.45	3061.71
569.64	3186.64
569.84	3256.27
570.04	3516.36
570.23	3213.26
570.43	3327.95
570.62	3452.88
570.82	3751.88
571.01	3055.57
571.21	3106.77
571.40	3227.60
571.60	3573.71
571.79	3286.99
571.99	3147.73
572.18	3264.46
572.38	3475.40
572.57	3223.50
572.77	3196.88
572.96	4032.45
573.16	3510.22
573.35	3231.69
573.55	3332.05
573.74	3491.79
573.94	3254.22
574.13	3168.21
574.33	3434.44
574.52	3745.73
574.71	3540.94
574.91	3164.11
575.10	3059.67
575.30	3375.05
575.49	3305.42
575.69	3106.77
575.88	3114.96
576.08	3354.57
576.27	3573.71
576.47	3043.28
576.66	3389.39
576.86	3706.82
577.05	3428.30
577.25	3182.54
577.44	3327.95
577.64	3391.44
577.83	3708.87
578.02	3198.93
578.22	3282.89
578.41	3841.99
578.61	3321.81
578.80	3059.67
579.00	3174.35
579.19	3389.39
579.39	3526.60
579.58	3332.05
579.77	3172.30
579.97	3696.58
580.16	3639.24
580.36	3434.44
580.55	3209.17
580.75	3536.84
580.94	3467.21
581.13	3352.52
581.33	3416.01
581.52	3407.82
581.72	3874.76
581.91	3303.37
582.11	3155.92
582.30	3618.76
582.49	3545.03
582.69	3526.60
582.88	3213.26
583.08	3602.38
583.27	3643.34
583.47	3254.22
583.66	3127.25
583.85	3260.37
584.05	3375.05
584.24	3297.23
584.44	3278.80
584.63	3647.43
584.82	3678.15
585.02	3452.88
585.21	3383.24
585.41	3581.90
585.60	3403.72
585.79	3317.71
585.99	3448.78
586.18	3471.31
586.37	4517.82
586.57	6662.04
586.76	18704.10
586.96	37426.63
587.15	49923.33
587.34	57674.90
587.54	61185.11
587.73	53460.18
587.93	38389.17
588.12	29937.21
588.31	24610.44
588.51	21946.03
588.70	20623.05
588.89	17944.30
589.09	15101.72
589.28	13295.41
589.47	10383.20
589.67	7671.69
589.86	6320.03
590.06	4843.45
590.25	4478.91
590.44	3917.76
590.64	3637.19
590.83	3733.45
591.02	3676.10
591.22	3235.79
591.41	3274.70
591.60	3383.24
591.80	4024.26
591.99	2983.89
592.18	3149.78
592.38	3616.71
592.57	3377.10
592.76	3129.30
592.96	3229.65
593.15	3321.81
593.34	3614.66
593.54	3123.15
593.73	3354.57
593.92	3483.59
594.12	3557.32
594.31	3176.40
594.50	3370.96
594.70	3583.95
594.89	4104.13
595.08	3047.38
595.28	3401.68
595.47	4130.75
595.66	3698.63
595.86	3098.58
596.05	2983.89
596.24	3381.20
596.43	3786.69
596.63	3344.33
596.82	3375.05
597.01	3577.80
597.21	3805.13
597.40	3190.74
597.59	3295.18
597.79	3346.38
597.98	3600.33
598.17	3237.84
598.36	3205.07
598.56	3583.95
598.75	3356.62
598.94	3256.27
599.14	3207.12
599.33	3319.76
599.52	3614.66
599.71	3260.37
599.91	3221.45
600.10	3569.61
600.29	3512.27
600.48	3262.41
600.68	3315.66
600.87	3545.03
601.06	3323.85
601.26	3348.43
601.45	3370.96
601.64	3330.00
601.83	3770.31
602.03	3131.34
602.22	3098.58
602.41	3661.77
602.60	4003.78
602.80	3217.36
602.99	3319.76
603.18	3389.39
603.37	3401.68
603.57	3112.91
603.76	3180.50
603.95	3598.28
604.14	3358.67
604.34	3076.05
604.53	3106.77
604.72	3524.55
604.91	3639.24
605.10	3119.06
605.30	3069.91
605.49	3811.27
605.68	3715.02
605.87	3131.34
606.07	3184.59
606.26	3532.75
606.45	3565.51
606.64	3172.30
606.84	3110.86
607.03	3413.96
607.22	3612.62
607.41	3266.51
607.60	3147.73
607.80	3639.24
607.99	3416.01
608.18	3190.74
608.37	3209.17
608.56	3256.27
608.76	3637.19
608.95	3321.81
609.14	3131.34
609.33	3608.52
609.52	3702.73
609.72	3264.46
609.91	3291.09
610.10	3467.21
610.29	3821.51
610.48	3295.18
610.68	3295.18
610.87	3477.45
611.06	3614.66
611.25	3213.26
611.44	3313.61
611.63	3336.14
611.83	3643.34
612.02	3135.44
612.21	3344.33
612.40	3084.24
612.59	3217.36
612.79	3123.15
612.98	3221.45
613.17	3751.88
613.36	3477.45
613.55	3268.56
613.74	3145.68
613.93	3465.16
614.13	3504.07
614.32	3319.76
614.51	3162.06
614.70	3413.96
614.89	3381.20
615.08	3256.27
615.28	3545.03
615.47	3157.97
615.66	3481.55
615.85	3209.17
616.04	3248.08
616.23	3491.79
616.42	3389.39
616.62	3172.30
616.81	3221.45
617.00	3403.72
617.19	3465.16
617.38	3147.73
617.57	3311.57
617.76	3520.46
617.95	3549.13
618.15	3286.99
618.34	3413.96
618.53	3209.17
618.72	3676.10
618.91	3270.61
619.10	3266.51
619.29	3483.59
619.48	3452.88
619.68	3016.66
619.87	3155.92
620.06	3149.78
620.25	3616.71
620.44	3092.43
620.63	3196.88
620.82	3397.58
621.01	3430.35
621.20	3172.30
621.39	3221.45
621.59	3520.46
621.78	3418.06
621.97	3297.23
622.16	3344.33
622.35	3532.75
622.54	3606.47
622.73	3289.04
622.92	3000.27
623.11	3649.48
623.30	3293.13
623.49	3332.05
623.68	3020.75
623.88	3712.97
624.07	3340.24
624.26	3082.19
624.45	3149.78
624.64	3379.15
624.83	3504.07
625.02	3217.36
625.21	3213.26
625.40	3495.88
625.59	3731.40
625.78	3280.85
625.97	3352.52
626.16	3719.11
626.35	3598.28
626.54	3119.06
626.74	3368.91
626.93	3338.19
627.12	3389.39
627.31	3262.41
627.50	3239.89
627.69	3569.61
627.88	3205.07
628.07	3106.77
628.26	2963.41
628.45	3360.72
628.64	3260.37
628.83	3145.68
629.02	3045.33
629.21	3663.82
629.40	3573.71
629.59	3114.96
629.78	3276.75
629.97	3475.40
630.16	3393.48
630.35	3184.59
630.54	3323.85
630.73	3379.15
630.92	3512.27
631.11	3121.10
631.30	3338.19
631.49	3616.71
631.68	3434.44
631.87	3200.98
632.06	3119.06
632.25	3932.10
632.44	3442.64
632.63	3256.27
632.82	3237.84
633.01	3291.09
633.20	3522.51
633.39	3172.30
633.58	3020.75
633.77	3430.35
633.96	3579.85
634.15	3291.09
634.34	3192.78
634.53	3581.90
634.72	3307.47
634.91	3035.09
635.10	3157.97
635.29	3592.14
635.48	3504.07
635.67	3041.23
635.86	3045.33
636.05	3760.07
636.24	3450.83
636.43	3164.11
636.62	3303.37
636.81	2979.79
637.00	3479.50
637.19	3141.58
637.38	3180.50
637.57	3375.05
637.76	3413.96
637.95	3385.29
638.14	3317.71
638.33	3456.97
638.52	3508.17
638.71	3041.23
638.89	3104.72
639.08	4032.45
639.27	3629.00
639.46	3321.81
639.65	3676.10
639.84	3833.80
640.03	4011.97
640.22	3563.47
640.41	3526.60
640.60	3436.49
640.79	3618.76
640.98	3319.76
641.17	3338.19
641.36	3717.06
641.55	3663.82
641.74	3100.62
641.92	3041.23
642.11	3264.46
642.30	3315.66
642.49	3037.14
642.68	3164.11
642.87	3567.56
643.06	3532.75
643.25	3067.86
643.44	3094.48
643.63	3370.96
643.82	3569.61
644.00	3092.43
644.19	3213.26
644.38	3229.65
644.57	3557.32
644.76	3184.59
644.95	3272.65
645.14	3454.92
645.33	3368.91
645.52	3241.93
645.71	3041.23
645.89	3270.61
646.08	3332.05
646.27	3153.87
646.46	3362.76
646.65	3248.08
646.84	3454.92
647.03	3082.19
647.22	3332.05
647.40	3483.59
647.59	3293.13
647.78	2977.75
647.97	3237.84
648.16	3266.51
648.35	3729.35
648.54	3483.59
648.73	3196.88
648.91	3618.76
649.10	3399.63
649.29	3059.67
649.48	3074.00
649.67	3583.95
649.86	3491.79
650.05	3270.61
650.23	3450.83
650.42	3356.62
650.61	3651.53
650.80	3409.87
650.99	3514.31
651.18	3655.62
651.36	3704.78
651.55	3110.86
651.74	3305.42
651.93	3362.76
652.12	3393.48
652.31	3200.98
652.49	3252.17
652.68	3362.76
652.87	3809.22
653.06	3231.69
653.25	3411.92
653.44	3471.31
653.62	3821.51
653.81	3190.74
654.00	3196.88
654.19	3610.57
654.38	3977.16
654.56	3289.04
654.75	3114.96
654.94	3639.24
655.13	3491.79
655.32	3145.68
655.51	3317.71
655.69	3373.00
655.88	3665.86
656.07	3069.91
656.26	3139.54
656.45	3239.89
656.63	3428.30
656.82	3114.96
657.01	3526.60
657.20	3266.51
657.38	3786.69
657.57	3243.98
657.76	2996.18
657.95	3553.23
658.14	3305.42
658.32	3237.84
658.51	2985.94
658.70	3540.94
658.89	3475.40
659.08	3270.61
659.26	3428.30
659.45	3215.31
659.64	3588.04
659.83	3139.54
660.01	3594.19
660.20	3477.45
660.39	3778.50
660.58	2811.86
660.76	3227.60
660.95	3209.17
661.14	3475.40
661.33	2998.23
661.51	3223.50
661.70	3319.76
661.89	3571.66
662.08	3221.45
662.26	2998.23
662.45	3147.73
662.64	3872.71
662.83	3272.65
663.01	3139.54
663.20	3323.85
663.39	3712.97
663.58	3184.59
663.76	3143.63
663.95	3731.40
664.14	3225.55
664.32	3248.08
664.51	3074.00
664.70	3100.62
664.89	3559.37
665.07	3053.52
665.26	3258.32
665.45	3094.48
665.64	3528.65
665.82	3157.97
666.01	3254.22
666.20	3233.74
666.38	3643.34
666.57	3499.98
666.76	5744.55
666.95	12719.93
667.13	19115.74
667.32	22369.96
667.51	25159.30
667.69	25843.32
667.88	20823.75
668.07	15361.81
668.25	13233.97
668.44	11671.37
668.63	10184.55
668.81	8992.63
669.00	7704.46
669.19	7239.57
669.38	6254.50
669.56	5296.05
669.75	4810.68
669.94	4353.98
670.12	3780.55
670.31	3373.00
670.50	3545.03
670.68	3536.84
670.87	3598.28
671.06	3123.15
671.24	3262.41
671.43	3774.41
671.62	3485.64
671.80	3211.22
671.99	3350.48
672.18	3459.02
672.36	3491.79
672.55	3397.58
672.74	3264.46
672.92	3368.91
673.11	3549.13
673.29	3106.77
673.48	3327.95
673.67	3438.54
673.85	3585.99
674.04	3065.81
674.23	3280.85
674.41	3928.00
674.60	3196.88
674.79	3006.42
674.97	3041.23
675.16	3602.38
675.34	3661.77
675.53	3098.58
675.72	3268.56
675.90	3911.62
676.09	3303.37
676.28	3289.04
676.46	3080.14
676.65	3622.86
676.83	3270.61
677.02	3256.27
677.21	3319.76
677.39	3499.98
677.58	3237.84
677.77	3086.29
677.95	3125.20
678.14	3401.68
678.32	3397.58
678.51	3190.74
678.70	3561.42
678.88	3336.14
679.07	3438.54
679.25	3246.03
679.44	3231.69
679.63	3207.12
679.81	3471.31
680.00	3483.59
680.18	3303.37
680.37	3778.50
680.55	3403.72
680.74	3002.32
680.93	2930.64
681.11	3549.13
681.30	3407.82
681.48	3225.55
681.67	3264.46
681.85	3479.50
682.04	3233.74
682.23	3399.63
682.41	3338.19
682.60	3409.87
682.78	3381.20
682.97	3098.58
683.15	3219.41
683.34	3520.46
683.53	3786.69
683.71	3088.34
683.90	3217.36
684.08	3835.85
684.27	3327.95
684.45	3303.37
684.64	3327.95
684.82	3450.83
685.01	3565.51
685.19	3180.50
685.38	3442.64
685.57	3463.12
685.75	3336.14
685.94	3125.20
686.12	3082.19
686.31	3231.69
686.49	3743.69
686.68	2965.46
686.86	3211.22
687.05	3381.20
687.23	3758.02
687.42	3131.34
687.60	3057.62
687.79	3567.56
687.97	3829.70
688.16	3360.72
688.34	3397.58
688.53	3063.76
688.71	3540.94
688.90	3536.84
689.08	3272.65
689.27	3127.25
689.45	3616.71
689.64	3297.23
689.82	3243.98
690.01	3551.18
690.19	3530.70
690.38	3264.46
690.56	3344.33
690.75	3239.89
690.93	3260.37
691.12	3094.48
691.30	3266.51
691.49	3284.94
691.67	3444.68
691.86	3536.84
692.04	3196.88
692.23	3330.00
692.41	3397.58
692.60	3602.38
692.78	3315.66
692.97	3403.72
693.15	3538.89
693.34	3450.83
693.52	3454.92
693.71	3303.37
693.89	3340.24
694.08	3078.10
694.26	3239.89
694.44	3573.71
694.63	3665.86
694.81	3211.22
695.00	3198.93
695.18	3639.24
695.37	3985.35
695.55	3319.76
695.74	3258.32
695.92	3205.07
696.10	3676.10
696.29	3012.56
696.47	3254.22
696.66	3188.69
696.84	3121.10
697.03	3289.04
697.21	3483.59
697.40	4708.28
697.58	3672.01
697.76	3182.54
697.95	3170.26
698.13	3231.69
698.32	3311.57
698.50	3192.78
698.68	3180.50
698.87	3532.75
699.05	3729.35
699.24	3160.02
699.42	3229.65
699.61	3411.92
699.79	3516.36
699.97	3221.45
700.16	3090.38
700.34	3084.24
700.53	3577.80
700.71	3381.20
700.89	3303.37
701.08	3413.96
701.26	3401.68
701.45	3452.88
701.63	3166.16
701.81	3342.28
702.00	3229.65
702.18	3297.23
702.37	3203.02
702.55	3626.95
702.73	3403.72
702.92	3190.74
703.10	3487.69
703.28	3639.24
703.47	3192.78
703.65	3305.42
703.84	3360.72
704.02	3305.42
704.20	3794.89
704.39	3125.20
704.57	3160.02
704.75	3491.79
704.94	3499.98
705.12	3358.67
705.30	3985.35
705.49	8218.50
705.67	14796.57
705.86	19513.05
706.04	21583.54
706.22	23942.80
706.41	22242.99
706.59	16697.09
706.77	13377.33
706.96	11661.13
707.14	10921.82
707.32	9308.02
707.51	8157.06
707.69	6899.61
707.87	5939.11
708.06	4712.38
708.24	4282.30
708.42	4014.02
708.61	4298.69
708.79	3311.57
708.97	3319.76
709.16	3620.81
709.34	3424.20
709.52	3192.78
709.71	3250.13
709.89	3569.61
710.07	3227.60
710.26	3112.91
710.44	3254.22
710.62	3647.43
710.80	3452.88
710.99	3262.41
711.17	3352.52
711.35	3280.85
711.54	3282.89
711.72	3428.30
711.90	3246.03
712.09	3538.89
712.27	3276.75
712.45	3340.24
712.63	3237.84
712.82	3342.28
713.00	3520.46
713.18	3368.91
713.37	3483.59
713.55	3585.99
713.73	3526.60
713.91	3262.41
714.10	3170.26
714.28	3422.16
714.46	3532.75
714.65	3366.86
714.83	3297.23
715.01	3448.78
715.19	3403.72
715.38	3151.82
715.56	3356.62
715.74	3360.72
715.92	3303.37
716.11	3588.04
716.29	3028.95
716.47	3450.83
716.65	3338.19
716.84	3024.85
717.02	3243.98
717.20	3043.28
717.38	3264.46
717.57	3344.33
717.75	3282.89
717.93	3352.52
718.11	3561.42
718.30	3098.58
718.48	3166.16
718.66	3665.86
718.84	3717.06
719.03	3305.42
719.21	3024.85
719.39	3954.63
719.57	3540.94
719.75	3284.94
719.94	3096.53
720.12	3305.42
720.30	3485.64
720.48	3278.80
720.67	3241.93
720.85	3241.93
721.03	3364.81
721.21	3166.16
721.39	3309.52
721.58	3653.58
721.76	3475.40
721.94	3162.06
722.12	3303.37
722.30	3733.45
722.49	3307.47
722.67	3217.36
722.85	3254.22
723.03	3020.75
723.21	3362.76
723.40	3198.93
723.58	3313.61
723.76	3567.56
723.94	3657.67
724.12	3229.65
724.30	3461.07
724.49	3600.33
724.67	3336.14
724.85	3280.85
725.03	3094.48
725.21	3491.79
725.40	3626.95
725.58	3252.17
725.76	3434.44
725.94	3573.71
726.12	3203.02
726.30	3260.37
726.49	3182.54
726.67	3313.61
726.85	3561.42
727.03	3895.24
727.21	4857.78
727.39	6211.49
727.57	6498.20
727.76	6782.87
727.94	6717.34
728.12	5797.80
728.30	5210.03
728.48	4810.68
728.66	4501.44
728.84	4446.14
729.03	3995.59
729.21	3633.10
729.39	3549.13
729.57	3434.44
729.75	3436.49
729.93	3504.07
730.11	3155.92
730.30	3330.00
730.48	3360.72
730.66	3215.31
730.84	3364.81
731.02	3336.14
731.20	3366.86
731.38	3221.45
731.56	3131.34
731.74	3153.87
731.93	3506.12
732.11	3346.38
732.29	3198.93
732.47	3579.85
732.65	3583.95
732.83	3434.44
733.01	3389.39
733.19	3235.79
733.37	3663.82
733.56	3176.40
733.74	2981.84
733.92	3848.13
734.10	3377.10
734.28	3467.21
734.46	3020.75
734.64	3373.00
734.82	3243.98
735.00	3182.54
735.18	3188.69
735.36	3502.03
735.54	3471.31
735.73	3133.39
735.91	3375.05
736.09	3747.78
736.27	3377.10
736.45	3338.19
736.63	2963.41
736.81	3385.29
736.99	3739.59
737.17	3393.48
737.35	3137.49
737.53	3475.40
737.71	3452.88
737.89	3473.36
738.07	3123.15
738.25	3233.74
738.43	3131.34
738.61	3198.93
738.80	3190.74
738.98	3250.13
739.16	3319.76
739.34	3196.88
739.52	3530.70
739.70	3327.95
739.88	3600.33
740.06	3305.42
740.24	2971.60
740.42	3665.86
740.60	3100.62
740.78	3289.04
740.96	2928.60
741.14	3360.72
741.32	3409.87
741.50	3065.81
741.68	3422.16
741.86	3737.54
742.04	3098.58
742.22	3176.40
742.40	3219.41
742.58	3594.19
742.76	3264.46
742.94	3442.64
743.12	3080.14
743.30	3512.27
743.48	3526.60
743.66	3125.20
743.84	3203.02
744.02	3295.18
744.20	3477.45
744.38	3110.86
744.56	3229.65
744.74	3856.33
744.92	3516.36
745.10	3373.00
745.28	3291.09
745.46	3831.75
745.64	3370.96
745.82	3274.70
746.00	3172.30
746.18	3463.12
746.36	3246.03
746.54	3276.75
746.72	3284.94
746.90	3299.28
747.08	3708.87
747.26	3198.93
747.44	3385.29
747.62	3624.90
747.80	3524.55
747.98	3360.72
748.15	3237.84
748.33	3770.31
748.51	3463.12
748.69	3270.61
748.87	3100.62
749.05	3399.63
749.23	3483.59
749.41	3153.87
749.59	3241.93
749.77	3651.53
749.95	3364.81
750.13	3155.92
750.31	3393.48
750.49	3420.11
750.67	3571.66
750.85	3307.47
751.03	3160.02
751.20	3930.05
751.38	3532.75
751.56	3235.79
751.74	3196.88
751.92	3391.44
752.10	3237.84
752.28	3395.53
752.46	3174.35
752.64	3440.59
752.82	3387.34
753.00	3366.86
753.18	3170.26
753.35	3358.67
753.53	3420.11
753.71	3082.19
753.89	3235.79
754.07	3465.16
754.25	3708.87
754.43	3338.19
754.61	3162.06
754.79	3561.42
754.97	3385.29
755.14	3454.92
755.32	3174.35
755.50	3479.50
755.68	3481.55
755.86	3096.53
756.04	3117.01
756.22	3033.04
756.40	3538.89
756.57	3405.77
756.75	3106.77
756.93	3647.43
757.11	3629.00
757.29	3074.00
757.47	3149.78
757.65	3026.90
757.82	2930.64
758.00	3086.29
758.18	3110.86
758.36	3295.18
758.54	3770.31
758.72	3098.58
758.90	3319.76
759.07	3432.40
759.25	3194.83
759.43	3289.04
759.61	3002.32
759.79	4620.22
759.97	3684.30
760.15	3307.47
760.32	3211.22
760.50	3495.88
760.68	3788.74
760.86	3080.14
761.04	3434.44
761.22	3700.68
761.39	3508.17
761.57	3348.43
761.75	3149.78
761.93	3581.90
762.11	3401.68
762.28	3397.58
762.46	3151.82
762.64	3692.49
762.82	3125.20
763.00	3151.82
763.18	3395.53
763.35	3153.87
763.53	3532.75
763.71	3217.36
763.89	3063.76
764.07	3540.94
764.24	3477.45
764.42	3250.13
764.60	3250.13
764.78	3493.83
764.96	3579.85
765.13	3434.44
765.31	3024.85
765.49	3563.47
765.67	3188.69
765.84	3190.74
766.02	3076.05
766.20	3125.20
766.38	3475.40
766.56	3254.22
766.73	3313.61
766.91	3450.83
767.09	3520.46
767.27	3237.84
767.44	3131.34
767.62	3549.13
767.80	3442.64
767.98	3102.67
768.15	3207.12
768.33	3577.80
768.51	3614.66
768.69	3336.14
768.87	3233.74
769.04	3368.91
769.22	4034.50
769.40	3330.00
769.58	3348.43
769.75	3528.65
769.93	3694.54
770.11	3137.49
770.28	3065.81
770.46	3645.38
770.64	3428.30
770.82	3155.92
770.99	3067.86
771.17	3590.09
771.35	3370.96
771.53	3272.65
771.70	3188.69
771.88	3479.50
772.06	3373.00
772.23	3104.72
772.41	3205.07
772.59	3397.58
772.77	3323.85
772.94	3180.50
773.12	3254.22
773.30	3252.17
773.47	3360.72
773.65	3082.19
773.83	3332.05
774.01	3428.30
774.18	3016.66
774.36	3196.88
774.54	3102.67
774.71	3512.27
774.89	3106.77
775.07	3137.49
775.24	3305.42
775.42	3368.91
775.60	3866.56
775.78	3137.49
775.95	3020.75
776.13	3123.15
776.31	3037.14
776.48	3332.05
776.66	3360.72
776.84	3411.92
777.01	3170.26
777.19	3108.82
777.37	3117.01
777.54	3649.48
777.72	3844.04
777.90	3364.81
778.07	3160.02
778.25	4114.37
778.43	3651.53
778.60	3102.67
778.78	3188.69
778.96	3753.93
779.13	3123.15
779.31	3264.46
779.49	3330.00
779.66	3430.35
779.84	3301.33
780.01	3133.39
780.19	3061.71
780.37	3712.97
780.54	3565.51
780.72	3026.90
780.90	3178.45
781.07	3344.33
781.25	3327.95
781.43	3311.57
781.60	3237.84
781.78	3610.57
781.95	3495.88
782.13	3166.16
782.31	3172.30
782.48	3119.06
782.66	3434.44
782.83	3405.77
783.01	3428.30
783.19	3590.09
783.36	3430.35
783.54	3094.48
783.72	3344.33
783.89	3315.66
784.07	3508.17
784.24	3442.64
784.42	3418.06
784.60	3573.71
784.77	3516.36
784.95	2852.82
785.12	3176.40
785.30	3565.51
785.47	3225.55
785.65	3117.01
785.83	3241.93
786.00	3350.48
786.18	3467.21
786.35	3139.54
786.53	3059.67
786.71	3710.92
786.88	3542.99
787.06	3307.47
787.23	3246.03
787.41	3272.65
787.58	3424.20
787.76	3160.02
787.94	3215.31
788.11	3508.17
788.29	3139.54
788.46	3164.11
788.64	3106.77
788.81	3299.28
788.99	3223.50
789.16	3110.86
789.34	3231.69
789.52	3336.14
789.69	3358.67
789.87	3022.80
790.04	3203.02
790.22	3375.05
790.39	3893.19
790.57	3145.68
790.74	3102.67
790.92	3618.76
791.09	3190.74
791.27	3291.09
791.44	3231.69
791.62	3354.57
791.79	3538.89
791.97	3297.23
792.15	3534.79
792.32	3534.79
792.50	3655.62
792.67	3385.29
792.85	3483.59
793.02	3575.75
793.20	3332.05
793.37	3071.95
793.55	3147.73
793.72	3157.97
793.90	3491.79
794.07	3182.54
794.25	3117.01
794.42	3545.03
794.60	3348.43
794.77	3215.31
794.95	3340.24
795.12	3639.24
795.30	3370.96
795.47	2930.64
795.65	3581.90
795.82	3442.64
796.00	3246.03
796.17	3348.43
796.34	3117.01
796.52	3540.94
796.69	3674.06
796.87	3280.85
797.04	3301.33
797.22	3680.20
797.39	3565.51
797.57	3416.01
797.74	3186.64
797.92	3461.07
798.09	3299.28
798.27	3522.51
798.44	3190.74
798.62	3305.42
798.79	3536.84
798.96	3330.00
799.14	3129.30
799.31	3995.59
799.49	3432.40
799.66	3250.13
799.84	3149.78
800.01	3196.88
800.19	3487.69
800.36	3035.09
800.53	3250.13
800.71	3510.22
800.88	3872.71
801.06	3153.87
801.23	3180.50
801.41	3375.05
801.58	3280.85
801.75	3227.60
801.93	3174.35
802.10	3604.42
802.28	3387.34
802.45	3190.74
802.63	3200.98
802.80	3747.78
802.97	3422.16
803.15	3209.17
803.32	3180.50
803.50	3293.13
803.67	3305.42
803.84	3153.87
804.02	3272.65
804.19	3276.75
804.37	2893.78
804.54	2942.93
804.71	3160.02
804.89	3375.05
805.06	3209.17
805.24	3127.25
805.41	3010.51
805.58	3319.76
805.76	4001.73
805.93	3147.73
806.10	3274.70
806.28	3616.71
806.45	3362.76
806.63	3358.67
806.80	3270.61
806.97	3545.03
807.15	3520.46
807.32	3393.48
807.49	3192.78
807.67	3170.26
807.84	3575.75
808.01	3049.43
808.19	3442.64
808.36	3913.67
808.54	3362.76
808.71	3190.74
808.88	3141.58
809.06	3690.44
809.23	3784.65
809.40	3229.65
809.58	3108.82
809.75	3340.24
809.92	3123.15
810.10	3557.32
810.27	3168.21
810.44	3559.37
810.62	3571.66
810.79	3286.99
810.96	3200.98
811.14	3327.95
811.31	3598.28
811.48	3387.34
811.66	3231.69
811.83	3669.96
812.00	3532.75
812.18	3319.76
812.35	3497.93
812.52	3327.95
812.69	3299.28
812.87	3190.74
813.04	3180.50
813.21	3448.78
813.39	3305.42
813.56	3065.81
813.73	3483.59
813.91	3225.55
814.08	3483.59
814.25	3231.69
814.42	3049.43
814.60	3405.77
814.77	3459.02
814.94	3151.82
815.12	3209.17
815.29	3805.13
815.46	3360.72
815.63	3172.30
815.81	3127.25
815.98	3334.09
816.15	3393.48
816.33	3221.45
816.50	3213.26
816.67	3442.64
816.84	3395.53
817.02	3092.43
817.19	3141.58
817.36	3440.59
817.53	3499.98
817.71	3067.86
817.88	3256.27
818.05	3373.00
818.22	3356.62
818.40	3428.30
818.57	3180.50
818.74	3569.61
818.91	3334.09
819.09	3348.43
819.26	3364.81
819.43	3209.17
819.60	3297.23
819.78	3469.26
819.95	3317.71
820.12	3221.45
820.29	3712.97
820.47	3469.26
820.64	3055.57
820.81	3192.78
820.98	3246.03
821.15	3258.32
821.33	3377.10
821.50	3012.56
821.67	3520.46
821.84	3194.83
822.02	3172.30
822.19	3549.13
822.36	3307.47
822.53	3057.62
822.70	3055.57
822.88	3411.92
823.05	3784.65
823.22	3270.61
823.39	3123.15
823.56	3399.63
823.74	3807.17
823.91	3016.66
824.08	3110.86
824.25	3243.98
824.42	3729.35
824.60	3002.32
824.77	3235.79
824.94	3409.87
825.11	3602.38
825.28	3067.86
825.45	3270.61
825.63	3442.64
825.80	3190.74
825.97	3301.33
826.14	3233.74
826.31	3155.92
826.48	3518.41
826.66	3166.16
826.83	3098.58
827.00	3264.46
827.17	3258.32
827.34	3252.17
827.51	3186.64
827.69	3469.26
827.86	3139.54
828.03	3231.69
828.20	3270.61
828.37	3243.98
828.54	3583.95
828.71	3071.95
828.89	3260.37
829.06	3510.22
829.23	3745.73
829.40	3162.06
829.57	3176.40
829.74	3571.66
829.91	3354.57
830.09	3153.87
830.26	3336.14
830.43	3772.36
830.60	3420.11
830.77	3297.23
830.94	3379.15
831.11	3614.66
831.28	3368.91
831.46	3315.66
831.63	3090.38
831.80	3733.45
831.97	3260.37
832.14	3198.93
832.31	3200.98
832.48	3377.10
832.65	3575.75
832.82	3327.95
832.99	3221.45
833.17	3219.41
833.34	3682.25
833.51	3170.26
833.68	2910.16
833.85	3653.58
834.02	3227.60
834.19	3151.82
834.36	3200.98
834.53	3567.56
834.70	3635.14
834.87	3133.39
835.04	2852.82
835.22	3246.03
835.39	3360.72
835.56	3059.67
835.73	2951.12
835.90	3602.38
836.07	3198.93
836.24	3137.49
836.41	3045.33
836.58	3231.69
836.75	3651.53
836.92	3059.67
837.09	2975.70
837.26	3649.48
837.43	3497.93
837.60	3004.37
837.77	3045.33
837.94	3626.95
838.12	3708.87
838.29	2981.84
838.46	2830.29
838.63	3207.12
838.80	3770.31
838.97	3117.01
839.14	2963.41
839.31	3510.22
839.48	3430.35
839.65	3016.66
839.82	3114.96
839.99	3524.55
840.16	3469.26
840.33	2969.55
840.50	3096.53
840.67	3299.28
840.84	2981.84
841.01	2975.70
841.18	2926.55
841.35	3420.11
841.52	3647.43
841.69	3438.54
841.86	3035.09
842.03	3383.24
842.20	3575.75
842.37	2977.75
842.54	3018.71
842.71	3471.31
842.88	3121.10
843.05	3002.32
843.22	3008.47
843.39	3618.76
843.56	3274.70
843.73	2947.03
843.90	3094.48
844.07	3405.77
844.24	3647.43
844.41	3135.44
844.58	3033.04
844.75	3461.07
844.92	3532.75
845.09	3043.28
845.26	2959.31
845.43	3622.86
845.60	3377.10
845.77	3121.10
845.94	3131.34
846.10	3567.56
846.27	3024.85
846.44	2914.26
846.61	2926.55
846.78	3532.75
846.95	3637.19
847.12	2971.60
847.29	3057.62
847.46	3344.33
847.63	3547.08
847.80	2899.92
847.97	3008.47
848.14	3968.96
848.31	3332.05
848.48	2908.12
848.65	2920.40
848.82	3200.98
848.98	3909.57
849.15	3166.16
849.32	3151.82
849.49	3706.82
849.66	3399.63
849.83	2953.17
850.00	2942.93
850.17	3614.66
850.34	3325.90
850.51	2953.17
850.68	3092.43
850.85	3897.28
851.01	3493.83
851.18	2981.84
851.35	3057.62
851.52	3440.59
851.69	3774.41
851.86	2942.93
852.03	2922.45
852.20	3614.66
852.37	3459.02
852.53	2914.26
852.70	2951.12
852.87	3489.74
853.04	3592.14
853.21	2938.84
853.38	3274.70
853.55	3649.48
853.72	3770.31
853.89	2932.69
854.05	2983.89
854.22	3463.12
854.39	3334.09
854.56	2949.08
854.73	3147.73
854.90	3225.55
855.07	3401.68
855.23	2934.74
855.40	2926.55
855.57	3389.39
855.74	2959.31
855.91	3200.98
856.08	2846.68
856.25	3090.38
856.41	3340.24
856.58	3061.71
856.75	3078.10
856.92	3117.01
857.09	3614.66
857.26	2856.92
857.42	3041.23
857.59	3598.28
857.76	3413.96
857.93	2951.12
858.10	3067.86
858.27	3258.32
858.43	3444.68
858.60	3131.34
858.77	2879.44
858.94	3338.19
859.11	3647.43
859.27	3098.58
859.44	3008.47
859.61	3852.23
859.78	3565.51
859.95	3045.33
860.12	2977.75
860.28	4005.83
860.45	3831.75
860.62	2889.68
860.79	3100.62
860.95	3373.00
861.12	3278.80
861.29	2924.50
861.46	2953.17
861.63	3420.11
861.79	3497.93
861.96	2854.87
862.13	2969.55
862.30	3694.54
862.47	3215.31
862.63	2904.02
862.80	3082.19
862.97	3659.72
863.14	3469.26
863.30	3049.43
863.47	2928.60
863.64	3733.45
863.81	3463.12
863.97	2930.64
864.14	3037.14
864.31	3348.43
864.48	3422.16
864.65	3000.27
864.81	3129.30
864.98	3629.00
865.15	3686.34
865.32	3000.27
865.48	3033.04
865.65	3764.17
865.82	3266.51
865.98	3102.67
866.15	3061.71
866.32	3391.44
866.49	3317.71
866.65	3196.88
866.82	3057.62
866.99	3444.68
867.16	3297.23
867.32	3121.10
867.49	2934.74
867.66	3340.24
867.83	3323.85
867.99	2965.46
868.16	3008.47
868.33	3133.39
868.49	3348.43
868.66	2992.08
868.83	3123.15
868.99	3479.50
869.16	3510.22
869.33	3143.63
869.50	3129.30
869.66	3475.40
869.83	3418.06
870.00	2901.97
870.16	3174.35
870.33	3424.20
870.50	3590.09
870.66	3067.86
870.83	3012.56
871.00	3450.83
871.17	3612.62
871.33	3049.43
871.50	3004.37
871.67	3385.29
871.83	3182.54
872.00	3088.34
872.17	3039.19
872.33	3936.20
872.50	3622.86
872.67	2959.31
872.83	3018.71
873.00	3536.84
873.17	3459.02
873.33	3041.23
873.50	3043.28
873.67	3264.46
873.83	3262.41
874.00	3014.61
874.16	3110.86
874.33	3420.11
874.50	3133.39
874.66	2916.31
874.83	3172.30
875.00	3690.44
875.16	3581.90
875.33	3123.15
875.50	2797.53
875.66	3360.72
875.83	3463.12
875.99	3076.05
876.16	3104.72
876.33	3121.10
876.49	3389.39
876.66	3090.38
876.83	3061.71
876.99	3149.78
877.16	3481.55
877.32	2947.03
877.49	3137.49
877.66	3506.12
877.82	3708.87
877.99	3061.71
878.15	3286.99
878.32	3444.68
878.49	3583.95
878.65	3096.53
878.82	3260.37
878.98	3272.65
879.15	3661.77
879.32	3221.45
879.48	3270.61
879.65	3428.30
879.81	3360.72
879.98	3119.06
880.15	3151.82
880.31	3635.14
880.48	3311.57
880.64	3131.34
880.81	3155.92
880.97	3733.45
881.14	3778.50
881.31	2985.94
881.47	3192.78
881.64	3330.00
881.80	3033.04
881.97	3213.26
882.13	3024.85
882.30	3284.94
882.47	3332.05
882.63	2975.70
882.80	3024.85
882.96	3262.41
883.13	3598.28
883.29	3139.54
883.46	3020.75
883.62	3919.81
883.79	3432.40
883.95	3164.11
884.12	2944.98
884.29	3762.12
884.45	3499.98
884.62	3033.04
884.78	2938.84
884.95	3766.21
885.11	3272.65
885.28	3104.72
885.44	3088.34
885.61	3594.19
885.77	3706.82
885.94	3114.96
886.10	2992.08
886.27	3456.97
886.43	3852.23
886.60	3233.74
886.76	3065.81
886.93	3280.85
887.09	3506.12
887.26	2938.84
887.42	3094.48
887.59	3712.97
887.75	4016.07
887.92	3223.50
888.08	3194.83
888.25	3803.08
888.41	3676.10
888.58	3119.06
888.74	3018.71
888.91	3278.80
>>>>>End Processed Spectral Data<<<<<
