SpectraSuite Data File
++++++++++++++++++++++++++++++++++++
Date: Fri May 06 09:29:03 CEST 2016
User: root
Dark Spectrum Present: No
Reference Spectrum Present: No
Number of Sampled Component Spectra: 1
Spectrometers: USB4C02835
Integration Time (usec): 100000 (USB4C02835)
Spectra Averaged: 1 (USB4C02835)
Boxcar Smoothing: 0 (USB4C02835)
Correct for Electrical Dark: No (USB4C02835)
Strobe/Lamp Enabled: No (USB4C02835)
Correct for Detector Non-linearity: No (USB4C02835)
Correct for Stray Light: No (USB4C02835)
Number of Pixels in Processed Spectrum: 3648
>>>>>Begin Processed Spectral Data<<<<<
177.47	2330.59
177.69	2330.59
177.91	2330.59
178.13	2258.91
178.36	2344.92
178.58	3180.50
178.80	3258.32
179.02	3207.12
179.24	3254.22
179.46	2815.96
179.68	2889.68
179.90	3467.21
180.13	3442.64
180.35	2781.14
180.57	2901.97
180.79	3674.06
181.01	3516.36
181.23	3008.47
181.45	3117.01
181.67	3616.71
181.90	3649.48
182.12	3108.82
182.34	2770.90
182.56	3551.18
182.78	3549.13
183.00	2938.84
183.22	2983.89
183.44	3086.29
183.66	4079.55
183.89	3065.81
184.11	3014.61
184.33	3585.99
184.55	3758.02
184.77	2953.17
184.99	3000.27
185.21	3403.72
185.43	3928.00
185.65	2926.55
185.87	2901.97
186.10	3936.20
186.32	3999.68
186.54	3030.99
186.76	3033.04
186.98	3667.91
187.20	3422.16
187.42	2881.49
187.64	2971.60
187.86	3547.08
188.08	3684.30
188.30	2815.96
188.52	2926.55
188.75	3794.89
188.97	3768.26
189.19	2928.60
189.41	2893.78
189.63	3547.08
189.85	3332.05
190.07	2813.91
190.29	2783.19
190.51	3545.03
190.73	3155.92
190.95	3155.92
191.17	2996.18
191.39	3076.05
191.61	3348.43
191.84	3006.42
192.06	3088.34
192.28	3100.62
192.50	4134.85
192.72	3143.63
192.94	3035.09
193.16	3659.72
193.38	3639.24
193.60	2881.49
193.82	3168.21
194.04	3669.96
194.26	3592.14
194.48	3004.37
194.70	2994.13
194.92	3409.87
195.14	3665.86
195.36	2938.84
195.58	3108.82
195.80	3389.39
196.02	3356.62
196.24	2920.40
196.46	3057.62
196.69	3338.19
196.91	3989.44
197.13	2906.07
197.35	2955.22
197.57	3882.95
197.79	3612.62
198.01	3043.28
198.23	3012.56
198.45	3661.77
198.67	3239.89
198.89	2820.05
199.11	3121.10
199.33	3336.14
199.55	2957.27
199.77	2959.31
199.99	3114.96
200.21	3344.33
200.43	3524.55
200.65	2770.90
200.87	2777.05
201.09	3459.02
201.31	3393.48
201.53	3010.51
201.75	3008.47
201.97	3538.89
202.19	3473.36
202.41	3033.04
202.63	3080.14
202.85	3522.51
203.07	3559.37
203.29	3100.62
203.51	2887.64
203.73	3305.42
203.95	4116.42
204.17	3000.27
204.39	3178.45
204.61	3373.00
204.83	3327.95
205.05	3121.10
205.27	2985.94
205.49	3983.30
205.71	3444.68
205.93	2834.39
206.15	2832.34
206.37	3469.26
206.59	3362.76
206.81	2856.92
207.03	2805.72
207.25	3262.41
207.47	3696.58
207.69	2981.84
207.91	3237.84
208.13	3801.03
208.34	3334.09
208.56	2934.74
208.78	3030.99
209.00	3370.96
209.22	3260.37
209.44	2969.55
209.66	2971.60
209.88	3459.02
210.10	3475.40
210.32	2901.97
210.54	3004.37
210.76	3276.75
210.98	3694.54
211.20	2830.29
211.42	3080.14
211.64	3760.07
211.86	3551.18
212.08	2969.55
212.30	2936.79
212.52	3422.16
212.74	3542.99
212.96	3084.24
213.17	3006.42
213.39	3663.82
213.61	3852.23
213.83	2904.02
214.05	2766.81
214.27	3678.15
214.49	3229.65
214.71	2936.79
214.93	3067.86
215.15	3430.35
215.37	3698.63
215.59	2795.48
215.81	3028.95
216.03	3747.78
216.24	3432.40
216.46	2959.31
216.68	3026.90
216.90	3694.54
217.12	3700.68
217.34	2965.46
217.56	3147.73
217.78	3825.61
218.00	3559.37
218.22	3082.19
218.44	3051.47
218.66	3545.03
218.87	3817.41
219.09	3020.75
219.31	2942.93
219.53	3538.89
219.75	3323.85
219.97	3065.81
220.19	3022.80
220.41	3528.65
220.63	3786.69
220.85	3012.56
221.06	2926.55
221.28	3700.68
221.50	3540.94
221.72	2893.78
221.94	2846.68
222.16	3483.59
222.38	3721.16
222.60	2936.79
222.82	3082.19
223.03	3688.39
223.25	3196.88
223.47	2820.05
223.69	3213.26
223.91	3573.71
224.13	3473.36
224.35	2871.25
224.57	3149.78
224.78	3639.24
225.00	3213.26
225.22	3045.33
225.44	2942.93
225.66	3540.94
225.88	3250.13
226.10	3217.36
226.32	2918.36
226.53	3741.64
226.75	3411.92
226.97	3090.38
227.19	2926.55
227.41	3289.04
227.63	3389.39
227.85	2674.65
228.06	2971.60
228.28	3471.31
228.50	3659.72
228.72	2752.47
228.94	2869.20
229.16	3051.47
229.37	3229.65
229.59	2846.68
229.81	3278.80
230.03	3397.58
230.25	3188.69
230.47	2840.53
230.69	2887.64
230.90	3641.29
231.12	3252.17
231.34	3041.23
231.56	3035.09
231.78	3254.22
232.00	3467.21
232.21	3059.67
232.43	3082.19
232.65	3000.27
232.87	3567.56
233.09	2822.10
233.30	2887.64
233.52	3680.20
233.74	3418.06
233.96	2924.50
234.18	3123.15
234.40	3354.57
234.61	3962.82
234.83	2932.69
235.05	2895.83
235.27	4069.31
235.49	3764.17
235.70	2750.42
235.92	3008.47
236.14	3639.24
236.36	3911.62
236.58	2846.68
236.79	3071.95
237.01	3526.60
237.23	3465.16
237.45	3227.60
237.67	2975.70
237.88	3479.50
238.10	3895.24
238.32	2922.45
238.54	2901.97
238.76	3497.93
238.97	3295.18
239.19	2830.29
239.41	3014.61
239.63	3721.16
239.85	3327.95
240.06	3020.75
240.28	2975.70
240.50	3604.42
240.72	3446.73
240.93	2916.31
241.15	3137.49
241.37	3373.00
241.59	3764.17
241.81	3030.99
242.02	3041.23
242.24	3518.41
242.46	3590.09
242.68	2815.96
242.89	2912.21
243.11	3618.76
243.33	3418.06
243.55	2930.64
243.76	2971.60
243.98	3373.00
244.20	3405.77
244.42	3026.90
244.64	2942.93
244.85	3203.02
245.07	3246.03
245.29	3018.71
245.51	2973.65
245.72	3475.40
245.94	3639.24
246.16	2926.55
246.38	3000.27
246.59	3409.87
246.81	3286.99
247.03	2828.24
247.24	2791.38
247.46	3368.91
247.68	3530.70
247.90	2865.11
248.11	2957.27
248.33	3631.05
248.55	3436.49
248.77	3047.38
248.98	3030.99
249.20	3885.00
249.42	3479.50
249.64	2975.70
249.85	2887.64
250.07	3385.29
250.29	3571.66
250.50	3096.53
250.72	2924.50
250.94	3520.46
251.16	3983.30
251.37	2897.88
251.59	3084.24
251.81	3577.80
252.02	3788.74
252.24	2830.29
252.46	3123.15
252.68	3282.89
252.89	3342.28
253.11	2854.87
253.33	3098.58
253.54	3792.84
253.76	3248.08
253.98	2928.60
254.20	2930.64
254.41	3131.34
254.63	3416.01
254.85	2830.29
255.06	3084.24
255.28	3594.19
255.50	3307.47
255.71	2858.96
255.93	2783.19
256.15	3381.20
256.36	3680.20
256.58	2834.39
256.80	2813.91
257.02	3489.74
257.23	3360.72
257.45	3030.99
257.67	3125.20
257.88	3352.52
258.10	3481.55
258.32	2920.40
258.53	3098.58
258.75	3764.17
258.97	3317.71
259.18	2883.54
259.40	2846.68
259.62	3827.65
259.83	3780.55
260.05	2987.99
260.27	3917.76
260.48	3766.21
260.70	3264.46
260.92	2852.82
261.13	2967.51
261.35	3510.22
261.57	3551.18
261.78	2809.81
262.00	2836.44
262.22	3557.32
262.43	3299.28
262.65	2928.60
262.86	2983.89
263.08	3975.11
263.30	3438.54
263.51	2838.48
263.73	2914.26
263.95	3811.27
264.16	3239.89
264.38	2854.87
264.60	2848.72
264.81	3493.83
265.03	3682.25
265.25	3422.16
265.46	2899.92
265.68	3735.50
265.89	3551.18
266.11	2895.83
266.33	2848.72
266.54	3721.16
266.76	3567.56
266.98	3102.67
267.19	3237.84
267.41	3727.30
267.62	3387.34
267.84	2772.95
268.06	3096.53
268.27	3563.47
268.49	3684.30
268.70	2979.79
268.92	2971.60
269.14	3233.74
269.35	3131.34
269.57	3129.30
269.79	3037.14
270.00	3309.52
270.22	3878.85
270.43	2920.40
270.65	2770.90
270.87	3489.74
271.08	3661.77
271.30	3153.87
271.51	2996.18
271.73	3516.36
271.95	3766.21
272.16	2865.11
272.38	3106.77
272.59	3278.80
272.81	3577.80
273.02	2840.53
273.24	3030.99
273.46	3745.73
273.67	3125.20
273.89	2875.35
274.10	2955.22
274.32	3653.58
274.54	3409.87
274.75	3100.62
274.97	3076.05
275.18	3618.76
275.40	3565.51
275.61	2914.26
275.83	3184.59
276.05	3227.60
276.26	3510.22
276.48	3051.47
276.69	3209.17
276.91	3315.66
277.12	3827.65
277.34	3170.26
277.55	3301.33
277.77	3430.35
277.99	3350.48
278.20	3141.58
278.42	3010.51
278.63	3311.57
278.85	3264.46
279.06	3030.99
279.28	3207.12
279.49	3721.16
279.71	3583.95
279.93	3164.11
280.14	3186.64
280.36	3342.28
280.57	3674.06
280.79	3168.21
281.00	2949.08
281.22	3377.10
281.43	3708.87
281.65	2961.36
281.86	2996.18
282.08	3583.95
282.29	3848.13
282.51	3022.80
282.73	2963.41
282.94	3176.40
283.16	3524.55
283.37	3198.93
283.59	3125.20
283.80	3430.35
284.02	3383.24
284.23	3110.86
284.45	3143.63
284.66	3254.22
284.88	3291.09
285.09	2992.08
285.31	3127.25
285.52	3518.41
285.74	3147.73
285.95	3332.05
286.17	3188.69
286.38	3712.97
286.60	3352.52
286.81	3051.47
287.03	3123.15
287.24	3422.16
287.46	3559.37
287.67	3284.94
287.89	3250.13
288.10	3432.40
288.32	3456.97
288.53	3229.65
288.75	3082.19
288.96	3598.28
289.18	3254.22
289.39	3010.51
289.61	3160.02
289.82	3930.05
290.04	3811.27
290.25	2971.60
290.47	3145.68
290.68	3389.39
290.90	3655.62
291.11	2865.11
291.33	3284.94
291.54	3299.28
291.76	3395.53
291.97	3239.89
292.18	3239.89
292.40	3416.01
292.61	3317.71
292.83	3409.87
293.04	3004.37
293.26	3469.26
293.47	3313.61
293.69	3090.38
293.90	3035.09
294.12	3698.63
294.33	3418.06
294.55	3162.06
294.76	3295.18
294.97	3733.45
295.19	3954.63
295.40	3102.67
295.62	3209.17
295.83	3626.95
296.05	3262.41
296.26	3366.86
296.48	3190.74
296.69	3512.27
296.90	3450.83
297.12	3250.13
297.33	3293.13
297.55	3528.65
297.76	3549.13
297.98	3174.35
298.19	3299.28
298.41	3424.20
298.62	3286.99
298.83	3291.09
299.05	3221.45
299.26	3321.81
299.48	3315.66
299.69	3192.78
299.90	3063.76
300.12	3145.68
300.33	3657.67
300.55	3258.32
300.76	3215.31
300.98	3209.17
301.19	3647.43
301.40	3088.34
301.62	3147.73
301.83	3540.94
302.05	3405.77
302.26	3108.82
302.47	3147.73
302.69	3176.40
302.90	3401.68
303.12	2906.07
303.33	3231.69
303.54	3946.44
303.76	3381.20
303.97	2987.99
304.19	3368.91
304.40	3211.22
304.61	3622.86
304.83	3205.07
305.04	3176.40
305.26	3555.27
305.47	3344.33
305.68	3123.15
305.90	3047.38
306.11	3766.21
306.33	3370.96
306.54	2942.93
306.75	3082.19
306.97	3155.92
307.18	3336.14
307.39	2967.51
307.61	3248.08
307.82	3512.27
308.04	3626.95
308.25	2959.31
308.46	3266.51
308.68	3459.02
308.89	3385.29
309.10	3192.78
309.32	3268.56
309.53	3430.35
309.74	3532.75
309.96	3004.37
310.17	3229.65
310.39	3387.34
310.60	3655.62
310.81	3106.77
311.03	3016.66
311.24	3569.61
311.45	3401.68
311.67	3332.05
311.88	3274.70
312.09	3338.19
312.31	3323.85
312.52	3082.19
312.73	2983.89
312.95	3100.62
313.16	3260.37
313.37	3317.71
313.59	3286.99
313.80	3614.66
314.01	3688.39
314.23	3069.91
314.44	3051.47
314.65	3100.62
314.87	3266.51
315.08	3067.86
315.29	3080.14
315.51	3229.65
315.72	3180.50
315.93	3129.30
316.15	3026.90
316.36	3284.94
316.57	3405.77
316.79	3098.58
317.00	3110.86
317.21	3684.30
317.43	3362.76
317.64	3098.58
317.85	3063.76
318.07	3315.66
318.28	3385.29
318.49	3198.93
318.70	3295.18
318.92	3487.69
319.13	3416.01
319.34	3325.90
319.56	3065.81
319.77	3588.04
319.98	3538.89
320.20	3418.06
320.41	3286.99
320.62	3542.99
320.83	3141.58
321.05	3336.14
321.26	3131.34
321.47	3434.44
321.69	3684.30
321.90	2955.22
322.11	2979.79
322.32	3545.03
322.54	3788.74
322.75	3121.10
322.96	4184.00
323.18	3178.45
323.39	3065.81
323.60	3018.71
323.81	3194.83
324.03	3358.67
324.24	3459.02
324.45	3248.08
324.66	3084.24
324.88	3618.76
325.09	3835.85
325.30	3057.62
325.52	3026.90
325.73	3542.99
325.94	3291.09
326.15	2934.74
326.37	2901.97
326.58	3592.14
326.79	3803.08
327.00	3065.81
327.22	3041.23
327.43	3373.00
327.64	3241.93
327.85	3303.37
328.07	3110.86
328.28	3856.33
328.49	3340.24
328.70	3125.20
328.92	3096.53
329.13	3391.44
329.34	3520.46
329.55	3387.34
329.76	3254.22
329.98	3413.96
330.19	3649.48
330.40	3168.21
330.61	3260.37
330.83	3696.58
331.04	3241.93
331.25	3200.98
331.46	3139.54
331.68	3213.26
331.89	3614.66
332.10	3141.58
332.31	2992.08
332.52	3467.21
332.74	3801.03
332.95	2928.60
333.16	3076.05
333.37	3598.28
333.58	3348.43
333.80	3119.06
334.01	2838.48
334.22	3321.81
334.43	3325.90
334.64	3014.61
334.86	3086.29
335.07	3225.55
335.28	3753.93
335.49	2987.99
335.70	3157.97
335.92	3747.78
336.13	3968.96
336.34	3082.19
336.55	3094.48
336.76	3512.27
336.98	3020.75
337.19	3123.15
337.40	3264.46
337.61	4009.92
337.82	3379.15
338.04	3246.03
338.25	2930.64
338.46	3409.87
338.67	3319.76
338.88	3041.23
339.09	3039.19
339.31	3313.61
339.52	3176.40
339.73	3090.38
339.94	3074.00
340.15	3536.84
340.36	3323.85
340.58	3098.58
340.79	2992.08
341.00	3530.70
341.21	3160.02
341.42	3477.45
341.63	3147.73
341.85	3688.39
342.06	3448.78
342.27	3045.33
342.48	3276.75
342.69	3182.54
342.90	3651.53
343.12	3518.41
343.33	3074.00
343.54	3600.33
343.75	3733.45
343.96	3194.83
344.17	2998.23
344.38	3303.37
344.60	3248.08
344.81	3057.62
345.02	3200.98
345.23	3667.91
345.44	3936.20
345.65	3147.73
345.86	3135.44
346.07	3540.94
346.29	3264.46
346.50	3250.13
346.71	3151.82
346.92	3708.87
347.13	3952.58
347.34	3139.54
347.55	2992.08
347.76	3520.46
347.98	3170.26
348.19	3086.29
348.40	3286.99
348.61	3377.10
348.82	3831.75
349.03	3143.63
349.24	2994.13
349.45	3835.85
349.66	2994.13
349.88	3121.10
350.09	2992.08
350.30	3805.13
350.51	3741.64
350.72	3321.81
350.93	3176.40
351.14	3391.44
351.35	3459.02
351.56	3147.73
351.77	3194.83
351.99	3575.75
352.20	3749.83
352.41	3243.98
352.62	2983.89
352.83	3413.96
353.04	3401.68
353.25	3155.92
353.46	3174.35
353.67	3678.15
353.88	3041.23
354.09	3012.56
354.30	3235.79
354.52	3626.95
354.73	3368.91
354.94	3076.05
355.15	3147.73
355.36	3823.56
355.57	3297.23
355.78	3022.80
355.99	3078.10
356.20	3411.92
356.41	3774.41
356.62	3198.93
356.83	3102.67
357.04	3751.88
357.25	3071.95
357.46	3033.04
357.68	3076.05
357.89	3139.54
358.10	3428.30
358.31	2940.88
358.52	3139.54
358.73	3207.12
358.94	3221.45
359.15	3196.88
359.36	3151.82
359.57	3432.40
359.78	3344.33
359.99	3264.46
360.20	3014.61
360.41	3393.48
360.62	3696.58
360.83	3145.68
361.04	3094.48
361.25	3579.85
361.46	3778.50
361.67	3155.92
361.88	3063.76
362.09	3573.71
362.30	3600.33
362.51	3024.85
362.72	3205.07
362.93	3547.08
363.14	3637.19
363.35	3182.54
363.56	3018.71
363.78	3659.72
363.99	3592.14
364.20	3100.62
364.41	3198.93
364.62	3897.28
364.83	3483.59
365.04	3129.30
365.25	3178.45
365.46	3952.58
365.67	3301.33
365.88	3344.33
366.09	3071.95
366.30	3364.81
366.51	3418.06
366.72	2971.60
366.93	3061.71
367.14	3428.30
367.35	3762.12
367.56	2987.99
367.77	3278.80
367.98	3479.50
368.18	3483.59
368.39	3282.89
368.60	3043.28
368.81	3631.05
369.02	3520.46
369.23	3110.86
369.44	3035.09
369.65	3459.02
369.86	3557.32
370.07	3180.50
370.28	2971.60
370.49	3504.07
370.70	3614.66
370.91	2938.84
371.12	3035.09
371.33	3622.86
371.54	3237.84
371.75	3219.41
371.96	2815.96
372.17	3481.55
372.38	3407.82
372.59	3149.78
372.80	2996.18
373.01	3426.25
373.22	3452.88
373.43	3102.67
373.64	2922.45
373.85	3655.62
374.06	3874.76
374.26	3289.04
374.47	3307.47
374.68	3823.56
374.89	3534.79
375.10	3069.91
375.31	3278.80
375.52	3514.31
375.73	3489.74
375.94	2959.31
376.15	3188.69
376.36	3348.43
376.57	3301.33
376.78	3176.40
376.99	3057.62
377.20	3764.17
377.40	3325.90
377.61	3420.11
377.82	3170.26
378.03	3733.45
378.24	3604.42
378.45	3221.45
378.66	3235.79
378.87	3082.19
379.08	3053.52
379.29	3106.77
379.50	3303.37
379.71	3311.57
379.91	3545.03
380.12	3059.67
380.33	3237.84
380.54	3409.87
380.75	3401.68
380.96	3082.19
381.17	3164.11
381.38	3448.78
381.59	3352.52
381.80	3121.10
382.00	3266.51
382.21	3454.92
382.42	3710.92
382.63	3538.89
382.84	3330.00
383.05	3622.86
383.26	3831.75
383.47	3342.28
383.68	2977.75
383.88	3622.86
384.09	3516.36
384.30	3336.14
384.51	3196.88
384.72	3370.96
384.93	3196.88
385.14	3256.27
385.35	3375.05
385.55	3131.34
385.76	3708.87
385.97	3082.19
386.18	2971.60
386.39	3278.80
386.60	3332.05
386.81	3123.15
387.02	2918.36
387.22	3157.97
387.43	3510.22
387.64	3127.25
387.85	3422.16
388.06	3426.25
388.27	4343.74
388.48	7311.25
388.68	10915.67
388.89	13586.22
389.10	14788.38
389.31	14417.70
389.52	11640.65
389.73	10272.61
389.93	9434.99
390.14	8388.48
390.35	7921.54
390.56	7335.82
390.77	6197.15
390.98	4745.14
391.18	4065.22
391.39	3932.10
391.60	3459.02
391.81	3344.33
392.02	3237.84
392.23	3923.91
392.43	3469.26
392.64	3303.37
392.85	3237.84
393.06	3915.72
393.27	3424.20
393.47	3155.92
393.68	3160.02
393.89	3416.01
394.10	3751.88
394.31	3143.63
394.52	3155.92
394.72	3319.76
394.93	3782.60
395.14	3035.09
395.35	3274.70
395.56	3323.85
395.76	3373.00
395.97	3129.30
396.18	3203.02
396.39	3391.44
396.60	4073.41
396.80	3571.66
397.01	3393.48
397.22	3504.07
397.43	3684.30
397.64	3153.87
397.84	3209.17
398.05	3872.71
398.26	3409.87
398.47	3190.74
398.67	3416.01
398.88	3463.12
399.09	3581.90
399.30	3155.92
399.51	3198.93
399.71	3368.91
399.92	3444.68
400.13	3301.33
400.34	3168.21
400.54	3502.03
400.75	3841.99
400.96	3205.07
401.17	3489.74
401.37	3575.75
401.58	3344.33
401.79	3096.53
402.00	3231.69
402.21	3925.96
402.41	3540.94
402.62	3319.76
402.83	3479.50
403.04	3807.17
403.24	4278.21
403.45	3190.74
403.66	3360.72
403.87	3639.24
404.07	3712.97
404.28	3454.92
404.49	3444.68
404.70	3549.13
404.90	3672.01
405.11	3121.10
405.32	3305.42
405.52	3264.46
405.73	3198.93
405.94	3078.10
406.15	3262.41
406.35	3594.19
406.56	3567.56
406.77	3198.93
406.98	3188.69
407.18	3366.86
407.39	3819.46
407.60	3166.16
407.80	3200.98
408.01	3360.72
408.22	3569.61
408.43	3047.38
408.63	3270.61
408.84	3563.47
409.05	3672.01
409.25	3117.01
409.46	3178.45
409.67	3446.73
409.88	3373.00
410.08	3153.87
410.29	3049.43
410.50	3682.25
410.70	3540.94
410.91	3069.91
411.12	3225.55
411.32	3506.12
411.53	3319.76
411.74	3166.16
411.95	3182.54
412.15	3432.40
412.36	3620.81
412.57	3260.37
412.77	3272.65
412.98	3420.11
413.19	3344.33
413.39	3176.40
413.60	3184.59
413.81	3702.73
414.01	3196.88
414.22	3221.45
414.43	3352.52
414.63	3299.28
414.84	3700.68
415.05	3157.97
415.25	3026.90
415.46	3651.53
415.67	3319.76
415.87	3157.97
416.08	3102.67
416.29	3459.02
416.49	3473.36
416.70	3215.31
416.91	3145.68
417.11	3422.16
417.32	3626.95
417.53	3270.61
417.73	3264.46
417.94	3452.88
418.15	3565.51
418.35	3241.93
418.56	3164.11
418.77	3991.49
418.97	3395.53
419.18	3315.66
419.38	2799.57
419.59	3450.83
419.80	3764.17
420.00	3016.66
420.21	3200.98
420.42	3651.53
420.62	3506.12
420.83	3155.92
421.04	3119.06
421.24	3383.24
421.45	3532.75
421.65	3168.21
421.86	3190.74
422.07	3569.61
422.27	3672.01
422.48	3028.95
422.69	3092.43
422.89	3434.44
423.10	3424.20
423.30	3215.31
423.51	3166.16
423.72	3573.71
423.92	3610.57
424.13	3092.43
424.33	3301.33
424.54	3649.48
424.75	3385.29
424.95	3434.44
425.16	3086.29
425.36	3418.06
425.57	3749.83
425.78	3360.72
425.98	3268.56
426.19	3420.11
426.39	3291.09
426.60	3198.93
426.81	3254.22
427.01	3534.79
427.22	3213.26
427.42	2998.23
427.63	3114.96
427.83	3678.15
428.04	3897.28
428.25	3217.36
428.45	3268.56
428.66	3762.12
428.86	3446.73
429.07	3207.12
429.28	3176.40
429.48	3399.63
429.69	3305.42
429.89	3221.45
430.10	3131.34
430.30	3672.01
430.51	3598.28
430.71	3030.99
430.92	3215.31
431.13	3274.70
431.33	3553.23
431.54	3272.65
431.74	3356.62
431.95	3870.66
432.15	3241.93
432.36	3180.50
432.56	3182.54
432.77	3895.24
432.98	3788.74
433.18	3274.70
433.39	3037.14
433.59	3387.34
433.80	3985.35
434.00	3305.42
434.21	3231.69
434.41	3274.70
434.62	3874.76
434.82	3010.51
435.03	3102.67
435.23	3446.73
435.44	3002.32
435.64	3090.38
435.85	3231.69
436.06	3651.53
436.26	3663.82
436.47	3211.22
436.67	3106.77
436.88	3401.68
437.08	3641.29
437.29	3299.28
437.49	3284.94
437.70	3667.91
437.90	3403.72
438.11	3368.91
438.31	3268.56
438.52	3733.45
438.72	3684.30
438.93	3516.36
439.13	3342.28
439.34	3633.10
439.54	3325.90
439.75	3250.13
439.95	3303.37
440.16	3225.55
440.36	3475.40
440.57	3135.44
440.77	3176.40
440.98	3497.93
441.18	3540.94
441.39	3043.28
441.59	3084.24
441.80	3878.85
442.00	3416.01
442.21	3223.50
442.41	2961.36
442.62	3610.57
442.82	3260.37
443.02	3129.30
443.23	3162.06
443.43	3356.62
443.64	3737.54
443.84	3045.33
444.05	3282.89
444.25	3444.68
444.46	3309.52
444.66	3186.64
444.87	3258.32
445.07	3143.63
445.28	3442.64
445.48	3393.48
445.69	3205.07
445.89	3932.10
446.09	3364.81
446.30	3430.35
446.50	3518.41
446.71	5089.20
446.91	6199.20
447.12	6885.27
447.32	7333.78
447.53	7270.29
447.73	6209.44
447.93	5425.07
448.14	5197.74
448.34	5408.69
448.55	4519.87
448.75	4370.37
448.96	4138.94
449.16	4124.61
449.36	3960.77
449.57	3495.88
449.77	3233.74
449.98	3346.38
450.18	3618.76
450.39	3088.34
450.59	3393.48
450.79	3385.29
451.00	3336.14
451.20	3411.92
451.41	3151.82
451.61	3477.45
451.81	3397.58
452.02	3131.34
452.22	3139.54
452.43	3358.67
452.63	3268.56
452.84	3254.22
453.04	3172.30
453.24	3489.74
453.45	3205.07
453.65	3160.02
453.86	3160.02
454.06	3536.84
454.26	3448.78
454.47	3037.14
454.67	3393.48
454.87	3526.60
455.08	3377.10
455.28	3295.18
455.49	3426.25
455.69	3274.70
455.89	3833.80
456.10	3217.36
456.30	3135.44
456.51	3616.71
456.71	3434.44
456.91	3327.95
457.12	3229.65
457.32	3547.08
457.52	3301.33
457.73	3323.85
457.93	3411.92
458.14	3338.19
458.34	3012.56
458.54	3108.82
458.75	3182.54
458.95	3618.76
459.15	3518.41
459.36	3250.13
459.56	3153.87
459.76	3864.52
459.97	3407.82
460.17	3213.26
460.37	3237.84
460.58	3461.07
460.78	3612.62
460.99	3213.26
461.19	3200.98
461.39	3377.10
461.60	3463.12
461.80	3235.79
462.00	3035.09
462.21	3512.27
462.41	3231.69
462.61	3092.43
462.82	3035.09
463.02	3499.98
463.22	3434.44
463.43	3258.32
463.63	3114.96
463.83	3735.50
464.04	3532.75
464.24	3190.74
464.44	3133.39
464.64	3481.55
464.85	3590.09
465.05	3149.78
465.25	3084.24
465.46	3278.80
465.66	3516.36
465.86	3166.16
466.07	3117.01
466.27	3418.06
466.47	3125.20
466.68	3026.90
466.88	3303.37
467.08	3610.57
467.29	3672.01
467.49	3180.50
467.69	3346.38
467.89	3547.08
468.10	3366.86
468.30	3250.13
468.50	3295.18
468.71	3676.10
468.91	3131.34
469.11	3295.18
469.31	3295.18
469.52	3211.22
469.72	3837.89
469.92	3387.34
470.13	3198.93
470.33	3483.59
470.53	3467.21
470.73	3514.31
470.94	3745.73
471.14	4032.45
471.34	4515.77
471.54	4196.29
471.75	3846.09
471.95	3672.01
472.15	3721.16
472.36	3682.25
472.56	3524.55
472.76	3919.81
472.96	3749.83
473.17	3426.25
473.37	3250.13
473.57	3456.97
473.77	3626.95
473.98	3323.85
474.18	3030.99
474.38	4071.36
474.58	3256.27
474.79	3006.42
474.99	3346.38
475.19	3641.29
475.39	3315.66
475.60	3180.50
475.80	3121.10
476.00	3450.83
476.20	3459.02
476.41	3297.23
476.61	3211.22
476.81	3733.45
477.01	3223.50
477.21	3504.07
477.42	3311.57
477.62	3241.93
477.82	3565.51
478.02	3155.92
478.23	3192.78
478.43	3284.94
478.63	3430.35
478.83	3233.74
479.03	3270.61
479.24	3817.41
479.44	3856.33
479.64	3063.76
479.84	3000.27
480.04	3330.00
480.25	3583.95
480.45	3112.91
480.65	3008.47
480.85	3739.59
481.06	3313.61
481.26	3219.41
481.46	3143.63
481.66	3590.09
481.86	3270.61
482.06	3252.17
482.27	3196.88
482.47	3254.22
482.67	3610.57
482.87	3168.21
483.07	3262.41
483.28	3301.33
483.48	3200.98
483.68	3246.03
483.88	3151.82
484.08	3004.37
484.29	3155.92
484.49	3231.69
484.69	2967.51
484.89	3715.02
485.09	3618.76
485.29	3114.96
485.50	3348.43
485.70	3360.72
485.90	3768.26
486.10	3344.33
486.30	3108.82
486.50	3715.02
486.71	3475.40
486.91	3270.61
487.11	3286.99
487.31	3114.96
487.51	3561.42
487.71	3041.23
487.91	3092.43
488.12	3241.93
488.32	2942.93
488.52	3186.64
488.72	2861.01
488.92	3491.79
489.12	3735.50
489.32	3282.89
489.53	3166.16
489.73	3178.45
489.93	3870.66
490.13	3172.30
490.33	3008.47
490.53	3452.88
490.73	3624.90
490.94	3043.28
491.14	3289.04
491.34	3540.94
491.54	3495.88
491.74	3930.05
491.94	4517.82
492.14	5130.16
492.34	5193.65
492.54	4763.58
492.75	4091.84
492.95	4446.14
493.15	4138.94
493.35	3860.42
493.55	3745.73
493.75	3854.28
493.95	4054.98
494.15	3366.86
494.35	3225.55
494.56	3348.43
494.76	3268.56
494.96	3313.61
495.16	3194.83
495.36	3424.20
495.56	3461.07
495.76	3229.65
495.96	3133.39
496.16	3278.80
496.36	3844.04
496.56	3149.78
496.77	3190.74
496.97	3444.68
497.17	3698.63
497.37	3024.85
497.57	3258.32
497.77	3461.07
497.97	3225.55
498.17	3311.57
498.37	3229.65
498.57	3659.72
498.77	3336.14
498.97	3428.30
499.17	3479.50
499.38	3327.95
499.58	3485.64
499.78	3362.76
499.98	3319.76
500.18	3356.62
500.38	3256.27
500.58	3420.11
500.78	3702.73
500.98	6125.47
501.18	7665.55
501.38	9179.00
501.58	9891.69
501.78	9906.02
501.98	8433.54
502.18	6907.80
502.38	6072.23
502.58	6166.43
502.78	5441.45
502.98	5095.35
503.18	5068.72
503.38	4769.72
503.59	4294.59
503.79	4118.47
503.99	3743.69
504.19	3911.62
504.39	3985.35
504.59	3682.25
504.79	3454.92
504.99	4034.50
505.19	3649.48
505.39	3373.00
505.59	3426.25
505.79	3944.39
505.99	3651.53
506.19	3180.50
506.39	3409.87
506.59	3237.84
506.79	3463.12
506.99	3407.82
507.19	3157.97
507.39	3461.07
507.59	3074.00
507.79	3188.69
507.99	3100.62
508.19	3397.58
508.39	3393.48
508.59	3186.64
508.79	3303.37
508.99	3971.01
509.19	3233.74
509.39	3198.93
509.59	3041.23
509.79	3319.76
509.99	3473.36
510.19	3352.52
510.39	3346.38
510.59	3485.64
510.79	3289.04
510.99	3047.38
511.19	3182.54
511.39	3807.17
511.59	3755.97
511.79	3348.43
511.99	3104.72
512.19	3864.52
512.38	3436.49
512.58	3000.27
512.78	3022.80
512.98	3596.23
513.18	3784.65
513.38	3063.76
513.58	3164.11
513.78	3393.48
513.98	3411.92
514.18	3252.17
514.38	3176.40
514.58	3512.27
514.78	3270.61
514.98	3123.15
515.18	3100.62
515.38	3157.97
515.58	3841.99
515.78	3137.49
515.98	3143.63
516.18	3561.42
516.38	3467.21
516.57	3198.93
516.77	3162.06
516.97	3573.71
517.17	3352.52
517.37	2959.31
517.57	3192.78
517.77	3428.30
517.97	3282.89
518.17	3231.69
518.37	2955.22
518.57	3227.60
518.77	3364.81
518.97	3233.74
519.16	3215.31
519.36	3651.53
519.56	3330.00
519.76	3045.33
519.96	3164.11
520.16	3764.17
520.36	3198.93
520.56	3323.85
520.76	3131.34
520.96	3368.91
521.16	3678.15
521.35	3401.68
521.55	3358.67
521.75	3454.92
521.95	3368.91
522.15	3137.49
522.35	2994.13
522.55	3291.09
522.75	3643.34
522.95	3049.43
523.14	3028.95
523.34	3395.53
523.54	3348.43
523.74	3323.85
523.94	3203.02
524.14	3209.17
524.34	3512.27
524.54	3356.62
524.73	3190.74
524.93	3618.76
525.13	3485.64
525.33	3094.48
525.53	3467.21
525.73	3618.76
525.93	3379.15
526.13	3213.26
526.32	3094.48
526.52	3780.55
526.72	3624.90
526.92	3213.26
527.12	3012.56
527.32	3198.93
527.52	3553.23
527.71	3192.78
527.91	3102.67
528.11	3434.44
528.31	3430.35
528.51	3196.88
528.71	3313.61
528.90	3577.80
529.10	3704.78
529.30	3172.30
529.50	2930.64
529.70	3467.21
529.90	3303.37
530.09	3143.63
530.29	3016.66
530.49	3282.89
530.69	4140.99
530.89	3313.61
531.09	3250.13
531.28	3272.65
531.48	3753.93
531.68	3205.07
531.88	3188.69
532.08	3598.28
532.28	3393.48
532.47	3264.46
532.67	3297.23
532.87	3538.89
533.07	3266.51
533.27	3307.47
533.46	3168.21
533.66	3561.42
533.86	3364.81
534.06	3217.36
534.26	3125.20
534.45	3381.20
534.65	3727.30
534.85	3332.05
535.05	3102.67
535.25	3618.76
535.44	3119.06
535.64	3254.22
535.84	3170.26
536.04	3311.57
536.24	3297.23
536.43	3180.50
536.63	3149.78
536.83	3438.54
537.03	3381.20
537.22	3008.47
537.42	3000.27
537.62	3479.50
537.82	3268.56
538.02	3348.43
538.21	3256.27
538.41	3983.30
538.61	3532.75
538.81	3217.36
539.00	3309.52
539.20	3100.62
539.40	3424.20
539.60	3176.40
539.79	3303.37
539.99	3393.48
540.19	3221.45
540.39	3078.10
540.58	3110.86
540.78	3696.58
540.98	3381.20
541.18	3381.20
541.37	3225.55
541.57	3499.98
541.77	3534.79
541.97	3166.16
542.16	3020.75
542.36	3342.28
542.56	3278.80
542.76	3327.95
542.95	3235.79
543.15	3585.99
543.35	3637.19
543.54	3082.19
543.74	3061.71
543.94	3686.34
544.14	3196.88
544.33	3246.03
544.53	3180.50
544.73	3352.52
544.93	3360.72
545.12	3129.30
545.32	3162.06
545.52	3426.25
545.71	3229.65
545.91	3213.26
546.11	3071.95
546.30	3319.76
546.50	3461.07
546.70	3246.03
546.90	3139.54
547.09	3074.00
547.29	3471.31
547.49	3354.57
547.68	3186.64
547.88	3323.85
548.08	3549.13
548.27	3395.53
548.47	3129.30
548.67	3237.84
548.87	3487.69
549.06	3180.50
549.26	2994.13
549.46	3463.12
549.65	3286.99
549.85	3160.02
550.05	3131.34
550.24	3180.50
550.44	3409.87
550.64	3248.08
550.83	3209.17
551.03	3762.12
551.23	3577.80
551.42	3196.88
551.62	3360.72
551.82	3373.00
552.01	3368.91
552.21	3516.36
552.41	3237.84
552.60	3755.97
552.80	3430.35
553.00	3196.88
553.19	3215.31
553.39	3925.96
553.59	3092.43
553.78	3266.51
553.98	3094.48
554.17	3211.22
554.37	3471.31
554.57	3280.85
554.76	3016.66
554.96	3286.99
555.16	3446.73
555.35	3280.85
555.55	3334.09
555.75	3450.83
555.94	3559.37
556.14	2975.70
556.33	3246.03
556.53	3407.82
556.73	3409.87
556.92	3223.50
557.12	3053.52
557.32	3975.11
557.51	3698.63
557.71	3217.36
557.90	3373.00
558.10	3792.84
558.30	3274.70
558.49	3229.65
558.69	3188.69
558.88	3549.13
559.08	3518.41
559.28	3219.41
559.47	3313.61
559.67	3590.09
559.86	3839.94
560.06	3057.62
560.26	3133.39
560.45	3592.14
560.65	3344.33
560.84	3459.02
561.04	3123.15
561.24	3649.48
561.43	3262.41
561.63	3551.18
561.82	3205.07
562.02	3682.25
562.22	3213.26
562.41	3121.10
562.61	3057.62
562.80	3213.26
563.00	3925.96
563.19	3266.51
563.39	3186.64
563.59	3608.52
563.78	3258.32
563.98	3014.61
564.17	3119.06
564.37	3045.33
564.56	3393.48
564.76	3024.85
564.96	3313.61
565.15	3454.92
565.35	4007.87
565.54	3274.70
565.74	3180.50
565.93	3459.02
566.13	3467.21
566.32	3272.65
566.52	3188.69
566.71	3393.48
566.91	3573.71
567.11	3280.85
567.30	3090.38
567.50	3473.36
567.69	3485.64
567.89	3192.78
568.08	3057.62
568.28	3538.89
568.47	3260.37
568.67	3125.20
568.86	3094.48
569.06	3674.06
569.25	3344.33
569.45	2985.94
569.64	3147.73
569.84	3373.00
570.04	3493.83
570.23	3176.40
570.43	3198.93
570.62	3438.54
570.82	3782.60
571.01	3063.76
571.21	3147.73
571.40	3221.45
571.60	3624.90
571.79	3360.72
571.99	3172.30
572.18	3172.30
572.38	3512.27
572.57	3246.03
572.77	3272.65
572.96	4018.11
573.16	3446.73
573.35	3233.74
573.55	3364.81
573.74	3585.99
573.94	3286.99
574.13	3131.34
574.33	3373.00
574.52	3678.15
574.71	3411.92
574.91	3176.40
575.10	3041.23
575.30	3352.52
575.49	3268.56
575.69	3110.86
575.88	3180.50
576.08	3454.92
576.27	3606.47
576.47	3121.10
576.66	3295.18
576.86	3762.12
577.05	3493.83
577.25	3274.70
577.44	3338.19
577.64	3307.47
577.83	3663.82
578.02	3147.73
578.22	3383.24
578.41	3856.33
578.61	3387.34
578.80	3041.23
579.00	3211.22
579.19	3467.21
579.39	3526.60
579.58	3323.85
579.77	3250.13
579.97	3633.10
580.16	3663.82
580.36	3385.29
580.55	3174.35
580.75	3555.27
580.94	3456.97
581.13	3352.52
581.33	3364.81
581.52	3403.72
581.72	3852.23
581.91	3354.57
582.11	3186.64
582.30	3616.71
582.49	3450.83
582.69	3485.64
582.88	3303.37
583.08	3504.07
583.27	3585.99
583.47	3315.66
583.66	3174.35
583.85	3293.13
584.05	3444.68
584.24	3327.95
584.44	3246.03
584.63	3600.33
584.82	3704.78
585.02	3461.07
585.21	3295.18
585.41	3530.70
585.60	3438.54
585.79	3418.06
585.99	3493.83
586.18	3516.36
586.37	4462.52
586.57	6465.44
586.76	18458.34
586.96	36517.33
587.15	49306.90
587.34	57603.22
587.54	60898.40
587.73	53138.65
587.93	38614.45
588.12	29894.20
588.31	24436.36
588.51	21591.73
588.70	20289.23
588.89	17796.85
589.09	15009.56
589.28	13240.12
589.47	10311.52
589.67	7815.05
589.86	6283.17
590.06	5142.45
590.25	4478.91
590.44	3872.71
590.64	3499.98
590.83	3768.26
591.02	3682.25
591.22	3135.44
591.41	3270.61
591.60	3336.14
591.80	3921.86
591.99	2934.74
592.18	3074.00
592.38	3682.25
592.57	3299.28
592.76	3239.89
592.96	3272.65
593.15	3420.11
593.34	3626.95
593.54	3235.79
593.73	3301.33
593.92	3454.92
594.12	3461.07
594.31	3276.75
594.50	3295.18
594.70	3540.94
594.89	4136.90
595.08	3076.05
595.28	3346.38
595.47	4077.51
595.66	3702.73
595.86	3084.24
596.05	3098.58
596.24	3313.61
596.43	3780.55
596.63	3262.41
596.82	3336.14
597.01	3520.46
597.21	3891.14
597.40	3194.83
597.59	3254.22
597.79	3416.01
597.98	3549.13
598.17	3266.51
598.36	3217.36
598.56	3555.27
598.75	3286.99
598.94	3258.32
599.14	3260.37
599.33	3364.81
599.52	3575.75
599.71	3241.93
599.91	3200.98
600.10	3551.18
600.29	3446.73
600.48	3266.51
600.68	3362.76
600.87	3551.18
601.06	3276.75
601.26	3297.23
601.45	3426.25
601.64	3459.02
601.83	3749.83
602.03	3076.05
602.22	3102.67
602.41	3768.26
602.60	4001.73
602.80	3223.50
602.99	3379.15
603.18	3319.76
603.37	3411.92
603.57	3065.81
603.76	3217.36
603.95	3655.62
604.14	3344.33
604.34	3071.95
604.53	3102.67
604.72	3508.17
604.91	3672.01
605.10	3096.53
605.30	3057.62
605.49	3848.13
605.68	3540.94
605.87	3176.40
606.07	3153.87
606.26	3536.84
606.45	3526.60
606.64	3147.73
606.84	3100.62
607.03	3438.54
607.22	3729.35
607.41	3221.45
607.60	3164.11
607.80	3663.82
607.99	3379.15
608.18	3297.23
608.37	3182.54
608.56	3315.66
608.76	3639.24
608.95	3362.76
609.14	3141.58
609.33	3676.10
609.52	3846.09
609.72	3284.94
609.91	3338.19
610.10	3450.83
610.29	3819.46
610.48	3289.04
610.68	3362.76
610.87	3309.52
611.06	3622.86
611.25	3155.92
611.44	3278.80
611.63	3346.38
611.83	3680.20
612.02	3078.10
612.21	3299.28
612.40	3094.48
612.59	3172.30
612.79	3149.78
612.98	3248.08
613.17	3749.83
613.36	3393.48
613.55	3254.22
613.74	3209.17
613.93	3409.87
614.13	3506.12
614.32	3297.23
614.51	3223.50
614.70	3416.01
614.89	3352.52
615.08	3327.95
615.28	3469.26
615.47	3164.11
615.66	3502.03
615.85	3223.50
616.04	3205.07
616.23	3454.92
616.42	3418.06
616.62	3254.22
616.81	3239.89
617.00	3344.33
617.19	3534.79
617.38	3186.64
617.57	3305.42
617.76	3635.14
617.95	3532.75
618.15	3278.80
618.34	3401.68
618.53	3102.67
618.72	3657.67
618.91	3303.37
619.10	3221.45
619.29	3450.83
619.48	3370.96
619.68	3067.86
619.87	3092.43
620.06	3237.84
620.25	3563.47
620.44	3168.21
620.63	3176.40
620.82	3432.40
621.01	3403.72
621.20	3209.17
621.39	3229.65
621.59	3485.64
621.78	3389.39
621.97	3215.31
622.16	3299.28
622.35	3536.84
622.54	3575.75
622.73	3278.80
622.92	3016.66
623.11	3712.97
623.30	3338.19
623.49	3366.86
623.68	3076.05
623.88	3651.53
624.07	3286.99
624.26	3016.66
624.45	3172.30
624.64	3309.52
624.83	3434.44
625.02	3213.26
625.21	3186.64
625.40	3368.91
625.59	3715.02
625.78	3325.90
625.97	3237.84
626.16	3719.11
626.35	3598.28
626.54	3227.60
626.74	3346.38
626.93	3409.87
627.12	3373.00
627.31	3221.45
627.50	3196.88
627.69	3610.57
627.88	3264.46
628.07	3076.05
628.26	3028.95
628.45	3278.80
628.64	3315.66
628.83	3067.86
629.02	3071.95
629.21	3600.33
629.40	3583.95
629.59	2996.18
629.78	3123.15
629.97	3405.77
630.16	3477.45
630.35	3143.63
630.54	3266.51
630.73	3336.14
630.92	3348.43
631.11	3157.97
631.30	3203.02
631.49	3704.78
631.68	3401.68
631.87	3182.54
632.06	3074.00
632.25	3989.44
632.44	3473.36
632.63	3196.88
632.82	3219.41
633.01	3350.48
633.20	3518.41
633.39	3155.92
633.58	2951.12
633.77	3491.79
633.96	3631.05
634.15	3356.62
634.34	3295.18
634.53	3540.94
634.72	3332.05
634.91	3108.82
635.10	3188.69
635.29	3538.89
635.48	3463.12
635.67	3074.00
635.86	3026.90
636.05	3741.64
636.24	3428.30
636.43	3057.62
636.62	3358.67
636.81	2914.26
637.00	3483.59
637.19	3153.87
637.38	3196.88
637.57	3327.95
637.76	3483.59
637.95	3348.43
638.14	3360.72
638.33	3510.22
638.52	3551.18
638.71	3035.09
638.89	3106.77
639.08	4024.26
639.27	3639.24
639.46	3366.86
639.65	3626.95
639.84	3854.28
640.03	4016.07
640.22	3565.51
640.41	3534.79
640.60	3557.32
640.79	3622.86
640.98	3364.81
641.17	3389.39
641.36	3649.48
641.55	3549.13
641.74	3026.90
641.92	3088.34
642.11	3215.31
642.30	3381.20
642.49	3168.21
642.68	3190.74
642.87	3483.59
643.06	3606.47
643.25	3014.61
643.44	3045.33
643.63	3393.48
643.82	3598.28
644.00	3028.95
644.19	3229.65
644.38	3270.61
644.57	3563.47
644.76	3229.65
644.95	3246.03
645.14	3430.35
645.33	3393.48
645.52	3252.17
645.71	3035.09
645.89	3207.12
646.08	3473.36
646.27	3241.93
646.46	3397.58
646.65	3227.60
646.84	3491.79
647.03	3078.10
647.22	3354.57
647.40	3540.94
647.59	3403.72
647.78	2959.31
647.97	3088.34
648.16	3274.70
648.35	3758.02
648.54	3426.25
648.73	3260.37
648.91	3633.10
649.10	3594.19
649.29	3065.81
649.48	3123.15
649.67	3528.65
649.86	3434.44
650.05	3250.13
650.23	3282.89
650.42	3332.05
650.61	3745.73
650.80	3393.48
650.99	3350.48
651.18	3641.29
651.36	3674.06
651.55	3121.10
651.74	3299.28
651.93	3311.57
652.12	3397.58
652.31	3272.65
652.49	3250.13
652.68	3356.62
652.87	3780.55
653.06	3241.93
653.25	3409.87
653.44	3452.88
653.62	3698.63
653.81	3293.13
654.00	3172.30
654.19	3588.04
654.38	4054.98
654.56	3311.57
654.75	3074.00
654.94	3649.48
655.13	3502.03
655.32	3147.73
655.51	3266.51
655.69	3424.20
655.88	3657.67
656.07	3092.43
656.26	3205.07
656.45	3168.21
656.63	3395.53
656.82	3147.73
657.01	3436.49
657.20	3258.32
657.38	3751.88
657.57	3190.74
657.76	3006.42
657.95	3653.58
658.14	3278.80
658.32	3309.52
658.51	3117.01
658.70	3506.12
658.89	3473.36
659.08	3282.89
659.26	3432.40
659.45	3248.08
659.64	3547.08
659.83	3190.74
660.01	3540.94
660.20	3440.59
660.39	3706.82
660.58	2846.68
660.76	3207.12
660.95	3076.05
661.14	3401.68
661.33	3022.80
661.51	3180.50
661.70	3307.47
661.89	3522.51
662.08	3172.30
662.26	3100.62
662.45	3264.46
662.64	3776.45
662.83	3256.27
663.01	3084.24
663.20	3286.99
663.39	3760.07
663.58	3241.93
663.76	3221.45
663.95	3502.03
664.14	3149.78
664.32	3319.76
664.51	3082.19
664.70	3051.47
664.89	3592.14
665.07	3037.14
665.26	3381.20
665.45	3057.62
665.64	3522.51
665.82	3176.40
666.01	3231.69
666.20	3192.78
666.38	3686.34
666.57	3526.60
666.76	5623.72
666.95	12560.19
667.13	18566.88
667.32	22320.81
667.51	25013.89
667.69	25331.33
667.88	20784.83
668.07	15458.07
668.25	13135.67
668.44	11634.51
668.63	10028.90
668.81	8886.14
669.00	7700.36
669.19	7006.10
669.38	6227.87
669.56	5412.78
669.75	4693.94
669.94	4413.37
670.12	3835.85
670.31	3422.16
670.50	3405.77
670.68	3614.66
670.87	3672.01
671.06	3172.30
671.24	3315.66
671.43	3731.40
671.62	3409.87
671.80	3149.78
671.99	3303.37
672.18	3383.24
672.36	3571.66
672.55	3327.95
672.74	3264.46
672.92	3311.57
673.11	3639.24
673.29	3049.43
673.48	3311.57
673.67	3332.05
673.85	3573.71
674.04	3168.21
674.23	3289.04
674.41	3895.24
674.60	3213.26
674.79	2963.41
674.97	3114.96
675.16	3672.01
675.34	3672.01
675.53	3268.56
675.72	3194.83
675.90	3760.07
676.09	3362.76
676.28	3221.45
676.46	3014.61
676.65	3596.23
676.83	3250.13
677.02	3235.79
677.21	3260.37
677.39	3393.48
677.58	3311.57
677.77	3160.02
677.95	3110.86
678.14	3413.96
678.32	3364.81
678.51	3235.79
678.70	3467.21
678.88	3379.15
679.07	3510.22
679.25	3174.35
679.44	3215.31
679.63	3207.12
679.81	3454.92
680.00	3442.64
680.18	3233.74
680.37	3887.04
680.55	3483.59
680.74	3078.10
680.93	2910.16
681.11	3596.23
681.30	3516.36
681.48	3170.26
681.67	3248.08
681.85	3469.26
682.04	3295.18
682.23	3303.37
682.41	3303.37
682.60	3368.91
682.78	3377.10
682.97	3096.53
683.15	3166.16
683.34	3524.55
683.53	3723.21
683.71	3121.10
683.90	3213.26
684.08	3807.17
684.27	3401.68
684.45	3256.27
684.64	3438.54
684.82	3405.77
685.01	3504.07
685.19	3215.31
685.38	3479.50
685.57	3354.57
685.75	3295.18
685.94	3061.71
686.12	3061.71
686.31	3430.35
686.49	3805.13
686.68	3014.61
686.86	3168.21
687.05	3379.15
687.23	3764.17
687.42	3190.74
687.60	3010.51
687.79	3702.73
687.97	3751.88
688.16	3286.99
688.34	3430.35
688.53	3076.05
688.71	3567.56
688.90	3493.83
689.08	3264.46
689.27	3137.49
689.45	3663.82
689.64	3366.86
689.82	3219.41
690.01	3561.42
690.19	3424.20
690.38	3235.79
690.56	3373.00
690.75	3217.36
690.93	3297.23
691.12	3147.73
691.30	3174.35
691.49	3307.47
691.67	3463.12
691.86	3499.98
692.04	3221.45
692.23	3420.11
692.41	3502.03
692.60	3577.80
692.78	3332.05
692.97	3385.29
693.15	3561.42
693.34	3434.44
693.52	3420.11
693.71	3336.14
693.89	3368.91
694.08	3106.77
694.26	3266.51
694.44	3557.32
694.63	3610.57
694.81	3114.96
695.00	3188.69
695.18	3727.30
695.37	3936.20
695.55	3317.71
695.74	3295.18
695.92	3362.76
696.10	3614.66
696.29	3041.23
696.47	3215.31
696.66	3119.06
696.84	3200.98
697.03	3231.69
697.21	3469.26
697.40	4806.58
697.58	3667.91
697.76	3106.77
697.95	3203.02
698.13	3149.78
698.32	3213.26
698.50	3182.54
698.68	3231.69
698.87	3528.65
699.05	3803.08
699.24	3149.78
699.42	3098.58
699.61	3557.32
699.79	3428.30
699.97	3213.26
700.16	3125.20
700.34	3205.07
700.53	3567.56
700.71	3426.25
700.89	3280.85
701.08	3426.25
701.26	3426.25
701.45	3551.18
701.63	3170.26
701.81	3278.80
702.00	3221.45
702.18	3350.48
702.37	3106.77
702.55	3776.45
702.73	3387.34
702.92	3213.26
703.10	3481.55
703.28	3538.89
703.47	3188.69
703.65	3420.11
703.84	3200.98
704.02	3309.52
704.20	3745.73
704.39	3180.50
704.57	3207.12
704.75	3512.27
704.94	3635.14
705.12	3317.71
705.30	4102.08
705.49	8105.86
705.67	14303.01
705.86	19246.81
706.04	21720.76
706.22	23778.97
706.41	22056.62
706.59	16631.55
706.77	13285.17
706.96	11601.74
707.14	10790.75
707.32	9379.70
707.51	8171.40
707.69	6879.13
707.87	5793.70
708.06	4786.10
708.24	4270.01
708.42	4130.75
708.61	4345.79
708.79	3307.47
708.97	3299.28
709.16	3485.64
709.34	3463.12
709.52	3350.48
709.71	3250.13
709.89	3491.79
710.07	3237.84
710.26	3160.02
710.44	3266.51
710.62	3676.10
710.80	3418.06
710.99	3354.57
711.17	3321.81
711.35	3319.76
711.54	3315.66
711.72	3393.48
711.90	3246.03
712.09	3581.90
712.27	3268.56
712.45	3315.66
712.63	3256.27
712.82	3434.44
713.00	3483.59
713.18	3346.38
713.37	3411.92
713.55	3616.71
713.73	3624.90
713.91	3315.66
714.10	3284.94
714.28	3373.00
714.46	3461.07
714.65	3299.28
714.83	3315.66
715.01	3450.83
715.19	3426.25
715.38	3188.69
715.56	3373.00
715.74	3309.52
715.92	3321.81
716.11	3506.12
716.29	3074.00
716.47	3487.69
716.65	3356.62
716.84	3125.20
717.02	3211.22
717.20	3162.06
717.38	3295.18
717.57	3377.10
717.75	3330.00
717.93	3377.10
718.11	3606.47
718.30	3033.04
718.48	3219.41
718.66	3655.62
718.84	3708.87
719.03	3182.54
719.21	3082.19
719.39	3905.48
719.57	3536.84
719.75	3270.61
719.94	3180.50
720.12	3420.11
720.30	3518.41
720.48	3252.17
720.67	3215.31
720.85	3248.08
721.03	3286.99
721.21	3155.92
721.39	3270.61
721.58	3647.43
721.76	3440.59
721.94	3137.49
722.12	3295.18
722.30	3790.79
722.49	3315.66
722.67	3217.36
722.85	3256.27
723.03	3131.34
723.21	3311.57
723.40	3297.23
723.58	3254.22
723.76	3504.07
723.94	3672.01
724.12	3203.02
724.30	3491.79
724.49	3655.62
724.67	3219.41
724.85	3258.32
725.03	3131.34
725.21	3581.90
725.40	3647.43
725.58	3237.84
725.76	3409.87
725.94	3626.95
726.12	3139.54
726.30	3246.03
726.49	3164.11
726.67	3239.89
726.85	3596.23
727.03	3958.72
727.21	4902.84
727.39	6021.03
727.57	6539.16
727.76	6743.96
727.94	6682.52
728.12	5898.15
728.30	4999.09
728.48	4736.95
728.66	4548.54
728.84	4274.11
729.03	3956.68
729.21	3704.78
729.39	3516.36
729.57	3446.73
729.75	3545.03
729.93	3520.46
730.11	3106.77
730.30	3364.81
730.48	3418.06
730.66	3325.90
730.84	3311.57
731.02	3448.78
731.20	3258.32
731.38	3276.75
731.56	3049.43
731.74	3186.64
731.93	3508.17
732.11	3303.37
732.29	3200.98
732.47	3540.94
732.65	3536.84
732.83	3368.91
733.01	3323.85
733.19	3307.47
733.37	3545.03
733.56	3200.98
733.74	3082.19
733.92	3762.12
734.10	3354.57
734.28	3413.96
734.46	3047.38
734.64	3303.37
734.82	3327.95
735.00	3200.98
735.18	3106.77
735.36	3397.58
735.54	3436.49
735.73	3123.15
735.91	3426.25
736.09	3794.89
736.27	3465.16
736.45	3180.50
736.63	2963.41
736.81	3401.68
736.99	3665.86
737.17	3459.02
737.35	3143.63
737.53	3442.64
737.71	3436.49
737.89	3422.16
738.07	3172.30
738.25	3196.88
738.43	3184.59
738.61	3157.97
738.80	3125.20
738.98	3160.02
739.16	3315.66
739.34	3200.98
739.52	3479.50
739.70	3397.58
739.88	3573.71
740.06	3352.52
740.24	2955.22
740.42	3659.72
740.60	3164.11
740.78	3137.49
740.96	3033.04
741.14	3411.92
741.32	3467.21
741.50	3047.38
741.68	3456.97
741.86	3672.01
742.04	3205.07
742.22	3157.97
742.40	3198.93
742.58	3545.03
742.76	3278.80
742.94	3360.72
743.12	3008.47
743.30	3436.49
743.48	3616.71
743.66	3213.26
743.84	3284.94
744.02	3362.76
744.20	3461.07
744.38	3112.91
744.56	3174.35
744.74	3796.93
744.92	3557.32
745.10	3413.96
745.28	3196.88
745.46	3786.69
745.64	3479.50
745.82	3301.33
746.00	3166.16
746.18	3581.90
746.36	3186.64
746.54	3213.26
746.72	3213.26
746.90	3295.18
747.08	3678.15
747.26	3325.90
747.44	3366.86
747.62	3528.65
747.80	3620.81
747.98	3303.37
748.15	3198.93
748.33	3770.31
748.51	3383.24
748.69	3336.14
748.87	3037.14
749.05	3434.44
749.23	3338.19
749.41	3110.86
749.59	3155.92
749.77	3649.48
749.95	3362.76
750.13	3108.82
750.31	3317.71
750.49	3356.62
750.67	3696.58
750.85	3297.23
751.03	3184.59
751.20	3907.52
751.38	3461.07
751.56	3291.09
751.74	3278.80
751.92	3426.25
752.10	3192.78
752.28	3397.58
752.46	3215.31
752.64	3420.11
752.82	3411.92
753.00	3291.09
753.18	3192.78
753.35	3340.24
753.53	3319.76
753.71	3104.72
753.89	3272.65
754.07	3493.83
754.25	3725.26
754.43	3336.14
754.61	3065.81
754.79	3497.93
754.97	3286.99
755.14	3342.28
755.32	3041.23
755.50	3411.92
755.68	3432.40
755.86	3074.00
756.04	3155.92
756.22	3016.66
756.40	3618.76
756.57	3375.05
756.75	3139.54
756.93	3651.53
757.11	3633.10
757.29	3110.86
757.47	3110.86
757.65	3114.96
757.82	2983.89
758.00	3110.86
758.18	3139.54
758.36	3194.83
758.54	3790.79
758.72	3004.37
758.90	3418.06
759.07	3536.84
759.25	3192.78
759.43	3291.09
759.61	3024.85
759.79	4593.59
759.97	3674.06
760.15	3219.41
760.32	3082.19
760.50	3573.71
760.68	3758.02
760.86	3030.99
761.04	3401.68
761.22	3516.36
761.39	3520.46
761.57	3346.38
761.75	3241.93
761.93	3614.66
762.11	3364.81
762.28	3319.76
762.46	3125.20
762.64	3626.95
762.82	3254.22
763.00	3114.96
763.18	3444.68
763.35	3164.11
763.53	3520.46
763.71	3303.37
763.89	3080.14
764.07	3524.55
764.24	3475.40
764.42	3254.22
764.60	3219.41
764.78	3426.25
764.96	3600.33
765.13	3323.85
765.31	2992.08
765.49	3626.95
765.67	3139.54
765.84	3168.21
766.02	3174.35
766.20	3084.24
766.38	3493.83
766.56	3379.15
766.73	3344.33
766.91	3393.48
767.09	3330.00
767.27	3221.45
767.44	3117.01
767.62	3561.42
767.80	3473.36
767.98	3106.77
768.15	3145.68
768.33	3491.79
768.51	3606.47
768.69	3319.76
768.87	3131.34
769.04	3424.20
769.22	3983.30
769.40	3325.90
769.58	3315.66
769.75	3536.84
769.93	3680.20
770.11	3217.36
770.28	3129.30
770.46	3616.71
770.64	3508.17
770.82	3237.84
770.99	3166.16
771.17	3579.85
771.35	3332.05
771.53	3280.85
771.70	3149.78
771.88	3583.95
772.06	3422.16
772.23	3110.86
772.41	3303.37
772.59	3432.40
772.77	3215.31
772.94	3186.64
773.12	3311.57
773.30	3336.14
773.47	3426.25
773.65	3088.34
773.83	3403.72
774.01	3403.72
774.18	3067.86
774.36	3248.08
774.54	3090.38
774.71	3540.94
774.89	3051.47
775.07	3090.38
775.24	3233.74
775.42	3229.65
775.60	3844.04
775.78	3067.86
775.95	3055.57
776.13	3074.00
776.31	3082.19
776.48	3317.71
776.66	3434.44
776.84	3413.96
777.01	3264.46
777.19	3098.58
777.37	3151.82
777.54	3565.51
777.72	3817.41
777.90	3289.04
778.07	3129.30
778.25	4169.66
778.43	3698.63
778.60	3129.30
778.78	3239.89
778.96	3745.73
779.13	3143.63
779.31	3250.13
779.49	3278.80
779.66	3356.62
779.84	3418.06
780.01	3108.82
780.19	3135.44
780.37	3712.97
780.54	3559.37
780.72	3035.09
780.90	3190.74
781.07	3403.72
781.25	3254.22
781.43	3465.16
781.60	3149.78
781.78	3721.16
781.95	3463.12
782.13	3188.69
782.31	3155.92
782.48	3061.71
782.66	3403.72
782.83	3446.73
783.01	3350.48
783.19	3590.09
783.36	3323.85
783.54	3090.38
783.72	3239.89
783.89	3360.72
784.07	3430.35
784.24	3327.95
784.42	3422.16
784.60	3426.25
784.77	3575.75
784.95	2963.41
785.12	3178.45
785.30	3469.26
785.47	3303.37
785.65	3090.38
785.83	3311.57
786.00	3364.81
786.18	3499.98
786.35	3141.58
786.53	3065.81
786.71	3698.63
786.88	3540.94
787.06	3299.28
787.23	3217.36
787.41	3149.78
787.58	3338.19
787.76	3157.97
787.94	3225.55
788.11	3489.74
788.29	3198.93
788.46	3209.17
788.64	3039.19
788.81	3274.70
788.99	3297.23
789.16	3092.43
789.34	3172.30
789.52	3366.86
789.69	3264.46
789.87	3057.62
790.04	3215.31
790.22	3422.16
790.39	3862.47
790.57	3080.14
790.74	3125.20
790.92	3661.77
791.09	3076.05
791.27	3280.85
791.44	3297.23
791.62	3430.35
791.79	3618.76
791.97	3278.80
792.15	3491.79
792.32	3590.09
792.50	3598.28
792.67	3368.91
792.85	3526.60
793.02	3510.22
793.20	3352.52
793.37	3088.34
793.55	3123.15
793.72	3205.07
793.90	3629.00
794.07	3209.17
794.25	3117.01
794.42	3473.36
794.60	3391.44
794.77	3198.93
794.95	3385.29
795.12	3491.79
795.30	3403.72
795.47	2994.13
795.65	3573.71
795.82	3493.83
796.00	3330.00
796.17	3309.52
796.34	3106.77
796.52	3483.59
796.69	3674.06
796.87	3235.79
797.04	3370.96
797.22	3774.41
797.39	3491.79
797.57	3393.48
797.74	3278.80
797.92	3583.95
798.09	3231.69
798.27	3491.79
798.44	3182.54
798.62	3297.23
798.79	3401.68
798.96	3299.28
799.14	3188.69
799.31	3946.44
799.49	3452.88
799.66	3221.45
799.84	3227.60
800.01	3160.02
800.19	3532.75
800.36	2987.99
800.53	3198.93
800.71	3551.18
800.88	3839.94
801.06	3127.25
801.23	3250.13
801.41	3411.92
801.58	3307.47
801.75	3164.11
801.93	3215.31
802.10	3608.52
802.28	3332.05
802.45	3145.68
802.63	3286.99
802.80	3768.26
802.97	3286.99
803.15	3229.65
803.32	3069.91
803.50	3252.17
803.67	3225.55
803.84	3209.17
804.02	3256.27
804.19	3327.95
804.37	2998.23
804.54	2949.08
804.71	3170.26
804.89	3418.06
805.06	3278.80
805.24	3172.30
805.41	3057.62
805.58	3311.57
805.76	4011.97
805.93	3145.68
806.10	3338.19
806.28	3542.99
806.45	3526.60
806.63	3317.71
806.80	3289.04
806.97	3424.20
807.15	3512.27
807.32	3330.00
807.49	3139.54
807.67	3200.98
807.84	3493.83
808.01	3028.95
808.19	3352.52
808.36	3940.29
808.54	3299.28
808.71	3186.64
808.88	3139.54
809.06	3690.44
809.23	3778.50
809.40	3149.78
809.58	3059.67
809.75	3401.68
809.92	3155.92
810.10	3428.30
810.27	3141.58
810.44	3444.68
810.62	3608.52
810.79	3194.83
810.96	3219.41
811.14	3360.72
811.31	3561.42
811.48	3315.66
811.66	3237.84
811.83	3655.62
812.00	3518.41
812.18	3354.57
812.35	3536.84
812.52	3366.86
812.69	3311.57
812.87	3117.01
813.04	3108.82
813.21	3446.73
813.39	3246.03
813.56	3172.30
813.73	3471.31
813.91	3106.77
814.08	3459.02
814.25	3225.55
814.42	3041.23
814.60	3370.96
814.77	3504.07
814.94	3094.48
815.12	3332.05
815.29	3776.45
815.46	3327.95
815.63	3170.26
815.81	3233.74
815.98	3450.83
816.15	3432.40
816.33	3352.52
816.50	3147.73
816.67	3467.21
816.84	3409.87
817.02	3088.34
817.19	3170.26
817.36	3440.59
817.53	3602.38
817.71	3100.62
817.88	3235.79
818.05	3416.01
818.22	3413.96
818.40	3364.81
818.57	3174.35
818.74	3598.28
818.91	3426.25
819.09	3342.28
819.26	3307.47
819.43	3284.94
819.60	3254.22
819.78	3330.00
819.95	3272.65
820.12	3184.59
820.29	3778.50
820.47	3504.07
820.64	3100.62
820.81	3065.81
820.98	3282.89
821.15	3190.74
821.33	3278.80
821.50	3059.67
821.67	3495.88
821.84	3221.45
822.02	3155.92
822.19	3594.19
822.36	3282.89
822.53	3049.43
822.70	3049.43
822.88	3368.91
823.05	3753.93
823.22	3295.18
823.39	3174.35
823.56	3504.07
823.74	3813.32
823.91	3059.67
824.08	3143.63
824.25	3184.59
824.42	3745.73
824.60	3008.47
824.77	3289.04
824.94	3377.10
825.11	3579.85
825.28	3004.37
825.45	3327.95
825.63	3418.06
825.80	3205.07
825.97	3203.02
826.14	3225.55
826.31	3112.91
826.48	3594.19
826.66	3250.13
826.83	3133.39
827.00	3499.98
827.17	3250.13
827.34	3227.60
827.51	3133.39
827.69	3413.96
827.86	3086.29
828.03	3237.84
828.20	3194.83
828.37	3291.09
828.54	3522.51
828.71	3106.77
828.89	3258.32
829.06	3491.79
829.23	3747.78
829.40	3215.31
829.57	3182.54
829.74	3573.71
829.91	3299.28
830.09	3149.78
830.26	3368.91
830.43	3760.07
830.60	3362.76
830.77	3211.22
830.94	3393.48
831.11	3530.70
831.28	3332.05
831.46	3385.29
831.63	3205.07
831.80	3633.10
831.97	3315.66
832.14	3248.08
832.31	3182.54
832.48	3393.48
832.65	3682.25
832.82	3325.90
832.99	3278.80
833.17	3213.26
833.34	3624.90
833.51	3121.10
833.68	2963.41
833.85	3592.14
834.02	3248.08
834.19	3190.74
834.36	3182.54
834.53	3465.16
834.70	3626.95
834.87	3172.30
835.04	2877.40
835.22	3162.06
835.39	3346.38
835.56	3047.38
835.73	2983.89
835.90	3674.06
836.07	3239.89
836.24	3133.39
836.41	3002.32
836.58	3299.28
836.75	3645.38
836.92	3049.43
837.09	2895.83
837.26	3549.13
837.43	3499.98
837.60	3030.99
837.77	3098.58
837.94	3528.65
838.12	3622.86
838.29	2971.60
838.46	2877.40
838.63	3229.65
838.80	3692.49
838.97	3010.51
839.14	3041.23
839.31	3438.54
839.48	3551.18
839.65	2987.99
839.82	3090.38
839.99	3504.07
840.16	3516.36
840.33	2920.40
840.50	3065.81
840.67	3264.46
840.84	2985.94
841.01	2938.84
841.18	2983.89
841.35	3356.62
841.52	3549.13
841.69	3286.99
841.86	3065.81
842.03	3354.57
842.20	3616.71
842.37	3008.47
842.54	3086.29
842.71	3416.01
842.88	3114.96
843.05	2985.94
843.22	3065.81
843.39	3585.99
843.56	3319.76
843.73	3020.75
843.90	3047.38
844.07	3452.88
844.24	3557.32
844.41	3090.38
844.58	3022.80
844.75	3407.82
844.92	3575.75
845.09	3168.21
845.26	3045.33
845.43	3571.66
845.60	3344.33
845.77	3160.02
845.94	3084.24
846.10	3665.86
846.27	3143.63
846.44	2934.74
846.61	2893.78
846.78	3434.44
846.95	3602.38
847.12	2918.36
847.29	3071.95
847.46	3256.27
847.63	3551.18
847.80	2936.79
847.97	3018.71
848.14	3942.34
848.31	3311.57
848.48	2875.35
848.65	2965.46
848.82	3305.42
848.98	3991.49
849.15	3219.41
849.32	3084.24
849.49	3600.33
849.66	3379.15
849.83	2971.60
850.00	2963.41
850.17	3526.60
850.34	3278.80
850.51	2934.74
850.68	3016.66
850.85	3899.33
851.01	3518.41
851.18	2934.74
851.35	3102.67
851.52	3450.83
851.69	3708.87
851.86	2965.46
852.03	2893.78
852.20	3467.21
852.37	3432.40
852.53	2895.83
852.70	2895.83
852.87	3516.36
853.04	3549.13
853.21	3024.85
853.38	3254.22
853.55	3702.73
853.72	3653.58
853.89	2908.12
854.05	2977.75
854.22	3440.59
854.39	3362.76
854.56	2955.22
854.73	3166.16
854.90	3246.03
855.07	3375.05
855.23	2918.36
855.40	2897.88
855.57	3436.49
855.74	2936.79
855.91	3278.80
856.08	2861.01
856.25	3149.78
856.41	3297.23
856.58	2973.65
856.75	3024.85
856.92	3227.60
857.09	3676.10
857.26	2904.02
857.42	3074.00
857.59	3555.27
857.76	3368.91
857.93	3014.61
858.10	3147.73
858.27	3237.84
858.43	3454.92
858.60	3002.32
858.77	2869.20
858.94	3262.41
859.11	3704.78
859.27	3149.78
859.44	2949.08
859.61	3844.04
859.78	3602.38
859.95	3049.43
860.12	2983.89
860.28	4011.97
860.45	3841.99
860.62	2963.41
860.79	3069.91
860.95	3262.41
861.12	3239.89
861.29	2936.79
861.46	2985.94
861.63	3403.72
861.79	3438.54
861.96	2830.29
862.13	2977.75
862.30	3809.22
862.47	3231.69
862.63	2895.83
862.80	3033.04
862.97	3659.72
863.14	3555.27
863.30	3055.57
863.47	2955.22
863.64	3794.89
863.81	3477.45
863.97	2893.78
864.14	3086.29
864.31	3354.57
864.48	3461.07
864.65	2996.18
864.81	3112.91
864.98	3551.18
865.15	3684.30
865.32	3088.34
865.48	3100.62
865.65	3880.90
865.82	3352.52
865.98	3096.53
866.15	3057.62
866.32	3330.00
866.49	3350.48
866.65	3174.35
866.82	3051.47
866.99	3352.52
867.16	3237.84
867.32	3008.47
867.49	2944.98
867.66	3319.76
867.83	3344.33
867.99	2932.69
868.16	2983.89
868.33	3188.69
868.49	3413.96
868.66	3063.76
868.83	3170.26
868.99	3438.54
869.16	3551.18
869.33	3170.26
869.50	3088.34
869.66	3368.91
869.83	3436.49
870.00	2983.89
870.16	3151.82
870.33	3350.48
870.50	3663.82
870.66	3121.10
870.83	2967.51
871.00	3430.35
871.17	3545.03
871.33	3086.29
871.50	2928.60
871.67	3379.15
871.83	3381.20
872.00	3053.52
872.17	3016.66
872.33	3833.80
872.50	3667.91
872.67	2983.89
872.83	3016.66
873.00	3561.42
873.17	3434.44
873.33	3094.48
873.50	3100.62
873.67	3256.27
873.83	3274.70
874.00	3037.14
874.16	3119.06
874.33	3440.59
874.50	3211.22
874.66	2885.59
874.83	3153.87
875.00	3663.82
875.16	3602.38
875.33	3102.67
875.50	2717.65
875.66	3278.80
875.83	3420.11
875.99	3074.00
876.16	3106.77
876.33	3211.22
876.49	3377.10
876.66	3049.43
876.83	3037.14
876.99	3143.63
877.16	3426.25
877.32	2992.08
877.49	3135.44
877.66	3585.99
877.82	3811.27
877.99	3069.91
878.15	3286.99
878.32	3424.20
878.49	3493.83
878.65	3088.34
878.82	3330.00
878.98	3268.56
879.15	3526.60
879.32	3192.78
879.48	3282.89
879.65	3403.72
879.81	3282.89
879.98	3033.04
880.15	3086.29
880.31	3598.28
880.48	3213.26
880.64	3180.50
880.81	3221.45
880.97	3690.44
881.14	3698.63
881.31	2959.31
881.47	3182.54
881.64	3362.76
881.80	3100.62
881.97	3260.37
882.13	3076.05
882.30	3188.69
882.47	3315.66
882.63	3020.75
882.80	3018.71
882.96	3409.87
883.13	3680.20
883.29	3039.19
883.46	2893.78
883.62	3995.59
883.79	3393.48
883.95	3215.31
884.12	3018.71
884.29	3672.01
884.45	3430.35
884.62	3016.66
884.78	3020.75
884.95	3796.93
885.11	3241.93
885.28	3090.38
885.44	3078.10
885.61	3614.66
885.77	3745.73
885.94	3170.26
886.10	3188.69
886.27	3411.92
886.43	3878.85
886.60	3272.65
886.76	3037.14
886.93	3221.45
887.09	3436.49
887.26	2885.59
887.42	3147.73
887.59	3643.34
887.75	3917.76
887.92	3200.98
888.08	3186.64
888.25	3766.21
888.41	3598.28
888.58	3088.34
888.74	3026.90
888.91	3327.95
>>>>>End Processed Spectral Data<<<<<
