SpectraSuite Data File
++++++++++++++++++++++++++++++++++++
Date: Fri May 06 09:28:34 CEST 2016
User: root
Dark Spectrum Present: No
Reference Spectrum Present: No
Number of Sampled Component Spectra: 1
Spectrometers: USB4C02835
Integration Time (usec): 100000 (USB4C02835)
Spectra Averaged: 1 (USB4C02835)
Boxcar Smoothing: 0 (USB4C02835)
Correct for Electrical Dark: No (USB4C02835)
Strobe/Lamp Enabled: No (USB4C02835)
Correct for Detector Non-linearity: No (USB4C02835)
Correct for Stray Light: No (USB4C02835)
Number of Pixels in Processed Spectrum: 3648
>>>>>Begin Processed Spectral Data<<<<<
177.47	2336.73
177.69	2336.73
177.91	2336.73
178.13	2295.77
178.36	2318.30
178.58	3119.06
178.80	3278.80
179.02	3256.27
179.24	3209.17
179.46	2901.97
179.68	2926.55
179.90	3356.62
180.13	3483.59
180.35	2815.96
180.57	3000.27
180.79	3645.38
181.01	3487.69
181.23	2912.21
181.45	3119.06
181.67	3663.82
181.90	3610.57
182.12	3090.38
182.34	2770.90
182.56	3622.86
182.78	3506.12
183.00	2910.16
183.22	2951.12
183.44	3055.57
183.66	4100.03
183.89	3071.95
184.11	2959.31
184.33	3667.91
184.55	3678.15
184.77	2906.07
184.99	3033.04
185.21	3373.00
185.43	3983.30
185.65	2947.03
185.87	2942.93
186.10	3975.11
186.32	4028.35
186.54	3153.87
186.76	3049.43
186.98	3602.38
187.20	3381.20
187.42	3006.42
187.64	2928.60
187.86	3536.84
188.08	3729.35
188.30	2883.54
188.52	3041.23
188.75	3811.27
188.97	3698.63
189.19	3008.47
189.41	2983.89
189.63	3631.05
189.85	3409.87
190.07	2832.34
190.29	2863.06
190.51	3524.55
190.73	3219.41
190.95	3184.59
191.17	3024.85
191.39	3037.14
191.61	3354.57
191.84	2969.55
192.06	3069.91
192.28	3131.34
192.50	4069.31
192.72	3149.78
192.94	3063.76
193.16	3692.49
193.38	3618.76
193.60	2887.64
193.82	3090.38
194.04	3735.50
194.26	3549.13
194.48	2936.79
194.70	3014.61
194.92	3405.77
195.14	3639.24
195.36	2932.69
195.58	3016.66
195.80	3422.16
196.02	3289.04
196.24	2873.30
196.46	3076.05
196.69	3368.91
196.91	4026.31
197.13	3053.52
197.35	3010.51
197.57	3801.03
197.79	3618.76
198.01	3053.52
198.23	2961.36
198.45	3557.32
198.67	3145.68
198.89	2820.05
199.11	3028.95
199.33	3278.80
199.55	3039.19
199.77	2848.72
199.99	3162.06
200.21	3403.72
200.43	3534.79
200.65	2813.91
200.87	2852.82
201.09	3459.02
201.31	3413.96
201.53	2912.21
201.75	3020.75
201.97	3481.55
202.19	3495.88
202.41	3067.86
202.63	3092.43
202.85	3612.62
203.07	3532.75
203.29	3053.52
203.51	2887.64
203.73	3360.72
203.95	4122.56
204.17	2963.41
204.39	3117.01
204.61	3389.39
204.83	3344.33
205.05	3182.54
205.27	2955.22
205.49	4089.79
205.71	3461.07
205.93	2787.29
206.15	2758.61
206.37	3461.07
206.59	3459.02
206.81	2772.95
207.03	2908.12
207.25	3303.37
207.47	3588.04
207.69	3006.42
207.91	3260.37
208.13	3745.73
208.34	3256.27
208.56	2885.59
208.78	2910.16
209.00	3426.25
209.22	3405.77
209.44	2994.13
209.66	2871.25
209.88	3479.50
210.10	3428.30
210.32	2979.79
210.54	3028.95
210.76	3327.95
210.98	3659.72
211.20	2861.01
211.42	3096.53
211.64	3708.87
211.86	3571.66
212.08	3082.19
212.30	2934.74
212.52	3422.16
212.74	3499.98
212.96	3092.43
213.17	3041.23
213.39	3680.20
213.61	3841.99
213.83	2908.12
214.05	2824.15
214.27	3723.21
214.49	3264.46
214.71	2975.70
214.93	3074.00
215.15	3534.79
215.37	3641.29
215.59	2848.72
215.81	2990.03
216.03	3758.02
216.24	3395.53
216.46	3026.90
216.68	3000.27
216.90	3663.82
217.12	3706.82
217.34	2883.54
217.56	3123.15
217.78	3719.11
218.00	3467.21
218.22	3057.62
218.44	3078.10
218.66	3506.12
218.87	3958.72
219.09	3000.27
219.31	2967.51
219.53	3598.28
219.75	3381.20
219.97	3028.95
220.19	2967.51
220.41	3413.96
220.63	3903.43
220.85	2959.31
221.06	2987.99
221.28	3794.89
221.50	3534.79
221.72	3000.27
221.94	2805.72
222.16	3510.22
222.38	3622.86
222.60	2951.12
222.82	2949.08
223.03	3665.86
223.25	3254.22
223.47	2983.89
223.69	3178.45
223.91	3606.47
224.13	3502.03
224.35	2822.10
224.57	3217.36
224.78	3598.28
225.00	3223.50
225.22	3051.47
225.44	2838.48
225.66	3561.42
225.88	3301.33
226.10	3131.34
226.32	2983.89
226.53	3874.76
226.75	3401.68
226.97	3084.24
227.19	2959.31
227.41	3295.18
227.63	3336.14
227.85	2781.14
228.06	3065.81
228.28	3524.55
228.50	3710.92
228.72	2791.38
228.94	2877.40
229.16	3082.19
229.37	3166.16
229.59	2918.36
229.81	3233.74
230.03	3430.35
230.25	3170.26
230.47	2822.10
230.69	2914.26
230.90	3651.53
231.12	3229.65
231.34	3084.24
231.56	3090.38
231.78	3221.45
232.00	3395.53
232.21	3051.47
232.43	3010.51
232.65	3041.23
232.87	3559.37
233.09	2807.77
233.30	2893.78
233.52	3573.71
233.74	3420.11
233.96	2942.93
234.18	3205.07
234.40	3442.64
234.61	3841.99
234.83	2844.63
235.05	2971.60
235.27	4036.55
235.49	3686.34
235.70	2813.91
235.92	2924.50
236.14	3555.27
236.36	3962.82
236.58	2795.48
236.79	2961.36
237.01	3358.67
237.23	3381.20
237.45	3172.30
237.67	3049.43
237.88	3624.90
238.10	3893.19
238.32	2811.86
238.54	2963.41
238.76	3377.10
238.97	3336.14
239.19	2924.50
239.41	3024.85
239.63	3735.50
239.85	3426.25
240.06	3065.81
240.28	3033.04
240.50	3655.62
240.72	3481.55
240.93	2826.20
241.15	3016.66
241.37	3344.33
241.59	3721.16
241.81	2953.17
242.02	3139.54
242.24	3485.64
242.46	3667.91
242.68	2791.38
242.89	2938.84
243.11	3710.92
243.33	3411.92
243.55	2942.93
243.76	2983.89
243.98	3270.61
244.20	3465.16
244.42	2971.60
244.64	2965.46
244.85	3145.68
245.07	3262.41
245.29	2910.16
245.51	3008.47
245.72	3557.32
245.94	3733.45
246.16	2942.93
246.38	3094.48
246.59	3358.67
246.81	3282.89
247.03	2840.53
247.24	2830.29
247.46	3426.25
247.68	3489.74
247.90	2897.88
248.11	2963.41
248.33	3614.66
248.55	3461.07
248.77	2990.03
248.98	3069.91
249.20	3827.65
249.42	3481.55
249.64	2910.16
249.85	2877.40
250.07	3264.46
250.29	3641.29
250.50	3067.86
250.72	2865.11
250.94	3620.81
251.16	3913.67
251.37	2994.13
251.59	3133.39
251.81	3516.36
252.02	3762.12
252.24	2875.35
252.46	3035.09
252.68	3336.14
252.89	3336.14
253.11	2807.77
253.33	3188.69
253.54	3798.98
253.76	3207.12
253.98	2967.51
254.20	2957.27
254.41	3196.88
254.63	3370.96
254.85	2863.06
255.06	3131.34
255.28	3542.99
255.50	3379.15
255.71	2885.59
255.93	2770.90
256.15	3401.68
256.36	3565.51
256.58	2795.48
256.80	2901.97
257.02	3344.33
257.23	3377.10
257.45	3026.90
257.67	3098.58
257.88	3336.14
258.10	3545.03
258.32	2969.55
258.53	3065.81
258.75	3778.50
258.97	3305.42
259.18	2828.24
259.40	2863.06
259.62	3858.37
259.83	3762.12
260.05	2914.26
260.27	3930.05
260.48	3624.90
260.70	3194.83
260.92	2873.30
261.13	3012.56
261.35	3493.83
261.57	3573.71
261.78	2922.45
262.00	2953.17
262.22	3563.47
262.43	3231.69
262.65	2983.89
262.86	2977.75
263.08	4018.11
263.30	3473.36
263.51	2762.71
263.73	2887.64
263.95	3782.60
264.16	3272.65
264.38	2877.40
264.60	2889.68
264.81	3352.52
265.03	3766.21
265.25	3465.16
265.46	2914.26
265.68	3798.98
265.89	3704.78
266.11	2830.29
266.33	2901.97
266.54	3721.16
266.76	3606.47
266.98	3037.14
267.19	3047.38
267.41	3680.20
267.62	3360.72
267.84	2754.52
268.06	3065.81
268.27	3499.98
268.49	3684.30
268.70	3063.76
268.92	2926.55
269.14	3243.98
269.35	3074.00
269.57	3100.62
269.79	3010.51
270.00	3272.65
270.22	3901.38
270.43	2797.53
270.65	2875.35
270.87	3518.41
271.08	3645.38
271.30	3076.05
271.51	3059.67
271.73	3581.90
271.95	3813.32
272.16	2901.97
272.38	3131.34
272.59	3360.72
272.81	3612.62
273.02	2867.16
273.24	2996.18
273.46	3760.07
273.67	3203.02
273.89	2789.33
274.10	2951.12
274.32	3774.41
274.54	3504.07
274.75	3065.81
274.97	3051.47
275.18	3616.71
275.40	3516.36
275.61	2961.36
275.83	3182.54
276.05	3278.80
276.26	3407.82
276.48	3065.81
276.69	3088.34
276.91	3313.61
277.12	3811.27
277.34	3164.11
277.55	3147.73
277.77	3459.02
277.99	3327.95
278.20	3090.38
278.42	3008.47
278.63	3346.38
278.85	3213.26
279.06	3018.71
279.28	3186.64
279.49	3753.93
279.71	3553.23
279.93	3143.63
280.14	3176.40
280.36	3346.38
280.57	3708.87
280.79	3162.06
281.00	2985.94
281.22	3291.09
281.43	3704.78
281.65	2826.20
281.86	2994.13
282.08	3639.24
282.29	3819.46
282.51	2992.08
282.73	2977.75
282.94	3139.54
283.16	3489.74
283.37	3178.45
283.59	3141.58
283.80	3512.27
284.02	3430.35
284.23	3182.54
284.45	3106.77
284.66	3311.57
284.88	3315.66
285.09	3014.61
285.31	3106.77
285.52	3561.42
285.74	3215.31
285.95	3336.14
286.17	3147.73
286.38	3694.54
286.60	3268.56
286.81	3022.80
287.03	3098.58
287.24	3354.57
287.46	3631.05
287.67	3223.50
287.89	3336.14
288.10	3387.34
288.32	3401.68
288.53	3248.08
288.75	3174.35
288.96	3733.45
289.18	3370.96
289.39	3078.10
289.61	3168.21
289.82	3919.81
290.04	3801.03
290.25	3012.56
290.47	3182.54
290.68	3420.11
290.90	3606.47
291.11	2901.97
291.33	3250.13
291.54	3299.28
291.76	3370.96
291.97	3223.50
292.18	3217.36
292.40	3405.77
292.61	3323.85
292.83	3364.81
293.04	3104.72
293.26	3477.45
293.47	3344.33
293.69	3014.61
293.90	2901.97
294.12	3678.15
294.33	3370.96
294.55	3166.16
294.76	3254.22
294.97	3708.87
295.19	3940.29
295.40	3053.52
295.62	3219.41
295.83	3657.67
296.05	3254.22
296.26	3413.96
296.48	3151.82
296.69	3418.06
296.90	3379.15
297.12	3299.28
297.33	3231.69
297.55	3483.59
297.76	3545.03
297.98	3153.87
298.19	3278.80
298.41	3483.59
298.62	3254.22
298.83	3313.61
299.05	3231.69
299.26	3381.20
299.48	3200.98
299.69	3160.02
299.90	3047.38
300.12	3229.65
300.33	3645.38
300.55	3180.50
300.76	3221.45
300.98	3272.65
301.19	3557.32
301.40	3090.38
301.62	3078.10
301.83	3520.46
302.05	3411.92
302.26	3117.01
302.47	3184.59
302.69	3235.79
302.90	3401.68
303.12	2969.55
303.33	3325.90
303.54	3815.37
303.76	3262.41
303.97	3086.29
304.19	3286.99
304.40	3325.90
304.61	3532.75
304.83	3248.08
305.04	3151.82
305.26	3626.95
305.47	3397.58
305.68	3137.49
305.90	2983.89
306.11	3682.25
306.33	3383.24
306.54	2975.70
306.75	3069.91
306.97	3178.45
307.18	3188.69
307.39	3047.38
307.61	3291.09
307.82	3344.33
308.04	3508.17
308.25	2961.36
308.46	3303.37
308.68	3426.25
308.89	3452.88
309.10	3160.02
309.32	3108.82
309.53	3442.64
309.74	3532.75
309.96	2955.22
310.17	3196.88
310.39	3319.76
310.60	3610.57
310.81	3061.71
311.03	3057.62
311.24	3555.27
311.45	3456.97
311.67	3479.50
311.88	3254.22
312.09	3350.48
312.31	3368.91
312.52	3051.47
312.73	3049.43
312.95	3178.45
313.16	3256.27
313.37	3237.84
313.59	3262.41
313.80	3667.91
314.01	3803.08
314.23	3141.58
314.44	3086.29
314.65	3194.83
314.87	3297.23
315.08	3096.53
315.29	3078.10
315.51	3307.47
315.72	3084.24
315.93	3180.50
316.15	3082.19
316.36	3346.38
316.57	3481.55
316.79	3119.06
317.00	2983.89
317.21	3624.90
317.43	3289.04
317.64	3119.06
317.85	3057.62
318.07	3286.99
318.28	3313.61
318.49	3172.30
318.70	3188.69
318.92	3422.16
319.13	3524.55
319.34	3221.45
319.56	3030.99
319.77	3524.55
319.98	3495.88
320.20	3360.72
320.41	3215.31
320.62	3575.75
320.83	3213.26
321.05	3346.38
321.26	3139.54
321.47	3459.02
321.69	3702.73
321.90	2992.08
322.11	3057.62
322.32	3495.88
322.54	3733.45
322.75	3194.83
322.96	4198.34
323.18	3166.16
323.39	3045.33
323.60	2934.74
323.81	3223.50
324.03	3325.90
324.24	3403.72
324.45	3215.31
324.66	3074.00
324.88	3733.45
325.09	3725.26
325.30	3086.29
325.52	2998.23
325.73	3459.02
325.94	3332.05
326.15	3012.56
326.37	2865.11
326.58	3655.62
326.79	3753.93
327.00	3067.86
327.22	3155.92
327.43	3418.06
327.64	3233.74
327.85	3303.37
328.07	3149.78
328.28	3919.81
328.49	3377.10
328.70	3090.38
328.92	3123.15
329.13	3303.37
329.34	3459.02
329.55	3379.15
329.76	3354.57
329.98	3405.77
330.19	3721.16
330.40	3207.12
330.61	3246.03
330.83	3729.35
331.04	3229.65
331.25	3219.41
331.46	3174.35
331.68	3203.02
331.89	3749.83
332.10	3127.25
332.31	2938.84
332.52	3467.21
332.74	3735.50
332.95	2947.03
333.16	3082.19
333.37	3557.32
333.58	3213.26
333.80	3059.67
334.01	2922.45
334.22	3338.19
334.43	3286.99
334.64	2971.60
334.86	3164.11
335.07	3237.84
335.28	3729.35
335.49	2971.60
335.70	3143.63
335.92	3753.93
336.13	3950.53
336.34	3110.86
336.55	3057.62
336.76	3542.99
336.98	3016.66
337.19	3051.47
337.40	3229.65
337.61	4065.22
337.82	3344.33
338.04	3254.22
338.25	2918.36
338.46	3483.59
338.67	3411.92
338.88	2990.03
339.09	3092.43
339.31	3272.65
339.52	3188.69
339.73	3108.82
339.94	3196.88
340.15	3577.80
340.36	3401.68
340.58	3123.15
340.79	3067.86
341.00	3635.14
341.21	3160.02
341.42	3289.04
341.63	3117.01
341.85	3686.34
342.06	3485.64
342.27	2996.18
342.48	3268.56
342.69	3153.87
342.90	3557.32
343.12	3413.96
343.33	3057.62
343.54	3643.34
343.75	3786.69
343.96	3299.28
344.17	2996.18
344.38	3309.52
344.60	3188.69
344.81	3016.66
345.02	3164.11
345.23	3676.10
345.44	4059.07
345.65	3157.97
345.86	3209.17
346.07	3493.83
346.29	3303.37
346.50	3229.65
346.71	3164.11
346.92	3762.12
347.13	3966.92
347.34	3205.07
347.55	2944.98
347.76	3565.51
347.98	3133.39
348.19	3203.02
348.40	3284.94
348.61	3315.66
348.82	3737.54
349.03	3139.54
349.24	3010.51
349.45	3887.04
349.66	3057.62
349.88	3108.82
350.09	3010.51
350.30	3641.29
350.51	3747.78
350.72	3426.25
350.93	3078.10
351.14	3403.72
351.35	3606.47
351.56	3112.91
351.77	3135.44
351.99	3647.43
352.20	3794.89
352.41	3268.56
352.62	2899.92
352.83	3430.35
353.04	3459.02
353.25	3127.25
353.46	3125.20
353.67	3737.54
353.88	3057.62
354.09	3045.33
354.30	3112.91
354.52	3559.37
354.73	3389.39
354.94	2930.64
355.15	3215.31
355.36	3891.14
355.57	3231.69
355.78	3030.99
355.99	3147.73
356.20	3311.57
356.41	3792.84
356.62	3194.83
356.83	3051.47
357.04	3706.82
357.25	3098.58
357.46	3059.67
357.68	2955.22
357.89	3207.12
358.10	3399.63
358.31	3049.43
358.52	3166.16
358.73	3200.98
358.94	3211.22
359.15	3178.45
359.36	3168.21
359.57	3549.13
359.78	3362.76
359.99	3262.41
360.20	3004.37
360.41	3467.21
360.62	3571.66
360.83	3205.07
361.04	3176.40
361.25	3469.26
361.46	3790.79
361.67	3250.13
361.88	3045.33
362.09	3659.72
362.30	3547.08
362.51	3028.95
362.72	3213.26
362.93	3635.14
363.14	3512.27
363.35	3250.13
363.56	3043.28
363.78	3563.47
363.99	3631.05
364.20	3074.00
364.41	3110.86
364.62	3770.31
364.83	3606.47
365.04	3135.44
365.25	3172.30
365.46	3950.53
365.67	3207.12
365.88	3319.76
366.09	3028.95
366.30	3368.91
366.51	3495.88
366.72	3100.62
366.93	3131.34
367.14	3444.68
367.35	3762.12
367.56	3057.62
367.77	3278.80
367.98	3442.64
368.18	3567.56
368.39	3225.55
368.60	3082.19
368.81	3592.14
369.02	3483.59
369.23	3125.20
369.44	2947.03
369.65	3321.81
369.86	3483.59
370.07	3307.47
370.28	2990.03
370.49	3581.90
370.70	3479.50
370.91	3030.99
371.12	2981.84
371.33	3678.15
371.54	3389.39
371.75	3164.11
371.96	2793.43
372.17	3454.92
372.38	3428.30
372.59	3033.04
372.80	3090.38
373.01	3411.92
373.22	3536.84
373.43	3157.97
373.64	2981.84
373.85	3784.65
374.06	3882.95
374.26	3282.89
374.47	3282.89
374.68	3780.55
374.89	3499.98
375.10	3094.48
375.31	3227.60
375.52	3549.13
375.73	3420.11
375.94	2906.07
376.15	3231.69
376.36	3250.13
376.57	3319.76
376.78	3123.15
376.99	3188.69
377.20	3727.30
377.40	3493.83
377.61	3428.30
377.82	3074.00
378.03	3753.93
378.24	3557.32
378.45	3213.26
378.66	3221.45
378.87	3114.96
379.08	3164.11
379.29	3143.63
379.50	3321.81
379.71	3364.81
379.91	3532.75
380.12	2996.18
380.33	3184.59
380.54	3440.59
380.75	3403.72
380.96	3121.10
381.17	3153.87
381.38	3401.68
381.59	3454.92
381.80	3215.31
382.00	3276.75
382.21	3407.82
382.42	3731.40
382.63	3489.74
382.84	3291.09
383.05	3622.86
383.26	3770.31
383.47	3260.37
383.68	3074.00
383.88	3641.29
384.09	3426.25
384.30	3301.33
384.51	3254.22
384.72	3373.00
384.93	3190.74
385.14	3270.61
385.35	3370.96
385.55	3106.77
385.76	3708.87
385.97	3090.38
386.18	3055.57
386.39	3219.41
386.60	3368.91
386.81	3090.38
387.02	3057.62
387.22	3205.07
387.43	3563.47
387.64	3254.22
387.85	3442.64
388.06	3499.98
388.27	4388.80
388.48	7296.91
388.68	10905.43
388.89	13563.70
389.10	14661.41
389.31	14145.32
389.52	11626.32
389.73	10415.97
389.93	9566.06
390.14	8275.84
390.35	7997.32
390.56	7403.41
390.77	6285.22
390.98	4765.62
391.18	4081.60
391.39	4054.98
391.60	3416.01
391.81	3424.20
392.02	3147.73
392.23	3975.11
392.43	3518.41
392.64	3192.78
392.85	3250.13
393.06	3803.08
393.27	3475.40
393.47	3157.97
393.68	3188.69
393.89	3346.38
394.10	3635.14
394.31	3196.88
394.52	3106.77
394.72	3289.04
394.93	3753.93
395.14	3039.19
395.35	3246.03
395.56	3370.96
395.76	3362.76
395.97	3133.39
396.18	3311.57
396.39	3491.79
396.60	3989.44
396.80	3538.89
397.01	3352.52
397.22	3641.29
397.43	3557.32
397.64	3090.38
397.84	3225.55
398.05	3831.75
398.26	3379.15
398.47	3317.71
398.67	3413.96
398.88	3463.12
399.09	3594.19
399.30	3049.43
399.51	3172.30
399.71	3254.22
399.92	3489.74
400.13	3221.45
400.34	3133.39
400.54	3409.87
400.75	3811.27
400.96	3182.54
401.17	3475.40
401.37	3585.99
401.58	3334.09
401.79	3074.00
402.00	3291.09
402.21	3954.63
402.41	3542.99
402.62	3274.70
402.83	3514.31
403.04	3844.04
403.24	4294.59
403.45	3225.55
403.66	3432.40
403.87	3669.96
404.07	3770.31
404.28	3368.91
404.49	3463.12
404.70	3563.47
404.90	3600.33
405.11	3090.38
405.32	3182.54
405.52	3348.43
405.73	3266.51
405.94	3049.43
406.15	3250.13
406.35	3614.66
406.56	3565.51
406.77	3162.06
406.98	3049.43
407.18	3256.27
407.39	3762.12
407.60	3127.25
407.80	3256.27
408.01	3375.05
408.22	3567.56
408.43	3045.33
408.63	3221.45
408.84	3647.43
409.05	3629.00
409.25	3026.90
409.46	3237.84
409.67	3250.13
409.88	3354.57
410.08	3196.88
410.29	3114.96
410.50	3667.91
410.70	3604.42
410.91	3051.47
411.12	3170.26
411.32	3547.08
411.53	3270.61
411.74	3213.26
411.95	3227.60
412.15	3518.41
412.36	3532.75
412.57	3385.29
412.77	3303.37
412.98	3436.49
413.19	3352.52
413.39	3157.97
413.60	3264.46
413.81	3778.50
414.01	3235.79
414.22	3164.11
414.43	3305.42
414.63	3358.67
414.84	3598.28
415.05	3262.41
415.25	2961.36
415.46	3571.66
415.67	3375.05
415.87	3225.55
416.08	3106.77
416.29	3420.11
416.49	3577.80
416.70	3250.13
416.91	3086.29
417.11	3430.35
417.32	3663.82
417.53	3268.56
417.73	3252.17
417.94	3442.64
418.15	3428.30
418.35	3207.12
418.56	3166.16
418.77	3971.01
418.97	3522.51
419.18	3248.08
419.38	2897.88
419.59	3442.64
419.80	3739.59
420.00	3098.58
420.21	3139.54
420.42	3737.54
420.62	3547.08
420.83	3237.84
421.04	3160.02
421.24	3420.11
421.45	3600.33
421.65	3149.78
421.86	3192.78
422.07	3647.43
422.27	3495.88
422.48	3125.20
422.69	2961.36
422.89	3377.10
423.10	3377.10
423.30	3114.96
423.51	3172.30
423.72	3602.38
423.92	3616.71
424.13	3000.27
424.33	3203.02
424.54	3622.86
424.75	3465.16
424.95	3422.16
425.16	3119.06
425.36	3403.72
425.57	3694.54
425.78	3352.52
425.98	3239.89
426.19	3428.30
426.39	3262.41
426.60	3284.94
426.81	3305.42
427.01	3516.36
427.22	3270.61
427.42	3026.90
427.63	3127.25
427.83	3643.34
428.04	3823.56
428.25	3262.41
428.45	3225.55
428.66	3690.44
428.86	3403.72
429.07	3174.35
429.28	3225.55
429.48	3477.45
429.69	3231.69
429.89	3278.80
430.10	3098.58
430.30	3655.62
430.51	3645.38
430.71	3092.43
430.92	3280.85
431.13	3344.33
431.33	3612.62
431.54	3274.70
431.74	3338.19
431.95	3966.92
432.15	3246.03
432.36	3184.59
432.56	3237.84
432.77	3885.00
432.98	3862.47
433.18	3229.65
433.39	3012.56
433.59	3407.82
433.80	3878.85
434.00	3354.57
434.21	3141.58
434.41	3364.81
434.62	4003.78
434.82	2971.60
435.03	3053.52
435.23	3536.84
435.44	2979.79
435.64	3164.11
435.85	3272.65
436.06	3538.89
436.26	3674.06
436.47	3196.88
436.67	3123.15
436.88	3469.26
437.08	3629.00
437.29	3274.70
437.49	3370.96
437.70	3706.82
437.90	3479.50
438.11	3467.21
438.31	3229.65
438.52	3737.54
438.72	3565.51
438.93	3557.32
439.13	3264.46
439.34	3641.29
439.54	3313.61
439.75	3250.13
439.95	3280.85
440.16	3256.27
440.36	3485.64
440.57	3217.36
440.77	3198.93
440.98	3383.24
441.18	3540.94
441.39	3012.56
441.59	3067.86
441.80	3958.72
442.00	3448.78
442.21	3194.83
442.41	3121.10
442.62	3663.82
442.82	3319.76
443.02	3088.34
443.23	3221.45
443.43	3291.09
443.64	3702.73
443.84	3024.85
444.05	3235.79
444.25	3426.25
444.46	3409.87
444.66	3106.77
444.87	3325.90
445.07	3088.34
445.28	3389.39
445.48	3325.90
445.69	3246.03
445.89	4032.45
446.09	3348.43
446.30	3489.74
446.50	3483.59
446.71	5054.39
446.91	5957.54
447.12	6815.64
447.32	7096.21
447.53	7370.64
447.73	6176.67
447.93	5359.53
448.14	5115.83
448.34	5334.96
448.55	4384.70
448.75	4474.81
448.96	4210.62
449.16	4167.62
449.36	4016.07
449.57	3360.72
449.77	3207.12
449.98	3346.38
450.18	3438.54
450.39	3067.86
450.59	3434.44
450.79	3420.11
451.00	3213.26
451.20	3332.05
451.41	3114.96
451.61	3590.09
451.81	3442.64
452.02	3112.91
452.22	3166.16
452.43	3332.05
452.63	3196.88
452.84	3284.94
453.04	3108.82
453.24	3481.55
453.45	3250.13
453.65	3141.58
453.86	3174.35
454.06	3467.21
454.26	3428.30
454.47	3090.38
454.67	3399.63
454.87	3610.57
455.08	3346.38
455.28	3334.09
455.49	3289.04
455.69	3231.69
455.89	3837.89
456.10	3299.28
456.30	3147.73
456.51	3592.14
456.71	3510.22
456.91	3282.89
457.12	3098.58
457.32	3555.27
457.52	3168.21
457.73	3432.40
457.93	3354.57
458.14	3338.19
458.34	3076.05
458.54	3231.69
458.75	3164.11
458.95	3674.06
459.15	3469.26
459.36	3250.13
459.56	3184.59
459.76	3893.19
459.97	3459.02
460.17	3127.25
460.37	3215.31
460.58	3510.22
460.78	3653.58
460.99	3225.55
461.19	3219.41
461.39	3340.24
461.60	3352.52
461.80	3192.78
462.00	3084.24
462.21	3399.63
462.41	3280.85
462.61	3069.91
462.82	2949.08
463.02	3499.98
463.22	3405.77
463.43	3203.02
463.63	3026.90
463.83	3723.21
464.04	3600.33
464.24	3090.38
464.44	3172.30
464.64	3473.36
464.85	3577.80
465.05	3162.06
465.25	3110.86
465.46	3250.13
465.66	3549.13
465.86	3270.61
466.07	3141.58
466.27	3426.25
466.47	3076.05
466.68	3051.47
466.88	3254.22
467.08	3536.84
467.29	3649.48
467.49	3092.43
467.69	3295.18
467.89	3522.51
468.10	3377.10
468.30	3237.84
468.50	3235.79
468.71	3643.34
468.91	3039.19
469.11	3368.91
469.31	3215.31
469.52	3278.80
469.72	3862.47
469.92	3420.11
470.13	3207.12
470.33	3330.00
470.53	3530.70
470.73	3475.40
470.94	3827.65
471.14	4069.31
471.34	4462.52
471.54	4177.86
471.75	3817.41
471.95	3733.45
472.15	3706.82
472.36	3678.15
472.56	3467.21
472.76	3868.61
472.96	3704.78
473.17	3420.11
473.37	3225.55
473.57	3469.26
473.77	3643.34
473.98	3311.57
474.18	3043.28
474.38	4126.66
474.58	3364.81
474.79	3037.14
474.99	3336.14
475.19	3635.14
475.39	3264.46
475.60	3260.37
475.80	3219.41
476.00	3436.49
476.20	3450.83
476.41	3264.46
476.61	3211.22
476.81	3741.64
477.01	3264.46
477.21	3473.36
477.42	3256.27
477.62	3278.80
477.82	3659.72
478.02	3143.63
478.23	3221.45
478.43	3248.08
478.63	3450.83
478.83	3213.26
479.03	3241.93
479.24	3700.68
479.44	3911.62
479.64	3084.24
479.84	2967.51
480.04	3239.89
480.25	3585.99
480.45	3141.58
480.65	3180.50
480.85	3784.65
481.06	3383.24
481.26	3237.84
481.46	3082.19
481.66	3590.09
481.86	3243.98
482.06	3370.96
482.27	3272.65
482.47	3327.95
482.67	3514.31
482.87	3110.86
483.07	3155.92
483.28	3266.51
483.48	3254.22
483.68	3170.26
483.88	3024.85
484.08	2938.84
484.29	3266.51
484.49	3307.47
484.69	2971.60
484.89	3698.63
485.09	3729.35
485.29	3166.16
485.50	3291.09
485.70	3307.47
485.90	3692.49
486.10	3323.85
486.30	3178.45
486.50	3684.30
486.71	3459.02
486.91	3213.26
487.11	3330.00
487.31	3229.65
487.51	3657.67
487.71	3127.25
487.91	3129.30
488.12	3203.02
488.32	2987.99
488.52	3143.63
488.72	2883.54
488.92	3463.12
489.12	3682.25
489.32	3286.99
489.53	3164.11
489.73	3065.81
489.93	3872.71
490.13	3215.31
490.33	3043.28
490.53	3532.75
490.73	3645.38
490.94	3041.23
491.14	3286.99
491.34	3614.66
491.54	3487.69
491.74	4073.41
491.94	4483.00
492.14	4986.80
492.34	5148.59
492.54	4790.20
492.75	4138.94
492.95	4409.28
493.15	4114.37
493.35	3891.14
493.55	3813.32
493.75	3731.40
493.95	4001.73
494.15	3354.57
494.35	3295.18
494.56	3540.94
494.76	3278.80
494.96	3377.10
495.16	3125.20
495.36	3452.88
495.56	3514.31
495.76	3188.69
495.96	3106.77
496.16	3264.46
496.36	3899.33
496.56	3016.66
496.77	3254.22
496.97	3442.64
497.17	3702.73
497.37	2922.45
497.57	3303.37
497.77	3446.73
497.97	3200.98
498.17	3102.67
498.37	3203.02
498.57	3569.61
498.77	3391.44
498.97	3336.14
499.17	3602.38
499.38	3436.49
499.58	3663.82
499.78	3407.82
499.98	3274.70
500.18	3381.20
500.38	3268.56
500.58	3504.07
500.78	3712.97
500.98	6072.23
501.18	7796.62
501.38	9199.48
501.58	9983.85
501.78	9793.39
501.98	8179.59
502.18	7006.10
502.38	6080.42
502.58	6158.24
502.78	5582.76
502.98	5246.90
503.18	5007.28
503.38	4771.77
503.59	4114.37
503.79	3950.53
503.99	3643.34
504.19	3893.19
504.39	3936.20
504.59	3645.38
504.79	3428.30
504.99	3942.34
505.19	3583.95
505.39	3323.85
505.59	3555.27
505.79	3862.47
505.99	3641.29
506.19	3112.91
506.39	3416.01
506.59	3254.22
506.79	3366.86
506.99	3434.44
507.19	3094.48
507.39	3479.50
507.59	3131.34
507.79	3090.38
507.99	3215.31
508.19	3354.57
508.39	3311.57
508.59	3198.93
508.79	3188.69
508.99	3889.09
509.19	3299.28
509.39	3260.37
509.59	2992.08
509.79	3319.76
509.99	3483.59
510.19	3268.56
510.39	3311.57
510.59	3520.46
510.79	3344.33
510.99	3051.47
511.19	3092.43
511.39	3778.50
511.59	3633.10
511.79	3356.62
511.99	3139.54
512.19	3852.23
512.38	3467.21
512.58	3125.20
512.78	3098.58
512.98	3655.62
513.18	3762.12
513.38	3078.10
513.58	3241.93
513.78	3475.40
513.98	3348.43
514.18	3160.02
514.38	3080.14
514.58	3524.55
514.78	3282.89
514.98	3145.68
515.18	3127.25
515.38	3188.69
515.58	3723.21
515.78	3135.44
515.98	3164.11
516.18	3485.64
516.38	3411.92
516.57	3170.26
516.77	3088.34
516.97	3622.86
517.17	3385.29
517.37	2944.98
517.57	3264.46
517.77	3459.02
517.97	3278.80
518.17	3207.12
518.37	3049.43
518.57	3311.57
518.77	3375.05
518.97	3254.22
519.16	3223.50
519.36	3770.31
519.56	3241.93
519.76	3051.47
519.96	3137.49
520.16	3753.93
520.36	3217.36
520.56	3336.14
520.76	3155.92
520.96	3354.57
521.16	3739.59
521.35	3424.20
521.55	3282.89
521.75	3436.49
521.95	3327.95
522.15	3145.68
522.35	3016.66
522.55	3311.57
522.75	3655.62
522.95	3086.29
523.14	2959.31
523.34	3393.48
523.54	3323.85
523.74	3243.98
523.94	3270.61
524.14	3170.26
524.34	3524.55
524.54	3413.96
524.73	3188.69
524.93	3612.62
525.13	3510.22
525.33	3065.81
525.53	3393.48
525.73	3606.47
525.93	3524.55
526.13	3172.30
526.32	3074.00
526.52	3618.76
526.72	3639.24
526.92	3256.27
527.12	3100.62
527.32	3182.54
527.52	3506.12
527.71	3241.93
527.91	3131.34
528.11	3291.09
528.31	3368.91
528.51	3149.78
528.71	3286.99
528.90	3592.14
529.10	3745.73
529.30	3155.92
529.50	2951.12
529.70	3471.31
529.90	3332.05
530.09	3151.82
530.29	3014.61
530.49	3239.89
530.69	4018.11
530.89	3327.95
531.09	3233.74
531.28	3311.57
531.48	3665.86
531.68	3133.39
531.88	3164.11
532.08	3639.24
532.28	3336.14
532.47	3291.09
532.67	3196.88
532.87	3526.60
533.07	3246.03
533.27	3164.11
533.46	3243.98
533.66	3567.56
533.86	3411.92
534.06	3268.56
534.26	3147.73
534.45	3317.71
534.65	3618.76
534.85	3241.93
535.05	3084.24
535.25	3612.62
535.44	3094.48
535.64	3170.26
535.84	3194.83
536.04	3293.13
536.24	3375.05
536.43	3076.05
536.63	3176.40
536.83	3465.16
537.03	3452.88
537.22	2906.07
537.42	3012.56
537.62	3502.03
537.82	3209.17
538.02	3286.99
538.21	3250.13
538.41	4124.61
538.61	3557.32
538.81	3274.70
539.00	3284.94
539.20	3170.26
539.40	3389.39
539.60	3143.63
539.79	3358.67
539.99	3481.55
540.19	3207.12
540.39	3078.10
540.58	3243.98
540.78	3622.86
540.98	3524.55
541.18	3411.92
541.37	3303.37
541.57	3450.83
541.77	3577.80
541.97	3057.62
542.16	3012.56
542.36	3364.81
542.56	3645.38
542.76	3385.29
542.95	3178.45
543.15	3536.84
543.35	3614.66
543.54	3143.63
543.74	3114.96
543.94	3708.87
544.14	3307.47
544.33	3323.85
544.53	3135.44
544.73	3426.25
544.93	3381.20
545.12	3143.63
545.32	3090.38
545.52	3330.00
545.71	3209.17
545.91	3229.65
546.11	3100.62
546.30	3225.55
546.50	3377.10
546.70	3241.93
546.90	3133.39
547.09	3020.75
547.29	3442.64
547.49	3237.84
547.68	3119.06
547.88	3307.47
548.08	3594.19
548.27	3450.83
548.47	3164.11
548.67	3338.19
548.87	3553.23
549.06	3155.92
549.26	3102.67
549.46	3479.50
549.65	3241.93
549.85	3213.26
550.05	3143.63
550.24	3178.45
550.44	3444.68
550.64	3295.18
550.83	3303.37
551.03	3766.21
551.23	3608.52
551.42	3286.99
551.62	3293.13
551.82	3442.64
552.01	3385.29
552.21	3485.64
552.41	3133.39
552.60	3672.01
552.80	3416.01
553.00	3180.50
553.19	3155.92
553.39	3807.17
553.59	3237.84
553.78	3291.09
553.98	3160.02
554.17	3190.74
554.37	3477.45
554.57	3338.19
554.76	3012.56
554.96	3459.02
555.16	3487.69
555.35	3295.18
555.55	3504.07
555.75	3555.27
555.94	3643.34
556.14	3006.42
556.33	3174.35
556.53	3383.24
556.73	3420.11
556.92	3123.15
557.12	3117.01
557.32	3852.23
557.51	3835.85
557.71	3250.13
557.90	3420.11
558.10	3624.90
558.30	3291.09
558.49	3186.64
558.69	3145.68
558.88	3590.09
559.08	3528.65
559.28	3192.78
559.47	3196.88
559.67	3561.42
559.86	3774.41
560.06	3082.19
560.26	3207.12
560.45	3530.70
560.65	3352.52
560.84	3522.51
561.04	3030.99
561.24	3608.52
561.43	3223.50
561.63	3409.87
561.82	3278.80
562.02	3487.69
562.22	3327.95
562.41	3139.54
562.61	3117.01
562.80	3145.68
563.00	3985.35
563.19	3262.41
563.39	3221.45
563.59	3528.65
563.78	3188.69
563.98	3002.32
564.17	3160.02
564.37	3035.09
564.56	3432.40
564.76	3088.34
564.96	3332.05
565.15	3516.36
565.35	3889.09
565.54	3188.69
565.74	3192.78
565.93	3545.03
566.13	3430.35
566.32	3176.40
566.52	3260.37
566.71	3452.88
566.91	3647.43
567.11	3325.90
567.30	3057.62
567.50	3549.13
567.69	3616.71
567.89	3102.67
568.08	3100.62
568.28	3360.72
568.47	3229.65
568.67	3117.01
568.86	3151.82
569.06	3624.90
569.25	3387.34
569.45	3002.32
569.64	3246.03
569.84	3291.09
570.04	3506.12
570.23	3196.88
570.43	3223.50
570.62	3434.44
570.82	3815.37
571.01	3108.82
571.21	3164.11
571.40	3266.51
571.60	3606.47
571.79	3174.35
571.99	3174.35
572.18	3237.84
572.38	3454.92
572.57	3243.98
572.77	3301.33
572.96	4065.22
573.16	3495.88
573.35	3229.65
573.55	3332.05
573.74	3381.20
573.94	3268.56
574.13	3137.49
574.33	3282.89
574.52	3719.11
574.71	3409.87
574.91	3221.45
575.10	3114.96
575.30	3360.72
575.49	3237.84
575.69	3088.34
575.88	3100.62
576.08	3303.37
576.27	3626.95
576.47	3037.14
576.66	3319.76
576.86	3755.97
577.05	3557.32
577.25	3254.22
577.44	3305.42
577.64	3268.56
577.83	3592.14
578.02	3102.67
578.22	3309.52
578.41	3889.09
578.61	3393.48
578.80	3018.71
579.00	3272.65
579.19	3377.10
579.39	3424.20
579.58	3315.66
579.77	3229.65
579.97	3696.58
580.16	3698.63
580.36	3360.72
580.55	3241.93
580.75	3516.36
580.94	3459.02
581.13	3315.66
581.33	3487.69
581.52	3389.39
581.72	3798.98
581.91	3274.70
582.11	3110.86
582.30	3649.48
582.49	3583.95
582.69	3471.31
582.88	3102.67
583.08	3547.08
583.27	3624.90
583.47	3270.61
583.66	3067.86
583.85	3190.74
584.05	3389.39
584.24	3350.48
584.44	3168.21
584.63	3647.43
584.82	3729.35
585.02	3405.77
585.21	3399.63
585.41	3559.37
585.60	3459.02
585.79	3309.52
585.99	3526.60
586.18	3461.07
586.37	4446.14
586.57	6723.48
586.76	18386.66
586.96	36773.33
587.15	49397.01
587.34	57236.63
587.54	60640.35
587.73	53736.65
587.93	38608.31
588.12	29738.55
588.31	24721.03
588.51	21802.68
588.70	20246.22
588.89	17741.55
589.09	15304.47
589.28	13152.06
589.47	10252.13
589.67	7735.18
589.86	6236.06
590.06	4896.69
590.25	4413.37
590.44	3913.67
590.64	3598.28
590.83	3721.16
591.02	3684.30
591.22	3149.78
591.41	3264.46
591.60	3373.00
591.80	4032.45
591.99	3061.71
592.18	3139.54
592.38	3614.66
592.57	3399.63
592.76	3139.54
592.96	3319.76
593.15	3426.25
593.34	3665.86
593.54	3143.63
593.73	3268.56
593.92	3534.79
594.12	3502.03
594.31	3180.50
594.50	3413.96
594.70	3524.55
594.89	4085.70
595.08	3078.10
595.28	3352.52
595.47	4161.47
595.66	3622.86
595.86	3127.25
596.05	3131.34
596.24	3266.51
596.43	3870.66
596.63	3248.08
596.82	3354.57
597.01	3442.64
597.21	3772.36
597.40	3157.97
597.59	3231.69
597.79	3403.72
597.98	3477.45
598.17	3184.59
598.36	3174.35
598.56	3696.58
598.75	3375.05
598.94	3176.40
599.14	3229.65
599.33	3375.05
599.52	3690.44
599.71	3203.02
599.91	3237.84
600.10	3657.67
600.29	3456.97
600.48	3295.18
600.68	3262.41
600.87	3508.17
601.06	3291.09
601.26	3280.85
601.45	3319.76
601.64	3428.30
601.83	3784.65
602.03	3106.77
602.22	3065.81
602.41	3753.93
602.60	4100.03
602.80	3243.98
602.99	3377.10
603.18	3303.37
603.37	3434.44
603.57	3131.34
603.76	3184.59
603.95	3794.89
604.14	3356.62
604.34	3043.28
604.53	3174.35
604.72	3483.59
604.91	3534.79
605.10	3155.92
605.30	3022.80
605.49	3837.89
605.68	3690.44
605.87	3168.21
606.07	3135.44
606.26	3459.02
606.45	3647.43
606.64	3164.11
606.84	3014.61
607.03	3430.35
607.22	3633.10
607.41	3274.70
607.60	3196.88
607.80	3600.33
607.99	3356.62
608.18	3209.17
608.37	3211.22
608.56	3311.57
608.76	3672.01
608.95	3268.56
609.14	3141.58
609.33	3760.07
609.52	3774.41
609.72	3237.84
609.91	3291.09
610.10	3575.75
610.29	3774.41
610.48	3217.36
610.68	3340.24
610.87	3489.74
611.06	3645.38
611.25	3133.39
611.44	3295.18
611.63	3352.52
611.83	3706.82
612.02	3108.82
612.21	3284.94
612.40	3041.23
612.59	3174.35
612.79	3084.24
612.98	3256.27
613.17	3848.13
613.36	3381.20
613.55	3289.04
613.74	3205.07
613.93	3393.48
614.13	3520.46
614.32	3327.95
614.51	3219.41
614.70	3454.92
614.89	3383.24
615.08	3313.61
615.28	3559.37
615.47	3198.93
615.66	3495.88
615.85	3178.45
616.04	3248.08
616.23	3465.16
616.42	3377.10
616.62	3190.74
616.81	3164.11
617.00	3397.58
617.19	3520.46
617.38	3235.79
617.57	3266.51
617.76	3604.42
617.95	3624.90
618.15	3327.95
618.34	3426.25
618.53	3125.20
618.72	3729.35
618.91	3291.09
619.10	3254.22
619.29	3459.02
619.48	3389.39
619.68	3063.76
619.87	3192.78
620.06	3184.59
620.25	3559.37
620.44	3145.68
620.63	3145.68
620.82	3516.36
621.01	3495.88
621.20	3239.89
621.39	3256.27
621.59	3475.40
621.78	3463.12
621.97	3143.63
622.16	3317.71
622.35	3499.98
622.54	3551.18
622.73	3264.46
622.92	2928.60
623.11	3678.15
623.30	3350.48
623.49	3319.76
623.68	3028.95
623.88	3764.17
624.07	3307.47
624.26	3069.91
624.45	3178.45
624.64	3413.96
624.83	3495.88
625.02	3190.74
625.21	3213.26
625.40	3538.89
625.59	3686.34
625.78	3295.18
625.97	3246.03
626.16	3704.78
626.35	3635.14
626.54	3198.93
626.74	3358.67
626.93	3330.00
627.12	3436.49
627.31	3188.69
627.50	3125.20
627.69	3620.81
627.88	3207.12
628.07	3157.97
628.26	3006.42
628.45	3307.47
628.64	3284.94
628.83	3110.86
629.02	3139.54
629.21	3657.67
629.40	3475.40
629.59	3069.91
629.78	3106.77
629.97	3508.17
630.16	3526.60
630.35	3145.68
630.54	3313.61
630.73	3295.18
630.92	3358.67
631.11	3090.38
631.30	3248.08
631.49	3639.24
631.68	3395.53
631.87	3164.11
632.06	3143.63
632.25	3952.58
632.44	3475.40
632.63	3209.17
632.82	3221.45
633.01	3233.74
633.20	3450.83
633.39	3147.73
633.58	3002.32
633.77	3540.94
633.96	3536.84
634.15	3311.57
634.34	3233.74
634.53	3545.03
634.72	3352.52
634.91	3057.62
635.10	3221.45
635.29	3598.28
635.48	3469.26
635.67	3014.61
635.86	3063.76
636.05	3807.17
636.24	3418.06
636.43	3172.30
636.62	3319.76
636.81	2936.79
637.00	3395.53
637.19	3160.02
637.38	3172.30
637.57	3338.19
637.76	3416.01
637.95	3416.01
638.14	3311.57
638.33	3497.93
638.52	3397.58
638.71	3035.09
638.89	3022.80
639.08	4005.83
639.27	3659.72
639.46	3393.48
639.65	3573.71
639.84	3878.85
640.03	4040.64
640.22	3626.95
640.41	3643.34
640.60	3450.83
640.79	3653.58
640.98	3268.56
641.17	3385.29
641.36	3581.90
641.55	3688.39
641.74	3033.04
641.92	3114.96
642.11	3264.46
642.30	3403.72
642.49	3137.49
642.68	3151.82
642.87	3579.85
643.06	3483.59
643.25	3012.56
643.44	3088.34
643.63	3409.87
643.82	3577.80
644.00	3008.47
644.19	3217.36
644.38	3200.98
644.57	3538.89
644.76	3196.88
644.95	3325.90
645.14	3469.26
645.33	3436.49
645.52	3289.04
645.71	3010.51
645.89	3151.82
646.08	3379.15
646.27	3153.87
646.46	3368.91
646.65	3121.10
646.84	3493.83
647.03	3104.72
647.22	3354.57
647.40	3422.16
647.59	3377.10
647.78	3012.56
647.97	3186.64
648.16	3266.51
648.35	3690.44
648.54	3477.45
648.73	3219.41
648.91	3635.14
649.10	3440.59
649.29	3076.05
649.48	3153.87
649.67	3559.37
649.86	3506.12
650.05	3237.84
650.23	3387.34
650.42	3260.37
650.61	3739.59
650.80	3418.06
650.99	3370.96
651.18	3647.43
651.36	3733.45
651.55	3135.44
651.74	3383.24
651.93	3383.24
652.12	3360.72
652.31	3198.93
652.49	3246.03
652.68	3352.52
652.87	3803.08
653.06	3360.72
653.25	3395.53
653.44	3489.74
653.62	3839.94
653.81	3205.07
654.00	3149.78
654.19	3624.90
654.38	4054.98
654.56	3311.57
654.75	3098.58
654.94	3696.58
655.13	3444.68
655.32	3098.58
655.51	3246.03
655.69	3358.67
655.88	3610.57
656.07	3002.32
656.26	3200.98
656.45	3207.12
656.63	3452.88
656.82	3151.82
657.01	3409.87
657.20	3248.08
657.38	3796.93
657.57	3100.62
657.76	2992.08
657.95	3626.95
658.14	3403.72
658.32	3299.28
658.51	3071.95
658.70	3418.06
658.89	3463.12
659.08	3268.56
659.26	3319.76
659.45	3313.61
659.64	3581.90
659.83	3186.64
660.01	3545.03
660.20	3440.59
660.39	3729.35
660.58	2879.44
660.76	3272.65
660.95	3102.67
661.14	3409.87
661.33	3035.09
661.51	3203.02
661.70	3266.51
661.89	3528.65
662.08	3307.47
662.26	2985.94
662.45	3233.74
662.64	3860.42
662.83	3213.26
663.01	3117.01
663.20	3338.19
663.39	3813.32
663.58	3282.89
663.76	3174.35
663.95	3532.75
664.14	3227.60
664.32	3246.03
664.51	3076.05
664.70	3108.82
664.89	3487.69
665.07	3102.67
665.26	3403.72
665.45	3155.92
665.64	3477.45
665.82	3129.30
666.01	3379.15
666.20	3200.98
666.38	3678.15
666.57	3489.74
666.76	5662.63
666.95	12402.50
667.13	18681.57
667.32	22353.58
667.51	24757.89
667.69	25513.59
667.88	21003.97
668.07	15296.28
668.25	13346.61
668.44	11673.42
668.63	10379.11
668.81	8875.90
669.00	7833.48
669.19	7276.43
669.38	6223.78
669.56	5435.31
669.75	4808.63
669.94	4351.93
670.12	3805.13
670.31	3475.40
670.50	3401.68
670.68	3702.73
670.87	3479.50
671.06	3065.81
671.24	3260.37
671.43	3788.74
671.62	3389.39
671.80	3119.06
671.99	3340.24
672.18	3461.07
672.36	3631.05
672.55	3377.10
672.74	3289.04
672.92	3387.34
673.11	3610.57
673.29	3035.09
673.48	3356.62
673.67	3321.81
673.85	3518.41
674.04	3114.96
674.23	3280.85
674.41	3864.52
674.60	3196.88
674.79	2961.36
674.97	3053.52
675.16	3561.42
675.34	3631.05
675.53	3178.45
675.72	3172.30
675.90	3983.30
676.09	3270.61
676.28	3264.46
676.46	3057.62
676.65	3499.98
676.83	3254.22
677.02	3209.17
677.21	3215.31
677.39	3461.07
677.58	3241.93
677.77	3151.82
677.95	3041.23
678.14	3301.33
678.32	3477.45
678.51	3188.69
678.70	3477.45
678.88	3293.13
679.07	3420.11
679.25	3145.68
679.44	3299.28
679.63	3090.38
679.81	3475.40
680.00	3368.91
680.18	3207.12
680.37	3827.65
680.55	3471.31
680.74	3026.90
680.93	2955.22
681.11	3473.36
681.30	3452.88
681.48	3241.93
681.67	3235.79
681.85	3454.92
682.04	3198.93
682.23	3373.00
682.41	3313.61
682.60	3440.59
682.78	3350.48
682.97	3098.58
683.15	3217.36
683.34	3565.51
683.53	3743.69
683.71	3037.14
683.90	3227.60
684.08	3749.83
684.27	3362.76
684.45	3299.28
684.64	3278.80
684.82	3483.59
685.01	3641.29
685.19	3200.98
685.38	3510.22
685.57	3420.11
685.75	3313.61
685.94	3123.15
686.12	3090.38
686.31	3411.92
686.49	3731.40
686.68	2955.22
686.86	3133.39
687.05	3456.97
687.23	3682.25
687.42	3168.21
687.60	3022.80
687.79	3682.25
687.97	3794.89
688.16	3254.22
688.34	3411.92
688.53	3092.43
688.71	3557.32
688.90	3547.08
689.08	3180.50
689.27	3016.66
689.45	3569.61
689.64	3413.96
689.82	3338.19
690.01	3540.94
690.19	3508.17
690.38	3270.61
690.56	3368.91
690.75	3227.60
690.93	3370.96
691.12	3102.67
691.30	3241.93
691.49	3303.37
691.67	3393.48
691.86	3598.28
692.04	3225.55
692.23	3325.90
692.41	3471.31
692.60	3561.42
692.78	3387.34
692.97	3413.96
693.15	3528.65
693.34	3383.24
693.52	3456.97
693.71	3362.76
693.89	3362.76
694.08	2983.89
694.26	3213.26
694.44	3577.80
694.63	3620.81
694.81	3135.44
695.00	3215.31
695.18	3657.67
695.37	3979.20
695.55	3356.62
695.74	3225.55
695.92	3278.80
696.10	3768.26
696.29	3088.34
696.47	3229.65
696.66	3233.74
696.84	3200.98
697.03	3215.31
697.21	3534.79
697.40	4833.21
697.58	3729.35
697.76	3160.02
697.95	3305.42
698.13	3155.92
698.32	3280.85
698.50	3127.25
698.68	3205.07
698.87	3450.83
699.05	3811.27
699.24	3274.70
699.42	3205.07
699.61	3504.07
699.79	3469.26
699.97	3229.65
700.16	3082.19
700.34	3129.30
700.53	3502.03
700.71	3383.24
700.89	3424.20
701.08	3385.29
701.26	3403.72
701.45	3430.35
701.63	3164.11
701.81	3340.24
702.00	3213.26
702.18	3272.65
702.37	3229.65
702.55	3602.38
702.73	3426.25
702.92	2996.18
703.10	3545.03
703.28	3551.18
703.47	3133.39
703.65	3461.07
703.84	3332.05
704.02	3297.23
704.20	3852.23
704.39	3186.64
704.57	3104.72
704.75	3614.66
704.94	3598.28
705.12	3348.43
705.30	4028.35
705.49	8198.02
705.67	14538.53
705.86	19195.61
706.04	21440.18
706.22	23756.44
706.41	22302.38
706.59	16570.12
706.77	13500.21
706.96	11611.98
707.14	10815.32
707.32	9283.44
707.51	8189.83
707.69	6766.49
707.87	5871.53
708.06	4685.75
708.24	4337.60
708.42	4122.56
708.61	4270.01
708.79	3286.99
708.97	3385.29
709.16	3551.18
709.34	3461.07
709.52	3108.82
709.71	3286.99
709.89	3610.57
710.07	3241.93
710.26	3192.78
710.44	3207.12
710.62	3639.24
710.80	3479.50
710.99	3299.28
711.17	3346.38
711.35	3270.61
711.54	3325.90
711.72	3434.44
711.90	3182.54
712.09	3530.70
712.27	3233.74
712.45	3358.67
712.63	3272.65
712.82	3454.92
713.00	3432.40
713.18	3346.38
713.37	3444.68
713.55	3594.19
713.73	3633.10
713.91	3250.13
714.10	3188.69
714.28	3395.53
714.46	3551.18
714.65	3334.09
714.83	3164.11
715.01	3454.92
715.19	3467.21
715.38	3131.34
715.56	3356.62
715.74	3262.41
715.92	3221.45
716.11	3536.84
716.29	2979.79
716.47	3379.15
716.65	3389.39
716.84	3094.48
717.02	3313.61
717.20	3092.43
717.38	3256.27
717.57	3307.47
717.75	3231.69
717.93	3362.76
718.11	3583.95
718.30	3102.67
718.48	3246.03
718.66	3747.78
718.84	3657.67
719.03	3293.13
719.21	3037.14
719.39	3774.41
719.57	3545.03
719.75	3209.17
719.94	3160.02
720.12	3356.62
720.30	3432.40
720.48	3266.51
720.67	3190.74
720.85	3252.17
721.03	3305.42
721.21	3125.20
721.39	3325.90
721.58	3553.23
721.76	3442.64
721.94	3213.26
722.12	3237.84
722.30	3831.75
722.49	3377.10
722.67	3256.27
722.85	3225.55
723.03	3117.01
723.21	3379.15
723.40	3188.69
723.58	3317.71
723.76	3559.37
723.94	3633.10
724.12	3205.07
724.30	3381.20
724.49	3626.95
724.67	3229.65
724.85	3205.07
725.03	3086.29
725.21	3581.90
725.40	3600.33
725.58	3250.13
725.76	3368.91
725.94	3563.47
726.12	3196.88
726.30	3231.69
726.49	3143.63
726.67	3311.57
726.85	3598.28
727.03	3911.62
727.21	4997.04
727.39	6064.04
727.57	6473.63
727.76	6811.54
727.94	6748.06
728.12	5904.29
728.30	5134.26
728.48	4741.05
728.66	4517.82
728.84	4417.47
729.03	3930.05
729.21	3655.62
729.39	3590.09
729.57	3522.51
729.75	3559.37
729.93	3491.79
730.11	3137.49
730.30	3358.67
730.48	3409.87
730.66	3237.84
730.84	3252.17
731.02	3385.29
731.20	3327.95
731.38	3254.22
731.56	3133.39
731.74	3198.93
731.93	3487.69
732.11	3334.09
732.29	3172.30
732.47	3530.70
732.65	3479.50
732.83	3403.72
733.01	3319.76
733.19	3239.89
733.37	3598.28
733.56	3223.50
733.74	3088.34
733.92	3774.41
734.10	3373.00
734.28	3424.20
734.46	3059.67
734.64	3393.48
734.82	3387.34
735.00	3223.50
735.18	3098.58
735.36	3454.92
735.54	3344.33
735.73	3250.13
735.91	3330.00
736.09	3790.79
736.27	3416.01
736.45	3211.22
736.63	3000.27
736.81	3403.72
736.99	3690.44
737.17	3440.59
737.35	3196.88
737.53	3522.51
737.71	3356.62
737.89	3452.88
738.07	3137.49
738.25	3270.61
738.43	3135.44
738.61	3188.69
738.80	3114.96
738.98	3176.40
739.16	3332.05
739.34	3151.82
739.52	3583.95
739.70	3381.20
739.88	3573.71
740.06	3373.00
740.24	3028.95
740.42	3684.30
740.60	3053.52
740.78	3147.73
740.96	2906.07
741.14	3313.61
741.32	3327.95
741.50	3026.90
741.68	3489.74
741.86	3743.69
742.04	3217.36
742.22	3076.05
742.40	3180.50
742.58	3497.93
742.76	3358.67
742.94	3411.92
743.12	3055.57
743.30	3454.92
743.48	3528.65
743.66	3114.96
743.84	3217.36
744.02	3413.96
744.20	3391.44
744.38	3061.71
744.56	3170.26
744.74	3872.71
744.92	3516.36
745.10	3452.88
745.28	3190.74
745.46	3778.50
745.64	3426.25
745.82	3239.89
746.00	3217.36
746.18	3565.51
746.36	3239.89
746.54	3231.69
746.72	3205.07
746.90	3254.22
747.08	3647.43
747.26	3131.34
747.44	3368.91
747.62	3616.71
747.80	3489.74
747.98	3317.71
748.15	3209.17
748.33	3790.79
748.51	3553.23
748.69	3342.28
748.87	3112.91
749.05	3311.57
749.23	3448.78
749.41	3110.86
749.59	3186.64
749.77	3612.62
749.95	3352.52
750.13	3196.88
750.31	3360.72
750.49	3420.11
750.67	3651.53
750.85	3317.71
751.03	3180.50
751.20	3835.85
751.38	3432.40
751.56	3278.80
751.74	3123.15
751.92	3360.72
752.10	3164.11
752.28	3252.17
752.46	3178.45
752.64	3411.92
752.82	3493.83
753.00	3270.61
753.18	3121.10
753.35	3344.33
753.53	3416.01
753.71	3135.44
753.89	3176.40
754.07	3508.17
754.25	3581.90
754.43	3276.75
754.61	3180.50
754.79	3631.05
754.97	3311.57
755.14	3373.00
755.32	3149.78
755.50	3477.45
755.68	3475.40
755.86	3096.53
756.04	3180.50
756.22	3043.28
756.40	3585.99
756.57	3403.72
756.75	3174.35
756.93	3653.58
757.11	3540.94
757.29	3039.19
757.47	3112.91
757.65	3205.07
757.82	2930.64
758.00	3164.11
758.18	3143.63
758.36	3264.46
758.54	3764.17
758.72	3049.43
758.90	3352.52
759.07	3426.25
759.25	3227.60
759.43	3266.51
759.61	3053.52
759.79	4630.46
759.97	3680.20
760.15	3209.17
760.32	3239.89
760.50	3493.83
760.68	3692.49
760.86	3020.75
761.04	3311.57
761.22	3575.75
761.39	3426.25
761.57	3356.62
761.75	3153.87
761.93	3655.62
762.11	3440.59
762.28	3311.57
762.46	3078.10
762.64	3674.06
762.82	3172.30
763.00	3129.30
763.18	3444.68
763.35	3186.64
763.53	3616.71
763.71	3274.70
763.89	3127.25
764.07	3424.20
764.24	3424.20
764.42	3362.76
764.60	3248.08
764.78	3487.69
764.96	3557.32
765.13	3411.92
765.31	3080.14
765.49	3672.01
765.67	3182.54
765.84	3098.58
766.02	3117.01
766.20	3117.01
766.38	3506.12
766.56	3323.85
766.73	3319.76
766.91	3409.87
767.09	3459.02
767.27	3254.22
767.44	3139.54
767.62	3518.41
767.80	3387.34
767.98	3098.58
768.15	3133.39
768.33	3606.47
768.51	3579.85
768.69	3360.72
768.87	3166.16
769.04	3428.30
769.22	3995.59
769.40	3323.85
769.58	3350.48
769.75	3483.59
769.93	3762.12
770.11	3221.45
770.28	3057.62
770.46	3624.90
770.64	3459.02
770.82	3233.74
770.99	3131.34
771.17	3573.71
771.35	3373.00
771.53	3241.93
771.70	3166.16
771.88	3577.80
772.06	3411.92
772.23	3155.92
772.41	3157.97
772.59	3454.92
772.77	3295.18
772.94	3227.60
773.12	3225.55
773.30	3426.25
773.47	3473.36
773.65	3139.54
773.83	3389.39
774.01	3432.40
774.18	3057.62
774.36	3213.26
774.54	3049.43
774.71	3520.46
774.89	3092.43
775.07	3053.52
775.24	3182.54
775.42	3237.84
775.60	3766.21
775.78	3157.97
775.95	3047.38
776.13	3151.82
776.31	3125.20
776.48	3411.92
776.66	3426.25
776.84	3383.24
777.01	3239.89
777.19	3024.85
777.37	3180.50
777.54	3581.90
777.72	3940.29
777.90	3344.33
778.07	3196.88
778.25	4167.62
778.43	3663.82
778.60	3133.39
778.78	3268.56
778.96	3721.16
779.13	3182.54
779.31	3188.69
779.49	3241.93
779.66	3411.92
779.84	3342.28
780.01	3235.79
780.19	3110.86
780.37	3721.16
780.54	3504.07
780.72	3061.71
780.90	3237.84
781.07	3342.28
781.25	3327.95
781.43	3418.06
781.60	3164.11
781.78	3768.26
781.95	3524.55
782.13	3174.35
782.31	3213.26
782.48	3071.95
782.66	3471.31
782.83	3399.63
783.01	3305.42
783.19	3588.04
783.36	3342.28
783.54	3131.34
783.72	3272.65
783.89	3344.33
784.07	3467.21
784.24	3321.81
784.42	3416.01
784.60	3567.56
784.77	3549.13
784.95	2967.51
785.12	3180.50
785.30	3393.48
785.47	3270.61
785.65	3053.52
785.83	3229.65
786.00	3350.48
786.18	3467.21
786.35	3106.77
786.53	3098.58
786.71	3743.69
786.88	3588.04
787.06	3276.75
787.23	3299.28
787.41	3311.57
787.58	3424.20
787.76	3135.44
787.94	3172.30
788.11	3483.59
788.29	3141.58
788.46	3256.27
788.64	3014.61
788.81	3364.81
788.99	3200.98
789.16	3182.54
789.34	3246.03
789.52	3229.65
789.69	3336.14
789.87	3074.00
790.04	3213.26
790.22	3389.39
790.39	3895.24
790.57	3106.77
790.74	3172.30
790.92	3659.72
791.09	3127.25
791.27	3313.61
791.44	3219.41
791.62	3403.72
791.79	3635.14
791.97	3262.41
792.15	3481.55
792.32	3557.32
792.50	3575.75
792.67	3368.91
792.85	3520.46
793.02	3362.76
793.20	3385.29
793.37	3014.61
793.55	3065.81
793.72	3231.69
793.90	3493.83
794.07	3213.26
794.25	3125.20
794.42	3327.95
794.60	3420.11
794.77	3225.55
794.95	3377.10
795.12	3665.86
795.30	3393.48
795.47	2949.08
795.65	3553.23
795.82	3491.79
796.00	3274.70
796.17	3282.89
796.34	3028.95
796.52	3461.07
796.69	3641.29
796.87	3262.41
797.04	3291.09
797.22	3540.94
797.39	3499.98
797.57	3350.48
797.74	3272.65
797.92	3532.75
798.09	3338.19
798.27	3540.94
798.44	3198.93
798.62	3241.93
798.79	3413.96
798.96	3366.86
799.14	3213.26
799.31	4005.83
799.49	3467.21
799.66	3166.16
799.84	3209.17
800.01	3078.10
800.19	3536.84
800.36	2994.13
800.53	3264.46
800.71	3567.56
800.88	3798.98
801.06	3106.77
801.23	3119.06
801.41	3483.59
801.58	3344.33
801.75	3225.55
801.93	3172.30
802.10	3573.71
802.28	3301.33
802.45	3303.37
802.63	3289.04
802.80	3702.73
802.97	3321.81
803.15	3188.69
803.32	3141.58
803.50	3223.50
803.67	3213.26
803.84	3143.63
804.02	3278.80
804.19	3358.67
804.37	2934.74
804.54	3071.95
804.71	3164.11
804.89	3401.68
805.06	3241.93
805.24	3063.76
805.41	2967.51
805.58	3254.22
805.76	3901.38
805.93	3174.35
806.10	3327.95
806.28	3553.23
806.45	3450.83
806.63	3385.29
806.80	3280.85
806.97	3420.11
807.15	3508.17
807.32	3241.93
807.49	3172.30
807.67	3153.87
807.84	3622.86
808.01	3002.32
808.19	3239.89
808.36	3919.81
808.54	3352.52
808.71	3186.64
808.88	3166.16
809.06	3708.87
809.23	3846.09
809.40	3274.70
809.58	3164.11
809.75	3389.39
809.92	3180.50
810.10	3454.92
810.27	3164.11
810.44	3553.23
810.62	3655.62
810.79	3215.31
810.96	3221.45
811.14	3411.92
811.31	3444.68
811.48	3418.06
811.66	3278.80
811.83	3729.35
812.00	3606.47
812.18	3362.76
812.35	3510.22
812.52	3254.22
812.69	3336.14
812.87	3205.07
813.04	3143.63
813.21	3354.57
813.39	3225.55
813.56	3188.69
813.73	3450.83
813.91	3131.34
814.08	3434.44
814.25	3188.69
814.42	3065.81
814.60	3405.77
814.77	3479.50
814.94	3200.98
815.12	3389.39
815.29	3803.08
815.46	3286.99
815.63	3241.93
815.81	3178.45
815.98	3352.52
816.15	3426.25
816.33	3348.43
816.50	3227.60
816.67	3356.62
816.84	3424.20
817.02	3139.54
817.19	3143.63
817.36	3461.07
817.53	3481.55
817.71	3041.23
817.88	3200.98
818.05	3436.49
818.22	3368.91
818.40	3450.83
818.57	3160.02
818.74	3424.20
818.91	3330.00
819.09	3389.39
819.26	3272.65
819.43	3291.09
819.60	3174.35
819.78	3342.28
819.95	3280.85
820.12	3239.89
820.29	3794.89
820.47	3551.18
820.64	3125.20
820.81	3137.49
820.98	3282.89
821.15	3157.97
821.33	3297.23
821.50	3114.96
821.67	3631.05
821.84	3225.55
822.02	3125.20
822.19	3602.38
822.36	3356.62
822.53	3057.62
822.70	3110.86
822.88	3299.28
823.05	3741.64
823.22	3321.81
823.39	3200.98
823.56	3270.61
823.74	3868.61
823.91	3008.47
824.08	3153.87
824.25	3151.82
824.42	3848.13
824.60	3047.38
824.77	3233.74
824.94	3348.43
825.11	3596.23
825.28	3057.62
825.45	3383.24
825.63	3565.51
825.80	3319.76
825.97	3346.38
826.14	3239.89
826.31	3100.62
826.48	3614.66
826.66	3094.48
826.83	3084.24
827.00	3413.96
827.17	3254.22
827.34	3323.85
827.51	3133.39
827.69	3362.76
827.86	3194.83
828.03	3268.56
828.20	3280.85
828.37	3330.00
828.54	3592.14
828.71	3080.14
828.89	3237.84
829.06	3420.11
829.23	3669.96
829.40	3198.93
829.57	3110.86
829.74	3575.75
829.91	3291.09
830.09	3145.68
830.26	3356.62
830.43	3753.93
830.60	3413.96
830.77	3336.14
830.94	3477.45
831.11	3561.42
831.28	3254.22
831.46	3303.37
831.63	3192.78
831.80	3686.34
831.97	3209.17
832.14	3266.51
832.31	3237.84
832.48	3411.92
832.65	3665.86
832.82	3252.17
832.99	3219.41
833.17	3260.37
833.34	3766.21
833.51	3143.63
833.68	2961.36
833.85	3715.02
834.02	3237.84
834.19	3192.78
834.36	3198.93
834.53	3502.03
834.70	3588.04
834.87	3164.11
835.04	2961.36
835.22	3243.98
835.39	3336.14
835.56	2969.55
835.73	3018.71
835.90	3639.24
836.07	3258.32
836.24	3135.44
836.41	2955.22
836.58	3227.60
836.75	3592.14
836.92	3057.62
837.09	2949.08
837.26	3559.37
837.43	3450.83
837.60	3004.37
837.77	3033.04
837.94	3696.58
838.12	3710.92
838.29	2959.31
838.46	2930.64
838.63	3137.49
838.80	3790.79
838.97	3065.81
839.14	2922.45
839.31	3516.36
839.48	3622.86
839.65	2965.46
839.82	3102.67
839.99	3526.60
840.16	3510.22
840.33	2951.12
840.50	3123.15
840.67	3291.09
840.84	2969.55
841.01	2926.55
841.18	2973.65
841.35	3358.67
841.52	3520.46
841.69	3385.29
841.86	3067.86
842.03	3401.68
842.20	3629.00
842.37	2979.79
842.54	3065.81
842.71	3424.20
842.88	3151.82
843.05	3022.80
843.22	3033.04
843.39	3604.42
843.56	3286.99
843.73	3000.27
843.90	3108.82
844.07	3416.01
844.24	3639.24
844.41	3092.43
844.58	3045.33
844.75	3463.12
844.92	3473.36
845.09	3092.43
845.26	3096.53
845.43	3626.95
845.60	3332.05
845.77	3176.40
845.94	3119.06
846.10	3561.42
846.27	3121.10
846.44	2840.53
846.61	2852.82
846.78	3497.93
846.95	3643.34
847.12	2912.21
847.29	3047.38
847.46	3164.11
847.63	3561.42
847.80	2840.53
847.97	3069.91
848.14	3930.05
848.31	3295.18
848.48	2846.68
848.65	2981.84
848.82	3256.27
848.98	3934.15
849.15	3110.86
849.32	3141.58
849.49	3622.86
849.66	3522.51
849.83	2977.75
850.00	2953.17
850.17	3643.34
850.34	3368.91
850.51	2920.40
850.68	3014.61
850.85	3936.20
851.01	3475.40
851.18	3059.67
851.35	3002.32
851.52	3540.94
851.69	3739.59
851.86	2934.74
852.03	3014.61
852.20	3602.38
852.37	3387.34
852.53	2947.03
852.70	2926.55
852.87	3502.03
853.04	3532.75
853.21	2981.84
853.38	3297.23
853.55	3624.90
853.72	3688.39
853.89	2910.16
854.05	2951.12
854.22	3428.30
854.39	3360.72
854.56	2977.75
854.73	3198.93
854.90	3250.13
855.07	3364.81
855.23	2906.07
855.40	2996.18
855.57	3426.25
855.74	2893.78
855.91	3194.83
856.08	2832.34
856.25	3090.38
856.41	3405.77
856.58	2949.08
856.75	3074.00
856.92	3106.77
857.09	3645.38
857.26	2795.48
857.42	3094.48
857.59	3606.47
857.76	3364.81
857.93	2977.75
858.10	3092.43
858.27	3174.35
858.43	3405.77
858.60	2971.60
858.77	2877.40
858.94	3239.89
859.11	3620.81
859.27	3102.67
859.44	2967.51
859.61	3887.04
859.78	3592.14
859.95	3043.28
860.12	2951.12
860.28	3876.80
860.45	3784.65
860.62	2992.08
860.79	3198.93
860.95	3319.76
861.12	3252.17
861.29	2944.98
861.46	2979.79
861.63	3422.16
861.79	3534.79
861.96	2867.16
862.13	3014.61
862.30	3778.50
862.47	3270.61
862.63	2861.01
862.80	2990.03
862.97	3598.28
863.14	3452.88
863.30	3051.47
863.47	2908.12
863.64	3702.73
863.81	3424.20
863.97	2889.68
864.14	3074.00
864.31	3403.72
864.48	3418.06
864.65	2969.55
864.81	3172.30
864.98	3569.61
865.15	3696.58
865.32	3125.20
865.48	3094.48
865.65	3778.50
865.82	3321.81
865.98	3110.86
866.15	3049.43
866.32	3385.29
866.49	3334.09
866.65	3112.91
866.82	3090.38
866.99	3375.05
867.16	3327.95
867.32	3012.56
867.49	2922.45
867.66	3416.01
867.83	3395.53
867.99	2944.98
868.16	3082.19
868.33	3170.26
868.49	3504.07
868.66	3069.91
868.83	3043.28
868.99	3385.29
869.16	3434.44
869.33	3151.82
869.50	3059.67
869.66	3436.49
869.83	3454.92
870.00	2891.73
870.16	3147.73
870.33	3420.11
870.50	3565.51
870.66	3108.82
870.83	3065.81
871.00	3452.88
871.17	3567.56
871.33	3049.43
871.50	2926.55
871.67	3399.63
871.83	3303.37
872.00	3051.47
872.17	3026.90
872.33	3878.85
872.50	3745.73
872.67	3028.95
872.83	3020.75
873.00	3456.97
873.17	3434.44
873.33	3086.29
873.50	3117.01
873.67	3219.41
873.83	3291.09
874.00	3012.56
874.16	3157.97
874.33	3426.25
874.50	3217.36
874.66	3010.51
874.83	3153.87
875.00	3688.39
875.16	3741.64
875.33	3119.06
875.50	2799.57
875.66	3307.47
875.83	3502.03
875.99	3033.04
876.16	3184.59
876.33	3200.98
876.49	3360.72
876.66	3082.19
876.83	3092.43
876.99	3059.67
877.16	3481.55
877.32	2967.51
877.49	3215.31
877.66	3545.03
877.82	3796.93
877.99	3153.87
878.15	3246.03
878.32	3495.88
878.49	3524.55
878.65	3119.06
878.82	3303.37
878.98	3295.18
879.15	3647.43
879.32	3225.55
879.48	3258.32
879.65	3360.72
879.81	3377.10
879.98	3074.00
880.15	3008.47
880.31	3577.80
880.48	3258.32
880.64	3164.11
880.81	3211.22
880.97	3737.54
881.14	3702.73
881.31	2969.55
881.47	3182.54
881.64	3399.63
881.80	3041.23
881.97	3235.79
882.13	2983.89
882.30	3186.64
882.47	3254.22
882.63	2983.89
882.80	2912.21
882.96	3377.10
883.13	3622.86
883.29	3016.66
883.46	2994.13
883.62	3958.72
883.79	3411.92
883.95	3164.11
884.12	2963.41
884.29	3680.20
884.45	3459.02
884.62	3035.09
884.78	3010.51
884.95	3878.85
885.11	3188.69
885.28	3108.82
885.44	3074.00
885.61	3604.42
885.77	3690.44
885.94	3157.97
886.10	3123.15
886.27	3452.88
886.43	3878.85
886.60	3243.98
886.76	3147.73
886.93	3160.02
887.09	3403.72
887.26	2883.54
887.42	3127.25
887.59	3755.97
887.75	3987.40
887.92	3301.33
888.08	3166.16
888.25	3841.99
888.41	3647.43
888.58	3143.63
888.74	2975.70
888.91	3327.95
>>>>>End Processed Spectral Data<<<<<
