SpectraSuite Data File
++++++++++++++++++++++++++++++++++++
Date: Fri May 06 09:28:55 CEST 2016
User: root
Dark Spectrum Present: No
Reference Spectrum Present: No
Number of Sampled Component Spectra: 1
Spectrometers: USB4C02835
Integration Time (usec): 100000 (USB4C02835)
Spectra Averaged: 1 (USB4C02835)
Boxcar Smoothing: 0 (USB4C02835)
Correct for Electrical Dark: No (USB4C02835)
Strobe/Lamp Enabled: No (USB4C02835)
Correct for Detector Non-linearity: No (USB4C02835)
Correct for Stray Light: No (USB4C02835)
Number of Pixels in Processed Spectrum: 3648
>>>>>Begin Processed Spectral Data<<<<<
177.47	2287.58
177.69	2287.58
177.91	2287.58
178.13	2306.01
178.36	2312.16
178.58	3192.78
178.80	3270.61
179.02	3139.54
179.24	3205.07
179.46	2889.68
179.68	3008.47
179.90	3350.48
180.13	3508.17
180.35	2762.71
180.57	2944.98
180.79	3583.95
181.01	3471.31
181.23	3014.61
181.45	3092.43
181.67	3585.99
181.90	3594.19
182.12	3010.51
182.34	2797.53
182.56	3510.22
182.78	3538.89
183.00	2922.45
183.22	2975.70
183.44	3082.19
183.66	4124.61
183.89	3149.78
184.11	3008.47
184.33	3626.95
184.55	3643.34
184.77	2930.64
184.99	2959.31
185.21	3354.57
185.43	3985.35
185.65	2938.84
185.87	2969.55
186.10	4042.69
186.32	4018.11
186.54	3028.95
186.76	3057.62
186.98	3737.54
187.20	3424.20
187.42	3010.51
187.64	2893.78
187.86	3499.98
188.08	3723.21
188.30	2897.88
188.52	3090.38
188.75	3725.26
188.97	3688.39
189.19	2895.83
189.41	2893.78
189.63	3545.03
189.85	3403.72
190.07	2828.24
190.29	2789.33
190.51	3647.43
190.73	3194.83
190.95	3153.87
191.17	3006.42
191.39	3074.00
191.61	3354.57
191.84	2971.60
192.06	3074.00
192.28	3135.44
192.50	4163.52
192.72	3166.16
192.94	3078.10
193.16	3766.21
193.38	3563.47
193.60	2881.49
193.82	3184.59
194.04	3692.49
194.26	3461.07
194.48	3026.90
194.70	2918.36
194.92	3295.18
195.14	3659.72
195.36	2983.89
195.58	3002.32
195.80	3381.20
196.02	3411.92
196.24	3016.66
196.46	3022.80
196.69	3381.20
196.91	4050.88
197.13	3084.24
197.35	3026.90
197.57	3801.03
197.79	3600.33
198.01	2996.18
198.23	2996.18
198.45	3653.58
198.67	3139.54
198.89	2770.90
199.11	3045.33
199.33	3313.61
199.55	3051.47
199.77	2850.77
199.99	3092.43
200.21	3407.82
200.43	3616.71
200.65	2875.35
200.87	2840.53
201.09	3524.55
201.31	3336.14
201.53	2981.84
201.75	3055.57
201.97	3436.49
202.19	3532.75
202.41	3049.43
202.63	3084.24
202.85	3522.51
203.07	3520.46
203.29	3100.62
203.51	2873.30
203.73	3346.38
203.95	4065.22
204.17	2906.07
204.39	3092.43
204.61	3454.92
204.83	3377.10
205.05	3149.78
205.27	2981.84
205.49	3948.48
205.71	3407.82
205.93	2891.73
206.15	2820.05
206.37	3479.50
206.59	3438.54
206.81	2801.62
207.03	2858.96
207.25	3266.51
207.47	3635.14
207.69	3014.61
207.91	3254.22
208.13	3803.08
208.34	3315.66
208.56	2996.18
208.78	3065.81
209.00	3344.33
209.22	3403.72
209.44	3000.27
209.66	2936.79
209.88	3538.89
210.10	3422.16
210.32	2963.41
210.54	3043.28
210.76	3377.10
210.98	3696.58
211.20	2854.87
211.42	3041.23
211.64	3833.80
211.86	3524.55
212.08	3037.14
212.30	2951.12
212.52	3334.09
212.74	3575.75
212.96	3114.96
213.17	3092.43
213.39	3694.54
213.61	3839.94
213.83	2873.30
214.05	2883.54
214.27	3821.51
214.49	3211.22
214.71	2904.02
214.93	3108.82
215.15	3499.98
215.37	3686.34
215.59	2873.30
215.81	3037.14
216.03	3770.31
216.24	3547.08
216.46	3022.80
216.68	3059.67
216.90	3645.38
217.12	3655.62
217.34	2926.55
217.56	3100.62
217.78	3721.16
218.00	3631.05
218.22	3045.33
218.44	3180.50
218.66	3530.70
218.87	3835.85
219.09	2953.17
219.31	2977.75
219.53	3524.55
219.75	3366.86
219.97	3059.67
220.19	3024.85
220.41	3491.79
220.63	3835.85
220.85	2959.31
221.06	3022.80
221.28	3774.41
221.50	3608.52
221.72	2885.59
221.94	2826.20
222.16	3489.74
222.38	3680.20
222.60	2951.12
222.82	3004.37
223.03	3739.59
223.25	3229.65
223.47	2863.06
223.69	3209.17
223.91	3596.23
224.13	3502.03
224.35	2815.96
224.57	3102.67
224.78	3643.34
225.00	3200.98
225.22	3065.81
225.44	2863.06
225.66	3581.90
225.88	3237.84
226.10	3125.20
226.32	2953.17
226.53	3762.12
226.75	3362.76
226.97	3141.58
227.19	2992.08
227.41	3307.47
227.63	3411.92
227.85	2803.67
228.06	2965.46
228.28	3557.32
228.50	3616.71
228.72	2781.14
228.94	2912.21
229.16	3055.57
229.37	3221.45
229.59	2869.20
229.81	3254.22
230.03	3434.44
230.25	3176.40
230.47	2848.72
230.69	2934.74
230.90	3633.10
231.12	3264.46
231.34	3147.73
231.56	3045.33
231.78	3262.41
232.00	3524.55
232.21	3026.90
232.43	3039.19
232.65	3106.77
232.87	3549.13
233.09	2815.96
233.30	2848.72
233.52	3600.33
233.74	3428.30
233.96	2914.26
234.18	3114.96
234.40	3444.68
234.61	3979.20
234.83	2887.64
235.05	2944.98
235.27	3942.34
235.49	3729.35
235.70	2885.59
235.92	2936.79
236.14	3557.32
236.36	3971.01
236.58	2924.50
236.79	3049.43
237.01	3504.07
237.23	3510.22
237.45	3162.06
237.67	2947.03
237.88	3614.66
238.10	3897.28
238.32	2908.12
238.54	2938.84
238.76	3446.73
238.97	3221.45
239.19	2895.83
239.41	3030.99
239.63	3788.74
239.85	3350.48
240.06	2996.18
240.28	2985.94
240.50	3692.49
240.72	3461.07
240.93	2848.72
241.15	3139.54
241.37	3452.88
241.59	3762.12
241.81	2975.70
242.02	3039.19
242.24	3506.12
242.46	3561.42
242.68	2783.19
242.89	2897.88
243.11	3704.78
243.33	3499.98
243.55	2959.31
243.76	2934.74
243.98	3280.85
244.20	3438.54
244.42	2934.74
244.64	2938.84
244.85	3123.15
245.07	3205.07
245.29	2924.50
245.51	2998.23
245.72	3536.84
245.94	3688.39
246.16	2930.64
246.38	2994.13
246.59	3444.68
246.81	3217.36
247.03	2873.30
247.24	2906.07
247.46	3336.14
247.68	3573.71
247.90	2826.20
248.11	3069.91
248.33	3567.56
248.55	3356.62
248.77	3074.00
248.98	2947.03
249.20	3825.61
249.42	3491.79
249.64	2942.93
249.85	2912.21
250.07	3354.57
250.29	3614.66
250.50	3010.51
250.72	2873.30
250.94	3647.43
251.16	3946.44
251.37	2938.84
251.59	3043.28
251.81	3534.79
252.02	3819.46
252.24	2791.38
252.46	3143.63
252.68	3307.47
252.89	3330.00
253.11	2772.95
253.33	3151.82
253.54	3784.65
253.76	3229.65
253.98	2910.16
254.20	3002.32
254.41	3147.73
254.63	3411.92
254.85	2797.53
255.06	3090.38
255.28	3475.40
255.50	3360.72
255.71	2979.79
255.93	2805.72
256.15	3352.52
256.36	3545.03
256.58	2803.67
256.80	2893.78
257.02	3389.39
257.23	3323.85
257.45	3061.71
257.67	2992.08
257.88	3248.08
258.10	3610.57
258.32	2904.02
258.53	3049.43
258.75	3899.33
258.97	3221.45
259.18	2944.98
259.40	2951.12
259.62	3903.43
259.83	3745.73
260.05	2979.79
260.27	3905.48
260.48	3755.97
260.70	3243.98
260.92	2863.06
261.13	3028.95
261.35	3528.65
261.57	3559.37
261.78	2799.57
262.00	2893.78
262.22	3606.47
262.43	3303.37
262.65	3065.81
262.86	2977.75
263.08	4005.83
263.30	3485.64
263.51	2805.72
263.73	2914.26
263.95	3831.75
264.16	3256.27
264.38	2760.66
264.60	2867.16
264.81	3434.44
265.03	3745.73
265.25	3452.88
265.46	2922.45
265.68	3758.02
265.89	3655.62
266.11	2850.77
266.33	2951.12
266.54	3708.87
266.76	3522.51
266.98	3049.43
267.19	3180.50
267.41	3747.78
267.62	3508.17
267.84	2803.67
268.06	3071.95
268.27	3469.26
268.49	3704.78
268.70	3010.51
268.92	2938.84
269.14	3327.95
269.35	3188.69
269.57	3114.96
269.79	3035.09
270.00	3280.85
270.22	3733.45
270.43	2813.91
270.65	2838.48
270.87	3444.68
271.08	3547.08
271.30	3028.95
271.51	2942.93
271.73	3606.47
271.95	3739.59
272.16	2924.50
272.38	3178.45
272.59	3332.05
272.81	3577.80
273.02	2936.79
273.24	3035.09
273.46	3723.21
273.67	3248.08
273.89	2756.57
274.10	2942.93
274.32	3727.30
274.54	3504.07
274.75	3117.01
274.97	3006.42
275.18	3594.19
275.40	3577.80
275.61	2961.36
275.83	3135.44
276.05	3190.74
276.26	3350.48
276.48	3057.62
276.69	3166.16
276.91	3381.20
277.12	3776.45
277.34	3143.63
277.55	3246.03
277.77	3420.11
277.99	3389.39
278.20	3071.95
278.42	2920.40
278.63	3250.13
278.85	3268.56
279.06	3053.52
279.28	3223.50
279.49	3667.91
279.71	3608.52
279.93	3157.97
280.14	3182.54
280.36	3346.38
280.57	3661.77
280.79	3110.86
281.00	2992.08
281.22	3368.91
281.43	3663.82
281.65	2936.79
281.86	2942.93
282.08	3547.08
282.29	3882.95
282.51	2944.98
282.73	2953.17
282.94	3110.86
283.16	3583.95
283.37	3127.25
283.59	3196.88
283.80	3520.46
284.02	3399.63
284.23	3078.10
284.45	3121.10
284.66	3264.46
284.88	3241.93
285.09	2949.08
285.31	3166.16
285.52	3600.33
285.74	3184.59
285.95	3360.72
286.17	3166.16
286.38	3676.10
286.60	3313.61
286.81	3026.90
287.03	3065.81
287.24	3389.39
287.46	3557.32
287.67	3227.60
287.89	3377.10
288.10	3555.27
288.32	3454.92
288.53	3194.83
288.75	3100.62
288.96	3633.10
289.18	3325.90
289.39	2979.79
289.61	3166.16
289.82	4005.83
290.04	3839.94
290.25	3028.95
290.47	3213.26
290.68	3481.55
290.90	3731.40
291.11	2957.27
291.33	3286.99
291.54	3295.18
291.76	3272.65
291.97	3241.93
292.18	3194.83
292.40	3401.68
292.61	3291.09
292.83	3459.02
293.04	3082.19
293.26	3520.46
293.47	3377.10
293.69	2992.08
293.90	3016.66
294.12	3798.98
294.33	3454.92
294.55	3209.17
294.76	3278.80
294.97	3827.65
295.19	3999.68
295.40	3028.95
295.62	3147.73
295.83	3610.57
296.05	3297.23
296.26	3407.82
296.48	3102.67
296.69	3424.20
296.90	3375.05
297.12	3235.79
297.33	3227.60
297.55	3467.21
297.76	3559.37
297.98	3141.58
298.19	3344.33
298.41	3413.96
298.62	3209.17
298.83	3289.04
299.05	3174.35
299.26	3381.20
299.48	3295.18
299.69	3170.26
299.90	3051.47
300.12	3330.00
300.33	3618.76
300.55	3129.30
300.76	3188.69
300.98	3219.41
301.19	3502.03
301.40	3069.91
301.62	3215.31
301.83	3622.86
302.05	3465.16
302.26	3076.05
302.47	3192.78
302.69	3227.60
302.90	3354.57
303.12	2815.96
303.33	3164.11
303.54	3819.46
303.76	3305.42
303.97	3039.19
304.19	3213.26
304.40	3239.89
304.61	3516.36
304.83	3205.07
305.04	3172.30
305.26	3725.26
305.47	3274.70
305.68	3157.97
305.90	2944.98
306.11	3749.83
306.33	3327.95
306.54	2969.55
306.75	3065.81
306.97	3041.23
307.18	3200.98
307.39	3067.86
307.61	3123.15
307.82	3383.24
308.04	3483.59
308.25	2928.60
308.46	3211.22
308.68	3420.11
308.89	3321.81
309.10	3194.83
309.32	3110.86
309.53	3516.36
309.74	3637.19
309.96	2994.13
310.17	3299.28
310.39	3397.58
310.60	3573.71
310.81	3114.96
311.03	3071.95
311.24	3622.86
311.45	3483.59
311.67	3362.76
311.88	3223.50
312.09	3336.14
312.31	3348.43
312.52	3020.75
312.73	3024.85
312.95	3114.96
313.16	3217.36
313.37	3246.03
313.59	3266.51
313.80	3622.86
314.01	3760.07
314.23	3049.43
314.44	3004.37
314.65	3174.35
314.87	3262.41
315.08	3074.00
315.29	3127.25
315.51	3250.13
315.72	3123.15
315.93	3157.97
316.15	3141.58
316.36	3354.57
316.57	3483.59
316.79	3098.58
317.00	3063.76
317.21	3567.56
317.43	3258.32
317.64	3209.17
317.85	2996.18
318.07	3385.29
318.28	3332.05
318.49	3168.21
318.70	3373.00
318.92	3418.06
319.13	3446.73
319.34	3237.84
319.56	3086.29
319.77	3594.19
319.98	3620.81
320.20	3381.20
320.41	3241.93
320.62	3540.94
320.83	3205.07
321.05	3334.09
321.26	3147.73
321.47	3549.13
321.69	3688.39
321.90	3010.51
322.11	3094.48
322.32	3450.83
322.54	3829.70
322.75	3104.72
322.96	4243.39
323.18	3123.15
323.39	3067.86
323.60	3078.10
323.81	3278.80
324.03	3350.48
324.24	3348.43
324.45	3207.12
324.66	2971.60
324.88	3633.10
325.09	3803.08
325.30	3020.75
325.52	2936.79
325.73	3561.42
325.94	3252.17
326.15	2940.88
326.37	3026.90
326.58	3649.48
326.79	3819.46
327.00	3090.38
327.22	3043.28
327.43	3428.30
327.64	3213.26
327.85	3323.85
328.07	3102.67
328.28	3825.61
328.49	3366.86
328.70	3215.31
328.92	3094.48
329.13	3260.37
329.34	3559.37
329.55	3360.72
329.76	3239.89
329.98	3381.20
330.19	3696.58
330.40	3084.24
330.61	3203.02
330.83	3639.24
331.04	3387.34
331.25	3162.06
331.46	3149.78
331.68	3176.40
331.89	3639.24
332.10	3172.30
332.31	2985.94
332.52	3370.96
332.74	3690.44
332.95	2906.07
333.16	3082.19
333.37	3608.52
333.58	3344.33
333.80	3125.20
334.01	2820.05
334.22	3405.77
334.43	3295.18
334.64	3030.99
334.86	3065.81
335.07	3231.69
335.28	3805.13
335.49	3016.66
335.70	3123.15
335.92	3712.97
336.13	3952.58
336.34	3065.81
336.55	3051.47
336.76	3506.12
336.98	2940.88
337.19	3074.00
337.40	3207.12
337.61	3989.44
337.82	3375.05
338.04	3219.41
338.25	2967.51
338.46	3424.20
338.67	3373.00
338.88	3065.81
339.09	3004.37
339.31	3397.58
339.52	3180.50
339.73	3090.38
339.94	3047.38
340.15	3618.76
340.36	3338.19
340.58	3139.54
340.79	3100.62
341.00	3561.42
341.21	3143.63
341.42	3307.47
341.63	3110.86
341.85	3678.15
342.06	3502.03
342.27	3121.10
342.48	3254.22
342.69	3182.54
342.90	3583.95
343.12	3549.13
343.33	3061.71
343.54	3745.73
343.75	3778.50
343.96	3248.08
344.17	3018.71
344.38	3389.39
344.60	3231.69
344.81	3022.80
345.02	3125.20
345.23	3712.97
345.44	3946.44
345.65	3196.88
345.86	3229.65
346.07	3569.61
346.29	3399.63
346.50	3246.03
346.71	3147.73
346.92	3780.55
347.13	3977.16
347.34	3192.78
347.55	3059.67
347.76	3487.69
347.98	3162.06
348.19	3205.07
348.40	3239.89
348.61	3389.39
348.82	3790.79
349.03	3104.72
349.24	3114.96
349.45	3844.04
349.66	2992.08
349.88	2981.84
350.09	3045.33
350.30	3786.69
350.51	3655.62
350.72	3305.42
350.93	3147.73
351.14	3397.58
351.35	3467.21
351.56	3168.21
351.77	3098.58
351.99	3600.33
352.20	3831.75
352.41	3243.98
352.62	2942.93
352.83	3411.92
353.04	3459.02
353.25	3049.43
353.46	3162.06
353.67	3766.21
353.88	3016.66
354.09	3006.42
354.30	3205.07
354.52	3590.09
354.73	3424.20
354.94	2983.89
355.15	3117.01
355.36	3989.44
355.57	3338.19
355.78	3047.38
355.99	3131.34
356.20	3461.07
356.41	3712.97
356.62	3198.93
356.83	3114.96
357.04	3762.12
357.25	3108.82
357.46	3033.04
357.68	3010.51
357.89	3217.36
358.10	3385.29
358.31	3098.58
358.52	3180.50
358.73	3209.17
358.94	3235.79
359.15	3149.78
359.36	3069.91
359.57	3567.56
359.78	3434.44
359.99	3207.12
360.20	3057.62
360.41	3358.67
360.62	3608.52
360.83	3241.93
361.04	3098.58
361.25	3538.89
361.46	3827.65
361.67	3162.06
361.88	3076.05
362.09	3614.66
362.30	3512.27
362.51	3057.62
362.72	3248.08
362.93	3563.47
363.14	3553.23
363.35	3293.13
363.56	3028.95
363.78	3682.25
363.99	3565.51
364.20	3074.00
364.41	3160.02
364.62	3862.47
364.83	3516.36
365.04	3069.91
365.25	3149.78
365.46	3948.48
365.67	3325.90
365.88	3332.05
366.09	3157.97
366.30	3405.77
366.51	3567.56
366.72	3098.58
366.93	3127.25
367.14	3456.97
367.35	3737.54
367.56	2992.08
367.77	3219.41
367.98	3424.20
368.18	3618.76
368.39	3239.89
368.60	3063.76
368.81	3649.48
369.02	3428.30
369.23	3090.38
369.44	3002.32
369.65	3270.61
369.86	3567.56
370.07	3174.35
370.28	3004.37
370.49	3495.88
370.70	3483.59
370.91	3008.47
371.12	2992.08
371.33	3737.54
371.54	3368.91
371.75	3239.89
371.96	2858.96
372.17	3454.92
372.38	3395.53
372.59	3184.59
372.80	3082.19
373.01	3479.50
373.22	3524.55
373.43	3041.23
373.64	2994.13
373.85	3768.26
374.06	3833.80
374.26	3379.15
374.47	3246.03
374.68	3782.60
374.89	3475.40
375.10	3024.85
375.31	3198.93
375.52	3481.55
375.73	3495.88
375.94	3000.27
376.15	3262.41
376.36	3299.28
376.57	3348.43
376.78	3153.87
376.99	3196.88
377.20	3641.29
377.40	3317.71
377.61	3469.26
377.82	3151.82
378.03	3792.84
378.24	3700.68
378.45	3174.35
378.66	3262.41
378.87	3024.85
379.08	3074.00
379.29	3160.02
379.50	3336.14
379.71	3483.59
379.91	3557.32
380.12	3076.05
380.33	3264.46
380.54	3440.59
380.75	3348.43
380.96	3098.58
381.17	3182.54
381.38	3467.21
381.59	3395.53
381.80	3153.87
382.00	3286.99
382.21	3444.68
382.42	3717.06
382.63	3508.17
382.84	3307.47
383.05	3641.29
383.26	3766.21
383.47	3278.80
383.68	3045.33
383.88	3577.80
384.09	3459.02
384.30	3330.00
384.51	3262.41
384.72	3356.62
384.93	3203.02
385.14	3168.21
385.35	3409.87
385.55	3076.05
385.76	3749.83
385.97	3082.19
386.18	3028.95
386.39	3266.51
386.60	3229.65
386.81	3067.86
387.02	3049.43
387.22	3121.10
387.43	3530.70
387.64	3262.41
387.85	3407.82
388.06	3442.64
388.27	4476.86
388.48	7298.96
388.68	11013.98
388.89	13803.31
389.10	14896.92
389.31	14427.94
389.52	11614.03
389.73	10438.50
389.93	9561.97
390.14	8587.13
390.35	7964.55
390.56	7473.04
390.77	6281.12
390.98	4831.16
391.18	4079.55
391.39	3819.46
391.60	3499.98
391.81	3381.20
392.02	3139.54
392.23	3844.04
392.43	3520.46
392.64	3213.26
392.85	3246.03
393.06	3798.98
393.27	3516.36
393.47	3061.71
393.68	3248.08
393.89	3377.10
394.10	3733.45
394.31	3160.02
394.52	3114.96
394.72	3248.08
394.93	3737.54
395.14	3037.14
395.35	3221.45
395.56	3342.28
395.76	3373.00
395.97	3059.67
396.18	3284.94
396.39	3442.64
396.60	4050.88
396.80	3508.17
397.01	3438.54
397.22	3674.06
397.43	3614.66
397.64	3033.04
397.84	3215.31
398.05	3835.85
398.26	3352.52
398.47	3286.99
398.67	3377.10
398.88	3434.44
399.09	3588.04
399.30	3086.29
399.51	3127.25
399.71	3305.42
399.92	3434.44
400.13	3182.54
400.34	3176.40
400.54	3483.59
400.75	3805.13
400.96	3274.70
401.17	3459.02
401.37	3477.45
401.58	3323.85
401.79	3131.34
402.00	3278.80
402.21	4009.92
402.41	3499.98
402.62	3418.06
402.83	3549.13
403.04	3753.93
403.24	4200.38
403.45	3213.26
403.66	3434.44
403.87	3600.33
404.07	3794.89
404.28	3334.09
404.49	3418.06
404.70	3661.77
404.90	3434.44
405.11	3198.93
405.32	3213.26
405.52	3309.52
405.73	3321.81
405.94	3041.23
406.15	3147.73
406.35	3598.28
406.56	3620.81
406.77	3168.21
406.98	3164.11
407.18	3192.78
407.39	3852.23
407.60	3327.95
407.80	3264.46
408.01	3383.24
408.22	3516.36
408.43	3067.86
408.63	3274.70
408.84	3696.58
409.05	3606.47
409.25	3065.81
409.46	3147.73
409.67	3381.20
409.88	3332.05
410.08	3176.40
410.29	3063.76
410.50	3704.78
410.70	3538.89
410.91	3065.81
411.12	3266.51
411.32	3409.87
411.53	3311.57
411.74	3117.01
411.95	3217.36
412.15	3526.60
412.36	3534.79
412.57	3260.37
412.77	3370.96
412.98	3383.24
413.19	3401.68
413.39	3241.93
413.60	3200.98
413.81	3731.40
414.01	3227.60
414.22	3139.54
414.43	3327.95
414.63	3393.48
414.84	3561.42
415.05	3270.61
415.25	3006.42
415.46	3614.66
415.67	3354.57
415.87	3117.01
416.08	3231.69
416.29	3368.91
416.49	3629.00
416.70	3225.55
416.91	3194.83
417.11	3420.11
417.32	3602.38
417.53	3157.97
417.73	3256.27
417.94	3428.30
418.15	3596.23
418.35	3182.54
418.56	3131.34
418.77	3987.40
418.97	3448.78
419.18	3350.48
419.38	2869.20
419.59	3418.06
419.80	3733.45
420.00	3069.91
420.21	3209.17
420.42	3772.36
420.62	3491.79
420.83	3110.86
421.04	3051.47
421.24	3426.25
421.45	3534.79
421.65	3139.54
421.86	3237.84
422.07	3712.97
422.27	3639.24
422.48	3108.82
422.69	2973.65
422.89	3387.34
423.10	3340.24
423.30	3090.38
423.51	3262.41
423.72	3581.90
423.92	3661.77
424.13	2994.13
424.33	3323.85
424.54	3680.20
424.75	3495.88
424.95	3385.29
425.16	3094.48
425.36	3387.34
425.57	3672.01
425.78	3315.66
425.98	3289.04
426.19	3440.59
426.39	3223.50
426.60	3225.55
426.81	3305.42
427.01	3491.79
427.22	3286.99
427.42	2959.31
427.63	3092.43
427.83	3667.91
428.04	3809.22
428.25	3231.69
428.45	3241.93
428.66	3678.15
428.86	3327.95
429.07	3217.36
429.28	3205.07
429.48	3430.35
429.69	3280.85
429.89	3336.14
430.10	3143.63
430.30	3612.62
430.51	3676.10
430.71	3092.43
430.92	3250.13
431.13	3366.86
431.33	3557.32
431.54	3207.12
431.74	3327.95
431.95	3876.80
432.15	3248.08
432.36	3190.74
432.56	3209.17
432.77	3891.14
432.98	3878.85
433.18	3176.40
433.39	3041.23
433.59	3303.37
433.80	3891.14
434.00	3241.93
434.21	3307.47
434.41	3291.09
434.62	3966.92
434.82	2949.08
435.03	3117.01
435.23	3491.79
435.44	3143.63
435.64	3131.34
435.85	3205.07
436.06	3598.28
436.26	3645.38
436.47	3139.54
436.67	3182.54
436.88	3330.00
437.08	3733.45
437.29	3211.22
437.49	3305.42
437.70	3774.41
437.90	3395.53
438.11	3379.15
438.31	3239.89
438.52	3729.35
438.72	3585.99
438.93	3504.07
439.13	3258.32
439.34	3534.79
439.54	3344.33
439.75	3262.41
439.95	3342.28
440.16	3164.11
440.36	3385.29
440.57	3160.02
440.77	3086.29
440.98	3477.45
441.18	3536.84
441.39	3049.43
441.59	3053.52
441.80	3950.53
442.00	3368.91
442.21	3229.65
442.41	3051.47
442.62	3659.72
442.82	3317.71
443.02	3209.17
443.23	3205.07
443.43	3336.14
443.64	3678.15
443.84	3110.86
444.05	3200.98
444.25	3364.81
444.46	3307.47
444.66	3180.50
444.87	3446.73
445.07	3157.97
445.28	3360.72
445.48	3332.05
445.69	3215.31
445.89	3995.59
446.09	3346.38
446.30	3377.10
446.50	3514.31
446.71	5044.15
446.91	6109.09
447.12	6877.08
447.32	7350.16
447.53	7272.34
447.73	6240.16
447.93	5296.05
448.14	5160.88
448.34	5425.07
448.55	4433.85
448.75	4368.32
448.96	4081.60
449.16	4237.25
449.36	4024.26
449.57	3385.29
449.77	3166.16
449.98	3373.00
450.18	3532.75
450.39	3080.14
450.59	3246.03
450.79	3375.05
451.00	3293.13
451.20	3432.40
451.41	3184.59
451.61	3514.31
451.81	3434.44
452.02	3080.14
452.22	3215.31
452.43	3352.52
452.63	3356.62
452.84	3239.89
453.04	3024.85
453.24	3413.96
453.45	3286.99
453.65	3143.63
453.86	3172.30
454.06	3504.07
454.26	3403.72
454.47	3100.62
454.67	3246.03
454.87	3602.38
455.08	3348.43
455.28	3270.61
455.49	3377.10
455.69	3258.32
455.89	3893.19
456.10	3246.03
456.30	3082.19
456.51	3577.80
456.71	3493.83
456.91	3340.24
457.12	3065.81
457.32	3528.65
457.52	3213.26
457.73	3354.57
457.93	3293.13
458.14	3278.80
458.34	3033.04
458.54	3239.89
458.75	3112.91
458.95	3672.01
459.15	3483.59
459.36	3256.27
459.56	3221.45
459.76	3954.63
459.97	3411.92
460.17	3106.77
460.37	3133.39
460.58	3446.73
460.78	3674.06
460.99	3246.03
461.19	3108.82
461.39	3311.57
461.60	3336.14
461.80	3196.88
462.00	3049.43
462.21	3536.84
462.41	3225.55
462.61	3026.90
462.82	2940.88
463.02	3565.51
463.22	3491.79
463.43	3176.40
463.63	3059.67
463.83	3764.17
464.04	3536.84
464.24	3041.23
464.44	3084.24
464.64	3469.26
464.85	3516.36
465.05	3188.69
465.25	3110.86
465.46	3291.09
465.66	3536.84
465.86	3211.22
466.07	3196.88
466.27	3418.06
466.47	3139.54
466.68	3082.19
466.88	3305.42
467.08	3573.71
467.29	3665.86
467.49	3172.30
467.69	3276.75
467.89	3602.38
468.10	3448.78
468.30	3239.89
468.50	3221.45
468.71	3610.57
468.91	3147.73
469.11	3325.90
469.31	3246.03
469.52	3368.91
469.72	3786.69
469.92	3426.25
470.13	3252.17
470.33	3485.64
470.53	3475.40
470.73	3524.55
470.94	3772.36
471.14	4007.87
471.34	4708.28
471.54	4100.03
471.75	3954.63
471.95	3760.07
472.15	3758.02
472.36	3626.95
472.56	3499.98
472.76	3841.99
472.96	3786.69
473.17	3418.06
473.37	3354.57
473.57	3336.14
473.77	3526.60
473.98	3286.99
474.18	3030.99
474.38	4188.10
474.58	3397.58
474.79	3080.14
474.99	3270.61
475.19	3700.68
475.39	3307.47
475.60	3164.11
475.80	3162.06
476.00	3563.47
476.20	3495.88
476.41	3219.41
476.61	3305.42
476.81	3811.27
477.01	3291.09
477.21	3401.68
477.42	3274.70
477.62	3387.34
477.82	3641.29
478.02	3086.29
478.23	3133.39
478.43	3356.62
478.63	3411.92
478.83	3170.26
479.03	3270.61
479.24	3653.58
479.44	3876.80
479.64	3131.34
479.84	2992.08
480.04	3307.47
480.25	3753.93
480.45	3170.26
480.65	3166.16
480.85	3856.33
481.06	3385.29
481.26	3215.31
481.46	3086.29
481.66	3508.17
481.86	3286.99
482.06	3377.10
482.27	3209.17
482.47	3399.63
482.67	3551.18
482.87	3248.08
483.07	3205.07
483.28	3387.34
483.48	3178.45
483.68	3207.12
483.88	3049.43
484.08	3096.53
484.29	3164.11
484.49	3270.61
484.69	3008.47
484.89	3815.37
485.09	3641.29
485.29	3186.64
485.50	3401.68
485.70	3401.68
485.90	3700.68
486.10	3327.95
486.30	3141.58
486.50	3647.43
486.71	3475.40
486.91	3237.84
487.11	3303.37
487.31	3147.73
487.51	3518.41
487.71	3057.62
487.91	3133.39
488.12	3196.88
488.32	2983.89
488.52	3213.26
488.72	2885.59
488.92	3516.36
489.12	3708.87
489.32	3284.94
489.53	3211.22
489.73	3139.54
489.93	3801.03
490.13	3203.02
490.33	3010.51
490.53	3436.49
490.73	3663.82
490.94	3024.85
491.14	3270.61
491.34	3585.99
491.54	3479.50
491.74	4059.07
491.94	4517.82
492.14	5064.63
492.34	5040.05
492.54	4581.31
492.75	4163.52
492.95	4450.24
493.15	4155.33
493.35	3837.89
493.55	3786.69
493.75	3766.21
493.95	4075.46
494.15	3416.01
494.35	3194.83
494.56	3366.86
494.76	3256.27
494.96	3315.66
495.16	3110.86
495.36	3491.79
495.56	3459.02
495.76	3160.02
495.96	3147.73
496.16	3278.80
496.36	3872.71
496.56	3078.10
496.77	3166.16
496.97	3448.78
497.17	3700.68
497.37	2944.98
497.57	3311.57
497.77	3495.88
497.97	3237.84
498.17	3196.88
498.37	3147.73
498.57	3598.28
498.77	3346.38
498.97	3338.19
499.17	3499.98
499.38	3373.00
499.58	3606.47
499.78	3293.13
499.98	3319.76
500.18	3405.77
500.38	3295.18
500.58	3381.20
500.78	3741.64
500.98	6084.52
501.18	7841.67
501.38	9105.27
501.58	9906.02
501.78	9895.78
501.98	8570.75
502.18	7081.88
502.38	6277.02
502.58	6274.98
502.78	5416.88
502.98	5056.43
503.18	5091.25
503.38	4730.81
503.59	4265.92
503.79	4050.88
503.99	3704.78
504.19	4038.59
504.39	3942.34
504.59	3612.62
504.79	3491.79
504.99	4073.41
505.19	3557.32
505.39	3346.38
505.59	3499.98
505.79	3803.08
505.99	3639.24
506.19	3217.36
506.39	3348.43
506.59	3311.57
506.79	3327.95
506.99	3454.92
507.19	3051.47
507.39	3520.46
507.59	3117.01
507.79	3164.11
507.99	3127.25
508.19	3375.05
508.39	3356.62
508.59	3172.30
508.79	3241.93
508.99	3868.61
509.19	3266.51
509.39	3170.26
509.59	3131.34
509.79	3270.61
509.99	3391.44
510.19	3280.85
510.39	3258.32
510.59	3459.02
510.79	3317.71
510.99	2942.93
511.19	3094.48
511.39	3823.56
511.59	3712.97
511.79	3319.76
511.99	3104.72
512.19	3801.03
512.38	3430.35
512.58	3151.82
512.78	3053.52
512.98	3813.32
513.18	3811.27
513.38	3065.81
513.58	3278.80
513.78	3413.96
513.98	3387.34
514.18	3125.20
514.38	3172.30
514.58	3514.31
514.78	3330.00
514.98	3082.19
515.18	3102.67
515.38	3256.27
515.58	3844.04
515.78	3188.69
515.98	3172.30
516.18	3604.42
516.38	3493.83
516.57	3117.01
516.77	3186.64
516.97	3647.43
517.17	3284.94
517.37	2983.89
517.57	3168.21
517.77	3434.44
517.97	3270.61
518.17	3250.13
518.37	3043.28
518.57	3209.17
518.77	3315.66
518.97	3168.21
519.16	3164.11
519.36	3784.65
519.56	3289.04
519.76	3131.34
519.96	3241.93
520.16	3784.65
520.36	3194.83
520.56	3293.13
520.76	3125.20
520.96	3389.39
521.16	3663.82
521.35	3389.39
521.55	3270.61
521.75	3518.41
521.95	3403.72
522.15	3192.78
522.35	3045.33
522.55	3203.02
522.75	3575.75
522.95	3000.27
523.14	3002.32
523.34	3469.26
523.54	3377.10
523.74	3250.13
523.94	3157.97
524.14	3188.69
524.34	3567.56
524.54	3401.68
524.73	3219.41
524.93	3516.36
525.13	3467.21
525.33	3092.43
525.53	3401.68
525.73	3700.68
525.93	3385.29
526.13	3131.34
526.32	3041.23
526.52	3770.31
526.72	3649.48
526.92	3254.22
527.12	3074.00
527.32	3174.35
527.52	3461.07
527.71	3190.74
527.91	3188.69
528.11	3368.91
528.31	3385.29
528.51	3192.78
528.71	3309.52
528.90	3553.23
529.10	3758.02
529.30	3200.98
529.50	2924.50
529.70	3502.03
529.90	3393.48
530.09	3174.35
530.29	3061.71
530.49	3250.13
530.69	4071.36
530.89	3360.72
531.09	3272.65
531.28	3334.09
531.48	3704.78
531.68	3225.55
531.88	3157.97
532.08	3549.13
532.28	3352.52
532.47	3264.46
532.67	3262.41
532.87	3532.75
533.07	3233.74
533.27	3237.84
533.46	3239.89
533.66	3463.12
533.86	3446.73
534.06	3252.17
534.26	3129.30
534.45	3399.63
534.65	3590.09
534.85	3330.00
535.05	3133.39
535.25	3692.49
535.44	3047.38
535.64	3227.60
535.84	3215.31
536.04	3266.51
536.24	3299.28
536.43	3135.44
536.63	3114.96
536.83	3510.22
537.03	3467.21
537.22	3022.80
537.42	3010.51
537.62	3446.73
537.82	3260.37
538.02	3362.76
538.21	3266.51
538.41	4030.40
538.61	3604.42
538.81	3276.75
539.00	3209.17
539.20	3119.06
539.40	3346.38
539.60	3129.30
539.79	3487.69
539.99	3397.58
540.19	3291.09
540.39	3131.34
540.58	3221.45
540.78	3647.43
540.98	3475.40
541.18	3407.82
541.37	3270.61
541.57	3387.34
541.77	3477.45
541.97	3149.78
542.16	3049.43
542.36	3317.71
542.56	3684.30
542.76	3366.86
542.95	3274.70
543.15	3489.74
543.35	3514.31
543.54	3184.59
543.74	3125.20
543.94	3798.98
544.14	3241.93
544.33	3293.13
544.53	3098.58
544.73	3377.10
544.93	3381.20
545.12	3069.91
545.32	3217.36
545.52	3352.52
545.71	3123.15
545.91	3135.44
546.11	3057.62
546.30	3237.84
546.50	3434.44
546.70	3270.61
546.90	3166.16
547.09	3055.57
547.29	3438.54
547.49	3313.61
547.68	3180.50
547.88	3360.72
548.08	3516.36
548.27	3409.87
548.47	3033.04
548.67	3289.04
548.87	3483.59
549.06	3110.86
549.26	3026.90
549.46	3573.71
549.65	3266.51
549.85	3227.60
550.05	3215.31
550.24	3200.98
550.44	3491.79
550.64	3200.98
550.83	3243.98
551.03	3745.73
551.23	3663.82
551.42	3254.22
551.62	3172.30
551.82	3444.68
552.01	3389.39
552.21	3522.51
552.41	3182.54
552.60	3680.20
552.80	3471.31
553.00	3114.96
553.19	3231.69
553.39	3852.23
553.59	3147.73
553.78	3309.52
553.98	3133.39
554.17	3180.50
554.37	3448.78
554.57	3246.03
554.76	3067.86
554.96	3303.37
555.16	3469.26
555.35	3223.50
555.55	3340.24
555.75	3461.07
555.94	3553.23
556.14	3041.23
556.33	3198.93
556.53	3479.50
556.73	3461.07
556.92	3186.64
557.12	3092.43
557.32	3833.80
557.51	3782.60
557.71	3227.60
557.90	3387.34
558.10	3680.20
558.30	3303.37
558.49	3266.51
558.69	3172.30
558.88	3514.31
559.08	3485.64
559.28	3262.41
559.47	3250.13
559.67	3657.67
559.86	3895.24
560.06	3192.78
560.26	3213.26
560.45	3610.57
560.65	3418.06
560.84	3459.02
561.04	3080.14
561.24	3506.12
561.43	3192.78
561.63	3434.44
561.82	3246.03
562.02	3573.71
562.22	3262.41
562.41	3100.62
562.61	3155.92
562.80	3243.98
563.00	3960.77
563.19	3221.45
563.39	3307.47
563.59	3536.84
563.78	3217.36
563.98	2951.12
564.17	3180.50
564.37	3110.86
564.56	3379.15
564.76	3049.43
564.96	3309.52
565.15	3588.04
565.35	3964.87
565.54	3162.06
565.74	3145.68
565.93	3522.51
566.13	3395.53
566.32	3239.89
566.52	3342.28
566.71	3477.45
566.91	3643.34
567.11	3266.51
567.30	3106.77
567.50	3557.32
567.69	3522.51
567.89	3168.21
568.08	3074.00
568.28	3479.50
568.47	3145.68
568.67	3182.54
568.86	3149.78
569.06	3581.90
569.25	3338.19
569.45	3121.10
569.64	3227.60
569.84	3321.81
570.04	3465.16
570.23	3231.69
570.43	3209.17
570.62	3477.45
570.82	3796.93
571.01	3143.63
571.21	3168.21
571.40	3303.37
571.60	3542.99
571.79	3221.45
571.99	3137.49
572.18	3137.49
572.38	3516.36
572.57	3262.41
572.77	3272.65
572.96	4001.73
573.16	3434.44
573.35	3153.87
573.55	3354.57
573.74	3528.65
573.94	3303.37
574.13	3211.22
574.33	3362.76
574.52	3643.34
574.71	3477.45
574.91	3217.36
575.10	3057.62
575.30	3350.48
575.49	3305.42
575.69	3141.58
575.88	3155.92
576.08	3332.05
576.27	3653.58
576.47	3106.77
576.66	3348.43
576.86	3729.35
577.05	3483.59
577.25	3215.31
577.44	3411.92
577.64	3373.00
577.83	3600.33
578.02	3192.78
578.22	3426.25
578.41	3905.48
578.61	3418.06
578.80	2987.99
579.00	3239.89
579.19	3483.59
579.39	3512.27
579.58	3190.74
579.77	3270.61
579.97	3729.35
580.16	3655.62
580.36	3368.91
580.55	3186.64
580.75	3514.31
580.94	3403.72
581.13	3393.48
581.33	3424.20
581.52	3463.12
581.72	3903.43
581.91	3278.80
582.11	3155.92
582.30	3598.28
582.49	3508.17
582.69	3483.59
582.88	3182.54
583.08	3520.46
583.27	3710.92
583.47	3325.90
583.66	3127.25
583.85	3237.84
584.05	3385.29
584.24	3348.43
584.44	3221.45
584.63	3647.43
584.82	3631.05
585.02	3381.20
585.21	3264.46
585.41	3528.65
585.60	3461.07
585.79	3446.73
585.99	3444.68
586.18	3567.56
586.37	4509.63
586.57	6573.98
586.76	18732.77
586.96	37156.30
587.15	50031.88
587.34	58293.38
587.54	61439.06
587.73	54123.72
587.93	38921.65
588.12	29879.86
588.31	25155.20
588.51	22087.34
588.70	20516.55
588.89	17831.66
589.09	15314.71
589.28	13287.22
589.47	10409.83
589.67	7829.38
589.86	6260.64
590.06	4976.56
590.25	4562.87
590.44	3839.94
590.64	3585.99
590.83	3655.62
591.02	3696.58
591.22	3160.02
591.41	3254.22
591.60	3426.25
591.80	3938.24
591.99	2992.08
592.18	3166.16
592.38	3649.48
592.57	3327.95
592.76	3172.30
592.96	3213.26
593.15	3416.01
593.34	3676.10
593.54	3241.93
593.73	3397.58
593.92	3522.51
594.12	3536.84
594.31	3241.93
594.50	3319.76
594.70	3602.38
594.89	3999.68
595.08	3012.56
595.28	3368.91
595.47	4128.70
595.66	3739.59
595.86	3190.74
596.05	3106.77
596.24	3434.44
596.43	3819.46
596.63	3182.54
596.82	3436.49
597.01	3516.36
597.21	3893.19
597.40	3203.02
597.59	3233.74
597.79	3385.29
597.98	3512.27
598.17	3297.23
598.36	3198.93
598.56	3651.53
598.75	3356.62
598.94	3227.60
599.14	3174.35
599.33	3332.05
599.52	3567.56
599.71	3303.37
599.91	3172.30
600.10	3649.48
600.29	3502.03
600.48	3237.84
600.68	3346.38
600.87	3493.83
601.06	3207.12
601.26	3270.61
601.45	3317.71
601.64	3385.29
601.83	3868.61
602.03	3104.72
602.22	3055.57
602.41	3688.39
602.60	3981.25
602.80	3270.61
602.99	3364.81
603.18	3344.33
603.37	3459.02
603.57	3076.05
603.76	3243.98
603.95	3680.20
604.14	3319.76
604.34	3063.76
604.53	3086.29
604.72	3422.16
604.91	3639.24
605.10	3246.03
605.30	3100.62
605.49	3932.10
605.68	3575.75
605.87	3237.84
606.07	3110.86
606.26	3577.80
606.45	3512.27
606.64	3176.40
606.84	3108.82
607.03	3409.87
607.22	3528.65
607.41	3200.98
607.60	3207.12
607.80	3680.20
607.99	3428.30
608.18	3211.22
608.37	3164.11
608.56	3338.19
608.76	3592.14
608.95	3352.52
609.14	3196.88
609.33	3528.65
609.52	3751.88
609.72	3221.45
609.91	3241.93
610.10	3497.93
610.29	3786.69
610.48	3381.20
610.68	3325.90
610.87	3405.77
611.06	3606.47
611.25	3106.77
611.44	3356.62
611.63	3350.48
611.83	3725.26
612.02	3086.29
612.21	3286.99
612.40	3053.52
612.59	3188.69
612.79	3135.44
612.98	3248.08
613.17	3844.04
613.36	3448.78
613.55	3241.93
613.74	3205.07
613.93	3411.92
614.13	3518.41
614.32	3416.01
614.51	3174.35
614.70	3393.48
614.89	3327.95
615.08	3225.55
615.28	3588.04
615.47	3196.88
615.66	3561.42
615.85	3209.17
616.04	3237.84
616.23	3475.40
616.42	3436.49
616.62	3192.78
616.81	3188.69
617.00	3395.53
617.19	3448.78
617.38	3196.88
617.57	3258.32
617.76	3581.90
617.95	3510.22
618.15	3264.46
618.34	3442.64
618.53	3260.37
618.72	3590.09
618.91	3278.80
619.10	3323.85
619.29	3360.72
619.48	3495.88
619.68	3010.51
619.87	3094.48
620.06	3186.64
620.25	3592.14
620.44	3125.20
620.63	3137.49
620.82	3471.31
621.01	3393.48
621.20	3266.51
621.39	3327.95
621.59	3491.79
621.78	3424.20
621.97	3229.65
622.16	3332.05
622.35	3581.90
622.54	3606.47
622.73	3248.08
622.92	2944.98
623.11	3766.21
623.30	3364.81
623.49	3309.52
623.68	3057.62
623.88	3811.27
624.07	3262.41
624.26	3106.77
624.45	3160.02
624.64	3307.47
624.83	3512.27
625.02	3084.24
625.21	3176.40
625.40	3483.59
625.59	3751.88
625.78	3168.21
625.97	3309.52
626.16	3790.79
626.35	3559.37
626.54	3205.07
626.74	3327.95
626.93	3409.87
627.12	3383.24
627.31	3303.37
627.50	3282.89
627.69	3616.71
627.88	3301.33
628.07	3160.02
628.26	2969.55
628.45	3221.45
628.64	3299.28
628.83	3069.91
629.02	2998.23
629.21	3602.38
629.40	3565.51
629.59	3117.01
629.78	3149.78
629.97	3383.24
630.16	3448.78
630.35	3137.49
630.54	3295.18
630.73	3280.85
630.92	3385.29
631.11	3041.23
631.30	3209.17
631.49	3629.00
631.68	3340.24
631.87	3194.83
632.06	3139.54
632.25	3860.42
632.44	3434.44
632.63	3182.54
632.82	3233.74
633.01	3239.89
633.20	3471.31
633.39	3172.30
633.58	3033.04
633.77	3454.92
633.96	3542.99
634.15	3307.47
634.34	3256.27
634.53	3508.17
634.72	3373.00
634.91	3102.67
635.10	3180.50
635.29	3618.76
635.48	3485.64
635.67	3045.33
635.86	3028.95
636.05	3803.08
636.24	3381.20
636.43	3166.16
636.62	3209.17
636.81	2918.36
637.00	3418.06
637.19	3166.16
637.38	3135.44
637.57	3395.53
637.76	3354.57
637.95	3348.43
638.14	3256.27
638.33	3389.39
638.52	3405.77
638.71	3045.33
638.89	3063.76
639.08	4069.31
639.27	3678.15
639.46	3387.34
639.65	3647.43
639.84	3827.65
640.03	4048.83
640.22	3602.38
640.41	3489.74
640.60	3512.27
640.79	3626.95
640.98	3311.57
641.17	3293.13
641.36	3641.29
641.55	3672.01
641.74	3012.56
641.92	3090.38
642.11	3280.85
642.30	3368.91
642.49	3112.91
642.68	3196.88
642.87	3592.14
643.06	3626.95
643.25	3020.75
643.44	3096.53
643.63	3418.06
643.82	3545.03
644.00	3131.34
644.19	3198.93
644.38	3172.30
644.57	3547.08
644.76	3147.73
644.95	3291.09
645.14	3454.92
645.33	3360.72
645.52	3262.41
645.71	2951.12
645.89	3213.26
646.08	3358.67
646.27	3180.50
646.46	3456.97
646.65	3117.01
646.84	3502.03
647.03	3106.77
647.22	3381.20
647.40	3483.59
647.59	3452.88
647.78	3010.51
647.97	3192.78
648.16	3291.09
648.35	3729.35
648.54	3434.44
648.73	3147.73
648.91	3631.05
649.10	3448.78
649.29	3147.73
649.48	3088.34
649.67	3469.26
649.86	3520.46
650.05	3123.15
650.23	3346.38
650.42	3282.89
650.61	3678.15
650.80	3348.43
650.99	3483.59
651.18	3672.01
651.36	3672.01
651.55	3043.28
651.74	3377.10
651.93	3389.39
652.12	3424.20
652.31	3254.22
652.49	3231.69
652.68	3241.93
652.87	3704.78
653.06	3303.37
653.25	3499.98
653.44	3428.30
653.62	3715.02
653.81	3198.93
654.00	3186.64
654.19	3551.18
654.38	3997.64
654.56	3235.79
654.75	3092.43
654.94	3622.86
655.13	3575.75
655.32	3219.41
655.51	3188.69
655.69	3352.52
655.88	3698.63
656.07	3045.33
656.26	3139.54
656.45	3157.97
656.63	3409.87
656.82	3174.35
657.01	3557.32
657.20	3303.37
657.38	3823.56
657.57	3147.73
657.76	3035.09
657.95	3563.47
658.14	3330.00
658.32	3375.05
658.51	3006.42
658.70	3569.61
658.89	3491.79
659.08	3160.02
659.26	3385.29
659.45	3297.23
659.64	3487.69
659.83	3190.74
660.01	3542.99
660.20	3434.44
660.39	3762.12
660.58	2899.92
660.76	3258.32
660.95	3092.43
661.14	3471.31
661.33	2985.94
661.51	3172.30
661.70	3286.99
661.89	3551.18
662.08	3203.02
662.26	3002.32
662.45	3241.93
662.64	3829.70
662.83	3239.89
663.01	3106.77
663.20	3338.19
663.39	3737.54
663.58	3233.74
663.76	3133.39
663.95	3571.66
664.14	3262.41
664.32	3223.50
664.51	2996.18
664.70	3057.62
664.89	3477.45
665.07	2998.23
665.26	3338.19
665.45	3098.58
665.64	3573.71
665.82	3139.54
666.01	3258.32
666.20	3209.17
666.38	3635.14
666.57	3526.60
666.76	5765.03
666.95	12902.20
667.13	18722.53
667.32	22288.04
667.51	24813.19
667.69	25871.99
667.88	21065.41
668.07	15417.11
668.25	13086.52
668.44	11568.98
668.63	10299.23
668.81	9013.11
669.00	7757.71
669.19	7141.27
669.38	6279.07
669.56	5296.05
669.75	4700.09
669.94	4261.82
670.12	3776.45
670.31	3405.77
670.50	3532.75
670.68	3688.39
670.87	3536.84
671.06	3168.21
671.24	3270.61
671.43	3835.85
671.62	3495.88
671.80	3213.26
671.99	3354.57
672.18	3467.21
672.36	3622.86
672.55	3274.70
672.74	3266.51
672.92	3377.10
673.11	3583.95
673.29	3041.23
673.48	3407.82
673.67	3424.20
673.85	3680.20
674.04	3026.90
674.23	3243.98
674.41	3899.33
674.60	3184.59
674.79	3053.52
674.97	3002.32
675.16	3563.47
675.34	3645.38
675.53	3166.16
675.72	3231.69
675.90	3913.67
676.09	3270.61
676.28	3350.48
676.46	3000.27
676.65	3581.90
676.83	3180.50
677.02	3250.13
677.21	3338.19
677.39	3504.07
677.58	3336.14
677.77	3137.49
677.95	3076.05
678.14	3422.16
678.32	3303.37
678.51	3233.74
678.70	3508.17
678.88	3334.09
679.07	3483.59
679.25	3196.88
679.44	3217.36
679.63	3194.83
679.81	3485.64
680.00	3454.92
680.18	3237.84
680.37	3794.89
680.55	3532.75
680.74	3082.19
680.93	2959.31
681.11	3545.03
681.30	3477.45
681.48	3153.87
681.67	3209.17
681.85	3403.72
682.04	3182.54
682.23	3348.43
682.41	3387.34
682.60	3446.73
682.78	3336.14
682.97	3084.24
683.15	3360.72
683.34	3514.31
683.53	3717.06
683.71	3086.29
683.90	3207.12
684.08	3846.09
684.27	3373.00
684.45	3217.36
684.64	3323.85
684.82	3448.78
685.01	3561.42
685.19	3172.30
685.38	3465.16
685.57	3467.21
685.75	3286.99
685.94	3164.11
686.12	3114.96
686.31	3303.37
686.49	3813.32
686.68	2971.60
686.86	3237.84
687.05	3395.53
687.23	3764.17
687.42	3231.69
687.60	3088.34
687.79	3798.98
687.97	3817.41
688.16	3321.81
688.34	3330.00
688.53	3102.67
688.71	3502.03
688.90	3551.18
689.08	3221.45
689.27	3067.86
689.45	3567.56
689.64	3440.59
689.82	3276.75
690.01	3536.84
690.19	3575.75
690.38	3213.26
690.56	3262.41
690.75	3282.89
690.93	3389.39
691.12	3135.44
691.30	3231.69
691.49	3289.04
691.67	3393.48
691.86	3575.75
692.04	3110.86
692.23	3395.53
692.41	3436.49
692.60	3465.16
692.78	3330.00
692.97	3473.36
693.15	3592.14
693.34	3475.40
693.52	3491.79
693.71	3350.48
693.89	3254.22
694.08	3047.38
694.26	3286.99
694.44	3547.08
694.63	3680.20
694.81	3139.54
695.00	3207.12
695.18	3717.06
695.37	3950.53
695.55	3266.51
695.74	3293.13
695.92	3264.46
696.10	3665.86
696.29	3106.77
696.47	3274.70
696.66	3262.41
696.84	3239.89
697.03	3303.37
697.21	3370.96
697.40	4810.68
697.58	3698.63
697.76	3098.58
697.95	3209.17
698.13	3268.56
698.32	3321.81
698.50	3178.45
698.68	3172.30
698.87	3524.55
699.05	3831.75
699.24	3131.34
699.42	3174.35
699.61	3549.13
699.79	3565.51
699.97	3209.17
700.16	3061.71
700.34	3151.82
700.53	3489.74
700.71	3360.72
700.89	3299.28
701.08	3303.37
701.26	3452.88
701.45	3571.66
701.63	3194.83
701.81	3286.99
702.00	3278.80
702.18	3340.24
702.37	3131.34
702.55	3692.49
702.73	3426.25
702.92	3180.50
703.10	3442.64
703.28	3567.56
703.47	3198.93
703.65	3313.61
703.84	3313.61
704.02	3262.41
704.20	3745.73
704.39	3114.96
704.57	3196.88
704.75	3606.47
704.94	3491.79
705.12	3405.77
705.30	3936.20
705.49	8087.43
705.67	14452.52
705.86	19390.17
706.04	21591.73
706.22	24393.36
706.41	22910.63
706.59	16936.70
706.77	13559.60
706.96	11698.00
707.14	10930.01
707.32	9316.21
707.51	8013.70
707.69	6825.88
707.87	6027.17
708.06	4820.92
708.24	4288.45
708.42	4009.92
708.61	4276.16
708.79	3264.46
708.97	3401.68
709.16	3553.23
709.34	3491.79
709.52	3266.51
709.71	3264.46
709.89	3588.04
710.07	3164.11
710.26	3102.67
710.44	3184.59
710.62	3614.66
710.80	3467.21
710.99	3330.00
711.17	3377.10
711.35	3215.31
711.54	3389.39
711.72	3409.87
711.90	3264.46
712.09	3614.66
712.27	3315.66
712.45	3319.76
712.63	3207.12
712.82	3569.61
713.00	3379.15
713.18	3360.72
713.37	3393.48
713.55	3633.10
713.73	3532.75
713.91	3321.81
714.10	3209.17
714.28	3356.62
714.46	3485.64
714.65	3248.08
714.83	3262.41
715.01	3407.82
715.19	3536.84
715.38	3106.77
715.56	3327.95
715.74	3321.81
715.92	3297.23
716.11	3555.27
716.29	2987.99
716.47	3411.92
716.65	3440.59
716.84	3037.14
717.02	3229.65
717.20	3053.52
717.38	3272.65
717.57	3399.63
717.75	3309.52
717.93	3360.72
718.11	3520.46
718.30	3051.47
718.48	3190.74
718.66	3688.39
718.84	3614.66
719.03	3182.54
719.21	3033.04
719.39	3897.28
719.57	3573.71
719.75	3272.65
719.94	3198.93
720.12	3256.27
720.30	3416.01
720.48	3280.85
720.67	3223.50
720.85	3229.65
721.03	3362.76
721.21	3151.82
721.39	3219.41
721.58	3633.10
721.76	3440.59
721.94	3200.98
722.12	3260.37
722.30	3712.97
722.49	3286.99
722.67	3209.17
722.85	3291.09
723.03	3239.89
723.21	3323.85
723.40	3123.15
723.58	3385.29
723.76	3524.55
723.94	3684.30
724.12	3180.50
724.30	3420.11
724.49	3645.38
724.67	3241.93
724.85	3264.46
725.03	3090.38
725.21	3499.98
725.40	3708.87
725.58	3254.22
725.76	3340.24
725.94	3547.08
726.12	3243.98
726.30	3319.76
726.49	3149.78
726.67	3348.43
726.85	3608.52
727.03	3870.66
727.21	4974.52
727.39	6260.64
727.57	6475.68
727.76	6754.20
727.94	6930.33
728.12	5969.83
728.30	5027.76
728.48	4806.58
728.66	4519.87
728.84	4376.51
729.03	3889.09
729.21	3708.87
729.39	3530.70
729.57	3467.21
729.75	3622.86
729.93	3461.07
730.11	3160.02
730.30	3289.04
730.48	3446.73
730.66	3239.89
730.84	3248.08
731.02	3399.63
731.20	3303.37
731.38	3289.04
731.56	3041.23
731.74	3172.30
731.93	3524.55
732.11	3307.47
732.29	3200.98
732.47	3452.88
732.65	3510.22
732.83	3442.64
733.01	3327.95
733.19	3293.13
733.37	3551.18
733.56	3217.36
733.74	3114.96
733.92	3741.64
734.10	3266.51
734.28	3315.66
734.46	3114.96
734.64	3418.06
734.82	3366.86
735.00	3256.27
735.18	3090.38
735.36	3510.22
735.54	3358.67
735.73	3194.83
735.91	3342.28
736.09	3729.35
736.27	3485.64
736.45	3354.57
736.63	2990.03
736.81	3340.24
736.99	3645.38
737.17	3424.20
737.35	3137.49
737.53	3442.64
737.71	3452.88
737.89	3377.10
738.07	3223.50
738.25	3282.89
738.43	3147.73
738.61	3254.22
738.80	3114.96
738.98	3205.07
739.16	3362.76
739.34	3170.26
739.52	3524.55
739.70	3411.92
739.88	3540.94
740.06	3336.14
740.24	3002.32
740.42	3723.21
740.60	3000.27
740.78	3229.65
740.96	2936.79
741.14	3354.57
741.32	3450.83
741.50	3043.28
741.68	3485.64
741.86	3815.37
742.04	3270.61
742.22	3125.20
742.40	3188.69
742.58	3590.09
742.76	3350.48
742.94	3452.88
743.12	3086.29
743.30	3456.97
743.48	3479.50
743.66	3074.00
743.84	3237.84
744.02	3327.95
744.20	3389.39
744.38	3102.67
744.56	3223.50
744.74	3831.75
744.92	3520.46
745.10	3383.24
745.28	3254.22
745.46	3788.74
745.64	3403.72
745.82	3295.18
746.00	3129.30
746.18	3563.47
746.36	3205.07
746.54	3233.74
746.72	3246.03
746.90	3160.02
747.08	3676.10
747.26	3223.50
747.44	3336.14
747.62	3542.99
747.80	3504.07
747.98	3223.50
748.15	3225.55
748.33	3858.37
748.51	3508.17
748.69	3295.18
748.87	3086.29
749.05	3336.14
749.23	3403.72
749.41	3114.96
749.59	3164.11
749.77	3559.37
749.95	3397.58
750.13	3211.22
750.31	3397.58
750.49	3393.48
750.67	3616.71
750.85	3332.05
751.03	3248.08
751.20	3835.85
751.38	3418.06
751.56	3239.89
751.74	3196.88
751.92	3428.30
752.10	3190.74
752.28	3360.72
752.46	3229.65
752.64	3461.07
752.82	3471.31
753.00	3198.93
753.18	3125.20
753.35	3346.38
753.53	3368.91
753.71	3057.62
753.89	3258.32
754.07	3571.66
754.25	3598.28
754.43	3286.99
754.61	3137.49
754.79	3502.03
754.97	3452.88
755.14	3446.73
755.32	3147.73
755.50	3473.36
755.68	3504.07
755.86	3129.30
756.04	3117.01
756.22	2932.69
756.40	3622.86
756.57	3327.95
756.75	3180.50
756.93	3712.97
757.11	3622.86
757.29	3123.15
757.47	3137.49
757.65	3188.69
757.82	2959.31
758.00	3123.15
758.18	3157.97
758.36	3297.23
758.54	3862.47
758.72	3057.62
758.90	3334.09
759.07	3508.17
759.25	3354.57
759.43	3319.76
759.61	2996.18
759.79	4583.35
759.97	3655.62
760.15	3233.74
760.32	3104.72
760.50	3438.54
760.68	3792.84
760.86	3082.19
761.04	3348.43
761.22	3655.62
761.39	3508.17
761.57	3364.81
761.75	3186.64
761.93	3590.09
762.11	3368.91
762.28	3286.99
762.46	3119.06
762.64	3688.39
762.82	3121.10
763.00	3184.59
763.18	3434.44
763.35	3196.88
763.53	3514.31
763.71	3243.98
763.89	3149.78
764.07	3553.23
764.24	3477.45
764.42	3348.43
764.60	3219.41
764.78	3559.37
764.96	3639.24
765.13	3327.95
765.31	3162.06
765.49	3526.60
765.67	3250.13
765.84	3180.50
766.02	3151.82
766.20	3172.30
766.38	3524.55
766.56	3354.57
766.73	3366.86
766.91	3430.35
767.09	3465.16
767.27	3217.36
767.44	3149.78
767.62	3592.14
767.80	3502.03
767.98	3174.35
768.15	3188.69
768.33	3651.53
768.51	3559.37
768.69	3358.67
768.87	3145.68
769.04	3454.92
769.22	4153.28
769.40	3360.72
769.58	3327.95
769.75	3514.31
769.93	3676.10
770.11	3248.08
770.28	3076.05
770.46	3706.82
770.64	3465.16
770.82	3188.69
770.99	3145.68
771.17	3585.99
771.35	3356.62
771.53	3327.95
771.70	3133.39
771.88	3547.08
772.06	3409.87
772.23	3160.02
772.41	3272.65
772.59	3381.20
772.77	3313.61
772.94	3256.27
773.12	3340.24
773.30	3440.59
773.47	3467.21
773.65	3110.86
773.83	3364.81
774.01	3385.29
774.18	3098.58
774.36	3182.54
774.54	3100.62
774.71	3491.79
774.89	3164.11
775.07	3030.99
775.24	3147.73
775.42	3340.24
775.60	3841.99
775.78	3094.48
775.95	3092.43
776.13	3061.71
776.31	3164.11
776.48	3377.10
776.66	3344.33
776.84	3389.39
777.01	3219.41
777.19	3190.74
777.37	3215.31
777.54	3471.31
777.72	3770.31
777.90	3254.22
778.07	3196.88
778.25	4159.42
778.43	3653.58
778.60	3131.34
778.78	3227.60
778.96	3659.72
779.13	3135.44
779.31	3213.26
779.49	3225.55
779.66	3477.45
779.84	3440.59
780.01	3172.30
780.19	3147.73
780.37	3837.89
780.54	3639.24
780.72	3078.10
780.90	3205.07
781.07	3352.52
781.25	3334.09
781.43	3483.59
781.60	3162.06
781.78	3692.49
781.95	3526.60
782.13	3137.49
782.31	3147.73
782.48	3086.29
782.66	3446.73
782.83	3499.98
783.01	3309.52
783.19	3561.42
783.36	3360.72
783.54	3114.96
783.72	3262.41
783.89	3256.27
784.07	3559.37
784.24	3303.37
784.42	3264.46
784.60	3571.66
784.77	3485.64
784.95	2932.69
785.12	3209.17
785.30	3471.31
785.47	3254.22
785.65	3110.86
785.83	3250.13
786.00	3319.76
786.18	3418.06
786.35	3102.67
786.53	3164.11
786.71	3774.41
786.88	3573.71
787.06	3311.57
787.23	3237.84
787.41	3278.80
787.58	3454.92
787.76	3110.86
787.94	3174.35
788.11	3538.89
788.29	3170.26
788.46	3194.83
788.64	3008.47
788.81	3413.96
788.99	3225.55
789.16	3182.54
789.34	3229.65
789.52	3254.22
789.69	3356.62
789.87	2920.40
790.04	3160.02
790.22	3459.02
790.39	3844.04
790.57	3135.44
790.74	3168.21
790.92	3698.63
791.09	3057.62
791.27	3229.65
791.44	3286.99
791.62	3424.20
791.79	3614.66
791.97	3215.31
792.15	3493.83
792.32	3602.38
792.50	3545.03
792.67	3366.86
792.85	3479.50
793.02	3446.73
793.20	3291.09
793.37	3131.34
793.55	3063.76
793.72	3045.33
793.90	3577.80
794.07	3180.50
794.25	3123.15
794.42	3536.84
794.60	3377.10
794.77	3166.16
794.95	3289.04
795.12	3624.90
795.30	3375.05
795.47	2979.79
795.65	3555.27
795.82	3499.98
796.00	3305.42
796.17	3299.28
796.34	3088.34
796.52	3536.84
796.69	3641.29
796.87	3229.65
797.04	3321.81
797.22	3592.14
797.39	3440.59
797.57	3401.68
797.74	3262.41
797.92	3489.74
798.09	3307.47
798.27	3465.16
798.44	3180.50
798.62	3262.41
798.79	3473.36
798.96	3346.38
799.14	3260.37
799.31	4036.55
799.49	3381.20
799.66	3200.98
799.84	3258.32
800.01	3082.19
800.19	3459.02
800.36	2992.08
800.53	3309.52
800.71	3526.60
800.88	3745.73
801.06	3205.07
801.23	3135.44
801.41	3416.01
801.58	3360.72
801.75	3153.87
801.93	3274.70
802.10	3598.28
802.28	3375.05
802.45	3205.07
802.63	3284.94
802.80	3725.26
802.97	3358.67
803.15	3190.74
803.32	3112.91
803.50	3342.28
803.67	3299.28
803.84	3149.78
804.02	3327.95
804.19	3360.72
804.37	2992.08
804.54	2906.07
804.71	3141.58
804.89	3442.64
805.06	3229.65
805.24	3129.30
805.41	3018.71
805.58	3364.81
805.76	3975.11
805.93	3119.06
806.10	3338.19
806.28	3542.99
806.45	3446.73
806.63	3305.42
806.80	3266.51
806.97	3596.23
807.15	3422.16
807.32	3258.32
807.49	3209.17
807.67	3188.69
807.84	3557.32
808.01	3061.71
808.19	3370.96
808.36	3839.94
808.54	3395.53
808.71	3155.92
808.88	3078.10
809.06	3641.29
809.23	3780.55
809.40	3209.17
809.58	3147.73
809.75	3520.46
809.92	3182.54
810.10	3504.07
810.27	3213.26
810.44	3477.45
810.62	3622.86
810.79	3278.80
810.96	3205.07
811.14	3311.57
811.31	3516.36
811.48	3280.85
811.66	3327.95
811.83	3680.20
812.00	3504.07
812.18	3319.76
812.35	3516.36
812.52	3295.18
812.69	3289.04
812.87	3137.49
813.04	3131.34
813.21	3420.11
813.39	3327.95
813.56	3121.10
813.73	3520.46
813.91	3207.12
814.08	3475.40
814.25	3229.65
814.42	2983.89
814.60	3381.20
814.77	3475.40
814.94	3149.78
815.12	3239.89
815.29	3821.51
815.46	3317.71
815.63	3188.69
815.81	3200.98
815.98	3440.59
816.15	3444.68
816.33	3377.10
816.50	3108.82
816.67	3420.11
816.84	3366.86
817.02	3061.71
817.19	3162.06
817.36	3502.03
817.53	3477.45
817.71	3114.96
817.88	3270.61
818.05	3379.15
818.22	3442.64
818.40	3370.96
818.57	3188.69
818.74	3594.19
818.91	3295.18
819.09	3366.86
819.26	3319.76
819.43	3237.84
819.60	3260.37
819.78	3407.82
819.95	3137.49
820.12	3368.91
820.29	3753.93
820.47	3467.21
820.64	3184.59
820.81	3162.06
820.98	3243.98
821.15	3213.26
821.33	3313.61
821.50	3102.67
821.67	3606.47
821.84	3166.16
822.02	3188.69
822.19	3700.68
822.36	3346.38
822.53	3151.82
822.70	3000.27
822.88	3266.51
823.05	3741.64
823.22	3286.99
823.39	3233.74
823.56	3393.48
823.74	3854.28
823.91	3020.75
824.08	3133.39
824.25	3127.25
824.42	3762.12
824.60	3080.14
824.77	3342.28
824.94	3344.33
825.11	3585.99
825.28	3082.19
825.45	3387.34
825.63	3473.36
825.80	3213.26
825.97	3225.55
826.14	3270.61
826.31	3139.54
826.48	3495.88
826.66	3260.37
826.83	3114.96
827.00	3352.52
827.17	3295.18
827.34	3196.88
827.51	3098.58
827.69	3348.43
827.86	3104.72
828.03	3293.13
828.20	3256.27
828.37	3282.89
828.54	3495.88
828.71	3110.86
828.89	3280.85
829.06	3444.68
829.23	3672.01
829.40	3192.78
829.57	3141.58
829.74	3682.25
829.91	3395.53
830.09	3135.44
830.26	3370.96
830.43	3784.65
830.60	3440.59
830.77	3336.14
830.94	3422.16
831.11	3571.66
831.28	3217.36
831.46	3373.00
831.63	3203.02
831.80	3633.10
831.97	3239.89
832.14	3237.84
832.31	3266.51
832.48	3532.75
832.65	3663.82
832.82	3321.81
832.99	3223.50
833.17	3205.07
833.34	3698.63
833.51	3121.10
833.68	3016.66
833.85	3612.62
834.02	3284.94
834.19	3192.78
834.36	3215.31
834.53	3532.75
834.70	3704.78
834.87	3166.16
835.04	2981.84
835.22	3264.46
835.39	3327.95
835.56	3000.27
835.73	3024.85
835.90	3647.43
836.07	3225.55
836.24	3102.67
836.41	3049.43
836.58	3209.17
836.75	3549.13
836.92	3012.56
837.09	2869.20
837.26	3598.28
837.43	3436.49
837.60	3076.05
837.77	3028.95
837.94	3622.86
838.12	3633.10
838.29	2951.12
838.46	2951.12
838.63	3182.54
838.80	3796.93
838.97	3090.38
839.14	3039.19
839.31	3393.48
839.48	3608.52
839.65	3074.00
839.82	3125.20
839.99	3555.27
840.16	3418.06
840.33	2895.83
840.50	2992.08
840.67	3223.50
840.84	2985.94
841.01	2979.79
841.18	2983.89
841.35	3340.24
841.52	3581.90
841.69	3422.16
841.86	3074.00
842.03	3311.57
842.20	3606.47
842.37	2985.94
842.54	3119.06
842.71	3504.07
842.88	3215.31
843.05	3082.19
843.22	2951.12
843.39	3594.19
843.56	3293.13
843.73	2992.08
843.90	3135.44
844.07	3475.40
844.24	3665.86
844.41	3121.10
844.58	3055.57
844.75	3512.27
844.92	3557.32
845.09	3012.56
845.26	3035.09
845.43	3524.55
845.60	3338.19
845.77	3153.87
845.94	3194.83
846.10	3631.05
846.27	3092.43
846.44	2885.59
846.61	2865.11
846.78	3575.75
846.95	3581.90
847.12	2938.84
847.29	3033.04
847.46	3243.98
847.63	3461.07
847.80	2942.93
847.97	2996.18
848.14	3919.81
848.31	3393.48
848.48	2873.30
848.65	2969.55
848.82	3286.99
848.98	3985.35
849.15	3153.87
849.32	3110.86
849.49	3672.01
849.66	3444.68
849.83	3012.56
850.00	2963.41
850.17	3663.82
850.34	3256.27
850.51	2994.13
850.68	3037.14
850.85	3987.40
851.01	3495.88
851.18	2928.60
851.35	3022.80
851.52	3485.64
851.69	3764.17
851.86	2949.08
852.03	3000.27
852.20	3520.46
852.37	3438.54
852.53	2934.74
852.70	2934.74
852.87	3594.19
853.04	3571.66
853.21	2981.84
853.38	3276.75
853.55	3592.14
853.72	3758.02
853.89	2932.69
854.05	2998.23
854.22	3407.82
854.39	3348.43
854.56	3002.32
854.73	3059.67
854.90	3233.74
855.07	3387.34
855.23	2914.26
855.40	2934.74
855.57	3321.81
855.74	2883.54
855.91	3172.30
856.08	2828.24
856.25	3127.25
856.41	3293.13
856.58	2994.13
856.75	3092.43
856.92	3164.11
857.09	3624.90
857.26	2826.20
857.42	3074.00
857.59	3622.86
857.76	3385.29
857.93	3063.76
858.10	3033.04
858.27	3190.74
858.43	3487.69
858.60	3057.62
858.77	2873.30
858.94	3299.28
859.11	3688.39
859.27	3127.25
859.44	2922.45
859.61	3823.56
859.78	3629.00
859.95	3057.62
860.12	2922.45
860.28	3956.68
860.45	3766.21
860.62	3033.04
860.79	3143.63
860.95	3366.86
861.12	3196.88
861.29	2953.17
861.46	2990.03
861.63	3377.10
861.79	3467.21
861.96	2920.40
862.13	3012.56
862.30	3807.17
862.47	3229.65
862.63	2906.07
862.80	2967.51
862.97	3622.86
863.14	3454.92
863.30	3082.19
863.47	2897.88
863.64	3753.93
863.81	3424.20
863.97	2781.14
864.14	2987.99
864.31	3315.66
864.48	3497.93
864.65	3084.24
864.81	3096.53
864.98	3676.10
865.15	3645.38
865.32	2996.18
865.48	3112.91
865.65	3772.36
865.82	3319.76
865.98	3151.82
866.15	3035.09
866.32	3399.63
866.49	3401.68
866.65	3123.15
866.82	3078.10
866.99	3391.44
867.16	3229.65
867.32	3016.66
867.49	2953.17
867.66	3407.82
867.83	3284.94
867.99	2916.31
868.16	3041.23
868.33	3246.03
868.49	3338.19
868.66	3059.67
868.83	3139.54
868.99	3481.55
869.16	3483.59
869.33	3104.72
869.50	3041.23
869.66	3411.92
869.83	3309.52
870.00	2942.93
870.16	3092.43
870.33	3411.92
870.50	3672.01
870.66	3051.47
870.83	3053.52
871.00	3448.78
871.17	3508.17
871.33	3051.47
871.50	2975.70
871.67	3307.47
871.83	3084.24
872.00	3069.91
872.17	3057.62
872.33	3882.95
872.50	3639.24
872.67	2992.08
872.83	3018.71
873.00	3545.03
873.17	3428.30
873.33	3033.04
873.50	2994.13
873.67	3282.89
873.83	3237.84
874.00	3057.62
874.16	3137.49
874.33	3491.79
874.50	3110.86
874.66	2975.70
874.83	3127.25
875.00	3723.21
875.16	3682.25
875.33	3123.15
875.50	2783.19
875.66	3286.99
875.83	3481.55
875.99	3100.62
876.16	3131.34
876.33	3250.13
876.49	3416.01
876.66	3082.19
876.83	3098.58
876.99	3084.24
877.16	3334.09
877.32	2981.84
877.49	3174.35
877.66	3469.26
877.82	3753.93
877.99	3061.71
878.15	3346.38
878.32	3467.21
878.49	3518.41
878.65	3131.34
878.82	3327.95
878.98	3313.61
879.15	3590.09
879.32	3200.98
879.48	3200.98
879.65	3487.69
879.81	3373.00
879.98	3033.04
880.15	3164.11
880.31	3536.84
880.48	3223.50
880.64	3098.58
880.81	3221.45
880.97	3817.41
881.14	3700.68
881.31	3041.23
881.47	3180.50
881.64	3319.76
881.80	3082.19
881.97	3203.02
882.13	3028.95
882.30	3278.80
882.47	3321.81
882.63	3041.23
882.80	3074.00
882.96	3360.72
883.13	3592.14
883.29	3012.56
883.46	3012.56
883.62	3917.76
883.79	3479.50
883.95	3155.92
884.12	2944.98
884.29	3598.28
884.45	3493.83
884.62	3067.86
884.78	2985.94
884.95	3753.93
885.11	3264.46
885.28	3141.58
885.44	3028.95
885.61	3493.83
885.77	3692.49
885.94	3168.21
886.10	3067.86
886.27	3459.02
886.43	3811.27
886.60	3172.30
886.76	2983.89
886.93	3231.69
887.09	3461.07
887.26	2910.16
887.42	3098.58
887.59	3649.48
887.75	3831.75
887.92	3246.03
888.08	3164.11
888.25	3837.89
888.41	3655.62
888.58	3153.87
888.74	3020.75
888.91	3313.61
>>>>>End Processed Spectral Data<<<<<
