SpectraSuite Data File
++++++++++++++++++++++++++++++++++++
Date: Fri May 06 09:29:11 CEST 2016
User: root
Dark Spectrum Present: No
Reference Spectrum Present: No
Number of Sampled Component Spectra: 1
Spectrometers: USB4C02835
Integration Time (usec): 100000 (USB4C02835)
Spectra Averaged: 1 (USB4C02835)
Boxcar Smoothing: 0 (USB4C02835)
Correct for Electrical Dark: No (USB4C02835)
Strobe/Lamp Enabled: No (USB4C02835)
Correct for Detector Non-linearity: No (USB4C02835)
Correct for Stray Light: No (USB4C02835)
Number of Pixels in Processed Spectrum: 3648
>>>>>Begin Processed Spectral Data<<<<<
177.47	2324.44
177.69	2324.44
177.91	2324.44
178.13	2324.44
178.36	2371.55
178.58	3168.21
178.80	3227.60
179.02	3170.26
179.24	3194.83
179.46	2850.77
179.68	2928.60
179.90	3413.96
180.13	3536.84
180.35	2731.99
180.57	2887.64
180.79	3590.09
181.01	3516.36
181.23	2955.22
181.45	3114.96
181.67	3534.79
181.90	3579.85
182.12	3086.29
182.34	2828.24
182.56	3635.14
182.78	3565.51
183.00	2936.79
183.22	3028.95
183.44	3053.52
183.66	4050.88
183.89	3098.58
184.11	2947.03
184.33	3610.57
184.55	3606.47
184.77	2969.55
184.99	2985.94
185.21	3330.00
185.43	4057.03
185.65	3012.56
185.87	2944.98
186.10	4044.74
186.32	3940.29
186.54	3123.15
186.76	3082.19
186.98	3758.02
187.20	3354.57
187.42	2965.46
187.64	2951.12
187.86	3502.03
188.08	3766.21
188.30	2953.17
188.52	2953.17
188.75	3811.27
188.97	3721.16
189.19	2920.40
189.41	2895.83
189.63	3573.71
189.85	3471.31
190.07	2764.76
190.29	2772.95
190.51	3508.17
190.73	3106.77
190.95	3114.96
191.17	2967.51
191.39	3049.43
191.61	3303.37
191.84	2981.84
192.06	3174.35
192.28	3180.50
192.50	4159.42
192.72	3139.54
192.94	3086.29
193.16	3704.78
193.38	3475.40
193.60	2985.94
193.82	3168.21
194.04	3706.82
194.26	3641.29
194.48	2977.75
194.70	2987.99
194.92	3317.71
195.14	3598.28
195.36	2949.08
195.58	3030.99
195.80	3366.86
196.02	3319.76
196.24	2963.41
196.46	3041.23
196.69	3309.52
196.91	3909.57
197.13	3020.75
197.35	3080.14
197.57	3862.47
197.79	3641.29
198.01	3039.19
198.23	2879.44
198.45	3614.66
198.67	3180.50
198.89	2762.71
199.11	3028.95
199.33	3284.94
199.55	3000.27
199.77	2901.97
199.99	3151.82
200.21	3395.53
200.43	3434.44
200.65	2854.87
200.87	2785.24
201.09	3442.64
201.31	3413.96
201.53	3016.66
201.75	3024.85
201.97	3540.94
202.19	3428.30
202.41	3074.00
202.63	3065.81
202.85	3495.88
203.07	3467.21
203.29	3055.57
203.51	2922.45
203.73	3336.14
203.95	4011.97
204.17	2951.12
204.39	3129.30
204.61	3450.83
204.83	3370.96
205.05	3112.91
205.27	3024.85
205.49	4114.37
205.71	3475.40
205.93	2852.82
206.15	2832.34
206.37	3481.55
206.59	3442.64
206.81	2830.29
207.03	2848.72
207.25	3213.26
207.47	3721.16
207.69	2983.89
207.91	3264.46
208.13	3780.55
208.34	3420.11
208.56	2916.31
208.78	3016.66
209.00	3352.52
209.22	3272.65
209.44	2973.65
209.66	2852.82
209.88	3477.45
210.10	3360.72
210.32	2990.03
210.54	3127.25
210.76	3418.06
210.98	3753.93
211.20	2861.01
211.42	3114.96
211.64	3715.02
211.86	3575.75
212.08	3002.32
212.30	2944.98
212.52	3274.70
212.74	3557.32
212.96	3082.19
213.17	3024.85
213.39	3612.62
213.61	3809.22
213.83	2828.24
214.05	2783.19
214.27	3731.40
214.49	3241.93
214.71	2895.83
214.93	3127.25
215.15	3461.07
215.37	3684.30
215.59	2799.57
215.81	2990.03
216.03	3696.58
216.24	3395.53
216.46	2940.88
216.68	3024.85
216.90	3688.39
217.12	3663.82
217.34	2881.49
217.56	3121.10
217.78	3725.26
218.00	3559.37
218.22	3020.75
218.44	3074.00
218.66	3547.08
218.87	3907.52
219.09	3018.71
219.31	2897.88
219.53	3514.31
219.75	3409.87
219.97	3018.71
220.19	2955.22
220.41	3471.31
220.63	3741.64
220.85	2957.27
221.06	2987.99
221.28	3815.37
221.50	3616.71
221.72	2910.16
221.94	2924.50
222.16	3512.27
222.38	3672.01
222.60	3004.37
222.82	3010.51
223.03	3620.81
223.25	3215.31
223.47	2953.17
223.69	3229.65
223.91	3614.66
224.13	3522.51
224.35	2848.72
224.57	3180.50
224.78	3626.95
225.00	3297.23
225.22	3074.00
225.44	2861.01
225.66	3647.43
225.88	3368.91
226.10	3098.58
226.32	3024.85
226.53	3835.85
226.75	3346.38
226.97	3043.28
227.19	2959.31
227.41	3258.32
227.63	3352.52
227.85	2842.58
228.06	3008.47
228.28	3485.64
228.50	3674.06
228.72	2865.11
228.94	2918.36
229.16	3043.28
229.37	3205.07
229.59	2891.73
229.81	3166.16
230.03	3319.76
230.25	3139.54
230.47	2828.24
230.69	2944.98
230.90	3712.97
231.12	3266.51
231.34	3071.95
231.56	3016.66
231.78	3184.59
232.00	3434.44
232.21	2992.08
232.43	3024.85
232.65	3002.32
232.87	3618.76
233.09	2815.96
233.30	2918.36
233.52	3653.58
233.74	3442.64
233.96	2873.30
234.18	3198.93
234.40	3342.28
234.61	3999.68
234.83	2889.68
235.05	2955.22
235.27	3966.92
235.49	3712.97
235.70	2818.00
235.92	2981.84
236.14	3624.90
236.36	4001.73
236.58	2793.43
236.79	3063.76
237.01	3456.97
237.23	3422.16
237.45	3151.82
237.67	3000.27
237.88	3491.79
238.10	3798.98
238.32	2873.30
238.54	2881.49
238.76	3510.22
238.97	3223.50
239.19	2838.48
239.41	3078.10
239.63	3643.34
239.85	3362.76
240.06	2994.13
240.28	2918.36
240.50	3719.11
240.72	3418.06
240.93	2893.78
241.15	3172.30
241.37	3409.87
241.59	3815.37
241.81	3049.43
242.02	3119.06
242.24	3444.68
242.46	3602.38
242.68	2768.85
242.89	2914.26
243.11	3622.86
243.33	3403.72
243.55	2951.12
243.76	2942.93
243.98	3332.05
244.20	3549.13
244.42	2979.79
244.64	2885.59
244.85	3200.98
245.07	3270.61
245.29	3000.27
245.51	2967.51
245.72	3483.59
245.94	3702.73
246.16	2889.68
246.38	3014.61
246.59	3235.79
246.81	3239.89
247.03	2865.11
247.24	2863.06
247.46	3395.53
247.68	3506.12
247.90	2908.12
248.11	3051.47
248.33	3635.14
248.55	3401.68
248.77	3024.85
248.98	3004.37
249.20	3823.56
249.42	3485.64
249.64	2930.64
249.85	2918.36
250.07	3356.62
250.29	3536.84
250.50	3002.32
250.72	2820.05
250.94	3565.51
251.16	3944.39
251.37	2926.55
251.59	3117.01
251.81	3483.59
252.02	3778.50
252.24	2897.88
252.46	3131.34
252.68	3332.05
252.89	3327.95
253.11	2791.38
253.33	3094.48
253.54	3764.17
253.76	3188.69
253.98	3033.04
254.20	2959.31
254.41	3200.98
254.63	3364.81
254.85	2867.16
255.06	3119.06
255.28	3567.56
255.50	3360.72
255.71	2930.64
255.93	2805.72
256.15	3307.47
256.36	3614.66
256.58	2830.29
256.80	2963.41
257.02	3360.72
257.23	3330.00
257.45	2985.94
257.67	3147.73
257.88	3428.30
258.10	3559.37
258.32	2959.31
258.53	3055.57
258.75	3819.46
258.97	3286.99
259.18	2930.64
259.40	2949.08
259.62	3880.90
259.83	3811.27
260.05	3020.75
260.27	3882.95
260.48	3633.10
260.70	3209.17
260.92	2842.58
261.13	3010.51
261.35	3389.39
261.57	3538.89
261.78	2867.16
262.00	2947.03
262.22	3545.03
262.43	3286.99
262.65	2990.03
262.86	2951.12
263.08	4042.69
263.30	3409.87
263.51	2793.43
263.73	2873.30
263.95	3798.98
264.16	3266.51
264.38	2764.76
264.60	2883.54
264.81	3483.59
265.03	3637.19
265.25	3479.50
265.46	2875.35
265.68	3667.91
265.89	3577.80
266.11	2803.67
266.33	2942.93
266.54	3702.73
266.76	3524.55
266.98	3123.15
267.19	3135.44
267.41	3639.24
267.62	3434.44
267.84	2775.00
268.06	3035.09
268.27	3493.83
268.49	3725.26
268.70	3016.66
268.92	2942.93
269.14	3252.17
269.35	3125.20
269.57	3041.23
269.79	3067.86
270.00	3352.52
270.22	3831.75
270.43	2926.55
270.65	2842.58
270.87	3461.07
271.08	3598.28
271.30	3092.43
271.51	2920.40
271.73	3672.01
271.95	3739.59
272.16	2912.21
272.38	3157.97
272.59	3377.10
272.81	3620.81
273.02	2918.36
273.24	3061.71
273.46	3674.06
273.67	3235.79
273.89	2865.11
274.10	2875.35
274.32	3684.30
274.54	3598.28
274.75	3008.47
274.97	3108.82
275.18	3540.94
275.40	3616.71
275.61	2983.89
275.83	3127.25
276.05	3293.13
276.26	3413.96
276.48	3076.05
276.69	3186.64
276.91	3282.89
277.12	3717.06
277.34	3117.01
277.55	3196.88
277.77	3549.13
277.99	3330.00
278.20	3088.34
278.42	2975.70
278.63	3252.17
278.85	3215.31
279.06	3112.91
279.28	3184.59
279.49	3708.87
279.71	3719.11
279.93	3127.25
280.14	3074.00
280.36	3276.75
280.57	3753.93
280.79	3131.34
281.00	3045.33
281.22	3286.99
281.43	3721.16
281.65	2967.51
281.86	2998.23
282.08	3506.12
282.29	3841.99
282.51	2897.88
282.73	2977.75
282.94	3074.00
283.16	3721.16
283.37	3155.92
283.59	3149.78
283.80	3499.98
284.02	3438.54
284.23	3121.10
284.45	3108.82
284.66	3295.18
284.88	3327.95
285.09	3012.56
285.31	3139.54
285.52	3545.03
285.74	3139.54
285.95	3258.32
286.17	3205.07
286.38	3672.01
286.60	3276.75
286.81	3000.27
287.03	3078.10
287.24	3377.10
287.46	3569.61
287.67	3200.98
287.89	3332.05
288.10	3385.29
288.32	3411.92
288.53	3207.12
288.75	3143.63
288.96	3551.18
289.18	3323.85
289.39	3022.80
289.61	3135.44
289.82	3901.38
290.04	3878.85
290.25	2987.99
290.47	3190.74
290.68	3336.14
290.90	3659.72
291.11	2942.93
291.33	3233.74
291.54	3344.33
291.76	3370.96
291.97	3280.85
292.18	3209.17
292.40	3334.09
292.61	3323.85
292.83	3397.58
293.04	3059.67
293.26	3448.78
293.47	3442.64
293.69	3000.27
293.90	2910.16
294.12	3786.69
294.33	3483.59
294.55	3194.83
294.76	3330.00
294.97	3635.14
295.19	4034.50
295.40	3033.04
295.62	3131.34
295.83	3712.97
296.05	3356.62
296.26	3370.96
296.48	3069.91
296.69	3379.15
296.90	3475.40
297.12	3231.69
297.33	3250.13
297.55	3465.16
297.76	3561.42
297.98	3153.87
298.19	3403.72
298.41	3377.10
298.62	3213.26
298.83	3303.37
299.05	3223.50
299.26	3352.52
299.48	3278.80
299.69	3174.35
299.90	3082.19
300.12	3250.13
300.33	3608.52
300.55	3200.98
300.76	3172.30
300.98	3192.78
301.19	3569.61
301.40	3100.62
301.62	3094.48
301.83	3631.05
302.05	3467.21
302.26	3037.14
302.47	3198.93
302.69	3188.69
302.90	3428.30
303.12	2983.89
303.33	3215.31
303.54	3907.52
303.76	3407.82
303.97	3090.38
304.19	3258.32
304.40	3311.57
304.61	3528.65
304.83	3233.74
305.04	3100.62
305.26	3602.38
305.47	3354.57
305.68	3057.62
305.90	2949.08
306.11	3798.98
306.33	3403.72
306.54	2926.55
306.75	3092.43
306.97	3166.16
307.18	3205.07
307.39	3049.43
307.61	3274.70
307.82	3395.53
308.04	3524.55
308.25	2928.60
308.46	3229.65
308.68	3510.22
308.89	3450.83
309.10	3182.54
309.32	3037.14
309.53	3362.76
309.74	3655.62
309.96	3041.23
310.17	3182.54
310.39	3303.37
310.60	3651.53
310.81	3098.58
311.03	3008.47
311.24	3590.09
311.45	3409.87
311.67	3413.96
311.88	3280.85
312.09	3325.90
312.31	3354.57
312.52	3063.76
312.73	2977.75
312.95	3131.34
313.16	3205.07
313.37	3305.42
313.59	3309.52
313.80	3631.05
314.01	3786.69
314.23	3157.97
314.44	3080.14
314.65	3241.93
314.87	3262.41
315.08	3117.01
315.29	3102.67
315.51	3241.93
315.72	3065.81
315.93	3176.40
316.15	3180.50
316.36	3416.01
316.57	3508.17
316.79	3110.86
317.00	3037.14
317.21	3569.61
317.43	3364.81
317.64	3108.82
317.85	3065.81
318.07	3313.61
318.28	3409.87
318.49	3114.96
318.70	3350.48
318.92	3495.88
319.13	3573.71
319.34	3246.03
319.56	3045.33
319.77	3485.64
319.98	3542.99
320.20	3368.91
320.41	3293.13
320.62	3592.14
320.83	3194.83
321.05	3254.22
321.26	3151.82
321.47	3444.68
321.69	3753.93
321.90	2961.36
322.11	3065.81
322.32	3450.83
322.54	3844.04
322.75	3117.01
322.96	4261.82
323.18	3127.25
323.39	3094.48
323.60	3063.76
323.81	3174.35
324.03	3350.48
324.24	3391.44
324.45	3252.17
324.66	3082.19
324.88	3770.31
325.09	3737.54
325.30	3059.67
325.52	3049.43
325.73	3526.60
325.94	3252.17
326.15	3028.95
326.37	3041.23
326.58	3635.14
326.79	3739.59
327.00	3098.58
327.22	3092.43
327.43	3395.53
327.64	3102.67
327.85	3282.89
328.07	3141.58
328.28	3897.28
328.49	3360.72
328.70	3188.69
328.92	3102.67
329.13	3303.37
329.34	3477.45
329.55	3344.33
329.76	3311.57
329.98	3323.85
330.19	3690.44
330.40	3117.01
330.61	3295.18
330.83	3672.01
331.04	3264.46
331.25	3192.78
331.46	3192.78
331.68	3209.17
331.89	3606.47
332.10	3104.72
332.31	2936.79
332.52	3413.96
332.74	3608.52
332.95	3004.37
333.16	3141.58
333.37	3655.62
333.58	3313.61
333.80	3106.77
334.01	2840.53
334.22	3340.24
334.43	3370.96
334.64	3061.71
334.86	3139.54
335.07	3260.37
335.28	3745.73
335.49	2983.89
335.70	3164.11
335.92	3811.27
336.13	3893.19
336.34	3108.82
336.55	3190.74
336.76	3522.51
336.98	3018.71
337.19	3100.62
337.40	3180.50
337.61	4022.21
337.82	3348.43
338.04	3129.30
338.25	2967.51
338.46	3346.38
338.67	3377.10
338.88	2967.51
339.09	3004.37
339.31	3387.34
339.52	3237.84
339.73	3000.27
339.94	3129.30
340.15	3592.14
340.36	3321.81
340.58	3057.62
340.79	3065.81
341.00	3645.38
341.21	3168.21
341.42	3364.81
341.63	3092.43
341.85	3641.29
342.06	3485.64
342.27	3049.43
342.48	3274.70
342.69	3121.10
342.90	3526.60
343.12	3532.75
343.33	2965.46
343.54	3667.91
343.75	3876.80
343.96	3256.27
344.17	3043.28
344.38	3461.07
344.60	3207.12
344.81	3039.19
345.02	3119.06
345.23	3651.53
345.44	4007.87
345.65	3094.48
345.86	3188.69
346.07	3405.77
346.29	3370.96
346.50	3207.12
346.71	3157.97
346.92	3735.50
347.13	3958.72
347.34	3147.73
347.55	2955.22
347.76	3528.65
347.98	3180.50
348.19	3188.69
348.40	3235.79
348.61	3362.76
348.82	3796.93
349.03	3164.11
349.24	2889.68
349.45	3909.57
349.66	3024.85
349.88	3043.28
350.09	3033.04
350.30	3749.83
350.51	3727.30
350.72	3319.76
350.93	3100.62
351.14	3264.46
351.35	3639.24
351.56	3182.54
351.77	3180.50
351.99	3528.65
352.20	3792.84
352.41	3295.18
352.62	2959.31
352.83	3502.03
353.04	3411.92
353.25	3071.95
353.46	3074.00
353.67	3657.67
353.88	3080.14
354.09	2992.08
354.30	3129.30
354.52	3618.76
354.73	3442.64
354.94	3035.09
355.15	3166.16
355.36	3913.67
355.57	3338.19
355.78	3026.90
355.99	3090.38
356.20	3405.77
356.41	3643.34
356.62	3186.64
356.83	3155.92
357.04	3725.26
357.25	3100.62
357.46	3110.86
357.68	2977.75
357.89	3266.51
358.10	3485.64
358.31	3037.14
358.52	3082.19
358.73	3147.73
358.94	3143.63
359.15	3172.30
359.36	3131.34
359.57	3336.14
359.78	3370.96
359.99	3309.52
360.20	3026.90
360.41	3430.35
360.62	3557.32
360.83	3155.92
361.04	3190.74
361.25	3647.43
361.46	3760.07
361.67	3235.79
361.88	3086.29
362.09	3674.06
362.30	3571.66
362.51	3014.61
362.72	3231.69
362.93	3672.01
363.14	3626.95
363.35	3237.84
363.56	3043.28
363.78	3657.67
363.99	3651.53
364.20	3135.44
364.41	3184.59
364.62	3827.65
364.83	3545.03
365.04	3164.11
365.25	3145.68
365.46	3850.18
365.67	3268.56
365.88	3360.72
366.09	3082.19
366.30	3385.29
366.51	3434.44
366.72	3094.48
366.93	3049.43
367.14	3444.68
367.35	3712.97
367.56	3000.27
367.77	3246.03
367.98	3442.64
368.18	3598.28
368.39	3311.57
368.60	3104.72
368.81	3600.33
369.02	3520.46
369.23	3125.20
369.44	2963.41
369.65	3336.14
369.86	3559.37
370.07	3213.26
370.28	3098.58
370.49	3514.31
370.70	3545.03
370.91	3035.09
371.12	3002.32
371.33	3731.40
371.54	3268.56
371.75	3321.81
371.96	2807.77
372.17	3487.69
372.38	3397.58
372.59	3139.54
372.80	3033.04
373.01	3397.58
373.22	3491.79
373.43	3086.29
373.64	3069.91
373.85	3766.21
374.06	3844.04
374.26	3323.85
374.47	3272.65
374.68	3805.13
374.89	3504.07
375.10	3024.85
375.31	3153.87
375.52	3485.64
375.73	3481.55
375.94	2965.46
376.15	3186.64
376.36	3323.85
376.57	3352.52
376.78	3137.49
376.99	3147.73
377.20	3702.73
377.40	3297.23
377.61	3338.19
377.82	3014.61
378.03	3774.41
378.24	3573.71
378.45	3198.93
378.66	3258.32
378.87	3137.49
379.08	3098.58
379.29	3121.10
379.50	3266.51
379.71	3393.48
379.91	3590.09
380.12	3112.91
380.33	3168.21
380.54	3436.49
380.75	3442.64
380.96	3149.78
381.17	3194.83
381.38	3405.77
381.59	3459.02
381.80	3225.55
382.00	3317.71
382.21	3483.59
382.42	3704.78
382.63	3497.93
382.84	3282.89
383.05	3594.19
383.26	3764.17
383.47	3278.80
383.68	3057.62
383.88	3612.62
384.09	3491.79
384.30	3385.29
384.51	3256.27
384.72	3397.58
384.93	3180.50
385.14	3172.30
385.35	3424.20
385.55	3176.40
385.76	3723.21
385.97	3162.06
386.18	2969.55
386.39	3174.35
386.60	3360.72
386.81	3074.00
387.02	3014.61
387.22	3147.73
387.43	3614.66
387.64	3246.03
387.85	3373.00
388.06	3395.53
388.27	4339.65
388.48	7155.60
388.68	10704.73
388.89	13715.25
389.10	14767.90
389.31	14462.76
389.52	11673.42
389.73	10430.30
389.93	9471.86
390.14	8308.61
390.35	7919.50
390.56	7395.22
390.77	6387.61
390.98	4806.58
391.18	4138.94
391.39	3919.81
391.60	3481.55
391.81	3444.68
392.02	3182.54
392.23	3897.28
392.43	3493.83
392.64	3174.35
392.85	3254.22
393.06	3766.21
393.27	3512.27
393.47	3143.63
393.68	3114.96
393.89	3422.16
394.10	3715.02
394.31	3092.43
394.52	3117.01
394.72	3366.86
394.93	3794.89
395.14	2979.79
395.35	3188.69
395.56	3344.33
395.76	3409.87
395.97	3020.75
396.18	3327.95
396.39	3399.63
396.60	4009.92
396.80	3469.26
397.01	3487.69
397.22	3590.09
397.43	3643.34
397.64	3094.48
397.84	3250.13
398.05	3887.04
398.26	3459.02
398.47	3246.03
398.67	3352.52
398.88	3422.16
399.09	3532.75
399.30	3102.67
399.51	3172.30
399.71	3276.75
399.92	3430.35
400.13	3260.37
400.34	3145.68
400.54	3483.59
400.75	3684.30
400.96	3190.74
401.17	3436.49
401.37	3504.07
401.58	3352.52
401.79	3200.98
402.00	3323.85
402.21	3975.11
402.41	3622.86
402.62	3393.48
402.83	3577.80
403.04	3733.45
403.24	4204.48
403.45	3233.74
403.66	3385.29
403.87	3631.05
404.07	3758.02
404.28	3418.06
404.49	3418.06
404.70	3573.71
404.90	3585.99
405.11	3125.20
405.32	3254.22
405.52	3354.57
405.73	3346.38
405.94	3024.85
406.15	3237.84
406.35	3674.06
406.56	3618.76
406.77	3196.88
406.98	3139.54
407.18	3295.18
407.39	3827.65
407.60	3235.79
407.80	3209.17
408.01	3327.95
408.22	3573.71
408.43	3090.38
408.63	3262.41
408.84	3651.53
409.05	3588.04
409.25	3135.44
409.46	3184.59
409.67	3327.95
409.88	3311.57
410.08	3143.63
410.29	3098.58
410.50	3704.78
410.70	3530.70
410.91	3104.72
411.12	3229.65
411.32	3438.54
411.53	3190.74
411.74	3151.82
411.95	3264.46
412.15	3477.45
412.36	3590.09
412.57	3311.57
412.77	3338.19
412.98	3393.48
413.19	3270.61
413.39	3225.55
413.60	3196.88
413.81	3782.60
414.01	3180.50
414.22	3145.68
414.43	3426.25
414.63	3368.91
414.84	3641.29
415.05	3231.69
415.25	3018.71
415.46	3665.86
415.67	3360.72
415.87	3194.83
416.08	3176.40
416.29	3383.24
416.49	3602.38
416.70	3200.98
416.91	3123.15
417.11	3444.68
417.32	3686.34
417.53	3198.93
417.73	3262.41
417.94	3467.21
418.15	3454.92
418.35	3264.46
418.56	3190.74
418.77	4016.07
418.97	3477.45
419.18	3241.93
419.38	2887.64
419.59	3389.39
419.80	3764.17
420.00	3028.95
420.21	3147.73
420.42	3641.29
420.62	3426.25
420.83	3139.54
421.04	3123.15
421.24	3508.17
421.45	3608.52
421.65	3198.93
421.86	3141.58
422.07	3600.33
422.27	3583.95
422.48	3055.57
422.69	2983.89
422.89	3428.30
423.10	3413.96
423.30	3157.97
423.51	3264.46
423.72	3477.45
423.92	3649.48
424.13	3080.14
424.33	3229.65
424.54	3555.27
424.75	3463.12
424.95	3440.59
425.16	3155.92
425.36	3477.45
425.57	3704.78
425.78	3315.66
425.98	3254.22
426.19	3387.34
426.39	3241.93
426.60	3241.93
426.81	3282.89
427.01	3514.31
427.22	3286.99
427.42	2973.65
427.63	3149.78
427.83	3665.86
428.04	3848.13
428.25	3176.40
428.45	3278.80
428.66	3651.53
428.86	3418.06
429.07	3217.36
429.28	3160.02
429.48	3487.69
429.69	3241.93
429.89	3330.00
430.10	3082.19
430.30	3465.16
430.51	3698.63
430.71	3164.11
430.92	3221.45
431.13	3319.76
431.33	3540.94
431.54	3207.12
431.74	3389.39
431.95	3917.76
432.15	3221.45
432.36	3088.34
432.56	3178.45
432.77	3829.70
432.98	3835.85
433.18	3215.31
433.39	3016.66
433.59	3356.62
433.80	3817.41
434.00	3280.85
434.21	3172.30
434.41	3248.08
434.62	3870.66
434.82	3039.19
435.03	3098.58
435.23	3518.41
435.44	3110.86
435.64	3098.58
435.85	3157.97
436.06	3592.14
436.26	3647.43
436.47	3174.35
436.67	3129.30
436.88	3315.66
437.08	3657.67
437.29	3291.09
437.49	3303.37
437.70	3739.59
437.90	3389.39
438.11	3370.96
438.31	3274.70
438.52	3710.92
438.72	3600.33
438.93	3553.23
439.13	3282.89
439.34	3659.72
439.54	3356.62
439.75	3264.46
439.95	3225.55
440.16	3246.03
440.36	3352.52
440.57	3147.73
440.77	3092.43
440.98	3502.03
441.18	3590.09
441.39	3076.05
441.59	3033.04
441.80	3917.76
442.00	3381.20
442.21	3149.78
442.41	3016.66
442.62	3608.52
442.82	3301.33
443.02	3108.82
443.23	3266.51
443.43	3375.05
443.64	3753.93
443.84	2944.98
444.05	3235.79
444.25	3487.69
444.46	3272.65
444.66	3186.64
444.87	3467.21
445.07	3168.21
445.28	3309.52
445.48	3338.19
445.69	3266.51
445.89	4122.56
446.09	3362.76
446.30	3370.96
446.50	3557.32
446.71	5087.15
446.91	6104.99
447.12	6885.27
447.32	7196.56
447.53	7231.38
447.73	6154.15
447.93	5531.56
448.14	5171.12
448.34	5511.08
448.55	4468.67
448.75	4456.38
448.96	4212.67
449.16	4106.18
449.36	4046.79
449.57	3399.63
449.77	3225.55
449.98	3393.48
450.18	3647.43
450.39	3102.67
450.59	3295.18
450.79	3358.67
451.00	3274.70
451.20	3340.24
451.41	3137.49
451.61	3483.59
451.81	3428.30
452.02	3084.24
452.22	3221.45
452.43	3291.09
452.63	3354.57
452.84	3237.84
453.04	3133.39
453.24	3489.74
453.45	3237.84
453.65	3215.31
453.86	3119.06
454.06	3434.44
454.26	3438.54
454.47	3082.19
454.67	3399.63
454.87	3561.42
455.08	3403.72
455.28	3293.13
455.49	3362.76
455.69	3246.03
455.89	3903.43
456.10	3235.79
456.30	3114.96
456.51	3598.28
456.71	3504.07
456.91	3368.91
457.12	3127.25
457.32	3532.75
457.52	3174.35
457.73	3350.48
457.93	3299.28
458.14	3375.05
458.34	3069.91
458.54	3147.73
458.75	3162.06
458.95	3690.44
459.15	3479.50
459.36	3170.26
459.56	3213.26
459.76	3958.72
459.97	3413.96
460.17	3160.02
460.37	3258.32
460.58	3473.36
460.78	3606.47
460.99	3207.12
461.19	3246.03
461.39	3303.37
461.60	3411.92
461.80	3209.17
462.00	3078.10
462.21	3416.01
462.41	3254.22
462.61	2979.79
462.82	3035.09
463.02	3606.47
463.22	3426.25
463.43	3184.59
463.63	3063.76
463.83	3682.25
464.04	3481.55
464.24	3067.86
464.44	3157.97
464.64	3512.27
464.85	3475.40
465.05	3184.59
465.25	3155.92
465.46	3317.71
465.66	3551.18
465.86	3205.07
466.07	3182.54
466.27	3338.19
466.47	3094.48
466.68	3020.75
466.88	3256.27
467.08	3545.03
467.29	3700.68
467.49	3172.30
467.69	3305.42
467.89	3555.27
468.10	3385.29
468.30	3237.84
468.50	3223.50
468.71	3610.57
468.91	3041.23
469.11	3387.34
469.31	3272.65
469.52	3231.69
469.72	3837.89
469.92	3403.72
470.13	3147.73
470.33	3465.16
470.53	3504.07
470.73	3545.03
470.94	3835.85
471.14	4034.50
471.34	4564.92
471.54	4147.14
471.75	3938.24
471.95	3755.97
472.15	3772.36
472.36	3737.54
472.56	3485.64
472.76	3977.16
472.96	3801.03
473.17	3420.11
473.37	3229.65
473.57	3311.57
473.77	3510.22
473.98	3250.13
474.18	3049.43
474.38	4212.67
474.58	3348.43
474.79	3049.43
474.99	3278.80
475.19	3616.71
475.39	3237.84
475.60	3233.74
475.80	3139.54
476.00	3532.75
476.20	3438.54
476.41	3190.74
476.61	3209.17
476.81	3815.37
477.01	3231.69
477.21	3438.54
477.42	3221.45
477.62	3309.52
477.82	3641.29
478.02	3112.91
478.23	3196.88
478.43	3172.30
478.63	3311.57
478.83	3223.50
479.03	3186.64
479.24	3780.55
479.44	3977.16
479.64	3065.81
479.84	2961.36
480.04	3299.28
480.25	3624.90
480.45	3137.49
480.65	3098.58
480.85	3719.11
481.06	3387.34
481.26	3368.91
481.46	3123.15
481.66	3438.54
481.86	3264.46
482.06	3430.35
482.27	3221.45
482.47	3387.34
482.67	3536.84
482.87	3233.74
483.07	3264.46
483.28	3213.26
483.48	3166.16
483.68	3166.16
483.88	3043.28
484.08	3090.38
484.29	3207.12
484.49	3278.80
484.69	3033.04
484.89	3719.11
485.09	3680.20
485.29	3192.78
485.50	3311.57
485.70	3360.72
485.90	3680.20
486.10	3340.24
486.30	3160.02
486.50	3760.07
486.71	3559.37
486.91	3166.16
487.11	3278.80
487.31	3151.82
487.51	3608.52
487.71	3182.54
487.91	3045.33
488.12	3192.78
488.32	2930.64
488.52	3153.87
488.72	2897.88
488.92	3520.46
489.12	3755.97
489.32	3321.81
489.53	3172.30
489.73	3166.16
489.93	3844.04
490.13	3180.50
490.33	2967.51
490.53	3547.08
490.73	3649.48
490.94	3010.51
491.14	3274.70
491.34	3577.80
491.54	3575.75
491.74	3995.59
491.94	4487.10
492.14	5154.74
492.34	5113.78
492.54	4661.18
492.75	4132.80
492.95	4433.85
493.15	4143.04
493.35	3745.73
493.55	3758.02
493.75	3778.50
493.95	3885.00
494.15	3430.35
494.35	3241.93
494.56	3399.63
494.76	3286.99
494.96	3354.57
495.16	3078.10
495.36	3424.20
495.56	3504.07
495.76	3168.21
495.96	3176.40
496.16	3289.04
496.36	3893.19
496.56	3168.21
496.77	3233.74
496.97	3418.06
497.17	3741.64
497.37	2955.22
497.57	3385.29
497.77	3483.59
497.97	3243.98
498.17	3258.32
498.37	3119.06
498.57	3704.78
498.77	3346.38
498.97	3354.57
499.17	3557.32
499.38	3377.10
499.58	3540.94
499.78	3340.24
499.98	3252.17
500.18	3338.19
500.38	3266.51
500.58	3440.59
500.78	3731.40
500.98	6092.71
501.18	7813.00
501.38	9252.72
501.58	10004.33
501.78	9832.30
501.98	8320.90
502.18	7202.71
502.38	6006.69
502.58	6229.92
502.78	5498.80
502.98	5185.46
503.18	5040.05
503.38	4945.84
503.59	4145.09
503.79	4118.47
503.99	3674.06
504.19	3952.58
504.39	3966.92
504.59	3655.62
504.79	3532.75
504.99	4007.87
505.19	3545.03
505.39	3274.70
505.59	3545.03
505.79	3835.85
505.99	3567.56
506.19	3264.46
506.39	3491.79
506.59	3336.14
506.79	3420.11
506.99	3487.69
507.19	3131.34
507.39	3467.21
507.59	3149.78
507.79	3172.30
507.99	3020.75
508.19	3385.29
508.39	3387.34
508.59	3090.38
508.79	3293.13
508.99	3962.82
509.19	3215.31
509.39	3196.88
509.59	3094.48
509.79	3295.18
509.99	3463.12
510.19	3360.72
510.39	3319.76
510.59	3506.12
510.79	3352.52
510.99	3049.43
511.19	3125.20
511.39	3860.42
511.59	3727.30
511.79	3395.53
511.99	3131.34
512.19	3905.48
512.38	3452.88
512.58	3045.33
512.78	3114.96
512.98	3702.73
513.18	3772.36
513.38	3147.73
513.58	3221.45
513.78	3467.21
513.98	3364.81
514.18	3172.30
514.38	3188.69
514.58	3561.42
514.78	3286.99
514.98	3059.67
515.18	3184.59
515.38	3198.93
515.58	3776.45
515.78	3098.58
515.98	3172.30
516.18	3612.62
516.38	3538.89
516.57	3182.54
516.77	3117.01
516.97	3579.85
517.17	3344.33
517.37	2906.07
517.57	3225.55
517.77	3549.13
517.97	3319.76
518.17	3211.22
518.37	3065.81
518.57	3282.89
518.77	3340.24
518.97	3129.30
519.16	3139.54
519.36	3715.02
519.56	3237.84
519.76	3139.54
519.96	3225.55
520.16	3712.97
520.36	3182.54
520.56	3377.10
520.76	3074.00
520.96	3338.19
521.16	3629.00
521.35	3393.48
521.55	3237.84
521.75	3456.97
521.95	3313.61
522.15	3119.06
522.35	3043.28
522.55	3311.57
522.75	3674.06
522.95	3035.09
523.14	2947.03
523.34	3487.69
523.54	3385.29
523.74	3289.04
523.94	3221.45
524.14	3137.49
524.34	3506.12
524.54	3373.00
524.73	3155.92
524.93	3635.14
525.13	3467.21
525.33	3137.49
525.53	3399.63
525.73	3534.79
525.93	3403.72
526.13	3205.07
526.32	3012.56
526.52	3667.91
526.72	3590.09
526.92	3227.60
527.12	3090.38
527.32	3137.49
527.52	3499.98
527.71	3217.36
527.91	3149.78
528.11	3438.54
528.31	3375.05
528.51	3164.11
528.71	3385.29
528.90	3536.84
529.10	3821.51
529.30	3211.22
529.50	2901.97
529.70	3520.46
529.90	3330.00
530.09	3147.73
530.29	3008.47
530.49	3301.33
530.69	3960.77
530.89	3330.00
531.09	3260.37
531.28	3422.16
531.48	3698.63
531.68	3192.78
531.88	3205.07
532.08	3610.57
532.28	3411.92
532.47	3250.13
532.67	3270.61
532.87	3510.22
533.07	3229.65
533.27	3178.45
533.46	3246.03
533.66	3383.24
533.86	3432.40
534.06	3196.88
534.26	3147.73
534.45	3381.20
534.65	3610.57
534.85	3325.90
535.05	3141.58
535.25	3647.43
535.44	3149.78
535.64	3205.07
535.84	3266.51
536.04	3321.81
536.24	3291.09
536.43	3157.97
536.63	3133.39
536.83	3350.48
537.03	3379.15
537.22	2979.79
537.42	2942.93
537.62	3549.13
537.82	3225.55
538.02	3366.86
538.21	3297.23
538.41	3997.64
538.61	3594.19
538.81	3313.61
539.00	3278.80
539.20	3231.69
539.40	3395.53
539.60	3110.86
539.79	3403.72
539.99	3485.64
540.19	3219.41
540.39	3065.81
540.58	3172.30
540.78	3690.44
540.98	3448.78
541.18	3442.64
541.37	3280.85
541.57	3467.21
541.77	3477.45
541.97	3104.72
542.16	3018.71
542.36	3395.53
542.56	3315.66
542.76	3401.68
542.95	3276.75
543.15	3497.93
543.35	3592.14
543.54	3059.67
543.74	3094.48
543.94	3688.39
544.14	3352.52
544.33	3280.85
544.53	3157.97
544.73	3379.15
544.93	3250.13
545.12	3157.97
545.32	3205.07
545.52	3336.14
545.71	3174.35
545.91	3196.88
546.11	3053.52
546.30	3186.64
546.50	3401.68
546.70	3229.65
546.90	3188.69
547.09	3022.80
547.29	3442.64
547.49	3223.50
547.68	3198.93
547.88	3332.05
548.08	3669.96
548.27	3403.72
548.47	3123.15
548.67	3309.52
548.87	3559.37
549.06	3127.25
549.26	3096.53
549.46	3499.98
549.65	3272.65
549.85	3243.98
550.05	3166.16
550.24	3172.30
550.44	3401.68
550.64	3217.36
550.83	3307.47
551.03	3786.69
551.23	3604.42
551.42	3192.78
551.62	3190.74
551.82	3442.64
552.01	3340.24
552.21	3545.03
552.41	3192.78
552.60	3743.69
552.80	3483.59
553.00	3082.19
553.19	3149.78
553.39	3803.08
553.59	3114.96
553.78	3301.33
553.98	3164.11
554.17	3254.22
554.37	3528.65
554.57	3241.93
554.76	3045.33
554.96	3307.47
555.16	3524.55
555.35	3188.69
555.55	3471.31
555.75	3475.40
555.94	3635.14
556.14	2947.03
556.33	3178.45
556.53	3387.34
556.73	3522.51
556.92	3129.30
557.12	3139.54
557.32	3944.39
557.51	3798.98
557.71	3194.83
557.90	3354.57
558.10	3651.53
558.30	3348.43
558.49	3243.98
558.69	3151.82
558.88	3524.55
559.08	3499.98
559.28	3164.11
559.47	3178.45
559.67	3454.92
559.86	3813.32
560.06	3098.58
560.26	3180.50
560.45	3512.27
560.65	3330.00
560.84	3442.64
561.04	3055.57
561.24	3608.52
561.43	3221.45
561.63	3506.12
561.82	3313.61
562.02	3629.00
562.22	3205.07
562.41	3076.05
562.61	3114.96
562.80	3203.02
563.00	3983.30
563.19	3227.60
563.39	3229.65
563.59	3438.54
563.78	3176.40
563.98	2920.40
564.17	3223.50
564.37	3074.00
564.56	3463.12
564.76	3082.19
564.96	3250.13
565.15	3495.88
565.35	3934.15
565.54	3264.46
565.74	3166.16
565.93	3530.70
566.13	3411.92
566.32	3264.46
566.52	3260.37
566.71	3483.59
566.91	3661.77
567.11	3190.74
567.30	3063.76
567.50	3454.92
567.69	3524.55
567.89	3125.20
568.08	3117.01
568.28	3444.68
568.47	3200.98
568.67	3184.59
568.86	3082.19
569.06	3569.61
569.25	3303.37
569.45	3014.61
569.64	3186.64
569.84	3307.47
570.04	3450.83
570.23	3205.07
570.43	3268.56
570.62	3454.92
570.82	3760.07
571.01	3022.80
571.21	3106.77
571.40	3278.80
571.60	3602.38
571.79	3188.69
571.99	3155.92
572.18	3203.02
572.38	3524.55
572.57	3192.78
572.77	3317.71
572.96	4050.88
573.16	3512.27
573.35	3194.83
573.55	3280.85
573.74	3424.20
573.94	3317.71
574.13	3123.15
574.33	3368.91
574.52	3755.97
574.71	3456.97
574.91	3282.89
575.10	3094.48
575.30	3327.95
575.49	3293.13
575.69	3078.10
575.88	3149.78
576.08	3366.86
576.27	3581.90
576.47	3080.14
576.66	3295.18
576.86	3819.46
577.05	3487.69
577.25	3221.45
577.44	3323.85
577.64	3309.52
577.83	3616.71
578.02	3151.82
578.22	3303.37
578.41	3903.43
578.61	3411.92
578.80	3053.52
579.00	3196.88
579.19	3411.92
579.39	3524.55
579.58	3303.37
579.77	3272.65
579.97	3717.06
580.16	3651.53
580.36	3432.40
580.55	3235.79
580.75	3614.66
580.94	3409.87
581.13	3297.23
581.33	3471.31
581.52	3356.62
581.72	3862.47
581.91	3262.41
582.11	3053.52
582.30	3622.86
582.49	3446.73
582.69	3483.59
582.88	3221.45
583.08	3565.51
583.27	3610.57
583.47	3336.14
583.66	3149.78
583.85	3215.31
584.05	3442.64
584.24	3286.99
584.44	3291.09
584.63	3704.78
584.82	3721.16
585.02	3401.68
585.21	3389.39
585.41	3545.03
585.60	3467.21
585.79	3434.44
585.99	3459.02
586.18	3508.17
586.37	4478.91
586.57	6670.23
586.76	18521.83
586.96	37195.21
587.15	49665.29
587.34	57762.96
587.54	60935.26
587.73	53677.26
587.93	38528.44
588.12	29888.06
588.31	24817.29
588.51	21997.23
588.70	20555.46
588.89	17837.81
589.09	15347.48
589.28	13129.53
589.47	10561.37
589.67	7882.63
589.86	6217.63
590.06	4921.27
590.25	4534.20
590.44	3909.57
590.64	3555.27
590.83	3663.82
591.02	3688.39
591.22	3172.30
591.41	3338.19
591.60	3295.18
591.80	4020.16
591.99	3033.04
592.18	3176.40
592.38	3676.10
592.57	3309.52
592.76	3172.30
592.96	3295.18
593.15	3432.40
593.34	3612.62
593.54	3139.54
593.73	3280.85
593.92	3551.18
594.12	3608.52
594.31	3250.13
594.50	3401.68
594.70	3624.90
594.89	4089.79
595.08	3059.67
595.28	3303.37
595.47	4112.32
595.66	3678.15
595.86	3147.73
596.05	3018.71
596.24	3352.52
596.43	3778.50
596.63	3317.71
596.82	3411.92
597.01	3545.03
597.21	3780.55
597.40	3168.21
597.59	3196.88
597.79	3452.88
597.98	3559.37
598.17	3254.22
598.36	3190.74
598.56	3649.48
598.75	3307.47
598.94	3268.56
599.14	3252.17
599.33	3375.05
599.52	3581.90
599.71	3284.94
599.91	3196.88
600.10	3633.10
600.29	3485.64
600.48	3270.61
600.68	3270.61
600.87	3532.75
601.06	3403.72
601.26	3383.24
601.45	3354.57
601.64	3342.28
601.83	3844.04
602.03	3098.58
602.22	3110.86
602.41	3598.28
602.60	4034.50
602.80	3289.04
602.99	3416.01
603.18	3375.05
603.37	3467.21
603.57	3065.81
603.76	3188.69
603.95	3762.12
604.14	3327.95
604.34	3086.29
604.53	3127.25
604.72	3459.02
604.91	3649.48
605.10	3149.78
605.30	3074.00
605.49	3895.24
605.68	3518.41
605.87	3123.15
606.07	3117.01
606.26	3432.40
606.45	3581.90
606.64	3233.74
606.84	3033.04
607.03	3389.39
607.22	3637.19
607.41	3213.26
607.60	3200.98
607.80	3690.44
607.99	3426.25
608.18	3203.02
608.37	3196.88
608.56	3336.14
608.76	3608.52
608.95	3373.00
609.14	3143.63
609.33	3700.68
609.52	3880.90
609.72	3258.32
609.91	3276.75
610.10	3510.22
610.29	3764.17
610.48	3276.75
610.68	3362.76
610.87	3401.68
611.06	3639.24
611.25	3264.46
611.44	3293.13
611.63	3352.52
611.83	3690.44
612.02	3133.39
612.21	3239.89
612.40	3086.29
612.59	3139.54
612.79	3098.58
612.98	3350.48
613.17	3835.85
613.36	3391.44
613.55	3305.42
613.74	3092.43
613.93	3491.79
614.13	3473.36
614.32	3264.46
614.51	3139.54
614.70	3397.58
614.89	3370.96
615.08	3260.37
615.28	3561.42
615.47	3278.80
615.66	3565.51
615.85	3157.97
616.04	3264.46
616.23	3411.92
616.42	3424.20
616.62	3121.10
616.81	3241.93
617.00	3485.64
617.19	3549.13
617.38	3282.89
617.57	3358.67
617.76	3620.81
617.95	3639.24
618.15	3305.42
618.34	3448.78
618.53	3180.50
618.72	3751.88
618.91	3246.03
619.10	3227.60
619.29	3352.52
619.48	3420.11
619.68	3065.81
619.87	3104.72
620.06	3203.02
620.25	3569.61
620.44	3143.63
620.63	3139.54
620.82	3530.70
621.01	3348.43
621.20	3223.50
621.39	3239.89
621.59	3549.13
621.78	3403.72
621.97	3278.80
622.16	3317.71
622.35	3534.79
622.54	3491.79
622.73	3286.99
622.92	2975.70
623.11	3606.47
623.30	3360.72
623.49	3307.47
623.68	3065.81
623.88	3776.45
624.07	3291.09
624.26	3041.23
624.45	3184.59
624.64	3370.96
624.83	3540.94
625.02	3239.89
625.21	3137.49
625.40	3489.74
625.59	3684.30
625.78	3237.84
625.97	3301.33
626.16	3721.16
626.35	3676.10
626.54	3135.44
626.74	3475.40
626.93	3411.92
627.12	3391.44
627.31	3262.41
627.50	3190.74
627.69	3602.38
627.88	3276.75
628.07	3106.77
628.26	2951.12
628.45	3207.12
628.64	3213.26
628.83	3182.54
629.02	3030.99
629.21	3565.51
629.40	3581.90
629.59	3043.28
629.78	3157.97
629.97	3489.74
630.16	3450.83
630.35	3119.06
630.54	3246.03
630.73	3338.19
630.92	3409.87
631.11	3143.63
631.30	3243.98
631.49	3624.90
631.68	3348.43
631.87	3241.93
632.06	3135.44
632.25	4014.02
632.44	3397.58
632.63	3188.69
632.82	3176.40
633.01	3315.66
633.20	3475.40
633.39	3137.49
633.58	2994.13
633.77	3522.51
633.96	3575.75
634.15	3278.80
634.34	3291.09
634.53	3600.33
634.72	3291.09
634.91	3074.00
635.10	3104.72
635.29	3579.85
635.48	3440.59
635.67	3047.38
635.86	3012.56
636.05	3792.84
636.24	3465.16
636.43	3141.58
636.62	3254.22
636.81	2901.97
637.00	3434.44
637.19	3133.39
637.38	3164.11
637.57	3325.90
637.76	3360.72
637.95	3387.34
638.14	3270.61
638.33	3428.30
638.52	3520.46
638.71	3041.23
638.89	3020.75
639.08	4050.88
639.27	3762.12
639.46	3342.28
639.65	3626.95
639.84	3909.57
640.03	3956.68
640.22	3563.47
640.41	3483.59
640.60	3461.07
640.79	3657.67
640.98	3436.49
641.17	3397.58
641.36	3604.42
641.55	3524.55
641.74	3086.29
641.92	3043.28
642.11	3239.89
642.30	3387.34
642.49	3129.30
642.68	3174.35
642.87	3512.27
643.06	3633.10
643.25	3045.33
643.44	3045.33
643.63	3393.48
643.82	3497.93
644.00	3071.95
644.19	3246.03
644.38	3284.94
644.57	3504.07
644.76	3137.49
644.95	3301.33
645.14	3551.18
645.33	3436.49
645.52	3239.89
645.71	2992.08
645.89	3280.85
646.08	3368.91
646.27	3192.78
646.46	3409.87
646.65	3094.48
646.84	3522.51
647.03	3051.47
647.22	3360.72
647.40	3518.41
647.59	3340.24
647.78	3024.85
647.97	3151.82
648.16	3297.23
648.35	3749.83
648.54	3442.64
648.73	3237.84
648.91	3667.91
649.10	3401.68
649.29	3051.47
649.48	3110.86
649.67	3547.08
649.86	3434.44
650.05	3233.74
650.23	3350.48
650.42	3221.45
650.61	3786.69
650.80	3485.64
650.99	3416.01
651.18	3651.53
651.36	3684.30
651.55	3143.63
651.74	3360.72
651.93	3348.43
652.12	3442.64
652.31	3178.45
652.49	3260.37
652.68	3239.89
652.87	3731.40
653.06	3286.99
653.25	3491.79
653.44	3463.12
653.62	3874.76
653.81	3307.47
654.00	3188.69
654.19	3571.66
654.38	4032.45
654.56	3229.65
654.75	3121.10
654.94	3631.05
655.13	3485.64
655.32	3131.34
655.51	3246.03
655.69	3254.22
655.88	3745.73
656.07	3088.34
656.26	3188.69
656.45	3131.34
656.63	3493.83
656.82	3153.87
657.01	3463.12
657.20	3289.04
657.38	3862.47
657.57	3117.01
657.76	3014.61
657.95	3626.95
658.14	3338.19
658.32	3319.76
658.51	3102.67
658.70	3448.78
658.89	3471.31
659.08	3272.65
659.26	3413.96
659.45	3200.98
659.64	3598.28
659.83	3203.02
660.01	3502.03
660.20	3489.74
660.39	3731.40
660.58	2877.40
660.76	3270.61
660.95	3117.01
661.14	3420.11
661.33	2981.84
661.51	3221.45
661.70	3317.71
661.89	3518.41
662.08	3276.75
662.26	3026.90
662.45	3246.03
662.64	3860.42
662.83	3203.02
663.01	3076.05
663.20	3229.65
663.39	3782.60
663.58	3239.89
663.76	3215.31
663.95	3489.74
664.14	3262.41
664.32	3352.52
664.51	3086.29
664.70	3114.96
664.89	3518.41
665.07	3082.19
665.26	3319.76
665.45	3299.28
665.64	3479.50
665.82	3205.07
666.01	3291.09
666.20	3256.27
666.38	3653.58
666.57	3463.12
666.76	5740.46
666.95	12476.23
667.13	18978.53
667.32	22382.25
667.51	25058.95
667.69	25677.43
667.88	20971.20
668.07	15404.82
668.25	13059.90
668.44	11747.15
668.63	10205.03
668.81	8920.95
669.00	7688.07
669.19	7145.36
669.38	6330.27
669.56	5304.24
669.75	4812.73
669.94	4308.93
670.12	3772.36
670.31	3426.25
670.50	3459.02
670.68	3622.86
670.87	3540.94
671.06	3190.74
671.24	3221.45
671.43	3772.36
671.62	3442.64
671.80	3192.78
671.99	3252.17
672.18	3430.35
672.36	3592.14
672.55	3313.61
672.74	3270.61
672.92	3418.06
673.11	3622.86
673.29	3047.38
673.48	3364.81
673.67	3420.11
673.85	3612.62
674.04	3168.21
674.23	3276.75
674.41	3852.23
674.60	3209.17
674.79	3043.28
674.97	3092.43
675.16	3622.86
675.34	3604.42
675.53	3133.39
675.72	3182.54
675.90	3872.71
676.09	3413.96
676.28	3254.22
676.46	3024.85
676.65	3604.42
676.83	3280.85
677.02	3225.55
677.21	3297.23
677.39	3549.13
677.58	3311.57
677.77	3186.64
677.95	3145.68
678.14	3291.09
678.32	3426.25
678.51	3266.51
678.70	3608.52
678.88	3334.09
679.07	3483.59
679.25	3303.37
679.44	3178.45
679.63	3106.77
679.81	3479.50
680.00	3459.02
680.18	3295.18
680.37	3866.56
680.55	3540.94
680.74	3082.19
680.93	2926.55
681.11	3473.36
681.30	3452.88
681.48	3209.17
681.67	3196.88
681.85	3459.02
682.04	3301.33
682.23	3330.00
682.41	3342.28
682.60	3360.72
682.78	3422.16
682.97	3110.86
683.15	3280.85
683.34	3467.21
683.53	3717.06
683.71	3028.95
683.90	3291.09
684.08	3753.93
684.27	3387.34
684.45	3297.23
684.64	3291.09
684.82	3327.95
685.01	3459.02
685.19	3119.06
685.38	3538.89
685.57	3368.91
685.75	3303.37
685.94	3149.78
686.12	3090.38
686.31	3393.48
686.49	3841.99
686.68	3004.37
686.86	3209.17
687.05	3403.72
687.23	3778.50
687.42	3223.50
687.60	3141.58
687.79	3698.63
687.97	3774.41
688.16	3334.09
688.34	3379.15
688.53	3141.58
688.71	3489.74
688.90	3538.89
689.08	3196.88
689.27	3143.63
689.45	3551.18
689.64	3319.76
689.82	3248.08
690.01	3555.27
690.19	3426.25
690.38	3284.94
690.56	3321.81
690.75	3248.08
690.93	3286.99
691.12	3217.36
691.30	3180.50
691.49	3190.74
691.67	3477.45
691.86	3553.23
692.04	3243.98
692.23	3336.14
692.41	3401.68
692.60	3594.19
692.78	3362.76
692.97	3411.92
693.15	3680.20
693.34	3387.34
693.52	3366.86
693.71	3297.23
693.89	3280.85
694.08	3078.10
694.26	3264.46
694.44	3649.48
694.63	3565.51
694.81	3051.47
695.00	3229.65
695.18	3692.49
695.37	3968.96
695.55	3235.79
695.74	3217.36
695.92	3180.50
696.10	3702.73
696.29	3086.29
696.47	3221.45
696.66	3149.78
696.84	3209.17
697.03	3180.50
697.21	3510.22
697.40	4786.10
697.58	3643.34
697.76	3088.34
697.95	3215.31
698.13	3215.31
698.32	3385.29
698.50	3282.89
698.68	3153.87
698.87	3463.12
699.05	3735.50
699.24	3153.87
699.42	3231.69
699.61	3459.02
699.79	3422.16
699.97	3211.22
700.16	3104.72
700.34	3143.63
700.53	3456.97
700.71	3399.63
700.89	3260.37
701.08	3370.96
701.26	3452.88
701.45	3538.89
701.63	3166.16
701.81	3393.48
702.00	3368.91
702.18	3303.37
702.37	3176.40
702.55	3657.67
702.73	3475.40
702.92	3143.63
703.10	3542.99
703.28	3567.56
703.47	3209.17
703.65	3383.24
703.84	3305.42
704.02	3307.47
704.20	3684.30
704.39	3129.30
704.57	3239.89
704.75	3598.28
704.94	3520.46
705.12	3459.02
705.30	3952.58
705.49	8292.23
705.67	14792.48
705.86	19654.36
706.04	21573.30
706.22	24188.56
706.41	22408.87
706.59	16602.88
706.77	13510.45
706.96	11769.68
707.14	11204.44
707.32	9389.94
707.51	8152.96
707.69	7024.53
707.87	5849.00
708.06	4845.49
708.24	4257.73
708.42	4034.50
708.61	4202.43
708.79	3215.31
708.97	3280.85
709.16	3502.03
709.34	3506.12
709.52	3205.07
709.71	3278.80
709.89	3510.22
710.07	3260.37
710.26	3110.86
710.44	3215.31
710.62	3549.13
710.80	3459.02
710.99	3289.04
711.17	3334.09
711.35	3286.99
711.54	3373.00
711.72	3428.30
711.90	3250.13
712.09	3499.98
712.27	3315.66
712.45	3389.39
712.63	3215.31
712.82	3569.61
713.00	3358.67
713.18	3301.33
713.37	3508.17
713.55	3604.42
713.73	3620.81
713.91	3260.37
714.10	3184.59
714.28	3409.87
714.46	3577.80
714.65	3327.95
714.83	3303.37
715.01	3526.60
715.19	3428.30
715.38	3127.25
715.56	3321.81
715.74	3327.95
715.92	3256.27
716.11	3463.12
716.29	3004.37
716.47	3344.33
716.65	3442.64
716.84	3106.77
717.02	3239.89
717.20	2981.84
717.38	3323.85
717.57	3332.05
717.75	3246.03
717.93	3391.44
718.11	3565.51
718.30	3092.43
718.48	3198.93
718.66	3633.10
718.84	3768.26
719.03	3170.26
719.21	3071.95
719.39	3819.46
719.57	3563.47
719.75	3266.51
719.94	3151.82
720.12	3403.72
720.30	3450.83
720.48	3266.51
720.67	3235.79
720.85	3192.78
721.03	3276.75
721.21	3188.69
721.39	3323.85
721.58	3583.95
721.76	3444.68
721.94	3237.84
722.12	3336.14
722.30	3829.70
722.49	3332.05
722.67	3153.87
722.85	3227.60
723.03	3106.77
723.21	3397.58
723.40	3229.65
723.58	3391.44
723.76	3485.64
723.94	3721.16
724.12	3153.87
724.30	3434.44
724.49	3604.42
724.67	3270.61
724.85	3286.99
725.03	3108.82
725.21	3577.80
725.40	3696.58
725.58	3213.26
725.76	3348.43
725.94	3641.29
726.12	3153.87
726.30	3266.51
726.49	3213.26
726.67	3250.13
726.85	3608.52
727.03	3872.71
727.21	4997.04
727.39	6215.59
727.57	6461.34
727.76	6672.28
727.94	6616.99
728.12	5949.35
728.30	5095.35
728.48	4894.65
728.66	4474.81
728.84	4534.20
729.03	3946.44
729.21	3710.92
729.39	3516.36
729.57	3485.64
729.75	3569.61
729.93	3475.40
730.11	3133.39
730.30	3401.68
730.48	3385.29
730.66	3213.26
730.84	3340.24
731.02	3528.65
731.20	3280.85
731.38	3272.65
731.56	3012.56
731.74	3114.96
731.93	3440.59
732.11	3342.28
732.29	3182.54
732.47	3573.71
732.65	3573.71
732.83	3401.68
733.01	3309.52
733.19	3418.06
733.37	3557.32
733.56	3241.93
733.74	3096.53
733.92	3698.63
734.10	3368.91
734.28	3381.20
734.46	3100.62
734.64	3434.44
734.82	3338.19
735.00	3192.78
735.18	3147.73
735.36	3520.46
735.54	3413.96
735.73	3153.87
735.91	3399.63
736.09	3719.11
736.27	3493.83
736.45	3299.28
736.63	2979.79
736.81	3381.20
736.99	3637.19
737.17	3418.06
737.35	3147.73
737.53	3483.59
737.71	3368.91
737.89	3426.25
738.07	3149.78
738.25	3246.03
738.43	3108.82
738.61	3198.93
738.80	3069.91
738.98	3217.36
739.16	3368.91
739.34	3162.06
739.52	3549.13
739.70	3315.66
739.88	3602.38
740.06	3350.48
740.24	2889.68
740.42	3684.30
740.60	3069.91
740.78	3123.15
740.96	2977.75
741.14	3397.58
741.32	3442.64
741.50	3071.95
741.68	3418.06
741.86	3743.69
742.04	3239.89
742.22	3139.54
742.40	3160.02
742.58	3534.79
742.76	3325.90
742.94	3475.40
743.12	3037.14
743.30	3407.82
743.48	3532.75
743.66	3229.65
743.84	3209.17
744.02	3520.46
744.20	3403.72
744.38	3026.90
744.56	3239.89
744.74	3841.99
744.92	3633.10
745.10	3463.12
745.28	3256.27
745.46	3762.12
745.64	3471.31
745.82	3276.75
746.00	3102.67
746.18	3567.56
746.36	3194.83
746.54	3256.27
746.72	3233.74
746.90	3233.74
747.08	3721.16
747.26	3219.41
747.44	3338.19
747.62	3575.75
747.80	3473.36
747.98	3299.28
748.15	3194.83
748.33	3819.46
748.51	3436.49
748.69	3327.95
748.87	3174.35
749.05	3254.22
749.23	3360.72
749.41	3203.02
749.59	3084.24
749.77	3659.72
749.95	3321.81
750.13	3166.16
750.31	3377.10
750.49	3393.48
750.67	3565.51
750.85	3340.24
751.03	3198.93
751.20	3852.23
751.38	3499.98
751.56	3311.57
751.74	3129.30
751.92	3373.00
752.10	3133.39
752.28	3385.29
752.46	3200.98
752.64	3448.78
752.82	3370.96
753.00	3264.46
753.18	3149.78
753.35	3368.91
753.53	3354.57
753.71	3155.92
753.89	3276.75
754.07	3459.02
754.25	3655.62
754.43	3375.05
754.61	3098.58
754.79	3473.36
754.97	3385.29
755.14	3446.73
755.32	3149.78
755.50	3399.63
755.68	3391.44
755.86	3123.15
756.04	3196.88
756.22	3055.57
756.40	3594.19
756.57	3422.16
756.75	3168.21
756.93	3704.78
757.11	3676.10
757.29	3078.10
757.47	3084.24
757.65	3078.10
757.82	2994.13
758.00	3119.06
758.18	3182.54
758.36	3254.22
758.54	3739.59
758.72	3018.71
758.90	3360.72
759.07	3579.85
759.25	3237.84
759.43	3338.19
759.61	3074.00
759.79	4597.69
759.97	3643.34
760.15	3221.45
760.32	3198.93
760.50	3530.70
760.68	3770.31
760.86	3117.01
761.04	3504.07
761.22	3590.09
761.39	3495.88
761.57	3370.96
761.75	3256.27
761.93	3651.53
762.11	3278.80
762.28	3260.37
762.46	3162.06
762.64	3649.48
762.82	3215.31
763.00	3174.35
763.18	3487.69
763.35	3176.40
763.53	3549.13
763.71	3278.80
763.89	3164.11
764.07	3487.69
764.24	3401.68
764.42	3289.04
764.60	3231.69
764.78	3571.66
764.96	3635.14
765.13	3340.24
765.31	3100.62
765.49	3469.26
765.67	3295.18
765.84	3194.83
766.02	3141.58
766.20	3102.67
766.38	3559.37
766.56	3309.52
766.73	3317.71
766.91	3325.90
767.09	3383.24
767.27	3237.84
767.44	3067.86
767.62	3692.49
767.80	3477.45
767.98	3117.01
768.15	3215.31
768.33	3471.31
768.51	3663.82
768.69	3383.24
768.87	3198.93
769.04	3373.00
769.22	3934.15
769.40	3334.09
769.58	3362.76
769.75	3479.50
769.93	3712.97
770.11	3239.89
770.28	3088.34
770.46	3610.57
770.64	3467.21
770.82	3174.35
770.99	3084.24
771.17	3504.07
771.35	3403.72
771.53	3250.13
771.70	3151.82
771.88	3606.47
772.06	3493.83
772.23	3172.30
772.41	3239.89
772.59	3426.25
772.77	3217.36
772.94	3237.84
773.12	3241.93
773.30	3291.09
773.47	3473.36
773.65	3196.88
773.83	3368.91
774.01	3418.06
774.18	3074.00
774.36	3209.17
774.54	3049.43
774.71	3471.31
774.89	3100.62
775.07	3117.01
775.24	3149.78
775.42	3327.95
775.60	3911.62
775.78	3045.33
775.95	3131.34
776.13	3090.38
776.31	3129.30
776.48	3420.11
776.66	3436.49
776.84	3395.53
777.01	3270.61
777.19	3078.10
777.37	3074.00
777.54	3547.08
777.72	3794.89
777.90	3364.81
778.07	3223.50
778.25	4140.99
778.43	3663.82
778.60	3112.91
778.78	3323.85
778.96	3704.78
779.13	3160.02
779.31	3237.84
779.49	3272.65
779.66	3520.46
779.84	3334.09
780.01	3098.58
780.19	3051.47
780.37	3680.20
780.54	3606.47
780.72	3071.95
780.90	3209.17
781.07	3403.72
781.25	3364.81
781.43	3381.20
781.60	3227.60
781.78	3719.11
781.95	3411.92
782.13	3188.69
782.31	3170.26
782.48	3086.29
782.66	3459.02
782.83	3422.16
783.01	3344.33
783.19	3661.77
783.36	3420.11
783.54	3117.01
783.72	3184.59
783.89	3291.09
784.07	3426.25
784.24	3356.62
784.42	3379.15
784.60	3440.59
784.77	3510.22
784.95	2918.36
785.12	3182.54
785.30	3571.66
785.47	3221.45
785.65	3067.86
785.83	3262.41
786.00	3237.84
786.18	3510.22
786.35	3143.63
786.53	3074.00
786.71	3739.59
786.88	3506.12
787.06	3317.71
787.23	3235.79
787.41	3250.13
787.58	3321.81
787.76	3143.63
787.94	3213.26
788.11	3569.61
788.29	3180.50
788.46	3248.08
788.64	2975.70
788.81	3295.18
788.99	3280.85
789.16	3174.35
789.34	3209.17
789.52	3360.72
789.69	3366.86
789.87	3035.09
790.04	3203.02
790.22	3442.64
790.39	3870.66
790.57	3069.91
790.74	3114.96
790.92	3667.91
791.09	2990.03
791.27	3280.85
791.44	3274.70
791.62	3409.87
791.79	3633.10
791.97	3299.28
792.15	3571.66
792.32	3604.42
792.50	3477.45
792.67	3379.15
792.85	3536.84
793.02	3495.88
793.20	3391.44
793.37	3125.20
793.55	3123.15
793.72	3207.12
793.90	3610.57
794.07	3215.31
794.25	3086.29
794.42	3508.17
794.60	3348.43
794.77	3266.51
794.95	3295.18
795.12	3581.90
795.30	3336.14
795.47	2893.78
795.65	3479.50
795.82	3461.07
796.00	3241.93
796.17	3311.57
796.34	3127.25
796.52	3602.38
796.69	3598.28
796.87	3352.52
797.04	3360.72
797.22	3620.81
797.39	3485.64
797.57	3467.21
797.74	3297.23
797.92	3577.80
798.09	3315.66
798.27	3475.40
798.44	3151.82
798.62	3338.19
798.79	3532.75
798.96	3280.85
799.14	3207.12
799.31	4071.36
799.49	3424.20
799.66	3198.93
799.84	3231.69
800.01	3094.48
800.19	3542.99
800.36	2971.60
800.53	3323.85
800.71	3516.36
800.88	3827.65
801.06	3080.14
801.23	3155.92
801.41	3352.52
801.58	3330.00
801.75	3139.54
801.93	3192.78
802.10	3624.90
802.28	3362.76
802.45	3254.22
802.63	3174.35
802.80	3768.26
802.97	3362.76
803.15	3237.84
803.32	3053.52
803.50	3299.28
803.67	3174.35
803.84	3188.69
804.02	3307.47
804.19	3436.49
804.37	2934.74
804.54	3045.33
804.71	3119.06
804.89	3428.30
805.06	3213.26
805.24	3114.96
805.41	3016.66
805.58	3223.50
805.76	4007.87
805.93	3170.26
806.10	3358.67
806.28	3489.74
806.45	3475.40
806.63	3405.77
806.80	3250.13
806.97	3542.99
807.15	3485.64
807.32	3258.32
807.49	3164.11
807.67	3196.88
807.84	3549.13
808.01	3000.27
808.19	3325.90
808.36	3897.28
808.54	3368.91
808.71	3172.30
808.88	3155.92
809.06	3778.50
809.23	3721.16
809.40	3262.41
809.58	3098.58
809.75	3387.34
809.92	3198.93
810.10	3483.59
810.27	3157.97
810.44	3454.92
810.62	3633.10
810.79	3192.78
810.96	3172.30
811.14	3319.76
811.31	3489.74
811.48	3383.24
811.66	3313.61
811.83	3631.05
812.00	3557.32
812.18	3223.50
812.35	3477.45
812.52	3463.12
812.69	3313.61
812.87	3176.40
813.04	3094.48
813.21	3475.40
813.39	3256.27
813.56	3061.71
813.73	3428.30
813.91	3188.69
814.08	3403.72
814.25	3190.74
814.42	3039.19
814.60	3313.61
814.77	3413.96
814.94	3155.92
815.12	3305.42
815.29	3731.40
815.46	3286.99
815.63	3209.17
815.81	3147.73
815.98	3356.62
816.15	3368.91
816.33	3313.61
816.50	3223.50
816.67	3434.44
816.84	3387.34
817.02	3162.06
817.19	3188.69
817.36	3475.40
817.53	3608.52
817.71	3137.49
817.88	3225.55
818.05	3315.66
818.22	3405.77
818.40	3409.87
818.57	3114.96
818.74	3485.64
818.91	3422.16
819.09	3315.66
819.26	3256.27
819.43	3229.65
819.60	3289.04
819.78	3373.00
819.95	3264.46
820.12	3262.41
820.29	3741.64
820.47	3514.31
820.64	3141.58
820.81	3100.62
820.98	3297.23
821.15	3258.32
821.33	3350.48
821.50	3035.09
821.67	3577.80
821.84	3168.21
822.02	3196.88
822.19	3581.90
822.36	3315.66
822.53	3100.62
822.70	3059.67
822.88	3327.95
823.05	3764.17
823.22	3268.56
823.39	3166.16
823.56	3391.44
823.74	3968.96
823.91	3063.76
824.08	3082.19
824.25	3252.17
824.42	3770.31
824.60	3043.28
824.77	3229.65
824.94	3338.19
825.11	3614.66
825.28	3102.67
825.45	3403.72
825.63	3454.92
825.80	3225.55
825.97	3231.69
826.14	3211.22
826.31	3145.68
826.48	3581.90
826.66	3209.17
826.83	3106.77
827.00	3368.91
827.17	3219.41
827.34	3311.57
827.51	3123.15
827.69	3352.52
827.86	3131.34
828.03	3200.98
828.20	3231.69
828.37	3340.24
828.54	3495.88
828.71	3123.15
828.89	3241.93
829.06	3454.92
829.23	3737.54
829.40	3262.41
829.57	3164.11
829.74	3551.18
829.91	3354.57
830.09	3164.11
830.26	3321.81
830.43	3844.04
830.60	3327.95
830.77	3299.28
830.94	3393.48
831.11	3643.34
831.28	3327.95
831.46	3250.13
831.63	3188.69
831.80	3631.05
831.97	3239.89
832.14	3237.84
832.31	3135.44
832.48	3383.24
832.65	3575.75
832.82	3348.43
832.99	3248.08
833.17	3172.30
833.34	3682.25
833.51	3076.05
833.68	2893.78
833.85	3626.95
834.02	3221.45
834.19	3080.14
834.36	3196.88
834.53	3424.20
834.70	3581.90
834.87	3172.30
835.04	2936.79
835.22	3243.98
835.39	3330.00
835.56	2985.94
835.73	3008.47
835.90	3665.86
836.07	3319.76
836.24	3065.81
836.41	3076.05
836.58	3262.41
836.75	3682.25
836.92	3041.23
837.09	2983.89
837.26	3674.06
837.43	3450.83
837.60	3063.76
837.77	3096.53
837.94	3655.62
838.12	3672.01
838.29	2951.12
838.46	3028.95
838.63	3155.92
838.80	3706.82
838.97	3084.24
839.14	2983.89
839.31	3487.69
839.48	3469.26
839.65	3043.28
839.82	3139.54
839.99	3497.93
840.16	3493.83
840.33	2961.36
840.50	3067.86
840.67	3207.12
840.84	2971.60
841.01	2994.13
841.18	3037.14
841.35	3385.29
841.52	3606.47
841.69	3362.76
841.86	3082.19
842.03	3422.16
842.20	3622.86
842.37	3076.05
842.54	3074.00
842.71	3454.92
842.88	3106.77
843.05	2992.08
843.22	3071.95
843.39	3487.69
843.56	3272.65
843.73	2924.50
843.90	3035.09
844.07	3469.26
844.24	3690.44
844.41	3092.43
844.58	3123.15
844.75	3393.48
844.92	3463.12
845.09	3106.77
845.26	2906.07
845.43	3514.31
845.60	3327.95
845.77	3157.97
845.94	3149.78
846.10	3573.71
846.27	3102.67
846.44	2908.12
846.61	2901.97
846.78	3594.19
846.95	3696.58
847.12	2918.36
847.29	3092.43
847.46	3239.89
847.63	3551.18
847.80	2838.48
847.97	3051.47
848.14	3997.64
848.31	3401.68
848.48	2844.63
848.65	2961.36
848.82	3297.23
848.98	3956.68
849.15	3127.25
849.32	3174.35
849.49	3629.00
849.66	3426.25
849.83	2994.13
850.00	2969.55
850.17	3657.67
850.34	3332.05
850.51	2895.83
850.68	3057.62
850.85	3975.11
851.01	3528.65
851.18	2961.36
851.35	3028.95
851.52	3504.07
851.69	3733.45
851.86	2949.08
852.03	2934.74
852.20	3596.23
852.37	3442.64
852.53	2865.11
852.70	2963.41
852.87	3497.93
853.04	3600.33
853.21	3051.47
853.38	3330.00
853.55	3778.50
853.72	3702.73
853.89	2955.22
854.05	3035.09
854.22	3383.24
854.39	3356.62
854.56	2944.98
854.73	3102.67
854.90	3184.59
855.07	3352.52
855.23	2959.31
855.40	2928.60
855.57	3348.43
855.74	3035.09
855.91	3217.36
856.08	2863.06
856.25	3057.62
856.41	3325.90
856.58	2979.79
856.75	3043.28
856.92	3088.34
857.09	3608.52
857.26	2887.64
857.42	3108.82
857.59	3602.38
857.76	3422.16
857.93	2983.89
858.10	3125.20
858.27	3213.26
858.43	3506.12
858.60	3004.37
858.77	2994.13
858.94	3346.38
859.11	3680.20
859.27	3123.15
859.44	2901.97
859.61	3882.95
859.78	3536.84
859.95	3004.37
860.12	3000.27
860.28	3887.04
860.45	3917.76
860.62	2977.75
860.79	3151.82
860.95	3303.37
861.12	3198.93
861.29	2906.07
861.46	3016.66
861.63	3420.11
861.79	3532.75
861.96	2852.82
862.13	3076.05
862.30	3710.92
862.47	3295.18
862.63	2942.93
862.80	3131.34
862.97	3653.58
863.14	3489.74
863.30	3090.38
863.47	2893.78
863.64	3768.26
863.81	3481.55
863.97	2938.84
864.14	3033.04
864.31	3338.19
864.48	3385.29
864.65	2981.84
864.81	3186.64
864.98	3590.09
865.15	3676.10
865.32	3024.85
865.48	3108.82
865.65	3852.23
865.82	3293.13
865.98	3061.71
866.15	3092.43
866.32	3405.77
866.49	3293.13
866.65	3215.31
866.82	3117.01
866.99	3456.97
867.16	3250.13
867.32	2996.18
867.49	2901.97
867.66	3366.86
867.83	3364.81
867.99	2979.79
868.16	3043.28
868.33	3145.68
868.49	3459.02
868.66	3080.14
868.83	3231.69
868.99	3491.79
869.16	3491.79
869.33	3176.40
869.50	3069.91
869.66	3422.16
869.83	3424.20
870.00	2901.97
870.16	3170.26
870.33	3348.43
870.50	3680.20
870.66	3063.76
870.83	3033.04
871.00	3325.90
871.17	3518.41
871.33	3028.95
871.50	2895.83
871.67	3364.81
871.83	3311.57
872.00	3090.38
872.17	3004.37
872.33	3807.17
872.50	3731.40
872.67	2994.13
872.83	3018.71
873.00	3573.71
873.17	3377.10
873.33	3047.38
873.50	3092.43
873.67	3350.48
873.83	3229.65
874.00	3033.04
874.16	3215.31
874.33	3432.40
874.50	3168.21
874.66	2926.55
874.83	3135.44
875.00	3766.21
875.16	3663.82
875.33	3147.73
875.50	2764.76
875.66	3334.09
875.83	3438.54
875.99	3110.86
876.16	3180.50
876.33	3221.45
876.49	3323.85
876.66	3074.00
876.83	3051.47
876.99	3098.58
877.16	3311.57
877.32	2971.60
877.49	3098.58
877.66	3559.37
877.82	3825.61
877.99	3137.49
878.15	3346.38
878.32	3536.84
878.49	3422.16
878.65	3074.00
878.82	3266.51
878.98	3270.61
879.15	3585.99
879.32	3209.17
879.48	3248.08
879.65	3456.97
879.81	3442.64
879.98	3014.61
880.15	3108.82
880.31	3512.27
880.48	3241.93
880.64	3114.96
880.81	3192.78
880.97	3743.69
881.14	3741.64
881.31	2942.93
881.47	3229.65
881.64	3360.72
881.80	3168.21
881.97	3160.02
882.13	3049.43
882.30	3203.02
882.47	3286.99
882.63	3045.33
882.80	3067.86
882.96	3354.57
883.13	3614.66
883.29	3045.33
883.46	3065.81
883.62	3946.44
883.79	3411.92
883.95	3166.16
884.12	2977.75
884.29	3604.42
884.45	3442.64
884.62	2947.03
884.78	2979.79
884.95	3835.85
885.11	3254.22
885.28	3137.49
885.44	3078.10
885.61	3614.66
885.77	3704.78
885.94	3235.79
886.10	3016.66
886.27	3452.88
886.43	3837.89
886.60	3272.65
886.76	3049.43
886.93	3270.61
887.09	3428.30
887.26	2916.31
887.42	3168.21
887.59	3706.82
887.75	3958.72
887.92	3254.22
888.08	3213.26
888.25	3778.50
888.41	3741.64
888.58	3098.58
888.74	2912.21
888.91	3303.37
>>>>>End Processed Spectral Data<<<<<
