SpectraSuite Data File
++++++++++++++++++++++++++++++++++++
Date: Fri May 06 09:29:06 CEST 2016
User: root
Dark Spectrum Present: No
Reference Spectrum Present: No
Number of Sampled Component Spectra: 1
Spectrometers: USB4C02835
Integration Time (usec): 100000 (USB4C02835)
Spectra Averaged: 1 (USB4C02835)
Boxcar Smoothing: 0 (USB4C02835)
Correct for Electrical Dark: No (USB4C02835)
Strobe/Lamp Enabled: No (USB4C02835)
Correct for Detector Non-linearity: No (USB4C02835)
Correct for Stray Light: No (USB4C02835)
Number of Pixels in Processed Spectrum: 3648
>>>>>Begin Processed Spectral Data<<<<<
177.47	2328.54
177.69	2328.54
177.91	2328.54
178.13	2287.58
178.36	2279.39
178.58	3137.49
178.80	3223.50
179.02	3184.59
179.24	3280.85
179.46	2871.25
179.68	2811.86
179.90	3375.05
180.13	3436.49
180.35	2777.05
180.57	2824.15
180.79	3624.90
181.01	3403.72
181.23	2996.18
181.45	3084.24
181.67	3663.82
181.90	3633.10
182.12	3000.27
182.34	2801.62
182.56	3516.36
182.78	3493.83
183.00	2936.79
183.22	2961.36
183.44	3024.85
183.66	4134.85
183.89	3098.58
184.11	2959.31
184.33	3624.90
184.55	3715.02
184.77	2910.16
184.99	2942.93
185.21	3354.57
185.43	4022.21
185.65	2957.27
185.87	2967.51
186.10	3993.54
186.32	4102.08
186.54	3200.98
186.76	3133.39
186.98	3618.76
187.20	3340.24
187.42	2981.84
187.64	2934.74
187.86	3518.41
188.08	3721.16
188.30	2840.53
188.52	3024.85
188.75	3778.50
188.97	3733.45
189.19	2893.78
189.41	2947.03
189.63	3563.47
189.85	3377.10
190.07	2865.11
190.29	2795.48
190.51	3528.65
190.73	3164.11
190.95	3213.26
191.17	2994.13
191.39	3137.49
191.61	3366.86
191.84	2947.03
192.06	3147.73
192.28	3160.02
192.50	4253.63
192.72	3149.78
192.94	3086.29
193.16	3659.72
193.38	3635.14
193.60	2910.16
193.82	3114.96
194.04	3653.58
194.26	3510.22
194.48	3000.27
194.70	2994.13
194.92	3393.48
195.14	3669.96
195.36	2924.50
195.58	3088.34
195.80	3483.59
196.02	3311.57
196.24	2928.60
196.46	2998.23
196.69	3319.76
196.91	3966.92
197.13	3151.82
197.35	3002.32
197.57	3831.75
197.79	3624.90
198.01	3018.71
198.23	2967.51
198.45	3626.95
198.67	3166.16
198.89	2803.67
199.11	3100.62
199.33	3321.81
199.55	3020.75
199.77	2885.59
199.99	3112.91
200.21	3426.25
200.43	3614.66
200.65	2848.72
200.87	2818.00
201.09	3446.73
201.31	3368.91
201.53	2996.18
201.75	3078.10
201.97	3512.27
202.19	3426.25
202.41	3117.01
202.63	3033.04
202.85	3577.80
203.07	3516.36
203.29	3090.38
203.51	2877.40
203.73	3309.52
203.95	4034.50
204.17	2957.27
204.39	3102.67
204.61	3471.31
204.83	3254.22
205.05	3069.91
205.27	3000.27
205.49	4120.51
205.71	3416.01
205.93	2873.30
206.15	2852.82
206.37	3454.92
206.59	3440.59
206.81	2719.70
207.03	2869.20
207.25	3225.55
207.47	3540.94
207.69	2983.89
207.91	3168.21
208.13	3760.07
208.34	3354.57
208.56	2936.79
208.78	2973.65
209.00	3336.14
209.22	3352.52
209.44	3037.14
209.66	2904.02
209.88	3581.90
210.10	3362.76
210.32	2901.97
210.54	3045.33
210.76	3405.77
210.98	3567.56
211.20	2803.67
211.42	3063.76
211.64	3649.48
211.86	3569.61
212.08	3061.71
212.30	2994.13
212.52	3280.85
212.74	3577.80
212.96	3045.33
213.17	3043.28
213.39	3606.47
213.61	3823.56
213.83	2883.54
214.05	2869.20
214.27	3788.74
214.49	3141.58
214.71	2885.59
214.93	3078.10
215.15	3399.63
215.37	3622.86
215.59	2789.33
215.81	3057.62
216.03	3745.73
216.24	3461.07
216.46	2944.98
216.68	2979.79
216.90	3659.72
217.12	3629.00
217.34	2916.31
217.56	3213.26
217.78	3729.35
218.00	3661.77
218.22	3033.04
218.44	3114.96
218.66	3473.36
218.87	3868.61
219.09	2994.13
219.31	2971.60
219.53	3557.32
219.75	3454.92
219.97	3041.23
220.19	3059.67
220.41	3373.00
220.63	3860.42
220.85	2934.74
221.06	2998.23
221.28	3729.35
221.50	3633.10
221.72	3020.75
221.94	2820.05
222.16	3502.03
222.38	3651.53
222.60	3049.43
222.82	3002.32
223.03	3649.48
223.25	3196.88
223.47	2961.36
223.69	3198.93
223.91	3561.42
224.13	3504.07
224.35	2850.77
224.57	3172.30
224.78	3762.12
225.00	3266.51
225.22	3041.23
225.44	2838.48
225.66	3649.48
225.88	3413.96
226.10	3045.33
226.32	2979.79
226.53	3780.55
226.75	3416.01
226.97	3104.72
227.19	3035.09
227.41	3297.23
227.63	3399.63
227.85	2748.37
228.06	3076.05
228.28	3422.16
228.50	3618.76
228.72	2764.76
228.94	2865.11
229.16	3078.10
229.37	3225.55
229.59	2877.40
229.81	3225.55
230.03	3377.10
230.25	3176.40
230.47	2729.94
230.69	3010.51
230.90	3655.62
231.12	3284.94
231.34	3004.37
231.56	3057.62
231.78	3160.02
232.00	3418.06
232.21	3024.85
232.43	2979.79
232.65	2996.18
232.87	3549.13
233.09	2813.91
233.30	2938.84
233.52	3608.52
233.74	3352.52
233.96	2947.03
234.18	3217.36
234.40	3473.36
234.61	4018.11
234.83	2899.92
235.05	2887.64
235.27	4044.74
235.49	3809.22
235.70	2824.15
235.92	2928.60
236.14	3495.88
236.36	4069.31
236.58	2795.48
236.79	3033.04
237.01	3504.07
237.23	3452.88
237.45	3182.54
237.67	3024.85
237.88	3569.61
238.10	3878.85
238.32	2871.25
238.54	2926.55
238.76	3502.03
238.97	3303.37
239.19	2775.00
239.41	3086.29
239.63	3772.36
239.85	3334.09
240.06	2949.08
240.28	2957.27
240.50	3674.06
240.72	3422.16
240.93	2863.06
241.15	3086.29
241.37	3461.07
241.59	3737.54
241.81	2983.89
242.02	3082.19
242.24	3555.27
242.46	3688.39
242.68	2861.01
242.89	2844.63
243.11	3688.39
243.33	3403.72
243.55	2924.50
243.76	3014.61
243.98	3258.32
244.20	3348.43
244.42	2983.89
244.64	2916.31
244.85	3119.06
245.07	3241.93
245.29	2869.20
245.51	3000.27
245.72	3563.47
245.94	3620.81
246.16	2961.36
246.38	3045.33
246.59	3303.37
246.81	3217.36
247.03	2836.44
247.24	2846.68
247.46	3266.51
247.68	3499.98
247.90	2926.55
248.11	2975.70
248.33	3606.47
248.55	3399.63
248.77	3051.47
248.98	3114.96
249.20	3801.03
249.42	3549.13
249.64	2936.79
249.85	2842.58
250.07	3289.04
250.29	3565.51
250.50	3016.66
250.72	2897.88
250.94	3561.42
251.16	4007.87
251.37	2957.27
251.59	3014.61
251.81	3549.13
252.02	3788.74
252.24	2854.87
252.46	3084.24
252.68	3299.28
252.89	3364.81
253.11	2801.62
253.33	3141.58
253.54	3846.09
253.76	3182.54
253.98	3004.37
254.20	2901.97
254.41	3200.98
254.63	3524.55
254.85	2805.72
255.06	3055.57
255.28	3569.61
255.50	3401.68
255.71	2897.88
255.93	2793.43
256.15	3340.24
256.36	3585.99
256.58	2764.76
256.80	2865.11
257.02	3413.96
257.23	3395.53
257.45	3037.14
257.67	3106.77
257.88	3293.13
258.10	3631.05
258.32	2992.08
258.53	3047.38
258.75	3788.74
258.97	3266.51
259.18	2811.86
259.40	2893.78
259.62	3850.18
259.83	3778.50
260.05	3008.47
260.27	3880.90
260.48	3624.90
260.70	3260.37
260.92	2820.05
261.13	3026.90
261.35	3512.27
261.57	3602.38
261.78	2824.15
262.00	2949.08
262.22	3614.66
262.43	3340.24
262.65	2969.55
262.86	3016.66
263.08	4071.36
263.30	3534.79
263.51	2834.39
263.73	2940.88
263.95	3858.37
264.16	3243.98
264.38	2850.77
264.60	2861.01
264.81	3358.67
265.03	3618.76
265.25	3409.87
265.46	2854.87
265.68	3680.20
265.89	3626.95
266.11	2742.23
266.33	2996.18
266.54	3708.87
266.76	3598.28
266.98	3074.00
267.19	3155.92
267.41	3616.71
267.62	3348.43
267.84	2717.65
268.06	3182.54
268.27	3557.32
268.49	3698.63
268.70	3010.51
268.92	3088.34
269.14	3237.84
269.35	3211.22
269.57	3110.86
269.79	3041.23
270.00	3254.22
270.22	3823.56
270.43	2861.01
270.65	2836.44
270.87	3549.13
271.08	3596.23
271.30	3010.51
271.51	2959.31
271.73	3475.40
271.95	3825.61
272.16	2897.88
272.38	3098.58
272.59	3358.67
272.81	3481.55
273.02	2807.77
273.24	3018.71
273.46	3674.06
273.67	3237.84
273.89	2822.10
274.10	2891.73
274.32	3719.11
274.54	3452.88
274.75	3094.48
274.97	3157.97
275.18	3600.33
275.40	3508.17
275.61	2965.46
275.83	3168.21
276.05	3258.32
276.26	3524.55
276.48	3094.48
276.69	3121.10
276.91	3315.66
277.12	3870.66
277.34	3131.34
277.55	3225.55
277.77	3436.49
277.99	3409.87
278.20	3090.38
278.42	2967.51
278.63	3284.94
278.85	3190.74
279.06	3057.62
279.28	3198.93
279.49	3667.91
279.71	3577.80
279.93	3160.02
280.14	3190.74
280.36	3213.26
280.57	3633.10
280.79	3114.96
281.00	2926.55
281.22	3262.41
281.43	3694.54
281.65	2918.36
281.86	2975.70
282.08	3559.37
282.29	3911.62
282.51	2983.89
282.73	2955.22
282.94	3174.35
283.16	3661.77
283.37	3157.97
283.59	3094.48
283.80	3655.62
284.02	3407.82
284.23	3110.86
284.45	3088.34
284.66	3325.90
284.88	3280.85
285.09	2938.84
285.31	3176.40
285.52	3602.38
285.74	3082.19
285.95	3264.46
286.17	3182.54
286.38	3698.63
286.60	3319.76
286.81	2959.31
287.03	3033.04
287.24	3504.07
287.46	3561.42
287.67	3250.13
287.89	3231.69
288.10	3377.10
288.32	3477.45
288.53	3219.41
288.75	3182.54
288.96	3553.23
289.18	3231.69
289.39	3000.27
289.61	3213.26
289.82	3981.25
290.04	3925.96
290.25	3008.47
290.47	3223.50
290.68	3356.62
290.90	3676.10
291.11	2899.92
291.33	3278.80
291.54	3299.28
291.76	3280.85
291.97	3258.32
292.18	3184.59
292.40	3342.28
292.61	3340.24
292.83	3350.48
293.04	3082.19
293.26	3459.02
293.47	3323.85
293.69	3022.80
293.90	3008.47
294.12	3762.12
294.33	3514.31
294.55	3114.96
294.76	3307.47
294.97	3811.27
295.19	3868.61
295.40	3090.38
295.62	3180.50
295.83	3631.05
296.05	3256.27
296.26	3315.66
296.48	3121.10
296.69	3446.73
296.90	3383.24
297.12	3268.56
297.33	3250.13
297.55	3514.31
297.76	3526.60
297.98	3141.58
298.19	3278.80
298.41	3409.87
298.62	3264.46
298.83	3295.18
299.05	3143.63
299.26	3358.67
299.48	3248.08
299.69	3155.92
299.90	3037.14
300.12	3211.22
300.33	3633.10
300.55	3166.16
300.76	3174.35
300.98	3190.74
301.19	3610.57
301.40	3082.19
301.62	3100.62
301.83	3493.83
302.05	3440.59
302.26	3043.28
302.47	3239.89
302.69	3241.93
302.90	3485.64
303.12	3022.80
303.33	3176.40
303.54	3880.90
303.76	3266.51
303.97	3063.76
304.19	3346.38
304.40	3213.26
304.61	3585.99
304.83	3286.99
305.04	3235.79
305.26	3598.28
305.47	3246.03
305.68	3139.54
305.90	3051.47
306.11	3715.02
306.33	3395.53
306.54	2959.31
306.75	3121.10
306.97	3127.25
307.18	3235.79
307.39	3071.95
307.61	3160.02
307.82	3481.55
308.04	3516.36
308.25	2963.41
308.46	3284.94
308.68	3510.22
308.89	3426.25
309.10	3147.73
309.32	3131.34
309.53	3448.78
309.74	3573.71
309.96	3069.91
310.17	3147.73
310.39	3346.38
310.60	3606.47
310.81	3112.91
311.03	2992.08
311.24	3690.44
311.45	3389.39
311.67	3364.81
311.88	3184.59
312.09	3368.91
312.31	3315.66
312.52	3014.61
312.73	3033.04
312.95	3205.07
313.16	3256.27
313.37	3190.74
313.59	3317.71
313.80	3594.19
314.01	3737.54
314.23	3215.31
314.44	3024.85
314.65	3123.15
314.87	3278.80
315.08	3078.10
315.29	3135.44
315.51	3264.46
315.72	3104.72
315.93	3180.50
316.15	3129.30
316.36	3360.72
316.57	3499.98
316.79	3104.72
317.00	3012.56
317.21	3581.90
317.43	3315.66
317.64	3098.58
317.85	3014.61
318.07	3233.74
318.28	3297.23
318.49	3215.31
318.70	3303.37
318.92	3518.41
319.13	3516.36
319.34	3209.17
319.56	3141.58
319.77	3532.75
319.98	3575.75
320.20	3319.76
320.41	3225.55
320.62	3495.88
320.83	3223.50
321.05	3315.66
321.26	3172.30
321.47	3483.59
321.69	3669.96
321.90	2955.22
322.11	3129.30
322.32	3514.31
322.54	3864.52
322.75	3121.10
322.96	4255.68
323.18	3106.77
323.39	3010.51
323.60	3047.38
323.81	3200.98
324.03	3205.07
324.24	3493.83
324.45	3237.84
324.66	3045.33
324.88	3667.91
325.09	3803.08
325.30	3098.58
325.52	3024.85
325.73	3502.03
325.94	3274.70
326.15	3018.71
326.37	2977.75
326.58	3684.30
326.79	3844.04
327.00	3084.24
327.22	3059.67
327.43	3420.11
327.64	3166.16
327.85	3348.43
328.07	3098.58
328.28	3854.28
328.49	3387.34
328.70	3139.54
328.92	3082.19
329.13	3418.06
329.34	3569.61
329.55	3350.48
329.76	3227.60
329.98	3379.15
330.19	3688.39
330.40	3182.54
330.61	3174.35
330.83	3622.86
331.04	3293.13
331.25	3209.17
331.46	3174.35
331.68	3219.41
331.89	3672.01
332.10	3121.10
332.31	3033.04
332.52	3424.20
332.74	3665.86
332.95	2887.64
333.16	3102.67
333.37	3583.95
333.58	3397.58
333.80	3041.23
334.01	2963.41
334.22	3395.53
334.43	3344.33
334.64	2981.84
334.86	3133.39
335.07	3286.99
335.28	3833.80
335.49	2987.99
335.70	3215.31
335.92	3747.78
336.13	3901.38
336.34	3112.91
336.55	3051.47
336.76	3569.61
336.98	2963.41
337.19	3123.15
337.40	3198.93
337.61	3991.49
337.82	3338.19
338.04	3147.73
338.25	2961.36
338.46	3459.02
338.67	3418.06
338.88	2949.08
339.09	3037.14
339.31	3459.02
339.52	3178.45
339.73	2987.99
339.94	3180.50
340.15	3624.90
340.36	3323.85
340.58	3186.64
340.79	2990.03
341.00	3581.90
341.21	3153.87
341.42	3377.10
341.63	3151.82
341.85	3565.51
342.06	3479.50
342.27	3074.00
342.48	3203.02
342.69	3147.73
342.90	3588.04
343.12	3489.74
343.33	3004.37
343.54	3659.72
343.75	3688.39
343.96	3172.30
344.17	2963.41
344.38	3407.82
344.60	3229.65
344.81	3008.47
345.02	3033.04
345.23	3663.82
345.44	4016.07
345.65	3186.64
345.86	3223.50
346.07	3479.50
346.29	3323.85
346.50	3237.84
346.71	3188.69
346.92	3721.16
347.13	3860.42
347.34	3182.54
347.55	2914.26
347.76	3479.50
347.98	3153.87
348.19	3198.93
348.40	3297.23
348.61	3330.00
348.82	3841.99
349.03	3215.31
349.24	3041.23
349.45	3901.38
349.66	3059.67
349.88	3090.38
350.09	3008.47
350.30	3794.89
350.51	3723.21
350.72	3301.33
350.93	3141.58
351.14	3381.20
351.35	3549.13
351.56	3123.15
351.77	3205.07
351.99	3436.49
352.20	3751.88
352.41	3233.74
352.62	2918.36
352.83	3434.44
353.04	3434.44
353.25	3123.15
353.46	3104.72
353.67	3678.15
353.88	2979.79
354.09	2934.74
354.30	3147.73
354.52	3594.19
354.73	3442.64
354.94	3094.48
355.15	3157.97
355.36	3915.72
355.57	3340.24
355.78	3010.51
355.99	3119.06
356.20	3289.04
356.41	3749.83
356.62	3190.74
356.83	3162.06
357.04	3784.65
357.25	3078.10
357.46	3131.34
357.68	2985.94
357.89	3262.41
358.10	3459.02
358.31	2996.18
358.52	3090.38
358.73	3211.22
358.94	3231.69
359.15	3102.67
359.36	3098.58
359.57	3422.16
359.78	3270.61
359.99	3356.62
360.20	3004.37
360.41	3336.14
360.62	3620.81
360.83	3237.84
361.04	3174.35
361.25	3565.51
361.46	3807.17
361.67	3151.82
361.88	3092.43
362.09	3592.14
362.30	3588.04
362.51	3051.47
362.72	3209.17
362.93	3633.10
363.14	3524.55
363.35	3207.12
363.56	3024.85
363.78	3682.25
363.99	3629.00
364.20	3092.43
364.41	3160.02
364.62	3905.48
364.83	3504.07
365.04	3098.58
365.25	3233.74
365.46	3891.14
365.67	3350.48
365.88	3307.47
366.09	3018.71
366.30	3330.00
366.51	3399.63
366.72	3028.95
366.93	3065.81
367.14	3469.26
367.35	3770.31
367.56	3067.86
367.77	3241.93
367.98	3516.36
368.18	3557.32
368.39	3143.63
368.60	3057.62
368.81	3635.14
369.02	3534.79
369.23	3104.72
369.44	2947.03
369.65	3485.64
369.86	3585.99
370.07	3174.35
370.28	3051.47
370.49	3528.65
370.70	3590.09
370.91	3045.33
371.12	2992.08
371.33	3655.62
371.54	3315.66
371.75	3198.93
371.96	2875.35
372.17	3463.12
372.38	3377.10
372.59	3119.06
372.80	3018.71
373.01	3416.01
373.22	3436.49
373.43	3074.00
373.64	2936.79
373.85	3815.37
374.06	3817.41
374.26	3307.47
374.47	3229.65
374.68	3801.03
374.89	3524.55
375.10	3067.86
375.31	3160.02
375.52	3530.70
375.73	3547.08
375.94	2899.92
376.15	3217.36
376.36	3274.70
376.57	3403.72
376.78	3110.86
376.99	3180.50
377.20	3768.26
377.40	3280.85
377.61	3395.53
377.82	3147.73
378.03	3844.04
378.24	3559.37
378.45	3168.21
378.66	3151.82
378.87	3117.01
379.08	3143.63
379.29	3094.48
379.50	3200.98
379.71	3397.58
379.91	3549.13
380.12	3055.57
380.33	3180.50
380.54	3364.81
380.75	3434.44
380.96	3092.43
381.17	3143.63
381.38	3405.77
381.59	3422.16
381.80	3215.31
382.00	3289.04
382.21	3430.35
382.42	3901.38
382.63	3446.73
382.84	3280.85
383.05	3563.47
383.26	3698.63
383.47	3309.52
383.68	3071.95
383.88	3641.29
384.09	3475.40
384.30	3385.29
384.51	3227.60
384.72	3360.72
384.93	3117.01
385.14	3213.26
385.35	3493.83
385.55	3157.97
385.76	3784.65
385.97	3190.74
386.18	2963.41
386.39	3293.13
386.60	3266.51
386.81	3092.43
387.02	3043.28
387.22	3176.40
387.43	3592.14
387.64	3272.65
387.85	3319.76
388.06	3401.68
388.27	4380.61
388.48	7151.51
388.68	10714.97
388.89	13309.75
389.10	14620.45
389.31	14243.62
389.52	11464.53
389.73	10073.96
389.93	9336.69
390.14	8445.82
390.35	7919.50
390.56	7407.50
390.77	6229.92
390.98	4679.61
391.18	4095.94
391.39	3934.15
391.60	3475.40
391.81	3401.68
392.02	3108.82
392.23	3983.30
392.43	3502.03
392.64	3272.65
392.85	3239.89
393.06	3770.31
393.27	3471.31
393.47	3203.02
393.68	3229.65
393.89	3395.53
394.10	3715.02
394.31	3180.50
394.52	3100.62
394.72	3393.48
394.93	3743.69
395.14	3022.80
395.35	3246.03
395.56	3272.65
395.76	3395.53
395.97	3096.53
396.18	3268.56
396.39	3387.34
396.60	4157.38
396.80	3516.36
397.01	3489.74
397.22	3626.95
397.43	3706.82
397.64	3174.35
397.84	3262.41
398.05	3819.46
398.26	3416.01
398.47	3246.03
398.67	3352.52
398.88	3459.02
399.09	3608.52
399.30	3119.06
399.51	3188.69
399.71	3235.79
399.92	3432.40
400.13	3262.41
400.34	3198.93
400.54	3461.07
400.75	3821.51
400.96	3256.27
401.17	3456.97
401.37	3555.27
401.58	3438.54
401.79	3065.81
402.00	3180.50
402.21	3944.39
402.41	3600.33
402.62	3319.76
402.83	3469.26
403.04	3794.89
403.24	4212.67
403.45	3256.27
403.66	3405.77
403.87	3643.34
404.07	3737.54
404.28	3405.77
404.49	3420.11
404.70	3547.08
404.90	3608.52
405.11	3157.97
405.32	3250.13
405.52	3348.43
405.73	3266.51
405.94	3065.81
406.15	3272.65
406.35	3557.32
406.56	3692.49
406.77	3172.30
406.98	3139.54
407.18	3256.27
407.39	3813.32
407.60	3178.45
407.80	3262.41
408.01	3330.00
408.22	3565.51
408.43	3035.09
408.63	3246.03
408.84	3661.77
409.05	3635.14
409.25	3104.72
409.46	3227.60
409.67	3434.44
409.88	3321.81
410.08	3192.78
410.29	3139.54
410.50	3688.39
410.70	3557.32
410.91	3053.52
411.12	3250.13
411.32	3473.36
411.53	3215.31
411.74	3117.01
411.95	3264.46
412.15	3467.21
412.36	3639.24
412.57	3270.61
412.77	3405.77
412.98	3413.96
413.19	3397.58
413.39	3176.40
413.60	3198.93
413.81	3758.02
414.01	3227.60
414.22	3205.07
414.43	3375.05
414.63	3346.38
414.84	3620.81
415.05	3139.54
415.25	2969.55
415.46	3641.29
415.67	3340.24
415.87	3153.87
416.08	3180.50
416.29	3422.16
416.49	3583.95
416.70	3221.45
416.91	3061.71
417.11	3446.73
417.32	3700.68
417.53	3256.27
417.73	3254.22
417.94	3438.54
418.15	3454.92
418.35	3229.65
418.56	3213.26
418.77	3899.33
418.97	3397.58
419.18	3377.10
419.38	2840.53
419.59	3356.62
419.80	3708.87
420.00	3074.00
420.21	3176.40
420.42	3723.21
420.62	3461.07
420.83	3172.30
421.04	3223.50
421.24	3342.28
421.45	3667.91
421.65	3139.54
421.86	3176.40
422.07	3717.06
422.27	3526.60
422.48	3047.38
422.69	2961.36
422.89	3413.96
423.10	3344.33
423.30	3114.96
423.51	3264.46
423.72	3549.13
423.92	3596.23
424.13	3043.28
424.33	3256.27
424.54	3592.14
424.75	3499.98
424.95	3442.64
425.16	3049.43
425.36	3430.35
425.57	3641.29
425.78	3370.96
425.98	3221.45
426.19	3426.25
426.39	3286.99
426.60	3250.13
426.81	3383.24
427.01	3551.18
427.22	3266.51
427.42	3030.99
427.63	3151.82
427.83	3715.02
428.04	3790.79
428.25	3139.54
428.45	3248.08
428.66	3676.10
428.86	3436.49
429.07	3229.65
429.28	3125.20
429.48	3395.53
429.69	3272.65
429.89	3258.32
430.10	3108.82
430.30	3633.10
430.51	3538.89
430.71	3119.06
430.92	3225.55
431.13	3348.43
431.33	3508.17
431.54	3282.89
431.74	3356.62
431.95	3944.39
432.15	3258.32
432.36	3123.15
432.56	3200.98
432.77	3878.85
432.98	3796.93
433.18	3270.61
433.39	3033.04
433.59	3434.44
433.80	3987.40
434.00	3297.23
434.21	3207.12
434.41	3295.18
434.62	3985.35
434.82	3016.66
435.03	3117.01
435.23	3565.51
435.44	3076.05
435.64	3086.29
435.85	3174.35
436.06	3450.83
436.26	3551.18
436.47	3104.72
436.67	3071.95
436.88	3446.73
437.08	3712.97
437.29	3215.31
437.49	3375.05
437.70	3631.05
437.90	3475.40
438.11	3385.29
438.31	3241.93
438.52	3737.54
438.72	3674.06
438.93	3459.02
439.13	3262.41
439.34	3536.84
439.54	3391.44
439.75	3309.52
439.95	3270.61
440.16	3196.88
440.36	3336.14
440.57	3131.34
440.77	3098.58
440.98	3479.50
441.18	3567.56
441.39	2969.55
441.59	3030.99
441.80	3891.14
442.00	3452.88
442.21	3286.99
442.41	2971.60
442.62	3694.54
442.82	3256.27
443.02	3102.67
443.23	3198.93
443.43	3430.35
443.64	3745.73
443.84	3059.67
444.05	3286.99
444.25	3491.79
444.46	3336.14
444.66	3096.53
444.87	3403.72
445.07	3149.78
445.28	3301.33
445.48	3381.20
445.69	3198.93
445.89	4007.87
446.09	3426.25
446.30	3391.44
446.50	3485.64
446.71	4988.85
446.91	6072.23
447.12	6786.97
447.32	7194.51
447.53	7182.23
447.73	6131.62
447.93	5250.99
448.14	5210.03
448.34	5402.54
448.55	4550.59
448.75	4411.32
448.96	4132.80
449.16	4073.41
449.36	4016.07
449.57	3379.15
449.77	3174.35
449.98	3332.05
450.18	3559.37
450.39	3135.44
450.59	3319.76
450.79	3491.79
451.00	3280.85
451.20	3375.05
451.41	3203.02
451.61	3506.12
451.81	3409.87
452.02	3086.29
452.22	3164.11
452.43	3352.52
452.63	3270.61
452.84	3262.41
453.04	3074.00
453.24	3512.27
453.45	3284.94
453.65	3217.36
453.86	3196.88
454.06	3467.21
454.26	3424.20
454.47	3084.24
454.67	3258.32
454.87	3504.07
455.08	3432.40
455.28	3264.46
455.49	3411.92
455.69	3254.22
455.89	3921.86
456.10	3342.28
456.30	3047.38
456.51	3661.77
456.71	3473.36
456.91	3299.28
457.12	3160.02
457.32	3602.38
457.52	3268.56
457.73	3393.48
457.93	3340.24
458.14	3278.80
458.34	3045.33
458.54	3135.44
458.75	3057.62
458.95	3585.99
459.15	3436.49
459.36	3317.71
459.56	3157.97
459.76	3975.11
459.97	3491.79
460.17	3200.98
460.37	3291.09
460.58	3434.44
460.78	3596.23
460.99	3207.12
461.19	3196.88
461.39	3317.71
461.60	3434.44
461.80	3237.84
462.00	3102.67
462.21	3325.90
462.41	3317.71
462.61	2996.18
462.82	2990.03
463.02	3540.94
463.22	3508.17
463.43	3221.45
463.63	3061.71
463.83	3751.88
464.04	3526.60
464.24	3106.77
464.44	3170.26
464.64	3504.07
464.85	3655.62
465.05	3166.16
465.25	3028.95
465.46	3272.65
465.66	3614.66
465.86	3172.30
466.07	3164.11
466.27	3461.07
466.47	3110.86
466.68	3039.19
466.88	3289.04
467.08	3608.52
467.29	3764.17
467.49	3127.25
467.69	3379.15
467.89	3608.52
468.10	3422.16
468.30	3184.59
468.50	3237.84
468.71	3610.57
468.91	3121.10
469.11	3348.43
469.31	3252.17
469.52	3272.65
469.72	3860.42
469.92	3409.87
470.13	3180.50
470.33	3436.49
470.53	3499.98
470.73	3545.03
470.94	3870.66
471.14	3948.48
471.34	4626.36
471.54	4100.03
471.75	3915.72
471.95	3768.26
472.15	3803.08
472.36	3682.25
472.56	3516.36
472.76	3835.85
472.96	3790.79
473.17	3375.05
473.37	3229.65
473.57	3428.30
473.77	3606.47
473.98	3362.76
474.18	3020.75
474.38	4235.20
474.58	3305.42
474.79	3016.66
474.99	3270.61
475.19	3796.93
475.39	3239.89
475.60	3264.46
475.80	3106.77
476.00	3479.50
476.20	3377.10
476.41	3203.02
476.61	3174.35
476.81	3831.75
477.01	3270.61
477.21	3459.02
477.42	3239.89
477.62	3332.05
477.82	3594.19
478.02	3082.19
478.23	3157.97
478.43	3286.99
478.63	3309.52
478.83	3198.93
479.03	3293.13
479.24	3682.25
479.44	3915.72
479.64	3082.19
479.84	3002.32
480.04	3235.79
480.25	3600.33
480.45	3160.02
480.65	3196.88
480.85	3829.70
481.06	3289.04
481.26	3334.09
481.46	3108.82
481.66	3557.32
481.86	3274.70
482.06	3336.14
482.27	3233.74
482.47	3377.10
482.67	3534.79
482.87	3127.25
483.07	3221.45
483.28	3319.76
483.48	3188.69
483.68	3198.93
483.88	3102.67
484.08	2979.79
484.29	3157.97
484.49	3280.85
484.69	3006.42
484.89	3764.17
485.09	3680.20
485.29	3147.73
485.50	3436.49
485.70	3233.74
485.90	3682.25
486.10	3311.57
486.30	3200.98
486.50	3717.06
486.71	3491.79
486.91	3106.77
487.11	3233.74
487.31	3084.24
487.51	3475.40
487.71	3133.39
487.91	3078.10
488.12	3280.85
488.32	2914.26
488.52	3213.26
488.72	2899.92
488.92	3477.45
489.12	3649.48
489.32	3282.89
489.53	3178.45
489.73	3155.92
489.93	3837.89
490.13	3209.17
490.33	3043.28
490.53	3426.25
490.73	3721.16
490.94	3108.82
491.14	3307.47
491.34	3545.03
491.54	3522.51
491.74	3940.29
491.94	4409.28
492.14	5052.34
492.34	5179.31
492.54	4702.14
492.75	4059.07
492.95	4491.20
493.15	4036.55
493.35	3862.47
493.55	3821.51
493.75	3790.79
493.95	4034.50
494.15	3413.96
494.35	3217.36
494.56	3475.40
494.76	3348.43
494.96	3262.41
495.16	3053.52
495.36	3393.48
495.56	3561.42
495.76	3274.70
495.96	3043.28
496.16	3295.18
496.36	3852.23
496.56	3057.62
496.77	3227.60
496.97	3469.26
497.17	3780.55
497.37	2994.13
497.57	3330.00
497.77	3526.60
497.97	3295.18
498.17	3250.13
498.37	3164.11
498.57	3655.62
498.77	3297.23
498.97	3332.05
499.17	3518.41
499.38	3459.02
499.58	3432.40
499.78	3311.57
499.98	3270.61
500.18	3358.67
500.38	3229.65
500.58	3436.49
500.78	3772.36
500.98	6000.55
501.18	7782.28
501.38	8945.53
501.58	9934.70
501.78	9772.91
501.98	8355.71
502.18	6987.67
502.38	6088.61
502.58	6248.35
502.78	5410.73
502.98	5183.41
503.18	5015.48
503.38	4761.53
503.59	4128.70
503.79	4089.79
503.99	3704.78
504.19	3956.68
504.39	3991.49
504.59	3532.75
504.79	3495.88
504.99	3942.34
505.19	3721.16
505.39	3463.12
505.59	3516.36
505.79	3860.42
505.99	3643.34
506.19	3243.98
506.39	3338.19
506.59	3321.81
506.79	3389.39
506.99	3364.81
507.19	3088.34
507.39	3553.23
507.59	3145.68
507.79	3160.02
507.99	3155.92
508.19	3340.24
508.39	3299.28
508.59	3250.13
508.79	3289.04
508.99	3913.67
509.19	3219.41
509.39	3266.51
509.59	3112.91
509.79	3344.33
509.99	3434.44
510.19	3346.38
510.39	3299.28
510.59	3461.07
510.79	3373.00
510.99	2910.16
511.19	3067.86
511.39	3831.75
511.59	3663.82
511.79	3291.09
511.99	3127.25
512.19	3891.14
512.38	3389.39
512.58	3057.62
512.78	3059.67
512.98	3741.64
513.18	3770.31
513.38	3168.21
513.58	3237.84
513.78	3350.48
513.98	3315.66
514.18	3172.30
514.38	3180.50
514.58	3487.69
514.78	3350.48
514.98	3065.81
515.18	3205.07
515.38	3221.45
515.58	3850.18
515.78	3180.50
515.98	3164.11
516.18	3606.47
516.38	3471.31
516.57	3155.92
516.77	3098.58
516.97	3645.38
517.17	3270.61
517.37	3024.85
517.57	3133.39
517.77	3495.88
517.97	3215.31
518.17	3207.12
518.37	2979.79
518.57	3196.88
518.77	3411.92
518.97	3168.21
519.16	3180.50
519.36	3639.24
519.56	3284.94
519.76	3037.14
519.96	3217.36
520.16	3766.21
520.36	3186.64
520.56	3340.24
520.76	3084.24
520.96	3262.41
521.16	3661.77
521.35	3354.57
521.55	3258.32
521.75	3350.48
521.95	3299.28
522.15	3114.96
522.35	3008.47
522.55	3270.61
522.75	3626.95
522.95	3094.48
523.14	3010.51
523.34	3499.98
523.54	3356.62
523.74	3286.99
523.94	3239.89
524.14	3221.45
524.34	3559.37
524.54	3444.68
524.73	3160.02
524.93	3577.80
525.13	3348.43
525.33	3135.44
525.53	3364.81
525.73	3594.19
525.93	3475.40
526.13	3119.06
526.32	3065.81
526.52	3710.92
526.72	3663.82
526.92	3266.51
527.12	3071.95
527.32	3139.54
527.52	3534.79
527.71	3305.42
527.91	3166.16
528.11	3317.71
528.31	3454.92
528.51	3123.15
528.71	3272.65
528.90	3598.28
529.10	3680.20
529.30	3186.64
529.50	2920.40
529.70	3426.25
529.90	3344.33
530.09	3094.48
530.29	3037.14
530.49	3311.57
530.69	4061.12
530.89	3325.90
531.09	3319.76
531.28	3360.72
531.48	3760.07
531.68	3135.44
531.88	3209.17
532.08	3598.28
532.28	3430.35
532.47	3286.99
532.67	3293.13
532.87	3532.75
533.07	3149.78
533.27	3194.83
533.46	3194.83
533.66	3520.46
533.86	3434.44
534.06	3248.08
534.26	3127.25
534.45	3344.33
534.65	3696.58
534.85	3315.66
535.05	3112.91
535.25	3645.38
535.44	3080.14
535.64	3256.27
535.84	3184.59
536.04	3360.72
536.24	3272.65
536.43	3223.50
536.63	3114.96
536.83	3377.10
537.03	3454.92
537.22	3049.43
537.42	2951.12
537.62	3524.55
537.82	3282.89
538.02	3418.06
538.21	3239.89
538.41	4143.04
538.61	3542.99
538.81	3305.42
539.00	3293.13
539.20	3094.48
539.40	3356.62
539.60	3121.10
539.79	3444.68
539.99	3420.11
540.19	3248.08
540.39	3157.97
540.58	3147.73
540.78	3612.62
540.98	3413.96
541.18	3426.25
541.37	3276.75
541.57	3401.68
541.77	3471.31
541.97	3069.91
542.16	2971.60
542.36	3344.33
542.56	3321.81
542.76	3399.63
542.95	3235.79
543.15	3528.65
543.35	3696.58
543.54	3092.43
543.74	3092.43
543.94	3729.35
544.14	3327.95
544.33	3215.31
544.53	3133.39
544.73	3393.48
544.93	3348.43
545.12	3160.02
545.32	3110.86
545.52	3399.63
545.71	3215.31
545.91	3155.92
546.11	3100.62
546.30	3248.08
546.50	3323.85
546.70	3209.17
546.90	3188.69
547.09	3053.52
547.29	3469.26
547.49	3354.57
547.68	3219.41
547.88	3313.61
548.08	3553.23
548.27	3485.64
548.47	3035.09
548.67	3280.85
548.87	3524.55
549.06	3141.58
549.26	3137.49
549.46	3526.60
549.65	3250.13
549.85	3196.88
550.05	3090.38
550.24	3135.44
550.44	3459.02
550.64	3248.08
550.83	3354.57
551.03	3731.40
551.23	3678.15
551.42	3252.17
551.62	3221.45
551.82	3424.20
552.01	3471.31
552.21	3438.54
552.41	3221.45
552.60	3760.07
552.80	3477.45
553.00	3086.29
553.19	3176.40
553.39	3868.61
553.59	3166.16
553.78	3317.71
553.98	3102.67
554.17	3123.15
554.37	3508.17
554.57	3266.51
554.76	3053.52
554.96	3338.19
555.16	3459.02
555.35	3307.47
555.55	3426.25
555.75	3491.79
555.94	3604.42
556.14	3004.37
556.33	3229.65
556.53	3381.20
556.73	3418.06
556.92	3147.73
557.12	3092.43
557.32	3864.52
557.51	3741.64
557.71	3203.02
557.90	3411.92
558.10	3663.82
558.30	3311.57
558.49	3248.08
558.69	3194.83
558.88	3565.51
559.08	3526.60
559.28	3254.22
559.47	3174.35
559.67	3563.47
559.86	3860.42
560.06	3114.96
560.26	3200.98
560.45	3555.27
560.65	3370.96
560.84	3454.92
561.04	3084.24
561.24	3512.27
561.43	3254.22
561.63	3495.88
561.82	3323.85
562.02	3585.99
562.22	3219.41
562.41	3131.34
562.61	3082.19
562.80	3188.69
563.00	3952.58
563.19	3252.17
563.39	3217.36
563.59	3573.71
563.78	3235.79
563.98	2992.08
564.17	3203.02
564.37	3037.14
564.56	3405.77
564.76	3047.38
564.96	3213.26
565.15	3510.22
565.35	3995.59
565.54	3248.08
565.74	3149.78
565.93	3555.27
566.13	3409.87
566.32	3205.07
566.52	3299.28
566.71	3428.30
566.91	3565.51
567.11	3303.37
567.30	3117.01
567.50	3577.80
567.69	3473.36
567.89	3108.82
568.08	3131.34
568.28	3444.68
568.47	3155.92
568.67	3200.98
568.86	3137.49
569.06	3624.90
569.25	3377.10
569.45	3049.43
569.64	3160.02
569.84	3305.42
570.04	3422.16
570.23	3207.12
570.43	3200.98
570.62	3524.55
570.82	3782.60
571.01	3094.48
571.21	3192.78
571.40	3237.84
571.60	3612.62
571.79	3260.37
571.99	3104.72
572.18	3178.45
572.38	3518.41
572.57	3262.41
572.77	3213.26
572.96	3968.96
573.16	3477.45
573.35	3196.88
573.55	3330.00
573.74	3508.17
573.94	3301.33
574.13	3176.40
574.33	3373.00
574.52	3731.40
574.71	3446.73
574.91	3264.46
575.10	3100.62
575.30	3336.14
575.49	3225.55
575.69	3039.19
575.88	3090.38
576.08	3303.37
576.27	3639.24
576.47	3041.23
576.66	3268.56
576.86	3739.59
577.05	3491.79
577.25	3246.03
577.44	3274.70
577.64	3321.81
577.83	3610.57
578.02	3166.16
578.22	3289.04
578.41	3850.18
578.61	3389.39
578.80	3082.19
579.00	3166.16
579.19	3420.11
579.39	3516.36
579.58	3256.27
579.77	3225.55
579.97	3762.12
580.16	3708.87
580.36	3409.87
580.55	3239.89
580.75	3534.79
580.94	3403.72
581.13	3377.10
581.33	3442.64
581.52	3393.48
581.72	3819.46
581.91	3309.52
582.11	3213.26
582.30	3612.62
582.49	3524.55
582.69	3526.60
582.88	3188.69
583.08	3579.85
583.27	3696.58
583.47	3375.05
583.66	3149.78
583.85	3246.03
584.05	3346.38
584.24	3327.95
584.44	3135.44
584.63	3639.24
584.82	3669.96
585.02	3450.83
585.21	3258.32
585.41	3561.42
585.60	3428.30
585.79	3487.69
585.99	3506.12
586.18	3399.63
586.37	4528.06
586.57	6592.41
586.76	18310.89
586.96	36496.85
587.15	49204.50
587.34	57085.08
587.54	60490.85
587.73	52942.04
587.93	38407.61
588.12	29529.66
588.31	24528.52
588.51	21771.96
588.70	20000.46
588.89	17561.33
589.09	15107.87
589.28	13053.75
589.47	10153.83
589.67	7784.33
589.86	6317.98
590.06	4960.18
590.25	4540.35
590.44	3934.15
590.64	3647.43
590.83	3704.78
591.02	3639.24
591.22	3198.93
591.41	3272.65
591.60	3397.58
591.80	4057.03
591.99	3030.99
592.18	3213.26
592.38	3610.57
592.57	3221.45
592.76	3205.07
592.96	3319.76
593.15	3428.30
593.34	3663.82
593.54	3164.11
593.73	3332.05
593.92	3559.37
594.12	3471.31
594.31	3270.61
594.50	3336.14
594.70	3575.75
594.89	4022.21
595.08	3119.06
595.28	3319.76
595.47	4214.72
595.66	3641.29
595.86	3045.33
596.05	3090.38
596.24	3282.89
596.43	3846.09
596.63	3284.94
596.82	3293.13
597.01	3604.42
597.21	3782.60
597.40	3168.21
597.59	3231.69
597.79	3420.11
597.98	3553.23
598.17	3295.18
598.36	3164.11
598.56	3678.15
598.75	3266.51
598.94	3213.26
599.14	3194.83
599.33	3375.05
599.52	3491.79
599.71	3348.43
599.91	3137.49
600.10	3651.53
600.29	3588.04
600.48	3278.80
600.68	3325.90
600.87	3516.36
601.06	3270.61
601.26	3319.76
601.45	3286.99
601.64	3375.05
601.83	3780.55
602.03	3102.67
602.22	3106.77
602.41	3723.21
602.60	4028.35
602.80	3217.36
602.99	3385.29
603.18	3307.47
603.37	3485.64
603.57	3114.96
603.76	3184.59
603.95	3735.50
604.14	3321.81
604.34	3090.38
604.53	3110.86
604.72	3565.51
604.91	3676.10
605.10	3196.88
605.30	3039.19
605.49	4042.69
605.68	3602.38
605.87	3211.22
606.07	3123.15
606.26	3516.36
606.45	3516.36
606.64	3135.44
606.84	3086.29
607.03	3432.40
607.22	3633.10
607.41	3327.95
607.60	3104.72
607.80	3698.63
607.99	3403.72
608.18	3172.30
608.37	3284.94
608.56	3299.28
608.76	3659.72
608.95	3348.43
609.14	3147.73
609.33	3698.63
609.52	3782.60
609.72	3176.40
609.91	3276.75
610.10	3471.31
610.29	3715.02
610.48	3272.65
610.68	3248.08
610.87	3446.73
611.06	3608.52
611.25	3190.74
611.44	3368.91
611.63	3368.91
611.83	3614.66
612.02	3157.97
612.21	3327.95
612.40	3057.62
612.59	3237.84
612.79	3080.14
612.98	3334.09
613.17	3848.13
613.36	3364.81
613.55	3387.34
613.74	3157.97
613.93	3413.96
614.13	3467.21
614.32	3338.19
614.51	3213.26
614.70	3430.35
614.89	3364.81
615.08	3385.29
615.28	3461.07
615.47	3223.50
615.66	3577.80
615.85	3164.11
616.04	3182.54
616.23	3377.10
616.42	3397.58
616.62	3184.59
616.81	3225.55
617.00	3430.35
617.19	3516.36
617.38	3215.31
617.57	3280.85
617.76	3629.00
617.95	3641.29
618.15	3276.75
618.34	3395.53
618.53	3145.68
618.72	3663.82
618.91	3295.18
619.10	3205.07
619.29	3424.20
619.48	3454.92
619.68	3069.91
619.87	3147.73
620.06	3213.26
620.25	3641.29
620.44	3135.44
620.63	3127.25
620.82	3409.87
621.01	3489.74
621.20	3160.02
621.39	3379.15
621.59	3516.36
621.78	3393.48
621.97	3196.88
622.16	3358.67
622.35	3547.08
622.54	3594.19
622.73	3313.61
622.92	2987.99
623.11	3631.05
623.30	3383.24
623.49	3299.28
623.68	2987.99
623.88	3745.73
624.07	3346.38
624.26	3104.72
624.45	3190.74
624.64	3338.19
624.83	3545.03
625.02	3172.30
625.21	3184.59
625.40	3532.75
625.59	3698.63
625.78	3297.23
625.97	3317.71
626.16	3712.97
626.35	3680.20
626.54	3174.35
626.74	3405.77
626.93	3512.27
627.12	3370.96
627.31	3270.61
627.50	3151.82
627.69	3692.49
627.88	3141.58
628.07	3096.53
628.26	2992.08
628.45	3332.05
628.64	3184.59
628.83	3074.00
629.02	3067.86
629.21	3516.36
629.40	3469.26
629.59	3061.71
629.78	3088.34
629.97	3413.96
630.16	3502.03
630.35	3176.40
630.54	3270.61
630.73	3327.95
630.92	3479.50
631.11	3117.01
631.30	3213.26
631.49	3649.48
631.68	3504.07
631.87	3254.22
632.06	3049.43
632.25	4014.02
632.44	3379.15
632.63	3172.30
632.82	3172.30
633.01	3317.71
633.20	3463.12
633.39	3188.69
633.58	3041.23
633.77	3485.64
633.96	3579.85
634.15	3354.57
634.34	3237.84
634.53	3590.09
634.72	3350.48
634.91	3028.95
635.10	3139.54
635.29	3651.53
635.48	3411.92
635.67	3020.75
635.86	2992.08
636.05	3807.17
636.24	3475.40
636.43	3123.15
636.62	3334.09
636.81	2922.45
637.00	3506.12
637.19	3098.58
637.38	3190.74
637.57	3325.90
637.76	3411.92
637.95	3381.20
638.14	3293.13
638.33	3479.50
638.52	3508.17
638.71	3155.92
638.89	3067.86
639.08	4020.16
639.27	3674.06
639.46	3446.73
639.65	3563.47
639.84	3835.85
640.03	4075.46
640.22	3536.84
640.41	3520.46
640.60	3459.02
640.79	3569.61
640.98	3364.81
641.17	3389.39
641.36	3684.30
641.55	3596.23
641.74	3014.61
641.92	3057.62
642.11	3260.37
642.30	3350.48
642.49	3088.34
642.68	3178.45
642.87	3602.38
643.06	3583.95
643.25	3112.91
643.44	3033.04
643.63	3393.48
643.82	3553.23
644.00	3084.24
644.19	3198.93
644.38	3252.17
644.57	3565.51
644.76	3205.07
644.95	3237.84
645.14	3409.87
645.33	3327.95
645.52	3270.61
645.71	3098.58
645.89	3178.45
646.08	3418.06
646.27	3203.02
646.46	3352.52
646.65	3168.21
646.84	3483.59
647.03	3139.54
647.22	3348.43
647.40	3622.86
647.59	3346.38
647.78	3043.28
647.97	3125.20
648.16	3278.80
648.35	3715.02
648.54	3583.95
648.73	3188.69
648.91	3631.05
649.10	3418.06
649.29	3117.01
649.48	3157.97
649.67	3590.09
649.86	3444.68
650.05	3297.23
650.23	3311.57
650.42	3303.37
650.61	3731.40
650.80	3461.07
650.99	3407.82
651.18	3684.30
651.36	3672.01
651.55	3024.85
651.74	3309.52
651.93	3399.63
652.12	3360.72
652.31	3184.59
652.49	3188.69
652.68	3370.96
652.87	3913.67
653.06	3307.47
653.25	3428.30
653.44	3463.12
653.62	3772.36
653.81	3215.31
654.00	3205.07
654.19	3637.19
654.38	3975.11
654.56	3246.03
654.75	3100.62
654.94	3542.99
655.13	3452.88
655.32	3139.54
655.51	3284.94
655.69	3395.53
655.88	3569.61
656.07	3008.47
656.26	3233.74
656.45	3170.26
656.63	3387.34
656.82	3182.54
657.01	3493.83
657.20	3256.27
657.38	3823.56
657.57	3272.65
657.76	3063.76
657.95	3643.34
658.14	3330.00
658.32	3295.18
658.51	3024.85
658.70	3522.51
658.89	3416.01
659.08	3223.50
659.26	3311.57
659.45	3221.45
659.64	3508.17
659.83	3149.78
660.01	3551.18
660.20	3471.31
660.39	3749.83
660.58	2914.26
660.76	3278.80
660.95	3160.02
661.14	3491.79
661.33	3028.95
661.51	3160.02
661.70	3289.04
661.89	3497.93
662.08	3250.13
662.26	2994.13
662.45	3227.60
662.64	3885.00
662.83	3241.93
663.01	3059.67
663.20	3323.85
663.39	3704.78
663.58	3217.36
663.76	3286.99
663.95	3618.76
664.14	3246.03
664.32	3262.41
664.51	3014.61
664.70	3037.14
664.89	3489.74
665.07	2977.75
665.26	3280.85
665.45	3123.15
665.64	3573.71
665.82	3119.06
666.01	3334.09
666.20	3217.36
666.38	3616.71
666.57	3575.75
666.76	5664.68
666.95	12451.65
667.13	18376.42
667.32	22044.34
667.51	24540.81
667.69	25194.11
667.88	20631.24
668.07	15167.26
668.25	13162.30
668.44	11741.00
668.63	10231.65
668.81	8763.26
669.00	7726.99
669.19	7227.28
669.38	6352.80
669.56	5257.14
669.75	4718.52
669.94	4376.51
670.12	3825.61
670.31	3438.54
670.50	3418.06
670.68	3715.02
670.87	3502.03
671.06	3145.68
671.24	3248.08
671.43	3825.61
671.62	3491.79
671.80	3129.30
671.99	3297.23
672.18	3418.06
672.36	3557.32
672.55	3346.38
672.74	3184.59
672.92	3350.48
673.11	3633.10
673.29	3076.05
673.48	3434.44
673.67	3309.52
673.85	3647.43
674.04	3139.54
674.23	3327.95
674.41	3893.19
674.60	3233.74
674.79	3016.66
674.97	3117.01
675.16	3585.99
675.34	3737.54
675.53	3123.15
675.72	3219.41
675.90	3878.85
676.09	3411.92
676.28	3241.93
676.46	3065.81
676.65	3669.96
676.83	3274.70
677.02	3225.55
677.21	3307.47
677.39	3526.60
677.58	3387.34
677.77	3223.50
677.95	3106.77
678.14	3483.59
678.32	3368.91
678.51	3243.98
678.70	3534.79
678.88	3311.57
679.07	3510.22
679.25	3231.69
679.44	3207.12
679.63	3127.25
679.81	3434.44
680.00	3426.25
680.18	3229.65
680.37	3780.55
680.55	3510.22
680.74	3024.85
680.93	2959.31
681.11	3540.94
681.30	3434.44
681.48	3200.98
681.67	3174.35
681.85	3491.79
682.04	3215.31
682.23	3293.13
682.41	3336.14
682.60	3350.48
682.78	3426.25
682.97	3176.40
683.15	3170.26
683.34	3467.21
683.53	3743.69
683.71	3082.19
683.90	3205.07
684.08	3862.47
684.27	3295.18
684.45	3305.42
684.64	3330.00
684.82	3483.59
685.01	3481.55
685.19	3098.58
685.38	3518.41
685.57	3389.39
685.75	3278.80
685.94	3147.73
686.12	3108.82
686.31	3411.92
686.49	3780.55
686.68	3039.19
686.86	3229.65
687.05	3330.00
687.23	3809.22
687.42	3141.58
687.60	2967.51
687.79	3524.55
687.97	3798.98
688.16	3330.00
688.34	3397.58
688.53	3057.62
688.71	3585.99
688.90	3450.83
689.08	3241.93
689.27	3098.58
689.45	3635.14
689.64	3411.92
689.82	3321.81
690.01	3557.32
690.19	3485.64
690.38	3286.99
690.56	3313.61
690.75	3266.51
690.93	3360.72
691.12	3104.72
691.30	3223.50
691.49	3321.81
691.67	3479.50
691.86	3534.79
692.04	3188.69
692.23	3403.72
692.41	3409.87
692.60	3493.83
692.78	3383.24
692.97	3465.16
693.15	3592.14
693.34	3442.64
693.52	3368.91
693.71	3368.91
693.89	3426.25
694.08	2959.31
694.26	3282.89
694.44	3624.90
694.63	3620.81
694.81	3055.57
695.00	3221.45
695.18	3614.66
695.37	4032.45
695.55	3315.66
695.74	3303.37
695.92	3248.08
696.10	3698.63
696.29	3092.43
696.47	3209.17
696.66	3192.78
696.84	3248.08
697.03	3289.04
697.21	3510.22
697.40	4837.30
697.58	3680.20
697.76	3272.65
697.95	3213.26
698.13	3227.60
698.32	3321.81
698.50	3221.45
698.68	3157.97
698.87	3594.19
699.05	3844.04
699.24	3198.93
699.42	3205.07
699.61	3489.74
699.79	3467.21
699.97	3262.41
700.16	3090.38
700.34	3217.36
700.53	3395.53
700.71	3448.78
700.89	3311.57
701.08	3370.96
701.26	3405.77
701.45	3555.27
701.63	3180.50
701.81	3286.99
702.00	3303.37
702.18	3360.72
702.37	3207.12
702.55	3676.10
702.73	3495.88
702.92	3125.20
703.10	3483.59
703.28	3561.42
703.47	3256.27
703.65	3444.68
703.84	3278.80
704.02	3340.24
704.20	3745.73
704.39	3123.15
704.57	3135.44
704.75	3569.61
704.94	3516.36
705.12	3399.63
705.30	3983.30
705.49	8189.83
705.67	14415.65
705.86	19166.94
706.04	21149.37
706.22	23453.34
706.41	22173.36
706.59	16619.27
706.77	13322.04
706.96	11503.44
707.14	10786.65
707.32	9185.14
707.51	8210.31
707.69	6801.30
707.87	5840.81
708.06	4855.73
708.24	4259.78
708.42	4085.70
708.61	4329.41
708.79	3237.84
708.97	3323.85
709.16	3549.13
709.34	3401.68
709.52	3217.36
709.71	3213.26
709.89	3532.75
710.07	3266.51
710.26	3084.24
710.44	3264.46
710.62	3706.82
710.80	3473.36
710.99	3327.95
711.17	3280.85
711.35	3254.22
711.54	3309.52
711.72	3418.06
711.90	3248.08
712.09	3567.56
712.27	3368.91
712.45	3327.95
712.63	3098.58
712.82	3528.65
713.00	3444.68
713.18	3407.82
713.37	3420.11
713.55	3626.95
713.73	3547.08
713.91	3336.14
714.10	3235.79
714.28	3438.54
714.46	3491.79
714.65	3381.20
714.83	3250.13
715.01	3483.59
715.19	3442.64
715.38	3151.82
715.56	3299.28
715.74	3246.03
715.92	3307.47
716.11	3606.47
716.29	2932.69
716.47	3403.72
716.65	3497.93
716.84	3114.96
717.02	3268.56
717.20	3137.49
717.38	3258.32
717.57	3389.39
717.75	3272.65
717.93	3397.58
718.11	3551.18
718.30	3117.01
718.48	3260.37
718.66	3577.80
718.84	3649.48
719.03	3229.65
719.21	3071.95
719.39	3844.04
719.57	3534.79
719.75	3254.22
719.94	3178.45
720.12	3459.02
720.30	3463.12
720.48	3348.43
720.67	3252.17
720.85	3233.74
721.03	3340.24
721.21	3119.06
721.39	3217.36
721.58	3661.77
721.76	3368.91
721.94	3278.80
722.12	3360.72
722.30	3758.02
722.49	3360.72
722.67	3192.78
722.85	3188.69
723.03	3143.63
723.21	3286.99
723.40	3270.61
723.58	3381.20
723.76	3536.84
723.94	3758.02
724.12	3239.89
724.30	3401.68
724.49	3665.86
724.67	3180.50
724.85	3338.19
725.03	3037.14
725.21	3471.31
725.40	3661.77
725.58	3174.35
725.76	3450.83
725.94	3639.24
726.12	3198.93
726.30	3295.18
726.49	3119.06
726.67	3319.76
726.85	3536.84
727.03	3936.20
727.21	4896.69
727.39	6016.93
727.57	6508.44
727.76	6856.60
727.94	6715.29
728.12	5842.85
728.30	4935.60
728.48	4708.28
728.66	4485.05
728.84	4343.74
729.03	3946.44
729.21	3610.57
729.39	3542.99
729.57	3549.13
729.75	3540.94
729.93	3463.12
730.11	3098.58
730.30	3391.44
730.48	3379.15
730.66	3282.89
730.84	3254.22
731.02	3452.88
731.20	3295.18
731.38	3293.13
731.56	3149.78
731.74	3151.82
731.93	3475.40
732.11	3284.94
732.29	3160.02
732.47	3565.51
732.65	3534.79
732.83	3395.53
733.01	3313.61
733.19	3307.47
733.37	3559.37
733.56	3184.59
733.74	3147.73
733.92	3764.17
734.10	3246.03
734.28	3319.76
734.46	3086.29
734.64	3307.47
734.82	3354.57
735.00	3209.17
735.18	3114.96
735.36	3483.59
735.54	3432.40
735.73	3170.26
735.91	3319.76
736.09	3760.07
736.27	3426.25
736.45	3270.61
736.63	2914.26
736.81	3385.29
736.99	3606.47
737.17	3405.77
737.35	3174.35
737.53	3465.16
737.71	3409.87
737.89	3497.93
738.07	3178.45
738.25	3276.75
738.43	3231.69
738.61	3268.56
738.80	3100.62
738.98	3200.98
739.16	3373.00
739.34	3153.87
739.52	3549.13
739.70	3373.00
739.88	3553.23
740.06	3311.57
740.24	2961.36
740.42	3727.30
740.60	3076.05
740.78	3172.30
740.96	3012.56
741.14	3274.70
741.32	3430.35
741.50	3102.67
741.68	3424.20
741.86	3762.12
742.04	3168.21
742.22	3088.34
742.40	3272.65
742.58	3567.56
742.76	3246.03
742.94	3477.45
743.12	3028.95
743.30	3430.35
743.48	3483.59
743.66	3078.10
743.84	3184.59
744.02	3348.43
744.20	3426.25
744.38	3043.28
744.56	3151.82
744.74	3835.85
744.92	3499.98
745.10	3471.31
745.28	3280.85
745.46	3782.60
745.64	3381.20
745.82	3223.50
746.00	3129.30
746.18	3506.12
746.36	3278.80
746.54	3311.57
746.72	3254.22
746.90	3233.74
747.08	3760.07
747.26	3151.82
747.44	3330.00
747.62	3569.61
747.80	3518.41
747.98	3321.81
748.15	3205.07
748.33	3819.46
748.51	3442.64
748.69	3303.37
748.87	3125.20
749.05	3391.44
749.23	3377.10
749.41	3164.11
749.59	3219.41
749.77	3596.23
749.95	3293.13
750.13	3231.69
750.31	3379.15
750.49	3497.93
750.67	3674.06
750.85	3348.43
751.03	3135.44
751.20	3866.56
751.38	3444.68
751.56	3299.28
751.74	3237.84
751.92	3452.88
752.10	3143.63
752.28	3465.16
752.46	3182.54
752.64	3461.07
752.82	3477.45
753.00	3340.24
753.18	3104.72
753.35	3389.39
753.53	3325.90
753.71	3063.76
753.89	3233.74
754.07	3381.20
754.25	3737.54
754.43	3305.42
754.61	3090.38
754.79	3542.99
754.97	3387.34
755.14	3346.38
755.32	3164.11
755.50	3524.55
755.68	3524.55
755.86	3190.74
756.04	3162.06
756.22	3024.85
756.40	3614.66
756.57	3403.72
756.75	3176.40
756.93	3581.90
757.11	3731.40
757.29	3014.61
757.47	3172.30
757.65	3071.95
757.82	3014.61
758.00	3117.01
758.18	3080.14
758.36	3309.52
758.54	3755.97
758.72	3059.67
758.90	3338.19
759.07	3518.41
759.25	3215.31
759.43	3342.28
759.61	3071.95
759.79	4573.11
759.97	3647.43
760.15	3225.55
760.32	3211.22
760.50	3536.84
760.68	3850.18
760.86	3033.04
761.04	3434.44
761.22	3549.13
761.39	3526.60
761.57	3319.76
761.75	3155.92
761.93	3581.90
762.11	3405.77
762.28	3375.05
762.46	3108.82
762.64	3672.01
762.82	3160.02
763.00	3114.96
763.18	3459.02
763.35	3194.83
763.53	3624.90
763.71	3342.28
763.89	3096.53
764.07	3454.92
764.24	3422.16
764.42	3299.28
764.60	3250.13
764.78	3514.31
764.96	3645.38
765.13	3327.95
765.31	3084.24
765.49	3549.13
765.67	3188.69
765.84	3192.78
766.02	3098.58
766.20	3098.58
766.38	3493.83
766.56	3239.89
766.73	3381.20
766.91	3456.97
767.09	3397.58
767.27	3252.17
767.44	3123.15
767.62	3565.51
767.80	3469.26
767.98	3100.62
768.15	3164.11
768.33	3622.86
768.51	3633.10
768.69	3340.24
768.87	3164.11
769.04	3442.64
769.22	4007.87
769.40	3432.40
769.58	3325.90
769.75	3565.51
769.93	3692.49
770.11	3170.26
770.28	3069.91
770.46	3659.72
770.64	3481.55
770.82	3196.88
770.99	3155.92
771.17	3536.84
771.35	3401.68
771.53	3272.65
771.70	3160.02
771.88	3526.60
772.06	3393.48
772.23	3155.92
772.41	3233.74
772.59	3409.87
772.77	3143.63
772.94	3225.55
773.12	3297.23
773.30	3350.48
773.47	3444.68
773.65	3119.06
773.83	3409.87
774.01	3459.02
774.18	3080.14
774.36	3243.98
774.54	3057.62
774.71	3467.21
774.89	3117.01
775.07	3018.71
775.24	3237.84
775.42	3282.89
775.60	3862.47
775.78	3143.63
775.95	3065.81
776.13	3133.39
776.31	3110.86
776.48	3344.33
776.66	3387.34
776.84	3362.76
777.01	3192.78
777.19	3098.58
777.37	3127.25
777.54	3616.71
777.72	3968.96
777.90	3299.28
778.07	3190.74
778.25	4171.71
778.43	3657.67
778.60	3141.58
778.78	3352.52
778.96	3729.35
779.13	3168.21
779.31	3223.50
779.49	3272.65
779.66	3454.92
779.84	3428.30
780.01	3147.73
780.19	3117.01
780.37	3735.50
780.54	3502.03
780.72	3057.62
780.90	3192.78
781.07	3434.44
781.25	3315.66
781.43	3424.20
781.60	3248.08
781.78	3667.91
781.95	3463.12
782.13	3252.17
782.31	3180.50
782.48	3041.23
782.66	3465.16
782.83	3475.40
783.01	3416.01
783.19	3606.47
783.36	3434.44
783.54	3117.01
783.72	3280.85
783.89	3280.85
784.07	3475.40
784.24	3358.67
784.42	3377.10
784.60	3549.13
784.77	3446.73
784.95	2893.78
785.12	3209.17
785.30	3532.75
785.47	3280.85
785.65	3110.86
785.83	3262.41
786.00	3334.09
786.18	3483.59
786.35	3157.97
786.53	3059.67
786.71	3688.39
786.88	3571.66
787.06	3289.04
787.23	3258.32
787.41	3061.71
787.58	3418.06
787.76	3100.62
787.94	3233.74
788.11	3475.40
788.29	3209.17
788.46	3235.79
788.64	3008.47
788.81	3428.30
788.99	3278.80
789.16	3145.68
789.34	3246.03
789.52	3274.70
789.69	3327.95
789.87	3022.80
790.04	3157.97
790.22	3358.67
790.39	3768.26
790.57	3162.06
790.74	3094.48
790.92	3585.99
791.09	3110.86
791.27	3307.47
791.44	3315.66
791.62	3407.82
791.79	3606.47
791.97	3301.33
792.15	3602.38
792.32	3545.03
792.50	3614.66
792.67	3340.24
792.85	3489.74
793.02	3475.40
793.20	3377.10
793.37	3008.47
793.55	3088.34
793.72	3153.87
793.90	3592.14
794.07	3131.34
794.25	3160.02
794.42	3450.83
794.60	3383.24
794.77	3266.51
794.95	3332.05
795.12	3614.66
795.30	3459.02
795.47	2975.70
795.65	3518.41
795.82	3545.03
796.00	3319.76
796.17	3315.66
796.34	3119.06
796.52	3571.66
796.69	3614.66
796.87	3307.47
797.04	3338.19
797.22	3585.99
797.39	3461.07
797.57	3352.52
797.74	3182.54
797.92	3551.18
798.09	3270.61
798.27	3444.68
798.44	3114.96
798.62	3317.71
798.79	3461.07
798.96	3385.29
799.14	3260.37
799.31	3958.72
799.49	3368.91
799.66	3188.69
799.84	3221.45
800.01	3110.86
800.19	3477.45
800.36	3008.47
800.53	3227.60
800.71	3506.12
800.88	3770.31
801.06	3137.49
801.23	3172.30
801.41	3416.01
801.58	3377.10
801.75	3182.54
801.93	3227.60
802.10	3618.76
802.28	3303.37
802.45	3213.26
802.63	3219.41
802.80	3692.49
802.97	3340.24
803.15	3192.78
803.32	3229.65
803.50	3272.65
803.67	3254.22
803.84	3098.58
804.02	3330.00
804.19	3352.52
804.37	2971.60
804.54	2942.93
804.71	3131.34
804.89	3401.68
805.06	3157.97
805.24	3082.19
805.41	3049.43
805.58	3356.62
805.76	4032.45
805.93	3184.59
806.10	3348.43
806.28	3526.60
806.45	3528.65
806.63	3377.10
806.80	3237.84
806.97	3426.25
807.15	3508.17
807.32	3246.03
807.49	3203.02
807.67	3256.27
807.84	3469.26
808.01	3057.62
808.19	3360.72
808.36	3913.67
808.54	3330.00
808.71	3184.59
808.88	3182.54
809.06	3731.40
809.23	3776.45
809.40	3243.98
809.58	3157.97
809.75	3407.82
809.92	3260.37
810.10	3393.48
810.27	3160.02
810.44	3514.31
810.62	3661.77
810.79	3139.54
810.96	3237.84
811.14	3323.85
811.31	3592.14
811.48	3303.37
811.66	3276.75
811.83	3766.21
812.00	3518.41
812.18	3307.47
812.35	3483.59
812.52	3375.05
812.69	3358.67
812.87	3221.45
813.04	3135.44
813.21	3360.72
813.39	3237.84
813.56	3125.20
813.73	3454.92
813.91	3172.30
814.08	3491.79
814.25	3229.65
814.42	3114.96
814.60	3403.72
814.77	3403.72
814.94	3117.01
815.12	3356.62
815.29	3739.59
815.46	3319.76
815.63	3139.54
815.81	3225.55
815.98	3354.57
816.15	3385.29
816.33	3366.86
816.50	3227.60
816.67	3385.29
816.84	3393.48
817.02	3121.10
817.19	3254.22
817.36	3409.87
817.53	3479.50
817.71	3129.30
817.88	3125.20
818.05	3387.34
818.22	3364.81
818.40	3446.73
818.57	3153.87
818.74	3395.53
818.91	3385.29
819.09	3375.05
819.26	3327.95
819.43	3381.20
819.60	3315.66
819.78	3370.96
819.95	3264.46
820.12	3256.27
820.29	3747.78
820.47	3463.12
820.64	3153.87
820.81	3121.10
820.98	3260.37
821.15	3262.41
821.33	3370.96
821.50	3059.67
821.67	3450.83
821.84	3106.77
822.02	3200.98
822.19	3542.99
822.36	3313.61
822.53	3090.38
822.70	3012.56
822.88	3344.33
823.05	3667.91
823.22	3274.70
823.39	3139.54
823.56	3481.55
823.74	3837.89
823.91	3047.38
824.08	3188.69
824.25	3237.84
824.42	3710.92
824.60	3088.34
824.77	3264.46
824.94	3356.62
825.11	3495.88
825.28	3033.04
825.45	3303.37
825.63	3411.92
825.80	3258.32
825.97	3254.22
826.14	3323.85
826.31	3090.38
826.48	3606.47
826.66	3196.88
826.83	3071.95
827.00	3368.91
827.17	3297.23
827.34	3194.83
827.51	3139.54
827.69	3358.67
827.86	3114.96
828.03	3262.41
828.20	3270.61
828.37	3280.85
828.54	3594.19
828.71	3063.76
828.89	3237.84
829.06	3459.02
829.23	3829.70
829.40	3178.45
829.57	3100.62
829.74	3561.42
829.91	3352.52
830.09	3162.06
830.26	3289.04
830.43	3786.69
830.60	3366.86
830.77	3350.48
830.94	3385.29
831.11	3555.27
831.28	3311.57
831.46	3370.96
831.63	3106.77
831.80	3655.62
831.97	3186.64
832.14	3209.17
832.31	3211.22
832.48	3436.49
832.65	3641.29
832.82	3284.94
832.99	3207.12
833.17	3213.26
833.34	3758.02
833.51	3164.11
833.68	3016.66
833.85	3686.34
834.02	3168.21
834.19	3149.78
834.36	3194.83
834.53	3491.79
834.70	3647.43
834.87	3078.10
835.04	2959.31
835.22	3205.07
835.39	3409.87
835.56	3008.47
835.73	3067.86
835.90	3706.82
836.07	3147.73
836.24	3133.39
836.41	3039.19
836.58	3164.11
836.75	3635.14
836.92	3030.99
837.09	2998.23
837.26	3569.61
837.43	3518.41
837.60	2998.23
837.77	3057.62
837.94	3643.34
838.12	3669.96
838.29	2934.74
838.46	2850.77
838.63	3188.69
838.80	3762.12
838.97	3008.47
839.14	3004.37
839.31	3483.59
839.48	3600.33
839.65	3014.61
839.82	3094.48
839.99	3516.36
840.16	3401.68
840.33	2985.94
840.50	3018.71
840.67	3323.85
840.84	2910.16
841.01	2873.30
841.18	2994.13
841.35	3393.48
841.52	3528.65
841.69	3377.10
841.86	3024.85
842.03	3444.68
842.20	3723.21
842.37	2951.12
842.54	3024.85
842.71	3401.68
842.88	3149.78
843.05	3041.23
843.22	2934.74
843.39	3622.86
843.56	3327.95
843.73	3059.67
843.90	3051.47
844.07	3504.07
844.24	3575.75
844.41	3119.06
844.58	2979.79
844.75	3389.39
844.92	3475.40
845.09	3063.76
845.26	2992.08
845.43	3612.62
845.60	3348.43
845.77	3141.58
845.94	3200.98
846.10	3614.66
846.27	3129.30
846.44	2877.40
846.61	2904.02
846.78	3590.09
846.95	3653.58
847.12	2969.55
847.29	3010.51
847.46	3250.13
847.63	3530.70
847.80	2920.40
847.97	3002.32
848.14	3921.86
848.31	3291.09
848.48	2889.68
848.65	3002.32
848.82	3303.37
848.98	3979.20
849.15	3074.00
849.32	3153.87
849.49	3618.76
849.66	3479.50
849.83	3082.19
850.00	3018.71
850.17	3557.32
850.34	3334.09
850.51	3010.51
850.68	3059.67
850.85	3895.24
851.01	3547.08
851.18	2947.03
851.35	3080.14
851.52	3491.79
851.69	3729.35
851.86	2987.99
852.03	2942.93
852.20	3616.71
852.37	3465.16
852.53	2887.64
852.70	2916.31
852.87	3495.88
853.04	3528.65
853.21	2955.22
853.38	3360.72
853.55	3704.78
853.72	3696.58
853.89	2861.01
854.05	2963.41
854.22	3344.33
854.39	3325.90
854.56	3030.99
854.73	3155.92
854.90	3205.07
855.07	3330.00
855.23	2934.74
855.40	2951.12
855.57	3428.30
855.74	2975.70
855.91	3196.88
856.08	2869.20
856.25	3131.34
856.41	3370.96
856.58	3018.71
856.75	3067.86
856.92	3166.16
857.09	3581.90
857.26	2787.29
857.42	3069.91
857.59	3583.95
857.76	3336.14
857.93	2987.99
858.10	3100.62
858.27	3170.26
858.43	3438.54
858.60	2983.89
858.77	2959.31
858.94	3338.19
859.11	3665.86
859.27	3180.50
859.44	2979.79
859.61	3889.09
859.78	3647.43
859.95	3030.99
860.12	2994.13
860.28	3975.11
860.45	3809.22
860.62	2897.88
860.79	3198.93
860.95	3311.57
861.12	3342.28
861.29	2920.40
861.46	3045.33
861.63	3338.19
861.79	3442.64
861.96	2867.16
862.13	3022.80
862.30	3821.51
862.47	3209.17
862.63	2928.60
862.80	3045.33
862.97	3657.67
863.14	3475.40
863.30	3016.66
863.47	2928.60
863.64	3729.35
863.81	3487.69
863.97	2926.55
864.14	3055.57
864.31	3366.86
864.48	3434.44
864.65	3049.43
864.81	3141.58
864.98	3526.60
865.15	3610.57
865.32	3106.77
865.48	3039.19
865.65	3925.96
865.82	3364.81
865.98	3168.21
866.15	3071.95
866.32	3424.20
866.49	3362.76
866.65	3205.07
866.82	3078.10
866.99	3463.12
867.16	3360.72
867.32	2942.93
867.49	2942.93
867.66	3405.77
867.83	3379.15
867.99	2969.55
868.16	3000.27
868.33	3182.54
868.49	3428.30
868.66	3065.81
868.83	3141.58
868.99	3422.16
869.16	3426.25
869.33	3262.41
869.50	3098.58
869.66	3444.68
869.83	3395.53
870.00	2920.40
870.16	3143.63
870.33	3407.82
870.50	3631.05
870.66	3145.68
870.83	3088.34
871.00	3377.10
871.17	3565.51
871.33	3039.19
871.50	2934.74
871.67	3344.33
871.83	3393.48
872.00	3125.20
872.17	3063.76
872.33	3872.71
872.50	3620.81
872.67	3024.85
872.83	3008.47
873.00	3479.50
873.17	3454.92
873.33	3112.91
873.50	3067.86
873.67	3192.78
873.83	3332.05
874.00	2983.89
874.16	3188.69
874.33	3467.21
874.50	3164.11
874.66	3008.47
874.83	3069.91
875.00	3639.24
875.16	3719.11
875.33	3100.62
875.50	2746.33
875.66	3344.33
875.83	3514.31
875.99	3092.43
876.16	3121.10
876.33	3180.50
876.49	3356.62
876.66	3071.95
876.83	3035.09
876.99	3135.44
877.16	3454.92
877.32	2942.93
877.49	3149.78
877.66	3502.03
877.82	3846.09
877.99	3100.62
878.15	3295.18
878.32	3446.73
878.49	3508.17
878.65	3090.38
878.82	3278.80
878.98	3239.89
879.15	3647.43
879.32	3141.58
879.48	3278.80
879.65	3409.87
879.81	3370.96
879.98	3110.86
880.15	3135.44
880.31	3563.47
880.48	3166.16
880.64	3203.02
880.81	3225.55
880.97	3706.82
881.14	3665.86
881.31	2977.75
881.47	3221.45
881.64	3424.20
881.80	3074.00
881.97	3221.45
882.13	3024.85
882.30	3162.06
882.47	3330.00
882.63	2971.60
882.80	3037.14
882.96	3375.05
883.13	3704.78
883.29	3041.23
883.46	3041.23
883.62	3885.00
883.79	3506.12
883.95	3137.49
884.12	2961.36
884.29	3590.09
884.45	3405.77
884.62	3020.75
884.78	2992.08
884.95	3813.32
885.11	3221.45
885.28	3117.01
885.44	3026.90
885.61	3522.51
885.77	3731.40
885.94	3184.59
886.10	3057.62
886.27	3434.44
886.43	3809.22
886.60	3192.78
886.76	3020.75
886.93	3190.74
887.09	3426.25
887.26	2861.01
887.42	3125.20
887.59	3708.87
887.75	3905.48
887.92	3239.89
888.08	3200.98
888.25	3844.04
888.41	3571.66
888.58	3157.97
888.74	3045.33
888.91	3360.72
>>>>>End Processed Spectral Data<<<<<
