SpectraSuite Data File
++++++++++++++++++++++++++++++++++++
Date: Fri May 06 09:29:00 CEST 2016
User: root
Dark Spectrum Present: No
Reference Spectrum Present: No
Number of Sampled Component Spectra: 1
Spectrometers: USB4C02835
Integration Time (usec): 100000 (USB4C02835)
Spectra Averaged: 1 (USB4C02835)
Boxcar Smoothing: 0 (USB4C02835)
Correct for Electrical Dark: No (USB4C02835)
Strobe/Lamp Enabled: No (USB4C02835)
Correct for Detector Non-linearity: No (USB4C02835)
Correct for Stray Light: No (USB4C02835)
Number of Pixels in Processed Spectrum: 3648
>>>>>Begin Processed Spectral Data<<<<<
177.47	2326.49
177.69	2326.49
177.91	2326.49
178.13	2289.63
178.36	2332.64
178.58	3108.82
178.80	3209.17
179.02	3155.92
179.24	3258.32
179.46	2928.60
179.68	2901.97
179.90	3401.68
180.13	3475.40
180.35	2727.89
180.57	2920.40
180.79	3612.62
181.01	3424.20
181.23	2928.60
181.45	3172.30
181.67	3561.42
181.90	3581.90
182.12	3061.71
182.34	2865.11
182.56	3504.07
182.78	3590.09
183.00	2936.79
183.22	3106.77
183.44	3078.10
183.66	4079.55
183.89	3131.34
184.11	3022.80
184.33	3563.47
184.55	3702.73
184.77	2879.44
184.99	2971.60
185.21	3375.05
185.43	4032.45
185.65	2936.79
185.87	2844.63
186.10	3919.81
186.32	3944.39
186.54	3172.30
186.76	3090.38
186.98	3639.24
187.20	3409.87
187.42	3026.90
187.64	2850.77
187.86	3538.89
188.08	3737.54
188.30	2863.06
188.52	2961.36
188.75	3715.02
188.97	3829.70
189.19	2893.78
189.41	2942.93
189.63	3622.86
189.85	3395.53
190.07	2805.72
190.29	2889.68
190.51	3522.51
190.73	3190.74
190.95	3155.92
191.17	3069.91
191.39	3090.38
191.61	3383.24
191.84	2912.21
192.06	3186.64
192.28	3127.25
192.50	4231.10
192.72	3129.30
192.94	3045.33
193.16	3680.20
193.38	3561.42
193.60	2887.64
193.82	3094.48
194.04	3639.24
194.26	3475.40
194.48	2967.51
194.70	3008.47
194.92	3364.81
195.14	3639.24
195.36	2971.60
195.58	3071.95
195.80	3411.92
196.02	3313.61
196.24	2949.08
196.46	3069.91
196.69	3504.07
196.91	3991.49
197.13	3041.23
197.35	2983.89
197.57	3833.80
197.79	3721.16
198.01	3117.01
198.23	2967.51
198.45	3491.79
198.67	3188.69
198.89	2815.96
199.11	3014.61
199.33	3344.33
199.55	3018.71
199.77	2842.58
199.99	3127.25
200.21	3377.10
200.43	3596.23
200.65	2885.59
200.87	2885.59
201.09	3522.51
201.31	3428.30
201.53	2987.99
201.75	3078.10
201.97	3575.75
202.19	3426.25
202.41	3100.62
202.63	3106.77
202.85	3553.23
203.07	3444.68
203.29	3061.71
203.51	2879.44
203.73	3344.33
203.95	3993.54
204.17	2873.30
204.39	3119.06
204.61	3342.28
204.83	3350.48
205.05	3192.78
205.27	2953.17
205.49	4009.92
205.71	3413.96
205.93	2818.00
206.15	2791.38
206.37	3475.40
206.59	3428.30
206.81	2818.00
207.03	2895.83
207.25	3319.76
207.47	3565.51
207.69	2944.98
207.91	3190.74
208.13	3827.65
208.34	3289.04
208.56	2938.84
208.78	3024.85
209.00	3438.54
209.22	3395.53
209.44	2996.18
209.66	2936.79
209.88	3549.13
210.10	3444.68
210.32	3010.51
210.54	3069.91
210.76	3309.52
210.98	3696.58
211.20	2781.14
211.42	3131.34
211.64	3708.87
211.86	3606.47
212.08	3028.95
212.30	3041.23
212.52	3348.43
212.74	3518.41
212.96	3131.34
213.17	3041.23
213.39	3620.81
213.61	3745.73
213.83	2883.54
214.05	2752.47
214.27	3737.54
214.49	3286.99
214.71	2906.07
214.93	3065.81
215.15	3434.44
215.37	3583.95
215.59	2852.82
215.81	3016.66
216.03	3790.79
216.24	3467.21
216.46	2934.74
216.68	3033.04
216.90	3553.23
217.12	3700.68
217.34	2865.11
217.56	3184.59
217.78	3868.61
218.00	3540.94
218.22	3076.05
218.44	3172.30
218.66	3456.97
218.87	3846.09
219.09	3043.28
219.31	2998.23
219.53	3549.13
219.75	3428.30
219.97	3018.71
220.19	2979.79
220.41	3381.20
220.63	3747.78
220.85	2990.03
221.06	3004.37
221.28	3700.68
221.50	3614.66
221.72	2951.12
221.94	2885.59
222.16	3407.82
222.38	3680.20
222.60	2840.53
222.82	3020.75
223.03	3643.34
223.25	3205.07
223.47	2928.60
223.69	3188.69
223.91	3571.66
224.13	3596.23
224.35	2879.44
224.57	3114.96
224.78	3633.10
225.00	3196.88
225.22	3119.06
225.44	2881.49
225.66	3594.19
225.88	3375.05
226.10	3139.54
226.32	2951.12
226.53	3741.64
226.75	3344.33
226.97	3065.81
227.19	2959.31
227.41	3332.05
227.63	3373.00
227.85	2729.94
228.06	3010.51
228.28	3508.17
228.50	3588.04
228.72	2766.81
228.94	2906.07
229.16	3020.75
229.37	3231.69
229.59	2899.92
229.81	3231.69
230.03	3330.00
230.25	3127.25
230.47	2848.72
230.69	2826.20
230.90	3604.42
231.12	3336.14
231.34	3196.88
231.56	2951.12
231.78	3196.88
232.00	3518.41
232.21	3010.51
232.43	2979.79
232.65	2963.41
232.87	3567.56
233.09	2846.68
233.30	2920.40
233.52	3645.38
233.74	3397.58
233.96	2799.57
234.18	3065.81
234.40	3346.38
234.61	3971.01
234.83	2850.77
235.05	2951.12
235.27	4030.40
235.49	3790.79
235.70	2852.82
235.92	2897.88
236.14	3581.90
236.36	4009.92
236.58	2854.87
236.79	3022.80
237.01	3409.87
237.23	3409.87
237.45	3227.60
237.67	2930.64
237.88	3532.75
238.10	3878.85
238.32	2875.35
238.54	2865.11
238.76	3514.31
238.97	3233.74
239.19	2834.39
239.41	3037.14
239.63	3755.97
239.85	3327.95
240.06	2983.89
240.28	2912.21
240.50	3622.86
240.72	3522.51
240.93	2852.82
241.15	3024.85
241.37	3434.44
241.59	3772.36
241.81	3008.47
242.02	3018.71
242.24	3430.35
242.46	3567.56
242.68	2809.81
242.89	2901.97
243.11	3604.42
243.33	3434.44
243.55	2947.03
243.76	2877.40
243.98	3299.28
244.20	3522.51
244.42	2910.16
244.64	2889.68
244.85	3186.64
245.07	3319.76
245.29	2992.08
245.51	3037.14
245.72	3518.41
245.94	3733.45
246.16	2861.01
246.38	2916.31
246.59	3336.14
246.81	3307.47
247.03	2869.20
247.24	2824.15
247.46	3373.00
247.68	3585.99
247.90	2940.88
248.11	2985.94
248.33	3575.75
248.55	3430.35
248.77	2953.17
248.98	3086.29
249.20	3764.17
249.42	3516.36
249.64	2942.93
249.85	2918.36
250.07	3297.23
250.29	3606.47
250.50	3088.34
250.72	2924.50
250.94	3579.85
251.16	3946.44
251.37	2887.64
251.59	2947.03
251.81	3461.07
252.02	3766.21
252.24	2877.40
252.46	3114.96
252.68	3256.27
252.89	3274.70
253.11	2822.10
253.33	3188.69
253.54	3792.84
253.76	3272.65
253.98	2977.75
254.20	2969.55
254.41	3166.16
254.63	3321.81
254.85	2791.38
255.06	3051.47
255.28	3463.12
255.50	3315.66
255.71	2975.70
255.93	2805.72
256.15	3471.31
256.36	3524.55
256.58	2844.63
256.80	2897.88
257.02	3399.63
257.23	3282.89
257.45	2992.08
257.67	3123.15
257.88	3358.67
258.10	3542.99
258.32	2959.31
258.53	3078.10
258.75	3794.89
258.97	3239.89
259.18	2824.15
259.40	2856.92
259.62	3821.51
259.83	3829.70
260.05	2955.22
260.27	4007.87
260.48	3635.14
260.70	3221.45
260.92	2789.33
261.13	2973.65
261.35	3559.37
261.57	3585.99
261.78	2910.16
262.00	2822.10
262.22	3647.43
262.43	3235.79
262.65	3039.19
262.86	2963.41
263.08	3995.59
263.30	3444.68
263.51	2844.63
263.73	2938.84
263.95	3762.12
264.16	3305.42
264.38	2861.01
264.60	2916.31
264.81	3418.06
265.03	3592.14
265.25	3452.88
265.46	2883.54
265.68	3770.31
265.89	3583.95
266.11	2807.77
266.33	2996.18
266.54	3710.92
266.76	3577.80
266.98	2971.60
267.19	3188.69
267.41	3717.06
267.62	3461.07
267.84	2754.52
268.06	3061.71
268.27	3477.45
268.49	3684.30
268.70	2983.89
268.92	2985.94
269.14	3200.98
269.35	3108.82
269.57	3063.76
269.79	3014.61
270.00	3248.08
270.22	3700.68
270.43	2793.43
270.65	2838.48
270.87	3547.08
271.08	3712.97
271.30	3026.90
271.51	3123.15
271.73	3549.13
271.95	3719.11
272.16	2887.64
272.38	3127.25
272.59	3459.02
272.81	3583.95
273.02	2959.31
273.24	3049.43
273.46	3821.51
273.67	3198.93
273.89	2852.82
274.10	2979.79
274.32	3657.67
274.54	3463.12
274.75	3061.71
274.97	3000.27
275.18	3600.33
275.40	3612.62
275.61	3059.67
275.83	3196.88
276.05	3239.89
276.26	3456.97
276.48	3108.82
276.69	3125.20
276.91	3403.72
277.12	3762.12
277.34	3217.36
277.55	3221.45
277.77	3420.11
277.99	3346.38
278.20	3078.10
278.42	2938.84
278.63	3266.51
278.85	3213.26
279.06	3065.81
279.28	3229.65
279.49	3676.10
279.71	3600.33
279.93	3090.38
280.14	3131.34
280.36	3334.09
280.57	3688.39
280.79	3231.69
281.00	2961.36
281.22	3325.90
281.43	3686.34
281.65	2910.16
281.86	2981.84
282.08	3542.99
282.29	3798.98
282.51	3016.66
282.73	3004.37
282.94	3147.73
283.16	3639.24
283.37	3221.45
283.59	3151.82
283.80	3590.09
284.02	3422.16
284.23	3106.77
284.45	3157.97
284.66	3338.19
284.88	3196.88
285.09	3016.66
285.31	3151.82
285.52	3461.07
285.74	3147.73
285.95	3301.33
286.17	3149.78
286.38	3647.43
286.60	3360.72
286.81	3123.15
287.03	3074.00
287.24	3432.40
287.46	3590.09
287.67	3229.65
287.89	3305.42
288.10	3479.50
288.32	3469.26
288.53	3248.08
288.75	3147.73
288.96	3526.60
289.18	3338.19
289.39	2979.79
289.61	3198.93
289.82	3878.85
290.04	3887.04
290.25	2940.88
290.47	3211.22
290.68	3422.16
290.90	3651.53
291.11	2871.25
291.33	3229.65
291.54	3221.45
291.76	3352.52
291.97	3272.65
292.18	3168.21
292.40	3313.61
292.61	3237.84
292.83	3352.52
293.04	3094.48
293.26	3520.46
293.47	3407.82
293.69	3008.47
293.90	2951.12
294.12	3733.45
294.33	3469.26
294.55	3141.58
294.76	3278.80
294.97	3688.39
295.19	3915.72
295.40	2983.89
295.62	3141.58
295.83	3620.81
296.05	3315.66
296.26	3364.81
296.48	3151.82
296.69	3375.05
296.90	3393.48
297.12	3264.46
297.33	3278.80
297.55	3514.31
297.76	3516.36
297.98	3168.21
298.19	3276.75
298.41	3473.36
298.62	3184.59
298.83	3303.37
299.05	3196.88
299.26	3368.91
299.48	3307.47
299.69	3166.16
299.90	3033.04
300.12	3299.28
300.33	3669.96
300.55	3076.05
300.76	3123.15
300.98	3233.74
301.19	3565.51
301.40	3102.67
301.62	3100.62
301.83	3485.64
302.05	3387.34
302.26	3084.24
302.47	3157.97
302.69	3186.64
302.90	3440.59
303.12	2953.17
303.33	3227.60
303.54	3893.19
303.76	3295.18
303.97	3008.47
304.19	3246.03
304.40	3299.28
304.61	3444.68
304.83	3166.16
305.04	3112.91
305.26	3637.19
305.47	3301.33
305.68	3086.29
305.90	2963.41
306.11	3680.20
306.33	3327.95
306.54	2916.31
306.75	3061.71
306.97	3151.82
307.18	3205.07
307.39	3112.91
307.61	3164.11
307.82	3387.34
308.04	3512.27
308.25	2975.70
308.46	3276.75
308.68	3395.53
308.89	3375.05
309.10	3246.03
309.32	3192.78
309.53	3391.44
309.74	3524.55
309.96	3049.43
310.17	3180.50
310.39	3266.51
310.60	3485.64
310.81	3141.58
311.03	3108.82
311.24	3547.08
311.45	3434.44
311.67	3352.52
311.88	3321.81
312.09	3344.33
312.31	3258.32
312.52	2975.70
312.73	2977.75
312.95	3164.11
313.16	3252.17
313.37	3229.65
313.59	3321.81
313.80	3674.06
314.01	3817.41
314.23	3137.49
314.44	3012.56
314.65	3211.22
314.87	3321.81
315.08	3088.34
315.29	3059.67
315.51	3256.27
315.72	3141.58
315.93	3170.26
316.15	3198.93
316.36	3416.01
316.57	3493.83
316.79	2994.13
317.00	3018.71
317.21	3633.10
317.43	3346.38
317.64	3121.10
317.85	3045.33
318.07	3229.65
318.28	3409.87
318.49	3172.30
318.70	3301.33
318.92	3358.67
319.13	3422.16
319.34	3254.22
319.56	3010.51
319.77	3522.51
319.98	3526.60
320.20	3409.87
320.41	3233.74
320.62	3577.80
320.83	3213.26
321.05	3344.33
321.26	3074.00
321.47	3508.17
321.69	3774.41
321.90	3028.95
322.11	3043.28
322.32	3422.16
322.54	3735.50
322.75	3155.92
322.96	4159.42
323.18	3164.11
323.39	3086.29
323.60	3043.28
323.81	3157.97
324.03	3282.89
324.24	3387.34
324.45	3213.26
324.66	3094.48
324.88	3696.58
325.09	3786.69
325.30	3041.23
325.52	3110.86
325.73	3524.55
325.94	3250.13
326.15	2965.46
326.37	2955.22
326.58	3678.15
326.79	3774.41
327.00	3053.52
327.22	3065.81
327.43	3344.33
327.64	3262.41
327.85	3239.89
328.07	3127.25
328.28	3868.61
328.49	3377.10
328.70	3098.58
328.92	3030.99
329.13	3377.10
329.34	3530.70
329.55	3356.62
329.76	3325.90
329.98	3342.28
330.19	3747.78
330.40	3239.89
330.61	3198.93
330.83	3647.43
331.04	3266.51
331.25	3205.07
331.46	3168.21
331.68	3157.97
331.89	3721.16
332.10	3114.96
332.31	2951.12
332.52	3471.31
332.74	3672.01
332.95	2906.07
333.16	3065.81
333.37	3569.61
333.58	3336.14
333.80	3147.73
334.01	2918.36
334.22	3540.94
334.43	3289.04
334.64	3088.34
334.86	2992.08
335.07	3200.98
335.28	3870.66
335.49	2959.31
335.70	3286.99
335.92	3755.97
336.13	3979.20
336.34	3164.11
336.55	3059.67
336.76	3585.99
336.98	2996.18
337.19	3098.58
337.40	3254.22
337.61	4020.16
337.82	3397.58
338.04	3217.36
338.25	2908.12
338.46	3397.58
338.67	3387.34
338.88	3098.58
339.09	2938.84
339.31	3360.72
339.52	3291.09
339.73	3010.51
339.94	3104.72
340.15	3618.76
340.36	3291.09
340.58	3223.50
340.79	3035.09
341.00	3622.86
341.21	3104.72
341.42	3377.10
341.63	3086.29
341.85	3723.21
342.06	3553.23
342.27	3094.48
342.48	3346.38
342.69	3151.82
342.90	3530.70
343.12	3573.71
343.33	3016.66
343.54	3739.59
343.75	3846.09
343.96	3203.02
344.17	3016.66
344.38	3489.74
344.60	3307.47
344.81	3002.32
345.02	3098.58
345.23	3700.68
345.44	3930.05
345.65	3145.68
345.86	3229.65
346.07	3542.99
346.29	3325.90
346.50	3237.84
346.71	3168.21
346.92	3657.67
347.13	3839.94
347.34	3274.70
347.55	2975.70
347.76	3540.94
347.98	3164.11
348.19	3186.64
348.40	3258.32
348.61	3403.72
348.82	3844.04
349.03	3190.74
349.24	3067.86
349.45	3882.95
349.66	3008.47
349.88	3071.95
350.09	3026.90
350.30	3809.22
350.51	3715.02
350.72	3270.61
350.93	3049.43
351.14	3295.18
351.35	3459.02
351.56	3143.63
351.77	3143.63
351.99	3606.47
352.20	3708.87
352.41	3180.50
352.62	2936.79
352.83	3479.50
353.04	3411.92
353.25	3194.83
353.46	3178.45
353.67	3733.45
353.88	2996.18
354.09	3026.90
354.30	3151.82
354.52	3729.35
354.73	3368.91
354.94	3043.28
355.15	3137.49
355.36	3852.23
355.57	3280.85
355.78	3012.56
355.99	3082.19
356.20	3395.53
356.41	3743.69
356.62	3213.26
356.83	3102.67
357.04	3626.95
357.25	3114.96
357.46	3035.09
357.68	3045.33
357.89	3241.93
358.10	3409.87
358.31	3147.73
358.52	3172.30
358.73	3266.51
358.94	3205.07
359.15	3063.76
359.36	3143.63
359.57	3452.88
359.78	3325.90
359.99	3266.51
360.20	2944.98
360.41	3395.53
360.62	3512.27
360.83	3182.54
361.04	3166.16
361.25	3577.80
361.46	3798.98
361.67	3205.07
361.88	3112.91
362.09	3618.76
362.30	3483.59
362.51	3006.42
362.72	3098.58
362.93	3579.85
363.14	3526.60
363.35	3174.35
363.56	3016.66
363.78	3715.02
363.99	3674.06
364.20	3106.77
364.41	3133.39
364.62	3745.73
364.83	3491.79
365.04	3090.38
365.25	3121.10
365.46	3880.90
365.67	3340.24
365.88	3264.46
366.09	3059.67
366.30	3368.91
366.51	3479.50
366.72	3076.05
366.93	3094.48
367.14	3473.36
367.35	3762.12
367.56	3035.09
367.77	3246.03
367.98	3465.16
368.18	3655.62
368.39	3260.37
368.60	3063.76
368.81	3647.43
369.02	3532.75
369.23	3088.34
369.44	2944.98
369.65	3336.14
369.86	3526.60
370.07	3319.76
370.28	3000.27
370.49	3514.31
370.70	3561.42
370.91	2971.60
371.12	3033.04
371.33	3680.20
371.54	3330.00
371.75	3188.69
371.96	2820.05
372.17	3475.40
372.38	3330.00
372.59	3182.54
372.80	3065.81
373.01	3438.54
373.22	3573.71
373.43	3069.91
373.64	2977.75
373.85	3672.01
374.06	3770.31
374.26	3266.51
374.47	3239.89
374.68	3776.45
374.89	3559.37
375.10	2934.74
375.31	3205.07
375.52	3536.84
375.73	3467.21
375.94	3008.47
376.15	3162.06
376.36	3330.00
376.57	3315.66
376.78	3164.11
376.99	3192.78
377.20	3729.35
377.40	3231.69
377.61	3426.25
377.82	3006.42
378.03	3796.93
378.24	3649.48
378.45	3188.69
378.66	3200.98
378.87	3092.43
379.08	3139.54
379.29	3100.62
379.50	3217.36
379.71	3389.39
379.91	3602.38
380.12	3145.68
380.33	3295.18
380.54	3428.30
380.75	3401.68
380.96	3102.67
381.17	3074.00
381.38	3459.02
381.59	3459.02
381.80	3164.11
382.00	3252.17
382.21	3434.44
382.42	3749.83
382.63	3454.92
382.84	3278.80
383.05	3575.75
383.26	3712.97
383.47	3311.57
383.68	3092.43
383.88	3518.41
384.09	3456.97
384.30	3387.34
384.51	3317.71
384.72	3362.76
384.93	3110.86
385.14	3262.41
385.35	3362.76
385.55	3143.63
385.76	3676.10
385.97	3133.39
386.18	2944.98
386.39	3286.99
386.60	3317.71
386.81	3051.47
387.02	2977.75
387.22	3223.50
387.43	3614.66
387.64	3221.45
387.85	3364.81
388.06	3426.25
388.27	4321.21
388.48	7186.32
388.68	10946.39
388.89	13584.18
389.10	14538.53
389.31	14356.26
389.52	11523.92
389.73	10428.26
389.93	9391.98
390.14	8421.25
390.35	7747.47
390.56	7413.65
390.77	6223.78
390.98	4808.63
391.18	4181.95
391.39	3917.76
391.60	3495.88
391.81	3452.88
392.02	3166.16
392.23	3950.53
392.43	3473.36
392.64	3155.92
392.85	3229.65
393.06	3819.46
393.27	3487.69
393.47	3090.38
393.68	3203.02
393.89	3401.68
394.10	3700.68
394.31	3112.91
394.52	3133.39
394.72	3278.80
394.93	3821.51
395.14	3024.85
395.35	3239.89
395.56	3270.61
395.76	3411.92
395.97	3168.21
396.18	3305.42
396.39	3391.44
396.60	4083.65
396.80	3452.88
397.01	3401.68
397.22	3663.82
397.43	3643.34
397.64	3151.82
397.84	3188.69
398.05	3835.85
398.26	3362.76
398.47	3278.80
398.67	3481.55
398.88	3483.59
399.09	3567.56
399.30	3084.24
399.51	3188.69
399.71	3309.52
399.92	3456.97
400.13	3192.78
400.34	3123.15
400.54	3528.65
400.75	3745.73
400.96	3307.47
401.17	3407.82
401.37	3475.40
401.58	3393.48
401.79	3071.95
402.00	3239.89
402.21	3991.49
402.41	3612.62
402.62	3348.43
402.83	3518.41
403.04	3715.02
403.24	4310.97
403.45	3215.31
403.66	3502.03
403.87	3657.67
404.07	3801.03
404.28	3413.96
404.49	3471.31
404.70	3467.21
404.90	3516.36
405.11	3076.05
405.32	3250.13
405.52	3317.71
405.73	3299.28
405.94	3110.86
406.15	3213.26
406.35	3538.89
406.56	3667.91
406.77	3223.50
406.98	3151.82
407.18	3327.95
407.39	3846.09
407.60	3114.96
407.80	3190.74
408.01	3246.03
408.22	3620.81
408.43	2979.79
408.63	3256.27
408.84	3641.29
409.05	3538.89
409.25	3035.09
409.46	3237.84
409.67	3391.44
409.88	3280.85
410.08	3176.40
410.29	3082.19
410.50	3608.52
410.70	3555.27
410.91	3078.10
411.12	3164.11
411.32	3409.87
411.53	3276.75
411.74	3196.88
411.95	3272.65
412.15	3489.74
412.36	3594.19
412.57	3266.51
412.77	3291.09
412.98	3330.00
413.19	3340.24
413.39	3162.06
413.60	3125.20
413.81	3708.87
414.01	3178.45
414.22	3207.12
414.43	3393.48
414.63	3323.85
414.84	3598.28
415.05	3213.26
415.25	3012.56
415.46	3633.10
415.67	3286.99
415.87	3174.35
416.08	3106.77
416.29	3289.04
416.49	3581.90
416.70	3246.03
416.91	3188.69
417.11	3282.89
417.32	3649.48
417.53	3278.80
417.73	3203.02
417.94	3446.73
418.15	3397.58
418.35	3207.12
418.56	3168.21
418.77	3942.34
418.97	3516.36
419.18	3307.47
419.38	2848.72
419.59	3397.58
419.80	3758.02
420.00	3026.90
420.21	3123.15
420.42	3704.78
420.62	3530.70
420.83	3135.44
421.04	3102.67
421.24	3356.62
421.45	3547.08
421.65	3188.69
421.86	3215.31
422.07	3753.93
422.27	3557.32
422.48	3088.34
422.69	3067.86
422.89	3366.86
423.10	3303.37
423.30	3074.00
423.51	3172.30
423.72	3624.90
423.92	3629.00
424.13	3069.91
424.33	3272.65
424.54	3657.67
424.75	3401.68
424.95	3358.67
425.16	3053.52
425.36	3385.29
425.57	3669.96
425.78	3303.37
425.98	3237.84
426.19	3370.96
426.39	3205.07
426.60	3280.85
426.81	3239.89
427.01	3493.83
427.22	3293.13
427.42	3045.33
427.63	3119.06
427.83	3655.62
428.04	3817.41
428.25	3168.21
428.45	3215.31
428.66	3762.12
428.86	3399.63
429.07	3147.73
429.28	3192.78
429.48	3520.46
429.69	3303.37
429.89	3258.32
430.10	3117.01
430.30	3620.81
430.51	3700.68
430.71	3119.06
430.92	3237.84
431.13	3338.19
431.33	3565.51
431.54	3254.22
431.74	3289.04
431.95	3932.10
432.15	3166.16
432.36	3147.73
432.56	3256.27
432.77	3827.65
432.98	3885.00
433.18	3194.83
433.39	3010.51
433.59	3459.02
433.80	3887.04
434.00	3282.89
434.21	3264.46
434.41	3307.47
434.62	3958.72
434.82	2992.08
435.03	3067.86
435.23	3522.51
435.44	3106.77
435.64	3127.25
435.85	3209.17
436.06	3672.01
436.26	3653.58
436.47	3188.69
436.67	3117.01
436.88	3330.00
437.08	3647.43
437.29	3260.37
437.49	3323.85
437.70	3659.72
437.90	3360.72
438.11	3338.19
438.31	3256.27
438.52	3801.03
438.72	3729.35
438.93	3420.11
439.13	3348.43
439.34	3598.28
439.54	3344.33
439.75	3262.41
439.95	3170.26
440.16	3258.32
440.36	3483.59
440.57	3166.16
440.77	3102.67
440.98	3450.83
441.18	3547.08
441.39	2992.08
441.59	3020.75
441.80	3979.20
442.00	3459.02
442.21	3213.26
442.41	3033.04
442.62	3715.02
442.82	3264.46
443.02	3192.78
443.23	3172.30
443.43	3338.19
443.64	3762.12
443.84	3049.43
444.05	3282.89
444.25	3442.64
444.46	3344.33
444.66	3162.06
444.87	3409.87
445.07	3106.77
445.28	3418.06
445.48	3254.22
445.69	3192.78
445.89	4009.92
446.09	3381.20
446.30	3456.97
446.50	3534.79
446.71	5017.52
446.91	6104.99
447.12	6731.67
447.32	7237.52
447.53	7292.82
447.73	6150.05
447.93	5291.95
448.14	5205.94
448.34	5408.69
448.55	4466.62
448.75	4417.47
448.96	4036.55
449.16	4114.37
449.36	4052.93
449.57	3409.87
449.77	3295.18
449.98	3340.24
450.18	3520.46
450.39	3205.07
450.59	3370.96
450.79	3401.68
451.00	3303.37
451.20	3352.52
451.41	3063.76
451.61	3473.36
451.81	3456.97
452.02	3096.53
452.22	3110.86
452.43	3428.30
452.63	3293.13
452.84	3227.60
453.04	3018.71
453.24	3538.89
453.45	3348.43
453.65	3241.93
453.86	3188.69
454.06	3430.35
454.26	3469.26
454.47	3131.34
454.67	3379.15
454.87	3569.61
455.08	3391.44
455.28	3264.46
455.49	3370.96
455.69	3270.61
455.89	3823.56
456.10	3299.28
456.30	3106.77
456.51	3532.75
456.71	3446.73
456.91	3264.46
457.12	3147.73
457.32	3616.71
457.52	3188.69
457.73	3319.76
457.93	3344.33
458.14	3321.81
458.34	2992.08
458.54	3213.26
458.75	3153.87
458.95	3719.11
459.15	3442.64
459.36	3121.10
459.56	3106.77
459.76	3973.06
459.97	3452.88
460.17	3157.97
460.37	3213.26
460.58	3454.92
460.78	3659.72
460.99	3215.31
461.19	3160.02
461.39	3348.43
461.60	3426.25
461.80	3203.02
462.00	3084.24
462.21	3512.27
462.41	3260.37
462.61	2998.23
462.82	2983.89
463.02	3547.08
463.22	3413.96
463.43	3125.20
463.63	3090.38
463.83	3735.50
464.04	3577.80
464.24	3110.86
464.44	3157.97
464.64	3549.13
464.85	3676.10
465.05	3168.21
465.25	3076.05
465.46	3297.23
465.66	3598.28
465.86	3246.03
466.07	3180.50
466.27	3332.05
466.47	3172.30
466.68	3106.77
466.88	3246.03
467.08	3610.57
467.29	3657.67
467.49	3180.50
467.69	3307.47
467.89	3567.56
468.10	3469.26
468.30	3205.07
468.50	3229.65
468.71	3629.00
468.91	3123.15
469.11	3377.10
469.31	3237.84
469.52	3252.17
469.72	3874.76
469.92	3409.87
470.13	3139.54
470.33	3428.30
470.53	3481.55
470.73	3551.18
470.94	3782.60
471.14	3940.29
471.34	4577.21
471.54	4186.05
471.75	3852.23
471.95	3803.08
472.15	3749.83
472.36	3719.11
472.56	3512.27
472.76	4028.35
472.96	3803.08
473.17	3452.88
473.37	3295.18
473.57	3385.29
473.77	3571.66
473.98	3356.62
474.18	3129.30
474.38	4155.33
474.58	3289.04
474.79	2969.55
474.99	3250.13
475.19	3704.78
475.39	3209.17
475.60	3237.84
475.80	3110.86
476.00	3567.56
476.20	3352.52
476.41	3317.71
476.61	3239.89
476.81	3823.56
477.01	3229.65
477.21	3330.00
477.42	3286.99
477.62	3319.76
477.82	3557.32
478.02	3112.91
478.23	3147.73
478.43	3221.45
478.63	3436.49
478.83	3172.30
479.03	3241.93
479.24	3751.88
479.44	3866.56
479.64	3102.67
479.84	2992.08
480.04	3282.89
480.25	3633.10
480.45	3149.78
480.65	3149.78
480.85	3626.95
481.06	3291.09
481.26	3340.24
481.46	3172.30
481.66	3563.47
481.86	3330.00
482.06	3360.72
482.27	3303.37
482.47	3401.68
482.67	3532.75
482.87	3151.82
483.07	3180.50
483.28	3338.19
483.48	3229.65
483.68	3211.22
483.88	3114.96
484.08	3022.80
484.29	3162.06
484.49	3286.99
484.69	2977.75
484.89	3764.17
485.09	3594.19
485.29	3119.06
485.50	3397.58
485.70	3272.65
485.90	3661.77
486.10	3311.57
486.30	2998.23
486.50	3706.82
486.71	3514.31
486.91	3237.84
487.11	3246.03
487.31	3174.35
487.51	3569.61
487.71	3155.92
487.91	3135.44
488.12	3334.09
488.32	2994.13
488.52	3211.22
488.72	2916.31
488.92	3467.21
489.12	3688.39
489.32	3280.85
489.53	3139.54
489.73	3125.20
489.93	3786.69
490.13	3114.96
490.33	2967.51
490.53	3487.69
490.73	3665.86
490.94	3051.47
491.14	3305.42
491.34	3624.90
491.54	3446.73
491.74	3921.86
491.94	4421.56
492.14	5183.41
492.34	5099.44
492.54	4769.72
492.75	4130.75
492.95	4407.23
493.15	4034.50
493.35	3801.03
493.55	3682.25
493.75	3686.34
493.95	3911.62
494.15	3411.92
494.35	3221.45
494.56	3493.83
494.76	3334.09
494.96	3391.44
495.16	3037.14
495.36	3489.74
495.56	3495.88
495.76	3291.09
495.96	3160.02
496.16	3291.09
496.36	3876.80
496.56	3080.14
496.77	3254.22
496.97	3344.33
497.17	3721.16
497.37	2998.23
497.57	3289.04
497.77	3561.42
497.97	3289.04
498.17	3192.78
498.37	3141.58
498.57	3538.89
498.77	3332.05
498.97	3303.37
499.17	3553.23
499.38	3495.88
499.58	3551.18
499.78	3377.10
499.98	3299.28
500.18	3338.19
500.38	3196.88
500.58	3368.91
500.78	3770.31
500.98	5957.54
501.18	7776.14
501.38	8992.63
501.58	9842.54
501.78	9906.02
501.98	8447.87
502.18	7077.78
502.38	6033.32
502.58	6178.72
502.78	5498.80
502.98	5171.12
503.18	5085.11
503.38	4779.96
503.59	4280.25
503.79	4052.93
503.99	3747.78
504.19	3983.30
504.39	3954.63
504.59	3602.38
504.79	3471.31
504.99	4032.45
505.19	3581.90
505.39	3205.07
505.59	3504.07
505.79	3839.94
505.99	3696.58
506.19	3194.83
506.39	3366.86
506.59	3430.35
506.79	3428.30
506.99	3444.68
507.19	3106.77
507.39	3493.83
507.59	3203.02
507.79	3145.68
507.99	3123.15
508.19	3432.40
508.39	3264.46
508.59	3143.63
508.79	3250.13
508.99	3899.33
509.19	3260.37
509.39	3284.94
509.59	3035.09
509.79	3217.36
509.99	3598.28
510.19	3315.66
510.39	3346.38
510.59	3512.27
510.79	3413.96
510.99	2922.45
511.19	3139.54
511.39	3753.93
511.59	3657.67
511.79	3284.94
511.99	3112.91
512.19	3827.65
512.38	3444.68
512.58	3098.58
512.78	3074.00
512.98	3798.98
513.18	3784.65
513.38	3143.63
513.58	3258.32
513.78	3428.30
513.98	3409.87
514.18	3270.61
514.38	3192.78
514.58	3524.55
514.78	3303.37
514.98	3078.10
515.18	3196.88
515.38	3219.41
515.58	3803.08
515.78	3098.58
515.98	3180.50
516.18	3686.34
516.38	3477.45
516.57	3061.71
516.77	3106.77
516.97	3659.72
517.17	3338.19
517.37	3000.27
517.57	3239.89
517.77	3450.83
517.97	3330.00
518.17	3231.69
518.37	3012.56
518.57	3254.22
518.77	3311.57
518.97	3186.64
519.16	3196.88
519.36	3645.38
519.56	3340.24
519.76	3096.53
519.96	3248.08
520.16	3831.75
520.36	3233.74
520.56	3344.33
520.76	3164.11
520.96	3278.80
521.16	3598.28
521.35	3350.48
521.55	3309.52
521.75	3491.79
521.95	3278.80
522.15	3098.58
522.35	2985.94
522.55	3264.46
522.75	3520.46
522.95	3096.53
523.14	3020.75
523.34	3448.78
523.54	3342.28
523.74	3389.39
523.94	3286.99
524.14	3125.20
524.34	3520.46
524.54	3327.95
524.73	3194.83
524.93	3545.03
525.13	3483.59
525.33	3024.85
525.53	3446.73
525.73	3672.01
525.93	3524.55
526.13	3258.32
526.32	3074.00
526.52	3616.71
526.72	3506.12
526.92	3198.93
527.12	3000.27
527.32	3141.58
527.52	3485.64
527.71	3205.07
527.91	3293.13
528.11	3330.00
528.31	3352.52
528.51	3151.82
528.71	3278.80
528.90	3534.79
529.10	3739.59
529.30	3172.30
529.50	2920.40
529.70	3448.78
529.90	3315.66
530.09	3143.63
530.29	3033.04
530.49	3301.33
530.69	4075.46
530.89	3344.33
531.09	3299.28
531.28	3332.05
531.48	3737.54
531.68	3213.26
531.88	3180.50
532.08	3563.47
532.28	3389.39
532.47	3278.80
532.67	3272.65
532.87	3532.75
533.07	3338.19
533.27	3317.71
533.46	3243.98
533.66	3508.17
533.86	3373.00
534.06	3200.98
534.26	3090.38
534.45	3420.11
534.65	3540.94
534.85	3323.85
535.05	3133.39
535.25	3626.95
535.44	3065.81
535.64	3151.82
535.84	3221.45
536.04	3426.25
536.24	3321.81
536.43	3094.48
536.63	3149.78
536.83	3411.92
537.03	3336.14
537.22	2979.79
537.42	3012.56
537.62	3559.37
537.82	3248.08
538.02	3370.96
538.21	3246.03
538.41	4065.22
538.61	3549.13
538.81	3172.30
539.00	3299.28
539.20	3149.78
539.40	3358.67
539.60	3098.58
539.79	3428.30
539.99	3393.48
540.19	3166.16
540.39	3094.48
540.58	3237.84
540.78	3639.24
540.98	3569.61
541.18	3393.48
541.37	3237.84
541.57	3448.78
541.77	3483.59
541.97	3106.77
542.16	2987.99
542.36	3330.00
542.56	3254.22
542.76	3293.13
542.95	3262.41
543.15	3585.99
543.35	3522.51
543.54	3139.54
543.74	3057.62
543.94	3684.30
544.14	3303.37
544.33	3340.24
544.53	3155.92
544.73	3401.68
544.93	3330.00
545.12	3129.30
545.32	3108.82
545.52	3397.58
545.71	3203.02
545.91	3157.97
546.11	3080.14
546.30	3252.17
546.50	3313.61
546.70	3282.89
546.90	3100.62
547.09	3094.48
547.29	3459.02
547.49	3297.23
547.68	3114.96
547.88	3321.81
548.08	3561.42
548.27	3469.26
548.47	3065.81
548.67	3375.05
548.87	3436.49
549.06	3170.26
549.26	3094.48
549.46	3575.75
549.65	3286.99
549.85	3264.46
550.05	3237.84
550.24	3207.12
550.44	3459.02
550.64	3291.09
550.83	3262.41
551.03	3790.79
551.23	3626.95
551.42	3160.02
551.62	3221.45
551.82	3409.87
552.01	3305.42
552.21	3514.31
552.41	3278.80
552.60	3739.59
552.80	3499.98
553.00	3053.52
553.19	3180.50
553.39	3755.97
553.59	3225.55
553.78	3368.91
553.98	3074.00
554.17	3207.12
554.37	3508.17
554.57	3272.65
554.76	3078.10
554.96	3270.61
555.16	3432.40
555.35	3205.07
555.55	3391.44
555.75	3448.78
555.94	3598.28
556.14	2918.36
556.33	3203.02
556.53	3426.25
556.73	3461.07
556.92	3149.78
557.12	3045.33
557.32	3868.61
557.51	3684.30
557.71	3119.06
557.90	3252.17
558.10	3712.97
558.30	3303.37
558.49	3262.41
558.69	3207.12
558.88	3536.84
559.08	3549.13
559.28	3229.65
559.47	3264.46
559.67	3545.03
559.86	3952.58
560.06	3123.15
560.26	3190.74
560.45	3557.32
560.65	3381.20
560.84	3499.98
561.04	3094.48
561.24	3555.27
561.43	3248.08
561.63	3499.98
561.82	3313.61
562.02	3588.04
562.22	3246.03
562.41	3125.20
562.61	3164.11
562.80	3182.54
563.00	3977.16
563.19	3186.64
563.39	3284.94
563.59	3594.19
563.78	3174.35
563.98	2947.03
564.17	3178.45
564.37	3114.96
564.56	3362.76
564.76	3139.54
564.96	3340.24
565.15	3497.93
565.35	3944.39
565.54	3213.26
565.74	3198.93
565.93	3452.88
566.13	3420.11
566.32	3262.41
566.52	3272.65
566.71	3401.68
566.91	3674.06
567.11	3278.80
567.30	3117.01
567.50	3530.70
567.69	3573.71
567.89	3180.50
568.08	3151.82
568.28	3499.98
568.47	3196.88
568.67	3153.87
568.86	3164.11
569.06	3647.43
569.25	3344.33
569.45	3022.80
569.64	3250.13
569.84	3364.81
570.04	3534.79
570.23	3219.41
570.43	3299.28
570.62	3502.03
570.82	3794.89
571.01	3117.01
571.21	3151.82
571.40	3207.12
571.60	3559.37
571.79	3184.59
571.99	3149.78
572.18	3176.40
572.38	3567.56
572.57	3221.45
572.77	3217.36
572.96	3878.85
573.16	3606.47
573.35	3147.73
573.55	3321.81
573.74	3459.02
573.94	3385.29
574.13	3164.11
574.33	3389.39
574.52	3743.69
574.71	3401.68
574.91	3303.37
575.10	3151.82
575.30	3276.75
575.49	3184.59
575.69	3076.05
575.88	3139.54
576.08	3446.73
576.27	3624.90
576.47	3008.47
576.66	3307.47
576.86	3676.10
577.05	3446.73
577.25	3147.73
577.44	3436.49
577.64	3346.38
577.83	3659.72
578.02	3141.58
578.22	3403.72
578.41	3811.27
578.61	3407.82
578.80	3057.62
579.00	3106.77
579.19	3389.39
579.39	3526.60
579.58	3268.56
579.77	3207.12
579.97	3684.30
580.16	3669.96
580.36	3430.35
580.55	3270.61
580.75	3479.50
580.94	3311.57
581.13	3336.14
581.33	3487.69
581.52	3381.20
581.72	3889.09
581.91	3229.65
582.11	3127.25
582.30	3647.43
582.49	3479.50
582.69	3446.73
582.88	3141.58
583.08	3499.98
583.27	3672.01
583.47	3354.57
583.66	3100.62
583.85	3235.79
584.05	3344.33
584.24	3338.19
584.44	3213.26
584.63	3614.66
584.82	3684.30
585.02	3483.59
585.21	3252.17
585.41	3528.65
585.60	3395.53
585.79	3303.37
585.99	3411.92
586.18	3504.07
586.37	4392.89
586.57	6600.60
586.76	18527.97
586.96	36904.40
587.15	49466.64
587.34	57640.08
587.54	60775.52
587.73	53566.67
587.93	38340.02
588.12	29703.74
588.31	24708.74
588.51	22070.96
588.70	20424.39
588.89	17643.25
589.09	14950.17
589.28	13201.21
589.47	10260.32
589.67	7841.67
589.86	6135.71
590.06	4968.37
590.25	4442.04
590.44	3815.37
590.64	3606.47
590.83	3706.82
591.02	3721.16
591.22	3139.54
591.41	3155.92
591.60	3454.92
591.80	3930.05
591.99	3035.09
592.18	3135.44
592.38	3626.95
592.57	3368.91
592.76	3205.07
592.96	3348.43
593.15	3379.15
593.34	3600.33
593.54	3223.50
593.73	3327.95
593.92	3497.93
594.12	3622.86
594.31	3174.35
594.50	3344.33
594.70	3502.03
594.89	4116.42
595.08	3055.57
595.28	3336.14
595.47	4155.33
595.66	3655.62
595.86	3119.06
596.05	3076.05
596.24	3364.81
596.43	3856.33
596.63	3211.22
596.82	3383.24
597.01	3555.27
597.21	3778.50
597.40	3133.39
597.59	3327.95
597.79	3409.87
597.98	3618.76
598.17	3246.03
598.36	3246.03
598.56	3680.20
598.75	3440.59
598.94	3323.85
599.14	3286.99
599.33	3327.95
599.52	3551.18
599.71	3334.09
599.91	3200.98
600.10	3565.51
600.29	3506.12
600.48	3309.52
600.68	3327.95
600.87	3547.08
601.06	3254.22
601.26	3233.74
601.45	3270.61
601.64	3377.10
601.83	3803.08
602.03	3088.34
602.22	3086.29
602.41	3690.44
602.60	4032.45
602.80	3239.89
602.99	3315.66
603.18	3383.24
603.37	3409.87
603.57	3102.67
603.76	3166.16
603.95	3786.69
604.14	3377.10
604.34	3135.44
604.53	3131.34
604.72	3510.22
604.91	3688.39
605.10	3223.50
605.30	2990.03
605.49	3952.58
605.68	3567.56
605.87	3164.11
606.07	3151.82
606.26	3444.68
606.45	3538.89
606.64	3180.50
606.84	3043.28
607.03	3444.68
607.22	3661.77
607.41	3194.83
607.60	3160.02
607.80	3653.58
607.99	3420.11
608.18	3239.89
608.37	3211.22
608.56	3311.57
608.76	3598.28
608.95	3362.76
609.14	3139.54
609.33	3622.86
609.52	3725.26
609.72	3243.98
609.91	3278.80
610.10	3514.31
610.29	3794.89
610.48	3319.76
610.68	3278.80
610.87	3534.79
611.06	3661.77
611.25	3229.65
611.44	3321.81
611.63	3373.00
611.83	3688.39
612.02	3033.04
612.21	3303.37
612.40	3059.67
612.59	3254.22
612.79	3106.77
612.98	3293.13
613.17	3803.08
613.36	3397.58
613.55	3272.65
613.74	3153.87
613.93	3325.90
614.13	3540.94
614.32	3299.28
614.51	3131.34
614.70	3407.82
614.89	3336.14
615.08	3260.37
615.28	3520.46
615.47	3215.31
615.66	3481.55
615.85	3246.03
616.04	3258.32
616.23	3477.45
616.42	3485.64
616.62	3180.50
616.81	3225.55
617.00	3487.69
617.19	3577.80
617.38	3215.31
617.57	3319.76
617.76	3489.74
617.95	3649.48
618.15	3330.00
618.34	3360.72
618.53	3100.62
618.72	3694.54
618.91	3297.23
619.10	3280.85
619.29	3403.72
619.48	3512.27
619.68	3069.91
619.87	3117.01
620.06	3141.58
620.25	3581.90
620.44	3090.38
620.63	3084.24
620.82	3448.78
621.01	3436.49
621.20	3186.64
621.39	3289.04
621.59	3420.11
621.78	3407.82
621.97	3250.13
622.16	3340.24
622.35	3475.40
622.54	3592.14
622.73	3350.48
622.92	2893.78
623.11	3700.68
623.30	3381.20
623.49	3274.70
623.68	3082.19
623.88	3747.78
624.07	3278.80
624.26	3069.91
624.45	3104.72
624.64	3368.91
624.83	3592.14
625.02	3205.07
625.21	3180.50
625.40	3508.17
625.59	3727.30
625.78	3278.80
625.97	3303.37
626.16	3696.58
626.35	3717.06
626.54	3188.69
626.74	3411.92
626.93	3352.52
627.12	3336.14
627.31	3246.03
627.50	3192.78
627.69	3637.19
627.88	3239.89
628.07	3205.07
628.26	2994.13
628.45	3221.45
628.64	3209.17
628.83	3139.54
629.02	3094.48
629.21	3663.82
629.40	3428.30
629.59	3022.80
629.78	3225.55
629.97	3471.31
630.16	3446.73
630.35	3045.33
630.54	3315.66
630.73	3260.37
630.92	3334.09
631.11	3098.58
631.30	3278.80
631.49	3674.06
631.68	3409.87
631.87	3266.51
632.06	3112.91
632.25	3930.05
632.44	3405.77
632.63	3186.64
632.82	3215.31
633.01	3291.09
633.20	3502.03
633.39	3125.20
633.58	2963.41
633.77	3502.03
633.96	3506.12
634.15	3262.41
634.34	3315.66
634.53	3606.47
634.72	3248.08
634.91	2971.60
635.10	3139.54
635.29	3637.19
635.48	3459.02
635.67	3106.77
635.86	3076.05
636.05	3766.21
636.24	3424.20
636.43	3188.69
636.62	3252.17
636.81	2992.08
637.00	3440.59
637.19	3112.91
637.38	3164.11
637.57	3354.57
637.76	3375.05
637.95	3397.58
638.14	3432.40
638.33	3364.81
638.52	3426.25
638.71	3069.91
638.89	3082.19
639.08	3979.20
639.27	3614.66
639.46	3481.55
639.65	3608.52
639.84	3852.23
640.03	3993.54
640.22	3571.66
640.41	3553.23
640.60	3538.89
640.79	3608.52
640.98	3301.33
641.17	3379.15
641.36	3663.82
641.55	3612.62
641.74	3002.32
641.92	3071.95
642.11	3278.80
642.30	3401.68
642.49	3041.23
642.68	3196.88
642.87	3583.95
643.06	3643.34
643.25	3059.67
643.44	3024.85
643.63	3379.15
643.82	3583.95
644.00	3094.48
644.19	3123.15
644.38	3256.27
644.57	3616.71
644.76	3178.45
644.95	3221.45
645.14	3549.13
645.33	3463.12
645.52	3303.37
645.71	2967.51
645.89	3258.32
646.08	3356.62
646.27	3209.17
646.46	3395.53
646.65	3100.62
646.84	3346.38
647.03	3065.81
647.22	3362.76
647.40	3465.16
647.59	3385.29
647.78	2983.89
647.97	3157.97
648.16	3233.74
648.35	3753.93
648.54	3489.74
648.73	3198.93
648.91	3581.90
649.10	3491.79
649.29	3196.88
649.48	3188.69
649.67	3510.22
649.86	3514.31
650.05	3221.45
650.23	3397.58
650.42	3284.94
650.61	3639.24
650.80	3385.29
650.99	3405.77
651.18	3629.00
651.36	3715.02
651.55	3102.67
651.74	3313.61
651.93	3190.74
652.12	3364.81
652.31	3162.06
652.49	3155.92
652.68	3377.10
652.87	3680.20
653.06	3323.85
653.25	3471.31
653.44	3434.44
653.62	3878.85
653.81	3235.79
654.00	3172.30
654.19	3563.47
654.38	4124.61
654.56	3196.88
654.75	3188.69
654.94	3631.05
655.13	3469.26
655.32	3092.43
655.51	3276.75
655.69	3303.37
655.88	3686.34
656.07	2977.75
656.26	3223.50
656.45	3209.17
656.63	3407.82
656.82	3119.06
657.01	3485.64
657.20	3274.70
657.38	3823.56
657.57	3209.17
657.76	3010.51
657.95	3659.72
658.14	3278.80
658.32	3344.33
658.51	3045.33
658.70	3454.92
658.89	3510.22
659.08	3231.69
659.26	3413.96
659.45	3289.04
659.64	3487.69
659.83	3133.39
660.01	3555.27
660.20	3379.15
660.39	3766.21
660.58	2932.69
660.76	3239.89
660.95	3123.15
661.14	3471.31
661.33	3082.19
661.51	3246.03
661.70	3317.71
661.89	3545.03
662.08	3164.11
662.26	3076.05
662.45	3246.03
662.64	3954.63
662.83	3248.08
663.01	3086.29
663.20	3307.47
663.39	3778.50
663.58	3229.65
663.76	3114.96
663.95	3618.76
664.14	3305.42
664.32	3164.11
664.51	3071.95
664.70	3065.81
664.89	3540.94
665.07	3119.06
665.26	3303.37
665.45	3145.68
665.64	3565.51
665.82	3205.07
666.01	3407.82
666.20	3125.20
666.38	3704.78
666.57	3563.47
666.76	5785.51
666.95	12535.62
667.13	18878.18
667.32	22421.16
667.51	25022.08
667.69	25368.19
667.88	20915.90
668.07	15445.78
668.25	13254.45
668.44	11661.13
668.63	10102.63
668.81	8863.61
669.00	7726.99
669.19	7237.52
669.38	6221.73
669.56	5324.72
669.75	4804.53
669.94	4292.54
670.12	3813.32
670.31	3389.39
670.50	3489.74
670.68	3620.81
670.87	3524.55
671.06	3172.30
671.24	3254.22
671.43	3837.89
671.62	3489.74
671.80	3178.45
671.99	3286.99
672.18	3452.88
672.36	3704.78
672.55	3352.52
672.74	3280.85
672.92	3336.14
673.11	3661.77
673.29	3012.56
673.48	3426.25
673.67	3416.01
673.85	3665.86
674.04	3114.96
674.23	3368.91
674.41	3856.33
674.60	3168.21
674.79	3037.14
674.97	3067.86
675.16	3674.06
675.34	3727.30
675.53	3172.30
675.72	3229.65
675.90	3817.41
676.09	3286.99
676.28	3301.33
676.46	3012.56
676.65	3581.90
676.83	3260.37
677.02	3219.41
677.21	3286.99
677.39	3467.21
677.58	3299.28
677.77	3209.17
677.95	3141.58
678.14	3332.05
678.32	3385.29
678.51	3174.35
678.70	3549.13
678.88	3315.66
679.07	3436.49
679.25	3276.75
679.44	3205.07
679.63	3114.96
679.81	3428.30
680.00	3397.58
680.18	3205.07
680.37	3774.41
680.55	3524.55
680.74	3041.23
680.93	2959.31
681.11	3463.12
681.30	3438.54
681.48	3227.60
681.67	3258.32
681.85	3540.94
682.04	3282.89
682.23	3315.66
682.41	3436.49
682.60	3389.39
682.78	3440.59
682.97	3071.95
683.15	3227.60
683.34	3547.08
683.53	3704.78
683.71	3121.10
683.90	3258.32
684.08	3819.46
684.27	3340.24
684.45	3270.61
684.64	3344.33
684.82	3366.86
685.01	3588.04
685.19	3157.97
685.38	3561.42
685.57	3471.31
685.75	3258.32
685.94	3121.10
686.12	3147.73
686.31	3217.36
686.49	3753.93
686.68	3016.66
686.86	3182.54
687.05	3426.25
687.23	3731.40
687.42	3215.31
687.60	3104.72
687.79	3731.40
687.97	3753.93
688.16	3321.81
688.34	3325.90
688.53	3192.78
688.71	3526.60
688.90	3606.47
689.08	3248.08
689.27	3143.63
689.45	3633.10
689.64	3358.67
689.82	3303.37
690.01	3567.56
690.19	3508.17
690.38	3256.27
690.56	3307.47
690.75	3317.71
690.93	3282.89
691.12	3215.31
691.30	3229.65
691.49	3286.99
691.67	3364.81
691.86	3516.36
692.04	3196.88
692.23	3422.16
692.41	3418.06
692.60	3440.59
692.78	3434.44
692.97	3434.44
693.15	3583.95
693.34	3385.29
693.52	3409.87
693.71	3305.42
693.89	3305.42
694.08	3078.10
694.26	3258.32
694.44	3610.57
694.63	3516.36
694.81	3119.06
695.00	3200.98
695.18	3667.91
695.37	4069.31
695.55	3321.81
695.74	3231.69
695.92	3186.64
696.10	3708.87
696.29	3102.67
696.47	3217.36
696.66	3231.69
696.84	3278.80
697.03	3254.22
697.21	3495.88
697.40	4782.01
697.58	3721.16
697.76	3190.74
697.95	3248.08
698.13	3190.74
698.32	3334.09
698.50	3178.45
698.68	3198.93
698.87	3530.70
699.05	3813.32
699.24	3229.65
699.42	3270.61
699.61	3442.64
699.79	3479.50
699.97	3188.69
700.16	3059.67
700.34	3231.69
700.53	3456.97
700.71	3422.16
700.89	3291.09
701.08	3375.05
701.26	3477.45
701.45	3581.90
701.63	3182.54
701.81	3409.87
702.00	3248.08
702.18	3317.71
702.37	3174.35
702.55	3733.45
702.73	3424.20
702.92	3151.82
703.10	3553.23
703.28	3610.57
703.47	3174.35
703.65	3336.14
703.84	3241.93
704.02	3381.20
704.20	3737.54
704.39	3243.98
704.57	3223.50
704.75	3614.66
704.94	3397.58
705.12	3393.48
705.30	4069.31
705.49	8046.47
705.67	14370.60
705.86	19062.49
706.04	21317.31
706.22	23594.65
706.41	22410.92
706.59	16641.79
706.77	13479.73
706.96	11765.58
707.14	10913.63
707.32	9346.93
707.51	8206.21
707.69	6883.22
707.87	5812.14
708.06	4712.38
708.24	4282.30
708.42	3989.44
708.61	4341.69
708.79	3196.88
708.97	3356.62
709.16	3536.84
709.34	3442.64
709.52	3243.98
709.71	3250.13
709.89	3567.56
710.07	3205.07
710.26	3045.33
710.44	3246.03
710.62	3663.82
710.80	3487.69
710.99	3264.46
711.17	3342.28
711.35	3307.47
711.54	3319.76
711.72	3395.53
711.90	3248.08
712.09	3516.36
712.27	3252.17
712.45	3309.52
712.63	3256.27
712.82	3479.50
713.00	3399.63
713.18	3291.09
713.37	3502.03
713.55	3567.56
713.73	3571.66
713.91	3280.85
714.10	3272.65
714.28	3303.37
714.46	3585.99
714.65	3299.28
714.83	3229.65
715.01	3491.79
715.19	3465.16
715.38	3074.00
715.56	3295.18
715.74	3200.98
715.92	3340.24
716.11	3585.99
716.29	2953.17
716.47	3499.98
716.65	3409.87
716.84	3047.38
717.02	3207.12
717.20	3026.90
717.38	3319.76
717.57	3338.19
717.75	3311.57
717.93	3246.03
718.11	3573.71
718.30	3078.10
718.48	3264.46
718.66	3768.26
718.84	3698.63
719.03	3145.68
719.21	3028.95
719.39	3870.66
719.57	3551.18
719.75	3241.93
719.94	3094.48
720.12	3354.57
720.30	3557.32
720.48	3235.79
720.67	3123.15
720.85	3293.13
721.03	3430.35
721.21	3166.16
721.39	3286.99
721.58	3508.17
721.76	3393.48
721.94	3233.74
722.12	3330.00
722.30	3772.36
722.49	3366.86
722.67	3192.78
722.85	3211.22
723.03	3098.58
723.21	3313.61
723.40	3231.69
723.58	3422.16
723.76	3565.51
723.94	3729.35
724.12	3256.27
724.30	3428.30
724.49	3649.48
724.67	3325.90
724.85	3254.22
725.03	3108.82
725.21	3657.67
725.40	3696.58
725.58	3205.07
725.76	3401.68
725.94	3518.41
726.12	3198.93
726.30	3266.51
726.49	3139.54
726.67	3360.72
726.85	3510.22
727.03	3893.19
727.21	4929.46
727.39	6164.39
727.57	6387.61
727.76	6727.58
727.94	6625.18
728.12	5799.85
728.30	5099.44
728.48	4835.25
728.66	4380.61
728.84	4331.45
729.03	3942.34
729.21	3717.06
729.39	3530.70
729.57	3520.46
729.75	3469.26
729.93	3510.22
730.11	3069.91
730.30	3295.18
730.48	3409.87
730.66	3205.07
730.84	3305.42
731.02	3411.92
731.20	3358.67
731.38	3258.32
731.56	3069.91
731.74	3166.16
731.93	3461.07
732.11	3309.52
732.29	3190.74
732.47	3583.95
732.65	3446.73
732.83	3475.40
733.01	3342.28
733.19	3237.84
733.37	3540.94
733.56	3239.89
733.74	3114.96
733.92	3737.54
734.10	3377.10
734.28	3438.54
734.46	3016.66
734.64	3348.43
734.82	3301.33
735.00	3219.41
735.18	3184.59
735.36	3434.44
735.54	3413.96
735.73	3139.54
735.91	3418.06
736.09	3805.13
736.27	3399.63
736.45	3307.47
736.63	2987.99
736.81	3528.65
736.99	3723.21
737.17	3368.91
737.35	3129.30
737.53	3411.92
737.71	3307.47
737.89	3479.50
738.07	3198.93
738.25	3266.51
738.43	3051.47
738.61	3207.12
738.80	3178.45
738.98	3205.07
739.16	3336.14
739.34	3133.39
739.52	3524.55
739.70	3409.87
739.88	3567.56
740.06	3303.37
740.24	2992.08
740.42	3672.01
740.60	3168.21
740.78	3239.89
740.96	2975.70
741.14	3375.05
741.32	3497.93
741.50	3041.23
741.68	3471.31
741.86	3702.73
742.04	3172.30
742.22	3090.38
742.40	3162.06
742.58	3557.32
742.76	3311.57
742.94	3524.55
743.12	3074.00
743.30	3391.44
743.48	3647.43
743.66	3139.54
743.84	3119.06
744.02	3364.81
744.20	3327.95
744.38	3090.38
744.56	3157.97
744.74	3778.50
744.92	3528.65
745.10	3416.01
745.28	3250.13
745.46	3796.93
745.64	3354.57
745.82	3278.80
746.00	3137.49
746.18	3551.18
746.36	3252.17
746.54	3223.50
746.72	3237.84
746.90	3176.40
747.08	3778.50
747.26	3180.50
747.44	3319.76
747.62	3592.14
747.80	3569.61
747.98	3340.24
748.15	3182.54
748.33	3805.13
748.51	3463.12
748.69	3286.99
748.87	3178.45
749.05	3409.87
749.23	3368.91
749.41	3168.21
749.59	3055.57
749.77	3657.67
749.95	3383.24
750.13	3164.11
750.31	3395.53
750.49	3377.10
750.67	3663.82
750.85	3354.57
751.03	3207.12
751.20	3827.65
751.38	3459.02
751.56	3284.94
751.74	3250.13
751.92	3499.98
752.10	3176.40
752.28	3375.05
752.46	3180.50
752.64	3450.83
752.82	3393.48
753.00	3305.42
753.18	3117.01
753.35	3342.28
753.53	3358.67
753.71	3127.25
753.89	3262.41
754.07	3456.97
754.25	3643.34
754.43	3295.18
754.61	3123.15
754.79	3545.03
754.97	3348.43
755.14	3379.15
755.32	3090.38
755.50	3407.82
755.68	3506.12
755.86	3174.35
756.04	3155.92
756.22	3071.95
756.40	3624.90
756.57	3418.06
756.75	3155.92
756.93	3680.20
757.11	3690.44
757.29	3114.96
757.47	3139.54
757.65	3117.01
757.82	2967.51
758.00	3196.88
758.18	3155.92
758.36	3313.61
758.54	3891.14
758.72	3074.00
758.90	3389.39
759.07	3465.16
759.25	3200.98
759.43	3270.61
759.61	3041.23
759.79	4519.87
759.97	3645.38
760.15	3188.69
760.32	3147.73
760.50	3538.89
760.68	3835.85
760.86	3114.96
761.04	3454.92
761.22	3608.52
761.39	3602.38
761.57	3379.15
761.75	3137.49
761.93	3473.36
762.11	3373.00
762.28	3254.22
762.46	3104.72
762.64	3745.73
762.82	3176.40
763.00	3149.78
763.18	3401.68
763.35	3153.87
763.53	3610.57
763.71	3235.79
763.89	3192.78
764.07	3542.99
764.24	3409.87
764.42	3397.58
764.60	3176.40
764.78	3555.27
764.96	3616.71
765.13	3311.57
765.31	3057.62
765.49	3602.38
765.67	3268.56
765.84	3114.96
766.02	3102.67
766.20	3123.15
766.38	3489.74
766.56	3295.18
766.73	3327.95
766.91	3420.11
767.09	3499.98
767.27	3178.45
767.44	3096.53
767.62	3618.76
767.80	3565.51
767.98	3221.45
768.15	3149.78
768.33	3629.00
768.51	3551.18
768.69	3405.77
768.87	3114.96
769.04	3448.78
769.22	3960.77
769.40	3391.44
769.58	3340.24
769.75	3606.47
769.93	3618.76
770.11	3264.46
770.28	2990.03
770.46	3553.23
770.64	3368.91
770.82	3270.61
770.99	3057.62
771.17	3585.99
771.35	3395.53
771.53	3282.89
771.70	3172.30
771.88	3549.13
772.06	3481.55
772.23	3196.88
772.41	3274.70
772.59	3483.59
772.77	3284.94
772.94	3270.61
773.12	3348.43
773.30	3393.48
773.47	3573.71
773.65	3147.73
773.83	3311.57
774.01	3391.44
774.18	3053.52
774.36	3145.68
774.54	3102.67
774.71	3506.12
774.89	3131.34
775.07	3065.81
775.24	3235.79
775.42	3330.00
775.60	3794.89
775.78	3057.62
775.95	3102.67
776.13	3074.00
776.31	3090.38
776.48	3444.68
776.66	3403.72
776.84	3280.85
777.01	3207.12
777.19	3129.30
777.37	3164.11
777.54	3583.95
777.72	3880.90
777.90	3321.81
778.07	3239.89
778.25	4159.42
778.43	3651.53
778.60	3176.40
778.78	3262.41
778.96	3725.26
779.13	3248.08
779.31	3221.45
779.49	3311.57
779.66	3522.51
779.84	3399.63
780.01	3114.96
780.19	3074.00
780.37	3620.81
780.54	3557.32
780.72	2951.12
780.90	3172.30
781.07	3356.62
781.25	3356.62
781.43	3422.16
781.60	3256.27
781.78	3729.35
781.95	3512.27
782.13	3205.07
782.31	3166.16
782.48	3131.34
782.66	3479.50
782.83	3383.24
783.01	3289.04
783.19	3639.24
783.36	3409.87
783.54	3180.50
783.72	3223.50
783.89	3360.72
784.07	3518.41
784.24	3282.89
784.42	3434.44
784.60	3524.55
784.77	3512.27
784.95	2920.40
785.12	3162.06
785.30	3540.94
785.47	3254.22
785.65	3074.00
785.83	3270.61
786.00	3307.47
786.18	3469.26
786.35	3051.47
786.53	3100.62
786.71	3712.97
786.88	3579.85
787.06	3274.70
787.23	3231.69
787.41	3170.26
787.58	3385.29
787.76	3117.01
787.94	3119.06
788.11	3428.30
788.29	3106.77
788.46	3246.03
788.64	3041.23
788.81	3213.26
788.99	3266.51
789.16	3157.97
789.34	3221.45
789.52	3256.27
789.69	3311.57
789.87	3014.61
790.04	3217.36
790.22	3370.96
790.39	3954.63
790.57	3114.96
790.74	3106.77
790.92	3581.90
791.09	3000.27
791.27	3229.65
791.44	3272.65
791.62	3413.96
791.79	3635.14
791.97	3241.93
792.15	3585.99
792.32	3649.48
792.50	3561.42
792.67	3381.20
792.85	3452.88
793.02	3385.29
793.20	3313.61
793.37	2981.84
793.55	3053.52
793.72	3143.63
793.90	3583.95
794.07	3127.25
794.25	3067.86
794.42	3405.77
794.60	3327.95
794.77	3284.94
794.95	3379.15
795.12	3553.23
795.30	3387.34
795.47	2967.51
795.65	3526.60
795.82	3571.66
796.00	3340.24
796.17	3336.14
796.34	3084.24
796.52	3514.31
796.69	3577.80
796.87	3276.75
797.04	3340.24
797.22	3753.93
797.39	3442.64
797.57	3428.30
797.74	3192.78
797.92	3567.56
798.09	3336.14
798.27	3516.36
798.44	3139.54
798.62	3200.98
798.79	3456.97
798.96	3311.57
799.14	3133.39
799.31	3985.35
799.49	3403.72
799.66	3207.12
799.84	3233.74
800.01	3162.06
800.19	3542.99
800.36	3022.80
800.53	3160.02
800.71	3483.59
800.88	3782.60
801.06	3125.20
801.23	3153.87
801.41	3342.28
801.58	3350.48
801.75	3258.32
801.93	3233.74
802.10	3647.43
802.28	3411.92
802.45	3235.79
802.63	3254.22
802.80	3715.02
802.97	3356.62
803.15	3160.02
803.32	3110.86
803.50	3239.89
803.67	3237.84
803.84	3131.34
804.02	3293.13
804.19	3383.24
804.37	2904.02
804.54	2955.22
804.71	3241.93
804.89	3524.55
805.06	3248.08
805.24	3143.63
805.41	2975.70
805.58	3233.74
805.76	3952.58
805.93	3143.63
806.10	3274.70
806.28	3624.90
806.45	3436.49
806.63	3377.10
806.80	3305.42
806.97	3422.16
807.15	3434.44
807.32	3311.57
807.49	3194.83
807.67	3166.16
807.84	3575.75
808.01	2940.88
808.19	3340.24
808.36	3878.85
808.54	3307.47
808.71	3237.84
808.88	3215.31
809.06	3688.39
809.23	3844.04
809.40	3221.45
809.58	3104.72
809.75	3499.98
809.92	3131.34
810.10	3477.45
810.27	3184.59
810.44	3489.74
810.62	3600.33
810.79	3219.41
810.96	3190.74
811.14	3239.89
811.31	3522.51
811.48	3301.33
811.66	3264.46
811.83	3712.97
812.00	3545.03
812.18	3305.42
812.35	3463.12
812.52	3350.48
812.69	3344.33
812.87	3155.92
813.04	3149.78
813.21	3422.16
813.39	3258.32
813.56	3178.45
813.73	3389.39
813.91	3162.06
814.08	3426.25
814.25	3268.56
814.42	3037.14
814.60	3499.98
814.77	3436.49
814.94	3067.86
815.12	3252.17
815.29	3760.07
815.46	3221.45
815.63	3168.21
815.81	3231.69
815.98	3344.33
816.15	3370.96
816.33	3268.56
816.50	3188.69
816.67	3395.53
816.84	3413.96
817.02	3127.25
817.19	3121.10
817.36	3422.16
817.53	3534.79
817.71	3037.14
817.88	3233.74
818.05	3370.96
818.22	3385.29
818.40	3305.42
818.57	3141.58
818.74	3561.42
818.91	3418.06
819.09	3323.85
819.26	3309.52
819.43	3327.95
819.60	3330.00
819.78	3418.06
819.95	3172.30
820.12	3227.60
820.29	3753.93
820.47	3401.68
820.64	3100.62
820.81	3127.25
820.98	3354.57
821.15	3211.22
821.33	3336.14
821.50	3141.58
821.67	3522.51
821.84	3096.53
822.02	3108.82
822.19	3624.90
822.36	3266.51
822.53	3074.00
822.70	3119.06
822.88	3401.68
823.05	3819.46
823.22	3327.95
823.39	3172.30
823.56	3383.24
823.74	3872.71
823.91	3059.67
824.08	3129.30
824.25	3162.06
824.42	3798.98
824.60	3067.86
824.77	3270.61
824.94	3377.10
825.11	3602.38
825.28	3022.80
825.45	3360.72
825.63	3444.68
825.80	3131.34
825.97	3211.22
826.14	3180.50
826.31	3037.14
826.48	3631.05
826.66	3192.78
826.83	3180.50
827.00	3344.33
827.17	3215.31
827.34	3262.41
827.51	3164.11
827.69	3444.68
827.86	3221.45
828.03	3299.28
828.20	3215.31
828.37	3381.20
828.54	3510.22
828.71	3137.49
828.89	3258.32
829.06	3499.98
829.23	3753.93
829.40	3176.40
829.57	3166.16
829.74	3624.90
829.91	3344.33
830.09	3198.93
830.26	3319.76
830.43	3745.73
830.60	3403.72
830.77	3284.94
830.94	3352.52
831.11	3604.42
831.28	3311.57
831.46	3286.99
831.63	3166.16
831.80	3688.39
831.97	3278.80
832.14	3254.22
832.31	3239.89
832.48	3448.78
832.65	3672.01
832.82	3313.61
832.99	3217.36
833.17	3205.07
833.34	3672.01
833.51	3145.68
833.68	2936.79
833.85	3678.15
834.02	3256.27
834.19	3045.33
834.36	3198.93
834.53	3524.55
834.70	3651.53
834.87	3172.30
835.04	2949.08
835.22	3231.69
835.39	3321.81
835.56	3024.85
835.73	3012.56
835.90	3565.51
836.07	3235.79
836.24	3164.11
836.41	3030.99
836.58	3276.75
836.75	3684.30
836.92	3018.71
837.09	3000.27
837.26	3540.94
837.43	3475.40
837.60	3078.10
837.77	3033.04
837.94	3669.96
838.12	3700.68
838.29	2930.64
838.46	2897.88
838.63	3237.84
838.80	3778.50
838.97	3123.15
839.14	3037.14
839.31	3538.89
839.48	3575.75
839.65	3010.51
839.82	3123.15
839.99	3471.31
840.16	3473.36
840.33	3010.51
840.50	3114.96
840.67	3213.26
840.84	2914.26
841.01	2934.74
841.18	2942.93
841.35	3512.27
841.52	3651.53
841.69	3319.76
841.86	3004.37
842.03	3379.15
842.20	3672.01
842.37	2930.64
842.54	3045.33
842.71	3420.11
842.88	3084.24
843.05	3053.52
843.22	2965.46
843.39	3608.52
843.56	3239.89
843.73	3059.67
843.90	3098.58
844.07	3526.60
844.24	3585.99
844.41	3071.95
844.58	3033.04
844.75	3446.73
844.92	3577.80
845.09	3094.48
845.26	3000.27
845.43	3542.99
845.60	3299.28
845.77	3108.82
845.94	3108.82
846.10	3585.99
846.27	3127.25
846.44	2861.01
846.61	2908.12
846.78	3485.64
846.95	3594.19
847.12	2953.17
847.29	2987.99
847.46	3207.12
847.63	3594.19
847.80	2934.74
847.97	3055.57
848.14	3821.51
848.31	3348.43
848.48	2856.92
848.65	2971.60
848.82	3180.50
848.98	4067.27
849.15	3137.49
849.32	3055.57
849.49	3743.69
849.66	3385.29
849.83	3061.71
850.00	2944.98
850.17	3684.30
850.34	3325.90
850.51	2992.08
850.68	3004.37
850.85	3997.64
851.01	3524.55
851.18	2975.70
851.35	3119.06
851.52	3631.05
851.69	3782.60
851.86	2967.51
852.03	3024.85
852.20	3672.01
852.37	3348.43
852.53	2805.72
852.70	2955.22
852.87	3459.02
853.04	3532.75
853.21	3028.95
853.38	3286.99
853.55	3680.20
853.72	3663.82
853.89	2910.16
854.05	2944.98
854.22	3430.35
854.39	3342.28
854.56	2947.03
854.73	3180.50
854.90	3325.90
855.07	3391.44
855.23	2957.27
855.40	2936.79
855.57	3354.57
855.74	2992.08
855.91	3168.21
856.08	2846.68
856.25	3170.26
856.41	3336.14
856.58	3012.56
856.75	3049.43
856.92	3262.41
857.09	3534.79
857.26	2805.72
857.42	3035.09
857.59	3487.69
857.76	3383.24
857.93	3000.27
858.10	3055.57
858.27	3198.93
858.43	3436.49
858.60	3016.66
858.77	2996.18
858.94	3352.52
859.11	3606.47
859.27	3160.02
859.44	2987.99
859.61	3860.42
859.78	3653.58
859.95	2914.26
860.12	2908.12
860.28	3885.00
860.45	3844.04
860.62	2926.55
860.79	3155.92
860.95	3352.52
861.12	3231.69
861.29	2971.60
861.46	3008.47
861.63	3481.55
861.79	3495.88
861.96	2895.83
862.13	3028.95
862.30	3794.89
862.47	3321.81
862.63	2936.79
862.80	3168.21
862.97	3555.27
863.14	3536.84
863.30	3000.27
863.47	3039.19
863.64	3782.60
863.81	3393.48
863.97	2899.92
864.14	3057.62
864.31	3389.39
864.48	3459.02
864.65	2955.22
864.81	3100.62
864.98	3536.84
865.15	3629.00
865.32	3112.91
865.48	3084.24
865.65	3747.78
865.82	3317.71
865.98	3114.96
866.15	3065.81
866.32	3338.19
866.49	3332.05
866.65	3182.54
866.82	3092.43
866.99	3336.14
867.16	3270.61
867.32	3065.81
867.49	2854.87
867.66	3336.14
867.83	3364.81
867.99	2951.12
868.16	3061.71
868.33	3178.45
868.49	3409.87
868.66	3080.14
868.83	3139.54
868.99	3475.40
869.16	3475.40
869.33	3092.43
869.50	3074.00
869.66	3459.02
869.83	3352.52
870.00	2928.60
870.16	3123.15
870.33	3416.01
870.50	3645.38
870.66	3155.92
870.83	3033.04
871.00	3432.40
871.17	3557.32
871.33	3110.86
871.50	2975.70
871.67	3393.48
871.83	3338.19
872.00	3090.38
872.17	3157.97
872.33	3827.65
872.50	3688.39
872.67	2979.79
872.83	2983.89
873.00	3536.84
873.17	3487.69
873.33	3028.95
873.50	3049.43
873.67	3291.09
873.83	3270.61
874.00	3098.58
874.16	3188.69
874.33	3409.87
874.50	3155.92
874.66	2973.65
874.83	3106.77
875.00	3643.34
875.16	3600.33
875.33	3147.73
875.50	2795.48
875.66	3336.14
875.83	3454.92
875.99	3164.11
876.16	3119.06
876.33	3280.85
876.49	3289.04
876.66	3045.33
876.83	3006.42
876.99	3102.67
877.16	3438.54
877.32	2963.41
877.49	3102.67
877.66	3502.03
877.82	3655.62
877.99	3110.86
878.15	3319.76
878.32	3510.22
878.49	3387.34
878.65	3082.19
878.82	3278.80
878.98	3348.43
879.15	3590.09
879.32	3172.30
879.48	3286.99
879.65	3416.01
879.81	3352.52
879.98	3119.06
880.15	3033.04
880.31	3575.75
880.48	3149.78
880.64	3078.10
880.81	3131.34
880.97	3856.33
881.14	3631.05
881.31	3014.61
881.47	3133.39
881.64	3391.44
881.80	3145.68
881.97	3235.79
882.13	3041.23
882.30	3188.69
882.47	3291.09
882.63	3047.38
882.80	2998.23
882.96	3416.01
883.13	3688.39
883.29	3047.38
883.46	3008.47
883.62	3860.42
883.79	3401.68
883.95	3286.99
884.12	2901.97
884.29	3647.43
884.45	3430.35
884.62	3033.04
884.78	2942.93
884.95	3725.26
885.11	3188.69
885.28	3061.71
885.44	3061.71
885.61	3561.42
885.77	3696.58
885.94	3176.40
886.10	3172.30
886.27	3452.88
886.43	3839.94
886.60	3225.55
886.76	3049.43
886.93	3289.04
887.09	3424.20
887.26	2881.49
887.42	3106.77
887.59	3733.45
887.75	3954.63
887.92	3231.69
888.08	3174.35
888.25	3850.18
888.41	3680.20
888.58	3188.69
888.74	2987.99
888.91	3321.81
>>>>>End Processed Spectral Data<<<<<
