SpectraSuite Data File
++++++++++++++++++++++++++++++++++++
Date: Thu May 05 14:42:07 CEST 2016
User: root
Dark Spectrum Present: No
Reference Spectrum Present: No
Number of Sampled Component Spectra: 1
Spectrometers: USB4C02835
Integration Time (usec): 100000 (USB4C02835)
Spectra Averaged: 1 (USB4C02835)
Boxcar Smoothing: 0 (USB4C02835)
Correct for Electrical Dark: No (USB4C02835)
Strobe/Lamp Enabled: No (USB4C02835)
Correct for Detector Non-linearity: No (USB4C02835)
Correct for Stray Light: No (USB4C02835)
Number of Pixels in Processed Spectrum: 3648
>>>>>Begin Processed Spectral Data<<<<<
177.47	1916.90
177.69	1916.90
177.91	1916.90
178.13	1880.04
178.36	1935.33
178.58	2355.16
178.80	2480.09
179.02	2318.30
179.24	2424.80
179.46	2326.49
179.68	2353.12
179.90	2494.43
180.13	2465.75
180.35	2285.53
180.57	2291.68
180.79	2562.01
181.01	2449.37
181.23	2381.79
181.45	2471.90
181.67	2545.63
181.90	2641.88
182.12	2396.12
182.34	2217.95
182.56	2629.59
182.78	2527.19
183.00	2334.68
183.22	2414.56
183.44	2250.72
183.66	2721.75
183.89	2455.51
184.11	2375.64
184.33	2551.77
184.55	2639.83
184.77	2389.98
184.99	2357.21
185.21	2478.04
185.43	2760.66
185.65	2310.11
185.87	2346.97
186.10	2789.33
186.32	2805.72
186.54	2432.99
186.76	2381.79
186.98	2568.15
187.20	2480.09
187.42	2332.64
187.64	2349.02
187.86	2496.47
188.08	2693.08
188.30	2293.72
188.52	2379.74
188.75	2594.78
188.97	2559.96
189.19	2269.15
189.41	2383.84
189.63	2498.52
189.85	2379.74
190.07	2226.14
190.29	2166.75
190.51	2545.63
190.73	2379.74
190.95	2467.80
191.17	2396.12
191.39	2285.53
191.61	2389.98
191.84	2336.73
192.06	2398.17
192.28	2297.82
192.50	2899.92
192.72	2373.60
192.94	2424.80
193.16	2566.10
193.38	2645.98
193.60	2250.72
193.82	2373.60
194.04	2707.41
194.26	2564.06
194.48	2484.19
194.70	2316.25
194.92	2447.32
195.14	2586.58
195.36	2342.88
195.58	2420.70
195.80	2480.09
196.02	2441.18
196.24	2308.06
196.46	2412.51
196.69	2389.98
196.91	2699.22
197.13	2322.40
197.35	2359.26
197.57	2703.32
197.79	2588.63
198.01	2320.35
198.23	2389.98
198.45	2504.67
198.67	2406.36
198.89	2265.05
199.11	2392.03
199.33	2449.37
199.55	2217.95
199.77	2293.72
199.99	2439.13
200.21	2363.36
200.43	2467.80
200.65	2293.72
200.87	2242.53
201.09	2541.53
201.31	2432.99
201.53	2371.55
201.75	2432.99
201.97	2531.29
202.19	2510.81
202.41	2482.14
202.63	2566.10
202.85	2463.71
203.07	2504.67
203.29	2381.79
203.51	2236.38
203.73	2392.03
203.95	2803.67
204.17	2357.21
204.39	2469.85
204.61	2392.03
204.83	2424.80
205.05	2478.04
205.27	2369.50
205.49	2738.13
205.71	2473.95
205.93	2232.29
206.15	2220.00
206.37	2570.20
206.59	2453.47
206.81	2293.72
207.03	2281.44
207.25	2326.49
207.47	2588.63
207.69	2404.32
207.91	2557.91
208.13	2674.65
208.34	2424.80
208.56	2256.86
208.78	2326.49
209.00	2471.90
209.22	2451.42
209.44	2340.83
209.66	2332.64
209.88	2426.84
210.10	2461.66
210.32	2277.34
210.54	2439.13
210.76	2416.60
210.98	2514.91
211.20	2199.52
211.42	2482.14
211.64	2668.50
211.86	2547.67
212.08	2428.89
212.30	2375.64
212.52	2387.93
212.74	2588.63
212.96	2334.68
213.17	2410.46
213.39	2586.58
213.61	2697.17
213.83	2367.45
214.05	2453.47
214.27	2674.65
214.49	2342.88
214.71	2297.82
214.93	2449.37
215.15	2469.85
215.37	2547.67
215.59	2293.72
215.81	2373.60
216.03	2596.82
216.24	2514.91
216.46	2367.45
216.68	2449.37
216.90	2510.81
217.12	2609.11
217.34	2310.11
217.56	2461.66
217.78	2680.79
218.00	2549.72
218.22	2389.98
218.44	2406.36
218.66	2494.43
218.87	2775.00
219.09	2346.97
219.31	2404.32
219.53	2537.43
219.75	2471.90
219.97	2389.98
220.19	2389.98
220.41	2465.75
220.63	2674.65
220.85	2383.84
221.06	2330.59
221.28	2727.89
221.50	2545.63
221.72	2336.73
221.94	2260.96
222.16	2559.96
222.38	2496.47
222.60	2314.20
222.82	2375.64
223.03	2609.11
223.25	2396.12
223.47	2283.49
223.69	2559.96
223.91	2586.58
224.13	2576.34
224.35	2285.53
224.57	2543.58
224.78	2619.35
225.00	2320.35
225.22	2383.84
225.44	2387.93
225.66	2521.05
225.88	2410.46
226.10	2482.14
226.32	2373.60
226.53	2605.02
226.75	2432.99
226.97	2359.26
227.19	2320.35
227.41	2412.51
227.63	2383.84
227.85	2228.19
228.06	2398.17
228.28	2523.10
228.50	2531.29
228.72	2277.34
228.94	2271.20
229.16	2295.77
229.37	2359.26
229.59	2326.49
229.81	2457.56
230.03	2471.90
230.25	2287.58
230.47	2217.95
230.69	2252.77
230.90	2539.48
231.12	2471.90
231.34	2420.70
231.56	2490.33
231.78	2301.92
232.00	2463.71
232.21	2398.17
232.43	2326.49
232.65	2273.25
232.87	2588.63
233.09	2244.57
233.30	2293.72
233.52	2627.54
233.74	2492.38
233.96	2332.64
234.18	2459.61
234.40	2428.89
234.61	2701.27
234.83	2248.67
235.05	2250.72
235.27	2867.16
235.49	2635.74
235.70	2351.07
235.92	2418.65
236.14	2586.58
236.36	2748.37
236.58	2224.09
236.79	2392.03
237.01	2486.23
237.23	2322.40
237.45	2549.72
237.67	2336.73
237.88	2600.92
238.10	2695.13
238.32	2297.82
238.54	2357.21
238.76	2482.14
238.97	2338.78
239.19	2244.57
239.41	2416.60
239.63	2637.78
239.85	2301.92
240.06	2334.68
240.28	2369.50
240.50	2609.11
240.72	2469.85
240.93	2250.72
241.15	2377.69
241.37	2535.39
241.59	2668.50
241.81	2275.29
242.02	2310.11
242.24	2627.54
242.46	2519.00
242.68	2209.76
242.89	2338.78
243.11	2611.16
243.33	2457.56
243.55	2424.80
243.76	2365.40
243.98	2396.12
244.20	2445.27
244.42	2318.30
244.64	2373.60
244.85	2379.74
245.07	2359.26
245.29	2295.77
245.51	2400.22
245.72	2602.97
245.94	2641.88
246.16	2342.88
246.38	2486.23
246.59	2349.02
246.81	2412.51
247.03	2281.44
247.24	2201.57
247.46	2310.11
247.68	2545.63
247.90	2232.29
248.11	2392.03
248.33	2588.63
248.55	2494.43
248.77	2424.80
248.98	2416.60
249.20	2680.79
249.42	2473.95
249.64	2375.64
249.85	2359.26
250.07	2404.32
250.29	2504.67
250.50	2463.71
250.72	2248.67
250.94	2486.23
251.16	2783.19
251.37	2412.51
251.59	2478.04
251.81	2553.82
252.02	2568.15
252.24	2310.11
252.46	2482.14
252.68	2387.93
252.89	2484.19
253.11	2209.76
253.33	2478.04
253.54	2596.82
253.76	2392.03
253.98	2324.44
254.20	2303.96
254.41	2258.91
254.63	2389.98
254.85	2236.38
255.06	2336.73
255.28	2586.58
255.50	2410.46
255.71	2322.40
255.93	2193.37
256.15	2453.47
256.36	2564.06
256.58	2273.25
256.80	2349.02
257.02	2531.29
257.23	2344.92
257.45	2400.22
257.67	2443.23
257.88	2424.80
258.10	2545.63
258.32	2400.22
258.53	2404.32
258.75	2617.30
258.97	2428.89
259.18	2283.49
259.40	2281.44
259.62	2625.50
259.83	2615.26
260.05	2408.41
260.27	2924.50
260.48	2521.05
260.70	2406.36
260.92	2281.44
261.13	2412.51
261.35	2514.91
261.57	2529.24
261.78	2207.71
262.00	2277.34
262.22	2541.53
262.43	2426.84
262.65	2351.07
262.86	2379.74
263.08	2785.24
263.30	2445.27
263.51	2275.29
263.73	2252.77
263.95	2617.30
264.16	2351.07
264.38	2299.87
264.60	2363.36
264.81	2428.89
265.03	2629.59
265.25	2576.34
265.46	2318.30
265.68	2674.65
265.89	2619.35
266.11	2277.34
266.33	2355.16
266.54	2662.36
266.76	2510.81
266.98	2418.65
267.19	2424.80
267.41	2660.31
267.62	2453.47
267.84	2240.48
268.06	2428.89
268.27	2486.23
268.49	2510.81
268.70	2396.12
268.92	2363.36
269.14	2418.65
269.35	2283.49
269.57	2408.41
269.79	2422.75
270.00	2426.84
270.22	2613.21
270.43	2260.96
270.65	2234.33
270.87	2523.10
271.08	2570.20
271.30	2414.56
271.51	2424.80
271.73	2498.52
271.95	2662.36
272.16	2365.40
272.38	2430.94
272.59	2314.20
272.81	2570.20
273.02	2371.55
273.24	2367.45
273.46	2568.15
273.67	2351.07
273.89	2228.19
274.10	2340.83
274.32	2605.02
274.54	2494.43
274.75	2441.18
274.97	2383.84
275.18	2602.97
275.40	2486.23
275.61	2346.97
275.83	2453.47
276.05	2308.06
276.26	2480.09
276.48	2418.65
276.69	2412.51
276.91	2406.36
277.12	2586.58
277.34	2389.98
277.55	2424.80
277.77	2500.57
277.99	2396.12
278.20	2320.35
278.42	2263.01
278.63	2422.75
278.85	2359.26
279.06	2342.88
279.28	2455.51
279.49	2594.78
279.71	2605.02
279.93	2555.86
280.14	2471.90
280.36	2408.41
280.57	2645.98
280.79	2566.10
281.00	2285.53
281.22	2373.60
281.43	2555.86
281.65	2209.76
281.86	2308.06
282.08	2533.34
282.29	2713.56
282.51	2369.50
282.73	2322.40
282.94	2297.82
283.16	2629.59
283.37	2531.29
283.59	2422.75
283.80	2484.19
284.02	2478.04
284.23	2449.37
284.45	2342.88
284.66	2314.20
284.88	2451.42
285.09	2443.23
285.31	2490.33
285.52	2473.95
285.74	2324.44
285.95	2504.67
286.17	2410.46
286.38	2600.92
286.60	2406.36
286.81	2338.78
287.03	2402.27
287.24	2430.94
287.46	2482.14
287.67	2465.75
287.89	2580.44
288.10	2521.05
288.32	2553.82
288.53	2557.91
288.75	2531.29
288.96	2551.77
289.18	2371.55
289.39	2361.31
289.61	2467.80
289.82	2795.48
290.04	2643.93
290.25	2363.36
290.47	2416.60
290.68	2514.91
290.90	2680.79
291.11	2312.16
291.33	2543.58
291.54	2398.17
291.76	2301.92
291.97	2498.52
292.18	2385.88
292.40	2441.18
292.61	2463.71
292.83	2711.51
293.04	2439.13
293.26	2523.10
293.47	2402.27
293.69	2365.40
293.90	2375.64
294.12	2695.13
294.33	2437.08
294.55	2404.32
294.76	2564.06
294.97	2660.31
295.19	2768.85
295.40	2412.51
295.62	2465.75
295.83	2584.54
296.05	2357.21
296.26	2578.39
296.48	2392.03
296.69	2414.56
296.90	2490.33
297.12	2529.24
297.33	2605.02
297.55	2496.47
297.76	2488.28
297.98	2519.00
298.19	2422.75
298.41	2439.13
298.62	2408.41
298.83	2529.24
299.05	2432.99
299.26	2334.68
299.48	2406.36
299.69	2549.72
299.90	2408.41
300.12	2338.78
300.33	2617.30
300.55	2514.91
300.76	2486.23
300.98	2367.45
301.19	2492.38
301.40	2334.68
301.62	2338.78
301.83	2596.82
302.05	2588.63
302.26	2430.94
302.47	2441.18
302.69	2424.80
302.90	2572.25
303.12	2244.57
303.33	2496.47
303.54	2717.65
303.76	2461.66
303.97	2412.51
304.19	2580.44
304.40	2359.26
304.61	2541.53
304.83	2496.47
305.04	2504.67
305.26	2510.81
305.47	2514.91
305.68	2404.32
305.90	2308.06
306.11	2660.31
306.33	2437.08
306.54	2445.27
306.75	2373.60
306.97	2336.73
307.18	2420.70
307.39	2410.46
307.61	2490.33
307.82	2516.95
308.04	2519.00
308.25	2342.88
308.46	2523.10
308.68	2494.43
308.89	2455.51
309.10	2482.14
309.32	2430.94
309.53	2437.08
309.74	2611.16
309.96	2349.02
310.17	2580.44
310.39	2457.56
310.60	2590.68
310.81	2379.74
311.03	2332.64
311.24	2539.48
311.45	2449.37
311.67	2619.35
311.88	2498.52
312.09	2439.13
312.31	2416.60
312.52	2324.44
312.73	2408.41
312.95	2346.97
313.16	2414.56
313.37	2688.98
313.59	2543.58
313.80	2596.82
314.01	2662.36
314.23	2410.46
314.44	2312.16
314.65	2385.88
314.87	2437.08
315.08	2375.64
315.29	2373.60
315.51	2490.33
315.72	2275.29
315.93	2559.96
316.15	2521.05
316.36	2512.86
316.57	2445.27
316.79	2400.22
317.00	2392.03
317.21	2600.92
317.43	2346.97
317.64	2410.46
317.85	2340.83
318.07	2338.78
318.28	2514.91
318.49	2629.59
318.70	2727.89
318.92	2564.06
319.13	2621.40
319.34	2627.54
319.56	2424.80
319.77	2693.08
319.98	2611.16
320.20	2576.34
320.41	2521.05
320.62	2547.67
320.83	2379.74
321.05	2736.09
321.26	2439.13
321.47	2525.15
321.69	2643.93
321.90	2353.12
322.11	2381.79
322.32	2602.97
322.54	2707.41
322.75	2398.17
322.96	2793.43
323.18	2351.07
323.39	2281.44
323.60	2232.29
323.81	2502.62
324.03	2471.90
324.24	2400.22
324.45	2496.47
324.66	2363.36
324.88	2629.59
325.09	2701.27
325.30	2402.27
325.52	2453.47
325.73	2564.06
325.94	2387.93
326.15	2256.86
326.37	2387.93
326.58	2590.68
326.79	2727.89
327.00	2381.79
327.22	2502.62
327.43	2389.98
327.64	2312.16
327.85	2570.20
328.07	2463.71
328.28	2787.29
328.49	2422.75
328.70	2346.97
328.92	2447.32
329.13	2416.60
329.34	2488.28
329.55	2641.88
329.76	2543.58
329.98	2463.71
330.19	2662.36
330.40	2461.66
330.61	2473.95
330.83	2555.86
331.04	2344.92
331.25	2422.75
331.46	2377.69
331.68	2332.64
331.89	2600.92
332.10	2422.75
332.31	2314.20
332.52	2482.14
332.74	2633.69
332.95	2297.82
333.16	2416.60
333.37	2547.67
333.58	2396.12
333.80	2455.51
334.01	2326.49
334.22	2400.22
334.43	2400.22
334.64	2371.55
334.86	2265.05
335.07	2379.74
335.28	2674.65
335.49	2396.12
335.70	2502.62
335.92	2648.02
336.13	2803.67
336.34	2463.71
336.55	2437.08
336.76	2570.20
336.98	2199.52
337.19	2420.70
337.40	2621.40
337.61	2768.85
337.82	2486.23
338.04	2553.82
338.25	2240.48
338.46	2490.33
338.67	2394.08
338.88	2396.12
339.09	2285.53
339.31	2465.75
339.52	2279.39
339.73	2289.63
339.94	2471.90
340.15	2596.82
340.36	2482.14
340.58	2451.42
340.79	2375.64
341.00	2519.00
341.21	2387.93
341.42	2580.44
341.63	2424.80
341.85	2629.59
342.06	2508.76
342.27	2455.51
342.48	2494.43
342.69	2308.06
342.90	2475.99
343.12	2576.34
343.33	2371.55
343.54	2658.26
343.75	2727.89
343.96	2455.51
344.17	2342.88
344.38	2525.15
344.60	2365.40
344.81	2308.06
345.02	2416.60
345.23	2688.98
345.44	2809.81
345.65	2432.99
345.86	2465.75
346.07	2539.48
346.29	2422.75
346.50	2545.63
346.71	2535.39
346.92	2594.78
347.13	2789.33
347.34	2473.95
347.55	2426.84
347.76	2525.15
347.98	2308.06
348.19	2392.03
348.40	2586.58
348.61	2516.95
348.82	2701.27
349.03	2529.24
349.24	2351.07
349.45	2873.30
349.66	2312.16
349.88	2430.94
350.09	2416.60
350.30	2652.12
350.51	2643.93
350.72	2490.33
350.93	2424.80
351.14	2473.95
351.35	2547.67
351.56	2424.80
351.77	2424.80
351.99	2562.01
352.20	2660.31
352.41	2588.63
352.62	2242.53
352.83	2469.85
353.04	2510.81
353.25	2439.13
353.46	2488.28
353.67	2596.82
353.88	2291.68
354.09	2404.32
354.30	2457.56
354.52	2613.21
354.73	2543.58
354.94	2357.21
355.15	2465.75
355.36	2656.22
355.57	2424.80
355.78	2437.08
355.99	2424.80
356.20	2447.32
356.41	2666.46
356.62	2437.08
356.83	2521.05
357.04	2635.74
357.25	2314.20
357.46	2449.37
357.68	2277.34
357.89	2365.40
358.10	2424.80
358.31	2338.78
358.52	2404.32
358.73	2285.53
358.94	2435.03
359.15	2410.46
359.36	2494.43
359.57	2539.48
359.78	2441.18
359.99	2553.82
360.20	2359.26
360.41	2389.98
360.62	2494.43
360.83	2473.95
361.04	2514.91
361.25	2482.14
361.46	2645.98
361.67	2457.56
361.88	2494.43
362.09	2594.78
362.30	2525.15
362.51	2365.40
362.72	2473.95
362.93	2609.11
363.14	2502.62
363.35	2426.84
363.56	2342.88
363.78	2527.19
363.99	2658.26
364.20	2353.12
364.41	2516.95
364.62	2756.57
364.83	2504.67
365.04	2441.18
365.25	2451.42
365.46	2805.72
365.67	2340.83
365.88	2441.18
366.09	2375.64
366.30	2428.89
366.51	2496.47
366.72	2326.49
366.93	2443.23
367.14	2564.06
367.35	2707.41
367.56	2404.32
367.77	2596.82
367.98	2492.38
368.18	2572.25
368.39	2486.23
368.60	2342.88
368.81	2545.63
369.02	2451.42
369.23	2459.61
369.44	2291.68
369.65	2506.71
369.86	2568.15
370.07	2494.43
370.28	2349.02
370.49	2607.06
370.70	2480.09
370.91	2293.72
371.12	2316.25
371.33	2557.91
371.54	2418.65
371.75	2627.54
371.96	2211.81
372.17	2467.80
372.38	2494.43
372.59	2555.86
372.80	2363.36
373.01	2465.75
373.22	2559.96
373.43	2396.12
373.64	2326.49
373.85	2615.26
374.06	2688.98
374.26	2498.52
374.47	2494.43
374.68	2699.22
374.89	2570.20
375.10	2410.46
375.31	2549.72
375.52	2484.19
375.73	2418.65
375.94	2336.73
376.15	2596.82
376.36	2437.08
376.57	2486.23
376.78	2424.80
376.99	2402.27
377.20	2605.02
377.40	2416.60
377.61	2727.89
377.82	2301.92
378.03	2670.55
378.24	2525.15
378.45	2514.91
378.66	2516.95
378.87	2258.91
379.08	2338.78
379.29	2396.12
379.50	2578.39
379.71	2467.80
379.91	2596.82
380.12	2367.45
380.33	2478.04
380.54	2525.15
380.75	2414.56
380.96	2371.55
381.17	2494.43
381.38	2539.48
381.59	2471.90
381.80	2494.43
382.00	2670.55
382.21	2531.29
382.42	2770.90
382.63	2658.26
382.84	2496.47
383.05	2625.50
383.26	2645.98
383.47	2432.99
383.68	2482.14
383.88	2545.63
384.09	2506.71
384.30	2637.78
384.51	2482.14
384.72	2469.85
384.93	2301.92
385.14	2490.33
385.35	2627.54
385.55	2310.11
385.76	2598.87
385.97	2445.27
386.18	2271.20
386.39	2373.60
386.60	2455.51
386.81	2418.65
387.02	2334.68
387.22	2381.79
387.43	2631.64
387.64	2533.34
387.85	2645.98
388.06	2676.70
388.27	4032.45
388.48	8189.83
388.68	12164.93
388.89	14624.54
389.10	15814.41
389.31	15017.75
389.52	11741.00
389.73	10026.86
389.93	9207.67
390.14	8527.74
390.35	7534.48
390.56	6842.26
390.77	5439.40
390.98	4114.37
391.18	3444.68
391.39	3004.37
391.60	2613.21
391.81	2545.63
392.02	2402.27
392.23	2807.77
392.43	2484.19
392.64	2623.45
392.85	2437.08
393.06	2670.55
393.27	2514.91
393.47	2369.50
393.68	2467.80
393.89	2504.67
394.10	2654.17
394.31	2359.26
394.52	2383.84
394.72	2471.90
394.93	2693.08
395.14	2312.16
395.35	2506.71
395.56	2412.51
395.76	2406.36
395.97	2467.80
396.18	2596.82
396.39	2580.44
396.60	2920.40
396.80	2684.89
397.01	2768.85
397.22	2678.74
397.43	2629.59
397.64	2521.05
397.84	2611.16
398.05	2766.81
398.26	2471.90
398.47	2492.38
398.67	2535.39
398.88	2465.75
399.09	2498.52
399.30	2359.26
399.51	2478.04
399.71	2439.13
399.92	2451.42
400.13	2568.15
400.34	2385.88
400.54	2588.63
400.75	2744.28
400.96	2432.99
401.17	2707.41
401.37	2508.76
401.58	2418.65
401.79	2496.47
402.00	2527.19
402.21	2858.96
402.41	2842.58
402.62	2832.34
402.83	2930.64
403.04	2957.27
403.24	3110.86
403.45	2617.30
403.66	2684.89
403.87	2682.84
404.07	2750.42
404.28	2705.37
404.49	2691.03
404.70	2639.83
404.90	2660.31
405.11	2504.67
405.32	2541.53
405.52	2375.64
405.73	2424.80
405.94	2402.27
406.15	2447.32
406.35	2609.11
406.56	2580.44
406.77	2506.71
406.98	2465.75
407.18	2451.42
407.39	2625.50
407.60	2430.94
407.80	2457.56
408.01	2447.32
408.22	2594.78
408.43	2447.32
408.63	2562.01
408.84	2588.63
409.05	2572.25
409.25	2367.45
409.46	2381.79
409.67	2455.51
409.88	2480.09
410.08	2523.10
410.29	2410.46
410.50	2516.95
410.70	2549.72
410.91	2346.97
411.12	2465.75
411.32	2437.08
411.53	2367.45
411.74	2537.43
411.95	2594.78
412.15	2602.97
412.36	2588.63
412.57	2584.54
412.77	2633.69
412.98	2582.49
413.19	2465.75
413.39	2539.48
413.60	2498.52
413.81	2668.50
414.01	2408.41
414.22	2437.08
414.43	2547.67
414.63	2447.32
414.84	2564.06
415.05	2500.57
415.25	2373.60
415.46	2523.10
415.67	2351.07
415.87	2512.86
416.08	2381.79
416.29	2445.27
416.49	2627.54
416.70	2432.99
416.91	2400.22
417.11	2463.71
417.32	2686.94
417.53	2492.38
417.73	2559.96
417.94	2553.82
418.15	2535.39
418.35	2367.45
418.56	2435.03
418.77	2850.77
418.97	2461.66
419.18	2504.67
419.38	2242.53
419.59	2521.05
419.80	2719.70
420.00	2363.36
420.21	2500.57
420.42	2643.93
420.62	2547.67
420.83	2344.92
421.04	2430.94
421.24	2408.41
421.45	2564.06
421.65	2510.81
421.86	2385.88
422.07	2600.92
422.27	2592.73
422.48	2392.03
422.69	2383.84
422.89	2457.56
423.10	2471.90
423.30	2351.07
423.51	2473.95
423.72	2555.86
423.92	2580.44
424.13	2367.45
424.33	2459.61
424.54	2510.81
424.75	2510.81
424.95	2772.95
425.16	2482.14
425.36	2408.41
425.57	2613.21
425.78	2564.06
425.98	2553.82
426.19	2482.14
426.39	2326.49
426.60	2422.75
426.81	2500.57
427.01	2555.86
427.22	2426.84
427.42	2328.54
427.63	2379.74
427.83	2588.63
428.04	2756.57
428.25	2611.16
428.45	2543.58
428.66	2580.44
428.86	2527.19
429.07	2432.99
429.28	2441.18
429.48	2506.71
429.69	2363.36
429.89	2584.54
430.10	2324.44
430.30	2605.02
430.51	2490.33
430.71	2357.21
430.92	2478.04
431.13	2469.85
431.33	2602.97
431.54	2500.57
431.74	2594.78
431.95	2803.67
432.15	2389.98
432.36	2447.32
432.56	2529.24
432.77	2711.51
432.98	2748.37
433.18	2482.14
433.39	2465.75
433.59	2514.91
433.80	2789.33
434.00	2654.17
434.21	2441.18
434.41	2455.51
434.62	2789.33
434.82	2412.51
435.03	2365.40
435.23	2594.78
435.44	2277.34
435.64	2459.61
435.85	2598.87
436.06	2578.39
436.26	2562.01
436.47	2400.22
436.67	2365.40
436.88	2533.34
437.08	2623.45
437.29	2523.10
437.49	2459.61
437.70	2600.92
437.90	2463.71
438.11	2621.40
438.31	2545.63
438.52	2723.80
438.72	2738.13
438.93	2740.18
439.13	2617.30
439.34	2633.69
439.54	2437.08
439.75	2645.98
439.95	2594.78
440.16	2383.84
440.36	2502.62
440.57	2529.24
440.77	2441.18
440.98	2461.66
441.18	2588.63
441.39	2428.89
441.59	2344.92
441.80	2703.32
442.00	2533.34
442.21	2543.58
442.41	2326.49
442.62	2613.21
442.82	2478.04
443.02	2424.80
443.23	2408.41
443.43	2445.27
443.64	2631.64
443.84	2373.60
444.05	2598.87
444.25	2539.48
444.46	2437.08
444.66	2453.47
444.87	2666.46
445.07	2367.45
445.28	2455.51
445.48	2609.11
445.69	2572.25
445.89	2781.14
446.09	2537.43
446.30	2863.06
446.50	3008.47
446.71	4702.14
446.91	5869.48
447.12	6610.84
447.32	7133.08
447.53	6655.90
447.73	5463.98
447.93	4825.01
448.14	4583.35
448.34	4384.70
448.55	3835.85
448.75	3725.26
448.96	3504.07
449.16	3274.70
449.36	3112.91
449.57	2785.24
449.77	2596.82
449.98	2473.95
450.18	2605.02
450.39	2545.63
450.59	2494.43
450.79	2523.10
451.00	2420.70
451.20	2547.67
451.41	2437.08
451.61	2596.82
451.81	2502.62
452.02	2449.37
452.22	2486.23
452.43	2441.18
452.63	2379.74
452.84	2404.32
453.04	2394.08
453.24	2449.37
453.45	2320.35
453.65	2463.71
453.86	2506.71
454.06	2512.86
454.26	2531.29
454.47	2402.27
454.67	2619.35
454.87	2521.05
455.08	2504.67
455.28	2566.10
455.49	2473.95
455.69	2351.07
455.89	2770.90
456.10	2588.63
456.30	2494.43
456.51	2576.34
456.71	2525.15
456.91	2537.43
457.12	2441.18
457.32	2596.82
457.52	2299.87
457.73	2564.06
457.93	2480.09
458.14	2439.13
458.34	2291.68
458.54	2465.75
458.75	2463.71
458.95	2551.77
459.15	2482.14
459.36	2514.91
459.56	2539.48
459.76	2793.43
459.97	2551.77
460.17	2453.47
460.37	2539.48
460.58	2482.14
460.78	2600.92
460.99	2437.08
461.19	2473.95
461.39	2471.90
461.60	2490.33
461.80	2523.10
462.00	2383.84
462.21	2359.26
462.41	2349.02
462.61	2365.40
462.82	2293.72
463.02	2564.06
463.22	2541.53
463.43	2537.43
463.63	2412.51
463.83	2703.32
464.04	2564.06
464.24	2447.32
464.44	2389.98
464.64	2510.81
464.85	2531.29
465.05	2615.26
465.25	2435.03
465.46	2439.13
465.66	2598.87
465.86	2514.91
466.07	2412.51
466.27	2531.29
466.47	2338.78
466.68	2260.96
466.88	2572.25
467.08	2523.10
467.29	2559.96
467.49	2506.71
467.69	2439.13
467.89	2652.12
468.10	2445.27
468.30	2549.72
468.50	2621.40
468.71	2660.31
468.91	2326.49
469.11	2625.50
469.31	2406.36
469.52	2387.93
469.72	2789.33
469.92	2668.50
470.13	2445.27
470.33	2416.60
470.53	2533.34
470.73	2883.54
470.94	3276.75
471.14	3430.35
471.34	3911.62
471.54	3762.12
471.75	3377.10
471.95	3035.09
472.15	3030.99
472.36	3082.19
472.56	2936.79
472.76	2971.60
472.96	2932.69
473.17	2660.31
473.37	2676.70
473.57	2502.62
473.77	2578.39
473.98	2473.95
474.18	2340.83
474.38	2867.16
474.58	2465.75
474.79	2392.03
474.99	2519.00
475.19	2586.58
475.39	2369.50
475.60	2545.63
475.80	2549.72
476.00	2547.67
476.20	2412.51
476.41	2531.29
476.61	2625.50
476.81	2688.98
477.01	2453.47
477.21	2592.73
477.42	2596.82
477.62	2420.70
477.82	2572.25
478.02	2439.13
478.23	2478.04
478.43	2488.28
478.63	2455.51
478.83	2441.18
479.03	2525.15
479.24	2617.30
479.44	2809.81
479.64	2330.59
479.84	2351.07
480.04	2389.98
480.25	2549.72
480.45	2387.93
480.65	2404.32
480.85	2674.65
481.06	2510.81
481.26	2527.19
481.46	2549.72
481.66	2449.37
481.86	2406.36
482.06	2553.82
482.27	2564.06
482.47	2346.97
482.67	2482.14
482.87	2412.51
483.07	2535.39
483.28	2367.45
483.48	2312.16
483.68	2383.84
483.88	2383.84
484.08	2220.00
484.29	2342.88
484.49	2445.27
484.69	2293.72
484.89	2795.48
485.09	2652.12
485.29	2490.33
485.50	2469.85
485.70	2490.33
485.90	2691.03
486.10	2504.67
486.30	2492.38
486.50	2654.17
486.71	2582.49
486.91	2514.91
487.11	2576.34
487.31	2383.84
487.51	2559.96
487.71	2424.80
487.91	2363.36
488.12	2361.31
488.32	2263.01
488.52	2428.89
488.72	2265.05
488.92	2465.75
489.12	2637.78
489.32	2578.39
489.53	2508.76
489.73	2340.83
489.93	2684.89
490.13	2428.89
490.33	2322.40
490.53	2521.05
490.73	2590.68
490.94	2351.07
491.14	2496.47
491.34	2625.50
491.54	2725.85
491.74	3375.05
491.94	4044.74
492.14	4310.97
492.34	4442.04
492.54	4071.36
492.75	3403.72
492.95	3518.41
493.15	3117.01
493.35	3182.54
493.55	3100.62
493.75	3018.71
493.95	3002.32
494.15	2818.00
494.35	2535.39
494.56	2586.58
494.76	2432.99
494.96	2613.21
495.16	2502.62
495.36	2506.71
495.56	2506.71
495.76	2375.64
495.96	2512.86
496.16	2355.16
496.36	2756.57
496.56	2465.75
496.77	2553.82
496.97	2482.14
497.17	2635.74
497.37	2326.49
497.57	2547.67
497.77	2506.71
497.97	2449.37
498.17	2453.47
498.37	2453.47
498.57	2564.06
498.77	2496.47
498.97	2637.78
499.17	2695.13
499.38	2447.32
499.58	2553.82
499.78	2660.31
499.98	2580.44
500.18	2523.10
500.38	2475.99
500.58	2658.26
500.78	3117.01
500.98	5398.45
501.18	7393.17
501.38	9240.44
501.58	10280.80
501.78	10014.57
501.98	8097.67
502.18	6811.54
502.38	5765.03
502.58	5531.56
502.78	4997.04
502.98	4790.20
503.18	4519.87
503.38	4036.55
503.59	3575.75
503.79	3278.80
503.99	3129.30
504.19	3160.02
504.39	3037.14
504.59	3151.82
504.79	3155.92
504.99	3063.76
505.19	2863.06
505.39	2701.27
505.59	2856.92
505.79	2813.91
505.99	2703.32
506.19	2547.67
506.39	2707.41
506.59	2510.81
506.79	2502.62
506.99	2588.63
507.19	2471.90
507.39	2496.47
507.59	2375.64
507.79	2389.98
507.99	2424.80
508.19	2531.29
508.39	2439.13
508.59	2478.04
508.79	2596.82
508.99	2682.84
509.19	2367.45
509.39	2533.34
509.59	2383.84
509.79	2439.13
509.99	2562.01
510.19	2543.58
510.39	2568.15
510.59	2531.29
510.79	2500.57
510.99	2359.26
511.19	2498.52
511.39	2688.98
511.59	2660.31
511.79	2607.06
511.99	2355.16
512.19	2742.23
512.38	2498.52
512.58	2365.40
512.78	2541.53
512.98	2576.34
513.18	2668.50
513.38	2269.15
513.58	2447.32
513.78	2463.71
513.98	2459.61
514.18	2389.98
514.38	2531.29
514.58	2547.67
514.78	2367.45
514.98	2338.78
515.18	2498.52
515.38	2373.60
515.58	2731.99
515.78	2430.94
515.98	2519.00
516.18	2586.58
516.38	2402.27
516.57	2357.21
516.77	2375.64
516.97	2553.82
517.17	2420.70
517.37	2283.49
517.57	2430.94
517.77	2506.71
517.97	2414.56
518.17	2486.23
518.37	2373.60
518.57	2410.46
518.77	2383.84
518.97	2428.89
519.16	2557.91
519.36	2584.54
519.56	2377.69
519.76	2441.18
519.96	2465.75
520.16	2672.60
520.36	2473.95
520.56	2566.10
520.76	2377.69
520.96	2420.70
521.16	2641.88
521.35	2594.78
521.55	2527.19
521.75	2512.86
521.95	2465.75
522.15	2432.99
522.35	2367.45
522.55	2402.27
522.75	2580.44
522.95	2340.83
523.14	2328.54
523.34	2527.19
523.54	2420.70
523.74	2525.15
523.94	2492.38
524.14	2236.38
524.34	2559.96
524.54	2547.67
524.73	2453.47
524.93	2590.68
525.13	2453.47
525.33	2275.29
525.53	2621.40
525.73	2553.82
525.93	2432.99
526.13	2408.41
526.32	2471.90
526.52	2568.15
526.72	2598.87
526.92	2465.75
527.12	2441.18
527.32	2295.77
527.52	2535.39
527.71	2533.34
527.91	2422.75
528.11	2461.66
528.31	2484.19
528.51	2424.80
528.71	2533.34
528.90	2623.45
529.10	2676.70
529.30	2650.07
529.50	2299.87
529.70	2465.75
529.90	2449.37
530.09	2490.33
530.29	2340.83
530.49	2453.47
530.69	2818.00
530.89	2463.71
531.09	2578.39
531.28	2459.61
531.48	2602.97
531.68	2398.17
531.88	2416.60
532.08	2551.77
532.28	2398.17
532.47	2602.97
532.67	2621.40
532.87	2543.58
533.07	2342.88
533.27	2562.01
533.46	2576.34
533.66	2527.19
533.86	2432.99
534.06	2453.47
534.26	2471.90
534.45	2480.09
534.65	2555.86
534.85	2480.09
535.05	2430.94
535.25	2633.69
535.44	2269.15
535.64	2531.29
535.84	2422.75
536.04	2426.84
536.24	2469.85
536.43	2344.92
536.63	2375.64
536.83	2416.60
537.03	2447.32
537.22	2308.06
537.42	2258.91
537.62	2543.58
537.82	2377.69
538.02	2600.92
538.21	2531.29
538.41	2906.07
538.61	2586.58
538.81	2414.56
539.00	2555.86
539.20	2299.87
539.40	2516.95
539.60	2422.75
539.79	2490.33
539.99	2465.75
540.19	2469.85
540.39	2396.12
540.58	2496.47
540.78	2607.06
540.98	2488.28
541.18	2572.25
541.37	2529.24
541.57	2443.23
541.77	2582.49
541.97	2277.34
542.16	2330.59
542.36	2406.36
542.56	2459.61
542.76	2658.26
542.95	2547.67
543.15	2570.20
543.35	2584.54
543.54	2416.60
543.74	2318.30
543.94	2633.69
544.14	2367.45
544.33	2496.47
544.53	2455.51
544.73	2490.33
544.93	2480.09
545.12	2451.42
545.32	2473.95
545.52	2439.13
545.71	2379.74
545.91	2394.08
546.11	2441.18
546.30	2359.26
546.50	2523.10
546.70	2506.71
546.90	2496.47
547.09	2285.53
547.29	2482.14
547.49	2588.63
547.68	2519.00
547.88	2357.21
548.08	2605.02
548.27	2924.50
548.47	2373.60
548.67	2496.47
548.87	2576.34
549.06	2387.93
549.26	2486.23
549.46	2500.57
549.65	2385.88
549.85	2441.18
550.05	2519.00
550.24	2367.45
550.44	2469.85
550.64	2473.95
550.83	2461.66
551.03	2662.36
551.23	2637.78
551.42	2531.29
551.62	2412.51
551.82	2473.95
552.01	2486.23
552.21	2594.78
552.41	2545.63
552.60	2705.37
552.80	2430.94
553.00	2334.68
553.19	2441.18
553.39	2729.94
553.59	2361.31
553.78	2562.01
553.98	2533.34
554.17	2334.68
554.37	2504.67
554.57	2521.05
554.76	2334.68
554.96	2383.84
555.16	2467.80
555.35	2473.95
555.55	2473.95
555.75	2480.09
555.94	2566.10
556.14	2310.11
556.33	2514.91
556.53	2439.13
556.73	2400.22
556.92	2539.48
557.12	2496.47
557.32	2766.81
557.51	2594.78
557.71	2514.91
557.90	2596.82
558.10	2719.70
558.30	2469.85
558.49	2437.08
558.69	2432.99
558.88	2508.76
559.08	2551.77
559.28	2424.80
559.47	2514.91
559.67	2562.01
559.86	2715.61
560.06	2492.38
560.26	2340.83
560.45	2459.61
560.65	2457.56
560.84	2711.51
561.04	2371.55
561.24	2621.40
561.43	2439.13
561.63	2631.64
561.82	2543.58
562.02	2600.92
562.22	2408.41
562.41	2324.44
562.61	2473.95
562.80	2359.26
563.00	2764.76
563.19	2432.99
563.39	2482.14
563.59	2559.96
563.78	2453.47
563.98	2179.04
564.17	2404.32
564.37	2342.88
564.56	2516.95
564.76	2371.55
564.96	2600.92
565.15	2570.20
565.35	2758.61
565.54	2490.33
565.74	2504.67
565.93	2539.48
566.13	2506.71
566.32	2439.13
566.52	2512.86
566.71	2459.61
566.91	2592.73
567.11	2469.85
567.30	2377.69
567.50	2562.01
567.69	2519.00
567.89	2510.81
568.08	2394.08
568.28	2514.91
568.47	2443.23
568.67	2449.37
568.86	2490.33
569.06	2527.19
569.25	2486.23
569.45	2351.07
569.64	2385.88
569.84	2535.39
570.04	2600.92
570.23	2451.42
570.43	2457.56
570.62	2525.15
570.82	2678.74
571.01	2367.45
571.21	2461.66
571.40	2375.64
571.60	2635.74
571.79	2490.33
571.99	2482.14
572.18	2379.74
572.38	2613.21
572.57	2414.56
572.77	2447.32
572.96	2873.30
573.16	2500.57
573.35	2426.84
573.55	2613.21
573.74	2523.10
573.94	2492.38
574.13	2412.51
574.33	2643.93
574.52	2701.27
574.71	2543.58
574.91	2467.80
575.10	2301.92
575.30	2414.56
575.49	2400.22
575.69	2371.55
575.88	2459.61
576.08	2535.39
576.27	2609.11
576.47	2465.75
576.66	2678.74
576.86	2645.98
577.05	2553.82
577.25	2559.96
577.44	2686.94
577.64	2414.56
577.83	2693.08
578.02	2506.71
578.22	2592.73
578.41	2787.29
578.61	2471.90
578.80	2365.40
579.00	2486.23
579.19	2529.24
579.39	2551.77
579.58	2598.87
579.77	2498.52
579.97	2703.32
580.16	2676.70
580.36	2551.77
580.55	2650.07
580.75	2537.43
580.94	2568.15
581.13	2666.46
581.33	2637.78
581.52	2574.30
581.72	2791.38
581.91	2688.98
582.11	2519.00
582.30	2723.80
582.49	2555.86
582.69	2686.94
582.88	2596.82
583.08	2490.33
583.27	2600.92
583.47	2478.04
583.66	2400.22
583.85	2426.84
584.05	2506.71
584.24	2580.44
584.44	2670.55
584.63	2684.89
584.82	2715.61
585.02	2660.31
585.21	2715.61
585.41	2623.45
585.60	2600.92
585.79	2740.18
585.99	2762.71
586.18	2711.51
586.37	3184.59
586.57	5160.88
586.76	15122.20
586.96	34706.93
587.15	47877.41
587.34	57812.11
587.54	62350.41
587.73	56313.00
587.93	39589.28
588.12	30248.50
588.31	24397.45
588.51	21393.08
588.70	19914.45
588.89	17592.05
589.09	15206.17
589.28	12885.82
589.47	10235.75
589.67	7944.07
589.86	6195.11
590.06	4689.85
590.25	3907.52
590.44	3346.38
590.64	3022.80
590.83	2895.83
591.02	2721.75
591.22	2611.16
591.41	2584.54
591.60	2555.86
591.80	2834.39
591.99	2420.70
592.18	2473.95
592.38	2617.30
592.57	2432.99
592.76	2504.67
592.96	2551.77
593.15	2461.66
593.34	2598.87
593.54	2463.71
593.73	2539.48
593.92	2650.07
594.12	2572.25
594.31	2607.06
594.50	2719.70
594.70	2578.39
594.89	2822.10
595.08	2351.07
595.28	2584.54
595.47	2848.72
595.66	2678.74
595.86	2420.70
596.05	2416.60
596.24	2482.14
596.43	2676.70
596.63	2637.78
596.82	2592.73
597.01	2596.82
597.21	2731.99
597.40	2521.05
597.59	2514.91
597.79	2441.18
597.98	2535.39
598.17	2592.73
598.36	2441.18
598.56	2592.73
598.75	2482.14
598.94	2506.71
599.14	2570.20
599.33	2486.23
599.52	2531.29
599.71	2488.28
599.91	2580.44
600.10	2533.34
600.29	2408.41
600.48	2602.97
600.68	2537.43
600.87	2480.09
601.06	2439.13
601.26	2480.09
601.45	2514.91
601.64	2480.09
601.83	2678.74
602.03	2416.60
602.22	2373.60
602.41	2637.78
602.60	2754.52
602.80	2562.01
602.99	2527.19
603.18	2459.61
603.37	2541.53
603.57	2512.86
603.76	2600.92
603.95	2578.39
604.14	2371.55
604.34	2408.41
604.53	2465.75
604.72	2584.54
604.91	2543.58
605.10	2478.04
605.30	2398.17
605.49	2736.09
605.68	2641.88
605.87	2584.54
606.07	2355.16
606.26	2570.20
606.45	2527.19
606.64	2379.74
606.84	2437.08
607.03	2547.67
607.22	2691.03
607.41	2523.10
607.60	2475.99
607.80	2639.83
607.99	2533.34
608.18	2519.00
608.37	2455.51
608.56	2465.75
608.76	2668.50
608.95	2697.17
609.14	2578.39
609.33	2660.31
609.52	2758.61
609.72	2617.30
609.91	2654.17
610.10	2602.97
610.29	2717.65
610.48	2547.67
610.68	2549.72
610.87	2549.72
611.06	2547.67
611.25	2441.18
611.44	2674.65
611.63	2447.32
611.83	2670.55
612.02	2332.64
612.21	2596.82
612.40	2334.68
612.59	2451.42
612.79	2318.30
612.98	2480.09
613.17	2750.42
613.36	2465.75
613.55	2654.17
613.74	2580.44
613.93	2625.50
614.13	2701.27
614.32	2731.99
614.51	2586.58
614.70	2545.63
614.89	2574.30
615.08	2658.26
615.28	3061.71
615.47	2387.93
615.66	2592.73
615.85	2605.02
616.04	2770.90
616.23	2555.86
616.42	2553.82
616.62	2475.99
616.81	2443.23
617.00	2539.48
617.19	2592.73
617.38	2408.41
617.57	2512.86
617.76	2580.44
617.95	2598.87
618.15	2523.10
618.34	2701.27
618.53	2355.16
618.72	2654.17
618.91	2621.40
619.10	2521.05
619.29	2512.86
619.48	2592.73
619.68	2365.40
619.87	2475.99
620.06	2277.34
620.25	2535.39
620.44	2377.69
620.63	2426.84
620.82	2547.67
621.01	2500.57
621.20	2422.75
621.39	2447.32
621.59	2543.58
621.78	2519.00
621.97	2504.67
622.16	2584.54
622.35	2516.95
622.54	2617.30
622.73	2578.39
622.92	2277.34
623.11	2658.26
623.30	2473.95
623.49	2564.06
623.68	2279.39
623.88	2637.78
624.07	2459.61
624.26	2359.26
624.45	2504.67
624.64	2547.67
624.83	2531.29
625.02	2404.32
625.21	2514.91
625.40	2484.19
625.59	2609.11
625.78	2514.91
625.97	2594.78
626.16	2746.33
626.35	2605.02
626.54	2568.15
626.74	2684.89
626.93	2498.52
627.12	2531.29
627.31	2504.67
627.50	2482.14
627.69	2594.78
627.88	2445.27
628.07	2412.51
628.26	2322.40
628.45	2416.60
628.64	2371.55
628.83	2459.61
629.02	2375.64
629.21	2535.39
629.40	2521.05
629.59	2428.89
629.78	2475.99
629.97	2486.23
630.16	2473.95
630.35	2463.71
630.54	2467.80
630.73	2428.89
630.92	2555.86
631.11	2383.84
631.30	2461.66
631.49	2588.63
631.68	2428.89
631.87	2480.09
632.06	2367.45
632.25	2807.77
632.44	2492.38
632.63	2562.01
632.82	2453.47
633.01	2529.24
633.20	2627.54
633.39	2516.95
633.58	2344.92
633.77	2635.74
633.96	2678.74
634.15	2551.77
634.34	2496.47
634.53	2531.29
634.72	2432.99
634.91	2322.40
635.10	2486.23
635.29	2635.74
635.48	2545.63
635.67	2387.93
635.86	2330.59
636.05	2621.40
636.24	2502.62
636.43	2463.71
636.62	2537.43
636.81	2293.72
637.00	2471.90
637.19	2531.29
637.38	2351.07
637.57	2467.80
637.76	2580.44
637.95	2611.16
638.14	2459.61
638.33	2637.78
638.52	2611.16
638.71	2408.41
638.89	2324.44
639.08	2801.62
639.27	2719.70
639.46	2818.00
639.65	3289.04
639.84	3262.41
640.03	3334.09
640.22	3166.16
640.41	3166.16
640.60	2807.77
640.79	2740.18
640.98	2703.32
641.17	2750.42
641.36	2752.47
641.55	2762.71
641.74	2406.36
641.92	2457.56
642.11	2455.51
642.30	2549.72
642.49	2439.13
642.68	2502.62
642.87	2555.86
643.06	2494.43
643.25	2420.70
643.44	2449.37
643.63	2420.70
643.82	2568.15
644.00	2310.11
644.19	2465.75
644.38	2377.69
644.57	2609.11
644.76	2469.85
644.95	2424.80
645.14	2508.76
645.33	2463.71
645.52	2500.57
645.71	2414.56
645.89	2392.03
646.08	2465.75
646.27	2430.94
646.46	2635.74
646.65	2285.53
646.84	2469.85
647.03	2334.68
647.22	2588.63
647.40	2480.09
647.59	2432.99
647.78	2258.91
647.97	2387.93
648.16	2340.83
648.35	2738.13
648.54	2635.74
648.73	2432.99
648.91	2584.54
649.10	2508.76
649.29	2416.60
649.48	2412.51
649.67	2533.34
649.86	2514.91
650.05	2572.25
650.23	2711.51
650.42	2498.52
650.61	2707.41
650.80	2746.33
650.99	2789.33
651.18	2650.07
651.36	2629.59
651.55	2424.80
651.74	2617.30
651.93	2441.18
652.12	2494.43
652.31	2457.56
652.49	2447.32
652.68	2508.76
652.87	2715.61
653.06	2529.24
653.25	2699.22
653.44	2549.72
653.62	2699.22
653.81	2400.22
654.00	2510.81
654.19	2537.43
654.38	2852.82
654.56	2500.57
654.75	2486.23
654.94	2594.78
655.13	2469.85
655.32	2445.27
655.51	2541.53
655.69	2547.67
655.88	2564.06
656.07	2269.15
656.26	2441.18
656.45	2365.40
656.63	2459.61
656.82	2400.22
657.01	2666.46
657.20	2494.43
657.38	2652.12
657.57	2437.08
657.76	2338.78
657.95	2551.77
658.14	2394.08
658.32	2473.95
658.51	2359.26
658.70	2447.32
658.89	2506.71
659.08	2506.71
659.26	2596.82
659.45	2480.09
659.64	2539.48
659.83	2527.19
660.01	2906.07
660.20	2533.34
660.39	2719.70
660.58	2324.44
660.76	2486.23
660.95	2326.49
661.14	2469.85
661.33	2365.40
661.51	2396.12
661.70	2373.60
661.89	2498.52
662.08	2441.18
662.26	2351.07
662.45	2469.85
662.64	2723.80
662.83	2539.48
663.01	2277.34
663.20	2404.32
663.39	2650.07
663.58	2455.51
663.76	2406.36
663.95	2594.78
664.14	2324.44
664.32	2435.03
664.51	2373.60
664.70	2256.86
664.89	2570.20
665.07	2306.01
665.26	2539.48
665.45	2334.68
665.64	2596.82
665.82	2449.37
666.01	2531.29
666.20	2392.03
666.38	2570.20
666.57	2697.17
666.76	3811.27
666.95	9695.08
667.13	18024.17
667.32	23287.45
667.51	26433.13
667.69	28032.60
667.88	24743.56
668.07	17479.41
668.25	14460.71
668.44	12056.39
668.63	10358.63
668.81	9258.87
669.00	7903.11
669.19	7110.55
669.38	6287.26
669.56	5429.17
669.75	4440.00
669.94	3829.70
670.12	3153.87
670.31	2947.03
670.50	2832.34
670.68	2750.42
670.87	2619.35
671.06	2465.75
671.24	2586.58
671.43	2815.96
671.62	2582.49
671.80	2482.14
671.99	2539.48
672.18	2553.82
672.36	2670.55
672.55	2537.43
672.74	2473.95
672.92	2430.94
673.11	2498.52
673.29	2361.31
673.48	2539.48
673.67	2426.84
673.85	2662.36
674.04	2367.45
674.23	2471.90
674.41	2752.47
674.60	2361.31
674.79	2256.86
674.97	2404.32
675.16	2539.48
675.34	2664.41
675.53	2414.56
675.72	2527.19
675.90	2719.70
676.09	2525.15
676.28	2533.34
676.46	2258.91
676.65	2674.65
676.83	2396.12
677.02	2473.95
677.21	2535.39
677.39	2514.91
677.58	2418.65
677.77	2439.13
677.95	2400.22
678.14	2502.62
678.32	2430.94
678.51	2392.03
678.70	2707.41
678.88	2441.18
679.07	2551.77
679.25	2471.90
679.44	2465.75
679.63	2265.05
679.81	2478.04
680.00	2596.82
680.18	2531.29
680.37	2760.66
680.55	2498.52
680.74	2326.49
680.93	2265.05
681.11	2521.05
681.30	2416.60
681.48	2506.71
681.67	2443.23
681.85	2531.29
682.04	2346.97
682.23	2580.44
682.41	2486.23
682.60	2416.60
682.78	2488.28
682.97	2346.97
683.15	2490.33
683.34	2486.23
683.53	2625.50
683.71	2287.58
683.90	2574.30
684.08	2676.70
684.27	2437.08
684.45	2516.95
684.64	2549.72
684.82	2455.51
685.01	2555.86
685.19	2422.75
685.38	2662.36
685.57	2555.86
685.75	2400.22
685.94	2465.75
686.12	2381.79
686.31	2488.28
686.49	2652.12
686.68	2306.01
686.86	2482.14
687.05	2449.37
687.23	2693.08
687.42	2398.17
687.60	2293.72
687.79	2566.10
687.97	2748.37
688.16	2531.29
688.34	2551.77
688.53	2240.48
688.71	2584.54
688.90	2625.50
689.08	2449.37
689.27	2344.92
689.45	2580.44
689.64	2367.45
689.82	2543.58
690.01	2535.39
690.19	2514.91
690.38	2467.80
690.56	2592.73
690.75	2416.60
690.93	2371.55
691.12	2351.07
691.30	2496.47
691.49	2482.14
691.67	2463.71
691.86	2674.65
692.04	2410.46
692.23	2465.75
692.41	2523.10
692.60	2736.09
692.78	2652.12
692.97	2521.05
693.15	2666.46
693.34	2658.26
693.52	2613.21
693.71	2437.08
693.89	2439.13
694.08	2310.11
694.26	2551.77
694.44	2613.21
694.63	2592.73
694.81	2385.88
695.00	2385.88
695.18	2594.78
695.37	2709.46
695.55	2498.52
695.74	2445.27
695.92	2367.45
696.10	2670.55
696.29	2369.50
696.47	2453.47
696.66	2301.92
696.84	2412.51
697.03	2424.80
697.21	2674.65
697.40	3688.39
697.58	2580.44
697.76	2439.13
697.95	2408.41
698.13	2336.73
698.32	2420.70
698.50	2426.84
698.68	2514.91
698.87	2559.96
699.05	2693.08
699.24	2418.65
699.42	2357.21
699.61	2602.97
699.79	2512.86
699.97	2451.42
700.16	2318.30
700.34	2373.60
700.53	2473.95
700.71	2615.26
700.89	2549.72
701.08	2471.90
701.26	2535.39
701.45	2957.27
701.63	2441.18
701.81	2387.93
702.00	2326.49
702.18	2570.20
702.37	2449.37
702.55	2717.65
702.73	2754.52
702.92	2562.01
703.10	2727.89
703.28	2750.42
703.47	2490.33
703.65	2678.74
703.84	2602.97
704.02	2519.00
704.20	2725.85
704.39	2422.75
704.57	2432.99
704.75	2635.74
704.94	2570.20
705.12	2580.44
705.30	2854.87
705.49	5668.78
705.67	12773.18
705.86	20811.46
706.04	24305.29
706.22	27555.42
706.41	28198.48
706.59	22996.64
706.77	16621.31
706.96	13836.08
707.14	12384.07
707.32	10608.48
707.51	9363.31
707.69	7683.98
707.87	6121.38
708.06	4997.04
708.24	4104.13
708.42	3358.67
708.61	3346.38
708.79	2600.92
708.97	2543.58
709.16	2596.82
709.34	2553.82
709.52	2570.20
709.71	2435.03
709.89	2564.06
710.07	2408.41
710.26	2420.70
710.44	2514.91
710.62	2582.49
710.80	2492.38
710.99	2588.63
711.17	2572.25
711.35	2379.74
711.54	2449.37
711.72	2629.59
711.90	2504.67
712.09	2432.99
712.27	2432.99
712.45	2443.23
712.63	2461.66
712.82	2539.48
713.00	2420.70
713.18	2609.11
713.37	2527.19
713.55	2559.96
713.73	2539.48
713.91	2625.50
714.10	2496.47
714.28	2535.39
714.46	2533.34
714.65	2512.86
714.83	2490.33
715.01	2506.71
715.19	2549.72
715.38	2416.60
715.56	2521.05
715.74	2482.14
715.92	2383.84
716.11	2578.39
716.29	2273.25
716.47	2547.67
716.65	2555.86
716.84	2273.25
717.02	2621.40
717.20	2295.77
717.38	2420.70
717.57	2555.86
717.75	2412.51
717.93	2451.42
718.11	2598.87
718.30	2363.36
718.48	2535.39
718.66	2633.69
718.84	2645.98
719.03	2547.67
719.21	2369.50
719.39	2701.27
719.57	2521.05
719.75	2617.30
719.94	2424.80
720.12	2449.37
720.30	2471.90
720.48	2598.87
720.67	2371.55
720.85	2342.88
721.03	2342.88
721.21	2400.22
721.39	2523.10
721.58	2488.28
721.76	2463.71
721.94	2502.62
722.12	2490.33
722.30	2668.50
722.49	2418.65
722.67	2572.25
722.85	2465.75
723.03	2287.58
723.21	2447.32
723.40	2482.14
723.58	2555.86
723.76	2605.02
723.94	2658.26
724.12	2504.67
724.30	2686.94
724.49	2662.36
724.67	2541.53
724.85	2619.35
725.03	2314.20
725.21	2469.85
725.40	2533.34
725.58	2457.56
725.76	2652.12
725.94	2535.39
726.12	2351.07
726.30	2564.06
726.49	2398.17
726.67	2439.13
726.85	2584.54
727.03	2961.36
727.21	4304.83
727.39	5875.62
727.57	6592.41
727.76	7374.74
727.94	7739.27
728.12	7036.82
728.30	5670.83
728.48	4976.56
728.66	4544.44
728.84	4028.35
729.03	3530.70
729.21	3252.17
729.39	2949.08
729.57	2623.45
729.75	2678.74
729.93	2598.87
730.11	2428.89
730.30	2547.67
730.48	2465.75
730.66	2590.68
730.84	2553.82
731.02	2580.44
731.20	2349.02
731.38	2404.32
731.56	2310.11
731.74	2389.98
731.93	2615.26
732.11	2420.70
732.29	2461.66
732.47	2570.20
732.65	2457.56
732.83	2660.31
733.01	2559.96
733.19	2365.40
733.37	2502.62
733.56	2473.95
733.74	2314.20
733.92	2645.98
734.10	2392.03
734.28	2506.71
734.46	2256.86
734.64	2494.43
734.82	2359.26
735.00	2373.60
735.18	2459.61
735.36	2447.32
735.54	2510.81
735.73	2383.84
735.91	2508.76
736.09	2592.73
736.27	2363.36
736.45	2484.19
736.63	2220.00
736.81	2396.12
736.99	2580.44
737.17	2621.40
737.35	2392.03
737.53	2533.34
737.71	2396.12
737.89	2564.06
738.07	2402.27
738.25	2424.80
738.43	2322.40
738.61	2396.12
738.80	2349.02
738.98	2236.38
739.16	2432.99
739.34	2453.47
739.52	2652.12
739.70	2502.62
739.88	2488.28
740.06	2605.02
740.24	2232.29
740.42	2645.98
740.60	2187.23
740.78	2424.80
740.96	2324.44
741.14	2396.12
741.32	2414.56
741.50	2306.01
741.68	2709.46
741.86	2641.88
742.04	2310.11
742.22	2406.36
742.40	2398.17
742.58	2545.63
742.76	2420.70
742.94	2611.16
743.12	2330.59
743.30	2502.62
743.48	2559.96
743.66	2342.88
743.84	2510.81
744.02	2463.71
744.20	2457.56
744.38	2359.26
744.56	2414.56
744.74	2736.09
744.92	2512.86
745.10	2678.74
745.28	2535.39
745.46	2592.73
745.64	2398.17
745.82	2535.39
746.00	2361.31
746.18	2510.81
746.36	2359.26
746.54	2555.86
746.72	2484.19
746.90	2406.36
747.08	2713.56
747.26	2422.75
747.44	2523.10
747.62	2525.15
747.80	2566.10
747.98	2580.44
748.15	2373.60
748.33	2785.24
748.51	2465.75
748.69	2537.43
748.87	2406.36
749.05	2445.27
749.23	2463.71
749.41	2514.91
749.59	2465.75
749.77	2584.54
749.95	2484.19
750.13	2473.95
750.31	2465.75
750.49	2490.33
750.67	2555.86
750.85	2627.54
751.03	2428.89
751.20	2777.05
751.38	2484.19
751.56	2367.45
751.74	2457.56
751.92	2392.03
752.10	2361.31
752.28	2576.34
752.46	2437.08
752.64	2547.67
752.82	2471.90
753.00	2580.44
753.18	2385.88
753.35	2490.33
753.53	2387.93
753.71	2435.03
753.89	2527.19
754.07	2490.33
754.25	2602.97
754.43	2494.43
754.61	2324.44
754.79	2580.44
754.97	2475.99
755.14	2617.30
755.32	2316.25
755.50	2457.56
755.68	2523.10
755.86	2351.07
756.04	2435.03
756.22	2234.33
756.40	2516.95
756.57	2719.70
756.75	2453.47
756.93	2580.44
757.11	2607.06
757.29	2322.40
757.47	2381.79
757.65	2359.26
757.82	2283.49
758.00	2430.94
758.18	2351.07
758.36	2398.17
758.54	2650.07
758.72	2293.72
758.90	2613.21
759.07	2504.67
759.25	2334.68
759.43	2506.71
759.61	2349.02
759.79	3518.41
759.97	2590.68
760.15	2430.94
760.32	2375.64
760.50	2510.81
760.68	2602.97
760.86	2365.40
761.04	2605.02
761.22	2600.92
761.39	2492.38
761.57	2531.29
761.75	2457.56
761.93	2525.15
762.11	2471.90
762.28	2463.71
762.46	2375.64
762.64	2629.59
762.82	2357.21
763.00	2357.21
763.18	2598.87
763.35	2406.36
763.53	2523.10
763.71	2367.45
763.89	2473.95
764.07	2490.33
764.24	2451.42
764.42	2576.34
764.60	2381.79
764.78	2508.76
764.96	2572.25
765.13	2660.31
765.31	2387.93
765.49	2617.30
765.67	2308.06
765.84	2400.22
766.02	2412.51
766.20	2342.88
766.38	2578.39
766.56	2572.25
766.73	2480.09
766.91	2512.86
767.09	2392.03
767.27	2543.58
767.44	2344.92
767.62	2625.50
767.80	2519.00
767.98	2437.08
768.15	2359.26
768.33	2621.40
768.51	2627.54
768.69	2516.95
768.87	2531.29
769.04	2551.77
769.22	2725.85
769.40	2637.78
769.58	2621.40
769.75	2504.67
769.93	2602.97
770.11	2439.13
770.28	2332.64
770.46	2547.67
770.64	2527.19
770.82	2367.45
770.99	2387.93
771.17	2547.67
771.35	2392.03
771.53	2383.84
771.70	2363.36
771.88	2519.00
772.06	2494.43
772.23	2392.03
772.41	2535.39
772.59	2400.22
772.77	2396.12
772.94	2490.33
773.12	2396.12
773.30	2383.84
773.47	2578.39
773.65	2394.08
773.83	2617.30
774.01	2498.52
774.18	2299.87
774.36	2469.85
774.54	2273.25
774.71	2461.66
774.89	2314.20
775.07	2410.46
775.24	2369.50
775.42	2326.49
775.60	2695.13
775.78	2424.80
775.95	2332.64
776.13	2228.19
776.31	2195.42
776.48	2553.82
776.66	2547.67
776.84	2365.40
777.01	2408.41
777.19	2359.26
777.37	2346.97
777.54	2539.48
777.72	2662.36
777.90	2543.58
778.07	2363.36
778.25	2871.25
778.43	2645.98
778.60	2383.84
778.78	2463.71
778.96	2590.68
779.13	2293.72
779.31	2533.34
779.49	2396.12
779.66	2504.67
779.84	2402.27
780.01	2473.95
780.19	2316.25
780.37	2641.88
780.54	2617.30
780.72	2371.55
780.90	2416.60
781.07	2451.42
781.25	2424.80
781.43	2609.11
781.60	2480.09
781.78	2613.21
781.95	2531.29
782.13	2406.36
782.31	2418.65
782.48	2256.86
782.66	2486.23
782.83	2596.82
783.01	2523.10
783.19	2531.29
783.36	2490.33
783.54	2293.72
783.72	2484.19
783.89	2408.41
784.07	2455.51
784.24	2574.30
784.42	2580.44
784.60	2473.95
784.77	2506.71
784.95	2299.87
785.12	2353.12
785.30	2564.06
785.47	2412.51
785.65	2402.27
785.83	2428.89
786.00	2416.60
786.18	2469.85
786.35	2371.55
786.53	2396.12
786.71	2531.29
786.88	2564.06
787.06	2482.14
787.23	2486.23
787.41	2420.70
787.58	2537.43
787.76	2424.80
787.94	2408.41
788.11	2514.91
788.29	2383.84
788.46	2402.27
788.64	2283.49
788.81	2478.04
788.99	2373.60
789.16	2285.53
789.34	2392.03
789.52	2459.61
789.69	2408.41
789.87	2279.39
790.04	2406.36
790.22	2537.43
790.39	2758.61
790.57	2357.21
790.74	2371.55
790.92	2584.54
791.09	2269.15
791.27	2535.39
791.44	2502.62
791.62	2478.04
791.79	2568.15
791.97	2572.25
792.15	2850.77
792.32	2553.82
792.50	2527.19
792.67	2549.72
792.85	2615.26
793.02	2473.95
793.20	2451.42
793.37	2310.11
793.55	2377.69
793.72	2324.44
793.90	2500.57
794.07	2363.36
794.25	2346.97
794.42	2531.29
794.60	2445.27
794.77	2461.66
794.95	2555.86
795.12	2643.93
795.30	2420.70
795.47	2238.43
795.65	2719.70
795.82	2547.67
796.00	2316.25
796.17	2412.51
796.34	2367.45
796.52	2482.14
796.69	2564.06
796.87	2469.85
797.04	2506.71
797.22	2480.09
797.39	2494.43
797.57	2586.58
797.74	2559.96
797.92	2506.71
798.09	2445.27
798.27	2627.54
798.44	2342.88
798.62	2398.17
798.79	2457.56
798.96	2455.51
799.14	2471.90
799.31	2693.08
799.49	2500.57
799.66	2398.17
799.84	2566.10
800.01	2316.25
800.19	2547.67
800.36	2238.43
800.53	2523.10
800.71	2496.47
800.88	2768.85
801.06	2392.03
801.23	2426.84
801.41	2475.99
801.58	2424.80
801.75	2475.99
801.93	2478.04
802.10	2605.02
802.28	2449.37
802.45	2457.56
802.63	2512.86
802.80	2605.02
802.97	2428.89
803.15	2512.86
803.32	2363.36
803.50	2383.84
803.67	2326.49
803.84	2353.12
804.02	2461.66
804.19	2441.18
804.37	2195.42
804.54	2338.78
804.71	2449.37
804.89	2424.80
805.06	2373.60
805.24	2414.56
805.41	2281.44
805.58	2379.74
805.76	2826.20
805.93	2523.10
806.10	2615.26
806.28	2574.30
806.45	2531.29
806.63	2461.66
806.80	2457.56
806.97	2545.63
807.15	2500.57
807.32	2461.66
807.49	2441.18
807.67	2338.78
807.84	2482.14
808.01	2277.34
808.19	2662.36
808.36	2795.48
808.54	2420.70
808.71	2359.26
808.88	2457.56
809.06	2619.35
809.23	2705.37
809.40	2400.22
809.58	2543.58
809.75	2480.09
809.92	2379.74
810.10	2715.61
810.27	2424.80
810.44	2531.29
810.62	2602.97
810.79	2578.39
810.96	2379.74
811.14	2406.36
811.31	2521.05
811.48	2506.71
811.66	2521.05
811.83	2576.34
812.00	2535.39
812.18	2502.62
812.35	2684.89
812.52	2412.51
812.69	2441.18
812.87	2475.99
813.04	2387.93
813.21	2432.99
813.39	2334.68
813.56	2365.40
813.73	2695.13
813.91	2310.11
814.08	2406.36
814.25	2482.14
814.42	2314.20
814.60	2412.51
814.77	2531.29
814.94	2516.95
815.12	2512.86
815.29	2684.89
815.46	2432.99
815.63	2418.65
815.81	2432.99
815.98	2396.12
816.15	2396.12
816.33	2449.37
816.50	2428.89
816.67	2402.27
816.84	2457.56
817.02	2291.68
817.19	2408.41
817.36	2529.24
817.53	2605.02
817.71	2359.26
817.88	2531.29
818.05	2457.56
818.22	2449.37
818.40	2662.36
818.57	2373.60
818.74	2572.25
818.91	2396.12
819.09	2564.06
819.26	2605.02
819.43	2408.41
819.60	2326.49
819.78	2547.67
819.95	2570.20
820.12	2369.50
820.29	2592.73
820.47	2584.54
820.64	2357.21
820.81	2314.20
820.98	2351.07
821.15	2406.36
821.33	2547.67
821.50	2281.44
821.67	2508.76
821.84	2342.88
822.02	2482.14
822.19	2617.30
822.36	2519.00
822.53	2416.60
822.70	2324.44
822.88	2375.64
823.05	2625.50
823.22	2506.71
823.39	2459.61
823.56	2449.37
823.74	2748.37
823.91	2338.78
824.08	2336.73
824.25	2291.68
824.42	2631.64
824.60	2379.74
824.77	2502.62
824.94	2457.56
825.11	2582.49
825.28	2265.05
825.45	2531.29
825.63	2439.13
825.80	2385.88
825.97	2533.34
826.14	2492.38
826.31	2306.01
826.48	2490.33
826.66	2404.32
826.83	2371.55
827.00	2383.84
827.17	2396.12
827.34	2437.08
827.51	2351.07
827.69	2404.32
827.86	2310.11
828.03	2432.99
828.20	2502.62
828.37	2379.74
828.54	2514.91
828.71	2312.16
828.89	2602.97
829.06	2490.33
829.23	2631.64
829.40	2430.94
829.57	2441.18
829.74	2564.06
829.91	2432.99
830.09	2453.47
830.26	2551.77
830.43	2752.47
830.60	2533.34
830.77	2531.29
830.94	2588.63
831.11	2529.24
831.28	2521.05
831.46	2527.19
831.63	2389.98
831.80	2580.44
831.97	2455.51
832.14	2402.27
832.31	2496.47
832.48	2592.73
832.65	2654.17
832.82	2510.81
832.99	2537.43
833.17	2289.63
833.34	2672.60
833.51	2471.90
833.68	2234.33
833.85	2545.63
834.02	2306.01
834.19	2375.64
834.36	2353.12
834.53	2539.48
834.70	2564.06
834.87	2506.71
835.04	2340.83
835.22	2418.65
835.39	2445.27
835.56	2324.44
835.73	2338.78
835.90	2492.38
836.07	2287.58
836.24	2498.52
836.41	2342.88
836.58	2420.70
836.75	2592.73
836.92	2422.75
837.09	2367.45
837.26	2543.58
837.43	2523.10
837.60	2432.99
837.77	2389.98
837.94	2648.02
838.12	2578.39
838.29	2359.26
838.46	2205.66
838.63	2291.68
838.80	2684.89
838.97	2420.70
839.14	2412.51
839.31	2498.52
839.48	2525.15
839.65	2420.70
839.82	2420.70
839.99	2473.95
840.16	2498.52
840.33	2392.03
840.50	2375.64
840.67	2389.98
840.84	2275.29
841.01	2353.12
841.18	2293.72
841.35	2451.42
841.52	2545.63
841.69	2701.27
841.86	2471.90
842.03	2465.75
842.20	2547.67
842.37	2383.84
842.54	2412.51
842.71	2527.19
842.88	2299.87
843.05	2383.84
843.22	2392.03
843.39	2568.15
843.56	2420.70
843.73	2381.79
843.90	2473.95
844.07	2432.99
844.24	2602.97
844.41	2469.85
844.58	2406.36
844.75	2416.60
844.92	2527.19
845.09	2414.56
845.26	2363.36
845.43	2498.52
845.60	2490.33
845.77	2580.44
845.94	2410.46
846.10	2621.40
846.27	2351.07
846.44	2312.16
846.61	2232.29
846.78	2588.63
846.95	2592.73
847.12	2338.78
847.29	2344.92
847.46	2402.27
847.63	2590.68
847.80	2310.11
847.97	2439.13
848.14	2781.14
848.31	2445.27
848.48	2258.91
848.65	2475.99
848.82	2383.84
848.98	2811.86
849.15	2494.43
849.32	2447.32
849.49	2602.97
849.66	2437.08
849.83	2297.82
850.00	2320.35
850.17	2598.87
850.34	2416.60
850.51	2326.49
850.68	2416.60
850.85	2772.95
851.01	2449.37
851.18	2383.84
851.35	2400.22
851.52	2535.39
851.69	2633.69
851.86	2281.44
852.03	2416.60
852.20	2441.18
852.37	2488.28
852.53	2301.92
852.70	2365.40
852.87	2490.33
853.04	2592.73
853.21	2408.41
853.38	2598.87
853.55	2514.91
853.72	2715.61
853.89	2359.26
854.05	2365.40
854.22	2422.75
854.39	2480.09
854.56	2383.84
854.73	2566.10
854.90	2340.83
855.07	2506.71
855.23	2277.34
855.40	2428.89
855.57	2461.66
855.74	2236.38
855.91	2586.58
856.08	2258.91
856.25	2340.83
856.41	2408.41
856.58	2408.41
856.75	2367.45
856.92	2314.20
857.09	2611.16
857.26	2293.72
857.42	2383.84
857.59	2568.15
857.76	2408.41
857.93	2318.30
858.10	2404.32
858.27	2408.41
858.43	2392.03
858.60	2381.79
858.77	2353.12
858.94	2349.02
859.11	2578.39
859.27	2408.41
859.44	2375.64
859.61	2695.13
859.78	2551.77
859.95	2351.07
860.12	2396.12
860.28	2738.13
860.45	2734.04
860.62	2357.21
860.79	2451.42
860.95	2449.37
861.12	2412.51
861.29	2324.44
861.46	2220.00
861.63	2389.98
861.79	2426.84
861.96	2293.72
862.13	2330.59
862.30	2592.73
862.47	2473.95
862.63	2334.68
862.80	2406.36
862.97	2555.86
863.14	2543.58
863.30	2473.95
863.47	2398.17
863.64	2654.17
863.81	2545.63
863.97	2285.53
864.14	2412.51
864.31	2379.74
864.48	2473.95
864.65	2408.41
864.81	2467.80
864.98	2598.87
865.15	2617.30
865.32	2416.60
865.48	2463.71
865.65	2650.07
865.82	2424.80
865.98	2437.08
866.15	2512.86
866.32	2375.64
866.49	2453.47
866.65	2541.53
866.82	2277.34
866.99	2383.84
867.16	2396.12
867.32	2344.92
867.49	2271.20
867.66	2465.75
867.83	2392.03
867.99	2238.43
868.16	2369.50
868.33	2326.49
868.49	2478.04
868.66	2334.68
868.83	2482.14
868.99	2482.14
869.16	2510.81
869.33	2521.05
869.50	2432.99
869.66	2459.61
869.83	2396.12
870.00	2318.30
870.16	2428.89
870.33	2467.80
870.50	2564.06
870.66	2375.64
870.83	2473.95
871.00	2559.96
871.17	2592.73
871.33	2459.61
871.50	2355.16
871.67	2447.32
871.83	2416.60
872.00	2553.82
872.17	2375.64
872.33	2699.22
872.50	2568.15
872.67	2385.88
872.83	2338.78
873.00	2521.05
873.17	2502.62
873.33	2484.19
873.50	2529.24
873.67	2367.45
873.83	2340.83
874.00	2338.78
874.16	2533.34
874.33	2490.33
874.50	2375.64
874.66	2441.18
874.83	2398.17
875.00	2557.91
875.16	2568.15
875.33	2504.67
875.50	2197.47
875.66	2408.41
875.83	2559.96
875.99	2418.65
876.16	2441.18
876.33	2338.78
876.49	2453.47
876.66	2408.41
876.83	2435.03
876.99	2308.06
877.16	2447.32
877.32	2349.02
877.49	2449.37
877.66	2523.10
877.82	2666.46
877.99	2453.47
878.15	2545.63
878.32	2512.86
878.49	2519.00
878.65	2486.23
878.82	2547.67
878.98	2420.70
879.15	2596.82
879.32	2529.24
879.48	2416.60
879.65	2404.32
879.81	2375.64
879.98	2469.85
880.15	2406.36
880.31	2555.86
880.48	2465.75
880.64	2516.95
880.81	2443.23
880.97	2705.37
881.14	2682.84
881.31	2351.07
881.47	2521.05
881.64	2428.89
881.80	2265.05
881.97	2455.51
882.13	2346.97
882.30	2289.63
882.47	2531.29
882.63	2359.26
882.80	2308.06
882.96	2439.13
883.13	2611.16
883.29	2363.36
883.46	2398.17
883.62	2742.23
883.79	2580.44
883.95	2455.51
884.12	2392.03
884.29	2633.69
884.45	2471.90
884.62	2486.23
884.78	2265.05
884.95	2668.50
885.11	2346.97
885.28	2478.04
885.44	2385.88
885.61	2623.45
885.77	2602.97
885.94	2506.71
886.10	2396.12
886.27	2435.03
886.43	2643.93
886.60	2502.62
886.76	2379.74
886.93	2381.79
887.09	2510.81
887.26	2244.57
887.42	2387.93
887.59	2539.48
887.75	2670.55
887.92	2559.96
888.08	2498.52
888.25	2746.33
888.41	2596.82
888.58	2453.47
888.74	2346.97
888.91	2430.94
>>>>>End Processed Spectral Data<<<<<
