SpectraSuite Data File
++++++++++++++++++++++++++++++++++++
Date: Thu May 05 14:41:37 CEST 2016
User: root
Dark Spectrum Present: No
Reference Spectrum Present: No
Number of Sampled Component Spectra: 1
Spectrometers: USB4C02835
Integration Time (usec): 100000 (USB4C02835)
Spectra Averaged: 1 (USB4C02835)
Boxcar Smoothing: 0 (USB4C02835)
Correct for Electrical Dark: No (USB4C02835)
Strobe/Lamp Enabled: No (USB4C02835)
Correct for Detector Non-linearity: No (USB4C02835)
Correct for Stray Light: No (USB4C02835)
Number of Pixels in Processed Spectrum: 3648
>>>>>Begin Processed Spectral Data<<<<<
177.47	1873.89
177.69	1873.89
177.91	1873.89
178.13	1884.13
178.36	1945.57
178.58	2387.93
178.80	2490.33
179.02	2349.02
179.24	2367.45
179.46	2289.63
179.68	2435.03
179.90	2443.23
180.13	2512.86
180.35	2238.43
180.57	2355.16
180.79	2478.04
181.01	2453.47
181.23	2439.13
181.45	2478.04
181.67	2627.54
181.90	2545.63
182.12	2367.45
182.34	2220.00
182.56	2529.24
182.78	2525.15
183.00	2392.03
183.22	2387.93
183.44	2279.39
183.66	2801.62
183.89	2461.66
184.11	2441.18
184.33	2519.00
184.55	2506.71
184.77	2357.21
184.99	2338.78
185.21	2414.56
185.43	2828.24
185.65	2365.40
185.87	2287.58
186.10	2762.71
186.32	2766.81
186.54	2379.74
186.76	2525.15
186.98	2576.34
187.20	2512.86
187.42	2334.68
187.64	2371.55
187.86	2572.25
188.08	2645.98
188.30	2244.57
188.52	2428.89
188.75	2645.98
188.97	2615.26
189.19	2340.83
189.41	2416.60
189.63	2586.58
189.85	2482.14
190.07	2250.72
190.29	2181.09
190.51	2494.43
190.73	2359.26
190.95	2445.27
191.17	2379.74
191.39	2351.07
191.61	2484.19
191.84	2293.72
192.06	2416.60
192.28	2312.16
192.50	2912.21
192.72	2512.86
192.94	2375.64
193.16	2701.27
193.38	2519.00
193.60	2299.87
193.82	2373.60
194.04	2643.93
194.26	2504.67
194.48	2353.12
194.70	2340.83
194.92	2432.99
195.14	2574.30
195.36	2303.96
195.58	2406.36
195.80	2486.23
196.02	2396.12
196.24	2283.49
196.46	2379.74
196.69	2432.99
196.91	2762.71
197.13	2383.84
197.35	2312.16
197.57	2662.36
197.79	2574.30
198.01	2408.41
198.23	2465.75
198.45	2541.53
198.67	2414.56
198.89	2283.49
199.11	2435.03
199.33	2412.51
199.55	2242.53
199.77	2324.44
199.99	2510.81
200.21	2445.27
200.43	2531.29
200.65	2281.44
200.87	2187.23
201.09	2529.24
201.31	2473.95
201.53	2371.55
201.75	2392.03
201.97	2539.48
202.19	2484.19
202.41	2375.64
202.63	2525.15
202.85	2523.10
203.07	2519.00
203.29	2361.31
203.51	2291.68
203.73	2416.60
203.95	2873.30
204.17	2346.97
204.39	2435.03
204.61	2490.33
204.83	2482.14
205.05	2539.48
205.27	2392.03
205.49	2832.34
205.71	2396.12
205.93	2220.00
206.15	2240.48
206.37	2521.05
206.59	2469.85
206.81	2246.62
207.03	2291.68
207.25	2443.23
207.47	2609.11
207.69	2375.64
207.91	2531.29
208.13	2699.22
208.34	2398.17
208.56	2310.11
208.78	2355.16
209.00	2396.12
209.22	2445.27
209.44	2342.88
209.66	2359.26
209.88	2531.29
210.10	2430.94
210.32	2369.50
210.54	2400.22
210.76	2396.12
210.98	2613.21
211.20	2176.99
211.42	2424.80
211.64	2668.50
211.86	2613.21
212.08	2414.56
212.30	2406.36
212.52	2441.18
212.74	2562.01
212.96	2340.83
213.17	2406.36
213.39	2553.82
213.61	2658.26
213.83	2342.88
214.05	2379.74
214.27	2668.50
214.49	2473.95
214.71	2295.77
214.93	2430.94
215.15	2402.27
215.37	2611.16
215.59	2232.29
215.81	2428.89
216.03	2635.74
216.24	2459.61
216.46	2428.89
216.68	2453.47
216.90	2664.41
217.12	2594.78
217.34	2359.26
217.56	2465.75
217.78	2746.33
218.00	2539.48
218.22	2449.37
218.44	2394.08
218.66	2494.43
218.87	2766.81
219.09	2281.44
219.31	2353.12
219.53	2498.52
219.75	2420.70
219.97	2359.26
220.19	2416.60
220.41	2402.27
220.63	2709.46
220.85	2320.35
221.06	2367.45
221.28	2596.82
221.50	2572.25
221.72	2432.99
221.94	2269.15
222.16	2543.58
222.38	2578.39
222.60	2303.96
222.82	2455.51
223.03	2549.72
223.25	2406.36
223.47	2432.99
223.69	2588.63
223.91	2588.63
224.13	2492.38
224.35	2258.91
224.57	2478.04
224.78	2537.43
225.00	2277.34
225.22	2439.13
225.44	2346.97
225.66	2498.52
225.88	2471.90
226.10	2480.09
226.32	2443.23
226.53	2686.94
226.75	2340.83
226.97	2377.69
227.19	2408.41
227.41	2342.88
227.63	2441.18
227.85	2197.47
228.06	2422.75
228.28	2572.25
228.50	2662.36
228.72	2289.63
228.94	2269.15
229.16	2160.61
229.37	2377.69
229.59	2275.29
229.81	2547.67
230.03	2445.27
230.25	2254.81
230.47	2283.49
230.69	2256.86
230.90	2613.21
231.12	2396.12
231.34	2400.22
231.56	2451.42
231.78	2369.50
232.00	2463.71
232.21	2277.34
232.43	2316.25
232.65	2283.49
232.87	2506.71
233.09	2301.92
233.30	2355.16
233.52	2572.25
233.74	2484.19
233.96	2371.55
234.18	2416.60
234.40	2473.95
234.61	2752.47
234.83	2289.63
235.05	2346.97
235.27	2871.25
235.49	2674.65
235.70	2250.72
235.92	2373.60
236.14	2514.91
236.36	2772.95
236.58	2240.48
236.79	2394.08
237.01	2510.81
237.23	2519.00
237.45	2521.05
237.67	2293.72
237.88	2529.24
238.10	2686.94
238.32	2275.29
238.54	2357.21
238.76	2473.95
238.97	2422.75
239.19	2285.53
239.41	2430.94
239.63	2570.20
239.85	2373.60
240.06	2416.60
240.28	2289.63
240.50	2670.55
240.72	2473.95
240.93	2328.54
241.15	2420.70
241.37	2494.43
241.59	2660.31
241.81	2359.26
242.02	2381.79
242.24	2531.29
242.46	2535.39
242.68	2166.75
242.89	2316.25
243.11	2658.26
243.33	2475.99
243.55	2400.22
243.76	2457.56
243.98	2457.56
244.20	2510.81
244.42	2387.93
244.64	2349.02
244.85	2355.16
245.07	2375.64
245.29	2342.88
245.51	2389.98
245.72	2555.86
245.94	2617.30
246.16	2332.64
246.38	2410.46
246.59	2392.03
246.81	2363.36
247.03	2310.11
247.24	2281.44
247.46	2478.04
247.68	2478.04
247.90	2322.40
248.11	2308.06
248.33	2613.21
248.55	2473.95
248.77	2398.17
248.98	2361.31
249.20	2654.17
249.42	2478.04
249.64	2381.79
249.85	2332.64
250.07	2471.90
250.29	2602.97
250.50	2449.37
250.72	2244.57
250.94	2545.63
251.16	2707.41
251.37	2467.80
251.59	2420.70
251.81	2586.58
252.02	2654.17
252.24	2301.92
252.46	2441.18
252.68	2367.45
252.89	2416.60
253.11	2150.37
253.33	2463.71
253.54	2619.35
253.76	2361.31
253.98	2375.64
254.20	2363.36
254.41	2285.53
254.63	2447.32
254.85	2176.99
255.06	2449.37
255.28	2510.81
255.50	2457.56
255.71	2342.88
255.93	2236.38
256.15	2498.52
256.36	2547.67
256.58	2258.91
256.80	2414.56
257.02	2430.94
257.23	2461.66
257.45	2422.75
257.67	2414.56
257.88	2441.18
258.10	2502.62
258.32	2398.17
258.53	2428.89
258.75	2656.22
258.97	2387.93
259.18	2330.59
259.40	2338.78
259.62	2684.89
259.83	2711.51
260.05	2297.82
260.27	2930.64
260.48	2598.87
260.70	2314.20
260.92	2277.34
261.13	2404.32
261.35	2490.33
261.57	2584.54
261.78	2308.06
262.00	2277.34
262.22	2535.39
262.43	2375.64
262.65	2326.49
262.86	2379.74
263.08	2768.85
263.30	2494.43
263.51	2195.42
263.73	2301.92
263.95	2691.03
264.16	2314.20
264.38	2197.47
264.60	2320.35
264.81	2549.72
265.03	2670.55
265.25	2562.01
265.46	2359.26
265.68	2637.78
265.89	2551.77
266.11	2310.11
266.33	2445.27
266.54	2588.63
266.76	2531.29
266.98	2428.89
267.19	2504.67
267.41	2572.25
267.62	2527.19
267.84	2195.42
268.06	2430.94
268.27	2435.03
268.49	2600.92
268.70	2422.75
268.92	2353.12
269.14	2306.01
269.35	2346.97
269.57	2381.79
269.79	2392.03
270.00	2422.75
270.22	2633.69
270.43	2297.82
270.65	2228.19
270.87	2504.67
271.08	2637.78
271.30	2459.61
271.51	2340.83
271.73	2568.15
271.95	2658.26
272.16	2381.79
272.38	2365.40
272.59	2400.22
272.81	2484.19
273.02	2310.11
273.24	2351.07
273.46	2580.44
273.67	2361.31
273.89	2236.38
274.10	2308.06
274.32	2586.58
274.54	2471.90
274.75	2428.89
274.97	2349.02
275.18	2639.83
275.40	2590.68
275.61	2367.45
275.83	2428.89
276.05	2371.55
276.26	2490.33
276.48	2430.94
276.69	2408.41
276.91	2396.12
277.12	2660.31
277.34	2494.43
277.55	2545.63
277.77	2457.56
277.99	2480.09
278.20	2306.01
278.42	2312.16
278.63	2424.80
278.85	2381.79
279.06	2330.59
279.28	2510.81
279.49	2590.68
279.71	2537.43
279.93	2435.03
280.14	2414.56
280.36	2349.02
280.57	2609.11
280.79	2535.39
281.00	2344.92
281.22	2381.79
281.43	2521.05
281.65	2179.04
281.86	2330.59
282.08	2523.10
282.29	2764.76
282.51	2277.34
282.73	2330.59
282.94	2338.78
283.16	2555.86
283.37	2543.58
283.59	2447.32
283.80	2494.43
284.02	2525.15
284.23	2449.37
284.45	2332.64
284.66	2340.83
284.88	2385.88
285.09	2437.08
285.31	2445.27
285.52	2514.91
285.74	2306.01
285.95	2543.58
286.17	2502.62
286.38	2666.46
286.60	2373.60
286.81	2398.17
287.03	2396.12
287.24	2523.10
287.46	2570.20
287.67	2404.32
287.89	2590.68
288.10	2459.61
288.32	2475.99
288.53	2627.54
288.75	2461.66
288.96	2633.69
289.18	2400.22
289.39	2375.64
289.61	2506.71
289.82	2764.76
290.04	2691.03
290.25	2293.72
290.47	2457.56
290.68	2430.94
290.90	2543.58
291.11	2242.53
291.33	2547.67
291.54	2367.45
291.76	2342.88
291.97	2412.51
292.18	2410.46
292.40	2482.14
292.61	2369.50
292.83	2619.35
293.04	2396.12
293.26	2527.19
293.47	2478.04
293.69	2367.45
293.90	2381.79
294.12	2596.82
294.33	2514.91
294.55	2453.47
294.76	2564.06
294.97	2619.35
295.19	2736.09
295.40	2422.75
295.62	2475.99
295.83	2580.44
296.05	2480.09
296.26	2605.02
296.48	2383.84
296.69	2441.18
296.90	2488.28
297.12	2488.28
297.33	2531.29
297.55	2553.82
297.76	2621.40
297.98	2512.86
298.19	2502.62
298.41	2521.05
298.62	2312.16
298.83	2559.96
299.05	2463.71
299.26	2428.89
299.48	2349.02
299.69	2559.96
299.90	2435.03
300.12	2478.04
300.33	2602.97
300.55	2502.62
300.76	2418.65
300.98	2359.26
301.19	2586.58
301.40	2353.12
301.62	2441.18
301.83	2535.39
302.05	2465.75
302.26	2455.51
302.47	2453.47
302.69	2367.45
302.90	2519.00
303.12	2252.77
303.33	2486.23
303.54	2813.91
303.76	2379.74
303.97	2469.85
304.19	2547.67
304.40	2357.21
304.61	2547.67
304.83	2586.58
305.04	2607.06
305.26	2572.25
305.47	2506.71
305.68	2473.95
305.90	2285.53
306.11	2684.89
306.33	2478.04
306.54	2367.45
306.75	2398.17
306.97	2217.95
307.18	2326.49
307.39	2439.13
307.61	2525.15
307.82	2406.36
308.04	2557.91
308.25	2299.87
308.46	2535.39
308.68	2506.71
308.89	2502.62
309.10	2537.43
309.32	2426.84
309.53	2430.94
309.74	2537.43
309.96	2430.94
310.17	2594.78
310.39	2416.60
310.60	2566.10
310.81	2432.99
311.03	2316.25
311.24	2564.06
311.45	2461.66
311.67	2625.50
311.88	2465.75
312.09	2451.42
312.31	2459.61
312.52	2385.88
312.73	2396.12
312.95	2342.88
313.16	2334.68
313.37	2547.67
313.59	2592.73
313.80	2609.11
314.01	2695.13
314.23	2377.69
314.44	2383.84
314.65	2375.64
314.87	2375.64
315.08	2424.80
315.29	2453.47
315.51	2342.88
315.72	2344.92
315.93	2551.77
316.15	2498.52
316.36	2392.03
316.57	2398.17
316.79	2441.18
317.00	2428.89
317.21	2564.06
317.43	2287.58
317.64	2353.12
317.85	2322.40
318.07	2408.41
318.28	2463.71
318.49	2463.71
318.70	2693.08
318.92	2543.58
319.13	2639.83
319.34	2605.02
319.56	2504.67
319.77	2686.94
319.98	2697.17
320.20	2631.64
320.41	2578.39
320.62	2645.98
320.83	2379.74
321.05	2600.92
321.26	2469.85
321.47	2516.95
321.69	2654.17
321.90	2269.15
322.11	2424.80
322.32	2570.20
322.54	2691.03
322.75	2416.60
322.96	2881.49
323.18	2260.96
323.39	2252.77
323.60	2287.58
323.81	2525.15
324.03	2428.89
324.24	2404.32
324.45	2463.71
324.66	2392.03
324.88	2701.27
325.09	2664.41
325.30	2447.32
325.52	2488.28
325.73	2539.48
325.94	2400.22
326.15	2267.10
326.37	2379.74
326.58	2617.30
326.79	2650.07
327.00	2408.41
327.22	2437.08
327.43	2449.37
327.64	2383.84
327.85	2478.04
328.07	2437.08
328.28	2674.65
328.49	2377.69
328.70	2414.56
328.92	2482.14
329.13	2484.19
329.34	2484.19
329.55	2580.44
329.76	2449.37
329.98	2490.33
330.19	2654.17
330.40	2457.56
330.61	2445.27
330.83	2586.58
331.04	2410.46
331.25	2602.97
331.46	2375.64
331.68	2342.88
331.89	2596.82
332.10	2414.56
332.31	2238.43
332.52	2420.70
332.74	2615.26
332.95	2228.19
333.16	2455.51
333.37	2607.06
333.58	2447.32
333.80	2430.94
334.01	2240.48
334.22	2398.17
334.43	2387.93
334.64	2404.32
334.86	2326.49
335.07	2367.45
335.28	2645.98
335.49	2314.20
335.70	2512.86
335.92	2674.65
336.13	2699.22
336.34	2557.91
336.55	2512.86
336.76	2547.67
336.98	2240.48
337.19	2455.51
337.40	2555.86
337.61	2791.38
337.82	2445.27
338.04	2502.62
338.25	2232.29
338.46	2488.28
338.67	2490.33
338.88	2271.20
339.09	2322.40
339.31	2412.51
339.52	2285.53
339.73	2340.83
339.94	2416.60
340.15	2609.11
340.36	2398.17
340.58	2545.63
340.79	2371.55
341.00	2656.22
341.21	2359.26
341.42	2590.68
341.63	2289.63
341.85	2559.96
342.06	2506.71
342.27	2312.16
342.48	2482.14
342.69	2299.87
342.90	2547.67
343.12	2752.47
343.33	2295.77
343.54	2564.06
343.75	2609.11
343.96	2437.08
344.17	2365.40
344.38	2498.52
344.60	2471.90
344.81	2306.01
345.02	2385.88
345.23	2598.87
345.44	2785.24
345.65	2527.19
345.86	2430.94
346.07	2461.66
346.29	2430.94
346.50	2541.53
346.71	2572.25
346.92	2617.30
347.13	2785.24
347.34	2402.27
347.55	2387.93
347.76	2514.91
347.98	2263.01
348.19	2473.95
348.40	2590.68
348.61	2428.89
348.82	2686.94
349.03	2475.99
349.24	2414.56
349.45	2652.12
349.66	2258.91
349.88	2375.64
350.09	2334.68
350.30	2574.30
350.51	2609.11
350.72	2471.90
350.93	2512.86
351.14	2443.23
351.35	2559.96
351.56	2428.89
351.77	2482.14
351.99	2559.96
352.20	2691.03
352.41	2523.10
352.62	2252.77
352.83	2461.66
353.04	2457.56
353.25	2373.60
353.46	2543.58
353.67	2623.45
353.88	2242.53
354.09	2412.51
354.30	2422.75
354.52	2658.26
354.73	2406.36
354.94	2437.08
355.15	2455.51
355.36	2660.31
355.57	2379.74
355.78	2498.52
355.99	2340.83
356.20	2432.99
356.41	2654.17
356.62	2555.86
356.83	2435.03
357.04	2643.93
357.25	2367.45
357.46	2416.60
357.68	2295.77
357.89	2287.58
358.10	2453.47
358.31	2389.98
358.52	2426.84
358.73	2389.98
358.94	2373.60
359.15	2432.99
359.36	2498.52
359.57	2453.47
359.78	2443.23
359.99	2523.10
360.20	2299.87
360.41	2418.65
360.62	2572.25
360.83	2557.91
361.04	2379.74
361.25	2541.53
361.46	2660.31
361.67	2500.57
361.88	2525.15
362.09	2602.97
362.30	2551.77
362.51	2324.44
362.72	2453.47
362.93	2562.01
363.14	2611.16
363.35	2486.23
363.56	2342.88
363.78	2619.35
363.99	2576.34
364.20	2367.45
364.41	2525.15
364.62	2652.12
364.83	2543.58
365.04	2416.60
365.25	2377.69
365.46	2777.05
365.67	2330.59
365.88	2459.61
366.09	2336.73
366.30	2469.85
366.51	2449.37
366.72	2256.86
366.93	2494.43
367.14	2402.27
367.35	2627.54
367.56	2373.60
367.77	2539.48
367.98	2537.43
368.18	2541.53
368.39	2539.48
368.60	2404.32
368.81	2562.01
369.02	2486.23
369.23	2416.60
369.44	2230.24
369.65	2422.75
369.86	2512.86
370.07	2504.67
370.28	2387.93
370.49	2564.06
370.70	2510.81
370.91	2281.44
371.12	2301.92
371.33	2654.17
371.54	2342.88
371.75	2539.48
371.96	2183.13
372.17	2531.29
372.38	2453.47
372.59	2480.09
372.80	2410.46
373.01	2484.19
373.22	2484.19
373.43	2449.37
373.64	2273.25
373.85	2539.48
374.06	2703.32
374.26	2582.49
374.47	2539.48
374.68	2586.58
374.89	2488.28
375.10	2342.88
375.31	2531.29
375.52	2502.62
375.73	2467.80
375.94	2314.20
376.15	2564.06
376.36	2357.21
376.57	2394.08
376.78	2437.08
376.99	2432.99
377.20	2662.36
377.40	2422.75
377.61	2621.40
377.82	2398.17
378.03	2748.37
378.24	2516.95
378.45	2543.58
378.66	2473.95
378.87	2203.61
379.08	2320.35
379.29	2445.27
379.50	2623.45
379.71	2480.09
379.91	2588.63
380.12	2318.30
380.33	2457.56
380.54	2514.91
380.75	2443.23
380.96	2449.37
381.17	2566.10
381.38	2480.09
381.59	2510.81
381.80	2412.51
382.00	2555.86
382.21	2578.39
382.42	2643.93
382.63	2629.59
382.84	2455.51
383.05	2527.19
383.26	2699.22
383.47	2482.14
383.68	2531.29
383.88	2576.34
384.09	2445.27
384.30	2693.08
384.51	2478.04
384.72	2519.00
384.93	2269.15
385.14	2510.81
385.35	2596.82
385.55	2344.92
385.76	2736.09
385.97	2420.70
386.18	2330.59
386.39	2301.92
386.60	2445.27
386.81	2459.61
387.02	2371.55
387.22	2408.41
387.43	2584.54
387.64	2602.97
387.85	2670.55
388.06	2672.60
388.27	4044.74
388.48	8327.04
388.68	12201.80
388.89	14579.49
389.10	15697.68
389.31	15007.52
389.52	11593.55
389.73	10162.02
389.93	9064.31
390.14	8474.49
390.35	7589.77
390.56	6799.26
390.77	5492.65
390.98	4149.18
391.18	3434.44
391.39	2957.27
391.60	2697.17
391.81	2650.07
392.02	2453.47
392.23	2799.57
392.43	2527.19
392.64	2588.63
392.85	2457.56
393.06	2772.95
393.27	2459.61
393.47	2412.51
393.68	2465.75
393.89	2488.28
394.10	2668.50
394.31	2373.60
394.52	2441.18
394.72	2392.03
394.93	2637.78
395.14	2365.40
395.35	2555.86
395.56	2439.13
395.76	2523.10
395.97	2529.24
396.18	2613.21
396.39	2666.46
396.60	2977.75
396.80	2768.85
397.01	2619.35
397.22	2574.30
397.43	2652.12
397.64	2428.89
397.84	2564.06
398.05	2719.70
398.26	2519.00
398.47	2586.58
398.67	2543.58
398.88	2521.05
399.09	2564.06
399.30	2414.56
399.51	2525.15
399.71	2328.54
399.92	2441.18
400.13	2455.51
400.34	2478.04
400.54	2414.56
400.75	2711.51
400.96	2430.94
401.17	2654.17
401.37	2514.91
401.58	2521.05
401.79	2498.52
402.00	2670.55
402.21	2940.88
402.41	2801.62
402.62	2723.80
402.83	2879.44
403.04	2852.82
403.24	3004.37
403.45	2617.30
403.66	2772.95
403.87	2777.05
404.07	2842.58
404.28	2738.13
404.49	2686.94
404.70	2555.86
404.90	2678.74
405.11	2527.19
405.32	2525.15
405.52	2482.14
405.73	2365.40
405.94	2398.17
406.15	2463.71
406.35	2482.14
406.56	2605.02
406.77	2432.99
406.98	2494.43
407.18	2422.75
407.39	2699.22
407.60	2510.81
407.80	2498.52
408.01	2349.02
408.22	2549.72
408.43	2387.93
408.63	2504.67
408.84	2525.15
409.05	2596.82
409.25	2353.12
409.46	2422.75
409.67	2418.65
409.88	2416.60
410.08	2488.28
410.29	2432.99
410.50	2650.07
410.70	2557.91
410.91	2367.45
411.12	2523.10
411.32	2480.09
411.53	2322.40
411.74	2564.06
411.95	2609.11
412.15	2605.02
412.36	2615.26
412.57	2584.54
412.77	2605.02
412.98	2447.32
413.19	2412.51
413.39	2555.86
413.60	2590.68
413.81	2711.51
414.01	2432.99
414.22	2502.62
414.43	2572.25
414.63	2424.80
414.84	2643.93
415.05	2432.99
415.25	2416.60
415.46	2607.06
415.67	2430.94
415.87	2463.71
416.08	2478.04
416.29	2361.31
416.49	2535.39
416.70	2396.12
416.91	2334.68
417.11	2424.80
417.32	2693.08
417.53	2490.33
417.73	2539.48
417.94	2383.84
418.15	2559.96
418.35	2447.32
418.56	2523.10
418.77	2793.43
418.97	2514.91
419.18	2447.32
419.38	2150.37
419.59	2514.91
419.80	2611.16
420.00	2383.84
420.21	2416.60
420.42	2605.02
420.62	2514.91
420.83	2414.56
421.04	2408.41
421.24	2475.99
421.45	2521.05
421.65	2578.39
421.86	2392.03
422.07	2621.40
422.27	2533.34
422.48	2478.04
422.69	2316.25
422.89	2469.85
423.10	2488.28
423.30	2377.69
423.51	2453.47
423.72	2535.39
423.92	2525.15
424.13	2332.64
424.33	2486.23
424.54	2611.16
424.75	2523.10
424.95	2609.11
425.16	2463.71
425.36	2504.67
425.57	2596.82
425.78	2613.21
425.98	2627.54
426.19	2500.57
426.39	2439.13
426.60	2527.19
426.81	2510.81
427.01	2461.66
427.22	2392.03
427.42	2277.34
427.63	2389.98
427.83	2643.93
428.04	2740.18
428.25	2580.44
428.45	2588.63
428.66	2660.31
428.86	2459.61
429.07	2402.27
429.28	2605.02
429.48	2475.99
429.69	2414.56
429.89	2424.80
430.10	2371.55
430.30	2545.63
430.51	2582.49
430.71	2408.41
430.92	2424.80
431.13	2424.80
431.33	2564.06
431.54	2510.81
431.74	2588.63
431.95	2787.29
432.15	2482.14
432.36	2500.57
432.56	2521.05
432.77	2752.47
432.98	2711.51
433.18	2445.27
433.39	2375.64
433.59	2504.67
433.80	2742.23
434.00	2711.51
434.21	2465.75
434.41	2428.89
434.62	2801.62
434.82	2303.96
435.03	2457.56
435.23	2588.63
435.44	2181.09
435.64	2463.71
435.85	2457.56
436.06	2625.50
436.26	2592.73
436.47	2367.45
436.67	2412.51
436.88	2385.88
437.08	2666.46
437.29	2553.82
437.49	2465.75
437.70	2617.30
437.90	2457.56
438.11	2734.04
438.31	2523.10
438.52	2666.46
438.72	2627.54
438.93	2832.34
439.13	2519.00
439.34	2625.50
439.54	2457.56
439.75	2633.69
439.95	2512.86
440.16	2422.75
440.36	2422.75
440.57	2473.95
440.77	2529.24
440.98	2475.99
441.18	2531.29
441.39	2346.97
441.59	2402.27
441.80	2772.95
442.00	2502.62
442.21	2539.48
442.41	2330.59
442.62	2596.82
442.82	2461.66
443.02	2510.81
443.23	2469.85
443.43	2416.60
443.64	2705.37
443.84	2342.88
444.05	2564.06
444.25	2521.05
444.46	2473.95
444.66	2478.04
444.87	2709.46
445.07	2310.11
445.28	2420.70
445.48	2643.93
445.69	2504.67
445.89	2822.10
446.09	2482.14
446.30	2740.18
446.50	2957.27
446.71	4628.41
446.91	5808.04
447.12	6606.75
447.32	7061.40
447.53	6576.03
447.73	5402.54
447.93	4650.94
448.14	4503.48
448.34	4495.29
448.55	3913.67
448.75	3774.41
448.96	3610.57
449.16	3153.87
449.36	2998.23
449.57	2781.14
449.77	2619.35
449.98	2480.09
450.18	2645.98
450.39	2455.51
450.59	2600.92
450.79	2527.19
451.00	2334.68
451.20	2605.02
451.41	2355.16
451.61	2539.48
451.81	2502.62
452.02	2428.89
452.22	2482.14
452.43	2457.56
452.63	2502.62
452.84	2439.13
453.04	2447.32
453.24	2559.96
453.45	2416.60
453.65	2435.03
453.86	2453.47
454.06	2539.48
454.26	2519.00
454.47	2441.18
454.67	2621.40
454.87	2494.43
455.08	2494.43
455.28	2668.50
455.49	2527.19
455.69	2398.17
455.89	2797.53
456.10	2539.48
456.30	2445.27
456.51	2566.10
456.71	2486.23
456.91	2428.89
457.12	2441.18
457.32	2539.48
457.52	2318.30
457.73	2594.78
457.93	2588.63
458.14	2471.90
458.34	2293.72
458.54	2441.18
458.75	2420.70
458.95	2600.92
459.15	2537.43
459.36	2502.62
459.56	2514.91
459.76	2846.68
459.97	2529.24
460.17	2512.86
460.37	2523.10
460.58	2488.28
460.78	2578.39
460.99	2430.94
461.19	2437.08
461.39	2416.60
461.60	2486.23
461.80	2562.01
462.00	2363.36
462.21	2502.62
462.41	2447.32
462.61	2379.74
462.82	2301.92
463.02	2559.96
463.22	2521.05
463.43	2521.05
463.63	2471.90
463.83	2662.36
464.04	2562.01
464.24	2435.03
464.44	2344.92
464.64	2465.75
464.85	2586.58
465.05	2531.29
465.25	2392.03
465.46	2461.66
465.66	2551.77
465.86	2535.39
466.07	2437.08
466.27	2523.10
466.47	2344.92
466.68	2314.20
466.88	2602.97
467.08	2559.96
467.29	2666.46
467.49	2482.14
467.69	2480.09
467.89	2623.45
468.10	2441.18
468.30	2539.48
468.50	2535.39
468.71	2684.89
468.91	2320.35
469.11	2609.11
469.31	2430.94
469.52	2369.50
469.72	2682.84
469.92	2701.27
470.13	2435.03
470.33	2572.25
470.53	2572.25
470.73	2807.77
470.94	3291.09
471.14	3448.78
471.34	3841.99
471.54	3774.41
471.75	3286.99
471.95	3129.30
472.15	3035.09
472.36	3030.99
472.56	2971.60
472.76	2940.88
472.96	2858.96
473.17	2777.05
473.37	2727.89
473.57	2494.43
473.77	2637.78
473.98	2494.43
474.18	2349.02
474.38	2893.78
474.58	2426.84
474.79	2375.64
474.99	2512.86
475.19	2605.02
475.39	2363.36
475.60	2584.54
475.80	2488.28
476.00	2506.71
476.20	2441.18
476.41	2488.28
476.61	2463.71
476.81	2703.32
477.01	2375.64
477.21	2709.46
477.42	2658.26
477.62	2424.80
477.82	2643.93
478.02	2334.68
478.23	2498.52
478.43	2400.22
478.63	2463.71
478.83	2473.95
479.03	2457.56
479.24	2645.98
479.44	2740.18
479.64	2420.70
479.84	2252.77
480.04	2408.41
480.25	2639.83
480.45	2293.72
480.65	2398.17
480.85	2723.80
481.06	2424.80
481.26	2498.52
481.46	2508.76
481.66	2562.01
481.86	2498.52
482.06	2600.92
482.27	2422.75
482.47	2453.47
482.67	2498.52
482.87	2480.09
483.07	2541.53
483.28	2402.27
483.48	2340.83
483.68	2455.51
483.88	2310.11
484.08	2244.57
484.29	2398.17
484.49	2414.56
484.69	2375.64
484.89	2645.98
485.09	2654.17
485.29	2488.28
485.50	2588.63
485.70	2469.85
485.90	2625.50
486.10	2527.19
486.30	2480.09
486.50	2586.58
486.71	2559.96
486.91	2549.72
487.11	2605.02
487.31	2402.27
487.51	2553.82
487.71	2338.78
487.91	2394.08
488.12	2359.26
488.32	2168.80
488.52	2510.81
488.72	2189.28
488.92	2519.00
489.12	2664.41
489.32	2568.15
489.53	2521.05
489.73	2301.92
489.93	2731.99
490.13	2420.70
490.33	2275.29
490.53	2482.14
490.73	2648.02
490.94	2310.11
491.14	2609.11
491.34	2652.12
491.54	2760.66
491.74	3422.16
491.94	4028.35
492.14	4325.31
492.34	4407.23
492.54	4122.56
492.75	3448.78
492.95	3448.78
493.15	3254.22
493.35	3125.20
493.55	3043.28
493.75	2858.96
493.95	2961.36
494.15	2709.46
494.35	2543.58
494.56	2611.16
494.76	2455.51
494.96	2445.27
495.16	2541.53
495.36	2461.66
495.56	2539.48
495.76	2473.95
495.96	2357.21
496.16	2408.41
496.36	2764.76
496.56	2447.32
496.77	2500.57
496.97	2580.44
497.17	2672.60
497.37	2303.96
497.57	2537.43
497.77	2564.06
497.97	2324.44
498.17	2400.22
498.37	2453.47
498.57	2541.53
498.77	2410.46
498.97	2578.39
499.17	2637.78
499.38	2510.81
499.58	2553.82
499.78	2594.78
499.98	2572.25
500.18	2457.56
500.38	2396.12
500.58	2633.69
500.78	3078.10
500.98	5463.98
501.18	7448.46
501.38	9062.26
501.58	10084.20
501.78	10145.64
501.98	8187.78
502.18	6715.29
502.38	5939.11
502.58	5455.79
502.78	4874.17
502.98	4773.82
503.18	4458.43
503.38	4165.57
503.59	3588.04
503.79	3516.36
503.99	3182.54
504.19	3082.19
504.39	3039.19
504.59	3192.78
504.79	3108.82
504.99	3168.21
505.19	2879.44
505.39	2711.51
505.59	2899.92
505.79	2844.63
505.99	2680.79
506.19	2469.85
506.39	2605.02
506.59	2490.33
506.79	2492.38
506.99	2621.40
507.19	2424.80
507.39	2506.71
507.59	2361.31
507.79	2445.27
507.99	2349.02
508.19	2502.62
508.39	2379.74
508.59	2449.37
508.79	2627.54
508.99	2789.33
509.19	2430.94
509.39	2535.39
509.59	2385.88
509.79	2439.13
509.99	2547.67
510.19	2615.26
510.39	2553.82
510.59	2539.48
510.79	2473.95
510.99	2377.69
511.19	2412.51
511.39	2678.74
511.59	2637.78
511.79	2559.96
511.99	2473.95
512.19	2736.09
512.38	2539.48
512.58	2392.03
512.78	2439.13
512.98	2654.17
513.18	2756.57
513.38	2422.75
513.58	2525.15
513.78	2383.84
513.98	2451.42
514.18	2453.47
514.38	2424.80
514.58	2572.25
514.78	2432.99
514.98	2338.78
515.18	2420.70
515.38	2371.55
515.58	2703.32
515.78	2475.99
515.98	2478.04
516.18	2512.86
516.38	2514.91
516.57	2449.37
516.77	2418.65
516.97	2545.63
517.17	2453.47
517.37	2220.00
517.57	2473.95
517.77	2480.09
517.97	2471.90
518.17	2523.10
518.37	2340.83
518.57	2416.60
518.77	2392.03
518.97	2416.60
519.16	2512.86
519.36	2662.36
519.56	2465.75
519.76	2473.95
519.96	2535.39
520.16	2674.65
520.36	2439.13
520.56	2656.22
520.76	2375.64
520.96	2365.40
521.16	2658.26
521.35	2643.93
521.55	2588.63
521.75	2531.29
521.95	2439.13
522.15	2504.67
522.35	2332.64
522.55	2437.08
522.75	2502.62
522.95	2318.30
523.14	2359.26
523.34	2367.45
523.54	2404.32
523.74	2519.00
523.94	2449.37
524.14	2299.87
524.34	2457.56
524.54	2676.70
524.73	2471.90
524.93	2602.97
525.13	2510.81
525.33	2326.49
525.53	2682.84
525.73	2572.25
525.93	2463.71
526.13	2506.71
526.32	2482.14
526.52	2670.55
526.72	2590.68
526.92	2392.03
527.12	2400.22
527.32	2334.68
527.52	2519.00
527.71	2480.09
527.91	2355.16
528.11	2478.04
528.31	2549.72
528.51	2299.87
528.71	2525.15
528.90	2631.64
529.10	2635.74
529.30	2572.25
529.50	2131.94
529.70	2488.28
529.90	2412.51
530.09	2457.56
530.29	2342.88
530.49	2353.12
530.69	2832.34
530.89	2500.57
531.09	2471.90
531.28	2377.69
531.48	2613.21
531.68	2441.18
531.88	2523.10
532.08	2594.78
532.28	2406.36
532.47	2555.86
532.67	2621.40
532.87	2555.86
533.07	2465.75
533.27	2590.68
533.46	2576.34
533.66	2531.29
533.86	2584.54
534.06	2523.10
534.26	2469.85
534.45	2455.51
534.65	2613.21
534.85	2492.38
535.05	2424.80
535.25	2654.17
535.44	2285.53
535.64	2588.63
535.84	2392.03
536.04	2430.94
536.24	2363.36
536.43	2383.84
536.63	2482.14
536.83	2441.18
537.03	2492.38
537.22	2318.30
537.42	2314.20
537.62	2545.63
537.82	2412.51
538.02	2586.58
538.21	2562.01
538.41	2801.62
538.61	2576.34
538.81	2402.27
539.00	2543.58
539.20	2392.03
539.40	2445.27
539.60	2432.99
539.79	2662.36
539.99	2488.28
540.19	2422.75
540.39	2447.32
540.58	2506.71
540.78	2666.46
540.98	2445.27
541.18	2576.34
541.37	2531.29
541.57	2457.56
541.77	2600.92
541.97	2367.45
542.16	2359.26
542.36	2449.37
542.56	2432.99
542.76	2670.55
542.95	2564.06
543.15	2514.91
543.35	2652.12
543.54	2394.08
543.74	2420.70
543.94	2648.02
544.14	2486.23
544.33	2457.56
544.53	2504.67
544.73	2455.51
544.93	2432.99
545.12	2480.09
545.32	2506.71
545.52	2490.33
545.71	2406.36
545.91	2439.13
546.11	2457.56
546.30	2381.79
546.50	2482.14
546.70	2547.67
546.90	2447.32
547.09	2316.25
547.29	2504.67
547.49	2523.10
547.68	2435.03
547.88	2408.41
548.08	2523.10
548.27	2961.36
548.47	2334.68
548.67	2457.56
548.87	2559.96
549.06	2375.64
549.26	2451.42
549.46	2473.95
549.65	2414.56
549.85	2506.71
550.05	2514.91
550.24	2416.60
550.44	2506.71
550.64	2564.06
550.83	2435.03
551.03	2662.36
551.23	2607.06
551.42	2498.52
551.62	2471.90
551.82	2521.05
552.01	2465.75
552.21	2660.31
552.41	2516.95
552.60	2631.64
552.80	2510.81
553.00	2498.52
553.19	2471.90
553.39	2668.50
553.59	2361.31
553.78	2519.00
553.98	2490.33
554.17	2342.88
554.37	2514.91
554.57	2478.04
554.76	2365.40
554.96	2451.42
555.16	2555.86
555.35	2482.14
555.55	2549.72
555.75	2500.57
555.94	2592.73
556.14	2330.59
556.33	2496.47
556.53	2404.32
556.73	2435.03
556.92	2531.29
557.12	2547.67
557.32	2748.37
557.51	2680.79
557.71	2531.29
557.90	2564.06
558.10	2717.65
558.30	2451.42
558.49	2449.37
558.69	2383.84
558.88	2580.44
559.08	2572.25
559.28	2424.80
559.47	2502.62
559.67	2523.10
559.86	2684.89
560.06	2475.99
560.26	2451.42
560.45	2500.57
560.65	2478.04
560.84	2697.17
561.04	2400.22
561.24	2572.25
561.43	2342.88
561.63	2586.58
561.82	2494.43
562.02	2572.25
562.22	2437.08
562.41	2404.32
562.61	2465.75
562.80	2443.23
563.00	2811.86
563.19	2504.67
563.39	2500.57
563.59	2602.97
563.78	2447.32
563.98	2238.43
564.17	2465.75
564.37	2340.83
564.56	2494.43
564.76	2334.68
564.96	2602.97
565.15	2506.71
565.35	2787.29
565.54	2486.23
565.74	2555.86
565.93	2543.58
566.13	2578.39
566.32	2502.62
566.52	2576.34
566.71	2461.66
566.91	2602.97
567.11	2557.91
567.30	2367.45
567.50	2572.25
567.69	2502.62
567.89	2449.37
568.08	2303.96
568.28	2562.01
568.47	2336.73
568.67	2494.43
568.86	2408.41
569.06	2529.24
569.25	2457.56
569.45	2465.75
569.64	2406.36
569.84	2457.56
570.04	2521.05
570.23	2398.17
570.43	2514.91
570.62	2547.67
570.82	2668.50
571.01	2361.31
571.21	2396.12
571.40	2318.30
571.60	2660.31
571.79	2498.52
571.99	2494.43
572.18	2441.18
572.38	2602.97
572.57	2418.65
572.77	2461.66
572.96	2832.34
573.16	2496.47
573.35	2457.56
573.55	2658.26
573.74	2496.47
573.94	2469.85
574.13	2406.36
574.33	2588.63
574.52	2631.64
574.71	2539.48
574.91	2525.15
575.10	2383.84
575.30	2410.46
575.49	2355.16
575.69	2416.60
575.88	2537.43
576.08	2600.92
576.27	2723.80
576.47	2461.66
576.66	2719.70
576.86	2775.00
577.05	2543.58
577.25	2516.95
577.44	2711.51
577.64	2508.76
577.83	2650.07
578.02	2463.71
578.22	2629.59
578.41	2664.41
578.61	2531.29
578.80	2334.68
579.00	2568.15
579.19	2512.86
579.39	2559.96
579.58	2621.40
579.77	2547.67
579.97	2555.86
580.16	2570.20
580.36	2590.68
580.55	2562.01
580.75	2607.06
580.94	2562.01
581.13	2658.26
581.33	2705.37
581.52	2473.95
581.72	2881.49
581.91	2678.74
582.11	2494.43
582.30	2623.45
582.49	2504.67
582.69	2666.46
582.88	2592.73
583.08	2555.86
583.27	2611.16
583.47	2498.52
583.66	2473.95
583.85	2416.60
584.05	2473.95
584.24	2506.71
584.44	2557.91
584.63	2666.46
584.82	2731.99
585.02	2703.32
585.21	2662.36
585.41	2623.45
585.60	2621.40
585.79	2791.38
585.99	2727.89
586.18	2686.94
586.37	3272.65
586.57	5062.58
586.76	14749.47
586.96	34504.18
587.15	47871.27
587.34	56976.54
587.54	61310.04
587.73	56065.19
587.93	39257.51
588.12	29847.10
588.31	24137.36
588.51	21104.32
588.70	19537.62
588.89	17479.41
589.09	15124.25
589.28	12840.76
589.47	10260.32
589.67	7894.92
589.86	6135.71
590.06	4579.26
590.25	3829.70
590.44	3303.37
590.64	2920.40
590.83	2826.20
591.02	2791.38
591.22	2652.12
591.41	2588.63
591.60	2465.75
591.80	2865.11
591.99	2432.99
592.18	2531.29
592.38	2600.92
592.57	2473.95
592.76	2467.80
592.96	2510.81
593.15	2512.86
593.34	2617.30
593.54	2498.52
593.73	2547.67
593.92	2633.69
594.12	2578.39
594.31	2504.67
594.50	2576.34
594.70	2605.02
594.89	2908.12
595.08	2377.69
595.28	2611.16
595.47	2865.11
595.66	2619.35
595.86	2385.88
596.05	2488.28
596.24	2441.18
596.43	2713.56
596.63	2613.21
596.82	2527.19
597.01	2559.96
597.21	2854.87
597.40	2555.86
597.59	2471.90
597.79	2562.01
597.98	2576.34
598.17	2473.95
598.36	2486.23
598.56	2619.35
598.75	2435.03
598.94	2525.15
599.14	2531.29
599.33	2471.90
599.52	2598.87
599.71	2463.71
599.91	2508.76
600.10	2605.02
600.29	2516.95
600.48	2502.62
600.68	2564.06
600.87	2588.63
601.06	2428.89
601.26	2504.67
601.45	2523.10
601.64	2383.84
601.83	2670.55
602.03	2410.46
602.22	2326.49
602.41	2625.50
602.60	2867.16
602.80	2643.93
602.99	2549.72
603.18	2455.51
603.37	2482.14
603.57	2475.99
603.76	2555.86
603.95	2547.67
604.14	2447.32
604.34	2447.32
604.53	2455.51
604.72	2473.95
604.91	2574.30
605.10	2482.14
605.30	2369.50
605.49	2797.53
605.68	2564.06
605.87	2512.86
606.07	2379.74
606.26	2574.30
606.45	2572.25
606.64	2490.33
606.84	2441.18
607.03	2525.15
607.22	2686.94
607.41	2488.28
607.60	2502.62
607.80	2617.30
607.99	2453.47
608.18	2445.27
608.37	2559.96
608.56	2465.75
608.76	2633.69
608.95	2695.13
609.14	2512.86
609.33	2670.55
609.52	2783.19
609.72	2521.05
609.91	2572.25
610.10	2514.91
610.29	2693.08
610.48	2578.39
610.68	2547.67
610.87	2480.09
611.06	2596.82
611.25	2416.60
611.44	2613.21
611.63	2457.56
611.83	2707.41
612.02	2371.55
612.21	2627.54
612.40	2258.91
612.59	2349.02
612.79	2402.27
612.98	2473.95
613.17	2744.28
613.36	2584.54
613.55	2676.70
613.74	2547.67
613.93	2613.21
614.13	2731.99
614.32	2652.12
614.51	2650.07
614.70	2633.69
614.89	2535.39
615.08	2553.82
615.28	3018.71
615.47	2506.71
615.66	2596.82
615.85	2555.86
616.04	2713.56
616.23	2490.33
616.42	2562.01
616.62	2539.48
616.81	2516.95
617.00	2490.33
617.19	2543.58
617.38	2375.64
617.57	2512.86
617.76	2615.26
617.95	2582.49
618.15	2504.67
618.34	2637.78
618.53	2389.98
618.72	2650.07
618.91	2641.88
619.10	2619.35
619.29	2471.90
619.48	2510.81
619.68	2306.01
619.87	2490.33
620.06	2371.55
620.25	2572.25
620.44	2506.71
620.63	2482.14
620.82	2555.86
621.01	2580.44
621.20	2453.47
621.39	2574.30
621.59	2516.95
621.78	2527.19
621.97	2490.33
622.16	2527.19
622.35	2543.58
622.54	2611.16
622.73	2605.02
622.92	2396.12
623.11	2650.07
623.30	2467.80
623.49	2510.81
623.68	2385.88
623.88	2656.22
624.07	2504.67
624.26	2437.08
624.45	2488.28
624.64	2490.33
624.83	2533.34
625.02	2535.39
625.21	2461.66
625.40	2527.19
625.59	2662.36
625.78	2500.57
625.97	2516.95
626.16	2650.07
626.35	2629.59
626.54	2578.39
626.74	2682.84
626.93	2547.67
627.12	2527.19
627.31	2596.82
627.50	2547.67
627.69	2590.68
627.88	2400.22
628.07	2449.37
628.26	2252.77
628.45	2435.03
628.64	2394.08
628.83	2404.32
629.02	2389.98
629.21	2525.15
629.40	2519.00
629.59	2437.08
629.78	2461.66
629.97	2504.67
630.16	2469.85
630.35	2490.33
630.54	2484.19
630.73	2478.04
630.92	2502.62
631.11	2404.32
631.30	2420.70
631.49	2596.82
631.68	2457.56
631.87	2576.34
632.06	2381.79
632.25	2815.96
632.44	2537.43
632.63	2609.11
632.82	2500.57
633.01	2441.18
633.20	2621.40
633.39	2457.56
633.58	2482.14
633.77	2521.05
633.96	2502.62
634.15	2586.58
634.34	2494.43
634.53	2568.15
634.72	2498.52
634.91	2318.30
635.10	2486.23
635.29	2594.78
635.48	2527.19
635.67	2312.16
635.86	2351.07
636.05	2605.02
636.24	2441.18
636.43	2428.89
636.62	2543.58
636.81	2138.08
637.00	2504.67
637.19	2506.71
637.38	2469.85
637.57	2486.23
637.76	2531.29
637.95	2619.35
638.14	2545.63
638.33	2531.29
638.52	2529.24
638.71	2416.60
638.89	2428.89
639.08	2850.77
639.27	2652.12
639.46	2785.24
639.65	3315.66
639.84	3196.88
640.03	3260.37
640.22	3200.98
640.41	3203.02
640.60	2793.43
640.79	2834.39
640.98	2707.41
641.17	2711.51
641.36	2734.04
641.55	2756.57
641.74	2351.07
641.92	2426.84
642.11	2432.99
642.30	2547.67
642.49	2306.01
642.68	2412.51
642.87	2482.14
643.06	2564.06
643.25	2406.36
643.44	2365.40
643.63	2394.08
643.82	2584.54
644.00	2342.88
644.19	2430.94
644.38	2367.45
644.57	2523.10
644.76	2465.75
644.95	2432.99
645.14	2535.39
645.33	2400.22
645.52	2416.60
645.71	2367.45
645.89	2365.40
646.08	2441.18
646.27	2510.81
646.46	2658.26
646.65	2375.64
646.84	2512.86
647.03	2355.16
647.22	2582.49
647.40	2529.24
647.59	2471.90
647.78	2355.16
647.97	2383.84
648.16	2344.92
648.35	2676.70
648.54	2703.32
648.73	2432.99
648.91	2555.86
649.10	2432.99
649.29	2437.08
649.48	2504.67
649.67	2488.28
649.86	2621.40
650.05	2475.99
650.23	2725.85
650.42	2588.63
650.61	2793.43
650.80	2781.14
650.99	2789.33
651.18	2719.70
651.36	2609.11
651.55	2463.71
651.74	2572.25
651.93	2424.80
652.12	2506.71
652.31	2445.27
652.49	2529.24
652.68	2490.33
652.87	2742.23
653.06	2506.71
653.25	2742.23
653.44	2543.58
653.62	2750.42
653.81	2494.43
654.00	2457.56
654.19	2607.06
654.38	2768.85
654.56	2516.95
654.75	2426.84
654.94	2600.92
655.13	2529.24
655.32	2453.47
655.51	2519.00
655.69	2457.56
655.88	2592.73
656.07	2367.45
656.26	2502.62
656.45	2416.60
656.63	2488.28
656.82	2461.66
657.01	2609.11
657.20	2412.51
657.38	2691.03
657.57	2455.51
657.76	2273.25
657.95	2680.79
658.14	2469.85
658.32	2553.82
658.51	2365.40
658.70	2500.57
658.89	2545.63
659.08	2461.66
659.26	2654.17
659.45	2449.37
659.64	2617.30
659.83	2457.56
660.01	2856.92
660.20	2516.95
660.39	2744.28
660.58	2267.10
660.76	2490.33
660.95	2396.12
661.14	2484.19
661.33	2389.98
661.51	2379.74
661.70	2449.37
661.89	2498.52
662.08	2539.48
662.26	2381.79
662.45	2408.41
662.64	2793.43
662.83	2566.10
663.01	2312.16
663.20	2482.14
663.39	2686.94
663.58	2396.12
663.76	2439.13
663.95	2537.43
664.14	2461.66
664.32	2453.47
664.51	2353.12
664.70	2312.16
664.89	2486.23
665.07	2361.31
665.26	2666.46
665.45	2383.84
665.64	2592.73
665.82	2451.42
666.01	2539.48
666.20	2375.64
666.38	2684.89
666.57	2693.08
666.76	3964.87
666.95	9582.45
667.13	17809.14
667.32	22585.00
667.51	26121.84
667.69	27692.63
667.88	24553.10
668.07	17372.92
668.25	14518.05
668.44	11808.59
668.63	10245.99
668.81	9179.00
669.00	7905.16
669.19	7010.20
669.38	6223.78
669.56	5271.47
669.75	4405.18
669.94	3778.50
670.12	3190.74
670.31	2936.79
670.50	2801.62
670.68	2736.09
670.87	2670.55
671.06	2490.33
671.24	2531.29
671.43	2756.57
671.62	2537.43
671.80	2453.47
671.99	2498.52
672.18	2506.71
672.36	2645.98
672.55	2555.86
672.74	2514.91
672.92	2412.51
673.11	2643.93
673.29	2314.20
673.48	2553.82
673.67	2498.52
673.85	2645.98
674.04	2320.35
674.23	2502.62
674.41	2756.57
674.60	2375.64
674.79	2299.87
674.97	2310.11
675.16	2658.26
675.34	2576.34
675.53	2385.88
675.72	2570.20
675.90	2678.74
676.09	2465.75
676.28	2543.58
676.46	2318.30
676.65	2586.58
676.83	2400.22
677.02	2547.67
677.21	2523.10
677.39	2574.30
677.58	2344.92
677.77	2375.64
677.95	2367.45
678.14	2445.27
678.32	2453.47
678.51	2404.32
678.70	2709.46
678.88	2482.14
679.07	2492.38
679.25	2467.80
679.44	2461.66
679.63	2346.97
679.81	2502.62
680.00	2629.59
680.18	2508.76
680.37	2682.84
680.55	2506.71
680.74	2291.68
680.93	2234.33
681.11	2535.39
681.30	2449.37
681.48	2527.19
681.67	2398.17
681.85	2514.91
682.04	2359.26
682.23	2602.97
682.41	2498.52
682.60	2439.13
682.78	2498.52
682.97	2367.45
683.15	2482.14
683.34	2547.67
683.53	2662.36
683.71	2342.88
683.90	2619.35
684.08	2709.46
684.27	2465.75
684.45	2441.18
684.64	2645.98
684.82	2459.61
685.01	2498.52
685.19	2424.80
685.38	2658.26
685.57	2465.75
685.75	2346.97
685.94	2461.66
686.12	2400.22
686.31	2398.17
686.49	2715.61
686.68	2299.87
686.86	2498.52
687.05	2430.94
687.23	2641.88
687.42	2379.74
687.60	2383.84
687.79	2588.63
687.97	2645.98
688.16	2586.58
688.34	2547.67
688.53	2265.05
688.71	2588.63
688.90	2629.59
689.08	2371.55
689.27	2293.72
689.45	2531.29
689.64	2525.15
689.82	2494.43
690.01	2521.05
690.19	2500.57
690.38	2508.76
690.56	2572.25
690.75	2430.94
690.93	2389.98
691.12	2430.94
691.30	2486.23
691.49	2508.76
691.67	2449.37
691.86	2695.13
692.04	2457.56
692.23	2525.15
692.41	2478.04
692.60	2686.94
692.78	2664.41
692.97	2504.67
693.15	2582.49
693.34	2695.13
693.52	2666.46
693.71	2531.29
693.89	2414.56
694.08	2363.36
694.26	2523.10
694.44	2578.39
694.63	2535.39
694.81	2385.88
695.00	2367.45
695.18	2631.64
695.37	2809.81
695.55	2521.05
695.74	2459.61
695.92	2400.22
696.10	2699.22
696.29	2314.20
696.47	2455.51
696.66	2351.07
696.84	2355.16
697.03	2557.91
697.21	2764.76
697.40	3710.92
697.58	2598.87
697.76	2381.79
697.95	2428.89
698.13	2387.93
698.32	2424.80
698.50	2408.41
698.68	2484.19
698.87	2551.77
699.05	2621.40
699.24	2455.51
699.42	2406.36
699.61	2504.67
699.79	2582.49
699.97	2484.19
700.16	2361.31
700.34	2297.82
700.53	2457.56
700.71	2627.54
700.89	2488.28
701.08	2467.80
701.26	2441.18
701.45	2936.79
701.63	2383.84
701.81	2428.89
702.00	2461.66
702.18	2463.71
702.37	2516.95
702.55	2734.04
702.73	2674.65
702.92	2543.58
703.10	2854.87
703.28	2772.95
703.47	2449.37
703.65	2707.41
703.84	2627.54
704.02	2547.67
704.20	2783.19
704.39	2432.99
704.57	2488.28
704.75	2613.21
704.94	2621.40
705.12	2576.34
705.30	2910.16
705.49	5693.35
705.67	13039.42
705.86	21100.22
706.04	24671.88
706.22	27862.61
706.41	28390.99
706.59	23025.31
706.77	16697.09
706.96	14059.31
707.14	12633.92
707.32	10710.88
707.51	9375.60
707.69	7557.00
707.87	6152.10
708.06	5015.48
708.24	4184.00
708.42	3442.64
708.61	3397.58
708.79	2731.99
708.97	2613.21
709.16	2684.89
709.34	2555.86
709.52	2404.32
709.71	2510.81
709.89	2469.85
710.07	2465.75
710.26	2398.17
710.44	2471.90
710.62	2605.02
710.80	2484.19
710.99	2562.01
711.17	2498.52
711.35	2465.75
711.54	2447.32
711.72	2656.22
711.90	2484.19
712.09	2480.09
712.27	2367.45
712.45	2531.29
712.63	2455.51
712.82	2498.52
713.00	2572.25
713.18	2519.00
713.37	2611.16
713.55	2564.06
713.73	2557.91
713.91	2549.72
714.10	2437.08
714.28	2555.86
714.46	2521.05
714.65	2551.77
714.83	2478.04
715.01	2490.33
715.19	2488.28
715.38	2392.03
715.56	2504.67
715.74	2285.53
715.92	2379.74
716.11	2582.49
716.29	2236.38
716.47	2463.71
716.65	2357.21
716.84	2267.10
717.02	2521.05
717.20	2318.30
717.38	2400.22
717.57	2527.19
717.75	2559.96
717.93	2389.98
718.11	2580.44
718.30	2467.80
718.48	2488.28
718.66	2588.63
718.84	2617.30
719.03	2398.17
719.21	2371.55
719.39	2691.03
719.57	2611.16
719.75	2635.74
719.94	2432.99
720.12	2496.47
720.30	2527.19
720.48	2584.54
720.67	2437.08
720.85	2375.64
721.03	2402.27
721.21	2373.60
721.39	2562.01
721.58	2490.33
721.76	2469.85
721.94	2566.10
722.12	2592.73
722.30	2566.10
722.49	2428.89
722.67	2514.91
722.85	2504.67
723.03	2371.55
723.21	2412.51
723.40	2457.56
723.58	2625.50
723.76	2652.12
723.94	2736.09
724.12	2588.63
724.30	2699.22
724.49	2637.78
724.67	2439.13
724.85	2609.11
725.03	2291.68
725.21	2605.02
725.40	2625.50
725.58	2349.02
725.76	2570.20
725.94	2535.39
726.12	2353.12
726.30	2402.27
726.49	2422.75
726.67	2424.80
726.85	2547.67
727.03	2887.64
727.21	4310.97
727.39	6002.60
727.57	6619.04
727.76	7389.07
727.94	7704.46
728.12	7012.24
728.30	5558.19
728.48	5011.38
728.66	4476.86
728.84	4120.51
729.03	3624.90
729.21	3227.60
729.39	2928.60
729.57	2660.31
729.75	2676.70
729.93	2654.17
730.11	2486.23
730.30	2484.19
730.48	2342.88
730.66	2535.39
730.84	2525.15
731.02	2488.28
731.20	2455.51
731.38	2406.36
731.56	2346.97
731.74	2336.73
731.93	2559.96
732.11	2480.09
732.29	2465.75
732.47	2562.01
732.65	2488.28
732.83	2613.21
733.01	2545.63
733.19	2357.21
733.37	2547.67
733.56	2494.43
733.74	2422.75
733.92	2570.20
734.10	2447.32
734.28	2609.11
734.46	2267.10
734.64	2463.71
734.82	2475.99
735.00	2322.40
735.18	2482.14
735.36	2508.76
735.54	2545.63
735.73	2465.75
735.91	2500.57
736.09	2586.58
736.27	2508.76
736.45	2547.67
736.63	2226.14
736.81	2445.27
736.99	2625.50
737.17	2670.55
737.35	2361.31
737.53	2523.10
737.71	2414.56
737.89	2568.15
738.07	2404.32
738.25	2410.46
738.43	2316.25
738.61	2428.89
738.80	2285.53
738.98	2394.08
739.16	2459.61
739.34	2357.21
739.52	2637.78
739.70	2547.67
739.88	2662.36
740.06	2590.68
740.24	2346.97
740.42	2555.86
740.60	2301.92
740.78	2414.56
740.96	2193.37
741.14	2469.85
741.32	2557.91
741.50	2338.78
741.68	2678.74
741.86	2670.55
742.04	2387.93
742.22	2297.82
742.40	2529.24
742.58	2568.15
742.76	2346.97
742.94	2645.98
743.12	2310.11
743.30	2539.48
743.48	2621.40
743.66	2424.80
743.84	2568.15
744.02	2490.33
744.20	2512.86
744.38	2404.32
744.56	2389.98
744.74	2660.31
744.92	2523.10
745.10	2605.02
745.28	2570.20
745.46	2680.79
745.64	2480.09
745.82	2531.29
746.00	2457.56
746.18	2584.54
746.36	2340.83
746.54	2596.82
746.72	2514.91
746.90	2295.77
747.08	2611.16
747.26	2359.26
747.44	2570.20
747.62	2562.01
747.80	2475.99
747.98	2510.81
748.15	2457.56
748.33	2666.46
748.51	2521.05
748.69	2496.47
748.87	2375.64
749.05	2412.51
749.23	2596.82
749.41	2559.96
749.59	2437.08
749.77	2553.82
749.95	2426.84
750.13	2359.26
750.31	2498.52
750.49	2455.51
750.67	2592.73
750.85	2555.86
751.03	2387.93
751.20	2764.76
751.38	2461.66
751.56	2365.40
751.74	2412.51
751.92	2428.89
752.10	2310.11
752.28	2570.20
752.46	2346.97
752.64	2508.76
752.82	2486.23
753.00	2531.29
753.18	2418.65
753.35	2424.80
753.53	2449.37
753.71	2406.36
753.89	2498.52
754.07	2506.71
754.25	2639.83
754.43	2572.25
754.61	2359.26
754.79	2555.86
754.97	2467.80
755.14	2562.01
755.32	2332.64
755.50	2559.96
755.68	2516.95
755.86	2381.79
756.04	2402.27
756.22	2342.88
756.40	2559.96
756.57	2627.54
756.75	2322.40
756.93	2627.54
757.11	2570.20
757.29	2324.44
757.47	2398.17
757.65	2293.72
757.82	2260.96
758.00	2373.60
758.18	2373.60
758.36	2379.74
758.54	2709.46
758.72	2299.87
758.90	2553.82
759.07	2535.39
759.25	2396.12
759.43	2459.61
759.61	2334.68
759.79	3491.79
759.97	2564.06
760.15	2369.50
760.32	2410.46
760.50	2527.19
760.68	2785.24
760.86	2346.97
761.04	2631.64
761.22	2555.86
761.39	2523.10
761.57	2490.33
761.75	2467.80
761.93	2512.86
762.11	2484.19
762.28	2453.47
762.46	2308.06
762.64	2588.63
762.82	2355.16
763.00	2465.75
763.18	2615.26
763.35	2387.93
763.53	2580.44
763.71	2412.51
763.89	2457.56
764.07	2521.05
764.24	2430.94
764.42	2588.63
764.60	2406.36
764.78	2529.24
764.96	2590.68
765.13	2568.15
765.31	2420.70
765.49	2549.72
765.67	2351.07
765.84	2416.60
766.02	2369.50
766.20	2326.49
766.38	2559.96
766.56	2527.19
766.73	2482.14
766.91	2457.56
767.09	2506.71
767.27	2519.00
767.44	2363.36
767.62	2633.69
767.80	2461.66
767.98	2349.02
768.15	2420.70
768.33	2547.67
768.51	2555.86
768.69	2504.67
768.87	2488.28
769.04	2539.48
769.22	2736.09
769.40	2695.13
769.58	2691.03
769.75	2523.10
769.93	2648.02
770.11	2437.08
770.28	2371.55
770.46	2553.82
770.64	2504.67
770.82	2400.22
770.99	2396.12
771.17	2525.15
771.35	2389.98
771.53	2422.75
771.70	2441.18
771.88	2512.86
772.06	2377.69
772.23	2473.95
772.41	2531.29
772.59	2387.93
772.77	2420.70
772.94	2398.17
773.12	2553.82
773.30	2324.44
773.47	2496.47
773.65	2359.26
773.83	2584.54
774.01	2486.23
774.18	2215.90
774.36	2449.37
774.54	2342.88
774.71	2492.38
774.89	2332.64
775.07	2342.88
775.24	2455.51
775.42	2375.64
775.60	2752.47
775.78	2480.09
775.95	2353.12
776.13	2355.16
776.31	2330.59
776.48	2494.43
776.66	2654.17
776.84	2512.86
777.01	2445.27
777.19	2398.17
777.37	2418.65
777.54	2559.96
777.72	2781.14
777.90	2508.76
778.07	2271.20
778.25	2883.54
778.43	2619.35
778.60	2340.83
778.78	2576.34
778.96	2668.50
779.13	2349.02
779.31	2545.63
779.49	2453.47
779.66	2506.71
779.84	2498.52
780.01	2455.51
780.19	2351.07
780.37	2617.30
780.54	2506.71
780.72	2334.68
780.90	2398.17
781.07	2490.33
781.25	2432.99
781.43	2602.97
781.60	2428.89
781.78	2559.96
781.95	2555.86
782.13	2392.03
782.31	2383.84
782.48	2279.39
782.66	2443.23
782.83	2625.50
783.01	2525.15
783.19	2574.30
783.36	2418.65
783.54	2359.26
783.72	2578.39
783.89	2412.51
784.07	2453.47
784.24	2424.80
784.42	2670.55
784.60	2555.86
784.77	2564.06
784.95	2269.15
785.12	2449.37
785.30	2480.09
785.47	2406.36
785.65	2322.40
785.83	2387.93
786.00	2396.12
786.18	2521.05
786.35	2338.78
786.53	2328.54
786.71	2621.40
786.88	2553.82
787.06	2478.04
787.23	2488.28
787.41	2316.25
787.58	2389.98
787.76	2394.08
787.94	2502.62
788.11	2553.82
788.29	2402.27
788.46	2428.89
788.64	2281.44
788.81	2504.67
788.99	2334.68
789.16	2336.73
789.34	2400.22
789.52	2367.45
789.69	2402.27
789.87	2303.96
790.04	2322.40
790.22	2478.04
790.39	2748.37
790.57	2277.34
790.74	2408.41
790.92	2508.76
791.09	2346.97
791.27	2426.84
791.44	2490.33
791.62	2449.37
791.79	2576.34
791.97	2473.95
792.15	2762.71
792.32	2607.06
792.50	2457.56
792.67	2643.93
792.85	2592.73
793.02	2441.18
793.20	2418.65
793.37	2289.63
793.55	2355.16
793.72	2285.53
793.90	2555.86
794.07	2398.17
794.25	2342.88
794.42	2451.42
794.60	2416.60
794.77	2492.38
794.95	2562.01
795.12	2506.71
795.30	2455.51
795.47	2236.38
795.65	2688.98
795.82	2625.50
796.00	2346.97
796.17	2432.99
796.34	2359.26
796.52	2510.81
796.69	2629.59
796.87	2605.02
797.04	2502.62
797.22	2578.39
797.39	2539.48
797.57	2621.40
797.74	2510.81
797.92	2547.67
798.09	2404.32
798.27	2656.22
798.44	2396.12
798.62	2385.88
798.79	2539.48
798.96	2455.51
799.14	2406.36
799.31	2785.24
799.49	2381.79
799.66	2398.17
799.84	2441.18
800.01	2293.72
800.19	2478.04
800.36	2242.53
800.53	2490.33
800.71	2584.54
800.88	2697.17
801.06	2418.65
801.23	2365.40
801.41	2416.60
801.58	2490.33
801.75	2408.41
801.93	2555.86
802.10	2566.10
802.28	2398.17
802.45	2459.61
802.63	2654.17
802.80	2613.21
802.97	2471.90
803.15	2422.75
803.32	2410.46
803.50	2367.45
803.67	2342.88
803.84	2336.73
804.02	2516.95
804.19	2473.95
804.37	2242.53
804.54	2351.07
804.71	2422.75
804.89	2486.23
805.06	2461.66
805.24	2285.53
805.41	2355.16
805.58	2400.22
805.76	2789.33
805.93	2416.60
806.10	2654.17
806.28	2592.73
806.45	2424.80
806.63	2482.14
806.80	2596.82
806.97	2414.56
807.15	2537.43
807.32	2453.47
807.49	2418.65
807.67	2295.77
807.84	2521.05
808.01	2285.53
808.19	2615.26
808.36	2750.42
808.54	2396.12
808.71	2324.44
808.88	2404.32
809.06	2648.02
809.23	2658.26
809.40	2408.41
809.58	2559.96
809.75	2457.56
809.92	2361.31
810.10	2699.22
810.27	2461.66
810.44	2537.43
810.62	2580.44
810.79	2562.01
810.96	2377.69
811.14	2402.27
811.31	2529.24
811.48	2519.00
811.66	2383.84
811.83	2596.82
812.00	2482.14
812.18	2469.85
812.35	2676.70
812.52	2463.71
812.69	2353.12
812.87	2490.33
813.04	2373.60
813.21	2514.91
813.39	2375.64
813.56	2344.92
813.73	2566.10
813.91	2351.07
814.08	2570.20
814.25	2494.43
814.42	2359.26
814.60	2414.56
814.77	2445.27
814.94	2375.64
815.12	2453.47
815.29	2754.52
815.46	2361.31
815.63	2459.61
815.81	2412.51
815.98	2414.56
816.15	2398.17
816.33	2527.19
816.50	2402.27
816.67	2449.37
816.84	2432.99
817.02	2324.44
817.19	2467.80
817.36	2498.52
817.53	2486.23
817.71	2426.84
817.88	2502.62
818.05	2443.23
818.22	2435.03
818.40	2621.40
818.57	2373.60
818.74	2527.19
818.91	2500.57
819.09	2570.20
819.26	2559.96
819.43	2357.21
819.60	2424.80
819.78	2566.10
819.95	2574.30
820.12	2336.73
820.29	2662.36
820.47	2580.44
820.64	2353.12
820.81	2312.16
820.98	2371.55
821.15	2367.45
821.33	2506.71
821.50	2252.77
821.67	2527.19
821.84	2396.12
822.02	2553.82
822.19	2682.84
822.36	2410.46
822.53	2490.33
822.70	2387.93
822.88	2445.27
823.05	2574.30
823.22	2469.85
823.39	2543.58
823.56	2432.99
823.74	2711.51
823.91	2310.11
824.08	2383.84
824.25	2375.64
824.42	2695.13
824.60	2381.79
824.77	2473.95
824.94	2410.46
825.11	2523.10
825.28	2275.29
825.45	2484.19
825.63	2555.86
825.80	2351.07
825.97	2523.10
826.14	2496.47
826.31	2283.49
826.48	2514.91
826.66	2357.21
826.83	2371.55
827.00	2490.33
827.17	2359.26
827.34	2432.99
827.51	2375.64
827.69	2496.47
827.86	2346.97
828.03	2455.51
828.20	2424.80
828.37	2475.99
828.54	2525.15
828.71	2273.25
828.89	2555.86
829.06	2496.47
829.23	2697.17
829.40	2430.94
829.57	2396.12
829.74	2490.33
829.91	2351.07
830.09	2400.22
830.26	2473.95
830.43	2609.11
830.60	2379.74
830.77	2449.37
830.94	2625.50
831.11	2594.78
831.28	2459.61
831.46	2539.48
831.63	2404.32
831.80	2527.19
831.97	2293.72
832.14	2361.31
832.31	2533.34
832.48	2465.75
832.65	2629.59
832.82	2447.32
832.99	2435.03
833.17	2349.02
833.34	2600.92
833.51	2537.43
833.68	2228.19
833.85	2555.86
834.02	2349.02
834.19	2314.20
834.36	2308.06
834.53	2482.14
834.70	2625.50
834.87	2482.14
835.04	2332.64
835.22	2342.88
835.39	2408.41
835.56	2312.16
835.73	2414.56
835.90	2637.78
836.07	2301.92
836.24	2461.66
836.41	2396.12
836.58	2406.36
836.75	2592.73
836.92	2387.93
837.09	2420.70
837.26	2617.30
837.43	2508.76
837.60	2418.65
837.77	2381.79
837.94	2500.57
838.12	2594.78
838.29	2295.77
838.46	2293.72
838.63	2324.44
838.80	2645.98
838.97	2375.64
839.14	2404.32
839.31	2451.42
839.48	2594.78
839.65	2404.32
839.82	2498.52
839.99	2514.91
840.16	2529.24
840.33	2271.20
840.50	2371.55
840.67	2310.11
840.84	2246.62
841.01	2381.79
841.18	2314.20
841.35	2414.56
841.52	2582.49
841.69	2621.40
841.86	2422.75
842.03	2500.57
842.20	2547.67
842.37	2373.60
842.54	2318.30
842.71	2443.23
842.88	2310.11
843.05	2441.18
843.22	2330.59
843.39	2631.64
843.56	2394.08
843.73	2392.03
843.90	2428.89
844.07	2516.95
844.24	2461.66
844.41	2406.36
844.58	2441.18
844.75	2467.80
844.92	2523.10
845.09	2408.41
845.26	2396.12
845.43	2605.02
845.60	2430.94
845.77	2455.51
845.94	2449.37
846.10	2539.48
846.27	2306.01
846.44	2314.20
846.61	2340.83
846.78	2672.60
846.95	2617.30
847.12	2383.84
847.29	2432.99
847.46	2373.60
847.63	2580.44
847.80	2344.92
847.97	2359.26
848.14	2723.80
848.31	2545.63
848.48	2228.19
848.65	2455.51
848.82	2398.17
848.98	2789.33
849.15	2502.62
849.32	2531.29
849.49	2621.40
849.66	2416.60
849.83	2424.80
850.00	2340.83
850.17	2492.38
850.34	2359.26
850.51	2318.30
850.68	2359.26
850.85	2752.47
851.01	2441.18
851.18	2381.79
851.35	2338.78
851.52	2527.19
851.69	2617.30
851.86	2291.68
852.03	2373.60
852.20	2580.44
852.37	2416.60
852.53	2308.06
852.70	2349.02
852.87	2480.09
853.04	2568.15
853.21	2351.07
853.38	2605.02
853.55	2605.02
853.72	2676.70
853.89	2246.62
854.05	2377.69
854.22	2377.69
854.39	2486.23
854.56	2424.80
854.73	2586.58
854.90	2308.06
855.07	2478.04
855.23	2359.26
855.40	2365.40
855.57	2457.56
855.74	2252.77
855.91	2617.30
856.08	2338.78
856.25	2256.86
856.41	2402.27
856.58	2342.88
856.75	2326.49
856.92	2287.58
857.09	2609.11
857.26	2234.33
857.42	2432.99
857.59	2598.87
857.76	2469.85
857.93	2398.17
858.10	2471.90
858.27	2293.72
858.43	2437.08
858.60	2318.30
858.77	2318.30
858.94	2422.75
859.11	2506.71
859.27	2400.22
859.44	2396.12
859.61	2742.23
859.78	2506.71
859.95	2353.12
860.12	2373.60
860.28	2693.08
860.45	2717.65
860.62	2383.84
860.79	2404.32
860.95	2473.95
861.12	2453.47
861.29	2314.20
861.46	2324.44
861.63	2406.36
861.79	2553.82
861.96	2336.73
862.13	2379.74
862.30	2633.69
862.47	2375.64
862.63	2273.25
862.80	2496.47
862.97	2523.10
863.14	2514.91
863.30	2404.32
863.47	2326.49
863.64	2643.93
863.81	2551.77
863.97	2359.26
864.14	2445.27
864.31	2482.14
864.48	2516.95
864.65	2363.36
864.81	2473.95
864.98	2482.14
865.15	2578.39
865.32	2432.99
865.48	2539.48
865.65	2639.83
865.82	2422.75
865.98	2527.19
866.15	2443.23
866.32	2432.99
866.49	2441.18
866.65	2480.09
866.82	2424.80
866.99	2449.37
867.16	2396.12
867.32	2318.30
867.49	2316.25
867.66	2498.52
867.83	2369.50
867.99	2230.24
868.16	2412.51
868.33	2338.78
868.49	2430.94
868.66	2381.79
868.83	2471.90
868.99	2492.38
869.16	2535.39
869.33	2461.66
869.50	2494.43
869.66	2494.43
869.83	2377.69
870.00	2359.26
870.16	2422.75
870.33	2447.32
870.50	2559.96
870.66	2381.79
870.83	2482.14
871.00	2459.61
871.17	2562.01
871.33	2461.66
871.50	2320.35
871.67	2453.47
871.83	2308.06
872.00	2535.39
872.17	2371.55
872.33	2668.50
872.50	2633.69
872.67	2404.32
872.83	2449.37
873.00	2514.91
873.17	2490.33
873.33	2490.33
873.50	2359.26
873.67	2451.42
873.83	2402.27
874.00	2375.64
874.16	2514.91
874.33	2439.13
874.50	2387.93
874.66	2357.21
874.83	2428.89
875.00	2588.63
875.16	2623.45
875.33	2488.28
875.50	2203.61
875.66	2406.36
875.83	2463.71
875.99	2502.62
876.16	2441.18
876.33	2463.71
876.49	2443.23
876.66	2416.60
876.83	2416.60
876.99	2314.20
877.16	2383.84
877.32	2363.36
877.49	2441.18
877.66	2543.58
877.82	2656.22
877.99	2465.75
878.15	2441.18
878.32	2465.75
878.49	2498.52
878.65	2336.73
878.82	2557.91
878.98	2428.89
879.15	2602.97
879.32	2498.52
879.48	2537.43
879.65	2428.89
879.81	2461.66
879.98	2324.44
880.15	2422.75
880.31	2586.58
880.48	2326.49
880.64	2465.75
880.81	2441.18
880.97	2740.18
881.14	2623.45
881.31	2367.45
881.47	2596.82
881.64	2404.32
881.80	2357.21
881.97	2428.89
882.13	2418.65
882.30	2324.44
882.47	2422.75
882.63	2402.27
882.80	2349.02
882.96	2441.18
883.13	2633.69
883.29	2396.12
883.46	2400.22
883.62	2711.51
883.79	2494.43
883.95	2580.44
884.12	2365.40
884.29	2588.63
884.45	2555.86
884.62	2424.80
884.78	2328.54
884.95	2678.74
885.11	2475.99
885.28	2514.91
885.44	2379.74
885.61	2529.24
885.77	2643.93
885.94	2498.52
886.10	2457.56
886.27	2498.52
886.43	2680.79
886.60	2457.56
886.76	2430.94
886.93	2367.45
887.09	2574.30
887.26	2277.34
887.42	2420.70
887.59	2662.36
887.75	2711.51
887.92	2496.47
888.08	2482.14
888.25	2684.89
888.41	2588.63
888.58	2412.51
888.74	2283.49
888.91	2441.18
>>>>>End Processed Spectral Data<<<<<
