SpectraSuite Data File
++++++++++++++++++++++++++++++++++++
Date: Thu May 05 14:42:21 CEST 2016
User: root
Dark Spectrum Present: No
Reference Spectrum Present: No
Number of Sampled Component Spectra: 1
Spectrometers: USB4C02835
Integration Time (usec): 100000 (USB4C02835)
Spectra Averaged: 1 (USB4C02835)
Boxcar Smoothing: 0 (USB4C02835)
Correct for Electrical Dark: No (USB4C02835)
Strobe/Lamp Enabled: No (USB4C02835)
Correct for Detector Non-linearity: No (USB4C02835)
Correct for Stray Light: No (USB4C02835)
Number of Pixels in Processed Spectrum: 3648
>>>>>Begin Processed Spectral Data<<<<<
177.47	1949.67
177.69	1949.67
177.91	1949.67
178.13	1974.24
178.36	1923.04
178.58	2383.84
178.80	2469.85
179.02	2234.33
179.24	2332.64
179.46	2342.88
179.68	2400.22
179.90	2465.75
180.13	2475.99
180.35	2267.10
180.57	2324.44
180.79	2598.87
181.01	2428.89
181.23	2455.51
181.45	2492.38
181.67	2490.33
181.90	2576.34
182.12	2334.68
182.34	2242.53
182.56	2629.59
182.78	2521.05
183.00	2318.30
183.22	2375.64
183.44	2267.10
183.66	2815.96
183.89	2471.90
184.11	2387.93
184.33	2441.18
184.55	2588.63
184.77	2375.64
184.99	2357.21
185.21	2332.64
185.43	2781.14
185.65	2365.40
185.87	2289.63
186.10	2731.99
186.32	2842.58
186.54	2422.75
186.76	2408.41
186.98	2611.16
187.20	2443.23
187.42	2398.17
187.64	2326.49
187.86	2492.38
188.08	2594.78
188.30	2367.45
188.52	2379.74
188.75	2672.60
188.97	2582.49
189.19	2318.30
189.41	2275.29
189.63	2572.25
189.85	2387.93
190.07	2316.25
190.29	2258.91
190.51	2535.39
190.73	2351.07
190.95	2523.10
191.17	2408.41
191.39	2342.88
191.61	2463.71
191.84	2310.11
192.06	2400.22
192.28	2297.82
192.50	2916.31
192.72	2490.33
192.94	2342.88
193.16	2580.44
193.38	2537.43
193.60	2301.92
193.82	2422.75
194.04	2602.97
194.26	2609.11
194.48	2334.68
194.70	2361.31
194.92	2420.70
195.14	2512.86
195.36	2326.49
195.58	2371.55
195.80	2490.33
196.02	2482.14
196.24	2215.90
196.46	2482.14
196.69	2519.00
196.91	2799.57
197.13	2283.49
197.35	2301.92
197.57	2668.50
197.79	2545.63
198.01	2385.88
198.23	2375.64
198.45	2547.67
198.67	2297.82
198.89	2322.40
199.11	2361.31
199.33	2394.08
199.55	2191.33
199.77	2318.30
199.99	2471.90
200.21	2394.08
200.43	2510.81
200.65	2334.68
200.87	2228.19
201.09	2564.06
201.31	2465.75
201.53	2408.41
201.75	2457.56
201.97	2490.33
202.19	2500.57
202.41	2404.32
202.63	2514.91
202.85	2512.86
203.07	2514.91
203.29	2361.31
203.51	2318.30
203.73	2310.11
203.95	2760.66
204.17	2322.40
204.39	2422.75
204.61	2383.84
204.83	2445.27
205.05	2451.42
205.27	2410.46
205.49	2744.28
205.71	2445.27
205.93	2273.25
206.15	2310.11
206.37	2500.57
206.59	2494.43
206.81	2301.92
207.03	2326.49
207.25	2322.40
207.47	2590.68
207.69	2344.92
207.91	2471.90
208.13	2699.22
208.34	2365.40
208.56	2228.19
208.78	2443.23
209.00	2441.18
209.22	2416.60
209.44	2344.92
209.66	2310.11
209.88	2482.14
210.10	2494.43
210.32	2320.35
210.54	2371.55
210.76	2367.45
210.98	2562.01
211.20	2179.04
211.42	2387.93
211.64	2711.51
211.86	2523.10
212.08	2416.60
212.30	2371.55
212.52	2457.56
212.74	2586.58
212.96	2455.51
213.17	2416.60
213.39	2568.15
213.61	2678.74
213.83	2383.84
214.05	2349.02
214.27	2637.78
214.49	2267.10
214.71	2279.39
214.93	2482.14
215.15	2514.91
215.37	2576.34
215.59	2252.77
215.81	2383.84
216.03	2705.37
216.24	2543.58
216.46	2394.08
216.68	2428.89
216.90	2564.06
217.12	2645.98
217.34	2238.43
217.56	2408.41
217.78	2666.46
218.00	2525.15
218.22	2416.60
218.44	2412.51
218.66	2529.24
218.87	2664.41
219.09	2318.30
219.31	2351.07
219.53	2613.21
219.75	2408.41
219.97	2375.64
220.19	2392.03
220.41	2422.75
220.63	2701.27
220.85	2422.75
221.06	2330.59
221.28	2666.46
221.50	2523.10
221.72	2344.92
221.94	2291.68
222.16	2502.62
222.38	2650.07
222.60	2318.30
222.82	2336.73
223.03	2588.63
223.25	2342.88
223.47	2248.67
223.69	2539.48
223.91	2449.37
224.13	2564.06
224.35	2324.44
224.57	2482.14
224.78	2562.01
225.00	2381.79
225.22	2400.22
225.44	2359.26
225.66	2580.44
225.88	2428.89
226.10	2404.32
226.32	2353.12
226.53	2668.50
226.75	2369.50
226.97	2416.60
227.19	2373.60
227.41	2416.60
227.63	2414.56
227.85	2250.72
228.06	2400.22
228.28	2564.06
228.50	2594.78
228.72	2293.72
228.94	2250.72
229.16	2244.57
229.37	2326.49
229.59	2322.40
229.81	2535.39
230.03	2392.03
230.25	2355.16
230.47	2244.57
230.69	2246.62
230.90	2684.89
231.12	2342.88
231.34	2469.85
231.56	2496.47
231.78	2379.74
232.00	2465.75
232.21	2281.44
232.43	2365.40
232.65	2199.52
232.87	2568.15
233.09	2275.29
233.30	2351.07
233.52	2615.26
233.74	2439.13
233.96	2326.49
234.18	2465.75
234.40	2496.47
234.61	2719.70
234.83	2285.53
235.05	2289.63
235.27	2793.43
235.49	2588.63
235.70	2260.96
235.92	2531.29
236.14	2537.43
236.36	2768.85
236.58	2252.77
236.79	2449.37
237.01	2484.19
237.23	2471.90
237.45	2559.96
237.67	2385.88
237.88	2543.58
238.10	2742.23
238.32	2254.81
238.54	2291.68
238.76	2459.61
238.97	2383.84
239.19	2277.34
239.41	2414.56
239.63	2570.20
239.85	2342.88
240.06	2432.99
240.28	2385.88
240.50	2596.82
240.72	2531.29
240.93	2256.86
241.15	2447.32
241.37	2455.51
241.59	2674.65
241.81	2447.32
242.02	2357.21
242.24	2531.29
242.46	2473.95
242.68	2244.57
242.89	2293.72
243.11	2654.17
243.33	2432.99
243.55	2275.29
243.76	2334.68
243.98	2351.07
244.20	2482.14
244.42	2381.79
244.64	2328.54
244.85	2342.88
245.07	2383.84
245.29	2424.80
245.51	2351.07
245.72	2478.04
245.94	2574.30
246.16	2338.78
246.38	2373.60
246.59	2383.84
246.81	2340.83
247.03	2285.53
247.24	2250.72
247.46	2383.84
247.68	2486.23
247.90	2308.06
248.11	2334.68
248.33	2594.78
248.55	2447.32
248.77	2355.16
248.98	2410.46
249.20	2709.46
249.42	2572.25
249.64	2387.93
249.85	2283.49
250.07	2414.56
250.29	2602.97
250.50	2400.22
250.72	2197.47
250.94	2525.15
251.16	2707.41
251.37	2318.30
251.59	2504.67
251.81	2506.71
252.02	2572.25
252.24	2291.68
252.46	2492.38
252.68	2334.68
252.89	2465.75
253.11	2195.42
253.33	2506.71
253.54	2584.54
253.76	2291.68
253.98	2346.97
254.20	2342.88
254.41	2383.84
254.63	2529.24
254.85	2211.81
255.06	2342.88
255.28	2551.77
255.50	2392.03
255.71	2349.02
255.93	2209.76
256.15	2428.89
256.36	2557.91
256.58	2357.21
256.80	2314.20
257.02	2475.99
257.23	2451.42
257.45	2334.68
257.67	2494.43
257.88	2359.26
258.10	2541.53
258.32	2344.92
258.53	2432.99
258.75	2699.22
258.97	2465.75
259.18	2301.92
259.40	2299.87
259.62	2662.36
259.83	2645.98
260.05	2426.84
260.27	2891.73
260.48	2576.34
260.70	2328.54
260.92	2258.91
261.13	2359.26
261.35	2535.39
261.57	2463.71
261.78	2285.53
262.00	2314.20
262.22	2605.02
262.43	2285.53
262.65	2396.12
262.86	2353.12
263.08	2731.99
263.30	2531.29
263.51	2203.61
263.73	2383.84
263.95	2670.55
264.16	2416.60
264.38	2269.15
264.60	2301.92
264.81	2432.99
265.03	2637.78
265.25	2459.61
265.46	2373.60
265.68	2672.60
265.89	2533.34
266.11	2154.46
266.33	2381.79
266.54	2486.23
266.76	2559.96
266.98	2457.56
267.19	2480.09
267.41	2547.67
267.62	2457.56
267.84	2211.81
268.06	2432.99
268.27	2510.81
268.49	2555.86
268.70	2396.12
268.92	2406.36
269.14	2306.01
269.35	2318.30
269.57	2330.59
269.79	2420.70
270.00	2396.12
270.22	2758.61
270.43	2334.68
270.65	2203.61
270.87	2570.20
271.08	2559.96
271.30	2441.18
271.51	2346.97
271.73	2576.34
271.95	2627.54
272.16	2357.21
272.38	2367.45
272.59	2435.03
272.81	2500.57
273.02	2398.17
273.24	2318.30
273.46	2621.40
273.67	2377.69
273.89	2310.11
274.10	2346.97
274.32	2670.55
274.54	2543.58
274.75	2455.51
274.97	2432.99
275.18	2605.02
275.40	2566.10
275.61	2500.57
275.83	2410.46
276.05	2357.21
276.26	2480.09
276.48	2465.75
276.69	2398.17
276.91	2447.32
277.12	2650.07
277.34	2496.47
277.55	2598.87
277.77	2490.33
277.99	2484.19
278.20	2301.92
278.42	2299.87
278.63	2351.07
278.85	2355.16
279.06	2267.10
279.28	2504.67
279.49	2607.06
279.71	2611.16
279.93	2502.62
280.14	2424.80
280.36	2404.32
280.57	2598.87
280.79	2406.36
281.00	2357.21
281.22	2404.32
281.43	2668.50
281.65	2162.66
281.86	2383.84
282.08	2539.48
282.29	2725.85
282.51	2273.25
282.73	2342.88
282.94	2334.68
283.16	2572.25
283.37	2498.52
283.59	2453.47
283.80	2482.14
284.02	2523.10
284.23	2471.90
284.45	2412.51
284.66	2404.32
284.88	2406.36
285.09	2379.74
285.31	2521.05
285.52	2553.82
285.74	2244.57
285.95	2539.48
286.17	2465.75
286.38	2621.40
286.60	2453.47
286.81	2334.68
287.03	2398.17
287.24	2516.95
287.46	2559.96
287.67	2490.33
287.89	2594.78
288.10	2471.90
288.32	2494.43
288.53	2578.39
288.75	2428.89
288.96	2605.02
289.18	2396.12
289.39	2371.55
289.61	2455.51
289.82	2715.61
290.04	2678.74
290.25	2318.30
290.47	2480.09
290.68	2465.75
290.90	2672.60
291.11	2306.01
291.33	2543.58
291.54	2306.01
291.76	2346.97
291.97	2455.51
292.18	2484.19
292.40	2484.19
292.61	2416.60
292.83	2684.89
293.04	2555.86
293.26	2576.34
293.47	2447.32
293.69	2244.57
293.90	2408.41
294.12	2598.87
294.33	2486.23
294.55	2490.33
294.76	2539.48
294.97	2670.55
295.19	2770.90
295.40	2346.97
295.62	2498.52
295.83	2586.58
296.05	2426.84
296.26	2549.72
296.48	2428.89
296.69	2510.81
296.90	2494.43
297.12	2473.95
297.33	2506.71
297.55	2523.10
297.76	2594.78
297.98	2521.05
298.19	2469.85
298.41	2469.85
298.62	2342.88
298.83	2578.39
299.05	2402.27
299.26	2478.04
299.48	2424.80
299.69	2519.00
299.90	2361.31
300.12	2396.12
300.33	2453.47
300.55	2482.14
300.76	2482.14
300.98	2351.07
301.19	2543.58
301.40	2367.45
301.62	2369.50
301.83	2473.95
302.05	2494.43
302.26	2412.51
302.47	2408.41
302.69	2308.06
302.90	2500.57
303.12	2224.09
303.33	2523.10
303.54	2695.13
303.76	2383.84
303.97	2424.80
304.19	2521.05
304.40	2369.50
304.61	2545.63
304.83	2559.96
305.04	2498.52
305.26	2586.58
305.47	2512.86
305.68	2351.07
305.90	2289.63
306.11	2625.50
306.33	2510.81
306.54	2359.26
306.75	2398.17
306.97	2260.96
307.18	2396.12
307.39	2387.93
307.61	2523.10
307.82	2523.10
308.04	2586.58
308.25	2371.55
308.46	2490.33
308.68	2494.43
308.89	2488.28
309.10	2551.77
309.32	2529.24
309.53	2490.33
309.74	2531.29
309.96	2363.36
310.17	2457.56
310.39	2416.60
310.60	2633.69
310.81	2441.18
311.03	2359.26
311.24	2600.92
311.45	2498.52
311.67	2676.70
311.88	2596.82
312.09	2445.27
312.31	2340.83
312.52	2387.93
312.73	2414.56
312.95	2318.30
313.16	2377.69
313.37	2596.82
313.59	2500.57
313.80	2615.26
314.01	2652.12
314.23	2389.98
314.44	2320.35
314.65	2285.53
314.87	2332.64
315.08	2428.89
315.29	2385.88
315.51	2371.55
315.72	2297.82
315.93	2541.53
316.15	2506.71
316.36	2437.08
316.57	2555.86
316.79	2451.42
317.00	2349.02
317.21	2537.43
317.43	2412.51
317.64	2430.94
317.85	2402.27
318.07	2422.75
318.28	2514.91
318.49	2570.20
318.70	2744.28
318.92	2588.63
319.13	2576.34
319.34	2699.22
319.56	2475.99
319.77	2662.36
319.98	2637.78
320.20	2666.46
320.41	2592.73
320.62	2572.25
320.83	2336.73
321.05	2609.11
321.26	2488.28
321.47	2457.56
321.69	2670.55
321.90	2318.30
322.11	2367.45
322.32	2490.33
322.54	2678.74
322.75	2383.84
322.96	2809.81
323.18	2314.20
323.39	2306.01
323.60	2326.49
323.81	2545.63
324.03	2435.03
324.24	2473.95
324.45	2551.77
324.66	2375.64
324.88	2660.31
325.09	2754.52
325.30	2426.84
325.52	2363.36
325.73	2529.24
325.94	2326.49
326.15	2316.25
326.37	2369.50
326.58	2619.35
326.79	2707.41
327.00	2324.44
327.22	2406.36
327.43	2385.88
327.64	2334.68
327.85	2529.24
328.07	2457.56
328.28	2742.23
328.49	2379.74
328.70	2435.03
328.92	2396.12
329.13	2422.75
329.34	2547.67
329.55	2662.36
329.76	2543.58
329.98	2523.10
330.19	2588.63
330.40	2531.29
330.61	2465.75
330.83	2564.06
331.04	2441.18
331.25	2451.42
331.46	2439.13
331.68	2236.38
331.89	2609.11
332.10	2367.45
332.31	2314.20
332.52	2432.99
332.74	2629.59
332.95	2297.82
333.16	2420.70
333.37	2555.86
333.58	2449.37
333.80	2420.70
334.01	2281.44
334.22	2443.23
334.43	2385.88
334.64	2318.30
334.86	2228.19
335.07	2392.03
335.28	2691.03
335.49	2336.73
335.70	2430.94
335.92	2674.65
336.13	2818.00
336.34	2547.67
336.55	2404.32
336.76	2488.28
336.98	2232.29
337.19	2453.47
337.40	2529.24
337.61	2824.15
337.82	2369.50
338.04	2559.96
338.25	2281.44
338.46	2455.51
338.67	2486.23
338.88	2394.08
339.09	2265.05
339.31	2404.32
339.52	2361.31
339.73	2375.64
339.94	2373.60
340.15	2592.73
340.36	2408.41
340.58	2484.19
340.79	2340.83
341.00	2594.78
341.21	2281.44
341.42	2703.32
341.63	2398.17
341.85	2594.78
342.06	2498.52
342.27	2398.17
342.48	2588.63
342.69	2312.16
342.90	2506.71
343.12	2537.43
343.33	2322.40
343.54	2572.25
343.75	2621.40
343.96	2408.41
344.17	2363.36
344.38	2502.62
344.60	2389.98
344.81	2349.02
345.02	2508.76
345.23	2594.78
345.44	2766.81
345.65	2502.62
345.86	2392.03
346.07	2543.58
346.29	2432.99
346.50	2510.81
346.71	2543.58
346.92	2635.74
347.13	2815.96
347.34	2471.90
347.55	2328.54
347.76	2533.34
347.98	2312.16
348.19	2435.03
348.40	2590.68
348.61	2449.37
348.82	2660.31
349.03	2555.86
349.24	2334.68
349.45	2707.41
349.66	2215.90
349.88	2521.05
350.09	2389.98
350.30	2611.16
350.51	2686.94
350.72	2475.99
350.93	2475.99
351.14	2449.37
351.35	2441.18
351.56	2457.56
351.77	2402.27
351.99	2525.15
352.20	2684.89
352.41	2551.77
352.62	2232.29
352.83	2408.41
353.04	2475.99
353.25	2408.41
353.46	2506.71
353.67	2670.55
353.88	2271.20
354.09	2422.75
354.30	2357.21
354.52	2570.20
354.73	2410.46
354.94	2392.03
355.15	2428.89
355.36	2787.29
355.57	2416.60
355.78	2428.89
355.99	2430.94
356.20	2463.71
356.41	2637.78
356.62	2506.71
356.83	2437.08
357.04	2711.51
357.25	2248.67
357.46	2371.55
357.68	2299.87
357.89	2430.94
358.10	2422.75
358.31	2414.56
358.52	2424.80
358.73	2379.74
358.94	2314.20
359.15	2394.08
359.36	2457.56
359.57	2508.76
359.78	2437.08
359.99	2457.56
360.20	2340.83
360.41	2498.52
360.62	2562.01
360.83	2414.56
361.04	2420.70
361.25	2482.14
361.46	2703.32
361.67	2510.81
361.88	2441.18
362.09	2613.21
362.30	2480.09
362.51	2369.50
362.72	2463.71
362.93	2580.44
363.14	2578.39
363.35	2488.28
363.56	2373.60
363.78	2523.10
363.99	2619.35
364.20	2389.98
364.41	2463.71
364.62	2785.24
364.83	2551.77
365.04	2369.50
365.25	2475.99
365.46	2711.51
365.67	2318.30
365.88	2475.99
366.09	2420.70
366.30	2416.60
366.51	2447.32
366.72	2338.78
366.93	2412.51
367.14	2482.14
367.35	2594.78
367.56	2375.64
367.77	2502.62
367.98	2521.05
368.18	2447.32
368.39	2516.95
368.60	2342.88
368.81	2547.67
369.02	2576.34
369.23	2441.18
369.44	2269.15
369.65	2389.98
369.86	2478.04
370.07	2533.34
370.28	2308.06
370.49	2553.82
370.70	2547.67
370.91	2363.36
371.12	2310.11
371.33	2613.21
371.54	2394.08
371.75	2553.82
371.96	2203.61
372.17	2535.39
372.38	2406.36
372.59	2482.14
372.80	2349.02
373.01	2453.47
373.22	2478.04
373.43	2412.51
373.64	2346.97
373.85	2670.55
374.06	2691.03
374.26	2521.05
374.47	2506.71
374.68	2789.33
374.89	2459.61
375.10	2400.22
375.31	2586.58
375.52	2490.33
375.73	2449.37
375.94	2314.20
376.15	2537.43
376.36	2432.99
376.57	2422.75
376.78	2373.60
376.99	2435.03
377.20	2605.02
377.40	2353.12
377.61	2613.21
377.82	2303.96
378.03	2678.74
378.24	2516.95
378.45	2424.80
378.66	2469.85
378.87	2275.29
379.08	2260.96
379.29	2453.47
379.50	2580.44
379.71	2465.75
379.91	2492.38
380.12	2488.28
380.33	2351.07
380.54	2465.75
380.75	2471.90
380.96	2387.93
381.17	2559.96
381.38	2510.81
381.59	2496.47
381.80	2412.51
382.00	2727.89
382.21	2547.67
382.42	2654.17
382.63	2703.32
382.84	2555.86
383.05	2592.73
383.26	2650.07
383.47	2506.71
383.68	2574.30
383.88	2584.54
384.09	2521.05
384.30	2637.78
384.51	2559.96
384.72	2408.41
384.93	2324.44
385.14	2469.85
385.35	2525.15
385.55	2332.64
385.76	2691.03
385.97	2357.21
386.18	2308.06
386.39	2387.93
386.60	2453.47
386.81	2420.70
387.02	2353.12
387.22	2414.56
387.43	2582.49
387.64	2451.42
387.85	2670.55
388.06	2801.62
388.27	4079.55
388.48	7966.60
388.68	11767.63
388.89	14491.43
389.10	15394.58
389.31	14675.74
389.52	11495.25
389.73	10000.23
389.93	9056.12
390.14	8279.94
390.35	7475.09
390.56	6428.57
390.77	5515.18
390.98	4163.52
391.18	3432.40
391.39	2889.68
391.60	2605.02
391.81	2598.87
392.02	2426.84
392.23	2768.85
392.43	2482.14
392.64	2633.69
392.85	2453.47
393.06	2674.65
393.27	2439.13
393.47	2373.60
393.68	2535.39
393.89	2488.28
394.10	2594.78
394.31	2445.27
394.52	2385.88
394.72	2418.65
394.93	2658.26
395.14	2338.78
395.35	2514.91
395.56	2506.71
395.76	2521.05
395.97	2449.37
396.18	2492.38
396.39	2592.73
396.60	2914.26
396.80	2750.42
397.01	2670.55
397.22	2684.89
397.43	2654.17
397.64	2420.70
397.84	2566.10
398.05	2682.84
398.26	2490.33
398.47	2549.72
398.67	2510.81
398.88	2492.38
399.09	2648.02
399.30	2371.55
399.51	2547.67
399.71	2416.60
399.92	2420.70
400.13	2478.04
400.34	2478.04
400.54	2537.43
400.75	2711.51
400.96	2486.23
401.17	2629.59
401.37	2564.06
401.58	2404.32
401.79	2510.81
402.00	2547.67
402.21	2885.59
402.41	2809.81
402.62	2731.99
402.83	2920.40
403.04	2891.73
403.24	3059.67
403.45	2572.25
403.66	2736.09
403.87	2703.32
404.07	2754.52
404.28	2729.94
404.49	2691.03
404.70	2545.63
404.90	2611.16
405.11	2439.13
405.32	2580.44
405.52	2392.03
405.73	2459.61
405.94	2373.60
406.15	2494.43
406.35	2637.78
406.56	2658.26
406.77	2478.04
406.98	2490.33
407.18	2381.79
407.39	2656.22
407.60	2510.81
407.80	2494.43
408.01	2492.38
408.22	2576.34
408.43	2371.55
408.63	2494.43
408.84	2627.54
409.05	2590.68
409.25	2367.45
409.46	2379.74
409.67	2439.13
409.88	2414.56
410.08	2539.48
410.29	2414.56
410.50	2514.91
410.70	2621.40
410.91	2416.60
411.12	2555.86
411.32	2562.01
411.53	2375.64
411.74	2482.14
411.95	2590.68
412.15	2445.27
412.36	2531.29
412.57	2594.78
412.77	2654.17
412.98	2531.29
413.19	2480.09
413.39	2494.43
413.60	2506.71
413.81	2666.46
414.01	2414.56
414.22	2480.09
414.43	2519.00
414.63	2553.82
414.84	2619.35
415.05	2381.79
415.25	2310.11
415.46	2547.67
415.67	2459.61
415.87	2564.06
416.08	2445.27
416.29	2426.84
416.49	2562.01
416.70	2420.70
416.91	2414.56
417.11	2445.27
417.32	2658.26
417.53	2543.58
417.73	2525.15
417.94	2547.67
418.15	2471.90
418.35	2424.80
418.56	2426.84
418.77	2809.81
418.97	2473.95
419.18	2473.95
419.38	2226.14
419.59	2506.71
419.80	2682.84
420.00	2400.22
420.21	2465.75
420.42	2580.44
420.62	2523.10
420.83	2369.50
421.04	2418.65
421.24	2488.28
421.45	2648.02
421.65	2441.18
421.86	2416.60
422.07	2629.59
422.27	2572.25
422.48	2463.71
422.69	2299.87
422.89	2471.90
423.10	2457.56
423.30	2260.96
423.51	2408.41
423.72	2521.05
423.92	2611.16
424.13	2316.25
424.33	2445.27
424.54	2619.35
424.75	2498.52
424.95	2684.89
425.16	2519.00
425.36	2414.56
425.57	2584.54
425.78	2521.05
425.98	2566.10
426.19	2469.85
426.39	2383.84
426.60	2562.01
426.81	2543.58
427.01	2461.66
427.22	2375.64
427.42	2224.09
427.63	2349.02
427.83	2607.06
428.04	2697.17
428.25	2545.63
428.45	2654.17
428.66	2555.86
428.86	2408.41
429.07	2441.18
429.28	2377.69
429.48	2465.75
429.69	2338.78
429.89	2523.10
430.10	2320.35
430.30	2635.74
430.51	2602.97
430.71	2379.74
430.92	2525.15
431.13	2355.16
431.33	2525.15
431.54	2502.62
431.74	2664.41
431.95	2738.13
432.15	2383.84
432.36	2516.95
432.56	2533.34
432.77	2711.51
432.98	2633.69
433.18	2480.09
433.39	2461.66
433.59	2412.51
433.80	2744.28
434.00	2691.03
434.21	2430.94
434.41	2432.99
434.62	2815.96
434.82	2389.98
435.03	2367.45
435.23	2482.14
435.44	2275.29
435.64	2525.15
435.85	2531.29
436.06	2586.58
436.26	2580.44
436.47	2404.32
436.67	2381.79
436.88	2432.99
437.08	2594.78
437.29	2555.86
437.49	2541.53
437.70	2645.98
437.90	2467.80
438.11	2658.26
438.31	2480.09
438.52	2750.42
438.72	2721.75
438.93	2688.98
439.13	2576.34
439.34	2643.93
439.54	2512.86
439.75	2535.39
439.95	2543.58
440.16	2412.51
440.36	2506.71
440.57	2408.41
440.77	2490.33
440.98	2371.55
441.18	2547.67
441.39	2506.71
441.59	2312.16
441.80	2731.99
442.00	2506.71
442.21	2557.91
442.41	2351.07
442.62	2633.69
442.82	2426.84
443.02	2490.33
443.23	2527.19
443.43	2428.89
443.64	2684.89
443.84	2385.88
444.05	2625.50
444.25	2482.14
444.46	2441.18
444.66	2430.94
444.87	2619.35
445.07	2359.26
445.28	2428.89
445.48	2564.06
445.69	2519.00
445.89	2795.48
446.09	2504.67
446.30	2738.13
446.50	2944.98
446.71	4579.26
446.91	5648.30
447.12	6524.83
447.32	6928.28
447.53	6520.73
447.73	5322.67
447.93	4757.43
448.14	4448.19
448.34	4239.30
448.55	3856.33
448.75	3735.50
448.96	3581.90
449.16	3168.21
449.36	3067.86
449.57	2725.85
449.77	2494.43
449.98	2457.56
450.18	2570.20
450.39	2551.77
450.59	2562.01
450.79	2488.28
451.00	2367.45
451.20	2557.91
451.41	2461.66
451.61	2498.52
451.81	2465.75
452.02	2486.23
452.22	2480.09
452.43	2469.85
452.63	2361.31
452.84	2408.41
453.04	2363.36
453.24	2447.32
453.45	2400.22
453.65	2422.75
453.86	2506.71
454.06	2539.48
454.26	2498.52
454.47	2351.07
454.67	2584.54
454.87	2598.87
455.08	2521.05
455.28	2564.06
455.49	2502.62
455.69	2416.60
455.89	2695.13
456.10	2535.39
456.30	2432.99
456.51	2637.78
456.71	2551.77
456.91	2578.39
457.12	2496.47
457.32	2551.77
457.52	2443.23
457.73	2566.10
457.93	2568.15
458.14	2480.09
458.34	2254.81
458.54	2449.37
458.75	2338.78
458.95	2617.30
459.15	2535.39
459.36	2478.04
459.56	2439.13
459.76	2852.82
459.97	2584.54
460.17	2441.18
460.37	2547.67
460.58	2527.19
460.78	2568.15
460.99	2435.03
461.19	2504.67
461.39	2482.14
461.60	2478.04
461.80	2465.75
462.00	2338.78
462.21	2553.82
462.41	2334.68
462.61	2353.12
462.82	2353.12
463.02	2645.98
463.22	2475.99
463.43	2562.01
463.63	2414.56
463.83	2660.31
464.04	2529.24
464.24	2471.90
464.44	2375.64
464.64	2490.33
464.85	2623.45
465.05	2654.17
465.25	2416.60
465.46	2430.94
465.66	2611.16
465.86	2547.67
466.07	2568.15
466.27	2469.85
466.47	2297.82
466.68	2387.93
466.88	2594.78
467.08	2531.29
467.29	2627.54
467.49	2525.15
467.69	2523.10
467.89	2553.82
468.10	2463.71
468.30	2465.75
468.50	2596.82
468.71	2656.22
468.91	2314.20
469.11	2623.45
469.31	2482.14
469.52	2396.12
469.72	2621.40
469.92	2625.50
470.13	2523.10
470.33	2496.47
470.53	2512.86
470.73	2990.03
470.94	3293.13
471.14	3407.82
471.34	3768.26
471.54	3643.34
471.75	3295.18
471.95	3080.14
472.15	3002.32
472.36	3035.09
472.56	2992.08
472.76	2985.94
472.96	2932.69
473.17	2678.74
473.37	2590.68
473.57	2533.34
473.77	2625.50
473.98	2537.43
474.18	2367.45
474.38	2920.40
474.58	2496.47
474.79	2406.36
474.99	2465.75
475.19	2607.06
475.39	2373.60
475.60	2457.56
475.80	2467.80
476.00	2482.14
476.20	2379.74
476.41	2504.67
476.61	2637.78
476.81	2625.50
477.01	2367.45
477.21	2623.45
477.42	2619.35
477.62	2430.94
477.82	2578.39
478.02	2430.94
478.23	2562.01
478.43	2351.07
478.63	2480.09
478.83	2504.67
479.03	2445.27
479.24	2648.02
479.44	2764.76
479.64	2369.50
479.84	2242.53
480.04	2392.03
480.25	2551.77
480.45	2357.21
480.65	2410.46
480.85	2643.93
481.06	2453.47
481.26	2523.10
481.46	2402.27
481.66	2662.36
481.86	2392.03
482.06	2545.63
482.27	2463.71
482.47	2420.70
482.67	2555.86
482.87	2457.56
483.07	2512.86
483.28	2383.84
483.48	2396.12
483.68	2428.89
483.88	2330.59
484.08	2275.29
484.29	2375.64
484.49	2463.71
484.69	2392.03
484.89	2699.22
485.09	2621.40
485.29	2531.29
485.50	2488.28
485.70	2441.18
485.90	2617.30
486.10	2447.32
486.30	2502.62
486.50	2580.44
486.71	2488.28
486.91	2512.86
487.11	2537.43
487.31	2377.69
487.51	2650.07
487.71	2400.22
487.91	2377.69
488.12	2414.56
488.32	2267.10
488.52	2402.27
488.72	2256.86
488.92	2547.67
489.12	2609.11
489.32	2621.40
489.53	2531.29
489.73	2344.92
489.93	2686.94
490.13	2351.07
490.33	2365.40
490.53	2502.62
490.73	2666.46
490.94	2289.63
491.14	2531.29
491.34	2637.78
491.54	2797.53
491.74	3344.33
491.94	3964.87
492.14	4272.06
492.34	4374.46
492.54	3995.59
492.75	3440.59
492.95	3477.45
493.15	3246.03
493.35	3151.82
493.55	3063.76
493.75	2899.92
493.95	2947.03
494.15	2678.74
494.35	2535.39
494.56	2553.82
494.76	2420.70
494.96	2521.05
495.16	2494.43
495.36	2512.86
495.56	2420.70
495.76	2484.19
495.96	2445.27
496.16	2357.21
496.36	2719.70
496.56	2461.66
496.77	2514.91
496.97	2428.89
497.17	2621.40
497.37	2383.84
497.57	2549.72
497.77	2514.91
497.97	2342.88
498.17	2500.57
498.37	2457.56
498.57	2568.15
498.77	2486.23
498.97	2588.63
499.17	2662.36
499.38	2555.86
499.58	2594.78
499.78	2553.82
499.98	2572.25
500.18	2514.91
500.38	2492.38
500.58	2643.93
500.78	3028.95
500.98	5300.14
501.18	7335.82
501.38	9086.84
501.58	10121.06
501.78	9944.94
501.98	7964.55
502.18	6629.27
502.38	5836.71
502.58	5283.76
502.78	4773.82
502.98	4669.37
503.18	4368.32
503.38	4042.69
503.59	3465.16
503.79	3325.90
503.99	3219.41
504.19	3055.57
504.39	3106.77
504.59	3131.34
504.79	3024.85
504.99	3024.85
505.19	2932.69
505.39	2727.89
505.59	2875.35
505.79	2858.96
505.99	2703.32
506.19	2488.28
506.39	2607.06
506.59	2502.62
506.79	2473.95
506.99	2666.46
507.19	2539.48
507.39	2531.29
507.59	2453.47
507.79	2463.71
507.99	2447.32
508.19	2432.99
508.39	2414.56
508.59	2496.47
508.79	2598.87
508.99	2779.09
509.19	2344.92
509.39	2498.52
509.59	2412.51
509.79	2377.69
509.99	2512.86
510.19	2625.50
510.39	2576.34
510.59	2502.62
510.79	2412.51
510.99	2310.11
511.19	2461.66
511.39	2727.89
511.59	2621.40
511.79	2625.50
511.99	2504.67
512.19	2695.13
512.38	2521.05
512.58	2361.31
512.78	2373.60
512.98	2641.88
513.18	2678.74
513.38	2236.38
513.58	2584.54
513.78	2519.00
513.98	2537.43
514.18	2385.88
514.38	2430.94
514.58	2578.39
514.78	2461.66
514.98	2371.55
515.18	2402.27
515.38	2357.21
515.58	2744.28
515.78	2416.60
515.98	2377.69
516.18	2637.78
516.38	2490.33
516.57	2414.56
516.77	2406.36
516.97	2645.98
517.17	2361.31
517.37	2326.49
517.57	2555.86
517.77	2543.58
517.97	2394.08
518.17	2570.20
518.37	2385.88
518.57	2375.64
518.77	2408.41
518.97	2469.85
519.16	2549.72
519.36	2635.74
519.56	2441.18
519.76	2478.04
519.96	2439.13
520.16	2686.94
520.36	2379.74
520.56	2602.97
520.76	2400.22
520.96	2490.33
521.16	2578.39
521.35	2594.78
521.55	2584.54
521.75	2432.99
521.95	2478.04
522.15	2406.36
522.35	2344.92
522.55	2430.94
522.75	2627.54
522.95	2430.94
523.14	2379.74
523.34	2461.66
523.54	2416.60
523.74	2588.63
523.94	2570.20
524.14	2312.16
524.34	2529.24
524.54	2658.26
524.73	2408.41
524.93	2496.47
525.13	2490.33
525.33	2310.11
525.53	2725.85
525.73	2623.45
525.93	2498.52
526.13	2326.49
526.32	2418.65
526.52	2629.59
526.72	2533.34
526.92	2414.56
527.12	2398.17
527.32	2316.25
527.52	2527.19
527.71	2506.71
527.91	2402.27
528.11	2428.89
528.31	2478.04
528.51	2430.94
528.71	2500.57
528.90	2519.00
529.10	2607.06
529.30	2578.39
529.50	2232.29
529.70	2519.00
529.90	2416.60
530.09	2457.56
530.29	2263.01
530.49	2371.55
530.69	2832.34
530.89	2486.23
531.09	2539.48
531.28	2408.41
531.48	2600.92
531.68	2473.95
531.88	2494.43
532.08	2506.71
532.28	2490.33
532.47	2529.24
532.67	2625.50
532.87	2596.82
533.07	2416.60
533.27	2555.86
533.46	2531.29
533.66	2584.54
533.86	2545.63
534.06	2498.52
534.26	2484.19
534.45	2498.52
534.65	2658.26
534.85	2506.71
535.05	2467.80
535.25	2621.40
535.44	2301.92
535.64	2551.77
535.84	2443.23
536.04	2467.80
536.24	2342.88
536.43	2480.09
536.63	2537.43
536.83	2531.29
537.03	2496.47
537.22	2316.25
537.42	2265.05
537.62	2482.14
537.82	2416.60
538.02	2592.73
538.21	2621.40
538.41	2938.84
538.61	2488.28
538.81	2449.37
539.00	2598.87
539.20	2332.64
539.40	2441.18
539.60	2461.66
539.79	2607.06
539.99	2504.67
540.19	2424.80
540.39	2461.66
540.58	2506.71
540.78	2693.08
540.98	2418.65
541.18	2580.44
541.37	2570.20
541.57	2586.58
541.77	2588.63
541.97	2449.37
542.16	2297.82
542.36	2439.13
542.56	2437.08
542.76	2686.94
542.95	2519.00
543.15	2600.92
543.35	2551.77
543.54	2426.84
543.74	2310.11
543.94	2697.17
544.14	2402.27
544.33	2607.06
544.53	2514.91
544.73	2461.66
544.93	2412.51
545.12	2402.27
545.32	2498.52
545.52	2523.10
545.71	2338.78
545.91	2490.33
546.11	2414.56
546.30	2408.41
546.50	2519.00
546.70	2523.10
546.90	2396.12
547.09	2291.68
547.29	2473.95
547.49	2613.21
547.68	2430.94
547.88	2400.22
548.08	2580.44
548.27	2965.46
548.47	2453.47
548.67	2416.60
548.87	2572.25
549.06	2439.13
549.26	2463.71
549.46	2586.58
549.65	2398.17
549.85	2465.75
550.05	2592.73
550.24	2287.58
550.44	2506.71
550.64	2498.52
550.83	2504.67
551.03	2684.89
551.23	2562.01
551.42	2551.77
551.62	2463.71
551.82	2496.47
552.01	2447.32
552.21	2627.54
552.41	2539.48
552.60	2654.17
552.80	2510.81
553.00	2414.56
553.19	2418.65
553.39	2668.50
553.59	2367.45
553.78	2578.39
553.98	2363.36
554.17	2338.78
554.37	2529.24
554.57	2586.58
554.76	2334.68
554.96	2439.13
555.16	2508.76
555.35	2430.94
555.55	2498.52
555.75	2586.58
555.94	2559.96
556.14	2306.01
556.33	2512.86
556.53	2496.47
556.73	2473.95
556.92	2559.96
557.12	2529.24
557.32	2658.26
557.51	2717.65
557.71	2539.48
557.90	2621.40
558.10	2680.79
558.30	2441.18
558.49	2373.60
558.69	2412.51
558.88	2531.29
559.08	2473.95
559.28	2422.75
559.47	2461.66
559.67	2551.77
559.86	2744.28
560.06	2471.90
560.26	2451.42
560.45	2621.40
560.65	2445.27
560.84	2676.70
561.04	2412.51
561.24	2527.19
561.43	2310.11
561.63	2676.70
561.82	2533.34
562.02	2580.44
562.22	2365.40
562.41	2332.64
562.61	2539.48
562.80	2416.60
563.00	2887.64
563.19	2496.47
563.39	2555.86
563.59	2535.39
563.78	2351.07
563.98	2271.20
564.17	2432.99
564.37	2301.92
564.56	2455.51
564.76	2322.40
564.96	2572.25
565.15	2545.63
565.35	2809.81
565.54	2461.66
565.74	2531.29
565.93	2527.19
566.13	2527.19
566.32	2609.11
566.52	2533.34
566.71	2453.47
566.91	2572.25
567.11	2457.56
567.30	2379.74
567.50	2619.35
567.69	2588.63
567.89	2449.37
568.08	2379.74
568.28	2488.28
568.47	2404.32
568.67	2504.67
568.86	2375.64
569.06	2596.82
569.25	2371.55
569.45	2326.49
569.64	2361.31
569.84	2469.85
570.04	2580.44
570.23	2387.93
570.43	2457.56
570.62	2566.10
570.82	2676.70
571.01	2332.64
571.21	2435.03
571.40	2336.73
571.60	2553.82
571.79	2543.58
571.99	2537.43
572.18	2363.36
572.38	2555.86
572.57	2406.36
572.77	2576.34
572.96	2803.67
573.16	2445.27
573.35	2441.18
573.55	2635.74
573.74	2568.15
573.94	2418.65
574.13	2496.47
574.33	2580.44
574.52	2695.13
574.71	2447.32
574.91	2510.81
575.10	2383.84
575.30	2551.77
575.49	2367.45
575.69	2414.56
575.88	2475.99
576.08	2457.56
576.27	2676.70
576.47	2535.39
576.66	2707.41
576.86	2654.17
577.05	2545.63
577.25	2564.06
577.44	2715.61
577.64	2457.56
577.83	2693.08
578.02	2426.84
578.22	2658.26
578.41	2826.20
578.61	2502.62
578.80	2318.30
579.00	2443.23
579.19	2529.24
579.39	2605.02
579.58	2596.82
579.77	2469.85
579.97	2670.55
580.16	2650.07
580.36	2594.78
580.55	2572.25
580.75	2504.67
580.94	2588.63
581.13	2682.84
581.33	2654.17
581.52	2506.71
581.72	2742.23
581.91	2643.93
582.11	2410.46
582.30	2535.39
582.49	2551.77
582.69	2719.70
582.88	2592.73
583.08	2523.10
583.27	2684.89
583.47	2578.39
583.66	2367.45
583.85	2361.31
584.05	2490.33
584.24	2510.81
584.44	2555.86
584.63	2625.50
584.82	2727.89
585.02	2666.46
585.21	2707.41
585.41	2531.29
585.60	2654.17
585.79	2736.09
585.99	2760.66
586.18	2613.21
586.37	3291.09
586.57	5001.14
586.76	14659.36
586.96	33971.71
587.15	47117.62
587.34	55645.36
587.54	60699.75
587.73	54693.05
587.93	38839.73
588.12	29355.58
588.31	23621.27
588.51	20526.79
588.70	18970.33
588.89	17121.02
589.09	14907.16
589.28	12621.63
589.47	10147.69
589.67	7905.16
589.86	6133.67
590.06	4558.78
590.25	3837.89
590.44	3254.22
590.64	3002.32
590.83	2729.94
591.02	2772.95
591.22	2492.38
591.41	2564.06
591.60	2578.39
591.80	2897.88
591.99	2383.84
592.18	2525.15
592.38	2551.77
592.57	2410.46
592.76	2496.47
592.96	2570.20
593.15	2426.84
593.34	2566.10
593.54	2478.04
593.73	2664.41
593.92	2527.19
594.12	2602.97
594.31	2473.95
594.50	2627.54
594.70	2592.73
594.89	2879.44
595.08	2351.07
595.28	2596.82
595.47	2881.49
595.66	2670.55
595.86	2357.21
596.05	2412.51
596.24	2492.38
596.43	2760.66
596.63	2684.89
596.82	2547.67
597.01	2586.58
597.21	2736.09
597.40	2557.91
597.59	2502.62
597.79	2555.86
597.98	2619.35
598.17	2527.19
598.36	2410.46
598.56	2637.78
598.75	2523.10
598.94	2475.99
599.14	2516.95
599.33	2449.37
599.52	2508.76
599.71	2443.23
599.91	2519.00
600.10	2588.63
600.29	2510.81
600.48	2541.53
600.68	2629.59
600.87	2547.67
601.06	2490.33
601.26	2512.86
601.45	2490.33
601.64	2424.80
601.83	2686.94
602.03	2449.37
602.22	2355.16
602.41	2600.92
602.60	2805.72
602.80	2557.91
602.99	2543.58
603.18	2539.48
603.37	2490.33
603.57	2471.90
603.76	2523.10
603.95	2662.36
604.14	2416.60
604.34	2398.17
604.53	2455.51
604.72	2504.67
604.91	2645.98
605.10	2443.23
605.30	2342.88
605.49	2723.80
605.68	2549.72
605.87	2527.19
606.07	2383.84
606.26	2488.28
606.45	2529.24
606.64	2426.84
606.84	2404.32
607.03	2586.58
607.22	2715.61
607.41	2531.29
607.60	2375.64
607.80	2596.82
607.99	2389.98
608.18	2455.51
608.37	2469.85
608.56	2428.89
608.76	2750.42
608.95	2703.32
609.14	2478.04
609.33	2602.97
609.52	2764.76
609.72	2697.17
609.91	2654.17
610.10	2564.06
610.29	2674.65
610.48	2596.82
610.68	2578.39
610.87	2453.47
611.06	2643.93
611.25	2408.41
611.44	2488.28
611.63	2473.95
611.83	2654.17
612.02	2281.44
612.21	2623.45
612.40	2314.20
612.59	2412.51
612.79	2383.84
612.98	2455.51
613.17	2586.58
613.36	2512.86
613.55	2629.59
613.74	2547.67
613.93	2545.63
614.13	2682.84
614.32	2652.12
614.51	2715.61
614.70	2580.44
614.89	2488.28
615.08	2592.73
615.28	2940.88
615.47	2406.36
615.66	2531.29
615.85	2525.15
616.04	2662.36
616.23	2580.44
616.42	2447.32
616.62	2527.19
616.81	2498.52
617.00	2543.58
617.19	2592.73
617.38	2482.14
617.57	2541.53
617.76	2547.67
617.95	2514.91
618.15	2527.19
618.34	2570.20
618.53	2379.74
618.72	2615.26
618.91	2447.32
619.10	2688.98
619.29	2486.23
619.48	2539.48
619.68	2359.26
619.87	2392.03
620.06	2316.25
620.25	2539.48
620.44	2422.75
620.63	2447.32
620.82	2512.86
621.01	2529.24
621.20	2498.52
621.39	2543.58
621.59	2596.82
621.78	2527.19
621.97	2463.71
622.16	2543.58
622.35	2498.52
622.54	2584.54
622.73	2539.48
622.92	2269.15
623.11	2652.12
623.30	2404.32
623.49	2506.71
623.68	2334.68
623.88	2674.65
624.07	2449.37
624.26	2480.09
624.45	2529.24
624.64	2504.67
624.83	2523.10
625.02	2416.60
625.21	2506.71
625.40	2537.43
625.59	2674.65
625.78	2568.15
625.97	2475.99
626.16	2711.51
626.35	2635.74
626.54	2525.15
626.74	2674.65
626.93	2539.48
627.12	2543.58
627.31	2588.63
627.50	2469.85
627.69	2635.74
627.88	2414.56
628.07	2424.80
628.26	2279.39
628.45	2404.32
628.64	2373.60
628.83	2494.43
629.02	2346.97
629.21	2527.19
629.40	2473.95
629.59	2439.13
629.78	2424.80
629.97	2414.56
630.16	2535.39
630.35	2502.62
630.54	2506.71
630.73	2453.47
630.92	2471.90
631.11	2389.98
631.30	2486.23
631.49	2562.01
631.68	2465.75
631.87	2598.87
632.06	2379.74
632.25	2768.85
632.44	2498.52
632.63	2564.06
632.82	2478.04
633.01	2490.33
633.20	2545.63
633.39	2478.04
633.58	2496.47
633.77	2564.06
633.96	2592.73
634.15	2521.05
634.34	2584.54
634.53	2607.06
634.72	2529.24
634.91	2291.68
635.10	2480.09
635.29	2588.63
635.48	2592.73
635.67	2463.71
635.86	2346.97
636.05	2682.84
636.24	2463.71
636.43	2502.62
636.62	2398.17
636.81	2226.14
637.00	2598.87
637.19	2465.75
637.38	2490.33
637.57	2480.09
637.76	2588.63
637.95	2588.63
638.14	2500.57
638.33	2555.86
638.52	2568.15
638.71	2381.79
638.89	2361.31
639.08	2809.81
639.27	2670.55
639.46	2758.61
639.65	3192.78
639.84	3182.54
640.03	3321.81
640.22	3145.68
640.41	3266.51
640.60	2742.23
640.79	2818.00
640.98	2643.93
641.17	2695.13
641.36	2691.03
641.55	2697.17
641.74	2469.85
641.92	2494.43
642.11	2412.51
642.30	2549.72
642.49	2389.98
642.68	2432.99
642.87	2586.58
643.06	2539.48
643.25	2449.37
643.44	2398.17
643.63	2467.80
643.82	2523.10
644.00	2404.32
644.19	2463.71
644.38	2359.26
644.57	2547.67
644.76	2461.66
644.95	2447.32
645.14	2480.09
645.33	2486.23
645.52	2426.84
645.71	2295.77
645.89	2381.79
646.08	2453.47
646.27	2480.09
646.46	2715.61
646.65	2308.06
646.84	2486.23
647.03	2326.49
647.22	2611.16
647.40	2514.91
647.59	2414.56
647.78	2236.38
647.97	2392.03
648.16	2353.12
648.35	2668.50
648.54	2607.06
648.73	2469.85
648.91	2596.82
649.10	2461.66
649.29	2400.22
649.48	2432.99
649.67	2621.40
649.86	2539.48
650.05	2527.19
650.23	2660.31
650.42	2437.08
650.61	2729.94
650.80	2639.83
650.99	2891.73
651.18	2662.36
651.36	2629.59
651.55	2445.27
651.74	2564.06
651.93	2463.71
652.12	2447.32
652.31	2402.27
652.49	2463.71
652.68	2525.15
652.87	2680.79
653.06	2449.37
653.25	2674.65
653.44	2498.52
653.62	2701.27
653.81	2506.71
654.00	2443.23
654.19	2521.05
654.38	2770.90
654.56	2519.00
654.75	2453.47
654.94	2607.06
655.13	2490.33
655.32	2424.80
655.51	2590.68
655.69	2463.71
655.88	2504.67
656.07	2303.96
656.26	2506.71
656.45	2310.11
656.63	2566.10
656.82	2551.77
657.01	2643.93
657.20	2453.47
657.38	2602.97
657.57	2478.04
657.76	2240.48
657.95	2605.02
658.14	2406.36
658.32	2430.94
658.51	2328.54
658.70	2578.39
658.89	2512.86
659.08	2488.28
659.26	2715.61
659.45	2412.51
659.64	2576.34
659.83	2416.60
660.01	2775.00
660.20	2514.91
660.39	2670.55
660.58	2230.24
660.76	2478.04
660.95	2359.26
661.14	2537.43
661.33	2361.31
661.51	2512.86
661.70	2387.93
661.89	2531.29
662.08	2473.95
662.26	2381.79
662.45	2369.50
662.64	2838.48
662.83	2498.52
663.01	2342.88
663.20	2453.47
663.39	2668.50
663.58	2457.56
663.76	2461.66
663.95	2557.91
664.14	2377.69
664.32	2418.65
664.51	2406.36
664.70	2248.67
664.89	2537.43
665.07	2353.12
665.26	2535.39
665.45	2353.12
665.64	2621.40
665.82	2445.27
666.01	2529.24
666.20	2363.36
666.38	2666.46
666.57	2670.55
666.76	3850.18
666.95	9355.12
667.13	17424.12
667.32	22333.10
667.51	25517.69
667.69	27393.63
667.88	24090.26
668.07	16953.09
668.25	13911.85
668.44	11632.46
668.63	10166.12
668.81	9019.25
669.00	7745.42
669.19	6944.66
669.38	6076.32
669.56	5132.21
669.75	4224.96
669.94	3844.04
670.12	3141.58
670.31	2885.59
670.50	2795.48
670.68	2752.47
670.87	2611.16
671.06	2461.66
671.24	2605.02
671.43	2734.04
671.62	2594.78
671.80	2475.99
671.99	2592.73
672.18	2551.77
672.36	2629.59
672.55	2441.18
672.74	2490.33
672.92	2400.22
673.11	2568.15
673.29	2428.89
673.48	2662.36
673.67	2445.27
673.85	2609.11
674.04	2469.85
674.23	2406.36
674.41	2695.13
674.60	2445.27
674.79	2285.53
674.97	2404.32
675.16	2490.33
675.34	2596.82
675.53	2449.37
675.72	2502.62
675.90	2693.08
676.09	2445.27
676.28	2490.33
676.46	2283.49
676.65	2576.34
676.83	2383.84
677.02	2494.43
677.21	2449.37
677.39	2555.86
677.58	2432.99
677.77	2412.51
677.95	2383.84
678.14	2580.44
678.32	2432.99
678.51	2447.32
678.70	2709.46
678.88	2527.19
679.07	2492.38
679.25	2451.42
679.44	2447.32
679.63	2355.16
679.81	2529.24
680.00	2584.54
680.18	2541.53
680.37	2621.40
680.55	2432.99
680.74	2318.30
680.93	2248.67
681.11	2586.58
681.30	2457.56
681.48	2547.67
681.67	2428.89
681.85	2453.47
682.04	2443.23
682.23	2572.25
682.41	2465.75
682.60	2412.51
682.78	2465.75
682.97	2441.18
683.15	2484.19
683.34	2529.24
683.53	2635.74
683.71	2361.31
683.90	2619.35
684.08	2723.80
684.27	2404.32
684.45	2512.86
684.64	2502.62
684.82	2426.84
685.01	2566.10
685.19	2414.56
685.38	2619.35
685.57	2535.39
685.75	2437.08
685.94	2340.83
686.12	2387.93
686.31	2465.75
686.49	2678.74
686.68	2320.35
686.86	2490.33
687.05	2484.19
687.23	2670.55
687.42	2449.37
687.60	2367.45
687.79	2564.06
687.97	2676.70
688.16	2562.01
688.34	2666.46
688.53	2220.00
688.71	2564.06
688.90	2623.45
689.08	2469.85
689.27	2289.63
689.45	2508.76
689.64	2596.82
689.82	2457.56
690.01	2566.10
690.19	2516.95
690.38	2555.86
690.56	2580.44
690.75	2404.32
690.93	2527.19
691.12	2316.25
691.30	2439.13
691.49	2404.32
691.67	2467.80
691.86	2631.64
692.04	2449.37
692.23	2482.14
692.41	2523.10
692.60	2783.19
692.78	2668.50
692.97	2531.29
693.15	2543.58
693.34	2768.85
693.52	2611.16
693.71	2447.32
693.89	2408.41
694.08	2236.38
694.26	2607.06
694.44	2588.63
694.63	2621.40
694.81	2359.26
695.00	2418.65
695.18	2619.35
695.37	2793.43
695.55	2482.14
695.74	2469.85
695.92	2367.45
696.10	2691.03
696.29	2301.92
696.47	2408.41
696.66	2336.73
696.84	2387.93
697.03	2455.51
697.21	2662.36
697.40	3647.43
697.58	2654.17
697.76	2455.51
697.95	2437.08
698.13	2346.97
698.32	2414.56
698.50	2437.08
698.68	2445.27
698.87	2547.67
699.05	2691.03
699.24	2381.79
699.42	2332.64
699.61	2553.82
699.79	2469.85
699.97	2543.58
700.16	2410.46
700.34	2285.53
700.53	2490.33
700.71	2645.98
700.89	2600.92
701.08	2559.96
701.26	2506.71
701.45	2985.94
701.63	2394.08
701.81	2371.55
702.00	2365.40
702.18	2539.48
702.37	2375.64
702.55	2785.24
702.73	2674.65
702.92	2572.25
703.10	2764.76
703.28	2744.28
703.47	2478.04
703.65	2697.17
703.84	2625.50
704.02	2506.71
704.20	2815.96
704.39	2365.40
704.57	2467.80
704.75	2656.22
704.94	2627.54
705.12	2453.47
705.30	2830.29
705.49	5443.50
705.67	12095.30
705.86	19975.89
706.04	23559.83
706.22	26873.45
706.41	27420.25
706.59	22322.86
706.77	16047.88
706.96	13709.10
707.14	12222.28
707.32	10426.21
707.51	9162.61
707.69	7446.41
707.87	6037.41
708.06	4865.97
708.24	4093.89
708.42	3315.66
708.61	3264.46
708.79	2650.07
708.97	2629.59
709.16	2619.35
709.34	2613.21
709.52	2441.18
709.71	2516.95
709.89	2637.78
710.07	2306.01
710.26	2346.97
710.44	2486.23
710.62	2633.69
710.80	2537.43
710.99	2568.15
711.17	2523.10
711.35	2324.44
711.54	2418.65
711.72	2535.39
711.90	2488.28
712.09	2490.33
712.27	2461.66
712.45	2539.48
712.63	2496.47
712.82	2541.53
713.00	2535.39
713.18	2514.91
713.37	2596.82
713.55	2727.89
713.73	2543.58
713.91	2473.95
714.10	2428.89
714.28	2424.80
714.46	2514.91
714.65	2594.78
714.83	2508.76
715.01	2527.19
715.19	2574.30
715.38	2389.98
715.56	2529.24
715.74	2367.45
715.92	2490.33
716.11	2621.40
716.29	2273.25
716.47	2422.75
716.65	2478.04
716.84	2406.36
717.02	2555.86
717.20	2269.15
717.38	2432.99
717.57	2525.15
717.75	2457.56
717.93	2392.03
718.11	2588.63
718.30	2365.40
718.48	2496.47
718.66	2678.74
718.84	2707.41
719.03	2394.08
719.21	2412.51
719.39	2758.61
719.57	2547.67
719.75	2576.34
719.94	2359.26
720.12	2525.15
720.30	2512.86
720.48	2568.15
720.67	2357.21
720.85	2383.84
721.03	2416.60
721.21	2310.11
721.39	2539.48
721.58	2555.86
721.76	2537.43
721.94	2576.34
722.12	2521.05
722.30	2693.08
722.49	2512.86
722.67	2473.95
722.85	2521.05
723.03	2412.51
723.21	2453.47
723.40	2408.41
723.58	2570.20
723.76	2580.44
723.94	2654.17
724.12	2605.02
724.30	2738.13
724.49	2727.89
724.67	2412.51
724.85	2568.15
725.03	2324.44
725.21	2605.02
725.40	2621.40
725.58	2349.02
725.76	2551.77
725.94	2508.76
726.12	2375.64
726.30	2469.85
726.49	2480.09
726.67	2437.08
726.85	2539.48
727.03	2932.69
727.21	4118.47
727.39	5711.78
727.57	6504.35
727.76	7131.03
727.94	7446.41
728.12	6680.47
728.30	5445.55
728.48	4902.84
728.66	4341.69
728.84	3977.16
729.03	3493.83
729.21	3278.80
729.39	2883.54
729.57	2752.47
729.75	2658.26
729.93	2580.44
730.11	2447.32
730.30	2471.90
730.48	2437.08
730.66	2645.98
730.84	2551.77
731.02	2432.99
731.20	2420.70
731.38	2547.67
731.56	2271.20
731.74	2314.20
731.93	2539.48
732.11	2482.14
732.29	2396.12
732.47	2586.58
732.65	2490.33
732.83	2555.86
733.01	2488.28
733.19	2389.98
733.37	2576.34
733.56	2498.52
733.74	2379.74
733.92	2703.32
734.10	2455.51
734.28	2469.85
734.46	2289.63
734.64	2414.56
734.82	2400.22
735.00	2443.23
735.18	2418.65
735.36	2408.41
735.54	2379.74
735.73	2504.67
735.91	2457.56
736.09	2652.12
736.27	2441.18
736.45	2527.19
736.63	2334.68
736.81	2418.65
736.99	2578.39
737.17	2623.45
737.35	2379.74
737.53	2531.29
737.71	2443.23
737.89	2537.43
738.07	2394.08
738.25	2351.07
738.43	2217.95
738.61	2351.07
738.80	2301.92
738.98	2389.98
739.16	2363.36
739.34	2351.07
739.52	2678.74
739.70	2449.37
739.88	2580.44
740.06	2572.25
740.24	2195.42
740.42	2629.59
740.60	2236.38
740.78	2359.26
740.96	2287.58
741.14	2432.99
741.32	2508.76
741.50	2248.67
741.68	2641.88
741.86	2613.21
742.04	2383.84
742.22	2367.45
742.40	2455.51
742.58	2611.16
742.76	2373.60
742.94	2613.21
743.12	2299.87
743.30	2455.51
743.48	2584.54
743.66	2389.98
743.84	2492.38
744.02	2408.41
744.20	2457.56
744.38	2359.26
744.56	2361.31
744.74	2695.13
744.92	2502.62
745.10	2686.94
745.28	2576.34
745.46	2684.89
745.64	2447.32
745.82	2539.48
746.00	2437.08
746.18	2469.85
746.36	2437.08
746.54	2596.82
746.72	2426.84
746.90	2322.40
747.08	2629.59
747.26	2455.51
747.44	2574.30
747.62	2584.54
747.80	2453.47
747.98	2654.17
748.15	2480.09
748.33	2756.57
748.51	2549.72
748.69	2584.54
748.87	2363.36
749.05	2480.09
749.23	2478.04
749.41	2465.75
749.59	2424.80
749.77	2578.39
749.95	2461.66
750.13	2316.25
750.31	2566.10
750.49	2443.23
750.67	2566.10
750.85	2539.48
751.03	2504.67
751.20	2682.84
751.38	2459.61
751.56	2414.56
751.74	2498.52
751.92	2482.14
752.10	2396.12
752.28	2580.44
752.46	2332.64
752.64	2531.29
752.82	2574.30
753.00	2562.01
753.18	2502.62
753.35	2512.86
753.53	2439.13
753.71	2406.36
753.89	2504.67
754.07	2512.86
754.25	2633.69
754.43	2514.91
754.61	2371.55
754.79	2527.19
754.97	2424.80
755.14	2478.04
755.32	2299.87
755.50	2469.85
755.68	2537.43
755.86	2392.03
756.04	2441.18
756.22	2342.88
756.40	2596.82
756.57	2674.65
756.75	2392.03
756.93	2629.59
757.11	2564.06
757.29	2291.68
757.47	2379.74
757.65	2291.68
757.82	2220.00
758.00	2353.12
758.18	2363.36
758.36	2389.98
758.54	2598.87
758.72	2316.25
758.90	2551.77
759.07	2506.71
759.25	2418.65
759.43	2553.82
759.61	2338.78
759.79	3493.83
759.97	2594.78
760.15	2414.56
760.32	2453.47
760.50	2512.86
760.68	2666.46
760.86	2312.16
761.04	2576.34
761.22	2580.44
761.39	2523.10
761.57	2523.10
761.75	2473.95
761.93	2564.06
762.11	2363.36
762.28	2531.29
762.46	2365.40
762.64	2670.55
762.82	2336.73
763.00	2334.68
763.18	2609.11
763.35	2363.36
763.53	2641.88
763.71	2449.37
763.89	2478.04
764.07	2443.23
764.24	2570.20
764.42	2512.86
764.60	2463.71
764.78	2547.67
764.96	2564.06
765.13	2594.78
765.31	2445.27
765.49	2488.28
765.67	2342.88
765.84	2367.45
766.02	2379.74
766.20	2293.72
766.38	2519.00
766.56	2516.95
766.73	2529.24
766.91	2418.65
767.09	2512.86
767.27	2562.01
767.44	2308.06
767.62	2504.67
767.80	2596.82
767.98	2435.03
768.15	2369.50
768.33	2551.77
768.51	2574.30
768.69	2527.19
768.87	2465.75
769.04	2455.51
769.22	2729.94
769.40	2605.02
769.58	2633.69
769.75	2539.48
769.93	2652.12
770.11	2398.17
770.28	2342.88
770.46	2592.73
770.64	2543.58
770.82	2353.12
770.99	2400.22
771.17	2533.34
771.35	2467.80
771.53	2441.18
771.70	2449.37
771.88	2562.01
772.06	2459.61
772.23	2432.99
772.41	2400.22
772.59	2410.46
772.77	2291.68
772.94	2392.03
773.12	2467.80
773.30	2385.88
773.47	2502.62
773.65	2322.40
773.83	2551.77
774.01	2443.23
774.18	2295.77
774.36	2371.55
774.54	2334.68
774.71	2537.43
774.89	2379.74
775.07	2439.13
775.24	2387.93
775.42	2416.60
775.60	2748.37
775.78	2318.30
775.95	2291.68
776.13	2273.25
776.31	2322.40
776.48	2469.85
776.66	2654.17
776.84	2392.03
777.01	2320.35
777.19	2351.07
777.37	2408.41
777.54	2545.63
777.72	2715.61
777.90	2535.39
778.07	2414.56
778.25	2893.78
778.43	2508.76
778.60	2338.78
778.78	2490.33
778.96	2678.74
779.13	2383.84
779.31	2523.10
779.49	2439.13
779.66	2457.56
779.84	2490.33
780.01	2389.98
780.19	2363.36
780.37	2586.58
780.54	2539.48
780.72	2310.11
780.90	2426.84
781.07	2449.37
781.25	2412.51
781.43	2551.77
781.60	2400.22
781.78	2625.50
781.95	2469.85
782.13	2396.12
782.31	2437.08
782.48	2215.90
782.66	2465.75
782.83	2658.26
783.01	2465.75
783.19	2539.48
783.36	2463.71
783.54	2293.72
783.72	2537.43
783.89	2416.60
784.07	2428.89
784.24	2527.19
784.42	2584.54
784.60	2541.53
784.77	2564.06
784.95	2224.09
785.12	2340.83
785.30	2488.28
785.47	2437.08
785.65	2332.64
785.83	2404.32
786.00	2349.02
786.18	2523.10
786.35	2404.32
786.53	2387.93
786.71	2545.63
786.88	2602.97
787.06	2605.02
787.23	2494.43
787.41	2293.72
787.58	2537.43
787.76	2361.31
787.94	2365.40
788.11	2488.28
788.29	2312.16
788.46	2414.56
788.64	2396.12
788.81	2482.14
788.99	2355.16
789.16	2289.63
789.34	2441.18
789.52	2412.51
789.69	2439.13
789.87	2260.96
790.04	2334.68
790.22	2480.09
790.39	2678.74
790.57	2340.83
790.74	2293.72
790.92	2625.50
791.09	2281.44
791.27	2514.91
791.44	2633.69
791.62	2478.04
791.79	2619.35
791.97	2523.10
792.15	2842.58
792.32	2506.71
792.50	2578.39
792.67	2643.93
792.85	2580.44
793.02	2441.18
793.20	2445.27
793.37	2295.77
793.55	2498.52
793.72	2250.72
793.90	2572.25
794.07	2400.22
794.25	2363.36
794.42	2467.80
794.60	2394.08
794.77	2478.04
794.95	2566.10
795.12	2568.15
795.30	2478.04
795.47	2285.53
795.65	2740.18
795.82	2498.52
796.00	2326.49
796.17	2375.64
796.34	2367.45
796.52	2535.39
796.69	2549.72
796.87	2596.82
797.04	2453.47
797.22	2586.58
797.39	2557.91
797.57	2566.10
797.74	2496.47
797.92	2572.25
798.09	2346.97
798.27	2557.91
798.44	2387.93
798.62	2424.80
798.79	2514.91
798.96	2516.95
799.14	2480.09
799.31	2815.96
799.49	2531.29
799.66	2367.45
799.84	2463.71
800.01	2316.25
800.19	2473.95
800.36	2342.88
800.53	2467.80
800.71	2506.71
800.88	2707.41
801.06	2383.84
801.23	2299.87
801.41	2484.19
801.58	2389.98
801.75	2387.93
801.93	2525.15
802.10	2553.82
802.28	2455.51
802.45	2449.37
802.63	2555.86
802.80	2594.78
802.97	2412.51
803.15	2502.62
803.32	2367.45
803.50	2377.69
803.67	2383.84
803.84	2342.88
804.02	2469.85
804.19	2455.51
804.37	2240.48
804.54	2359.26
804.71	2414.56
804.89	2531.29
805.06	2367.45
805.24	2400.22
805.41	2357.21
805.58	2475.99
805.76	2830.29
805.93	2441.18
806.10	2551.77
806.28	2605.02
806.45	2453.47
806.63	2459.61
806.80	2537.43
806.97	2467.80
807.15	2514.91
807.32	2435.03
807.49	2439.13
807.67	2416.60
807.84	2449.37
808.01	2287.58
808.19	2693.08
808.36	2768.85
808.54	2435.03
808.71	2408.41
808.88	2475.99
809.06	2537.43
809.23	2637.78
809.40	2359.26
809.58	2527.19
809.75	2500.57
809.92	2316.25
810.10	2635.74
810.27	2453.47
810.44	2539.48
810.62	2607.06
810.79	2523.10
810.96	2359.26
811.14	2375.64
811.31	2510.81
811.48	2547.67
811.66	2486.23
811.83	2654.17
812.00	2555.86
812.18	2482.14
812.35	2676.70
812.52	2469.85
812.69	2502.62
812.87	2422.75
813.04	2265.05
813.21	2424.80
813.39	2416.60
813.56	2359.26
813.73	2570.20
813.91	2351.07
814.08	2519.00
814.25	2490.33
814.42	2346.97
814.60	2359.26
814.77	2512.86
814.94	2441.18
815.12	2451.42
815.29	2670.55
815.46	2334.68
815.63	2504.67
815.81	2355.16
815.98	2420.70
816.15	2498.52
816.33	2457.56
816.50	2461.66
816.67	2473.95
816.84	2490.33
817.02	2342.88
817.19	2400.22
817.36	2512.86
817.53	2473.95
817.71	2336.73
817.88	2572.25
818.05	2441.18
818.22	2418.65
818.40	2588.63
818.57	2392.03
818.74	2537.43
818.91	2408.41
819.09	2516.95
819.26	2504.67
819.43	2346.97
819.60	2361.31
819.78	2525.15
819.95	2559.96
820.12	2367.45
820.29	2637.78
820.47	2648.02
820.64	2365.40
820.81	2297.82
820.98	2410.46
821.15	2457.56
821.33	2535.39
821.50	2340.83
821.67	2531.29
821.84	2316.25
822.02	2480.09
822.19	2537.43
822.36	2498.52
822.53	2392.03
822.70	2373.60
822.88	2441.18
823.05	2637.78
823.22	2430.94
823.39	2498.52
823.56	2435.03
823.74	2635.74
823.91	2314.20
824.08	2318.30
824.25	2365.40
824.42	2678.74
824.60	2308.06
824.77	2551.77
824.94	2539.48
825.11	2498.52
825.28	2357.21
825.45	2488.28
825.63	2420.70
825.80	2299.87
825.97	2490.33
826.14	2430.94
826.31	2289.63
826.48	2533.34
826.66	2377.69
826.83	2412.51
827.00	2367.45
827.17	2406.36
827.34	2357.21
827.51	2371.55
827.69	2494.43
827.86	2389.98
828.03	2457.56
828.20	2473.95
828.37	2400.22
828.54	2527.19
828.71	2400.22
828.89	2619.35
829.06	2392.03
829.23	2654.17
829.40	2404.32
829.57	2486.23
829.74	2539.48
829.91	2344.92
830.09	2424.80
830.26	2562.01
830.43	2609.11
830.60	2422.75
830.77	2547.67
830.94	2629.59
831.11	2545.63
831.28	2496.47
831.46	2621.40
831.63	2488.28
831.80	2537.43
831.97	2398.17
832.14	2389.98
832.31	2465.75
832.48	2512.86
832.65	2553.82
832.82	2367.45
832.99	2531.29
833.17	2338.78
833.34	2639.83
833.51	2465.75
833.68	2232.29
833.85	2600.92
834.02	2326.49
834.19	2289.63
834.36	2312.16
834.53	2494.43
834.70	2572.25
834.87	2498.52
835.04	2430.94
835.22	2371.55
835.39	2475.99
835.56	2293.72
835.73	2359.26
835.90	2539.48
836.07	2400.22
836.24	2506.71
836.41	2267.10
836.58	2351.07
836.75	2580.44
836.92	2424.80
837.09	2322.40
837.26	2539.48
837.43	2572.25
837.60	2484.19
837.77	2318.30
837.94	2541.53
838.12	2613.21
838.29	2363.36
838.46	2306.01
838.63	2314.20
838.80	2652.12
838.97	2451.42
839.14	2367.45
839.31	2523.10
839.48	2609.11
839.65	2349.02
839.82	2478.04
839.99	2559.96
840.16	2455.51
840.33	2349.02
840.50	2346.97
840.67	2340.83
840.84	2199.52
841.01	2435.03
841.18	2299.87
841.35	2473.95
841.52	2576.34
841.69	2596.82
841.86	2416.60
842.03	2471.90
842.20	2486.23
842.37	2351.07
842.54	2383.84
842.71	2404.32
842.88	2353.12
843.05	2379.74
843.22	2385.88
843.39	2545.63
843.56	2351.07
843.73	2332.64
843.90	2379.74
844.07	2494.43
844.24	2605.02
844.41	2385.88
844.58	2412.51
844.75	2484.19
844.92	2549.72
845.09	2367.45
845.26	2351.07
845.43	2627.54
845.60	2459.61
845.77	2441.18
845.94	2428.89
846.10	2602.97
846.27	2320.35
846.44	2316.25
846.61	2326.49
846.78	2557.91
846.95	2645.98
847.12	2426.84
847.29	2336.73
847.46	2416.60
847.63	2576.34
847.80	2398.17
847.97	2308.06
848.14	2686.94
848.31	2492.38
848.48	2310.11
848.65	2412.51
848.82	2363.36
848.98	2658.26
849.15	2498.52
849.32	2613.21
849.49	2625.50
849.66	2408.41
849.83	2379.74
850.00	2344.92
850.17	2559.96
850.34	2424.80
850.51	2246.62
850.68	2322.40
850.85	2719.70
851.01	2514.91
851.18	2410.46
851.35	2375.64
851.52	2457.56
851.69	2660.31
851.86	2220.00
852.03	2340.83
852.20	2617.30
852.37	2428.89
852.53	2220.00
852.70	2326.49
852.87	2488.28
853.04	2588.63
853.21	2449.37
853.38	2559.96
853.55	2586.58
853.72	2631.64
853.89	2355.16
854.05	2269.15
854.22	2392.03
854.39	2441.18
854.56	2441.18
854.73	2531.29
854.90	2389.98
855.07	2414.56
855.23	2324.44
855.40	2369.50
855.57	2422.75
855.74	2269.15
855.91	2500.57
856.08	2287.58
856.25	2338.78
856.41	2414.56
856.58	2338.78
856.75	2408.41
856.92	2342.88
857.09	2510.81
857.26	2201.57
857.42	2398.17
857.59	2592.73
857.76	2482.14
857.93	2424.80
858.10	2435.03
858.27	2379.74
858.43	2455.51
858.60	2449.37
858.77	2238.43
858.94	2398.17
859.11	2650.07
859.27	2344.92
859.44	2396.12
859.61	2709.46
859.78	2523.10
859.95	2301.92
860.12	2338.78
860.28	2711.51
860.45	2715.61
860.62	2228.19
860.79	2478.04
860.95	2404.32
861.12	2359.26
861.29	2310.11
861.46	2359.26
861.63	2449.37
861.79	2508.76
861.96	2297.82
862.13	2379.74
862.30	2555.86
862.47	2375.64
862.63	2281.44
862.80	2400.22
862.97	2615.26
863.14	2521.05
863.30	2428.89
863.47	2334.68
863.64	2637.78
863.81	2441.18
863.97	2394.08
864.14	2465.75
864.31	2424.80
864.48	2519.00
864.65	2383.84
864.81	2424.80
864.98	2553.82
865.15	2525.15
865.32	2408.41
865.48	2529.24
865.65	2629.59
865.82	2420.70
865.98	2449.37
866.15	2463.71
866.32	2410.46
866.49	2404.32
866.65	2531.29
866.82	2299.87
866.99	2408.41
867.16	2392.03
867.32	2367.45
867.49	2322.40
867.66	2408.41
867.83	2439.13
867.99	2295.77
868.16	2351.07
868.33	2301.92
868.49	2394.08
868.66	2346.97
868.83	2555.86
868.99	2512.86
869.16	2506.71
869.33	2555.86
869.50	2478.04
869.66	2461.66
869.83	2453.47
870.00	2285.53
870.16	2475.99
870.33	2424.80
870.50	2492.38
870.66	2381.79
870.83	2447.32
871.00	2482.14
871.17	2441.18
871.33	2488.28
871.50	2406.36
871.67	2494.43
871.83	2455.51
872.00	2500.57
872.17	2410.46
872.33	2652.12
872.50	2592.73
872.67	2449.37
872.83	2375.64
873.00	2572.25
873.17	2506.71
873.33	2441.18
873.50	2492.38
873.67	2373.60
873.83	2367.45
874.00	2404.32
874.16	2457.56
874.33	2527.19
874.50	2326.49
874.66	2349.02
874.83	2385.88
875.00	2609.11
875.16	2605.02
875.33	2500.57
875.50	2203.61
875.66	2439.13
875.83	2482.14
875.99	2455.51
876.16	2383.84
876.33	2322.40
876.49	2432.99
876.66	2406.36
876.83	2422.75
876.99	2326.49
877.16	2445.27
877.32	2461.66
877.49	2379.74
877.66	2568.15
877.82	2648.02
877.99	2389.98
878.15	2555.86
878.32	2498.52
878.49	2488.28
878.65	2396.12
878.82	2564.06
878.98	2359.26
879.15	2588.63
879.32	2414.56
879.48	2498.52
879.65	2473.95
879.81	2392.03
879.98	2365.40
880.15	2404.32
880.31	2545.63
880.48	2271.20
880.64	2482.14
880.81	2498.52
880.97	2723.80
881.14	2621.40
881.31	2281.44
881.47	2568.15
881.64	2449.37
881.80	2275.29
881.97	2502.62
882.13	2387.93
882.30	2414.56
882.47	2371.55
882.63	2371.55
882.80	2404.32
882.96	2365.40
883.13	2695.13
883.29	2414.56
883.46	2449.37
883.62	2686.94
883.79	2453.47
883.95	2531.29
884.12	2371.55
884.29	2592.73
884.45	2465.75
884.62	2383.84
884.78	2316.25
884.95	2664.41
885.11	2375.64
885.28	2457.56
885.44	2322.40
885.61	2564.06
885.77	2611.16
885.94	2465.75
886.10	2447.32
886.27	2430.94
886.43	2645.98
886.60	2572.25
886.76	2349.02
886.93	2342.88
887.09	2514.91
887.26	2334.68
887.42	2451.42
887.59	2580.44
887.75	2699.22
887.92	2645.98
888.08	2471.90
888.25	2635.74
888.41	2635.74
888.58	2432.99
888.74	2211.81
888.91	2455.51
>>>>>End Processed Spectral Data<<<<<
