SpectraSuite Data File
++++++++++++++++++++++++++++++++++++
Date: Thu May 05 14:42:10 CEST 2016
User: root
Dark Spectrum Present: No
Reference Spectrum Present: No
Number of Sampled Component Spectra: 1
Spectrometers: USB4C02835
Integration Time (usec): 100000 (USB4C02835)
Spectra Averaged: 1 (USB4C02835)
Boxcar Smoothing: 0 (USB4C02835)
Correct for Electrical Dark: No (USB4C02835)
Strobe/Lamp Enabled: No (USB4C02835)
Correct for Detector Non-linearity: No (USB4C02835)
Correct for Stray Light: No (USB4C02835)
Number of Pixels in Processed Spectrum: 3648
>>>>>Begin Processed Spectral Data<<<<<
177.47	1970.15
177.69	1970.15
177.91	1970.15
178.13	1900.52
178.36	1845.22
178.58	2285.53
178.80	2457.56
179.02	2379.74
179.24	2320.35
179.46	2375.64
179.68	2383.84
179.90	2492.38
180.13	2478.04
180.35	2172.89
180.57	2355.16
180.79	2590.68
181.01	2547.67
181.23	2428.89
181.45	2502.62
181.67	2531.29
181.90	2607.06
182.12	2449.37
182.34	2318.30
182.56	2545.63
182.78	2545.63
183.00	2285.53
183.22	2369.50
183.44	2316.25
183.66	2826.20
183.89	2424.80
184.11	2379.74
184.33	2519.00
184.55	2588.63
184.77	2381.79
184.99	2437.08
185.21	2392.03
185.43	2744.28
185.65	2334.68
185.87	2349.02
186.10	2760.66
186.32	2754.52
186.54	2422.75
186.76	2416.60
186.98	2557.91
187.20	2441.18
187.42	2402.27
187.64	2381.79
187.86	2506.71
188.08	2668.50
188.30	2267.10
188.52	2406.36
188.75	2592.73
188.97	2731.99
189.19	2293.72
189.41	2375.64
189.63	2572.25
189.85	2471.90
190.07	2244.57
190.29	2228.19
190.51	2559.96
190.73	2301.92
190.95	2430.94
191.17	2340.83
191.39	2301.92
191.61	2420.70
191.84	2301.92
192.06	2471.90
192.28	2283.49
192.50	2889.68
192.72	2449.37
192.94	2398.17
193.16	2533.34
193.38	2545.63
193.60	2291.68
193.82	2404.32
194.04	2645.98
194.26	2545.63
194.48	2379.74
194.70	2392.03
194.92	2439.13
195.14	2494.43
195.36	2291.68
195.58	2387.93
195.80	2418.65
196.02	2402.27
196.24	2435.03
196.46	2445.27
196.69	2437.08
196.91	2815.96
197.13	2400.22
197.35	2351.07
197.57	2715.61
197.79	2527.19
198.01	2398.17
198.23	2424.80
198.45	2428.89
198.67	2371.55
198.89	2263.01
199.11	2400.22
199.33	2428.89
199.55	2318.30
199.77	2246.62
199.99	2457.56
200.21	2449.37
200.43	2516.95
200.65	2256.86
200.87	2252.77
201.09	2553.82
201.31	2494.43
201.53	2422.75
201.75	2389.98
201.97	2445.27
202.19	2490.33
202.41	2396.12
202.63	2494.43
202.85	2523.10
203.07	2482.14
203.29	2365.40
203.51	2258.91
203.73	2416.60
203.95	2826.20
204.17	2381.79
204.39	2439.13
204.61	2496.47
204.83	2473.95
205.05	2318.30
205.27	2406.36
205.49	2691.03
205.71	2486.23
205.93	2226.14
206.15	2361.31
206.37	2496.47
206.59	2480.09
206.81	2207.71
207.03	2277.34
207.25	2385.88
207.47	2611.16
207.69	2422.75
207.91	2490.33
208.13	2697.17
208.34	2406.36
208.56	2248.67
208.78	2349.02
209.00	2400.22
209.22	2369.50
209.44	2404.32
209.66	2346.97
209.88	2445.27
210.10	2527.19
210.32	2363.36
210.54	2392.03
210.76	2523.10
210.98	2533.34
211.20	2191.33
211.42	2396.12
211.64	2641.88
211.86	2584.54
212.08	2449.37
212.30	2322.40
212.52	2416.60
212.74	2555.86
212.96	2351.07
213.17	2439.13
213.39	2557.91
213.61	2670.55
213.83	2301.92
214.05	2416.60
214.27	2598.87
214.49	2455.51
214.71	2293.72
214.93	2473.95
215.15	2605.02
215.37	2615.26
215.59	2267.10
215.81	2465.75
216.03	2613.21
216.24	2478.04
216.46	2310.11
216.68	2457.56
216.90	2627.54
217.12	2658.26
217.34	2316.25
217.56	2469.85
217.78	2648.02
218.00	2576.34
218.22	2357.21
218.44	2375.64
218.66	2533.34
218.87	2686.94
219.09	2340.83
219.31	2256.86
219.53	2594.78
219.75	2424.80
219.97	2338.78
220.19	2383.84
220.41	2414.56
220.63	2676.70
220.85	2340.83
221.06	2355.16
221.28	2643.93
221.50	2631.64
221.72	2336.73
221.94	2295.77
222.16	2541.53
222.38	2588.63
222.60	2377.69
222.82	2396.12
223.03	2523.10
223.25	2287.58
223.47	2293.72
223.69	2504.67
223.91	2512.86
224.13	2424.80
224.35	2293.72
224.57	2572.25
224.78	2598.87
225.00	2398.17
225.22	2404.32
225.44	2312.16
225.66	2523.10
225.88	2383.84
226.10	2469.85
226.32	2408.41
226.53	2643.93
226.75	2412.51
226.97	2432.99
227.19	2375.64
227.41	2396.12
227.63	2465.75
227.85	2215.90
228.06	2385.88
228.28	2471.90
228.50	2578.39
228.72	2236.38
228.94	2369.50
229.16	2224.09
229.37	2271.20
229.59	2285.53
229.81	2500.57
230.03	2480.09
230.25	2340.83
230.47	2277.34
230.69	2338.78
230.90	2637.78
231.12	2439.13
231.34	2424.80
231.56	2420.70
231.78	2310.11
232.00	2463.71
232.21	2344.92
232.43	2424.80
232.65	2185.18
232.87	2471.90
233.09	2213.85
233.30	2324.44
233.52	2641.88
233.74	2480.09
233.96	2332.64
234.18	2408.41
234.40	2484.19
234.61	2830.29
234.83	2199.52
235.05	2277.34
235.27	2775.00
235.49	2688.98
235.70	2324.44
235.92	2478.04
236.14	2506.71
236.36	2850.77
236.58	2193.37
236.79	2435.03
237.01	2404.32
237.23	2459.61
237.45	2480.09
237.67	2394.08
237.88	2564.06
238.10	2682.84
238.32	2346.97
238.54	2269.15
238.76	2432.99
238.97	2357.21
239.19	2330.59
239.41	2396.12
239.63	2588.63
239.85	2353.12
240.06	2338.78
240.28	2424.80
240.50	2633.69
240.72	2473.95
240.93	2312.16
241.15	2473.95
241.37	2473.95
241.59	2637.78
241.81	2349.02
242.02	2404.32
242.24	2572.25
242.46	2564.06
242.68	2228.19
242.89	2308.06
243.11	2572.25
243.33	2467.80
243.55	2406.36
243.76	2383.84
243.98	2420.70
244.20	2465.75
244.42	2396.12
244.64	2414.56
244.85	2217.95
245.07	2342.88
245.29	2269.15
245.51	2367.45
245.72	2537.43
245.94	2650.07
246.16	2416.60
246.38	2428.89
246.59	2394.08
246.81	2351.07
247.03	2230.24
247.24	2199.52
247.46	2545.63
247.68	2465.75
247.90	2269.15
248.11	2379.74
248.33	2639.83
248.55	2447.32
248.77	2416.60
248.98	2496.47
249.20	2705.37
249.42	2510.81
249.64	2375.64
249.85	2435.03
250.07	2414.56
250.29	2551.77
250.50	2432.99
250.72	2252.77
250.94	2576.34
251.16	2742.23
251.37	2359.26
251.59	2437.08
251.81	2629.59
252.02	2676.70
252.24	2248.67
252.46	2508.76
252.68	2361.31
252.89	2396.12
253.11	2220.00
253.33	2473.95
253.54	2607.06
253.76	2318.30
253.98	2281.44
254.20	2398.17
254.41	2342.88
254.63	2406.36
254.85	2269.15
255.06	2398.17
255.28	2641.88
255.50	2490.33
255.71	2361.31
255.93	2203.61
256.15	2478.04
256.36	2590.68
256.58	2220.00
256.80	2428.89
257.02	2453.47
257.23	2463.71
257.45	2387.93
257.67	2471.90
257.88	2439.13
258.10	2566.10
258.32	2371.55
258.53	2437.08
258.75	2672.60
258.97	2365.40
259.18	2301.92
259.40	2334.68
259.62	2701.27
259.83	2639.83
260.05	2336.73
260.27	2916.31
260.48	2590.68
260.70	2404.32
260.92	2279.39
261.13	2410.46
261.35	2484.19
261.57	2516.95
261.78	2291.68
262.00	2230.24
262.22	2557.91
262.43	2410.46
262.65	2340.83
262.86	2392.03
263.08	2822.10
263.30	2529.24
263.51	2109.41
263.73	2306.01
263.95	2635.74
264.16	2334.68
264.38	2271.20
264.60	2293.72
264.81	2514.91
265.03	2602.97
265.25	2580.44
265.46	2301.92
265.68	2594.78
265.89	2586.58
266.11	2252.77
266.33	2389.98
266.54	2623.45
266.76	2500.57
266.98	2412.51
267.19	2514.91
267.41	2621.40
267.62	2514.91
267.84	2271.20
268.06	2461.66
268.27	2490.33
268.49	2674.65
268.70	2371.55
268.92	2326.49
269.14	2398.17
269.35	2283.49
269.57	2394.08
269.79	2396.12
270.00	2357.21
270.22	2717.65
270.43	2285.53
270.65	2207.71
270.87	2555.86
271.08	2500.57
271.30	2451.42
271.51	2318.30
271.73	2627.54
271.95	2674.65
272.16	2297.82
272.38	2412.51
272.59	2432.99
272.81	2519.00
273.02	2342.88
273.24	2355.16
273.46	2582.49
273.67	2430.94
273.89	2293.72
274.10	2303.96
274.32	2633.69
274.54	2500.57
274.75	2424.80
274.97	2281.44
275.18	2498.52
275.40	2623.45
275.61	2445.27
275.83	2351.07
276.05	2342.88
276.26	2414.56
276.48	2424.80
276.69	2377.69
276.91	2377.69
277.12	2668.50
277.34	2494.43
277.55	2502.62
277.77	2531.29
277.99	2398.17
278.20	2340.83
278.42	2277.34
278.63	2398.17
278.85	2355.16
279.06	2336.73
279.28	2498.52
279.49	2629.59
279.71	2611.16
279.93	2488.28
280.14	2496.47
280.36	2488.28
280.57	2629.59
280.79	2510.81
281.00	2324.44
281.22	2377.69
281.43	2658.26
281.65	2236.38
281.86	2297.82
282.08	2551.77
282.29	2717.65
282.51	2308.06
282.73	2236.38
282.94	2256.86
283.16	2576.34
283.37	2545.63
283.59	2392.03
283.80	2521.05
284.02	2455.51
284.23	2488.28
284.45	2420.70
284.66	2398.17
284.88	2473.95
285.09	2459.61
285.31	2469.85
285.52	2492.38
285.74	2320.35
285.95	2562.01
286.17	2473.95
286.38	2570.20
286.60	2383.84
286.81	2387.93
287.03	2453.47
287.24	2480.09
287.46	2566.10
287.67	2457.56
287.89	2576.34
288.10	2547.67
288.32	2510.81
288.53	2629.59
288.75	2457.56
288.96	2629.59
289.18	2377.69
289.39	2346.97
289.61	2478.04
289.82	2805.72
290.04	2727.89
290.25	2320.35
290.47	2504.67
290.68	2432.99
290.90	2582.49
291.11	2265.05
291.33	2504.67
291.54	2306.01
291.76	2334.68
291.97	2488.28
292.18	2469.85
292.40	2484.19
292.61	2471.90
292.83	2641.88
293.04	2467.80
293.26	2488.28
293.47	2416.60
293.69	2357.21
293.90	2482.14
294.12	2621.40
294.33	2496.47
294.55	2424.80
294.76	2551.77
294.97	2645.98
295.19	2777.05
295.40	2396.12
295.62	2416.60
295.83	2645.98
296.05	2426.84
296.26	2510.81
296.48	2273.25
296.69	2428.89
296.90	2398.17
297.12	2543.58
297.33	2531.29
297.55	2516.95
297.76	2559.96
297.98	2437.08
298.19	2469.85
298.41	2514.91
298.62	2400.22
298.83	2557.91
299.05	2340.83
299.26	2463.71
299.48	2353.12
299.69	2525.15
299.90	2389.98
300.12	2363.36
300.33	2523.10
300.55	2496.47
300.76	2533.34
300.98	2342.88
301.19	2602.97
301.40	2482.14
301.62	2330.59
301.83	2564.06
302.05	2463.71
302.26	2441.18
302.47	2428.89
302.69	2414.56
302.90	2506.71
303.12	2228.19
303.33	2555.86
303.54	2783.19
303.76	2451.42
303.97	2359.26
304.19	2621.40
304.40	2414.56
304.61	2453.47
304.83	2514.91
305.04	2543.58
305.26	2553.82
305.47	2500.57
305.68	2457.56
305.90	2361.31
306.11	2623.45
306.33	2445.27
306.54	2344.92
306.75	2349.02
306.97	2258.91
307.18	2404.32
307.39	2361.31
307.61	2574.30
307.82	2519.00
308.04	2545.63
308.25	2293.72
308.46	2449.37
308.68	2475.99
308.89	2519.00
309.10	2525.15
309.32	2512.86
309.53	2449.37
309.74	2637.78
309.96	2459.61
310.17	2670.55
310.39	2389.98
310.60	2547.67
310.81	2432.99
311.03	2318.30
311.24	2572.25
311.45	2492.38
311.67	2596.82
311.88	2443.23
312.09	2424.80
312.31	2349.02
312.52	2389.98
312.73	2320.35
312.95	2375.64
313.16	2277.34
313.37	2535.39
313.59	2531.29
313.80	2514.91
314.01	2674.65
314.23	2373.60
314.44	2387.93
314.65	2375.64
314.87	2373.60
315.08	2451.42
315.29	2451.42
315.51	2342.88
315.72	2320.35
315.93	2566.10
316.15	2545.63
316.36	2379.74
316.57	2482.14
316.79	2459.61
317.00	2377.69
317.21	2553.82
317.43	2371.55
317.64	2463.71
317.85	2332.64
318.07	2334.68
318.28	2475.99
318.49	2553.82
318.70	2695.13
318.92	2652.12
319.13	2635.74
319.34	2572.25
319.56	2502.62
319.77	2596.82
319.98	2650.07
320.20	2506.71
320.41	2527.19
320.62	2529.24
320.83	2365.40
321.05	2588.63
321.26	2459.61
321.47	2502.62
321.69	2748.37
321.90	2301.92
322.11	2398.17
322.32	2482.14
322.54	2596.82
322.75	2414.56
322.96	2818.00
323.18	2361.31
323.39	2267.10
323.60	2351.07
323.81	2500.57
324.03	2469.85
324.24	2449.37
324.45	2496.47
324.66	2359.26
324.88	2650.07
325.09	2701.27
325.30	2461.66
325.52	2492.38
325.73	2523.10
325.94	2482.14
326.15	2310.11
326.37	2301.92
326.58	2514.91
326.79	2707.41
327.00	2371.55
327.22	2488.28
327.43	2392.03
327.64	2398.17
327.85	2539.48
328.07	2389.98
328.28	2670.55
328.49	2359.26
328.70	2457.56
328.92	2512.86
329.13	2422.75
329.34	2594.78
329.55	2699.22
329.76	2502.62
329.98	2482.14
330.19	2656.22
330.40	2430.94
330.61	2473.95
330.83	2621.40
331.04	2441.18
331.25	2432.99
331.46	2467.80
331.68	2365.40
331.89	2658.26
332.10	2441.18
332.31	2234.33
332.52	2506.71
332.74	2627.54
332.95	2355.16
333.16	2504.67
333.37	2555.86
333.58	2441.18
333.80	2375.64
334.01	2256.86
334.22	2480.09
334.43	2418.65
334.64	2385.88
334.86	2326.49
335.07	2365.40
335.28	2641.88
335.49	2285.53
335.70	2447.32
335.92	2666.46
336.13	2666.46
336.34	2514.91
336.55	2465.75
336.76	2510.81
336.98	2267.10
337.19	2375.64
337.40	2545.63
337.61	2748.37
337.82	2469.85
338.04	2512.86
338.25	2281.44
338.46	2469.85
338.67	2445.27
338.88	2351.07
339.09	2265.05
339.31	2365.40
339.52	2375.64
339.73	2340.83
339.94	2453.47
340.15	2613.21
340.36	2439.13
340.58	2424.80
340.79	2371.55
341.00	2564.06
341.21	2363.36
341.42	2570.20
341.63	2461.66
341.85	2590.68
342.06	2576.34
342.27	2396.12
342.48	2502.62
342.69	2275.29
342.90	2539.48
343.12	2521.05
343.33	2371.55
343.54	2562.01
343.75	2705.37
343.96	2430.94
344.17	2340.83
344.38	2463.71
344.60	2418.65
344.81	2377.69
345.02	2389.98
345.23	2584.54
345.44	2713.56
345.65	2531.29
345.86	2457.56
346.07	2502.62
346.29	2432.99
346.50	2496.47
346.71	2519.00
346.92	2650.07
347.13	2781.14
347.34	2523.10
347.55	2359.26
347.76	2519.00
347.98	2277.34
348.19	2402.27
348.40	2574.30
348.61	2498.52
348.82	2668.50
349.03	2375.64
349.24	2326.49
349.45	2670.55
349.66	2203.61
349.88	2445.27
350.09	2351.07
350.30	2637.78
350.51	2707.41
350.72	2510.81
350.93	2422.75
351.14	2441.18
351.35	2519.00
351.56	2447.32
351.77	2465.75
351.99	2619.35
352.20	2740.18
352.41	2588.63
352.62	2195.42
352.83	2514.91
353.04	2473.95
353.25	2334.68
353.46	2535.39
353.67	2635.74
353.88	2209.76
354.09	2400.22
354.30	2443.23
354.52	2551.77
354.73	2322.40
354.94	2353.12
355.15	2516.95
355.36	2766.81
355.57	2381.79
355.78	2432.99
355.99	2334.68
356.20	2426.84
356.41	2658.26
356.62	2392.03
356.83	2443.23
357.04	2670.55
357.25	2209.76
357.46	2420.70
357.68	2330.59
357.89	2379.74
358.10	2486.23
358.31	2394.08
358.52	2441.18
358.73	2381.79
358.94	2363.36
359.15	2363.36
359.36	2545.63
359.57	2490.33
359.78	2506.71
359.99	2480.09
360.20	2422.75
360.41	2469.85
360.62	2590.68
360.83	2490.33
361.04	2482.14
361.25	2521.05
361.46	2658.26
361.67	2430.94
361.88	2449.37
362.09	2629.59
362.30	2519.00
362.51	2414.56
362.72	2463.71
362.93	2555.86
363.14	2562.01
363.35	2510.81
363.56	2310.11
363.78	2588.63
363.99	2586.58
364.20	2418.65
364.41	2545.63
364.62	2668.50
364.83	2482.14
365.04	2504.67
365.25	2367.45
365.46	2744.28
365.67	2412.51
365.88	2488.28
366.09	2453.47
366.30	2473.95
366.51	2473.95
366.72	2295.77
366.93	2373.60
367.14	2506.71
367.35	2645.98
367.56	2465.75
367.77	2486.23
367.98	2521.05
368.18	2514.91
368.39	2531.29
368.60	2342.88
368.81	2547.67
369.02	2529.24
369.23	2359.26
369.44	2328.54
369.65	2414.56
369.86	2555.86
370.07	2449.37
370.28	2336.73
370.49	2523.10
370.70	2572.25
370.91	2379.74
371.12	2398.17
371.33	2637.78
371.54	2320.35
371.75	2555.86
371.96	2226.14
372.17	2551.77
372.38	2392.03
372.59	2504.67
372.80	2334.68
373.01	2392.03
373.22	2484.19
373.43	2432.99
373.64	2308.06
373.85	2695.13
374.06	2723.80
374.26	2555.86
374.47	2529.24
374.68	2666.46
374.89	2519.00
375.10	2361.31
375.31	2504.67
375.52	2498.52
375.73	2562.01
375.94	2279.39
376.15	2572.25
376.36	2363.36
376.57	2359.26
376.78	2414.56
376.99	2473.95
377.20	2629.59
377.40	2484.19
377.61	2656.22
377.82	2398.17
378.03	2619.35
378.24	2596.82
378.45	2447.32
378.66	2498.52
378.87	2267.10
379.08	2269.15
379.29	2412.51
379.50	2576.34
379.71	2531.29
379.91	2596.82
380.12	2414.56
380.33	2469.85
380.54	2488.28
380.75	2412.51
380.96	2408.41
381.17	2512.86
381.38	2457.56
381.59	2482.14
381.80	2480.09
382.00	2564.06
382.21	2555.86
382.42	2703.32
382.63	2625.50
382.84	2543.58
383.05	2576.34
383.26	2611.16
383.47	2463.71
383.68	2566.10
383.88	2570.20
384.09	2547.67
384.30	2676.70
384.51	2482.14
384.72	2469.85
384.93	2306.01
385.14	2449.37
385.35	2551.77
385.55	2314.20
385.76	2662.36
385.97	2432.99
386.18	2275.29
386.39	2361.31
386.60	2488.28
386.81	2437.08
387.02	2199.52
387.22	2330.59
387.43	2592.73
387.64	2449.37
387.85	2684.89
388.06	2725.85
388.27	3936.20
388.48	8198.02
388.68	12001.10
388.89	14429.99
389.10	15572.75
389.31	14511.91
389.52	11558.74
389.73	9944.94
389.93	8984.44
390.14	8302.47
390.35	7376.78
390.56	6729.63
390.77	5443.50
390.98	4290.49
391.18	3416.01
391.39	3049.43
391.60	2547.67
391.81	2607.06
392.02	2488.28
392.23	2873.30
392.43	2490.33
392.64	2674.65
392.85	2490.33
393.06	2701.27
393.27	2422.75
393.47	2392.03
393.68	2432.99
393.89	2432.99
394.10	2691.03
394.31	2430.94
394.52	2379.74
394.72	2375.64
394.93	2596.82
395.14	2355.16
395.35	2525.15
395.56	2402.27
395.76	2447.32
395.97	2531.29
396.18	2580.44
396.39	2600.92
396.60	2971.60
396.80	2738.13
397.01	2637.78
397.22	2680.79
397.43	2703.32
397.64	2363.36
397.84	2527.19
398.05	2777.05
398.26	2535.39
398.47	2613.21
398.67	2637.78
398.88	2441.18
399.09	2543.58
399.30	2400.22
399.51	2512.86
399.71	2441.18
399.92	2478.04
400.13	2432.99
400.34	2408.41
400.54	2537.43
400.75	2680.79
400.96	2449.37
401.17	2678.74
401.37	2596.82
401.58	2457.56
401.79	2383.84
402.00	2627.54
402.21	2867.16
402.41	2799.57
402.62	2820.05
402.83	2904.02
403.04	3041.23
403.24	3121.10
403.45	2592.73
403.66	2791.38
403.87	2727.89
404.07	2715.61
404.28	2650.07
404.49	2750.42
404.70	2590.68
404.90	2584.54
405.11	2381.79
405.32	2527.19
405.52	2389.98
405.73	2410.46
405.94	2338.78
406.15	2471.90
406.35	2562.01
406.56	2621.40
406.77	2465.75
406.98	2504.67
407.18	2426.84
407.39	2691.03
407.60	2471.90
407.80	2496.47
408.01	2539.48
408.22	2543.58
408.43	2336.73
408.63	2580.44
408.84	2596.82
409.05	2596.82
409.25	2359.26
409.46	2463.71
409.67	2484.19
409.88	2420.70
410.08	2580.44
410.29	2410.46
410.50	2572.25
410.70	2498.52
410.91	2371.55
411.12	2465.75
411.32	2473.95
411.53	2420.70
411.74	2523.10
411.95	2502.62
412.15	2619.35
412.36	2678.74
412.57	2551.77
412.77	2596.82
412.98	2486.23
413.19	2396.12
413.39	2490.33
413.60	2496.47
413.81	2633.69
414.01	2379.74
414.22	2463.71
414.43	2529.24
414.63	2486.23
414.84	2539.48
415.05	2457.56
415.25	2320.35
415.46	2531.29
415.67	2416.60
415.87	2432.99
416.08	2498.52
416.29	2506.71
416.49	2519.00
416.70	2473.95
416.91	2453.47
417.11	2398.17
417.32	2596.82
417.53	2576.34
417.73	2535.39
417.94	2490.33
418.15	2516.95
418.35	2514.91
418.56	2512.86
418.77	2744.28
418.97	2432.99
419.18	2469.85
419.38	2248.67
419.59	2455.51
419.80	2742.23
420.00	2521.05
420.21	2441.18
420.42	2666.46
420.62	2523.10
420.83	2324.44
421.04	2416.60
421.24	2547.67
421.45	2525.15
421.65	2424.80
421.86	2439.13
422.07	2627.54
422.27	2531.29
422.48	2404.32
422.69	2314.20
422.89	2467.80
423.10	2441.18
423.30	2328.54
423.51	2523.10
423.72	2596.82
423.92	2600.92
424.13	2349.02
424.33	2514.91
424.54	2537.43
424.75	2461.66
424.95	2596.82
425.16	2424.80
425.36	2478.04
425.57	2637.78
425.78	2521.05
425.98	2512.86
426.19	2453.47
426.39	2367.45
426.60	2492.38
426.81	2584.54
427.01	2502.62
427.22	2394.08
427.42	2308.06
427.63	2375.64
427.83	2592.73
428.04	2734.04
428.25	2519.00
428.45	2496.47
428.66	2652.12
428.86	2504.67
429.07	2465.75
429.28	2432.99
429.48	2490.33
429.69	2318.30
429.89	2473.95
430.10	2291.68
430.30	2580.44
430.51	2605.02
430.71	2422.75
430.92	2457.56
431.13	2365.40
431.33	2553.82
431.54	2473.95
431.74	2611.16
431.95	2775.00
432.15	2375.64
432.36	2435.03
432.56	2475.99
432.77	2752.47
432.98	2727.89
433.18	2525.15
433.39	2422.75
433.59	2465.75
433.80	2660.31
434.00	2684.89
434.21	2480.09
434.41	2410.46
434.62	2738.13
434.82	2377.69
435.03	2394.08
435.23	2523.10
435.44	2246.62
435.64	2498.52
435.85	2506.71
436.06	2629.59
436.26	2645.98
436.47	2465.75
436.67	2361.31
436.88	2387.93
437.08	2668.50
437.29	2580.44
437.49	2570.20
437.70	2580.44
437.90	2467.80
438.11	2686.94
438.31	2615.26
438.52	2676.70
438.72	2744.28
438.93	2721.75
439.13	2531.29
439.34	2564.06
439.54	2512.86
439.75	2553.82
439.95	2568.15
440.16	2355.16
440.36	2525.15
440.57	2494.43
440.77	2523.10
440.98	2559.96
441.18	2578.39
441.39	2375.64
441.59	2338.78
441.80	2752.47
442.00	2482.14
442.21	2570.20
442.41	2322.40
442.62	2625.50
442.82	2420.70
443.02	2449.37
443.23	2484.19
443.43	2443.23
443.64	2697.17
443.84	2383.84
444.05	2482.14
444.25	2455.51
444.46	2441.18
444.66	2502.62
444.87	2660.31
445.07	2363.36
445.28	2467.80
445.48	2594.78
445.69	2559.96
445.89	2834.39
446.09	2502.62
446.30	2764.76
446.50	2953.17
446.71	4583.35
446.91	5787.56
447.12	6649.75
447.32	7157.65
447.53	6598.56
447.73	5447.60
447.93	4833.21
448.14	4478.91
448.34	4437.95
448.55	3862.47
448.75	3692.49
448.96	3579.85
449.16	3284.94
449.36	3084.24
449.57	2754.52
449.77	2533.34
449.98	2428.89
450.18	2488.28
450.39	2467.80
450.59	2645.98
450.79	2598.87
451.00	2422.75
451.20	2564.06
451.41	2379.74
451.61	2461.66
451.81	2426.84
452.02	2385.88
452.22	2422.75
452.43	2482.14
452.63	2406.36
452.84	2498.52
453.04	2400.22
453.24	2531.29
453.45	2387.93
453.65	2432.99
453.86	2502.62
454.06	2498.52
454.26	2559.96
454.47	2318.30
454.67	2553.82
454.87	2506.71
455.08	2621.40
455.28	2662.36
455.49	2461.66
455.69	2389.98
455.89	2766.81
456.10	2625.50
456.30	2394.08
456.51	2539.48
456.71	2488.28
456.91	2416.60
457.12	2465.75
457.32	2488.28
457.52	2398.17
457.73	2535.39
457.93	2584.54
458.14	2420.70
458.34	2252.77
458.54	2447.32
458.75	2402.27
458.95	2602.97
459.15	2494.43
459.36	2465.75
459.56	2461.66
459.76	2785.24
459.97	2492.38
460.17	2498.52
460.37	2600.92
460.58	2637.78
460.78	2580.44
460.99	2408.41
461.19	2463.71
461.39	2457.56
461.60	2506.71
461.80	2486.23
462.00	2326.49
462.21	2400.22
462.41	2457.56
462.61	2328.54
462.82	2306.01
463.02	2619.35
463.22	2498.52
463.43	2576.34
463.63	2525.15
463.83	2645.98
464.04	2516.95
464.24	2492.38
464.44	2389.98
464.64	2480.09
464.85	2545.63
465.05	2482.14
465.25	2449.37
465.46	2389.98
465.66	2605.02
465.86	2545.63
466.07	2539.48
466.27	2455.51
466.47	2326.49
466.68	2338.78
466.88	2551.77
467.08	2543.58
467.29	2570.20
467.49	2539.48
467.69	2535.39
467.89	2629.59
468.10	2492.38
468.30	2519.00
468.50	2523.10
468.71	2596.82
468.91	2359.26
469.11	2633.69
469.31	2506.71
469.52	2387.93
469.72	2738.13
469.92	2678.74
470.13	2463.71
470.33	2473.95
470.53	2539.48
470.73	2873.30
470.94	3295.18
471.14	3487.69
471.34	3841.99
471.54	3768.26
471.75	3354.57
471.95	3178.45
472.15	3069.91
472.36	3033.04
472.56	2918.36
472.76	2961.36
472.96	3035.09
473.17	2736.09
473.37	2756.57
473.57	2545.63
473.77	2645.98
473.98	2473.95
474.18	2346.97
474.38	2961.36
474.58	2412.51
474.79	2396.12
474.99	2576.34
475.19	2535.39
475.39	2422.75
475.60	2480.09
475.80	2338.78
476.00	2502.62
476.20	2430.94
476.41	2506.71
476.61	2594.78
476.81	2654.17
477.01	2379.74
477.21	2703.32
477.42	2602.97
477.62	2437.08
477.82	2613.21
478.02	2377.69
478.23	2562.01
478.43	2410.46
478.63	2441.18
478.83	2469.85
479.03	2422.75
479.24	2650.07
479.44	2740.18
479.64	2426.84
479.84	2334.68
480.04	2389.98
480.25	2623.45
480.45	2451.42
480.65	2443.23
480.85	2662.36
481.06	2467.80
481.26	2559.96
481.46	2519.00
481.66	2502.62
481.86	2416.60
482.06	2531.29
482.27	2521.05
482.47	2465.75
482.67	2547.67
482.87	2486.23
483.07	2572.25
483.28	2461.66
483.48	2418.65
483.68	2412.51
483.88	2361.31
484.08	2242.53
484.29	2322.40
484.49	2498.52
484.69	2291.68
484.89	2678.74
485.09	2656.22
485.29	2580.44
485.50	2547.67
485.70	2402.27
485.90	2666.46
486.10	2504.67
486.30	2506.71
486.50	2537.43
486.71	2535.39
486.91	2521.05
487.11	2590.68
487.31	2383.84
487.51	2535.39
487.71	2344.92
487.91	2267.10
488.12	2326.49
488.32	2209.76
488.52	2398.17
488.72	2269.15
488.92	2471.90
489.12	2592.73
489.32	2621.40
489.53	2490.33
489.73	2365.40
489.93	2738.13
490.13	2400.22
490.33	2322.40
490.53	2422.75
490.73	2586.58
490.94	2314.20
491.14	2504.67
491.34	2564.06
491.54	2777.05
491.74	3315.66
491.94	4038.59
492.14	4415.42
492.34	4353.98
492.54	4171.71
492.75	3397.58
492.95	3428.30
493.15	3243.98
493.35	3067.86
493.55	3174.35
493.75	2936.79
493.95	3020.75
494.15	2742.23
494.35	2543.58
494.56	2637.78
494.76	2455.51
494.96	2535.39
495.16	2420.70
495.36	2465.75
495.56	2449.37
495.76	2478.04
495.96	2408.41
496.16	2379.74
496.36	2721.75
496.56	2445.27
496.77	2635.74
496.97	2473.95
497.17	2621.40
497.37	2328.54
497.57	2471.90
497.77	2432.99
497.97	2443.23
498.17	2428.89
498.37	2457.56
498.57	2621.40
498.77	2392.03
498.97	2514.91
499.17	2658.26
499.38	2519.00
499.58	2578.39
499.78	2582.49
499.98	2514.91
500.18	2519.00
500.38	2463.71
500.58	2709.46
500.78	3061.71
500.98	5420.97
501.18	7581.58
501.38	9293.68
501.58	10409.83
501.78	9944.94
501.98	7896.97
502.18	6727.58
502.38	5828.52
502.58	5420.97
502.78	4935.60
502.98	4775.86
503.18	4558.78
503.38	4028.35
503.59	3588.04
503.79	3325.90
503.99	3153.87
504.19	2981.84
504.39	3047.38
504.59	3127.25
504.79	3071.95
504.99	3094.48
505.19	2826.20
505.39	2750.42
505.59	2904.02
505.79	2783.19
505.99	2684.89
506.19	2482.14
506.39	2777.05
506.59	2461.66
506.79	2478.04
506.99	2670.55
507.19	2465.75
507.39	2510.81
507.59	2363.36
507.79	2428.89
507.99	2404.32
508.19	2482.14
508.39	2486.23
508.59	2461.66
508.79	2588.63
508.99	2684.89
509.19	2351.07
509.39	2512.86
509.59	2424.80
509.79	2455.51
509.99	2449.37
510.19	2576.34
510.39	2578.39
510.59	2473.95
510.79	2465.75
510.99	2385.88
511.19	2373.60
511.39	2658.26
511.59	2650.07
511.79	2662.36
511.99	2473.95
512.19	2709.46
512.38	2535.39
512.58	2367.45
512.78	2475.99
512.98	2629.59
513.18	2627.54
513.38	2310.11
513.58	2582.49
513.78	2437.08
513.98	2484.19
514.18	2375.64
514.38	2416.60
514.58	2555.86
514.78	2379.74
514.98	2334.68
515.18	2365.40
515.38	2416.60
515.58	2719.70
515.78	2449.37
515.98	2420.70
516.18	2613.21
516.38	2492.38
516.57	2465.75
516.77	2449.37
516.97	2541.53
517.17	2492.38
517.37	2316.25
517.57	2473.95
517.77	2504.67
517.97	2430.94
518.17	2451.42
518.37	2295.77
518.57	2387.93
518.77	2465.75
518.97	2451.42
519.16	2506.71
519.36	2596.82
519.56	2473.95
519.76	2473.95
519.96	2457.56
520.16	2777.05
520.36	2383.84
520.56	2668.50
520.76	2387.93
520.96	2416.60
521.16	2539.48
521.35	2578.39
521.55	2510.81
521.75	2580.44
521.95	2422.75
522.15	2383.84
522.35	2320.35
522.55	2361.31
522.75	2566.10
522.95	2373.60
523.14	2359.26
523.34	2570.20
523.54	2486.23
523.74	2586.58
523.94	2455.51
524.14	2377.69
524.34	2508.76
524.54	2596.82
524.73	2432.99
524.93	2529.24
525.13	2402.27
525.33	2349.02
525.53	2693.08
525.73	2539.48
525.93	2465.75
526.13	2416.60
526.32	2408.41
526.52	2621.40
526.72	2619.35
526.92	2398.17
527.12	2428.89
527.32	2351.07
527.52	2564.06
527.71	2555.86
527.91	2441.18
528.11	2449.37
528.31	2555.86
528.51	2346.97
528.71	2514.91
528.90	2545.63
529.10	2580.44
529.30	2576.34
529.50	2215.90
529.70	2566.10
529.90	2494.43
530.09	2478.04
530.29	2410.46
530.49	2389.98
530.69	2852.82
530.89	2549.72
531.09	2519.00
531.28	2408.41
531.48	2650.07
531.68	2490.33
531.88	2445.27
532.08	2588.63
532.28	2519.00
532.47	2549.72
532.67	2562.01
532.87	2572.25
533.07	2412.51
533.27	2564.06
533.46	2588.63
533.66	2521.05
533.86	2498.52
534.06	2504.67
534.26	2523.10
534.45	2465.75
534.65	2650.07
534.85	2504.67
535.05	2375.64
535.25	2592.73
535.44	2439.13
535.64	2529.24
535.84	2461.66
536.04	2471.90
536.24	2449.37
536.43	2342.88
536.63	2494.43
536.83	2502.62
537.03	2406.36
537.22	2297.82
537.42	2303.96
537.62	2523.10
537.82	2408.41
538.02	2611.16
538.21	2553.82
538.41	2936.79
538.61	2535.39
538.81	2441.18
539.00	2621.40
539.20	2330.59
539.40	2418.65
539.60	2473.95
539.79	2650.07
539.99	2486.23
540.19	2336.73
540.39	2490.33
540.58	2519.00
540.78	2695.13
540.98	2463.71
541.18	2611.16
541.37	2486.23
541.57	2467.80
541.77	2576.34
541.97	2383.84
542.16	2308.06
542.36	2439.13
542.56	2445.27
542.76	2631.64
542.95	2486.23
543.15	2598.87
543.35	2623.45
543.54	2334.68
543.74	2318.30
543.94	2623.45
544.14	2482.14
544.33	2457.56
544.53	2424.80
544.73	2498.52
544.93	2488.28
545.12	2398.17
545.32	2539.48
545.52	2482.14
545.71	2400.22
545.91	2400.22
546.11	2514.91
546.30	2424.80
546.50	2471.90
546.70	2578.39
546.90	2463.71
547.09	2289.63
547.29	2430.94
547.49	2602.97
547.68	2465.75
547.88	2381.79
548.08	2564.06
548.27	2887.64
548.47	2371.55
548.67	2428.89
548.87	2568.15
549.06	2396.12
549.26	2463.71
549.46	2465.75
549.65	2418.65
549.85	2486.23
550.05	2516.95
550.24	2394.08
550.44	2506.71
550.64	2531.29
550.83	2443.23
551.03	2691.03
551.23	2670.55
551.42	2473.95
551.62	2359.26
551.82	2488.28
552.01	2455.51
552.21	2588.63
552.41	2408.41
552.60	2650.07
552.80	2412.51
553.00	2408.41
553.19	2461.66
553.39	2766.81
553.59	2375.64
553.78	2510.81
553.98	2482.14
554.17	2310.11
554.37	2490.33
554.57	2590.68
554.76	2303.96
554.96	2453.47
555.16	2512.86
555.35	2531.29
555.55	2531.29
555.75	2537.43
555.94	2645.98
556.14	2334.68
556.33	2439.13
556.53	2547.67
556.73	2539.48
556.92	2502.62
557.12	2506.71
557.32	2711.51
557.51	2668.50
557.71	2508.76
557.90	2654.17
558.10	2586.58
558.30	2516.95
558.49	2457.56
558.69	2406.36
558.88	2580.44
559.08	2547.67
559.28	2432.99
559.47	2461.66
559.67	2529.24
559.86	2731.99
560.06	2400.22
560.26	2512.86
560.45	2596.82
560.65	2443.23
560.84	2645.98
561.04	2389.98
561.24	2564.06
561.43	2359.26
561.63	2641.88
561.82	2514.91
562.02	2637.78
562.22	2408.41
562.41	2404.32
562.61	2519.00
562.80	2322.40
563.00	2842.58
563.19	2473.95
563.39	2492.38
563.59	2555.86
563.78	2369.50
563.98	2308.06
564.17	2392.03
564.37	2322.40
564.56	2437.08
564.76	2375.64
564.96	2613.21
565.15	2424.80
565.35	2795.48
565.54	2455.51
565.74	2521.05
565.93	2564.06
566.13	2521.05
566.32	2482.14
566.52	2551.77
566.71	2478.04
566.91	2578.39
567.11	2602.97
567.30	2410.46
567.50	2553.82
567.69	2592.73
567.89	2471.90
568.08	2349.02
568.28	2598.87
568.47	2447.32
568.67	2523.10
568.86	2428.89
569.06	2633.69
569.25	2504.67
569.45	2383.84
569.64	2383.84
569.84	2519.00
570.04	2484.19
570.23	2396.12
570.43	2527.19
570.62	2586.58
570.82	2643.93
571.01	2349.02
571.21	2414.56
571.40	2383.84
571.60	2602.97
571.79	2492.38
571.99	2523.10
572.18	2441.18
572.38	2514.91
572.57	2416.60
572.77	2531.29
572.96	2783.19
573.16	2545.63
573.35	2418.65
573.55	2602.97
573.74	2543.58
573.94	2514.91
574.13	2441.18
574.33	2625.50
574.52	2607.06
574.71	2502.62
574.91	2506.71
575.10	2346.97
575.30	2441.18
575.49	2422.75
575.69	2422.75
575.88	2465.75
576.08	2486.23
576.27	2674.65
576.47	2420.70
576.66	2580.44
576.86	2672.60
577.05	2564.06
577.25	2570.20
577.44	2703.32
577.64	2469.85
577.83	2639.83
578.02	2428.89
578.22	2672.60
578.41	2764.76
578.61	2457.56
578.80	2318.30
579.00	2521.05
579.19	2531.29
579.39	2576.34
579.58	2523.10
579.77	2510.81
579.97	2688.98
580.16	2664.41
580.36	2676.70
580.55	2641.88
580.75	2531.29
580.94	2545.63
581.13	2529.24
581.33	2654.17
581.52	2535.39
581.72	2734.04
581.91	2557.91
582.11	2441.18
582.30	2705.37
582.49	2547.67
582.69	2748.37
582.88	2564.06
583.08	2504.67
583.27	2650.07
583.47	2576.34
583.66	2412.51
583.85	2400.22
584.05	2482.14
584.24	2582.49
584.44	2543.58
584.63	2705.37
584.82	2674.65
585.02	2744.28
585.21	2602.97
585.41	2713.56
585.60	2602.97
585.79	2834.39
585.99	2820.05
586.18	2596.82
586.37	3280.85
586.57	5021.62
586.76	14935.84
586.96	34379.25
587.15	47883.56
587.34	57138.33
587.54	61293.66
587.73	55366.84
587.93	39206.31
588.12	29824.57
588.31	24200.85
588.51	20963.01
588.70	19322.59
588.89	17207.03
589.09	15081.24
589.28	12871.48
589.47	10268.52
589.67	7892.87
589.86	6293.41
590.06	4700.09
590.25	3948.48
590.44	3256.27
590.64	2996.18
590.83	2793.43
591.02	2697.17
591.22	2621.40
591.41	2598.87
591.60	2506.71
591.80	2856.92
591.99	2412.51
592.18	2482.14
592.38	2574.30
592.57	2467.80
592.76	2494.43
592.96	2574.30
593.15	2514.91
593.34	2578.39
593.54	2502.62
593.73	2635.74
593.92	2650.07
594.12	2621.40
594.31	2555.86
594.50	2617.30
594.70	2607.06
594.89	2854.87
595.08	2373.60
595.28	2625.50
595.47	2904.02
595.66	2662.36
595.86	2365.40
596.05	2420.70
596.24	2486.23
596.43	2699.22
596.63	2650.07
596.82	2637.78
597.01	2580.44
597.21	2731.99
597.40	2527.19
597.59	2598.87
597.79	2478.04
597.98	2578.39
598.17	2475.99
598.36	2486.23
598.56	2605.02
598.75	2453.47
598.94	2539.48
599.14	2539.48
599.33	2461.66
599.52	2570.20
599.71	2602.97
599.91	2562.01
600.10	2592.73
600.29	2498.52
600.48	2586.58
600.68	2521.05
600.87	2539.48
601.06	2449.37
601.26	2564.06
601.45	2529.24
601.64	2449.37
601.83	2672.60
602.03	2426.84
602.22	2359.26
602.41	2596.82
602.60	2801.62
602.80	2502.62
602.99	2523.10
603.18	2426.84
603.37	2531.29
603.57	2424.80
603.76	2537.43
603.95	2764.76
604.14	2435.03
604.34	2357.21
604.53	2463.71
604.72	2459.61
604.91	2580.44
605.10	2502.62
605.30	2373.60
605.49	2815.96
605.68	2611.16
605.87	2488.28
606.07	2394.08
606.26	2449.37
606.45	2607.06
606.64	2437.08
606.84	2461.66
607.03	2537.43
607.22	2631.64
607.41	2504.67
607.60	2396.12
607.80	2682.84
607.99	2492.38
608.18	2449.37
608.37	2496.47
608.56	2441.18
608.76	2656.22
608.95	2639.83
609.14	2516.95
609.33	2719.70
609.52	2678.74
609.72	2529.24
609.91	2645.98
610.10	2555.86
610.29	2658.26
610.48	2553.82
610.68	2562.01
610.87	2494.43
611.06	2648.02
611.25	2512.86
611.44	2619.35
611.63	2525.15
611.83	2650.07
612.02	2400.22
612.21	2598.87
612.40	2279.39
612.59	2443.23
612.79	2377.69
612.98	2514.91
613.17	2731.99
613.36	2500.57
613.55	2713.56
613.74	2514.91
613.93	2686.94
614.13	2678.74
614.32	2707.41
614.51	2658.26
614.70	2619.35
614.89	2514.91
615.08	2637.78
615.28	2944.98
615.47	2449.37
615.66	2523.10
615.85	2514.91
616.04	2682.84
616.23	2521.05
616.42	2494.43
616.62	2600.92
616.81	2508.76
617.00	2519.00
617.19	2535.39
617.38	2416.60
617.57	2498.52
617.76	2576.34
617.95	2592.73
618.15	2523.10
618.34	2678.74
618.53	2377.69
618.72	2697.17
618.91	2680.79
619.10	2617.30
619.29	2498.52
619.48	2473.95
619.68	2334.68
619.87	2459.61
620.06	2334.68
620.25	2574.30
620.44	2457.56
620.63	2471.90
620.82	2562.01
621.01	2572.25
621.20	2453.47
621.39	2482.14
621.59	2475.99
621.78	2478.04
621.97	2541.53
622.16	2510.81
622.35	2641.88
622.54	2637.78
622.73	2562.01
622.92	2244.57
623.11	2691.03
623.30	2463.71
623.49	2525.15
623.68	2369.50
623.88	2711.51
624.07	2469.85
624.26	2383.84
624.45	2498.52
624.64	2467.80
624.83	2490.33
625.02	2396.12
625.21	2353.12
625.40	2543.58
625.59	2596.82
625.78	2543.58
625.97	2611.16
626.16	2715.61
626.35	2590.68
626.54	2654.17
626.74	2703.32
626.93	2580.44
627.12	2488.28
627.31	2508.76
627.50	2467.80
627.69	2617.30
627.88	2373.60
628.07	2410.46
628.26	2355.16
628.45	2457.56
628.64	2346.97
628.83	2412.51
629.02	2310.11
629.21	2572.25
629.40	2523.10
629.59	2402.27
629.78	2416.60
629.97	2539.48
630.16	2512.86
630.35	2435.03
630.54	2457.56
630.73	2400.22
630.92	2512.86
631.11	2467.80
631.30	2486.23
631.49	2588.63
631.68	2482.14
631.87	2564.06
632.06	2363.36
632.25	2834.39
632.44	2496.47
632.63	2572.25
632.82	2551.77
633.01	2654.17
633.20	2639.83
633.39	2525.15
633.58	2334.68
633.77	2519.00
633.96	2521.05
634.15	2631.64
634.34	2564.06
634.53	2580.44
634.72	2506.71
634.91	2355.16
635.10	2498.52
635.29	2609.11
635.48	2508.76
635.67	2361.31
635.86	2340.83
636.05	2652.12
636.24	2408.41
636.43	2529.24
636.62	2598.87
636.81	2318.30
637.00	2512.86
637.19	2473.95
637.38	2488.28
637.57	2459.61
637.76	2535.39
637.95	2676.70
638.14	2562.01
638.33	2576.34
638.52	2553.82
638.71	2459.61
638.89	2398.17
639.08	2856.92
639.27	2719.70
639.46	2697.17
639.65	3102.67
639.84	3203.02
640.03	3303.37
640.22	3112.91
640.41	3203.02
640.60	2727.89
640.79	2781.14
640.98	2664.41
641.17	2766.81
641.36	2705.37
641.55	2756.57
641.74	2457.56
641.92	2346.97
642.11	2523.10
642.30	2553.82
642.49	2455.51
642.68	2408.41
642.87	2553.82
643.06	2607.06
643.25	2424.80
643.44	2338.78
643.63	2422.75
643.82	2564.06
644.00	2351.07
644.19	2469.85
644.38	2377.69
644.57	2553.82
644.76	2473.95
644.95	2480.09
645.14	2535.39
645.33	2490.33
645.52	2519.00
645.71	2406.36
645.89	2367.45
646.08	2463.71
646.27	2455.51
646.46	2645.98
646.65	2301.92
646.84	2473.95
647.03	2367.45
647.22	2623.45
647.40	2480.09
647.59	2478.04
647.78	2336.73
647.97	2346.97
648.16	2375.64
648.35	2695.13
648.54	2590.68
648.73	2420.70
648.91	2539.48
649.10	2461.66
649.29	2490.33
649.48	2459.61
649.67	2527.19
649.86	2498.52
650.05	2580.44
650.23	2734.04
650.42	2531.29
650.61	2764.76
650.80	2727.89
650.99	2758.61
651.18	2676.70
651.36	2684.89
651.55	2455.51
651.74	2621.40
651.93	2490.33
652.12	2480.09
652.31	2408.41
652.49	2498.52
652.68	2432.99
652.87	2701.27
653.06	2545.63
653.25	2731.99
653.44	2510.81
653.62	2734.04
653.81	2449.37
654.00	2506.71
654.19	2605.02
654.38	2885.59
654.56	2562.01
654.75	2418.65
654.94	2654.17
655.13	2506.71
655.32	2412.51
655.51	2504.67
655.69	2414.56
655.88	2576.34
656.07	2322.40
656.26	2447.32
656.45	2314.20
656.63	2527.19
656.82	2449.37
657.01	2553.82
657.20	2400.22
657.38	2621.40
657.57	2457.56
657.76	2320.35
657.95	2609.11
658.14	2410.46
658.32	2441.18
658.51	2365.40
658.70	2478.04
658.89	2432.99
659.08	2531.29
659.26	2713.56
659.45	2408.41
659.64	2521.05
659.83	2461.66
660.01	2875.35
660.20	2506.71
660.39	2707.41
660.58	2277.34
660.76	2572.25
660.95	2334.68
661.14	2547.67
661.33	2265.05
661.51	2422.75
661.70	2457.56
661.89	2541.53
662.08	2455.51
662.26	2338.78
662.45	2383.84
662.64	2729.94
662.83	2580.44
663.01	2332.64
663.20	2412.51
663.39	2674.65
663.58	2416.60
663.76	2396.12
663.95	2607.06
664.14	2332.64
664.32	2428.89
664.51	2383.84
664.70	2279.39
664.89	2553.82
665.07	2324.44
665.26	2547.67
665.45	2363.36
665.64	2463.71
665.82	2435.03
666.01	2559.96
666.20	2355.16
666.38	2564.06
666.57	2596.82
666.76	3954.63
666.95	9437.04
667.13	17555.19
667.32	22730.41
667.51	26160.75
667.69	27641.43
667.88	24637.06
668.07	17334.01
668.25	14231.33
668.44	11935.56
668.63	10131.30
668.81	9135.99
669.00	7974.79
669.19	7094.16
669.38	6037.41
669.56	5183.41
669.75	4349.89
669.94	3854.28
670.12	3246.03
670.31	2965.46
670.50	2918.36
670.68	2754.52
670.87	2660.31
671.06	2523.10
671.24	2670.55
671.43	2725.85
671.62	2650.07
671.80	2420.70
671.99	2506.71
672.18	2537.43
672.36	2613.21
672.55	2641.88
672.74	2418.65
672.92	2490.33
673.11	2605.02
673.29	2394.08
673.48	2478.04
673.67	2449.37
673.85	2596.82
674.04	2369.50
674.23	2457.56
674.41	2699.22
674.60	2447.32
674.79	2402.27
674.97	2361.31
675.16	2572.25
675.34	2619.35
675.53	2463.71
675.72	2562.01
675.90	2697.17
676.09	2473.95
676.28	2570.20
676.46	2322.40
676.65	2547.67
676.83	2414.56
677.02	2461.66
677.21	2392.03
677.39	2482.14
677.58	2416.60
677.77	2494.43
677.95	2394.08
678.14	2516.95
678.32	2424.80
678.51	2408.41
678.70	2705.37
678.88	2426.84
679.07	2506.71
679.25	2447.32
679.44	2506.71
679.63	2303.96
679.81	2424.80
680.00	2621.40
680.18	2535.39
680.37	2742.23
680.55	2564.06
680.74	2318.30
680.93	2297.82
681.11	2523.10
681.30	2432.99
681.48	2508.76
681.67	2475.99
681.85	2478.04
682.04	2488.28
682.23	2539.48
682.41	2512.86
682.60	2469.85
682.78	2441.18
682.97	2324.44
683.15	2473.95
683.34	2459.61
683.53	2670.55
683.71	2301.92
683.90	2555.86
684.08	2752.47
684.27	2351.07
684.45	2480.09
684.64	2609.11
684.82	2455.51
685.01	2621.40
685.19	2439.13
685.38	2590.68
685.57	2482.14
685.75	2432.99
685.94	2385.88
686.12	2363.36
686.31	2367.45
686.49	2670.55
686.68	2271.20
686.86	2576.34
687.05	2461.66
687.23	2605.02
687.42	2408.41
687.60	2248.67
687.79	2588.63
687.97	2619.35
688.16	2541.53
688.34	2652.12
688.53	2322.40
688.71	2490.33
688.90	2629.59
689.08	2367.45
689.27	2263.01
689.45	2592.73
689.64	2592.73
689.82	2580.44
690.01	2545.63
690.19	2486.23
690.38	2447.32
690.56	2588.63
690.75	2478.04
690.93	2414.56
691.12	2471.90
691.30	2389.98
691.49	2426.84
691.67	2449.37
691.86	2680.79
692.04	2389.98
692.23	2441.18
692.41	2527.19
692.60	2846.68
692.78	2715.61
692.97	2588.63
693.15	2588.63
693.34	2680.79
693.52	2654.17
693.71	2430.94
693.89	2432.99
694.08	2228.19
694.26	2531.29
694.44	2619.35
694.63	2525.15
694.81	2342.88
695.00	2416.60
695.18	2652.12
695.37	2734.04
695.55	2498.52
695.74	2455.51
695.92	2410.46
696.10	2643.93
696.29	2351.07
696.47	2408.41
696.66	2316.25
696.84	2443.23
697.03	2424.80
697.21	2750.42
697.40	3780.55
697.58	2635.74
697.76	2357.21
697.95	2404.32
698.13	2303.96
698.32	2344.92
698.50	2480.09
698.68	2559.96
698.87	2566.10
699.05	2643.93
699.24	2480.09
699.42	2310.11
699.61	2547.67
699.79	2418.65
699.97	2465.75
700.16	2308.06
700.34	2299.87
700.53	2557.91
700.71	2664.41
700.89	2617.30
701.08	2449.37
701.26	2551.77
701.45	3043.28
701.63	2408.41
701.81	2432.99
702.00	2357.21
702.18	2453.47
702.37	2449.37
702.55	2637.78
702.73	2588.63
702.92	2600.92
703.10	2795.48
703.28	2691.03
703.47	2486.23
703.65	2645.98
703.84	2621.40
704.02	2416.60
704.20	2711.51
704.39	2488.28
704.57	2506.71
704.75	2662.36
704.94	2588.63
705.12	2578.39
705.30	2930.64
705.49	5511.08
705.67	12531.52
705.86	20418.25
706.04	24100.50
706.22	27582.04
706.41	27895.38
706.59	22613.67
706.77	16437.00
706.96	13844.27
707.14	12089.16
707.32	10516.32
707.51	9262.96
707.69	7600.01
707.87	6102.95
708.06	4900.79
708.24	4063.17
708.42	3342.28
708.61	3274.70
708.79	2723.80
708.97	2672.60
709.16	2648.02
709.34	2602.97
709.52	2482.14
709.71	2535.39
709.89	2570.20
710.07	2375.64
710.26	2402.27
710.44	2453.47
710.62	2625.50
710.80	2461.66
710.99	2562.01
711.17	2627.54
711.35	2449.37
711.54	2432.99
711.72	2658.26
711.90	2549.72
712.09	2525.15
712.27	2334.68
712.45	2512.86
712.63	2428.89
712.82	2564.06
713.00	2486.23
713.18	2535.39
713.37	2529.24
713.55	2596.82
713.73	2531.29
713.91	2607.06
714.10	2377.69
714.28	2514.91
714.46	2617.30
714.65	2488.28
714.83	2545.63
715.01	2512.86
715.19	2553.82
715.38	2414.56
715.56	2531.29
715.74	2389.98
715.92	2432.99
716.11	2621.40
716.29	2195.42
716.47	2482.14
716.65	2510.81
716.84	2330.59
717.02	2504.67
717.20	2195.42
717.38	2420.70
717.57	2459.61
717.75	2510.81
717.93	2449.37
718.11	2551.77
718.30	2326.49
718.48	2531.29
718.66	2580.44
718.84	2570.20
719.03	2521.05
719.21	2316.25
719.39	2676.70
719.57	2519.00
719.75	2543.58
719.94	2344.92
720.12	2455.51
720.30	2490.33
720.48	2605.02
720.67	2441.18
720.85	2379.74
721.03	2377.69
721.21	2363.36
721.39	2551.77
721.58	2570.20
721.76	2465.75
721.94	2531.29
722.12	2465.75
722.30	2629.59
722.49	2369.50
722.67	2471.90
722.85	2422.75
723.03	2301.92
723.21	2396.12
723.40	2492.38
723.58	2602.97
723.76	2578.39
723.94	2717.65
724.12	2506.71
724.30	2682.84
724.49	2652.12
724.67	2400.22
724.85	2658.26
725.03	2371.55
725.21	2547.67
725.40	2611.16
725.58	2324.44
725.76	2602.97
725.94	2502.62
726.12	2367.45
726.30	2498.52
726.49	2432.99
726.67	2453.47
726.85	2588.63
727.03	2918.36
727.21	4233.15
727.39	5816.23
727.57	6533.02
727.76	7206.80
727.94	7446.41
728.12	6836.12
728.30	5529.52
728.48	4820.92
728.66	4515.77
728.84	4177.86
729.03	3465.16
729.21	3129.30
729.39	2949.08
729.57	2809.81
729.75	2678.74
729.93	2578.39
730.11	2447.32
730.30	2490.33
730.48	2492.38
730.66	2652.12
730.84	2637.78
731.02	2463.71
731.20	2486.23
731.38	2480.09
731.56	2326.49
731.74	2285.53
731.93	2490.33
732.11	2506.71
732.29	2406.36
732.47	2578.39
732.65	2531.29
732.83	2586.58
733.01	2529.24
733.19	2324.44
733.37	2557.91
733.56	2484.19
733.74	2480.09
733.92	2658.26
734.10	2418.65
734.28	2588.63
734.46	2242.53
734.64	2478.04
734.82	2398.17
735.00	2359.26
735.18	2424.80
735.36	2430.94
735.54	2475.99
735.73	2498.52
735.91	2537.43
736.09	2584.54
736.27	2461.66
736.45	2537.43
736.63	2275.29
736.81	2408.41
736.99	2650.07
737.17	2652.12
737.35	2408.41
737.53	2553.82
737.71	2416.60
737.89	2607.06
738.07	2457.56
738.25	2389.98
738.43	2349.02
738.61	2383.84
738.80	2371.55
738.98	2357.21
739.16	2449.37
739.34	2424.80
739.52	2641.88
739.70	2478.04
739.88	2572.25
740.06	2588.63
740.24	2232.29
740.42	2643.93
740.60	2236.38
740.78	2453.47
740.96	2172.89
741.14	2402.27
741.32	2557.91
741.50	2269.15
741.68	2711.51
741.86	2586.58
742.04	2398.17
742.22	2340.83
742.40	2478.04
742.58	2555.86
742.76	2367.45
742.94	2541.53
743.12	2306.01
743.30	2471.90
743.48	2578.39
743.66	2303.96
743.84	2547.67
744.02	2359.26
744.20	2428.89
744.38	2383.84
744.56	2398.17
744.74	2656.22
744.92	2514.91
745.10	2678.74
745.28	2533.34
745.46	2668.50
745.64	2432.99
745.82	2539.48
746.00	2490.33
746.18	2537.43
746.36	2355.16
746.54	2488.28
746.72	2441.18
746.90	2371.55
747.08	2668.50
747.26	2426.84
747.44	2547.67
747.62	2512.86
747.80	2475.99
747.98	2529.24
748.15	2422.75
748.33	2693.08
748.51	2498.52
748.69	2564.06
748.87	2373.60
749.05	2490.33
749.23	2424.80
749.41	2488.28
749.59	2412.51
749.77	2617.30
749.95	2357.21
750.13	2435.03
750.31	2576.34
750.49	2441.18
750.67	2555.86
750.85	2564.06
751.03	2445.27
751.20	2777.05
751.38	2543.58
751.56	2453.47
751.74	2389.98
751.92	2473.95
752.10	2363.36
752.28	2580.44
752.46	2404.32
752.64	2486.23
752.82	2490.33
753.00	2588.63
753.18	2400.22
753.35	2437.08
753.53	2547.67
753.71	2441.18
753.89	2543.58
754.07	2537.43
754.25	2578.39
754.43	2498.52
754.61	2359.26
754.79	2572.25
754.97	2422.75
755.14	2590.68
755.32	2324.44
755.50	2494.43
755.68	2414.56
755.86	2351.07
756.04	2418.65
756.22	2260.96
756.40	2578.39
756.57	2760.66
756.75	2410.46
756.93	2650.07
757.11	2625.50
757.29	2316.25
757.47	2357.21
757.65	2226.14
757.82	2260.96
758.00	2324.44
758.18	2373.60
758.36	2424.80
758.54	2684.89
758.72	2295.77
758.90	2535.39
759.07	2609.11
759.25	2334.68
759.43	2486.23
759.61	2338.78
759.79	3559.37
759.97	2545.63
760.15	2406.36
760.32	2416.60
760.50	2531.29
760.68	2654.17
760.86	2318.30
761.04	2598.87
761.22	2602.97
761.39	2502.62
761.57	2469.85
761.75	2408.41
761.93	2588.63
762.11	2473.95
762.28	2512.86
762.46	2367.45
762.64	2539.48
762.82	2361.31
763.00	2496.47
763.18	2531.29
763.35	2416.60
763.53	2527.19
763.71	2488.28
763.89	2394.08
764.07	2467.80
764.24	2432.99
764.42	2529.24
764.60	2430.94
764.78	2527.19
764.96	2617.30
765.13	2633.69
765.31	2400.22
765.49	2576.34
765.67	2381.79
765.84	2404.32
766.02	2318.30
766.20	2359.26
766.38	2508.76
766.56	2541.53
766.73	2553.82
766.91	2525.15
767.09	2441.18
767.27	2539.48
767.44	2420.70
767.62	2643.93
767.80	2490.33
767.98	2389.98
768.15	2449.37
768.33	2645.98
768.51	2531.29
768.69	2568.15
768.87	2527.19
769.04	2402.27
769.22	2777.05
769.40	2621.40
769.58	2637.78
769.75	2572.25
769.93	2652.12
770.11	2398.17
770.28	2336.73
770.46	2580.44
770.64	2465.75
770.82	2533.34
770.99	2414.56
771.17	2471.90
771.35	2420.70
771.53	2486.23
771.70	2297.82
771.88	2594.78
772.06	2531.29
772.23	2389.98
772.41	2496.47
772.59	2459.61
772.77	2385.88
772.94	2490.33
773.12	2435.03
773.30	2439.13
773.47	2492.38
773.65	2332.64
773.83	2590.68
774.01	2494.43
774.18	2289.63
774.36	2457.56
774.54	2342.88
774.71	2553.82
774.89	2351.07
775.07	2295.77
775.24	2457.56
775.42	2422.75
775.60	2695.13
775.78	2349.02
775.95	2301.92
776.13	2279.39
776.31	2242.53
776.48	2539.48
776.66	2613.21
776.84	2404.32
777.01	2447.32
777.19	2310.11
777.37	2342.88
777.54	2572.25
777.72	2734.04
777.90	2408.41
778.07	2375.64
778.25	2871.25
778.43	2615.26
778.60	2482.14
778.78	2512.86
778.96	2531.29
779.13	2320.35
779.31	2508.76
779.49	2416.60
779.66	2523.10
779.84	2381.79
780.01	2428.89
780.19	2355.16
780.37	2641.88
780.54	2523.10
780.72	2299.87
780.90	2387.93
781.07	2469.85
781.25	2486.23
781.43	2455.51
781.60	2471.90
781.78	2568.15
781.95	2471.90
782.13	2414.56
782.31	2445.27
782.48	2287.58
782.66	2424.80
782.83	2674.65
783.01	2473.95
783.19	2539.48
783.36	2490.33
783.54	2473.95
783.72	2535.39
783.89	2387.93
784.07	2521.05
784.24	2473.95
784.42	2547.67
784.60	2600.92
784.77	2512.86
784.95	2299.87
785.12	2412.51
785.30	2432.99
785.47	2412.51
785.65	2359.26
785.83	2461.66
786.00	2361.31
786.18	2480.09
786.35	2387.93
786.53	2310.11
786.71	2580.44
786.88	2484.19
787.06	2492.38
787.23	2461.66
787.41	2344.92
787.58	2445.27
787.76	2369.50
787.94	2486.23
788.11	2488.28
788.29	2361.31
788.46	2430.94
788.64	2342.88
788.81	2445.27
788.99	2351.07
789.16	2375.64
789.34	2424.80
789.52	2449.37
789.69	2387.93
789.87	2260.96
790.04	2445.27
790.22	2482.14
790.39	2791.38
790.57	2387.93
790.74	2381.79
790.92	2621.40
791.09	2295.77
791.27	2410.46
791.44	2508.76
791.62	2428.89
791.79	2584.54
791.97	2484.19
792.15	2779.09
792.32	2473.95
792.50	2525.15
792.67	2637.78
792.85	2656.22
793.02	2398.17
793.20	2432.99
793.37	2285.53
793.55	2400.22
793.72	2342.88
793.90	2531.29
794.07	2410.46
794.25	2355.16
794.42	2521.05
794.60	2478.04
794.77	2463.71
794.95	2529.24
795.12	2539.48
795.30	2496.47
795.47	2277.34
795.65	2779.09
795.82	2537.43
796.00	2404.32
796.17	2396.12
796.34	2357.21
796.52	2506.71
796.69	2510.81
796.87	2504.67
797.04	2463.71
797.22	2465.75
797.39	2537.43
797.57	2551.77
797.74	2506.71
797.92	2494.43
798.09	2398.17
798.27	2623.45
798.44	2414.56
798.62	2443.23
798.79	2498.52
798.96	2465.75
799.14	2412.51
799.31	2752.47
799.49	2488.28
799.66	2392.03
799.84	2498.52
800.01	2291.68
800.19	2482.14
800.36	2320.35
800.53	2521.05
800.71	2529.24
800.88	2691.03
801.06	2414.56
801.23	2351.07
801.41	2449.37
801.58	2428.89
801.75	2359.26
801.93	2529.24
802.10	2576.34
802.28	2498.52
802.45	2402.27
802.63	2512.86
802.80	2658.26
802.97	2455.51
803.15	2408.41
803.32	2379.74
803.50	2394.08
803.67	2377.69
803.84	2357.21
804.02	2512.86
804.19	2408.41
804.37	2127.84
804.54	2324.44
804.71	2389.98
804.89	2432.99
805.06	2451.42
805.24	2340.83
805.41	2197.47
805.58	2404.32
805.76	2775.00
805.93	2447.32
806.10	2662.36
806.28	2525.15
806.45	2455.51
806.63	2478.04
806.80	2459.61
806.97	2516.95
807.15	2418.65
807.32	2496.47
807.49	2451.42
807.67	2338.78
807.84	2506.71
808.01	2334.68
808.19	2748.37
808.36	2713.56
808.54	2392.03
808.71	2349.02
808.88	2396.12
809.06	2615.26
809.23	2668.50
809.40	2369.50
809.58	2512.86
809.75	2519.00
809.92	2310.11
810.10	2723.80
810.27	2428.89
810.44	2486.23
810.62	2609.11
810.79	2424.80
810.96	2424.80
811.14	2432.99
811.31	2596.82
811.48	2555.86
811.66	2457.56
811.83	2639.83
812.00	2582.49
812.18	2484.19
812.35	2709.46
812.52	2392.03
812.69	2463.71
812.87	2408.41
813.04	2322.40
813.21	2449.37
813.39	2404.32
813.56	2375.64
813.73	2508.76
813.91	2291.68
814.08	2463.71
814.25	2541.53
814.42	2291.68
814.60	2414.56
814.77	2492.38
814.94	2478.04
815.12	2562.01
815.29	2609.11
815.46	2449.37
815.63	2502.62
815.81	2457.56
815.98	2457.56
816.15	2478.04
816.33	2465.75
816.50	2443.23
816.67	2439.13
816.84	2449.37
817.02	2318.30
817.19	2432.99
817.36	2523.10
817.53	2510.81
817.71	2316.25
817.88	2580.44
818.05	2461.66
818.22	2416.60
818.40	2619.35
818.57	2430.94
818.74	2519.00
818.91	2439.13
819.09	2484.19
819.26	2545.63
819.43	2394.08
819.60	2394.08
819.78	2572.25
819.95	2496.47
820.12	2346.97
820.29	2699.22
820.47	2547.67
820.64	2441.18
820.81	2338.78
820.98	2387.93
821.15	2465.75
821.33	2553.82
821.50	2260.96
821.67	2537.43
821.84	2416.60
822.02	2510.81
822.19	2541.53
822.36	2416.60
822.53	2449.37
822.70	2308.06
822.88	2437.08
823.05	2680.79
823.22	2447.32
823.39	2535.39
823.56	2465.75
823.74	2641.88
823.91	2363.36
824.08	2355.16
824.25	2310.11
824.42	2695.13
824.60	2334.68
824.77	2551.77
824.94	2443.23
825.11	2580.44
825.28	2279.39
825.45	2455.51
825.63	2516.95
825.80	2328.54
825.97	2547.67
826.14	2453.47
826.31	2207.71
826.48	2469.85
826.66	2379.74
826.83	2369.50
827.00	2447.32
827.17	2369.50
827.34	2482.14
827.51	2404.32
827.69	2465.75
827.86	2314.20
828.03	2428.89
828.20	2498.52
828.37	2408.41
828.54	2463.71
828.71	2412.51
828.89	2582.49
829.06	2473.95
829.23	2719.70
829.40	2404.32
829.57	2449.37
829.74	2488.28
829.91	2392.03
830.09	2359.26
830.26	2457.56
830.43	2695.13
830.60	2394.08
830.77	2521.05
830.94	2639.83
831.11	2654.17
831.28	2443.23
831.46	2564.06
831.63	2410.46
831.80	2637.78
831.97	2396.12
832.14	2441.18
832.31	2410.46
832.48	2504.67
832.65	2580.44
832.82	2482.14
832.99	2547.67
833.17	2361.31
833.34	2719.70
833.51	2457.56
833.68	2263.01
833.85	2639.83
834.02	2373.60
834.19	2357.21
834.36	2404.32
834.53	2543.58
834.70	2607.06
834.87	2494.43
835.04	2269.15
835.22	2306.01
835.39	2336.73
835.56	2279.39
835.73	2387.93
835.90	2660.31
836.07	2346.97
836.24	2512.86
836.41	2289.63
836.58	2422.75
836.75	2582.49
836.92	2389.98
837.09	2340.83
837.26	2613.21
837.43	2574.30
837.60	2406.36
837.77	2365.40
837.94	2596.82
838.12	2621.40
838.29	2412.51
838.46	2269.15
838.63	2330.59
838.80	2695.13
838.97	2383.84
839.14	2449.37
839.31	2478.04
839.48	2570.20
839.65	2322.40
839.82	2447.32
839.99	2457.56
840.16	2428.89
840.33	2349.02
840.50	2389.98
840.67	2349.02
840.84	2244.57
841.01	2322.40
841.18	2322.40
841.35	2424.80
841.52	2584.54
841.69	2641.88
841.86	2418.65
842.03	2480.09
842.20	2539.48
842.37	2367.45
842.54	2355.16
842.71	2404.32
842.88	2328.54
843.05	2447.32
843.22	2410.46
843.39	2498.52
843.56	2412.51
843.73	2381.79
843.90	2465.75
844.07	2471.90
844.24	2523.10
844.41	2430.94
844.58	2437.08
844.75	2400.22
844.92	2494.43
845.09	2361.31
845.26	2361.31
845.43	2521.05
845.60	2424.80
845.77	2541.53
845.94	2508.76
846.10	2600.92
846.27	2299.87
846.44	2326.49
846.61	2355.16
846.78	2643.93
846.95	2568.15
847.12	2379.74
847.29	2400.22
847.46	2301.92
847.63	2559.96
847.80	2375.64
847.97	2297.82
848.14	2797.53
848.31	2494.43
848.48	2306.01
848.65	2396.12
848.82	2408.41
848.98	2775.00
849.15	2422.75
849.32	2496.47
849.49	2670.55
849.66	2506.71
849.83	2396.12
850.00	2293.72
850.17	2521.05
850.34	2465.75
850.51	2291.68
850.68	2365.40
850.85	2742.23
851.01	2473.95
851.18	2455.51
851.35	2453.47
851.52	2494.43
851.69	2711.51
851.86	2291.68
852.03	2289.63
852.20	2607.06
852.37	2475.99
852.53	2265.05
852.70	2459.61
852.87	2439.13
853.04	2480.09
853.21	2361.31
853.38	2627.54
853.55	2572.25
853.72	2566.10
853.89	2365.40
854.05	2351.07
854.22	2488.28
854.39	2414.56
854.56	2389.98
854.73	2537.43
854.90	2365.40
855.07	2488.28
855.23	2330.59
855.40	2365.40
855.57	2469.85
855.74	2240.48
855.91	2555.86
856.08	2267.10
856.25	2330.59
856.41	2369.50
856.58	2381.79
856.75	2357.21
856.92	2291.68
857.09	2588.63
857.26	2316.25
857.42	2385.88
857.59	2576.34
857.76	2408.41
857.93	2375.64
858.10	2519.00
858.27	2306.01
858.43	2537.43
858.60	2346.97
858.77	2320.35
858.94	2498.52
859.11	2596.82
859.27	2303.96
859.44	2316.25
859.61	2715.61
859.78	2611.16
859.95	2306.01
860.12	2334.68
860.28	2764.76
860.45	2762.71
860.62	2367.45
860.79	2432.99
860.95	2400.22
861.12	2355.16
861.29	2363.36
861.46	2342.88
861.63	2439.13
861.79	2473.95
861.96	2336.73
862.13	2297.82
862.30	2596.82
862.47	2441.18
862.63	2263.01
862.80	2523.10
862.97	2572.25
863.14	2521.05
863.30	2383.84
863.47	2285.53
863.64	2670.55
863.81	2539.48
863.97	2365.40
864.14	2371.55
864.31	2432.99
864.48	2525.15
864.65	2328.54
864.81	2504.67
864.98	2516.95
865.15	2588.63
865.32	2467.80
865.48	2498.52
865.65	2766.81
865.82	2320.35
865.98	2408.41
866.15	2480.09
866.32	2473.95
866.49	2355.16
866.65	2562.01
866.82	2396.12
866.99	2535.39
867.16	2420.70
867.32	2334.68
867.49	2326.49
867.66	2471.90
867.83	2359.26
867.99	2283.49
868.16	2416.60
868.33	2420.70
868.49	2480.09
868.66	2424.80
868.83	2525.15
868.99	2469.85
869.16	2457.56
869.33	2504.67
869.50	2473.95
869.66	2504.67
869.83	2416.60
870.00	2306.01
870.16	2521.05
870.33	2445.27
870.50	2504.67
870.66	2400.22
870.83	2480.09
871.00	2465.75
871.17	2459.61
871.33	2412.51
871.50	2340.83
871.67	2482.14
871.83	2293.72
872.00	2510.81
872.17	2351.07
872.33	2691.03
872.50	2627.54
872.67	2365.40
872.83	2400.22
873.00	2510.81
873.17	2422.75
873.33	2445.27
873.50	2392.03
873.67	2330.59
873.83	2422.75
874.00	2420.70
874.16	2525.15
874.33	2461.66
874.50	2301.92
874.66	2387.93
874.83	2408.41
875.00	2574.30
875.16	2498.52
875.33	2478.04
875.50	2228.19
875.66	2473.95
875.83	2459.61
875.99	2502.62
876.16	2457.56
876.33	2351.07
876.49	2471.90
876.66	2422.75
876.83	2363.36
876.99	2263.01
877.16	2412.51
877.32	2392.03
877.49	2357.21
877.66	2506.71
877.82	2645.98
877.99	2426.84
878.15	2537.43
878.32	2449.37
878.49	2478.04
878.65	2428.89
878.82	2578.39
878.98	2373.60
879.15	2643.93
879.32	2463.71
879.48	2437.08
879.65	2443.23
879.81	2455.51
879.98	2439.13
880.15	2412.51
880.31	2609.11
880.48	2373.60
880.64	2596.82
880.81	2494.43
880.97	2674.65
881.14	2555.86
881.31	2301.92
881.47	2551.77
881.64	2494.43
881.80	2330.59
881.97	2519.00
882.13	2521.05
882.30	2316.25
882.47	2308.06
882.63	2355.16
882.80	2367.45
882.96	2482.14
883.13	2652.12
883.29	2363.36
883.46	2377.69
883.62	2703.32
883.79	2510.81
883.95	2437.08
884.12	2398.17
884.29	2570.20
884.45	2478.04
884.62	2447.32
884.78	2344.92
884.95	2566.10
885.11	2359.26
885.28	2502.62
885.44	2439.13
885.61	2490.33
885.77	2539.48
885.94	2519.00
886.10	2402.27
886.27	2543.58
886.43	2678.74
886.60	2555.86
886.76	2449.37
886.93	2324.44
887.09	2555.86
887.26	2326.49
887.42	2467.80
887.59	2588.63
887.75	2731.99
887.92	2557.91
888.08	2555.86
888.25	2713.56
888.41	2611.16
888.58	2465.75
888.74	2420.70
888.91	2445.27
>>>>>End Processed Spectral Data<<<<<
