SpectraSuite Data File
++++++++++++++++++++++++++++++++++++
Date: Thu May 05 14:41:58 CEST 2016
User: root
Dark Spectrum Present: No
Reference Spectrum Present: No
Number of Sampled Component Spectra: 1
Spectrometers: USB4C02835
Integration Time (usec): 100000 (USB4C02835)
Spectra Averaged: 1 (USB4C02835)
Boxcar Smoothing: 0 (USB4C02835)
Correct for Electrical Dark: No (USB4C02835)
Strobe/Lamp Enabled: No (USB4C02835)
Correct for Detector Non-linearity: No (USB4C02835)
Correct for Stray Light: No (USB4C02835)
Number of Pixels in Processed Spectrum: 3648
>>>>>Begin Processed Spectral Data<<<<<
177.47	1927.14
177.69	1927.14
177.91	1927.14
178.13	1867.75
178.36	1898.47
178.58	2310.11
178.80	2537.43
179.02	2297.82
179.24	2394.08
179.46	2301.92
179.68	2490.33
179.90	2430.94
180.13	2449.37
180.35	2238.43
180.57	2308.06
180.79	2594.78
181.01	2500.57
181.23	2424.80
181.45	2465.75
181.67	2555.86
181.90	2559.96
182.12	2248.67
182.34	2238.43
182.56	2588.63
182.78	2502.62
183.00	2308.06
183.22	2349.02
183.44	2328.54
183.66	2801.62
183.89	2463.71
184.11	2387.93
184.33	2490.33
184.55	2650.07
184.77	2334.68
184.99	2365.40
185.21	2439.13
185.43	2801.62
185.65	2275.29
185.87	2316.25
186.10	2754.52
186.32	2772.95
186.54	2420.70
186.76	2387.93
186.98	2674.65
187.20	2432.99
187.42	2408.41
187.64	2404.32
187.86	2619.35
188.08	2623.45
188.30	2306.01
188.52	2424.80
188.75	2586.58
188.97	2625.50
189.19	2265.05
189.41	2297.82
189.63	2498.52
189.85	2349.02
190.07	2207.71
190.29	2234.33
190.51	2594.78
190.73	2338.78
190.95	2512.86
191.17	2424.80
191.39	2242.53
191.61	2443.23
191.84	2349.02
192.06	2435.03
192.28	2355.16
192.50	2822.10
192.72	2346.97
192.94	2435.03
193.16	2621.40
193.38	2455.51
193.60	2287.58
193.82	2330.59
194.04	2627.54
194.26	2504.67
194.48	2357.21
194.70	2340.83
194.92	2365.40
195.14	2574.30
195.36	2269.15
195.58	2375.64
195.80	2514.91
196.02	2351.07
196.24	2338.78
196.46	2387.93
196.69	2459.61
196.91	2801.62
197.13	2430.94
197.35	2297.82
197.57	2674.65
197.79	2570.20
198.01	2396.12
198.23	2445.27
198.45	2475.99
198.67	2293.72
198.89	2301.92
199.11	2351.07
199.33	2449.37
199.55	2303.96
199.77	2363.36
199.99	2381.79
200.21	2473.95
200.43	2559.96
200.65	2293.72
200.87	2093.02
201.09	2510.81
201.31	2459.61
201.53	2539.48
201.75	2371.55
201.97	2482.14
202.19	2555.86
202.41	2523.10
202.63	2543.58
202.85	2617.30
203.07	2527.19
203.29	2371.55
203.51	2207.71
203.73	2389.98
203.95	2803.67
204.17	2338.78
204.39	2500.57
204.61	2414.56
204.83	2416.60
205.05	2402.27
205.27	2355.16
205.49	2818.00
205.71	2465.75
205.93	2248.67
206.15	2303.96
206.37	2506.71
206.59	2480.09
206.81	2199.52
207.03	2283.49
207.25	2367.45
207.47	2539.48
207.69	2367.45
207.91	2562.01
208.13	2643.93
208.34	2361.31
208.56	2285.53
208.78	2322.40
209.00	2484.19
209.22	2439.13
209.44	2365.40
209.66	2312.16
209.88	2490.33
210.10	2488.28
210.32	2308.06
210.54	2451.42
210.76	2498.52
210.98	2645.98
211.20	2224.09
211.42	2453.47
211.64	2613.21
211.86	2545.63
212.08	2414.56
212.30	2412.51
212.52	2412.51
212.74	2523.10
212.96	2367.45
213.17	2441.18
213.39	2605.02
213.61	2674.65
213.83	2252.77
214.05	2320.35
214.27	2643.93
214.49	2367.45
214.71	2312.16
214.93	2514.91
215.15	2490.33
215.37	2551.77
215.59	2275.29
215.81	2381.79
216.03	2594.78
216.24	2498.52
216.46	2332.64
216.68	2424.80
216.90	2514.91
217.12	2519.00
217.34	2297.82
217.56	2449.37
217.78	2693.08
218.00	2539.48
218.22	2404.32
218.44	2379.74
218.66	2478.04
218.87	2744.28
219.09	2308.06
219.31	2371.55
219.53	2627.54
219.75	2439.13
219.97	2330.59
220.19	2414.56
220.41	2422.75
220.63	2658.26
220.85	2303.96
221.06	2383.84
221.28	2576.34
221.50	2559.96
221.72	2297.82
221.94	2334.68
222.16	2533.34
222.38	2551.77
222.60	2320.35
222.82	2373.60
223.03	2580.44
223.25	2396.12
223.47	2424.80
223.69	2512.86
223.91	2549.72
224.13	2564.06
224.35	2295.77
224.57	2516.95
224.78	2588.63
225.00	2291.68
225.22	2359.26
225.44	2236.38
225.66	2594.78
225.88	2387.93
226.10	2416.60
226.32	2392.03
226.53	2572.25
226.75	2453.47
226.97	2367.45
227.19	2291.68
227.41	2357.21
227.63	2396.12
227.85	2234.33
228.06	2371.55
228.28	2584.54
228.50	2615.26
228.72	2213.85
228.94	2310.11
229.16	2199.52
229.37	2363.36
229.59	2234.33
229.81	2523.10
230.03	2383.84
230.25	2312.16
230.47	2283.49
230.69	2318.30
230.90	2584.54
231.12	2404.32
231.34	2490.33
231.56	2445.27
231.78	2336.73
232.00	2545.63
232.21	2389.98
232.43	2406.36
232.65	2332.64
232.87	2482.14
233.09	2346.97
233.30	2367.45
233.52	2621.40
233.74	2408.41
233.96	2373.60
234.18	2416.60
234.40	2432.99
234.61	2662.36
234.83	2234.33
235.05	2301.92
235.27	2799.57
235.49	2600.92
235.70	2260.96
235.92	2473.95
236.14	2539.48
236.36	2701.27
236.58	2113.50
236.79	2443.23
237.01	2432.99
237.23	2473.95
237.45	2555.86
237.67	2318.30
237.88	2496.47
238.10	2643.93
238.32	2312.16
238.54	2365.40
238.76	2381.79
238.97	2351.07
239.19	2277.34
239.41	2379.74
239.63	2605.02
239.85	2465.75
240.06	2392.03
240.28	2301.92
240.50	2619.35
240.72	2471.90
240.93	2338.78
241.15	2408.41
241.37	2508.76
241.59	2672.60
241.81	2342.88
242.02	2355.16
242.24	2437.08
242.46	2662.36
242.68	2244.57
242.89	2334.68
243.11	2547.67
243.33	2414.56
243.55	2324.44
243.76	2349.02
243.98	2400.22
244.20	2455.51
244.42	2334.68
244.64	2432.99
244.85	2328.54
245.07	2357.21
245.29	2326.49
245.51	2408.41
245.72	2525.15
245.94	2648.02
246.16	2379.74
246.38	2392.03
246.59	2404.32
246.81	2396.12
247.03	2334.68
247.24	2234.33
247.46	2445.27
247.68	2424.80
247.90	2297.82
248.11	2375.64
248.33	2555.86
248.55	2555.86
248.77	2432.99
248.98	2484.19
249.20	2686.94
249.42	2478.04
249.64	2498.52
249.85	2355.16
250.07	2469.85
250.29	2645.98
250.50	2408.41
250.72	2283.49
250.94	2475.99
251.16	2826.20
251.37	2359.26
251.59	2416.60
251.81	2547.67
252.02	2686.94
252.24	2334.68
252.46	2482.14
252.68	2412.51
252.89	2412.51
253.11	2174.94
253.33	2525.15
253.54	2738.13
253.76	2332.64
253.98	2301.92
254.20	2297.82
254.41	2349.02
254.63	2424.80
254.85	2242.53
255.06	2369.50
255.28	2506.71
255.50	2467.80
255.71	2322.40
255.93	2234.33
256.15	2445.27
256.36	2533.34
256.58	2293.72
256.80	2283.49
257.02	2482.14
257.23	2445.27
257.45	2441.18
257.67	2379.74
257.88	2416.60
258.10	2545.63
258.32	2332.64
258.53	2412.51
258.75	2660.31
258.97	2359.26
259.18	2287.58
259.40	2426.84
259.62	2736.09
259.83	2654.17
260.05	2392.03
260.27	2932.69
260.48	2592.73
260.70	2363.36
260.92	2332.64
261.13	2373.60
261.35	2574.30
261.57	2478.04
261.78	2226.14
262.00	2375.64
262.22	2631.64
262.43	2392.03
262.65	2353.12
262.86	2297.82
263.08	2760.66
263.30	2576.34
263.51	2228.19
263.73	2285.53
263.95	2717.65
264.16	2373.60
264.38	2277.34
264.60	2367.45
264.81	2428.89
265.03	2549.72
265.25	2519.00
265.46	2308.06
265.68	2625.50
265.89	2609.11
266.11	2242.53
266.33	2361.31
266.54	2656.22
266.76	2523.10
266.98	2406.36
267.19	2484.19
267.41	2678.74
267.62	2463.71
267.84	2226.14
268.06	2447.32
268.27	2541.53
268.49	2658.26
268.70	2457.56
268.92	2355.16
269.14	2430.94
269.35	2359.26
269.57	2381.79
269.79	2414.56
270.00	2375.64
270.22	2641.88
270.43	2293.72
270.65	2222.05
270.87	2514.91
271.08	2553.82
271.30	2432.99
271.51	2404.32
271.73	2492.38
271.95	2605.02
272.16	2357.21
272.38	2498.52
272.59	2351.07
272.81	2568.15
273.02	2349.02
273.24	2392.03
273.46	2670.55
273.67	2293.72
273.89	2340.83
274.10	2342.88
274.32	2586.58
274.54	2537.43
274.75	2439.13
274.97	2428.89
275.18	2576.34
275.40	2611.16
275.61	2351.07
275.83	2455.51
276.05	2402.27
276.26	2449.37
276.48	2533.34
276.69	2383.84
276.91	2412.51
277.12	2562.01
277.34	2469.85
277.55	2519.00
277.77	2504.67
277.99	2473.95
278.20	2367.45
278.42	2318.30
278.63	2387.93
278.85	2439.13
279.06	2326.49
279.28	2549.72
279.49	2564.06
279.71	2572.25
279.93	2463.71
280.14	2457.56
280.36	2367.45
280.57	2545.63
280.79	2412.51
281.00	2301.92
281.22	2402.27
281.43	2564.06
281.65	2193.37
281.86	2353.12
282.08	2461.66
282.29	2738.13
282.51	2277.34
282.73	2308.06
282.94	2353.12
283.16	2658.26
283.37	2559.96
283.59	2412.51
283.80	2523.10
284.02	2519.00
284.23	2482.14
284.45	2435.03
284.66	2408.41
284.88	2430.94
285.09	2377.69
285.31	2445.27
285.52	2584.54
285.74	2252.77
285.95	2574.30
286.17	2385.88
286.38	2637.78
286.60	2394.08
286.81	2406.36
287.03	2357.21
287.24	2455.51
287.46	2555.86
287.67	2426.84
287.89	2594.78
288.10	2422.75
288.32	2531.29
288.53	2613.21
288.75	2367.45
288.96	2543.58
289.18	2351.07
289.39	2357.21
289.61	2430.94
289.82	2795.48
290.04	2678.74
290.25	2260.96
290.47	2400.22
290.68	2414.56
290.90	2637.78
291.11	2285.53
291.33	2506.71
291.54	2359.26
291.76	2400.22
291.97	2465.75
292.18	2447.32
292.40	2400.22
292.61	2408.41
292.83	2654.17
293.04	2465.75
293.26	2539.48
293.47	2545.63
293.69	2277.34
293.90	2371.55
294.12	2627.54
294.33	2486.23
294.55	2424.80
294.76	2519.00
294.97	2637.78
295.19	2736.09
295.40	2457.56
295.62	2455.51
295.83	2596.82
296.05	2359.26
296.26	2611.16
296.48	2428.89
296.69	2488.28
296.90	2383.84
297.12	2475.99
297.33	2516.95
297.55	2469.85
297.76	2637.78
297.98	2521.05
298.19	2516.95
298.41	2510.81
298.62	2355.16
298.83	2559.96
299.05	2416.60
299.26	2469.85
299.48	2426.84
299.69	2512.86
299.90	2500.57
300.12	2394.08
300.33	2547.67
300.55	2490.33
300.76	2437.08
300.98	2342.88
301.19	2531.29
301.40	2375.64
301.62	2435.03
301.83	2418.65
302.05	2461.66
302.26	2375.64
302.47	2420.70
302.69	2349.02
302.90	2428.89
303.12	2236.38
303.33	2537.43
303.54	2629.59
303.76	2363.36
303.97	2369.50
304.19	2590.68
304.40	2408.41
304.61	2574.30
304.83	2658.26
305.04	2562.01
305.26	2502.62
305.47	2439.13
305.68	2480.09
305.90	2326.49
306.11	2674.65
306.33	2447.32
306.54	2430.94
306.75	2408.41
306.97	2310.11
307.18	2406.36
307.39	2408.41
307.61	2510.81
307.82	2475.99
308.04	2539.48
308.25	2308.06
308.46	2486.23
308.68	2531.29
308.89	2432.99
309.10	2531.29
309.32	2463.71
309.53	2453.47
309.74	2533.34
309.96	2355.16
310.17	2549.72
310.39	2357.21
310.60	2586.58
310.81	2420.70
311.03	2330.59
311.24	2521.05
311.45	2537.43
311.67	2639.83
311.88	2496.47
312.09	2478.04
312.31	2381.79
312.52	2357.21
312.73	2418.65
312.95	2428.89
313.16	2367.45
313.37	2631.64
313.59	2455.51
313.80	2539.48
314.01	2678.74
314.23	2441.18
314.44	2381.79
314.65	2332.64
314.87	2424.80
315.08	2404.32
315.29	2359.26
315.51	2416.60
315.72	2344.92
315.93	2537.43
316.15	2461.66
316.36	2416.60
316.57	2480.09
316.79	2455.51
317.00	2416.60
317.21	2539.48
317.43	2371.55
317.64	2441.18
317.85	2379.74
318.07	2297.82
318.28	2506.71
318.49	2660.31
318.70	2686.94
318.92	2600.92
319.13	2584.54
319.34	2639.83
319.56	2473.95
319.77	2588.63
319.98	2619.35
320.20	2645.98
320.41	2547.67
320.62	2602.97
320.83	2406.36
321.05	2668.50
321.26	2463.71
321.47	2488.28
321.69	2572.25
321.90	2285.53
322.11	2430.94
322.32	2490.33
322.54	2731.99
322.75	2340.83
322.96	2858.96
323.18	2334.68
323.39	2332.64
323.60	2416.60
323.81	2490.33
324.03	2361.31
324.24	2453.47
324.45	2445.27
324.66	2379.74
324.88	2559.96
325.09	2652.12
325.30	2359.26
325.52	2377.69
325.73	2615.26
325.94	2400.22
326.15	2306.01
326.37	2291.68
326.58	2527.19
326.79	2670.55
327.00	2414.56
327.22	2416.60
327.43	2414.56
327.64	2379.74
327.85	2512.86
328.07	2445.27
328.28	2719.70
328.49	2404.32
328.70	2457.56
328.92	2414.56
329.13	2504.67
329.34	2562.01
329.55	2619.35
329.76	2496.47
329.98	2441.18
330.19	2617.30
330.40	2449.37
330.61	2424.80
330.83	2549.72
331.04	2394.08
331.25	2435.03
331.46	2373.60
331.68	2398.17
331.89	2586.58
332.10	2424.80
332.31	2215.90
332.52	2455.51
332.74	2584.54
332.95	2265.05
333.16	2396.12
333.37	2645.98
333.58	2480.09
333.80	2441.18
334.01	2213.85
334.22	2480.09
334.43	2486.23
334.64	2381.79
334.86	2312.16
335.07	2334.68
335.28	2662.36
335.49	2297.82
335.70	2457.56
335.92	2736.09
336.13	2824.15
336.34	2435.03
336.55	2406.36
336.76	2570.20
336.98	2269.15
337.19	2412.51
337.40	2594.78
337.61	2760.66
337.82	2408.41
338.04	2473.95
338.25	2260.96
338.46	2482.14
338.67	2471.90
338.88	2342.88
339.09	2367.45
339.31	2439.13
339.52	2387.93
339.73	2277.34
339.94	2422.75
340.15	2586.58
340.36	2389.98
340.58	2473.95
340.79	2406.36
341.00	2531.29
341.21	2422.75
341.42	2551.77
341.63	2389.98
341.85	2617.30
342.06	2512.86
342.27	2377.69
342.48	2564.06
342.69	2316.25
342.90	2506.71
343.12	2539.48
343.33	2447.32
343.54	2611.16
343.75	2578.39
343.96	2523.10
344.17	2346.97
344.38	2453.47
344.60	2367.45
344.81	2367.45
345.02	2422.75
345.23	2625.50
345.44	2789.33
345.65	2455.51
345.86	2414.56
346.07	2490.33
346.29	2373.60
346.50	2500.57
346.71	2498.52
346.92	2707.41
347.13	2801.62
347.34	2392.03
347.55	2346.97
347.76	2453.47
347.98	2244.57
348.19	2445.27
348.40	2582.49
348.61	2465.75
348.82	2637.78
349.03	2447.32
349.24	2285.53
349.45	2699.22
349.66	2256.86
349.88	2346.97
350.09	2318.30
350.30	2686.94
350.51	2539.48
350.72	2521.05
350.93	2459.61
351.14	2445.27
351.35	2506.71
351.56	2400.22
351.77	2437.08
351.99	2578.39
352.20	2705.37
352.41	2568.15
352.62	2232.29
352.83	2467.80
353.04	2473.95
353.25	2453.47
353.46	2480.09
353.67	2621.40
353.88	2209.76
354.09	2416.60
354.30	2432.99
354.52	2543.58
354.73	2465.75
354.94	2334.68
355.15	2473.95
355.36	2736.09
355.57	2494.43
355.78	2396.12
355.99	2369.50
356.20	2463.71
356.41	2543.58
356.62	2453.47
356.83	2435.03
357.04	2678.74
357.25	2275.29
357.46	2383.84
357.68	2326.49
357.89	2349.02
358.10	2484.19
358.31	2420.70
358.52	2389.98
358.73	2324.44
358.94	2277.34
359.15	2369.50
359.36	2465.75
359.57	2514.91
359.78	2510.81
359.99	2455.51
360.20	2310.11
360.41	2469.85
360.62	2551.77
360.83	2447.32
361.04	2447.32
361.25	2531.29
361.46	2637.78
361.67	2498.52
361.88	2521.05
362.09	2686.94
362.30	2531.29
362.51	2453.47
362.72	2480.09
362.93	2674.65
363.14	2537.43
363.35	2406.36
363.56	2367.45
363.78	2580.44
363.99	2656.22
364.20	2367.45
364.41	2457.56
364.62	2754.52
364.83	2535.39
365.04	2449.37
365.25	2469.85
365.46	2756.57
365.67	2414.56
365.88	2486.23
366.09	2406.36
366.30	2318.30
366.51	2447.32
366.72	2318.30
366.93	2453.47
367.14	2453.47
367.35	2609.11
367.56	2389.98
367.77	2580.44
367.98	2451.42
368.18	2525.15
368.39	2449.37
368.60	2318.30
368.81	2539.48
369.02	2451.42
369.23	2389.98
369.44	2299.87
369.65	2422.75
369.86	2523.10
370.07	2531.29
370.28	2318.30
370.49	2523.10
370.70	2461.66
370.91	2281.44
371.12	2267.10
371.33	2578.39
371.54	2416.60
371.75	2588.63
371.96	2246.62
372.17	2482.14
372.38	2457.56
372.59	2543.58
372.80	2402.27
373.01	2412.51
373.22	2478.04
373.43	2492.38
373.64	2297.82
373.85	2611.16
374.06	2725.85
374.26	2551.77
374.47	2463.71
374.68	2633.69
374.89	2533.34
375.10	2316.25
375.31	2498.52
375.52	2465.75
375.73	2553.82
375.94	2326.49
376.15	2519.00
376.36	2453.47
376.57	2389.98
376.78	2430.94
376.99	2506.71
377.20	2676.70
377.40	2408.41
377.61	2699.22
377.82	2346.97
378.03	2654.17
378.24	2568.15
378.45	2480.09
378.66	2357.21
378.87	2318.30
379.08	2377.69
379.29	2424.80
379.50	2584.54
379.71	2467.80
379.91	2541.53
380.12	2447.32
380.33	2416.60
380.54	2490.33
380.75	2482.14
380.96	2496.47
381.17	2541.53
381.38	2414.56
381.59	2478.04
381.80	2381.79
382.00	2596.82
382.21	2588.63
382.42	2719.70
382.63	2736.09
382.84	2504.67
383.05	2576.34
383.26	2629.59
383.47	2459.61
383.68	2492.38
383.88	2541.53
384.09	2535.39
384.30	2691.03
384.51	2492.38
384.72	2445.27
384.93	2351.07
385.14	2430.94
385.35	2525.15
385.55	2314.20
385.76	2625.50
385.97	2422.75
386.18	2267.10
386.39	2371.55
386.60	2420.70
386.81	2363.36
387.02	2308.06
387.22	2363.36
387.43	2588.63
387.64	2547.67
387.85	2670.55
388.06	2613.21
388.27	4059.07
388.48	8206.21
388.68	12203.85
388.89	14528.29
389.10	15998.73
389.31	14751.52
389.52	11718.48
389.73	9992.04
389.93	9035.64
390.14	8411.01
390.35	7399.31
390.56	6526.88
390.77	5531.56
390.98	4265.92
391.18	3506.12
391.39	3063.76
391.60	2643.93
391.81	2576.34
392.02	2475.99
392.23	2762.71
392.43	2461.66
392.64	2584.54
392.85	2490.33
393.06	2652.12
393.27	2605.02
393.47	2406.36
393.68	2475.99
393.89	2437.08
394.10	2619.35
394.31	2375.64
394.52	2416.60
394.72	2398.17
394.93	2695.13
395.14	2396.12
395.35	2486.23
395.56	2387.93
395.76	2486.23
395.97	2449.37
396.18	2594.78
396.39	2611.16
396.60	2899.92
396.80	2748.37
397.01	2621.40
397.22	2711.51
397.43	2652.12
397.64	2449.37
397.84	2547.67
398.05	2729.94
398.26	2439.13
398.47	2572.25
398.67	2629.59
398.88	2459.61
399.09	2580.44
399.30	2408.41
399.51	2506.71
399.71	2441.18
399.92	2396.12
400.13	2412.51
400.34	2449.37
400.54	2465.75
400.75	2623.45
400.96	2400.22
401.17	2691.03
401.37	2559.96
401.58	2457.56
401.79	2414.56
402.00	2564.06
402.21	2807.77
402.41	2691.03
402.62	2834.39
402.83	2998.23
403.04	2856.92
403.24	3145.68
403.45	2586.58
403.66	2731.99
403.87	2666.46
404.07	2772.95
404.28	2744.28
404.49	2777.05
404.70	2510.81
404.90	2629.59
405.11	2547.67
405.32	2564.06
405.52	2377.69
405.73	2441.18
405.94	2389.98
406.15	2428.89
406.35	2598.87
406.56	2576.34
406.77	2457.56
406.98	2459.61
407.18	2332.64
407.39	2697.17
407.60	2463.71
407.80	2502.62
408.01	2355.16
408.22	2555.86
408.43	2396.12
408.63	2529.24
408.84	2621.40
409.05	2598.87
409.25	2346.97
409.46	2465.75
409.67	2420.70
409.88	2432.99
410.08	2539.48
410.29	2387.93
410.50	2506.71
410.70	2568.15
410.91	2342.88
411.12	2430.94
411.32	2463.71
411.53	2359.26
411.74	2551.77
411.95	2564.06
412.15	2531.29
412.36	2594.78
412.57	2527.19
412.77	2701.27
412.98	2531.29
413.19	2461.66
413.39	2445.27
413.60	2437.08
413.81	2641.88
414.01	2383.84
414.22	2443.23
414.43	2631.64
414.63	2457.56
414.84	2660.31
415.05	2471.90
415.25	2338.78
415.46	2621.40
415.67	2473.95
415.87	2457.56
416.08	2416.60
416.29	2473.95
416.49	2537.43
416.70	2359.26
416.91	2398.17
417.11	2449.37
417.32	2602.97
417.53	2672.60
417.73	2502.62
417.94	2484.19
418.15	2494.43
418.35	2461.66
418.56	2420.70
418.77	2748.37
418.97	2523.10
419.18	2449.37
419.38	2193.37
419.59	2488.28
419.80	2740.18
420.00	2346.97
420.21	2459.61
420.42	2641.88
420.62	2652.12
420.83	2320.35
421.04	2484.19
421.24	2406.36
421.45	2588.63
421.65	2596.82
421.86	2414.56
422.07	2570.20
422.27	2510.81
422.48	2430.94
422.69	2258.91
422.89	2519.00
423.10	2387.93
423.30	2351.07
423.51	2475.99
423.72	2580.44
423.92	2570.20
424.13	2273.25
424.33	2473.95
424.54	2574.30
424.75	2480.09
424.95	2609.11
425.16	2490.33
425.36	2482.14
425.57	2572.25
425.78	2508.76
425.98	2635.74
426.19	2457.56
426.39	2373.60
426.60	2410.46
426.81	2643.93
427.01	2469.85
427.22	2326.49
427.42	2289.63
427.63	2326.49
427.83	2617.30
428.04	2588.63
428.25	2555.86
428.45	2551.77
428.66	2654.17
428.86	2408.41
429.07	2424.80
429.28	2437.08
429.48	2484.19
429.69	2465.75
429.89	2543.58
430.10	2353.12
430.30	2490.33
430.51	2611.16
430.71	2310.11
430.92	2453.47
431.13	2367.45
431.33	2605.02
431.54	2525.15
431.74	2574.30
431.95	2674.65
432.15	2355.16
432.36	2449.37
432.56	2506.71
432.77	2717.65
432.98	2662.36
433.18	2490.33
433.39	2383.84
433.59	2418.65
433.80	2727.89
434.00	2639.83
434.21	2371.55
434.41	2498.52
434.62	2701.27
434.82	2351.07
435.03	2316.25
435.23	2570.20
435.44	2230.24
435.64	2512.86
435.85	2490.33
436.06	2564.06
436.26	2580.44
436.47	2437.08
436.67	2383.84
436.88	2435.03
437.08	2602.97
437.29	2629.59
437.49	2584.54
437.70	2631.64
437.90	2467.80
438.11	2670.55
438.31	2488.28
438.52	2709.46
438.72	2682.84
438.93	2785.24
439.13	2605.02
439.34	2738.13
439.54	2537.43
439.75	2629.59
439.95	2486.23
440.16	2410.46
440.36	2498.52
440.57	2459.61
440.77	2516.95
440.98	2525.15
441.18	2566.10
441.39	2383.84
441.59	2326.49
441.80	2791.38
442.00	2506.71
442.21	2568.15
442.41	2293.72
442.62	2605.02
442.82	2361.31
443.02	2494.43
443.23	2439.13
443.43	2521.05
443.64	2686.94
443.84	2424.80
444.05	2609.11
444.25	2482.14
444.46	2510.81
444.66	2473.95
444.87	2652.12
445.07	2338.78
445.28	2525.15
445.48	2486.23
445.69	2594.78
445.89	2830.29
446.09	2500.57
446.30	2752.47
446.50	2920.40
446.71	4597.69
446.91	5818.28
447.12	6758.30
447.32	7131.03
447.53	6717.34
447.73	5486.51
447.93	4808.63
448.14	4478.91
448.34	4454.33
448.55	3850.18
448.75	3841.99
448.96	3669.96
449.16	3235.79
449.36	3012.56
449.57	2752.47
449.77	2572.25
449.98	2461.66
450.18	2547.67
450.39	2494.43
450.59	2490.33
450.79	2506.71
451.00	2400.22
451.20	2496.47
451.41	2471.90
451.61	2490.33
451.81	2537.43
452.02	2426.84
452.22	2512.86
452.43	2445.27
452.63	2400.22
452.84	2443.23
453.04	2449.37
453.24	2535.39
453.45	2377.69
453.65	2416.60
453.86	2478.04
454.06	2541.53
454.26	2482.14
454.47	2383.84
454.67	2562.01
454.87	2584.54
455.08	2437.08
455.28	2727.89
455.49	2494.43
455.69	2367.45
455.89	2772.95
456.10	2535.39
456.30	2426.84
456.51	2588.63
456.71	2512.86
456.91	2502.62
457.12	2377.69
457.32	2500.57
457.52	2420.70
457.73	2559.96
457.93	2578.39
458.14	2420.70
458.34	2269.15
458.54	2379.74
458.75	2473.95
458.95	2512.86
459.15	2461.66
459.36	2527.19
459.56	2551.77
459.76	2797.53
459.97	2498.52
460.17	2490.33
460.37	2465.75
460.58	2465.75
460.78	2525.15
460.99	2408.41
461.19	2486.23
461.39	2445.27
461.60	2453.47
461.80	2514.91
462.00	2318.30
462.21	2449.37
462.41	2461.66
462.61	2320.35
462.82	2332.64
463.02	2588.63
463.22	2457.56
463.43	2559.96
463.63	2445.27
463.83	2619.35
464.04	2514.91
464.24	2498.52
464.44	2359.26
464.64	2506.71
464.85	2568.15
465.05	2645.98
465.25	2412.51
465.46	2408.41
465.66	2590.68
465.86	2553.82
466.07	2424.80
466.27	2451.42
466.47	2295.77
466.68	2269.15
466.88	2564.06
467.08	2564.06
467.29	2707.41
467.49	2467.80
467.69	2463.71
467.89	2580.44
468.10	2465.75
468.30	2586.58
468.50	2656.22
468.71	2674.65
468.91	2324.44
469.11	2605.02
469.31	2432.99
469.52	2349.02
469.72	2715.61
469.92	2719.70
470.13	2439.13
470.33	2586.58
470.53	2596.82
470.73	2883.54
470.94	3280.85
471.14	3538.89
471.34	3813.32
471.54	3678.15
471.75	3293.13
471.95	3129.30
472.15	2973.65
472.36	3012.56
472.56	2932.69
472.76	2957.27
472.96	2930.64
473.17	2772.95
473.37	2672.60
473.57	2547.67
473.77	2584.54
473.98	2510.81
474.18	2383.84
474.38	2830.29
474.58	2396.12
474.79	2308.06
474.99	2516.95
475.19	2529.24
475.39	2396.12
475.60	2588.63
475.80	2410.46
476.00	2551.77
476.20	2422.75
476.41	2514.91
476.61	2492.38
476.81	2660.31
477.01	2414.56
477.21	2686.94
477.42	2570.20
477.62	2336.73
477.82	2629.59
478.02	2467.80
478.23	2562.01
478.43	2396.12
478.63	2488.28
478.83	2514.91
479.03	2461.66
479.24	2676.70
479.44	2729.94
479.64	2375.64
479.84	2252.77
480.04	2389.98
480.25	2619.35
480.45	2408.41
480.65	2373.60
480.85	2662.36
481.06	2400.22
481.26	2516.95
481.46	2504.67
481.66	2471.90
481.86	2439.13
482.06	2578.39
482.27	2500.57
482.47	2432.99
482.67	2519.00
482.87	2342.88
483.07	2562.01
483.28	2392.03
483.48	2355.16
483.68	2492.38
483.88	2344.92
484.08	2260.96
484.29	2338.78
484.49	2555.86
484.69	2340.83
484.89	2658.26
485.09	2674.65
485.29	2555.86
485.50	2467.80
485.70	2422.75
485.90	2670.55
486.10	2473.95
486.30	2437.08
486.50	2637.78
486.71	2529.24
486.91	2514.91
487.11	2621.40
487.31	2334.68
487.51	2555.86
487.71	2357.21
487.91	2408.41
488.12	2389.98
488.32	2228.19
488.52	2410.46
488.72	2283.49
488.92	2523.10
489.12	2660.31
489.32	2588.63
489.53	2471.90
489.73	2351.07
489.93	2711.51
490.13	2498.52
490.33	2318.30
490.53	2500.57
490.73	2635.74
490.94	2367.45
491.14	2527.19
491.34	2609.11
491.54	2680.79
491.74	3385.29
491.94	3921.86
492.14	4366.27
492.34	4401.08
492.54	4102.08
492.75	3432.40
492.95	3420.11
493.15	3235.79
493.35	3250.13
493.55	3051.47
493.75	2975.70
493.95	2994.13
494.15	2658.26
494.35	2580.44
494.56	2521.05
494.76	2490.33
494.96	2484.19
495.16	2502.62
495.36	2496.47
495.56	2508.76
495.76	2469.85
495.96	2428.89
496.16	2432.99
496.36	2748.37
496.56	2445.27
496.77	2492.38
496.97	2521.05
497.17	2682.84
497.37	2297.82
497.57	2570.20
497.77	2535.39
497.97	2349.02
498.17	2463.71
498.37	2404.32
498.57	2623.45
498.77	2332.64
498.97	2564.06
499.17	2729.94
499.38	2473.95
499.58	2506.71
499.78	2617.30
499.98	2621.40
500.18	2482.14
500.38	2455.51
500.58	2627.54
500.78	3069.91
500.98	5459.88
501.18	7466.89
501.38	9359.22
501.58	10264.42
501.78	10012.52
501.98	7919.50
502.18	6807.45
502.38	5715.88
502.58	5289.90
502.78	4790.20
502.98	4751.29
503.18	4489.15
503.38	4016.07
503.59	3594.19
503.79	3387.34
503.99	3272.65
504.19	3063.76
504.39	3030.99
504.59	3119.06
504.79	3012.56
504.99	3074.00
505.19	2863.06
505.39	2674.65
505.59	2906.07
505.79	2832.34
505.99	2705.37
506.19	2594.78
506.39	2748.37
506.59	2482.14
506.79	2510.81
506.99	2680.79
507.19	2535.39
507.39	2512.86
507.59	2342.88
507.79	2422.75
507.99	2346.97
508.19	2519.00
508.39	2418.65
508.59	2490.33
508.79	2637.78
508.99	2711.51
509.19	2402.27
509.39	2553.82
509.59	2375.64
509.79	2389.98
509.99	2545.63
510.19	2551.77
510.39	2521.05
510.59	2527.19
510.79	2490.33
510.99	2326.49
511.19	2400.22
511.39	2760.66
511.59	2645.98
511.79	2617.30
511.99	2525.15
512.19	2678.74
512.38	2484.19
512.58	2457.56
512.78	2416.60
512.98	2639.83
513.18	2668.50
513.38	2430.94
513.58	2506.71
513.78	2482.14
513.98	2510.81
514.18	2494.43
514.38	2443.23
514.58	2566.10
514.78	2420.70
514.98	2400.22
515.18	2453.47
515.38	2367.45
515.58	2760.66
515.78	2381.79
515.98	2410.46
516.18	2602.97
516.38	2471.90
516.57	2422.75
516.77	2449.37
516.97	2512.86
517.17	2392.03
517.37	2308.06
517.57	2521.05
517.77	2441.18
517.97	2404.32
518.17	2473.95
518.37	2432.99
518.57	2504.67
518.77	2437.08
518.97	2432.99
519.16	2488.28
519.36	2650.07
519.56	2297.82
519.76	2512.86
519.96	2473.95
520.16	2691.03
520.36	2371.55
520.56	2637.78
520.76	2312.16
520.96	2465.75
521.16	2684.89
521.35	2580.44
521.55	2570.20
521.75	2453.47
521.95	2488.28
522.15	2471.90
522.35	2301.92
522.55	2430.94
522.75	2641.88
522.95	2361.31
523.14	2312.16
523.34	2453.47
523.54	2424.80
523.74	2576.34
523.94	2498.52
524.14	2301.92
524.34	2582.49
524.54	2725.85
524.73	2457.56
524.93	2582.49
525.13	2428.89
525.33	2293.72
525.53	2709.46
525.73	2502.62
525.93	2557.91
526.13	2318.30
526.32	2469.85
526.52	2645.98
526.72	2592.73
526.92	2381.79
527.12	2363.36
527.32	2318.30
527.52	2527.19
527.71	2496.47
527.91	2467.80
528.11	2392.03
528.31	2467.80
528.51	2342.88
528.71	2496.47
528.90	2621.40
529.10	2633.69
529.30	2611.16
529.50	2222.05
529.70	2486.23
529.90	2447.32
530.09	2482.14
530.29	2279.39
530.49	2441.18
530.69	2858.96
530.89	2586.58
531.09	2596.82
531.28	2387.93
531.48	2623.45
531.68	2461.66
531.88	2482.14
532.08	2598.87
532.28	2441.18
532.47	2598.87
532.67	2607.06
532.87	2543.58
533.07	2432.99
533.27	2498.52
533.46	2502.62
533.66	2514.91
533.86	2531.29
534.06	2490.33
534.26	2516.95
534.45	2453.47
534.65	2670.55
534.85	2486.23
535.05	2457.56
535.25	2686.94
535.44	2293.72
535.64	2576.34
535.84	2437.08
536.04	2500.57
536.24	2418.65
536.43	2396.12
536.63	2478.04
536.83	2473.95
537.03	2500.57
537.22	2346.97
537.42	2320.35
537.62	2504.67
537.82	2424.80
538.02	2645.98
538.21	2576.34
538.41	2924.50
538.61	2588.63
538.81	2504.67
539.00	2547.67
539.20	2344.92
539.40	2469.85
539.60	2455.51
539.79	2543.58
539.99	2439.13
540.19	2455.51
540.39	2418.65
540.58	2496.47
540.78	2654.17
540.98	2486.23
541.18	2658.26
541.37	2572.25
541.57	2568.15
541.77	2531.29
541.97	2330.59
542.16	2215.90
542.36	2392.03
542.56	2531.29
542.76	2611.16
542.95	2541.53
543.15	2572.25
543.35	2607.06
543.54	2437.08
543.74	2504.67
543.94	2674.65
544.14	2441.18
544.33	2533.34
544.53	2414.56
544.73	2490.33
544.93	2484.19
545.12	2400.22
545.32	2469.85
545.52	2402.27
545.71	2324.44
545.91	2377.69
546.11	2383.84
546.30	2424.80
546.50	2457.56
546.70	2482.14
546.90	2521.05
547.09	2285.53
547.29	2516.95
547.49	2564.06
547.68	2420.70
547.88	2400.22
548.08	2521.05
548.27	2897.88
548.47	2375.64
548.67	2459.61
548.87	2641.88
549.06	2422.75
549.26	2428.89
549.46	2482.14
549.65	2394.08
549.85	2447.32
550.05	2564.06
550.24	2258.91
550.44	2527.19
550.64	2492.38
550.83	2498.52
551.03	2635.74
551.23	2584.54
551.42	2564.06
551.62	2416.60
551.82	2496.47
552.01	2482.14
552.21	2615.26
552.41	2449.37
552.60	2723.80
552.80	2564.06
553.00	2437.08
553.19	2480.09
553.39	2637.78
553.59	2359.26
553.78	2473.95
553.98	2459.61
554.17	2387.93
554.37	2555.86
554.57	2582.49
554.76	2269.15
554.96	2463.71
555.16	2506.71
555.35	2465.75
555.55	2508.76
555.75	2580.44
555.94	2551.77
556.14	2283.49
556.33	2588.63
556.53	2531.29
556.73	2482.14
556.92	2533.34
557.12	2504.67
557.32	2742.23
557.51	2693.08
557.71	2525.15
557.90	2664.41
558.10	2699.22
558.30	2398.17
558.49	2447.32
558.69	2490.33
558.88	2586.58
559.08	2500.57
559.28	2488.28
559.47	2455.51
559.67	2545.63
559.86	2756.57
560.06	2381.79
560.26	2381.79
560.45	2625.50
560.65	2496.47
560.84	2555.86
561.04	2410.46
561.24	2701.27
561.43	2389.98
561.63	2736.09
561.82	2572.25
562.02	2578.39
562.22	2398.17
562.41	2295.77
562.61	2379.74
562.80	2422.75
563.00	2779.09
563.19	2531.29
563.39	2547.67
563.59	2641.88
563.78	2295.77
563.98	2289.63
564.17	2387.93
564.37	2275.29
564.56	2412.51
564.76	2451.42
564.96	2650.07
565.15	2510.81
565.35	2746.33
565.54	2478.04
565.74	2506.71
565.93	2578.39
566.13	2453.47
566.32	2525.15
566.52	2547.67
566.71	2523.10
566.91	2609.11
567.11	2588.63
567.30	2414.56
567.50	2506.71
567.69	2588.63
567.89	2445.27
568.08	2334.68
568.28	2465.75
568.47	2426.84
568.67	2471.90
568.86	2443.23
569.06	2541.53
569.25	2535.39
569.45	2392.03
569.64	2381.79
569.84	2392.03
570.04	2580.44
570.23	2406.36
570.43	2461.66
570.62	2512.86
570.82	2760.66
571.01	2330.59
571.21	2351.07
571.40	2359.26
571.60	2633.69
571.79	2535.39
571.99	2519.00
572.18	2301.92
572.38	2570.20
572.57	2521.05
572.77	2482.14
572.96	2824.15
573.16	2490.33
573.35	2457.56
573.55	2590.68
573.74	2488.28
573.94	2545.63
574.13	2463.71
574.33	2568.15
574.52	2674.65
574.71	2490.33
574.91	2514.91
575.10	2396.12
575.30	2486.23
575.49	2492.38
575.69	2338.78
575.88	2598.87
576.08	2514.91
576.27	2654.17
576.47	2482.14
576.66	2707.41
576.86	2721.75
577.05	2645.98
577.25	2537.43
577.44	2648.02
577.64	2461.66
577.83	2635.74
578.02	2439.13
578.22	2580.44
578.41	2731.99
578.61	2537.43
578.80	2340.83
579.00	2465.75
579.19	2525.15
579.39	2586.58
579.58	2588.63
579.77	2408.41
579.97	2711.51
580.16	2688.98
580.36	2586.58
580.55	2584.54
580.75	2531.29
580.94	2502.62
581.13	2613.21
581.33	2545.63
581.52	2465.75
581.72	2758.61
581.91	2555.86
582.11	2457.56
582.30	2672.60
582.49	2559.96
582.69	2654.17
582.88	2549.72
583.08	2572.25
583.27	2744.28
583.47	2424.80
583.66	2480.09
583.85	2389.98
584.05	2473.95
584.24	2484.19
584.44	2541.53
584.63	2670.55
584.82	2727.89
585.02	2748.37
585.21	2617.30
585.41	2643.93
585.60	2602.97
585.79	2785.24
585.99	2760.66
586.18	2654.17
586.37	3286.99
586.57	5056.43
586.76	14858.01
586.96	34379.25
587.15	47772.97
587.34	57078.94
587.54	61445.21
587.73	55608.50
587.93	39556.52
588.12	29781.56
588.31	24059.54
588.51	21221.05
588.70	19384.02
588.89	17538.80
589.09	14903.07
589.28	12838.72
589.47	10297.19
589.67	7911.30
589.86	6176.67
590.06	4612.03
590.25	3848.13
590.44	3397.58
590.64	2969.55
590.83	2770.90
591.02	2736.09
591.22	2562.01
591.41	2596.82
591.60	2564.06
591.80	2811.86
591.99	2449.37
592.18	2432.99
592.38	2619.35
592.57	2543.58
592.76	2498.52
592.96	2486.23
593.15	2508.76
593.34	2643.93
593.54	2488.28
593.73	2615.26
593.92	2564.06
594.12	2645.98
594.31	2566.10
594.50	2633.69
594.70	2645.98
594.89	2871.25
595.08	2398.17
595.28	2613.21
595.47	2881.49
595.66	2715.61
595.86	2412.51
596.05	2482.14
596.24	2437.08
596.43	2734.04
596.63	2592.73
596.82	2639.83
597.01	2506.71
597.21	2830.29
597.40	2512.86
597.59	2504.67
597.79	2506.71
597.98	2574.30
598.17	2514.91
598.36	2514.91
598.56	2672.60
598.75	2539.48
598.94	2568.15
599.14	2521.05
599.33	2527.19
599.52	2654.17
599.71	2490.33
599.91	2570.20
600.10	2543.58
600.29	2562.01
600.48	2508.76
600.68	2547.67
600.87	2555.86
601.06	2322.40
601.26	2465.75
601.45	2543.58
601.64	2455.51
601.83	2691.03
602.03	2445.27
602.22	2375.64
602.41	2596.82
602.60	2775.00
602.80	2586.58
602.99	2564.06
603.18	2504.67
603.37	2486.23
603.57	2422.75
603.76	2504.67
603.95	2645.98
604.14	2400.22
604.34	2373.60
604.53	2478.04
604.72	2521.05
604.91	2482.14
605.10	2496.47
605.30	2250.72
605.49	2824.15
605.68	2566.10
605.87	2482.14
606.07	2400.22
606.26	2488.28
606.45	2645.98
606.64	2537.43
606.84	2471.90
607.03	2568.15
607.22	2711.51
607.41	2537.43
607.60	2432.99
607.80	2658.26
607.99	2527.19
608.18	2480.09
608.37	2480.09
608.56	2414.56
608.76	2691.03
608.95	2662.36
609.14	2488.28
609.33	2688.98
609.52	2609.11
609.72	2619.35
609.91	2596.82
610.10	2602.97
610.29	2734.04
610.48	2584.54
610.68	2547.67
610.87	2473.95
611.06	2600.92
611.25	2480.09
611.44	2590.68
611.63	2469.85
611.83	2598.87
612.02	2396.12
612.21	2584.54
612.40	2340.83
612.59	2344.92
612.79	2367.45
612.98	2449.37
613.17	2736.09
613.36	2482.14
613.55	2686.94
613.74	2539.48
613.93	2695.13
614.13	2654.17
614.32	2742.23
614.51	2605.02
614.70	2549.72
614.89	2506.71
615.08	2580.44
615.28	2973.65
615.47	2389.98
615.66	2566.10
615.85	2455.51
616.04	2736.09
616.23	2562.01
616.42	2506.71
616.62	2482.14
616.81	2547.67
617.00	2605.02
617.19	2564.06
617.38	2496.47
617.57	2510.81
617.76	2555.86
617.95	2598.87
618.15	2504.67
618.34	2609.11
618.53	2355.16
618.72	2684.89
618.91	2641.88
619.10	2602.97
619.29	2473.95
619.48	2519.00
619.68	2422.75
619.87	2402.27
620.06	2357.21
620.25	2539.48
620.44	2355.16
620.63	2525.15
620.82	2514.91
621.01	2572.25
621.20	2459.61
621.39	2502.62
621.59	2590.68
621.78	2531.29
621.97	2519.00
622.16	2637.78
622.35	2570.20
622.54	2516.95
622.73	2539.48
622.92	2359.26
623.11	2654.17
623.30	2428.89
623.49	2504.67
623.68	2357.21
623.88	2594.78
624.07	2455.51
624.26	2375.64
624.45	2475.99
624.64	2416.60
624.83	2543.58
625.02	2349.02
625.21	2508.76
625.40	2432.99
625.59	2688.98
625.78	2576.34
625.97	2564.06
626.16	2695.13
626.35	2695.13
626.54	2494.43
626.74	2711.51
626.93	2471.90
627.12	2406.36
627.31	2535.39
627.50	2539.48
627.69	2627.54
627.88	2371.55
628.07	2396.12
628.26	2306.01
628.45	2432.99
628.64	2371.55
628.83	2555.86
629.02	2332.64
629.21	2580.44
629.40	2525.15
629.59	2420.70
629.78	2441.18
629.97	2510.81
630.16	2609.11
630.35	2398.17
630.54	2449.37
630.73	2449.37
630.92	2486.23
631.11	2346.97
631.30	2529.24
631.49	2611.16
631.68	2463.71
631.87	2465.75
632.06	2301.92
632.25	2723.80
632.44	2535.39
632.63	2488.28
632.82	2525.15
633.01	2490.33
633.20	2545.63
633.39	2533.34
633.58	2355.16
633.77	2580.44
633.96	2637.78
634.15	2592.73
634.34	2553.82
634.53	2562.01
634.72	2441.18
634.91	2256.86
635.10	2555.86
635.29	2605.02
635.48	2494.43
635.67	2365.40
635.86	2400.22
636.05	2619.35
636.24	2459.61
636.43	2422.75
636.62	2512.86
636.81	2226.14
637.00	2486.23
637.19	2498.52
637.38	2570.20
637.57	2486.23
637.76	2420.70
637.95	2637.78
638.14	2502.62
638.33	2621.40
638.52	2557.91
638.71	2471.90
638.89	2351.07
639.08	2830.29
639.27	2682.84
639.46	2801.62
639.65	3147.73
639.84	3151.82
640.03	3291.09
640.22	3102.67
640.41	3119.06
640.60	2670.55
640.79	2832.34
640.98	2660.31
641.17	2766.81
641.36	2648.02
641.55	2680.79
641.74	2430.94
641.92	2428.89
642.11	2498.52
642.30	2447.32
642.49	2465.75
642.68	2471.90
642.87	2512.86
643.06	2539.48
643.25	2330.59
643.44	2383.84
643.63	2502.62
643.82	2578.39
644.00	2326.49
644.19	2465.75
644.38	2324.44
644.57	2535.39
644.76	2482.14
644.95	2502.62
645.14	2482.14
645.33	2471.90
645.52	2492.38
645.71	2355.16
645.89	2396.12
646.08	2439.13
646.27	2400.22
646.46	2668.50
646.65	2318.30
646.84	2500.57
647.03	2408.41
647.22	2531.29
647.40	2430.94
647.59	2506.71
647.78	2256.86
647.97	2486.23
648.16	2392.03
648.35	2684.89
648.54	2625.50
648.73	2459.61
648.91	2619.35
649.10	2506.71
649.29	2326.49
649.48	2428.89
649.67	2557.91
649.86	2611.16
650.05	2549.72
650.23	2719.70
650.42	2559.96
650.61	2750.42
650.80	2670.55
650.99	2734.04
651.18	2648.02
651.36	2648.02
651.55	2455.51
651.74	2584.54
651.93	2471.90
652.12	2529.24
652.31	2473.95
652.49	2502.62
652.68	2555.86
652.87	2635.74
653.06	2555.86
653.25	2740.18
653.44	2551.77
653.62	2674.65
653.81	2424.80
654.00	2490.33
654.19	2611.16
654.38	2834.39
654.56	2519.00
654.75	2375.64
654.94	2547.67
655.13	2570.20
655.32	2473.95
655.51	2580.44
655.69	2404.32
655.88	2621.40
656.07	2381.79
656.26	2531.29
656.45	2367.45
656.63	2527.19
656.82	2441.18
657.01	2641.88
657.20	2381.79
657.38	2654.17
657.57	2414.56
657.76	2340.83
657.95	2566.10
658.14	2475.99
658.32	2482.14
658.51	2387.93
658.70	2557.91
658.89	2551.77
659.08	2506.71
659.26	2676.70
659.45	2406.36
659.64	2555.86
659.83	2463.71
660.01	2846.68
660.20	2555.86
660.39	2729.94
660.58	2238.43
660.76	2502.62
660.95	2297.82
661.14	2539.48
661.33	2293.72
661.51	2414.56
661.70	2404.32
661.89	2559.96
662.08	2396.12
662.26	2361.31
662.45	2346.97
662.64	2725.85
662.83	2473.95
663.01	2379.74
663.20	2447.32
663.39	2697.17
663.58	2383.84
663.76	2486.23
663.95	2600.92
664.14	2365.40
664.32	2371.55
664.51	2318.30
664.70	2277.34
664.89	2568.15
665.07	2340.83
665.26	2564.06
665.45	2377.69
665.64	2514.91
665.82	2422.75
666.01	2547.67
666.20	2330.59
666.38	2631.64
666.57	2688.98
666.76	3999.68
666.95	9453.42
667.13	17782.51
667.32	23017.12
667.51	26154.61
667.69	27682.39
667.88	24526.47
668.07	17463.03
668.25	14276.39
668.44	11898.70
668.63	10366.82
668.81	9256.82
669.00	7896.97
669.19	7141.27
669.38	6070.18
669.56	5121.97
669.75	4325.31
669.94	3694.54
670.12	3176.40
670.31	2994.13
670.50	2805.72
670.68	2633.69
670.87	2717.65
671.06	2469.85
671.24	2586.58
671.43	2768.85
671.62	2551.77
671.80	2447.32
671.99	2535.39
672.18	2494.43
672.36	2635.74
672.55	2539.48
672.74	2482.14
672.92	2498.52
673.11	2523.10
673.29	2404.32
673.48	2580.44
673.67	2404.32
673.85	2611.16
674.04	2432.99
674.23	2555.86
674.41	2697.17
674.60	2344.92
674.79	2291.68
674.97	2443.23
675.16	2529.24
675.34	2582.49
675.53	2422.75
675.72	2519.00
675.90	2717.65
676.09	2430.94
676.28	2478.04
676.46	2215.90
676.65	2596.82
676.83	2420.70
677.02	2482.14
677.21	2445.27
677.39	2562.01
677.58	2441.18
677.77	2379.74
677.95	2351.07
678.14	2435.03
678.32	2461.66
678.51	2449.37
678.70	2662.36
678.88	2482.14
679.07	2527.19
679.25	2426.84
679.44	2471.90
679.63	2439.13
679.81	2471.90
680.00	2662.36
680.18	2490.33
680.37	2633.69
680.55	2492.38
680.74	2301.92
680.93	2318.30
681.11	2486.23
681.30	2445.27
681.48	2475.99
681.67	2424.80
681.85	2404.32
682.04	2406.36
682.23	2549.72
682.41	2437.08
682.60	2353.12
682.78	2490.33
682.97	2416.60
683.15	2523.10
683.34	2537.43
683.53	2643.93
683.71	2371.55
683.90	2537.43
684.08	2678.74
684.27	2324.44
684.45	2543.58
684.64	2594.78
684.82	2482.14
685.01	2615.26
685.19	2457.56
685.38	2613.21
685.57	2510.81
685.75	2408.41
685.94	2355.16
686.12	2357.21
686.31	2432.99
686.49	2707.41
686.68	2228.19
686.86	2523.10
687.05	2408.41
687.23	2701.27
687.42	2338.78
687.60	2346.97
687.79	2543.58
687.97	2664.41
688.16	2504.67
688.34	2627.54
688.53	2277.34
688.71	2521.05
688.90	2559.96
689.08	2449.37
689.27	2301.92
689.45	2590.68
689.64	2521.05
689.82	2488.28
690.01	2492.38
690.19	2486.23
690.38	2475.99
690.56	2576.34
690.75	2369.50
690.93	2416.60
691.12	2387.93
691.30	2492.38
691.49	2461.66
691.67	2480.09
691.86	2629.59
692.04	2357.21
692.23	2445.27
692.41	2541.53
692.60	2865.11
692.78	2627.54
692.97	2533.34
693.15	2590.68
693.34	2676.70
693.52	2594.78
693.71	2514.91
693.89	2426.84
694.08	2310.11
694.26	2467.80
694.44	2572.25
694.63	2504.67
694.81	2416.60
695.00	2471.90
695.18	2637.78
695.37	2731.99
695.55	2424.80
695.74	2498.52
695.92	2416.60
696.10	2613.21
696.29	2293.72
696.47	2383.84
696.66	2365.40
696.84	2361.31
697.03	2441.18
697.21	2686.94
697.40	3669.96
697.58	2596.82
697.76	2478.04
697.95	2349.02
698.13	2349.02
698.32	2443.23
698.50	2541.53
698.68	2545.63
698.87	2541.53
699.05	2635.74
699.24	2463.71
699.42	2344.92
699.61	2488.28
699.79	2463.71
699.97	2422.75
700.16	2355.16
700.34	2326.49
700.53	2576.34
700.71	2648.02
700.89	2584.54
701.08	2336.73
701.26	2502.62
701.45	2914.26
701.63	2396.12
701.81	2496.47
702.00	2453.47
702.18	2469.85
702.37	2523.10
702.55	2799.57
702.73	2695.13
702.92	2574.30
703.10	2891.73
703.28	2758.61
703.47	2496.47
703.65	2672.60
703.84	2660.31
704.02	2504.67
704.20	2668.50
704.39	2424.80
704.57	2398.17
704.75	2654.17
704.94	2625.50
705.12	2625.50
705.30	2891.73
705.49	5572.52
705.67	12654.40
705.86	20805.31
706.04	24338.06
706.22	27676.25
706.41	27825.75
706.59	22447.79
706.77	16318.22
706.96	13987.63
707.14	12402.50
707.32	10475.36
707.51	9418.61
707.69	7616.40
707.87	6234.02
708.06	5005.24
708.24	4085.70
708.42	3436.49
708.61	3319.76
708.79	2678.74
708.97	2719.70
709.16	2703.32
709.34	2508.76
709.52	2494.43
709.71	2463.71
709.89	2629.59
710.07	2404.32
710.26	2375.64
710.44	2498.52
710.62	2590.68
710.80	2457.56
710.99	2654.17
711.17	2592.73
711.35	2408.41
711.54	2484.19
711.72	2654.17
711.90	2492.38
712.09	2543.58
712.27	2449.37
712.45	2478.04
712.63	2392.03
712.82	2523.10
713.00	2480.09
713.18	2457.56
713.37	2580.44
713.55	2598.87
713.73	2545.63
713.91	2521.05
714.10	2426.84
714.28	2457.56
714.46	2537.43
714.65	2506.71
714.83	2508.76
715.01	2494.43
715.19	2494.43
715.38	2439.13
715.56	2537.43
715.74	2394.08
715.92	2414.56
716.11	2629.59
716.29	2285.53
716.47	2504.67
716.65	2412.51
716.84	2263.01
717.02	2523.10
717.20	2318.30
717.38	2326.49
717.57	2521.05
717.75	2533.34
717.93	2441.18
718.11	2541.53
718.30	2367.45
718.48	2457.56
718.66	2564.06
718.84	2658.26
719.03	2484.19
719.21	2285.53
719.39	2783.19
719.57	2580.44
719.75	2539.48
719.94	2377.69
720.12	2426.84
720.30	2535.39
720.48	2531.29
720.67	2400.22
720.85	2291.68
721.03	2406.36
721.21	2402.27
721.39	2508.76
721.58	2508.76
721.76	2463.71
721.94	2506.71
722.12	2535.39
722.30	2635.74
722.49	2408.41
722.67	2506.71
722.85	2461.66
723.03	2273.25
723.21	2449.37
723.40	2494.43
723.58	2555.86
723.76	2611.16
723.94	2676.70
724.12	2537.43
724.30	2711.51
724.49	2645.98
724.67	2371.55
724.85	2660.31
725.03	2236.38
725.21	2617.30
725.40	2598.87
725.58	2455.51
725.76	2631.64
725.94	2545.63
726.12	2453.47
726.30	2564.06
726.49	2396.12
726.67	2465.75
726.85	2580.44
727.03	2856.92
727.21	4300.73
727.39	5889.96
727.57	6721.43
727.76	7356.30
727.94	7600.01
728.12	7083.92
728.30	5466.03
728.48	4960.18
728.66	4491.20
728.84	4063.17
729.03	3497.93
729.21	3325.90
729.39	2930.64
729.57	2731.99
729.75	2592.73
729.93	2535.39
730.11	2453.47
730.30	2498.52
730.48	2541.53
730.66	2709.46
730.84	2510.81
731.02	2465.75
731.20	2394.08
731.38	2475.99
731.56	2353.12
731.74	2328.54
731.93	2570.20
732.11	2512.86
732.29	2428.89
732.47	2539.48
732.65	2465.75
732.83	2609.11
733.01	2549.72
733.19	2349.02
733.37	2527.19
733.56	2488.28
733.74	2371.55
733.92	2652.12
734.10	2459.61
734.28	2498.52
734.46	2238.43
734.64	2408.41
734.82	2482.14
735.00	2420.70
735.18	2392.03
735.36	2453.47
735.54	2498.52
735.73	2398.17
735.91	2480.09
736.09	2553.82
736.27	2445.27
736.45	2590.68
736.63	2179.04
736.81	2418.65
736.99	2564.06
737.17	2643.93
737.35	2394.08
737.53	2486.23
737.71	2490.33
737.89	2574.30
738.07	2398.17
738.25	2387.93
738.43	2318.30
738.61	2465.75
738.80	2314.20
738.98	2306.01
739.16	2381.79
739.34	2410.46
739.52	2643.93
739.70	2449.37
739.88	2564.06
740.06	2490.33
740.24	2201.57
740.42	2586.58
740.60	2248.67
740.78	2326.49
740.96	2246.62
741.14	2408.41
741.32	2596.82
741.50	2310.11
741.68	2678.74
741.86	2660.31
742.04	2289.63
742.22	2375.64
742.40	2349.02
742.58	2600.92
742.76	2394.08
742.94	2605.02
743.12	2289.63
743.30	2508.76
743.48	2527.19
743.66	2379.74
743.84	2521.05
744.02	2426.84
744.20	2490.33
744.38	2316.25
744.56	2373.60
744.74	2695.13
744.92	2562.01
745.10	2617.30
745.28	2592.73
745.46	2731.99
745.64	2473.95
745.82	2562.01
746.00	2447.32
746.18	2506.71
746.36	2406.36
746.54	2512.86
746.72	2467.80
746.90	2299.87
747.08	2701.27
747.26	2527.19
747.44	2574.30
747.62	2596.82
747.80	2414.56
747.98	2545.63
748.15	2447.32
748.33	2674.65
748.51	2521.05
748.69	2508.76
748.87	2322.40
749.05	2400.22
749.23	2424.80
749.41	2510.81
749.59	2426.84
749.77	2543.58
749.95	2516.95
750.13	2383.84
750.31	2478.04
750.49	2486.23
750.67	2637.78
750.85	2592.73
751.03	2377.69
751.20	2889.68
751.38	2494.43
751.56	2449.37
751.74	2437.08
751.92	2492.38
752.10	2408.41
752.28	2545.63
752.46	2410.46
752.64	2521.05
752.82	2457.56
753.00	2637.78
753.18	2369.50
753.35	2392.03
753.53	2488.28
753.71	2400.22
753.89	2516.95
754.07	2490.33
754.25	2619.35
754.43	2514.91
754.61	2406.36
754.79	2580.44
754.97	2389.98
755.14	2545.63
755.32	2359.26
755.50	2506.71
755.68	2453.47
755.86	2361.31
756.04	2377.69
756.22	2287.58
756.40	2629.59
756.57	2637.78
756.75	2389.98
756.93	2619.35
757.11	2566.10
757.29	2365.40
757.47	2451.42
757.65	2373.60
757.82	2217.95
758.00	2349.02
758.18	2308.06
758.36	2363.36
758.54	2719.70
758.72	2353.12
758.90	2537.43
759.07	2482.14
759.25	2316.25
759.43	2572.25
759.61	2375.64
759.79	3518.41
759.97	2584.54
760.15	2383.84
760.32	2392.03
760.50	2488.28
760.68	2713.56
760.86	2273.25
761.04	2635.74
761.22	2502.62
761.39	2519.00
761.57	2572.25
761.75	2371.55
761.93	2568.15
762.11	2449.37
762.28	2559.96
762.46	2416.60
762.64	2611.16
762.82	2342.88
763.00	2387.93
763.18	2635.74
763.35	2324.44
763.53	2473.95
763.71	2492.38
763.89	2461.66
764.07	2529.24
764.24	2420.70
764.42	2582.49
764.60	2400.22
764.78	2572.25
764.96	2543.58
765.13	2553.82
765.31	2412.51
765.49	2533.34
765.67	2394.08
765.84	2361.31
766.02	2344.92
766.20	2367.45
766.38	2463.71
766.56	2500.57
766.73	2557.91
766.91	2551.77
767.09	2461.66
767.27	2578.39
767.44	2314.20
767.62	2510.81
767.80	2533.34
767.98	2363.36
768.15	2430.94
768.33	2535.39
768.51	2539.48
768.69	2504.67
768.87	2555.86
769.04	2455.51
769.22	2797.53
769.40	2596.82
769.58	2662.36
769.75	2521.05
769.93	2580.44
770.11	2381.79
770.28	2375.64
770.46	2660.31
770.64	2480.09
770.82	2449.37
770.99	2439.13
771.17	2555.86
771.35	2389.98
771.53	2461.66
771.70	2418.65
771.88	2562.01
772.06	2500.57
772.23	2334.68
772.41	2539.48
772.59	2396.12
772.77	2346.97
772.94	2457.56
773.12	2494.43
773.30	2322.40
773.47	2543.58
773.65	2392.03
773.83	2650.07
774.01	2428.89
774.18	2279.39
774.36	2408.41
774.54	2297.82
774.71	2486.23
774.89	2234.33
775.07	2351.07
775.24	2385.88
775.42	2400.22
775.60	2668.50
775.78	2445.27
775.95	2373.60
776.13	2326.49
776.31	2283.49
776.48	2504.67
776.66	2617.30
776.84	2418.65
777.01	2338.78
777.19	2443.23
777.37	2426.84
777.54	2547.67
777.72	2709.46
777.90	2510.81
778.07	2349.02
778.25	2838.48
778.43	2572.25
778.60	2408.41
778.78	2521.05
778.96	2648.02
779.13	2359.26
779.31	2537.43
779.49	2553.82
779.66	2488.28
779.84	2402.27
780.01	2432.99
780.19	2310.11
780.37	2633.69
780.54	2496.47
780.72	2346.97
780.90	2467.80
781.07	2338.78
781.25	2373.60
781.43	2551.77
781.60	2441.18
781.78	2641.88
781.95	2480.09
782.13	2381.79
782.31	2367.45
782.48	2234.33
782.66	2545.63
782.83	2652.12
783.01	2482.14
783.19	2586.58
783.36	2471.90
783.54	2316.25
783.72	2570.20
783.89	2498.52
784.07	2580.44
784.24	2527.19
784.42	2582.49
784.60	2406.36
784.77	2523.10
784.95	2168.80
785.12	2445.27
785.30	2416.60
785.47	2416.60
785.65	2301.92
785.83	2475.99
786.00	2295.77
786.18	2506.71
786.35	2351.07
786.53	2359.26
786.71	2637.78
786.88	2557.91
787.06	2441.18
787.23	2465.75
787.41	2299.87
787.58	2457.56
787.76	2326.49
787.94	2377.69
788.11	2512.86
788.29	2363.36
788.46	2320.35
788.64	2291.68
788.81	2473.95
788.99	2375.64
789.16	2389.98
789.34	2406.36
789.52	2357.21
789.69	2379.74
789.87	2228.19
790.04	2357.21
790.22	2416.60
790.39	2695.13
790.57	2324.44
790.74	2295.77
790.92	2574.30
791.09	2312.16
791.27	2545.63
791.44	2586.58
791.62	2478.04
791.79	2541.53
791.97	2471.90
792.15	2785.24
792.32	2658.26
792.50	2553.82
792.67	2613.21
792.85	2688.98
793.02	2488.28
793.20	2439.13
793.37	2365.40
793.55	2367.45
793.72	2306.01
793.90	2531.29
794.07	2375.64
794.25	2322.40
794.42	2447.32
794.60	2381.79
794.77	2523.10
794.95	2592.73
795.12	2523.10
795.30	2471.90
795.47	2273.25
795.65	2682.84
795.82	2506.71
796.00	2373.60
796.17	2445.27
796.34	2361.31
796.52	2553.82
796.69	2627.54
796.87	2568.15
797.04	2539.48
797.22	2537.43
797.39	2514.91
797.57	2576.34
797.74	2506.71
797.92	2400.22
798.09	2408.41
798.27	2621.40
798.44	2389.98
798.62	2410.46
798.79	2447.32
798.96	2521.05
799.14	2428.89
799.31	2867.16
799.49	2469.85
799.66	2412.51
799.84	2496.47
800.01	2351.07
800.19	2586.58
800.36	2191.33
800.53	2394.08
800.71	2465.75
800.88	2658.26
801.06	2408.41
801.23	2381.79
801.41	2471.90
801.58	2432.99
801.75	2336.73
801.93	2461.66
802.10	2555.86
802.28	2516.95
802.45	2371.55
802.63	2508.76
802.80	2666.46
802.97	2435.03
803.15	2496.47
803.32	2492.38
803.50	2408.41
803.67	2447.32
803.84	2277.34
804.02	2443.23
804.19	2457.56
804.37	2207.71
804.54	2301.92
804.71	2412.51
804.89	2510.81
805.06	2365.40
805.24	2306.01
805.41	2308.06
805.58	2291.68
805.76	2775.00
805.93	2469.85
806.10	2635.74
806.28	2521.05
806.45	2523.10
806.63	2537.43
806.80	2535.39
806.97	2590.68
807.15	2539.48
807.32	2482.14
807.49	2383.84
807.67	2355.16
807.84	2576.34
808.01	2263.01
808.19	2613.21
808.36	2807.77
808.54	2404.32
808.71	2334.68
808.88	2510.81
809.06	2592.73
809.23	2607.06
809.40	2482.14
809.58	2512.86
809.75	2521.05
809.92	2394.08
810.10	2680.79
810.27	2473.95
810.44	2547.67
810.62	2551.77
810.79	2432.99
810.96	2430.94
811.14	2383.84
811.31	2506.71
811.48	2543.58
811.66	2441.18
811.83	2693.08
812.00	2449.37
812.18	2473.95
812.35	2631.64
812.52	2414.56
812.69	2492.38
812.87	2486.23
813.04	2398.17
813.21	2420.70
813.39	2361.31
813.56	2353.12
813.73	2553.82
813.91	2289.63
814.08	2439.13
814.25	2457.56
814.42	2263.01
814.60	2428.89
814.77	2457.56
814.94	2422.75
815.12	2482.14
815.29	2660.31
815.46	2432.99
815.63	2498.52
815.81	2457.56
815.98	2461.66
816.15	2432.99
816.33	2498.52
816.50	2445.27
816.67	2492.38
816.84	2463.71
817.02	2297.82
817.19	2416.60
817.36	2459.61
817.53	2545.63
817.71	2375.64
817.88	2482.14
818.05	2449.37
818.22	2414.56
818.40	2572.25
818.57	2453.47
818.74	2529.24
818.91	2562.01
819.09	2449.37
819.26	2523.10
819.43	2396.12
819.60	2383.84
819.78	2496.47
819.95	2625.50
820.12	2320.35
820.29	2627.54
820.47	2613.21
820.64	2392.03
820.81	2236.38
820.98	2328.54
821.15	2381.79
821.33	2533.34
821.50	2303.96
821.67	2510.81
821.84	2334.68
822.02	2459.61
822.19	2621.40
822.36	2441.18
822.53	2383.84
822.70	2281.44
822.88	2445.27
823.05	2688.98
823.22	2494.43
823.39	2510.81
823.56	2424.80
823.74	2738.13
823.91	2373.60
824.08	2367.45
824.25	2359.26
824.42	2711.51
824.60	2277.34
824.77	2484.19
824.94	2455.51
825.11	2559.96
825.28	2293.72
825.45	2475.99
825.63	2508.76
825.80	2310.11
825.97	2447.32
826.14	2445.27
826.31	2271.20
826.48	2508.76
826.66	2367.45
826.83	2432.99
827.00	2424.80
827.17	2308.06
827.34	2432.99
827.51	2277.34
827.69	2488.28
827.86	2269.15
828.03	2441.18
828.20	2449.37
828.37	2420.70
828.54	2523.10
828.71	2416.60
828.89	2562.01
829.06	2496.47
829.23	2670.55
829.40	2340.83
829.57	2432.99
829.74	2588.63
829.91	2412.51
830.09	2346.97
830.26	2496.47
830.43	2686.94
830.60	2451.42
830.77	2564.06
830.94	2539.48
831.11	2592.73
831.28	2506.71
831.46	2619.35
831.63	2449.37
831.80	2662.36
831.97	2410.46
832.14	2467.80
832.31	2449.37
832.48	2559.96
832.65	2557.91
832.82	2496.47
832.99	2506.71
833.17	2404.32
833.34	2600.92
833.51	2435.03
833.68	2267.10
833.85	2596.82
834.02	2383.84
834.19	2324.44
834.36	2373.60
834.53	2529.24
834.70	2537.43
834.87	2529.24
835.04	2320.35
835.22	2392.03
835.39	2387.93
835.56	2308.06
835.73	2381.79
835.90	2594.78
836.07	2408.41
836.24	2422.75
836.41	2303.96
836.58	2324.44
836.75	2566.10
836.92	2392.03
837.09	2316.25
837.26	2578.39
837.43	2492.38
837.60	2428.89
837.77	2379.74
837.94	2531.29
838.12	2629.59
838.29	2400.22
838.46	2228.19
838.63	2367.45
838.80	2635.74
838.97	2404.32
839.14	2308.06
839.31	2461.66
839.48	2564.06
839.65	2398.17
839.82	2465.75
839.99	2473.95
840.16	2480.09
840.33	2269.15
840.50	2410.46
840.67	2342.88
840.84	2158.56
841.01	2385.88
841.18	2371.55
841.35	2463.71
841.52	2574.30
841.69	2609.11
841.86	2398.17
842.03	2373.60
842.20	2596.82
842.37	2369.50
842.54	2430.94
842.71	2420.70
842.88	2320.35
843.05	2357.21
843.22	2338.78
843.39	2590.68
843.56	2412.51
843.73	2338.78
843.90	2379.74
844.07	2389.98
844.24	2596.82
844.41	2465.75
844.58	2435.03
844.75	2396.12
844.92	2557.91
845.09	2449.37
845.26	2346.97
845.43	2572.25
845.60	2465.75
845.77	2531.29
845.94	2508.76
846.10	2643.93
846.27	2289.63
846.44	2340.83
846.61	2260.96
846.78	2637.78
846.95	2588.63
847.12	2349.02
847.29	2420.70
847.46	2392.03
847.63	2576.34
847.80	2326.49
847.97	2359.26
848.14	2748.37
848.31	2447.32
848.48	2244.57
848.65	2506.71
848.82	2389.98
848.98	2785.24
849.15	2523.10
849.32	2553.82
849.49	2621.40
849.66	2521.05
849.83	2383.84
850.00	2328.54
850.17	2502.62
850.34	2428.89
850.51	2330.59
850.68	2392.03
850.85	2729.94
851.01	2463.71
851.18	2351.07
851.35	2320.35
851.52	2572.25
851.69	2703.32
851.86	2260.96
852.03	2361.31
852.20	2521.05
852.37	2445.27
852.53	2207.71
852.70	2334.68
852.87	2500.57
853.04	2572.25
853.21	2410.46
853.38	2498.52
853.55	2504.67
853.72	2682.84
853.89	2275.29
854.05	2342.88
854.22	2387.93
854.39	2478.04
854.56	2383.84
854.73	2535.39
854.90	2359.26
855.07	2443.23
855.23	2293.72
855.40	2396.12
855.57	2383.84
855.74	2215.90
855.91	2609.11
856.08	2322.40
856.25	2379.74
856.41	2432.99
856.58	2349.02
856.75	2398.17
856.92	2359.26
857.09	2596.82
857.26	2318.30
857.42	2377.69
857.59	2547.67
857.76	2420.70
857.93	2443.23
858.10	2422.75
858.27	2338.78
858.43	2437.08
858.60	2299.87
858.77	2269.15
858.94	2414.56
859.11	2664.41
859.27	2412.51
859.44	2402.27
859.61	2721.75
859.78	2557.91
859.95	2324.44
860.12	2328.54
860.28	2734.04
860.45	2660.31
860.62	2424.80
860.79	2379.74
860.95	2424.80
861.12	2295.77
861.29	2279.39
861.46	2271.20
861.63	2424.80
861.79	2496.47
861.96	2316.25
862.13	2377.69
862.30	2666.46
862.47	2363.36
862.63	2320.35
862.80	2428.89
862.97	2613.21
863.14	2562.01
863.30	2357.21
863.47	2342.88
863.64	2676.70
863.81	2473.95
863.97	2330.59
864.14	2420.70
864.31	2406.36
864.48	2537.43
864.65	2398.17
864.81	2539.48
864.98	2539.48
865.15	2674.65
865.32	2527.19
865.48	2531.29
865.65	2707.41
865.82	2346.97
865.98	2430.94
866.15	2469.85
866.32	2430.94
866.49	2508.76
866.65	2596.82
866.82	2359.26
866.99	2426.84
867.16	2420.70
867.32	2301.92
867.49	2338.78
867.66	2432.99
867.83	2340.83
867.99	2263.01
868.16	2383.84
868.33	2340.83
868.49	2439.13
868.66	2383.84
868.83	2420.70
868.99	2514.91
869.16	2519.00
869.33	2545.63
869.50	2506.71
869.66	2521.05
869.83	2486.23
870.00	2326.49
870.16	2537.43
870.33	2432.99
870.50	2539.48
870.66	2379.74
870.83	2465.75
871.00	2496.47
871.17	2588.63
871.33	2435.03
871.50	2392.03
871.67	2496.47
871.83	2480.09
872.00	2486.23
872.17	2365.40
872.33	2660.31
872.50	2582.49
872.67	2383.84
872.83	2363.36
873.00	2502.62
873.17	2473.95
873.33	2441.18
873.50	2414.56
873.67	2420.70
873.83	2342.88
874.00	2375.64
874.16	2523.10
874.33	2506.71
874.50	2342.88
874.66	2389.98
874.83	2416.60
875.00	2555.86
875.16	2619.35
875.33	2510.81
875.50	2183.13
875.66	2389.98
875.83	2490.33
875.99	2500.57
876.16	2426.84
876.33	2349.02
876.49	2465.75
876.66	2449.37
876.83	2310.11
876.99	2301.92
877.16	2504.67
877.32	2361.31
877.49	2349.02
877.66	2488.28
877.82	2584.54
877.99	2516.95
878.15	2514.91
878.32	2527.19
878.49	2441.18
878.65	2346.97
878.82	2576.34
878.98	2428.89
879.15	2613.21
879.32	2582.49
879.48	2488.28
879.65	2424.80
879.81	2408.41
879.98	2402.27
880.15	2375.64
880.31	2539.48
880.48	2361.31
880.64	2455.51
880.81	2400.22
880.97	2676.70
881.14	2621.40
881.31	2357.21
881.47	2564.06
881.64	2367.45
881.80	2310.11
881.97	2465.75
882.13	2396.12
882.30	2310.11
882.47	2435.03
882.63	2324.44
882.80	2336.73
882.96	2523.10
883.13	2568.15
883.29	2441.18
883.46	2373.60
883.62	2678.74
883.79	2533.34
883.95	2514.91
884.12	2406.36
884.29	2615.26
884.45	2504.67
884.62	2326.49
884.78	2303.96
884.95	2623.45
885.11	2346.97
885.28	2486.23
885.44	2371.55
885.61	2521.05
885.77	2629.59
885.94	2437.08
886.10	2447.32
886.27	2473.95
886.43	2705.37
886.60	2531.29
886.76	2351.07
886.93	2297.82
887.09	2555.86
887.26	2285.53
887.42	2498.52
887.59	2633.69
887.75	2736.09
887.92	2482.14
888.08	2486.23
888.25	2688.98
888.41	2598.87
888.58	2375.64
888.74	2242.53
888.91	2512.86
>>>>>End Processed Spectral Data<<<<<
