SpectraSuite Data File
++++++++++++++++++++++++++++++++++++
Date: Thu May 05 14:42:04 CEST 2016
User: root
Dark Spectrum Present: No
Reference Spectrum Present: No
Number of Sampled Component Spectra: 1
Spectrometers: USB4C02835
Integration Time (usec): 100000 (USB4C02835)
Spectra Averaged: 1 (USB4C02835)
Boxcar Smoothing: 0 (USB4C02835)
Correct for Electrical Dark: No (USB4C02835)
Strobe/Lamp Enabled: No (USB4C02835)
Correct for Detector Non-linearity: No (USB4C02835)
Correct for Stray Light: No (USB4C02835)
Number of Pixels in Processed Spectrum: 3648
>>>>>Begin Processed Spectral Data<<<<<
177.47	1898.47
177.69	1898.47
177.91	1898.47
178.13	1900.52
178.36	1908.71
178.58	2375.64
178.80	2568.15
179.02	2332.64
179.24	2394.08
179.46	2316.25
179.68	2445.27
179.90	2449.37
180.13	2564.06
180.35	2244.57
180.57	2371.55
180.79	2449.37
181.01	2443.23
181.23	2326.49
181.45	2416.60
181.67	2539.48
181.90	2611.16
182.12	2377.69
182.34	2273.25
182.56	2559.96
182.78	2498.52
183.00	2349.02
183.22	2383.84
183.44	2273.25
183.66	2861.01
183.89	2465.75
184.11	2371.55
184.33	2650.07
184.55	2605.02
184.77	2303.96
184.99	2420.70
185.21	2396.12
185.43	2764.76
185.65	2322.40
185.87	2260.96
186.10	2783.19
186.32	2797.53
186.54	2367.45
186.76	2404.32
186.98	2588.63
187.20	2465.75
187.42	2316.25
187.64	2367.45
187.86	2602.97
188.08	2576.34
188.30	2285.53
188.52	2281.44
188.75	2678.74
188.97	2781.14
189.19	2301.92
189.41	2273.25
189.63	2498.52
189.85	2445.27
190.07	2285.53
190.29	2224.09
190.51	2453.47
190.73	2394.08
190.95	2400.22
191.17	2408.41
191.39	2326.49
191.61	2514.91
191.84	2435.03
192.06	2463.71
192.28	2312.16
192.50	2813.91
192.72	2435.03
192.94	2414.56
193.16	2572.25
193.38	2529.24
193.60	2342.88
193.82	2379.74
194.04	2527.19
194.26	2533.34
194.48	2344.92
194.70	2271.20
194.92	2449.37
195.14	2508.76
195.36	2277.34
195.58	2349.02
195.80	2527.19
196.02	2375.64
196.24	2248.67
196.46	2410.46
196.69	2441.18
196.91	2785.24
197.13	2324.44
197.35	2373.60
197.57	2764.76
197.79	2523.10
198.01	2396.12
198.23	2437.08
198.45	2617.30
198.67	2301.92
198.89	2277.34
199.11	2482.14
199.33	2465.75
199.55	2275.29
199.77	2357.21
199.99	2432.99
200.21	2441.18
200.43	2594.78
200.65	2275.29
200.87	2193.37
201.09	2449.37
201.31	2371.55
201.53	2392.03
201.75	2420.70
201.97	2439.13
202.19	2506.71
202.41	2422.75
202.63	2506.71
202.85	2566.10
203.07	2584.54
203.29	2318.30
203.51	2258.91
203.73	2402.27
203.95	2815.96
204.17	2353.12
204.39	2392.03
204.61	2424.80
204.83	2455.51
205.05	2402.27
205.27	2420.70
205.49	2699.22
205.71	2545.63
205.93	2220.00
206.15	2293.72
206.37	2506.71
206.59	2447.32
206.81	2279.39
207.03	2318.30
207.25	2291.68
207.47	2547.67
207.69	2371.55
207.91	2533.34
208.13	2658.26
208.34	2342.88
208.56	2258.91
208.78	2375.64
209.00	2449.37
209.22	2432.99
209.44	2365.40
209.66	2306.01
209.88	2508.76
210.10	2375.64
210.32	2338.78
210.54	2465.75
210.76	2398.17
210.98	2672.60
211.20	2179.04
211.42	2463.71
211.64	2562.01
211.86	2537.43
212.08	2498.52
212.30	2351.07
212.52	2420.70
212.74	2537.43
212.96	2408.41
213.17	2512.86
213.39	2586.58
213.61	2695.13
213.83	2303.96
214.05	2367.45
214.27	2605.02
214.49	2389.98
214.71	2306.01
214.93	2373.60
215.15	2494.43
215.37	2570.20
215.59	2246.62
215.81	2371.55
216.03	2605.02
216.24	2484.19
216.46	2367.45
216.68	2432.99
216.90	2605.02
217.12	2637.78
217.34	2340.83
217.56	2514.91
217.78	2738.13
218.00	2572.25
218.22	2394.08
218.44	2416.60
218.66	2506.71
218.87	2719.70
219.09	2332.64
219.31	2432.99
219.53	2502.62
219.75	2469.85
219.97	2400.22
220.19	2310.11
220.41	2488.28
220.63	2719.70
220.85	2351.07
221.06	2410.46
221.28	2703.32
221.50	2586.58
221.72	2351.07
221.94	2340.83
222.16	2539.48
222.38	2623.45
222.60	2338.78
222.82	2432.99
223.03	2635.74
223.25	2318.30
223.47	2351.07
223.69	2502.62
223.91	2633.69
224.13	2469.85
224.35	2244.57
224.57	2484.19
224.78	2602.97
225.00	2414.56
225.22	2359.26
225.44	2355.16
225.66	2555.86
225.88	2318.30
226.10	2514.91
226.32	2414.56
226.53	2742.23
226.75	2426.84
226.97	2408.41
227.19	2379.74
227.41	2373.60
227.63	2453.47
227.85	2170.85
228.06	2375.64
228.28	2543.58
228.50	2645.98
228.72	2207.71
228.94	2326.49
229.16	2248.67
229.37	2303.96
229.59	2273.25
229.81	2506.71
230.03	2439.13
230.25	2318.30
230.47	2234.33
230.69	2215.90
230.90	2580.44
231.12	2340.83
231.34	2490.33
231.56	2414.56
231.78	2383.84
232.00	2527.19
232.21	2359.26
232.43	2402.27
232.65	2187.23
232.87	2465.75
233.09	2252.77
233.30	2308.06
233.52	2596.82
233.74	2527.19
233.96	2275.29
234.18	2519.00
234.40	2408.41
234.61	2758.61
234.83	2195.42
235.05	2328.54
235.27	2822.10
235.49	2695.13
235.70	2330.59
235.92	2404.32
236.14	2519.00
236.36	2830.29
236.58	2224.09
236.79	2408.41
237.01	2432.99
237.23	2404.32
237.45	2594.78
237.67	2297.82
237.88	2490.33
238.10	2709.46
238.32	2334.68
238.54	2320.35
238.76	2539.48
238.97	2408.41
239.19	2293.72
239.41	2486.23
239.63	2572.25
239.85	2432.99
240.06	2318.30
240.28	2316.25
240.50	2592.73
240.72	2412.51
240.93	2226.14
241.15	2412.51
241.37	2459.61
241.59	2650.07
241.81	2316.25
242.02	2365.40
242.24	2555.86
242.46	2523.10
242.68	2213.85
242.89	2322.40
243.11	2637.78
243.33	2467.80
243.55	2424.80
243.76	2432.99
243.98	2342.88
244.20	2422.75
244.42	2392.03
244.64	2346.97
244.85	2322.40
245.07	2410.46
245.29	2342.88
245.51	2357.21
245.72	2500.57
245.94	2637.78
246.16	2375.64
246.38	2330.59
246.59	2396.12
246.81	2408.41
247.03	2371.55
247.24	2199.52
247.46	2392.03
247.68	2465.75
247.90	2297.82
248.11	2314.20
248.33	2600.92
248.55	2418.65
248.77	2430.94
248.98	2400.22
249.20	2633.69
249.42	2498.52
249.64	2369.50
249.85	2373.60
250.07	2344.92
250.29	2617.30
250.50	2408.41
250.72	2314.20
250.94	2607.06
251.16	2789.33
251.37	2369.50
251.59	2422.75
251.81	2525.15
252.02	2674.65
252.24	2326.49
252.46	2492.38
252.68	2359.26
252.89	2389.98
253.11	2224.09
253.33	2506.71
253.54	2725.85
253.76	2365.40
253.98	2285.53
254.20	2291.68
254.41	2279.39
254.63	2463.71
254.85	2269.15
255.06	2396.12
255.28	2512.86
255.50	2416.60
255.71	2320.35
255.93	2136.03
256.15	2432.99
256.36	2559.96
256.58	2310.11
256.80	2369.50
257.02	2523.10
257.23	2451.42
257.45	2385.88
257.67	2428.89
257.88	2432.99
258.10	2547.67
258.32	2375.64
258.53	2351.07
258.75	2678.74
258.97	2441.18
259.18	2314.20
259.40	2301.92
259.62	2727.89
259.83	2662.36
260.05	2334.68
260.27	2873.30
260.48	2609.11
260.70	2396.12
260.92	2299.87
261.13	2367.45
261.35	2465.75
261.57	2629.59
261.78	2203.61
262.00	2326.49
262.22	2555.86
262.43	2387.93
262.65	2422.75
262.86	2359.26
263.08	2727.89
263.30	2473.95
263.51	2203.61
263.73	2265.05
263.95	2674.65
264.16	2332.64
264.38	2232.29
264.60	2332.64
264.81	2488.28
265.03	2570.20
265.25	2537.43
265.46	2385.88
265.68	2584.54
265.89	2566.10
266.11	2301.92
266.33	2426.84
266.54	2633.69
266.76	2539.48
266.98	2430.94
267.19	2490.33
267.41	2564.06
267.62	2500.57
267.84	2156.51
268.06	2398.17
268.27	2525.15
268.49	2650.07
268.70	2510.81
268.92	2349.02
269.14	2400.22
269.35	2314.20
269.57	2418.65
269.79	2389.98
270.00	2414.56
270.22	2666.46
270.43	2248.67
270.65	2211.81
270.87	2488.28
271.08	2627.54
271.30	2373.60
271.51	2383.84
271.73	2531.29
271.95	2609.11
272.16	2334.68
272.38	2414.56
272.59	2447.32
272.81	2627.54
273.02	2408.41
273.24	2389.98
273.46	2621.40
273.67	2279.39
273.89	2252.77
274.10	2285.53
274.32	2635.74
274.54	2459.61
274.75	2439.13
274.97	2383.84
275.18	2537.43
275.40	2670.55
275.61	2342.88
275.83	2453.47
276.05	2355.16
276.26	2426.84
276.48	2451.42
276.69	2396.12
276.91	2416.60
277.12	2660.31
277.34	2498.52
277.55	2512.86
277.77	2494.43
277.99	2441.18
278.20	2334.68
278.42	2246.62
278.63	2355.16
278.85	2328.54
279.06	2324.44
279.28	2480.09
279.49	2549.72
279.71	2514.91
279.93	2447.32
280.14	2445.27
280.36	2398.17
280.57	2580.44
280.79	2557.91
281.00	2285.53
281.22	2349.02
281.43	2645.98
281.65	2203.61
281.86	2349.02
282.08	2418.65
282.29	2684.89
282.51	2213.85
282.73	2363.36
282.94	2297.82
283.16	2547.67
283.37	2617.30
283.59	2396.12
283.80	2447.32
284.02	2445.27
284.23	2525.15
284.45	2330.59
284.66	2342.88
284.88	2410.46
285.09	2396.12
285.31	2492.38
285.52	2527.19
285.74	2322.40
285.95	2490.33
286.17	2465.75
286.38	2547.67
286.60	2342.88
286.81	2359.26
287.03	2408.41
287.24	2490.33
287.46	2490.33
287.67	2469.85
287.89	2619.35
288.10	2508.76
288.32	2490.33
288.53	2559.96
288.75	2443.23
288.96	2613.21
289.18	2400.22
289.39	2392.03
289.61	2496.47
289.82	2748.37
290.04	2705.37
290.25	2357.21
290.47	2435.03
290.68	2465.75
290.90	2613.21
291.11	2320.35
291.33	2523.10
291.54	2387.93
291.76	2400.22
291.97	2490.33
292.18	2523.10
292.40	2465.75
292.61	2461.66
292.83	2684.89
293.04	2435.03
293.26	2467.80
293.47	2467.80
293.69	2334.68
293.90	2416.60
294.12	2574.30
294.33	2467.80
294.55	2441.18
294.76	2555.86
294.97	2611.16
295.19	2699.22
295.40	2486.23
295.62	2504.67
295.83	2578.39
296.05	2367.45
296.26	2588.63
296.48	2320.35
296.69	2404.32
296.90	2535.39
297.12	2527.19
297.33	2537.43
297.55	2480.09
297.76	2566.10
297.98	2496.47
298.19	2469.85
298.41	2445.27
298.62	2297.82
298.83	2482.14
299.05	2441.18
299.26	2457.56
299.48	2344.92
299.69	2529.24
299.90	2396.12
300.12	2303.96
300.33	2600.92
300.55	2455.51
300.76	2439.13
300.98	2342.88
301.19	2568.15
301.40	2392.03
301.62	2359.26
301.83	2545.63
302.05	2463.71
302.26	2346.97
302.47	2465.75
302.69	2301.92
302.90	2541.53
303.12	2187.23
303.33	2502.62
303.54	2686.94
303.76	2449.37
303.97	2439.13
304.19	2564.06
304.40	2379.74
304.61	2559.96
304.83	2600.92
305.04	2547.67
305.26	2539.48
305.47	2480.09
305.68	2422.75
305.90	2383.84
306.11	2523.10
306.33	2437.08
306.54	2402.27
306.75	2342.88
306.97	2330.59
307.18	2418.65
307.39	2293.72
307.61	2496.47
307.82	2441.18
308.04	2531.29
308.25	2371.55
308.46	2416.60
308.68	2449.37
308.89	2475.99
309.10	2535.39
309.32	2486.23
309.53	2367.45
309.74	2574.30
309.96	2381.79
310.17	2539.48
310.39	2402.27
310.60	2529.24
310.81	2443.23
311.03	2346.97
311.24	2572.25
311.45	2512.86
311.67	2723.80
311.88	2439.13
312.09	2457.56
312.31	2422.75
312.52	2443.23
312.73	2367.45
312.95	2299.87
313.16	2418.65
313.37	2564.06
313.59	2432.99
313.80	2609.11
314.01	2725.85
314.23	2426.84
314.44	2408.41
314.65	2344.92
314.87	2365.40
315.08	2422.75
315.29	2439.13
315.51	2414.56
315.72	2295.77
315.93	2602.97
316.15	2416.60
316.36	2400.22
316.57	2482.14
316.79	2461.66
317.00	2418.65
317.21	2492.38
317.43	2328.54
317.64	2465.75
317.85	2328.54
318.07	2336.73
318.28	2445.27
318.49	2586.58
318.70	2736.09
318.92	2625.50
319.13	2641.88
319.34	2709.46
319.56	2392.03
319.77	2672.60
319.98	2645.98
320.20	2584.54
320.41	2588.63
320.62	2523.10
320.83	2402.27
321.05	2639.83
321.26	2529.24
321.47	2492.38
321.69	2504.67
321.90	2342.88
322.11	2455.51
322.32	2543.58
322.54	2691.03
322.75	2422.75
322.96	2793.43
323.18	2365.40
323.39	2250.72
323.60	2453.47
323.81	2543.58
324.03	2504.67
324.24	2441.18
324.45	2441.18
324.66	2314.20
324.88	2545.63
325.09	2672.60
325.30	2473.95
325.52	2441.18
325.73	2551.77
325.94	2406.36
326.15	2293.72
326.37	2387.93
326.58	2643.93
326.79	2648.02
327.00	2353.12
327.22	2342.88
327.43	2486.23
327.64	2369.50
327.85	2494.43
328.07	2475.99
328.28	2693.08
328.49	2422.75
328.70	2375.64
328.92	2441.18
329.13	2428.89
329.34	2525.15
329.55	2629.59
329.76	2506.71
329.98	2496.47
330.19	2658.26
330.40	2523.10
330.61	2473.95
330.83	2553.82
331.04	2355.16
331.25	2531.29
331.46	2400.22
331.68	2301.92
331.89	2605.02
332.10	2412.51
332.31	2281.44
332.52	2457.56
332.74	2727.89
332.95	2285.53
333.16	2394.08
333.37	2613.21
333.58	2432.99
333.80	2432.99
334.01	2285.53
334.22	2445.27
334.43	2375.64
334.64	2428.89
334.86	2340.83
335.07	2316.25
335.28	2688.98
335.49	2359.26
335.70	2435.03
335.92	2645.98
336.13	2811.86
336.34	2400.22
336.55	2424.80
336.76	2555.86
336.98	2283.49
337.19	2412.51
337.40	2598.87
337.61	2846.68
337.82	2514.91
338.04	2549.72
338.25	2301.92
338.46	2455.51
338.67	2451.42
338.88	2363.36
339.09	2365.40
339.31	2392.03
339.52	2379.74
339.73	2396.12
339.94	2428.89
340.15	2643.93
340.36	2420.70
340.58	2441.18
340.79	2373.60
341.00	2623.45
341.21	2277.34
341.42	2594.78
341.63	2426.84
341.85	2559.96
342.06	2490.33
342.27	2336.73
342.48	2545.63
342.69	2387.93
342.90	2570.20
343.12	2584.54
343.33	2410.46
343.54	2555.86
343.75	2645.98
343.96	2418.65
344.17	2336.73
344.38	2478.04
344.60	2383.84
344.81	2408.41
345.02	2318.30
345.23	2633.69
345.44	2744.28
345.65	2465.75
345.86	2461.66
346.07	2539.48
346.29	2412.51
346.50	2469.85
346.71	2580.44
346.92	2643.93
347.13	2762.71
347.34	2473.95
347.55	2353.12
347.76	2523.10
347.98	2342.88
348.19	2424.80
348.40	2547.67
348.61	2396.12
348.82	2699.22
349.03	2531.29
349.24	2314.20
349.45	2695.13
349.66	2289.63
349.88	2422.75
350.09	2420.70
350.30	2605.02
350.51	2648.02
350.72	2486.23
350.93	2514.91
351.14	2465.75
351.35	2572.25
351.56	2420.70
351.77	2418.65
351.99	2502.62
352.20	2672.60
352.41	2480.09
352.62	2254.81
352.83	2514.91
353.04	2443.23
353.25	2351.07
353.46	2475.99
353.67	2652.12
353.88	2203.61
354.09	2400.22
354.30	2490.33
354.52	2576.34
354.73	2471.90
354.94	2396.12
355.15	2420.70
355.36	2736.09
355.57	2416.60
355.78	2424.80
355.99	2392.03
356.20	2383.84
356.41	2629.59
356.62	2461.66
356.83	2461.66
357.04	2619.35
357.25	2334.68
357.46	2367.45
357.68	2269.15
357.89	2377.69
358.10	2508.76
358.31	2506.71
358.52	2449.37
358.73	2349.02
358.94	2293.72
359.15	2396.12
359.36	2498.52
359.57	2506.71
359.78	2506.71
359.99	2578.39
360.20	2445.27
360.41	2467.80
360.62	2521.05
360.83	2480.09
361.04	2394.08
361.25	2457.56
361.46	2707.41
361.67	2533.34
361.88	2547.67
362.09	2607.06
362.30	2586.58
362.51	2318.30
362.72	2375.64
362.93	2615.26
363.14	2576.34
363.35	2480.09
363.56	2412.51
363.78	2643.93
363.99	2570.20
364.20	2408.41
364.41	2432.99
364.62	2688.98
364.83	2500.57
365.04	2449.37
365.25	2457.56
365.46	2709.46
365.67	2355.16
365.88	2400.22
366.09	2457.56
366.30	2441.18
366.51	2488.28
366.72	2277.34
366.93	2396.12
367.14	2510.81
367.35	2584.54
367.56	2432.99
367.77	2592.73
367.98	2498.52
368.18	2555.86
368.39	2484.19
368.60	2340.83
368.81	2586.58
369.02	2523.10
369.23	2455.51
369.44	2310.11
369.65	2387.93
369.86	2570.20
370.07	2482.14
370.28	2371.55
370.49	2473.95
370.70	2531.29
370.91	2281.44
371.12	2351.07
371.33	2570.20
371.54	2424.80
371.75	2533.34
371.96	2193.37
372.17	2525.15
372.38	2449.37
372.59	2488.28
372.80	2383.84
373.01	2480.09
373.22	2480.09
373.43	2482.14
373.64	2377.69
373.85	2633.69
374.06	2682.84
374.26	2570.20
374.47	2482.14
374.68	2670.55
374.89	2465.75
375.10	2441.18
375.31	2463.71
375.52	2482.14
375.73	2596.82
375.94	2287.58
376.15	2531.29
376.36	2414.56
376.57	2365.40
376.78	2363.36
376.99	2480.09
377.20	2576.34
377.40	2412.51
377.61	2621.40
377.82	2389.98
378.03	2605.02
378.24	2549.72
378.45	2453.47
378.66	2396.12
378.87	2279.39
379.08	2260.96
379.29	2404.32
379.50	2596.82
379.71	2494.43
379.91	2605.02
380.12	2449.37
380.33	2449.37
380.54	2410.46
380.75	2473.95
380.96	2385.88
381.17	2512.86
381.38	2482.14
381.59	2527.19
381.80	2465.75
382.00	2588.63
382.21	2516.95
382.42	2719.70
382.63	2693.08
382.84	2467.80
383.05	2584.54
383.26	2797.53
383.47	2459.61
383.68	2387.93
383.88	2588.63
384.09	2467.80
384.30	2670.55
384.51	2510.81
384.72	2394.08
384.93	2336.73
385.14	2512.86
385.35	2553.82
385.55	2328.54
385.76	2613.21
385.97	2432.99
386.18	2287.58
386.39	2379.74
386.60	2422.75
386.81	2498.52
387.02	2381.79
387.22	2377.69
387.43	2648.02
387.64	2551.77
387.85	2627.54
388.06	2709.46
388.27	4044.74
388.48	8134.53
388.68	11941.71
388.89	14704.42
389.10	15556.37
389.31	15085.34
389.52	11538.26
389.73	10188.64
389.93	9015.16
390.14	8265.60
390.35	7511.95
390.56	6666.14
390.77	5279.66
390.98	4110.27
391.18	3422.16
391.39	2973.65
391.60	2572.25
391.81	2568.15
392.02	2490.33
392.23	2703.32
392.43	2559.96
392.64	2545.63
392.85	2465.75
393.06	2670.55
393.27	2551.77
393.47	2426.84
393.68	2465.75
393.89	2453.47
394.10	2521.05
394.31	2398.17
394.52	2359.26
394.72	2396.12
394.93	2674.65
395.14	2279.39
395.35	2559.96
395.56	2455.51
395.76	2488.28
395.97	2416.60
396.18	2553.82
396.39	2596.82
396.60	3008.47
396.80	2701.27
397.01	2643.93
397.22	2605.02
397.43	2645.98
397.64	2441.18
397.84	2494.43
398.05	2785.24
398.26	2510.81
398.47	2525.15
398.67	2602.97
398.88	2424.80
399.09	2572.25
399.30	2359.26
399.51	2496.47
399.71	2367.45
399.92	2453.47
400.13	2541.53
400.34	2463.71
400.54	2592.73
400.75	2727.89
400.96	2447.32
401.17	2703.32
401.37	2578.39
401.58	2441.18
401.79	2465.75
402.00	2605.02
402.21	2924.50
402.41	2752.47
402.62	2742.23
402.83	2875.35
403.04	2861.01
403.24	3076.05
403.45	2549.72
403.66	2711.51
403.87	2703.32
404.07	2775.00
404.28	2818.00
404.49	2686.94
404.70	2619.35
404.90	2555.86
405.11	2465.75
405.32	2527.19
405.52	2404.32
405.73	2422.75
405.94	2428.89
406.15	2373.60
406.35	2566.10
406.56	2582.49
406.77	2449.37
406.98	2555.86
407.18	2400.22
407.39	2633.69
407.60	2351.07
407.80	2527.19
408.01	2375.64
408.22	2586.58
408.43	2355.16
408.63	2549.72
408.84	2670.55
409.05	2650.07
409.25	2375.64
409.46	2404.32
409.67	2400.22
409.88	2408.41
410.08	2516.95
410.29	2387.93
410.50	2625.50
410.70	2529.24
410.91	2285.53
411.12	2490.33
411.32	2525.15
411.53	2424.80
411.74	2592.73
411.95	2527.19
412.15	2635.74
412.36	2596.82
412.57	2652.12
412.77	2662.36
412.98	2441.18
413.19	2443.23
413.39	2564.06
413.60	2502.62
413.81	2650.07
414.01	2334.68
414.22	2527.19
414.43	2537.43
414.63	2463.71
414.84	2592.73
415.05	2486.23
415.25	2338.78
415.46	2621.40
415.67	2408.41
415.87	2506.71
416.08	2447.32
416.29	2389.98
416.49	2578.39
416.70	2424.80
416.91	2402.27
417.11	2478.04
417.32	2592.73
417.53	2533.34
417.73	2521.05
417.94	2482.14
418.15	2496.47
418.35	2465.75
418.56	2392.03
418.77	2791.38
418.97	2564.06
419.18	2422.75
419.38	2170.85
419.59	2494.43
419.80	2654.17
420.00	2471.90
420.21	2418.65
420.42	2645.98
420.62	2525.15
420.83	2467.80
421.04	2430.94
421.24	2457.56
421.45	2588.63
421.65	2523.10
421.86	2408.41
422.07	2523.10
422.27	2551.77
422.48	2422.75
422.69	2432.99
422.89	2467.80
423.10	2443.23
423.30	2351.07
423.51	2506.71
423.72	2590.68
423.92	2539.48
424.13	2254.81
424.33	2494.43
424.54	2605.02
424.75	2586.58
424.95	2600.92
425.16	2451.42
425.36	2449.37
425.57	2674.65
425.78	2582.49
425.98	2539.48
426.19	2525.15
426.39	2346.97
426.60	2457.56
426.81	2488.28
427.01	2482.14
427.22	2306.01
427.42	2297.82
427.63	2330.59
427.83	2525.15
428.04	2674.65
428.25	2539.48
428.45	2621.40
428.66	2588.63
428.86	2424.80
429.07	2455.51
429.28	2404.32
429.48	2414.56
429.69	2344.92
429.89	2473.95
430.10	2326.49
430.30	2590.68
430.51	2596.82
430.71	2371.55
430.92	2422.75
431.13	2443.23
431.33	2519.00
431.54	2523.10
431.74	2600.92
431.95	2752.47
432.15	2322.40
432.36	2457.56
432.56	2557.91
432.77	2723.80
432.98	2680.79
433.18	2551.77
433.39	2451.42
433.59	2430.94
433.80	2758.61
434.00	2627.54
434.21	2430.94
434.41	2342.88
434.62	2811.86
434.82	2353.12
435.03	2373.60
435.23	2504.67
435.44	2273.25
435.64	2402.27
435.85	2584.54
436.06	2529.24
436.26	2584.54
436.47	2392.03
436.67	2410.46
436.88	2455.51
437.08	2609.11
437.29	2502.62
437.49	2580.44
437.70	2660.31
437.90	2523.10
438.11	2645.98
438.31	2469.85
438.52	2766.81
438.72	2625.50
438.93	2727.89
439.13	2555.86
439.34	2680.79
439.54	2543.58
439.75	2547.67
439.95	2514.91
440.16	2455.51
440.36	2465.75
440.57	2502.62
440.77	2455.51
440.98	2531.29
441.18	2494.43
441.39	2326.49
441.59	2334.68
441.80	2764.76
442.00	2473.95
442.21	2516.95
442.41	2293.72
442.62	2596.82
442.82	2412.51
443.02	2494.43
443.23	2449.37
443.43	2449.37
443.64	2760.66
443.84	2404.32
444.05	2521.05
444.25	2523.10
444.46	2418.65
444.66	2424.80
444.87	2557.91
445.07	2273.25
445.28	2512.86
445.48	2641.88
445.69	2531.29
445.89	2813.91
446.09	2498.52
446.30	2856.92
446.50	3020.75
446.71	4595.64
446.91	5849.00
447.12	6553.50
447.32	7004.05
447.53	6653.85
447.73	5463.98
447.93	4845.49
448.14	4556.73
448.34	4409.28
448.55	3784.65
448.75	3848.13
448.96	3624.90
449.16	3289.04
449.36	3131.34
449.57	2703.32
449.77	2629.59
449.98	2521.05
450.18	2582.49
450.39	2490.33
450.59	2572.25
450.79	2506.71
451.00	2416.60
451.20	2539.48
451.41	2471.90
451.61	2572.25
451.81	2584.54
452.02	2416.60
452.22	2428.89
452.43	2443.23
452.63	2422.75
452.84	2465.75
453.04	2414.56
453.24	2498.52
453.45	2381.79
453.65	2478.04
453.86	2486.23
454.06	2473.95
454.26	2537.43
454.47	2338.78
454.67	2559.96
454.87	2547.67
455.08	2486.23
455.28	2568.15
455.49	2525.15
455.69	2416.60
455.89	2682.84
456.10	2619.35
456.30	2414.56
456.51	2586.58
456.71	2574.30
456.91	2506.71
457.12	2498.52
457.32	2508.76
457.52	2392.03
457.73	2541.53
457.93	2574.30
458.14	2482.14
458.34	2267.10
458.54	2408.41
458.75	2383.84
458.95	2588.63
459.15	2537.43
459.36	2461.66
459.56	2555.86
459.76	2834.39
459.97	2455.51
460.17	2498.52
460.37	2602.97
460.58	2555.86
460.78	2543.58
460.99	2445.27
461.19	2453.47
461.39	2428.89
461.60	2508.76
461.80	2600.92
462.00	2330.59
462.21	2510.81
462.41	2449.37
462.61	2375.64
462.82	2320.35
463.02	2480.09
463.22	2572.25
463.43	2498.52
463.63	2504.67
463.83	2656.22
464.04	2549.72
464.24	2432.99
464.44	2375.64
464.64	2537.43
464.85	2539.48
465.05	2500.57
465.25	2439.13
465.46	2367.45
465.66	2623.45
465.86	2537.43
466.07	2469.85
466.27	2498.52
466.47	2256.86
466.68	2369.50
466.88	2580.44
467.08	2641.88
467.29	2570.20
467.49	2535.39
467.69	2473.95
467.89	2537.43
468.10	2430.94
468.30	2469.85
468.50	2576.34
468.71	2564.06
468.91	2449.37
469.11	2680.79
469.31	2590.68
469.52	2351.07
469.72	2666.46
469.92	2693.08
470.13	2383.84
470.33	2488.28
470.53	2578.39
470.73	2873.30
470.94	3348.43
471.14	3373.00
471.34	3866.56
471.54	3747.78
471.75	3393.48
471.95	3071.95
472.15	2875.35
472.36	3010.51
472.56	2942.93
472.76	2916.31
472.96	2938.84
473.17	2752.47
473.37	2703.32
473.57	2535.39
473.77	2590.68
473.98	2519.00
474.18	2326.49
474.38	2891.73
474.58	2457.56
474.79	2416.60
474.99	2535.39
475.19	2596.82
475.39	2340.83
475.60	2465.75
475.80	2426.84
476.00	2564.06
476.20	2506.71
476.41	2539.48
476.61	2478.04
476.81	2666.46
477.01	2367.45
477.21	2740.18
477.42	2637.78
477.62	2435.03
477.82	2621.40
478.02	2406.36
478.23	2506.71
478.43	2355.16
478.63	2500.57
478.83	2510.81
479.03	2445.27
479.24	2609.11
479.44	2809.81
479.64	2340.83
479.84	2267.10
480.04	2389.98
480.25	2617.30
480.45	2349.02
480.65	2396.12
480.85	2703.32
481.06	2428.89
481.26	2564.06
481.46	2424.80
481.66	2555.86
481.86	2441.18
482.06	2580.44
482.27	2457.56
482.47	2428.89
482.67	2564.06
482.87	2494.43
483.07	2590.68
483.28	2396.12
483.48	2435.03
483.68	2437.08
483.88	2342.88
484.08	2215.90
484.29	2363.36
484.49	2469.85
484.69	2338.78
484.89	2643.93
485.09	2617.30
485.29	2514.91
485.50	2562.01
485.70	2465.75
485.90	2650.07
486.10	2504.67
486.30	2478.04
486.50	2564.06
486.71	2568.15
486.91	2580.44
487.11	2527.19
487.31	2359.26
487.51	2521.05
487.71	2387.93
487.91	2344.92
488.12	2326.49
488.32	2246.62
488.52	2410.46
488.72	2252.77
488.92	2525.15
489.12	2637.78
489.32	2678.74
489.53	2482.14
489.73	2365.40
489.93	2709.46
490.13	2394.08
490.33	2306.01
490.53	2572.25
490.73	2658.26
490.94	2265.05
491.14	2539.48
491.34	2605.02
491.54	2830.29
491.74	3465.16
491.94	4011.97
492.14	4227.01
492.34	4394.94
492.54	4151.23
492.75	3530.70
492.95	3438.54
493.15	3209.17
493.35	3090.38
493.55	3047.38
493.75	2947.03
493.95	2959.31
494.15	2736.09
494.35	2588.63
494.56	2572.25
494.76	2410.46
494.96	2473.95
495.16	2549.72
495.36	2463.71
495.56	2486.23
495.76	2439.13
495.96	2455.51
496.16	2461.66
496.36	2822.10
496.56	2457.56
496.77	2553.82
496.97	2455.51
497.17	2664.41
497.37	2310.11
497.57	2523.10
497.77	2504.67
497.97	2519.00
498.17	2535.39
498.37	2418.65
498.57	2519.00
498.77	2424.80
498.97	2574.30
499.17	2611.16
499.38	2572.25
499.58	2592.73
499.78	2541.53
499.98	2555.86
500.18	2506.71
500.38	2465.75
500.58	2645.98
500.78	3063.76
500.98	5416.88
501.18	7571.34
501.38	9080.69
501.58	10121.06
501.78	10002.28
501.98	8134.53
502.18	6709.15
502.38	5808.04
502.58	5584.81
502.78	4925.36
502.98	4710.33
503.18	4491.20
503.38	4177.86
503.59	3614.66
503.79	3407.82
503.99	3209.17
504.19	3020.75
504.39	3141.58
504.59	3059.67
504.79	3053.52
504.99	3104.72
505.19	2826.20
505.39	2652.12
505.59	2834.39
505.79	2826.20
505.99	2801.62
506.19	2543.58
506.39	2719.70
506.59	2527.19
506.79	2529.24
506.99	2625.50
507.19	2500.57
507.39	2572.25
507.59	2412.51
507.79	2437.08
507.99	2430.94
508.19	2447.32
508.39	2459.61
508.59	2457.56
508.79	2594.78
508.99	2768.85
509.19	2387.93
509.39	2504.67
509.59	2365.40
509.79	2424.80
509.99	2514.91
510.19	2547.67
510.39	2572.25
510.59	2494.43
510.79	2439.13
510.99	2381.79
511.19	2441.18
511.39	2703.32
511.59	2707.41
511.79	2611.16
511.99	2451.42
512.19	2711.51
512.38	2473.95
512.58	2420.70
512.78	2432.99
512.98	2629.59
513.18	2758.61
513.38	2351.07
513.58	2584.54
513.78	2432.99
513.98	2441.18
514.18	2416.60
514.38	2420.70
514.58	2582.49
514.78	2453.47
514.98	2349.02
515.18	2498.52
515.38	2285.53
515.58	2725.85
515.78	2412.51
515.98	2506.71
516.18	2559.96
516.38	2406.36
516.57	2381.79
516.77	2365.40
516.97	2592.73
517.17	2437.08
517.37	2263.01
517.57	2611.16
517.77	2385.88
517.97	2377.69
518.17	2545.63
518.37	2236.38
518.57	2437.08
518.77	2494.43
518.97	2465.75
519.16	2504.67
519.36	2697.17
519.56	2441.18
519.76	2402.27
519.96	2553.82
520.16	2695.13
520.36	2342.88
520.56	2531.29
520.76	2392.03
520.96	2523.10
521.16	2627.54
521.35	2654.17
521.55	2643.93
521.75	2486.23
521.95	2408.41
522.15	2461.66
522.35	2269.15
522.55	2408.41
522.75	2623.45
522.95	2422.75
523.14	2367.45
523.34	2555.86
523.54	2465.75
523.74	2508.76
523.94	2531.29
524.14	2293.72
524.34	2572.25
524.54	2631.64
524.73	2486.23
524.93	2521.05
525.13	2508.76
525.33	2324.44
525.53	2783.19
525.73	2490.33
525.93	2512.86
526.13	2394.08
526.32	2385.88
526.52	2545.63
526.72	2615.26
526.92	2519.00
527.12	2453.47
527.32	2334.68
527.52	2551.77
527.71	2453.47
527.91	2445.27
528.11	2463.71
528.31	2537.43
528.51	2392.03
528.71	2506.71
528.90	2533.34
529.10	2533.34
529.30	2617.30
529.50	2220.00
529.70	2490.33
529.90	2475.99
530.09	2469.85
530.29	2285.53
530.49	2389.98
530.69	2793.43
530.89	2488.28
531.09	2523.10
531.28	2473.95
531.48	2750.42
531.68	2527.19
531.88	2486.23
532.08	2605.02
532.28	2510.81
532.47	2512.86
532.67	2650.07
532.87	2555.86
533.07	2398.17
533.27	2576.34
533.46	2525.15
533.66	2578.39
533.86	2580.44
534.06	2547.67
534.26	2611.16
534.45	2529.24
534.65	2537.43
534.85	2506.71
535.05	2357.21
535.25	2668.50
535.44	2285.53
535.64	2555.86
535.84	2449.37
536.04	2400.22
536.24	2412.51
536.43	2461.66
536.63	2494.43
536.83	2494.43
537.03	2553.82
537.22	2236.38
537.42	2277.34
537.62	2484.19
537.82	2416.60
538.02	2633.69
538.21	2559.96
538.41	2830.29
538.61	2541.53
538.81	2498.52
539.00	2627.54
539.20	2293.72
539.40	2453.47
539.60	2459.61
539.79	2547.67
539.99	2510.81
540.19	2381.79
540.39	2422.75
540.58	2545.63
540.78	2688.98
540.98	2459.61
541.18	2633.69
541.37	2551.77
541.57	2533.34
541.77	2555.86
541.97	2424.80
542.16	2260.96
542.36	2449.37
542.56	2430.94
542.76	2625.50
542.95	2539.48
543.15	2594.78
543.35	2658.26
543.54	2392.03
543.74	2424.80
543.94	2617.30
544.14	2340.83
544.33	2549.72
544.53	2457.56
544.73	2488.28
544.93	2441.18
545.12	2519.00
545.32	2523.10
545.52	2482.14
545.71	2328.54
545.91	2437.08
546.11	2461.66
546.30	2375.64
546.50	2441.18
546.70	2551.77
546.90	2422.75
547.09	2316.25
547.29	2482.14
547.49	2641.88
547.68	2389.98
547.88	2406.36
548.08	2600.92
548.27	2928.60
548.47	2445.27
548.67	2441.18
548.87	2514.91
549.06	2416.60
549.26	2539.48
549.46	2557.91
549.65	2428.89
549.85	2523.10
550.05	2643.93
550.24	2349.02
550.44	2488.28
550.64	2445.27
550.83	2473.95
551.03	2658.26
551.23	2609.11
551.42	2523.10
551.62	2502.62
551.82	2451.42
552.01	2437.08
552.21	2617.30
552.41	2486.23
552.60	2719.70
552.80	2465.75
553.00	2414.56
553.19	2492.38
553.39	2752.47
553.59	2342.88
553.78	2533.34
553.98	2484.19
554.17	2220.00
554.37	2529.24
554.57	2547.67
554.76	2334.68
554.96	2488.28
555.16	2555.86
555.35	2510.81
555.55	2519.00
555.75	2471.90
555.94	2605.02
556.14	2310.11
556.33	2514.91
556.53	2523.10
556.73	2535.39
556.92	2461.66
557.12	2514.91
557.32	2777.05
557.51	2701.27
557.71	2521.05
557.90	2645.98
558.10	2551.77
558.30	2453.47
558.49	2379.74
558.69	2424.80
558.88	2537.43
559.08	2527.19
559.28	2394.08
559.47	2443.23
559.67	2545.63
559.86	2723.80
560.06	2496.47
560.26	2455.51
560.45	2621.40
560.65	2459.61
560.84	2680.79
561.04	2289.63
561.24	2537.43
561.43	2379.74
561.63	2578.39
561.82	2553.82
562.02	2584.54
562.22	2406.36
562.41	2340.83
562.61	2449.37
562.80	2385.88
563.00	2801.62
563.19	2531.29
563.39	2500.57
563.59	2568.15
563.78	2346.97
563.98	2242.53
564.17	2342.88
564.37	2285.53
564.56	2455.51
564.76	2310.11
564.96	2578.39
565.15	2467.80
565.35	2762.71
565.54	2361.31
565.74	2625.50
565.93	2545.63
566.13	2486.23
566.32	2430.94
566.52	2570.20
566.71	2486.23
566.91	2611.16
567.11	2557.91
567.30	2342.88
567.50	2566.10
567.69	2527.19
567.89	2463.71
568.08	2406.36
568.28	2580.44
568.47	2310.11
568.67	2498.52
568.86	2373.60
569.06	2654.17
569.25	2457.56
569.45	2351.07
569.64	2473.95
569.84	2521.05
570.04	2621.40
570.23	2392.03
570.43	2449.37
570.62	2486.23
570.82	2674.65
571.01	2342.88
571.21	2418.65
571.40	2363.36
571.60	2600.92
571.79	2572.25
571.99	2473.95
572.18	2422.75
572.38	2588.63
572.57	2351.07
572.77	2469.85
572.96	2740.18
573.16	2490.33
573.35	2496.47
573.55	2555.86
573.74	2480.09
573.94	2467.80
574.13	2449.37
574.33	2592.73
574.52	2660.31
574.71	2555.86
574.91	2529.24
575.10	2334.68
575.30	2510.81
575.49	2402.27
575.69	2435.03
575.88	2484.19
576.08	2519.00
576.27	2637.78
576.47	2533.34
576.66	2709.46
576.86	2676.70
577.05	2537.43
577.25	2500.57
577.44	2707.41
577.64	2428.89
577.83	2666.46
578.02	2408.41
578.22	2643.93
578.41	2676.70
578.61	2463.71
578.80	2306.01
579.00	2478.04
579.19	2521.05
579.39	2549.72
579.58	2570.20
579.77	2447.32
579.97	2619.35
580.16	2684.89
580.36	2586.58
580.55	2658.26
580.75	2592.73
580.94	2551.77
581.13	2621.40
581.33	2705.37
581.52	2557.91
581.72	2748.37
581.91	2621.40
582.11	2478.04
582.30	2543.58
582.49	2506.71
582.69	2703.32
582.88	2506.71
583.08	2498.52
583.27	2645.98
583.47	2535.39
583.66	2392.03
583.85	2453.47
584.05	2500.57
584.24	2613.21
584.44	2594.78
584.63	2654.17
584.82	2678.74
585.02	2635.74
585.21	2568.15
585.41	2682.84
585.60	2588.63
585.79	2744.28
585.99	2772.95
586.18	2670.55
586.37	3227.60
586.57	5076.91
586.76	14888.73
586.96	34317.81
587.15	47621.42
587.34	56951.96
587.54	61592.66
587.73	55864.49
587.93	39277.99
588.12	29742.65
588.31	23973.52
588.51	21317.31
588.70	19330.78
588.89	17307.38
589.09	15060.76
589.28	12750.65
589.47	10286.95
589.67	8028.04
589.86	6117.28
590.06	4642.75
590.25	3872.71
590.44	3360.72
590.64	2973.65
590.83	2815.96
591.02	2863.06
591.22	2568.15
591.41	2631.64
591.60	2549.72
591.80	2822.10
591.99	2260.96
592.18	2437.08
592.38	2664.41
592.57	2525.15
592.76	2525.15
592.96	2521.05
593.15	2453.47
593.34	2596.82
593.54	2500.57
593.73	2545.63
593.92	2539.48
594.12	2564.06
594.31	2473.95
594.50	2641.88
594.70	2619.35
594.89	2854.87
595.08	2383.84
595.28	2605.02
595.47	2895.83
595.66	2719.70
595.86	2359.26
596.05	2469.85
596.24	2437.08
596.43	2746.33
596.63	2670.55
596.82	2535.39
597.01	2654.17
597.21	2744.28
597.40	2512.86
597.59	2605.02
597.79	2492.38
597.98	2545.63
598.17	2539.48
598.36	2475.99
598.56	2637.78
598.75	2453.47
598.94	2598.87
599.14	2502.62
599.33	2432.99
599.52	2641.88
599.71	2578.39
599.91	2547.67
600.10	2533.34
600.29	2463.71
600.48	2650.07
600.68	2576.34
600.87	2547.67
601.06	2449.37
601.26	2449.37
601.45	2469.85
601.64	2428.89
601.83	2701.27
602.03	2398.17
602.22	2310.11
602.41	2609.11
602.60	2818.00
602.80	2564.06
602.99	2570.20
603.18	2465.75
603.37	2443.23
603.57	2471.90
603.76	2457.56
603.95	2615.26
604.14	2465.75
604.34	2439.13
604.53	2457.56
604.72	2447.32
604.91	2619.35
605.10	2570.20
605.30	2299.87
605.49	2824.15
605.68	2619.35
605.87	2449.37
606.07	2375.64
606.26	2439.13
606.45	2559.96
606.64	2498.52
606.84	2420.70
607.03	2480.09
607.22	2629.59
607.41	2545.63
607.60	2516.95
607.80	2658.26
607.99	2412.51
608.18	2535.39
608.37	2508.76
608.56	2375.64
608.76	2545.63
608.95	2619.35
609.14	2523.10
609.33	2727.89
609.52	2738.13
609.72	2605.02
609.91	2635.74
610.10	2590.68
610.29	2645.98
610.48	2598.87
610.68	2539.48
610.87	2455.51
611.06	2547.67
611.25	2383.84
611.44	2572.25
611.63	2461.66
611.83	2643.93
612.02	2363.36
612.21	2551.77
612.40	2334.68
612.59	2463.71
612.79	2355.16
612.98	2451.42
613.17	2676.70
613.36	2555.86
613.55	2664.41
613.74	2562.01
613.93	2621.40
614.13	2707.41
614.32	2777.05
614.51	2697.17
614.70	2553.82
614.89	2523.10
615.08	2539.48
615.28	2916.31
615.47	2508.76
615.66	2605.02
615.85	2525.15
616.04	2621.40
616.23	2482.14
616.42	2625.50
616.62	2531.29
616.81	2453.47
617.00	2494.43
617.19	2537.43
617.38	2473.95
617.57	2564.06
617.76	2592.73
617.95	2576.34
618.15	2545.63
618.34	2691.03
618.53	2406.36
618.72	2645.98
618.91	2609.11
619.10	2625.50
619.29	2473.95
619.48	2498.52
619.68	2385.88
619.87	2465.75
620.06	2383.84
620.25	2504.67
620.44	2359.26
620.63	2457.56
620.82	2500.57
621.01	2559.96
621.20	2467.80
621.39	2531.29
621.59	2537.43
621.78	2449.37
621.97	2461.66
622.16	2521.05
622.35	2619.35
622.54	2639.83
622.73	2535.39
622.92	2265.05
623.11	2637.78
623.30	2465.75
623.49	2549.72
623.68	2437.08
623.88	2539.48
624.07	2455.51
624.26	2467.80
624.45	2478.04
624.64	2400.22
624.83	2519.00
625.02	2439.13
625.21	2439.13
625.40	2447.32
625.59	2633.69
625.78	2523.10
625.97	2645.98
626.16	2662.36
626.35	2588.63
626.54	2562.01
626.74	2811.86
626.93	2572.25
627.12	2543.58
627.31	2619.35
627.50	2508.76
627.69	2596.82
627.88	2420.70
628.07	2422.75
628.26	2367.45
628.45	2420.70
628.64	2439.13
628.83	2510.81
629.02	2306.01
629.21	2539.48
629.40	2562.01
629.59	2402.27
629.78	2426.84
629.97	2475.99
630.16	2551.77
630.35	2406.36
630.54	2557.91
630.73	2494.43
630.92	2539.48
631.11	2445.27
631.30	2437.08
631.49	2539.48
631.68	2453.47
631.87	2580.44
632.06	2398.17
632.25	2830.29
632.44	2424.80
632.63	2549.72
632.82	2596.82
633.01	2449.37
633.20	2605.02
633.39	2533.34
633.58	2404.32
633.77	2590.68
633.96	2639.83
634.15	2596.82
634.34	2566.10
634.53	2584.54
634.72	2521.05
634.91	2340.83
635.10	2490.33
635.29	2539.48
635.48	2527.19
635.67	2377.69
635.86	2375.64
636.05	2654.17
636.24	2473.95
636.43	2455.51
636.62	2506.71
636.81	2252.77
637.00	2525.15
637.19	2521.05
637.38	2387.93
637.57	2432.99
637.76	2572.25
637.95	2670.55
638.14	2521.05
638.33	2656.22
638.52	2502.62
638.71	2406.36
638.89	2396.12
639.08	2842.58
639.27	2654.17
639.46	2715.61
639.65	3084.24
639.84	3289.04
640.03	3313.61
640.22	3166.16
640.41	3209.17
640.60	2750.42
640.79	2848.72
640.98	2611.16
641.17	2768.85
641.36	2801.62
641.55	2760.66
641.74	2441.18
641.92	2480.09
642.11	2392.03
642.30	2502.62
642.49	2398.17
642.68	2453.47
642.87	2482.14
643.06	2596.82
643.25	2420.70
643.44	2404.32
643.63	2465.75
643.82	2631.64
644.00	2387.93
644.19	2533.34
644.38	2394.08
644.57	2519.00
644.76	2387.93
644.95	2408.41
645.14	2535.39
645.33	2414.56
645.52	2529.24
645.71	2359.26
645.89	2314.20
646.08	2492.38
646.27	2473.95
646.46	2633.69
646.65	2301.92
646.84	2496.47
647.03	2359.26
647.22	2564.06
647.40	2566.10
647.59	2408.41
647.78	2271.20
647.97	2396.12
648.16	2432.99
648.35	2652.12
648.54	2621.40
648.73	2449.37
648.91	2580.44
649.10	2523.10
649.29	2359.26
649.48	2430.94
649.67	2482.14
649.86	2486.23
650.05	2600.92
650.23	2734.04
650.42	2596.82
650.61	2783.19
650.80	2641.88
650.99	2838.48
651.18	2699.22
651.36	2719.70
651.55	2527.19
651.74	2547.67
651.93	2451.42
652.12	2541.53
652.31	2547.67
652.49	2533.34
652.68	2490.33
652.87	2680.79
653.06	2430.94
653.25	2705.37
653.44	2447.32
653.62	2660.31
653.81	2471.90
654.00	2529.24
654.19	2572.25
654.38	2850.77
654.56	2508.76
654.75	2478.04
654.94	2658.26
655.13	2510.81
655.32	2498.52
655.51	2471.90
655.69	2449.37
655.88	2545.63
656.07	2365.40
656.26	2480.09
656.45	2342.88
656.63	2564.06
656.82	2406.36
657.01	2553.82
657.20	2432.99
657.38	2643.93
657.57	2447.32
657.76	2342.88
657.95	2594.78
658.14	2418.65
658.32	2469.85
658.51	2336.73
658.70	2494.43
658.89	2486.23
659.08	2430.94
659.26	2707.41
659.45	2398.17
659.64	2572.25
659.83	2471.90
660.01	2844.63
660.20	2523.10
660.39	2633.69
660.58	2299.87
660.76	2537.43
660.95	2346.97
661.14	2494.43
661.33	2283.49
661.51	2410.46
661.70	2441.18
661.89	2525.15
662.08	2543.58
662.26	2375.64
662.45	2301.92
662.64	2740.18
662.83	2533.34
663.01	2277.34
663.20	2410.46
663.39	2668.50
663.58	2498.52
663.76	2478.04
663.95	2633.69
664.14	2338.78
664.32	2439.13
664.51	2402.27
664.70	2351.07
664.89	2424.80
665.07	2375.64
665.26	2596.82
665.45	2330.59
665.64	2547.67
665.82	2482.14
666.01	2506.71
666.20	2394.08
666.38	2645.98
666.57	2650.07
666.76	3962.82
666.95	9576.30
667.13	17663.73
667.32	23062.18
667.51	26209.90
667.69	27827.80
667.88	24647.30
668.07	17315.58
668.25	14362.40
668.44	11896.65
668.63	10420.06
668.81	9060.21
669.00	7735.18
669.19	7163.79
669.38	6057.89
669.56	5285.81
669.75	4382.65
669.94	3778.50
670.12	3250.13
670.31	2994.13
670.50	2820.05
670.68	2785.24
670.87	2688.98
671.06	2455.51
671.24	2580.44
671.43	2637.78
671.62	2594.78
671.80	2605.02
671.99	2580.44
672.18	2570.20
672.36	2637.78
672.55	2519.00
672.74	2525.15
672.92	2424.80
673.11	2557.91
673.29	2383.84
673.48	2568.15
673.67	2473.95
673.85	2629.59
674.04	2369.50
674.23	2496.47
674.41	2777.05
674.60	2322.40
674.79	2316.25
674.97	2293.72
675.16	2576.34
675.34	2580.44
675.53	2410.46
675.72	2543.58
675.90	2637.78
676.09	2392.03
676.28	2559.96
676.46	2295.77
676.65	2594.78
676.83	2420.70
677.02	2566.10
677.21	2400.22
677.39	2523.10
677.58	2392.03
677.77	2342.88
677.95	2428.89
678.14	2539.48
678.32	2455.51
678.51	2469.85
678.70	2697.17
678.88	2428.89
679.07	2496.47
679.25	2408.41
679.44	2437.08
679.63	2351.07
679.81	2537.43
680.00	2627.54
680.18	2529.24
680.37	2664.41
680.55	2535.39
680.74	2271.20
680.93	2207.71
681.11	2519.00
681.30	2508.76
681.48	2547.67
681.67	2410.46
681.85	2572.25
682.04	2385.88
682.23	2543.58
682.41	2492.38
682.60	2461.66
682.78	2490.33
682.97	2410.46
683.15	2504.67
683.34	2523.10
683.53	2660.31
683.71	2293.72
683.90	2555.86
684.08	2738.13
684.27	2457.56
684.45	2457.56
684.64	2580.44
684.82	2482.14
685.01	2621.40
685.19	2361.31
685.38	2650.07
685.57	2525.15
685.75	2455.51
685.94	2365.40
686.12	2322.40
686.31	2371.55
686.49	2686.94
686.68	2310.11
686.86	2473.95
687.05	2445.27
687.23	2666.46
687.42	2490.33
687.60	2301.92
687.79	2545.63
687.97	2713.56
688.16	2578.39
688.34	2541.53
688.53	2326.49
688.71	2521.05
688.90	2633.69
689.08	2463.71
689.27	2277.34
689.45	2457.56
689.64	2621.40
689.82	2482.14
690.01	2537.43
690.19	2533.34
690.38	2490.33
690.56	2623.45
690.75	2412.51
690.93	2439.13
691.12	2508.76
691.30	2432.99
691.49	2502.62
691.67	2441.18
691.86	2750.42
692.04	2432.99
692.23	2424.80
692.41	2461.66
692.60	2756.57
692.78	2621.40
692.97	2496.47
693.15	2662.36
693.34	2711.51
693.52	2594.78
693.71	2502.62
693.89	2498.52
694.08	2324.44
694.26	2562.01
694.44	2588.63
694.63	2521.05
694.81	2353.12
695.00	2492.38
695.18	2594.78
695.37	2781.14
695.55	2510.81
695.74	2404.32
695.92	2332.64
696.10	2668.50
696.29	2258.91
696.47	2441.18
696.66	2330.59
696.84	2353.12
697.03	2441.18
697.21	2672.60
697.40	3618.76
697.58	2609.11
697.76	2392.03
697.95	2353.12
698.13	2310.11
698.32	2480.09
698.50	2400.22
698.68	2545.63
698.87	2432.99
699.05	2734.04
699.24	2465.75
699.42	2375.64
699.61	2469.85
699.79	2467.80
699.97	2486.23
700.16	2285.53
700.34	2359.26
700.53	2453.47
700.71	2621.40
700.89	2588.63
701.08	2457.56
701.26	2414.56
701.45	3014.61
701.63	2334.68
701.81	2424.80
702.00	2475.99
702.18	2529.24
702.37	2488.28
702.55	2648.02
702.73	2625.50
702.92	2564.06
703.10	2844.63
703.28	2723.80
703.47	2482.14
703.65	2744.28
703.84	2725.85
704.02	2535.39
704.20	2754.52
704.39	2398.17
704.57	2449.37
704.75	2615.26
704.94	2559.96
705.12	2547.67
705.30	2858.96
705.49	5541.80
705.67	12791.61
705.86	20745.92
706.04	24553.10
706.22	27588.19
706.41	28132.95
706.59	22660.77
706.77	16232.20
706.96	13754.16
707.14	12357.44
707.32	10499.94
707.51	9351.03
707.69	7657.36
707.87	6207.39
708.06	4974.52
708.24	4007.87
708.42	3375.05
708.61	3293.13
708.79	2699.22
708.97	2707.41
709.16	2611.16
709.34	2578.39
709.52	2482.14
709.71	2451.42
709.89	2615.26
710.07	2377.69
710.26	2326.49
710.44	2482.14
710.62	2584.54
710.80	2535.39
710.99	2600.92
711.17	2586.58
711.35	2381.79
711.54	2447.32
711.72	2559.96
711.90	2541.53
712.09	2494.43
712.27	2394.08
712.45	2547.67
712.63	2367.45
712.82	2473.95
713.00	2494.43
713.18	2510.81
713.37	2557.91
713.55	2564.06
713.73	2590.68
713.91	2498.52
714.10	2471.90
714.28	2392.03
714.46	2559.96
714.65	2459.61
714.83	2496.47
715.01	2519.00
715.19	2541.53
715.38	2371.55
715.56	2537.43
715.74	2422.75
715.92	2330.59
716.11	2676.70
716.29	2279.39
716.47	2422.75
716.65	2412.51
716.84	2318.30
717.02	2605.02
717.20	2215.90
717.38	2373.60
717.57	2508.76
717.75	2443.23
717.93	2406.36
718.11	2621.40
718.30	2316.25
718.48	2494.43
718.66	2645.98
718.84	2449.37
719.03	2428.89
719.21	2291.68
719.39	2727.89
719.57	2539.48
719.75	2570.20
719.94	2359.26
720.12	2521.05
720.30	2457.56
720.48	2541.53
720.67	2355.16
720.85	2430.94
721.03	2473.95
721.21	2396.12
721.39	2629.59
721.58	2572.25
721.76	2475.99
721.94	2473.95
722.12	2566.10
722.30	2639.83
722.49	2424.80
722.67	2469.85
722.85	2525.15
723.03	2324.44
723.21	2412.51
723.40	2457.56
723.58	2617.30
723.76	2609.11
723.94	2678.74
724.12	2594.78
724.30	2674.65
724.49	2666.46
724.67	2416.60
724.85	2607.06
725.03	2367.45
725.21	2582.49
725.40	2664.41
725.58	2367.45
725.76	2635.74
725.94	2473.95
726.12	2375.64
726.30	2449.37
726.49	2381.79
726.67	2465.75
726.85	2559.96
727.03	2809.81
727.21	4192.19
727.39	5877.67
727.57	6657.95
727.76	7235.47
727.94	7700.36
728.12	7061.40
728.30	5355.44
728.48	5021.62
728.66	4585.40
728.84	4181.95
729.03	3471.31
729.21	3239.89
729.39	3006.42
729.57	2701.27
729.75	2611.16
729.93	2535.39
730.11	2576.34
730.30	2420.70
730.48	2516.95
730.66	2682.84
730.84	2559.96
731.02	2533.34
731.20	2463.71
731.38	2428.89
731.56	2285.53
731.74	2396.12
731.93	2457.56
732.11	2441.18
732.29	2355.16
732.47	2559.96
732.65	2488.28
732.83	2703.32
733.01	2584.54
733.19	2389.98
733.37	2492.38
733.56	2457.56
733.74	2414.56
733.92	2645.98
734.10	2408.41
734.28	2564.06
734.46	2279.39
734.64	2451.42
734.82	2473.95
735.00	2385.88
735.18	2410.46
735.36	2437.08
735.54	2494.43
735.73	2496.47
735.91	2451.42
736.09	2576.34
736.27	2500.57
736.45	2523.10
736.63	2265.05
736.81	2400.22
736.99	2566.10
737.17	2605.02
737.35	2410.46
737.53	2453.47
737.71	2396.12
737.89	2607.06
738.07	2449.37
738.25	2416.60
738.43	2342.88
738.61	2410.46
738.80	2402.27
738.98	2441.18
739.16	2346.97
739.34	2351.07
739.52	2625.50
739.70	2453.47
739.88	2555.86
740.06	2555.86
740.24	2244.57
740.42	2664.41
740.60	2336.73
740.78	2516.95
740.96	2365.40
741.14	2422.75
741.32	2588.63
741.50	2346.97
741.68	2648.02
741.86	2613.21
742.04	2357.21
742.22	2306.01
742.40	2478.04
742.58	2539.48
742.76	2402.27
742.94	2578.39
743.12	2326.49
743.30	2439.13
743.48	2551.77
743.66	2338.78
743.84	2498.52
744.02	2457.56
744.20	2500.57
744.38	2428.89
744.56	2379.74
744.74	2691.03
744.92	2582.49
745.10	2596.82
745.28	2525.15
745.46	2615.26
745.64	2463.71
745.82	2514.91
746.00	2465.75
746.18	2547.67
746.36	2273.25
746.54	2531.29
746.72	2473.95
746.90	2424.80
747.08	2639.83
747.26	2490.33
747.44	2584.54
747.62	2609.11
747.80	2527.19
747.98	2564.06
748.15	2396.12
748.33	2721.75
748.51	2519.00
748.69	2471.90
748.87	2357.21
749.05	2457.56
749.23	2504.67
749.41	2553.82
749.59	2465.75
749.77	2637.78
749.95	2478.04
750.13	2418.65
750.31	2529.24
750.49	2424.80
750.67	2562.01
750.85	2568.15
751.03	2480.09
751.20	2725.85
751.38	2514.91
751.56	2449.37
751.74	2424.80
751.92	2408.41
752.10	2316.25
752.28	2637.78
752.46	2469.85
752.64	2449.37
752.82	2521.05
753.00	2586.58
753.18	2369.50
753.35	2342.88
753.53	2482.14
753.71	2383.84
753.89	2512.86
754.07	2449.37
754.25	2658.26
754.43	2486.23
754.61	2349.02
754.79	2594.78
754.97	2457.56
755.14	2619.35
755.32	2301.92
755.50	2488.28
755.68	2564.06
755.86	2361.31
756.04	2424.80
756.22	2260.96
756.40	2641.88
756.57	2637.78
756.75	2420.70
756.93	2615.26
757.11	2594.78
757.29	2314.20
757.47	2349.02
757.65	2334.68
757.82	2248.67
758.00	2404.32
758.18	2414.56
758.36	2463.71
758.54	2652.12
758.72	2332.64
758.90	2627.54
759.07	2516.95
759.25	2432.99
759.43	2641.88
759.61	2332.64
759.79	3522.51
759.97	2588.63
760.15	2424.80
760.32	2463.71
760.50	2539.48
760.68	2680.79
760.86	2400.22
761.04	2613.21
761.22	2633.69
761.39	2463.71
761.57	2510.81
761.75	2482.14
761.93	2516.95
762.11	2482.14
762.28	2426.84
762.46	2383.84
762.64	2594.78
762.82	2334.68
763.00	2473.95
763.18	2555.86
763.35	2353.12
763.53	2551.77
763.71	2504.67
763.89	2457.56
764.07	2549.72
764.24	2473.95
764.42	2543.58
764.60	2453.47
764.78	2578.39
764.96	2580.44
765.13	2473.95
765.31	2414.56
765.49	2506.71
765.67	2424.80
765.84	2443.23
766.02	2318.30
766.20	2242.53
766.38	2486.23
766.56	2572.25
766.73	2584.54
766.91	2484.19
767.09	2432.99
767.27	2496.47
767.44	2248.67
767.62	2559.96
767.80	2498.52
767.98	2416.60
768.15	2475.99
768.33	2535.39
768.51	2588.63
768.69	2535.39
768.87	2428.89
769.04	2547.67
769.22	2736.09
769.40	2617.30
769.58	2750.42
769.75	2498.52
769.93	2580.44
770.11	2422.75
770.28	2287.58
770.46	2523.10
770.64	2480.09
770.82	2404.32
770.99	2357.21
771.17	2605.02
771.35	2504.67
771.53	2473.95
771.70	2420.70
771.88	2574.30
772.06	2500.57
772.23	2394.08
772.41	2588.63
772.59	2428.89
772.77	2326.49
772.94	2389.98
773.12	2512.86
773.30	2424.80
773.47	2494.43
773.65	2414.56
773.83	2600.92
774.01	2482.14
774.18	2224.09
774.36	2453.47
774.54	2310.11
774.71	2543.58
774.89	2271.20
775.07	2361.31
775.24	2449.37
775.42	2396.12
775.60	2824.15
775.78	2353.12
775.95	2324.44
776.13	2375.64
776.31	2238.43
776.48	2555.86
776.66	2617.30
776.84	2381.79
777.01	2435.03
777.19	2379.74
777.37	2359.26
777.54	2584.54
777.72	2670.55
777.90	2418.65
778.07	2316.25
778.25	2822.10
778.43	2568.15
778.60	2396.12
778.78	2514.91
778.96	2566.10
779.13	2346.97
779.31	2576.34
779.49	2447.32
779.66	2426.84
779.84	2533.34
780.01	2404.32
780.19	2359.26
780.37	2674.65
780.54	2580.44
780.72	2334.68
780.90	2381.79
781.07	2449.37
781.25	2408.41
781.43	2559.96
781.60	2432.99
781.78	2629.59
781.95	2516.95
782.13	2383.84
782.31	2447.32
782.48	2285.53
782.66	2494.43
782.83	2717.65
783.01	2469.85
783.19	2537.43
783.36	2496.47
783.54	2357.21
783.72	2494.43
783.89	2375.64
784.07	2447.32
784.24	2457.56
784.42	2621.40
784.60	2478.04
784.77	2514.91
784.95	2269.15
785.12	2404.32
785.30	2459.61
785.47	2383.84
785.65	2275.29
785.83	2375.64
786.00	2398.17
786.18	2547.67
786.35	2316.25
786.53	2346.97
786.71	2578.39
786.88	2506.71
787.06	2455.51
787.23	2439.13
787.41	2277.34
787.58	2441.18
787.76	2367.45
787.94	2387.93
788.11	2559.96
788.29	2316.25
788.46	2412.51
788.64	2402.27
788.81	2367.45
788.99	2392.03
789.16	2338.78
789.34	2363.36
789.52	2308.06
789.69	2400.22
789.87	2314.20
790.04	2430.94
790.22	2424.80
790.39	2723.80
790.57	2318.30
790.74	2367.45
790.92	2578.39
791.09	2314.20
791.27	2387.93
791.44	2576.34
791.62	2465.75
791.79	2584.54
791.97	2490.33
792.15	2742.23
792.32	2478.04
792.50	2590.68
792.67	2666.46
792.85	2676.70
793.02	2496.47
793.20	2451.42
793.37	2326.49
793.55	2478.04
793.72	2332.64
793.90	2596.82
794.07	2365.40
794.25	2402.27
794.42	2471.90
794.60	2453.47
794.77	2494.43
794.95	2504.67
795.12	2629.59
795.30	2457.56
795.47	2316.25
795.65	2738.13
795.82	2510.81
796.00	2332.64
796.17	2437.08
796.34	2473.95
796.52	2471.90
796.69	2586.58
796.87	2596.82
797.04	2519.00
797.22	2533.34
797.39	2514.91
797.57	2586.58
797.74	2451.42
797.92	2519.00
798.09	2367.45
798.27	2572.25
798.44	2394.08
798.62	2342.88
798.79	2457.56
798.96	2533.34
799.14	2383.84
799.31	2787.29
799.49	2527.19
799.66	2398.17
799.84	2480.09
800.01	2330.59
800.19	2498.52
800.36	2373.60
800.53	2473.95
800.71	2609.11
800.88	2721.75
801.06	2365.40
801.23	2408.41
801.41	2478.04
801.58	2387.93
801.75	2383.84
801.93	2514.91
802.10	2637.78
802.28	2420.70
802.45	2346.97
802.63	2461.66
802.80	2656.22
802.97	2473.95
803.15	2437.08
803.32	2418.65
803.50	2402.27
803.67	2312.16
803.84	2344.92
804.02	2435.03
804.19	2463.71
804.37	2226.14
804.54	2342.88
804.71	2414.56
804.89	2367.45
805.06	2326.49
805.24	2357.21
805.41	2346.97
805.58	2400.22
805.76	2813.91
805.93	2422.75
806.10	2535.39
806.28	2523.10
806.45	2441.18
806.63	2424.80
806.80	2541.53
806.97	2488.28
807.15	2539.48
807.32	2424.80
807.49	2400.22
807.67	2351.07
807.84	2482.14
808.01	2312.16
808.19	2613.21
808.36	2813.91
808.54	2396.12
808.71	2408.41
808.88	2449.37
809.06	2684.89
809.23	2623.45
809.40	2475.99
809.58	2486.23
809.75	2557.91
809.92	2349.02
810.10	2705.37
810.27	2400.22
810.44	2529.24
810.62	2539.48
810.79	2539.48
810.96	2432.99
811.14	2455.51
811.31	2523.10
811.48	2539.48
811.66	2420.70
811.83	2658.26
812.00	2568.15
812.18	2519.00
812.35	2654.17
812.52	2455.51
812.69	2353.12
812.87	2471.90
813.04	2412.51
813.21	2498.52
813.39	2408.41
813.56	2363.36
813.73	2559.96
813.91	2346.97
814.08	2387.93
814.25	2510.81
814.42	2322.40
814.60	2365.40
814.77	2461.66
814.94	2484.19
815.12	2426.84
815.29	2670.55
815.46	2340.83
815.63	2529.24
815.81	2389.98
815.98	2367.45
816.15	2428.89
816.33	2441.18
816.50	2432.99
816.67	2488.28
816.84	2441.18
817.02	2222.05
817.19	2416.60
817.36	2521.05
817.53	2492.38
817.71	2408.41
817.88	2504.67
818.05	2437.08
818.22	2519.00
818.40	2678.74
818.57	2398.17
818.74	2637.78
818.91	2418.65
819.09	2566.10
819.26	2572.25
819.43	2400.22
819.60	2424.80
819.78	2523.10
819.95	2566.10
820.12	2418.65
820.29	2652.12
820.47	2514.91
820.64	2371.55
820.81	2285.53
820.98	2394.08
821.15	2332.64
821.33	2615.26
821.50	2297.82
821.67	2566.10
821.84	2410.46
822.02	2418.65
822.19	2576.34
822.36	2385.88
822.53	2426.84
822.70	2260.96
822.88	2502.62
823.05	2643.93
823.22	2498.52
823.39	2535.39
823.56	2523.10
823.74	2691.03
823.91	2363.36
824.08	2293.72
824.25	2408.41
824.42	2725.85
824.60	2322.40
824.77	2482.14
824.94	2478.04
825.11	2461.66
825.28	2367.45
825.45	2580.44
825.63	2510.81
825.80	2363.36
825.97	2488.28
826.14	2422.75
826.31	2318.30
826.48	2562.01
826.66	2342.88
826.83	2494.43
827.00	2494.43
827.17	2394.08
827.34	2455.51
827.51	2373.60
827.69	2392.03
827.86	2293.72
828.03	2330.59
828.20	2504.67
828.37	2441.18
828.54	2562.01
828.71	2471.90
828.89	2519.00
829.06	2473.95
829.23	2705.37
829.40	2299.87
829.57	2418.65
829.74	2541.53
829.91	2422.75
830.09	2535.39
830.26	2555.86
830.43	2578.39
830.60	2453.47
830.77	2453.47
830.94	2602.97
831.11	2572.25
831.28	2416.60
831.46	2502.62
831.63	2365.40
831.80	2580.44
831.97	2492.38
832.14	2424.80
832.31	2578.39
832.48	2398.17
832.65	2625.50
832.82	2469.85
832.99	2516.95
833.17	2367.45
833.34	2619.35
833.51	2545.63
833.68	2193.37
833.85	2600.92
834.02	2320.35
834.19	2375.64
834.36	2349.02
834.53	2541.53
834.70	2545.63
834.87	2488.28
835.04	2301.92
835.22	2379.74
835.39	2506.71
835.56	2326.49
835.73	2394.08
835.90	2547.67
836.07	2400.22
836.24	2572.25
836.41	2344.92
836.58	2351.07
836.75	2547.67
836.92	2447.32
837.09	2367.45
837.26	2588.63
837.43	2586.58
837.60	2428.89
837.77	2342.88
837.94	2574.30
838.12	2670.55
838.29	2367.45
838.46	2238.43
838.63	2400.22
838.80	2664.41
838.97	2469.85
839.14	2422.75
839.31	2482.14
839.48	2605.02
839.65	2326.49
839.82	2439.13
839.99	2459.61
840.16	2512.86
840.33	2295.77
840.50	2283.49
840.67	2346.97
840.84	2174.94
841.01	2291.68
841.18	2320.35
841.35	2357.21
841.52	2586.58
841.69	2637.78
841.86	2449.37
842.03	2613.21
842.20	2678.74
842.37	2406.36
842.54	2432.99
842.71	2494.43
842.88	2295.77
843.05	2381.79
843.22	2387.93
843.39	2613.21
843.56	2342.88
843.73	2377.69
843.90	2455.51
844.07	2533.34
844.24	2551.77
844.41	2471.90
844.58	2441.18
844.75	2449.37
844.92	2551.77
845.09	2414.56
845.26	2318.30
845.43	2619.35
845.60	2379.74
845.77	2559.96
845.94	2422.75
846.10	2545.63
846.27	2420.70
846.44	2320.35
846.61	2363.36
846.78	2566.10
846.95	2605.02
847.12	2428.89
847.29	2367.45
847.46	2383.84
847.63	2629.59
847.80	2285.53
847.97	2342.88
848.14	2768.85
848.31	2514.91
848.48	2236.38
848.65	2449.37
848.82	2430.94
848.98	2727.89
849.15	2463.71
849.32	2521.05
849.49	2627.54
849.66	2490.33
849.83	2402.27
850.00	2326.49
850.17	2578.39
850.34	2531.29
850.51	2371.55
850.68	2424.80
850.85	2736.09
851.01	2543.58
851.18	2381.79
851.35	2418.65
851.52	2504.67
851.69	2586.58
851.86	2303.96
852.03	2381.79
852.20	2553.82
852.37	2457.56
852.53	2228.19
852.70	2396.12
852.87	2570.20
853.04	2564.06
853.21	2377.69
853.38	2496.47
853.55	2668.50
853.72	2588.63
853.89	2322.40
854.05	2373.60
854.22	2457.56
854.39	2418.65
854.56	2430.94
854.73	2455.51
854.90	2326.49
855.07	2473.95
855.23	2371.55
855.40	2299.87
855.57	2463.71
855.74	2275.29
855.91	2547.67
856.08	2248.67
856.25	2310.11
856.41	2400.22
856.58	2389.98
856.75	2437.08
856.92	2357.21
857.09	2580.44
857.26	2258.91
857.42	2363.36
857.59	2588.63
857.76	2387.93
857.93	2375.64
858.10	2418.65
858.27	2310.11
858.43	2471.90
858.60	2332.64
858.77	2275.29
858.94	2389.98
859.11	2527.19
859.27	2357.21
859.44	2363.36
859.61	2668.50
859.78	2594.78
859.95	2357.21
860.12	2355.16
860.28	2801.62
860.45	2691.03
860.62	2365.40
860.79	2412.51
860.95	2451.42
861.12	2383.84
861.29	2355.16
861.46	2383.84
861.63	2428.89
861.79	2521.05
861.96	2340.83
862.13	2367.45
862.30	2635.74
862.47	2398.17
862.63	2269.15
862.80	2424.80
862.97	2613.21
863.14	2514.91
863.30	2381.79
863.47	2314.20
863.64	2701.27
863.81	2502.62
863.97	2385.88
864.14	2420.70
864.31	2430.94
864.48	2559.96
864.65	2283.49
864.81	2539.48
864.98	2566.10
865.15	2570.20
865.32	2373.60
865.48	2469.85
865.65	2688.98
865.82	2402.27
865.98	2473.95
866.15	2461.66
866.32	2457.56
866.49	2414.56
866.65	2461.66
866.82	2340.83
866.99	2523.10
867.16	2416.60
867.32	2342.88
867.49	2383.84
867.66	2416.60
867.83	2379.74
867.99	2244.57
868.16	2404.32
868.33	2365.40
868.49	2441.18
868.66	2428.89
868.83	2545.63
868.99	2437.08
869.16	2504.67
869.33	2490.33
869.50	2494.43
869.66	2506.71
869.83	2447.32
870.00	2322.40
870.16	2504.67
870.33	2523.10
870.50	2576.34
870.66	2404.32
870.83	2514.91
871.00	2504.67
871.17	2506.71
871.33	2488.28
871.50	2318.30
871.67	2463.71
871.83	2473.95
872.00	2451.42
872.17	2351.07
872.33	2684.89
872.50	2605.02
872.67	2336.73
872.83	2293.72
873.00	2490.33
873.17	2449.37
873.33	2435.03
873.50	2459.61
873.67	2359.26
873.83	2379.74
874.00	2359.26
874.16	2457.56
874.33	2531.29
874.50	2318.30
874.66	2367.45
874.83	2523.10
875.00	2570.20
875.16	2674.65
875.33	2414.56
875.50	2215.90
875.66	2377.69
875.83	2535.39
875.99	2422.75
876.16	2480.09
876.33	2453.47
876.49	2408.41
876.66	2471.90
876.83	2316.25
876.99	2279.39
877.16	2377.69
877.32	2363.36
877.49	2408.41
877.66	2547.67
877.82	2631.64
877.99	2475.99
878.15	2588.63
878.32	2471.90
878.49	2523.10
878.65	2367.45
878.82	2621.40
878.98	2412.51
879.15	2605.02
879.32	2441.18
879.48	2551.77
879.65	2387.93
879.81	2424.80
879.98	2316.25
880.15	2398.17
880.31	2512.86
880.48	2344.92
880.64	2496.47
880.81	2475.99
880.97	2709.46
881.14	2611.16
881.31	2381.79
881.47	2625.50
881.64	2428.89
881.80	2291.68
881.97	2482.14
882.13	2467.80
882.30	2334.68
882.47	2488.28
882.63	2404.32
882.80	2389.98
882.96	2371.55
883.13	2705.37
883.29	2404.32
883.46	2416.60
883.62	2693.08
883.79	2465.75
883.95	2471.90
884.12	2351.07
884.29	2637.78
884.45	2471.90
884.62	2463.71
884.78	2357.21
884.95	2631.64
885.11	2326.49
885.28	2408.41
885.44	2346.97
885.61	2559.96
885.77	2613.21
885.94	2441.18
886.10	2408.41
886.27	2443.23
886.43	2680.79
886.60	2527.19
886.76	2428.89
886.93	2340.83
887.09	2506.71
887.26	2277.34
887.42	2432.99
887.59	2543.58
887.75	2711.51
887.92	2547.67
888.08	2549.72
888.25	2564.06
888.41	2551.77
888.58	2402.27
888.74	2349.02
888.91	2453.47
>>>>>End Processed Spectral Data<<<<<
