SpectraSuite Data File
++++++++++++++++++++++++++++++++++++
Date: Thu May 05 14:41:29 CEST 2016
User: root
Dark Spectrum Present: No
Reference Spectrum Present: No
Number of Sampled Component Spectra: 1
Spectrometers: USB4C02835
Integration Time (usec): 100000 (USB4C02835)
Spectra Averaged: 1 (USB4C02835)
Boxcar Smoothing: 0 (USB4C02835)
Correct for Electrical Dark: No (USB4C02835)
Strobe/Lamp Enabled: No (USB4C02835)
Correct for Detector Non-linearity: No (USB4C02835)
Correct for Stray Light: No (USB4C02835)
Number of Pixels in Processed Spectrum: 3648
>>>>>Begin Processed Spectral Data<<<<<
177.47	1949.67
177.69	1949.67
177.91	1949.67
178.13	1929.19
178.36	1918.95
178.58	2351.07
178.80	2516.95
179.02	2277.34
179.24	2396.12
179.46	2359.26
179.68	2308.06
179.90	2418.65
180.13	2412.51
180.35	2269.15
180.57	2336.73
180.79	2527.19
181.01	2488.28
181.23	2389.98
181.45	2463.71
181.67	2521.05
181.90	2572.25
182.12	2371.55
182.34	2211.81
182.56	2508.76
182.78	2514.91
183.00	2291.68
183.22	2422.75
183.44	2217.95
183.66	2840.53
183.89	2459.61
184.11	2334.68
184.33	2551.77
184.55	2607.06
184.77	2359.26
184.99	2324.44
185.21	2457.56
185.43	2777.05
185.65	2375.64
185.87	2336.73
186.10	2727.89
186.32	2805.72
186.54	2467.80
186.76	2430.94
186.98	2572.25
187.20	2473.95
187.42	2439.13
187.64	2332.64
187.86	2482.14
188.08	2605.02
188.30	2404.32
188.52	2381.79
188.75	2717.65
188.97	2633.69
189.19	2383.84
189.41	2346.97
189.63	2574.30
189.85	2453.47
190.07	2258.91
190.29	2258.91
190.51	2572.25
190.73	2367.45
190.95	2424.80
191.17	2375.64
191.39	2277.34
191.61	2416.60
191.84	2324.44
192.06	2435.03
192.28	2334.68
192.50	2844.63
192.72	2445.27
192.94	2420.70
193.16	2629.59
193.38	2525.15
193.60	2267.10
193.82	2441.18
194.04	2572.25
194.26	2500.57
194.48	2379.74
194.70	2318.30
194.92	2346.97
195.14	2580.44
195.36	2285.53
195.58	2383.84
195.80	2473.95
196.02	2478.04
196.24	2408.41
196.46	2416.60
196.69	2432.99
196.91	2764.76
197.13	2310.11
197.35	2396.12
197.57	2680.79
197.79	2541.53
198.01	2408.41
198.23	2308.06
198.45	2498.52
198.67	2312.16
198.89	2238.43
199.11	2506.71
199.33	2371.55
199.55	2193.37
199.77	2410.46
199.99	2408.41
200.21	2430.94
200.43	2492.38
200.65	2156.51
200.87	2224.09
201.09	2473.95
201.31	2461.66
201.53	2392.03
201.75	2404.32
201.97	2471.90
202.19	2467.80
202.41	2420.70
202.63	2531.29
202.85	2586.58
203.07	2600.92
203.29	2353.12
203.51	2330.59
203.73	2346.97
203.95	2779.09
204.17	2412.51
204.39	2492.38
204.61	2422.75
204.83	2471.90
205.05	2449.37
205.27	2449.37
205.49	2893.78
205.71	2539.48
205.93	2256.86
206.15	2363.36
206.37	2490.33
206.59	2445.27
206.81	2232.29
207.03	2263.01
207.25	2400.22
207.47	2535.39
207.69	2330.59
207.91	2568.15
208.13	2686.94
208.34	2455.51
208.56	2293.72
208.78	2379.74
209.00	2414.56
209.22	2437.08
209.44	2369.50
209.66	2279.39
209.88	2539.48
210.10	2424.80
210.32	2295.77
210.54	2514.91
210.76	2430.94
210.98	2564.06
211.20	2203.61
211.42	2496.47
211.64	2602.97
211.86	2547.67
212.08	2371.55
212.30	2363.36
212.52	2432.99
212.74	2609.11
212.96	2355.16
213.17	2322.40
213.39	2531.29
213.61	2670.55
213.83	2334.68
214.05	2375.64
214.27	2703.32
214.49	2404.32
214.71	2220.00
214.93	2432.99
215.15	2523.10
215.37	2523.10
215.59	2228.19
215.81	2443.23
216.03	2596.82
216.24	2379.74
216.46	2363.36
216.68	2381.79
216.90	2555.86
217.12	2596.82
217.34	2244.57
217.56	2441.18
217.78	2639.83
218.00	2553.82
218.22	2482.14
218.44	2461.66
218.66	2529.24
218.87	2725.85
219.09	2392.03
219.31	2381.79
219.53	2494.43
219.75	2408.41
219.97	2484.19
220.19	2412.51
220.41	2488.28
220.63	2682.84
220.85	2367.45
221.06	2432.99
221.28	2715.61
221.50	2596.82
221.72	2400.22
221.94	2295.77
222.16	2557.91
222.38	2519.00
222.60	2424.80
222.82	2445.27
223.03	2584.54
223.25	2312.16
223.47	2473.95
223.69	2584.54
223.91	2572.25
224.13	2562.01
224.35	2197.47
224.57	2535.39
224.78	2580.44
225.00	2383.84
225.22	2394.08
225.44	2375.64
225.66	2580.44
225.88	2463.71
226.10	2498.52
226.32	2396.12
226.53	2654.17
226.75	2416.60
226.97	2408.41
227.19	2359.26
227.41	2453.47
227.63	2492.38
227.85	2136.03
228.06	2383.84
228.28	2473.95
228.50	2551.77
228.72	2244.57
228.94	2351.07
229.16	2250.72
229.37	2365.40
229.59	2236.38
229.81	2527.19
230.03	2478.04
230.25	2342.88
230.47	2244.57
230.69	2260.96
230.90	2553.82
231.12	2379.74
231.34	2396.12
231.56	2420.70
231.78	2400.22
232.00	2473.95
232.21	2432.99
232.43	2359.26
232.65	2187.23
232.87	2547.67
233.09	2299.87
233.30	2293.72
233.52	2531.29
233.74	2396.12
233.96	2449.37
234.18	2439.13
234.40	2469.85
234.61	2738.13
234.83	2215.90
235.05	2303.96
235.27	2803.67
235.49	2605.02
235.70	2236.38
235.92	2416.60
236.14	2629.59
236.36	2746.33
236.58	2258.91
236.79	2357.21
237.01	2463.71
237.23	2559.96
237.45	2453.47
237.67	2344.92
237.88	2525.15
238.10	2721.75
238.32	2297.82
238.54	2254.81
238.76	2469.85
238.97	2381.79
239.19	2279.39
239.41	2408.41
239.63	2629.59
239.85	2408.41
240.06	2424.80
240.28	2275.29
240.50	2627.54
240.72	2459.61
240.93	2349.02
241.15	2404.32
241.37	2445.27
241.59	2645.98
241.81	2381.79
242.02	2336.73
242.24	2543.58
242.46	2551.77
242.68	2215.90
242.89	2299.87
243.11	2533.34
243.33	2445.27
243.55	2332.64
243.76	2349.02
243.98	2412.51
244.20	2496.47
244.42	2308.06
244.64	2383.84
244.85	2349.02
245.07	2396.12
245.29	2480.09
245.51	2326.49
245.72	2502.62
245.94	2686.94
246.16	2342.88
246.38	2422.75
246.59	2375.64
246.81	2340.83
247.03	2367.45
247.24	2289.63
247.46	2381.79
247.68	2498.52
247.90	2301.92
248.11	2416.60
248.33	2586.58
248.55	2453.47
248.77	2381.79
248.98	2469.85
249.20	2717.65
249.42	2523.10
249.64	2455.51
249.85	2340.83
250.07	2375.64
250.29	2543.58
250.50	2432.99
250.72	2318.30
250.94	2490.33
251.16	2830.29
251.37	2371.55
251.59	2418.65
251.81	2514.91
252.02	2682.84
252.24	2322.40
252.46	2455.51
252.68	2408.41
252.89	2377.69
253.11	2240.48
253.33	2451.42
253.54	2666.46
253.76	2326.49
253.98	2338.78
254.20	2322.40
254.41	2324.44
254.63	2439.13
254.85	2170.85
255.06	2367.45
255.28	2531.29
255.50	2473.95
255.71	2228.19
255.93	2291.68
256.15	2455.51
256.36	2547.67
256.58	2297.82
256.80	2400.22
257.02	2480.09
257.23	2523.10
257.45	2318.30
257.67	2406.36
257.88	2416.60
258.10	2600.92
258.32	2326.49
258.53	2396.12
258.75	2719.70
258.97	2342.88
259.18	2322.40
259.40	2357.21
259.62	2627.54
259.83	2650.07
260.05	2371.55
260.27	2918.36
260.48	2578.39
260.70	2349.02
260.92	2392.03
261.13	2379.74
261.35	2494.43
261.57	2580.44
261.78	2256.86
262.00	2275.29
262.22	2580.44
262.43	2400.22
262.65	2416.60
262.86	2451.42
263.08	2695.13
263.30	2527.19
263.51	2170.85
263.73	2295.77
263.95	2629.59
264.16	2367.45
264.38	2273.25
264.60	2324.44
264.81	2514.91
265.03	2656.22
265.25	2568.15
265.46	2387.93
265.68	2625.50
265.89	2562.01
266.11	2260.96
266.33	2387.93
266.54	2602.97
266.76	2519.00
266.98	2361.31
267.19	2465.75
267.41	2627.54
267.62	2549.72
267.84	2256.86
268.06	2410.46
268.27	2471.90
268.49	2596.82
268.70	2361.31
268.92	2371.55
269.14	2365.40
269.35	2308.06
269.57	2373.60
269.79	2432.99
270.00	2412.51
270.22	2703.32
270.43	2291.68
270.65	2240.48
270.87	2570.20
271.08	2562.01
271.30	2414.56
271.51	2357.21
271.73	2514.91
271.95	2553.82
272.16	2281.44
272.38	2457.56
272.59	2400.22
272.81	2512.86
273.02	2383.84
273.24	2428.89
273.46	2576.34
273.67	2375.64
273.89	2301.92
274.10	2332.64
274.32	2625.50
274.54	2500.57
274.75	2449.37
274.97	2369.50
275.18	2523.10
275.40	2531.29
275.61	2416.60
275.83	2439.13
276.05	2379.74
276.26	2545.63
276.48	2394.08
276.69	2363.36
276.91	2480.09
277.12	2576.34
277.34	2596.82
277.55	2588.63
277.77	2498.52
277.99	2469.85
278.20	2310.11
278.42	2353.12
278.63	2408.41
278.85	2334.68
279.06	2383.84
279.28	2416.60
279.49	2512.86
279.71	2527.19
279.93	2443.23
280.14	2478.04
280.36	2449.37
280.57	2576.34
280.79	2469.85
281.00	2293.72
281.22	2361.31
281.43	2590.68
281.65	2228.19
281.86	2367.45
282.08	2525.15
282.29	2701.27
282.51	2271.20
282.73	2314.20
282.94	2303.96
283.16	2523.10
283.37	2555.86
283.59	2408.41
283.80	2504.67
284.02	2510.81
284.23	2490.33
284.45	2404.32
284.66	2381.79
284.88	2420.70
285.09	2375.64
285.31	2473.95
285.52	2562.01
285.74	2256.86
285.95	2539.48
286.17	2525.15
286.38	2543.58
286.60	2416.60
286.81	2301.92
287.03	2392.03
287.24	2531.29
287.46	2580.44
287.67	2451.42
287.89	2645.98
288.10	2402.27
288.32	2551.77
288.53	2566.10
288.75	2449.37
288.96	2621.40
289.18	2418.65
289.39	2424.80
289.61	2551.77
289.82	2809.81
290.04	2775.00
290.25	2346.97
290.47	2389.98
290.68	2455.51
290.90	2652.12
291.11	2279.39
291.33	2555.86
291.54	2465.75
291.76	2330.59
291.97	2502.62
292.18	2443.23
292.40	2414.56
292.61	2416.60
292.83	2600.92
293.04	2512.86
293.26	2519.00
293.47	2428.89
293.69	2324.44
293.90	2340.83
294.12	2637.78
294.33	2480.09
294.55	2373.60
294.76	2588.63
294.97	2617.30
295.19	2811.86
295.40	2326.49
295.62	2412.51
295.83	2695.13
296.05	2383.84
296.26	2568.15
296.48	2365.40
296.69	2377.69
296.90	2531.29
297.12	2473.95
297.33	2633.69
297.55	2482.14
297.76	2555.86
297.98	2547.67
298.19	2506.71
298.41	2461.66
298.62	2402.27
298.83	2570.20
299.05	2394.08
299.26	2500.57
299.48	2359.26
299.69	2484.19
299.90	2469.85
300.12	2439.13
300.33	2539.48
300.55	2342.88
300.76	2457.56
300.98	2359.26
301.19	2516.95
301.40	2408.41
301.62	2424.80
301.83	2553.82
302.05	2547.67
302.26	2387.93
302.47	2383.84
302.69	2420.70
302.90	2457.56
303.12	2269.15
303.33	2478.04
303.54	2711.51
303.76	2435.03
303.97	2494.43
304.19	2582.49
304.40	2371.55
304.61	2506.71
304.83	2568.15
305.04	2545.63
305.26	2467.80
305.47	2453.47
305.68	2445.27
305.90	2291.68
306.11	2639.83
306.33	2498.52
306.54	2365.40
306.75	2326.49
306.97	2285.53
307.18	2389.98
307.39	2439.13
307.61	2490.33
307.82	2465.75
308.04	2602.97
308.25	2400.22
308.46	2447.32
308.68	2455.51
308.89	2480.09
309.10	2562.01
309.32	2486.23
309.53	2437.08
309.74	2564.06
309.96	2426.84
310.17	2527.19
310.39	2346.97
310.60	2551.77
310.81	2441.18
311.03	2359.26
311.24	2572.25
311.45	2449.37
311.67	2621.40
311.88	2453.47
312.09	2426.84
312.31	2453.47
312.52	2408.41
312.73	2375.64
312.95	2303.96
313.16	2392.03
313.37	2598.87
313.59	2475.99
313.80	2613.21
314.01	2691.03
314.23	2392.03
314.44	2326.49
314.65	2287.58
314.87	2394.08
315.08	2400.22
315.29	2377.69
315.51	2408.41
315.72	2365.40
315.93	2586.58
316.15	2441.18
316.36	2387.93
316.57	2490.33
316.79	2488.28
317.00	2344.92
317.21	2557.91
317.43	2381.79
317.64	2475.99
317.85	2400.22
318.07	2355.16
318.28	2430.94
318.49	2635.74
318.70	2713.56
318.92	2658.26
319.13	2672.60
319.34	2629.59
319.56	2488.28
319.77	2564.06
319.98	2574.30
320.20	2627.54
320.41	2568.15
320.62	2580.44
320.83	2301.92
321.05	2650.07
321.26	2502.62
321.47	2523.10
321.69	2609.11
321.90	2316.25
322.11	2342.88
322.32	2473.95
322.54	2551.77
322.75	2428.89
322.96	2805.72
323.18	2336.73
323.39	2273.25
323.60	2351.07
323.81	2533.34
324.03	2383.84
324.24	2516.95
324.45	2478.04
324.66	2377.69
324.88	2645.98
325.09	2670.55
325.30	2400.22
325.52	2408.41
325.73	2570.20
325.94	2383.84
326.15	2318.30
326.37	2324.44
326.58	2547.67
326.79	2668.50
327.00	2365.40
327.22	2443.23
327.43	2482.14
327.64	2269.15
327.85	2441.18
328.07	2451.42
328.28	2746.33
328.49	2400.22
328.70	2422.75
328.92	2383.84
329.13	2400.22
329.34	2531.29
329.55	2670.55
329.76	2539.48
329.98	2557.91
330.19	2576.34
330.40	2504.67
330.61	2453.47
330.83	2643.93
331.04	2334.68
331.25	2484.19
331.46	2389.98
331.68	2424.80
331.89	2537.43
332.10	2459.61
332.31	2293.72
332.52	2521.05
332.74	2662.36
332.95	2342.88
333.16	2326.49
333.37	2537.43
333.58	2334.68
333.80	2412.51
334.01	2256.86
334.22	2490.33
334.43	2408.41
334.64	2367.45
334.86	2258.91
335.07	2404.32
335.28	2703.32
335.49	2295.77
335.70	2551.77
335.92	2605.02
336.13	2711.51
336.34	2482.14
336.55	2428.89
336.76	2484.19
336.98	2310.11
337.19	2392.03
337.40	2559.96
337.61	2807.77
337.82	2480.09
338.04	2521.05
338.25	2308.06
338.46	2457.56
338.67	2473.95
338.88	2400.22
339.09	2326.49
339.31	2441.18
339.52	2314.20
339.73	2371.55
339.94	2430.94
340.15	2541.53
340.36	2453.47
340.58	2437.08
340.79	2289.63
341.00	2564.06
341.21	2342.88
341.42	2586.58
341.63	2418.65
341.85	2553.82
342.06	2486.23
342.27	2359.26
342.48	2531.29
342.69	2361.31
342.90	2539.48
343.12	2562.01
343.33	2383.84
343.54	2654.17
343.75	2621.40
343.96	2539.48
344.17	2385.88
344.38	2435.03
344.60	2357.21
344.81	2375.64
345.02	2396.12
345.23	2572.25
345.44	2818.00
345.65	2527.19
345.86	2441.18
346.07	2635.74
346.29	2340.83
346.50	2553.82
346.71	2478.04
346.92	2572.25
347.13	2785.24
347.34	2392.03
347.55	2412.51
347.76	2488.28
347.98	2387.93
348.19	2465.75
348.40	2605.02
348.61	2334.68
348.82	2691.03
349.03	2514.91
349.24	2389.98
349.45	2686.94
349.66	2220.00
349.88	2437.08
350.09	2334.68
350.30	2641.88
350.51	2545.63
350.72	2551.77
350.93	2406.36
351.14	2439.13
351.35	2504.67
351.56	2416.60
351.77	2449.37
351.99	2605.02
352.20	2645.98
352.41	2465.75
352.62	2203.61
352.83	2500.57
353.04	2449.37
353.25	2432.99
353.46	2539.48
353.67	2678.74
353.88	2324.44
354.09	2457.56
354.30	2449.37
354.52	2570.20
354.73	2498.52
354.94	2389.98
355.15	2455.51
355.36	2785.24
355.57	2439.13
355.78	2453.47
355.99	2387.93
356.20	2439.13
356.41	2635.74
356.62	2467.80
356.83	2494.43
357.04	2637.78
357.25	2256.86
357.46	2439.13
357.68	2258.91
357.89	2359.26
358.10	2475.99
358.31	2455.51
358.52	2404.32
358.73	2371.55
358.94	2441.18
359.15	2392.03
359.36	2463.71
359.57	2498.52
359.78	2525.15
359.99	2531.29
360.20	2267.10
360.41	2502.62
360.62	2500.57
360.83	2488.28
361.04	2437.08
361.25	2494.43
361.46	2711.51
361.67	2533.34
361.88	2471.90
362.09	2525.15
362.30	2521.05
362.51	2420.70
362.72	2447.32
362.93	2564.06
363.14	2537.43
363.35	2516.95
363.56	2318.30
363.78	2625.50
363.99	2578.39
364.20	2394.08
364.41	2449.37
364.62	2760.66
364.83	2437.08
365.04	2449.37
365.25	2422.75
365.46	2736.09
365.67	2367.45
365.88	2455.51
366.09	2459.61
366.30	2514.91
366.51	2541.53
366.72	2256.86
366.93	2441.18
367.14	2389.98
367.35	2674.65
367.56	2465.75
367.77	2527.19
367.98	2428.89
368.18	2553.82
368.39	2543.58
368.60	2375.64
368.81	2553.82
369.02	2535.39
369.23	2422.75
369.44	2236.38
369.65	2359.26
369.86	2609.11
370.07	2539.48
370.28	2375.64
370.49	2490.33
370.70	2596.82
370.91	2326.49
371.12	2252.77
371.33	2736.09
371.54	2357.21
371.75	2478.04
371.96	2170.85
372.17	2504.67
372.38	2428.89
372.59	2469.85
372.80	2426.84
373.01	2453.47
373.22	2588.63
373.43	2467.80
373.64	2265.05
373.85	2598.87
374.06	2719.70
374.26	2598.87
374.47	2500.57
374.68	2781.14
374.89	2553.82
375.10	2367.45
375.31	2605.02
375.52	2400.22
375.73	2512.86
375.94	2365.40
376.15	2596.82
376.36	2342.88
376.57	2498.52
376.78	2379.74
376.99	2422.75
377.20	2580.44
377.40	2435.03
377.61	2629.59
377.82	2314.20
378.03	2691.03
378.24	2521.05
378.45	2375.64
378.66	2465.75
378.87	2273.25
379.08	2336.73
379.29	2410.46
379.50	2592.73
379.71	2389.98
379.91	2559.96
380.12	2381.79
380.33	2459.61
380.54	2537.43
380.75	2447.32
380.96	2451.42
381.17	2555.86
381.38	2457.56
381.59	2633.69
381.80	2578.39
382.00	2643.93
382.21	2467.80
382.42	2701.27
382.63	2693.08
382.84	2490.33
383.05	2641.88
383.26	2686.94
383.47	2490.33
383.68	2461.66
383.88	2523.10
384.09	2457.56
384.30	2688.98
384.51	2488.28
384.72	2514.91
384.93	2318.30
385.14	2441.18
385.35	2617.30
385.55	2357.21
385.76	2619.35
385.97	2416.60
386.18	2291.68
386.39	2387.93
386.60	2461.66
386.81	2392.03
387.02	2334.68
387.22	2363.36
387.43	2670.55
387.64	2494.43
387.85	2658.26
388.06	2678.74
388.27	4036.55
388.48	8183.68
388.68	12195.65
388.89	14417.70
389.10	15804.17
389.31	14800.67
389.52	11482.96
389.73	10078.05
389.93	9162.61
390.14	8335.23
390.35	7436.17
390.56	6758.30
390.77	5339.05
390.98	4227.01
391.18	3444.68
391.39	2885.59
391.60	2621.40
391.81	2670.55
392.02	2412.51
392.23	2795.48
392.43	2467.80
392.64	2611.16
392.85	2504.67
393.06	2648.02
393.27	2535.39
393.47	2355.16
393.68	2490.33
393.89	2432.99
394.10	2494.43
394.31	2387.93
394.52	2349.02
394.72	2381.79
394.93	2662.36
395.14	2355.16
395.35	2490.33
395.56	2432.99
395.76	2455.51
395.97	2469.85
396.18	2582.49
396.39	2633.69
396.60	3002.32
396.80	2783.19
397.01	2598.87
397.22	2641.88
397.43	2637.78
397.64	2412.51
397.84	2613.21
398.05	2766.81
398.26	2465.75
398.47	2605.02
398.67	2611.16
398.88	2541.53
399.09	2486.23
399.30	2379.74
399.51	2506.71
399.71	2375.64
399.92	2473.95
400.13	2482.14
400.34	2457.56
400.54	2545.63
400.75	2629.59
400.96	2353.12
401.17	2627.54
401.37	2570.20
401.58	2496.47
401.79	2512.86
402.00	2529.24
402.21	2957.27
402.41	2797.53
402.62	2834.39
402.83	2914.26
403.04	2932.69
403.24	3100.62
403.45	2572.25
403.66	2740.18
403.87	2826.20
404.07	2787.29
404.28	2801.62
404.49	2711.51
404.70	2615.26
404.90	2650.07
405.11	2439.13
405.32	2547.67
405.52	2432.99
405.73	2402.27
405.94	2389.98
406.15	2504.67
406.35	2572.25
406.56	2564.06
406.77	2506.71
406.98	2461.66
407.18	2416.60
407.39	2699.22
407.60	2488.28
407.80	2467.80
408.01	2467.80
408.22	2488.28
408.43	2289.63
408.63	2494.43
408.84	2619.35
409.05	2676.70
409.25	2396.12
409.46	2340.83
409.67	2469.85
409.88	2439.13
410.08	2465.75
410.29	2383.84
410.50	2627.54
410.70	2555.86
410.91	2365.40
411.12	2502.62
411.32	2529.24
411.53	2387.93
411.74	2506.71
411.95	2494.43
412.15	2555.86
412.36	2633.69
412.57	2588.63
412.77	2613.21
412.98	2564.06
413.19	2422.75
413.39	2543.58
413.60	2463.71
413.81	2613.21
414.01	2422.75
414.22	2457.56
414.43	2510.81
414.63	2529.24
414.84	2621.40
415.05	2512.86
415.25	2289.63
415.46	2506.71
415.67	2521.05
415.87	2457.56
416.08	2441.18
416.29	2457.56
416.49	2596.82
416.70	2400.22
416.91	2394.08
417.11	2529.24
417.32	2574.30
417.53	2562.01
417.73	2502.62
417.94	2457.56
418.15	2555.86
418.35	2453.47
418.56	2478.04
418.77	2809.81
418.97	2496.47
419.18	2422.75
419.38	2215.90
419.59	2426.84
419.80	2699.22
420.00	2361.31
420.21	2510.81
420.42	2654.17
420.62	2537.43
420.83	2432.99
421.04	2492.38
421.24	2486.23
421.45	2637.78
421.65	2527.19
421.86	2418.65
422.07	2596.82
422.27	2529.24
422.48	2351.07
422.69	2342.88
422.89	2445.27
423.10	2465.75
423.30	2387.93
423.51	2566.10
423.72	2545.63
423.92	2590.68
424.13	2275.29
424.33	2510.81
424.54	2566.10
424.75	2531.29
424.95	2660.31
425.16	2463.71
425.36	2408.41
425.57	2598.87
425.78	2568.15
425.98	2469.85
426.19	2506.71
426.39	2392.03
426.60	2504.67
426.81	2580.44
427.01	2488.28
427.22	2332.64
427.42	2316.25
427.63	2373.60
427.83	2576.34
428.04	2676.70
428.25	2592.73
428.45	2545.63
428.66	2555.86
428.86	2432.99
429.07	2400.22
429.28	2432.99
429.48	2469.85
429.69	2408.41
429.89	2572.25
430.10	2326.49
430.30	2537.43
430.51	2570.20
430.71	2385.88
430.92	2445.27
431.13	2424.80
431.33	2521.05
431.54	2533.34
431.74	2578.39
431.95	2828.24
432.15	2365.40
432.36	2400.22
432.56	2529.24
432.77	2775.00
432.98	2676.70
433.18	2514.91
433.39	2389.98
433.59	2473.95
433.80	2736.09
434.00	2658.26
434.21	2443.23
434.41	2342.88
434.62	2748.37
434.82	2310.11
435.03	2371.55
435.23	2500.57
435.44	2334.68
435.64	2432.99
435.85	2519.00
436.06	2623.45
436.26	2551.77
436.47	2422.75
436.67	2424.80
436.88	2519.00
437.08	2596.82
437.29	2578.39
437.49	2537.43
437.70	2686.94
437.90	2496.47
438.11	2639.83
438.31	2598.87
438.52	2742.23
438.72	2693.08
438.93	2758.61
439.13	2533.34
439.34	2750.42
439.54	2490.33
439.75	2607.06
439.95	2590.68
440.16	2359.26
440.36	2498.52
440.57	2498.52
440.77	2453.47
440.98	2484.19
441.18	2545.63
441.39	2365.40
441.59	2295.77
441.80	2746.33
442.00	2375.64
442.21	2553.82
442.41	2355.16
442.62	2627.54
442.82	2412.51
443.02	2430.94
443.23	2559.96
443.43	2412.51
443.64	2719.70
443.84	2351.07
444.05	2578.39
444.25	2523.10
444.46	2529.24
444.66	2414.56
444.87	2615.26
445.07	2355.16
445.28	2469.85
445.48	2621.40
445.69	2584.54
445.89	2791.38
446.09	2537.43
446.30	2682.84
446.50	3010.51
446.71	4440.00
446.91	5818.28
447.12	6682.52
447.32	6973.33
447.53	6641.56
447.73	5570.48
447.93	4718.52
448.14	4487.10
448.34	4394.94
448.55	3850.18
448.75	3768.26
448.96	3575.75
449.16	3305.42
449.36	3047.38
449.57	2715.61
449.77	2521.05
449.98	2463.71
450.18	2545.63
450.39	2516.95
450.59	2584.54
450.79	2467.80
451.00	2471.90
451.20	2543.58
451.41	2457.56
451.61	2652.12
451.81	2531.29
452.02	2432.99
452.22	2467.80
452.43	2381.79
452.63	2392.03
452.84	2426.84
453.04	2467.80
453.24	2529.24
453.45	2441.18
453.65	2490.33
453.86	2461.66
454.06	2562.01
454.26	2600.92
454.47	2375.64
454.67	2625.50
454.87	2482.14
455.08	2404.32
455.28	2570.20
455.49	2568.15
455.69	2398.17
455.89	2727.89
456.10	2549.72
456.30	2381.79
456.51	2512.86
456.71	2473.95
456.91	2545.63
457.12	2469.85
457.32	2508.76
457.52	2381.79
457.73	2525.15
457.93	2478.04
458.14	2414.56
458.34	2318.30
458.54	2422.75
458.75	2441.18
458.95	2600.92
459.15	2529.24
459.36	2478.04
459.56	2512.86
459.76	2858.96
459.97	2547.67
460.17	2424.80
460.37	2584.54
460.58	2482.14
460.78	2568.15
460.99	2414.56
461.19	2453.47
461.39	2349.02
461.60	2453.47
461.80	2455.51
462.00	2389.98
462.21	2523.10
462.41	2316.25
462.61	2432.99
462.82	2254.81
463.02	2459.61
463.22	2496.47
463.43	2504.67
463.63	2482.14
463.83	2699.22
464.04	2504.67
464.24	2478.04
464.44	2381.79
464.64	2506.71
464.85	2502.62
465.05	2502.62
465.25	2396.12
465.46	2308.06
465.66	2590.68
465.86	2566.10
466.07	2467.80
466.27	2547.67
466.47	2334.68
466.68	2301.92
466.88	2586.58
467.08	2564.06
467.29	2551.77
467.49	2430.94
467.69	2469.85
467.89	2568.15
468.10	2441.18
468.30	2539.48
468.50	2572.25
468.71	2674.65
468.91	2277.34
469.11	2713.56
469.31	2490.33
469.52	2445.27
469.72	2686.94
469.92	2662.36
470.13	2420.70
470.33	2471.90
470.53	2588.63
470.73	2842.58
470.94	3350.48
471.14	3487.69
471.34	3745.73
471.54	3735.50
471.75	3321.81
471.95	3030.99
472.15	2940.88
472.36	3047.38
472.56	2938.84
472.76	3022.80
472.96	2920.40
473.17	2760.66
473.37	2729.94
473.57	2514.91
473.77	2633.69
473.98	2564.06
474.18	2351.07
474.38	2877.40
474.58	2455.51
474.79	2306.01
474.99	2566.10
475.19	2490.33
475.39	2297.82
475.60	2539.48
475.80	2416.60
476.00	2457.56
476.20	2478.04
476.41	2498.52
476.61	2537.43
476.81	2672.60
477.01	2392.03
477.21	2629.59
477.42	2602.97
477.62	2359.26
477.82	2580.44
478.02	2392.03
478.23	2590.68
478.43	2365.40
478.63	2500.57
478.83	2363.36
479.03	2389.98
479.24	2684.89
479.44	2707.41
479.64	2363.36
479.84	2244.57
480.04	2334.68
480.25	2592.73
480.45	2357.21
480.65	2445.27
480.85	2662.36
481.06	2461.66
481.26	2537.43
481.46	2457.56
481.66	2543.58
481.86	2387.93
482.06	2529.24
482.27	2449.37
482.47	2375.64
482.67	2539.48
482.87	2451.42
483.07	2510.81
483.28	2430.94
483.48	2490.33
483.68	2404.32
483.88	2437.08
484.08	2256.86
484.29	2379.74
484.49	2531.29
484.69	2318.30
484.89	2652.12
485.09	2574.30
485.29	2439.13
485.50	2553.82
485.70	2467.80
485.90	2654.17
486.10	2482.14
486.30	2439.13
486.50	2566.10
486.71	2502.62
486.91	2645.98
487.11	2494.43
487.31	2363.36
487.51	2519.00
487.71	2330.59
487.91	2359.26
488.12	2383.84
488.32	2217.95
488.52	2424.80
488.72	2172.89
488.92	2461.66
489.12	2613.21
489.32	2564.06
489.53	2504.67
489.73	2449.37
489.93	2709.46
490.13	2412.51
490.33	2310.11
490.53	2506.71
490.73	2668.50
490.94	2314.20
491.14	2580.44
491.34	2549.72
491.54	2758.61
491.74	3354.57
491.94	3973.06
492.14	4249.54
492.34	4247.49
492.54	3905.48
492.75	3436.49
492.95	3514.31
493.15	3196.88
493.35	3094.48
493.55	3092.43
493.75	2891.73
493.95	2987.99
494.15	2750.42
494.35	2650.07
494.56	2457.56
494.76	2420.70
494.96	2574.30
495.16	2494.43
495.36	2521.05
495.56	2545.63
495.76	2494.43
495.96	2418.65
496.16	2465.75
496.36	2693.08
496.56	2449.37
496.77	2496.47
496.97	2482.14
497.17	2688.98
497.37	2351.07
497.57	2539.48
497.77	2537.43
497.97	2398.17
498.17	2457.56
498.37	2453.47
498.57	2582.49
498.77	2502.62
498.97	2611.16
499.17	2701.27
499.38	2537.43
499.58	2613.21
499.78	2572.25
499.98	2568.15
500.18	2559.96
500.38	2439.13
500.58	2625.50
500.78	3039.19
500.98	5339.05
501.18	7448.46
501.38	9006.97
501.58	10143.59
501.78	9975.66
501.98	8025.99
502.18	6905.75
502.38	5756.84
502.58	5365.68
502.78	4794.29
502.98	4716.47
503.18	4480.96
503.38	4136.90
503.59	3569.61
503.79	3469.26
503.99	3190.74
504.19	3055.57
504.39	3112.91
504.59	3143.63
504.79	3041.23
504.99	3145.68
505.19	2826.20
505.39	2734.04
505.59	2912.21
505.79	2772.95
505.99	2660.31
506.19	2600.92
506.39	2713.56
506.59	2457.56
506.79	2527.19
506.99	2678.74
507.19	2416.60
507.39	2545.63
507.59	2357.21
507.79	2445.27
507.99	2400.22
508.19	2557.91
508.39	2406.36
508.59	2482.14
508.79	2613.21
508.99	2721.75
509.19	2379.74
509.39	2492.38
509.59	2361.31
509.79	2400.22
509.99	2510.81
510.19	2588.63
510.39	2527.19
510.59	2519.00
510.79	2465.75
510.99	2383.84
511.19	2414.56
511.39	2736.09
511.59	2639.83
511.79	2605.02
511.99	2506.71
512.19	2672.60
512.38	2496.47
512.58	2424.80
512.78	2465.75
512.98	2617.30
513.18	2596.82
513.38	2244.57
513.58	2553.82
513.78	2473.95
513.98	2512.86
514.18	2408.41
514.38	2447.32
514.58	2545.63
514.78	2494.43
514.98	2334.68
515.18	2428.89
515.38	2324.44
515.58	2731.99
515.78	2469.85
515.98	2408.41
516.18	2535.39
516.38	2531.29
516.57	2445.27
516.77	2369.50
516.97	2547.67
517.17	2379.74
517.37	2269.15
517.57	2572.25
517.77	2521.05
517.97	2410.46
518.17	2490.33
518.37	2346.97
518.57	2416.60
518.77	2412.51
518.97	2408.41
519.16	2473.95
519.36	2699.22
519.56	2461.66
519.76	2424.80
519.96	2379.74
520.16	2715.61
520.36	2359.26
520.56	2576.34
520.76	2445.27
520.96	2545.63
521.16	2617.30
521.35	2631.64
521.55	2627.54
521.75	2543.58
521.95	2490.33
522.15	2422.75
522.35	2263.01
522.55	2478.04
522.75	2639.83
522.95	2463.71
523.14	2349.02
523.34	2516.95
523.54	2332.64
523.74	2551.77
523.94	2400.22
524.14	2308.06
524.34	2529.24
524.54	2650.07
524.73	2428.89
524.93	2559.96
525.13	2508.76
525.33	2326.49
525.53	2703.32
525.73	2547.67
525.93	2486.23
526.13	2420.70
526.32	2422.75
526.52	2551.77
526.72	2645.98
526.92	2498.52
527.12	2394.08
527.32	2363.36
527.52	2539.48
527.71	2537.43
527.91	2475.99
528.11	2402.27
528.31	2432.99
528.51	2373.60
528.71	2594.78
528.90	2543.58
529.10	2596.82
529.30	2527.19
529.50	2275.29
529.70	2484.19
529.90	2424.80
530.09	2562.01
530.29	2338.78
530.49	2428.89
530.69	2818.00
530.89	2512.86
531.09	2535.39
531.28	2463.71
531.48	2635.74
531.68	2387.93
531.88	2541.53
532.08	2637.78
532.28	2453.47
532.47	2584.54
532.67	2580.44
532.87	2588.63
533.07	2420.70
533.27	2598.87
533.46	2527.19
533.66	2584.54
533.86	2482.14
534.06	2510.81
534.26	2516.95
534.45	2486.23
534.65	2586.58
534.85	2521.05
535.05	2400.22
535.25	2691.03
535.44	2308.06
535.64	2562.01
535.84	2422.75
536.04	2475.99
536.24	2475.99
536.43	2318.30
536.63	2502.62
536.83	2441.18
537.03	2449.37
537.22	2342.88
537.42	2316.25
537.62	2459.61
537.82	2355.16
538.02	2648.02
538.21	2533.34
538.41	2834.39
538.61	2537.43
538.81	2387.93
539.00	2553.82
539.20	2314.20
539.40	2492.38
539.60	2514.91
539.79	2521.05
539.99	2451.42
540.19	2463.71
540.39	2432.99
540.58	2529.24
540.78	2582.49
540.98	2555.86
541.18	2586.58
541.37	2529.24
541.57	2543.58
541.77	2482.14
541.97	2435.03
542.16	2326.49
542.36	2410.46
542.56	2447.32
542.76	2738.13
542.95	2611.16
543.15	2568.15
543.35	2566.10
543.54	2256.86
543.74	2338.78
543.94	2680.79
544.14	2494.43
544.33	2478.04
544.53	2447.32
544.73	2418.65
544.93	2504.67
545.12	2424.80
545.32	2418.65
545.52	2379.74
545.71	2400.22
545.91	2394.08
546.11	2383.84
546.30	2387.93
546.50	2480.09
546.70	2545.63
546.90	2465.75
547.09	2285.53
547.29	2549.72
547.49	2527.19
547.68	2435.03
547.88	2484.19
548.08	2521.05
548.27	2899.92
548.47	2488.28
548.67	2449.37
548.87	2613.21
549.06	2400.22
549.26	2506.71
549.46	2494.43
549.65	2447.32
549.85	2449.37
550.05	2439.13
550.24	2408.41
550.44	2523.10
550.64	2508.76
550.83	2504.67
551.03	2680.79
551.23	2650.07
551.42	2496.47
551.62	2428.89
551.82	2545.63
552.01	2504.67
552.21	2576.34
552.41	2400.22
552.60	2693.08
552.80	2490.33
553.00	2414.56
553.19	2471.90
553.39	2656.22
553.59	2357.21
553.78	2527.19
553.98	2416.60
554.17	2351.07
554.37	2539.48
554.57	2531.29
554.76	2293.72
554.96	2443.23
555.16	2564.06
555.35	2529.24
555.55	2543.58
555.75	2572.25
555.94	2613.21
556.14	2312.16
556.33	2572.25
556.53	2432.99
556.73	2490.33
556.92	2471.90
557.12	2514.91
557.32	2758.61
557.51	2602.97
557.71	2555.86
557.90	2691.03
558.10	2719.70
558.30	2439.13
558.49	2414.56
558.69	2404.32
558.88	2590.68
559.08	2504.67
559.28	2463.71
559.47	2473.95
559.67	2539.48
559.86	2738.13
560.06	2381.79
560.26	2490.33
560.45	2586.58
560.65	2492.38
560.84	2682.84
561.04	2420.70
561.24	2527.19
561.43	2389.98
561.63	2602.97
561.82	2430.94
562.02	2584.54
562.22	2408.41
562.41	2322.40
562.61	2398.17
562.80	2385.88
563.00	2781.14
563.19	2490.33
563.39	2578.39
563.59	2545.63
563.78	2373.60
563.98	2308.06
564.17	2422.75
564.37	2316.25
564.56	2469.85
564.76	2291.68
564.96	2588.63
565.15	2619.35
565.35	2801.62
565.54	2437.08
565.74	2514.91
565.93	2490.33
566.13	2463.71
566.32	2496.47
566.52	2562.01
566.71	2531.29
566.91	2621.40
567.11	2486.23
567.30	2363.36
567.50	2645.98
567.69	2539.48
567.89	2480.09
568.08	2396.12
568.28	2516.95
568.47	2418.65
568.67	2488.28
568.86	2396.12
569.06	2559.96
569.25	2551.77
569.45	2365.40
569.64	2412.51
569.84	2539.48
570.04	2553.82
570.23	2385.88
570.43	2457.56
570.62	2584.54
570.82	2719.70
571.01	2340.83
571.21	2449.37
571.40	2400.22
571.60	2613.21
571.79	2490.33
571.99	2451.42
572.18	2437.08
572.38	2553.82
572.57	2463.71
572.77	2541.53
572.96	2793.43
573.16	2559.96
573.35	2441.18
573.55	2621.40
573.74	2572.25
573.94	2473.95
574.13	2387.93
574.33	2602.97
574.52	2654.17
574.71	2541.53
574.91	2471.90
575.10	2346.97
575.30	2453.47
575.49	2430.94
575.69	2457.56
575.88	2506.71
576.08	2564.06
576.27	2660.31
576.47	2498.52
576.66	2596.82
576.86	2693.08
577.05	2512.86
577.25	2555.86
577.44	2727.89
577.64	2447.32
577.83	2645.98
578.02	2432.99
578.22	2572.25
578.41	2742.23
578.61	2473.95
578.80	2342.88
579.00	2457.56
579.19	2486.23
579.39	2611.16
579.58	2596.82
579.77	2447.32
579.97	2643.93
580.16	2586.58
580.36	2668.50
580.55	2605.02
580.75	2535.39
580.94	2514.91
581.13	2711.51
581.33	2602.97
581.52	2572.25
581.72	2768.85
581.91	2617.30
582.11	2508.76
582.30	2631.64
582.49	2654.17
582.69	2711.51
582.88	2629.59
583.08	2602.97
583.27	2662.36
583.47	2547.67
583.66	2437.08
583.85	2400.22
584.05	2473.95
584.24	2506.71
584.44	2506.71
584.63	2662.36
584.82	2797.53
585.02	2645.98
585.21	2656.22
585.41	2650.07
585.60	2605.02
585.79	2762.71
585.99	2693.08
586.18	2600.92
586.37	3252.17
586.57	5142.45
586.76	14790.43
586.96	34207.22
587.15	47666.47
587.34	56439.97
587.54	61383.77
587.73	55395.51
587.93	39089.58
588.12	29478.46
588.31	24231.57
588.51	21110.46
588.70	19416.79
588.89	17276.66
589.09	14964.51
589.28	12599.10
589.47	10352.48
589.67	8030.09
589.86	6209.44
590.06	4607.93
590.25	3850.18
590.44	3268.56
590.64	2985.94
590.83	2818.00
591.02	2715.61
591.22	2584.54
591.41	2668.50
591.60	2449.37
591.80	2768.85
591.99	2336.73
592.18	2375.64
592.38	2678.74
592.57	2445.27
592.76	2441.18
592.96	2480.09
593.15	2555.86
593.34	2580.44
593.54	2494.43
593.73	2564.06
593.92	2555.86
594.12	2602.97
594.31	2553.82
594.50	2717.65
594.70	2590.68
594.89	2783.19
595.08	2404.32
595.28	2633.69
595.47	2947.03
595.66	2615.26
595.86	2506.71
596.05	2473.95
596.24	2529.24
596.43	2719.70
596.63	2645.98
596.82	2617.30
597.01	2549.72
597.21	2721.75
597.40	2602.97
597.59	2508.76
597.79	2553.82
597.98	2682.84
598.17	2504.67
598.36	2424.80
598.56	2559.96
598.75	2500.57
598.94	2605.02
599.14	2461.66
599.33	2473.95
599.52	2654.17
599.71	2508.76
599.91	2543.58
600.10	2596.82
600.29	2435.03
600.48	2580.44
600.68	2543.58
600.87	2600.92
601.06	2400.22
601.26	2478.04
601.45	2445.27
601.64	2467.80
601.83	2678.74
602.03	2398.17
602.22	2328.54
602.41	2580.44
602.60	2781.14
602.80	2562.01
602.99	2562.01
603.18	2439.13
603.37	2533.34
603.57	2475.99
603.76	2473.95
603.95	2717.65
604.14	2432.99
604.34	2447.32
604.53	2398.17
604.72	2480.09
604.91	2527.19
605.10	2480.09
605.30	2361.31
605.49	2703.32
605.68	2621.40
605.87	2465.75
606.07	2441.18
606.26	2543.58
606.45	2602.97
606.64	2457.56
606.84	2387.93
607.03	2588.63
607.22	2605.02
607.41	2547.67
607.60	2367.45
607.80	2650.07
607.99	2478.04
608.18	2478.04
608.37	2484.19
608.56	2457.56
608.76	2678.74
608.95	2758.61
609.14	2490.33
609.33	2645.98
609.52	2725.85
609.72	2586.58
609.91	2652.12
610.10	2506.71
610.29	2621.40
610.48	2570.20
610.68	2516.95
610.87	2488.28
611.06	2650.07
611.25	2430.94
611.44	2602.97
611.63	2516.95
611.83	2654.17
612.02	2365.40
612.21	2586.58
612.40	2215.90
612.59	2365.40
612.79	2416.60
612.98	2504.67
613.17	2660.31
613.36	2564.06
613.55	2609.11
613.74	2414.56
613.93	2684.89
614.13	2660.31
614.32	2822.10
614.51	2727.89
614.70	2580.44
614.89	2529.24
615.08	2545.63
615.28	2990.03
615.47	2482.14
615.66	2574.30
615.85	2553.82
616.04	2662.36
616.23	2553.82
616.42	2553.82
616.62	2473.95
616.81	2553.82
617.00	2525.15
617.19	2588.63
617.38	2484.19
617.57	2519.00
617.76	2504.67
617.95	2645.98
618.15	2492.38
618.34	2693.08
618.53	2363.36
618.72	2668.50
618.91	2572.25
619.10	2635.74
619.29	2506.71
619.48	2478.04
619.68	2342.88
619.87	2430.94
620.06	2312.16
620.25	2531.29
620.44	2467.80
620.63	2426.84
620.82	2531.29
621.01	2545.63
621.20	2551.77
621.39	2543.58
621.59	2551.77
621.78	2514.91
621.97	2461.66
622.16	2519.00
622.35	2572.25
622.54	2682.84
622.73	2578.39
622.92	2293.72
623.11	2666.46
623.30	2443.23
623.49	2547.67
623.68	2326.49
623.88	2703.32
624.07	2574.30
624.26	2459.61
624.45	2490.33
624.64	2488.28
624.83	2445.27
625.02	2447.32
625.21	2469.85
625.40	2535.39
625.59	2529.24
625.78	2490.33
625.97	2572.25
626.16	2742.23
626.35	2684.89
626.54	2555.86
626.74	2725.85
626.93	2545.63
627.12	2490.33
627.31	2535.39
627.50	2519.00
627.69	2645.98
627.88	2457.56
628.07	2394.08
628.26	2338.78
628.45	2465.75
628.64	2379.74
628.83	2359.26
629.02	2330.59
629.21	2541.53
629.40	2555.86
629.59	2432.99
629.78	2486.23
629.97	2562.01
630.16	2535.39
630.35	2465.75
630.54	2514.91
630.73	2416.60
630.92	2559.96
631.11	2359.26
631.30	2461.66
631.49	2588.63
631.68	2496.47
631.87	2420.70
632.06	2299.87
632.25	2809.81
632.44	2475.99
632.63	2564.06
632.82	2605.02
633.01	2506.71
633.20	2568.15
633.39	2478.04
633.58	2355.16
633.77	2539.48
633.96	2584.54
634.15	2527.19
634.34	2516.95
634.53	2555.86
634.72	2461.66
634.91	2324.44
635.10	2471.90
635.29	2633.69
635.48	2510.81
635.67	2420.70
635.86	2301.92
636.05	2789.33
636.24	2445.27
636.43	2527.19
636.62	2574.30
636.81	2197.47
637.00	2525.15
637.19	2453.47
637.38	2484.19
637.57	2471.90
637.76	2584.54
637.95	2682.84
638.14	2541.53
638.33	2637.78
638.52	2607.06
638.71	2349.02
638.89	2326.49
639.08	2908.12
639.27	2701.27
639.46	2734.04
639.65	3170.26
639.84	3229.65
640.03	3397.58
640.22	3151.82
640.41	3137.49
640.60	2897.88
640.79	2799.57
640.98	2775.00
641.17	2736.09
641.36	2717.65
641.55	2727.89
641.74	2424.80
641.92	2555.86
642.11	2457.56
642.30	2465.75
642.49	2447.32
642.68	2500.57
642.87	2586.58
643.06	2576.34
643.25	2361.31
643.44	2320.35
643.63	2473.95
643.82	2586.58
644.00	2373.60
644.19	2375.64
644.38	2385.88
644.57	2629.59
644.76	2447.32
644.95	2441.18
645.14	2572.25
645.33	2441.18
645.52	2482.14
645.71	2375.64
645.89	2342.88
646.08	2412.51
646.27	2461.66
646.46	2602.97
646.65	2355.16
646.84	2463.71
647.03	2414.56
647.22	2668.50
647.40	2506.71
647.59	2443.23
647.78	2293.72
647.97	2375.64
648.16	2363.36
648.35	2668.50
648.54	2492.38
648.73	2408.41
648.91	2535.39
649.10	2437.08
649.29	2422.75
649.48	2453.47
649.67	2580.44
649.86	2545.63
650.05	2596.82
650.23	2678.74
650.42	2543.58
650.61	2742.23
650.80	2783.19
650.99	2756.57
651.18	2684.89
651.36	2637.78
651.55	2508.76
651.74	2594.78
651.93	2482.14
652.12	2543.58
652.31	2478.04
652.49	2449.37
652.68	2385.88
652.87	2654.17
653.06	2502.62
653.25	2725.85
653.44	2467.80
653.62	2652.12
653.81	2521.05
654.00	2486.23
654.19	2654.17
654.38	2863.06
654.56	2523.10
654.75	2396.12
654.94	2633.69
655.13	2506.71
655.32	2467.80
655.51	2609.11
655.69	2432.99
655.88	2592.73
656.07	2469.85
656.26	2527.19
656.45	2330.59
656.63	2539.48
656.82	2482.14
657.01	2621.40
657.20	2437.08
657.38	2760.66
657.57	2406.36
657.76	2258.91
657.95	2514.91
658.14	2361.31
658.32	2451.42
658.51	2252.77
658.70	2469.85
658.89	2527.19
659.08	2457.56
659.26	2627.54
659.45	2424.80
659.64	2553.82
659.83	2449.37
660.01	2807.77
660.20	2555.86
660.39	2742.23
660.58	2285.53
660.76	2576.34
660.95	2377.69
661.14	2424.80
661.33	2408.41
661.51	2420.70
661.70	2406.36
661.89	2496.47
662.08	2447.32
662.26	2365.40
662.45	2361.31
662.64	2723.80
662.83	2539.48
663.01	2293.72
663.20	2420.70
663.39	2605.02
663.58	2396.12
663.76	2418.65
663.95	2486.23
664.14	2342.88
664.32	2400.22
664.51	2351.07
664.70	2320.35
664.89	2547.67
665.07	2361.31
665.26	2586.58
665.45	2414.56
665.64	2523.10
665.82	2551.77
666.01	2576.34
666.20	2295.77
666.38	2586.58
666.57	2672.60
666.76	3946.44
666.95	9537.39
667.13	17901.29
667.32	22703.78
667.51	26033.78
667.69	27659.87
667.88	24417.93
668.07	17397.49
668.25	14147.37
668.44	11890.51
668.63	10237.80
668.81	9107.32
669.00	7792.52
669.19	7094.16
669.38	6164.39
669.56	5355.44
669.75	4417.47
669.94	3899.33
670.12	3157.97
670.31	3030.99
670.50	2783.19
670.68	2740.18
670.87	2576.34
671.06	2504.67
671.24	2600.92
671.43	2650.07
671.62	2621.40
671.80	2506.71
671.99	2584.54
672.18	2426.84
672.36	2678.74
672.55	2590.68
672.74	2471.90
672.92	2537.43
673.11	2602.97
673.29	2346.97
673.48	2547.67
673.67	2420.70
673.85	2637.78
674.04	2402.27
674.23	2478.04
674.41	2756.57
674.60	2359.26
674.79	2293.72
674.97	2355.16
675.16	2590.68
675.34	2598.87
675.53	2430.94
675.72	2457.56
675.90	2670.55
676.09	2432.99
676.28	2539.48
676.46	2316.25
676.65	2535.39
676.83	2408.41
677.02	2537.43
677.21	2482.14
677.39	2617.30
677.58	2359.26
677.77	2445.27
677.95	2404.32
678.14	2473.95
678.32	2404.32
678.51	2394.08
678.70	2723.80
678.88	2361.31
679.07	2512.86
679.25	2424.80
679.44	2490.33
679.63	2398.17
679.81	2523.10
680.00	2619.35
680.18	2533.34
680.37	2633.69
680.55	2519.00
680.74	2371.55
680.93	2217.95
681.11	2482.14
681.30	2435.03
681.48	2531.29
681.67	2443.23
681.85	2430.94
682.04	2387.93
682.23	2482.14
682.41	2453.47
682.60	2461.66
682.78	2473.95
682.97	2359.26
683.15	2420.70
683.34	2480.09
683.53	2641.88
683.71	2314.20
683.90	2652.12
684.08	2711.51
684.27	2482.14
684.45	2533.34
684.64	2660.31
684.82	2496.47
685.01	2553.82
685.19	2484.19
685.38	2586.58
685.57	2455.51
685.75	2432.99
685.94	2437.08
686.12	2351.07
686.31	2457.56
686.49	2738.13
686.68	2258.91
686.86	2537.43
687.05	2424.80
687.23	2635.74
687.42	2461.66
687.60	2297.82
687.79	2658.26
687.97	2654.17
688.16	2613.21
688.34	2543.58
688.53	2242.53
688.71	2473.95
688.90	2533.34
689.08	2453.47
689.27	2289.63
689.45	2600.92
689.64	2521.05
689.82	2596.82
690.01	2559.96
690.19	2551.77
690.38	2492.38
690.56	2555.86
690.75	2359.26
690.93	2441.18
691.12	2428.89
691.30	2512.86
691.49	2420.70
691.67	2500.57
691.86	2740.18
692.04	2408.41
692.23	2457.56
692.41	2547.67
692.60	2772.95
692.78	2676.70
692.97	2523.10
693.15	2607.06
693.34	2703.32
693.52	2621.40
693.71	2441.18
693.89	2435.03
694.08	2361.31
694.26	2586.58
694.44	2504.67
694.63	2547.67
694.81	2377.69
695.00	2445.27
695.18	2621.40
695.37	2801.62
695.55	2541.53
695.74	2547.67
695.92	2432.99
696.10	2621.40
696.29	2267.10
696.47	2363.36
696.66	2373.60
696.84	2379.74
697.03	2496.47
697.21	2650.07
697.40	3710.92
697.58	2545.63
697.76	2447.32
697.95	2494.43
698.13	2351.07
698.32	2428.89
698.50	2449.37
698.68	2547.67
698.87	2527.19
699.05	2672.60
699.24	2443.23
699.42	2326.49
699.61	2525.15
699.79	2519.00
699.97	2449.37
700.16	2385.88
700.34	2371.55
700.53	2432.99
700.71	2645.98
700.89	2562.01
701.08	2465.75
701.26	2551.77
701.45	3014.61
701.63	2301.92
701.81	2443.23
702.00	2408.41
702.18	2424.80
702.37	2420.70
702.55	2797.53
702.73	2674.65
702.92	2576.34
703.10	2779.09
703.28	2770.90
703.47	2537.43
703.65	2721.75
703.84	2691.03
704.02	2498.52
704.20	2666.46
704.39	2437.08
704.57	2473.95
704.75	2621.40
704.94	2602.97
705.12	2686.94
705.30	2910.16
705.49	5642.15
705.67	12894.01
705.86	21096.13
706.04	24579.72
706.22	27885.14
706.41	28204.63
706.59	22787.75
706.77	16678.66
706.96	14004.01
707.14	12486.47
707.32	10772.32
707.51	9375.60
707.69	7606.16
707.87	6016.93
708.06	4964.28
708.24	4179.90
708.42	3452.88
708.61	3246.03
708.79	2699.22
708.97	2645.98
709.16	2654.17
709.34	2531.29
709.52	2449.37
709.71	2478.04
709.89	2547.67
710.07	2414.56
710.26	2414.56
710.44	2494.43
710.62	2637.78
710.80	2457.56
710.99	2566.10
711.17	2555.86
711.35	2504.67
711.54	2453.47
711.72	2570.20
711.90	2455.51
712.09	2488.28
712.27	2406.36
712.45	2533.34
712.63	2467.80
712.82	2545.63
713.00	2482.14
713.18	2525.15
713.37	2584.54
713.55	2527.19
713.73	2514.91
713.91	2527.19
714.10	2346.97
714.28	2441.18
714.46	2545.63
714.65	2531.29
714.83	2482.14
715.01	2500.57
715.19	2488.28
715.38	2394.08
715.56	2582.49
715.74	2428.89
715.92	2465.75
716.11	2658.26
716.29	2254.81
716.47	2504.67
716.65	2461.66
716.84	2332.64
717.02	2580.44
717.20	2297.82
717.38	2389.98
717.57	2490.33
717.75	2516.95
717.93	2428.89
718.11	2494.43
718.30	2383.84
718.48	2494.43
718.66	2568.15
718.84	2562.01
719.03	2496.47
719.21	2361.31
719.39	2752.47
719.57	2564.06
719.75	2635.74
719.94	2340.83
720.12	2455.51
720.30	2498.52
720.48	2562.01
720.67	2344.92
720.85	2430.94
721.03	2506.71
721.21	2349.02
721.39	2555.86
721.58	2543.58
721.76	2551.77
721.94	2461.66
722.12	2586.58
722.30	2717.65
722.49	2465.75
722.67	2482.14
722.85	2457.56
723.03	2301.92
723.21	2435.03
723.40	2529.24
723.58	2602.97
723.76	2574.30
723.94	2703.32
724.12	2637.78
724.30	2668.50
724.49	2645.98
724.67	2432.99
724.85	2662.36
725.03	2344.92
725.21	2588.63
725.40	2605.02
725.58	2402.27
725.76	2609.11
725.94	2570.20
726.12	2385.88
726.30	2490.33
726.49	2480.09
726.67	2461.66
726.85	2613.21
727.03	2912.21
727.21	4386.75
727.39	5742.50
727.57	6696.86
727.76	7454.61
727.94	7780.23
728.12	7106.45
728.30	5490.60
728.48	5009.33
728.66	4542.39
728.84	4081.60
729.03	3657.67
729.21	3297.23
729.39	2981.84
729.57	2719.70
729.75	2715.61
729.93	2643.93
730.11	2445.27
730.30	2473.95
730.48	2441.18
730.66	2531.29
730.84	2533.34
731.02	2514.91
731.20	2441.18
731.38	2455.51
731.56	2342.88
731.74	2318.30
731.93	2572.25
732.11	2498.52
732.29	2396.12
732.47	2572.25
732.65	2473.95
732.83	2645.98
733.01	2580.44
733.19	2428.89
733.37	2555.86
733.56	2555.86
733.74	2486.23
733.92	2619.35
734.10	2408.41
734.28	2529.24
734.46	2265.05
734.64	2398.17
734.82	2435.03
735.00	2392.03
735.18	2396.12
735.36	2371.55
735.54	2451.42
735.73	2447.32
735.91	2547.67
736.09	2654.17
736.27	2416.60
736.45	2578.39
736.63	2297.82
736.81	2392.03
736.99	2523.10
737.17	2629.59
737.35	2455.51
737.53	2490.33
737.71	2469.85
737.89	2580.44
738.07	2416.60
738.25	2469.85
738.43	2363.36
738.61	2480.09
738.80	2316.25
738.98	2377.69
739.16	2402.27
739.34	2490.33
739.52	2717.65
739.70	2445.27
739.88	2611.16
740.06	2592.73
740.24	2267.10
740.42	2643.93
740.60	2277.34
740.78	2400.22
740.96	2293.72
741.14	2381.79
741.32	2525.15
741.50	2326.49
741.68	2596.82
741.86	2656.22
742.04	2404.32
742.22	2297.82
742.40	2475.99
742.58	2500.57
742.76	2404.32
742.94	2521.05
743.12	2326.49
743.30	2457.56
743.48	2564.06
743.66	2447.32
743.84	2498.52
744.02	2498.52
744.20	2502.62
744.38	2375.64
744.56	2367.45
744.74	2721.75
744.92	2574.30
745.10	2613.21
745.28	2537.43
745.46	2699.22
745.64	2539.48
745.82	2547.67
746.00	2432.99
746.18	2537.43
746.36	2469.85
746.54	2523.10
746.72	2488.28
746.90	2375.64
747.08	2693.08
747.26	2455.51
747.44	2506.71
747.62	2609.11
747.80	2523.10
747.98	2549.72
748.15	2461.66
748.33	2699.22
748.51	2486.23
748.69	2682.84
748.87	2383.84
749.05	2416.60
749.23	2500.57
749.41	2506.71
749.59	2457.56
749.77	2625.50
749.95	2461.66
750.13	2394.08
750.31	2465.75
750.49	2463.71
750.67	2701.27
750.85	2645.98
751.03	2432.99
751.20	2662.36
751.38	2482.14
751.56	2510.81
751.74	2480.09
751.92	2519.00
752.10	2340.83
752.28	2654.17
752.46	2432.99
752.64	2480.09
752.82	2455.51
753.00	2594.78
753.18	2475.99
753.35	2498.52
753.53	2473.95
753.71	2422.75
753.89	2502.62
754.07	2453.47
754.25	2555.86
754.43	2488.28
754.61	2387.93
754.79	2584.54
754.97	2484.19
755.14	2621.40
755.32	2430.94
755.50	2473.95
755.68	2523.10
755.86	2250.72
756.04	2408.41
756.22	2322.40
756.40	2445.27
756.57	2703.32
756.75	2398.17
756.93	2713.56
757.11	2535.39
757.29	2326.49
757.47	2361.31
757.65	2306.01
757.82	2217.95
758.00	2303.96
758.18	2400.22
758.36	2449.37
758.54	2707.41
758.72	2299.87
758.90	2559.96
759.07	2508.76
759.25	2379.74
759.43	2525.15
759.61	2301.92
759.79	3481.55
759.97	2572.25
760.15	2359.26
760.32	2426.84
760.50	2482.14
760.68	2635.74
760.86	2277.34
761.04	2605.02
761.22	2555.86
761.39	2527.19
761.57	2457.56
761.75	2449.37
761.93	2473.95
762.11	2537.43
762.28	2461.66
762.46	2400.22
762.64	2576.34
762.82	2351.07
763.00	2416.60
763.18	2688.98
763.35	2326.49
763.53	2553.82
763.71	2428.89
763.89	2480.09
764.07	2525.15
764.24	2498.52
764.42	2531.29
764.60	2359.26
764.78	2541.53
764.96	2650.07
765.13	2572.25
765.31	2400.22
765.49	2572.25
765.67	2422.75
765.84	2396.12
766.02	2410.46
766.20	2310.11
766.38	2502.62
766.56	2555.86
766.73	2510.81
766.91	2467.80
767.09	2504.67
767.27	2553.82
767.44	2361.31
767.62	2539.48
767.80	2494.43
767.98	2445.27
768.15	2463.71
768.33	2523.10
768.51	2559.96
768.69	2498.52
768.87	2545.63
769.04	2482.14
769.22	2686.94
769.40	2621.40
769.58	2680.79
769.75	2461.66
769.93	2660.31
770.11	2443.23
770.28	2349.02
770.46	2488.28
770.64	2553.82
770.82	2342.88
770.99	2463.71
771.17	2535.39
771.35	2453.47
771.53	2424.80
771.70	2371.55
771.88	2537.43
772.06	2529.24
772.23	2392.03
772.41	2465.75
772.59	2443.23
772.77	2387.93
772.94	2432.99
773.12	2514.91
773.30	2463.71
773.47	2449.37
773.65	2383.84
773.83	2666.46
774.01	2457.56
774.18	2342.88
774.36	2430.94
774.54	2349.02
774.71	2592.73
774.89	2224.09
775.07	2326.49
775.24	2420.70
775.42	2299.87
775.60	2715.61
775.78	2334.68
775.95	2338.78
776.13	2215.90
776.31	2275.29
776.48	2480.09
776.66	2617.30
776.84	2443.23
777.01	2420.70
777.19	2342.88
777.37	2406.36
777.54	2512.86
777.72	2678.74
777.90	2568.15
778.07	2346.97
778.25	2820.05
778.43	2594.78
778.60	2381.79
778.78	2516.95
778.96	2658.26
779.13	2363.36
779.31	2545.63
779.49	2545.63
779.66	2492.38
779.84	2449.37
780.01	2400.22
780.19	2373.60
780.37	2637.78
780.54	2572.25
780.72	2387.93
780.90	2408.41
781.07	2404.32
781.25	2394.08
781.43	2568.15
781.60	2406.36
781.78	2580.44
781.95	2473.95
782.13	2398.17
782.31	2439.13
782.48	2230.24
782.66	2504.67
782.83	2672.60
783.01	2572.25
783.19	2535.39
783.36	2506.71
783.54	2338.78
783.72	2635.74
783.89	2389.98
784.07	2447.32
784.24	2514.91
784.42	2596.82
784.60	2504.67
784.77	2514.91
784.95	2240.48
785.12	2455.51
785.30	2441.18
785.47	2342.88
785.65	2367.45
785.83	2453.47
786.00	2422.75
786.18	2473.95
786.35	2387.93
786.53	2375.64
786.71	2590.68
786.88	2557.91
787.06	2500.57
787.23	2445.27
787.41	2299.87
787.58	2482.14
787.76	2420.70
787.94	2435.03
788.11	2451.42
788.29	2342.88
788.46	2488.28
788.64	2316.25
788.81	2396.12
788.99	2457.56
789.16	2398.17
789.34	2443.23
789.52	2400.22
789.69	2502.62
789.87	2117.60
790.04	2387.93
790.22	2523.10
790.39	2725.85
790.57	2398.17
790.74	2373.60
790.92	2623.45
791.09	2338.78
791.27	2447.32
791.44	2594.78
791.62	2486.23
791.79	2576.34
791.97	2512.86
792.15	2721.75
792.32	2523.10
792.50	2463.71
792.67	2645.98
792.85	2617.30
793.02	2510.81
793.20	2461.66
793.37	2281.44
793.55	2439.13
793.72	2285.53
793.90	2609.11
794.07	2381.79
794.25	2342.88
794.42	2523.10
794.60	2478.04
794.77	2506.71
794.95	2525.15
795.12	2551.77
795.30	2488.28
795.47	2277.34
795.65	2777.05
795.82	2490.33
796.00	2441.18
796.17	2449.37
796.34	2371.55
796.52	2519.00
796.69	2531.29
796.87	2521.05
797.04	2469.85
797.22	2578.39
797.39	2576.34
797.57	2596.82
797.74	2572.25
797.92	2498.52
798.09	2379.74
798.27	2637.78
798.44	2385.88
798.62	2387.93
798.79	2437.08
798.96	2498.52
799.14	2465.75
799.31	2850.77
799.49	2510.81
799.66	2469.85
799.84	2504.67
800.01	2371.55
800.19	2523.10
800.36	2359.26
800.53	2557.91
800.71	2516.95
800.88	2637.78
801.06	2424.80
801.23	2396.12
801.41	2428.89
801.58	2439.13
801.75	2412.51
801.93	2598.87
802.10	2584.54
802.28	2435.03
802.45	2342.88
802.63	2500.57
802.80	2629.59
802.97	2396.12
803.15	2504.67
803.32	2498.52
803.50	2344.92
803.67	2353.12
803.84	2330.59
804.02	2478.04
804.19	2424.80
804.37	2260.96
804.54	2414.56
804.71	2342.88
804.89	2473.95
805.06	2359.26
805.24	2340.83
805.41	2334.68
805.58	2404.32
805.76	2742.23
805.93	2475.99
806.10	2602.97
806.28	2568.15
806.45	2459.61
806.63	2502.62
806.80	2533.34
806.97	2506.71
807.15	2494.43
807.32	2510.81
807.49	2494.43
807.67	2389.98
807.84	2551.77
808.01	2273.25
808.19	2656.22
808.36	2777.05
808.54	2412.51
808.71	2400.22
808.88	2355.16
809.06	2580.44
809.23	2678.74
809.40	2349.02
809.58	2463.71
809.75	2432.99
809.92	2379.74
810.10	2658.26
810.27	2465.75
810.44	2531.29
810.62	2572.25
810.79	2394.08
810.96	2330.59
811.14	2394.08
811.31	2525.15
811.48	2441.18
811.66	2420.70
811.83	2695.13
812.00	2533.34
812.18	2457.56
812.35	2680.79
812.52	2416.60
812.69	2426.84
812.87	2359.26
813.04	2400.22
813.21	2496.47
813.39	2361.31
813.56	2367.45
813.73	2596.82
813.91	2291.68
814.08	2521.05
814.25	2471.90
814.42	2287.58
814.60	2408.41
814.77	2482.14
814.94	2488.28
815.12	2430.94
815.29	2619.35
815.46	2420.70
815.63	2469.85
815.81	2473.95
815.98	2371.55
816.15	2432.99
816.33	2441.18
816.50	2400.22
816.67	2566.10
816.84	2437.08
817.02	2363.36
817.19	2459.61
817.36	2449.37
817.53	2543.58
817.71	2392.03
817.88	2461.66
818.05	2430.94
818.22	2426.84
818.40	2559.96
818.57	2463.71
818.74	2572.25
818.91	2516.95
819.09	2564.06
819.26	2519.00
819.43	2404.32
819.60	2430.94
819.78	2519.00
819.95	2555.86
820.12	2389.98
820.29	2645.98
820.47	2635.74
820.64	2490.33
820.81	2338.78
820.98	2406.36
821.15	2459.61
821.33	2602.97
821.50	2283.49
821.67	2549.72
821.84	2422.75
822.02	2447.32
822.19	2613.21
822.36	2465.75
822.53	2426.84
822.70	2297.82
822.88	2488.28
823.05	2627.54
823.22	2447.32
823.39	2600.92
823.56	2447.32
823.74	2691.03
823.91	2351.07
824.08	2318.30
824.25	2289.63
824.42	2695.13
824.60	2234.33
824.77	2484.19
824.94	2463.71
825.11	2562.01
825.28	2252.77
825.45	2574.30
825.63	2494.43
825.80	2398.17
825.97	2490.33
826.14	2389.98
826.31	2342.88
826.48	2559.96
826.66	2338.78
826.83	2402.27
827.00	2533.34
827.17	2398.17
827.34	2435.03
827.51	2351.07
827.69	2441.18
827.86	2389.98
828.03	2445.27
828.20	2512.86
828.37	2486.23
828.54	2494.43
828.71	2375.64
828.89	2611.16
829.06	2506.71
829.23	2686.94
829.40	2383.84
829.57	2439.13
829.74	2506.71
829.91	2445.27
830.09	2396.12
830.26	2578.39
830.43	2627.54
830.60	2392.03
830.77	2490.33
830.94	2645.98
831.11	2549.72
831.28	2514.91
831.46	2514.91
831.63	2369.50
831.80	2596.82
831.97	2357.21
832.14	2400.22
832.31	2461.66
832.48	2523.10
832.65	2562.01
832.82	2523.10
832.99	2549.72
833.17	2324.44
833.34	2676.70
833.51	2486.23
833.68	2351.07
833.85	2586.58
834.02	2398.17
834.19	2375.64
834.36	2308.06
834.53	2545.63
834.70	2650.07
834.87	2473.95
835.04	2342.88
835.22	2447.32
835.39	2543.58
835.56	2365.40
835.73	2334.68
835.90	2582.49
836.07	2306.01
836.24	2502.62
836.41	2322.40
836.58	2359.26
836.75	2629.59
836.92	2371.55
837.09	2301.92
837.26	2570.20
837.43	2523.10
837.60	2480.09
837.77	2387.93
837.94	2537.43
838.12	2648.02
838.29	2375.64
838.46	2297.82
838.63	2263.01
838.80	2650.07
838.97	2443.23
839.14	2473.95
839.31	2447.32
839.48	2572.25
839.65	2379.74
839.82	2555.86
839.99	2514.91
840.16	2473.95
840.33	2312.16
840.50	2408.41
840.67	2416.60
840.84	2236.38
841.01	2402.27
841.18	2443.23
841.35	2387.93
841.52	2576.34
841.69	2750.42
841.86	2410.46
842.03	2512.86
842.20	2605.02
842.37	2430.94
842.54	2289.63
842.71	2430.94
842.88	2299.87
843.05	2443.23
843.22	2394.08
843.39	2533.34
843.56	2461.66
843.73	2422.75
843.90	2494.43
844.07	2551.77
844.24	2478.04
844.41	2449.37
844.58	2400.22
844.75	2482.14
844.92	2531.29
845.09	2496.47
845.26	2420.70
845.43	2596.82
845.60	2410.46
845.77	2494.43
845.94	2383.84
846.10	2537.43
846.27	2338.78
846.44	2338.78
846.61	2281.44
846.78	2531.29
846.95	2617.30
847.12	2332.64
847.29	2400.22
847.46	2430.94
847.63	2586.58
847.80	2371.55
847.97	2394.08
848.14	2699.22
848.31	2498.52
848.48	2301.92
848.65	2400.22
848.82	2408.41
848.98	2842.58
849.15	2422.75
849.32	2449.37
849.49	2605.02
849.66	2529.24
849.83	2412.51
850.00	2301.92
850.17	2627.54
850.34	2455.51
850.51	2334.68
850.68	2371.55
850.85	2772.95
851.01	2525.15
851.18	2428.89
851.35	2375.64
851.52	2525.15
851.69	2703.32
851.86	2258.91
852.03	2424.80
852.20	2615.26
852.37	2439.13
852.53	2285.53
852.70	2244.57
852.87	2523.10
853.04	2519.00
853.21	2445.27
853.38	2473.95
853.55	2586.58
853.72	2629.59
853.89	2318.30
854.05	2349.02
854.22	2400.22
854.39	2394.08
854.56	2379.74
854.73	2543.58
854.90	2437.08
855.07	2480.09
855.23	2332.64
855.40	2394.08
855.57	2445.27
855.74	2232.29
855.91	2586.58
856.08	2213.85
856.25	2330.59
856.41	2457.56
856.58	2346.97
856.75	2400.22
856.92	2250.72
857.09	2629.59
857.26	2244.57
857.42	2392.03
857.59	2545.63
857.76	2424.80
857.93	2412.51
858.10	2449.37
858.27	2326.49
858.43	2478.04
858.60	2402.27
858.77	2224.09
858.94	2473.95
859.11	2668.50
859.27	2359.26
859.44	2344.92
859.61	2703.32
859.78	2613.21
859.95	2418.65
860.12	2301.92
860.28	2781.14
860.45	2717.65
860.62	2389.98
860.79	2521.05
860.95	2369.50
861.12	2392.03
861.29	2299.87
861.46	2353.12
861.63	2488.28
861.79	2449.37
861.96	2351.07
862.13	2375.64
862.30	2645.98
862.47	2404.32
862.63	2353.12
862.80	2498.52
862.97	2580.44
863.14	2570.20
863.30	2502.62
863.47	2342.88
863.64	2707.41
863.81	2465.75
863.97	2355.16
864.14	2453.47
864.31	2463.71
864.48	2506.71
864.65	2396.12
864.81	2398.17
864.98	2557.91
865.15	2605.02
865.32	2428.89
865.48	2492.38
865.65	2662.36
865.82	2330.59
865.98	2439.13
866.15	2451.42
866.32	2389.98
866.49	2457.56
866.65	2592.73
866.82	2232.29
866.99	2471.90
867.16	2330.59
867.32	2402.27
867.49	2297.82
867.66	2414.56
867.83	2451.42
867.99	2248.67
868.16	2406.36
868.33	2330.59
868.49	2363.36
868.66	2404.32
868.83	2430.94
868.99	2437.08
869.16	2510.81
869.33	2562.01
869.50	2432.99
869.66	2484.19
869.83	2467.80
870.00	2301.92
870.16	2467.80
870.33	2416.60
870.50	2545.63
870.66	2400.22
870.83	2445.27
871.00	2449.37
871.17	2521.05
871.33	2402.27
871.50	2383.84
871.67	2445.27
871.83	2277.34
872.00	2566.10
872.17	2422.75
872.33	2707.41
872.50	2553.82
872.67	2406.36
872.83	2398.17
873.00	2478.04
873.17	2492.38
873.33	2473.95
873.50	2441.18
873.67	2422.75
873.83	2396.12
874.00	2340.83
874.16	2510.81
874.33	2492.38
874.50	2328.54
874.66	2359.26
874.83	2375.64
875.00	2613.21
875.16	2564.06
875.33	2465.75
875.50	2246.62
875.66	2482.14
875.83	2562.01
875.99	2455.51
876.16	2375.64
876.33	2369.50
876.49	2475.99
876.66	2400.22
876.83	2430.94
876.99	2246.62
877.16	2455.51
877.32	2375.64
877.49	2404.32
877.66	2547.67
877.82	2656.22
877.99	2449.37
878.15	2543.58
878.32	2443.23
878.49	2490.33
878.65	2299.87
878.82	2516.95
878.98	2404.32
879.15	2615.26
879.32	2572.25
879.48	2439.13
879.65	2377.69
879.81	2400.22
879.98	2383.84
880.15	2424.80
880.31	2615.26
880.48	2371.55
880.64	2424.80
880.81	2498.52
880.97	2723.80
881.14	2664.41
881.31	2330.59
881.47	2482.14
881.64	2527.19
881.80	2234.33
881.97	2435.03
882.13	2410.46
882.30	2351.07
882.47	2408.41
882.63	2310.11
882.80	2422.75
882.96	2418.65
883.13	2605.02
883.29	2351.07
883.46	2435.03
883.62	2801.62
883.79	2404.32
883.95	2461.66
884.12	2381.79
884.29	2568.15
884.45	2551.77
884.62	2408.41
884.78	2349.02
884.95	2619.35
885.11	2451.42
885.28	2570.20
885.44	2308.06
885.61	2564.06
885.77	2660.31
885.94	2457.56
886.10	2408.41
886.27	2469.85
886.43	2682.84
886.60	2596.82
886.76	2398.17
886.93	2443.23
887.09	2457.56
887.26	2279.39
887.42	2385.88
887.59	2486.23
887.75	2691.03
887.92	2566.10
888.08	2457.56
888.25	2752.47
888.41	2580.44
888.58	2404.32
888.74	2359.26
888.91	2406.36
>>>>>End Processed Spectral Data<<<<<
